imu,server_time,arduino_time,ax,ay,az,gx,gy,gz,mx,my,mz
1,2021-07-02 11:01:01.134,6781134,-0.20233320163930874,-10.300557050097371,-0.021836474875705086,10.385120391518829,-21.54928607556412,-8.541302881583439,410.2914119270579,42.704464741087016,-178.90637324678332
1,2021-07-02 11:01:01.140,6781140,-0.20502832387069705,-10.301479305869522,-0.01653866752182433,10.372219977131907,-21.569220283565887,-8.55023270305059,410.11326706635555,42.73289457713361,-178.710766337413
1,2021-07-02 11:01:01.147,6781147,-0.20773230437891832,-10.302413123406222,-0.011293007218183196,10.359301838394838,-21.589525805925835,-8.560704611809754,409.9247248085891,42.758943699012725,-178.51283270423892
1,2021-07-02 11:01:01.154,6781154,-0.2104389850452685,-10.303357851723167,-0.006111263358139778,10.346404999348739,-21.61018379759412,-8.572761778042256,409.7257195803654,42.78251957329994,-178.31279810140126
1,2021-07-02 11:01:01.162,6781162,-0.21314202672516527,-10.30431290506816,-0.001005017863356545,10.333570383815855,-21.631174918839836,-8.586443281691427,409.5162138211284,42.80354009933462,-178.1108926686747
1,2021-07-02 11:01:01.167,6781167,-0.2158349286897753,-10.305277772700594,0.004014397163587748,10.32084075547547,-21.652479432820527,-8.601783765398851,409.29619927939757,42.821934381060736,-177.90735036013982
1,2021-07-02 11:01:01.176,6781176,-0.2185110492784658,-10.306252027149393,0.008935957426376012,10.308260639479833,-21.674077305746014,-8.618813098314028,409.0656982299622,42.837643485342,-177.7024083304018
1,2021-07-02 11:01:01.185,6781185,-0.22116362739924864,-10.307235331234962,0.01374900045889983,10.295876223959887,-21.695948308789053,-8.637556053068034,408.8247645991137,42.85062118804376,-177.49630626591957
1,2021-07-02 11:01:01.192,6781192,-0.22378580476683738,-10.308227443983919,0.018443276050049136,10.283735239903404,-21.71807212123073,-8.658031998469683,408.5734849843524,42.8608347090131,-177.28928564890776
1,2021-07-02 11:01:01.199,6781199,-0.2263706491948392,-10.309228225246938,0.023008993174708073,10.271886818189813,-21.740428434741446,-8.680254611107946,408.311979554363,42.868265434996836,-177.0815889450412
1,2021-07-02 11:01:01.205,6781205,-0.22891117937218644,-10.310237638714936,0.027436863185066655,10.26038132340742,-21.762997058478206,-8.704231609860646,408.0404028144068,42.87290961973654,-176.87345872538535
1,2021-07-02 11:01:01.212,6781212,-0.23140039121612305,-10.311255753255972,0.0317181386552854,10.249270165602555,-21.785758024110027,-8.729964517653006,407.7589442216457,42.874779032970714,-176.66513676759868
1,2021-07-02 11:01:01.217,6781217,-0.23383128554664293,-10.312282742773363,0.03584464715897551,10.238605592091949,-21.808691689810736,-8.757448454395723,407.4678286342836,42.873901520270536,-176.45686320067648
1,2021-07-02 11:01:01.225,6781225,-0.23619689680153708,-10.313318884818331,0.03980881953074439,10.22844046104849,-21.831778842895485,-8.78667196408952,407.16731657778973,42.87032144509731,-176.24887573821331
1,2021-07-02 11:01:01.233,6781233,-0.23849032250344027,-10.314364558019989,0.04360371248943922,10.218827998215673,-21.855000801128924,-8.817616878108936,406.85770431086394,42.864100001638754,-176.04140901047117
1,2021-07-02 11:01:01.242,6781242,-0.24070475289217763,-10.315420238220208,0.047223025532557285,10.209821539294808,-21.878339511969465,-8.850258215980086,406.5393236732075,42.85531539644541,-175.83469398627716
1,2021-07-02 11:01:01.249,6781249,-0.2428334998371913,-10.316486493210789,0.05066111184050766,10.201474262404503,-21.901777647743955,-8.884564124268335,406.2125416965865,42.844062898649405,-175.62895747193906
1,2021-07-02 11:01:01.254,6781254,-0.24487002420480314,-10.317563976206793,0.0539129828041411,10.193838915946497,-21.925298694036638,-8.920495853349788,405.8777599601158,42.830454758385514,-175.4244216743988
1,2021-07-02 11:01:01.261,6781261,-0.2468079612045225,-10.318653418403267,0.05697430589762592,10.186967546601554,-21.94888702889154,-8.958007771431308,405.5354136701519,42.81461999287747,-175.22130381589065
1,2021-07-02 11:01:01.267,6781267,-0.24864114371649182,-10.319755620917,0.059841396158937965,10.180911230403009,-21.972527991420915,-8.997047415325614,405.1859704446671,42.7967040395009,-175.0198157874305
1,2021-07-02 11:01:01.276,6781276,-0.2503636240980532,-10.32087144622142,0.06251120237415862,10.175719808125788,-21.99620793918384,-9.037555577469382,404.8299287814849,42.776868274989916,-174.82016382853612
1,2021-07-02 11:01:01.284,6781284,-0.2519696952006287,-10.322001809053928,0.06498128960598461,10.171441625391187,-22.019914294027036,-9.079466428445569,404.46781618929435,42.75528939981789,-174.62254822066652
1,2021-07-02 11:01:01.291,6781291,-0.25345391110998877,-10.323147666711066,0.06724981985571292,10.168123277495434,-22.043635576470315,-9.122707673930584,404.1001869599206,42.73215868665532,-174.4271629819675
1,2021-07-02 11:01:01.299,6781299,-0.25481110772043875,-10.324310008555186,0.06931553275069126,10.165809358707413,-22.067361429140206,-9.167200743876524,403.7276195599279,42.70768109169001,-174.23419555102467
1,2021-07-02 11:01:01.304,6781304,-0.25603642310824226,-10.325489844464759,0.07117772760857877,10.164542216153139,-22.09108262995442,-9.212861010245076,403.3507136192545,42.682074227488194,-174.04382644744905
1,2021-07-02 11:01:01.309,6781309,-0.2571253178645694,-10.326688191952092,0.07283624646688218,10.164361709506226,-22.11479109592668,-9.259598029201685,402.9700864942431,42.65556719597986,-173.85622889725903
1,2021-07-02 11:01:01.315,6781315,-0.25807359575671057,-10.327906061751946,0.07429145611921291,10.165304978460613,-22.13847987870663,-9.307315804932413,402.58636938212453,42.628399280069466,-173.6715684111698
1,2021-07-02 11:01:01.320,6781320,-0.25887742492633287,-10.329144441889055,0.07554422734799407,10.167406219702322,-22.16214315308789,-9.355913074371358,402.2002029801235,42.60081849519361,-173.49000230695245
1,2021-07-02 11:01:01.325,6781325,-0.2595333590290956,-10.33040428077025,0.07659591051861736,10.170696474934827,-22.1857761994241,-9.405283613298465,401.81223276400465,42.573080016541915,-173.31167918164354
1,2021-07-02 11:01:01.330,6781330,-0.26003835645967505,-10.331686470685197,0.07744830714698309,10.175203432379556,-22.209375380220486,-9.455316563577393,401.4231041080705,42.545444523625584,-173.1367383655764
1,2021-07-02 11:01:01.335,6781335,-0.26038979513474175,-10.332991833549675,0.07810363705827544,10.180951244884124,-22.23293811077974,-9.505896780575085,401.03345755035264,42.51817651830234,-172.9653094048445
1,2021-07-02 11:01:01.342,6781342,-0.260585480992163,-10.334321110236372,0.07856450092622703,10.187960367188406,-22.25646282416629,-9.556905200405092,400.6439244247465,42.49154265790787,-172.79751160455766
1,2021-07-02 11:01:01.349,6781349,-0.26062364976808805,-10.335674953794296,0.07883383852119119,10.196247414096625,-22.279948931422382,-9.608219226282362,400.25512293438385,42.46581011914132,-172.63345363945132
1,2021-07-02 11:01:01.355,6781355,-0.2605029627038898,-10.33705392596204,0.07891488371831976,10.20582504148267,-22.303396778291162,-9.659713130388193,399.86765465862663,42.44124499392592,-172.4732332241754
1,2021-07-02 11:01:01.361,6781361,-0.2602224973131161,-10.338458496030126,0.07881111774164155,10.216701852496755,-22.326807599707386,-9.711258465347917,399.48210146969643,42.418110715615214,-172.31693683292286
1,2021-07-02 11:01:01.368,6781368,-0.25978173460500487,-10.339889041317273,0.07852622210804268,10.22888233114368,-22.350183473195678,-9.762724479877114,399.0990228349958,42.39666651397056,-172.16463945828826
1,2021-07-02 11:01:01.375,6781375,-0.25918054464830637,-10.341345848901609,0.07806403272355333,10.242366804984743,-22.37352727210063,-9.81397853394501,398.7189534812627,42.3771658974078,-172.01640439948267
1,2021-07-02 11:01:01.382,6781382,-0.2584191725840035,-10.342829118420598,0.07742849662349977,10.257151438329144,-22.396842619333846,-9.864886509114948,398.34240139681265,42.35985516109875,-171.87228307027283
1,2021-07-02 11:01:01.389,6781389,-0.25749822639879444,-10.344338965667077,0.07662363267611533,10.273228256120815,-22.420133841894287,-9.915313211257029,397.96984614827784,42.344971919617095,-171.73231481725813
1,2021-07-02 11:01:01.395,6781395,-0.25641866643609007,-10.345875426460745,0.07565349739287983,10.29058519674516,-22.443405925634465,-9.965122764805523,397.6017374884338,42.33274366293799,-171.5965267393487
1,2021-07-02 11:01:01.404,6781404,-0.2551817958659723,-10.347438460128048,0.07452215676223406,10.309206190725236,-22.466664469292976,-10.014178998778588,397.2384942319221,42.323386334735005,-171.46493349956194
1,2021-07-02 11:01:01.411,6781411,-0.25378925138095637,-10.349027952073019,0.07323366407102018,10.32907126231686,-22.489915637357445,-10.0623458255301,396.8805033759215,42.31710293206734,-171.33753712050913
1,2021-07-02 11:01:01.418,6781418,-0.252242993664534,-10.350643715163798,0.07179204214245632,10.350156651114622,-22.513166112166097,-10.109487613805204,396.5281194430917,42.31408212571358,-171.2143267552014
1,2021-07-02 11:01:01.425,6781425,-0.25054529733084374,-10.352285489753687,0.07020126776629453,10.372434950976926,-22.536423045773585,-10.155469557348262,396.1816640244161,42.31449690058422,-171.09527842506256
1,2021-07-02 11:01:01.432,6781432,-0.24869874011166287,-10.353952942157198,0.06846525707032997,10.39587526500551,-22.559694011593223,-10.200158039301293,395.8414254998863,42.31850321583449,-170.98035471729423
1,2021-07-02 11:01:01.437,6781437,-0.24670619115408446,-10.3556456615096,0.06658785193294066,10.42044337716718,-22.582986955519313,-10.243420991983326,395.5076589172481,42.32623868642576,-170.8695044339961
1,2021-07-02 11:01:01.445,6781445,-0.2445707983979588,-10.357363155379398,0.0645728079865819,10.446101941811337,-22.606310146431408,-10.285128251332669,395.1805860190197,42.33782129772764,-170.7626621895532
1,2021-07-02 11:01:01.452,6781452,-0.24229597512646,-10.35910484522166,0.06242378458780271,10.47281069195807,-22.629672126212192,-10.3251519044719,394.86039542571996,42.35334818231299,-170.65974797232192
1,2021-07-02 11:01:01.459,6781459,-0.23988538584317198,-10.360870063117822,0.060144336987392376,10.500526666732297,-22.65308165949104,-10.363366628127823,394.5472429932691,42.3728944979596,-170.560666721575
1,2021-07-02 11:01:01.468,6781468,-0.2373429315512733,-10.362658050726443,0.05773791094874662,10.529204457533403,-22.67654768348518,-10.399650015803413,394.2412523533058,42.39651243647585,-170.465307990178
1,2021-07-02 11:01:01.475,6781475,-0.2346727343775729,-10.364467960413515,0.055207840178328874,10.558796471101571,-22.700079258454917,-10.433882891708462,393.94251562824854,42.42423037587047,-170.37354574444572
1,2021-07-02 11:01:01.483,6781483,-0.23187912145738412,-10.366298857991236,0.05255734695162236,10.589253206590195,-22.72368551933987,-10.46594960944687,393.6510943037253,42.45605217900044,-170.28523831818362
1,2021-07-02 11:01:01.490,6781490,-0.22896660822738538,-10.36814972656492,0.04978954595176959,10.620523543504918,-22.74737562924119,-10.495738334516583,393.3670202395139,42.49195664015437,-170.2002285188828
1,2021-07-02 11:01:01.495,6781495,-0.22593988172129903,-10.370019471238829,0.04690745071021878,10.652555036786307,-22.77115873549013,-10.5231413112581,393.0902968005767,42.5318970812805,-170.11834388040495
1,2021-07-02 11:01:01.500,6781500,-0.22280378471330772,-10.371906924534752,0.043913981737224154,10.685294214742369,-22.795043928960837,-10.548055115686175,392.82090009022517,42.575801099819884,-170.03939705670584
1,2021-07-02 11:01:01.507,6781507,-0.21956330131672716,-10.373810852276625,0.04081197585468678,10.71868687587949,-22.819040206856116,-10.570380895704487,392.55878026790236,42.623570470356384,-169.9631863513481
1,2021-07-02 11:01:01.513,6781513,-0.21622354422428408,-10.375729959445918,0.03760419706377111,10.752678380869428,-22.84315643834748,-10.590024600056115,392.3038629345206,42.67508120254236,-169.88949637774675
1,2021-07-02 11:01:01.520,6781520,-0.21278974352572977,-10.377662895384065,0.034293349723116776,10.787213935846719,-22.867401331896293,-10.606897197272664,392.0560505687444,42.73018375800221,-169.81809884527112
1,2021-07-02 11:01:01.528,6781528,-0.20926723688944393,-10.379608257959758,0.030882094549482177,10.822238864068856,-22.891783403318666,-10.620914886136262,391.8152239980552,42.788703429153145,-169.7487534664943
1,2021-07-02 11:01:01.535,6781535,-0.20566146072291308,-10.381564596736089,0.027373067408583623,10.857698863932809,-22.916310944019735,-10.631999299714455,391.58124388887785,42.850440883111744,-169.68120898103703
1,2021-07-02 11:01:01.543,6781543,-0.20197794183834786,-10.383530415413906,0.0237689005726824,10.893540251690816,-22.94099198895709,-10.640077705236537,391.353952240485,42.9151728740756,-169.61520429159307
1,2021-07-02 11:01:01.549,6781549,-0.19822228925467533,-10.385504173865511,0.020072246179603175,10.92971018734926,-22.965834284107093,-10.645083201525047,391.13317386782677,42.98265312777832,-169.5504697078493
1,2021-07-02 11:01:01.555,6781555,-0.19440018596908284,-10.387484290073466,0.016285801828588676,10.9661568819769,-22.990845253358874,-10.646954914804533,390.9187178588526,43.05261340181395,-169.48672829412422
1,2021-07-02 11:01:01.561,6781561,-0.19051738062773307,-10.389469142285291,0.012412338339014504,11.002829784498465,-23.016031964786073,-10.645638193106139,390.7103789923053,43.124764725810046,-169.42369731664346
1,2021-07-02 11:01:01.569,6781569,-0.18657967891959376,-10.391457071616644,0.00845472954067163,11.039679747144232,-23.041401096382675,-10.641084799194589,390.50793910236723,43.19879882559728,-169.36108978644808
1,2021-07-02 11:01:01.578,6781578,-0.18259293430616289,-10.393446385211101,0.004415983669342518,11.076659170378399,-23.066958901430834,-10.633253101680234,390.31116837692633,43.27438973567535,-169.29861609399356
1,2021-07-02 11:01:01.584,6781584,-0.17856303759949782,-10.395435359981729,0.0002992757017204847,11.113722129106716,-23.092711173663506,-10.622108263656104,390.11982658046327,43.35119560055585,-169.23598572961308
1,2021-07-02 11:01:01.589,6781589,-0.17449590504942614,-10.397422246904279,-0.003892020330908911,11.15082448252782,-23.11866321250655,-10.607622427700544,389.93366421218593,43.42886064641249,-169.17290907441307
1,2021-07-02 11:01:01.596,6781596,-0.17039746488768934,-10.399405275748698,-0.008154300511999266,11.187923970640517,-23.144819788767727,-10.589774895315498,389.75242364506687,43.50701726988563,-169.10909922883698
1,2021-07-02 11:01:01.604,6781604,-0.1662736424673759,-10.401382660103227,-0.012483703305681501,11.224980300724726,-23.17118511108871,-10.56855229828739,389.57584031103977,43.58528817169676,-169.04427383649147
1,2021-07-02 11:01:01.612,6781612,-0.1621303442165327,-10.403352602688638,-0.01687608550833682,11.261955226579113,-23.19776279331482,-10.543948759394114,389.403643978662,43.6632884820466,-168.9781568704341
1,2021-07-02 11:01:01.617,6781617,-0.15797344074715416,-10.405313301209642,-0.021327000659799908,11.298812622303142,-23.224555822523104,-10.515966039888019,389.2355601351773,43.740627859479034,-168.91048036641638
1,2021-07-02 11:01:01.622,6781622,-0.15380874955121432,-10.407262955147438,-0.025831677704509216,11.335518551674065,-23.251566527185933,-10.484613671071767,389.0713114659327,43.816912564165136,-168.84098609714584
1,2021-07-02 11:01:01.627,6781627,-0.14964201764978194,-10.409199773933885,-0.03038499838136077,11.37204133347726,-23.278796545331417,-10.449909067360316,388.91061942052045,43.89174751039829,-168.76942718347934
1,2021-07-02 11:01:01.632,6781632,-0.14547890447759146,-10.411121986988865,-0.0349814731891633,11.408351602003721,-23.30624679314411,-10.411877618369694,388.7532058552711,43.964738303050005,-168.69556963836277
1,2021-07-02 11:01:01.637,6781637,-0.14132496523894295,-10.41302785612481,-0.03961521653597278,11.444422361287367,-23.33391743477864,-10.37055275756334,388.59879474195685,44.03549326267135,-168.61919383922185
1,2021-07-02 11:01:01.642,6781642,-0.13718563482802745,-10.414915690659729,-0.04427992167897176,11.480229032291332,-23.361807854448998,-10.325976004978006,388.4471139327873,44.10362544383525,-168.54009592438115
1,2021-07-02 11:01:01.649,6781649,-0.13306621222293144,-10.416783865135171,-0.048968835765562796,11.515749492294747,-23.389916632106555,-10.278196981638686,388.2978969719801,44.16875465120159,-168.45808910894814
1,2021-07-02 11:01:01.657,6781657,-0.12897184518950935,-10.41863083894251,-0.053674735008362666,11.55096410378159,-23.418241524017876,-10.22727339333008,388.1508849443724,44.23050945764934,-168.3730049154444
1,2021-07-02 11:01:01.663,6781663,-0.1249075151690201,-10.420455176831478,-0.05838989994597239,11.585855728655707,-23.44677944941662,-10.173270981318352,388.00582835171286,44.28852922865844,-168.28469431429826
1,2021-07-02 11:01:01.671,6781671,-0.12087802238569707,-10.422255569389282,-0.06310609099556286,11.62040972485243,-23.475526484180325,-10.116263437459416,387.8624890074198,44.3424661569396,-168.19302876913613
1,2021-07-02 11:01:01.677,6781677,-0.11688797150185426,-10.424030852785481,-0.06781452495918934,11.65461392467335,-23.504477862069677,-10.056332281007553,387.7206419407332,44.391987311102596,-168.09790118161968
1,2021-07-02 11:01:01.684,6781684,-0.11294175835704319,-10.425780027136495,-0.07250585351385022,11.688458595383302,-23.533627983709696,-9.993566694533087,387.5800773013045,44.436776701923925,-167.99922673037864
1,2021-07-02 11:01:01.689,6781689,-0.10904355837132804,-10.42750227278206,-0.07717014514722041,11.721936383061761,-23.562970433212715,-9.928063317263028,387.44060225537874,44.47653736952367,-167.89694359838316
1,2021-07-02 11:01:01.698,6781698,-0.10519731727799538,-10.429196963556286,-0.08179687274478448,11.755042240963867,-23.592498001787114,-9.859925995969192,387.30204286481313,44.510993494490066,-167.79101358288708
1,2021-07-02 11:01:01.705,6781705,-0.1014067448905202,-10.430863676027942,-0.08637490931786797,11.787773343758442,-23.622202717277023,-9.789265494917958,387.16424593640517,44.539892529919506,-167.6814225818558
1,2021-07-02 11:01:01.712,6781712,-0.0976753122986549,-10.432502194039118,-0.09089253311068435,11.820128989090573,-23.65207587885869,-9.716199167269986,387.02708080980346,44.56300732213223,-167.56818095057162
1,2021-07-02 11:01:01.721,6781721,-0.0940062523349162,-10.434112508531095,-0.09533744114900342,11.852110488004117,-23.682108096351744,-9.640850592494294,386.8904410176556,44.58013813548013,-167.45132372188453
1,2021-07-02 11:01:01.727,6781727,-0.09040256258097486,-10.435694813361426,-0.09969676916438022,11.883721045973358,-23.71228933314054,-9.563349187365391,386.7542457324281,44.591114467423225,-167.33091068335335
1,2021-07-02 11:01:01.733,6781733,-0.08686700964870926,-10.437249498531397,-0.10395711651789273,11.914965636775664,-23.742608951110785,-9.48382979919639,386.6184409336401,44.59579656859455,-167.2070263042968
1,2021-07-02 11:01:01.740,6781740,-0.08340213328125515,-10.438777142541921,-0.10810457608440284,11.945850871761428,-23.773055756079636,-9.402432287995934,386.48300026396396,44.59407663422335,-167.07977950555343
1,2021-07-02 11:01:01.747,6781747,-0.08001024928355473,-10.440278505108568,-0.11212477006383058,11.976384866659918,-23.803618042759524,-9.319301100747234,386.34792556194094,44.585879661807006,-166.94930326453067
1,2021-07-02 11:01:01.754,6781754,-0.07669345105074965,-10.441754520664631,-0.11600289347004893,12.006577107136698,-23.83428363854142,-9.23458483850571,386.21324706293876,44.571163975315464,-166.81575404791027
1,2021-07-02 11:01:01.761,6781761,-0.07345360988584784,-10.443206292630803,-0.11972376735344711,12.036438313727427,-23.86503994549385,-9.148435815837754,386.0790232599995,44.54992141581867,-166.67931106417169
1,2021-07-02 11:01:01.768,6781768,-0.07029237427037321,-10.444635088349806,-0.12327190305185688,12.065980306751303,-23.895873980826092,-9.061009610610384,385.94534041625366,44.52217719802963,-166.5401753278966
1,2021-07-02 11:01:01.774,6781774,-0.06721116809067125,-10.446042334582796,-0.12663157743256284,12.095215871857436,-23.92677241735021,-8.972464600266735,385.812311720599,44.48798943185562,-166.39856852762958
1,2021-07-02 11:01:01.782,6781782,-0.06421118777666052,-10.447429613425825,-0.1297869183341102,12.124158626766034,-23.95772162609008,-8.882961479686312,385.6800760783734,44.44744830764897,-166.2547316888923
1,2021-07-02 11:01:01.788,6781788,-0.061293398475709644,-10.448798658373768,-0.13272199954379685,12.152822889533406,-23.988707722677184,-8.792662755602894,385.5487965287858,44.400674943449765,-166.10892362378357
1,2021-07-02 11:01:01.795,6781795,-0.058458529720552224,-10.450151350008017,-0.1354209450486098,12.181223548153174,-24.019716618039226,-8.701732212768487,385.41865828090926,44.34781989211687,-165.96141915844663
1,2021-07-02 11:01:01.807,6781807,-0.05570707129442847,-10.45148971060732,-0.13786804239043887,12.20937593100386,-24.050734073180017,-8.610334347427193,385.28986636009273,44.289061305853465,-165.81250712954784
1,2021-07-02 11:01:01.821,6781821,-0.053039270038511,-10.452815896989215,-0.14004786446040743,12.2372956781887,-24.081745757882814,-8.518633765201528,385.1626428682652,44.224602764883365,-165.66248814656964
1,2021-07-02 11:01:01.835,6781835,-0.05045512833796837,-10.454132190888544,-0.14194539820263985,12.264998614642492,-24.11273731306809,-8.426794544641307,385.0372239194748,44.154670824825125,-165.51167214551631
1,2021-07-02 11:01:01.850,6781850,-0.04795440482568409,-10.455440986215637,-0.14354617838363312,12.292500626339026,-24.143694415968458,-8.33497957295657,384.91385641612646,44.079512423644175,-165.36037581156202
1,2021-07-02 11:01:01.862,6781862,-0.04553661725419809,-10.456744772989282,-0.14483642508611244,12.319817541486898,-24.17460284680122,-8.243349863486387,384.79279488927403,43.99939233687745,-165.20891997700073
1,2021-07-02 11:01:01.873,6781873,-0.043201046810558,-10.458046118636265,-0.14580318391345687,12.346965019583553,-24.205448555223047,-8.152063865291922,384.6742985686384,43.91459082132386,-165.05762707191144
1,2021-07-02 11:01:01.885,6781885,-0.04094674280878504,-10.459347648135031,-0.14643446761063372,12.373958451619337,-24.236217724540822,-8.061276775358357,384.5586287441152,43.82540150037669,-164.9068186529041
1,2021-07-02 11:01:01.896,6781896,-0.038772526805596244,-10.460652024563998,-0.14671939736119186,12.40081287361408,-24.26689683208437,-7.971139861926834,384.4460464228787,43.73212949570418,-164.75681300640358
1,2021-07-02 11:01:01.908,6781908,-0.03667699565483725,-10.461961931022895,-0.14664834152673853,12.427542893620227,-24.297472705272334,-7.88179980339905,384.3368102747894,43.635089800063966,-164.60792281715933
1,2021-07-02 11:01:01.922,6781922,-0.03465852374351868,-10.46328005409998,-0.14621304933578316,12.454162630571414,-24.32793257386944,-7.793398044388778,384.23117485898683,43.53460588576676,-164.4604528926979
1,2021-07-02 11:01:01.934,6781934,-0.03271526548094979,-10.464609068262675,-0.14540677757724563,12.480685662280406,-24.358264119283227,-7.7060701707793475,384.12938912473703,43.431008543053636,-164.31469793448466
1,2021-07-02 11:01:01.947,6781947,-0.030845159582057653,-10.465951619864965,-0.1442244094760587,12.507124979653609,-24.388455521505016,-7.619945307480148,384.03169517596024,43.32463493856611,-164.17094035048325
1,2021-07-02 11:01:01.962,6781962,-0.029045936428433995,-10.46731030935905,-0.1426625657283128,12.533492945327804,-24.41849550359776,-7.535145543865055,383.938327269819,43.2158278646105,-164.02944812315332
1,2021-07-02 11:01:01.973,6781973,-0.027315128980808286,-10.468687670988544,-0.1407197075633007,12.559801257037845,-24.44837337261431,-7.451785392984243,383.84951098530405,43.10493511504792,-163.89047278171122
1,2021-07-02 11:01:01.986,6781986,-0.025650086713412113,-10.470086150189502,-0.13839623079458208,12.586060917582872,-24.47807905492846,-7.369971292104899,383.7654624787441,42.99230890420474,-163.75424754686642
1,2021-07-02 11:01:01.999,6781999,-0.024047991299613113,-10.471508079546267,-0.1356945487651291,12.612282213530609,-24.50760312388879,-7.289801152430996,383.68638776269603,42.87830526431408,-163.62098569711932
1,2021-07-02 11:01:02.012,6782012,-0.022505872727188025,-10.472955654511077,-0.13261916162714876,12.638474704139982,-24.53693681843757,-7.211363964763658,383.6124819796304,42.76328339154918,-163.49087917118277
1,2021-07-02 11:01:02.025,6782025,-0.021020624921382375,-10.474430910416787,-0.12917671000324255,12.66464722081023,-24.56607205217986,-7.1347394666237305,383.5439286613877,42.64760492986846,-163.36409740199136
1,2021-07-02 11:01:02.039,6782039,-0.019589020215463365,-10.47593570223483,-0.12537601230662532,12.690807875995773,-24.59500141305569,-7.0599978744289915,383.4808989695391,42.53163318566039,-163.24078637409224
1,2021-07-02 11:01:02.051,6782051,-0.01820772209038989,-10.477471687778314,-0.12122808543462857,12.716964079244624,-24.62371815416767,-6.987199681510182,383.4235509121037,42.41573226611395,-163.12106789640367
1,2021-07-02 11:01:02.059,6782059,-0.016873295866409514,-10.479040314200748,-0.11674614766802434,12.743122557305954,-24.652216176327443,-6.916395520539021,383.37202853240433,42.30026613419953,-163.0050390825321
1,2021-07-02 11:01:02.071,6782071,-0.015582217437628604,-10.480642807300503,-0.1119456018745838,12.769289375867865,-24.68049000289577,-6.847626087556222,383.3264610661831,42.18559757312771,-162.89277203105138
1,2021-07-02 11:01:02.086,6782086,-0.014330880364571981,-10.482280163189252,-0.10684399783827798,12.795469962081576,-24.708534747888525,-6.780922123500838,383.2869620682637,42.072087056046946,-162.7843136993308
1,2021-07-02 11:01:02.096,6782096,-0.013115601840499596,-10.483953142083532,-0.10146097407255067,12.821669127794635,-24.736346078852453,-6.716304448324796,383.2536285344895,41.960091531217806,-162.67968596954202
1,2021-07-02 11:01:02.109,6782109,-0.011932628491662866,-10.485662264276645,-0.09581818053164903,12.847891092578948,-24.763920176277338,-6.653784042996205,383.22654008837975,41.84996315895892,-162.57888591437515
1,2021-07-02 11:01:02.123,6782123,-0.010778143107574084,-10.487407808447351,-0.0899391835925604,12.874139504637029,-24.791253691067954,-6.593362175761945,383.20575832640276,41.742048051180575,-162.48188627504413
1,2021-07-02 11:01:02.137,6782137,-0.009648272695548616,-10.489189812126424,-0.08384935363828795,12.900417457765826,-24.81834370072382,-6.535030570582045,383.19132639206015,41.63668504996563,-162.38863615958027
1,2021-07-02 11:01:02.148,6782148,-0.008539097363072103,-10.491008073746542,-0.07757573449595681,12.926727503293431,-24.845187663785914,-6.478771617049003,383.1832688060148,41.53420455576345,-162.29906196097804
1,2021-07-02 11:01:02.159,6782159,-0.0074466593262300035,-10.492862155730993,-0.07114689412956797,12.953071656474323,-24.871783371636713,-6.424558621613277,383.18159155579934,41.43492740144944,-162.2130684901742
1,2021-07-02 11:01:02.172,6782172,-0.006366971643051344,-10.494751388495189,-0.06459275746748902,12.979451397067548,-24.898128897119502,-6.3723560996696245,383.1862824442164,41.339163765769634,-162.13054031810773
1,2021-07-02 11:01:02.185,6782185,-0.005296026455953677,-10.496674875667287,-0.05794442380940163,13.005867663919014,-24.924222540281306,-6.322120107617666,383.19731169593405,41.24721211986732,-162.0513433213338
1,2021-07-02 11:01:02.196,6782196,-0.0042298026297404095,-10.498631500868848,-0.05123397192330122,13.032320843544909,-24.95006277252342,-6.27379861353538,383.21463282217377,41.15935820078549,-161.97532642588524
1,2021-07-02 11:01:02.206,6782206,-0.00316427300829811,-10.500619935959202,-0.04449425598141801,13.058810752952363,-24.975648181202338,-6.227331904619645,383.2381837370334,41.07587400894482,-161.90232353947067
1,2021-07-02 11:01:02.219,6782219,-0.0020954118725988726,-10.502638650311656,-0.0377586952576337,13.085336617164838,-25.000977416629325,-6.182653028957841,383.26788808566704,40.99701684128087,-161.83215563822134
1,2021-07-02 11:01:02.231,6782231,-0.001019203284137161,-10.50468592088137,-0.0310610599170863,13.111897042087776,-25.026049142390306,-6.139688268174782,383.30365668424,40.92302839798468,-161.7646329310457
1,2021-07-02 11:01:02.242,6782242,6.834900662808437e-05,-10.506759843081035,-0.024435254537712104,13.138489983289166,-25.050861988912363,-6.098357636436324,383.3453889382479,40.85413401550934,-161.699557000754
1,2021-07-02 11:01:02.257,6782257,0.0011712095455060011,-10.508858342274223,-0.017915100659163314,13.165112711232306,-25.07541450995056,-6.058575401163872,383.39297413988027,40.79054206433992,-161.63672284537137
1,2021-07-02 11:01:02.269,6782269,0.0022932969819686767,-10.510979185267907,-0.011534119675262043,13.191761773871464,-25.099705141747602,-6.020250621748885,383.44629260617245,40.73244352431517,-161.57592078656907
1,2021-07-02 11:01:02.277,6782277,0.0034384680972495405,-10.513119991122498,-0.005325317537597822,13.21843295781528,-25.123732164705693,-5.983287703778525,383.5052166537698,40.68001173615296,-161.51693823637564
1,2021-07-02 11:01:02.289,6782289,0.004610500558463198,-10.51527824106647,0.0006790272418413122,13.245121248877608,-25.14749366770175,-5.9475869672398405,383.56961141323245,40.633402325267824,-161.45956131828495
1,2021-07-02 11:01:02.301,6782301,0.005813075020285259,-10.51745128790979,0.0064475710314684815,13.271820792220897,-25.170987515374456,-5.913045227693956,383.6393354861614,40.59275329430689,-161.40357633900263
1,2021-07-02 11:01:02.309,6782309,0.007049757735528773,-10.519636365698531,0.011950106875394433,13.298524852187986,-25.194211318324065,-5.879556389377028,383.7142414487734,40.55818528117894,-161.34877110718435
1,2021-07-02 11:01:02.317,6782317,0.008323985357577855,-10.52183060038653,0.017157759298219954,13.325225772377323,-25.217162405620133,-5.847012048669945,383.79417620588754,40.529801979709426,-161.2949360956197
1,2021-07-02 11:01:02.326,6782326,0.009639053412448117,-10.524031022125024,0.02204317051633352,13.351914937125477,-25.23983779913824,-5.815302105620662,383.87898120154085,40.507690716567865,-161.24186544532606
1,2021-07-02 11:01:02.333,6782333,0.010998109013839638,-10.526234579568495,0.026580676753401426,13.378582735853366,-25.262234189972443,-5.78431538002778,383.9684925024054,40.49192315922235,-161.1893578197238
1,2021-07-02 11:01:02.343,6782343,0.01240414739832516,-10.528438156479845,0.03074647380826066,13.405218531621761,-25.28434791776159,-5.753940226724717,384.06254078782433,40.482556095378015,-161.13721713446304
1,2021-07-02 11:01:02.351,6782351,0.013860011248324233,-10.530638590710316,0.03451877106795862,13.43181063513026,-25.30617495401142,-5.7240651427015345,384.16095129022005,40.479632205476484,-161.0852531981525
1,2021-07-02 11:01:02.359,6782359,0.01536839158455631,-10.532832695162575,0.03787793303164918,13.458346285503177,-25.327710890627124,-5.694579357648036,384.26354372028374,40.48318076948949,-161.03328228964284
1,2021-07-02 11:01:02.366,6782366,0.016931828943532356,-10.535017279845942,0.04080660762714207,13.484811639140554,-25.3489509347983,-5.665373400210918,384.37013219429537,40.4932182843122,-160.98112768020061
1,2021-07-02 11:01:02.374,6782374,0.01855271343446809,-10.537189173919696,0.04328984123934167,13.511191767420028,-25.369889910973566,-5.6363396346030035,384.48052517156026,40.50974898772423,-160.9286200992873
1,2021-07-02 11:01:02.383,6782383,0.020233282383669317,-10.539345246768127,0.045315180854428865,13.537470663613139,-25.390522270343876,-5.607372764620022,384.594525408277,40.5327652891379,-160.87559814073143
1,2021-07-02 11:01:02.391,6782391,0.021975614922040806,-10.54148242752029,0.046872763398572555,13.56363125937521,-25.41084210839342,-5.578370303164638,384.7119299344009,40.562248107752666,-160.82190860607042
1,2021-07-02 11:01:02.399,6782399,0.023781623753796218,-10.543597722755141,0.04795539141291251,13.589655451233837,-25.43084319131899,-5.5492330054276024,384.8325300602988,40.59816711913462,-160.76740678181758
1,2021-07-02 11:01:02.410,6782410,0.025653044877294428,-10.545688232270432,0.04855859362711323,13.615524137573578,-25.450518991862797,-5.519865264156657,384.9561114202131,40.640480911639074,-160.71195664737834
1,2021-07-02 11:01:02.423,6782423,0.027591426060336696,-10.54775116284347,0.04868066925452361,13.641217266986365,-25.46986273432626,-5.490175466413322,385.08245405976555,40.689137054492456,-160.65543101029922
1,2021-07-02 11:01:02.435,6782435,0.029598114678311034,-10.549783839993777,0.04832271532199309,13.666713899227787,-25.488867447833076,-5.460076312418124,385.21133257492386,40.74407207974607,-160.59771156548302
1,2021-07-02 11:01:02.444,6782444,0.0316742453665407,-10.551783717885668,0.047488636460393675,13.691992279938699,-25.507526026661054,-5.429485097915966,385.34251630811445,40.805211382634496,-160.53868887687236
1,2021-07-02 11:01:02.456,6782456,0.03382072794691409,-10.553748387673519,0.04618513660290347,13.717029929988474,-25.52583129624399,-5.3983239616553576,385.47576959770004,40.872469054894914,-160.4782622896709
1,2021-07-02 11:01:02.469,6782469,0.03603823623112054,-10.555675584752594,0.044421692334847766,13.74180375007079,-25.543776082910597,-5.366520099123688,385.6108520598584,40.94574768332926,-160.4163397984373
1,2021-07-02 11:01:02.478,6782478,0.03832719829788407,-10.557563195408589,0.04221050788074146,13.766290140734936,-25.561353285113977,-5.334005943097646,385.7475188724071,41.024938155906085,-160.35283790593988
1,2021-07-02 11:01:02.486,6782486,0.040687788500799155,-10.559409263199687,0.03956645155212602,13.790465137088646,-25.57855594431768,-5.300719311390816,385.88552103988025,41.10991950844288,-160.28768149794172
1,2021-07-02 11:01:02.494,6782494,0.043119921030594914,-10.561211995208309,0.03650697322643655,13.814304556333722,-25.59537731440101,-5.266603522630868,386.024605636613,41.200558827940746,-160.2208037416535
1,2021-07-02 11:01:02.502,6782502,0.04562324463917436,-10.562969768195638,0.03305200254208195,13.837784155535472,-25.611810928937043,-5.231607481771432,386.16451603432324,41.29671121937474,-160.15214600586253
1,2021-07-02 11:01:02.516,6782516,0.04819713813717915,-10.564681134550595,0.0292238280702246,13.860879796518066,-25.62785066634518,-5.195685737596768,386.3049921226846,41.39821984117276,-160.08165779871828
1,2021-07-02 11:01:02.528,6782528,0.05084070635945471,-10.566344827658716,0.025046958580381105,13.88356761437803,-25.643490813970665,-5.1587985142131645,386.445770531455,41.504916014964266,-160.00929671904797
1,2021-07-02 11:01:02.541,6782541,0.053552776370791366,-10.567959766184105,0.020547968236991204,13.905824186014843,-25.65872613268857,-5.120911718000974,386.5865848627741,41.61661941551942,-159.93502841696787
1,2021-07-02 11:01:02.553,6782553,0.05633189387271635,-10.569525056981396,0.015755327591734796,13.927626695527918,-25.6735519228233,-5.08199692136538,386.72716594227694,41.73313834712897,-159.85882655944215
1,2021-07-02 11:01:02.565,6782565,0.05917632017672687,-10.571039996689361,0.01069922147986538,13.948953094338853,-25.68796409072042,-5.042031324477868,386.8672420976921,41.85427011299433,-159.7806727963268
1,2021-07-02 11:01:02.578,6782578,0.06208403032063325,-10.572504072124199,0.005411354334752296,13.969782255253591,-25.70195921433483,-5.000997695507068,387.006539473591,41.97980148450558,-159.70055672231862
1,2021-07-02 11:01:02.586,6782586,0.06505271253147653,-10.573916959388578,-7.525603646253275e-05,13.990094120788646,-25.715534605779016,-4.9588842890952005,387.1447823909453,42.10950927758155,-159.6184758301109
1,2021-07-02 11:01:02.595,6782595,0.06807976885596953,-10.57527852145219,-0.005726494196962012,14.009869846324824,-25.72868836860764,-4.915684742882466,387.2816937601137,42.24316104352985,-159.53443544993647
1,2021-07-02 11:01:02.604,6782604,0.07116231705018754,-10.576588804021174,-0.01150737018299078,14.02909193817887,-25.74141944779428,-4.871397952542771,387.4169955558332,42.38051588215575,-159.44844867055946
1,2021-07-02 11:01:02.613,6782613,0.07429719430714025,-10.577848029672511,-0.017382248510078857,14.047744386375212,-25.753727670993865,-4.826027925909576,387.55040936272576,42.52132538510557,-159.3605362366553
1,2021-07-02 11:01:02.621,6782621,0.07748096342745053,-10.579056590318821,-0.023315082331468187,14.065812792040736,-25.76561378059043,-4.77958361611152,387.6816569997476,42.66533471767327,-159.2707264173985
1,2021-07-02 11:01:02.629,6782629,0.08070992167825257,-10.580215038084376,-0.02926965183542658,14.083284488853355,-25.7770794567464,-4.732078734210447,387.810461231909,42.81228384752669,-159.179054840958
1,2021-07-02 11:01:02.638,6782638,0.08398011222051377,-10.581324074669956,-0.03520980484367839,14.100148656304954,-25.788127331896224,-4.683531544611612,387.9365465774784,42.96190892902274,-159.0855642894817
1,2021-07-02 11:01:02.649,6782649,0.08728733783153439,-10.582384539299595,-0.04109969681406997,14.116396421429156,-25.798760997061823,-4.633964648503493,388.0596402187481,43.11394385197762,-158.9903044490348
1,2021-07-02 11:01:02.660,6782660,0.09062717668896567,-10.583397395440903,-0.04690402787921351,14.132020946594984,-25.80898500025446,-4.583404759650625,388.1794730242902,43.26812196393957,-158.8933316088425
1,2021-07-02 11:01:02.670,6782670,0.09399499994840593,-10.584363716700414,-0.05258827477710581,14.147017502960198,-25.81880483714668,-4.531882475234786,388.29578069046346,43.424177975176164,-158.79470830407553
1,2021-07-02 11:01:02.681,6782681,0.09738599064643946,-10.58528467248661,-0.05811891454343549,14.161383530656773,-25.82822693430673,-4.479432043603121,388.40830500974675,43.581850055737014,-158.69450289630842
1,2021-07-02 11:01:02.689,6782689,0.10079516346298441,-10.586161514076624,-0.06346363606737673,14.175118687042772,-25.837258625476018,-4.426091129693846,388.51679527327576,43.740882134084664,-158.5927890856747
1,2021-07-02 11:01:02.699,6782699,0.10421738527426366,-10.586995561650408,-0.06859153641393127,14.188224883328967,-25.845908121274014,-4.371900577863677,388.6210098079979,43.901026398233036,-158.4896453515319
1,2021-07-02 11:01:02.707,6782707,0.10764739678805216,-10.587788192654443,-0.07347330068099645,14.200706308704357,-25.854184472524878,-4.316904171902525,388.72071761491253,44.06204595708449,-158.38515433280168
1,2021-07-02 11:01:02.720,6782720,0.11107983549874989,-10.588540831484345,-0.07808136592139242,14.212569440919639,-25.86209752757333,-4.261148392700868,388.8157000139293,44.22371754171447,-158.27940218506552
1,2021-07-02 11:01:02.729,6782729,0.11450925995214625,-10.589254940158597,-0.08239007013379827,14.223823042620182,-25.86965788434469,-4.204682174275205,388.90575216689683,44.3858340830737,-158.1724779658585
1,2021-07-02 11:01:02.741,6782741,0.11793017518597554,-10.589932009643858,-0.08637578614446581,14.234478142713323,-25.87687683811784,-4.147556658373033,388.99068438379544,44.548207045980575,-158.06447308507123
1,2021-07-02 11:01:02.755,6782755,0.12133705918029851,-10.590573551702544,-0.09001703887078581,14.244548002174703,-25.88376632600504,-4.089824947176429,389.07032317748036,44.71066847734371,-157.95548083128352
1,2021-07-02 11:01:02.769,6782769,0.12472439007333114,-10.59118109133452,-0.09329460453130761,14.25404806452191,-25.890338869087017,-4.03154185324,389.14451206577536,44.87307276993087,-157.84559597033208
1,2021-07-02 11:01:02.779,6782779,0.12808667375516825,-10.591756159924099,-0.0961915915415537,14.262995892157972,-25.896607512972825,-3.9727636459716704,389.2131121261467,45.035298151686966,-157.73491440945756
1,2021-07-02 11:01:02.790,6782790,0.13141847129453277,-10.592300289127365,-0.09869350395325877,14.271411090154093,-25.902585767107034,-3.9135477950175237,389.2760023078579,45.197247910610145,-157.6235329203165
1,2021-07-02 11:01:02.804,6782804,0.13471442560186045,-10.592815005551177,-0.10078828846990938,14.279315218769025,-25.908287542606136,-3.8539527125920965,389.3330795061731,45.35885136519284,-157.51154891408783
1,2021-07-02 11:01:02.812,6782812,0.13796928689154178,-10.593301826342664,-0.1024663650603046,14.286731695376131,-25.913727088308143,-3.794037497831397,389.38425840283423,45.520064590424454,-157.39906026185486
1,2021-07-02 11:01:02.819,6782819,0.14117793674814777,-10.593762255671937,-0.10372063997765475,14.293685685804496,-25.918918925238813,-3.733861686155787,389.4294710805356,45.68087090741008,-157.28616515340053
1,2021-07-02 11:01:02.826,6782826,0.14433541065908148,-10.594197781834568,-0.104546500343494,14.30020398482412,-25.923877780233656,-3.673485006495953,389.4686664380306,45.8412811350069,-157.17296198751643
1,2021-07-02 11:01:02.834,6782834,0.14743691872171966,-10.594609874610798,-0.10494179167219188,14.306314885751823,-25.928618519486147,-3.612967149531409,389.50180946682025,46.001333584517475,-157.05954928689556
1,2021-07-02 11:01:02.841,6782841,0.15047786417504805,-10.5949999825954,-0.10490678143172172,14.312048039623525,-25.933156082469406,-3.5523675496878875,389.528880469271,46.161093768822774,-156.94602563065285
1,2021-07-02 11:01:02.850,6782850,0.15345385972475453,-10.595369530256885,-0.10444411088304674,14.317434304983863,-25.937505416190106,-3.4917451821662797,389.54987427837403,46.32065380694736,-156.83248959749943
1,2021-07-02 11:01:02.857,6782857,0.15636074217028245,-10.595719914418511,-0.10355873515358907,14.322505590140405,-25.941681409119727,-3.4311583750901007,389.56479950430867,46.480131522367664,-156.71903971258274
1,2021-07-02 11:01:02.865,6782865,0.1591945861009096,-10.596052499842942,-0.10225785031603037,14.32729469022001,-25.94569882389081,-3.370664636418981,389.5736778133294,46.63966924299021,-156.6057743909987
1,2021-07-02 11:01:02.872,6782872,0.1619517171064192,-10.59636861388792,-0.10055080718226513,14.331835121256598,-25.94957222850574,-3.310320494855592,389.57654324027345,46.799432312642296,-156.49279187098077
1,2021-07-02 11:01:02.877,6782877,0.16462872432247325,-10.596669540698613,-0.09844901356386851,14.336160953378108,-25.95331592700341,-3.2501813536912003,389.57344153560854,46.95960732391345,-156.38019012977605
1,2021-07-02 11:01:02.885,6782885,0.16722247179039595,-10.59695651568335,-0.09596582767137704,14.34030664503239,-25.956943891190672,-3.1903013565249534,389.56442954757085,47.12040008219099,-156.26806677523032
1,2021-07-02 11:01:02.894,6782894,0.16973010830422341,-10.59723072087504,-0.093116443608983,14.344306879528807,-25.960469694744482,-3.130733263769564,389.54957463957066,47.28203331074767,-156.15651890612108
1,2021-07-02 11:01:02.900,6782900,0.17214907580867964,-10.597493281492882,-0.08991776685088597,14.348196404069048,-25.963906450413756,-3.0715283391925015,389.5289541426782,47.44474410676594,-156.04564293430104
1,2021-07-02 11:01:02.907,6782907,0.1744771165446656,-10.597745263879409,-0.08638827648242349,14.352009870402668,-25.967266751042892,-3.012736246429124,389.5026548426368,47.60878115822176,-155.93553436174437
1,2021-07-02 11:01:02.914,6782914,0.17671227895869426,-10.597987674968504,-0.08254787306626335,14.355781675459827,-25.97056261570131,-2.954404955589229,389.4707725004909,47.7744017316039,-155.82628750562256
1,2021-07-02 11:01:02.921,6782921,0.17885292221699528,-10.598221463397822,-0.07841771352239083,14.35954580018051,-25.973805442482146,-2.89658065949258,389.43341140556265,47.94186844051138,-155.7179951645794
1,2021-07-02 11:01:02.926,6782926,0.18089771922844544,-10.598447522216391,-0.07402003491865491,14.363335645702621,-25.977005968817643,-2.839307698422946,389.3906839591582,48.11144580525367,-155.6107482194211
1,2021-07-02 11:01:02.934,6782934,0.1828456582726336,-10.598666692883295,-0.06937796838333456,14.367183867522218,-25.98017423887521,-2.78262849224741,389.342710287045,48.283396613676686,-155.50463516149026
1,2021-07-02 11:01:02.943,6782943,0.1846960434293919,-10.598879770090852,-0.06451534407608346,14.37112220909174,-25.983319576907437,-2.726583478976357,389.2896178793642,48.457978102220444,-155.39974154494175
1,2021-07-02 11:01:02.950,6782950,0.18644849394961371,-10.599087506940645,-0.059456488918214895,14.375181336418393,-25.986450565829752,-2.6712110589603455,389.2315412611291,48.63543801969287,-155.2961493736523
1,2021-07-02 11:01:02.957,6782957,0.18810294257698193,-10.599290620000332,-0.05422602042225074,14.379390675228459,-25.989575031150338,-2.616547544312021,389.16862170480806,48.81601071441636,-155.19393645957328
1,2021-07-02 11:01:02.964,6782964,0.1896596327229953,-10.599489793759505,-0.04884864123352657,14.383778252324005,-25.992700030786295,-2.5626271135278,389.1010070009898,48.9999134289137,-155.09317580386133
1,2021-07-02 11:01:02.972,6782972,0.19111911427202088,-10.599685684095064,-0.04334893965534793,14.388370542663324,-25.995831850935705,-2.5094817711674393,389.02885129800785,49.18734294312856,-154.99393503775184
1,2021-07-02 11:01:02.978,6782978,0.19248223758000163,-10.599878920481153,-0.037751202700465,14.393192323634366,-25.998976007392912,-2.4571413124221197,388.95231501242995,49.37847262934074,-154.89627593421656
1,2021-07-02 11:01:02.985,6782985,0.19375014515081299,-10.60007010678484,-0.032079248795252535,14.39826653802517,-26.002137251236075,-2.40563329256587,388.8715648072154,49.5734499387924,-154.80025398708625
1,2021-07-02 11:01:02.992,6782992,0.19492426084560707,-10.600259820742911,-0.02635628459524855,14.403614167184072,-26.00531957799031,-2.354983001214356,388.7867736330992,49.77239433158842,-154.70591805152287
1,2021-07-02 11:01:02.999,6782999,0.196006277114169,-10.600448612635846,-0.02060478588965866,14.409254115900264,-26.008526239789035,-2.30521344153045,388.6981208284923,49.975395661661004,-154.61331003982352
1,2021-07-02 11:01:03.006,6783006,0.19699814098453663,-10.60063700392927,-0.014846399673334327,14.41520311035328,-26.01175976057065,-2.2563453150806563,388.6057922729274,50.18251302882431,-154.52246466663797
1,2021-07-02 11:01:03.013,6783013,0.197902039159438,-10.600825486519035,-0.009101863864278284,14.421475609698902,-26.01502195509929,-2.208397013012338,388.509980588831,50.39377411018853,-154.43340923778655
1,2021-07-02 11:01:03.021,6783021,0.19872038211608664,-10.601014522878325,-0.0033909415794045887,14.428083730929103,-26.018313953026418,-2.161384613485998,388.4108853861655,50.609174983450984,-154.34616347697008
1,2021-07-02 11:01:03.028,6783028,0.19945578721536625,-10.601204547058302,0.0022676329583804777,14.435037185872604,-26.021636228500796,-2.1153218848783895,388.3087135442571,50.82868045483463,-154.26073938477268
1,2021-07-02 11:01:03.036,6783036,0.2001110613594024,-10.601395966165423,0.007856200474094811,14.442343228306235,-26.024988634366814,-2.07022029473958,388.2036795249135,51.052224904698086,-154.17714112446845
1,2021-07-02 11:01:03.042,6783042,0.20068918404415706,-10.601589161739717,0.013358218310209615,14.450006608733428,-26.028370439195218,-2.026089024994922,388.0960057107297,51.27971366409505,-154.09536492925295
1,2021-07-02 11:01:03.050,6783050,0.20119329141850142,-10.601784490407512,0.01875829851467843,14.458029535363096,-26.031780366000323,-1.9829349937280645,387.98592276229425,51.51102493581285,-154.01539902563394
1,2021-07-02 11:01:03.058,6783058,0.20162666149153644,-10.601982283126636,0.024042238344902704,14.466411641707952,-26.03521663259762,-1.9407628837664952,387.87366998686787,51.746012273667276,-153.93722356782717
1,2021-07-02 11:01:03.065,6783065,0.2019927003260814,-10.602182842434798,0.029197037227152424,14.475149963296925,-26.038676993675885,-1.899575178429822,387.75949570612573,51.984507617697076,-153.86081057907845
1,2021-07-02 11:01:03.072,6783072,0.2022949289734695,-10.60238643757442,0.0342108973335419,14.48423892802482,-26.042158783609064,-1.8593722043872025,387.64365760173956,52.22632480125632,-153.78612390076037
1,2021-07-02 11:01:03.079,6783079,0.202536970946448,-10.602593297894668,0.03907320918140964,14.493670365545222,-26.04565895821344,-1.8201521807460772,387.5264230126243,52.47126329884511,-153.71311915887307
1,2021-07-02 11:01:03.087,6783087,0.20272254016088212,-10.602803605255293,0.04377452519118152,14.503433540147267,-26.049174134130784,-1.781911273317992,387.4080691623737,52.71911190185534,-153.64174376250153
1,2021-07-02 11:01:03.093,6783093,0.20285542944789065,-10.60301748644387,0.04830652392341252,14.513515210116983,-26.0527006256255,-1.7446436537156136,387.2888833039752,52.969652091491405,-153.57193694407255
1,2021-07-02 11:01:03.099,6783099,0.20293949978034845,-10.603235006766214,0.05266196759155211,14.523899715483317,-26.05623447917732,-1.7083415635563715,387.1691627736267,53.22266102570148,-153.5036298426877
1,2021-07-02 11:01:03.105,6783105,0.2029786700873266,-10.603456165710975,0.05683465582763196,14.534569093825933,-26.059771506085998,-1.6729953840689507,387.04921494637154,53.477914139013194,-153.43674562709268
1,2021-07-02 11:01:03.110,6783110,0.20297690702982996,-10.603680895173316,0.06081937966008427,14.545503220215819,-26.063307312807698,-1.6385937114587537,386.92935708621707,53.73518737070937,-153.3711996539762
1,2021-07-02 11:01:03.116,6783116,0.202938213832095,-10.603909060491635,0.06461188020339512,14.556679965364014,-26.066837328466548,-1.6051234384479063,386.8099160833717,53.99425903693172,-153.30689965738327
1,2021-07-02 11:01:03.122,6783122,0.20286661751762833,-10.604140464380317,0.0682088151559614,14.568075367382498,-26.07035682920635,-1.5725698417691152,386.6912280712189,54.25491136243851,-153.24374596511632
1,2021-07-02 11:01:03.128,6783128,0.20276615449484414,-10.6043748534116,0.07160773302081508,14.579663814181002,-26.073860959600204,-1.540916674629341,386.5736379156543,54.5169316878671,-153.18163173807815
1,2021-07-02 11:01:03.136,6783136,0.20264085499626955,-10.604611926029248,0.0748070515613757,14.591418232708934,-26.0773447518884,-1.5101462631534097,386.457498569438,54.780113368463056,-153.1204432285884
1,2021-07-02 11:01:03.143,6783143,0.20249472710333385,-10.60485134073924,0.07780603543945748,14.603310280151335,-26.080803144043283,-1.4802396060873981,386.34317028426057,55.044256380335554,-153.06006005377512
1,2021-07-02 11:01:03.152,6783152,0.20233174090291783,-10.605092723562262,0.08060476909622631,14.615310533265909,-26.084230997422004,-1.4511764768996045,386.23101967329035,55.30916765038308,-153.00035548020665
1,2021-07-02 11:01:03.158,6783158,0.20215581298899654,-10.605335674623895,0.08320412295068233,14.627388673977853,-26.087623114340076,-1.4229355271158142,386.12141861705726,55.5746611261055,-152.9411967159862
1,2021-07-02 11:01:03.164,6783164,0.20197079138337798,-10.60557977417469,0.08560571211735112,14.63951367048715,-26.090974255652426,-1.3954943896128944,386.01474300564354,55.84055760157805,-152.88244520658034
1,2021-07-02 11:01:03.170,6783170,0.2017804411417613,-10.605824588193794,0.0878118473471339,14.65165395405803,-26.094279158387106,-1.3688297806230056,385.91137131028205,56.10668431591076,-152.8239569306947
1,2021-07-02 11:01:03.176,6783176,0.2015884313246758,-10.606069673355169,0.08982547833785928,14.663777592802509,-26.097532553474682,-1.3429175993224476,385.81168297762486,56.37287434055262,-152.76558269254315
1,2021-07-02 11:01:03.182,6783182,0.20139832422396672,-10.606314580950572,0.09165013002673983,14.67585246445211,-26.100729183605836,-1.3177330239363199,385.7160566401216,56.6389657718252,-152.7071684068818
1,2021-07-02 11:01:03.190,6783190,0.20121356741305504,-10.606558859576245,0.09328983355839267,14.68784643009698,-26.10386382125487,-1.2932506029983628,385.62486813615266,56.90480074508493,-152.64855537319482
1,2021-07-02 11:01:03.195,6783195,0.20103748860929796,-10.6068020568065,0.09474905551233809,14.699727510728406,-26.10693128690356,-1.269444339882969,385.53848833378834,57.170224286917176,-152.58958053542676
1,2021-07-02 11:01:03.203,6783203,0.20087329299637588,-10.607043720308711,0.0960326299730395,14.71146406821234,-26.10992646745674,-1.2462877685184186,385.45728076000347,57.435083025612805,-152.53007672557877
1,2021-07-02 11:01:03.211,6783211,0.20072406260894216,-10.607283398761592,0.09714569664502358,14.723024991384507,-26.11284433468731,-1.2237540186759948,385.3815990759797,57.699223799427564,-152.46987289910734
1,2021-07-02 11:01:03.218,6783218,0.20059275738229984,-10.607520642730483,0.09809364576486371,14.734379886386739,-26.115679963259566,-1.2018158701243884,385.31178450878167,57.96249223677832,-152.40879438738105
1,2021-07-02 11:01:03.225,6783225,0.20048221744298717,-10.607755005560795,0.09888206903942655,14.745499269217794,-26.11842854773344,-1.1804457955554661,385.2481633885428,58.22473140176072,-152.34666320204974
1,2021-07-02 11:01:03.233,6783233,0.20039516618946293,-10.607986044443116,0.09951671505282074,14.756354757702864,-26.121085418231523,-1.1596159924549168,385.1910449021062,58.4857805790629,-152.28329841650577
1,2021-07-02 11:01:03.240,6783240,0.20033421363035356,-10.608213321960594,0.10000344664624039,14.766919258643572,-26.12364605488039,-1.1392984046098433,385.14071910506954,58.74547423761749,-152.21851663222276
1,2021-07-02 11:01:03.245,6783245,0.20030185940298395,-10.608436408290252,0.10034819753534717,14.777167144434522,-26.12610610109273,-1.119464734809765,385.09745519603115,59.003641193005,-152.15213252805998
1,2021-07-02 11:01:03.254,6783254,0.20030049505280842,-10.608654883656229,0.10055692682625679,14.787074413534695,-26.128461375142948,-1.1000864508916157,385.06150004953037,59.26010398469457,-152.08395948861698
1,2021-07-02 11:01:03.260,6783260,0.20033240541364808,-10.608868340202523,0.10063557186472118,14.796618830807137,-26.130707879040674,-1.081134787097621,385.0330770045918,59.51467848412441,-152.01381030763645
1,2021-07-02 11:01:03.267,6783267,0.20039976911445928,-10.60907638275326,0.10059000057945593,14.80578004569565,-26.132841804016365,-1.0625807419943563,385.01238490621665,59.76717374952995,-151.94149796235376
1,2021-07-02 11:01:03.276,6783276,0.2005046583507009,-10.609278628654264,0.10042596454568645,14.814539687592301,-26.1348595326218,-1.044395073700125,384.99959739761624,60.017392143322105,-151.8668364545819
1,2021-07-02 11:01:03.284,6783284,0.2006490380834214,-10.609474707277974,0.10014905406047414,14.822881438367139,-26.1367576378524,-1.0265482930834928,384.9948624614442,60.265129727701584,-151.78964171419818
1,2021-07-02 11:01:03.291,6783291,0.20083476467031536,-10.609664259523656,0.0997646567710094,14.830791082315976,-26.138532879754507,-1.0090106557309104,384.9983022087586,60.51017695406662,-151.7097325605664
1,2021-07-02 11:01:03.298,6783298,0.20106358364540958,-10.609846937103349,0.09927792196864621,14.838256534041841,-26.1401821999736,-0.9917521539305953,385.0100129149342,60.75231966163057,-151.62693171728256
1,2021-07-02 11:01:03.303,6783303,0.20133712625143205,-10.610022401098352,0.09869373285664006,14.845267845060155,-26.141702714723678,-0.9747425103119767,385.0300653022367,60.991340400513074,-151.5410668754771
1,2021-07-02 11:01:03.308,6783308,0.20165690466737124,-10.610190319353926,0.09801668784322709,14.851817190586315,-26.143091706713648,-0.957951174759561,385.0585050692777,61.22702009440212,-151.4519718007388
1,2021-07-02 11:01:03.313,6783313,0.20202430649759148,-10.610350362487571,0.09725108975516424,14.85789883914557,-26.14434661670101,-0.9413473263083615,385.0953536680734,61.45914005770511,-151.35948747854783
1,2021-07-02 11:01:03.319,6783319,0.20244058944133722,-10.610502198456933,0.09640094052384808,14.86350910841498,-26.145465035382575,-0.9248998817986561,385.1406093299468,61.68748438191471,-151.26346329291653
1,2021-07-02 11:01:03.324,6783324,0.20290687688024286,-10.610645485961312,0.09546993865607604,14.868646310592016,-26.146444695992063,-0.9085775123624831,385.19424833624765,61.911842692222976,-151.16375823081117
1,2021-07-02 11:01:03.329,6783329,0.20342415475167155,-10.610779867491363,0.0944614765892899,14.873310690413366,-26.147283467397525,-0.8923486677594622,385.2562265014835,62.13201320776796,-151.0602420950868
1,2021-07-02 11:01:03.334,6783334,0.20399326987164432,-10.610904963141763,0.09337863491105462,14.877504358839662,-26.14797934716701,-0.8761816079967446,385.32648078495447,62.34780591728978,-150.95279669110994
1,2021-07-02 11:01:03.341,6783341,0.20461492980057325,-10.611020365995772,0.09222417144668069,14.881231224665925,-26.148530454196873,-0.8600444415097105,385.4049309186016,62.55904561429786,-150.84131694238465
1,2021-07-02 11:01:03.348,6783348,0.20528970428372914,-10.611125639228714,0.0910005054837589,14.884496925388092,-26.148935020812107,-0.8439051692805835,385.4914809681921,62.76557460302326,-150.72571189989617
1,2021-07-02 11:01:03.355,6783355,0.20601802823714035,-10.611220314507943,0.08970969988796175,14.887308758421629,-26.149191384468324,-0.8277317346234855,385.5860207974893,62.96725500753571,-150.60590562698337
1,2021-07-02 11:01:03.362,6783362,0.20680020619303383,-10.611303891067381,0.08835344505918143,14.889675613771137,-26.14929797919996,-0.8114920785479685,385.6884274344604,63.163970683554865,-150.481837950937
1,2021-07-02 11:01:03.370,6783370,0.20763641798415197,-10.611375835088449,0.08693304802957097,14.891607908589602,-26.149253326673662,-0.7951542001784878,385.79856634485213,63.35562874568209,-150.35346507419263
1,2021-07-02 11:01:03.377,6783377,0.20852672520109133,-10.611435579476476,0.08544942884310057,14.893117522900544,-26.14905602619908,-0.7786862209231727,385.9162926189579,63.54216072248121,-150.22076003772983
1,2021-07-02 11:01:03.382,6783382,0.20947107784508592,-10.611482524366085,0.08390312573653412,14.894217734923297,-26.148704742810953,-0.7620564507020247,386.0414520778832,63.723523351531504,-150.08371302902626
1,2021-07-02 11:01:03.389,6783389,0.21046932088267595,-10.611516038581966,0.08229431023344817,14.894923153893595,-26.148198192993185,-0.7452334549651615,386.1738823060925,63.89969902626556,-149.9423315266516
1,2021-07-02 11:01:03.395,6783395,0.21152120090899848,-10.611535462030956,0.0806228128868511,14.89524964739254,-26.147535128459154,-0.7281861220768111,386.3134136174889,64.0706959060899,-149.79664027331935
1,2021-07-02 11:01:03.400,6783400,0.21262637337364385,-10.611540108852509,0.0788881599012853,14.895214259682113,-26.14671431889079,-0.7108837311126247,386.45986996273456,64.2365477009685,-149.64668106894771
1,2021-07-02 11:01:03.409,6783409,0.21378441058245878,-10.611529271135371,0.07708961918445652,14.89483511839002,-26.145734534458203,-0.6932960199085122,386.6130697859693,64.39731314133113,-149.49251237501474
1,2021-07-02 11:01:03.416,6783416,0.2149948101950148,-10.611502223007347,0.07522625148006074,14.894131328285122,-26.144594528718695,-0.6753932527588459,386.7728268395205,64.55307514384981,-149.33420872122736
1,2021-07-02 11:01:03.423,6783423,0.21625700366465045,-10.61145822492268,0.07329696069043762,14.893122851762989,-26.143293022318492,-0.6571462869092046,386.9389509656257,64.70393968331128,-149.1718599052622
1,2021-07-02 11:01:03.431,6783431,0.21757036420929823,-10.611396528118584,0.07130053928096691,14.891830376445618,-26.141828687507815,-0.6385266368764763,387.11124885460345,64.85003438050025,-149.00556997607728
1,2021-07-02 11:01:03.436,6783436,0.21893421419442652,-10.611316379461218,0.06923570792076474,14.890275171416834,-26.140200132830177,-0.6195065355386525,387.28952478931404,64.99150681570137,-148.83545599103843
1,2021-07-02 11:01:03.443,6783443,0.22034783198747734,-10.611217027016012,0.06710115040307506,14.888478934291275,-26.138405887036807,-0.6000589908759625,387.4735813842147,65.12852258290621,-148.661646542637
1,2021-07-02 11:01:03.451,6783451,0.2218104584475655,-10.611097726477237,0.06489554522459778,14.88646363107619,-26.136444381756576,-0.5801578372141514,387.6632203180636,65.26126312841753,-148.48428007923016
1,2021-07-02 11:01:03.458,6783458,0.2233213033415558,-10.610957748215966,0.06261759528147598,14.884251330342554,-26.13431393336614,-0.5597777797960583,387.8582430423564,65.38992346927596,-148.3035030960184
1,2021-07-02 11:01:03.463,6783463,0.2248795520083121,-10.61079638447315,0.06026605728238709,14.881864033104497,-26.132012725000074,-0.5388944315682209,388.05845143830055,65.51470991555973,-148.11946830114596
1,2021-07-02 11:01:03.471,6783471,0.22648437231983948,-10.610612956204768,0.05783977252074913,14.879323500037378,-26.12953878936199,-0.5174843414757547,388.2636484051121,65.63583789144563,-147.93233283269188
1,2021-07-02 11:01:03.479,6783479,0.228134921526258,-10.610406819084771,0.055337700703322334,14.876651078387306,-26.12688999244225,-0.4955250144139535,388.4736383800883,65.75352989765118,-147.74225655009266
1,2021-07-02 11:01:03.488,6783488,0.22983035245943145,-10.610177368170199,0.0527589579077053,14.873867531743528,-26.124064018039704,-0.47299492390195413,388.6882278008638,65.86801362874098,-147.5494003944372
1,2021-07-02 11:01:03.495,6783495,0.2315698190561029,-10.60992404087025,0.0501028578299308,14.87099287595404,-26.12105835317192,-0.44987351900110967,388.9072255224929,65.97952025277493,-147.35392480610457
1,2021-07-02 11:01:03.502,6783502,0.23335248166577718,-10.609646318127961,0.04736895383848749,14.868046223769523,-26.117870274676438,-0.4261412267536322,389.1304432022934,66.08828286056465,-147.15598818803363
1,2021-07-02 11:01:03.509,6783509,0.2351775124963168,-10.609343724137904,0.04455707959907031,14.86504563988536,-26.114496837413267,-0.4017794507105062,389.35769566567353,66.19453509160677,-146.9557454027425
1,2021-07-02 11:01:03.515,6783515,0.237044101014556,-10.609015825486221,0.04166738729307397,14.862008007485,-26.11093486461788,-0.37677056556783395,389.58880126643425,66.29850994357841,-146.75334629105376
1,2021-07-02 11:01:03.522,6783522,0.23895145882280117,-10.608662230879817,0.03870038325668154,14.858948907107072,-26.107180941013574,-0.35109790776677313,389.82358225530055,66.40043877211063,-146.5489342003298
1,2021-07-02 11:01:03.528,6783528,0.24089882377857968,-10.608282592236948,0.0356569612393512,14.855882508125907,-26.103231409020196,-0.3247457620472415,390.06186517068267,66.50055048740136,-146.34264450987993
1,2021-07-02 11:01:03.537,6783537,0.24288546362452776,-10.607876607202202,0.03253843388922276,14.852821472350904,-26.099082367957976,-0.2976993444033477,390.30348126590724,66.59907095408845,-146.1346031410681
1,2021-07-02 11:01:03.543,6783543,0.24491067962789762,-10.607444022712585,0.02934656329793878,14.849776868845868,-26.094729675967418,-0.2699447822188829,390.54826698738503,66.69622260067756,-145.92492503952528
1,2021-07-02 11:01:03.550,6783550,0.24697381041872962,-10.606984639063999,0.02608359117539472,14.846758099377029,-26.090168954709643,-0.24146909218507376,390.7960645183969,66.79222424470707,-145.71371261675415
1,2021-07-02 11:01:03.558,6783558,0.24907423559695152,-10.60649831371771,0.022752268765474135,14.843772834538479,-26.085395597610248,-0.21226015641786058,391.0467224033867,66.88729113973426,-145.5010541383063
1,2021-07-02 11:01:03.565,6783565,0.25121137834053303,-10.605984963964472,0.019355886338253404,14.84082696103132,-26.08040478275243,-0.18230669721153583,391.30009626206567,66.98163524436247,-145.2870220533153
1,2021-07-02 11:01:03.572,6783572,0.25338470647924094,-10.605444567765858,0.01589830194737321,14.837924540811212,-26.075191490967512,-0.15159825094754606,391.5560495739188,67.07546568455952,-145.07167129860682
1,2021-07-02 11:01:03.581,6783581,0.2555937319655946,-10.604877162474546,0.01238396884304111,14.835067783263382,-26.069750528646562,-0.12012514218502124,391.81445446186484,67.16898932844194,-144.85503767987316
1,2021-07-02 11:01:03.586,6783586,0.2578380089759867,-10.604282841573044,0.008817960192034893,14.832257032198422,-26.06407655415172,-0.0878784597826204,392.0751923750879,67.26241136375633,-144.63713647084577
1,2021-07-02 11:01:03.591,6783591,0.2601171309830019,-10.6036617500913,0.005205988686421602,14.829490769859724,-26.058164106676095,-0.05485003718652965,392.3381546001205,67.3559357971562,-144.41796133278558
1,2021-07-02 11:01:03.596,6783596,0.26243072714677107,-10.603014079657989,0.001554418141415622,14.826765639930773,-26.052007636663717,-0.021032438324627166,392.60324258142293,67.4497658463711,-144.19748358717428
1,2021-07-02 11:01:03.604,6783604,0.2647784582925453,-10.6023400638981,-0.002129735030113973,14.82407649072755,-26.04560153719449,0.013581050772561587,392.8703680617501,67.54410422525716,-143.9756518358787
1,2021-07-02 11:01:03.610,6783610,0.2671600125873723,-10.601639974388307,-0.005838811129938335,14.82141643883191,-26.03894017606429,0.04899642547583581,393.13945305851297,67.63915332750449,-143.75239191527507
1,2021-07-02 11:01:03.617,6783617,0.26957510086062886,-10.600914117042304,-0.00956452680000853,14.818776952847621,-26.032017928638524,0.08521896207865641,393.41042969247195,67.73511531479525,-143.52760717073753
1,2021-07-02 11:01:03.622,6783622,0.2720234514324401,-10.600162828704219,-0.01329800401643469,14.816147956662684,-26.02482921173948,0.1222532139297651,393.68323988522917,67.83219211523792,-143.30117903781198
1,2021-07-02 11:01:03.627,6783627,0.27450480436211855,-10.59938647379593,-0.017029807439690507,14.813517951010908,-26.017368518772752,0.16010300458343682,393.9578349421045,67.93058533794685,-143.07296791630662
1,2021-07-02 11:01:03.632,6783632,0.27701890511365085,-10.598585440987442,-0.020749988985777616,14.810874151060528,-26.009630456210687,0.19877141799690073,394.2341750370982,68.03049610969262,-142.84281432343553
1,2021-07-02 11:01:03.637,6783637,0.279565497683328,-10.597760139927269,-0.024448138414620717,14.808202637165785,-26.00160978149501,0.23826078561750488,394.51222861675774,68.13212483961726,-142.61054031204944
1,2021-07-02 11:01:03.646,6783646,0.28214431725505373,-10.596910998049722,-0.028113439117770082,14.805488516399146,-25.993301442237993,0.27857267075797737,394.79197173987495,68.23567091808971,-142.37595113987683
1,2021-07-02 11:01:03.653,6783653,0.28475508240027014,-10.596038457409753,-0.031734728838082676,14.802716092662616,-25.98470061629234,0.31970785098503557,395.07338737004915,68.34133235587025,-142.13883717557854
1,2021-07-02 11:01:03.661,6783661,0.28739748671259735,-10.595142971401973,-0.03530056513537597,14.79986904202151,-25.975802751934367,0.36166629834929426,395.3564646382573,68.44930536985864,-141.89897602728672
1,2021-07-02 11:01:03.667,6783667,0.2900711897508659,-10.594225001052523,-0.03879929472084202,14.7969305891274,-25.966603607047706,0.4044471560712605,395.64119809267635,68.55978392181876,-141.65613487915587
1,2021-07-02 11:01:03.675,6783675,0.29277580738245884,-10.593285010344399,-0.04221912460870174,14.793883681833396,-25.95709928582929,0.4480487100724588,395.92758695310715,68.67295921660305,-141.41007302129782
1,2021-07-02 11:01:03.680,6783680,0.2955109018232985,-10.59232345997527,-0.04554819257530175,14.790711163098795,-25.94728627150506,0.49246835451025184,396.21563438745056,68.78901916654186,-141.16054455830206
1,2021-07-02 11:01:03.688,6783688,0.2982759715346926,-10.591340799292354,-0.04877463572112696,14.78739594034075,-25.937161454235426,0.5377025513549788,396.505346827791,68.90814782881823,-140.90730128135928
1,2021-07-02 11:01:03.695,6783695,0.30107044074342876,-10.590337456734916,-0.05188665817301383,14.783921152660495,-25.9267221545248,0.5837467843276545,396.7967333437425,69.03052482281356,-140.65009568880672
1,2021-07-02 11:01:03.703,6783703,0.303893648187725,-10.589313829455909,-0.05487259998281343,14.780270336490236,-25.915966143109873,0.6305955074957789,397.08980508696317,69.15632473458815,-140.38868413392078
1,2021-07-02 11:01:03.711,6783711,0.30674483516284645,-10.58827027272817,-0.05772100777923759,14.776427590450808,-25.904891658171554,0.6782420889934602,397.38457480158064,69.28571651584912,-140.1228300496542
1,2021-07-02 11:01:03.717,6783717,0.3096231338116942,-10.587207089572884,-0.06042070478672855,14.772377740698031,-25.893497420411684,0.7266787503819474,397.6810563606953,69.41886288495837,-139.85230714775426
1,2021-07-02 11:01:03.724,6783724,0.3125275570261785,-10.586124521009705,-0.06296085625072653,14.768106508048573,-25.88178264638984,0.7758965021372245,397.97926426996713,69.55591973774412,-139.57690246053963
1,2021-07-02 11:01:03.731,6783731,0.3154569907149051,-10.585022737474743,-0.0653310275912799,14.763600676434404,-25.8697470603379,0.8258850760690218,398.27921309866196,69.69703557610042,-139.29641912223977
1,2021-07-02 11:01:03.739,6783739,0.3184101880347856,-10.583901832284372,-0.06752123512013594,14.758848259165353,-25.85739090450811,0.8766328558086116,398.58091683331736,69.8423509625906,-139.01067883853048
1,2021-07-02 11:01:03.746,6783746,0.32138576454157425,-10.582761818206661,-0.06952199054793556,14.753838657767396,-25.844714948011763,0.9281268067088316,398.8843881685598,69.9919980095111,-138.71952402149836
1,2021-07-02 11:01:03.755,6783755,0.32438219347355207,-10.581602627905015,-0.07132434039200485,14.74856280932682,-25.8317204938805,0.9803524070527754,399.18963775356605,70.14609991112177,-138.4228195727335
1,2021-07-02 11:01:03.762,6783762,0.3273978010098493,-10.580424118471685,-0.0729199008787763,14.74301332018263,-25.81840938383331,1.0332935830277596,399.49667341277006,70.30477052800796,-138.1204542969275
1,2021-07-02 11:01:03.770,6783770,0.33043076189845055,-10.57922607975884,-0.07430088896916166,14.737184583319811,-25.804784000331157,1.0869326493746883,399.80549935952394,70.46811403280552,-137.8123419280207
1,2021-07-02 11:01:03.776,6783776,0.33347909632876577,-10.578008245741994,-0.07546015072026971,14.731072873924576,-25.79084726594762,1.1412502559696904,400.11611542153304,70.63622462679457,-137.49842174960122
1,2021-07-02 11:01:03.784,6783784,0.33654066914569836,-10.576770307908829,-0.07639118845980745,14.724676415879173,-25.7766026403409,1.19622533957259,400.42851629699396,70.80918633714909,-137.17865879091133
1,2021-07-02 11:01:03.792,6783792,0.33961319222711345,-10.575511929850295,-0.07708818740930544,14.717995414049962,-25.762054114816674,1.2518350806121312,400.7426908604745,70.98707290491666,-136.85304357946248
1,2021-07-02 11:01:03.798,6783798,0.3426942303505849,-10.574232762562657,-0.07754604089007076,14.711032050972944,-25.747206203954462,1.308054865986008,401.0586215376854,71.16994777409668,-136.5215914309047
1,2021-07-02 11:01:03.806,6783806,0.3457812105678055,-10.572932460138983,-0.07776037248743464,14.703790448735123,-25.73206393347491,1.3648582596129923,401.37628376840263,71.35786419248319,-136.18434125643572
1,2021-07-02 11:01:03.818,6783818,0.3488714349446619,-10.571610695550495,-0.07772755433389723,14.696276597417206,-25.71663282345117,1.4222169837378527,401.69564557690865,71.55086543524241,-135.8413538676766
1,2021-07-02 11:01:03.833,6783833,0.35196209628161096,-10.570267176166034,-0.07744472224673754,14.688498251967134,-25.70091886601249,1.4801009158519345,402.01666726653855,71.74898515961179,-135.49270977110396
1,2021-07-02 11:01:03.846,6783846,0.3550502961256562,-10.568901658596442,-0.07690978940091492,14.680464800138843,-25.684928497033233,1.538478106965461,402.33930124057554,71.95224788496854,-135.1385065063869
1,2021-07-02 11:01:03.856,6783856,0.3581330642013555,-10.567513962490986,-0.0761214600237042,14.672187104659038,-25.66866856208854,1.5973148258801109,402.663491925833,72.16066956681976,-134.7788556953277
1,2021-07-02 11:01:03.866,6783866,0.36120737843433043,-10.566103983068853,-0.07507924380107461,14.663677322871184,-25.652146277698687,1.6565756321284932,402.989175760916,72.37425821913213,-134.41388003037258
1,2021-07-02 11:01:03.880,6783880,0.3642701849108473,-10.564671702269157,-0.07378347071467418,14.654948706766392,-25.635369188914567,1.7162234786265684,403.31628122570214,72.59301455418515,-134.04371036870165
1,2021-07-02 11:01:03.893,6783893,0.3673184170384789,-10.563217198225763,-0.07223530504786496,14.646015386019426,-25.618345123853604,1.7762198435414316,403.64472891468563,72.81693263545856,-133.66848298486812
1,2021-07-02 11:01:03.901,6783901,0.3703490128502251,-10.561740652420362,-0.07043675687473532,14.636892136815502,-25.601082145629128,1.8365248889834955,403.9744316713698,73.0460005538318,-133.28833697201418
1,2021-07-02 11:01:03.915,6783915,0.3733589296606485,-10.560242353875138,-0.06839068979446025,14.627594139184765,-25.58358850239285,1.8970976422838406,404.30529480387145,73.2802011405816,-132.90341176884888
1,2021-07-02 11:01:03.927,6783927,0.37634515647808175,-10.558722700364719,-0.06610082434243042,14.618136724679857,-25.565872576605575,1.9578961940670343,404.637216401981,73.51951273098204,-132.51384478926136
1,2021-07-02 11:01:03.940,6783940,0.3793047255744053,-10.557182197301039,-0.06357173676524579,14.608535115446239,-25.547942834873552,2.018877906424523,404.97008777214853,73.7639099868487,-132.11976913884615
1,2021-07-02 11:01:03.951,6783951,0.3822347245804124,-10.5556214550359,-0.060808852891177365,14.59880415626125,-25.529807779642034,2.0799996247550188,405.30379398766905,74.01336475778582,-131.72131144085367
1,2021-07-02 11:01:03.963,6783963,0.38513231002237025,-10.554041184857589,-0.057818437051620236,14.588958042932745,-25.51147590372381,2.1412178881950337,405.6382145167269,74.26784690919324,-131.3185898631498
1,2021-07-02 11:01:03.978,6783978,0.38799472268456714,-10.552442193378434,-0.05460757631596298,14.579010052611432,-25.492955647916286,2.2024891356276908,405.9732238717549,74.52732501650421,-130.91171247602205
1,2021-07-02 11:01:03.991,6783991,0.39081930428352035,-10.550825374740793,-0.05118416039818976,14.568972283379821,-25.4742553608976,2.2637699062729197,406.30869224287636,74.79176685433565,-130.50077603186662
1,2021-07-02 11:01:04.002,6784002,0.39360351428871065,-10.549191700354383,-0.04755685753359781,14.558855411595195,-25.455383259797994,2.32501703493444,406.6444861129232,75.06113966156003,-130.0858651881721
1,2021-07-02 11:01:04.015,6784015,0.39634494591120534,-10.547542206607625,-0.04373508665640387,14.548668475631443,-25.43634738983905,2.3861878421638845,406.98046887082484,75.33541019251464,-129.66705215642563
1,2021-07-02 11:01:04.029,6784029,0.39904134059671137,-10.545877981558705,-0.03972898624188916,14.538418693474176,-25.417155582172647,2.447240319555626,407.31650144404284,75.61454457064954,-129.2443967516114
1,2021-07-02 11:01:04.041,6784041,0.4016906004767583,-10.544200151472344,-0.03554937987934271,14.528111318609062,-25.397815410241492,2.5081333100836565,407.6524429707469,75.89850796121978,-128.81794681672534
1,2021-07-02 11:01:04.052,6784052,0.4042907986432166,-10.54250986747528,-0.031207738189040633,14.51774953485533,-25.378334146284324,2.5688266821549495,407.9881515324401,76.18726407992921,-128.38773899648862
1,2021-07-02 11:01:04.065,6784065,0.40684018754113094,-10.540808292181639,-0.026716136744894682,14.507334388714964,-25.358718720302132,2.6292814944113982,408.32348496099945,76.4807745576228,-127.95379983131525
1,2021-07-02 11:01:04.077,6784077,0.40933720587318334,-10.539096586087702,-0.02208721020966311,14.496864758333736,-25.338975683184483,2.689460148120965,408.6583017003785,76.77899819587164,-127.51614712790592
1,2021-07-02 11:01:04.091,6784091,0.41178048457634364,-10.537375893678139,-0.017334103164510426,14.486337359809706,-25.3191111742486,2.74932652554251,408.992461642517,77.08189017459866,-127.07479153659835
1,2021-07-02 11:01:04.100,6784100,0.41416885246494933,-10.5356473294349,-0.012470417751711692,14.475746792624154,-25.299130892543044,2.808846114300821,409.3258268232635,77.3894012876357,-126.62973825092499
1,2021-07-02 11:01:04.115,6784115,0.41650134156985413,-10.533911964309286,-0.007510157491961248,14.465085625618864,-25.279040071583804,2.867986118525995,409.65826189780057,77.7014772679435,-126.18098875904947
1,2021-07-02 11:01:04.128,6784128,0.4187771916938106,-10.53217081349466,-0.002467665991484378,14.454344523083735,-25.258843458107265,2.926715557539554,409.9896343757097,78.01805823850479,-125.72854260253283
1,2021-07-02 11:01:04.137,6784137,0.4209958537689003,-10.530424826198077,0.0026424405688708096,14.44351240771064,-25.238545295891313,2.9850053529668594,410.31981462947925,78.33907831073638,-125.27239911210195
1,2021-07-02 11:01:04.146,6784146,0.4231569916858183,-10.528674877604514,0.007805347159874166,14.432576654589864,-25.218149315357188,3.0428284056375947,410.64867569694223,78.6644653496568,-124.81255909275455
1,2021-07-02 11:01:04.154,6784154,0.4252604821785094,-10.526921762690504,0.013006118791136511,14.42152330914091,-25.197658728907843,3.1001596639189337,410.9760928980692,78.9941409253239,-124.34902643030729
1,2021-07-02 11:01:04.162,6784162,0.4273064125328008,-10.525166191229223,0.018229783380479578,14.410337322100638,-25.177076231201834,3.156976184735645,411.30194328646525,79.32802047033046,-123.88180959126552
1,2021-07-02 11:01:04.171,6784171,0.4292950762982734,-10.523408783509144,0.023461418114438255,14.399002795964986,-25.156404003121207,3.2132571878391745,411.6261049558398,79.66601366341376,-123.41092298766556
1,2021-07-02 11:01:04.183,6784183,0.4312269674137539,-10.521650066977353,0.028686239711722825,14.387503238750263,-25.13564371828091,3.2689841033520226,411.9484562216295,80.0080250595006,-122.93638817831263
1,2021-07-02 11:01:04.196,6784196,0.4331027730382248,-10.519890474504098,0.033889699388815205,14.375821821239876,-25.11479655145855,3.3241406122029096,412.2688746978558,80.35395498676704,-122.45823487761128
1,2021-07-02 11:01:04.210,6784210,0.4349233650487274,-10.51813034465974,0.039057582766849876,14.363941632340767,-25.09386318902091,3.378712678671993,412.5872362901625,80.70370072094987,-121.97650174777537
1,2021-07-02 11:01:04.220,6784220,0.4366897900805079,-10.516369923738454,0.04417611364910653,14.351845925149375,-25.07284384201053,3.432688573978551,412.9034141306777,81.05715789441318,-121.491236974062
1,2021-07-02 11:01:04.233,6784233,0.43840325840455235,-10.51460936896234,0.04923205887882084,14.339518345652277,-25.051738262921482,3.4860588896900193,413.21727748889833,81.41422200234943,-121.00249866579983
1,2021-07-02 11:01:04.245,6784245,0.44006513237600486,-10.512848752438302,0.05421283018921559,14.326943137396146,-25.030545767259415,3.538816539782217,413.52869069748556,81.7747898157486,-120.51035514984368
1,2021-07-02 11:01:04.258,6784258,0.4416769150685928,-10.51108806562505,0.05910657959785809,14.314105318687062,-25.009265260461888,3.5909567506968942,413.83751212690544,82.13876056397862,-120.01488519878816
1,2021-07-02 11:01:04.269,6784269,0.4432402392191657,-10.509327224007437,0.06390228735164434,14.300990832427297,-24.987895269738942,3.6424770395111894,414.14359323403926,82.5060368454085,-119.51617819271088
1,2021-07-02 11:01:04.282,6784282,0.44475685628577233,-10.507566071601339,0.06858984302297433,14.287586670878431,-24.966433979693118,3.6933771806355824,414.4467777049183,82.87652527770256,-119.01433418892461
1,2021-07-02 11:01:04.296,6784296,0.44622862537820557,-10.505804385199,0.07316011945184638,14.273880978492372,-24.94487927085717,3.7436591610003265,414.746900710615,83.25013691021998,-118.50946386919665
1,2021-07-02 11:01:04.305,6784305,0.4476575017985573,-10.504041878713457,0.07760503761454335,14.259863136385118,-24.923228761237937,3.7933271230518906,415.04378829515383,83.62678742115843,-118.00168833369443
1,2021-07-02 11:01:04.312,6784312,0.44904552490344235,-10.502278208049917,0.08191762051593325,14.245523832089228,-24.901479851620557,3.8423872949218243,415.33725691412616,84.00639712227837,-117.49113871072329
1,2021-07-02 11:01:04.321,6784321,0.4503948051256332,-10.500512976534258,0.08609203562868932,14.230855117799662,-24.87962977521571,3.8908479078507394,415.62711314057617,84.38889079423743,-116.97795555884322
1,2021-07-02 11:01:04.329,6784329,0.45170751017426686,-10.498745740489326,0.09012362658961039,14.215850459873915,-24.857675651444435,3.9387191015284553,415.9131535448936,84.77419737575181,-116.46228807630357
1,2021-07-02 11:01:04.338,6784338,0.4529858504762875,-10.49697601438777,0.0940089351307828,14.20050478201968,-24.835614542725047,3.986012818147771,416.1951647378984,85.16224952998466,-115.9442932019215
1,2021-07-02 11:01:04.347,6784347,0.4542320639009939,-10.495203275139579,0.0977457140356782,14.184814503935248,-24.81344351258312,4.032742686161503,416.47292355644595,85.55298311173867,-115.42413472989911
1,2021-07-02 11:01:04.355,6784355,0.455448399922347,-10.493426965511711,0.10133293183261528,14.168777575843853,-24.79115968367567,4.0789238952096305,416.7461973802788,85.94633655920435,-114.90198252239016
1,2021-07-02 11:01:04.362,6784362,0.45663710362005855,-10.491646497347688,0.10477077002553424,14.152393507762486,-24.768760295111775,4.124573064019086,417.01474458594066,86.34225023418463,-114.37801183412729
1,2021-07-02 11:01:04.370,6784370,0.4578004000795552,-10.489861255740509,0.10806061340023733,14.135663390981682,-24.74624275884018,4.169708103004581,417.27831515294105,86.74066573488172,-113.8524027247557
1,2021-07-02 11:01:04.378,6784378,0.45894047968004564,-10.488070605298102,0.11120503307592582,14.118589908279358,-24.723604714440757,4.214348073114984,417.53665143900446,87.14152520549399,-113.32533952669039
1,2021-07-02 11:01:04.387,6784387,0.46005948459256013,-10.486273899237913,0.11420776125057122,14.101177329022972,-24.700844081120525,4.258513042429148,417.7894891409512,87.54477066702856,-112.79701033620242
1,2021-07-02 11:01:04.395,6784395,0.4611594967622494,-10.484470491422538,0.11707365669445091,14.083431485213984,-24.677959106063,4.302223941775964,418.036558457445,87.95034339388913,-112.26760649533855
1,2021-07-02 11:01:04.403,6784403,0.46224252765239604,-10.482659750694092,0.11980866057940978,14.065359724088811,-24.654948409425494,4.345502419888329,418.27758546952276,88.35818336094988,-111.73732203218916
1,2021-07-02 11:01:04.416,6784416,0.4633105096121545,-10.480841076147753,0.12241974272811401,14.04697083306724,-24.631811026982437,4.3883706978605845,418.5122937544823,88.76822878597281,-111.20635302694143
1,2021-07-02 11:01:04.430,6784430,0.4643652877993501,-10.479013911521996,0.12491483876348809,14.028274934927667,-24.608546450875746,4.430851422737878,418.7404062483453,89.1804157923695,-110.67489687108923
1,2021-07-02 11:01:04.438,6784438,0.46540861112386633,-10.477177757002815,0.1273027784099706,14.009283354007016,-24.585154667780373,4.472967520742316,418.9616473717444,89.59467821744815,-110.14315138711594
1,2021-07-02 11:01:04.450,6784450,0.4664421213802474,-10.47533217754816,0.12959320408337008,13.990008456446965,-24.56163619297948,4.514742051255285,419.17574542791016,90.01094758178928,-109.61131378555778
1,2021-07-02 11:01:04.463,6784463,0.46746734075426616,-10.473476807804918,0.13179647820982773,13.97046346996163,-24.537992098788706,4.556198062722569,419.38243525213136,90.42915318736156,-109.07957948448988
1,2021-07-02 11:01:04.477,6784477,0.46848565838906037,-10.471611354291495,0.1339235787875166,13.950662292580555,-24.51422403651138,4.597358451049745,419.5814610396185,90.84922222542042,-108.54814090315492
1,2021-07-02 11:01:04.488,6784488,0.46949831700873224,-10.469735595828311,0.13598598482135918,13.930619302970927,-24.49033425205463,4.6382458204972,419.77257924936316,91.27107972719163,-108.01718638961319
1,2021-07-02 11:01:04.501,6784501,0.4705064007946582,-10.467849383438502,0.13799555470294722,13.910349182943616,-24.466325595557606,4.678882347238201,419.9555615100284,91.69464823862576,-107.48689939413481
1,2021-07-02 11:01:04.515,6784515,0.4715108254470327,-10.465952640977413,0.13996440069965788,13.889866755804576,-24.442201524941083,4.719289646341361,420.1301975054508,92.11984718732009,-106.95745791337656
1,2021-07-02 11:01:04.528,6784528,0.47251233099569495,-10.46404536718466,0.14190476175734737,13.869186837665694,-24.417966103137992,4.759488643577614,420.29629784574473,92.54659195797935,-106.42903418225099
1,2021-07-02 11:01:04.537,6784537,0.4735114778043547,-10.462127638741807,0.14382887548536988,13.84832409684841,-24.393623989152076,4.799499454202476,420.45369693528244,92.97479270252458,-105.90179458080391
1,2021-07-02 11:01:04.549,6784549,0.4745086460234404,-10.460199613057872,0.1457488493218169,13.827292918601389,-24.36918042334542,4.83934127152957,420.6022558483056,93.40435291106006,-105.37589972346737
1,2021-07-02 11:01:04.563,6784563,0.47550403836007327,-10.458261529559659,0.1476765308751158,13.806107275895977,-24.344641207048674,4.879032268058983,420.7418652127697,93.83516777385617,-104.85150470004535
1,2021-07-02 11:01:04.576,6784576,0.4764976856561951,-10.456313709031049,0.14962337827330624,13.784780610701153,-24.320012676154665,4.918589510956619,420.8724480543198,94.26712238386168,-104.32875944749408
1,2021-07-02 11:01:04.586,6784586,0.47748945446664526,-10.454356551257067,0.15160033272118778,13.763325732870221,-24.295301668547268,4.958028892485403,420.9939624650588,94.70008986402026,-103.80780924898129
1,2021-07-02 11:01:04.602,6784602,0.4784790556954225,-10.452390531500749,0.15361769637568795,13.741754743469741,-24.270515485985772,4.997365075134633,421.1064039130535,95.13392952300933,-103.28879536643379
1,2021-07-02 11:01:04.614,6784614,0.47946605353691507,-10.450416196483618,0.15568501829259115,13.72007898562035,-24.24566185172291,5.036611450261331,421.2098070561341,95.56848512382267,-102.77185580325109
1,2021-07-02 11:01:04.622,6784622,0.4804498744289103,-10.4484341606788,0.1578109901061203,13.698309021377318,-24.220748865327106,5.075780108015308,421.3042470096803,96.00358331500175,-102.25712617663424
1,2021-07-02 11:01:04.629,6784629,0.4814298161289902,-10.446445103484702,0.1600033522783203,13.676454630311952,-24.195784955851124,5.114881816289593,421.3898400656961,96.43903225510851,-101.74474066946561
1,2021-07-02 11:01:04.638,6784638,0.4824050570855726,-10.444449767213088,0.16226881150094527,13.65452482452435,-24.170778833782094,5.153926007727669,421.46674386954953,96.874620457222,-101.23483302987594
1,2021-07-02 11:01:04.649,6784649,0.48337466612740543,-10.442448955357742,0.16461296983612245,13.632527875341346,-24.14573944152488,5.192920775251744,421.5351570602075,97.31011588027364,-100.72753758677187
1,2021-07-02 11:01:04.658,6784658,0.4843376124766729,-10.440443530623387,0.16704026612178988,13.610471348630776,-24.12067590182021,5.2318728771566025,421.59531837924726,97.74526529405776,-100.2229902497411
1,2021-07-02 11:01:04.669,6784669,0.48529277623322276,-10.438434412411501,0.16955393005749864,13.588362147672719,-24.095597463591023,5.270787752517743,421.64750525339724,98.17979394476005,-99.72132946190546
1,2021-07-02 11:01:04.683,6784683,0.4862389595921119,-10.43642257356569,0.17215594929908087,13.566206563780103,-24.070513445206288,5.309669547003722,421.6920318654306,98.61340554302483,-99.22269707541642
1,2021-07-02 11:01:04.696,6784696,0.48717489906085326,-10.434409036266944,0.17484704971197632,13.544010335276134,-24.04543317577381,5.348521148508611,421.7292467807106,99.04578257247664,-98.72723912427357
1,2021-07-02 11:01:04.706,6784706,0.48809927885943616,-10.432394867241687,0.17762668860747804,13.521778715551026,-24.020365935325632,5.387344231441405,421.75953029156335,99.47658687322512,-98.23510647799424
1,2021-07-02 11:01:04.718,6784718,0.4890107454785669,-10.430381172741395,0.18049306045155947,13.49951655043594,-23.995320894459056,5.426139308317619,421.7832916941614,99.90546043074127,-97.74645536466615
1,2021-07-02 11:01:04.732,6784732,0.4899079229982195,-10.428369093752474,0.18344311441273303,13.477228363431163,-23.97030705380689,5.464905787470098,421.8009666591733,100.33202632449974,-97.26144774729386
1,2021-07-02 11:01:04.745,6784745,0.49078942839974915,-10.426359801603622,0.18647258332754102,13.454918445230154,-23.945333184106396,5.503642035804927,421.81301476164265,100.75588983403073,-96.78025152888584
1,2021-07-02 11:01:04.755,6784755,0.49165388598438386,-10.42435449373562,0.18957602392026324,13.432590943355164,-23.92040776790622,5.5423454454790715,421.81991718217705,101.17663972398813,-96.30304055712759
1,2021-07-02 11:01:04.766,6784766,0.4924999401710841,-10.422354389051652,0.1927468679301565,13.410249949037622,-23.89553894354976,5.5810125032166376,421.82217458055806,101.59384973451373,-95.82999439874713
1,2021-07-02 11:01:04.776,6784776,0.4933262663829355,-10.420360722308086,0.19597748318872824,13.387899580244545,-23.870734451696652,5.619638860749654,421.8203051425374,102.00708030300967,-95.36129785391542
1,2021-07-02 11:01:04.784,6784784,0.4941315803928133,-10.418374737565514,0.19925924308299559,13.365544060651613,-23.84600158492353,5.658219404827705,421.8148428002679,102.41588054323918,-94.89714018126932
1,2021-07-02 11:01:04.792,6784792,0.49491464693506715,-10.416397681270576,0.20258260252317653,13.3431877943706,-23.821347141477872,5.696748325530735,421.8063356265323,102.81979050745628,-94.43771400440234
1,2021-07-02 11:01:04.802,6784802,0.4956742882231054,-10.414430795576456,0.2059371786241932,13.320835435874926,-23.79677738444441,5.735219182138138,421.79534440267935,103.21834375701945,-93.98321387093631
1,2021-07-02 11:01:04.817,6784817,0.4964093925513124,-10.412475312214456,0.2093118349704825,13.29849195445625,-23.772298007295728,5.773624966452084,421.78244135995584,103.61107026667122,-93.53383443556757
1,2021-07-02 11:01:04.824,6784824,0.49711892288687454,-10.410532446979797,0.21269476936988296,13.276162693003057,-23.74791410620308,5.811958164046473,421.7682090889194,103.99749967484006,-93.08976825322195
1,2021-07-02 11:01:04.831,6784831,0.4978019253970617,-10.408603394793714,0.21607360543154028,13.253853421477023,-23.72363015888844,5.850210813948781,421.753239587382,104.37716482937769,-92.65120324100336
1,2021-07-02 11:01:04.837,6784837,0.49845753809067944,-10.406689325299947,0.2194354875642755,13.23157038560567,-23.699450009425092,5.888374566673495,421.73813337386997,104.74960546508036,-92.21831999798057
1,2021-07-02 11:01:04.844,6784844,0.49908499989348454,-10.404791378982313,0.22276717805048504,13.209320350915762,-23.67537685818672,5.926440740165912,421.7234985694202,105.11437178634104,-91.79128924443073
1,2021-07-02 11:01:04.850,6784850,0.49968366024564426,-10.402910663837089,0.22605515448281172,13.187110641443299,-23.651413256072054,5.964400373565528,421.70994987457135,105.4710277904762,-91.37026957024995
1,2021-07-02 11:01:04.857,6784857,0.5002529888198786,-10.401048252718132,0.22928570559247413,13.164949171604423,-23.6275611022491,6.002244279079781,421.69810741174786,105.81915427953132,-90.95540555254789
1,2021-07-02 11:01:04.863,6784863,0.5007925846718967,-10.399205181501433,0.23244502341356893,13.142844469374069,-23.603821644827605,6.039963092331918,421.688595427348,106.15835157051009,-90.54682623055591
1,2021-07-02 11:01:04.871,6784871,0.5013021842526094,-10.397382448050305,0.23551929052438705,13.120805689498201,-23.580195484048723,6.077547321508542,421.68204085272674,106.48824192599587,-90.1446439118996
1,2021-07-02 11:01:04.879,6784879,0.501781667949077,-10.395581011686087,0.23849476238049389,13.09884261663769,-23.556682577967052,6.114987395269799,421.6790717233742,106.80847172660944,-89.74895328466489
1,2021-07-02 11:01:04.885,6784885,0.5022310649113546,-10.393801792777865,0.24135784543909763,13.07696565913515,-23.533282250922962,6.152273708864057,421.680315455731,107.11871340619712,-89.35983081007399
1,2021-07-02 11:01:04.893,6784893,0.5026505559205559,-10.392045672269541,0.24409517167710024,13.055185833942273,-23.509993204888897,6.18939666792006,421.68639698126697,107.41866717007066,-88.97733437098059
1,2021-07-02 11:01:04.901,6784901,0.5030404741114232,-10.39031349119972,0.24669366977293697,13.033514742641628,-23.486813533259102,6.226346729965226,421.6979367376677,107.70806251602644,-88.60150315179348
1,2021-07-02 11:01:04.908,6784908,0.5034013035679182,-10.388606050294397,0.24914063300864248,13.011964538304758,-23.463740736500945,6.263114444025212,421.71554851723494,107.98665957725636,-88.23235772584167
1,2021-07-02 11:01:04.915,6784915,0.5037336761076033,-10.386924109607465,0.2514237838259813,12.990547883337305,-23.440771739440617,6.2996904882706595,421.7398371729046,108.25425030563058,-87.86990032660152
1,2021-07-02 11:01:04.923,6784923,0.5040383667252243,-10.385268388148544,0.2535313349068048,12.96927789883983,-23.41790291028638,6.336065705310925,421.7713961826215,108.51065951318212,-87.51411527961696
1,2021-07-02 11:01:04.929,6784929,0.5043162880352742,-10.383639563587161,0.2554520466660419,12.948168106028387,-23.395130081554505,6.372231135031416,421.8108050731866,108.75574578895952,-87.16496957235451
1,2021-07-02 11:01:04.935,6784935,0.504568483803088,-10.382038272415246,0.25717528107700277,12.927232360338264,-23.37244857321152,6.408178045285891,421.8586267050983,108.98940230773648,-86.82241353964712
1,2021-07-02 11:01:04.941,6784941,0.5047961215372792,-10.38046511109953,0.258691051696526,12.906484778898637,-23.34985321845533,6.44389796086912,421.9154044251796,109.21155754348995,-86.486381643754
1,2021-07-02 11:01:04.947,6784947,0.5050004842297217,-10.378920638525868,0.2599900694841244,12.88593966159396,-23.327338392176454,6.4793826911507315,421.9816591183434,109.422175885412,-86.15679333328904
1,2021-07-02 11:01:04.954,6784954,0.5051829615761873,-10.37740537962287,0.26106378350094195,12.86561140522775,-23.304898041577676,6.514624356453283,422.057886233717,109.6212581275096,-85.83355397434516
1,2021-07-02 11:01:04.962,6784962,0.5053450411288744,-10.375919829804289,0.26190441532266523,12.845514409984235,-23.282525718151238,6.549615412943465,422.14455288497925,109.8088417876889,-85.51655585236026
1,2021-07-02 11:01:04.969,6784969,0.5054882996281703,-10.374464459815838,0.26250498650178067,12.825662977538075,-23.260214610170234,6.584348675711824,422.2420951012635,109.98500122596089,-85.20567923885058
1,2021-07-02 11:01:04.975,6784975,0.5056143943869199,-10.373039720532265,0.26285933931041305,12.806071200602196,-23.23795757492664,6.618817339417108,422.350915262247,110.14984755670461,-84.90079350885819
1,2021-07-02 11:01:04.983,6784983,0.5057250544289621,-10.371646047247767,0.2629621515136025,12.786752844018247,-23.215747170063022,6.653014995579413,422.47137972760595,110.30352836366603,-84.60175829052723
1,2021-07-02 11:01:04.988,6784988,0.5058220713356263,-10.370283863203515,0.2628089459264934,12.767721217493524,-23.193575683522692,6.686935645819513,422.60381666686885,110.44622722855797,-84.30842462763742
1,2021-07-02 11:01:04.997,6784997,0.5059072902497875,-10.368953582431006,0.2623960954110664,12.748989040104155,-23.171435162001615,6.720573710538709,422.7485140963929,110.57816308343094,-84.02063613629171
1,2021-07-02 11:01:05.003,6785003,0.5059826017070055,-10.367655612158316,0.26172082388366247,12.7305682968355,-23.149317438072835,6.753924032572193,422.905718130906,110.69958939629761,-83.73823013731587
1,2021-07-02 11:01:05.011,6785011,0.506049934520687,-10.366390354861803,0.2607812035993506,12.712470087740611,-23.127214156203852,6.786981875750452,423.07563145779255,110.81079319881873,-83.4610387462782
1,2021-07-02 11:01:05.019,6785019,0.506111249160626,-10.365158209733284,0.2595761484945932,12.694704471169091,-23.10511679807877,6.819742918759795,423.2584120430544,110.91209396419602,-83.18888990337996
1,2021-07-02 11:01:05.027,6785027,0.5061685308105798,-10.36395957324217,0.2581054030319114,12.677280303959751,-23.083016707954595,6.852203244833366,423.45417207864887,111.00384234277122,-82.92160832579795
1,2021-07-02 11:01:05.033,6785033,0.5062237819020567,-10.362794838714544,0.25636952593723955,12.660205082695022,-23.060905118702802,6.88435932800712,423.66297718168573,111.08641876220187,-82.65901636538261
1,2021-07-02 11:01:05.039,6785039,0.5062790146251503,-10.361664395112296,0.2543698683421664,12.64348478999344,-23.0387731786427,6.9162080171072455,423.88484585675707,111.16023189847537,-82.40093475492522
1,2021-07-02 11:01:05.046,6785046,0.5063362439538215,-10.360568625197397,0.2521085461025817,12.627123748249794,-23.016611978625125,6.947746518956629,424.11974923347185,111.2257170234351,-82.14718322650793
1,2021-07-02 11:01:05.054,6785054,0.5063974812443459,-10.359507903120551,0.2495884066554063,12.611124481950599,-22.994412578429497,6.978972382071751,424.36761109206884,111.28333423392841,-81.89758098573971
1,2021-07-02 11:01:05.061,6785061,0.5064647280146943,-10.358482591396905,0.24681299172368715,12.595487590054107,-22.972166031622756,7.00988348127305,424.6283081859682,111.33356656811043,-81.651947030775
1,2021-07-02 11:01:05.069,6785069,0.5065399695403436,-10.357493037284543,0.24378649798205063,12.580211630759592,-22.94986340865101,7.040478002688559,424.90167084684225,111.37691801874193,-81.41010032936194
1,2021-07-02 11:01:05.074,6785074,0.5066251684774565,-10.356539568708529,0.2405137379393887,12.565293020760258,-22.92749581880907,7.070754428232153,425.187483815233,111.41391146150508,-81.17185991076998
1,2021-07-02 11:01:05.082,6785082,0.5067222592078954,-10.355622489940147,0.23700010276536812,12.550725950053534,-22.905054432117275,7.100711518950147,425.4854872164521,111.44508652072282,-80.9370449537744
1,2021-07-02 11:01:05.090,6785090,0.5068331433479449,-10.354742077150766,0.2332515278070704,12.53650231253593,-22.88253050169704,7.130348297321379,425.79537762635954,111.47099738962827,-80.70547492802567
1,2021-07-02 11:01:05.097,6785097,0.5069596861499943,-10.353898573795401,0.22927446052532813,12.5226116522681,-22.85991538664019,7.1596640290976215,426.1168092157316,111.49221061326914,-80.47696980300663
1,2021-07-02 11:01:05.104,6785104,0.5071037131498342,-10.353092185686222,0.2250758300463258,12.509041125285794,-22.837200575078192,7.188658205496417,426.4493949867577,111.50930283695833,-80.25135031490892
1,2021-07-02 11:01:05.112,6785112,0.5072670067351833,-10.352323075604588,0.22066301753254558,12.495775477074552,-22.814377706962798,7.217330526909879,426.79270812075714,111.52285852189407,-80.02843827714412
1,2021-07-02 11:01:05.120,6785120,0.5074513029102177,-10.351591357288642,0.21604382680198525,12.482797036438937,-22.79143859599279,7.245680889644526,427.1462834569139,111.53346762928415,-79.80805692039367
1,2021-07-02 11:01:05.125,6785125,0.5076582885779668,-10.350897088566375,0.21122645507038046,12.470085727267,-22.768375250392,7.273709376831905,427.5096191225126,111.54172327405492,-79.59003124827991
1,2021-07-02 11:01:05.133,6785133,0.5078895989365894,-10.350240263309217,0.2062194644406537,12.457619100096522,-22.745179892671416,7.301416253500415,427.8821783358208,111.54821934900819,-79.37418839490746
1,2021-07-02 11:01:05.141,6785141,0.508146814002435,-10.349620801888204,0.2010317552886587,12.44537238514642,-22.72184497861172,7.328801965004759,428.26339140339223,111.55354812010731,-79.16035797068002
1,2021-07-02 11:01:05.148,6785148,0.5084314537573591,-10.349038540071385,0.19567254261316913,12.433318567821711,-22.698363215378972,7.35586713822663,428.6526579341656,111.55829779342872,-78.94837238294343
1,2021-07-02 11:01:05.157,6785157,0.5087449725834375,-10.348493216724398,0.1901513361720713,12.421428487201942,-22.674727578362003,7.382612585430116,429.0493492933018,111.56305005420732,-78.73806711814015
1,2021-07-02 11:01:05.164,6785164,0.5090887542434228,-10.347984460937342,0.18447792505019314,12.409670957767878,-22.65093132625626,7.409039310777719,429.45281131923366,111.56837757833067,-78.5292809722848
1,2021-07-02 11:01:05.169,6785169,0.5094641080181528,-10.347511779194223,0.17866236685257655,12.398012914143338,-22.62696801415472,7.43514851930356,429.86236732789655,111.5748415166021,-78.32185621668403
1,2021-07-02 11:01:05.176,6785176,0.5098722653300762,-10.347074543161828,0.17271498104542757,12.386419577928107,-22.602831504965597,7.460941627551892,430.2773214285678,111.58298895209228,-78.11563868592783
1,2021-07-02 11:01:05.184,6785184,0.5103143755166991,-10.346671978640138,0.16664634556248592,12.374854645145144,-22.578515979822242,7.4864202746507775,430.6969621626697,111.59335033478634,-77.91047777912641
1,2021-07-02 11:01:05.191,6785191,0.510791499948875,-10.346303155978136,0.16046729573985988,12.363280492112558,-22.55401594778491,7.511586332800285,431.12056640983695,111.60643691706971,-77.70622638471662
1,2021-07-02 11:01:05.199,6785199,0.5113046047676377,-10.34596698188638,0.154188924634257,12.351658396346183,-22.529326254554586,7.536441916419442,431.54740338450864,111.62273824837654,-77.5027407739149
1,2021-07-02 11:01:05.206,6785206,0.5118545531273683,-10.345662192367111,0.1478225837445121,12.339948768420955,-22.504442089710636,7.560989389303191,431.97673847916013,111.64271980672628,-77.2998805272248
1,2021-07-02 11:01:05.213,6785213,0.5124420977478098,-10.3453873465032,0.1413798831770841,12.328111391540203,-22.47935899226496,7.585231369611077,432.407836777966,111.66682082577525,-77.09750853919765
1,2021-07-02 11:01:05.220,6785220,0.5130678742851641,-10.345140820941804,0.13487269031765056,12.316105666972843,-22.454072855024517,7.60917073305108,432.83996618625855,111.69545234152842,-76.89549111201353
1,2021-07-02 11:01:05.226,6785226,0.5137323958507064,-10.344920805002996,0.12831312620334795,12.303890864263485,-22.428579928637056,7.632810614563538,433.2724001887313,111.7289954638171,-76.69369812922345
1,2021-07-02 11:01:05.233,6785233,0.5144360488512154,-10.344725296465707,0.12171355919901157,12.29142637524681,-22.40287682555077,7.656154408341031,433.70442026292983,111.76779987404696,-76.49200329716969
1,2021-07-02 11:01:05.242,6785242,0.5151790901760175,-10.344552098196086,0.11508659592598049,12.278671970942492,-22.37696052315031,7.679205765851412,434.13531797463855,111.81218255099947,-76.29028444162421
1,2021-07-02 11:01:05.248,6785248,0.5159616456888032,-10.344398815877494,0.10844506920503857,12.265588060591588,-22.350828365279277,7.701968591868106,434.5643967817891,111.86242672677055,-76.08842384719836
1,2021-07-02 11:01:05.255,6785255,0.5167837099709774,-10.344262857232374,0.10180202222127507,12.252135952372102,-22.324478062223314,7.724447038880651,434.99097357349285,111.91878107525355,-75.88630862708388
1,2021-07-02 11:01:05.261,6785261,0.5176451472473188,-10.344141433215471,0.09517068792400325,12.238278115447937,-22.297907689854473,7.746645500351033,435.41437997072893,111.981459135916,-75.68383111068353
1,2021-07-02 11:01:05.266,6785266,0.5185456933627328,-10.344031561626666,0.08856446347341954,12.223978442756124,-22.27111568850579,7.768568603105563,435.83396341511144,112.05063897597891,-75.4808892366814
1,2021-07-02 11:01:05.271,6785271,0.5194849585570749,-10.343930073551235,0.0819968810341975,12.209202513487961,-22.244100861918387,7.790221198708029,436.249088072001,112.12646309448292,-75.27738693908739
1,2021-07-02 11:01:05.278,6785278,0.5204624307184126,-10.343833623012998,0.07548157704394001,12.193917853957798,-22.21686237647122,7.8116083534056076,436.65913557403553,112.20903857211371,-75.0732345137683
1,2021-07-02 11:01:05.287,6785287,0.5214774788941384,-10.34373870004621,0.06903226147031208,12.178094195352319,-22.18939976040827,7.832735336688088,437.0635056309179,112.29843747105821,-74.8683489529497
1,2021-07-02 11:01:05.293,6785293,0.5225293570073789,-10.343641646902267,0.06266268736932182,12.161703725694288,-22.161712902298117,7.853607609226839,437.4616165310238,112.39469748957097,-74.66265423513836
1,2021-07-02 11:01:05.300,6785300,0.5236172078113228,-10.34353867643698,0.05638662039884476,12.144721330945893,-22.133802048176126,7.874230811220004,437.852905560083,112.49782287634521,-74.45608155787518
1,2021-07-02 11:01:05.305,6785305,0.5247400670887945,-10.34342589140514,0.05021780809257835,12.12712481842963,-22.105667797508794,7.894610751767357,438.23682936183565,112.60778561020139,-74.24856950068404
1,2021-07-02 11:01:05.310,6785310,0.5258968680238352,-10.343299303754302,0.04416994932937409,12.108895116341754,-22.077311098642987,7.9147533991400705,438.61286426518177,112.72452685102823,-74.04006410553207
1,2021-07-02 11:01:05.315,6785315,0.5270864456282541,-10.343154853615278,0.03825666484296886,12.090016445119135,-22.048733244294297,7.934664871431899,438.98050660192246,112.84795866833274,-73.83051886206313
1,2021-07-02 11:01:05.320,6785320,0.5283075411542781,-10.342988428014564,0.03249146926538091,12.070476458238883,-22.019935866880395,7.954351427529389,439.33927303584665,112.97796604743246,-73.61989458769885
1,2021-07-02 11:01:05.326,6785326,0.5295588065093456,-10.342795879494968,0.026887744221480058,12.05026635156308,-21.9909209328517,7.973819459074454,439.68870090898486,113.1144091400252,-73.40815920708967
1,2021-07-02 11:01:05.335,6785335,0.5308388087371221,-10.34257304505622,0.021458710934623832,12.02938094176249,-21.961690735181755,7.993075484441791,440.02834858432425,113.25712566559501,-73.19528746134348
1,2021-07-02 11:01:05.340,6785340,0.5321460346491586,-10.342315765964754,0.016217400389686835,12.00781871511023,-21.9322478834111,8.01212614573975,440.35779574928466,113.40593333680266,-72.98126059184277
1,2021-07-02 11:01:05.347,6785347,0.5334788957394859,-10.342019908864597,0.011176619798923398,11.985581847934789,-21.90259529066456,8.030978209632318,440.6766436581296,113.56063221611942,-72.76606602894334
1,2021-07-02 11:01:05.354,6785354,0.534835733599035,-10.341681388411319,0.00634891536736243,11.962676200051387,-21.872736157119537,8.049638572411375,440.9845153168922,113.72100697203629,-72.54969708976954
1,2021-07-02 11:01:05.359,6785359,0.5362148260622495,-10.341296191496243,0.001746532091917108,11.9391112825834,-21.842673949563736,8.068114269467141,441.28105562822003,113.8868290372704,-72.33215267480018
1,2021-07-02 11:01:05.368,6785368,0.5376143941127686,-10.340860402889858,-0.002618628668446081,11.91490020126766,-21.81241237696798,8.086412489181937,441.5659315157768,114.0578586784959,-72.11343694997808
1,2021-07-02 11:01:05.373,6785373,0.5390326092038077,-10.34037023175613,-0.006735053266411907,11.890059576012083,-21.781955362626775,8.104540591047261,441.83883204716625,114.23384698747608,-71.89355900100392
1,2021-07-02 11:01:05.380,6785380,0.5404676004523691,-10.339822038255258,-0.010591660898735533,11.86460943736245,-21.751307013865002,8.122506127595367,442.099468573644,114.41453780380853,-71.67253244640293
1,2021-07-02 11:01:05.386,6785386,0.5419174613655402,-10.339212359514063,-0.014177849045993875,11.838573100329578,-21.720471590075668,8.140316869733466,442.347574904166,114.59966957981604,-71.4503749958807
1,2021-07-02 11:01:05.393,6785393,0.5433802561310092,-10.338537934364773,-0.017483538080822748,11.811977015918515,-21.68945346955711,8.15798083498714,442.58290753058446,114.78897719842125,-71.22710794041342
1,2021-07-02 11:01:05.401,6785401,0.5448540256982219,-10.337795726323334,-0.020499213683047995,11.78485060073492,-21.65825711551958,8.17550631797571,442.8052459200478,114.98219375513244,-71.00275556044672
1,2021-07-02 11:01:05.409,6785409,0.5463367937946954,-10.336982944450392,-0.02321596611075406,11.757226045031532,-21.62688704132716,8.192901922227476,443.0143928898883,115.17905231554188,-70.77734443850804
1,2021-07-02 11:01:05.416,6785416,0.5478265728157273,-10.33609706198385,-0.025625526062015402,11.729138099736536,-21.59534777474546,8.210176591935982,443.21017507949716,115.37928765999511,-70.55090266246927
1,2021-07-02 11:01:05.422,6785422,0.5493213694113832,-10.335135832766474,-0.027720297253069456,11.700623843249582,-21.563643820907092,8.22733964183137,443.39244353288325,115.58263802733109,-70.32345890562921
1,2021-07-02 11:01:05.429,6785429,0.55081918965501,-10.334097305487735,-0.02949338599030484,11.671722428910606,-21.53177962379103,8.244400783372337,443.56107440480315,115.78884686981696,-70.09504136972052
1,2021-07-02 11:01:05.435,6785435,0.5523180438022057,-10.332979835712882,-0.03093862815993069,11.642474814444746,-21.499759526356993,8.26137014538572,443.71596980252457,115.99766463161039,-69.8656765768824
1,2021-07-02 11:01:05.440,6785440,0.5538159507231035,-10.331782095649173,-0.03205061418684055,11.612923475087007,-21.46758772975016,8.278258287226446,443.8570587686757,116.20885055749417,-69.63538800428421
1,2021-07-02 11:01:05.448,6785448,0.5553109421278286,-10.33050308161288,-0.03282471267816353,11.583112102113882,-21.43526825179213,8.295076203330026,443.9842983808926,116.42217450990645,-69.40419459355746
1,2021-07-02 11:01:05.456,6785456,0.5568010667464647,-10.329142119197535,-0.03325709377761788,11.553085288772332,-21.40280488475104,8.311835319232694,444.09767489111573,116.63741872043275,-69.17210923649111
1,2021-07-02 11:01:05.463,6785463,0.5582843946386133,-10.327698866171238,-0.03334475335572795,11.522888206099054,-21.37020115235872,8.328547479808568,444.1972047976367,116.8543793731743,-68.93913737692023
1,2021-07-02 11:01:05.469,6785469,0.5597590217384276,-10.326173313149047,-0.03308553852451727,11.492566271818012,-21.337460266002033,8.345224930690136,444.2829357710425,117.07286794643848,-68.70527583014992
1,2021-07-02 11:01:05.474,6785474,0.5612230746164605,-10.32456578212303,-0.032478173869163345,11.462164817054843,-21.30458508014868,8.361880293976897,444.3549474063703,117.29271229133295,-68.47051185184448
1,2021-07-02 11:01:05.481,6785481,0.5626747153518239,-10.322876922969115,-0.031522287060343816,11.431728756757488,-21.271578047241032,8.378526539357825,444.41335180183074,117.51375745485095,-68.23482244972524
1,2021-07-02 11:01:05.489,6785489,0.5641121463569991,-10.32110770808648,-0.03021843220480395,11.401302269159633,-21.23844117219596,8.395176951463153,444.4582939693882,117.73586626091006,-67.99817392365857
1,2021-07-02 11:01:05.498,6785498,0.5655336149141643,-10.319259425403382,-0.028568108856754402,11.370928488978812,-21.205175966640464,8.411845093690863,444.4899520816442,117.95891966289018,-67.76052161965985
1,2021-07-02 11:01:05.506,6785506,0.5669374171213203,-10.317333670061641,-0.026573774398298017,11.340649218675523,-21.17178340310738,8.428544768413117,444.50853755863074,118.18281688129252,-67.5218098832815
1,2021-07-02 11:01:05.512,6785512,0.5683219009778335,-10.315332335170252,-0.024238848275107697,11.310504660236033,-21.13826386930473,8.445289973618179,444.5142949972911,118.40747534020691,-67.2819721977933
1,2021-07-02 11:01:05.519,6785519,0.5696854683886492,-10.313257602138636,-0.021567707976536774,11.280533167172264,-21.104617122714505,8.46209485634465,444.50750194561226,118.63283041633413,-67.04093149250117
1,2021-07-02 11:01:05.526,6785526,0.5710265759343628,-10.31111193097966,-0.01856567786867723,11.250771014581652,-21.070842246519064,8.478973663503773,444.488468522564,118.85883501436287,-66.79860060648477
1,2021-07-02 11:01:05.533,6785533,0.5723437344234097,-10.308898050389772,-0.01523901280411514,11.221252184225413,-21.03693760858019,8.495940691004302,444.4575368842126,119.08545898254864,-66.55488289296392
1,2021-07-02 11:01:05.541,6785541,0.5736355074346057,-10.306618946854051,-0.011594878609009308,11.192008161531136,-21.002900825085202,8.513010232327245,444.4150805356057,119.31268838238583,-66.30967294942984
1,2021-07-02 11:01:05.548,6785548,0.5749005091949362,-10.304277851973408,-0.007641330953458078,11.163067742939203,-20.968728729558308,8.530196527425824,444.36150348727034,119.54052462630449,-66.06285745859682
1,2021-07-02 11:01:05.555,6785555,0.5761374022740661,-10.301878227419673,-0.0033872933514431883,11.13445685466561,-20.934417347113623,8.547513712144251,444.297239254434,119.76898349736294,-65.81431612514406
1,2021-07-02 11:01:05.562,6785562,0.5773448956306922,-10.299423747096116,0.0011574654147685683,11.106198385676855,-20.899961873557547,8.564975767912907,444.2227496982969,119.99809406494498,-65.56392269312518
1,2021-07-02 11:01:05.569,6785569,0.5785217433509555,-10.296918276373086,0.0059823545926085365,11.078312037880663,-20.865356659105633,8.582596471547875,444.1385237176323,120.22789751050868,-65.31154602882367
1,2021-07-02 11:01:05.576,6785576,0.5796667440860822,-10.294365848722755,0.011075986223802282,11.050814196769762,-20.830595197039177,8.600389345133008,444.0450758156715,120.45844587747264,-65.05705125372556
1,2021-07-02 11:01:05.584,6785584,0.5807787410335654,-10.291770640392722,0.016426202514435467,11.023717826038215,-20.79567011802864,8.618367606019087,443.94294457623687,120.68980075936626,-64.80030091216646
1,2021-07-02 11:01:05.591,6785591,0.5818566224653585,-10.289136943907726,0.022020107058468533,10.997032388977935,-20.76057319057309,8.6365441171265,443.8326910728523,120.9220319404143,-64.54115615808765
1,2021-07-02 11:01:05.599,6785599,0.5828993231359072,-10.286469141435543,0.027844101303261492,10.97076379856268,-20.725295327639788,8.654931337890712,443.7148972166544,121.1552160027715,-64.27947794520509
1,2021-07-02 11:01:05.605,6785605,0.5839058270480578,-10.283771679189298,0.03388392758794373,10.94491439760636,-20.689826599498925,8.673541276216989,443.5901640387595,121.38943491467398,-64.0151282047562
1,2021-07-02 11:01:05.612,6785612,0.5848751717674865,-10.281049043675328,0.04012471907130093,10.919482969293881,-20.654156252722046,8.692385441712426,443.4591099003186,121.62477461382804,-63.747970994841495
1,2021-07-02 11:01:05.616,6785616,0.5858064539357477,-10.278305740010778,0.046551055101959185,10.894464776844362,-20.61827273551481,8.711474800192002,443.32236862302295,121.86132360041579,-63.4778736052222
1,2021-07-02 11:01:05.623,6785623,0.5866988353031035,-10.275546272191136,0.05314701964128149,10.86985163012846,-20.582163729764083,8.730819729232051,443.18058753240115,122.0991715541618,-63.20470760127021
1,2021-07-02 11:01:05.628,6785628,0.5875515486230148,-10.272775125029035,0.0598962611795656,10.845631976629097,-20.545816189993133,8.750429974511613,443.03442540585667,122.33840798997306,-62.92834979059397
1,2021-07-02 11:01:05.632,6785632,0.5883639028306584,-10.26999674731792,0.06678205416884556,10.821791013591424,-20.509216389263315,8.770314606555013,442.88455031704564,122.57912096674025,-62.64868309568263
1,2021-07-02 11:01:05.638,6785638,0.5891352869714552,-10.267215535680624,0.07378736287897976,10.798310817916743,-20.47234997196775,8.790481977425753,442.7316373678844,122.82139586396752,-62.36559731572203
1,2021-07-02 11:01:05.643,6785643,0.5898651725456197,-10.264435818654741,0.0808949085334129,10.7751704908531,-20.435202012871056,8.810939677419965,442.57636629920677,123.06531424098416,-62.07898976053942
1,2021-07-02 11:01:05.650,6785650,0.5905531143187845,-10.26166184073271,0.08808724009320443,10.752346315253657,-20.39775708108603,8.831694492653964,442.4194189708629,123.31095279358206,-61.78876573943033
1,2021-07-02 11:01:05.657,6785657,0.5911987500327609,-10.258897746166838,0.09534680853231829,10.729811923385563,-20.35999930764575,8.852752365066035,442.2614767018623,123.55838242301898,-61.4948388874104
1,2021-07-02 11:01:05.667,6785667,0.5918017995997888,-10.256147562391202,0.10265604419158103,10.707538473324497,-20.321912455604583,8.874118356488937,442.10321746102204,123.80766743242906,-61.1971313112184
1,2021-07-02 11:01:05.674,6785674,0.5923620641539844,-10.253415183028372,0.10999743689582646,10.685494832621321,-20.283479991899164,8.895796617954487,441.9453128984744,124.05886486578746,-60.89557353717374
1,2021-07-02 11:01:05.681,6785681,0.5928794249629611,-10.25070435067149,0.11735361858261739,10.663647769114096,-20.24468516082882,8.9177903643754,441.7884252160348,124.31202400083308,-60.59010425047078
1,2021-07-02 11:01:05.688,6785688,0.5933538420159219,-10.24801863981808,0.12470744775752783,10.641962149564586,-20.205511059705522,8.940101853702211,441.6332039129418,124.56718598820179,-60.28066985379057
1,2021-07-02 11:01:05.695,6785695,0.5937853521847113,-10.245361440342307,0.13204209429812094,10.620401146654464,-20.165940717265336,8.962732369048275,441.48028251286047,124.8243835944612,-59.96722394223065
1,2021-07-02 11:01:05.703,6785703,0.5941740670219305,-10.242735941773551,0.13934112283563618,10.598926454153876,-20.12595717478691,8.985682202405814,441.3302754166324,125.08364098759347,-59.64972682984456
1,2021-07-02 11:01:05.710,6785710,0.5945201704186323,-10.240145118558031,0.1465885737243227,10.577498509255475,-20.08554356908894,9.008950639306455,441.1837749868266,125.34497352286103,-59.328145224306695
1,2021-07-02 11:01:05.717,6785717,0.5948239165209236,-10.23759171650065,0.1537690418293117,10.556076720340075,-20.044683216150958,9.032535944447071,441.0413489009309,125.60838752179365,-59.00245207661438
1,2021-07-02 11:01:05.724,6785724,0.5950856283758005,-10.235078240655413,0.1608677539406456,10.534619697987168,-20.003359694108262,9.05643534858983,440.9035377716682,125.873880056428,-58.67262659395828
1,2021-07-02 11:01:05.731,6785731,0.5953056975622394,-10.232606945059867,0.1678706451492951,10.513085486698861,-19.961556924976957,9.080645037175678,440.770853025433,126.14143875491096,-58.33865439593406
1,2021-07-02 11:01:05.738,6785738,0.5954845846882414,-10.230179824960988,0.17476443348314688,10.49143179423738,-19.919259255717325,9.10516014110988,440.6437750300926,126.41104164470651,-58.00052779401519
1,2021-07-02 11:01:05.744,6785744,0.5956228204110642,-10.227798612279575,0.18153669151703794,10.469616215047553,-19.876451539965554,9.129974730158075,440.52275146367924,126.68265704977314,-57.658246173952534
1,2021-07-02 11:01:05.751,6785751,0.5957210066353086,-10.225464774604896,0.18817591405097409,10.447596444230923,-19.83311922093654,9.155081809497291,440.4081959158166,126.95624355820583,-57.31181646051044
1,2021-07-02 11:01:05.757,6785757,0.5957798175824106,-10.223179517223137,0.19467158168828191,10.425330478459655,-19.78924841461924,9.180473320056262,440.3004867140668,127.23175007696268,-56.96125364369407
1,2021-07-02 11:01:05.766,6785766,0.5958000004041749,-10.22094378722353,0.2010142205009545,10.402776800161035,-19.744825991722806,9.206140143242413,440.19996596775485,127.50911599041899,-56.60658134536603
1,2021-07-02 11:01:05.773,6785773,0.5957823748908849,-10.218758278775208,0.20719545781886708,10.379894541906946,-19.69983965700463,9.232072110441914,440.1069388222261,127.78827143961337,-56.24783240489578
1,2021-07-02 11:01:05.780,6785780,0.5957278316058259,-10.216623438860436,0.21320807368372707,10.35664362893855,-19.65427802542367,9.258258017096269,440.02167291691325,128.0691377391685,-55.88504946223038
1,2021-07-02 11:01:05.787,6785787,0.5956373277986886,-10.21453947296102,0.21904604690196194,10.332984898686624,-19.60813069559461,9.284685640386012,439.94439804102825,128.3516279489826,-55.51828551652229
1,2021-07-02 11:01:05.795,6785795,0.5955118809587624,-10.212506350563196,0.224704594216542,10.308880197059858,-19.56138832156047,9.311341759157559,439.8753059811571,128.63564761789846,-55.14760443819943
1,2021-07-02 11:01:05.802,6785802,0.5953525604187353,-10.210523810700879,0.23018020116252666,10.284292451827316,-19.514042683549793,9.338212175021397,439.8145505555115,128.9210957166611,-54.77308141211384
1,2021-07-02 11:01:05.809,6785809,0.5951604775557534,-10.208591367899071,0.23547064361985848,10.259185723356714,-19.466086757479662,9.365281734236056,439.7622478300816,129.20786577757602,-54.39480328916099
1,2021-07-02 11:01:05.814,6785814,0.5949367750514095,-10.20670831894708,0.24057499948861213,10.23352523280843,-19.417514782313006,9.392534350456527,439.71847651243877,129.4958472583725,-54.012868823520485
1,2021-07-02 11:01:05.819,6785819,0.5946826156150277,-10.204873750943534,0.2454936500936548,10.207277367926515,-19.368322324151936,9.419953028541716,439.6832785194462,129.78492714786597,-53.627388772432546
1,2021-07-02 11:01:05.825,6785825,0.5943991705173741,-10.203086550827074,0.25022827107971835,10.180409666844108,-19.318506335816526,9.447519889572469,439.6566597146953,130.074991820497,-53.238485838083754
1,2021-07-02 11:01:05.837,6785837,0.5940876082385613,-10.201345416234915,0.2547818127118705,10.152890780997454,-19.268065210691656,9.475216196958488,439.6385908071895,130.36592909391896,-52.846294445399934
1,2021-07-02 11:01:05.848,6785848,0.5937490835044269,-10.199648867326426,0.2591584696320059,10.124690418712134,-19.21699882969684,9.503022383333217,439.629008394658,130.65763034850895,-52.450960375334716
1,2021-07-02 11:01:05.860,6785860,0.5933847268826283,-10.197995259262546,0.26336364044608457,10.09577927083683,-19.16530860014825,9.530918078331815,439.62781613059093,130.94999251475474,-52.05264028748145
1,2021-07-02 11:01:05.871,6785871,0.592995634988323,-10.196382795205933,0.26740387791923864,10.066128919996874,-19.11299748565445,9.558882137963513,439.63488599942946,131.24291978750733,-51.651501151184256
1,2021-07-02 11:01:05.884,6785884,0.5925828613200277,-10.194809539885119,0.2712868304715078,10.03571173594569,-19.060070027136174,9.586892676572917,439.6500596935356,131.53632502150052,-51.24771957812222
1,2021-07-02 11:01:05.898,6785898,0.5921474077078492,-10.193273433944475,0.27502117495809025,10.00450075973283,-19.006532355488208,9.61492710212957,439.6731500908992,131.8301308155611,-50.84148103470765
