imu,server_time,arduino_time,ax,ay,az,gx,gy,gz,mx,my,mz
2,2021-07-02 11:01:01.134,6781134,-0.2770797980870442,-10.28424171555777,-0.040593208610663276,10.400568774928947,-21.276557904713908,-8.644077577610311,297.01192186479346,53.157017853059365,-189.35710202736865
2,2021-07-02 11:01:01.140,6781140,-0.27981457340174826,-10.284069298691179,-0.035368354417068475,10.381716716125435,-21.29956393350386,-8.655223392817014,296.72151923556186,52.942793495045024,-189.3297244644187
2,2021-07-02 11:01:01.147,6781147,-0.28254983413924717,-10.283904169456623,-0.030184256636924225,10.362912926824693,-21.322886792686514,-8.66792594586436,296.4241062130899,52.73275238095009,-189.29837265805347
2,2021-07-02 11:01:01.154,6781154,-0.28527931009332586,-10.283748008740494,-0.02505115580873521,10.34420565534751,-21.346502676250932,-8.682223389353759,296.11985161860343,52.52738475816788,-189.2631013297914
2,2021-07-02 11:01:01.162,6781162,-0.28799652869068093,-10.28360258256968,-0.01997921510581295,10.325644678575712,-21.370387557511293,-8.698149687705635,295.80893626119814,52.32716819553675,-189.22398988322692
2,2021-07-02 11:01:01.168,6781168,-0.29069482657858736,-10.28346973715102,-0.014978480647794858,10.307281211138395,-21.394517302794686,-8.715734293082031,295.491552865396,52.13256544585501,-189.18114303870937
2,2021-07-02 11:01:01.176,6781176,-0.2933673649922807,-10.283351393906473,-0.01005884300130779,10.28916779862036,-21.41886778714177,-8.73500183358614,295.1679059441321,51.94402227949678,-189.13469136076336
2,2021-07-02 11:01:01.185,6781185,-0.29600714931740985,-10.28324954468809,-0.005230000491592147,10.271358192821397,-21.443415011193203,-8.755971816902138,294.8382115980131,51.761965276806855,-189.0847916758455
2,2021-07-02 11:01:01.193,6781193,-0.2986070521864446,-10.283166247068197,-0.0005014246216242181,10.253907208102655,-21.46813521773876,-8.778658351432092,294.50269722128945,51.5867995672978,-189.03162737780073
2,2021-07-02 11:01:01.199,6781199,-0.30115983887651204,-10.28310361940819,0.0041176723515591335,10.236870558582616,-21.493005005930033,-8.803069886521563,294.1616010994151,51.41890651078812,-188.9754086152727
2,2021-07-02 11:01:01.205,6781205,-0.30365819423363627,-10.28306383530005,0.008618368117955291,10.220304676627563,-21.518001441612057,-8.829208973801954,293.81517190677806,51.258641349734425,-188.91637234066087
2,2021-07-02 11:01:01.212,6781212,-0.3060947512557629,-10.283049116810515,0.012992060504507534,10.20426651416991,-21.543102162879702,-8.857072052636351,293.46366815617466,51.10633092312173,-188.8547821740083
2,2021-07-02 11:01:01.217,6781217,-0.3084621219327574,-10.283061725885574,0.017230498660684188,10.188813329140046,-21.568285480250427,-8.886649263298729,293.1073576753394,50.96227156643782,-188.79092802056792
2,2021-07-02 11:01:01.225,6781225,-0.31075293069006393,-10.28310395354082,0.021325815750307984,10.174002459168412,-21.593530471097584,-8.917924291417338,292.7465171614319,50.82672728901184,-188.72512539507215
2,2021-07-02 11:01:01.233,6781233,-0.31295985019989475,-10.28317810691955,0.02527056183926889,10.15989108453382,-21.618817068137233,-8.950874246963567,292.3814318207202,50.69992825979888,-188.6577144315824
2,2021-07-02 11:01:01.242,6781242,-0.3150756389749083,-10.283286494559468,0.029057734630242048,10.146535982385869,-21.64412614175855,-8.985469580857014,292.0123950763246,50.5820695994845,-188.58905857210684
2,2021-07-02 11:01:01.249,6781249,-0.3170931801959749,-10.283431410173868,0.03268080616748398,10.133993274150933,-21.669439576047125,-9.021674041350785,291.6397083217882,50.47331047056344,-188.5195429299456
2,2021-07-02 11:01:01.254,6781254,-0.31900552127100745,-10.283615115181702,0.036133744628237145,10.122318168192802,-21.694740338195004,-9.059444670647265,291.26368069798036,50.37377345758422,-188.44957232362378
2,2021-07-02 11:01:01.261,6781261,-0.3208059133175313,-10.283839820406751,0.03941103092569497,10.111564700438029,-21.720012540518912,-9.09873184047893,290.88462887059575,50.28354423030099,-188.3795689771978
2,2021-07-02 11:01:01.267,6781267,-0.3224878492455374,-10.284107667781889,0.04250767020925405,10.101785475986809,-21.74524149403975,-9.139479324381833,290.50287678528645,50.20267148303319,-188.30996988266781
2,2021-07-02 11:01:01.276,6781276,-0.32404509898661865,-10.28442071311725,0.04541919858456081,10.093031414214868,-21.770413752844355,-9.181624404382939,290.1187553772603,50.13116714410063,-188.24122382020204
2,2021-07-02 11:01:01.284,6781284,-0.3254717410748105,-10.284780910763995,0.04814168527348278,10.085351498901767,-21.79551714892272,-9.225098010113161,289.7326022119911,50.069006849773345,-188.17378803187768
2,2021-07-02 11:01:01.291,6781291,-0.3267621907928284,-10.285190100631313,0.05067173007504631,10.078792534206867,-21.820540817329277,-9.269824887855263,289.3447610335208,50.0161306777511,-188.10812454466813
2,2021-07-02 11:01:01.299,6781299,-0.32791122562277314,-10.285649997759773,0.05300645587626539,10.073398907092997,-21.845475211552873,-9.315723796568712,288.9555811966883,49.972444135763105,-188.04469613845905
2,2021-07-02 11:01:01.304,6781304,-0.32891400853014785,-10.286162184307976,0.055143496600320925,10.069212356863963,-21.87031210945773,-9.362707728710314,288.56541695949386,49.937819401452934,-187.98396195495778
2,2021-07-02 11:01:01.309,6781309,-0.3297661091053581,-10.286728103274912,0.05708098216273135,10.066271752764303,-21.8950446108637,-9.410684154670632,288.17462661170504,49.91209681028444,-187.9263727434688
2,2021-07-02 11:01:01.315,6781315,-0.3304635222840684,-10.287349052998751,0.05881752257562295,10.064612880858913,-21.919667128128918,-9.459555290065698,287.7835714224703,49.89508658395307,-187.8723657540954
2,2021-07-02 11:01:01.320,6781320,-0.33100268432202923,-10.288026181788403,0.06035219241689734,10.064268241476494,-21.94417537069699,-9.509218385411392,287.3926144233608,49.88657076826199,-187.82235936134026
2,2021-07-02 11:01:01.325,6781325,-0.33138048569071754,-10.288760482626325,0.06168451517930008,10.065266858648622,-21.96856632371142,-9.55956603769769,287.00211910391033,49.88630530662154,-187.77674763131472
2,2021-07-02 11:01:01.330,6781330,-0.3315942805506178,-10.289552788205997,0.06281444606340872,10.067634103094518,-21.992838220319342,-9.610486523395391,286.6124481304221,49.89402215178457,-187.73589511823306
2,2021-07-02 11:01:01.335,6781335,-0.33164189252276066,-10.290403766589375,0.06374235201338052,10.071391530098165,-22.016990507729783,-9.661864153037417,286.2239621651011,49.90943134303459,-187.70013210386753
2,2021-07-02 11:01:01.342,6781342,-0.3315216164508274,-10.291313917832785,0.06446898822597104,10.076556733904473,-22.041023807819247,-9.713579646918946,285.83701880191376,49.93222301989941,-187.66975036386418
2,2021-07-02 11:01:01.349,6781349,-0.3312322155970846,-10.292283572195215,0.06499547022725399,10.08314322158558,-22.064939873330708,-9.765510528486246,285.4519716019101,49.962069368036005,-187.64499947286617
2,2021-07-02 11:01:01.355,6781355,-0.33077291364545225,-10.29331289065682,0.06532324061734998,10.091160310330169,-22.08874154060211,-9.817531529642425,285.0691692040755,49.99862649822257,-187.62608364625308
2,2021-07-02 11:01:01.361,6781361,-0.33014338158694717,-10.294401867996685,0.06545403103624016,10.100613051721334,-22.112432679476715,-9.869515002337488,284.6889544878725,50.04153625984743,-187.61315911663462
2,2021-07-02 11:01:01.368,6781368,-0.3293437208344237,-10.295550337814324,0.06538982252870518,10.111502185802875,-22.136018140542863,-9.92133133103648,284.31166376375074,50.090427990719256,-187.60633204358206
2,2021-07-02 11:01:01.375,6781375,-0.32837444462454085,-10.296757978409897,0.06513280886609471,10.123824127118878,-22.159503699527725,-9.972849340609672,283.93762596804044,50.1449202054356,-187.60565695543846
2,2021-07-02 11:01:01.382,6781382,-0.32723645930866596,-10.298024318749572,0.06468536589618279,10.137570983238307,-22.182895998883996,-10.023936695758229,283.56716183880513,50.20462222493814,-187.6111357224162
2,2021-07-02 11:01:01.389,6781389,-0.3259310462554471,-10.299348744366318,0.06405002721944092,10.152730603521043,-22.206202486957498,-10.074460290140083,283.2005830494086,50.269135750251266,-187.6227170605629
2,2021-07-02 11:01:01.396,6781396,-0.32445984461781924,-10.300730503362411,0.06322946487108509,10.169286654247955,-22.22943135529923,-10.124286624440169,282.8381912767508,50.338056383745204,-187.64029656655444
2,2021-07-02 11:01:01.404,6781404,-0.3228248351700621,-10.302168712536611,0.06222647344301007,10.187218716672795,-22.25259147487715,-10.173282173637451,282.48027718134836,50.41097510158628,-187.6637172836505
2,2021-07-02 11:01:01.412,6781412,-0.32102832553429755,-10.303662363290352,0.0610439560681472,10.206502405422638,-22.27569233215096,-10.221313744823798,282.1271192766729,50.48747968133259,-187.69277079952164
2,2021-07-02 11:01:01.418,6781418,-0.31907293709641493,-10.305210326759548,0.05968491077451925,10.227109505146503,-22.29874396603164,-10.268248827392295,281.77898266542064,50.567156088905456,-187.72719887702456
2,2021-07-02 11:01:01.425,6781425,-0.3169615933866602,-10.306811357750707,0.058152416625328364,10.249008124099472,-22.321756906585268,-10.313955937140275,281.43611762065905,50.649589829412925,-187.76669561935998
2,2021-07-02 11:01:01.432,6781432,-0.3146975087803146,-10.308464097311507,0.05644962057503152,10.27216286428585,-22.344742115981614,-10.358304955061955,281.09875799009063,50.73436726652278,-187.81091017139207
2,2021-07-02 11:01:01.438,6781438,-0.312284175895389,-10.310167073953142,0.05457972670221675,10.296535008316583,-22.367710931868974,-10.401167460937767,280.7671194125797,50.821076914314744,-187.85944994864187
2,2021-07-02 11:01:01.445,6781445,-0.30972535060609174,-10.311918703829788,0.05254598853536305,10.322082723476274,-22.390675013054235,-10.442417061404214,280.4413973893912,50.90931070089504,-187.9118843327962
2,2021-07-02 11:01:01.452,6781452,-0.3070250346153655,-10.313717290638554,0.05035170336393485,10.348761283785691,-22.41364628679669,-10.481929711393596,280.12176534829644,50.99866519453165,-187.96774867749764
2,2021-07-02 11:01:01.460,6781460,-0.30418745613177123,-10.315561026268217,0.048000206565337836,10.376523310857369,-22.43663689670721,-10.519584027180496,279.80837289203225,51.088742778371156,-188.02654841546368
2,2021-07-02 11:01:01.468,6781468,-0.3012170492651592,-10.317447993048862,0.04549486517692126,10.405319033671784,-22.459659150891802,-10.555261589496519,279.50134436998417,51.179152764709045,-188.08776311120428
2,2021-07-02 11:01:01.475,6781475,-0.29811843278821193,-10.31937616807617,0.04283907221247165,10.435096565796542,-22.48272547099012,-10.588847235375804,279.20077781697097,51.26951244852394,-188.15085039918165
2,2021-07-02 11:01:01.483,6781483,-0.29489638910928,-10.321343429650405,0.040036244174463505,10.465802196584011,-22.505848343076604,-10.620229337239964,278.90674425041266,51.35944810484786,-188.21524980041704
2,2021-07-02 11:01:01.490,6781490,-0.2915558444453936,-10.323347565326182,0.03708982291267668,10.497380691603624,-22.52904027101482,-10.649300068217585,278.6192873069575,51.44859593552856,-188.28038642129374
2,2021-07-02 11:01:01.495,6781495,-0.2881018510156034,-10.325386280713253,0.034003281134486835,10.529775597736098,-22.552313732479014,-10.675955653860045,278.33842320004175,51.53660297093755,-188.3456745384194
2,2021-07-02 11:01:01.500,6781500,-0.28453957149278963,-10.32745720826288,0.030780129970239753,10.562929549282863,-22.575681137623526,-10.70009661154357,278.06414098025596,51.623127932151334,-188.4105210734915
2,2021-07-02 11:01:01.507,6781507,-0.2808742652049373,-10.329557915515466,0.027423926626557498,10.596784571608332,-22.599154789958373,-10.721627979653036,277.7964030807975,51.70784205908577,-188.4743289621551
2,2021-07-02 11:01:01.513,6781513,-0.27711127523902673,-10.331685912448094,0.023938280192995594,10.631282378685443,-22.62274684864678,-10.740459538912916,277.53514613069297,51.790429909993385,-188.53650042084962
2,2021-07-02 11:01:01.520,6781520,-0.2732560160351634,-10.333838657842799,0.02032685496395864,10.66636466172792,-22.646469291462054,-10.756506027846964,277.28028201887906,51.870590137642736,-188.59644011561556
2,2021-07-02 11:01:01.528,6781528,-0.2693139619207334,-10.33601356501168,0.01659337285479387,10.701973367060022,-22.670333877576546,-10.769687353689866,277.03169919263365,51.94803624738795,-188.6535582367673
2,2021-07-02 11:01:01.535,6781535,-0.26529063748328546,-10.338208007427996,0.012741617714654782,10.738050961666973,-22.69435210925229,-10.779928799631428,276.789264174245,52.02249734220605,-188.7072734832372
2,2021-07-02 11:01:01.543,6781543,-0.2611916102753628,-10.340419324630131,0.008775443621288327,10.774540684652564,-22.71853519181107,-10.787161229141923,276.5528232802027,52.093718859630854,-188.75701596025897
2,2021-07-02 11:01:01.549,6781549,-0.2570224855533688,-10.342644828394572,0.004698787793109954,10.811386781938694,-22.74289399162574,-10.791321288092963,276.32220452757844,52.16146330534536,-188.80222999388536
2,2021-07-02 11:01:01.555,6781555,-0.25278890229720136,-10.344881808963907,0.0005156878675463336,10.848534720938623,-22.767438992018473,-10.792351605246825,276.09721971071633,52.22551098608497,-188.84237686369815
2,2021-07-02 11:01:01.561,6781561,-0.24849652976191713,-10.347127541162873,-0.003769697234387906,10.88593138283011,-22.79218024711197,-10.790200991320205,275.8776666220894,52.285660734671985,-188.87693744519268
2,2021-07-02 11:01:01.569,6781569,-0.24415106393244013,-10.349379290360355,-0.008153064303441806,10.92352523135619,-22.81712733376121,-10.784824636283794,275.66333137419684,52.341730602448806,-188.90541473570016
2,2021-07-02 11:01:01.578,6781578,-0.23975822333107044,-10.351634318309461,-0.012629942534731747,10.96126645785051,-22.842289301760445,-10.776184304074167,275.45399077009023,52.39355848451784,-188.92733622776777
2,2021-07-02 11:01:01.584,6781584,-0.2353237437893571,-10.353889888962653,-0.017195671459030764,10.999107103250008,-22.867674622998045,-10.764248523422157,275.2494146800856,52.44100265258906,-188.94225610320504
2,2021-07-02 11:01:01.589,6781589,-0.23085337204077186,-10.356143274441976,-0.021845381124510774,11.037001159291892,-22.893291140955455,-10.748992772805707,275.0493683998764,52.48394218732513,-188.94975723797188
2,2021-07-02 11:01:01.596,6781596,-0.22635285813015496,-10.358391761367582,-0.026573975152699398,11.074904652017219,-22.91914602227563,-10.73039965701834,274.8536149752057,52.52227731144614,-188.94945301731127
2,2021-07-02 11:01:01.604,6781604,-0.22182794660117,-10.360632657614607,-0.0313761166477162,11.112775711262584,-22.94524571172939,-10.70845907295749,274.66191748047345,52.555929626513304,-188.94098896202823
2,2021-07-02 11:01:01.612,6781612,-0.21728436633807735,-10.36286329932017,-0.03624621591282931,11.150574630606796,-22.971595891069295,-10.68316836253018,274.4740412389356,52.584842256034236,-188.92404416635884
2,2021-07-02 11:01:01.617,6781617,-0.21272781893168183,-10.365081057870162,-0.041178418319689686,11.188263922484959,-22.998201441682735,-10.654532450605172,274.2897559724153,52.608979897249675,-188.89833254739523
2,2021-07-02 11:01:01.622,6781622,-0.20816396560783132,-10.367283346934935,-0.04616659093652588,11.225808371561213,-23.025066410757834,-10.622563965829412,274.10883786869715,52.62832878367352,-188.86360390552855
2,2021-07-02 11:01:01.627,6781627,-0.2035984130865507,-10.369467630242548,-0.051204307020251145,11.263175086603374,-23.052193980335716,-10.587283341920397,273.931071555012,52.642896560167245,-188.81964479485313
2,2021-07-02 11:01:01.632,6781632,-0.1990366989229062,-10.371631431122024,-0.05628482775596802,11.30033354951629,-23.079586438440828,-10.548718896840276,273.7562519662399,52.65271207203599,-188.7662792019347
2,2021-07-02 11:01:01.637,6781637,-0.1944842766596686,-10.373772344609192,-0.061401080951296434,11.337255660647964,-23.107245152105296,-10.506906887281412,273.5841860966677,52.657825069339594,-188.70336903079192
2,2021-07-02 11:01:01.642,6781642,-0.1899465007035641,-10.375888052332359,-0.06654563685843247,11.3739157794005,-23.135170542869815,-10.461891536005288,273.41469462433247,52.65830582731804,-188.63081439137258
2,2021-07-02 11:01:01.649,6781649,-0.1854286105476322,-10.377976339874678,-0.07171068167033726,11.41029075691408,-23.163362065383414,-10.41372502950095,273.2476133971645,52.65424468353867,-188.54855368822882
2,2021-07-02 11:01:01.657,6781657,-0.18093571393980123,-10.38003511604681,-0.07688798946857267,11.446359955887242,-23.191818189519893,-10.362467483324084,273.082794770313,52.64575149208377,-188.4565635055073
2,2021-07-02 11:01:01.663,6781663,-0.17647276896631284,-10.38206243338707,-0.08206889379121154,11.482105253844612,-23.220536386642397,-10.308186872794177,272.92010878419813,52.63295499481212,-188.35485828377958
2,2021-07-02 11:01:01.671,6781671,-0.1720445656815678,-10.384056508997858,-0.08724426069102334,11.517511028420632,-23.249513121019458,-10.250958927457486,272.75944417298217,52.61600210944943,-188.24348978363943
2,2021-07-02 11:01:01.677,6781677,-0.1676557083264801,-10.386015744669162,-0.09240446553031964,11.552564124465059,-23.278743847491143,-10.190866988196792,272.6007091932916,52.595057133989876,-188.1225463303966
2,2021-07-02 11:01:01.684,6781684,-0.16331059907357307,-10.387938745339024,-0.09753937519129409,11.587253803585524,-23.30822301608925,-10.128001825967367,272.44383226315705,52.57030086662657,-187.99215183359948
2,2021-07-02 11:01:01.689,6781689,-0.15901342403239704,-10.389824335062915,-0.10263833639134425,11.62157167757472,-23.33794408347838,-10.06246142145476,272.28876240125965,52.541929640173564,-187.85246457452462
2,2021-07-02 11:01:01.698,6781698,-0.1547681421547633,-10.391671569716905,-0.10769017022415515,11.65551162761421,-23.367899530563022,-9.994350705516364,272.13546945958615,52.51015427065959,-187.7036757609257
2,2021-07-02 11:01:01.706,6781706,-0.1505784775027598,-10.393479745850227,-0.11268317292669659,11.689069711227225,-23.398080885921484,-9.923781261583047,271.9839441571573,52.47519892435615,-187.54600788146877
2,2021-07-02 11:01:01.713,6781713,-0.14644791513867136,-10.39524840534869,-0.11760512282883763,11.722244058929986,-23.42847875523973,-9.850870993876173,271.8341979486156,52.43729991595003,-187.3797129523953
2,2021-07-02 11:01:01.721,6781721,-0.14237970076125708,-10.396977335760896,-0.12244329341188118,11.755034762507908,-23.45908285703546,-9.775743767151429,271.68626277601953,52.39670445517721,-187.20507078211187
2,2021-07-02 11:01:01.727,6781727,-0.138376843968109,-10.398666566522758,-0.12718447248108528,11.787443756867006,-23.489882064542144,-9.698529023221495,271.54019073785065,52.35366935422353,-187.02238734514268
2,2021-07-02 11:01:01.734,6781734,-0.1344421245679214,-10.400316361970328,-0.1318149876222435,11.819474697434627,-23.520864452577584,-9.619361379286602,271.3960536833428,52.308459699346834,-186.83199329566378
2,2021-07-02 11:01:01.740,6781740,-0.13057810072699214,-10.401927212556808,-0.13632073840482023,11.851132834981032,-23.55201734736536,-9.538380213834454,271.25394272590495,52.26134748519287,-186.63424261660992
2,2021-07-02 11:01:01.748,6781748,-0.12678711704900364,-10.403499825756075,-0.14068723624141938,11.882424889504641,-23.58332737765284,-9.45572924495269,271.1139676666356,52.21261020916408,-186.42951139310605
2,2021-07-02 11:01:01.754,6781754,-0.12307131052589113,-10.405035117811062,-0.14489965304919047,11.913358924587142,-23.614780526657672,-9.371556102956895,270.9762563190472,52.16252942306673,-186.2181966985022
2,2021-07-02 11:01:01.761,6781761,-0.11943261317505838,-10.406534206977629,-0.14894287950766927,11.94394422324634,-23.646362185214553,-9.28601189624244,270.84095372624427,52.11138923914457,-186.0007155808378
2,2021-07-02 11:01:01.768,6781768,-0.11587275157047175,-10.40799840844359,-0.1528015930442061,11.9741911656523,-23.678057206606358,-9.199250767451666,270.7082212619311,52.05947478750756,-185.777504137132
2,2021-07-02 11:01:01.774,6781774,-0.1123932442426048,-10.409429230806296,-0.1564603352657039,12.004111108560565,-23.709849963469857,-9.111429436235344,270.5782356067667,52.007070621881,-185.54901666249145
2,2021-07-02 11:01:01.782,6781782,-0.1089953977155679,-10.410828373677527,-0.15990359845337473,12.033716266121019,-23.741724407276873,-9.0227067242422,270.45118759173204,51.95445907053558,-185.315724860648
2,2021-07-02 11:01:01.788,6781788,-0.10568030141695903,-10.412197725486187,-0.1631159206434271,12.063019591344718,-23.773664130969713,-8.933243057255517,270.32728090033544,51.901918529210946,-185.07811710218616
2,2021-07-02 11:01:01.796,6781796,-0.10244882147115154,-10.41353936024861,-0.16608198867606422,12.09203465731705,-23.805652435304193,-8.843199939291113,270.20673062165076,51.84972169281498,-184.83669771639575
2,2021-07-02 11:01:01.807,6781807,-0.0993015936490956,-10.414855532290273,-0.16878674838043187,12.120775538110973,-23.83767239949013,-8.752739394971572,270.0897616463655,51.798133722668155,-184.59198630238987
2,2021-07-02 11:01:01.821,6781821,-0.09623901634099713,-10.416148668259241,-0.17121552064142567,12.149256690749365,-23.869706956581005,-8.662023379629264,269.97660690109956,51.747410352809496,-184.34451704197272
2,2021-07-02 11:01:01.836,6781836,-0.09326124480938726,-10.417421355930683,-0.1733541218455882,12.177492840313997,-23.901738973530417,-8.571213159912034,269.8675054309122,51.69779597261645,-184.0948379820587
2,2021-07-02 11:01:01.850,6781850,-0.09036818781065685,-10.418676329470298,-0.17518898753978868,12.205498870305435,-23.93375133490277,-8.48046867045968,269.7627003661448,51.64952178371554,-183.84351022823293
2,2021-07-02 11:01:01.862,6781862,-0.08755950716826233,-10.419916451222669,-0.17670729864134851,12.233289720152616,-23.965727028136474,-8.389947854612702,269.6624368244321,51.602804162928365,-183.59110697642424
2,2021-07-02 11:01:01.873,6781873,-0.08483462008185004,-10.421144690663642,-0.17789710979513387,12.260880291360785,-23.997649227783818,-8.299805997938325,269.56695978451427,51.55784332935018,-183.3382123239761
2,2021-07-02 11:01:01.886,6781886,-0.08219270286348497,-10.422364101710537,-0.17874747954143916,12.28828536302191,-24.02950137667188,-8.210195062075286,269.4765119427398,51.51482235305319,-183.0854198273081
2,2021-07-02 11:01:01.896,6781896,-0.07963269438378412,-10.423577799835776,-0.17924860148114696,12.315519516726987,-24.061267262803327,-8.121263024595693,269.39133154897854,51.473906509286664,-182.8333307877442
2,2021-07-02 11:01:01.908,6781908,-0.07715329855444435,-10.424788940185332,-0.17939193431327233,12.342597070488665,-24.092931091405042,-8.03315322956287,269.3116502160701,51.435242975410276,-182.5825522499442
2,2021-07-02 11:01:01.922,6781922,-0.07475298660329721,-10.426000697255086,-0.17917032759640547,12.369532020631384,-24.124477551788974,-7.946003753006897,269.2376906972426,51.39896086791631,-182.33369469738156
2,2021-07-02 11:01:01.934,6781934,-0.07243000037178171,-10.427216245837116,-0.17857814067762978,12.396337989884692,-24.155891878747447,-7.85994678712305,269.1696646281871,51.3651716112451,-182.08736943706012
2,2021-07-02 11:01:01.947,6781947,-0.07018235769506351,-10.42843874215308,-0.17761135376723222,12.423028179747835,-24.187159908040925,-7.775108047364748,269.10777024044575,51.33396960133784,-181.84418570427582
2,2021-07-02 11:01:01.962,6781962,-0.0680078608793466,-10.429671303765703,-0.17626767089803808,12.449615325721966,-24.218268125268335,-7.691606208241351,269.0521900704619,51.30543307499884,-181.60474758770354
2,2021-07-02 11:01:01.974,6781974,-0.06590410898779565,-10.43091698731438,-0.174546614206135,12.476111655309673,-24.249203707409862,-7.609552374898853,269.0030886986393,51.27962506739398,-181.36965091377755
2,2021-07-02 11:01:01.987,6781987,-0.06386851363096883,-10.432178764012592,-0.17244960849345217,12.502528850467305,-24.279954556623288,-7.529049597399319,268.9606105435017,51.256594369069255,-181.139480190996
2,2021-07-02 11:01:01.999,6781999,-0.06189831699255611,-10.43345949354377,-0.1699800547027412,12.528878017184594,-24.31050932616529,-7.45019243394657,268.9248777190929,51.23637644605466,-180.9148056456532
2,2021-07-02 11:01:02.012,6782012,-0.059990610692306864,-10.434761897452324,-0.16714339067881712,12.555169664307407,-24.340857438393257,-7.373066568786324,268.89598795452423,51.218994315684796,-180.6961803422391
2,2021-07-02 11:01:02.025,6782025,-0.05814235445984813,-10.436088533559513,-0.16394713775455616,12.581413692521918,-24.37098909462603,-7.297748489656345,268.8740125730555,51.20445937671815,-180.4841373743423
2,2021-07-02 11:01:02.039,6782039,-0.05635039390500369,-10.43744177296706,-0.16040093220839335,12.607619393450538,-24.400895276542915,-7.224305227867428,268.85899452851106,51.192772192509494,-180.2791871122308
2,2021-07-02 11:01:02.051,6782051,-0.05461147682571503,-10.438823780555849,-0.15651654071825624,12.633795457589873,-24.430567739143235,-7.152794162022268,268.85094649725374,51.1839232261645,-180.08181449365642
2,2021-07-02 11:01:02.059,6782059,-0.05292226757644504,-10.440236499148861,-0.1523078585805608,12.659949988262042,-24.459998995828087,-7.083262885036836,268.8498490320695,51.17789352870692,-179.89247634868798
2,2021-07-02 11:01:02.071,6782071,-0.05127935922100857,-10.441681637219787,-0.14779088943683996,12.686090518266381,-24.48918229645245,-7.01574913286965,268.8556488232756,51.17465539109698,-179.71159876907788
2,2021-07-02 11:01:02.086,6782086,-0.0496792836381879,-10.443160659933948,-0.1429837056647932,12.712224027109428,-24.518111599157685,-6.95028077153977,268.86825718215,51.174172988453186,-179.5395745678138
2,2021-07-02 11:01:02.097,6782097,-0.04811852019729498,-10.444674783117186,-0.13790638907430047,12.738356958056334,-24.546781536692603,-6.886875837753714,268.8875489007381,51.17640305463612,-179.37676089426458
2,2021-07-02 11:01:02.109,6782109,-0.04659350378452889,-10.446224969520626,-0.13258095213440965,12.764495234427528,-24.575187377829362,-6.825542628703849,268.91336160398527,51.18129561589159,-179.2234770515852
2,2021-07-02 11:01:02.123,6782123,-0.04510063283035214,-10.447811926645617,-0.12703124066293267,12.790644274026997,-24.60332498417232,-6.766279837650646,268.9454956412034,51.18879479508103,-179.08000252891017
2,2021-07-02 11:01:02.137,6782137,-0.043636277701027654,-10.449436105597472,-0.1212828192142228,12.816809000390899,-24.631190762397416,-6.709076732817849,268.98371452576146,51.19883968856064,-178.9465752421665
2,2021-07-02 11:01:02.148,6782148,-0.042196789511776474,-10.451097700898249,-0.1153628398818455,12.842993849600886,-24.658781612203775,-6.653913377809836,269.0277459245804,51.211365316008575,-178.8233899740686
2,2021-07-02 11:01:02.159,6782159,-0.04077850917744651,-10.452796651521759,-0.10929989437664013,12.869202771122772,-24.686094870843267,-6.600760892274667,269.07728319940395,51.22630364365954,-178.710597004461
2,2021-07-02 11:01:02.172,6782172,-0.03937777637588581,-10.454532643416409,-0.10312384919186404,12.895439220958373,-24.713128255708767,-6.549581751844571,269.1319875021877,51.24358468156317,-178.6083009227921
2,2021-07-02 11:01:02.185,6782185,-0.037990938096151325,-10.456305113650386,-0.09686566486993546,12.921706145999808,-24.739879807013885,-6.5003301266531475,269.191490416712,51.26313765081876,-178.51655961802103
2,2021-07-02 11:01:02.196,6782196,-0.036614356582849936,-10.458113256233432,-0.0905572018508548,12.948005959519815,-24.76634783265058,-6.452952257765217,269.2553970858789,51.28489219280547,-178.4353834563481
2,2021-07-02 11:01:02.206,6782206,-0.03524441672794565,-10.459956029662468,-0.0842310160347832,12.974340508681045,-24.792530856528018,-6.407386870131375,269.3232896691066,51.30877954922333,-178.36473468381294
2,2021-07-02 11:01:02.219,6782219,-0.033877533196583716,-10.461832166281924,-0.07792014700309031,13.000711035596947,-24.818427570627783,-6.363565619447013,269.39473092154736,51.33473361781844,-178.30452710590237
2,2021-07-02 11:01:02.231,6782231,-0.03251015766602156,-10.463740183459947,-0.07165790133546633,13.027118133597316,-24.84403679028247,-6.321413569462886,269.4692677401075,51.36269181288367,-178.2546260825093
2,2021-07-02 11:01:02.242,6782242,-0.03113878652040491,-10.465678396207082,-0.06547763315743385,13.053561699927162,-24.869357411740275,-6.280849696200326,269.54643461685714,51.39259570310577,-178.21484885122274
2,2021-07-02 11:01:02.257,6782257,-0.029759969358103575,-10.467644930484758,-0.059412524053551845,13.080040885588376,-24.89438837095813,-6.241787415678843,269.6257569936174,51.424391423539696,-178.1849651781206
2,2021-07-02 11:01:02.269,6782269,-0.028370318792365797,-10.46963773641154,-0.05349536441134558,13.106554042877976,-24.919128602887675,-6.204135131771673,269.7067545222987,51.45802986343093,-178.16469833298052
2,2021-07-02 11:01:02.277,6782277,-0.026966522021210835,-10.471654600815823,-0.047758337931802904,13.133098671510615,-24.943577000927256,-6.167796800989381,269.78894423572547,51.49346663172716,-178.1537263864456
2,2021-07-02 11:01:02.289,6782289,-0.02554535422844775,-10.473693158929926,-0.04223281072885479,13.159671364926147,-24.96773237670859,-6.1326725117553895,269.8718436338158,51.53066180223705,-178.1516838272901
2,2021-07-02 11:01:02.301,6782301,-0.02410369319234616,-10.475750905408104,-0.036949126421879704,13.186267759009125,-24.991593421237813,-6.098659076692901,269.95497369008666,51.56957944050793,-178.15816349852028
2,2021-07-02 11:01:02.309,6782309,-0.022638534041064605,-10.477825205215309,-0.03193640862718138,13.212882485148793,-25.01515866896127,-6.065650636657801,270.0378617835299,51.61018691460531,-178.17271885161816
2,2021-07-02 11:01:02.317,6782317,-0.02114700313882889,-10.479913305205976,-0.02722237187819854,13.239509128227043,-25.038426465921322,-6.0335392742525515,270.12004455902076,51.65245399786532,-178.19486651492906
2,2021-07-02 11:01:02.326,6782326,-0.01962637026940604,-10.482012347300543,-0.022833141602403212,13.266140189088446,-25.0613949424621,-6.0022156326181335,270.2010707098036,51.69635180069636,-178.22408915345406
2,2021-07-02 11:01:02.333,6782333,-0.01807405829116763,-10.484119384021433,-0.018793083817799292,13.29276705140298,-25.084061990792602,-5.971569533261792,270.2805036582431,51.74185162062785,-178.2598385631237
2,2021-07-02 11:01:02.343,6782343,-0.016487649509941492,-10.486231396834043,-0.01512464536305341,13.319379953859674,-25.10642524793303,-5.941490585880533,270.35792410135684,51.788923828805416,-178.30153892383265
2,2021-07-02 11:01:02.351,6782351,-0.014864888565498058,-10.488345317233716,-0.011848205403660947,13.345967969261467,-25.128482084433568,-5.911868783899715,270.43293239720487,51.83753688233344,-178.3485901552132
2,2021-07-02 11:01:02.359,6782359,-0.013203682530843244,-10.490458049840159,-0.008981938858943906,13.372518992193987,-25.150229598564586,-5.882595080222464,270.50515078545476,51.887656499947106,-178.4003713542068
2,2021-07-02 11:01:02.366,6782366,-0.011502099518782383,-10.492566496278757,-0.006541692234347231,13.39901973654511,-25.17166461518456,-5.853561937641642,270.57422544494983,51.939245009694275,-178.45624431312314
2,2021-07-02 11:01:02.374,6782374,-0.009758367000675628,-10.494667578660504,-0.00454087195548905,13.425455743226385,-25.192783688797192,-5.824663848473294,270.63982839288775,51.992260871622534,-178.51555712105912
2,2021-07-02 11:01:02.383,6782383,-0.007970870552842207,-10.49675826182592,-0.0029903452752352575,13.451811397426045,-25.21358311077953,-5.795797819074191,270.7016592300455,52.0466583785596,-178.57764785184028
2,2021-07-02 11:01:02.391,6782391,-0.006138153265679235,-10.49883557387181,-0.001898354606693831,13.478069954191024,-25.23405892069654,-5.766863816714086,270.7594467362936,52.102387538165644,-178.6418483418996
2,2021-07-02 11:01:02.399,6782399,-0.004258915772252473,-10.500896624731917,-0.001270446853370445,13.504213571399887,-25.254206921518843,-5.737765177703583,270.81295032043096,52.15939413952386,-178.7074880617192
2,2021-07-02 11:01:02.410,6782410,-0.0023320168504256016,-10.502938622719736,-0.0011094191522215114,13.530223350170928,-25.274022699133248,-5.7084089760755035,270.86196132813853,52.21762000762062,-178.77389808463286
2,2021-07-02 11:01:02.423,6782423,-0.0003564747290301289,-10.504958888959266,-0.001415281905735684,13.556079383810047,-25.293501647416015,-5.678706352137388,270.90630421160455,52.277003449148395,-178.8404151569155
2,2021-07-02 11:01:02.435,6782435,0.0016685306869721583,-10.506954869610128,-0.0021852396230542886,13.5817608168698,-25.31263900032414,-5.64857280083464,270.945837559293,52.33747988832687,-178.90638586257995
2,2021-07-02 11:01:02.444,6782444,0.003743654611957719,-10.508924145902585,-0.0034136898623928153,13.607245915803722,-25.33142987144406,-5.617928421190997,270.98045495997064,52.39898266743022,-178.97117082336683
2,2021-07-02 11:01:02.456,6782456,0.005869383354334103,-10.510864442276825,-0.005092240485793094,13.632512152500952,-25.349869299891985,-5.58669812930407,271.01008563147246,52.46144394343219,-179.0341487790563
2,2021-07-02 11:01:02.469,6782469,0.0080460296550687,-10.512773633126208,-0.0072097454657178844,13.657536301817396,-25.367952300688476,-5.5548118379002895,271.0346947203096,52.52479558816509,-179.0947203402149
2,2021-07-02 11:01:02.478,6782478,0.010273727421507275,-10.514649748568955,-0.009752359360042488,13.682294553828346,-25.385673918103702,-5.5222046056829655,271.0542832020035,52.5889700235347,-179.1523112584007
2,2021-07-02 11:01:02.486,6782486,0.012552425826713917,-10.516490979514783,-0.012703610421053346,13.706762640605602,-25.403029281127136,-5.488816759592308,271.0688873550733,52.65390096674009,-179.2063751541042
2,2021-07-02 11:01:02.494,6782494,0.014881882913125184,-10.518295682309537,-0.016044492427151932,13.73091597609864,-25.420013660525495,-5.454593991997582,271.07857780537637,52.71952408458437,-179.25639569553687
2,2021-07-02 11:01:02.503,6782503,0.017261659012475585,-10.520062383293851,-0.019753575507722457,13.754729807090495,-25.436622527143616,-5.419487433233375,271.0834581420122,52.78577756082975,-179.30188823179213
2,2021-07-02 11:01:02.516,6782516,0.019691110255729363,-10.521789783412276,-0.023807135931615195,13.77817937326808,-25.452851611285794,-5.383453699101561,271.08366310569266,52.85260258059692,-179.34240088368855
2,2021-07-02 11:01:02.528,6782528,0.022169382426897213,-10.523476762570606,-0.02817930381425824,13.801240073913778,-25.46869696275522,-5.346454913620251,271.0793563501812,52.91994373585162,-179.3775150953564
2,2021-07-02 11:01:02.541,6782541,0.02469540568883131,-10.525122383096868,-0.03284222658092649,13.823887637622045,-25.4841550104742,-5.30845870857378,271.0707277771076,52.98774935606016,-179.40684564935114
2,2021-07-02 11:01:02.554,6782554,0.02726789092812316,-10.526725891668148,-0.03776624603109896,13.846098291382829,-25.49922262036313,-5.2694382016610835,271.0579904441789,53.05597176813136,-179.43004014777247
2,2021-07-02 11:01:02.565,6782565,0.029885328170535057,-10.52828671929734,-0.042920088164137525,13.867848926487124,-25.513897150559274,-5.229371953898378,271.04137706097873,53.1245674907572,-179.44677797405825
2,2021-07-02 11:01:02.578,6782578,0.03254598702503894,-10.529804479205566,-0.04827106591503067,13.88911725979824,-25.52817650334832,-5.18824390582817,271.0211361585291,53.193497373110105,-179.45676881238228
2,2021-07-02 11:01:02.586,6782586,0.035247918979531896,-10.53127896263777,-0.05378529419575901,13.909881989750712,-25.542059172841793,-5.146043292244894,270.99752814858044,53.262726696549976,-179.45975091391222
2,2021-07-02 11:01:02.596,6782596,0.03798896149813153,-10.53271013292898,-0.05942791484796393,13.930122947208194,-25.555544287022155,-5.102764536204904,270.9708215606035,53.3322252628341,-179.45548936140122
2,2021-07-02 11:01:02.604,6782604,0.04076674378070326,-10.534098118218061,-0.06516332791136314,13.949821241321509,-25.56863164322693,-5.058407123734255,270.9412896719871,53.40196748752708,-179.44377452055843
2,2021-07-02 11:01:02.613,6782613,0.043578693634230434,-10.535443203037627,-0.07095542553538273,13.9689593993201,-25.581321737382684,-5.012975460234233,270.9092076166955,53.4719325086573,-179.42442075350814
2,2021-07-02 11:01:02.621,6782621,0.04642204465529909,-10.53674581878108,-0.07676782562940794,13.987521498126807,-25.59361578812831,-4.966478708775902,270.87484998520017,53.54210431586647,-179.39726540658774
2,2021-07-02 11:01:02.629,6782629,0.04929384325149006,-10.53800653293024,-0.08256410370802635,14.005493286063247,-25.605515756421138,-4.918930610598202,270.83848891387794,53.61247190435111,-179.36216807175379
2,2021-07-02 11:01:02.638,6782638,0.052190955638146554,-10.53922603689678,-0.08830802266397594,14.022862293818617,-25.617024359773254,-4.870349289748519,270.8003926619107,53.6830294579085,-179.3190101203953
2,2021-07-02 11:01:02.649,6782649,0.05511007524760596,-10.540405132465965,-0.09396376045458552,14.039617934293203,-25.628145079530054,-4.82075704559546,270.7608246735812,53.753776565412764,-179.26769450787367
2,2021-07-02 11:01:02.661,6782661,0.05804773087484818,-10.541544717200646,-0.09949613488067108,14.055751591231278,-25.63888216039232,-4.7701801372896835,270.72004312373554,53.824718475058965,-179.2081458466202
2,2021-07-02 11:01:02.670,6782670,0.061000295719634876,-10.542645769468765,-0.10487082368586761,14.071256696971163,-25.649240602654643,-4.718648563387343,270.67830094407486,53.89586639072516,-179.14031074512573
2,2021-07-02 11:01:02.681,6782681,0.06396399750034926,-10.543709333718375,-0.1100545777685778,14.086128799800063,-25.659226148161828,-4.666195838753804,270.63584631725445,53.967237811924406,-179.06415840098572
2,2021-07-02 11:01:02.690,6782690,0.06693492981128622,-10.544736506438023,-0.11501542519042345,14.100365620896918,-25.66884526075615,-4.612858769738383,270.5929235727092,54.03885690438157,-178.97968139230966
2,2021-07-02 11:01:02.699,6782699,0.06990906472602942,-10.545728423155191,-0.11972286358673472,14.113967099765247,-25.67810510149877,-4.55867722741472,270.5497743227012,54.110754862274106,-178.8868965332672
2,2021-07-02 11:01:02.707,6782707,0.07288226664563724,-10.54668624670387,-0.12414803874230879,14.126935426355503,-25.68701349855463,-4.50369391774008,270.5066386240601,54.18297020874062,-178.7858456156838
2,2021-07-02 11:01:02.721,6782721,0.07585030775382706,-10.547611156677561,-0.12826390773215973,14.139275058456047,-25.6955789115442,-4.447954147163928,270.4637560040381,54.25554899572597,-178.6765959014344
2,2021-07-02 11:01:02.729,6782729,0.07880888563913731,-10.548504339669599,-0.13204538595463203,14.150992723722165,-25.703810390459356,-4.391505582590745,270.4213662840536,54.32854489025815,-178.55924030789947
2,2021-07-02 11:01:02.741,6782741,0.08175364322581372,-10.549366979831504,-0.13546947815903415,14.162097406115974,-25.71171752980371,-4.3343980055321865,270.3797101880792,54.40201914872123,-178.43389727158677
2,2021-07-02 11:01:02.755,6782755,0.08468019055745775,-10.550200249457387,-0.13851539368832896,14.172600316894261,-25.71931041914131,-4.276683061532645,270.33902973304083,54.47604048360136,-178.3007102831885
2,2021-07-02 11:01:02.769,6782769,0.08758412774252926,-10.5510052996127,-0.1411646455920419,14.18251485110403,-25.726599591509633,-4.218414007156651,270.29956839862695,54.55068482720889,-178.15984708684326
2,2021-07-02 11:01:02.779,6782779,0.09046106842968098,-10.551783251090328,-0.1434011329495851,14.191856531305636,-25.733595971156333,-4.159645457244196,270.2615710739493,54.626034996909546,-178.01149853588294
2,2021-07-02 11:01:02.791,6782791,0.09330666329466118,-10.552535185998067,-0.14521120649935332,14.200642940127455,-25.740310821645004,-4.100433134431236,270.22528377856025,54.70218026643168,-177.85587709686064
2,2021-07-02 11:01:02.804,6782804,0.09611662311562895,-10.5532621401053,-0.14658371877094517,14.208893642445677,-25.74675569455857,-4.040833622163987,270.19095315925665,54.77921584785517,-177.69321500281725
2,2021-07-02 11:01:02.813,6782813,0.09888674109018313,-10.553965096015236,-0.14751005961781152,14.216630097418406,-25.7529423784029,-3.9809041226654793,270.1588257834594,54.85724228893145,-177.5237621044482
2,2021-07-02 11:01:02.819,6782819,0.10161291411440608,-10.5546449773975,-0.14798417613964468,14.223875560671813,-25.75888284732724,-3.9207022220991727,270.1291472847396,54.93636479043364,-177.3477835540798
2,2021-07-02 11:01:02.826,6782826,0.10429116273743505,-10.55530264456477,-0.14800257508244571,14.230654977084766,-25.76458920966449,-3.86028566548231,270.10216143544915,55.01669244829048,-177.1655575050972
2,2021-07-02 11:01:02.834,6782834,0.10691764939233502,-10.55593889135882,-0.14756430765405487,14.236994864381433,-25.770073656625797,-3.7997121432652596,270.07810920228485,55.09833742531943,-176.97737296088195
2,2021-07-02 11:01:02.841,6782841,0.10948869450134388,-10.556554442960596,-0.14667093890869576,14.242923187497839,-25.775348411540044,-3.739039090196671,270.0572278060852,55.181414057441906,-176.78352782022046
2,2021-07-02 11:01:02.850,6782850,0.11200079041823564,-10.557149954191805,-0.14532650371164,14.24846922401518,-25.780425679579764,-3.6783234960541686,270.03974978806156,55.26603789933796,-176.5843271175955
2,2021-07-02 11:01:02.857,6782857,0.11445061373258325,-10.557726007998095,-0.1435374498019013,14.253663421739267,-25.785317597159015,-3.6176217279528005,270.0259020809906,55.35232471457929,-176.38008144677246
2,2021-07-02 11:01:02.865,6782865,0.1168350366640808,-10.55828311398644,-0.14131256812242116,14.258537250151532,-25.790036180215115,-3.556989365122144,270.01590508409305,55.4403894153675,-176.17110555574396
2,2021-07-02 11:01:02.872,6782872,0.11915113790843157,-10.558821707191264,-0.13866291177742515,14.263123047615226,-25.794593271924832,-3.4964810480987927,270.0099717405305,55.53034495710015,-175.95771710076653
2,2021-07-02 11:01:02.877,6782877,0.12139621286511644,-10.559342147486179,-0.13560170574142938,14.26745386597765,-25.799000491665893,-3.4361503440052874,270.0083066166767,55.62230119308941,-175.74023554691152
2,2021-07-02 11:01:02.885,6782885,0.1235677831963112,-10.559844720033999,-0.13214424792955737,14.2715633138735,-25.803269186826466,-3.376049627892514,270.01110498255764,55.71636369486791,-175.51898120226195
2,2021-07-02 11:01:02.894,6782894,0.12566360599747542,-10.560329637014991,-0.12830779924121347,14.275485399890378,-25.807410388004765,-3.316229978337134,270.01855189310345,55.81263254363256,-175.29427437261438
2,2021-07-02 11:01:02.901,6782901,0.12768168301660182,-10.560797040798692,-0.12411145865751316,14.279254376631245,-25.811434767483977,-3.256741084706593,270.0308212701187,55.91120109850033,-175.06643462329248
2,2021-07-02 11:01:02.907,6782907,0.12962027005590127,-10.56124700876944,-0.11957602114720349,14.28290458609458,-25.815352600795894,-3.19763116369217,270.04807498515225,56.01215474737964,-174.8357801344474
2,2021-07-02 11:01:02.914,6782914,0.1314778861060331,-10.561679560138737,-0.11472381940913619,14.28647030578625,-25.819173731249997,-3.1389468834386753,270.07046194373345,56.115569646396764,-174.6026271360056
2,2021-07-02 11:01:02.921,6782921,0.13325332144573057,-10.562094665103999,-0.10957855226122658,14.28998559439101,-25.822907537368387,-3.0807332941805825,270.0981171717389,56.22151145395784,-174.36728940823278
2,2021-07-02 11:01:02.927,6782927,0.1349456441921186,-10.562492256409033,-0.10416510170494435,14.293484136021712,-25.826562903421305,-3.023033764515126,270.1311609049606,56.33003406567395,-174.13007783370855
2,2021-07-02 11:01:02.934,6782934,0.13655420527833187,-10.56287224282297,-0.0985093389441959,14.296999082485641,-25.83014819367827,-2.9658899228956175,270.1696976832609,56.44117835652784,-173.89129998635246
2,2021-07-02 11:01:02.943,6782943,0.13807864209191967,-10.563234523736286,-0.09263791895096563,14.300562893280706,-25.833671231205805,-2.9093416043126243,270.2138154529524,56.554970940669214,-173.65125974493344
2,2021-07-02 11:01:02.950,6782950,0.13951888093348366,-10.563579004168071,-0.08657806459128417,14.304207173420211,-25.837139281816693,-2.8534268018068127,270.26358469100387,56.67142297864999,-173.41025692801193
2,2021-07-02 11:01:02.958,6782958,0.14087513822467487,-10.56390560965199,-0.08035734446944112,14.307962509896859,-25.840559043305195,-2.7981816222623634,270.3190575823502,56.790529096750134,-173.16858696450726
2,2021-07-02 11:01:02.964,6782964,0.14214792018271502,-10.56421430042154,-0.07400345161119706,14.311858308626398,-25.843936639664456,-2.7436402467168994,270.3802672915623,56.91226650247311,-172.92654062363644
2,2021-07-02 11:01:02.972,6782972,0.14333802056773884,-10.564505084157801,-0.06754399112991864,14.315922634822186,-25.847277619670837,-2.689834896481801,270.44722736084503,57.036594361187376,-172.6844038182795
2,2021-07-02 11:01:02.978,6782978,0.14444651613625673,-10.564778026566403,-0.0610062837459478,14.320182060114123,-25.850586959161646,-2.636795806328989,270.5199312493449,57.16345346437472,-172.44245747844428
2,2021-07-02 11:01:02.985,6782985,0.1454747595897389,-10.565033259302005,-0.05441718918255403,14.324661518825652,-25.853869066606382,-2.5845512044637573,270.59835201946805,57.29276620084186,-172.200977481849
2,2021-07-02 11:01:02.992,6782992,0.14642436998145433,-10.565270985065286,-0.047802950689807375,14.329384174513695,-25.857127791940904,-2.533127297152778,270.68244217433653,57.42443683855754,-171.9602346267073
2,2021-07-02 11:01:03.000,6783000,0.14729722067294257,-10.565491479921405,-0.04118906041360338,14.334371297209083,-25.860366438789672,-2.4825482551494362,270.7721336508634,57.55835212493238,-171.72049463181241
2,2021-07-02 11:01:03.006,6783006,0.14809542515173016,-10.565695093241592,-0.034600144270791326,14.339642151824252,-25.863587780041613,-2.4328361999764363,270.8673379732798,57.69438221350929,-171.48201814904616
2,2021-07-02 11:01:03.013,6783013,0.148821321389286,-10.565882246247261,-0.02805986358871251,14.3452138984943,-25.866794076388256,-2.3840111900955727,270.96794657229464,57.83238192517674,-171.2450607734821
2,2021-07-02 11:01:03.022,6783022,0.14947745561568088,-10.566053430419819,-0.021590829837976076,14.351101505594183,-25.869987097218228,-2.33609120822349,271.0738312754122,57.97219235215492,-171.0098730363159
2,2021-07-02 11:01:03.028,6783028,0.15006656615306088,-10.56620920653296,-0.01521452881168808,14.357317675046895,-25.873168143379644,-2.2890921505921877,271.1848449742725,58.11364281313437,-170.7767003659316
2,2021-07-02 11:01:03.036,6783036,0.1505915675320201,-10.566350204121449,-0.008951250978168273,14.363872777517992,-25.876338071526217,-2.2430278182888013,271.30082247521057,58.256553168067526,-170.54578300250765
2,2021-07-02 11:01:03.042,6783042,0.15105553488090198,-10.566477120533344,-0.0028200264097280195,14.370774794084282,-25.879497319841253,-2.1979099113783302,271.42158153955626,58.400736501224635,-170.317355851674
2,2021-07-02 11:01:03.050,6783050,0.15146168855555367,-10.566590718541633,0.003161433426159216,14.37802926215375,-25.88264593498018,-2.153748027651813,271.5469241205105,58.546002181226314,-170.09164826285638
2,2021-07-02 11:01:03.058,6783058,0.1518133789868985,-10.566691821674105,0.008976781789732866,14.385639225590976,-25.885783600111054,-2.11054966805007,271.6766377979599,58.692159293368604,-169.86888372193582
2,2021-07-02 11:01:03.065,6783065,0.15211407160505339,-10.566781306832933,0.014611066756238834,14.393605191195771,-25.888909663734477,-2.068320249884006,271.81049738398764,58.839020372204374,-169.64927946726974
2,2021-07-02 11:01:03.072,6783072,0.15236733145160988,-10.566860094224747,0.020050744825229387,14.40192509603461,-25.89202316848169,-2.0270631281387206,271.94826662010126,58.986405241037275,-169.43304607296787
2,2021-07-02 11:01:03.079,6783079,0.15257680697805817,-10.566929134924491,0.025283679769549285,14.410594291410021,-25.895122878836244,-1.9867796248762375,272.0896998585705,59.134144697609244,-169.2203870627623
2,2021-07-02 11:01:03.087,6783087,0.15274621280091125,-10.56698939672635,0.030299129034969095,14.419605548342899,-25.898207307166192,-1.947469066526918,272.23454364941927,59.28208385273676,-169.01149859874016
2,2021-07-02 11:01:03.093,6783093,0.1528793116774566,-10.56704184947189,0.035087720483985424,14.42894908782927,-25.901274738235077,-1.909128828777317,272.3825382068768,59.43008505005796,-168.80656925473627
2,2021-07-02 11:01:03.099,6783099,0.15297989623908387,-10.567087451343573,0.03964142253934406,14.438612638246127,-25.9043232527934,-1.871754388743161,272.533418758215,59.57803036250567,-168.60577986513783
2,2021-07-02 11:01:03.105,6783105,0.15305177090638195,-10.567127137229955,0.04395351002775957,14.448581521646242,-25.907350750796137,-1.835339383544115,272.6869167838908,59.72582367462065,-168.4093034362311
2,2021-07-02 11:01:03.110,6783110,0.15309873415981667,-10.567161809606844,0.04801852681535971,14.45883876999139,-25.910354974577523,-1.7998756735325554,272.84276115810377,59.87339235982386,-168.21730510746502
2,2021-07-02 11:01:03.116,6783116,0.15312456121372353,-10.567192331969462,0.05183224566179735,14.469365271381934,-25.913333532163055,-1.765353408148363,273.0006791990597,60.0206885617643,-168.02994215026072
2,2021-07-02 11:01:03.122,6783122,0.1531329871809368,-10.567219524569994,0.05539162564103474,14.480139943199825,-25.916283920715664,-1.7317610931970224,273.16039763839024,60.16769008885059,-167.84736399226196
2,2021-07-02 11:01:03.128,6783128,0.1531276909379129,-10.567244161842547,0.05869476758525281,14.49113992355476,-25.91920354982718,-1.699085659970877,273.3216435193243,60.31440093106168,-167.66971225519654
2,2021-07-02 11:01:03.136,6783136,0.15311227996323462,-10.567266970685907,0.06174086800205746,14.50234076931164,-25.92208976419884,-1.6673125376234372,273.48414503333385,60.46085140811673,-167.49712079480486
2,2021-07-02 11:01:03.143,6783143,0.15309027632940173,-10.567288628958075,0.06453017153323737,14.513716651836441,-25.924939865371314,-1.6364257297109586,273.64763230508845,60.60709795806696,-167.32971573158613
2,2021-07-02 11:01:03.152,6783152,0.15306510386153363,-10.56730976386714,0.06706392134825932,14.525240546729833,-25.92775113237594,-1.606407894876708,273.81183813564684,60.753222575355636,-167.1676154614162
2,2021-07-02 11:01:03.158,6783158,0.15304007644381618,-10.567330950135904,0.06934430640576184,14.536884416689752,-25.930520841263935,-1.5772404311638586,273.9764987138915,60.89933190737764,-167.01093063540205
2,2021-07-02 11:01:03.164,6783164,0.15301838776199667,-10.567352707927816,0.07137440439521393,14.54861938758684,-25.93324628338106,-1.548903563047295,274.1413543062727,61.04555601855852,-166.85976409865833
2,2021-07-02 11:01:03.170,6783170,0.15300310334903783,-10.567375500645833,0.07315811899036413,14.560415918414531,-25.935924782039567,-1.5213764298304924,274.3061499349738,61.19204683096654,-166.71421077801713
2,2021-07-02 11:01:03.176,6783176,0.15299715604918956,-10.56739973278468,0.07470011014499134,14.572243966280585,-25.938553707126175,-1.4946371737663446,274.47063605367265,61.338976255287996,-166.5743575099796
2,2021-07-02 11:01:03.182,6783182,0.15300334535421642,-10.567425747975681,0.07600571762497339,14.584073148489141,-25.94113048738744,-1.4686630258933318,274.6345692252723,61.48653405008629,-166.44028280537384
2,2021-07-02 11:01:03.190,6783190,0.15302433986653804,-10.567453827280751,0.07708088051040723,14.595872905259117,-25.943652620486397,-1.4434303869884673,274.7977127972996,61.63492549063044,-166.31205655619914
2,2021-07-02 11:01:03.195,6783195,0.15306268147829208,-10.567484187746198,0.07793205680601822,14.607612667456106,-25.94611768111882,-1.4189149007315547,274.9598375658348,61.78436895268907,-166.1897396953037
2,2021-07-02 11:01:03.203,6783203,0.1531207901455752,-10.567516981222578,0.07856614642734745,14.619262032656454,-25.948523327505907,-1.395091516641048,275.1207224236189,61.935093492643176,-166.073383815083
2,2021-07-02 11:01:03.211,6783211,0.15320096870783953,-10.56755229347992,0.07899041944243486,14.630790950553973,-25.95086730670299,-1.3719345415091513,275.2801549966059,62.08733646197452,-165.96303074307585
2,2021-07-02 11:01:03.218,6783218,0.15330540740108342,-10.567590143716629,0.07921245103658739,14.642169916314703,-25.953147459413398,-1.34941767956138,275.4379322779823,62.2413411701702,-165.85871206788292
2,2021-07-02 11:01:03.226,6783226,0.15343618767333075,-10.567630484721388,0.07924006376162289,14.653370168204692,-25.955361724866343,-1.3275140629354738,275.59386126956167,62.397354605346415,-165.76044860823652
2,2021-07-02 11:01:03.233,6783233,0.15359528496279676,-10.567673204172594,0.0790812750357142,14.664363883920524,-25.957508145547784,-1.3061962748423133,275.7477596403747,62.5556252219887,-165.66824981841947
2,2021-07-02 11:01:03.240,6783240,0.15378457026605907,-10.567718127601372,0.07874424588784923,14.67512436960077,-25.959584870890016,-1.2854363676134517,275.89945641217275,62.71640080531427,-165.58211312360282
2,2021-07-02 11:01:03.246,6783246,0.15400581055493637,-10.567765023107919,0.07823722798202984,14.685626236433391,-25.96159015910063,-1.2652058770482693,276.04879268144936,62.87992642188637,-165.50202317904493
2,2021-07-02 11:01:03.254,6783254,0.1542606683690441,-10.567813607172301,0.07756850860960751,14.69584556039346,-25.96352237676545,-1.2454758339016205,276.19562238745976,63.046442466249495,-165.42795104746756
2,2021-07-02 11:01:03.261,6783261,0.15455070102314022,-10.567863550510433,0.07674635490221657,14.7057600209155,-25.965379996124287,-1.226216773189749,276.3398131355835,63.21618281350877,-165.35985328929806
2,2021-07-02 11:01:03.267,6783267,0.15487735962219357,-10.567914483289002,0.07577895858054594,14.715349015758145,-25.967161589977195,-1.207398741843176,276.48124708523,63.38937308794586,-165.2976709608384
2,2021-07-02 11:01:03.276,6783276,0.15524198766100397,-10.56796599969776,0.07467438238396812,14.724593751528952,-25.96886582418235,-1.1889913053055952,276.6198219113328,63.56622905794815,-165.24132851579284
2,2021-07-02 11:01:03.284,6783284,0.1556458189184379,-10.568017662176251,0.07344050979733727,14.733477310977312,-25.970491447741455,-1.1709635542202603,276.75545184831674,63.74695516772608,-165.19073260595312
2,2021-07-02 11:01:03.291,6783291,0.15608997480433884,-10.568069005366963,0.0720850005568256,14.741984699186032,-25.972037280582537,-1.1532841128859403,276.8880688252527,63.93174321650596,-165.14577077720364
2,2021-07-02 11:01:03.298,6783298,0.15657546175146422,-10.56811953956843,0.07061525453640347,14.750102871229197,-25.973502199334614,-1.1359211511187288,277.0176236939966,64.12077119322097,-165.1063100641126
2,2021-07-02 11:01:03.303,6783303,0.1571031692012602,-10.568168753438725,0.06903838505185408,14.757820743604759,-25.974885121779007,-1.118842400665941,277.14408751821236,64.31420226051205,-165.07219552044202
2,2021-07-02 11:01:03.308,6783308,0.15767386843147646,-10.568216115842258,0.06736120013924503,14.765129191363862,-25.976184991304713,-1.1020151770475228,277.26745283030687,64.51218385609089,-165.04324878394434
2,2021-07-02 11:01:03.313,6783313,0.15828821229235562,-10.568261076824593,0.06559018900702784,14.772021032637504,-25.977400763045857,-1.0854064076014074,277.38773472940375,64.71484686532918,-165.01926680786607
2,2021-07-02 11:01:03.319,6783319,0.15894673587937008,-10.56830306773665,0.0637315113625466,14.778491001952247,-25.978531392884364,-1.0689826660528134,277.50497172700483,64.92230483365776,-165.00002085819227
2,2021-07-02 11:01:03.324,6783324,0.15964985815014962,-10.568341500621473,0.06179098821868335,14.784535713638249,-25.979575829350566,-1.0527102135164261,277.61922630748944,65.13465321364832,-164.9852558152962
2,2021-07-02 11:01:03.329,6783329,0.16039788445456937,-10.56837576714192,0.05977409283093385,14.790153617112928,-25.980533007272232,-1.0365550460592274,277.7305852041238,65.35196865638731,-164.97468978524793
2,2021-07-02 11:01:03.334,6783334,0.16119100992671012,-10.568405237419366,0.057685940185433805,14.795344946176726,-25.981401841504024,-1.0204829492316982,277.8391593978124,65.57430835993627,-164.96801401958368
2,2021-07-02 11:01:03.341,6783341,0.16202932373150497,-10.568429259038433,0.05553127389752072,14.800111664091679,-25.982181219466675,-1.0044595596052797,277.94508384563846,65.80170948797355,-164.96489314261268
2,2021-07-02 11:01:03.349,6783349,0.16291281429491278,-10.568447156192248,0.05331445042419684,14.804457405879203,-25.982869991844048,-0.988450432602902,278.04851694606504,66.03418867201776,-164.9649656855957
2,2021-07-02 11:01:03.355,6783355,0.1638413758146646,-10.568458228703587,0.05103942170736288,14.808387419555393,-25.983466960922765,-0.9724211153299785,278.14963974749537,66.2717416109418,-164.96784492736805
2,2021-07-02 11:01:03.362,6783362,0.16481481633302927,-10.568461750822282,0.048709718578488624,14.811908507830058,-25.983970865943164,-0.9563372228476967,278.2486549067309,66.51434278179782,-164.97312004119843
2,2021-07-02 11:01:03.370,6783370,0.16583286735713174,-10.568456970351212,0.04632843822220378,14.815028970300714,-25.984380364911527,-0.9401645163076212,278.34578540371155,66.76194527628527,-164.9803575478698
2,2021-07-02 11:01:03.377,6783377,0.16689519471184372,-10.568443109121427,0.04389823909799377,14.817758544567356,-25.98469401264178,-0.9238689815549542,278.44127301878234,67.01448077750625,-164.989103075141
2,2021-07-02 11:01:03.382,6783382,0.16800141022112355,-10.568419365468904,0.0414213458229619,14.820108343878825,-25.98491023538151,-0.9074169072783855,278.53537657860056,67.27185969196216,-164.99888342389414
2,2021-07-02 11:01:03.389,6783389,0.16915108379804786,-10.56838491851966,0.03889956553101519,14.822090788233426,-25.985027303184964,-0.8907749624425064,278.6283699766832,67.53397145205382,-165.00920894139313
2,2021-07-02 11:01:03.395,6783395,0.17034375549433872,-10.56833893360244,0.03633431639206373,14.823719525571704,-25.985043301687327,-0.8739102730550641,278.720539974493,67.80068500464932,-165.0195762021706
2,2021-07-02 11:01:03.401,6783401,0.1715789470399165,-10.568280568208609,0.033726666943594316,14.82500934093199,-25.98495610485756,-0.8567904978930545,278.81218378887746,68.0718495015824,-165.02947099712384
2,2021-07-02 11:01:03.409,6783409,0.17285617232297165,-10.568208978207698,0.031077381505167943,14.82597605347822,-25.98476335015872,-0.839383902017969,278.9036064716074,68.34729520823454,-165.0383716314324
2,2021-07-02 11:01:03.416,6783416,0.17417494624072252,-10.568123324196277,0.028386965176345008,14.826636402480641,-25.984462417380538,-0.8216594265255498,278.99511809249077,68.62683463893042,-165.0457525222805
2,2021-07-02 11:01:03.423,6783423,0.1755347916523401,-10.568022777962717,0.025655704040396653,14.827007923443405,-25.984050411612643,-0.8035867533783577,279.08703076640353,68.9102638896186,-165.0510880391727
2,2021-07-02 11:01:03.431,6783431,0.1769352446644037,-10.567906529173683,0.022883700108306808,14.827108815482037,-25.98352414954078,-0.7851363650048923,279.17965561658497,69.19736406921531,-165.05385644287372
2,2021-07-02 11:01:03.436,6783436,0.17837585878050646,-10.567773792442381,0.020070902668663553,14.826957801058724,-25.982880147554372,-0.7662795988586723,279.27329979544766,69.48790269270945,-165.05354373074567
2,2021-07-02 11:01:03.443,6783443,0.17985620848132974,-10.567623814827472,0.017217137276120825,14.826573979189195,-25.98211461059727,-0.7469886971013568,279.36826365527946,69.78163493789762,-165.0496472442937
2,2021-07-02 11:01:03.451,6783451,0.18137589280400912,-10.567455883603847,0.014322132248740545,14.825976673360517,-25.981223421610604,-0.7272368514796493,279.4648381092399,70.07830473720036,-165.04167898127014
2,2021-07-02 11:01:03.458,6783458,0.18293453945073498,-10.567269333998443,0.011385541987991004,14.825185275541592,-25.980202131985948,-0.706998243409117,279.56330219421824,70.3776457147538,-165.02916860266149
2,2021-07-02 11:01:03.463,6783463,0.18453180961433382,-10.567063556482124,0.008406967536095817,14.824219087685412,-25.979045953716057,-0.6862480789511818,279.6639208414211,70.67938198687368,-165.01166613429555
2,2021-07-02 11:01:03.471,6783471,0.18616740313199795,-10.566838003042205,0.005385976966886592,14.823097162251123,-25.977749754278072,-0.6649626179146171,279.76694286065634,70.98322884416935,-164.98874436255585
2,2021-07-02 11:01:03.479,6783479,0.18784106325906394,-10.566592191767171,0.002322129417082116,14.821838143341004,-25.976308055473513,-0.6431191960459569,279.8725991443957,71.28889333374934,-164.960000923411
2,2021-07-02 11:01:03.488,6783488,0.18955258054093513,-10.56632570924847,-0.0007849944037630538,14.820460109578516,-25.974715037101483,-0.620696239146946,279.9811010978307,71.59607476010783,-164.92506008366075
2,2021-07-02 11:01:03.496,6783496,0.19130179563582594,-10.566038210647665,-0.003935754325771843,14.818980419393698,-25.97296454567713,-0.5976732680663895,280.09263930128463,71.90446512341033,-164.88357421296652
2,2021-07-02 11:01:03.503,6783503,0.19308860115014276,-10.565729417712372,-0.007130406182904365,14.817415560282143,-25.971050107648125,-0.574030894506279,280.2073824115031,72.21374951400969,-164.83522494487718
2,2021-07-02 11:01:03.509,6783509,0.19491294259201028,-10.56539911555145,-0.010369052674679517,14.815781005863348,-25.968964945707256,-0.5497508094579455,280.3254763085219,72.5236064821154,-164.77972402467992
2,2021-07-02 11:01:03.516,6783516,0.19677481853239656,-10.565047149240476,-0.013651592342538649,14.814091085703364,-25.96670199644209,-0.5248157671687023,280.44704349499585,72.83370840161457,-164.71681384150384
2,2021-07-02 11:01:03.522,6783522,0.1986742799737054,-10.564673420982668,-0.016977669014340273,14.812358870768056,-25.964253928421357,-0.4992095667114042,280.5721827550697,73.14372184709704,-164.6462676416824
2,2021-07-02 11:01:03.528,6783528,0.20061142876259025,-10.564277887928952,-0.02034662341385545,14.81059607360121,-25.961613161371172,-0.4729170317682758,280.70096908007736,73.45330800317232,-164.56788941994066
2,2021-07-02 11:01:03.537,6783537,0.20258641478496417,-10.563860560396547,-0.02375744818612246,14.808812960209147,-25.958771887888933,-0.44592398851281234,280.8334538685682,73.76212312518099,-164.48151348451884
2,2021-07-02 11:01:03.543,6783543,0.20459943172945244,-10.563421500146065,-0.027208746804665736,14.807018271081136,-25.955722098467806,-0.4182172414559294,280.9696654083795,74.06981907039724,-164.38700369187393
2,2021-07-02 11:01:03.550,6783550,0.20665071129057594,-10.562960818334403,-0.030698695634190084,14.805219150052547,-25.9524556092421,-0.38978454750681424,281.1096096486964,74.37604391879297,-164.28425234611905
2,2021-07-02 11:01:03.558,6783558,0.2087405157358354,-10.562478672699662,-0.034225007815967226,14.80342108056948,-25.948964091116824,-0.3606145887954436,281.25327126352573,74.68044269949587,-164.17317876653956
2,2021-07-02 11:01:03.565,6783565,0.21086912885052378,-10.561975263454872,-0.03778489828203633,14.801627829860635,-25.945239099239956,-0.33069694470448857,281.4006149745238,74.982658224556,-164.05372756937126
2,2021-07-02 11:01:03.572,6783572,0.21303684540052728,-10.561450827200597,-0.04137505044293056,14.799841402943752,-25.941272102473437,-0.30002206351361,281.5515870406593,75.28233200553495,-163.92586678754668
2,2021-07-02 11:01:03.581,6783581,0.21524395933846657,-10.560905628146807,-0.044991585874226955,14.798062009325896,-25.93705451295537,-0.2685812341559203,281.7061167887056,75.57910521387029,-163.78958599495124
2,2021-07-02 11:01:03.586,6783586,0.21749075103606597,-10.56033994650275,-0.048630038594822796,14.796288045272977,-25.932577716092034,-0.2363665586351206,281.8641180924993,75.87261966028254,-163.64489455786713
2,2021-07-02 11:01:03.591,6783591,0.2197774739107645,-10.559754064884508,-0.05228533586134243,14.79451609452417,-25.927833101659015,-0.20337092596063028,282.025490769811,76.1625187943437,-163.4918200577401
2,2021-07-02 11:01:03.597,6783597,0.22210434086755942,-10.559148254153754,-0.05595178753745821,14.792740950303582,-25.922812096888446,-0.1695879887268007,282.1901218996068,76.4484487395973,-163.3304068855367
2,2021-07-02 11:01:03.604,6783604,0.22447151092896872,-10.558522759838112,-0.05962308533360179,14.79095566051019,-25.917506202190122,-0.13501214319346286,282.35788706943936,76.73005938230875,-163.160714998773
2,2021-07-02 11:01:03.610,6783610,0.2268790763457445,-10.557877789744722,-0.06329231193611537,14.78915159647421,-25.91190702978233,-0.09963851346367533,282.5286515629089,77.00700553170213,-162.98281883178052
2,2021-07-02 11:01:03.617,6783617,0.22932705043748908,-10.557213503101812,-0.06695195927634273,14.787318544680359,-25.906006345262107,-0.06346294026654054,282.70227149734086,77.27894816929482,-162.79680634925973
2,2021-07-02 11:01:03.622,6783622,0.2318153563780436,-10.55653000153425,-0.07059395505307153,14.785444820044265,-25.89979611183485,-0.02648197446445202,282.8785949220148,77.54555580467569,-162.6027782326638
2,2021-07-02 11:01:03.627,6783627,0.23434381710164978,-10.55582732226059,-0.07420969653916837,14.783517398118457,-25.8932685364785,0.011307125000468599,283.05746288746684,77.8065059547848,-162.40084718844895
2,2021-07-02 11:01:03.632,6783632,0.23691214648539455,-10.555105433943794,-0.07779009065684521,14.781522062931048,-25.886416117062097,0.049906389252868305,283.23871049656157,78.06148676344498,-162.19113736672827
2,2021-07-02 11:01:03.637,6783637,0.23951994192916817,-10.554364235461328,-0.08132559964827998,14.779443567797593,-25.879231689529867,0.08931713467658785,283.422167948197,78.31019877756664,-161.97378387837253
2,2021-07-02 11:01:03.646,6783646,0.2421666782960012,-10.553603557468612,-0.08480629217947924,14.777265806996072,-25.871708474368983,0.1295399561557992,283.6076615846621,78.55235689609935,-161.74893239811416
2,2021-07-02 11:01:03.653,6783653,0.24485170288859542,-10.552823166182995,-0.08822189996947402,14.77497199541662,-25.863840121432673,0.17057471853286843,283.795014953813,78.78769250743586,-161.51673884073242
2,2021-07-02 11:01:03.661,6783661,0.2475742309978375,-10.552022768579965,-0.0915618799425823,14.77254485251053,-25.855620752106667,0.21242054568735796,283.9840498973704,79.0159558305887,-161.2773690969259
2,2021-07-02 11:01:03.668,6783668,0.25033334181421907,-10.551202018238033,-0.09481548127996166,14.769966787370242,-25.847044998260127,0.25507580649313844,284.1745876767653,79.23691847505623,-161.03099881501817
2,2021-07-02 11:01:03.675,6783675,0.2531279749503761,-10.550360521150179,-0.09797181563004508,14.767220082689109,-25.838108038254024,0.29853809660515024,284.3664501480759,79.45037623387513,-160.77781321418857
2,2021-07-02 11:01:03.681,6783681,0.2559569280274571,-10.549497840878287,-0.10101992821997381,14.76428707594969,-25.828805630771644,0.34280421481665446,284.5594609938476,79.65615211043513,-160.51800691447957
2,2021-07-02 11:01:03.688,6783688,0.2588188554678007,-10.548613502669156,-0.1039488687769385,14.761150337183174,-25.81913414712721,0.3878701335122854,284.7534470004167,79.85409951175302,-160.25178376840012
2,2021-07-02 11:01:03.695,6783695,0.26171226805957876,-10.547706996535327,-0.10674776307620573,14.757792844164523,-25.80909060240194,0.43373096370821296,284.94823933475936,80.04410541906665,-159.97935667852508
2,2021-07-02 11:01:03.703,6783703,0.2646355327233142,-10.546777779578301,-0.10940588615486653,14.75419815692339,-25.798672685260406,0.48038091506226294,285.1436747556952,80.22609327870741,-159.70094738508294
2,2021-07-02 11:01:03.711,6783711,0.2675868725187843,-10.545825277913032,-0.11191273613514645,14.750350593390857,-25.78787878537687,0.5278132504330214,285.3395967135992,80.4000254231589,-159.41678620712884
2,2021-07-02 11:01:03.717,6783717,0.27056436753014335,-10.544848888546658,-0.11425810570671255,14.746235407159066,-25.77670801672269,0.5760202343315531,285.5358563275042,80.56590495309584,-159.12711172051797
2,2021-07-02 11:01:03.724,6783724,0.2735659569932143,-10.543847981677873,-0.11643214872082056,14.741838966776001,-25.765160235377458,0.6249930752108952,285.7323132477829,80.72377707813527,-158.8321703555258
2,2021-07-02 11:01:03.731,6783731,0.2765894421299487,-10.54282190419888,-0.11842544092403752,14.737148933967811,-25.753236051601107,0.6747218620764148,285.9288364164806,80.87372992702291,-158.53221589660748
2,2021-07-02 11:01:03.739,6783739,0.27963248870632,-10.541769985299846,-0.12022903472843287,14.732154436806034,-25.74093683656058,0.7251954960900068,286.12530473739207,81.01589483748366,-158.22750886644945
2,2021-07-02 11:01:03.747,6783747,0.2826926290023076,-10.540691544486219,-0.12183450779470058,14.726846233187896,-25.72826472411278,0.7764016180778474,286.32160766798825,81.15044613547302,-157.91831577614136
2,2021-07-02 11:01:03.755,6783755,0.28576726416605697,-10.539585901284093,-0.123234004657855,14.72121685891342,-25.715222607951514,0.8283265329690611,286.5176457453023,81.27760041308024,-157.60490822298814
2,2021-07-02 11:01:03.762,6783762,0.28885366857343625,-10.53845238537891,-0.12442027049442733,14.715260753897729,-25.70181413438706,0.8809551321990249,286.71333105788307,81.3976153138557,-157.28756181718947
2,2021-07-02 11:01:03.770,6783770,0.29194899716732314,-10.53729034643188,-0.12538667730834452,14.708974361001319,-25.688043690830423,0.9342708153378034,286.9085876759135,81.51078783386775,-156.9665549183368
2,2021-07-02 11:01:03.777,6783777,0.2950502954973289,-10.536099163786151,-0.12612724483291163,14.702356193473754,-25.673916389881292,0.9882554123827446,287.10335205157463,81.61745214634016,-156.64216716241918
2,2021-07-02 11:01:03.784,6783784,0.29815451160697704,-10.534878256709503,-0.12663665907420937,14.695406868329027,-25.659438049093882,1.042889108237071,287.2975734017174,81.71797695728257,-156.31467775978618
2,2021-07-02 11:01:03.792,6783792,0.3012585094075935,-10.533627095446402,-0.12691028958540077,14.688129104909525,-25.644615166875095,1.0981503713572336,287.49121408487576,81.81276239910683,-155.9843635442905
2,2021-07-02 11:01:03.798,6783798,0.3043590838770149,-10.532345212817628,-0.12694420451006022,14.680527689715586,-25.62945489513741,1.1540158893512609,287.6842499788474,81.90223647845464,-155.65149676518396
2,2021-07-02 11:01:03.806,6783806,0.30745297851329934,-10.531032215966004,-0.12673518267024317,14.672609409070835,-25.613965009306977,1.2104605152191612,287.8766708361343,81.98685114225015,-155.31634267094688
2,2021-07-02 11:01:03.818,6783818,0.3105369050554408,-10.529687797959749,-0.1262807237599111,14.664382951157437,-25.598153876392768,1.2674572288497248,288.06848054248553,82.06707811233395,-154.97915703809082
2,2021-07-02 11:01:03.833,6783833,0.31360756490845976,-10.528311749031976,-0.12557905842216074,14.655858779449025,-25.582030421604284,1.3249771186622128,288.25969717484725,82.14340468687338,-154.64018385561542
2,2021-07-02 11:01:03.846,6783846,0.3166616711629938,-10.526903967237601,-0.1246291587970559,14.64704898031585,-25.565604093021367,1.3829893874165518,288.4503527838866,82.21632965828073,-154.29965331786053
2,2021-07-02 11:01:03.856,6783856,0.31969596996103705,-10.525464468320685,-0.12343074884348268,14.637967087952656,-25.548884823207562,1.441461384898882,288.6404928782378,82.28635941040524,-153.95778017433423
2,2021-07-02 11:01:03.867,6783867,0.3227072604549498,-10.523993394606329,-0.12198431381023779,14.628627889856354,-25.53188298740526,1.500358669123511,288.83017561647983,82.35400420936057,-153.61476242718888
2,2021-07-02 11:01:03.880,6783880,0.32569241322620684,-10.522491022692499,-0.12029110869704535,14.619047216157757,-25.514609358880275,1.5596450968142141,289.01947071860263,82.41977469250655,-153.27078035536113
2,2021-07-02 11:01:03.893,6783893,0.32864838718996603,-10.520957769508513,-0.11835316518751537,14.609241715700046,-25.49707506184682,1.619282943166194,289.20845810868667,82.48417855992662,-152.92599584430855
2,2021-07-02 11:01:03.902,6783902,0.3315722448217196,-10.519394196001747,-0.11617329581111505,14.599228620532214,-25.47929152181786,1.6792330501104429,289.3972263004925,82.54771747259451,-152.58055200020397
2,2021-07-02 11:01:03.915,6783915,0.3344611654671573,-10.517801007753558,-0.11375509410809627,14.589025499523027,-25.461270413082566,1.7394550009675596,289.5858705376347,82.6108841613086,-152.23457302738808
2,2021-07-02 11:01:03.927,6783927,0.33731245669676957,-10.516179052429932,-0.11110293056814732,14.578650001953111,-25.443023603233616,1.799907317401226,289.7744907057753,82.67415975231401,-151.88816434590464
2,2021-07-02 11:01:03.940,6783940,0.34012356392207893,-10.514529314590664,-0.10822194523415696,14.56811959259348,-25.424563094991285,1.8605476726417964,289.96318906315634,82.73801132511217,-151.54141291626738
2,2021-07-02 11:01:03.951,6783951,0.3428920787042212,-10.512852908489355,-0.10511803810422485,14.557451280438505,-25.405900965967533,1.9213331135137568,290.15206788780296,82.80288973527273,-151.19438772123516
2,2021-07-02 11:01:03.963,6783963,0.34561574640845066,-10.511151069292533,-0.10179785767229767,14.546661344285496,-25.38704930729142,1.9822202834753087,290.3412271686247,82.86922774470197,-150.84714034471173
2,2021-07-02 11:01:03.978,6783978,0.34829247371321936,-10.509425142924098,-0.09826878697680498,14.535765060073363,-25.368020162012183,2.0431656406750753,290.5307624387491,82.93743849222392,-150.49970559749687
2,2021-07-02 11:01:03.991,6783991,0.3509203357859762,-10.50767657458336,-0.09453892641680994,14.524776437451395,-25.348825464096702,2.1041256681362452,290.720762797415,83.00791432005305,-150.15210215693787
2,2021-07-02 11:01:04.002,6784002,0.35349758250770946,-10.505906896043133,-0.0906170732824197,14.513707975395656,-25.329476978676563,2.165057075451733,290.9113091378716,83.08102596219443,-149.80433319714828
2,2021-07-02 11:01:04.015,6784015,0.35602264343325524,-10.504117712057985,-0.08651269830422421,14.502570446604757,-25.30998624377023,2.225916992491285,291.1024725929723,83.15712209899436,-149.45638698837524
2,2021-07-02 11:01:04.029,6784029,0.3584941315206336,-10.502310686289452,-0.08223591901969377,14.491372717660182,-25.290364513253216,2.286663156364875,291.2943132101799,83.23652928220362,-149.10823744408557
2,2021-07-02 11:01:04.041,6784041,0.36091084568713067,-10.500487527015853,-0.07779746921153993,14.480121608321438,-25.270622700831865,2.3472540930824635,291.48687886580905,83.31955222737044,-148.75984459818343
2,2021-07-02 11:01:04.052,6784052,0.36327177223744755,-10.498649972700285,-0.07320866395485363,14.468821789964894,-25.250771325154563,2.407649294579613,291.68020441873233,83.40647443203191,-148.41115501402578
2,2021-07-02 11:01:04.065,6784065,0.36557608516918,-10.496799777296243,-0.06848136059591481,14.457475721094005,-25.230820456502094,2.467809390515541,291.8743110864818,83.49755900901863,-148.0621021615678
2,2021-07-02 11:01:04.077,6784077,0.36782314542185834,-10.49493869503156,-0.06362791640601868,14.446083618224286,-25.21077966553091,2.5276963131901065,292.069206017088,83.59304958587772,-147.71260681822042
2,2021-07-02 11:01:04.091,6784091,0.37001249960106586,-10.493068464585043,-0.05866114323234289,14.434643462702468,-25.190657974717936,2.587273453021615,292.2648820396767,83.69317116019081,-147.36257752971693
2,2021-07-02 11:01:04.100,6784100,0.37214387913303354,-10.49119079317574,-0.05359425841085884,14.423151045983127,-25.170463813591855,2.646505801602167,292.46131759423093,83.79813087017554,-147.01191113258514
2,2021-07-02 11:01:04.115,6784115,0.3742172005488479,-10.489307341653843,-0.048440830498005474,14.411600055796267,-25.15020497873531,2.7053600804521363,292.6584768506074,83.90811867876167,-146.6604933205276
2,2021-07-02 11:01:04.128,6784128,0.37623256691835205,-10.487419711658635,-0.04321471881958051,14.399982203550907,-25.129888598589677,2.7638048557406636,292.85631002886976,84.02330797732404,-146.30819923312478
2,2021-07-02 11:01:04.138,6784138,0.3781902699355821,-10.485529435361757,-0.037930006923440375,14.388287390346465,-25.109521102331183,2.821810640426426,293.05475393304647,84.14385611555211,-145.95489404523812
2,2021-07-02 11:01:04.146,6784146,0.3800907919242471,-10.483637967638419,-0.03260093082769471,14.376503905816154,-25.089108192430757,2.879349984783664,293.2537327104675,84.26990486424471,-145.6004335354415
2,2021-07-02 11:01:04.154,6784154,0.3819348070373865,-10.481746680017352,-0.027241803194277794,14.364618651921331,-25.068654821406835,2.936397555447612,293.45315884887185,84.40158081813881,-145.24466461175606
2,2021-07-02 11:01:04.162,6784162,0.3837231811515568,-10.47985685568204,-0.021866934206197952,14.352617384434897,-25.048165173529988,2.9929302032997693,293.65293441773815,84.53899574621083,-144.88742578060638
2,2021-07-02 11:01:04.171,6784171,0.3854569701729565,-10.477969685103456,-0.01649054899915208,14.34048496747672,-25.027642651619203,3.048927021156214,293.8529525314217,84.68224689722703,-144.52854758337634
2,2021-07-02 11:01:04.183,6784183,0.3871374164740206,-10.47608626227049,-0.011126700466148451,14.328205638274463,-25.007089868498497,3.104369392018152,294.05309895969344,84.83141726866648,-144.16785309421869
2,2021-07-02 11:01:04.196,6784196,0.38876594318478264,-10.474207581695616,-0.00578917618412739,14.315763278478716,-24.986508642964516,3.159241027838164,294.25325378239745,84.98657584749246,-143.80515861121236
2,2021-07-02 11:01:04.210,6784210,0.3903441463770206,-10.47233453641026,-0.0004913998185654915,14.303141684885551,-24.96590000094326,3.2135279982487526,294.45329301385533,85.14777783160771,-143.44027463432943
2,2021-07-02 11:01:04.220,6784220,0.39187378563085834,-10.47046791715079,0.004753670343298631,14.290324828705987,-24.945264182820022,3.267218748499816,294.65309017467445,85.31506484119332,-143.07300715420382
2,2021-07-02 11:01:04.233,6784233,0.3933567736311341,-10.468608412913362,0.00993364195660974,14.277297092314248,-24.924600657569577,3.3203041056981384,294.8525178175131,85.48846512949915,-142.7031592370395
2,2021-07-02 11:01:04.245,6784245,0.39479516522177416,-10.466756612950535,0.015036785062568492,14.264043476258275,-24.903908144201235,3.372777272390233,295.05144901913025,85.66799380302616,-142.3305328831534
2,2021-07-02 11:01:04.259,6784259,0.39619114605851724,-10.464913010002741,0.02005212258246623,14.250549774304028,-24.883184641031686,3.424633806967189,295.24975885103026,85.85365306141502,-141.9549311365021
2,2021-07-02 11:01:04.269,6784269,0.3975470208504144,-10.463078004231917,0.024969514191905344,14.236802718498057,-24.86242746261755,3.4758715914387843,295.44732584099336,86.04543246773214,-141.57616042238152
2,2021-07-02 11:01:04.282,6784282,0.3988652010996672,-10.46125190732974,0.029779733001056588,14.22279009898354,-24.841633283356185,3.52649078795541,295.6440334377481,86.24330926022124,-141.1940330903184
2,2021-07-02 11:01:04.296,6784296,0.4001481921456604,-10.459434946599515,0.03447453381126506,14.20850086378001,-24.820798186579662,3.5764937851814573,295.8397714871551,86.44724871503915,-140.80837013320854
2,2021-07-02 11:01:04.305,6784305,0.4013985791971011,-10.457627268926169,0.03904671141013105,14.193925202726158,-24.799917718193893,3.6258851345273215,296.0344377089562,86.65720456023908,-140.4190040246631
2,2021-07-02 11:01:04.313,6784313,0.4026190119649285,-10.455828944301269,0.04349014754835363,14.179054618907742,-24.778986944244217,3.6746714754350447,296.2279391284152,86.87311942429967,-140.02578156430098
2,2021-07-02 11:01:04.321,6784321,0.4038121875983957,-10.454039968409768,0.04779984560542594,14.163881990101585,-24.758000512094316,3.7228614493170658,296.420193397848,87.09492529323967,-139.62856659160798
2,2021-07-02 11:01:04.329,6784329,0.40498083191881856,-10.45226026400165,0.05197195278622859,14.148401621706345,-24.736952715092137,3.7704656029184864,296.6111299622434,87.32254396036039,-139.22724245765534
2,2021-07-02 11:01:04.338,6784338,0.4061276793250496,-10.450489681204045,0.056003770937226055,14.132609291988654,-24.715837560830256,3.817496282507457,296.80069105778006,87.55588747036504,-138.8217141957507
2,2021-07-02 11:01:04.347,6784347,0.4072554520325598,-10.448727997325062,0.05989375798766091,14.116502290367716,-24.694648843278504,3.863967520143138,296.9888325512364,87.79485856959847,-138.41191036074744
2,2021-07-02 11:01:04.355,6784355,0.40836683940759405,-10.446974916935421,0.06364152219585673,14.100079449205616,-24.673380218794314,3.9098949130608704,297.1755246320623,88.03935117643698,-137.9977845122664
2,2021-07-02 11:01:04.362,6784362,0.40946447806002234,-10.445230073019168,0.06724781093717537,14.083341168864244,-24.652025285427545,3.9552954973289904,297.36075236879657,88.28925088620859,-137.57931631682612
2,2021-07-02 11:01:04.370,6784370,0.4105509331045894,-10.443493029824428,0.0707144948686515,14.066289434466999,-24.63057766437907,4.0001876170158,297.544516141428,88.54443552537221,-137.1565122436141
2,2021-07-02 11:01:04.378,6784378,0.41162868071434583,-10.441763287889565,0.07404454722063453,14.04892782089629,-24.60903108205673,4.0445907897241815,297.72683196120937,88.80477577002313,-136.72940582836756
2,2021-07-02 11:01:04.388,6784388,0.41270009188240386,-10.440040291421983,0.07724201715583848,14.031261481037577,-24.587379451048474,4.088525568844997,297.90773168934305,89.07013584412584,-136.29805747956524
2,2021-07-02 11:01:04.395,6784395,0.4137674171833963,-10.438323437577894,0.08031199583003386,14.013297112071912,-24.565616948571673,4.1320134029280915,298.0872631658689,89.34037431320031,-135.86255380086521
2,2021-07-02 11:01:04.403,6784403,0.4148327723024977,-10.436612086672737,0.08326057400459426,13.995042895571508,-24.543738091314818,4.175076493179474,298.26549025999515,89.61534498950573,-135.42300640346082
2,2021-07-02 11:01:04.416,6784416,0.41589812421894834,-10.43490557239367,0.08609479072604315,13.976508408848174,-24.521737805976297,4.217737650640987,298.44249285302766,89.89489796507472,-134.9795501817654
2,2021-07-02 11:01:04.430,6784430,0.4169652781237666,-10.433203211439688,0.08882257312478893,13.957704507300567,-24.499611495319524,4.2600201542416585,298.618366762078,90.17888078058193,-134.53234104195826
2,2021-07-02 11:01:04.438,6784438,0.4180358652660874,-10.431504312323025,0.09145266713054956,13.938643180110875,-24.47735509984874,4.301947609430321,298.79322359820327,90.46713969497455,-134.08155315455474
2,2021-07-02 11:01:04.450,6784450,0.4191113318444378,-10.429808183208236,0.09399455826310851,13.919337384183589,-24.454965154910063,4.343543805668322,298.96719052654663,90.7595209430484,-133.6273759493075
2,2021-07-02 11:01:04.463,6784463,0.4201929288755522,-10.428114138582906,0.0964583816367839,13.899800863493168,-24.432438842532843,4.3848325708798495,299.1404098815282,91.055871825078,-133.1700111523943
2,2021-07-02 11:01:04.478,6784478,0.42128170301029594,-10.426421504521993,0.0988548212404651,13.880047962579221,-24.409774037144587,4.42583762213614,299.31303860452476,91.35604151622081,-132.70967008374885
2,2021-07-02 11:01:04.488,6784488,0.4223784885606544,-10.424729622845472,0.10119500017507561,13.860093443078794,-24.386969344395045,4.466582413851565,299.4852474974308,91.65988156169645,-132.24657128479896
2,2021-07-02 11:01:04.501,6784501,0.4234839011261876,-10.423037855392472,0.10349036506853071,13.839952310148844,-24.364024132537978,4.507089986551603,299.65722029989723,91.96724606733454,-131.78093846480093
2,2021-07-02 11:01:04.515,6784515,0.4245983332087819,-10.421345589841895,0.10575256799858919,13.81963965111641,-24.34093855612636,4.547382819887106,299.82915260089806,92.27799160398976,-131.31299873740016
2,2021-07-02 11:01:04.528,6784528,0.42572195257263784,-10.41965224751268,0.10799334771670611,13.799170483468165,-24.31771357213181,4.587482693237268,300.0012505952508,92.59197684454952,-130.84298111887787
2,2021-07-02 11:01:04.537,6784537,0.42685470448376794,-10.417957292455954,0.11022441032867007,13.77855960693355,-24.29435094869291,4.627410556731385,300.17372969762806,92.90906195632974,-130.37111525746124
2,2021-07-02 11:01:04.550,6784550,0.4279963185502472,-10.416260240912393,0.11245730892186752,13.757821456814293,-24.27085326639617,4.66718641499281,300.3468130362293,93.22910779112873,-129.89763035329975
2,2021-07-02 11:01:04.563,6784563,0.4291463198510785,-10.41456067047451,0.11470332166432318,13.736969960853612,-24.247223911740218,4.706829225256777,300.5207298656304,93.55197495008774,-129.42275421124242
2,2021-07-02 11:01:04.576,6784576,0.4303040431000509,-10.412858228408313,0.11697332867842605,13.716018406155596,-24.22346706258299,4.746356810989631,300.69571394798754,93.8775228199629,-128.94671235880438
2,2021-07-02 11:01:04.586,6784586,0.4314686480814333,-10.411152638588717,0.11927768967270702,13.69497932423714,-24.19958766567958,4.785785791882773,300.87200194217525,94.20560865833066,-128.46972717124382
2,2021-07-02 11:01:04.602,6784602,0.4326391347556847,-10.409443706760092,0.12162612568483264,13.673864401418962,-24.175591406552503,4.825131530470229,301.04983182314965,94.53608677074405,-127.99201696292447
2,2021-07-02 11:01:04.614,6784614,0.4338143573023422,-10.407731324458043,0.12402760804776834,13.652684418596392,-24.151484672070413,4.864408094031778,301.22944134426365,94.86880780375654,-127.51379501369837
2,2021-07-02 11:01:04.622,6784622,0.43499303726374605,-10.406015472433612,0.1264902563561939,13.631449219733247,-24.12727450656195,4.903628228826082,301.41106655341275,95.20361817403335,-127.03526850091303
2,2021-07-02 11:01:04.629,6784629,0.4361737762523082,-10.404296224168203,0.12902124625142483,13.610167704428356,-24.102968562718683,4.942803343574571,301.5949403739857,95.54035965391739,-126.55663730760172
2,2021-07-02 11:01:04.638,6784638,0.43735506861079293,-10.402573749212898,0.13162672787379673,13.58884783848636,-24.078575048423744,4.981943500265752,301.78129126170404,95.87886913395526,-126.07809267738374
2,2021-07-02 11:01:04.649,6784649,0.43853531439231047,-10.400848315506758,0.1343117561648577,13.56749667765319,-24.054102670146612,5.021057411365045,301.9703419485583,96.21897858301715,-125.59981568658263
2,2021-07-02 11:01:04.658,6784658,0.4397128330406309,-10.399120289980075,0.13708023401815647,13.546120402319902,-24.02956057310436,5.060152442962664,302.16230828133496,96.56051522291037,-125.1219755175492
2,2021-07-02 11:01:04.669,6784669,0.44088587795385886,-10.397390137235352,0.13993486871420613,13.524724363255244,-24.004958278186514,5.099234623776862,302.35739814311273,96.90330191522884,-124.64472758461153
2,2021-07-02 11:01:04.683,6784683,0.4420526516870797,-10.395658416452296,0.14287714165424192,13.503313139215225,-23.98030561569149,5.1383086605127355,302.5558104115976,97.2471577236013,-124.16821168546441
2,2021-07-02 11:01:04.696,6784696,0.4432113213242471,-10.393925776851367,0.14590729126138702,13.481890607118448,-23.955612656131226,5.177377960596883,302.7577338890764,97.5918985953228,-123.69255041826753
2,2021-07-02 11:01:04.706,6784706,0.44436003381583106,-10.392192952183452,0.14902430888188709,13.460460025127077,-23.930889638507306,5.216444663441612,302.9633461582292,97.93733812569656,-123.21784803732669
2,2021-07-02 11:01:04.719,6784719,0.44549693137704927,-10.390460754763748,0.15222594733211808,13.439024128095651,-23.906146896340076,5.255509680965334,303.1728123529214,98.28328840315793,-122.74418979890282
2,2021-07-02 11:01:04.733,6784733,0.4466201668020529,-10.388730069411615,0.1555087414677141,13.417585233008712,-23.88139478166667,5.294572747092215,303.3862838525808,98.62956095257209,-122.27164178131466
2,2021-07-02 11:01:04.745,6784745,0.4477279179973847,-10.387001847263143,0.15886804028466217,13.396145350187236,-23.856643587790796,5.333632474911308,303.6038969128414,98.97596779799304,-121.80025115007349
2,2021-07-02 11:01:04.755,6784755,0.44881840089944375,-10.38527709898673,0.1622980505023408,13.37470629564856,-23.831903472316135,5.372686419780259,303.82577124537676,99.32232266620339,-121.33004683885179
2,2021-07-02 11:01:04.766,6784766,0.4498898804269507,-10.383556886775935,0.16579189148727694,13.353269800960126,-23.807184381979106,5.411731146729623,304.052008560088,99.66844235237446,-120.86104061715504
2,2021-07-02 11:01:04.776,6784776,0.45094067969745816,-10.381842314856883,0.16934166040123338,13.331837618064666,-23.78249598018829,5.450762300555132,304.2826910830689,100.01414826919347,-120.39322851563662
2,2021-07-02 11:01:04.784,6784784,0.4519691879426787,-10.380134518978192,0.17293850522074106,13.310411617423423,-23.757847577752184,5.489774677079693,304.51788006499464,100.35926819020712,-119.92659257717831
2,2021-07-02 11:01:04.792,6784792,0.452973867455137,-10.378434655751352,0.1765727028486862,13.28899387878786,-23.733248067278048,5.528762294532263,304.7576142996649,100.70363814513378,-119.46110288748218
2,2021-07-02 11:01:04.802,6784802,0.45395325972735434,-10.37674389234688,0.18023374037527887,13.267586775087507,-23.70870586198726,5.567718464732426,305.0019086813758,101.04710432950715,-118.99671981298457
2,2021-07-02 11:01:04.817,6784817,0.45490599087907,-10.375063396509958,0.18391039878023951,13.246193050727644,-23.68422883994773,5.606635864139527,305.2507528348875,101.3895248379968,-118.53339635952486
2,2021-07-02 11:01:04.824,6784824,0.45583077659520643,-10.373394326850496,0.18759083891516426,13.224815895448925,-23.65982429477444,5.64550660420755,305.5041098472166,101.73077108368652,-118.07108057972174
2,2021-07-02 11:01:04.831,6784831,0.45672642699792126,-10.371737823721508,0.1912626894372421,13.203459014001192,-23.635498893583932,5.684322299489672,305.76191512209465,102.07072886090138,-117.6097179830859
2,2021-07-02 11:01:04.837,6784837,0.45759185186985707,-10.370095001165678,0.1949131360962931,13.18212669088144,-23.61125864236873,5.723074131934045,306.02407537339474,102.4092990620923,-117.14925391741305
2,2021-07-02 11:01:04.844,6784844,0.4584260662441885,-10.368466940254523,0.19852901162621006,13.160823848747073,-23.587108858353783,5.7617529107099,306.2904677731432,102.7463980698103,-116.68963589295261
2,2021-07-02 11:01:04.850,6784850,0.4592281957503182,-10.366854683933967,0.20209688526240488,13.139556098872049,-23.563054148759683,5.800349127373618,306.5609392700054,103.08195784472485,-116.23081582090634
2,2021-07-02 11:01:04.857,6784857,0.4599974807851381,-10.36525923335782,0.20560315077274513,13.118329782070317,-23.539098395521176,5.83885300619624,306.8353060944035,103.41592573055533,-115.77275213786685
2,2021-07-02 11:01:04.863,6784863,0.46073327888573806,-10.36368154548476,0.20903411218035436,13.097151999010448,-23.51524474560978,5.877254549785342,307.11335346668045,103.74826399669466,-115.3154117878578
2,2021-07-02 11:01:04.871,6784871,0.4614350652564793,-10.36212253138472,0.21237606680696683,13.076030629700652,-23.491495606828423,5.915543580484563,307.39483552497825,104.07894913921034,-114.85877203368764
2,2021-07-02 11:01:04.879,6784879,0.46210243175056775,-10.360583054536148,0.2156153854677626,13.054974342455166,-23.46785264909426,5.9537097781389,307.6794754897346,104.40797096081018,-114.40282206937535
2,2021-07-02 11:01:04.885,6784885,0.46273508472368574,-10.359063928644776,0.2187385895478153,13.033992592553373,-23.44431681094778,5.991742714886629,307.9669660819278,104.73533145026053,-113.94756440545204
2,2021-07-02 11:01:04.893,6784893,0.4633328422992186,-10.357565914970582,0.2217324243963471,13.013095610593243,-23.420888310606017,6.029631887560648,308.2569702124113,105.06104348164367,-113.49301599898584
2,2021-07-02 11:01:04.901,6784901,0.46389563161466413,-10.35608971940798,0.22458392835419927,12.992294380489422,-23.3975666607186,6.067366748171744,308.54912195987225,105.38512935373839,-113.0392091002205
2,2021-07-02 11:01:04.908,6784908,0.46442348628122143,-10.354635989528829,0.22728049719437726,12.97160060703147,-23.374350686157477,6.104936733135592,308.8430278551213,105.70761918970665,-112.58619178776173
2,2021-07-02 11:01:04.915,6784915,0.4649165437074046,-10.353205311675115,0.22980994457171933,12.951026672994075,-23.351238544604584,6.142331292109664,309.1382684895768,106.02854921716735,-112.13402816428966
2,2021-07-02 11:01:04.923,6784923,0.4653750416504665,-10.351798208138943,0.23216055947189895,12.930585585883874,-23.328227749984556,6.1795399173046235,309.4344004582295,106.34795995056552,-111.6827981944552
2,2021-07-02 11:01:04.929,6784929,0.4657993136973217,-10.350415134519418,0.23432116118257573,12.91029091427996,-23.305315198614476,6.216552173974548,309.73095860895,106.66589430727925,-111.23259721483164
2,2021-07-02 11:01:04.935,6784935,0.46618978403623607,-10.34905647747144,0.2362811513926604,12.890156713590297,-23.28249719766462,6.253357732352944,310.02745850072563,106.98239570615098,-110.78353523254253
2,2021-07-02 11:01:04.942,6784942,0.46654696224604925,-10.347722553131776,0.2380305624606457,12.870197441094017,-23.25976949541191,6.289946400926711,310.323398934936,107.2975062066681,-110.33573617740974
2,2021-07-02 11:01:04.947,6784947,0.4668714386805411,-10.346413606412836,0.23956010085837354,12.85042786044093,-23.23712731270278,6.3263081609123235,310.61826446233255,107.61126473729456,-109.88933722436455
2,2021-07-02 11:01:04.954,6784954,0.4671638806926109,-10.345129811190617,0.24086118482547778,12.830862936429215,-23.214565375047805,6.362433201643581,310.91152783774066,107.92370544402706,-109.44448821624054
2,2021-07-02 11:01:04.962,6784962,0.4674250297432943,-10.343871271336786,0.2419259753483642,12.811517721295981,-23.192077944847274,6.398311956361513,311.2026524329994,108.2348561805313,-109.00135116898008
2,2021-07-02 11:01:04.969,6784969,0.4676556993329369,-10.342638022596866,0.2427474002142307,12.79240723336421,-23.169658853370475,6.43393513799368,311.4910946262927,108.5447371592029,-108.56009983174071
2,2021-07-02 11:01:04.976,6784976,0.46785677356580024,-10.341430035442142,0.2433191719479798,12.773546328262393,-23.147301532400856,6.469293774495476,311.77630618592707,108.85335978241663,-108.12091927448377
2,2021-07-02 11:01:04.983,6784983,0.4680292060839259,-10.340247219070351,0.24363580104803595,12.754949562614982,-23.124999045724323,6.504379243184517,312.0577366664793,109.16072567314731,-107.68400547573358
2,2021-07-02 11:01:04.988,6784988,0.468174019150159,-10.339089426548046,0.24369260576643967,12.736631049879248,-23.10274412076082,6.53918330360985,312.3348358350703,109.46682592406714,-107.24956488331243
2,2021-07-02 11:01:04.997,6784997,0.4682923027411282,-10.3379564607491,0.24348571919621703,12.71860430799584,-23.08052918091939,6.573698128370794,312.60705614532463,109.7716405841466,-106.81781392098482
2,2021-07-02 11:01:05.003,6785003,0.468385213555167,-10.336848080515677,0.2430120937265354,12.700882099365955,-23.058346379378854,6.607916330730529,312.87385527633944,110.07513840170745,-106.38897841408436
2,2021-07-02 11:01:05.011,6785011,0.4684539738752266,-10.335764006487954,0.24226950183877782,12.683476265225528,-23.036187634343598,6.64183098761519,313.1346987537206,110.37727684279824,-105.96329290734995
2,2021-07-02 11:01:05.019,6785019,0.46849987026195844,-10.334703926215687,0.2412565315273923,12.666397557405176,-23.014044664949537,6.675435657084923,313.38906266944485,110.67800240368292,-105.540999848364
2,2021-07-02 11:01:05.027,6785027,0.46852425205058357,-10.33366749835011,0.23997257523107873,12.649655470246492,-22.991909026957828,6.708724390174391,313.63643651697066,110.97725123615133,-105.12234861016552
2,2021-07-02 11:01:05.034,6785034,0.4685285295869189,-10.33265435586308,0.23841781247571261,12.633258075227715,-22.96977214812582,6.741691737463447,313.8763261576549,111.27495010427603,-104.70759432680568
2,2021-07-02 11:01:05.039,6785039,0.46851417211814056,-10.331664108338336,0.23659318720587563,12.617211860871974,-22.947625363627463,6.77433275083804,314.10825692546354,111.57101768055645,-104.29699652449223
2,2021-07-02 11:01:05.047,6785047,0.46848270529849717,-10.330696343505277,0.23450038076977128,12.601521580105342,-22.92545995150884,6.806642980953072,314.33177683318735,111.86536613631847,-103.89081757454234
2,2021-07-02 11:01:05.054,6785054,0.4684357083516603,-10.329750628393791,0.23214178134081262,12.586190106826674,-22.903267167453524,6.838618470818049,314.54645976488524,112.15790288577634,-103.48932107262969
2,2021-07-02 11:01:05.061,6785061,0.4683748109716134,-10.328826510586554,0.2295204505425671,12.571218303322635,-22.881038277855296,6.870255745843056,314.75190849544157,112.44853229008217,-103.09277029241692
2,2021-07-02 11:01:05.069,6785069,0.4683016900015695,-10.327923519812318,0.22664008824701662,12.556604899859318,-22.85876459066074,6.9015518010098065,314.9477574209532,112.73715718056255,-102.70142681858805
2,2021-07-02 11:01:05.074,6785074,0.46821806584673914,-10.32704116971162,0.22350499699422613,12.542346387519567,-22.83643748443778,6.932504086309506,315.1336749611465,113.02368015559581,-102.31554938655847
2,2021-07-02 11:01:05.082,6785082,0.46812569855293557,-10.326178959396332,0.22012004770343582,12.528436925290245,-22.814048436684782,6.963110491797525,315.30936563780296,113.30800465844703,-101.9353929130965
2,2021-07-02 11:01:05.090,6785090,0.4680263836155206,-10.325336374581962,0.21649064765201353,12.514868262228251,-22.79158905183134,6.993369333554372,315.47457184125324,113.59003585384966,-101.56120769374195
2,2021-07-02 11:01:05.097,6785097,0.4679219478260943,-10.324512888389922,0.2126227105429484,12.50162967549266,-22.76905108843857,7.0232793415053125,315.6290752963865,113.86968132099398,-101.19323874324404
2,2021-07-02 11:01:05.104,6785104,0.4678142455786795,-10.323707962032994,0.20852262789385834,12.488707925367711,-22.746426484826394,7.0528396493977565,315.7726982389958,114.14685158044676,-100.8317252555934
2,2021-07-02 11:01:05.112,6785112,0.46770515590507994,-10.322921045400971,0.204197241180634,12.476087228690826,-22.72370738269073,7.082049786550625,315.90530431263466,114.42146047238496,-100.47690016059033
2,2021-07-02 11:01:05.120,6785120,0.4675965802698218,-10.322151577316477,0.19965381458912637,12.463749251962128,-22.700886148545067,7.110909670818358,316.0267991955003,114.69342540337998,-100.12898975427566
2,2021-07-02 11:01:05.126,6785126,0.46749044101702847,-10.32139898514031,0.19490000851160455,12.451673125115368,-22.677955392855047,7.139419602625061,316.13713096619364,114.96266747881575,-99.78821338094684
2,2021-07-02 11:01:05.133,6785133,0.46738868029716113,-10.320662683388317,0.18994385415350815,12.439835476948586,-22.654907986863254,7.167580260305661,316.23629021652533,115.22911153786713,-99.45478314489483
2,2021-07-02 11:01:05.141,6785141,0.4672932592786138,-10.319942071045913,0.18479372981778922,12.428210493364476,-22.631737077268703,7.195392697064049,316.3243099188564,115.49268610780123,-99.1289036304231
2,2021-07-02 11:01:05.148,6785148,0.4672061574998503,-10.319236527464884,0.17945833972795389,12.416769999546915,-22.608436098982203,7.222858339741953,316.40126505477497,115.75332329419734,-98.81077160914946
2,2021-07-02 11:01:05.157,6785157,0.4671293723007568,-10.318545407058933,0.17394669681536207,12.405483567285799,-22.584998786384702,7.249978989215213,316.4672720112239,116.0109586235087,-98.50057571404398
2,2021-07-02 11:01:05.164,6785164,0.4670649182630848,-10.317868033226679,0.16826811113164622,12.394318648572712,-22.561419183689825,7.2767568218730885,316.52248775143545,116.26553085421207,-98.1984960620482
2,2021-07-02 11:01:05.170,6785170,0.46701482632384583,-10.317203691968507,0.16243218462913453,12.383240735329377,-22.537691654774854,7.303194391480573,316.5671087769827,116.51698177261109,-97.90470381723061
2,2021-07-02 11:01:05.176,6785176,0.4669811417298662,-10.316551625705914,0.15644881147542222,12.37221354300762,-22.513810892551444,7.329294630346948,316.60136991392227,116.76525598917355,-97.61936070426172
2,2021-07-02 11:01:05.184,6785184,0.4669659198094689,-10.315911027831218,0.15032818215596616,12.361199214511467,-22.489771927828208,7.355060848497379,316.6255429649741,117.01030075109446,-97.34261849212496
2,2021-07-02 11:01:05.191,6785191,0.4669712192274278,-10.315281038332504,0.14408078971419935,12.350158540960525,-22.465570137434334,7.380496730297437,316.6399352593977,117.25206578658432,-97.07461845885699
2,2021-07-02 11:01:05.199,6785199,0.46699909358053093,-10.314660740540864,0.13771743683129828,12.339051196030109,-22.441201251292885,7.405606329057649,316.6448881142494,117.49050319618667,-96.81549083129234
2,2021-07-02 11:01:05.206,6785206,0.46705158262878066,-10.314049158840978,0.13124924259953855,12.327835980406798,-22.416661358399168,7.430394060243066,316.6407752104521,117.72556740622966,-96.5653541846844
2,2021-07-02 11:01:05.213,6785213,0.4671307036451569,-10.313445257099392,0.12468764798646943,12.316471072951773,-22.3919469119892,7.454864693078896,316.6280008845802,117.95721519931415,-96.32431478568613
2,2021-07-02 11:01:05.220,6785220,0.4672384424078464,-10.312847937537933,0.11804441921351295,12.304914285792053,-22.367054734109814,7.479023339762354,316.6069983366826,118.18540583653605,-96.09246586272079
2,2021-07-02 11:01:05.226,6785226,0.46737674338333385,-10.312256039734285,0.111331648426396,12.293123321421884,-22.341982019238458,7.502875441668471,316.5782277539077,118.41010128593311,-95.86988678832653
2,2021-07-02 11:01:05.233,6785233,0.4675474993534703,-10.311668339312753,0.10456175106113198,12.281056030566685,-22.316726335973968,7.526426752210394,316.54217434916507,118.63126657143496,-95.65664215861884
2,2021-07-02 11:01:05.242,6785242,0.46775254115037557,-10.311083545838134,0.09774745931340754,12.26867066998453,-22.291285625626873,7.549683316153429,316.49934631354785,118.84887025638305,-95.45278075558117
2,2021-07-02 11:01:05.249,6785249,0.46799362789379423,-10.310500299641848,0.09090181121568708,12.25592616006873,-22.265658197087575,7.572651445668737,316.4502726807667,119.06288507547137,-95.25833437846423
2,2021-07-02 11:01:05.255,6785255,0.4682724375485135,-10.309917167681881,0.0840381349876717,12.242782343235472,-22.23984271847693,7.5953376941049875,316.39550110139436,119.27328872874146,-95.07331653114971
2,2021-07-02 11:01:05.261,6785261,0.4685905573182742,-10.309332638777096,0.07717002855195694,12.229200244653393,-22.213838206806916,7.617748828777741,316.3355955243055,119.4800648510459,-94.8977209529121
2,2021-07-02 11:01:05.266,6785266,0.4689494735878273,-10.308745118648506,0.07031133475497914,12.215142336067805,-22.187644016701782,7.639891803861119,316.27113378231275,119.68320417017321,-94.73151998059076
2,2021-07-02 11:01:05.271,6785271,0.4693505615406848,-10.308152925324077,0.06347611398605517,12.200572802025945,-22.161259828934057,7.661773733951294,316.2027050786459,119.88270586660508,-94.57466273076612
2,2021-07-02 11:01:05.278,6785278,0.4697950747985108,-10.307554285546288,0.056678616473122355,12.185457806732103,-22.134685639383914,7.683401868522621,316.1309073744636,120.07857913802034,-94.42707310074562
2,2021-07-02 11:01:05.287,6785287,0.4702841352973453,-10.306947332711191,0.04993325556370692,12.16976575850786,-22.107921748489495,7.70478356748074,316.05634469656775,120.27084492327228,-94.2886476359083
2,2021-07-02 11:01:05.293,6785293,0.4708187233289458,-10.306330106702049,0.04325458157038486,12.153467566810688,-22.080968750533145,7.725926278000833,315.97962441892753,120.45953765364511,-94.15925339822752
2,2021-07-02 11:01:05.300,6785300,0.471399667563319,-10.305700555892983,0.03665725482371382,12.136536885569543,-22.05382752185987,7.746837512792056,315.90135459067795,120.64470685080914,-94.03872601952557
2,2021-07-02 11:01:05.305,6785305,0.4720276351515683,-10.305056541519361,0.030156016830659528,12.118950337626893,-22.026499207681372,7.767524830087686,315.82214136382083,120.8264184388356,-93.9268680754137
2,2021-07-02 11:01:05.310,6785310,0.4727031225486304,-10.304395844528422,0.023765659141186637,12.100687716887798,-21.99898520831591,7.7879958158591025,315.7425865390461,121.00475572410949,-93.82344782972994
2,2021-07-02 11:01:05.315,6785315,0.4734264479970185,-10.303716174976865,0.017500989919885673,12.081732165764667,-21.971287166374047,7.808258068855932,315.66328522872897,121.17982004492592,-93.72819835166796
2,2021-07-02 11:01:05.320,6785320,0.47419774640419865,-10.303015183995328,0.01137679818422652,12.062070326034736,-21.943406955622606,7.828319189163564,315.5848236322469,121.35173110197705,-93.64081699869007
2,2021-07-02 11:01:05.326,6785326,0.4750169669585461,-10.30229047825135,0.005407815563399704,12.041692461841409,-21.91534667106297,7.848186770687357,315.5077769187398,121.52062698072834,-93.56096525883623
2,2021-07-02 11:01:05.335,6785335,0.47588387364336293,-10.301539636735582,-0.00039132451018050366,12.020592554088864,-21.887108619385025,7.867868397122663,315.4327072124512,121.6866638764827,-93.4882689465425
2,2021-07-02 11:01:05.340,6785340,0.4767980487378641,-10.300760229607395,-0.006006130150670926,11.998768365791419,-21.858695309081227,7.8873716404519065,315.3601616758397,121.85001553273727,-93.42231874656683
2,2021-07-02 11:01:05.347,6785347,0.4777588991212667,-10.299949838696802,-0.011422296782715344,11.97622147844811,-21.830109439533604,7.906704061629907,315.29067068573744,122.01087240325262,-93.36267110108147
2,2021-07-02 11:01:05.354,6785354,0.47876566470275744,-10.299106079009862,-0.016625755017009636,11.952957300463847,-21.8013538884467,7.925873214244639,315.22474609795125,122.1694405480785,-93.30884943543145
2,2021-07-02 11:01:05.360,6785360,0.4798174279997313,-10.298226620431398,-0.02160272018175138,11.928985049218062,-21.772431697083427,7.944886652443059,315.16287959586055,122.32594027361608,-93.26034571847288
2,2021-07-02 11:01:05.368,6785368,0.48091312399985026,-10.297309208941012,-0.02633974299160896,11.904317707950336,-21.74334605270273,7.963751943840237,315.1055411187497,122.48060452664237,-93.21662235379164
2,2021-07-02 11:01:05.373,6785373,0.48205154965208424,-10.29635168686301,-0.030823760699121877,11.878971957948648,-21.714100267587664,7.982476686911483,315.0531773658342,122.6336770520834,-93.17711439846103
2,2021-07-02 11:01:05.380,6785380,0.48323137247251896,-10.29535201178355,-0.035042147945030425,11.852968086190131,-21.684697754160467,8.001068531654496,315.00621037218804,122.78541032419508,-93.14123210632283
2,2021-07-02 11:01:05.387,6785387,0.4844511380567089,-10.294308273871597,-0.0389827665687803,11.826329868359824,-21.65514199593203,8.019535202718108,314.96503615305824,122.93606326069786,-93.10836379307072
2,2021-07-02 11:01:05.393,6785393,0.4857092767479156,-10.293218711461899,-0.04263401366607777,11.79908442706027,-21.62543651459189,8.037884524967511,314.9300234133572,123.08589872931411,-93.07787902067271
2,2021-07-02 11:01:05.401,6785401,0.4870041099428794,-10.292081724824456,-0.04598486721438196,11.771262065079044,-21.595584834009205,8.056124451708353,314.9015123213827,123.23518086185429,-93.04913209118585
2,2021-07-02 11:01:05.409,6785409,0.48833385631704046,-10.290895888056076,-0.04902492898677627,11.742896073826808,-21.56559044204788,8.074263095191935,314.8798133558034,123.38417221983006,-93.0214658016703
2,2021-07-02 11:01:05.416,6785416,0.48969663783990863,-10.28965995902674,-0.051744465116169515,11.714022517661002,-21.535456751445256,8.092308757736886,314.8652062526657,123.53313090754038,-92.99421534269821
2,2021-07-02 11:01:05.422,6785422,0.4910904852651311,-10.288372887333633,-0.05413444500126299,11.684679995327736,-21.50518706122381,8.110269960990273,314.8579390892107,123.68230775744016,-92.96671218452913
2,2021-07-02 11:01:05.429,6785429,0.492513343080651,-10.287033820327464,-0.05618657904344431,11.65490937997384,-21.474784519346127,8.12815547127138,314.85822753207367,123.83194368368538,-92.93828783362058
2,2021-07-02 11:01:05.435,6785435,0.4939630744853865,-10.285642107479351,-0.05789335527196466,11.62475353971864,-21.444252086177364,8.145974319646612,314.86625426053854,123.98226724772773,-92.90827741152498
2,2021-07-02 11:01:05.440,6785440,0.49543746724568,-10.284197303472943,-0.059248074706749476,11.594257041267447,-21.41359249781338,8.163735815742111,314.88216856633386,124.13349245094639,-92.87602304674046
2,2021-07-02 11:01:05.448,6785448,0.49693424091892746,-10.282699170311254,-0.060244885557538916,11.56346583892779,-21.382808228679938,8.18144955478577,314.90608612999756,124.28581676355282,-92.84087707773224
2,2021-07-02 11:01:05.456,6785456,0.4984510552303752,-10.281147678559108,-0.06087881687249988,11.532426951436701,-21.351901453724658,8.199125417934944,314.93808897431234,124.43941939904575,-92.80220506524402
2,2021-07-02 11:01:05.463,6785463,0.49998551898619986,-10.27954300772863,-0.06114581243840289,11.501188129373597,-21.320874011076207,8.21677356629021,314.97822559579777,124.59445984354875,-92.75938861188116
2,2021-07-02 11:01:05.469,6785469,0.5015351989808922,-10.277885545674046,-0.0610427650897393,11.469797516428525,-21.28972736557162,8.234404429403313,315.0265112757374,124.75107664942945,-92.71182798676936
2,2021-07-02 11:01:05.474,6785474,0.5030976285649847,-10.276175886652064,-0.06056755040801141,11.438303309059988,-21.258462572762973,8.252028689653875,315.0829285727161,124.90938650267742,-92.65894455287628
2,2021-07-02 11:01:05.481,6785481,0.5046703156643223,-10.274414827604417,-0.05971905804184832,11.406753420035825,-21.22708024266764,8.269657264159973,315.1474279991437,125.06948357360564,-92.60018299432875
2,2021-07-02 11:01:05.489,6785489,0.506250750194655,-10.272603362394992,-0.058497218814624996,11.375195150701435,-21.19558050262152,8.287301285641814,315.21992888473926,125.23143916053613,-92.53501334076668
2,2021-07-02 11:01:05.498,6785498,0.5078364109907406,-10.270742674125902,-0.05690302581372931,11.343674876062828,-21.163962959124596,8.304972083056958,315.30032043045355,125.39530163623415,-92.46293278544753
2,2021-07-02 11:01:05.506,6785506,0.5094247723238206,-10.268834126158994,-0.0549385478844818,11.312237746492082,-21.132226659350717,8.322681162035979,315.3884629568012,125.56109670696446,-92.3834672934546
2,2021-07-02 11:01:05.512,6785512,0.5110133097601409,-10.266879252971556,-0.052606934903991855,11.280927408495689,-21.10037005346027,8.340440184311085,315.4841893510678,125.72882799415609,-92.29617299596767
2,2021-07-02 11:01:05.520,6785520,0.5125995049021288,-10.264879752068392,-0.049912415309091615,11.24978574473736,-21.068390958641594,8.358260944960637,315.58730671834167,125.89847794877967,-92.20063736613061
2,2021-07-02 11:01:05.526,6785526,0.5141808488297184,-10.26283747745748,-0.046860286947824924,11.218852631734638,-21.036286525246865,8.376155346571347,315.6975982417962,126.07000910865818,-92.09648017159637
2,2021-07-02 11:01:05.533,6785533,0.515754844629148,-10.26075443405883,-0.043456902718039335,11.188165712542643,-21.004053205143723,8.394135369731062,315.8148252581158,126.24336570905155,-91.9833541983484
2,2021-07-02 11:01:05.541,6785541,0.5173190097180742,-10.258632771788626,-0.039709652626607514,11.157760181424774,-20.971686722459424,8.412213039442653,315.9387295476695,126.41847564830253,-91.86094574278097
2,2021-07-02 11:01:05.549,6785549,0.518870878546883,-10.256474778269505,-0.03562694344125826,11.127668578557603,-20.939182047013055,8.430400387591172,316.0690358057628,126.59525276709863,-91.72897488294032
2,2021-07-02 11:01:05.556,6785556,0.520408005966124,-10.254282869611352,-0.031218176384860356,11.09792059475184,-20.90653337114987,8.448709412383737,316.2054542010373,126.77359932199043,-91.58719556528584
2,2021-07-02 11:01:05.562,6785562,0.5219279713793618,-10.252059579017125,-0.026493722870459202,11.068542887570688,-20.87373409098367,8.467152036082588,316.34768289378417,126.95340849056606,-91.43539555720912
2,2021-07-02 11:01:05.569,6785569,0.5234283837218587,-10.249807543232322,-0.021464897915912412,11.03955891113878,-20.840776792554973,8.485740062153114,316.4954104210454,127.13456678913103,-91.27339630051144
2,2021-07-02 11:01:05.576,6785576,0.5249068872218883,-10.247529487226839,-0.016143930403629974,11.010988763448811,-20.807653242692723,8.504485132458525,316.64831791644144,127.3169563618668,-91.10105267442837
2,2021-07-02 11:01:05.584,6785584,0.5263611678774351,-10.245228207730243,-0.01054392904763096,10.982849055990934,-20.774354384050095,8.52339868480932,316.80608116673665,127.50045714387815,-90.91825266172442
2,2021-07-02 11:01:05.591,6785591,0.5277889607406782,-10.242906556198418,-0.0046788429480354166,10.955152809653615,-20.740870333751367,8.542491911089895,316.9683725142349,127.68494890929253,-90.72491690786386
2,2021-07-02 11:01:05.599,6785599,0.5291880583034898,-10.240567421719021,0.0014365842217150479,10.927909379527188,-20.707190385479382,8.561775715973067,317.134862614417,127.87031321565041,-90.52099816262734
2,2021-07-02 11:01:05.605,6785605,0.5305563199999814,-10.2382137143847,0.0077868668173430725,10.901124410556797,-20.67330301588872,8.58126067576981,317.30522205853157,128.05643525589383,-90.30648059290094
2,2021-07-02 11:01:05.612,6785612,0.5318916819490057,-10.23584834961131,0.01435583594664137,10.874799824944345,-20.639195897426674,8.600956996577553,317.4791228711291,128.2432056293217,-90.0813789547162
2,2021-07-02 11:01:05.617,6785617,0.5331921654144234,-10.233474233698,0.02112670286680923,10.848933840773372,-20.60485591979803,8.62087447100485,317.65623989278794,128.43052204293437,-89.84573761196876
2,2021-07-02 11:01:05.623,6785623,0.5344558828496407,-10.231094250709381,0.02808212591770986,10.823521020379426,-20.570269220961748,8.64102243337872,317.8362520585206,128.61829095463727,-89.59962938859101
2,2021-07-02 11:01:05.628,6785628,0.5356810414983664,-10.228711250561565,0.035204280488685395,10.7985523462268,-20.535421226978062,8.661409713843675,318.0188435825656,128.80642916981293,-89.34315424030342
2,2021-07-02 11:01:05.633,6785633,0.5368659455783045,-10.226328038041892,0.04247493157935288,10.774015321045862,-20.500296699488764,8.68204459167245,318.2037050604701,128.99486540280546,-89.07643773142013
2,2021-07-02 11:01:05.638,6785638,0.5380089984398612,-10.223947362436522,0.04987550837964412,10.749894088436324,-20.46487978973247,8.702934747901384,318.39053449954605,129.1835418148898,-88.79962930154109
2,2021-07-02 11:01:05.643,6785643,0.539108705423254,-10.22157190750888,0.05738718057933009,10.726169570642968,-20.42915409817802,8.724087217576173,318.57903828894246,129.37241554032104,-88.51290030632448
2,2021-07-02 11:01:05.650,6785650,0.5401636769355651,-10.219204281695914,0.06499093662090144,10.702819621089906,-20.393102739197506,8.745508342193261,318.768932120717,129.56146021207857,-88.21644181590311
2,2021-07-02 11:01:05.657,6785657,0.541172630650938,-10.216847008453664,0.07266766434660613,10.679819189790464,-20.356708410443062,8.76720372307221,318.9599418705212,129.7506674921918,-87.91046216448353
2,2021-07-02 11:01:05.667,6785667,0.5421343922399273,-10.214502516647103,0.08039823429582617,10.657140500121622,-20.31995346640666,8.789178176465695,319.15180443216866,129.94004857783273,-87.59518429703675
2,2021-07-02 11:01:05.674,6785674,0.5430478950652025,-10.2121731307971,0.08816358546136427,10.63475323590149,-20.282819995408648,8.811435691230416,319.34426847443217,130.12963559368367,-87.27084305375614
2,2021-07-02 11:01:05.681,6785681,0.5439121798156181,-10.20986106098873,0.09594481299720475,10.612624738014048,-20.245289899247673,8.83397938981216,319.53709507403676,130.31948274738554,-86.93768258535248
2,2021-07-02 11:01:05.688,6785688,0.5447263946755456,-10.207568392448122,0.10372325725459199,10.59072020993991,-20.207344974951347,8.85681149302312,319.7300581933165,130.5096671585978,-86.59595403870279
2,2021-07-02 11:01:05.695,6785695,0.5454897958375919,-10.205297075168014,0.1114805933193825,10.5690029317119,-20.168966998612408,8.8799332885383,319.9229449970513,130.70028933290297,-86.24591355644543
2,2021-07-02 11:01:05.703,6785703,0.546201747768611,-10.203048914197623,0.1191989200964158,10.547434481901165,-20.130137811610396,8.903345102676298,320.1155560174706,130.89147328551994,-85.88782058058976
2,2021-07-02 11:01:05.710,6785710,0.5468617229758803,-10.200825561172193,0.12686084830699654,10.525974966945231,-20.090839408916548,8.927046275189614,320.3077051793113,131.08336632655627,-85.52193643908434
2,2021-07-02 11:01:05.717,6785717,0.5474693017202692,-10.198628507576263,0.13444958725879042,10.504583256643198,-20.051054028228858,8.95103513702081,320.49921969681054,131.2761385195568,-85.14852319377563
2,2021-07-02 11:01:05.725,6785725,0.548024172469295,-10.196459080213119,0.14194903043277893,10.483217224273298,-20.010764238293024,8.97530899113288,320.68993985450106,131.46998182514182,-84.7678427276925
2,2021-07-02 11:01:05.731,6785731,0.5485261335029566,-10.194318439294713,0.14934383963085776,10.461833989273295,-19.969953025241594,8.999864097021852,320.8797186836461,131.6651089415733,-84.38015604911183
2,2021-07-02 11:01:05.738,6785738,0.5489750953283786,-10.19220757946227,0.1566195267501249,10.44039015940148,-19.928603876985953,9.024695660129781,321.0684215461143,131.86175185414257,-83.98572278939618
2,2021-07-02 11:01:05.744,6785744,0.5493710830965274,-10.19012733370495,0.16376253180946565,10.418842067954817,-19.88670086677048,9.049797827196295,321.2559256374449,132.06016010533955,-83.58480087114631
2,2021-07-02 11:01:05.751,6785751,0.5497142382937196,-10.188078379424466,0.17076029617271324,10.39714600057694,-19.844228737045068,9.075163687522007,321.44211942079784,132.26059879784395,-83.1776463227797
2,2021-07-02 11:01:05.758,6785758,0.5500048193036452,-10.186061245367055,0.17760133061962705,10.375258406240313,-19.801172983902397,9.100785279399526,321.6269020034162,132.46334634247322,-82.76451321522971
2,2021-07-02 11:01:05.766,6785766,0.550243200652942,-10.18407631833448,0.18427527842060404,10.353136088362715,-19.757519941217808,9.126653601402998,321.81018246715524,132.66869196333138,-82.34565369606044
2,2021-07-02 11:01:05.773,6785773,0.550429870713343,-10.18212384905158,0.19077297381853703,10.33073637367586,-19.713256863341925,9.15275862882006,321.99187916455276,132.8769329725289,-81.92131809590747
2,2021-07-02 11:01:05.780,6785780,0.5505654274325873,-10.180203956776648,0.19708649629788677,10.308017257447283,-19.668372006084365,9.17908933513072,322.17191899182876,133.08837183083912,-81.49175508371314
2,2021-07-02 11:01:05.787,6785787,0.5506505717411881,-10.178316632467922,0.2032092202461587,10.284937524448077,-19.62285470658269,9.205633717426112,322.3502366501096,133.3033130300843,-81.05721185650437
2,2021-07-02 11:01:05.795,6785795,0.5506860988533838,-10.17646174086823,0.20913585807290647,10.261456846179266,-19.576695462289337,9.232378823939904,322.5267739060745,133.52205986789988,-80.61793436646263
2,2021-07-02 11:01:05.802,6785802,0.5506728882150966,-10.174639022303593,0.2148624939197844,10.23753585556094,-19.529886008244105,9.259310781973877,322.70147886312196,133.74491120499025,-80.17416759734647
2,2021-07-02 11:01:05.809,6785809,0.550611892871598,-10.172848094901752,0.22038660579315764,10.21313620002913,-19.48241939120792,9.286414825223172,322.8743052540461,133.97215827593806,-79.72615589238657
2,2021-07-02 11:01:05.814,6785814,0.5505041288085453,-10.171088457626206,0.22570707528944856,10.188220573534123,-19.434290039399414,9.313675320040398,323.0452117661035,134.20408159018595,-79.27414331814278
2,2021-07-02 11:01:05.819,6785819,0.5503506646700054,-10.16935949432112,0.23082418487696954,10.16275272777259,-19.385493826780802,9.341075790394616,323.21416140924083,134.44094794079598,-78.81837403890233
2,2021-07-02 11:01:05.825,6785825,0.5501526120703241,-10.167660478753177,0.23573960317090562,10.136697462948488,-19.336028130554084,9.368598941702578,323.3811209381348,134.68300753500972,-78.35909267401041
2,2021-07-02 11:01:05.837,6785837,0.5499111164656769,-10.16599058034892,0.24045635920252778,10.110020598539272,-19.285891880132436,9.396226684216805,323.54606033857897,134.93049126091944,-77.89654461027759
2,2021-07-02 11:01:05.848,6785848,0.5496273484150551,-10.164348870190155,0.24497880698259067,10.08268892475476,-19.23508559574746,9.42394015689273,323.70895238863267,135.1836081048649,-77.43097624137705
2,2021-07-02 11:01:05.860,6785860,0.5493024951036476,-10.162734327029451,0.24931258130767883,10.054670135434662,-19.183611415269773,9.451719752641027,323.8697723048233,135.44254273448956,-76.96263510592802
2,2021-07-02 11:01:05.871,6785871,0.548937752099999,-10.161145843484578,0.2534645449356621,10.025932743582203,-19.13147310911418,9.47954514557743,324.02849748356977,135.70745326272305,-76.49176989576048
2,2021-07-02 11:01:05.884,6785884,0.5485343153478858,-10.15958223283893,0.25744272647071287,9.996445981425605,-19.078676084583936,9.507395320508499,324.1851073478672,135.97846920830355,-76.01863030567004
