imu,time,ax,ay,az,gx,gy,gz,mx,my,mz
1,7591823,442,-1321,-918,-1491,-298,-36,427,35,-109
1,7591830,443,-1325,-920,-1495,-303,-37,427,35,-109
1,7591838,443,-1325,-920,-1495,-303,-37,427,35,-109
1,7591846,442,-1323,-919,-1497,-298,-38,427,35,-109
1,7591855,442,-1323,-919,-1497,-298,-38,427,35,-109
1,7591862,442,-1323,-919,-1497,-298,-38,427,35,-109
1,7591872,441,-1324,-911,-1492,-297,-37,425,37,-113
1,7591879,441,-1324,-911,-1492,-297,-37,425,37,-113
1,7591887,445,-1329,-919,-1489,-299,-40,425,37,-113
1,7591895,445,-1329,-919,-1489,-299,-40,425,37,-113
1,7591903,445,-1329,-919,-1489,-299,-40,425,37,-113
1,7591911,441,-1325,-920,-1495,-300,-44,425,37,-113
1,7591919,441,-1325,-920,-1495,-300,-44,425,37,-113
1,7591927,439,-1325,-918,-1495,-302,-40,425,37,-113
1,7591934,439,-1325,-918,-1495,-302,-40,425,37,-113
1,7591942,439,-1325,-918,-1495,-302,-40,425,37,-113
1,7591949,443,-1325,-919,-1485,-300,-37,425,37,-113
1,7591956,443,-1325,-919,-1485,-300,-37,425,37,-113
1,7591963,443,-1325,-919,-1485,-300,-37,425,37,-113
1,7591971,446,-1324,-918,-1489,-296,-37,425,37,-113
1,7591979,446,-1324,-918,-1489,-296,-37,425,37,-113
1,7591987,444,-1325,-915,-1488,-303,-40,426,36,-110
1,7591996,444,-1325,-915,-1488,-303,-40,426,36,-110
1,7592004,444,-1325,-915,-1488,-303,-40,426,36,-110
1,7592011,440,-1326,-921,-1490,-296,-38,426,36,-110
1,7592018,440,-1326,-921,-1490,-296,-38,426,36,-110
1,7592027,440,-1325,-914,-1487,-291,-46,426,36,-110
1,7592034,440,-1325,-914,-1487,-291,-46,426,36,-110
1,7592041,440,-1325,-914,-1487,-291,-46,426,36,-110
1,7592048,442,-1326,-916,-1490,-293,-43,426,36,-110
1,7592055,442,-1326,-916,-1490,-293,-43,426,36,-110
1,7592061,442,-1326,-916,-1490,-293,-43,426,36,-110
1,7592069,443,-1326,-915,-1490,-300,-40,426,36,-110
1,7592077,443,-1326,-915,-1490,-300,-40,426,36,-110
1,7592085,443,-1326,-915,-1490,-300,-40,426,36,-110
1,7592093,442,-1326,-917,-1489,-306,-38,426,36,-110
1,7592101,442,-1326,-917,-1489,-306,-38,426,36,-110
1,7592111,439,-1324,-922,-1489,-298,-38,427,41,-117
1,7592119,439,-1324,-922,-1489,-298,-38,427,41,-117
1,7592127,442,-1322,-916,-1485,-304,-35,427,41,-117
1,7592135,442,-1322,-916,-1485,-304,-35,427,41,-117
1,7592145,442,-1322,-916,-1485,-304,-35,427,41,-117
1,7592159,445,-1321,-918,-1489,-296,-36,427,41,-117
1,7592172,442,-1325,-923,-1486,-299,-37,427,41,-117
1,7592185,442,-1325,-923,-1486,-299,-37,427,41,-117
1,7592198,445,-1326,-919,-1479,-304,-42,427,41,-117
1,7592210,441,-1324,-924,-1486,-306,-46,427,41,-117
1,7592223,441,-1324,-924,-1486,-306,-46,427,41,-117
1,7592237,441,-1326,-913,-1492,-297,-40,425,33,-113
1,7592249,443,-1327,-915,-1486,-296,-41,425,33,-113
1,7592264,443,-1327,-915,-1486,-296,-41,425,33,-113
1,7592276,441,-1323,-920,-1485,-301,-44,425,33,-113
1,7592289,444,-1325,-916,-1487,-299,-36,425,33,-113
1,7592302,444,-1325,-916,-1487,-299,-36,425,33,-113
1,7592313,437,-1328,-917,-1491,-304,-39,425,33,-113
1,7592325,437,-1328,-917,-1491,-304,-39,425,33,-113
1,7592339,442,-1327,-919,-1494,-301,-35,425,33,-113
1,7592353,441,-1323,-922,-1491,-293,-34,425,33,-113
1,7592364,441,-1323,-922,-1491,-293,-34,425,33,-113
1,7592376,444,-1327,-914,-1493,-297,-37,431,33,-105
1,7592389,443,-1324,-918,-1488,-301,-44,431,33,-105
1,7592402,443,-1324,-918,-1488,-301,-44,431,33,-105
1,7592413,440,-1323,-922,-1486,-302,-37,431,33,-105
1,7592423,440,-1323,-922,-1486,-302,-37,431,33,-105
1,7592437,443,-1326,-918,-1490,-307,-40,431,33,-105
1,7592451,441,-1325,-917,-1496,-305,-42,431,33,-105
1,7592459,441,-1325,-917,-1496,-305,-42,431,33,-105
1,7592469,442,-1326,-917,-1487,-293,-45,431,33,-105
1,7592480,442,-1326,-917,-1487,-293,-45,431,33,-105
1,7592491,443,-1323,-911,-1487,-298,-39,431,35,-111
1,7592505,443,-1323,-911,-1487,-298,-39,431,35,-111
1,7592520,443,-1322,-914,-1488,-299,-38,431,35,-111
1,7592534,439,-1324,-916,-1485,-302,-41,431,35,-111
1,7592547,444,-1324,-920,-1494,-301,-45,431,35,-111
1,7592560,444,-1324,-920,-1494,-301,-45,431,35,-111
1,7592572,443,-1325,-917,-1485,-307,-41,431,35,-111
1,7592580,443,-1325,-917,-1485,-307,-41,431,35,-111
1,7592586,443,-1325,-917,-1485,-307,-41,431,35,-111
1,7592592,442,-1323,-919,-1482,-306,-41,431,35,-111
1,7592600,442,-1323,-919,-1482,-306,-41,431,35,-111
1,7592609,440,-1324,-915,-1482,-302,-33,428,34,-112
1,7592614,440,-1324,-915,-1482,-302,-33,428,34,-112
1,7592620,440,-1324,-915,-1482,-302,-33,428,34,-112
1,7592625,440,-1324,-915,-1482,-302,-33,428,34,-112
1,7592632,438,-1323,-918,-1488,-297,-43,428,34,-112
1,7592639,438,-1323,-918,-1488,-297,-43,428,34,-112
1,7592647,440,-1325,-921,-1494,-289,-41,428,34,-112
1,7592654,440,-1325,-921,-1494,-289,-41,428,34,-112
1,7592659,440,-1325,-921,-1494,-289,-41,428,34,-112
1,7592665,440,-1325,-921,-1494,-289,-41,428,34,-112
1,7592670,443,-1323,-918,-1485,-304,-41,428,34,-112
1,7592675,443,-1323,-918,-1485,-304,-41,428,34,-112
1,7592680,443,-1323,-918,-1485,-304,-41,428,34,-112
1,7592685,443,-1323,-918,-1485,-304,-41,428,34,-112
1,7592691,441,-1325,-921,-1486,-304,-36,428,34,-112
1,7592699,441,-1325,-921,-1486,-304,-36,428,34,-112
1,7592707,441,-1325,-921,-1486,-304,-36,428,34,-112
1,7592712,444,-1326,-920,-1493,-303,-46,428,34,-112
1,7592716,444,-1326,-920,-1493,-303,-46,428,34,-112
1,7592721,444,-1326,-920,-1493,-303,-46,428,34,-112
1,7592727,443,-1321,-912,-1490,-302,-42,429,37,-112
1,7592732,443,-1321,-912,-1490,-302,-42,429,37,-117
1,7592737,443,-1321,-912,-1490,-302,-42,429,37,-117
1,7592744,443,-1321,-912,-1490,-302,-42,429,37,-117
1,7592752,442,-1326,-916,-1490,-298,-46,429,37,-117
1,7592759,442,-1326,-916,-1490,-298,-46,429,37,-117
1,7592766,442,-1326,-916,-1490,-298,-46,429,37,-117
1,7592773,444,-1325,-916,-1496,-299,-36,429,37,-117
1,7592780,444,-1325,-916,-1496,-299,-36,429,37,-117
1,7592786,443,-1323,-917,-1493,-301,-48,429,37,-117
1,7592793,443,-1323,-917,-1493,-301,-48,429,37,-117
1,7592800,443,-1323,-917,-1493,-301,-48,429,37,-117
1,7592807,442,-1325,-919,-1492,-300,-50,429,37,-117
1,7592815,442,-1325,-919,-1492,-300,-50,429,37,-117
1,7592822,442,-1325,-919,-1492,-300,-50,429,37,-117
1,7592830,440,-1323,-918,-1489,-297,-44,429,37,-117
1,7592837,440,-1323,-918,-1489,-297,-44,429,37,-117
1,7592844,440,-1323,-918,-1489,-297,-44,429,37,-117
1,7592849,443,-1323,-923,-1490,-299,-45,429,37,-113
1,7592855,443,-1323,-923,-1490,-299,-45,429,37,-113
1,7592860,443,-1323,-923,-1490,-299,-45,429,37,-113
1,7592867,444,-1324,-914,-1488,-295,-41,429,37,-113
1,7592877,444,-1324,-914,-1488,-295,-41,429,37,-113
1,7592883,444,-1324,-914,-1488,-295,-41,429,37,-113
1,7592890,441,-1326,-917,-1485,-295,-46,429,37,-113
1,7592895,441,-1326,-917,-1485,-295,-46,429,37,-113
1,7592901,441,-1326,-917,-1485,-295,-46,429,37,-113
1,7592908,445,-1320,-919,-1487,-304,-39,429,37,-113
1,7592916,445,-1320,-919,-1487,-304,-39,429,37,-113
1,7592925,445,-1320,-919,-1487,-304,-39,429,37,-113
1,7592931,445,-1325,-918,-1490,-298,-46,429,37,-113
1,7592938,445,-1325,-918,-1490,-298,-46,429,37,-113
1,7592945,445,-1325,-918,-1490,-298,-46,429,37,-113
1,7592953,445,-1324,-921,-1494,-304,-42,429,37,-113
1,7592960,445,-1324,-921,-1494,-304,-42,429,37,-113
1,7592967,443,-1325,-923,-1486,-300,-45,429,37,-113
1,7592975,443,-1325,-923,-1486,-300,-45,429,37,-113
1,7592982,443,-1325,-923,-1486,-300,-45,429,37,-113
1,7592990,443,-1326,-912,-1492,-309,-46,421,39,-107
1,7592997,443,-1326,-912,-1492,-309,-46,421,39,-107
1,7593005,443,-1326,-912,-1492,-309,-46,421,39,-107
1,7593010,441,-1324,-915,-1481,-296,-43,421,39,-107
1,7593018,441,-1324,-915,-1481,-296,-43,421,39,-107
1,7593024,441,-1324,-915,-1481,-296,-43,421,39,-107
1,7593032,438,-1323,-919,-1484,-301,-45,421,39,-107
1,7593038,438,-1323,-919,-1484,-301,-45,421,39,-107
1,7593046,438,-1323,-919,-1484,-301,-45,421,39,-107
1,7593052,440,-1324,-920,-1485,-301,-48,421,39,-107
1,7593059,440,-1324,-920,-1485,-301,-48,421,39,-107
1,7593067,445,-1325,-916,-1483,-301,-44,421,39,-107
1,7593075,445,-1325,-916,-1483,-301,-44,421,39,-107
1,7593083,445,-1325,-916,-1483,-301,-44,421,39,-107
1,7593092,447,-1323,-920,-1486,-301,-39,421,39,-107
1,7593097,447,-1323,-920,-1486,-301,-39,421,39,-107
1,7593104,447,-1323,-920,-1486,-301,-39,421,39,-107
1,7593111,443,-1324,-916,-1485,-300,-38,435,37,-109
1,7593118,443,-1324,-916,-1485,-300,-38,435,37,-109
1,7593124,443,-1324,-916,-1485,-300,-38,435,37,-109
1,7593131,443,-1324,-922,-1494,-302,-41,435,37,-109
1,7593140,443,-1324,-922,-1494,-302,-41,435,37,-109
1,7593147,440,-1325,-915,-1493,-306,-42,435,37,-109
1,7593154,440,-1325,-915,-1493,-306,-42,435,37,-109
1,7593160,440,-1325,-915,-1493,-306,-42,435,37,-109
1,7593168,440,-1322,-921,-1497,-302,-43,435,37,-109
1,7593177,440,-1322,-921,-1497,-302,-43,435,37,-109
1,7593184,440,-1322,-921,-1497,-302,-43,435,37,-109
1,7593192,444,-1325,-920,-1493,-298,-41,435,37,-109
1,7593197,444,-1325,-920,-1493,-298,-41,435,37,-109
1,7593204,444,-1325,-920,-1493,-298,-41,435,37,-109
1,7593210,445,-1324,-916,-1495,-300,-36,435,37,-109
1,7593217,445,-1324,-916,-1495,-300,-36,435,37,-109
1,7593222,445,-1324,-916,-1495,-300,-36,435,37,-109
1,7593227,441,-1326,-912,-1488,-298,-41,431,37,-105
1,7593235,441,-1326,-912,-1488,-298,-41,431,37,-105
1,7593240,441,-1326,-912,-1488,-298,-41,431,37,-105
1,7593247,442,-1325,-916,-1487,-301,-40,431,37,-105
1,7593254,442,-1325,-916,-1487,-301,-40,431,37,-105
1,7593262,442,-1325,-916,-1487,-301,-40,431,37,-105
1,7593269,443,-1323,-922,-1495,-296,-51,431,37,-105
1,7593276,443,-1323,-922,-1495,-296,-51,431,37,-105
1,7593283,443,-1323,-922,-1495,-296,-51,431,37,-105
1,7593291,445,-1321,-920,-1491,-305,-52,431,37,-105
1,7593298,445,-1321,-920,-1491,-305,-52,431,37,-105
1,7593306,445,-1321,-920,-1491,-305,-52,431,37,-105
1,7593314,442,-1323,-921,-1490,-310,-34,431,37,-105
1,7593320,442,-1323,-921,-1490,-310,-34,431,37,-105
1,7593326,442,-1323,-921,-1490,-310,-34,431,37,-105
1,7593334,442,-1323,-921,-1490,-310,-34,431,37,-105
1,7593341,442,-1323,-921,-1490,-310,-34,431,37,-105
1,7593348,439,-1324,-921,-1483,-300,-46,430,34,-112
1,7593355,439,-1324,-921,-1483,-300,-46,430,34,-112
1,7593361,439,-1324,-921,-1483,-300,-46,430,34,-112
1,7593368,441,-1324,-914,-1488,-299,-41,430,34,-112
1,7593374,441,-1324,-914,-1488,-299,-41,430,34,-112
1,7593382,441,-1324,-914,-1488,-299,-41,430,34,-112
1,7593390,446,-1325,-912,-1492,-304,-42,430,34,-112
1,7593395,446,-1325,-912,-1492,-304,-42,430,34,-112
1,7593403,446,-1325,-912,-1492,-304,-42,430,34,-112
1,7593411,444,-1324,-919,-1497,-298,-41,430,34,-112
1,7593418,444,-1324,-919,-1497,-298,-41,430,34,-112
1,7593425,444,-1324,-919,-1497,-298,-41,430,34,-112
1,7593432,442,-1327,-919,-1490,-299,-44,430,34,-112
1,7593440,442,-1327,-919,-1490,-299,-44,430,34,-112
1,7593445,442,-1327,-919,-1490,-299,-44,430,34,-112
1,7593453,442,-1326,-918,-1491,-304,-44,430,34,-112
1,7593460,442,-1326,-918,-1491,-304,-44,430,34,-112
1,7593467,437,-1325,-920,-1487,-301,-38,430,34,-112
1,7593473,437,-1325,-920,-1487,-301,-38,430,34,-112
1,7593481,437,-1325,-920,-1487,-301,-38,430,34,-112
1,7593489,444,-1322,-919,-1491,-297,-38,429,29,-115
1,7593495,444,-1322,-919,-1491,-297,-38,429,29,-115
1,7593504,444,-1322,-919,-1491,-297,-38,429,29,-115
1,7593510,440,-1322,-923,-1486,-301,-36,429,29,-115
1,7593519,440,-1322,-923,-1486,-301,-36,429,29,-115
1,7593525,440,-1322,-923,-1486,-301,-36,429,29,-115
1,7593532,444,-1326,-921,-1486,-303,-48,429,29,-115
1,7593538,444,-1326,-921,-1486,-303,-48,429,29,-115
1,7593547,443,-1325,-917,-1489,-294,-44,429,29,-115
1,7593554,443,-1325,-917,-1489,-294,-44,429,29,-115
1,7593562,443,-1325,-917,-1489,-294,-44,429,29,-115
1,7593570,449,-1324,-920,-1494,-299,-43,429,29,-115
1,7593576,449,-1324,-920,-1494,-299,-43,429,29,-115
1,7593589,443,-1322,-919,-1494,-301,-41,429,29,-115
1,7593598,443,-1322,-919,-1494,-301,-41,429,29,-115
1,7593612,441,-1324,-920,-1490,-300,-42,428,34,-112
1,7593623,441,-1324,-920,-1490,-300,-42,428,34,-112
1,7593636,441,-1325,-922,-1483,-295,-40,428,34,-112
1,7593647,439,-1328,-922,-1490,-302,-41,428,34,-112
1,7593660,439,-1328,-922,-1490,-302,-41,428,34,-112
1,7593668,443,-1327,-917,-1485,-297,-42,428,34,-112
1,7593675,443,-1327,-917,-1485,-297,-42,428,34,-112
1,7593683,443,-1327,-917,-1485,-297,-42,428,34,-112
1,7593692,446,-1322,-919,-1486,-302,-41,428,34,-112
1,7593706,446,-1322,-919,-1486,-302,-41,428,34,-112
1,7593714,444,-1322,-922,-1478,-308,-41,428,34,-112
1,7593722,444,-1322,-922,-1478,-308,-41,428,34,-112
1,7593731,443,-1321,-918,-1484,-302,-44,425,39,-113
1,7593739,443,-1321,-918,-1484,-302,-44,425,39,-113
1,7593747,439,-1320,-916,-1486,-298,-46,425,39,-113
1,7593755,439,-1320,-916,-1486,-298,-46,425,39,-113
1,7593763,439,-1320,-916,-1486,-298,-46,425,39,-113
1,7593771,441,-1327,-921,-1490,-302,-40,425,39,-113
1,7593780,441,-1327,-921,-1490,-302,-40,425,39,-113
1,7593789,440,-1324,-925,-1485,-304,-46,425,39,-113
1,7593797,440,-1324,-925,-1485,-304,-46,425,39,-113
1,7593805,440,-1324,-925,-1485,-304,-46,425,39,-113
1,7593814,440,-1326,-921,-1483,-301,-43,425,39,-113
1,7593822,440,-1326,-921,-1483,-301,-43,425,39,-113
1,7593831,445,-1326,-911,-1484,-301,-38,425,39,-113
1,7593839,445,-1326,-911,-1484,-301,-38,425,39,-113
1,7593848,444,-1323,-920,-1491,-313,-42,424,34,-114
1,7593857,444,-1323,-920,-1491,-313,-42,424,34,-114
1,7593867,445,-1323,-913,-1491,-303,-45,424,34,-114
1,7593875,445,-1323,-913,-1491,-303,-45,424,34,-114
1,7593884,445,-1323,-913,-1491,-303,-45,424,34,-114
1,7593895,445,-1324,-921,-1496,-300,-43,424,34,-114
1,7593908,440,-1325,-913,-1492,-300,-39,424,34,-114
1,7593920,440,-1325,-913,-1492,-300,-39,424,34,-114
1,7593931,442,-1328,-917,-1482,-309,-35,424,34,-114
1,7593947,442,-1328,-917,-1482,-309,-35,424,34,-114
1,7593958,439,-1328,-922,-1480,-305,-31,424,34,-114
1,7593971,443,-1325,-917,-1489,-302,-42,424,34,-114
1,7593984,443,-1325,-917,-1489,-302,-42,424,34,-114
1,7593997,446,-1324,-917,-1491,-302,-38,427,27,-119
1,7594009,447,-1326,-920,-1486,-301,-35,427,27,-119
1,7594021,447,-1326,-920,-1486,-301,-35,427,27,-119
1,7594034,445,-1325,-918,-1490,-299,-35,427,27,-119
1,7594047,442,-1325,-921,-1488,-306,-40,427,27,-119
1,7594059,442,-1325,-921,-1488,-306,-40,427,27,-119
1,7594072,442,-1324,-919,-1491,-296,-46,427,27,-119
1,7594086,442,-1324,-919,-1491,-296,-46,427,27,-119
1,7594099,442,-1325,-914,-1491,-297,-40,427,27,-119
1,7594113,442,-1326,-917,-1497,-305,-40,424,40,-108
1,7594125,442,-1326,-917,-1497,-305,-40,424,40,-108
1,7594138,442,-1326,-916,-1493,-301,-43,424,40,-108
1,7594149,444,-1324,-922,-1493,-298,-43,424,40,-108
1,7594164,444,-1324,-922,-1493,-298,-43,424,40,-108
1,7594174,446,-1321,-919,-1497,-302,-42,424,40,-108
1,7594185,446,-1321,-919,-1497,-302,-42,424,40,-108
1,7594199,442,-1323,-917,-1496,-302,-37,424,40,-108
1,7594214,442,-1324,-919,-1494,-301,-44,424,40,-108
1,7594225,442,-1324,-919,-1494,-301,-44,424,40,-108
1,7594237,437,-1326,-921,-1491,-297,-44,418,40,-114
1,7594251,442,-1325,-923,-1484,-296,-49,418,40,-114
1,7594264,442,-1325,-923,-1484,-296,-49,418,40,-114
1,7594276,443,-1325,-920,-1494,-296,-36,418,40,-114
1,7594290,446,-1323,-921,-1491,-295,-44,418,40,-114
1,7594303,446,-1323,-921,-1491,-295,-44,418,40,-114
1,7594316,443,-1322,-919,-1490,-295,-42,418,40,-114
1,7594331,442,-1325,-920,-1491,-305,-43,418,40,-114
1,7594344,442,-1325,-920,-1491,-305,-43,418,40,-114
1,7594357,443,-1326,-917,-1488,-298,-44,426,34,-124
1,7594369,439,-1325,-912,-1496,-302,-42,426,34,-124
1,7594383,439,-1325,-912,-1496,-302,-42,426,34,-124
1,7594395,437,-1323,-911,-1488,-307,-42,426,34,-124
1,7594408,441,-1326,-919,-1491,-301,-40,426,34,-124
1,7594420,441,-1326,-919,-1491,-301,-40,426,34,-124
1,7594432,442,-1325,-922,-1495,-303,-38,426,34,-124
1,7594443,442,-1325,-922,-1495,-303,-38,426,34,-124
1,7594451,446,-1322,-920,-1490,-307,-36,426,34,-124
1,7594460,446,-1322,-920,-1490,-307,-36,426,34,-124
1,7594468,444,-1323,-924,-1495,-305,-42,424,40,-114
1,7594476,444,-1323,-924,-1495,-305,-42,424,40,-114
1,7594486,444,-1323,-924,-1495,-305,-42,424,40,-114
1,7594500,438,-1322,-914,-1494,-300,-37,424,40,-114
1,7594513,439,-1325,-912,-1492,-304,-39,424,40,-114
1,7594527,440,-1326,-917,-1492,-302,-36,424,40,-114
1,7594536,440,-1326,-917,-1492,-302,-36,424,40,-114
1,7594550,446,-1323,-916,-1489,-297,-32,424,40,-114
1,7594562,446,-1323,-916,-1489,-297,-32,424,40,-114
1,7594574,443,-1326,-923,-1485,-303,-40,424,40,-114
1,7594585,443,-1326,-923,-1485,-303,-40,424,40,-114
1,7594593,445,-1327,-917,-1488,-299,-42,424,40,-114
1,7594599,445,-1327,-917,-1488,-299,-42,424,40,-114
1,7594608,444,-1325,-912,-1482,-298,-37,432,34,-108
1,7594615,444,-1325,-912,-1482,-298,-37,432,34,-108
1,7594622,444,-1325,-912,-1482,-298,-37,432,34,-108
1,7594630,440,-1325,-915,-1492,-307,-43,432,34,-108
1,7594638,440,-1325,-915,-1492,-307,-43,432,34,-108
1,7594645,440,-1325,-915,-1492,-307,-43,432,34,-108
1,7594653,442,-1324,-918,-1493,-307,-39,432,34,-108
1,7594659,442,-1324,-918,-1493,-307,-39,432,34,-108
1,7594664,442,-1324,-918,-1493,-307,-39,432,34,-108
1,7594670,437,-1328,-922,-1486,-302,-35,432,34,-108
1,7594675,437,-1328,-922,-1486,-302,-35,432,34,-108
1,7594681,437,-1328,-922,-1486,-302,-35,432,34,-108
1,7594686,437,-1328,-922,-1486,-302,-35,432,34,-108
1,7594695,442,-1324,-919,-1496,-298,-39,432,34,-108
1,7594703,442,-1324,-919,-1496,-298,-39,432,34,-108
1,7594708,442,-1323,-920,-1486,-306,-37,432,34,-108
1,7594714,442,-1323,-920,-1486,-306,-37,432,34,-108
1,7594719,442,-1323,-920,-1486,-306,-37,432,34,-108
1,7594724,442,-1323,-920,-1486,-306,-37,432,34,-108
1,7594728,439,-1322,-914,-1484,-305,-31,429,35,-117
1,7594734,439,-1322,-914,-1484,-305,-31,429,35,-117
1,7594739,439,-1322,-914,-1484,-305,-31,429,35,-117
1,7594747,442,-1323,-920,-1488,-301,-48,429,35,-117
1,7594755,442,-1323,-920,-1488,-301,-48,429,35,-117
1,7594763,442,-1323,-920,-1488,-301,-48,429,35,-117
1,7594769,442,-1324,-919,-1489,-298,-45,429,35,-117
1,7594776,442,-1324,-919,-1489,-298,-45,429,35,-117
1,7594785,442,-1324,-919,-1489,-298,-45,429,35,-117
1,7594792,440,-1326,-915,-1485,-296,-44,429,35,-117
1,7594801,440,-1326,-915,-1485,-296,-44,429,35,-117
1,7594808,442,-1326,-919,-1483,-299,-49,429,35,-117
1,7594815,442,-1326,-919,-1483,-299,-49,429,35,-117
1,7594821,442,-1326,-919,-1483,-299,-49,429,35,-117
1,7594828,440,-1325,-919,-1491,-293,-42,429,35,-117
1,7594835,440,-1325,-919,-1491,-293,-42,429,35,-117
1,7594843,440,-1325,-919,-1491,-293,-42,429,35,-117
1,7594849,441,-1323,-914,-1482,-295,-45,429,29,-105
1,7594855,441,-1323,-914,-1482,-295,-45,429,29,-105
1,7594862,441,-1323,-914,-1482,-295,-45,429,29,-105
1,7594870,443,-1324,-917,-1483,-297,-43,429,29,-105
1,7594877,443,-1324,-917,-1483,-297,-43,429,29,-105
1,7594884,443,-1324,-917,-1483,-297,-43,429,29,-105
1,7594893,449,-1322,-918,-1488,-303,-44,429,29,-105
1,7594900,449,-1322,-918,-1488,-303,-44,429,29,-105
1,7594905,449,-1322,-918,-1488,-303,-44,429,29,-105
1,7594913,444,-1326,-916,-1490,-299,-41,429,29,-105
1,7594921,444,-1326,-916,-1490,-299,-41,429,29,-105
1,7594928,443,-1325,-924,-1492,-302,-41,429,29,-105
1,7594935,443,-1325,-924,-1492,-302,-41,429,29,-105
1,7594943,443,-1325,-924,-1492,-302,-41,429,29,-105
1,7594949,441,-1325,-918,-1483,-302,-42,429,29,-105
1,7594956,441,-1325,-918,-1483,-302,-42,429,29,-105
1,7594963,441,-1325,-918,-1483,-302,-42,429,29,-105
1,7594971,440,-1324,-919,-1489,-305,-39,427,31,-113
1,7594978,440,-1324,-919,-1489,-305,-39,427,31,-113
1,7594985,440,-1324,-919,-1489,-305,-39,427,31,-113
1,7594991,442,-1325,-916,-1490,-303,-38,427,31,-113
1,7594998,442,-1325,-916,-1490,-303,-38,427,31,-113
1,7595003,442,-1325,-916,-1490,-303,-38,427,31,-113
1,7595010,443,-1326,-918,-1488,-305,-49,427,31,-113
1,7595015,443,-1326,-918,-1488,-305,-49,427,31,-113
1,7595020,443,-1326,-918,-1488,-305,-49,427,31,-113
1,7595027,443,-1326,-918,-1488,-305,-49,427,31,-113
1,7595033,446,-1323,-919,-1488,-302,-45,427,31,-113
1,7595039,446,-1323,-919,-1488,-302,-45,427,31,-113
1,7595047,444,-1324,-923,-1489,-293,-39,427,31,-113
1,7595054,444,-1324,-923,-1489,-293,-39,427,31,-113
1,7595062,444,-1324,-923,-1489,-293,-39,427,31,-113
1,7595069,442,-1328,-924,-1491,-298,-41,427,31,-113
1,7595076,442,-1328,-924,-1491,-298,-41,427,31,-113
1,7595082,442,-1328,-924,-1491,-298,-41,427,31,-113
1,7595089,444,-1326,-923,-1487,-299,-41,427,31,-113
1,7595097,444,-1326,-923,-1487,-299,-41,427,31,-113
1,7595104,444,-1326,-923,-1487,-299,-41,427,31,-113
1,7595112,441,-1325,-916,-1481,-298,-38,428,36,-112
1,7595118,441,-1325,-916,-1481,-298,-38,428,36,-112
1,7595124,441,-1325,-916,-1481,-298,-38,428,36,-112
1,7595132,442,-1326,-921,-1488,-302,-40,428,36,-112
1,7595140,442,-1326,-921,-1488,-302,-40,428,36,-112
1,7595147,442,-1326,-921,-1488,-302,-40,428,36,-112
1,7595155,440,-1328,-924,-1484,-302,-43,428,36,-112
1,7595161,440,-1328,-924,-1484,-302,-43,428,36,-112
1,7595169,442,-1325,-915,-1482,-301,-38,428,36,-112
1,7595176,442,-1325,-915,-1482,-301,-38,428,36,-112
1,7595184,442,-1325,-915,-1482,-301,-38,428,36,-112
1,7595191,443,-1323,-917,-1487,-306,-42,428,36,-112
1,7595197,443,-1323,-917,-1487,-306,-42,428,36,-112
1,7595206,443,-1323,-917,-1487,-306,-42,428,36,-112
1,7595213,443,-1324,-919,-1484,-299,-41,428,36,-112
1,7595219,443,-1324,-919,-1484,-299,-41,428,36,-112
1,7595229,443,-1324,-914,-1486,-306,-40,417,23,-111
1,7595236,443,-1324,-914,-1486,-306,-40,417,23,-111
1,7595242,443,-1324,-914,-1486,-306,-40,417,23,-111
1,7595249,440,-1326,-919,-1488,-304,-36,417,23,-111
1,7595254,440,-1326,-919,-1488,-304,-36,417,23,-111
1,7595264,440,-1326,-919,-1488,-304,-36,417,23,-111
1,7595271,445,-1325,-922,-1486,-308,-39,417,23,-111
1,7595278,445,-1325,-922,-1486,-308,-39,417,23,-111
1,7595287,445,-1325,-922,-1486,-308,-39,417,23,-111
1,7595293,447,-1325,-922,-1490,-304,-36,417,23,-111
1,7595299,447,-1325,-922,-1490,-304,-36,417,23,-111
1,7595308,444,-1323,-923,-1500,-300,-40,417,23,-111
1,7595314,444,-1323,-923,-1500,-300,-40,417,23,-111
1,7595320,444,-1323,-923,-1500,-300,-40,417,23,-111
1,7595329,444,-1323,-919,-1497,-295,-39,417,23,-111
1,7595336,444,-1323,-919,-1497,-295,-39,417,23,-111
1,7595341,444,-1323,-919,-1497,-295,-39,417,23,-111
1,7595350,442,-1322,-919,-1495,-303,-38,423,31,-117
1,7595358,442,-1322,-919,-1495,-303,-38,423,31,-117
1,7595365,442,-1322,-919,-1495,-303,-38,423,31,-117
1,7595372,443,-1322,-915,-1498,-299,-41,423,31,-117
1,7595379,443,-1322,-915,-1498,-299,-41,423,31,-117
1,7595386,443,-1322,-915,-1498,-299,-41,423,31,-117
1,7595392,443,-1324,-920,-1493,-297,-44,423,31,-117
1,7595400,443,-1324,-920,-1493,-297,-44,423,31,-117
1,7595406,443,-1324,-920,-1493,-297,-44,423,31,-117
1,7595414,438,-1327,-917,-1487,-302,-39,423,31,-117
1,7595421,438,-1327,-917,-1487,-302,-39,423,31,-117
1,7595428,443,-1326,-916,-1487,-298,-36,423,31,-117
1,7595436,443,-1326,-916,-1487,-298,-36,423,31,-117
1,7595443,443,-1326,-916,-1487,-298,-36,423,31,-117
1,7595450,446,-1325,-919,-1486,-300,-36,423,31,-117
1,7595458,446,-1325,-919,-1486,-300,-36,423,31,-117
1,7595464,446,-1325,-919,-1486,-300,-36,423,31,-117
1,7595471,444,-1328,-915,-1485,-299,-37,424,28,-110
1,7595480,444,-1328,-915,-1485,-299,-37,424,28,-110
1,7595487,444,-1328,-915,-1485,-299,-37,424,28,-110
1,7595495,442,-1326,-916,-1487,-302,-41,424,28,-110
1,7595501,442,-1326,-916,-1487,-302,-41,424,28,-110
1,7595508,442,-1325,-920,-1490,-303,-37,424,28,-110
1,7595514,442,-1325,-920,-1490,-303,-37,424,28,-110
1,7595522,442,-1325,-920,-1490,-303,-37,424,28,-110
1,7595529,441,-1325,-917,-1499,-302,-44,424,28,-110
1,7595537,441,-1325,-917,-1499,-302,-44,424,28,-110
1,7595542,441,-1325,-917,-1499,-302,-44,424,28,-110
1,7595547,443,-1327,-918,-1489,-303,-36,424,28,-110
1,7595552,443,-1327,-918,-1489,-303,-36,424,28,-110
1,7595557,443,-1327,-918,-1489,-303,-36,424,28,-110
1,7595567,443,-1327,-918,-1489,-303,-36,424,28,-110
1,7595574,440,-1327,-915,-1483,-301,-35,424,28,-110
1,7595581,440,-1327,-915,-1483,-301,-35,424,28,-110
1,7595589,445,-1328,-921,-1487,-303,-44,424,28,-110
1,7595603,445,-1328,-921,-1487,-303,-44,424,28,-110
1,7595615,444,-1323,-917,-1484,-301,-44,430,34,-122
1,7595628,440,-1322,-918,-1487,-304,-40,430,34,-122
1,7595640,440,-1322,-918,-1487,-304,-40,430,34,-122
1,7595655,442,-1324,-918,-1490,-304,-42,430,34,-122
1,7595663,442,-1324,-918,-1490,-304,-42,430,34,-122
1,7595670,440,-1326,-919,-1489,-300,-40,430,34,-122
1,7595678,440,-1326,-919,-1489,-300,-40,430,34,-122
1,7595687,440,-1326,-919,-1489,-300,-40,430,34,-122
1,7595701,439,-1322,-921,-1487,-296,-38,430,34,-122
1,7595710,442,-1322,-919,-1489,-301,-42,430,34,-122
1,7595718,442,-1322,-919,-1489,-301,-42,430,34,-122
1,7595726,442,-1322,-919,-1489,-301,-42,430,34,-122
1,7595735,443,-1324,-917,-1490,-302,-46,419,31,-111
1,7595743,443,-1324,-917,-1490,-302,-46,419,31,-111
1,7595751,444,-1324,-918,-1488,-301,-38,419,31,-111
1,7595759,444,-1324,-918,-1488,-301,-38,419,31,-111
1,7595766,444,-1324,-918,-1488,-301,-38,419,31,-111
1,7595776,442,-1323,-919,-1490,-297,-36,419,31,-111
1,7595784,442,-1323,-919,-1490,-297,-36,419,31,-111
1,7595792,445,-1325,-921,-1484,-302,-42,419,31,-111
1,7595800,445,-1325,-921,-1484,-302,-42,419,31,-111
1,7595808,439,-1326,-921,-1488,-301,-36,419,31,-111
1,7595816,439,-1326,-921,-1488,-301,-36,419,31,-111
1,7595827,439,-1326,-921,-1488,-301,-36,419,31,-111
1,7595839,438,-1327,-920,-1492,-298,-37,419,31,-111
1,7595853,438,-1327,-920,-1492,-298,-37,427,41,-105
1,7595868,438,-1327,-920,-1492,-298,-37,427,41,-105
1,7595877,442,-1324,-919,-1486,-301,-40,427,41,-105
1,7595890,444,-1328,-921,-1481,-300,-39,427,41,-105
1,7595904,444,-1328,-921,-1481,-300,-39,427,41,-105
1,7595913,444,-1326,-922,-1486,-296,-36,427,41,-105
1,7595924,444,-1326,-922,-1486,-296,-36,427,41,-105
1,7595936,441,-1325,-921,-1487,-299,-40,427,41,-105
1,7595949,441,-1326,-921,-1486,-301,-43,427,41,-105
1,7595960,441,-1326,-921,-1486,-301,-43,427,41,-105
1,7595974,439,-1326,-915,-1488,-296,-35,432,30,-112
1,7595986,439,-1326,-915,-1488,-296,-35,432,30,-112
1,7595995,441,-1322,-914,-1488,-304,-43,432,30,-112
1,7596008,440,-1322,-917,-1488,-305,-39,432,30,-112
1,7596022,440,-1322,-917,-1488,-305,-39,432,30,-112
1,7596037,441,-1324,-914,-1493,-303,-37,432,30,-112
1,7596045,441,-1324,-914,-1493,-303,-37,432,30,-112
1,7596057,444,-1326,-918,-1490,-295,-37,432,30,-112
1,7596071,445,-1325,-914,-1493,-300,-38,432,30,-112
1,7596085,445,-1325,-914,-1493,-300,-38,432,30,-112
1,7596095,442,-1324,-922,-1494,-296,-34,428,42,-112
1,7596105,442,-1324,-922,-1494,-296,-34,428,42,-112
1,7596113,440,-1324,-921,-1489,-296,-38,428,42,-112
1,7596122,440,-1324,-921,-1489,-296,-38,428,42,-112
1,7596130,442,-1324,-913,-1484,-302,-43,428,42,-112
1,7596141,442,-1324,-913,-1484,-302,-43,428,42,-112
1,7596153,441,-1325,-919,-1485,-301,-32,428,42,-112
1,7596166,441,-1325,-919,-1485,-301,-32,428,42,-112
1,7596179,443,-1327,-917,-1478,-305,-39,428,42,-112
1,7596192,446,-1326,-915,-1488,-312,-44,428,42,-112
1,7596206,446,-1326,-915,-1488,-312,-44,428,42,-112
1,7596217,445,-1325,-921,-1486,-309,-41,428,42,-112
1,7596229,443,-1324,-917,-1482,-304,-37,428,28,-108
1,7596242,443,-1324,-917,-1482,-304,-37,428,28,-108
1,7596258,441,-1326,-914,-1479,-305,-42,428,28,-108
1,7596267,441,-1326,-914,-1479,-305,-42,428,28,-108
1,7596277,438,-1325,-920,-1483,-304,-37,428,28,-108
1,7596292,439,-1324,-918,-1486,-296,-40,428,28,-108
1,7596305,439,-1324,-918,-1486,-296,-40,428,28,-108
1,7596315,443,-1322,-918,-1490,-299,-45,428,28,-108
1,7596326,443,-1322,-918,-1490,-299,-45,428,28,-108
1,7596340,443,-1324,-915,-1489,-300,-41,428,28,-108
1,7596353,446,-1321,-913,-1500,-303,-39,425,41,-109
1,7596363,446,-1321,-913,-1500,-303,-39,425,41,-109
1,7596376,444,-1326,-920,-1487,-302,-46,425,41,-109
1,7596391,443,-1324,-919,-1477,-300,-39,425,41,-109
1,7596404,443,-1324,-919,-1477,-300,-39,425,41,-109
1,7596413,442,-1324,-919,-1487,-296,-38,425,41,-109
1,7596426,442,-1324,-919,-1487,-296,-38,425,41,-109
1,7596437,444,-1324,-919,-1484,-302,-39,425,41,-109
1,7596451,441,-1326,-916,-1492,-304,-45,425,41,-109
1,7596461,441,-1326,-916,-1492,-304,-45,425,41,-109
1,7596476,444,-1325,-914,-1486,-300,-43,427,37,-113
1,7596487,444,-1325,-914,-1486,-300,-43,427,37,-113
1,7596502,447,-1322,-915,-1483,-297,-37,427,37,-113
1,7596515,445,-1324,-917,-1486,-303,-42,427,37,-113
1,7596527,445,-1324,-917,-1486,-303,-42,427,37,-113
1,7596539,445,-1326,-921,-1494,-302,-38,427,37,-113
1,7596552,438,-1323,-923,-1498,-301,-35,427,37,-113
1,7596565,438,-1323,-923,-1498,-301,-35,427,37,-113
1,7596578,438,-1322,-915,-1490,-299,-43,427,37,-113
1,7596592,441,-1322,-922,-1485,-296,-36,432,36,-110
1,7596603,441,-1322,-922,-1485,-296,-36,432,36,-110
1,7596609,443,-1325,-916,-1491,-299,-43,432,36,-110
1,7596615,443,-1325,-916,-1491,-299,-43,432,36,-110
1,7596622,443,-1325,-916,-1491,-299,-43,432,36,-110
1,7596628,450,-1325,-917,-1494,-304,-40,432,36,-110
1,7596636,450,-1325,-917,-1494,-304,-40,432,36,-110
1,7596645,450,-1325,-917,-1494,-304,-40,432,36,-110
1,7596653,446,-1324,-924,-1485,-306,-39,432,36,-110
1,7596659,446,-1324,-924,-1485,-306,-39,432,36,-110
1,7596664,446,-1324,-924,-1485,-306,-39,432,36,-110
1,7596669,442,-1325,-918,-1484,-307,-46,432,36,-110
1,7596675,442,-1325,-918,-1484,-307,-46,432,36,-110
1,7596680,442,-1325,-918,-1484,-307,-46,432,36,-110
1,7596685,442,-1325,-918,-1484,-307,-46,432,36,-110
1,7596690,442,-1327,-918,-1487,-302,-44,432,36,-110
1,7596695,442,-1327,-918,-1487,-302,-44,432,36,-110
1,7596701,442,-1327,-918,-1487,-302,-44,432,36,-110
1,7596706,442,-1327,-918,-1487,-302,-44,432,36,-110
1,7596711,439,-1325,-919,-1488,-303,-44,432,36,-110
1,7596718,439,-1325,-919,-1488,-303,-44,432,36,-110
1,7596723,439,-1325,-919,-1488,-303,-44,432,36,-110
1,7596728,439,-1325,-919,-1488,-303,-44,432,36,-110
1,7596733,441,-1326,-912,-1487,-305,-44,430,36,-106
1,7596737,441,-1326,-912,-1487,-305,-44,430,36,-106
1,7596742,441,-1326,-912,-1487,-305,-44,430,36,-106
1,7596749,439,-1324,-921,-1490,-304,-38,430,36,-106
1,7596756,439,-1324,-921,-1490,-304,-38,430,36,-106
1,7596763,439,-1324,-921,-1490,-304,-38,430,36,-106
1,7596770,445,-1321,-914,-1492,-302,-42,430,36,-106
1,7596778,445,-1321,-914,-1492,-302,-42,430,36,-106
1,7596786,445,-1321,-914,-1492,-302,-42,430,36,-106
1,7596792,447,-1319,-917,-1486,-304,-38,430,36,-106
1,7596801,447,-1319,-917,-1486,-304,-38,430,36,-106
1,7596807,447,-1319,-917,-1486,-304,-38,430,36,-106
1,7596815,445,-1324,-917,-1483,-300,-34,430,36,-106
1,7596822,445,-1324,-917,-1483,-300,-34,430,36,-106
1,7596829,442,-1327,-916,-1489,-302,-42,430,36,-106
1,7596837,442,-1327,-916,-1489,-302,-42,430,36,-106
1,7596845,442,-1327,-916,-1489,-302,-42,430,36,-106
1,7596852,437,-1325,-916,-1489,-299,-41,432,28,-112
1,7596859,437,-1325,-916,-1489,-299,-41,432,28,-112
1,7596865,437,-1325,-916,-1489,-299,-41,432,28,-112
1,7596873,436,-1324,-922,-1492,-299,-38,432,28,-112
1,7596879,436,-1324,-922,-1492,-299,-38,432,28,-112
1,7596888,436,-1324,-922,-1492,-299,-38,432,28,-112
1,7596896,440,-1325,-917,-1488,-304,-43,432,28,-112
1,7596903,440,-1325,-917,-1488,-304,-43,432,28,-112
1,7596910,443,-1325,-914,-1491,-301,-37,432,28,-112
1,7596917,443,-1325,-914,-1491,-301,-37,432,28,-112
1,7596924,443,-1325,-914,-1491,-301,-37,432,28,-112
1,7596931,446,-1324,-921,-1485,-301,-34,432,28,-112
1,7596938,446,-1324,-921,-1485,-301,-34,432,28,-112
1,7596946,446,-1324,-921,-1485,-301,-34,432,28,-112
1,7596953,445,-1324,-921,-1494,-303,-44,432,28,-112
1,7596960,445,-1324,-921,-1494,-303,-44,432,28,-112
1,7596966,445,-1324,-921,-1494,-303,-44,432,28,-112
1,7596974,444,-1324,-915,-1496,-307,-38,425,37,-111
1,7596981,444,-1324,-915,-1496,-307,-38,425,37,-111
1,7596989,440,-1326,-916,-1494,-305,-37,425,37,-111
1,7596996,440,-1326,-916,-1494,-305,-37,425,37,-111
1,7597005,440,-1326,-916,-1494,-305,-37,425,37,-111
1,7597012,440,-1324,-917,-1493,-304,-39,425,37,-111
1,7597021,440,-1324,-917,-1493,-304,-39,425,37,-111
1,7597027,440,-1324,-917,-1493,-304,-39,425,37,-111
1,7597035,440,-1325,-920,-1492,-303,-42,425,37,-111
1,7597042,440,-1325,-920,-1492,-303,-42,425,37,-111
1,7597047,440,-1325,-920,-1492,-303,-42,425,37,-111
1,7597057,443,-1325,-921,-1486,-300,-32,425,37,-111
1,7597065,443,-1325,-921,-1486,-300,-32,425,37,-111
1,7597072,444,-1327,-925,-1482,-304,-39,425,37,-111
1,7597079,444,-1327,-925,-1482,-304,-39,425,37,-111
1,7597086,444,-1327,-925,-1482,-304,-39,425,37,-111
1,7597092,443,-1323,-919,-1488,-297,-42,429,31,-117
1,7597097,443,-1323,-919,-1488,-297,-42,429,31,-117
1,7597106,443,-1323,-919,-1488,-297,-42,429,31,-117
1,7597114,442,-1326,-918,-1488,-300,-43,429,31,-117
1,7597121,442,-1326,-918,-1488,-300,-43,429,31,-117
1,7597127,442,-1326,-918,-1488,-300,-43,429,31,-117
1,7597132,441,-1323,-919,-1486,-298,-41,429,31,-117
1,7597139,441,-1323,-919,-1486,-298,-41,429,31,-117
1,7597148,441,-1323,-919,-1486,-298,-41,429,31,-117
1,7597155,437,-1323,-921,-1484,-301,-45,429,31,-117
1,7597162,437,-1323,-921,-1484,-301,-45,429,31,-117
1,7597167,437,-1323,-921,-1484,-301,-45,429,31,-117
1,7597174,438,-1324,-923,-1485,-305,-37,429,31,-117
1,7597182,438,-1324,-923,-1485,-305,-37,429,31,-117
1,7597189,436,-1323,-916,-1487,-300,-34,429,31,-117
1,7597196,436,-1323,-916,-1487,-300,-34,429,31,-117
1,7597201,436,-1323,-916,-1487,-300,-34,429,31,-117
1,7597209,446,-1325,-917,-1491,-304,-37,429,31,-117
1,7597215,446,-1325,-917,-1491,-304,-37,429,31,-117
1,7597223,446,-1325,-917,-1491,-304,-37,429,31,-117
1,7597231,448,-1324,-916,-1493,-301,-30,427,37,-111
1,7597239,448,-1324,-916,-1493,-301,-30,427,37,-111
1,7597245,448,-1324,-916,-1493,-301,-30,427,37,-111
1,7597251,446,-1325,-913,-1491,-302,-35,427,37,-111
1,7597258,446,-1325,-913,-1491,-302,-35,427,37,-111
1,7597265,446,-1325,-913,-1491,-302,-35,427,37,-111
1,7597271,443,-1320,-917,-1490,-298,-40,427,37,-111
1,7597277,443,-1320,-917,-1490,-298,-40,427,37,-111
1,7597282,443,-1320,-917,-1490,-298,-40,427,37,-111
1,7597288,443,-1320,-917,-1490,-298,-40,427,37,-111
1,7597296,443,-1320,-917,-1490,-298,-40,427,37,-111
1,7597303,443,-1320,-917,-1490,-298,-40,427,37,-111
1,7597310,441,-1326,-923,-1494,-305,-33,427,37,-111
1,7597316,441,-1326,-923,-1494,-305,-33,427,37,-111
1,7597324,441,-1326,-923,-1494,-305,-33,427,37,-111
1,7597331,439,-1324,-921,-1481,-306,-37,427,37,-111
1,7597339,439,-1324,-921,-1481,-306,-37,427,37,-111
1,7597345,439,-1324,-921,-1481,-306,-37,427,37,-111
1,7597352,441,-1323,-910,-1483,-304,-40,422,36,-110
1,7597360,441,-1323,-910,-1483,-304,-40,422,36,-110
1,7597366,441,-1323,-910,-1483,-304,-40,422,36,-110
1,7597373,442,-1323,-918,-1486,-292,-37,422,36,-110
1,7597380,442,-1323,-918,-1486,-292,-37,422,36,-110
1,7597387,442,-1323,-918,-1486,-292,-37,422,36,-110
1,7597395,448,-1322,-917,-1486,-303,-37,422,36,-110
1,7597403,448,-1322,-917,-1486,-303,-37,422,36,-110
1,7597410,444,-1322,-921,-1484,-298,-41,422,36,-110
1,7597416,444,-1322,-921,-1484,-298,-41,422,36,-110
1,7597424,444,-1322,-921,-1484,-298,-41,422,36,-110
1,7597432,442,-1323,-920,-1484,-299,-38,422,36,-110
1,7597440,442,-1323,-920,-1484,-299,-38,422,36,-110
1,7597447,442,-1323,-920,-1484,-299,-38,422,36,-110
1,7597453,439,-1324,-922,-1491,-298,-35,422,36,-110
1,7597460,439,-1324,-922,-1491,-298,-35,422,36,-110
1,7597468,439,-1327,-914,-1491,-294,-34,438,32,-114
1,7597475,439,-1327,-914,-1491,-294,-34,438,32,-114
1,7597483,439,-1327,-914,-1491,-294,-34,438,32,-114
1,7597491,442,-1323,-917,-1485,-304,-45,438,32,-114
1,7597498,442,-1323,-917,-1485,-304,-45,438,32,-114
1,7597505,442,-1323,-917,-1485,-304,-45,438,32,-114
1,7597512,446,-1323,-916,-1492,-300,-46,438,32,-114
1,7597519,446,-1323,-916,-1492,-300,-46,438,32,-114
1,7597526,446,-1323,-916,-1492,-300,-46,438,32,-114
1,7597534,443,-1322,-918,-1489,-302,-47,438,32,-114
1,7597542,443,-1322,-918,-1489,-302,-47,438,32,-114
1,7597549,445,-1321,-917,-1497,-299,-42,438,32,-114
1,7597556,445,-1321,-917,-1497,-299,-42,438,32,-114
1,7597562,445,-1321,-917,-1497,-299,-42,438,32,-114
1,7597570,441,-1324,-917,-1496,-300,-37,438,32,-114
1,7597577,441,-1324,-917,-1496,-300,-37,438,32,-114
1,7597584,441,-1324,-917,-1496,-300,-37,438,32,-114
1,7597591,438,-1325,-916,-1489,-303,-43,420,30,-106
1,7597599,438,-1325,-916,-1489,-303,-43,420,30,-106
1,7597606,438,-1325,-916,-1489,-303,-43,420,30,-106
1,7597618,442,-1325,-917,-1488,-300,-47,420,30,-106
1,7597632,442,-1325,-921,-1488,-295,-40,420,30,-106
1,7597643,442,-1325,-921,-1488,-295,-40,420,30,-106
1,7597657,442,-1324,-918,-1483,-297,-34,420,30,-106
1,7597665,442,-1324,-918,-1483,-297,-34,420,30,-106
1,7597673,445,-1325,-918,-1485,-298,-40,420,30,-106
1,7597681,445,-1325,-918,-1485,-298,-40,420,30,-106
1,7597689,447,-1323,-923,-1494,-292,-44,420,30,-106
1,7597698,447,-1323,-923,-1494,-292,-44,420,30,-106
1,7597706,447,-1323,-923,-1494,-292,-44,420,30,-106
1,7597714,445,-1326,-918,-1488,-290,-37,429,29,-111
1,7597722,445,-1326,-918,-1488,-290,-37,429,29,-111
1,7597730,442,-1326,-917,-1495,-295,-41,429,29,-111
1,7597739,442,-1326,-917,-1495,-295,-41,429,29,-111
1,7597746,442,-1326,-917,-1495,-295,-41,429,29,-111
1,7597754,441,-1324,-914,-1497,-298,-38,429,29,-111
1,7597762,441,-1324,-914,-1497,-298,-38,429,29,-111
1,7597770,436,-1325,-913,-1495,-299,-36,429,29,-111
1,7597777,436,-1325,-913,-1495,-299,-36,429,29,-111
1,7597787,436,-1325,-913,-1495,-299,-36,429,29,-111
1,7597795,442,-1325,-919,-1484,-303,-38,429,29,-111
1,7597803,442,-1325,-919,-1484,-303,-38,429,29,-111
1,7597811,445,-1321,-923,-1485,-303,-42,429,29,-111
1,7597819,445,-1321,-923,-1485,-303,-42,429,29,-111
1,7597829,444,-1322,-918,-1484,-307,-41,429,29,-111
1,7597836,444,-1322,-918,-1484,-307,-41,429,29,-111
1,7597844,444,-1322,-918,-1484,-307,-41,429,29,-111
1,7597852,444,-1325,-913,-1489,-298,-38,423,37,-103
1,7597861,444,-1325,-913,-1489,-298,-38,423,37,-103
1,7597869,442,-1325,-918,-1485,-299,-39,423,37,-103
1,7597877,442,-1325,-918,-1485,-299,-39,423,37,-103
1,7597884,442,-1325,-918,-1485,-299,-39,423,37,-103
1,7597893,438,-1326,-919,-1484,-302,-51,423,37,-103
1,7597902,438,-1326,-919,-1484,-302,-51,423,37,-103
1,7597912,438,-1326,-919,-1484,-302,-51,423,37,-103
1,7597920,438,-1326,-919,-1484,-302,-51,423,37,-103
1,7597929,441,-1327,-920,-1491,-299,-45,423,37,-103
1,7597938,441,-1327,-920,-1491,-299,-45,423,37,-103
1,7597948,444,-1322,-920,-1482,-302,-38,423,37,-103
1,7597958,444,-1322,-920,-1482,-302,-38,423,37,-103
1,7597967,444,-1322,-920,-1482,-302,-38,423,37,-103
1,7597976,444,-1322,-916,-1480,-307,-35,424,34,-108
1,7597987,444,-1322,-916,-1480,-307,-35,424,34,-108
1,7598001,445,-1326,-917,-1486,-299,-33,424,34,-108
1,7598015,443,-1325,-919,-1494,-303,-37,424,34,-108
1,7598029,442,-1324,-920,-1489,-308,-46,424,34,-108
1,7598039,442,-1324,-920,-1489,-308,-46,424,34,-108
1,7598051,441,-1325,-917,-1485,-302,-43,424,34,-108
1,7598062,441,-1325,-917,-1485,-302,-43,424,34,-108
1,7598076,440,-1326,-922,-1491,-293,-46,424,34,-108
1,7598088,440,-1326,-922,-1491,-293,-46,424,34,-108
1,7598101,444,-1325,-917,-1486,-299,-44,428,34,-110
1,7598113,444,-1322,-915,-1480,-305,-38,428,34,-110
1,7598127,444,-1322,-915,-1480,-305,-38,428,34,-110
1,7598140,444,-1321,-914,-1484,-301,-35,428,34,-110
1,7598152,444,-1322,-917,-1493,-302,-36,428,34,-110
1,7598164,444,-1322,-917,-1493,-302,-36,428,34,-110
1,7598176,437,-1325,-914,-1489,-301,-43,428,34,-110
1,7598190,439,-1326,-921,-1485,-304,-33,428,34,-110
1,7598203,439,-1326,-921,-1485,-304,-33,428,34,-110
1,7598216,441,-1325,-911,-1490,-301,-44,434,40,-112
1,7598228,446,-1322,-917,-1481,-299,-38,434,40,-112
1,7598241,446,-1322,-917,-1481,-299,-38,434,40,-112
1,7598255,445,-1323,-916,-1486,-302,-37,434,40,-112
1,7598268,444,-1325,-920,-1483,-303,-38,434,40,-112
1,7598281,444,-1325,-920,-1483,-303,-38,434,40,-112
1,7598295,442,-1325,-918,-1491,-302,-39,434,40,-112
1,7598305,442,-1325,-918,-1491,-302,-39,434,40,-112
1,7598319,442,-1324,-921,-1484,-299,-43,434,40,-112
1,7598331,442,-1323,-921,-1490,-302,-43,434,40,-112
1,7598345,442,-1323,-921,-1490,-302,-43,434,40,-112
1,7598358,440,-1324,-915,-1494,-301,-39,428,26,-118
1,7598371,444,-1324,-918,-1485,-301,-46,428,26,-118
1,7598384,444,-1324,-918,-1485,-301,-46,428,26,-118
1,7598398,447,-1321,-918,-1489,-296,-38,428,26,-118
1,7598411,445,-1323,-923,-1493,-300,-40,428,26,-118
1,7598424,445,-1323,-923,-1493,-300,-40,428,26,-118
1,7598434,446,-1323,-918,-1485,-297,-34,428,26,-118
1,7598443,446,-1323,-918,-1485,-297,-34,428,26,-118
1,7598451,443,-1324,-918,-1486,-300,-36,428,26,-118
1,7598458,443,-1324,-918,-1486,-300,-36,428,26,-118
1,7598470,441,-1323,-913,-1487,-302,-36,433,35,-111
1,7598481,441,-1323,-913,-1487,-302,-36,433,35,-111
1,7598493,442,-1321,-915,-1494,-302,-36,433,35,-111
1,7598505,442,-1321,-915,-1494,-302,-36,433,35,-111
1,7598520,439,-1323,-916,-1489,-306,-36,433,35,-111
1,7598532,443,-1321,-920,-1485,-307,-36,433,35,-111
1,7598541,443,-1321,-920,-1485,-307,-36,433,35,-111
1,7598555,444,-1324,-915,-1484,-301,-37,433,35,-111
1,7598569,441,-1325,-924,-1490,-302,-38,433,35,-111
1,7598583,441,-1325,-924,-1490,-302,-38,433,35,-111
1,7598593,441,-1325,-918,-1489,-298,-32,432,30,-104
1,7598605,441,-1325,-918,-1489,-298,-32,432,30,-104
1,7598617,438,-1325,-919,-1487,-304,-40,432,30,-104
1,7598624,438,-1325,-919,-1487,-304,-40,432,30,-104
1,7598631,441,-1322,-918,-1488,-301,-48,432,30,-104
1,7598638,441,-1322,-918,-1488,-301,-48,432,30,-104
1,7598647,441,-1322,-918,-1488,-301,-48,432,30,-104
1,7598654,445,-1323,-914,-1484,-307,-41,432,30,-104
1,7598660,445,-1323,-914,-1484,-307,-41,432,30,-104
1,7598665,445,-1323,-914,-1484,-307,-41,432,30,-104
1,7598670,443,-1322,-918,-1491,-302,-37,432,30,-104
1,7598675,443,-1322,-918,-1491,-302,-37,432,30,-104
1,7598681,443,-1322,-918,-1491,-302,-37,432,30,-104
1,7598686,443,-1322,-918,-1491,-302,-37,432,30,-104
1,7598691,446,-1321,-923,-1493,-304,-45,432,30,-104
1,7598699,446,-1321,-923,-1493,-304,-45,432,30,-104
1,7598706,446,-1321,-923,-1493,-304,-45,432,30,-104
1,7598711,442,-1323,-918,-1487,-298,-32,423,39,-117
1,7598716,442,-1323,-918,-1487,-298,-32,423,39,-117
1,7598723,442,-1323,-918,-1487,-298,-32,423,39,-117
1,7598728,442,-1323,-918,-1487,-298,-32,423,39,-117
1,7598733,444,-1323,-917,-1485,-305,-38,423,39,-117
1,7598739,444,-1323,-917,-1485,-305,-38,423,39,-117
1,7598746,444,-1323,-917,-1485,-305,-38,423,39,-117
1,7598753,444,-1325,-915,-1487,-306,-45,423,39,-117
1,7598758,444,-1325,-915,-1487,-306,-45,423,39,-117
1,7598766,444,-1325,-915,-1487,-306,-45,423,39,-117
1,7598773,441,-1325,-914,-1488,-302,-40,423,39,-117
1,7598780,441,-1325,-914,-1488,-302,-40,423,39,-117
1,7598787,441,-1325,-914,-1488,-302,-40,423,39,-117
1,7598793,439,-1325,-915,-1494,-303,-37,423,39,-117
1,7598802,439,-1325,-915,-1494,-303,-37,423,39,-117
1,7598808,439,-1325,-915,-1494,-303,-37,423,39,-117
1,7598815,444,-1324,-922,-1494,-297,-39,423,39,-117
1,7598820,444,-1324,-922,-1494,-297,-39,423,39,-117
1,7598827,444,-1324,-922,-1494,-297,-39,423,39,-117
1,7598834,446,-1323,-923,-1487,-302,-34,423,39,-117
1,7598842,446,-1323,-923,-1487,-302,-34,423,39,-117
1,7598850,444,-1324,-917,-1489,-296,-30,428,42,-112
1,7598857,444,-1324,-917,-1489,-296,-30,428,42,-112
1,7598865,444,-1324,-917,-1489,-296,-30,428,42,-112
1,7598871,442,-1324,-916,-1491,-300,-36,428,42,-112
1,7598877,442,-1324,-916,-1491,-300,-36,428,42,-112
1,7598885,442,-1324,-916,-1491,-300,-36,428,42,-112
1,7598894,442,-1324,-916,-1491,-300,-36,428,42,-112
1,7598900,442,-1324,-916,-1491,-300,-36,428,42,-112
1,7598907,442,-1324,-916,-1491,-300,-36,428,42,-112
1,7598915,441,-1326,-919,-1488,-304,-38,428,42,-112
1,7598922,441,-1326,-919,-1488,-304,-38,428,42,-112
1,7598929,440,-1325,-917,-1483,-298,-35,428,42,-112
1,7598937,440,-1325,-917,-1483,-298,-35,428,42,-112
1,7598944,440,-1325,-917,-1483,-298,-35,428,42,-112
1,7598949,445,-1325,-920,-1486,-296,-40,428,42,-112
1,7598954,445,-1325,-920,-1486,-296,-40,428,42,-112
1,7598959,445,-1325,-920,-1486,-296,-40,428,42,-112
1,7598967,445,-1325,-920,-1486,-296,-40,428,42,-112
1,7598974,448,-1325,-914,-1485,-302,-37,438,32,-108
1,7598982,448,-1325,-914,-1485,-302,-37,438,32,-108
1,7598989,447,-1323,-917,-1486,-299,-42,438,32,-108
1,7598997,447,-1323,-917,-1486,-299,-42,438,32,-108
1,7599005,447,-1323,-917,-1486,-299,-42,438,32,-108
1,7599010,444,-1323,-917,-1490,-302,-38,438,32,-108
1,7599017,444,-1323,-917,-1490,-302,-38,438,32,-108
1,7599026,444,-1323,-917,-1490,-302,-38,438,32,-108
1,7599033,446,-1323,-920,-1488,-303,-33,438,32,-108
1,7599040,446,-1323,-920,-1488,-303,-33,438,32,-108
1,7599047,446,-1323,-920,-1488,-303,-33,438,32,-108
1,7599054,443,-1322,-913,-1489,-311,-37,438,32,-108
1,7599062,443,-1322,-913,-1489,-311,-37,438,32,-108
1,7599069,439,-1325,-922,-1486,-306,-42,438,32,-108
1,7599075,439,-1325,-922,-1486,-306,-42,438,32,-108
1,7599083,439,-1325,-922,-1486,-306,-42,438,32,-108
1,7599091,441,-1325,-917,-1483,-308,-38,430,34,-112
1,7599098,441,-1325,-917,-1483,-308,-38,430,34,-112
1,7599105,441,-1325,-917,-1483,-308,-38,430,34,-112
1,7599113,445,-1323,-919,-1494,-312,-40,430,34,-112
1,7599118,445,-1323,-919,-1494,-312,-40,430,34,-112
1,7599124,445,-1323,-919,-1494,-312,-40,430,34,-112
1,7599132,446,-1324,-921,-1492,-301,-45,430,34,-112
1,7599139,446,-1324,-921,-1492,-301,-45,430,34,-112
1,7599145,446,-1324,-921,-1492,-301,-45,430,34,-112
1,7599153,446,-1328,-918,-1489,-303,-43,430,34,-112
1,7599160,446,-1328,-918,-1489,-303,-43,430,34,-112
1,7599167,446,-1328,-918,-1489,-303,-43,430,34,-112
1,7599174,440,-1326,-918,-1495,-299,-43,430,34,-112
1,7599182,440,-1326,-918,-1495,-299,-43,430,34,-112
1,7599190,440,-1328,-919,-1489,-305,-30,430,34,-112
1,7599197,440,-1328,-919,-1489,-305,-30,430,34,-112
1,7599204,440,-1328,-919,-1489,-305,-30,430,34,-112
1,7599209,440,-1324,-916,-1484,-302,-41,429,23,-113
1,7599217,440,-1324,-916,-1484,-302,-41,429,23,-113
1,7599224,440,-1324,-916,-1484,-302,-41,429,23,-113
1,7599234,439,-1324,-913,-1483,-302,-33,429,23,-113
1,7599241,439,-1324,-913,-1483,-302,-33,429,23,-113
1,7599249,445,-1323,-921,-1491,-302,-35,429,23,-113
1,7599255,445,-1323,-921,-1491,-302,-35,429,23,-113
1,7599262,445,-1323,-921,-1491,-302,-35,429,23,-113
1,7599269,444,-1324,-914,-1488,-296,-39,429,23,-113
1,7599276,444,-1324,-914,-1488,-296,-39,429,23,-113
1,7599284,444,-1324,-914,-1488,-296,-39,429,23,-113
1,7599291,448,-1318,-916,-1484,-304,-36,429,23,-113
1,7599299,448,-1318,-916,-1484,-304,-36,429,23,-113
1,7599306,448,-1318,-916,-1484,-304,-36,429,23,-113
1,7599312,441,-1324,-921,-1482,-299,-35,429,23,-113
1,7599319,441,-1324,-921,-1482,-299,-35,429,23,-113
1,7599325,441,-1324,-921,-1482,-299,-35,429,23,-113
1,7599332,439,-1324,-920,-1490,-298,-43,431,35,-109
1,7599339,439,-1324,-920,-1490,-298,-43,431,35,-109
1,7599345,439,-1324,-920,-1490,-298,-43,431,35,-109
1,7599352,437,-1322,-914,-1485,-298,-37,431,35,-109
1,7599358,437,-1322,-914,-1485,-298,-37,431,35,-109
1,7599367,437,-1322,-914,-1485,-298,-37,431,35,-109
1,7599373,437,-1325,-917,-1485,-300,-40,431,35,-109
1,7599380,437,-1325,-917,-1485,-300,-40,431,35,-109
1,7599387,437,-1325,-917,-1485,-300,-40,431,35,-109
1,7599393,443,-1324,-913,-1482,-302,-45,431,35,-109
1,7599400,443,-1324,-913,-1482,-302,-45,431,35,-109
1,7599409,442,-1324,-918,-1480,-302,-35,431,35,-109
1,7599416,442,-1324,-918,-1480,-302,-35,431,35,-109
1,7599423,442,-1324,-918,-1480,-302,-35,431,35,-109
1,7599429,448,-1322,-913,-1485,-306,-32,431,35,-109
1,7599436,448,-1322,-913,-1485,-306,-32,431,35,-109
1,7599443,448,-1322,-913,-1485,-306,-32,431,35,-109
1,7599451,445,-1323,-913,-1494,-306,-37,431,35,-109
1,7599460,445,-1323,-913,-1494,-306,-37,431,35,-109
1,7599466,445,-1323,-913,-1494,-306,-37,431,35,-109
1,7599472,438,-1325,-915,-1487,-305,-34,429,33,-111
1,7599477,438,-1325,-915,-1487,-305,-34,429,33,-111
1,7599482,438,-1325,-915,-1487,-305,-34,429,33,-111
1,7599490,438,-1322,-918,-1484,-299,-41,429,33,-111
1,7599497,438,-1322,-918,-1484,-299,-41,429,33,-111
1,7599503,438,-1322,-918,-1484,-299,-41,429,33,-111
1,7599510,439,-1325,-915,-1486,-299,-37,429,33,-111
1,7599518,439,-1325,-915,-1486,-299,-37,429,33,-111
1,7599525,439,-1325,-915,-1486,-299,-37,429,33,-111
1,7599532,441,-1322,-916,-1485,-293,-36,429,33,-111
1,7599537,441,-1322,-916,-1485,-293,-36,429,33,-111
1,7599543,441,-1322,-916,-1485,-293,-36,429,33,-111
1,7599551,445,-1326,-921,-1487,-299,-42,429,33,-111
1,7599558,445,-1326,-921,-1487,-299,-42,429,33,-111
1,7599564,445,-1326,-921,-1487,-299,-42,429,33,-111
1,7599571,447,-1324,-919,-1485,-305,-44,429,33,-111
1,7599578,447,-1324,-919,-1485,-305,-44,429,33,-111
1,7599586,447,-1324,-919,-1485,-305,-44,429,33,-111
1,7599593,443,-1323,-919,-1476,-310,-42,427,39,-119
1,7599601,443,-1323,-919,-1476,-310,-42,427,39,-119
1,7599608,443,-1323,-919,-1476,-310,-42,427,39,-119
1,7599614,440,-1322,-921,-1479,-301,-39,427,39,-119
1,7599626,440,-1322,-921,-1479,-301,-39,427,39,-119
1,7599639,440,-1321,-918,-1489,-300,-38,427,39,-119
1,7599647,440,-1321,-918,-1489,-300,-38,427,39,-119
1,7599660,441,-1324,-909,-1492,-300,-41,427,39,-119
1,7599668,441,-1324,-909,-1492,-300,-41,427,39,-119
1,7599675,440,-1324,-918,-1487,-302,-45,427,39,-119
1,7599683,440,-1324,-918,-1487,-302,-45,427,39,-119
1,7599691,444,-1325,-918,-1487,-302,-40,427,39,-119
1,7599705,444,-1325,-918,-1487,-302,-40,427,39,-119
1,7599713,444,-1323,-915,-1481,-300,-33,427,33,-107
1,7599721,444,-1323,-915,-1481,-300,-33,427,33,-107
1,7599729,446,-1323,-910,-1492,-297,-39,427,33,-107
1,7599737,446,-1323,-910,-1492,-297,-39,427,33,-107
1,7599746,446,-1323,-910,-1492,-297,-39,427,33,-107
1,7599753,443,-1326,-914,-1490,-303,-39,427,33,-107
1,7599763,443,-1326,-914,-1490,-303,-39,427,33,-107
1,7599771,441,-1327,-918,-1488,-304,-35,427,33,-107
1,7599778,441,-1327,-918,-1488,-304,-35,427,33,-107
1,7599787,441,-1327,-918,-1488,-304,-35,427,33,-107
1,7599796,438,-1325,-922,-1486,-298,-37,427,33,-107
1,7599803,438,-1325,-922,-1486,-298,-37,427,33,-107
1,7599811,442,-1326,-922,-1494,-297,-38,427,33,-107
1,7599818,442,-1326,-922,-1494,-297,-38,427,33,-107
1,7599828,442,-1326,-922,-1494,-297,-38,427,33,-107
1,7599838,444,-1328,-919,-1488,-295,-42,420,40,-106
1,7599846,444,-1328,-919,-1488,-295,-42,420,40,-106
1,7599854,445,-1324,-913,-1487,-298,-41,420,40,-106
1,7599865,445,-1324,-913,-1487,-298,-41,420,40,-106
1,7599878,447,-1325,-919,-1490,-304,-45,420,40,-106
1,7599890,445,-1324,-919,-1485,-300,-46,420,40,-106
1,7599903,445,-1324,-919,-1485,-300,-46,420,40,-106
1,7599915,445,-1324,-919,-1485,-300,-46,420,40,-106
1,7599929,443,-1323,-916,-1482,-305,-35,420,40,-106
1,7599941,443,-1323,-916,-1482,-305,-35,420,40,-106
1,7599954,439,-1323,-920,-1487,-307,-36,420,40,-106
1,7599965,439,-1323,-920,-1487,-307,-36,420,40,-106
1,7599979,440,-1323,-914,-1486,-301,-35,431,37,-115
1,7599991,442,-1323,-918,-1489,-303,-38,431,37,-115
1,7600003,442,-1323,-918,-1489,-303,-38,431,37,-115
1,7600016,445,-1326,-916,-1495,-305,-36,431,37,-115
1,7600029,446,-1326,-918,-1485,-299,-41,431,37,-115
1,7600041,446,-1326,-918,-1485,-299,-41,431,37,-115
1,7600053,443,-1325,-919,-1487,-301,-36,431,37,-115
1,7600066,443,-1325,-919,-1487,-301,-36,431,37,-115
1,7600079,441,-1325,-914,-1492,-298,-31,431,37,-115
1,7600092,439,-1330,-918,-1487,-300,-37,426,34,-110
1,7600105,439,-1330,-918,-1487,-300,-37,426,34,-110
1,7600116,441,-1323,-918,-1490,-303,-39,426,34,-110
1,7600131,440,-1329,-915,-1488,-303,-44,426,34,-110
1,7600144,440,-1329,-915,-1488,-303,-44,426,34,-110
1,7600152,442,-1327,-917,-1486,-305,-37,426,34,-110
1,7600160,442,-1327,-917,-1486,-305,-37,426,34,-110
1,7600168,442,-1327,-917,-1486,-305,-37,426,34,-110
1,7600177,441,-1322,-915,-1491,-302,-32,426,34,-110
1,7600187,441,-1322,-915,-1491,-302,-32,426,34,-110
1,7600198,442,-1324,-911,-1489,-298,-35,426,34,-110
1,7600212,440,-1323,-916,-1488,-308,-40,428,26,-112
1,7600228,440,-1323,-916,-1488,-308,-40,428,26,-112
1,7600240,438,-1323,-915,-1488,-301,-37,428,26,-112
1,7600252,444,-1321,-922,-1488,-299,-36,428,26,-112
1,7600267,444,-1321,-922,-1488,-299,-36,428,26,-112
1,7600281,441,-1321,-915,-1485,-303,-45,428,26,-112
1,7600293,441,-1325,-922,-1481,-304,-40,428,26,-112
1,7600306,441,-1325,-922,-1481,-304,-40,428,26,-112
1,7600319,445,-1325,-918,-1485,-298,-38,428,26,-112
1,7600332,443,-1323,-912,-1484,-301,-40,427,35,-113
1,7600347,443,-1323,-912,-1484,-301,-40,427,35,-113
1,7600359,441,-1323,-916,-1489,-298,-38,427,35,-113
1,7600372,441,-1323,-916,-1491,-299,-37,427,35,-113
1,7600385,441,-1323,-916,-1491,-299,-37,427,35,-113
1,7600398,437,-1322,-915,-1484,-297,-42,427,35,-113
1,7600412,442,-1324,-914,-1482,-299,-37,427,35,-113
1,7600425,442,-1324,-914,-1482,-299,-37,427,35,-113
1,7600439,442,-1321,-919,-1488,-301,-39,427,35,-113
1,7600450,446,-1323,-917,-1486,-303,-33,427,35,-113
1,7600462,446,-1323,-917,-1486,-303,-33,427,35,-113
1,7600478,443,-1326,-919,-1486,-305,-36,425,31,-105
1,7600491,442,-1325,-922,-1492,-303,-37,425,31,-105
1,7600501,442,-1325,-922,-1492,-303,-37,425,31,-105
1,7600515,441,-1328,-916,-1482,-304,-45,425,31,-105
1,7600529,441,-1328,-916,-1482,-304,-45,425,31,-105
1,7600538,443,-1326,-915,-1488,-307,-40,425,31,-105
1,7600549,444,-1321,-918,-1489,-306,-45,425,31,-105
1,7600563,444,-1321,-918,-1489,-306,-45,425,31,-105
1,7600578,445,-1322,-924,-1495,-298,-38,425,31,-105
1,7600589,444,-1325,-914,-1491,-301,-36,439,31,-107
1,7600601,444,-1325,-914,-1491,-301,-36,439,31,-107
1,7600613,442,-1327,-913,-1487,-298,-33,439,31,-107
1,7600624,442,-1327,-913,-1487,-298,-33,439,31,-107
1,7600632,442,-1325,-920,-1493,-301,-34,439,31,-107
1,7600641,442,-1325,-920,-1493,-301,-34,439,31,-107
1,7600646,442,-1325,-920,-1493,-301,-34,439,31,-107
1,7600653,442,-1324,-921,-1491,-300,-39,439,31,-107
1,7600659,442,-1324,-921,-1491,-300,-39,439,31,-107
1,7600664,442,-1324,-921,-1491,-300,-39,439,31,-107
1,7600669,438,-1327,-915,-1494,-302,-38,439,31,-107
1,7600674,438,-1327,-915,-1494,-302,-38,439,31,-107
1,7600679,438,-1327,-915,-1494,-302,-38,439,31,-107
1,7600687,438,-1327,-915,-1494,-302,-38,439,31,-107
1,7600695,442,-1328,-919,-1490,-303,-46,439,31,-107
1,7600703,442,-1328,-919,-1490,-303,-46,439,31,-107
1,7600707,442,-1328,-919,-1490,-303,-46,439,31,-107
1,7600712,445,-1326,-910,-1498,-309,-45,425,33,-113
1,7600717,445,-1326,-910,-1498,-309,-45,425,33,-113
1,7600722,445,-1326,-910,-1498,-309,-45,425,33,-113
1,7600728,445,-1326,-910,-1498,-309,-45,425,33,-113
1,7600733,445,-1325,-916,-1492,-306,-46,425,33,-113
1,7600738,445,-1325,-916,-1492,-306,-46,425,33,-113
1,7600744,445,-1325,-916,-1492,-306,-46,425,33,-113
1,7600749,446,-1327,-920,-1491,-309,-38,425,33,-113
1,7600755,446,-1327,-920,-1491,-309,-38,425,33,-113
1,7600761,446,-1327,-920,-1491,-309,-38,425,33,-113
1,7600769,446,-1327,-920,-1491,-309,-38,425,33,-113
1,7600775,441,-1326,-920,-1489,-297,-36,425,33,-113
1,7600781,441,-1326,-920,-1489,-297,-36,425,33,-113
1,7600787,441,-1326,-920,-1489,-297,-36,425,33,-113
1,7600792,439,-1323,-917,-1493,-304,-32,425,33,-113
1,7600798,439,-1323,-917,-1493,-304,-32,425,33,-113
1,7600804,439,-1323,-917,-1493,-304,-32,425,33,-113
1,7600811,440,-1325,-918,-1492,-306,-36,425,33,-113
1,7600817,440,-1325,-918,-1492,-306,-36,425,33,-113
1,7600825,440,-1325,-918,-1492,-306,-36,425,33,-113
1,7600833,442,-1322,-913,-1492,-304,-43,425,41,-119
1,7600841,442,-1322,-913,-1492,-304,-43,425,41,-119
1,7600849,442,-1323,-919,-1486,-308,-43,425,41,-119
1,7600857,442,-1323,-919,-1486,-308,-43,425,41,-119
1,7600863,442,-1323,-919,-1486,-308,-43,425,41,-119
1,7600868,442,-1323,-919,-1486,-308,-43,425,41,-119
1,7600876,441,-1325,-917,-1485,-294,-41,425,41,-119
1,7600883,441,-1325,-917,-1485,-294,-41,425,41,-119
1,7600891,443,-1323,-922,-1492,-301,-40,425,41,-119
1,7600900,443,-1323,-922,-1492,-301,-40,425,41,-119
1,7600905,443,-1323,-922,-1492,-301,-40,425,41,-119
1,7600912,440,-1324,-916,-1486,-294,-38,425,41,-119
1,7600919,440,-1324,-916,-1486,-294,-38,425,41,-119
1,7600927,440,-1324,-916,-1486,-294,-38,425,41,-119
1,7600934,441,-1327,-920,-1489,-292,-37,425,41,-119
1,7600942,441,-1327,-920,-1489,-292,-37,425,41,-119
1,7600949,441,-1327,-920,-1489,-292,-37,425,41,-119
1,7600956,442,-1322,-920,-1493,-303,-40,428,36,-110
1,7600963,442,-1322,-920,-1493,-303,-40,428,36,-110
1,7600971,437,-1322,-916,-1491,-309,-42,428,36,-110
1,7600977,437,-1322,-916,-1491,-309,-42,428,36,-110
1,7600985,437,-1322,-916,-1491,-309,-42,428,36,-110
1,7600993,440,-1324,-917,-1491,-303,-46,428,36,-110
1,7601000,440,-1324,-917,-1491,-303,-46,428,36,-110
1,7601005,440,-1324,-917,-1491,-303,-46,428,36,-110
1,7601012,443,-1325,-918,-1491,-295,-43,428,36,-110
1,7601018,443,-1325,-918,-1491,-295,-43,428,36,-110
1,7601026,443,-1325,-918,-1491,-295,-43,428,36,-110
1,7601035,445,-1325,-915,-1495,-297,-37,428,36,-110
1,7601043,445,-1325,-915,-1495,-297,-37,428,36,-110
1,7601051,441,-1326,-921,-1492,-304,-40,428,36,-110
1,7601058,441,-1326,-921,-1492,-304,-40,428,36,-110
1,7601064,441,-1326,-921,-1492,-304,-40,428,36,-110
1,7601072,443,-1326,-917,-1484,-302,-39,428,36,-110
1,7601079,443,-1326,-917,-1484,-302,-39,428,36,-110
1,7601085,443,-1326,-917,-1484,-302,-39,428,36,-110
1,7601093,441,-1327,-915,-1483,-300,-40,425,33,-117
1,7601100,441,-1327,-915,-1483,-300,-40,425,33,-117
1,7601106,441,-1327,-915,-1483,-300,-40,425,33,-117
1,7601115,439,-1327,-916,-1483,-297,-44,425,33,-117
1,7601122,439,-1327,-916,-1483,-297,-44,425,33,-117
1,7601129,443,-1322,-916,-1486,-301,-42,425,33,-117
1,7601135,443,-1322,-916,-1486,-301,-42,425,33,-117
1,7601143,443,-1322,-916,-1486,-301,-42,425,33,-117
1,7601150,443,-1323,-916,-1488,-308,-42,425,33,-117
1,7601159,443,-1323,-916,-1488,-308,-42,425,33,-117
1,7601165,443,-1323,-916,-1488,-308,-42,425,33,-117
1,7601172,442,-1326,-918,-1491,-298,-38,425,33,-117
1,7601179,442,-1326,-918,-1491,-298,-38,425,33,-117
1,7601186,442,-1326,-918,-1491,-298,-38,425,33,-117
1,7601195,446,-1322,-921,-1485,-298,-44,425,33,-117
1,7601202,446,-1322,-921,-1485,-298,-44,425,33,-117
1,7601208,446,-1322,-921,-1485,-298,-44,425,33,-117
1,7601216,441,-1327,-914,-1486,-299,-43,423,31,-115
1,7601224,441,-1327,-914,-1486,-299,-43,423,31,-115
1,7601231,440,-1325,-913,-1486,-297,-43,423,31,-115
1,7601239,440,-1325,-913,-1486,-297,-43,423,31,-115
1,7601246,440,-1325,-913,-1486,-297,-43,423,31,-115
1,7601253,439,-1326,-912,-1490,-306,-45,423,31,-115
1,7601260,439,-1326,-912,-1490,-306,-45,423,31,-115
1,7601267,439,-1326,-912,-1490,-306,-45,423,31,-115
1,7601273,439,-1323,-923,-1488,-302,-43,423,31,-115
1,7601280,439,-1323,-923,-1488,-302,-43,423,31,-115
1,7601287,439,-1323,-923,-1488,-302,-43,423,31,-115
1,7601295,440,-1323,-915,-1495,-307,-47,423,31,-115
1,7601302,440,-1323,-915,-1495,-307,-47,423,31,-115
1,7601310,443,-1327,-918,-1490,-303,-45,423,31,-115
1,7601318,443,-1327,-918,-1490,-303,-45,423,31,-115
1,7601326,443,-1327,-918,-1490,-303,-45,423,31,-115
1,7601333,448,-1325,-914,-1489,-300,-50,429,31,-119
1,7601340,448,-1325,-914,-1489,-300,-50,429,31,-119
1,7601348,448,-1325,-914,-1489,-300,-50,429,31,-119
1,7601354,444,-1323,-915,-1490,-300,-49,429,31,-119
1,7601359,444,-1323,-915,-1490,-300,-49,429,31,-119
1,7601364,444,-1323,-915,-1490,-300,-49,429,31,-119
1,7601370,443,-1323,-921,-1493,-306,-40,429,31,-119
1,7601378,443,-1323,-921,-1493,-306,-40,429,31,-119
1,7601386,443,-1323,-921,-1493,-306,-40,429,31,-119
1,7601393,440,-1323,-918,-1484,-299,-44,429,31,-119
1,7601399,440,-1323,-918,-1484,-299,-44,429,31,-119
1,7601408,440,-1323,-918,-1484,-299,-44,429,31,-119
1,7601414,442,-1325,-918,-1480,-295,-47,429,31,-119
1,7601420,442,-1325,-918,-1480,-295,-47,429,31,-119
1,7601428,442,-1325,-918,-1480,-295,-47,429,31,-119
1,7601434,443,-1325,-920,-1490,-300,-41,429,31,-119
1,7601441,443,-1325,-920,-1490,-300,-41,429,31,-119
1,7601448,443,-1325,-920,-1490,-300,-41,429,31,-119
1,7601456,442,-1324,-909,-1481,-302,-42,426,34,-110
1,7601464,442,-1324,-909,-1481,-302,-42,426,34,-110
1,7601471,445,-1325,-913,-1481,-297,-43,426,34,-110
1,7601479,445,-1325,-913,-1481,-297,-43,426,34,-110
1,7601486,445,-1325,-913,-1481,-297,-43,426,34,-110
1,7601495,443,-1326,-920,-1484,-297,-49,426,34,-110
1,7601502,443,-1326,-920,-1484,-297,-49,426,34,-110
1,7601509,443,-1326,-920,-1484,-297,-49,426,34,-110
1,7601516,440,-1325,-918,-1486,-294,-42,426,34,-110
1,7601521,440,-1325,-918,-1486,-294,-42,426,34,-110
1,7601529,439,-1321,-916,-1482,-299,-40,426,34,-110
1,7601538,439,-1321,-916,-1482,-299,-40,426,34,-110
1,7601545,439,-1321,-916,-1482,-299,-40,426,34,-110
1,7601553,439,-1325,-922,-1490,-303,-37,426,34,-110
1,7601559,439,-1325,-922,-1490,-303,-37,426,34,-110
1,7601566,439,-1325,-922,-1490,-303,-37,426,34,-110
1,7601572,442,-1323,-922,-1495,-306,-41,426,34,-110
1,7601580,442,-1323,-922,-1495,-306,-41,426,34,-110
1,7601588,442,-1323,-922,-1495,-306,-41,426,34,-110
1,7601597,440,-1324,-919,-1494,-301,-43,425,35,-117
1,7601605,440,-1324,-919,-1494,-301,-43,425,35,-117
1,7601611,444,-1323,-914,-1490,-300,-46,425,35,-117
1,7601617,444,-1323,-914,-1490,-300,-46,425,35,-117
1,7601625,444,-1323,-914,-1490,-300,-46,425,35,-117
1,7601631,443,-1325,-918,-1490,-302,-46,425,35,-117
1,7601640,443,-1325,-918,-1490,-302,-46,425,35,-117
1,7601652,443,-1327,-919,-1486,-299,-45,425,35,-117
1,7601662,443,-1327,-919,-1486,-299,-45,425,35,-117
1,7601670,441,-1323,-922,-1482,-298,-44,425,35,-117
1,7601678,441,-1323,-922,-1482,-298,-44,425,35,-117
1,7601686,441,-1323,-922,-1482,-298,-44,425,35,-117
1,7601697,438,-1326,-914,-1487,-297,-38,425,35,-117
1,7601709,438,-1326,-914,-1487,-297,-38,425,35,-117
1,7601717,440,-1323,-911,-1487,-294,-36,426,32,-114
1,7601725,440,-1323,-911,-1487,-294,-36,426,32,-114
1,7601733,441,-1321,-916,-1486,-298,-37,426,32,-114
1,7601741,441,-1321,-916,-1486,-298,-37,426,32,-114
1,7601750,448,-1323,-917,-1487,-301,-44,426,32,-114
1,7601758,448,-1323,-917,-1487,-301,-44,426,32,-114
1,7601766,448,-1323,-917,-1487,-301,-44,426,32,-114
1,7601774,443,-1324,-918,-1487,-304,-37,426,32,-114
1,7601782,443,-1324,-918,-1487,-304,-37,426,32,-114
1,7601790,444,-1326,-922,-1488,-304,-39,426,32,-114
1,7601799,444,-1326,-922,-1488,-304,-39,426,32,-114
1,7601807,444,-1326,-922,-1488,-304,-39,426,32,-114
1,7601814,442,-1326,-917,-1484,-302,-37,426,32,-114
1,7601822,442,-1326,-917,-1484,-302,-37,426,32,-114
1,7601831,441,-1325,-917,-1491,-303,-41,426,38,-110
1,7601842,441,-1325,-917,-1491,-303,-41,426,38,-110
1,7601851,438,-1325,-920,-1487,-300,-40,426,38,-110
1,7601860,438,-1325,-920,-1487,-300,-40,426,38,-110
1,7601869,438,-1325,-920,-1487,-300,-40,426,38,-110
1,7601878,439,-1326,-918,-1481,-301,-45,426,38,-110
1,7601888,439,-1326,-918,-1481,-301,-45,426,38,-110
1,7601897,439,-1322,-920,-1481,-300,-42,426,38,-110
1,7601909,447,-1322,-920,-1486,-299,-41,426,38,-110
1,7601923,447,-1322,-920,-1486,-299,-41,426,38,-110
1,7601935,449,-1322,-919,-1489,-305,-38,426,38,-110
1,7601944,449,-1322,-919,-1489,-305,-38,426,38,-110
1,7601952,444,-1323,-918,-1484,-301,-39,425,29,-111
1,7601960,444,-1323,-918,-1484,-301,-39,425,29,-111
1,7601971,441,-1325,-919,-1488,-300,-38,425,29,-111
1,7601980,441,-1325,-919,-1488,-300,-38,425,29,-111
1,7601990,438,-1325,-915,-1490,-298,-38,425,29,-111
1,7602001,438,-1325,-915,-1490,-298,-38,425,29,-111
1,7602015,440,-1328,-922,-1492,-300,-33,425,29,-111
1,7602027,440,-1328,-922,-1492,-300,-33,425,29,-111
1,7602040,442,-1324,-919,-1494,-296,-39,425,29,-111
1,7602053,446,-1323,-916,-1491,-299,-34,425,29,-111
1,7602066,446,-1323,-916,-1491,-299,-34,425,29,-111
1,7602079,446,-1325,-924,-1486,-298,-35,425,29,-111
1,7602092,447,-1322,-914,-1489,-302,-39,427,31,-113
1,7602104,447,-1322,-914,-1489,-302,-39,427,31,-113
1,7602118,442,-1323,-921,-1487,-298,-36,427,31,-113
1,7602130,437,-1323,-923,-1485,-302,-43,427,31,-113
1,7602144,437,-1323,-923,-1485,-302,-43,427,31,-113
1,7602156,442,-1323,-920,-1484,-302,-49,427,31,-113
1,7602169,440,-1323,-916,-1483,-301,-48,427,31,-113
1,7602183,440,-1323,-916,-1483,-301,-48,427,31,-113
1,7602194,444,-1324,-916,-1494,-297,-35,427,31,-113
1,7602204,444,-1324,-916,-1494,-297,-35,427,31,-113
1,7602213,441,-1326,-914,-1492,-298,-40,422,32,-108
1,7602225,441,-1326,-914,-1492,-298,-40,422,32,-108
1,7602238,445,-1325,-917,-1490,-300,-41,422,32,-108
1,7602251,445,-1323,-921,-1485,-307,-42,422,32,-108
1,7602260,445,-1323,-921,-1485,-307,-42,422,32,-108
1,7602276,441,-1328,-920,-1491,-298,-35,422,32,-108
1,7602290,442,-1325,-917,-1486,-300,-41,422,32,-108
1,7602304,442,-1325,-917,-1486,-300,-41,422,32,-108
1,7602312,440,-1322,-918,-1488,-300,-42,422,32,-108
1,7602324,440,-1322,-918,-1488,-300,-42,422,32,-108
1,7602339,444,-1324,-917,-1483,-305,-38,426,32,-108
1,7602354,445,-1323,-920,-1487,-300,-39,426,32,-108
1,7602362,445,-1323,-920,-1487,-300,-39,426,32,-108
1,7602374,446,-1324,-918,-1493,-305,-43,426,32,-108
1,7602387,446,-1324,-918,-1493,-305,-43,426,32,-108
1,7602397,444,-1324,-918,-1489,-303,-49,426,32,-108
1,7602409,444,-1324,-918,-1489,-303,-49,426,32,-108
1,7602421,442,-1326,-918,-1491,-302,-40,426,32,-108
1,7602435,442,-1322,-922,-1482,-302,-40,426,32,-108
1,7602446,442,-1322,-922,-1482,-302,-40,426,32,-108
1,7602459,442,-1325,-914,-1484,-299,-39,432,30,-122
1,7602471,445,-1324,-918,-1490,-297,-39,432,30,-122
1,7602481,445,-1324,-918,-1490,-297,-39,432,30,-122
1,7602492,446,-1322,-918,-1480,-303,-39,432,30,-122
1,7602507,446,-1322,-918,-1480,-303,-39,432,30,-122
1,7602523,445,-1324,-913,-1476,-304,-38,432,30,-122
1,7602533,446,-1324,-919,-1486,-305,-37,432,30,-122
1,7602541,446,-1324,-919,-1486,-305,-37,432,30,-122
1,7602549,440,-1324,-925,-1482,-298,-33,432,30,-122
1,7602557,440,-1324,-925,-1482,-298,-33,432,30,-122
1,7602566,440,-1324,-925,-1482,-298,-33,432,30,-122
1,7602577,439,-1327,-920,-1492,-297,-34,426,34,-110
1,7602589,439,-1327,-920,-1492,-297,-34,426,34,-110
1,7602600,439,-1325,-913,-1490,-303,-34,426,34,-110
1,7602613,443,-1327,-915,-1487,-313,-43,426,34,-110
1,7602627,443,-1327,-915,-1487,-313,-43,426,34,-110
1,7602638,443,-1324,-917,-1481,-309,-41,426,34,-110
1,7602648,443,-1324,-917,-1481,-309,-41,426,34,-110
1,7602655,443,-1324,-919,-1489,-304,-43,426,34,-110
1,7602660,443,-1324,-919,-1489,-304,-43,426,34,-110
1,7602665,443,-1324,-919,-1489,-304,-43,426,34,-110
1,7602670,442,-1324,-915,-1486,-296,-45,426,34,-110
1,7602675,442,-1324,-915,-1486,-296,-45,426,34,-110
1,7602680,442,-1324,-915,-1486,-296,-45,426,34,-110
1,7602685,442,-1324,-915,-1486,-296,-45,426,34,-110
1,7602694,442,-1324,-918,-1476,-303,-45,426,34,-110
1,7602702,442,-1324,-918,-1476,-303,-45,426,34,-110
1,7602707,442,-1324,-918,-1476,-303,-45,426,34,-110
1,7602712,442,-1325,-917,-1491,-301,-47,428,30,-108
1,7602717,442,-1325,-917,-1491,-301,-47,428,30,-108
1,7602722,442,-1325,-917,-1491,-301,-47,428,30,-108
1,7602727,442,-1325,-917,-1491,-301,-47,428,30,-108
1,7602733,443,-1322,-917,-1488,-306,-43,428,30,-108
1,7602738,443,-1322,-917,-1488,-306,-43,428,30,-108
1,7602745,443,-1322,-917,-1488,-306,-43,428,30,-108
1,7602752,442,-1323,-916,-1481,-298,-41,428,30,-108
1,7602760,442,-1323,-916,-1481,-298,-41,428,30,-108
1,7602769,442,-1323,-916,-1481,-298,-41,428,30,-108
1,7602776,443,-1325,-917,-1481,-299,-42,428,30,-108
1,7602782,443,-1325,-917,-1481,-299,-42,428,30,-108
1,7602789,443,-1325,-917,-1481,-299,-42,428,30,-108
1,7602796,446,-1326,-914,-1495,-299,-40,428,30,-108
1,7602804,446,-1326,-914,-1495,-299,-40,428,30,-108
1,7602811,442,-1328,-921,-1488,-303,-42,428,30,-108
1,7602819,442,-1328,-921,-1488,-303,-42,428,30,-108
1,7602826,442,-1328,-921,-1488,-303,-42,428,30,-108
1,7602833,441,-1328,-918,-1490,-304,-43,428,38,-118
1,7602841,441,-1328,-918,-1490,-304,-43,428,38,-118
1,7602848,441,-1328,-918,-1490,-304,-43,428,38,-118
1,7602855,441,-1325,-922,-1497,-309,-38,428,38,-118
1,7602862,441,-1325,-922,-1497,-309,-38,428,38,-118
1,7602870,440,-1325,-913,-1492,-308,-31,428,38,-118
1,7602879,440,-1325,-913,-1492,-308,-31,428,38,-118
1,7602885,440,-1325,-913,-1492,-308,-31,428,38,-118
1,7602892,442,-1323,-919,-1481,-302,-35,428,38,-118
1,7602900,442,-1323,-919,-1481,-302,-35,428,38,-118
1,7602908,442,-1323,-919,-1481,-302,-35,428,38,-118
1,7602913,444,-1326,-916,-1486,-307,-41,428,38,-118
1,7602921,444,-1326,-916,-1486,-307,-41,428,38,-118
1,7602926,444,-1326,-916,-1486,-307,-41,428,38,-118
1,7602933,444,-1324,-914,-1488,-301,-40,428,38,-118
1,7602940,444,-1324,-914,-1488,-301,-40,428,38,-118
1,7602946,444,-1324,-914,-1488,-301,-40,428,38,-118
1,7602954,442,-1326,-918,-1485,-300,-43,427,35,-113
1,7602961,442,-1326,-918,-1485,-300,-43,427,35,-113
1,7602970,443,-1325,-920,-1483,-295,-35,427,35,-113
1,7602977,443,-1325,-920,-1483,-295,-35,427,35,-113
1,7602982,443,-1325,-920,-1483,-295,-35,427,35,-113
1,7602991,440,-1323,-916,-1487,-306,-34,427,35,-113
1,7602998,440,-1323,-916,-1487,-306,-34,427,35,-113
1,7603005,440,-1323,-916,-1487,-306,-34,427,35,-113
1,7603011,438,-1324,-918,-1488,-300,-50,427,35,-113
1,7603019,438,-1324,-918,-1488,-300,-50,427,35,-113
1,7603026,438,-1324,-918,-1488,-300,-50,427,35,-113
1,7603033,439,-1325,-918,-1487,-300,-43,427,35,-113
1,7603040,439,-1325,-918,-1487,-300,-43,427,35,-113
1,7603048,439,-1325,-918,-1487,-300,-43,427,35,-113
1,7603053,443,-1323,-917,-1491,-301,-46,427,35,-113
1,7603058,443,-1323,-917,-1491,-301,-46,427,35,-113
1,7603063,443,-1323,-917,-1491,-301,-46,427,35,-113
1,7603070,446,-1325,-917,-1484,-306,-45,427,31,-111
1,7603077,446,-1325,-917,-1484,-306,-45,427,31,-111
1,7603084,446,-1325,-917,-1484,-306,-45,427,31,-111
1,7603091,446,-1325,-916,-1492,-304,-42,427,31,-111
1,7603097,446,-1325,-916,-1492,-304,-42,427,31,-111
1,7603104,446,-1325,-916,-1492,-304,-42,427,31,-111
1,7603111,444,-1325,-917,-1493,-300,-39,427,31,-111
1,7603121,444,-1325,-917,-1493,-300,-39,427,31,-111
1,7603126,444,-1325,-917,-1493,-300,-39,427,31,-111
1,7603133,444,-1325,-919,-1489,-306,-43,427,31,-111
1,7603140,444,-1325,-919,-1489,-306,-43,427,31,-111
1,7603146,444,-1325,-919,-1489,-306,-43,427,31,-111
1,7603153,439,-1324,-922,-1482,-303,-40,427,31,-111
1,7603160,439,-1324,-922,-1482,-303,-40,427,31,-111
1,7603167,439,-1324,-922,-1482,-303,-40,427,31,-111
1,7603174,443,-1327,-920,-1486,-300,-44,427,31,-111
1,7603180,443,-1327,-920,-1486,-300,-44,427,31,-111
1,7603187,443,-1327,-920,-1486,-300,-44,427,31,-111
1,7603195,441,-1327,-917,-1488,-302,-38,427,31,-111
1,7603202,441,-1327,-917,-1488,-302,-38,427,31,-111
1,7603209,441,-1327,-917,-1488,-302,-38,427,31,-111
1,7603216,440,-1328,-920,-1488,-306,-45,429,35,-109
1,7603223,440,-1328,-920,-1488,-306,-45,429,35,-109
1,7603228,440,-1328,-920,-1488,-306,-45,429,35,-109
1,7603236,446,-1324,-918,-1489,-303,-35,429,35,-109
1,7603245,446,-1324,-918,-1489,-303,-35,429,35,-109
1,7603251,446,-1324,-916,-1493,-298,-39,429,35,-109
1,7603258,446,-1324,-916,-1493,-298,-39,429,35,-109
1,7603266,446,-1324,-916,-1493,-298,-39,429,35,-109
1,7603272,441,-1325,-919,-1487,-304,-42,429,35,-109
1,7603280,441,-1325,-919,-1487,-304,-42,429,35,-109
1,7603288,441,-1325,-919,-1487,-304,-42,429,35,-109
1,7603294,440,-1324,-919,-1481,-303,-42,429,35,-109
1,7603300,440,-1324,-919,-1481,-303,-42,429,35,-109
1,7603308,440,-1324,-919,-1481,-303,-42,429,35,-109
1,7603315,443,-1325,-922,-1487,-303,-43,429,35,-109
1,7603322,443,-1325,-922,-1487,-303,-43,429,35,-109
1,7603329,443,-1325,-922,-1487,-303,-43,429,35,-109
1,7603335,442,-1324,-921,-1493,-304,-44,426,34,-116
1,7603343,442,-1324,-921,-1493,-304,-44,426,34,-116
1,7603348,442,-1324,-921,-1493,-304,-44,426,34,-116
1,7603356,442,-1324,-917,-1494,-300,-44,426,34,-116
1,7603363,442,-1324,-917,-1494,-300,-44,426,34,-116
1,7603371,444,-1321,-920,-1483,-295,-43,426,34,-116
1,7603378,444,-1321,-920,-1483,-295,-43,426,34,-116
1,7603385,444,-1321,-920,-1483,-295,-43,426,34,-116
1,7603392,445,-1327,-921,-1489,-295,-37,426,34,-116
1,7603397,445,-1327,-921,-1489,-295,-37,426,34,-116
1,7603405,445,-1327,-921,-1489,-295,-37,426,34,-116
1,7603412,443,-1327,-919,-1491,-301,-38,426,34,-116
1,7603420,443,-1327,-919,-1491,-301,-38,426,34,-116
1,7603428,443,-1327,-919,-1491,-301,-38,426,34,-116
1,7603434,440,-1323,-920,-1495,-302,-39,426,34,-116
1,7603441,440,-1323,-920,-1495,-302,-39,426,34,-116
1,7603448,440,-1323,-920,-1495,-302,-39,426,34,-116
1,7603457,443,-1324,-913,-1497,-304,-46,434,40,-112
1,7603464,443,-1324,-913,-1497,-304,-46,434,40,-112
1,7603472,444,-1325,-919,-1492,-299,-36,434,40,-112
1,7603478,444,-1325,-919,-1492,-299,-36,434,40,-112
1,7603485,444,-1325,-919,-1492,-299,-36,434,40,-112
1,7603492,442,-1325,-918,-1490,-305,-41,434,40,-112
1,7603501,442,-1325,-918,-1490,-305,-41,434,40,-112
1,7603507,442,-1325,-918,-1490,-305,-41,434,40,-112
1,7603512,444,-1326,-915,-1489,-304,-35,434,40,-112
1,7603518,444,-1326,-915,-1489,-304,-35,434,40,-112
1,7603525,444,-1326,-915,-1489,-304,-35,434,40,-112
1,7603533,443,-1327,-918,-1487,-302,-37,434,40,-112
1,7603540,443,-1327,-918,-1487,-302,-37,434,40,-112
1,7603549,443,-1327,-918,-1487,-302,-37,434,40,-112
1,7603556,441,-1322,-919,-1489,-302,-39,434,40,-112
1,7603562,441,-1322,-919,-1489,-302,-39,434,40,-112
1,7603568,441,-1322,-919,-1489,-302,-39,434,40,-112
1,7603573,445,-1327,-911,-1487,-302,-36,424,28,-112
1,7603578,445,-1327,-911,-1487,-302,-36,424,28,-112
1,7603584,445,-1327,-911,-1487,-302,-36,424,28,-112
1,7603591,443,-1326,-917,-1481,-299,-34,424,28,-112
1,7603597,443,-1326,-917,-1481,-299,-34,424,28,-112
1,7603606,443,-1326,-917,-1481,-299,-34,424,28,-112
1,7603611,443,-1324,-918,-1486,-299,-39,424,28,-112
1,7603616,443,-1324,-918,-1486,-299,-39,424,28,-112
1,7603622,443,-1324,-918,-1486,-299,-39,424,28,-112
1,7603628,443,-1324,-918,-1486,-299,-39,424,28,-112
1,7603633,443,-1323,-921,-1487,-299,-43,424,28,-112
1,7603638,443,-1323,-921,-1487,-299,-43,424,28,-112
1,7603643,443,-1323,-921,-1487,-299,-43,424,28,-112
1,7603648,443,-1323,-921,-1487,-299,-43,424,28,-112
1,7603658,446,-1324,-924,-1483,-299,-41,424,28,-112
1,7603666,446,-1324,-924,-1483,-299,-41,424,28,-112
1,7603675,444,-1326,-918,-1486,-299,-36,424,28,-112
1,7603683,444,-1326,-918,-1486,-299,-36,424,28,-112
1,7603698,445,-1330,-922,-1493,-305,-37,424,28,-112
1,7603708,445,-1330,-922,-1493,-305,-37,424,28,-112
1,7603718,443,-1325,-920,-1492,-301,-44,431,33,-111
1,7603727,443,-1325,-920,-1492,-301,-44,431,33,-111
1,7603735,438,-1325,-923,-1490,-300,-48,431,33,-111
1,7603742,438,-1325,-923,-1490,-300,-48,431,33,-111
1,7603750,443,-1326,-917,-1487,-305,-38,431,33,-111
1,7603759,443,-1326,-917,-1487,-305,-38,431,33,-111
1,7603767,443,-1326,-917,-1487,-305,-38,431,33,-111
1,7603775,442,-1325,-914,-1486,-301,-34,431,33,-111
1,7603782,442,-1325,-914,-1486,-301,-34,431,33,-111
1,7603790,440,-1322,-918,-1486,-302,-37,431,33,-111
1,7603799,440,-1322,-918,-1486,-302,-37,431,33,-111
1,7603807,440,-1322,-918,-1486,-302,-37,431,33,-111
1,7603815,440,-1322,-918,-1486,-302,-37,431,33,-111
1,7603827,440,-1322,-918,-1486,-302,-37,431,33,-111
1,7603836,442,-1325,-920,-1483,-304,-40,430,32,-114
1,7603847,442,-1325,-920,-1483,-304,-40,430,32,-114
1,7603855,441,-1325,-921,-1488,-302,-46,430,32,-114
1,7603863,441,-1325,-921,-1488,-302,-46,430,32,-114
1,7603876,441,-1325,-921,-1488,-302,-46,430,32,-114
1,7603885,441,-1325,-921,-1488,-302,-46,430,32,-114
1,7603894,439,-1326,-919,-1494,-302,-44,430,32,-114
1,7603903,439,-1326,-919,-1494,-302,-44,430,32,-114
1,7603915,444,-1324,-915,-1492,-307,-45,430,32,-114
1,7603924,444,-1324,-915,-1492,-307,-45,430,32,-114
1,7603934,440,-1325,-918,-1488,-307,-50,430,32,-114
1,7603948,440,-1325,-918,-1488,-307,-50,430,32,-114
1,7603959,445,-1325,-916,-1485,-298,-40,426,28,-108
1,7603970,445,-1325,-916,-1485,-298,-40,426,28,-108
1,7603983,446,-1327,-921,-1480,-298,-44,426,28,-108
1,7603996,443,-1325,-916,-1487,-300,-40,426,28,-108
1,7604004,443,-1325,-916,-1487,-300,-40,426,28,-108
1,7604017,441,-1324,-921,-1490,-307,-40,426,28,-108
1,7604030,441,-1324,-921,-1490,-307,-40,426,28,-108
1,7604043,438,-1321,-922,-1483,-301,-39,426,28,-108
1,7604052,442,-1326,-924,-1482,-303,-43,426,28,-108
1,7604065,442,-1326,-924,-1482,-303,-43,426,28,-108
1,7604078,442,-1323,-916,-1487,-302,-41,428,36,-108
1,7604090,445,-1325,-914,-1490,-300,-50,428,36,-108
1,7604103,445,-1325,-914,-1490,-300,-50,428,36,-108
1,7604118,444,-1323,-922,-1490,-305,-45,428,36,-108
1,7604129,444,-1323,-922,-1490,-305,-45,428,36,-108
1,7604143,444,-1326,-919,-1490,-306,-42,428,36,-108
1,7604155,443,-1326,-920,-1492,-305,-39,428,36,-108
1,7604169,443,-1326,-920,-1492,-305,-39,428,36,-108
1,7604182,441,-1323,-913,-1483,-299,-41,428,36,-108
1,7604192,442,-1323,-917,-1491,-305,-37,428,36,-108
1,7604200,442,-1323,-917,-1491,-305,-37,428,36,-108
1,7604211,444,-1325,-914,-1489,-303,-32,425,37,-119
1,7604221,444,-1325,-914,-1489,-303,-32,425,37,-119
1,7604232,440,-1325,-924,-1487,-306,-42,425,37,-119
1,7604241,440,-1325,-924,-1487,-306,-42,425,37,-119
1,7604249,440,-1325,-924,-1487,-306,-42,425,37,-119
1,7604256,443,-1321,-921,-1480,-299,-45,425,37,-119
1,7604269,443,-1321,-921,-1480,-299,-45,425,37,-119
1,7604281,444,-1325,-920,-1488,-299,-36,425,37,-119
1,7604289,444,-1325,-920,-1488,-299,-36,425,37,-119
1,7604301,441,-1324,-919,-1487,-299,-30,425,37,-119
1,7604317,438,-1327,-925,-1489,-294,-39,425,37,-119
1,7604331,442,-1321,-911,-1479,-297,-30,428,36,-108
1,7604340,442,-1321,-911,-1479,-297,-30,428,36,-108
1,7604353,442,-1326,-914,-1487,-298,-39,428,36,-108
1,7604368,442,-1326,-914,-1487,-298,-39,428,36,-108
1,7604383,444,-1323,-915,-1491,-305,-41,428,36,-108
1,7604395,443,-1325,-922,-1486,-302,-35,428,36,-108
1,7604408,443,-1325,-922,-1486,-302,-35,428,36,-108
1,7604422,443,-1323,-919,-1489,-303,-34,428,36,-108
1,7604436,441,-1322,-917,-1490,-308,-43,428,36,-108
1,7604449,441,-1322,-917,-1490,-308,-43,428,36,-108
1,7604461,443,-1323,-916,-1487,-301,-46,422,32,-110
1,7604473,440,-1324,-920,-1489,-299,-39,422,32,-110
1,7604487,440,-1324,-920,-1489,-299,-39,422,32,-110
1,7604500,439,-1322,-921,-1495,-300,-42,422,32,-110
1,7604508,439,-1322,-921,-1495,-300,-42,422,32,-110
1,7604519,441,-1329,-922,-1486,-301,-44,422,32,-110
1,7604533,444,-1328,-924,-1487,-300,-41,422,32,-110
1,7604545,444,-1328,-924,-1487,-300,-41,422,32,-110
1,7604555,444,-1325,-920,-1488,-293,-41,422,32,-110
1,7604568,444,-1325,-920,-1488,-293,-41,422,32,-110
1,7604579,441,-1322,-914,-1489,-299,-40,424,36,-108
1,7604592,442,-1322,-917,-1480,-305,-33,424,36,-108
1,7604603,442,-1322,-917,-1480,-305,-33,424,36,-108
1,7604616,438,-1325,-917,-1480,-304,-44,424,36,-108
1,7604628,438,-1325,-917,-1480,-304,-44,424,36,-108
1,7604641,440,-1325,-920,-1484,-301,-41,424,36,-108
1,7604655,444,-1325,-923,-1483,-297,-39,424,36,-108
1,7604660,444,-1325,-923,-1483,-297,-39,424,36,-108
1,7604665,444,-1325,-923,-1483,-297,-39,424,36,-108
1,7604671,445,-1324,-919,-1484,-301,-42,424,36,-108
1,7604676,445,-1324,-919,-1484,-301,-42,424,36,-108
1,7604680,445,-1324,-919,-1484,-301,-42,424,36,-108
1,7604685,445,-1324,-919,-1484,-301,-42,424,36,-108
1,7604690,443,-1323,-917,-1487,-305,-43,427,39,-105
1,7604698,443,-1323,-917,-1487,-305,-43,427,39,-105
1,7604705,443,-1323,-917,-1487,-305,-43,427,39,-105
1,7604710,443,-1323,-917,-1487,-305,-43,427,39,-105
1,7604715,445,-1322,-919,-1487,-307,-33,427,39,-105
1,7604720,445,-1322,-919,-1487,-307,-33,427,39,-105
1,7604725,445,-1322,-919,-1487,-307,-33,427,39,-105
1,7604730,441,-1322,-917,-1484,-296,-38,427,39,-105
1,7604736,441,-1322,-917,-1484,-296,-38,427,39,-105
1,7604742,441,-1322,-917,-1484,-296,-38,427,39,-105
1,7604749,441,-1322,-917,-1484,-296,-38,427,39,-105
1,7604755,442,-1320,-919,-1488,-305,-42,427,39,-105
1,7604762,442,-1320,-919,-1488,-305,-42,427,39,-105
1,7604770,438,-1323,-920,-1490,-305,-45,427,39,-105
1,7604779,438,-1323,-920,-1490,-305,-45,427,39,-105
1,7604786,438,-1323,-920,-1490,-305,-45,427,39,-105
1,7604791,438,-1326,-917,-1486,-296,-36,427,39,-105
1,7604798,438,-1326,-917,-1486,-296,-36,427,39,-105
1,7604805,438,-1326,-917,-1486,-296,-36,427,39,-105
1,7604813,440,-1325,-917,-1483,-305,-40,427,39,-105
1,7604820,440,-1325,-917,-1483,-305,-40,427,39,-105
1,7604828,440,-1325,-917,-1483,-305,-40,427,39,-105
1,7604835,442,-1325,-916,-1487,-304,-39,426,30,-108
1,7604842,442,-1325,-916,-1487,-304,-39,426,30,-108
1,7604849,442,-1325,-916,-1487,-304,-39,426,30,-108
1,7604855,446,-1327,-920,-1492,-301,-32,426,30,-108
1,7604865,446,-1327,-920,-1492,-301,-32,426,30,-108
1,7604871,446,-1324,-920,-1490,-302,-41,426,30,-108
1,7604880,446,-1324,-920,-1490,-302,-41,426,30,-108
1,7604887,446,-1324,-920,-1490,-302,-41,426,30,-108
1,7604892,440,-1325,-914,-1482,-301,-38,426,30,-108
1,7604898,440,-1325,-914,-1482,-301,-38,426,30,-108
1,7604907,440,-1325,-914,-1482,-301,-38,426,30,-108
1,7604914,441,-1324,-918,-1490,-296,-30,426,30,-108
1,7604921,441,-1324,-918,-1490,-296,-30,426,30,-108
1,7604927,441,-1324,-918,-1490,-296,-30,426,30,-108
1,7604935,438,-1324,-916,-1493,-301,-38,426,30,-108
1,7604940,438,-1324,-916,-1493,-301,-38,426,30,-108
1,7604947,438,-1324,-916,-1493,-301,-38,426,30,-108
1,7604955,441,-1325,-914,-1490,-299,-36,425,33,-113
1,7604964,441,-1325,-914,-1490,-299,-36,425,33,-113
1,7604971,447,-1323,-913,-1489,-299,-36,425,33,-113
1,7604979,447,-1323,-913,-1489,-299,-36,425,33,-113
1,7604986,447,-1323,-913,-1489,-299,-36,425,33,-113
1,7604994,442,-1325,-914,-1492,-306,-37,425,33,-113
1,7605000,442,-1325,-914,-1492,-306,-37,425,33,-113
1,7605006,442,-1325,-914,-1492,-306,-37,425,33,-113
1,7605014,441,-1324,-923,-1491,-304,-46,425,33,-113
1,7605022,441,-1324,-923,-1491,-304,-46,425,33,-113
1,7605030,439,-1326,-918,-1485,-309,-39,425,33,-113
1,7605038,439,-1326,-918,-1485,-309,-39,425,33,-113
1,7605045,439,-1326,-918,-1485,-309,-39,425,33,-113
1,7605052,440,-1326,-924,-1482,-303,-40,425,33,-113
1,7605059,440,-1326,-924,-1482,-303,-40,425,33,-113
1,7605066,440,-1326,-924,-1482,-303,-40,425,33,-113
1,7605073,443,-1324,-917,-1490,-297,-38,425,35,-113
1,7605079,443,-1324,-917,-1490,-297,-38,425,35,-113
1,7605085,443,-1324,-917,-1490,-297,-38,425,35,-113
1,7605090,443,-1324,-917,-1490,-297,-38,425,35,-113
1,7605099,440,-1326,-915,-1493,-297,-46,425,35,-113
1,7605106,440,-1326,-915,-1493,-297,-46,425,35,-113
1,7605114,440,-1324,-918,-1492,-301,-43,425,35,-113
1,7605121,440,-1324,-918,-1492,-301,-43,425,35,-113
1,7605129,440,-1324,-918,-1492,-301,-43,425,35,-113
1,7605135,442,-1324,-916,-1492,-300,-43,425,35,-113
1,7605141,442,-1324,-916,-1492,-300,-43,425,35,-113
1,7605149,442,-1324,-916,-1492,-300,-43,425,35,-113
1,7605156,441,-1327,-919,-1492,-309,-44,425,35,-113
1,7605163,441,-1327,-919,-1492,-309,-44,425,35,-113
1,7605171,445,-1327,-921,-1488,-302,-39,425,35,-113
1,7605176,445,-1327,-921,-1488,-302,-39,425,35,-113
1,7605182,445,-1327,-921,-1488,-302,-39,425,35,-113
1,7605189,445,-1327,-921,-1488,-302,-39,425,35,-113
1,7605197,443,-1324,-919,-1482,-301,-40,420,36,-112
1,7605206,443,-1324,-919,-1482,-301,-40,420,36,-112
1,7605212,444,-1324,-916,-1484,-304,-46,420,36,-112
1,7605219,444,-1324,-916,-1484,-304,-46,420,36,-112
1,7605224,444,-1324,-916,-1484,-304,-46,420,36,-112
1,7605231,442,-1325,-918,-1489,-302,-50,420,36,-112
1,7605239,442,-1325,-918,-1489,-302,-50,420,36,-112
1,7605244,442,-1325,-918,-1489,-302,-50,420,36,-112
1,7605253,442,-1323,-920,-1496,-302,-46,420,36,-112
1,7605260,442,-1323,-920,-1496,-302,-46,420,36,-112
1,7605267,442,-1323,-920,-1496,-302,-46,420,36,-112
1,7605273,448,-1325,-919,-1490,-301,-42,420,36,-112
1,7605280,448,-1325,-919,-1490,-301,-42,420,36,-112
1,7605287,448,-1325,-919,-1490,-301,-42,420,36,-112
1,7605295,442,-1325,-917,-1493,-301,-36,420,36,-112
1,7605302,442,-1325,-917,-1493,-301,-36,420,36,-112
1,7605308,442,-1325,-917,-1493,-301,-36,420,36,-112
1,7605316,439,-1326,-916,-1495,-295,-35,420,36,-112
1,7605323,439,-1326,-916,-1495,-295,-35,420,36,-112
1,7605330,440,-1326,-922,-1491,-297,-37,427,36,-112
1,7605338,440,-1326,-922,-1491,-297,-37,427,39,-109
1,7605345,440,-1326,-922,-1491,-297,-37,427,39,-109
1,7605351,441,-1324,-917,-1482,-301,-45,427,39,-109
1,7605358,441,-1324,-917,-1482,-301,-45,427,39,-109
1,7605366,441,-1324,-917,-1482,-301,-45,427,39,-109
1,7605373,443,-1326,-913,-1488,-304,-49,427,39,-109
1,7605380,443,-1326,-913,-1488,-304,-49,427,39,-109
1,7605388,443,-1326,-913,-1488,-304,-49,427,39,-109
1,7605396,445,-1325,-921,-1491,-309,-35,427,39,-109
1,7605403,445,-1325,-921,-1491,-309,-35,427,39,-109
1,7605408,445,-1325,-921,-1491,-309,-35,427,39,-109
1,7605416,446,-1327,-922,-1484,-297,-40,427,39,-109
1,7605424,446,-1327,-922,-1484,-297,-40,427,39,-109
1,7605431,446,-1327,-922,-1484,-297,-40,427,39,-109
1,7605438,446,-1327,-922,-1484,-297,-40,427,39,-109
1,7605445,446,-1327,-922,-1484,-297,-40,427,39,-109
1,7605452,442,-1325,-911,-1492,-295,-42,424,34,-118
1,7605458,442,-1325,-911,-1492,-295,-42,424,34,-118
1,7605467,442,-1325,-911,-1492,-295,-42,424,34,-118
1,7605475,441,-1328,-919,-1488,-303,-38,424,34,-118
1,7605482,441,-1328,-919,-1488,-303,-38,424,34,-118
1,7605489,441,-1328,-919,-1488,-303,-38,424,34,-118
1,7605496,445,-1325,-918,-1493,-303,-44,424,34,-118
1,7605505,445,-1325,-918,-1493,-303,-44,424,34,-118
1,7605510,445,-1325,-918,-1493,-303,-44,424,34,-118
1,7605517,445,-1327,-916,-1492,-307,-40,424,34,-118
1,7605525,445,-1327,-916,-1492,-307,-40,424,34,-118
1,7605532,441,-1328,-921,-1489,-300,-39,424,34,-118
1,7605537,441,-1328,-921,-1489,-300,-39,424,34,-118
1,7605542,441,-1328,-921,-1489,-300,-39,424,34,-118
1,7605548,441,-1328,-921,-1489,-300,-39,424,34,-118
1,7605555,442,-1326,-921,-1484,-303,-35,424,34,-118
1,7605562,442,-1326,-921,-1484,-303,-35,424,34,-118
1,7605569,442,-1326,-921,-1484,-303,-35,424,34,-118
1,7605576,443,-1324,-920,-1482,-306,-43,417,31,-111
1,7605584,443,-1324,-920,-1482,-306,-43,417,31,-111
1,7605593,444,-1326,-920,-1496,-308,-40,417,31,-111
1,7605600,444,-1326,-920,-1496,-308,-40,417,31,-111
1,7605606,444,-1326,-920,-1496,-308,-40,417,31,-111
1,7605611,443,-1327,-924,-1490,-300,-38,417,31,-111
1,7605618,443,-1327,-924,-1490,-300,-38,417,31,-111
1,7605625,443,-1327,-924,-1490,-300,-38,417,31,-111
1,7605634,441,-1325,-915,-1491,-302,-33,417,31,-111
1,7605639,441,-1325,-915,-1491,-302,-33,417,31,-111
1,7605645,441,-1325,-915,-1491,-302,-33,417,31,-111
1,7605652,441,-1325,-917,-1488,-305,-37,417,31,-111
1,7605660,441,-1325,-917,-1488,-305,-37,417,31,-111
1,7605666,441,-1325,-917,-1488,-305,-37,417,31,-111
1,7605675,441,-1325,-921,-1490,-304,-40,417,31,-111
1,7605683,441,-1325,-921,-1490,-304,-40,417,31,-111
1,7605692,441,-1326,-918,-1486,-306,-39,426,32,-116
1,7605704,441,-1326,-918,-1486,-306,-39,426,32,-116
1,7605712,441,-1328,-918,-1495,-307,-41,426,32,-116
1,7605720,441,-1328,-918,-1495,-307,-41,426,32,-116
1,7605729,441,-1328,-918,-1495,-307,-41,426,32,-116
1,7605738,442,-1327,-924,-1490,-308,-41,426,32,-116
1,7605746,442,-1327,-924,-1490,-308,-41,426,32,-116
1,7605754,444,-1324,-918,-1482,-301,-40,426,32,-116
1,7605763,444,-1324,-918,-1482,-301,-40,426,32,-116
1,7605771,444,-1324,-918,-1482,-301,-40,426,32,-116
1,7605779,444,-1325,-919,-1489,-302,-42,426,32,-116
1,7605786,444,-1325,-919,-1489,-302,-42,426,32,-116
1,7605794,444,-1324,-918,-1492,-299,-38,426,32,-116
1,7605803,444,-1324,-918,-1492,-299,-38,426,32,-116
1,7605811,442,-1325,-919,-1484,-298,-40,426,32,-116
1,7605819,442,-1325,-919,-1484,-298,-40,426,32,-116
1,7605828,442,-1325,-919,-1484,-298,-40,426,32,-116
1,7605841,442,-1323,-914,-1485,-296,-40,430,36,-112
1,7605855,443,-1327,-912,-1484,-291,-34,430,36,-112
1,7605867,443,-1327,-912,-1484,-291,-34,430,36,-112
1,7605879,442,-1328,-921,-1478,-297,-28,430,36,-112
1,7605893,443,-1323,-919,-1491,-296,-37,430,36,-112
1,7605906,443,-1323,-919,-1491,-296,-37,430,36,-112
1,7605918,441,-1327,-918,-1492,-295,-38,430,36,-112
1,7605929,441,-1327,-918,-1492,-295,-38,430,36,-112
1,7605942,437,-1325,-919,-1493,-300,-41,430,36,-112
1,7605952,444,-1326,-918,-1492,-296,-37,429,37,-109
1,7605964,444,-1326,-918,-1492,-296,-37,429,37,-109
1,7605978,446,-1326,-926,-1479,-295,-44,429,37,-109
1,7605992,444,-1327,-916,-1485,-299,-47,429,37,-109
1,7606003,444,-1327,-916,-1485,-299,-47,429,37,-109
1,7606016,438,-1327,-914,-1493,-296,-42,429,37,-109
1,7606029,438,-1327,-914,-1493,-296,-42,429,37,-109
1,7606042,442,-1326,-923,-1491,-294,-42,429,37,-109
1,7606054,438,-1327,-919,-1490,-295,-43,429,37,-109
1,7606067,438,-1327,-919,-1490,-295,-43,429,37,-109
1,7606080,440,-1323,-917,-1487,-306,-41,431,31,-111
1,7606093,440,-1323,-917,-1486,-302,-41,431,31,-111
1,7606106,440,-1323,-917,-1486,-302,-41,431,31,-111
1,7606117,438,-1324,-917,-1486,-298,-41,431,31,-111
1,7606131,442,-1329,-916,-1491,-300,-43,431,31,-111
1,7606145,442,-1329,-916,-1491,-300,-43,431,31,-111
1,7606157,442,-1325,-914,-1489,-298,-50,431,31,-111
1,7606166,442,-1325,-914,-1489,-298,-50,431,31,-111
1,7606178,444,-1327,-925,-1497,-299,-39,431,31,-111
1,7606192,440,-1327,-922,-1493,-307,-42,422,34,-112
1,7606200,440,-1327,-922,-1493,-307,-42,422,34,-112
1,7606208,440,-1327,-922,-1493,-307,-42,422,34,-112
1,7606216,437,-1327,-918,-1491,-303,-39,422,34,-112
1,7606224,437,-1327,-918,-1491,-303,-39,422,34,-112
1,7606237,440,-1328,-918,-1490,-306,-44,422,34,-112
1,7606251,440,-1328,-918,-1490,-306,-44,422,34,-112
1,7606263,440,-1324,-922,-1485,-302,-45,422,34,-112
1,7606276,445,-1323,-923,-1486,-302,-44,422,34,-112
1,7606290,445,-1323,-923,-1486,-302,-44,422,34,-112
1,7606301,444,-1324,-919,-1489,-304,-43,422,34,-112
1,7606315,441,-1323,-918,-1487,-301,-35,427,35,-109
1,7606326,441,-1323,-918,-1487,-301,-35,427,35,-109
1,7606340,441,-1323,-920,-1493,-296,-35,427,35,-109
1,7606351,439,-1323,-914,-1495,-293,-32,427,35,-109
1,7606364,439,-1323,-914,-1495,-293,-32,427,35,-109
1,7606378,442,-1320,-919,-1488,-301,-38,427,35,-109
1,7606390,442,-1320,-919,-1488,-301,-38,427,35,-109
1,7606405,441,-1327,-917,-1484,-306,-42,427,35,-109
1,7606417,443,-1328,-922,-1489,-303,-44,427,35,-109
1,7606430,443,-1328,-922,-1489,-303,-44,427,35,-109
1,7606443,445,-1326,-917,-1491,-303,-48,427,35,-109
1,7606456,443,-1328,-913,-1492,-301,-37,427,33,-107
1,7606469,443,-1328,-913,-1492,-301,-37,427,33,-107
1,7606482,438,-1324,-916,-1483,-303,-27,427,33,-107
1,7606494,436,-1324,-918,-1490,-299,-36,427,33,-107
1,7606506,436,-1324,-918,-1490,-299,-36,427,33,-107
1,7606518,436,-1322,-918,-1492,-303,-42,427,33,-107
1,7606532,436,-1323,-921,-1488,-304,-48,427,33,-107
1,7606544,436,-1323,-921,-1488,-304,-48,427,33,-107
1,7606556,442,-1326,-923,-1484,-297,-47,427,33,-107
1,7606569,442,-1326,-923,-1484,-297,-47,427,33,-107
1,7606583,444,-1326,-912,-1479,-302,-49,433,45,-107
1,7606596,444,-1326,-921,-1491,-306,-42,433,45,-107
1,7606608,444,-1326,-921,-1491,-306,-42,433,45,-107
1,7606621,445,-1328,-922,-1502,-303,-43,433,45,-107
1,7606632,445,-1328,-922,-1502,-303,-43,433,45,-107
1,7606647,445,-1328,-922,-1502,-303,-43,433,45,-107
1,7606661,436,-1326,-924,-1489,-302,-33,433,45,-107
1,7606669,436,-1326,-924,-1489,-302,-33,433,45,-107
1,7606674,440,-1324,-920,-1492,-299,-27,433,45,-107
1,7606679,440,-1324,-920,-1492,-299,-27,433,45,-107
1,7606684,440,-1324,-920,-1492,-299,-27,433,45,-107
1,7606690,440,-1324,-920,-1492,-299,-27,433,45,-107
1,7606697,436,-1327,-918,-1488,-306,-32,430,40,-112
1,7606706,436,-1327,-918,-1488,-306,-32,430,40,-112
1,7606711,444,-1322,-918,-1482,-299,-42,430,40,-112
1,7606716,444,-1322,-918,-1482,-299,-42,430,40,-112
1,7606721,444,-1322,-918,-1482,-299,-42,430,40,-112
1,7606726,444,-1322,-918,-1482,-299,-42,430,40,-112
1,7606732,441,-1323,-918,-1492,-290,-45,430,40,-112
1,7606737,441,-1323,-918,-1492,-290,-45,430,40,-112
1,7606744,441,-1323,-918,-1492,-290,-45,430,40,-112
1,7606752,442,-1323,-921,-1493,-297,-46,430,40,-112
1,7606758,442,-1323,-921,-1493,-297,-46,430,40,-112
1,7606765,442,-1323,-921,-1493,-297,-46,430,40,-112
1,7606773,445,-1325,-918,-1493,-299,-46,430,40,-112
1,7606781,445,-1325,-918,-1493,-299,-46,430,40,-112
1,7606789,445,-1325,-918,-1493,-299,-46,430,40,-112
1,7606795,441,-1323,-920,-1495,-302,-37,430,40,-112
1,7606803,441,-1323,-920,-1495,-302,-37,430,40,-112
1,7606810,441,-1323,-920,-1495,-302,-37,430,40,-112
1,7606816,442,-1327,-923,-1486,-305,-36,424,32,-114
1,7606821,442,-1327,-923,-1486,-305,-36,424,32,-114
1,7606828,442,-1327,-923,-1486,-305,-36,424,32,-114
1,7606833,436,-1326,-916,-1482,-300,-36,424,32,-114
1,7606839,436,-1326,-916,-1482,-300,-36,424,32,-114
1,7606847,436,-1326,-916,-1482,-300,-36,424,32,-114
1,7606853,436,-1326,-915,-1491,-302,-38,424,32,-114
1,7606860,436,-1326,-915,-1491,-302,-38,424,32,-114
1,7606866,436,-1326,-915,-1491,-302,-38,424,32,-114
1,7606875,444,-1325,-921,-1485,-302,-44,424,32,-114
1,7606882,444,-1325,-921,-1485,-302,-44,424,32,-114
1,7606888,444,-1325,-921,-1485,-302,-44,424,32,-114
1,7606894,442,-1324,-924,-1491,-301,-40,424,32,-114
1,7606902,442,-1324,-924,-1491,-301,-40,424,32,-114
1,7606909,442,-1324,-924,-1491,-301,-40,424,32,-114
1,7606916,442,-1322,-921,-1486,-297,-47,424,32,-114
1,7606924,442,-1322,-921,-1486,-297,-47,424,32,-114
1,7606931,442,-1322,-925,-1484,-298,-39,424,32,-114
1,7606940,442,-1322,-925,-1484,-298,-39,424,32,-114
1,7606947,442,-1322,-925,-1484,-298,-39,424,32,-114
1,7606952,443,-1324,-917,-1484,-296,-41,426,36,-112
1,7606960,443,-1324,-917,-1484,-296,-41,426,36,-112
1,7606968,443,-1324,-917,-1484,-296,-41,426,36,-112
1,7606974,441,-1327,-920,-1485,-303,-50,426,36,-112
1,7606980,441,-1327,-920,-1485,-303,-50,426,36,-112
1,7606986,441,-1327,-920,-1485,-303,-50,426,36,-112
1,7606994,441,-1326,-919,-1494,-301,-44,426,36,-112
1,7607001,441,-1326,-919,-1494,-301,-44,426,36,-112
1,7607009,441,-1326,-919,-1494,-301,-44,426,36,-112
1,7607016,440,-1324,-922,-1492,-306,-42,426,36,-112
1,7607024,440,-1324,-922,-1492,-306,-42,426,36,-112
1,7607031,440,-1324,-922,-1492,-306,-42,426,36,-112
1,7607037,439,-1325,-921,-1490,-300,-37,426,36,-112
1,7607045,439,-1325,-921,-1490,-300,-37,426,36,-112
1,7607053,444,-1326,-917,-1488,-300,-37,426,36,-112
1,7607060,444,-1326,-917,-1488,-300,-37,426,36,-112
1,7607067,444,-1326,-917,-1488,-300,-37,426,36,-112
1,7607074,444,-1327,-921,-1483,-303,-40,429,37,-111
1,7607081,444,-1327,-921,-1483,-303,-40,429,37,-111
1,7607088,444,-1327,-921,-1483,-303,-40,429,37,-111
1,7607095,443,-1324,-917,-1484,-297,-40,429,37,-111
1,7607103,443,-1324,-917,-1484,-297,-40,429,37,-111
1,7607109,443,-1324,-917,-1484,-297,-40,429,37,-111
1,7607116,439,-1326,-915,-1484,-304,-41,429,37,-111
1,7607126,439,-1326,-915,-1484,-304,-41,429,37,-111
1,7607133,440,-1325,-917,-1488,-304,-39,429,37,-111
1,7607139,440,-1325,-917,-1488,-304,-39,429,37,-111
1,7607147,440,-1325,-917,-1488,-304,-39,429,37,-111
1,7607153,443,-1326,-920,-1485,-299,-40,429,37,-111
1,7607161,443,-1326,-920,-1485,-299,-40,429,37,-111
1,7607168,443,-1326,-920,-1485,-299,-40,429,37,-111
1,7607174,443,-1324,-923,-1483,-297,-39,429,37,-111
1,7607181,443,-1324,-923,-1483,-297,-39,429,37,-111
1,7607188,443,-1324,-923,-1483,-297,-39,429,37,-111
1,7607195,445,-1324,-917,-1485,-304,-38,422,32,-110
1,7607201,445,-1324,-917,-1485,-304,-38,422,32,-110
1,7607209,445,-1324,-917,-1485,-304,-38,422,32,-110
1,7607219,442,-1322,-916,-1489,-311,-44,422,32,-110
1,7607225,442,-1322,-916,-1489,-311,-44,422,32,-110
1,7607231,442,-1322,-916,-1489,-311,-44,422,32,-110
1,7607238,440,-1325,-912,-1490,-309,-43,422,32,-110
1,7607245,440,-1325,-912,-1490,-309,-43,422,32,-110
1,7607251,442,-1325,-917,-1482,-302,-44,422,32,-110
1,7607260,442,-1325,-917,-1482,-302,-44,422,32,-110
1,7607267,442,-1325,-917,-1482,-302,-44,422,32,-110
1,7607273,440,-1323,-920,-1488,-309,-46,422,32,-110
1,7607279,440,-1323,-920,-1488,-309,-46,422,32,-110
1,7607285,440,-1323,-920,-1488,-309,-46,422,32,-110
1,7607293,441,-1324,-920,-1488,-306,-44,422,32,-110
1,7607302,441,-1324,-920,-1488,-306,-44,422,32,-110
1,7607310,441,-1324,-920,-1488,-306,-44,422,32,-110
1,7607317,439,-1328,-916,-1495,-297,-41,423,33,-109
1,7607324,439,-1328,-916,-1495,-297,-41,423,33,-109
1,7607330,439,-1328,-916,-1495,-297,-41,423,33,-109
1,7607336,443,-1324,-919,-1488,-301,-40,423,33,-109
1,7607342,443,-1324,-919,-1488,-301,-40,423,33,-109
1,7607348,443,-1324,-919,-1488,-301,-40,423,33,-109
1,7607355,441,-1325,-921,-1486,-304,-31,423,33,-109
1,7607362,441,-1325,-921,-1486,-304,-31,423,33,-109
1,7607369,441,-1325,-921,-1486,-304,-31,423,33,-109
1,7607376,443,-1321,-919,-1491,-299,-35,423,33,-109
1,7607385,443,-1321,-919,-1491,-299,-35,423,33,-109
1,7607392,443,-1324,-919,-1489,-301,-37,423,33,-109
1,7607398,443,-1324,-919,-1489,-301,-37,423,33,-109
1,7607404,443,-1324,-919,-1489,-301,-37,423,33,-109
1,7607411,440,-1329,-920,-1487,-299,-36,423,33,-109
1,7607418,440,-1329,-920,-1487,-299,-36,423,33,-109
1,7607426,440,-1329,-920,-1487,-299,-36,423,33,-109
1,7607434,438,-1327,-918,-1485,-290,-40,423,33,-109
1,7607440,438,-1327,-918,-1485,-290,-40,423,33,-109
1,7607447,438,-1327,-918,-1485,-290,-40,423,33,-109
1,7607455,439,-1325,-914,-1485,-298,-41,426,34,-122
1,7607461,439,-1325,-914,-1485,-298,-41,426,34,-122
1,7607469,439,-1325,-914,-1485,-298,-41,426,34,-122
1,7607475,439,-1324,-917,-1484,-306,-43,426,34,-122
1,7607482,439,-1324,-917,-1484,-306,-43,426,34,-122
1,7607487,439,-1324,-917,-1484,-306,-43,426,34,-122
1,7607495,439,-1324,-918,-1489,-306,-44,426,34,-122
1,7607502,439,-1324,-918,-1489,-306,-44,426,34,-122
1,7607511,439,-1324,-918,-1489,-306,-44,426,34,-122
1,7607517,442,-1326,-923,-1496,-297,-40,426,34,-122
1,7607524,442,-1326,-923,-1496,-297,-40,426,34,-122
1,7607531,440,-1324,-923,-1483,-296,-38,426,34,-122
1,7607536,440,-1324,-923,-1483,-296,-38,426,34,-122
1,7607544,440,-1324,-923,-1483,-296,-38,426,34,-122
1,7607553,442,-1327,-919,-1489,-299,-41,426,34,-122
1,7607560,442,-1327,-919,-1489,-299,-41,426,34,-122
1,7607566,442,-1327,-919,-1489,-299,-41,426,34,-122
1,7607573,441,-1327,-914,-1484,-300,-38,425,33,-111
1,7607580,441,-1327,-914,-1484,-300,-38,425,33,-111
1,7607586,441,-1327,-914,-1484,-300,-38,425,33,-111
1,7607595,439,-1326,-916,-1495,-298,-41,425,33,-111
1,7607601,439,-1326,-916,-1495,-298,-41,425,33,-111
1,7607606,439,-1326,-916,-1495,-298,-41,425,33,-111
1,7607614,441,-1329,-920,-1487,-294,-37,425,33,-111
1,7607621,441,-1329,-920,-1487,-294,-37,425,33,-111
1,7607628,441,-1329,-920,-1487,-294,-37,425,33,-111
1,7607634,440,-1323,-918,-1487,-307,-38,425,33,-111
1,7607644,440,-1323,-918,-1487,-307,-38,425,33,-111
1,7607651,440,-1323,-918,-1487,-307,-38,425,33,-111
1,7607658,443,-1322,-921,-1489,-297,-34,425,33,-111
1,7607663,443,-1322,-921,-1489,-297,-34,425,33,-111
1,7607668,443,-1322,-921,-1489,-297,-34,425,33,-111
1,7607672,446,-1325,-921,-1489,-297,-41,425,33,-111
1,7607677,446,-1325,-921,-1489,-297,-41,425,33,-111
1,7607686,446,-1325,-921,-1489,-297,-41,425,33,-111
1,7607695,442,-1325,-913,-1482,-298,-46,429,35,-115
1,7607706,442,-1325,-913,-1482,-298,-46,429,35,-115
1,7607714,443,-1325,-913,-1487,-305,-40,429,35,-115
1,7607723,443,-1325,-913,-1487,-305,-40,429,35,-115
1,7607731,443,-1325,-913,-1487,-305,-40,429,35,-115
1,7607739,439,-1325,-924,-1495,-301,-39,429,35,-115
1,7607746,439,-1325,-924,-1495,-301,-39,429,35,-115
1,7607754,442,-1322,-919,-1492,-296,-44,429,35,-115
1,7607762,442,-1322,-919,-1492,-296,-44,429,35,-115
1,7607771,442,-1322,-919,-1492,-296,-44,429,35,-115
1,7607779,443,-1324,-921,-1485,-305,-43,429,35,-115
1,7607787,443,-1324,-921,-1485,-305,-43,429,35,-115
1,7607795,441,-1324,-921,-1482,-304,-47,429,35,-115
1,7607802,441,-1324,-921,-1482,-304,-47,429,35,-115
1,7607811,441,-1324,-921,-1482,-304,-47,429,35,-115
1,7607819,441,-1327,-913,-1491,-301,-45,427,33,-117
1,7607831,441,-1327,-913,-1491,-301,-45,427,33,-117
1,7607840,441,-1325,-913,-1488,-299,-40,427,33,-117
1,7607848,441,-1325,-913,-1488,-299,-40,427,33,-117
1,7607856,442,-1324,-913,-1491,-299,-42,427,33,-117
1,7607864,442,-1324,-913,-1491,-299,-42,427,33,-117
1,7607874,443,-1325,-919,-1494,-301,-33,427,33,-117
1,7607886,443,-1325,-919,-1494,-301,-33,427,33,-117
1,7607901,442,-1324,-919,-1489,-302,-41,427,33,-117
1,7607914,441,-1324,-922,-1486,-303,-37,427,33,-117
1,7607924,441,-1324,-922,-1486,-303,-37,427,33,-117
1,7607937,439,-1323,-920,-1491,-296,-40,433,39,-103
1,7607951,439,-1323,-920,-1491,-296,-40,433,39,-103
1,7607963,437,-1324,-915,-1493,-300,-42,433,39,-103
1,7607974,441,-1322,-916,-1499,-294,-41,433,39,-103
1,7607989,441,-1322,-916,-1499,-294,-41,433,39,-103
1,7608000,442,-1327,-917,-1488,-300,-41,433,39,-103
1,7608013,441,-1327,-915,-1487,-305,-39,433,39,-103
1,7608026,441,-1327,-915,-1487,-305,-39,433,39,-103
1,7608039,439,-1326,-923,-1490,-305,-46,433,39,-103
1,7608053,439,-1324,-919,-1496,-307,-45,433,39,-103
1,7608066,439,-1324,-919,-1496,-307,-45,433,39,-103
1,7608079,446,-1322,-918,-1488,-308,-44,437,31,-111
1,7608091,446,-1322,-918,-1488,-308,-44,437,31,-111
1,7608102,441,-1324,-916,-1489,-296,-36,437,31,-111
1,7608118,445,-1324,-925,-1489,-300,-38,437,31,-111
1,7608130,445,-1324,-925,-1489,-300,-38,437,31,-111
1,7608141,437,-1325,-919,-1487,-303,-38,437,31,-111
1,7608155,439,-1325,-921,-1489,-302,-41,437,31,-111
1,7608170,439,-1325,-921,-1489,-302,-41,437,31,-111
1,7608184,441,-1326,-919,-1489,-309,-43,437,31,-111
1,7608193,439,-1324,-916,-1481,-303,-44,433,31,-109
1,7608204,439,-1324,-916,-1481,-303,-44,433,31,-109
1,7608218,442,-1324,-916,-1485,-302,-36,433,31,-109
1,7608230,442,-1324,-916,-1485,-302,-36,433,31,-109
1,7608242,442,-1324,-920,-1485,-302,-40,433,31,-109
1,7608254,441,-1321,-919,-1492,-307,-42,433,31,-109
1,7608263,441,-1321,-919,-1492,-307,-42,433,31,-109
1,7608273,441,-1323,-918,-1487,-311,-37,433,31,-109
1,7608289,441,-1323,-918,-1487,-311,-37,433,31,-109
1,7608303,446,-1323,-919,-1494,-301,-40,433,31,-109
1,7608312,445,-1326,-918,-1486,-306,-40,422,38,-110
1,7608324,445,-1326,-918,-1486,-306,-40,422,38,-110
1,7608338,442,-1326,-918,-1491,-301,-34,422,38,-110
1,7608353,442,-1326,-920,-1491,-307,-42,422,38,-110
1,7608363,442,-1326,-920,-1491,-307,-42,422,38,-110
1,7608374,441,-1322,-916,-1488,-304,-46,422,38,-110
1,7608387,441,-1322,-916,-1488,-304,-46,422,38,-110
1,7608400,438,-1325,-922,-1485,-306,-41,422,38,-110
1,7608411,438,-1325,-922,-1485,-306,-41,422,38,-110
1,7608423,439,-1325,-923,-1487,-308,-43,422,38,-110
1,7608436,438,-1325,-924,-1489,-305,-36,426,38,-118
1,7608451,438,-1325,-924,-1489,-305,-36,426,38,-118
1,7608460,440,-1326,-918,-1490,-303,-46,426,38,-118
1,7608471,440,-1326,-918,-1490,-303,-46,426,38,-118
1,7608479,441,-1324,-920,-1493,-305,-40,426,38,-118
1,7608487,441,-1324,-920,-1493,-305,-40,426,38,-118
1,7608495,444,-1325,-923,-1485,-301,-40,426,38,-118
1,7608503,444,-1325,-923,-1485,-301,-40,426,38,-118
1,7608511,444,-1325,-923,-1485,-301,-40,426,38,-118
1,7608524,439,-1325,-919,-1481,-300,-47,426,38,-118
1,7608536,441,-1327,-919,-1484,-299,-47,426,38,-118
1,7608548,441,-1327,-919,-1484,-299,-47,426,38,-118
1,7608559,442,-1326,-915,-1485,-300,-41,426,38,-118
1,7608571,440,-1322,-915,-1488,-302,-42,426,38,-118
1,7608586,440,-1322,-915,-1488,-302,-42,427,39,-111
1,7608597,443,-1324,-915,-1491,-301,-39,427,39,-111
1,7608609,443,-1324,-915,-1491,-301,-39,427,39,-111
1,7608623,442,-1323,-919,-1490,-305,-43,427,39,-111
1,7608637,440,-1324,-921,-1487,-303,-40,427,39,-111
1,7608650,440,-1324,-921,-1487,-303,-40,427,39,-111
1,7608662,445,-1324,-922,-1488,-302,-40,427,39,-111
1,7608670,445,-1324,-922,-1488,-302,-40,427,39,-111
1,7608678,442,-1323,-920,-1494,-307,-40,427,39,-111
1,7608686,442,-1323,-920,-1494,-307,-40,427,39,-111
1,7608691,442,-1323,-920,-1494,-307,-40,427,39,-111
1,7608698,443,-1323,-914,-1492,-302,-43,434,42,-118
1,7608705,443,-1323,-914,-1492,-302,-43,434,42,-118
1,7608710,443,-1323,-914,-1492,-302,-43,434,42,-118
1,7608715,438,-1322,-921,-1487,-300,-35,434,42,-118
1,7608720,438,-1322,-921,-1487,-300,-35,434,42,-118
1,7608725,438,-1322,-921,-1487,-300,-35,434,42,-118
1,7608731,441,-1323,-920,-1486,-296,-37,434,42,-118
1,7608737,441,-1323,-920,-1486,-296,-37,434,42,-118
1,7608742,441,-1323,-920,-1486,-296,-37,434,42,-118
1,7608750,441,-1323,-920,-1486,-296,-37,434,42,-118
1,7608757,440,-1324,-917,-1492,-299,-41,434,42,-118
1,7608763,440,-1324,-917,-1492,-299,-41,434,42,-118
1,7608770,440,-1324,-917,-1492,-299,-41,434,42,-118
1,7608779,446,-1322,-921,-1485,-299,-41,434,42,-118
1,7608785,446,-1322,-921,-1485,-299,-41,434,42,-118
1,7608793,444,-1324,-919,-1484,-306,-40,434,42,-118
1,7608801,444,-1324,-919,-1484,-306,-40,434,42,-118
1,7608809,444,-1324,-919,-1484,-306,-40,434,42,-118
1,7608817,443,-1325,-917,-1491,-303,-36,434,28,-110
1,7608824,443,-1325,-917,-1491,-303,-36,434,28,-110
1,7608829,443,-1325,-917,-1491,-303,-36,434,28,-110
1,7608838,440,-1324,-918,-1484,-304,-39,434,28,-110
1,7608845,440,-1324,-918,-1484,-304,-39,434,28,-110
1,7608851,440,-1324,-918,-1484,-304,-39,434,28,-110
1,7608857,439,-1325,-923,-1483,-305,-41,434,28,-110
1,7608863,439,-1325,-923,-1483,-305,-41,434,28,-110
1,7608870,439,-1325,-923,-1483,-305,-41,434,28,-110
1,7608879,439,-1325,-923,-1483,-305,-41,434,28,-110
1,7608886,439,-1325,-923,-1483,-305,-41,434,28,-110
1,7608895,443,-1324,-921,-1489,-303,-44,434,28,-110
1,7608902,443,-1324,-921,-1489,-303,-44,434,28,-110
1,7608909,443,-1324,-921,-1489,-303,-44,434,28,-110
1,7608918,443,-1327,-919,-1487,-299,-36,434,28,-110
1,7608926,443,-1327,-919,-1487,-299,-36,434,28,-110
1,7608933,445,-1324,-916,-1479,-297,-41,430,40,-110
1,7608939,445,-1324,-916,-1479,-297,-41,430,40,-110
1,7608944,445,-1324,-916,-1479,-297,-41,430,40,-110
1,7608952,443,-1324,-913,-1481,-302,-41,430,40,-110
1,7608960,443,-1324,-913,-1481,-302,-41,430,40,-110
1,7608968,443,-1324,-913,-1481,-302,-41,430,40,-110
1,7608976,443,-1323,-919,-1490,-304,-42,430,40,-110
1,7608983,443,-1323,-919,-1490,-304,-42,430,40,-110
1,7608990,443,-1323,-919,-1490,-304,-42,430,40,-110
1,7608997,444,-1324,-919,-1489,-306,-43,430,40,-110
1,7609006,444,-1324,-919,-1489,-306,-43,430,40,-110
1,7609011,444,-1324,-919,-1489,-306,-43,430,40,-110
1,7609019,442,-1325,-920,-1492,-308,-48,430,40,-110
1,7609026,442,-1325,-920,-1492,-308,-48,430,40,-110
1,7609034,441,-1321,-923,-1488,-304,-43,430,40,-110
1,7609041,441,-1321,-923,-1488,-304,-43,430,40,-110
1,7609049,441,-1321,-923,-1488,-304,-43,430,40,-110
1,7609056,444,-1324,-921,-1491,-299,-40,430,40,-110
1,7609064,444,-1324,-921,-1491,-299,-40,430,40,-110
1,7609070,444,-1324,-921,-1491,-299,-40,430,40,-110
1,7609076,444,-1322,-919,-1490,-298,-35,438,30,-108
1,7609084,444,-1322,-919,-1490,-298,-35,438,30,-108
1,7609092,446,-1324,-917,-1483,-299,-35,438,30,-108
1,7609097,446,-1324,-917,-1483,-299,-35,438,30,-108
1,7609103,446,-1324,-917,-1483,-299,-35,438,30,-108
1,7609110,446,-1324,-917,-1483,-299,-35,438,30,-108
1,7609117,444,-1324,-924,-1487,-299,-45,438,30,-108
1,7609124,444,-1324,-924,-1487,-299,-45,438,30,-108
1,7609129,444,-1324,-924,-1487,-299,-45,438,30,-108
1,7609137,442,-1321,-921,-1490,-301,-41,438,30,-108
1,7609144,442,-1321,-921,-1490,-301,-41,438,30,-108
1,7609151,442,-1321,-921,-1490,-301,-41,438,30,-108
1,7609157,439,-1325,-920,-1483,-303,-39,438,30,-108
1,7609163,439,-1325,-920,-1483,-303,-39,438,30,-108
1,7609171,439,-1325,-920,-1483,-303,-39,438,30,-108
1,7609179,440,-1325,-916,-1479,-299,-43,438,30,-108
1,7609186,440,-1325,-916,-1479,-299,-43,438,30,-108
1,7609194,443,-1322,-917,-1483,-305,-38,426,34,-104
1,7609201,443,-1322,-917,-1483,-305,-38,426,34,-104
1,7609209,443,-1322,-917,-1483,-305,-38,426,34,-104
1,7609217,443,-1324,-919,-1490,-304,-38,426,34,-104
1,7609224,443,-1324,-919,-1490,-304,-38,426,34,-104
1,7609229,443,-1324,-919,-1490,-304,-38,426,34,-104
1,7609237,442,-1320,-917,-1487,-298,-41,426,34,-104
1,7609245,442,-1320,-917,-1487,-298,-41,426,34,-104
1,7609253,443,-1326,-922,-1484,-297,-46,426,34,-104
1,7609260,443,-1326,-922,-1484,-297,-46,426,34,-104
1,7609265,443,-1326,-922,-1484,-297,-46,426,34,-104
1,7609272,443,-1326,-922,-1484,-297,-46,426,34,-104
1,7609278,445,-1320,-924,-1489,-297,-42,426,34,-104
1,7609286,445,-1320,-924,-1489,-297,-42,426,34,-104
1,7609291,445,-1320,-924,-1489,-297,-42,426,34,-104
1,7609296,444,-1323,-921,-1490,-301,-37,426,34,-104
1,7609305,444,-1323,-921,-1490,-301,-37,426,34,-104
1,7609312,441,-1323,-915,-1491,-305,-31,426,34,-104
1,7609319,441,-1323,-915,-1491,-305,-31,424,34,-112
1,7609326,441,-1323,-915,-1491,-305,-31,424,34,-112
1,7609332,442,-1327,-915,-1485,-301,-43,424,34,-112
1,7609338,442,-1327,-915,-1485,-301,-43,424,34,-112
1,7609346,442,-1327,-915,-1485,-301,-43,424,34,-112
1,7609351,442,-1327,-915,-1485,-301,-43,424,34,-112
1,7609357,439,-1323,-926,-1486,-302,-38,424,34,-112
1,7609362,439,-1323,-926,-1486,-302,-38,424,34,-112
1,7609369,439,-1323,-926,-1486,-302,-38,424,34,-112
1,7609376,445,-1326,-922,-1483,-300,-41,424,34,-112
1,7609382,445,-1326,-922,-1483,-300,-41,424,34,-112
1,7609390,445,-1326,-922,-1483,-300,-41,424,34,-112
1,7609396,444,-1326,-916,-1487,-298,-36,424,34,-112
1,7609404,444,-1326,-916,-1487,-298,-36,424,34,-112
1,7609412,443,-1325,-918,-1482,-297,-44,424,34,-112
1,7609419,443,-1325,-918,-1482,-297,-44,424,34,-112
1,7609426,443,-1325,-918,-1482,-297,-44,424,34,-112
1,7609434,444,-1324,-916,-1475,-297,-42,433,37,-119
1,7609442,444,-1324,-916,-1475,-297,-42,433,37,-119
1,7609449,444,-1324,-916,-1475,-297,-42,433,37,-119
1,7609456,441,-1325,-915,-1483,-304,-42,433,37,-119
1,7609463,441,-1325,-915,-1483,-304,-42,433,37,-119
1,7609472,441,-1325,-915,-1483,-304,-42,433,37,-119
1,7609479,443,-1325,-919,-1486,-306,-35,433,37,-119
1,7609486,443,-1325,-919,-1486,-306,-35,433,37,-119
1,7609493,441,-1322,-918,-1489,-304,-42,433,37,-119
1,7609499,441,-1322,-918,-1489,-304,-42,433,37,-119
1,7609506,441,-1322,-918,-1489,-304,-42,433,37,-119
1,7609513,443,-1323,-918,-1492,-302,-47,433,37,-119
1,7609522,443,-1323,-918,-1492,-302,-47,433,37,-119
1,7609530,443,-1323,-918,-1492,-302,-47,433,37,-119
1,7609537,441,-1324,-920,-1485,-297,-34,433,37,-119
1,7609545,441,-1324,-920,-1485,-297,-34,433,37,-119
1,7609552,444,-1326,-919,-1492,-306,-36,428,40,-114
1,7609560,444,-1326,-919,-1492,-306,-36,428,40,-114
1,7609565,444,-1326,-919,-1492,-306,-36,428,40,-114
1,7609572,440,-1325,-919,-1493,-305,-45,428,40,-114
1,7609580,440,-1325,-919,-1493,-305,-45,428,40,-114
1,7609587,440,-1325,-919,-1493,-305,-45,428,40,-114
1,7609595,441,-1324,-918,-1494,-300,-35,428,40,-114
1,7609604,441,-1324,-918,-1494,-300,-35,428,40,-114
1,7609612,441,-1324,-918,-1494,-300,-35,428,40,-114
1,7609618,442,-1324,-915,-1492,-298,-34,428,40,-114
1,7609626,442,-1324,-915,-1492,-298,-34,428,40,-114
1,7609633,442,-1324,-920,-1487,-297,-36,428,40,-114
1,7609640,442,-1324,-920,-1487,-297,-36,428,40,-114
1,7609647,442,-1324,-920,-1487,-297,-36,428,40,-114
1,7609655,444,-1324,-916,-1486,-295,-39,428,40,-114
1,7609660,444,-1324,-916,-1486,-295,-39,428,40,-114
1,7609665,444,-1324,-916,-1486,-295,-39,428,40,-114
1,7609670,444,-1324,-916,-1486,-295,-39,428,40,-114
1,7609675,445,-1322,-924,-1489,-295,-33,428,40,-114
1,7609680,445,-1322,-924,-1489,-295,-33,428,40,-114
1,7609686,445,-1322,-924,-1489,-295,-33,428,40,-114
1,7609692,445,-1322,-924,-1489,-295,-33,428,40,-114
1,7609701,441,-1326,-917,-1490,-308,-37,430,32,-108
1,7609709,441,-1326,-917,-1490,-308,-37,430,32,-108
1,7609718,442,-1322,-916,-1489,-303,-36,430,32,-108
1,7609725,442,-1322,-916,-1489,-303,-36,430,32,-108
1,7609735,440,-1324,-917,-1482,-304,-39,430,32,-108
1,7609743,440,-1324,-917,-1482,-304,-39,430,32,-108
1,7609751,440,-1324,-917,-1482,-304,-39,430,32,-108
1,7609758,443,-1326,-920,-1498,-305,-39,430,32,-108
1,7609766,443,-1326,-920,-1498,-305,-39,430,32,-108
1,7609775,442,-1326,-917,-1494,-305,-34,430,32,-108
1,7609782,442,-1326,-917,-1494,-305,-34,430,32,-108
1,7609790,442,-1326,-917,-1494,-305,-34,430,32,-108
1,7609797,444,-1322,-922,-1492,-301,-38,430,32,-108
1,7609805,444,-1322,-922,-1492,-301,-38,430,32,-108
1,7609816,444,-1322,-922,-1492,-301,-38,436,28,-116
1,7609826,444,-1322,-922,-1492,-301,-38,436,28,-116
1,7609835,442,-1324,-915,-1482,-297,-35,436,28,-116
1,7609845,442,-1324,-915,-1482,-297,-35,436,28,-116
1,7609858,444,-1325,-919,-1483,-306,-42,436,28,-116
1,7609868,444,-1325,-919,-1483,-306,-42,436,28,-116
1,7609882,438,-1321,-923,-1487,-301,-36,436,28,-116
1,7609894,443,-1325,-920,-1489,-300,-39,436,28,-116
1,7609904,443,-1325,-920,-1489,-300,-39,436,28,-116
1,7609912,443,-1325,-920,-1489,-300,-39,436,28,-116
1,7609919,440,-1326,-920,-1480,-307,-38,436,28,-116
1,7609927,440,-1326,-920,-1480,-307,-38,436,28,-116
1,7609936,440,-1326,-918,-1488,-302,-37,426,42,-108
1,7609948,440,-1326,-918,-1488,-302,-37,426,42,-108
1,7609963,442,-1324,-915,-1491,-302,-39,426,42,-108
1,7609977,445,-1325,-912,-1488,-304,-41,426,42,-108
1,7609987,445,-1325,-912,-1488,-304,-41,426,42,-108
1,7609999,445,-1325,-912,-1488,-304,-41,426,42,-108
1,7610012,442,-1323,-920,-1490,-303,-35,426,42,-108
1,7610027,442,-1323,-920,-1490,-303,-35,426,42,-108
1,7610036,443,-1322,-918,-1488,-307,-40,426,42,-108
1,7610049,443,-1322,-918,-1488,-307,-40,426,42,-108
1,7610062,440,-1326,-916,-1491,-294,-44,422,30,-116
1,7610076,439,-1325,-913,-1487,-298,-46,422,30,-116
1,7610085,439,-1325,-913,-1487,-298,-46,422,30,-116
1,7610097,447,-1323,-917,-1487,-302,-41,422,30,-116
1,7610107,447,-1323,-917,-1487,-302,-41,422,30,-116
1,7610118,443,-1326,-920,-1482,-301,-48,422,30,-116
1,7610133,444,-1321,-919,-1491,-299,-40,422,30,-116
1,7610146,444,-1321,-919,-1491,-299,-40,422,30,-116
1,7610156,441,-1324,-920,-1488,-297,-47,422,30,-116
1,7610167,441,-1324,-920,-1488,-297,-47,422,30,-116
1,7610181,441,-1323,-919,-1485,-300,-38,422,30,-116
1,7610196,442,-1323,-919,-1485,-303,-43,435,39,-109
1,7610206,442,-1323,-919,-1485,-303,-43,435,39,-109
1,7610216,442,-1325,-919,-1494,-308,-43,435,39,-109
1,7610230,442,-1325,-919,-1494,-308,-43,435,39,-109
1,7610245,443,-1323,-916,-1488,-303,-46,435,39,-109
1,7610254,448,-1325,-920,-1494,-305,-46,435,39,-109
1,7610266,448,-1325,-920,-1494,-305,-46,435,39,-109
1,7610279,446,-1327,-918,-1489,-300,-45,435,39,-109
1,7610293,444,-1324,-921,-1482,-300,-39,435,39,-109
1,7610303,444,-1324,-921,-1482,-300,-39,435,39,-109
1,7610315,440,-1327,-920,-1481,-299,-49,425,41,-111
1,7610329,440,-1327,-920,-1481,-299,-49,425,41,-111
1,7610342,444,-1326,-916,-1480,-299,-45,425,41,-111
1,7610353,440,-1324,-913,-1488,-306,-45,425,41,-111
1,7610368,440,-1324,-913,-1488,-306,-45,425,41,-111
1,7610380,441,-1329,-917,-1484,-302,-43,425,41,-111
1,7610393,444,-1325,-919,-1491,-310,-44,425,41,-111
1,7610407,444,-1325,-919,-1491,-310,-44,425,41,-111
1,7610420,447,-1324,-920,-1489,-304,-45,425,41,-111
1,7610432,445,-1325,-917,-1492,-304,-42,428,30,-111
1,7610447,445,-1325,-917,-1492,-304,-42,428,30,-108
1,7610460,444,-1324,-917,-1494,-301,-44,428,30,-108
1,7610469,444,-1324,-917,-1494,-301,-44,428,30,-108
1,7610482,443,-1325,-919,-1488,-301,-45,428,30,-108
1,7610497,441,-1328,-921,-1491,-303,-42,428,30,-108
1,7610507,441,-1328,-921,-1491,-303,-42,428,30,-108
1,7610516,440,-1325,-917,-1492,-305,-48,428,30,-108
1,7610524,440,-1325,-917,-1492,-305,-48,428,30,-108
1,7610533,444,-1326,-918,-1494,-302,-46,428,30,-108
1,7610541,444,-1326,-918,-1494,-302,-46,428,30,-108
1,7610549,444,-1326,-918,-1494,-302,-46,428,30,-108
1,7610564,445,-1323,-918,-1491,-308,-45,423,35,-113
1,7610572,446,-1323,-912,-1491,-302,-44,423,35,-113
1,7610585,446,-1323,-912,-1491,-302,-44,423,35,-113
1,7610597,445,-1324,-919,-1491,-301,-45,423,35,-113
1,7610610,445,-1324,-919,-1491,-301,-45,423,35,-113
1,7610618,444,-1325,-918,-1489,-303,-36,423,35,-113
1,7610629,444,-1325,-918,-1489,-303,-36,423,35,-113
1,7610639,442,-1327,-920,-1486,-302,-39,423,35,-113
1,7610652,441,-1324,-918,-1491,-303,-44,423,35,-113
1,7610662,441,-1324,-918,-1491,-303,-44,423,35,-113
1,7610670,441,-1324,-918,-1491,-303,-44,423,35,-113
1,7610678,441,-1326,-915,-1490,-300,-43,423,35,-113
1,7610686,441,-1326,-915,-1490,-300,-43,423,35,-113
1,7610700,442,-1329,-914,-1485,-298,-41,426,30,-116
1,7610706,442,-1329,-914,-1485,-298,-41,426,30,-116
1,7610712,442,-1329,-914,-1485,-298,-41,426,30,-116
1,7610717,444,-1322,-915,-1479,-300,-46,426,30,-116
1,7610722,444,-1322,-915,-1479,-300,-46,426,30,-116
1,7610727,444,-1322,-915,-1479,-300,-46,426,30,-116
1,7610732,444,-1322,-915,-1479,-300,-46,426,30,-116
1,7610737,442,-1324,-919,-1481,-306,-51,426,30,-116
1,7610744,442,-1324,-919,-1481,-306,-51,426,30,-116
1,7610753,444,-1322,-920,-1486,-306,-48,426,30,-116
1,7610760,444,-1322,-920,-1486,-306,-48,426,30,-116
1,7610766,444,-1322,-920,-1486,-306,-48,426,30,-116
1,7610771,444,-1322,-920,-1486,-306,-48,426,30,-116
1,7610778,442,-1322,-916,-1488,-303,-42,426,30,-116
1,7610786,442,-1322,-916,-1488,-303,-42,426,30,-116
1,7610795,444,-1326,-917,-1485,-304,-45,426,30,-116
1,7610802,444,-1326,-917,-1485,-304,-45,426,30,-116
1,7610808,444,-1326,-917,-1485,-304,-45,426,30,-116
1,7610815,441,-1325,-912,-1484,-303,-38,425,37,-117
1,7610822,441,-1325,-912,-1484,-303,-38,425,37,-117
1,7610829,441,-1325,-912,-1484,-303,-38,425,37,-117
1,7610836,442,-1326,-918,-1488,-303,-37,425,37,-117
1,7610845,442,-1326,-918,-1488,-303,-37,425,37,-117
1,7610852,445,-1325,-915,-1488,-297,-41,425,37,-117
1,7610860,445,-1325,-915,-1488,-297,-41,425,37,-117
1,7610867,445,-1325,-915,-1488,-297,-41,425,37,-117
1,7610874,446,-1322,-919,-1485,-296,-42,425,37,-117
1,7610882,446,-1322,-919,-1485,-296,-42,425,37,-117
1,7610890,446,-1322,-919,-1485,-296,-42,425,37,-117
1,7610896,442,-1323,-918,-1487,-308,-48,425,37,-117
1,7610904,442,-1323,-918,-1487,-308,-48,425,37,-117
1,7610912,442,-1323,-918,-1487,-308,-48,425,37,-117
1,7610919,443,-1328,-918,-1492,-302,-43,425,37,-117
1,7610926,443,-1328,-918,-1492,-302,-43,425,37,-117
1,7610933,441,-1325,-913,-1490,-305,-40,426,26,-114
1,7610941,441,-1325,-913,-1490,-305,-40,426,26,-114
1,7610947,441,-1325,-913,-1490,-305,-40,426,26,-114
1,7610954,443,-1324,-915,-1493,-309,-39,426,26,-114
1,7610961,443,-1324,-915,-1493,-309,-39,426,26,-114
1,7610970,443,-1324,-915,-1493,-309,-39,426,26,-114
1,7610977,444,-1325,-917,-1487,-306,-46,426,26,-114
1,7610984,444,-1325,-917,-1487,-306,-46,426,26,-114
1,7610991,444,-1325,-917,-1487,-306,-46,426,26,-114
1,7610999,444,-1323,-915,-1483,-302,-46,426,26,-114
1,7611004,444,-1323,-915,-1483,-302,-46,426,26,-114
1,7611013,442,-1325,-920,-1484,-297,-47,426,26,-114
1,7611021,442,-1325,-920,-1484,-297,-47,426,26,-114
1,7611028,442,-1325,-920,-1484,-297,-47,426,26,-114
1,7611034,443,-1326,-919,-1482,-305,-45,426,26,-114
1,7611039,443,-1326,-919,-1482,-305,-45,426,26,-114
1,7611047,443,-1326,-919,-1482,-305,-45,426,26,-114
1,7611055,441,-1323,-921,-1482,-303,-38,428,38,-112
1,7611063,441,-1323,-921,-1482,-303,-38,428,38,-112
1,7611071,441,-1323,-921,-1482,-303,-38,428,38,-112
1,7611078,441,-1326,-916,-1487,-299,-40,428,38,-112
1,7611083,441,-1326,-916,-1487,-299,-40,428,38,-112
1,7611088,441,-1326,-916,-1487,-299,-40,428,38,-112
1,7611094,441,-1326,-912,-1489,-293,-49,428,38,-112
1,7611101,441,-1326,-912,-1489,-293,-49,428,38,-112
1,7611107,441,-1326,-912,-1489,-293,-49,428,38,-112
1,7611115,443,-1325,-918,-1486,-299,-45,428,38,-112
1,7611122,443,-1325,-918,-1486,-299,-45,428,38,-112
1,7611130,443,-1325,-918,-1486,-299,-45,428,38,-112
1,7611138,444,-1327,-922,-1483,-302,-42,428,38,-112
1,7611146,444,-1327,-922,-1483,-302,-42,428,38,-112
1,7611153,443,-1323,-923,-1488,-304,-42,428,38,-112
1,7611160,443,-1323,-923,-1488,-304,-42,428,38,-112
1,7611165,443,-1323,-923,-1488,-304,-42,428,38,-112
1,7611172,443,-1323,-923,-1488,-304,-42,428,38,-112
1,7611181,440,-1324,-920,-1493,-304,-40,423,35,-107
1,7611188,440,-1324,-920,-1493,-304,-40,423,35,-107
1,7611195,445,-1322,-916,-1484,-305,-43,423,35,-107
1,7611200,445,-1322,-916,-1484,-305,-43,423,35,-107
1,7611207,445,-1322,-916,-1484,-305,-43,423,35,-107
1,7611214,441,-1323,-918,-1481,-299,-45,423,35,-107
1,7611222,441,-1323,-918,-1481,-299,-45,423,35,-107
1,7611230,441,-1323,-918,-1481,-299,-45,423,35,-107
1,7611238,443,-1328,-920,-1486,-301,-41,423,35,-107
1,7611245,443,-1328,-920,-1486,-301,-41,423,35,-107
1,7611252,443,-1328,-920,-1486,-301,-41,423,35,-107
1,7611259,442,-1327,-918,-1483,-297,-42,423,35,-107
1,7611267,442,-1327,-918,-1483,-297,-42,423,35,-107
1,7611273,443,-1327,-917,-1485,-296,-43,423,35,-107
1,7611281,443,-1327,-917,-1485,-296,-43,423,35,-107
1,7611289,443,-1327,-917,-1485,-296,-43,423,35,-107
1,7611296,446,-1324,-915,-1482,-297,-42,423,35,-107
1,7611303,446,-1324,-915,-1482,-297,-42,423,35,-107
1,7611311,446,-1324,-915,-1482,-297,-42,423,35,-107
1,7611317,440,-1323,-914,-1486,-300,-39,422,32,-100
1,7611323,440,-1323,-914,-1486,-300,-39,422,32,-100
1,7611331,440,-1323,-914,-1486,-300,-39,422,32,-100
1,7611338,442,-1325,-920,-1491,-307,-41,422,32,-100
1,7611346,442,-1325,-920,-1491,-307,-41,422,32,-100
1,7611353,442,-1325,-920,-1491,-307,-41,422,32,-100
1,7611360,442,-1321,-919,-1494,-305,-38,422,32,-100
1,7611367,442,-1321,-919,-1494,-305,-38,422,32,-100
1,7611374,442,-1325,-922,-1489,-303,-32,422,32,-100
1,7611381,442,-1325,-922,-1489,-303,-32,422,32,-100
1,7611388,442,-1325,-922,-1489,-303,-32,422,32,-100
1,7611397,447,-1324,-914,-1492,-300,-40,422,32,-100
1,7611405,447,-1324,-914,-1492,-300,-40,422,32,-100
1,7611410,447,-1324,-914,-1492,-300,-40,422,32,-100
1,7611417,444,-1323,-917,-1488,-304,-42,422,32,-100
