imu,time,ax,ay,az,gx,gy,gz,mx,my,mz
0,5774233,202,-1876,-385,-1027,-562,-330,261,143,-443
0,5774243,200,-1871,-386,-1036,-566,-332,261,143,-443
0,5774249,200,-1871,-386,-1036,-566,-332,261,143,-443
0,5774256,200,-1871,-386,-1036,-566,-332,261,143,-443
0,5774261,201,-1875,-386,-1034,-569,-326,261,143,-443
0,5774265,201,-1875,-386,-1034,-569,-326,261,143,-443
0,5774270,201,-1875,-386,-1034,-569,-326,261,143,-443
0,5774275,201,-1875,-386,-1034,-569,-326,261,143,-443
0,5774280,200,-1872,-387,-1032,-565,-316,261,143,-443
0,5774285,200,-1872,-387,-1032,-565,-316,261,143,-443
0,5774290,200,-1872,-387,-1032,-565,-316,261,143,-443
0,5774296,200,-1872,-387,-1032,-565,-316,261,143,-443
0,5774301,202,-1873,-380,-1031,-570,-323,261,143,-443
0,5774306,202,-1873,-380,-1031,-570,-323,262,136,-448
0,5774311,202,-1873,-380,-1031,-570,-323,262,136,-448
0,5774316,202,-1873,-380,-1031,-570,-323,262,136,-448
0,5774321,198,-1872,-384,-1028,-567,-319,262,136,-448
0,5774326,198,-1872,-384,-1028,-567,-319,262,136,-448
0,5774331,198,-1872,-384,-1028,-567,-319,262,136,-448
0,5774337,198,-1872,-384,-1028,-567,-319,262,136,-448
0,5774342,199,-1873,-380,-1029,-567,-326,262,136,-448
0,5774347,199,-1873,-380,-1029,-567,-326,262,136,-448
0,5774352,199,-1873,-380,-1029,-567,-326,262,136,-448
0,5774357,199,-1873,-380,-1029,-567,-326,262,136,-448
0,5774362,200,-1876,-381,-1029,-568,-319,262,136,-448
0,5774367,200,-1876,-381,-1029,-568,-319,262,136,-448
0,5774372,200,-1876,-381,-1029,-568,-319,262,136,-448
0,5774379,200,-1876,-381,-1029,-568,-319,262,136,-448
0,5774384,202,-1875,-383,-1025,-569,-326,262,136,-448
0,5774389,202,-1875,-383,-1025,-569,-326,262,136,-448
0,5774395,202,-1875,-383,-1025,-569,-326,262,136,-448
0,5774400,202,-1875,-383,-1025,-569,-326,262,136,-448
0,5774405,202,-1873,-381,-1026,-569,-321,262,136,-448
0,5774410,202,-1873,-381,-1026,-569,-321,262,136,-448
0,5774416,202,-1873,-381,-1026,-569,-321,262,136,-448
0,5774422,198,-1872,-387,-1029,-571,-323,262,136,-448
0,5774428,198,-1872,-387,-1029,-571,-323,262,136,-448
0,5774433,198,-1872,-387,-1029,-571,-323,262,136,-448
0,5774440,198,-1872,-387,-1029,-571,-323,262,136,-448
0,5774446,199,-1873,-383,-1026,-567,-322,255,149,-449
0,5774451,199,-1873,-383,-1026,-567,-322,255,149,-449
0,5774457,199,-1873,-383,-1026,-567,-322,255,149,-449
0,5774464,202,-1873,-385,-1022,-563,-324,255,149,-449
0,5774469,202,-1873,-385,-1022,-563,-324,255,149,-449
0,5774475,202,-1873,-385,-1022,-563,-324,255,149,-449
0,5774482,202,-1873,-384,-1023,-564,-325,255,149,-449
0,5774488,202,-1873,-384,-1023,-564,-325,255,149,-449
0,5774496,202,-1873,-384,-1023,-564,-325,255,149,-449
0,5774504,198,-1874,-384,-1029,-569,-325,255,149,-449
0,5774512,198,-1874,-384,-1029,-569,-325,255,149,-449
0,5774519,198,-1874,-384,-1029,-569,-325,255,149,-449
0,5774524,199,-1874,-381,-1020,-563,-322,255,149,-449
0,5774532,199,-1874,-381,-1020,-563,-322,255,149,-449
0,5774538,199,-1874,-381,-1020,-563,-322,255,149,-449
0,5774543,198,-1876,-390,-1029,-568,-327,255,149,-449
0,5774548,198,-1876,-390,-1029,-568,-327,255,149,-449
0,5774554,198,-1876,-390,-1029,-568,-327,255,149,-449
0,5774559,198,-1876,-390,-1029,-568,-327,255,149,-449
0,5774564,202,-1874,-381,-1024,-570,-323,267,139,-443
0,5774569,202,-1874,-381,-1024,-570,-323,267,139,-443
0,5774576,202,-1874,-381,-1024,-570,-323,267,139,-443
0,5774582,200,-1874,-384,-1029,-567,-328,267,139,-443
0,5774588,200,-1874,-384,-1029,-567,-328,267,139,-443
0,5774598,200,-1874,-384,-1029,-567,-328,267,139,-443
0,5774604,198,-1873,-388,-1031,-565,-325,267,139,-443
0,5774611,198,-1873,-388,-1031,-565,-325,267,139,-443
0,5774618,198,-1873,-388,-1031,-565,-325,267,139,-443
0,5774626,197,-1874,-387,-1033,-572,-325,267,139,-443
0,5774640,197,-1874,-387,-1033,-572,-325,267,139,-443
0,5774655,200,-1875,-383,-1028,-573,-324,267,139,-443
0,5774664,197,-1874,-382,-1021,-569,-330,267,139,-443
0,5774675,197,-1874,-382,-1021,-569,-330,267,139,-443
0,5774690,200,-1871,-378,-1019,-573,-323,267,139,-443
0,5774703,200,-1872,-382,-1025,-573,-327,263,143,-449
0,5774711,200,-1872,-382,-1025,-573,-327,263,143,-449
0,5774724,201,-1876,-379,-1025,-571,-326,263,143,-449
0,5774736,201,-1876,-379,-1025,-571,-326,263,143,-449
0,5774749,203,-1871,-379,-1030,-570,-324,263,143,-449
0,5774760,203,-1871,-379,-1030,-570,-324,263,143,-449
0,5774772,202,-1877,-390,-1033,-565,-324,263,143,-449
0,5774784,201,-1874,-385,-1023,-570,-321,263,143,-449
0,5774797,201,-1874,-385,-1023,-570,-321,263,143,-449
0,5774809,200,-1876,-383,-1020,-566,-323,263,143,-449
0,5774824,198,-1872,-382,-1032,-574,-319,256,152,-448
0,5774836,198,-1872,-382,-1032,-574,-319,256,152,-448
0,5774849,199,-1873,-376,-1028,-571,-326,256,152,-448
0,5774862,202,-1873,-379,-1029,-571,-325,256,152,-448
0,5774875,202,-1873,-379,-1029,-571,-325,256,152,-448
0,5774886,199,-1874,-378,-1034,-561,-328,256,152,-448
0,5774898,199,-1874,-378,-1034,-561,-328,256,152,-448
0,5774912,200,-1875,-380,-1029,-569,-332,256,152,-448
0,5774925,198,-1878,-383,-1031,-573,-328,256,152,-448
0,5774939,198,-1878,-383,-1031,-573,-328,256,152,-448
0,5774953,199,-1876,-387,-1028,-563,-329,259,145,-445
0,5774966,197,-1874,-380,-1026,-567,-325,259,145,-445
0,5774978,197,-1874,-380,-1026,-567,-325,259,145,-445
0,5774986,199,-1875,-379,-1029,-556,-323,259,145,-445
0,5774994,199,-1875,-379,-1029,-556,-323,259,145,-445
0,5775002,202,-1873,-381,-1032,-563,-325,259,145,-445
0,5775010,202,-1873,-381,-1032,-563,-325,259,145,-445
0,5775019,202,-1873,-381,-1032,-563,-325,259,145,-445
0,5775028,196,-1874,-386,-1026,-563,-329,259,145,-445
0,5775036,196,-1874,-386,-1026,-563,-329,259,145,-445
0,5775044,200,-1874,-382,-1020,-557,-328,259,145,-445
0,5775053,200,-1874,-382,-1020,-557,-328,259,145,-445
0,5775063,200,-1872,-382,-1015,-560,-321,259,145,-445
0,5775071,200,-1872,-382,-1015,-560,-321,259,145,-445
0,5775080,200,-1872,-382,-1015,-560,-321,259,145,-445
0,5775088,195,-1873,-379,-1029,-563,-326,249,151,-443
0,5775096,195,-1873,-379,-1029,-563,-326,249,151,-443
0,5775106,200,-1877,-383,-1026,-565,-327,249,151,-443
0,5775114,200,-1877,-383,-1026,-565,-327,249,151,-443
0,5775122,199,-1874,-382,-1025,-558,-324,249,151,-443
0,5775131,199,-1874,-382,-1025,-558,-324,249,151,-443
0,5775139,199,-1874,-382,-1025,-558,-324,249,151,-443
0,5775148,200,-1871,-381,-1023,-569,-319,249,151,-443
0,5775157,200,-1871,-381,-1023,-569,-319,249,151,-443
0,5775166,200,-1874,-381,-1029,-572,-331,249,151,-443
0,5775175,200,-1874,-381,-1029,-572,-331,249,151,-443
0,5775185,198,-1875,-384,-1033,-567,-331,249,151,-443
0,5775194,198,-1875,-384,-1033,-567,-331,249,151,-443
0,5775203,201,-1877,-378,-1028,-568,-316,257,147,-439
0,5775212,201,-1877,-378,-1028,-568,-316,257,147,-439
0,5775225,201,-1873,-381,-1027,-566,-321,257,147,-439
0,5775233,201,-1873,-381,-1027,-566,-321,257,147,-439
0,5775245,199,-1876,-385,-1034,-567,-327,257,147,-439
0,5775259,199,-1876,-385,-1034,-567,-327,257,147,-439
0,5775272,200,-1875,-384,-1027,-571,-330,257,147,-439
0,5775282,200,-1875,-384,-1027,-571,-330,257,147,-439
0,5775291,202,-1874,-377,-1029,-564,-325,257,147,-439
0,5775300,202,-1874,-377,-1029,-564,-325,257,147,-439
0,5775308,202,-1874,-377,-1029,-564,-325,257,147,-439
0,5775319,202,-1874,-377,-1029,-564,-325,257,147,-439
0,5775329,197,-1873,-385,-1028,-567,-331,257,147,-439
0,5775338,197,-1873,-385,-1028,-567,-331,257,147,-439
0,5775347,200,-1873,-383,-1026,-564,-332,258,146,-438
0,5775356,200,-1873,-383,-1026,-564,-332,258,146,-438
0,5775365,202,-1875,-381,-1021,-567,-321,258,146,-438
0,5775375,202,-1875,-381,-1021,-567,-321,258,146,-438
0,5775388,201,-1873,-383,-1027,-571,-324,258,146,-438
0,5775400,201,-1873,-383,-1027,-571,-324,258,146,-438
0,5775413,200,-1874,-386,-1030,-569,-330,258,146,-438
0,5775426,202,-1874,-382,-1032,-572,-327,258,146,-438
0,5775438,202,-1874,-382,-1032,-572,-327,258,146,-438
0,5775451,200,-1874,-387,-1028,-570,-336,258,146,-438
0,5775463,199,-1870,-379,-1023,-564,-323,252,144,-446
0,5775474,199,-1870,-379,-1023,-564,-323,252,144,-446
0,5775484,203,-1874,-381,-1025,-563,-322,252,144,-446
0,5775495,203,-1874,-381,-1025,-563,-322,252,144,-446
0,5775508,200,-1872,-384,-1027,-567,-326,252,144,-446
0,5775521,200,-1872,-384,-1027,-567,-326,252,144,-446
0,5775531,203,-1874,-386,-1030,-566,-324,252,144,-446
0,5775541,203,-1874,-386,-1030,-566,-324,252,144,-446
0,5775549,199,-1874,-377,-1024,-559,-327,252,144,-446
0,5775557,199,-1874,-377,-1024,-559,-327,252,144,-446
0,5775565,198,-1872,-384,-1021,-563,-326,252,144,-446
0,5775579,198,-1872,-384,-1021,-563,-326,252,144,-446
0,5775591,200,-1875,-380,-1033,-566,-323,256,146,-440
0,5775601,200,-1875,-380,-1033,-566,-323,256,146,-440
0,5775613,200,-1875,-382,-1034,-570,-326,256,146,-440
0,5775626,199,-1872,-385,-1033,-569,-325,256,146,-440
0,5775637,199,-1872,-385,-1033,-569,-325,256,146,-440
0,5775644,201,-1875,-382,-1029,-565,-325,256,146,-440
0,5775651,201,-1875,-382,-1029,-565,-325,256,146,-440
0,5775657,201,-1875,-382,-1029,-565,-325,256,146,-440
0,5775666,196,-1876,-385,-1027,-568,-329,256,146,-440
0,5775672,196,-1876,-385,-1027,-568,-329,256,146,-440
0,5775678,196,-1876,-385,-1027,-568,-329,256,146,-440
0,5775687,199,-1875,-384,-1029,-565,-331,256,146,-440
0,5775693,199,-1875,-384,-1029,-565,-331,256,146,-440
0,5775699,199,-1875,-384,-1029,-565,-331,256,146,-440
0,5775707,200,-1874,-389,-1024,-566,-323,256,146,-440
0,5775716,200,-1874,-389,-1024,-566,-323,256,146,-440
0,5775723,199,-1876,-380,-1023,-568,-323,260,146,-442
0,5775729,199,-1876,-380,-1023,-568,-323,260,146,-442
0,5775735,199,-1876,-380,-1023,-568,-323,260,146,-442
0,5775740,199,-1876,-380,-1023,-568,-323,260,146,-442
0,5775746,200,-1873,-382,-1021,-568,-334,260,146,-442
0,5775754,200,-1873,-382,-1021,-568,-334,260,146,-442
0,5775760,200,-1873,-382,-1021,-568,-334,260,146,-442
0,5775766,198,-1869,-381,-1028,-574,-335,260,146,-442
0,5775773,198,-1869,-381,-1028,-574,-335,260,146,-442
0,5775781,198,-1869,-381,-1028,-574,-335,260,146,-442
0,5775790,200,-1876,-385,-1020,-562,-329,260,146,-442
0,5775796,200,-1876,-385,-1020,-562,-329,260,146,-442
0,5775805,199,-1879,-375,-1022,-561,-326,260,146,-442
0,5775812,199,-1879,-375,-1022,-561,-326,260,146,-442
0,5775819,199,-1879,-375,-1022,-561,-326,260,146,-442
0,5775827,198,-1874,-380,-1030,-566,-331,260,146,-442
0,5775835,198,-1874,-380,-1030,-566,-331,260,146,-442
0,5775842,198,-1874,-380,-1030,-566,-331,260,146,-442
0,5775849,200,-1874,-379,-1023,-566,-327,264,142,-448
0,5775857,200,-1874,-379,-1023,-566,-327,264,142,-448
0,5775863,201,-1872,-386,-1024,-569,-327,264,142,-448
0,5775872,201,-1872,-386,-1024,-569,-327,264,142,-448
0,5775880,201,-1872,-386,-1024,-569,-327,264,142,-448
0,5775887,200,-1874,-383,-1026,-563,-326,264,142,-448
0,5775894,200,-1874,-383,-1026,-563,-326,264,142,-448
0,5775901,200,-1874,-383,-1026,-563,-326,264,142,-448
0,5775908,196,-1878,-377,-1023,-566,-328,264,142,-448
0,5775913,196,-1878,-377,-1023,-566,-328,264,142,-448
0,5775922,196,-1878,-377,-1023,-566,-328,264,142,-448
0,5775929,198,-1873,-379,-1022,-571,-323,264,142,-448
0,5775936,198,-1873,-379,-1022,-571,-323,264,142,-448
0,5775942,198,-1873,-379,-1022,-571,-323,264,142,-448
0,5775947,198,-1876,-383,-1023,-566,-326,264,142,-448
0,5775955,198,-1876,-383,-1023,-566,-326,264,142,-448
0,5775964,199,-1878,-389,-1030,-564,-329,264,142,-448
0,5775972,199,-1878,-389,-1030,-564,-329,264,142,-448
0,5775977,199,-1878,-389,-1030,-564,-329,264,142,-448
0,5775982,199,-1878,-389,-1030,-564,-329,264,142,-448
0,5775987,198,-1871,-377,-1027,-572,-328,252,150,-448
0,5775992,198,-1871,-377,-1027,-572,-328,252,150,-448
0,5775997,198,-1871,-377,-1027,-572,-328,252,150,-448
0,5776003,200,-1874,-383,-1019,-567,-327,252,150,-448
0,5776008,200,-1874,-383,-1019,-567,-327,252,150,-448
0,5776014,200,-1874,-383,-1019,-567,-327,252,150,-448
0,5776023,200,-1873,-384,-1026,-567,-320,252,150,-448
0,5776029,200,-1873,-384,-1026,-567,-320,252,150,-448
0,5776035,200,-1873,-384,-1026,-567,-320,252,150,-448
0,5776043,199,-1875,-380,-1023,-565,-322,252,150,-448
0,5776050,199,-1875,-380,-1023,-565,-322,252,150,-448
0,5776057,199,-1875,-380,-1023,-565,-322,252,150,-448
0,5776065,198,-1874,-380,-1021,-564,-324,252,150,-448
0,5776070,198,-1874,-380,-1021,-564,-324,252,150,-448
0,5776076,198,-1874,-380,-1021,-564,-324,252,150,-448
0,5776081,198,-1874,-380,-1021,-564,-324,252,150,-448
0,5776087,198,-1872,-382,-1024,-567,-321,252,150,-448
0,5776093,198,-1872,-382,-1024,-567,-321,252,150,-448
0,5776099,198,-1872,-382,-1024,-567,-321,252,150,-448
0,5776106,197,-1876,-377,-1027,-569,-330,258,154,-446
0,5776113,197,-1876,-377,-1027,-569,-330,258,154,-446
0,5776119,197,-1876,-377,-1027,-569,-330,258,154,-446
0,5776126,198,-1874,-379,-1027,-569,-328,258,154,-446
0,5776133,198,-1874,-379,-1027,-569,-328,258,154,-446
0,5776140,198,-1874,-379,-1027,-569,-328,258,154,-446
0,5776148,197,-1870,-379,-1029,-572,-327,258,154,-446
0,5776155,197,-1870,-379,-1029,-572,-327,258,154,-446
0,5776162,197,-1870,-379,-1029,-572,-327,258,154,-446
0,5776169,197,-1874,-378,-1031,-563,-327,258,154,-446
0,5776178,197,-1874,-378,-1031,-563,-327,258,154,-446
0,5776183,197,-1875,-389,-1029,-566,-325,258,154,-446
0,5776190,197,-1875,-389,-1029,-566,-325,258,154,-446
0,5776197,197,-1875,-389,-1029,-566,-325,258,154,-446
0,5776204,198,-1874,-385,-1025,-569,-321,258,154,-446
0,5776212,198,-1874,-385,-1025,-569,-321,258,154,-446
0,5776219,198,-1874,-385,-1025,-569,-321,258,154,-446
0,5776227,197,-1874,-388,-1031,-570,-318,258,154,-446
0,5776233,197,-1874,-388,-1031,-570,-318,258,154,-446
0,5776240,197,-1874,-388,-1031,-570,-318,258,154,-446
0,5776248,201,-1872,-378,-1030,-571,-326,261,143,-441
0,5776256,201,-1872,-378,-1030,-571,-326,261,143,-441
0,5776263,201,-1872,-378,-1030,-571,-326,261,143,-441
0,5776270,198,-1873,-377,-1025,-564,-329,261,143,-441
0,5776277,198,-1873,-377,-1025,-564,-329,261,143,-441
0,5776285,197,-1873,-380,-1023,-565,-321,261,143,-441
0,5776291,197,-1873,-380,-1023,-565,-321,261,143,-441
0,5776299,197,-1873,-380,-1023,-565,-321,261,143,-441
0,5776304,197,-1874,-385,-1023,-568,-322,261,143,-441
0,5776310,197,-1874,-385,-1023,-568,-322,261,143,-441
0,5776315,197,-1874,-385,-1023,-568,-322,261,143,-441
0,5776322,197,-1874,-385,-1023,-568,-322,261,143,-441
0,5776329,201,-1875,-389,-1027,-565,-324,261,143,-441
0,5776336,201,-1875,-389,-1027,-565,-324,261,143,-441
0,5776344,203,-1874,-389,-1030,-575,-328,261,143,-441
0,5776350,203,-1874,-389,-1030,-575,-328,261,143,-441
0,5776358,203,-1874,-389,-1030,-575,-328,261,143,-441
0,5776365,198,-1875,-386,-1024,-567,-329,254,148,-450
0,5776373,198,-1875,-386,-1024,-567,-329,254,148,-450
0,5776380,198,-1875,-386,-1024,-567,-329,254,148,-450
0,5776387,199,-1875,-381,-1027,-571,-324,254,148,-450
0,5776394,199,-1875,-381,-1027,-571,-324,254,148,-450
0,5776400,199,-1875,-381,-1027,-571,-324,254,148,-450
0,5776408,201,-1874,-384,-1020,-566,-323,254,148,-450
0,5776415,201,-1874,-384,-1020,-566,-323,254,148,-450
0,5776422,201,-1874,-384,-1020,-566,-323,254,148,-450
0,5776430,201,-1874,-384,-1020,-566,-323,254,148,-450
0,5776437,201,-1874,-384,-1020,-566,-323,254,148,-450
0,5776444,201,-1874,-380,-1025,-569,-330,254,148,-450
0,5776450,201,-1874,-380,-1025,-569,-330,254,148,-450
0,5776458,201,-1874,-380,-1025,-569,-330,254,148,-450
0,5776465,202,-1875,-391,-1028,-562,-324,254,148,-450
0,5776473,202,-1875,-391,-1028,-562,-324,254,148,-450
0,5776480,202,-1875,-391,-1028,-562,-324,254,148,-450
0,5776486,199,-1876,-388,-1023,-560,-318,260,138,-442
0,5776493,199,-1876,-388,-1023,-560,-318,260,138,-442
0,5776499,199,-1876,-388,-1023,-560,-318,260,138,-442
0,5776507,198,-1874,-383,-1026,-563,-320,260,138,-442
0,5776515,198,-1874,-383,-1026,-563,-320,260,138,-442
0,5776522,198,-1874,-383,-1026,-563,-320,260,138,-442
0,5776529,199,-1874,-379,-1030,-569,-325,260,138,-442
0,5776536,199,-1874,-379,-1030,-569,-325,260,138,-442
0,5776541,199,-1874,-379,-1030,-569,-325,260,138,-442
0,5776546,200,-1877,-380,-1027,-572,-324,260,138,-442
0,5776551,200,-1877,-380,-1027,-572,-324,260,138,-442
0,5776557,200,-1877,-380,-1027,-572,-324,260,138,-442
0,5776562,200,-1877,-380,-1027,-572,-324,260,138,-442
0,5776567,202,-1874,-379,-1021,-571,-326,260,138,-442
0,5776575,202,-1874,-379,-1021,-571,-326,260,138,-442
0,5776582,202,-1874,-379,-1021,-571,-326,260,138,-442
0,5776591,197,-1876,-383,-1036,-574,-319,260,138,-442
0,5776598,197,-1876,-383,-1036,-574,-319,260,138,-442
0,5776605,199,-1876,-390,-1031,-568,-317,260,138,-442
0,5776611,199,-1876,-390,-1031,-568,-317,260,138,-442
0,5776617,199,-1876,-390,-1031,-568,-317,260,138,-442
0,5776624,197,-1875,-382,-1032,-561,-319,257,143,-447
0,5776632,197,-1875,-382,-1032,-561,-319,257,143,-447
0,5776640,197,-1875,-382,-1032,-561,-319,257,143,-447
0,5776652,200,-1874,-378,-1022,-567,-326,257,143,-447
0,5776665,198,-1874,-382,-1017,-566,-320,257,143,-447
0,5776679,198,-1874,-382,-1017,-566,-320,257,143,-447
0,5776692,199,-1876,-390,-1020,-573,-321,257,143,-447
0,5776703,196,-1874,-387,-1027,-570,-321,257,143,-447
0,5776715,196,-1874,-387,-1027,-570,-321,257,143,-447
0,5776730,199,-1872,-388,-1032,-564,-329,257,143,-447
0,5776742,199,-1872,-388,-1032,-564,-329,257,143,-447
0,5776754,200,-1874,-379,-1019,-559,-322,262,142,-448
0,5776768,202,-1877,-383,-1028,-560,-324,262,142,-448
0,5776780,202,-1877,-383,-1028,-560,-324,262,142,-448
0,5776793,201,-1876,-379,-1021,-566,-328,262,142,-448
0,5776804,201,-1874,-385,-1023,-571,-325,262,142,-448
0,5776817,201,-1874,-385,-1023,-571,-325,262,142,-448
0,5776829,200,-1878,-382,-1018,-570,-324,262,142,-448
0,5776842,200,-1878,-382,-1018,-570,-324,262,142,-448
0,5776854,199,-1874,-389,-1024,-567,-325,262,142,-448
0,5776866,202,-1874,-385,-1020,-565,-331,262,142,-448
0,5776877,202,-1874,-385,-1020,-565,-331,262,142,-448
0,5776890,201,-1871,-380,-1033,-573,-326,257,145,-449
0,5776903,201,-1871,-380,-1033,-573,-326,257,145,-449
0,5776917,200,-1872,-382,-1027,-564,-336,257,145,-449
0,5776929,200,-1873,-390,-1023,-563,-329,257,145,-449
0,5776937,200,-1873,-390,-1023,-563,-329,257,145,-449
0,5776945,199,-1877,-389,-1028,-563,-321,257,145,-449
0,5776953,199,-1877,-389,-1028,-563,-321,257,145,-449
0,5776961,199,-1877,-389,-1028,-563,-321,257,145,-449
0,5776971,200,-1877,-391,-1024,-572,-326,257,145,-449
0,5776979,200,-1877,-391,-1024,-572,-326,257,145,-449
0,5776988,201,-1876,-383,-1028,-565,-332,257,145,-449
0,5776996,201,-1876,-383,-1028,-565,-332,257,145,-449
0,5777004,200,-1872,-382,-1022,-568,-329,259,145,-443
0,5777012,200,-1872,-382,-1022,-568,-329,259,145,-443
0,5777021,200,-1872,-382,-1022,-568,-329,259,145,-443
0,5777030,202,-1876,-378,-1027,-562,-321,259,145,-443
0,5777038,202,-1876,-378,-1027,-562,-321,259,145,-443
0,5777046,199,-1875,-385,-1026,-562,-318,259,145,-443
0,5777054,199,-1875,-385,-1026,-562,-318,259,145,-443
0,5777062,199,-1875,-385,-1026,-562,-318,259,145,-443
0,5777071,198,-1877,-384,-1020,-558,-323,259,145,-443
0,5777079,198,-1877,-384,-1020,-558,-323,259,145,-443
0,5777088,201,-1875,-382,-1024,-565,-328,259,145,-443
0,5777097,201,-1875,-382,-1024,-565,-328,259,145,-443
0,5777107,201,-1874,-386,-1026,-569,-326,259,145,-443
0,5777118,201,-1874,-386,-1026,-569,-326,259,145,-443
0,5777127,199,-1874,-387,-1024,-568,-325,256,150,-450
0,5777138,199,-1874,-387,-1024,-568,-325,256,150,-450
0,5777149,200,-1875,-382,-1028,-563,-330,256,150,-450
0,5777162,200,-1875,-382,-1028,-563,-330,256,150,-450
0,5777175,197,-1874,-385,-1024,-568,-328,256,150,-450
0,5777188,198,-1875,-386,-1026,-564,-325,256,150,-450
0,5777200,198,-1875,-386,-1026,-564,-325,256,150,-450
0,5777213,200,-1874,-384,-1029,-563,-327,256,150,-450
0,5777225,199,-1876,-381,-1025,-571,-329,256,150,-450
0,5777238,199,-1876,-381,-1025,-571,-329,256,150,-450
0,5777250,202,-1874,-382,-1028,-574,-326,256,150,-450
0,5777261,202,-1874,-382,-1028,-574,-326,256,150,-450
0,5777275,197,-1873,-376,-1029,-571,-324,257,151,-441
0,5777288,197,-1878,-383,-1028,-570,-333,257,151,-441
0,5777300,197,-1878,-383,-1028,-570,-333,257,151,-441
0,5777309,199,-1876,-389,-1029,-562,-328,257,151,-441
0,5777320,199,-1876,-389,-1029,-562,-328,257,151,-441
0,5777334,200,-1875,-383,-1018,-564,-327,257,151,-441
0,5777347,200,-1874,-385,-1027,-569,-327,257,151,-441
0,5777357,200,-1874,-385,-1027,-569,-327,257,151,-441
0,5777370,198,-1874,-385,-1029,-571,-329,257,151,-441
0,5777382,198,-1874,-385,-1029,-571,-329,257,151,-441
0,5777396,198,-1873,-382,-1030,-567,-336,259,141,-451
0,5777408,198,-1873,-381,-1031,-574,-324,259,141,-451
0,5777419,198,-1873,-381,-1031,-574,-324,259,141,-451
0,5777433,199,-1874,-382,-1030,-571,-322,259,141,-451
0,5777445,198,-1873,-376,-1031,-567,-325,259,141,-451
0,5777457,198,-1873,-376,-1031,-567,-325,259,141,-451
0,5777470,198,-1872,-383,-1032,-571,-325,259,141,-451
0,5777483,198,-1872,-383,-1032,-571,-325,259,141,-451
0,5777496,197,-1876,-383,-1023,-562,-327,259,141,-451
0,5777508,199,-1877,-379,-1028,-555,-323,259,141,-451
0,5777522,199,-1877,-379,-1028,-555,-323,259,141,-451
0,5777533,202,-1873,-378,-1025,-568,-326,256,138,-446
0,5777543,202,-1873,-378,-1025,-568,-326,256,138,-446
0,5777551,200,-1874,-378,-1025,-564,-323,256,138,-446
0,5777558,200,-1874,-378,-1025,-564,-323,256,138,-446
0,5777566,201,-1873,-386,-1024,-563,-326,256,138,-446
0,5777575,201,-1873,-386,-1024,-563,-326,256,138,-446
0,5777586,197,-1877,-387,-1021,-565,-332,256,138,-446
0,5777594,197,-1877,-387,-1021,-565,-332,256,138,-446
0,5777602,197,-1877,-387,-1021,-565,-332,256,138,-446
0,5777610,201,-1874,-386,-1022,-565,-325,256,138,-446
0,5777618,201,-1874,-386,-1022,-565,-325,256,138,-446
0,5777627,202,-1873,-388,-1021,-570,-323,256,138,-446
0,5777639,202,-1873,-388,-1021,-570,-323,256,138,-446
0,5777652,202,-1874,-384,-1026,-568,-325,256,152,-452
0,5777659,202,-1874,-384,-1026,-568,-325,256,152,-452
0,5777666,195,-1873,-378,-1024,-571,-326,256,152,-452
0,5777673,195,-1873,-378,-1024,-571,-326,256,152,-452
0,5777681,195,-1873,-378,-1024,-571,-326,256,152,-452
0,5777687,200,-1876,-380,-1025,-568,-326,256,152,-452
0,5777694,200,-1876,-380,-1025,-568,-326,256,152,-452
0,5777701,200,-1876,-380,-1025,-568,-326,256,152,-452
0,5777709,202,-1874,-378,-1028,-563,-321,256,152,-452
0,5777716,202,-1874,-378,-1028,-563,-321,256,152,-452
0,5777722,202,-1874,-378,-1028,-563,-321,256,152,-452
0,5777730,199,-1872,-385,-1027,-567,-326,256,152,-452
0,5777737,199,-1872,-385,-1027,-567,-326,256,152,-452
0,5777744,199,-1872,-385,-1027,-567,-326,256,152,-452
0,5777751,199,-1872,-385,-1027,-567,-326,256,152,-452
0,5777757,199,-1872,-385,-1027,-567,-326,256,152,-452
0,5777764,199,-1872,-385,-1027,-567,-326,256,152,-452
0,5777770,197,-1875,-390,-1023,-565,-325,256,152,-452
0,5777777,197,-1875,-390,-1023,-565,-325,256,152,-452
0,5777784,197,-1875,-390,-1023,-565,-325,256,152,-452
0,5777793,198,-1874,-384,-1023,-563,-319,253,143,-443
0,5777799,198,-1874,-384,-1023,-563,-319,253,143,-443
0,5777807,198,-1874,-380,-1026,-569,-316,253,143,-443
0,5777815,198,-1874,-380,-1026,-569,-316,253,143,-443
0,5777823,198,-1874,-380,-1026,-569,-316,253,143,-443
0,5777830,199,-1876,-382,-1026,-568,-328,253,143,-443
0,5777837,199,-1876,-382,-1026,-568,-328,253,143,-443
0,5777844,199,-1876,-382,-1026,-568,-328,253,143,-443
0,5777850,199,-1873,-384,-1027,-565,-320,253,143,-443
0,5777856,199,-1873,-384,-1027,-565,-320,253,143,-443
0,5777864,199,-1873,-384,-1027,-565,-320,253,143,-443
0,5777871,198,-1876,-385,-1024,-561,-322,253,143,-443
0,5777878,198,-1876,-385,-1024,-561,-322,253,143,-443
0,5777885,200,-1877,-384,-1020,-564,-332,253,143,-443
0,5777891,200,-1877,-384,-1020,-564,-332,253,143,-443
0,5777899,200,-1877,-384,-1020,-564,-332,253,143,-443
0,5777907,200,-1873,-382,-1022,-562,-324,256,148,-448
0,5777915,200,-1873,-382,-1022,-562,-324,256,148,-448
0,5777922,200,-1873,-382,-1022,-562,-324,256,148,-448
0,5777930,200,-1873,-382,-1018,-565,-328,256,148,-448
0,5777937,200,-1873,-382,-1018,-565,-328,256,148,-448
0,5777942,200,-1873,-382,-1018,-565,-328,256,148,-448
0,5777950,200,-1874,-379,-1019,-568,-330,256,148,-448
0,5777957,200,-1874,-379,-1019,-568,-330,256,148,-448
0,5777966,200,-1875,-386,-1025,-571,-327,256,148,-448
0,5777973,200,-1875,-386,-1025,-571,-327,256,148,-448
0,5777978,200,-1875,-386,-1025,-571,-327,256,148,-448
0,5777983,200,-1875,-386,-1025,-571,-327,256,148,-448
0,5777988,199,-1876,-384,-1028,-570,-327,256,148,-448
0,5777993,199,-1876,-384,-1028,-570,-327,256,148,-448
0,5777998,199,-1876,-384,-1028,-570,-327,256,148,-448
0,5778003,199,-1876,-384,-1028,-570,-327,256,148,-448
0,5778010,200,-1874,-384,-1025,-566,-323,256,148,-448
0,5778016,200,-1874,-384,-1025,-566,-323,256,148,-448
0,5778023,200,-1874,-384,-1025,-566,-323,256,148,-448
0,5778029,199,-1871,-384,-1028,-561,-327,252,146,-442
0,5778037,199,-1871,-384,-1028,-561,-327,252,146,-442
0,5778042,199,-1871,-384,-1028,-561,-327,252,146,-442
0,5778051,198,-1874,-379,-1026,-559,-329,252,146,-442
0,5778060,198,-1874,-379,-1026,-559,-329,252,146,-442
0,5778066,201,-1875,-382,-1022,-570,-324,252,146,-442
0,5778073,201,-1875,-382,-1022,-570,-324,252,146,-442
0,5778079,201,-1875,-382,-1022,-570,-324,252,146,-442
0,5778086,202,-1875,-385,-1028,-566,-322,252,146,-442
0,5778093,202,-1875,-385,-1028,-566,-322,252,146,-442
0,5778101,202,-1875,-385,-1028,-566,-322,252,146,-442
0,5778108,198,-1875,-383,-1020,-566,-329,252,146,-442
0,5778116,198,-1875,-383,-1020,-566,-329,252,146,-442
0,5778123,198,-1875,-383,-1020,-566,-329,252,146,-442
0,5778128,200,-1877,-386,-1030,-566,-327,252,146,-442
0,5778135,200,-1877,-386,-1030,-566,-327,252,146,-442
0,5778142,200,-1877,-386,-1030,-566,-327,252,146,-442
0,5778150,200,-1874,-385,-1028,-563,-327,252,146,-442
0,5778157,200,-1874,-385,-1028,-563,-327,252,146,-442
0,5778162,200,-1874,-385,-1028,-563,-327,252,146,-442
0,5778169,200,-1873,-376,-1024,-562,-328,263,145,-441
0,5778178,200,-1873,-376,-1024,-562,-328,263,145,-441
0,5778185,200,-1873,-376,-1024,-562,-328,263,145,-441
0,5778191,199,-1875,-381,-1021,-566,-318,263,145,-441
0,5778198,199,-1875,-381,-1021,-566,-318,263,145,-441
0,5778204,199,-1875,-381,-1021,-566,-318,263,145,-441
0,5778210,197,-1872,-382,-1025,-555,-321,263,145,-441
0,5778215,197,-1872,-382,-1025,-555,-321,263,145,-441
0,5778221,197,-1872,-382,-1025,-555,-321,263,145,-441
0,5778226,198,-1870,-390,-1028,-565,-323,263,145,-441
0,5778233,198,-1870,-390,-1028,-565,-323,263,145,-441
0,5778240,198,-1870,-390,-1028,-565,-323,263,145,-441
0,5778247,196,-1872,-384,-1029,-566,-331,263,145,-441
0,5778254,196,-1872,-384,-1029,-566,-331,263,145,-441
0,5778259,196,-1872,-384,-1029,-566,-331,263,145,-441
0,5778268,200,-1873,-389,-1021,-568,-333,263,145,-441
0,5778276,200,-1873,-389,-1021,-568,-333,263,145,-441
0,5778283,200,-1873,-389,-1021,-568,-333,263,145,-441
0,5778290,201,-1874,-377,-1024,-561,-331,260,142,-438
0,5778297,201,-1874,-377,-1024,-561,-331,260,142,-438
0,5778305,201,-1874,-377,-1024,-561,-331,260,142,-438
0,5778311,197,-1877,-381,-1028,-561,-330,260,142,-438
0,5778319,197,-1877,-381,-1028,-561,-330,260,142,-438
0,5778325,197,-1877,-381,-1028,-561,-330,260,142,-438
0,5778332,197,-1877,-381,-1028,-561,-330,260,142,-438
0,5778339,197,-1877,-381,-1028,-561,-330,260,142,-438
0,5778347,198,-1875,-388,-1026,-563,-333,260,142,-438
0,5778353,198,-1875,-388,-1026,-563,-333,260,142,-438
0,5778360,198,-1875,-388,-1026,-563,-333,260,142,-438
0,5778366,200,-1876,-381,-1036,-566,-330,260,142,-438
0,5778373,200,-1876,-381,-1036,-566,-330,260,142,-438
0,5778379,200,-1876,-381,-1036,-566,-330,260,142,-438
0,5778386,201,-1876,-381,-1029,-570,-329,260,142,-438
0,5778395,201,-1876,-381,-1029,-570,-329,260,142,-438
0,5778402,201,-1876,-381,-1029,-570,-329,260,142,-438
0,5778409,198,-1875,-389,-1028,-567,-330,260,142,-438
0,5778416,198,-1875,-389,-1028,-567,-330,260,142,-438
0,5778422,198,-1875,-389,-1028,-567,-330,260,142,-438
0,5778427,196,-1873,-378,-1030,-563,-324,254,142,-440
0,5778436,196,-1873,-378,-1030,-563,-324,254,142,-440
0,5778443,196,-1873,-378,-1030,-563,-324,254,142,-440
0,5778450,200,-1875,-379,-1028,-564,-324,254,142,-440
0,5778455,200,-1875,-379,-1028,-564,-324,254,142,-440
0,5778461,200,-1875,-379,-1028,-564,-324,254,142,-440
0,5778469,199,-1875,-382,-1026,-568,-330,254,142,-440
0,5778478,199,-1875,-382,-1026,-568,-330,254,142,-440
0,5778486,198,-1877,-386,-1035,-566,-330,254,142,-440
0,5778493,198,-1877,-386,-1035,-566,-330,254,142,-440
0,5778500,198,-1877,-386,-1035,-566,-330,254,142,-440
0,5778507,199,-1876,-378,-1031,-570,-330,254,142,-440
0,5778514,199,-1876,-378,-1031,-570,-330,254,142,-440
0,5778523,199,-1876,-378,-1031,-570,-330,254,142,-440
0,5778528,199,-1874,-380,-1034,-570,-335,254,142,-440
0,5778533,199,-1874,-380,-1034,-570,-335,254,142,-440
0,5778538,199,-1874,-380,-1034,-570,-335,254,142,-440
0,5778543,199,-1874,-380,-1034,-570,-335,254,142,-440
0,5778548,199,-1876,-383,-1030,-568,-334,257,137,-435
0,5778553,199,-1876,-383,-1030,-568,-334,257,137,-435
0,5778558,199,-1876,-383,-1030,-568,-334,257,137,-435
0,5778564,199,-1876,-383,-1030,-568,-334,257,137,-435
0,5778572,200,-1875,-383,-1028,-561,-321,257,137,-435
0,5778578,200,-1875,-383,-1028,-561,-321,257,137,-435
0,5778587,197,-1873,-381,-1024,-566,-324,257,137,-435
0,5778593,197,-1873,-381,-1024,-566,-324,257,137,-435
0,5778601,197,-1873,-381,-1024,-566,-324,257,137,-435
0,5778609,199,-1873,-390,-1028,-577,-327,257,137,-435
0,5778616,199,-1873,-390,-1028,-577,-327,257,137,-435
0,5778622,199,-1873,-390,-1028,-577,-327,257,137,-435
0,5778630,197,-1874,-384,-1027,-570,-331,257,137,-435
0,5778637,197,-1874,-384,-1027,-570,-331,257,137,-435
0,5778644,197,-1874,-384,-1027,-570,-331,257,137,-435
0,5778653,202,-1874,-385,-1025,-561,-331,257,137,-435
0,5778662,202,-1874,-385,-1025,-561,-331,257,137,-435
0,5778676,199,-1874,-384,-1022,-562,-332,255,143,-445
0,5778689,200,-1875,-378,-1022,-563,-319,255,143,-445
0,5778698,200,-1875,-378,-1022,-563,-319,255,143,-445
0,5778710,200,-1876,-385,-1022,-563,-325,255,143,-445
0,5778723,200,-1876,-385,-1022,-563,-325,255,143,-445
0,5778737,199,-1874,-389,-1026,-569,-324,255,143,-445
0,5778748,200,-1874,-385,-1025,-569,-327,255,143,-445
0,5778758,200,-1874,-385,-1025,-569,-327,255,143,-445
0,5778766,201,-1875,-384,-1025,-573,-326,255,143,-445
0,5778778,201,-1875,-384,-1025,-573,-326,255,143,-445
0,5778792,200,-1875,-382,-1026,-566,-328,255,143,-445
0,5778803,200,-1875,-382,-1026,-566,-328,255,143,-445
0,5778812,199,-1874,-380,-1019,-565,-325,259,147,-453
0,5778826,199,-1874,-383,-1028,-570,-318,259,147,-453
0,5778840,199,-1874,-383,-1028,-570,-318,259,147,-453
0,5778850,200,-1877,-380,-1020,-567,-327,259,147,-453
0,5778863,200,-1877,-380,-1020,-567,-327,259,147,-453
0,5778875,198,-1875,-386,-1027,-564,-337,259,147,-453
0,5778888,200,-1874,-387,-1022,-569,-337,259,147,-453
0,5778897,200,-1874,-387,-1022,-569,-337,259,147,-453
0,5778911,201,-1875,-382,-1022,-570,-326,259,147,-453
0,5778923,201,-1875,-382,-1022,-570,-326,259,147,-453
0,5778936,201,-1873,-381,-1027,-567,-326,262,140,-440
0,5778948,200,-1871,-379,-1032,-561,-329,262,140,-440
0,5778962,200,-1871,-379,-1032,-561,-329,262,140,-440
0,5778975,198,-1875,-382,-1027,-561,-323,262,140,-440
0,5778983,198,-1875,-382,-1027,-561,-323,262,140,-440
0,5778991,201,-1875,-382,-1018,-565,-320,262,140,-440
0,5779000,201,-1875,-382,-1018,-565,-320,262,140,-440
0,5779007,200,-1874,-381,-1015,-572,-321,262,140,-440
0,5779016,200,-1874,-381,-1015,-572,-321,262,140,-440
0,5779024,200,-1874,-381,-1015,-572,-321,262,140,-440
0,5779033,199,-1875,-379,-1025,-565,-323,262,140,-440
0,5779042,199,-1875,-379,-1025,-565,-323,262,140,-440
0,5779050,201,-1874,-380,-1021,-554,-326,262,140,-440
0,5779058,201,-1874,-380,-1021,-554,-326,262,140,-440
0,5779066,197,-1876,-379,-1029,-559,-329,262,142,-440
0,5779075,197,-1876,-379,-1029,-559,-329,262,142,-444
0,5779083,197,-1876,-379,-1029,-559,-329,262,142,-444
0,5779090,196,-1872,-383,-1027,-569,-327,262,142,-444
0,5779102,196,-1872,-383,-1027,-569,-327,262,142,-444
0,5779111,202,-1876,-381,-1018,-564,-321,262,142,-444
0,5779123,202,-1876,-381,-1018,-564,-321,262,142,-444
0,5779136,200,-1874,-384,-1016,-557,-321,262,142,-444
0,5779148,201,-1875,-385,-1019,-563,-328,262,142,-444
0,5779162,201,-1875,-385,-1019,-563,-328,262,142,-444
0,5779171,198,-1876,-387,-1018,-561,-328,262,142,-444
0,5779182,198,-1876,-387,-1018,-561,-328,262,142,-444
0,5779193,199,-1873,-381,-1017,-564,-322,258,140,-438
0,5779206,199,-1873,-381,-1017,-564,-322,258,140,-438
0,5779218,203,-1874,-384,-1018,-569,-322,258,140,-438
0,5779231,200,-1876,-383,-1015,-560,-322,258,140,-438
0,5779244,200,-1876,-383,-1015,-560,-322,258,140,-438
0,5779256,200,-1876,-387,-1019,-568,-321,258,140,-438
0,5779270,203,-1874,-387,-1022,-563,-319,258,140,-438
0,5779282,203,-1874,-387,-1022,-563,-319,258,140,-438
0,5779295,197,-1872,-382,-1020,-568,-326,258,140,-438
0,5779308,200,-1876,-379,-1017,-570,-325,258,140,-438
0,5779320,200,-1876,-379,-1017,-570,-325,258,140,-438
0,5779333,198,-1871,-380,-1024,-566,-323,255,137,-451
0,5779345,198,-1871,-380,-1024,-566,-323,255,137,-451
0,5779356,199,-1876,-381,-1022,-565,-324,255,137,-451
0,5779366,199,-1876,-381,-1022,-565,-324,255,137,-451
0,5779379,201,-1874,-383,-1025,-563,-326,255,137,-451
0,5779392,197,-1873,-383,-1024,-565,-319,255,137,-451
0,5779401,197,-1873,-383,-1024,-565,-319,255,137,-451
0,5779414,198,-1876,-387,-1025,-565,-323,255,137,-451
0,5779426,198,-1876,-387,-1025,-565,-323,255,137,-451
0,5779438,201,-1872,-381,-1024,-568,-329,255,137,-451
0,5779450,202,-1874,-381,-1023,-558,-329,258,138,-444
0,5779464,202,-1874,-381,-1023,-558,-329,258,138,-444
0,5779475,199,-1873,-381,-1024,-565,-329,258,138,-444
0,5779487,198,-1875,-386,-1022,-561,-321,258,138,-444
0,5779501,198,-1875,-386,-1022,-561,-321,258,138,-444
0,5779514,198,-1873,-385,-1024,-561,-322,258,138,-444
0,5779526,198,-1873,-385,-1024,-561,-322,258,138,-444
0,5779537,199,-1875,-379,-1027,-568,-322,258,138,-444
0,5779546,199,-1875,-379,-1027,-568,-322,258,138,-444
0,5779554,198,-1872,-383,-1029,-566,-327,258,138,-444
0,5779561,198,-1872,-383,-1029,-566,-327,258,138,-444
0,5779570,201,-1874,-383,-1020,-563,-327,260,146,-438
0,5779582,201,-1874,-383,-1020,-563,-327,260,146,-438
0,5779596,200,-1872,-384,-1028,-567,-322,260,146,-438
0,5779608,201,-1873,-381,-1029,-566,-325,260,146,-438
0,5779618,201,-1873,-381,-1029,-566,-325,260,146,-438
0,5779631,202,-1875,-385,-1029,-573,-330,260,146,-438
0,5779641,202,-1875,-385,-1029,-573,-330,260,146,-438
0,5779652,197,-1875,-381,-1023,-566,-322,260,146,-438
0,5779665,197,-1875,-381,-1023,-566,-322,260,146,-438
0,5779672,198,-1873,-383,-1023,-564,-322,260,146,-438
0,5779679,198,-1873,-383,-1023,-564,-322,260,146,-438
0,5779684,198,-1873,-383,-1023,-564,-322,260,146,-438
0,5779692,198,-1872,-381,-1027,-568,-327,260,146,-438
0,5779698,198,-1872,-381,-1027,-568,-327,260,146,-438
0,5779704,198,-1872,-381,-1027,-568,-327,260,146,-438
0,5779713,198,-1876,-383,-1030,-569,-324,255,145,-447
0,5779720,198,-1876,-383,-1030,-569,-324,255,145,-447
0,5779728,200,-1875,-389,-1023,-561,-325,255,145,-447
0,5779736,200,-1875,-389,-1023,-561,-325,255,145,-447
0,5779743,200,-1875,-389,-1023,-561,-325,255,145,-447
0,5779749,199,-1873,-381,-1027,-565,-333,255,145,-447
0,5779756,199,-1873,-381,-1027,-565,-333,255,145,-447
0,5779761,199,-1873,-381,-1027,-565,-333,255,145,-447
0,5779766,199,-1873,-381,-1027,-565,-333,255,145,-447
0,5779773,199,-1874,-387,-1024,-566,-328,255,145,-447
0,5779780,199,-1874,-387,-1024,-566,-328,255,145,-447
0,5779787,201,-1876,-388,-1029,-568,-333,255,145,-447
0,5779794,201,-1876,-388,-1029,-568,-333,255,145,-447
0,5779802,201,-1876,-388,-1029,-568,-333,255,145,-447
0,5779810,201,-1873,-387,-1027,-569,-328,255,145,-447
0,5779817,201,-1873,-387,-1027,-569,-328,255,145,-447
0,5779824,201,-1873,-387,-1027,-569,-328,255,145,-447
0,5779832,198,-1873,-384,-1023,-571,-325,256,138,-446
0,5779838,198,-1873,-384,-1023,-571,-325,256,138,-446
0,5779846,198,-1873,-384,-1023,-571,-325,256,138,-446
0,5779852,199,-1873,-381,-1028,-566,-331,256,138,-446
0,5779860,199,-1873,-381,-1028,-566,-331,256,138,-446
0,5779867,200,-1875,-386,-1026,-565,-327,256,138,-446
0,5779874,200,-1875,-386,-1026,-565,-327,256,138,-446
0,5779880,200,-1875,-386,-1026,-565,-327,256,138,-446
0,5779887,200,-1875,-386,-1026,-565,-327,256,138,-446
0,5779894,200,-1871,-383,-1021,-562,-322,256,138,-446
0,5779902,200,-1871,-383,-1021,-562,-322,256,138,-446
0,5779910,202,-1876,-389,-1030,-565,-325,256,138,-446
0,5779917,202,-1876,-389,-1030,-565,-325,256,138,-446
0,5779924,202,-1876,-389,-1030,-565,-325,256,138,-446
0,5779932,200,-1878,-384,-1031,-563,-326,256,138,-446
0,5779938,200,-1878,-384,-1031,-563,-326,256,138,-446
0,5779944,200,-1878,-384,-1031,-563,-326,256,138,-446
0,5779951,200,-1876,-385,-1027,-561,-328,256,138,-446
0,5779959,200,-1876,-385,-1027,-561,-328,256,138,-446
0,5779966,200,-1876,-385,-1027,-561,-328,256,138,-446
0,5779973,199,-1875,-387,-1028,-557,-329,263,145,-451
0,5779978,199,-1875,-387,-1028,-557,-329,263,145,-451
0,5779983,199,-1875,-387,-1028,-557,-329,263,145,-451
0,5779988,204,-1876,-380,-1036,-560,-335,263,145,-451
0,5779993,204,-1876,-380,-1036,-560,-335,263,145,-451
0,5779998,204,-1876,-380,-1036,-560,-335,263,145,-451
0,5780003,204,-1876,-380,-1036,-560,-335,263,145,-451
0,5780008,200,-1873,-379,-1024,-562,-327,263,145,-451
0,5780017,200,-1873,-379,-1024,-562,-327,263,145,-451
0,5780022,200,-1873,-379,-1024,-562,-327,263,145,-451
0,5780030,201,-1874,-387,-1025,-563,-334,263,145,-451
0,5780037,201,-1874,-387,-1025,-563,-334,263,145,-451
0,5780043,201,-1874,-387,-1025,-563,-334,263,145,-451
0,5780050,199,-1874,-383,-1022,-564,-327,263,145,-451
0,5780057,199,-1874,-383,-1022,-564,-327,263,145,-451
0,5780064,199,-1874,-383,-1022,-564,-327,263,145,-451
0,5780070,196,-1873,-379,-1031,-557,-327,263,145,-451
0,5780077,196,-1873,-379,-1031,-557,-327,263,145,-451
0,5780085,196,-1873,-379,-1031,-557,-327,263,145,-451
0,5780092,196,-1873,-379,-1031,-557,-327,252,148,-452
0,5780100,196,-1873,-379,-1031,-557,-327,252,148,-452
0,5780106,196,-1873,-379,-1031,-557,-327,252,148,-452
0,5780114,199,-1873,-384,-1024,-559,-324,252,148,-452
0,5780120,199,-1873,-384,-1024,-559,-324,252,148,-452
0,5780127,199,-1873,-384,-1024,-559,-324,252,148,-452
0,5780135,200,-1874,-380,-1018,-562,-329,252,148,-452
0,5780142,200,-1874,-380,-1018,-562,-329,252,148,-452
0,5780150,201,-1872,-382,-1018,-566,-330,252,148,-452
0,5780156,201,-1872,-382,-1018,-566,-330,252,148,-452
0,5780163,201,-1872,-382,-1018,-566,-330,252,148,-452
0,5780170,198,-1876,-388,-1025,-571,-327,252,148,-452
0,5780177,198,-1876,-388,-1025,-571,-327,252,148,-452
0,5780186,198,-1876,-388,-1025,-571,-327,252,148,-452
0,5780193,201,-1875,-384,-1031,-564,-322,252,148,-452
0,5780200,201,-1875,-384,-1031,-564,-322,252,148,-452
0,5780206,201,-1875,-384,-1031,-564,-322,252,148,-452
0,5780212,201,-1876,-383,-1027,-572,-321,252,148,-452
0,5780219,201,-1876,-383,-1027,-572,-321,252,148,-452
0,5780228,201,-1876,-383,-1027,-572,-321,252,148,-452
0,5780234,200,-1875,-374,-1021,-571,-325,252,148,-452
0,5780241,200,-1875,-374,-1021,-571,-325,252,148,-452
0,5780248,199,-1873,-383,-1019,-566,-325,252,148,-452
0,5780256,199,-1873,-383,-1019,-566,-325,252,148,-452
0,5780263,199,-1873,-383,-1019,-566,-325,252,148,-452
0,5780272,197,-1875,-381,-1020,-563,-323,252,148,-452
0,5780278,197,-1875,-381,-1020,-563,-323,252,148,-452
0,5780285,197,-1875,-381,-1020,-563,-323,252,148,-452
0,5780293,198,-1872,-390,-1025,-565,-322,252,148,-452
0,5780299,198,-1872,-390,-1025,-565,-322,252,148,-452
0,5780306,198,-1872,-390,-1025,-565,-322,252,148,-452
0,5780315,199,-1871,-390,-1027,-567,-321,252,148,-452
0,5780321,199,-1871,-390,-1027,-567,-321,252,148,-452
0,5780326,199,-1871,-390,-1027,-567,-321,252,148,-452
0,5780331,199,-1873,-391,-1026,-568,-325,252,148,-452
0,5780336,199,-1873,-391,-1026,-568,-325,252,148,-452
0,5780342,199,-1873,-391,-1026,-568,-325,252,148,-452
0,5780350,201,-1875,-383,-1030,-568,-333,260,146,-444
0,5780356,201,-1875,-383,-1030,-568,-333,260,146,-444
0,5780362,201,-1875,-383,-1030,-568,-333,260,146,-444
0,5780368,201,-1874,-385,-1031,-570,-330,260,146,-444
0,5780374,201,-1874,-385,-1031,-570,-330,260,146,-444
0,5780381,201,-1874,-385,-1031,-570,-330,260,146,-444
0,5780388,201,-1875,-383,-1036,-571,-335,260,146,-444
0,5780396,201,-1875,-383,-1036,-571,-335,260,146,-444
0,5780404,201,-1875,-383,-1036,-571,-335,260,146,-444
0,5780412,199,-1876,-382,-1032,-563,-327,260,146,-444
0,5780419,199,-1876,-382,-1032,-563,-327,260,146,-444
0,5780424,199,-1876,-382,-1032,-563,-327,260,146,-444
0,5780430,197,-1876,-383,-1032,-562,-324,260,146,-444
0,5780436,197,-1876,-383,-1032,-562,-324,260,146,-444
0,5780444,197,-1876,-383,-1032,-562,-324,260,146,-444
0,5780451,199,-1873,-385,-1028,-564,-328,260,146,-444
0,5780458,199,-1873,-385,-1028,-564,-328,260,146,-444
0,5780464,199,-1873,-385,-1028,-564,-328,260,146,-444
0,5780471,200,-1875,-386,-1027,-564,-325,256,146,-448
0,5780480,200,-1875,-386,-1027,-564,-325,256,146,-448
0,5780488,200,-1875,-386,-1027,-564,-325,256,146,-448
0,5780494,201,-1874,-380,-1018,-561,-332,256,146,-448
0,5780501,201,-1874,-380,-1018,-561,-332,256,146,-448
0,5780508,205,-1871,-385,-1021,-568,-334,256,146,-448
0,5780515,205,-1871,-385,-1021,-568,-334,256,146,-448
0,5780523,205,-1871,-385,-1021,-568,-334,256,146,-448
0,5780530,203,-1875,-381,-1028,-572,-328,256,146,-448
0,5780537,203,-1875,-381,-1028,-572,-328,256,146,-448
0,5780542,203,-1875,-381,-1028,-572,-328,256,146,-448
0,5780547,203,-1875,-381,-1028,-572,-328,256,146,-448
0,5780552,199,-1876,-385,-1020,-568,-323,256,146,-448
0,5780557,199,-1876,-385,-1020,-568,-323,256,146,-448
0,5780562,199,-1876,-385,-1020,-568,-323,256,146,-448
0,5780568,199,-1876,-385,-1020,-568,-323,256,146,-448
0,5780575,200,-1874,-385,-1023,-560,-325,256,146,-448
0,5780581,200,-1874,-385,-1023,-560,-325,256,146,-448
0,5780587,200,-1874,-385,-1023,-560,-325,256,146,-448
0,5780593,204,-1871,-389,-1019,-562,-329,256,146,-448
0,5780599,204,-1871,-389,-1019,-562,-329,256,146,-448
0,5780605,204,-1871,-389,-1019,-562,-329,256,146,-448
0,5780614,202,-1872,-378,-1021,-558,-322,265,147,-443
0,5780620,202,-1872,-378,-1021,-558,-322,265,147,-443
0,5780626,202,-1872,-378,-1021,-558,-322,265,147,-443
0,5780633,199,-1873,-380,-1029,-562,-326,265,147,-443
0,5780641,199,-1873,-380,-1029,-562,-326,265,147,-443
0,5780648,198,-1876,-385,-1027,-562,-324,265,147,-443
0,5780656,198,-1876,-385,-1027,-562,-324,265,147,-443
0,5780664,198,-1876,-385,-1027,-562,-324,265,147,-443
0,5780671,199,-1873,-380,-1025,-566,-329,265,147,-443
0,5780682,199,-1873,-380,-1025,-566,-329,265,147,-443
0,5780695,201,-1874,-380,-1013,-563,-326,265,147,-443
0,5780708,201,-1874,-380,-1013,-563,-326,265,147,-443
0,5780722,202,-1873,-391,-1020,-566,-327,265,147,-443
0,5780737,201,-1872,-383,-1026,-568,-324,247,149,-445
0,5780750,203,-1871,-385,-1029,-569,-327,247,149,-445
0,5780763,203,-1871,-385,-1029,-569,-327,247,149,-445
0,5780774,199,-1875,-385,-1028,-571,-334,247,149,-445
0,5780787,199,-1875,-385,-1028,-571,-334,247,149,-445
0,5780800,198,-1874,-387,-1028,-569,-331,247,149,-445
0,5780813,205,-1876,-382,-1028,-567,-329,247,149,-445
0,5780824,205,-1876,-382,-1028,-567,-329,247,149,-445
0,5780837,201,-1875,-391,-1030,-566,-324,247,149,-445
0,5780848,198,-1874,-388,-1028,-557,-326,247,149,-445
0,5780857,198,-1874,-388,-1028,-557,-326,247,149,-445
0,5780866,198,-1874,-388,-1028,-557,-326,247,149,-445
0,5780874,201,-1874,-375,-1023,-566,-327,262,144,-450
0,5780882,201,-1874,-375,-1023,-566,-327,262,144,-450
0,5780890,199,-1875,-378,-1022,-561,-332,262,144,-450
0,5780902,199,-1875,-378,-1022,-561,-332,262,144,-450
0,5780914,197,-1874,-384,-1027,-565,-334,262,144,-450
0,5780927,197,-1874,-384,-1027,-565,-334,262,144,-450
0,5780940,197,-1873,-386,-1025,-564,-328,262,144,-450
0,5780953,199,-1875,-387,-1015,-561,-319,262,144,-450
0,5780964,199,-1875,-387,-1015,-561,-319,262,144,-450
0,5780975,197,-1871,-384,-1025,-568,-329,262,144,-450
0,5780983,197,-1871,-384,-1025,-568,-329,262,144,-450
0,5780992,198,-1869,-376,-1026,-558,-315,252,144,-434
0,5781000,198,-1869,-376,-1026,-558,-315,252,144,-434
0,5781008,198,-1869,-376,-1026,-558,-315,252,144,-434
0,5781016,200,-1874,-381,-1030,-555,-325,252,144,-434
0,5781024,200,-1874,-381,-1030,-555,-325,252,144,-434
0,5781032,200,-1873,-380,-1023,-567,-324,252,144,-434
0,5781041,200,-1873,-380,-1023,-567,-324,252,144,-434
0,5781049,200,-1874,-386,-1026,-573,-322,252,144,-434
0,5781057,200,-1874,-386,-1026,-573,-322,252,144,-434
0,5781065,200,-1874,-386,-1026,-573,-322,252,144,-434
0,5781073,202,-1873,-382,-1036,-560,-327,252,144,-434
0,5781082,202,-1873,-382,-1036,-560,-327,252,144,-434
0,5781096,198,-1875,-390,-1035,-560,-332,252,144,-434
0,5781104,198,-1875,-390,-1035,-560,-332,252,144,-434
0,5781112,199,-1878,-383,-1024,-563,-322,245,137,-445
0,5781121,199,-1878,-383,-1024,-563,-322,245,137,-445
0,5781129,199,-1878,-383,-1024,-563,-322,245,137,-445
0,5781142,200,-1876,-378,-1026,-562,-329,245,137,-445
0,5781155,196,-1875,-382,-1022,-569,-325,245,137,-445
0,5781166,196,-1875,-382,-1022,-569,-325,245,137,-445
0,5781176,200,-1874,-388,-1024,-564,-322,245,137,-445
0,5781189,200,-1874,-388,-1024,-564,-322,245,137,-445
0,5781201,197,-1874,-388,-1032,-570,-322,245,137,-445
0,5781212,198,-1874,-386,-1018,-571,-326,245,137,-445
0,5781225,198,-1874,-386,-1018,-571,-326,245,137,-445
0,5781239,197,-1874,-382,-1021,-567,-321,245,137,-445
0,5781253,201,-1874,-379,-1027,-569,-322,261,141,-447
0,5781262,201,-1874,-379,-1027,-569,-322,261,141,-447
0,5781274,200,-1872,-381,-1014,-566,-329,261,141,-447
0,5781286,200,-1872,-381,-1014,-566,-329,261,141,-447
0,5781300,197,-1874,-382,-1020,-567,-323,261,141,-447
0,5781311,197,-1874,-384,-1025,-568,-318,261,141,-447
0,5781325,197,-1874,-384,-1025,-568,-318,261,141,-447
0,5781338,204,-1876,-382,-1027,-568,-324,261,141,-447
0,5781349,197,-1874,-380,-1029,-567,-324,261,141,-447
0,5781362,197,-1874,-380,-1029,-567,-324,261,141,-447
0,5781376,200,-1873,-383,-1026,-565,-326,255,135,-451
0,5781387,200,-1873,-383,-1026,-565,-326,255,135,-451
0,5781399,202,-1874,-383,-1019,-562,-321,255,135,-451
0,5781412,200,-1872,-379,-1019,-564,-322,255,135,-451
0,5781426,200,-1872,-379,-1019,-564,-322,255,135,-451
0,5781438,202,-1873,-383,-1022,-565,-328,255,135,-451
0,5781450,198,-1875,-383,-1027,-567,-316,255,135,-451
0,5781464,198,-1875,-383,-1027,-567,-316,255,135,-451
0,5781477,198,-1875,-386,-1033,-568,-321,255,135,-451
0,5781489,202,-1873,-388,-1029,-567,-333,255,135,-451
0,5781498,202,-1873,-388,-1029,-567,-333,255,135,-451
0,5781510,201,-1876,-381,-1037,-572,-332,252,146,-438
0,5781522,201,-1876,-381,-1037,-572,-332,252,146,-438
0,5781530,200,-1873,-384,-1024,-564,-326,252,146,-438
0,5781538,200,-1873,-384,-1024,-564,-326,252,146,-438
0,5781547,200,-1873,-384,-1024,-564,-326,252,146,-438
0,5781555,197,-1875,-382,-1024,-566,-326,252,146,-438
0,5781563,197,-1875,-382,-1024,-566,-326,252,146,-438
0,5781571,200,-1873,-386,-1030,-563,-315,252,146,-438
0,5781584,200,-1873,-386,-1030,-563,-315,252,146,-438
0,5781597,200,-1873,-389,-1029,-560,-320,252,146,-438
0,5781610,200,-1876,-387,-1028,-569,-324,252,146,-438
0,5781622,200,-1876,-387,-1028,-569,-324,252,146,-438
0,5781635,202,-1873,-381,-1028,-572,-327,261,149,-451
0,5781647,202,-1873,-381,-1028,-572,-327,261,149,-451
0,5781661,201,-1873,-378,-1023,-561,-322,261,149,-451
0,5781673,197,-1875,-389,-1027,-569,-325,261,149,-451
0,5781682,197,-1875,-389,-1027,-569,-325,261,149,-451
0,5781689,197,-1875,-389,-1027,-569,-325,261,149,-451
0,5781696,200,-1876,-383,-1028,-567,-324,261,149,-451
0,5781703,200,-1876,-383,-1028,-567,-324,261,149,-451
0,5781710,201,-1873,-383,-1030,-570,-324,261,149,-451
0,5781720,201,-1873,-383,-1030,-570,-324,261,149,-451
0,5781726,201,-1873,-383,-1030,-570,-324,261,149,-451
0,5781733,202,-1873,-386,-1029,-571,-328,261,149,-451
0,5781740,202,-1873,-386,-1029,-571,-328,261,149,-451
0,5781748,202,-1873,-386,-1029,-571,-328,261,149,-451
0,5781754,198,-1875,-381,-1023,-561,-327,261,149,-451
0,5781762,198,-1875,-381,-1023,-561,-327,261,149,-451
0,5781769,198,-1875,-381,-1023,-561,-327,261,149,-451
0,5781776,201,-1876,-381,-1025,-567,-331,259,151,-443
0,5781784,201,-1876,-381,-1025,-567,-331,259,151,-443
0,5781790,201,-1876,-381,-1025,-567,-331,259,151,-443
0,5781796,201,-1876,-381,-1025,-567,-331,259,151,-443
0,5781804,201,-1876,-381,-1025,-567,-331,259,151,-443
0,5781811,200,-1872,-377,-1025,-562,-324,259,151,-443
0,5781817,200,-1872,-377,-1025,-562,-324,259,151,-443
0,5781823,200,-1872,-377,-1025,-562,-324,259,151,-443
0,5781831,200,-1873,-386,-1030,-565,-322,259,151,-443
0,5781837,200,-1873,-386,-1030,-565,-322,259,151,-443
0,5781844,200,-1873,-386,-1030,-565,-322,259,151,-443
0,5781853,200,-1873,-389,-1030,-571,-330,259,151,-443
0,5781861,200,-1873,-389,-1030,-571,-330,259,151,-443
0,5781868,200,-1873,-389,-1030,-571,-330,259,151,-443
0,5781876,200,-1877,-387,-1024,-565,-326,259,151,-443
0,5781883,200,-1877,-387,-1024,-565,-326,259,151,-443
0,5781891,197,-1875,-374,-1032,-565,-316,262,148,-446
0,5781897,197,-1875,-374,-1032,-565,-316,262,148,-446
0,5781904,197,-1875,-374,-1032,-565,-316,262,148,-446
0,5781911,200,-1874,-383,-1023,-568,-322,262,148,-446
0,5781918,200,-1874,-383,-1023,-568,-322,262,148,-446
0,5781924,200,-1874,-383,-1023,-568,-322,262,148,-446
0,5781929,198,-1872,-386,-1027,-567,-329,262,148,-446
0,5781938,198,-1872,-386,-1027,-567,-329,262,148,-446
0,5781946,198,-1872,-386,-1027,-567,-329,262,148,-446
0,5781953,197,-1872,-387,-1028,-569,-321,262,148,-446
0,5781961,197,-1872,-387,-1028,-569,-321,262,148,-446
0,5781967,197,-1872,-387,-1028,-569,-321,262,148,-446
0,5781975,200,-1873,-383,-1026,-567,-317,262,148,-446
0,5781980,200,-1873,-383,-1026,-567,-317,262,148,-446
0,5781985,200,-1873,-383,-1026,-567,-317,262,148,-446
0,5781990,201,-1873,-385,-1030,-569,-323,262,148,-446
0,5781996,201,-1873,-385,-1030,-569,-323,262,148,-446
0,5782001,201,-1873,-385,-1030,-569,-323,262,148,-446
0,5782006,201,-1873,-385,-1030,-569,-323,262,148,-446
0,5782012,200,-1875,-379,-1029,-570,-326,250,148,-444
0,5782020,200,-1875,-379,-1029,-570,-326,250,148,-444
0,5782026,200,-1875,-379,-1029,-570,-326,250,148,-444
0,5782033,197,-1874,-382,-1036,-570,-312,250,148,-444
0,5782041,197,-1874,-382,-1036,-570,-312,250,148,-444
0,5782047,197,-1874,-382,-1036,-570,-312,250,148,-444
0,5782052,197,-1875,-380,-1033,-570,-330,250,148,-444
0,5782057,197,-1875,-380,-1033,-570,-330,250,148,-444
0,5782063,197,-1875,-380,-1033,-570,-330,250,148,-444
0,5782070,197,-1875,-380,-1033,-570,-330,250,148,-444
0,5782077,201,-1873,-378,-1026,-574,-331,250,148,-444
0,5782083,201,-1873,-378,-1026,-574,-331,250,148,-444
0,5782089,201,-1873,-378,-1026,-574,-331,250,148,-444
0,5782097,202,-1873,-385,-1022,-564,-334,250,148,-444
0,5782105,202,-1873,-385,-1022,-564,-334,250,148,-444
0,5782111,201,-1874,-386,-1028,-562,-324,250,148,-444
0,5782119,201,-1874,-386,-1028,-562,-324,250,148,-444
0,5782126,201,-1874,-386,-1028,-562,-324,250,148,-444
0,5782133,201,-1873,-387,-1026,-567,-327,250,148,-444
0,5782140,201,-1873,-387,-1026,-567,-327,250,148,-444
0,5782147,201,-1873,-387,-1026,-567,-327,250,148,-444
0,5782155,202,-1876,-378,-1025,-564,-325,265,143,-447
0,5782162,202,-1876,-378,-1025,-564,-325,265,143,-447
0,5782170,197,-1877,-382,-1026,-565,-328,265,143,-447
0,5782176,197,-1877,-382,-1026,-565,-328,265,143,-447
0,5782183,197,-1877,-382,-1026,-565,-328,265,143,-447
0,5782191,200,-1875,-381,-1028,-561,-330,265,143,-447
0,5782197,200,-1875,-381,-1028,-561,-330,265,143,-447
0,5782205,200,-1875,-381,-1028,-561,-330,265,143,-447
0,5782213,201,-1878,-387,-1032,-569,-327,265,143,-447
0,5782221,201,-1878,-387,-1032,-569,-327,265,143,-447
0,5782227,201,-1878,-387,-1032,-569,-327,265,143,-447
0,5782233,199,-1874,-380,-1038,-570,-323,265,143,-447
0,5782239,199,-1874,-380,-1038,-570,-323,265,143,-447
0,5782246,199,-1874,-380,-1038,-570,-323,265,143,-447
0,5782253,201,-1874,-384,-1034,-564,-323,265,143,-447
0,5782258,201,-1874,-384,-1034,-564,-323,265,143,-447
0,5782264,201,-1874,-384,-1034,-564,-323,265,143,-447
0,5782273,199,-1873,-381,-1023,-565,-327,262,144,-440
0,5782281,199,-1873,-381,-1023,-565,-327,262,144,-440
0,5782288,199,-1873,-381,-1023,-565,-327,262,144,-440
0,5782296,197,-1876,-378,-1025,-569,-333,262,144,-440
0,5782303,197,-1876,-378,-1025,-569,-333,262,144,-440
0,5782309,197,-1876,-378,-1025,-569,-333,262,144,-440
0,5782318,199,-1875,-387,-1029,-562,-329,262,144,-440
0,5782325,199,-1875,-387,-1029,-562,-329,262,144,-440
0,5782332,198,-1873,-377,-1038,-564,-335,262,144,-440
0,5782339,198,-1873,-377,-1038,-564,-335,262,144,-440
0,5782347,198,-1873,-377,-1038,-564,-335,262,144,-440
0,5782354,199,-1872,-384,-1034,-567,-325,262,144,-440
0,5782362,199,-1872,-384,-1034,-567,-325,262,144,-440
0,5782368,199,-1872,-384,-1034,-567,-325,262,144,-440
0,5782375,197,-1875,-386,-1025,-563,-318,262,144,-440
0,5782382,197,-1875,-386,-1025,-563,-318,262,144,-440
0,5782389,197,-1875,-386,-1025,-563,-318,262,144,-440
0,5782396,202,-1874,-385,-1023,-565,-322,262,144,-440
0,5782403,202,-1874,-385,-1023,-565,-322,262,144,-440
0,5782409,202,-1874,-385,-1023,-565,-322,262,144,-440
0,5782415,200,-1871,-380,-1033,-569,-323,263,141,-441
0,5782423,200,-1871,-380,-1033,-569,-323,263,141,-441
0,5782430,199,-1874,-381,-1020,-568,-322,263,141,-441
0,5782438,199,-1874,-381,-1020,-568,-322,263,141,-441
0,5782447,199,-1874,-381,-1020,-568,-322,263,141,-441
0,5782455,199,-1876,-383,-1024,-562,-319,263,141,-441
0,5782462,199,-1876,-383,-1024,-562,-319,263,141,-441
0,5782470,199,-1876,-383,-1024,-562,-319,263,141,-441
0,5782477,199,-1876,-383,-1024,-562,-319,263,141,-441
0,5782482,199,-1876,-383,-1024,-562,-319,263,141,-441
0,5782491,199,-1876,-383,-1024,-562,-319,263,141,-441
0,5782498,197,-1874,-376,-1031,-562,-329,263,141,-441
0,5782506,197,-1874,-376,-1031,-562,-329,263,141,-441
0,5782512,201,-1873,-381,-1021,-564,-328,263,141,-441
0,5782519,201,-1873,-381,-1021,-564,-328,263,141,-441
0,5782525,201,-1873,-381,-1021,-564,-328,263,141,-441
0,5782532,200,-1873,-379,-1024,-562,-324,263,139,-441
0,5782538,200,-1873,-379,-1024,-562,-324,263,139,-441
0,5782543,200,-1873,-379,-1024,-562,-324,263,139,-441
0,5782548,200,-1873,-379,-1024,-562,-324,263,139,-441
0,5782553,199,-1871,-380,-1023,-564,-321,263,139,-441
0,5782559,199,-1871,-380,-1023,-564,-321,263,139,-441
0,5782564,199,-1871,-380,-1023,-564,-321,263,139,-441
0,5782569,199,-1871,-380,-1023,-564,-321,263,139,-441
0,5782578,199,-1875,-384,-1018,-555,-322,263,139,-441
0,5782585,199,-1875,-384,-1018,-555,-322,263,139,-441
0,5782591,196,-1872,-383,-1017,-566,-327,263,139,-441
0,5782597,196,-1872,-383,-1017,-566,-327,263,139,-441
0,5782603,196,-1872,-383,-1017,-566,-327,263,139,-441
0,5782609,196,-1872,-383,-1017,-566,-327,263,139,-441
0,5782614,200,-1876,-384,-1029,-560,-330,263,139,-441
0,5782619,200,-1876,-384,-1029,-560,-330,263,139,-441
0,5782627,200,-1876,-384,-1029,-560,-330,263,139,-441
0,5782633,199,-1872,-381,-1032,-561,-334,263,139,-441
0,5782641,199,-1872,-381,-1032,-561,-334,263,139,-441
0,5782648,199,-1872,-381,-1032,-561,-334,263,139,-441
0,5782657,199,-1873,-379,-1026,-567,-330,260,144,-450
0,5782663,199,-1873,-379,-1026,-567,-330,260,144,-450
0,5782671,199,-1873,-379,-1026,-567,-330,260,144,-450
0,5782677,199,-1876,-383,-1028,-562,-323,260,144,-450
0,5782683,199,-1876,-383,-1028,-562,-323,260,144,-450
0,5782694,198,-1876,-381,-1023,-569,-324,260,144,-450
0,5782703,198,-1876,-381,-1023,-569,-324,260,144,-450
0,5782715,201,-1872,-379,-1030,-571,-329,260,144,-450
0,5782730,201,-1872,-379,-1030,-571,-329,260,144,-450
0,5782740,202,-1874,-387,-1022,-564,-326,260,144,-450
0,5782752,201,-1872,-384,-1017,-566,-328,260,144,-450
0,5782765,201,-1872,-384,-1017,-566,-328,260,144,-450
0,5782780,201,-1872,-385,-1018,-563,-331,260,144,-450
0,5782793,198,-1872,-376,-1023,-563,-332,261,145,-447
0,5782803,198,-1872,-376,-1023,-563,-332,261,145,-447
0,5782816,201,-1871,-382,-1024,-565,-325,261,145,-447
0,5782830,201,-1871,-382,-1024,-565,-325,261,145,-447
0,5782840,202,-1876,-386,-1034,-562,-326,261,145,-447
0,5782851,204,-1873,-386,-1024,-560,-331,261,145,-447
0,5782863,204,-1873,-386,-1024,-560,-331,261,145,-447
0,5782877,199,-1876,-384,-1016,-561,-326,261,145,-447
0,5782886,199,-1876,-384,-1016,-561,-326,261,145,-447
0,5782900,203,-1875,-382,-1028,-562,-331,261,145,-447
0,5782913,202,-1872,-380,-1032,-568,-339,262,142,-444
0,5782921,202,-1872,-380,-1032,-568,-339,262,142,-444
0,5782934,201,-1872,-379,-1030,-568,-329,262,142,-444
0,5782948,201,-1872,-379,-1030,-568,-329,262,142,-444
0,5782960,200,-1877,-377,-1032,-570,-331,262,142,-444
0,5782973,204,-1874,-380,-1034,-576,-329,262,142,-444
0,5782980,204,-1874,-380,-1034,-576,-329,262,142,-444
0,5782988,204,-1874,-380,-1034,-576,-329,262,142,-444
0,5782996,203,-1876,-382,-1032,-571,-325,262,142,-444
0,5783005,203,-1876,-382,-1032,-571,-325,262,142,-444
0,5783014,200,-1872,-381,-1023,-564,-326,262,142,-444
0,5783022,200,-1872,-381,-1023,-564,-326,262,142,-444
0,5783029,200,-1872,-381,-1023,-564,-326,262,142,-444
0,5783037,202,-1874,-382,-1021,-563,-327,262,142,-444
0,5783046,202,-1874,-382,-1021,-563,-327,262,142,-444
0,5783054,201,-1874,-379,-1024,-568,-326,259,139,-445
0,5783062,201,-1874,-379,-1024,-568,-326,259,139,-445
0,5783071,200,-1874,-383,-1029,-567,-332,259,139,-445
0,5783079,200,-1874,-383,-1029,-567,-332,259,139,-445
0,5783088,200,-1874,-383,-1029,-567,-332,259,139,-445
0,5783096,201,-1875,-386,-1021,-561,-320,259,139,-445
0,5783104,201,-1875,-386,-1021,-561,-320,259,139,-445
0,5783112,198,-1876,-388,-1033,-569,-330,259,139,-445
0,5783120,198,-1876,-388,-1033,-569,-330,259,139,-445
0,5783130,198,-1876,-388,-1033,-569,-330,259,139,-445
0,5783139,202,-1876,-385,-1028,-561,-317,259,139,-445
0,5783147,202,-1876,-385,-1028,-561,-317,259,139,-445
0,5783155,200,-1874,-386,-1024,-562,-327,259,139,-445
0,5783164,200,-1874,-386,-1024,-562,-327,259,139,-445
0,5783173,200,-1873,-380,-1026,-566,-322,258,146,-440
0,5783182,200,-1873,-380,-1026,-566,-322,258,146,-440
0,5783192,199,-1872,-381,-1027,-568,-330,258,146,-440
0,5783201,199,-1872,-381,-1027,-568,-330,258,146,-440
0,5783211,199,-1872,-381,-1027,-568,-330,258,146,-440
0,5783220,198,-1871,-385,-1030,-565,-322,258,146,-440
0,5783230,198,-1871,-385,-1030,-565,-322,258,146,-440
0,5783241,203,-1878,-382,-1033,-566,-328,258,146,-440
0,5783254,199,-1873,-381,-1028,-570,-329,258,146,-440
0,5783267,199,-1873,-381,-1028,-570,-329,258,146,-440
0,5783278,200,-1874,-380,-1035,-573,-330,258,146,-440
0,5783291,200,-1874,-380,-1035,-573,-330,258,146,-440
0,5783304,200,-1874,-380,-1035,-573,-330,258,146,-440
0,5783317,198,-1870,-382,-1026,-567,-329,253,143,-441
0,5783329,198,-1870,-382,-1026,-567,-329,253,143,-441
0,5783340,202,-1874,-393,-1024,-570,-327,253,143,-441
0,5783352,201,-1872,-387,-1020,-574,-329,253,143,-441
0,5783365,201,-1872,-387,-1020,-574,-329,253,143,-441
0,5783379,202,-1873,-387,-1023,-567,-330,253,143,-441
0,5783389,202,-1873,-387,-1023,-567,-330,253,143,-441
0,5783402,202,-1874,-384,-1025,-560,-330,253,143,-441
0,5783415,198,-1870,-383,-1031,-565,-326,253,143,-441
0,5783429,198,-1870,-383,-1031,-565,-326,253,143,-441
0,5783439,198,-1871,-383,-1024,-572,-322,255,141,-447
0,5783452,200,-1874,-383,-1028,-566,-334,255,141,-447
0,5783465,200,-1874,-383,-1028,-566,-334,255,141,-447
0,5783479,198,-1875,-384,-1036,-566,-333,255,141,-447
0,5783490,198,-1875,-384,-1036,-566,-333,255,141,-447
0,5783503,198,-1875,-384,-1036,-566,-333,255,141,-447
0,5783516,199,-1876,-387,-1025,-570,-321,255,141,-447
0,5783528,199,-1876,-387,-1025,-570,-321,255,141,-447
0,5783540,203,-1874,-384,-1026,-566,-326,255,141,-447
0,5783548,203,-1874,-384,-1026,-566,-326,255,141,-447
0,5783558,199,-1874,-384,-1024,-570,-324,259,135,-443
0,5783565,199,-1874,-384,-1024,-570,-324,259,135,-443
0,5783575,199,-1874,-382,-1021,-572,-322,259,135,-443
0,5783587,199,-1874,-382,-1021,-572,-322,259,135,-443
0,5783602,199,-1874,-385,-1028,-560,-321,259,135,-443
0,5783613,201,-1875,-386,-1028,-568,-320,259,135,-443
0,5783624,201,-1875,-386,-1028,-568,-320,259,135,-443
0,5783635,198,-1876,-384,-1025,-565,-326,259,135,-443
0,5783651,198,-1876,-384,-1025,-565,-326,259,135,-443
0,5783659,200,-1874,-385,-1025,-562,-335,259,135,-443
0,5783670,200,-1874,-385,-1025,-562,-335,259,135,-443
0,5783685,200,-1875,-384,-1028,-563,-331,259,135,-443
0,5783697,201,-1875,-379,-1029,-565,-325,263,139,-451
0,5783703,201,-1875,-379,-1029,-565,-325,263,139,-451
0,5783709,201,-1875,-379,-1029,-565,-325,263,139,-451
0,5783714,200,-1875,-379,-1032,-566,-328,263,139,-451
0,5783719,200,-1875,-379,-1032,-566,-328,263,139,-451
0,5783725,200,-1875,-379,-1032,-566,-328,263,139,-451
0,5783733,199,-1876,-375,-1029,-570,-325,263,139,-451
0,5783738,199,-1876,-375,-1029,-570,-325,263,139,-451
0,5783745,199,-1876,-375,-1029,-570,-325,263,139,-451
0,5783752,200,-1873,-381,-1020,-564,-328,263,139,-451
0,5783758,200,-1873,-381,-1020,-564,-328,263,139,-451
0,5783767,200,-1873,-381,-1020,-564,-328,263,139,-451
0,5783775,200,-1879,-389,-1024,-568,-329,263,139,-451
0,5783781,200,-1879,-389,-1024,-568,-329,263,139,-451
0,5783789,200,-1879,-389,-1024,-568,-329,263,139,-451
0,5783796,201,-1875,-378,-1024,-564,-327,263,139,-451
0,5783802,201,-1875,-378,-1024,-564,-327,263,139,-451
0,5783810,201,-1875,-378,-1024,-564,-327,263,139,-451
0,5783817,201,-1873,-383,-1022,-563,-318,261,145,-451
0,5783824,201,-1873,-383,-1022,-563,-318,261,145,-451
0,5783830,201,-1873,-383,-1022,-563,-318,261,145,-451
0,5783837,199,-1877,-380,-1026,-570,-327,261,145,-451
0,5783846,199,-1877,-380,-1026,-570,-327,261,145,-451
0,5783853,200,-1875,-377,-1026,-562,-323,261,145,-451
0,5783859,200,-1875,-377,-1026,-562,-323,261,145,-451
0,5783866,200,-1875,-377,-1026,-562,-323,261,145,-451
0,5783874,200,-1873,-380,-1028,-568,-320,261,145,-451
0,5783881,200,-1873,-380,-1028,-568,-320,261,145,-451
0,5783888,200,-1873,-380,-1028,-568,-320,261,145,-451
0,5783897,199,-1875,-384,-1030,-562,-324,261,145,-451
0,5783903,199,-1875,-384,-1030,-562,-324,261,145,-451
0,5783910,199,-1875,-384,-1030,-562,-324,261,145,-451
0,5783918,202,-1872,-384,-1024,-568,-323,261,145,-451
0,5783923,202,-1872,-384,-1024,-568,-323,261,145,-451
0,5783932,197,-1875,-385,-1030,-564,-318,261,145,-451
0,5783940,197,-1875,-385,-1030,-564,-318,261,145,-451
0,5783948,197,-1875,-385,-1030,-564,-318,261,145,-451
0,5783955,198,-1871,-383,-1028,-569,-328,263,139,-443
0,5783963,198,-1871,-383,-1028,-569,-328,263,139,-443
0,5783969,198,-1871,-383,-1028,-569,-328,263,139,-443
0,5783975,202,-1873,-385,-1030,-568,-321,263,139,-443
0,5783981,202,-1873,-385,-1030,-568,-321,263,139,-443
0,5783986,202,-1873,-385,-1030,-568,-321,263,139,-443
0,5783991,202,-1873,-385,-1030,-568,-321,263,139,-443
0,5783996,199,-1872,-385,-1028,-570,-320,263,139,-443
0,5784001,199,-1872,-385,-1028,-570,-320,263,139,-443
0,5784007,199,-1872,-385,-1028,-570,-320,263,139,-443
0,5784014,200,-1874,-387,-1023,-571,-322,263,139,-443
0,5784022,200,-1874,-387,-1023,-571,-322,263,139,-443
0,5784031,200,-1874,-387,-1023,-571,-322,263,139,-443
0,5784039,198,-1873,-385,-1019,-574,-326,263,139,-443
0,5784046,198,-1873,-385,-1019,-574,-326,263,139,-443
0,5784053,201,-1874,-388,-1026,-562,-326,263,139,-443
0,5784060,201,-1874,-388,-1026,-562,-326,263,139,-443
0,5784067,201,-1874,-388,-1026,-562,-326,263,139,-443
0,5784074,201,-1872,-381,-1026,-558,-323,254,144,-450
0,5784082,201,-1872,-381,-1026,-558,-323,254,144,-450
0,5784089,201,-1872,-381,-1026,-558,-323,254,144,-450
0,5784096,202,-1875,-378,-1036,-562,-326,254,144,-450
0,5784103,202,-1875,-378,-1036,-562,-326,254,144,-450
0,5784112,202,-1875,-378,-1036,-562,-326,254,144,-450
0,5784118,200,-1876,-380,-1018,-564,-327,254,144,-450
0,5784125,200,-1876,-380,-1018,-564,-327,254,144,-450
0,5784132,200,-1876,-380,-1018,-564,-327,254,144,-450
0,5784140,200,-1875,-384,-1032,-565,-324,254,144,-450
0,5784148,200,-1875,-384,-1032,-565,-324,254,144,-450
0,5784155,200,-1875,-384,-1032,-565,-324,254,144,-450
0,5784160,200,-1875,-384,-1032,-565,-324,254,144,-450
0,5784166,200,-1875,-384,-1032,-565,-324,254,144,-450
0,5784173,201,-1872,-387,-1026,-565,-328,254,144,-450
0,5784181,201,-1872,-387,-1026,-565,-328,254,144,-450
0,5784188,201,-1872,-387,-1026,-565,-328,254,144,-450
0,5784195,199,-1874,-384,-1028,-563,-329,257,147,-451
0,5784203,199,-1874,-384,-1028,-563,-329,257,147,-451
0,5784209,199,-1874,-384,-1028,-563,-329,257,147,-451
0,5784216,199,-1873,-381,-1032,-575,-326,257,147,-451
0,5784223,199,-1873,-381,-1032,-575,-326,257,147,-451
0,5784229,199,-1873,-381,-1032,-575,-326,257,147,-451
0,5784236,199,-1876,-383,-1027,-574,-329,257,147,-451
0,5784241,199,-1876,-383,-1027,-574,-329,257,147,-451
0,5784248,199,-1876,-383,-1027,-574,-329,257,147,-451
0,5784256,199,-1874,-387,-1018,-571,-327,257,147,-451
0,5784263,199,-1874,-387,-1018,-571,-327,257,147,-451
0,5784269,199,-1874,-387,-1018,-571,-327,257,147,-451
0,5784275,199,-1873,-384,-1028,-563,-325,257,147,-451
0,5784283,199,-1873,-384,-1028,-563,-325,257,147,-451
0,5784291,199,-1873,-384,-1028,-563,-325,257,147,-451
0,5784299,199,-1874,-384,-1031,-563,-324,257,147,-451
0,5784306,199,-1874,-384,-1031,-563,-324,257,147,-451
0,5784313,202,-1874,-390,-1031,-564,-323,257,147,-451
0,5784320,202,-1874,-390,-1031,-564,-323,257,147,-451
0,5784328,202,-1874,-390,-1031,-564,-323,257,147,-451
0,5784335,199,-1871,-377,-1032,-570,-324,262,148,-452
0,5784342,199,-1871,-377,-1032,-570,-324,262,148,-452
0,5784350,199,-1871,-377,-1032,-570,-324,262,148,-452
0,5784358,200,-1875,-383,-1032,-572,-323,262,148,-452
0,5784367,200,-1875,-383,-1032,-572,-323,262,148,-452
0,5784373,200,-1873,-382,-1028,-567,-328,262,148,-452
0,5784381,200,-1873,-382,-1028,-567,-328,262,148,-452
0,5784388,200,-1873,-382,-1028,-567,-328,262,148,-452
0,5784395,202,-1876,-392,-1026,-569,-333,262,148,-452
0,5784402,202,-1876,-392,-1026,-569,-333,262,148,-452
0,5784410,202,-1876,-392,-1026,-569,-333,262,148,-452
0,5784417,197,-1874,-384,-1020,-568,-327,262,148,-452
0,5784424,197,-1874,-384,-1020,-568,-327,262,148,-452
0,5784431,197,-1874,-384,-1020,-568,-327,262,148,-452
0,5784438,200,-1875,-387,-1024,-565,-332,262,148,-452
0,5784446,200,-1875,-387,-1024,-565,-332,262,148,-452
0,5784454,199,-1871,-386,-1017,-563,-330,257,153,-445
0,5784460,199,-1871,-386,-1017,-563,-330,257,153,-445
0,5784467,199,-1871,-386,-1017,-563,-330,257,153,-445
0,5784475,199,-1874,-382,-1022,-562,-325,257,153,-445
0,5784482,199,-1874,-382,-1022,-562,-325,257,153,-445
0,5784488,199,-1874,-382,-1022,-562,-325,257,153,-445
0,5784494,198,-1871,-379,-1017,-555,-322,257,153,-445
0,5784501,198,-1871,-379,-1017,-555,-322,257,153,-445
0,5784509,198,-1871,-379,-1017,-555,-322,257,153,-445
0,5784517,199,-1873,-379,-1021,-566,-328,257,153,-445
0,5784524,199,-1873,-379,-1021,-566,-328,257,153,-445
0,5784531,199,-1873,-379,-1021,-566,-328,257,153,-445
0,5784539,199,-1878,-375,-1030,-565,-324,257,153,-445
0,5784544,199,-1878,-375,-1030,-565,-324,257,153,-445
0,5784548,199,-1878,-375,-1030,-565,-324,257,153,-445
0,5784553,200,-1874,-382,-1028,-570,-330,257,153,-445
0,5784558,200,-1874,-382,-1028,-570,-330,257,153,-445
0,5784564,200,-1874,-382,-1028,-570,-330,257,153,-445
0,5784570,200,-1874,-382,-1028,-570,-330,257,153,-445
0,5784577,198,-1873,-386,-1025,-568,-330,257,153,-445
0,5784585,198,-1873,-386,-1025,-568,-330,257,153,-445
0,5784592,198,-1873,-386,-1025,-568,-330,257,153,-445
0,5784599,199,-1875,-383,-1026,-569,-326,253,145,-447
0,5784606,199,-1875,-383,-1026,-569,-326,253,145,-447
0,5784613,202,-1874,-384,-1025,-568,-328,253,145,-447
0,5784620,202,-1874,-384,-1025,-568,-328,253,145,-447
0,5784626,202,-1874,-384,-1025,-568,-328,253,145,-447
0,5784635,200,-1871,-384,-1030,-564,-330,253,145,-447
0,5784641,200,-1871,-384,-1030,-564,-330,253,145,-447
0,5784648,200,-1871,-384,-1030,-564,-330,253,145,-447
0,5784655,200,-1876,-379,-1022,-567,-327,253,145,-447
0,5784663,200,-1876,-379,-1022,-567,-327,253,145,-447
0,5784670,200,-1876,-379,-1022,-567,-327,253,145,-447
0,5784677,200,-1874,-377,-1023,-571,-322,253,145,-447
0,5784685,200,-1874,-377,-1023,-571,-322,253,145,-447
0,5784692,200,-1874,-377,-1023,-571,-322,253,145,-447
0,5784698,196,-1872,-388,-1028,-569,-324,253,145,-447
0,5784712,196,-1872,-388,-1028,-569,-324,253,145,-447
0,5784725,197,-1872,-385,-1021,-566,-329,263,143,-443
0,5784737,199,-1871,-381,-1028,-566,-324,263,143,-443
0,5784752,199,-1871,-381,-1028,-566,-324,263,143,-443
0,5784762,198,-1876,-379,-1020,-571,-325,263,143,-443
0,5784776,198,-1874,-382,-1030,-569,-328,263,143,-443
0,5784787,198,-1874,-382,-1030,-569,-328,263,143,-443
0,5784799,199,-1875,-386,-1033,-570,-333,263,143,-443
0,5784812,199,-1875,-386,-1033,-570,-333,263,143,-443
0,5784826,197,-1872,-388,-1034,-567,-326,263,143,-443
0,5784838,199,-1874,-382,-1027,-565,-319,263,143,-443
0,5784847,199,-1874,-382,-1027,-565,-319,263,143,-443
0,5784855,199,-1874,-377,-1028,-562,-327,256,146,-440
0,5784862,199,-1874,-377,-1028,-562,-327,256,146,-440
0,5784870,199,-1874,-377,-1028,-562,-327,256,146,-440
0,5784882,200,-1875,-379,-1021,-565,-322,256,146,-440
0,5784894,200,-1873,-378,-1027,-563,-320,256,146,-440
0,5784907,200,-1873,-378,-1027,-563,-320,256,146,-440
0,5784918,200,-1871,-383,-1022,-559,-326,256,146,-440
0,5784929,200,-1871,-383,-1022,-559,-326,256,146,-440
0,5784940,199,-1871,-389,-1026,-557,-323,256,146,-440
0,5784952,199,-1871,-389,-1026,-557,-323,256,146,-440
0,5784966,198,-1872,-387,-1029,-567,-328,256,146,-440
0,5784977,198,-1875,-386,-1028,-570,-323,268,146,-446
0,5784986,198,-1875,-386,-1028,-570,-323,268,146,-446
0,5784994,198,-1874,-378,-1028,-566,-324,268,146,-446
0,5785003,198,-1874,-378,-1028,-566,-324,268,146,-446
0,5785011,198,-1874,-378,-1028,-566,-324,268,146,-446
0,5785018,199,-1875,-377,-1019,-565,-319,268,146,-446
0,5785026,199,-1875,-377,-1019,-565,-319,268,146,-446
0,5785034,199,-1875,-377,-1019,-565,-319,268,146,-446
0,5785042,199,-1875,-377,-1019,-565,-319,268,146,-446
0,5785051,199,-1875,-377,-1019,-565,-319,268,146,-446
0,5785059,195,-1872,-381,-1020,-567,-329,268,146,-446
0,5785067,195,-1872,-381,-1020,-567,-329,268,146,-446
0,5785075,201,-1875,-385,-1027,-560,-330,268,146,-446
0,5785083,201,-1875,-385,-1027,-560,-330,268,146,-446
0,5785092,201,-1875,-385,-1027,-560,-330,268,146,-446
0,5785104,201,-1874,-383,-1017,-565,-323,250,146,-454
0,5785116,201,-1873,-375,-1019,-562,-326,250,146,-454
0,5785129,201,-1873,-375,-1019,-562,-326,250,146,-454
0,5785143,203,-1873,-378,-1018,-558,-315,250,146,-454
0,5785155,199,-1877,-378,-1022,-563,-322,250,146,-454
0,5785166,199,-1877,-378,-1022,-563,-322,250,146,-454
0,5785179,199,-1872,-387,-1033,-567,-317,250,146,-454
0,5785191,199,-1872,-387,-1033,-567,-317,250,146,-454
0,5785200,198,-1876,-386,-1029,-563,-324,250,146,-454
0,5785212,198,-1876,-386,-1029,-563,-324,250,146,-454
0,5785226,202,-1874,-385,-1024,-564,-326,250,146,-454
0,5785239,198,-1873,-389,-1025,-567,-334,260,142,-448
0,5785249,198,-1873,-389,-1025,-567,-334,260,142,-448
0,5785262,200,-1875,-384,-1024,-566,-333,260,142,-448
0,5785275,201,-1875,-383,-1022,-565,-326,260,142,-448
0,5785288,201,-1875,-383,-1022,-565,-326,260,142,-448
0,5785299,201,-1873,-387,-1017,-562,-319,260,142,-448
0,5785312,201,-1873,-387,-1017,-562,-319,260,142,-448
0,5785326,201,-1878,-382,-1017,-556,-325,260,142,-448
0,5785339,200,-1873,-380,-1021,-558,-320,260,142,-448
0,5785350,200,-1873,-380,-1021,-558,-320,260,142,-448
0,5785361,202,-1873,-378,-1017,-562,-319,263,141,-445
0,5785374,202,-1873,-378,-1017,-562,-319,263,141,-445
0,5785388,198,-1875,-383,-1025,-569,-319,263,141,-445
0,5785400,198,-1875,-383,-1025,-569,-319,263,141,-445
0,5785413,198,-1875,-383,-1025,-569,-319,263,141,-445
0,5785424,199,-1876,-388,-1022,-562,-328,263,141,-445
0,5785439,202,-1875,-393,-1021,-565,-319,263,141,-445
0,5785450,202,-1875,-393,-1021,-565,-319,263,141,-445
0,5785463,199,-1874,-384,-1026,-572,-320,263,141,-445
0,5785476,200,-1874,-388,-1026,-574,-318,263,141,-445
0,5785484,200,-1874,-388,-1026,-574,-318,263,141,-445
0,5785492,200,-1874,-388,-1026,-574,-318,263,141,-445
0,5785499,198,-1872,-379,-1027,-566,-323,261,141,-443
0,5785508,198,-1872,-379,-1027,-566,-323,261,141,-443
0,5785518,199,-1871,-376,-1027,-567,-328,261,141,-443
0,5785530,199,-1871,-376,-1027,-567,-328,261,141,-443
0,5785540,200,-1873,-386,-1022,-561,-324,261,141,-443
0,5785548,200,-1873,-386,-1022,-561,-324,261,141,-443
0,5785556,199,-1876,-380,-1023,-569,-323,261,141,-443
0,5785565,199,-1876,-380,-1023,-569,-323,261,141,-443
0,5785576,201,-1875,-390,-1019,-566,-325,261,141,-443
0,5785587,201,-1875,-390,-1019,-566,-325,261,141,-443
0,5785601,201,-1875,-390,-1019,-566,-325,261,141,-443
0,5785614,200,-1878,-382,-1034,-566,-319,261,141,-443
0,5785626,200,-1878,-382,-1034,-566,-319,259,145,-447
0,5785635,196,-1874,-381,-1032,-564,-323,259,145,-447
0,5785648,196,-1874,-381,-1032,-564,-323,259,145,-447
0,5785660,197,-1875,-379,-1025,-564,-323,259,145,-447
0,5785673,197,-1875,-379,-1025,-564,-323,259,145,-447
0,5785683,200,-1875,-385,-1027,-558,-327,259,145,-447
0,5785698,198,-1876,-382,-1017,-566,-325,259,145,-447
0,5785710,198,-1876,-382,-1017,-566,-325,259,145,-447
0,5785718,195,-1875,-383,-1026,-567,-326,259,145,-447
0,5785725,195,-1875,-383,-1026,-567,-326,259,145,-447
0,5785733,195,-1875,-383,-1026,-567,-326,259,145,-447
0,5785741,200,-1875,-378,-1029,-561,-326,251,143,-447
0,5785748,200,-1875,-378,-1029,-561,-326,251,143,-447
0,5785756,200,-1878,-381,-1025,-560,-328,251,143,-447
0,5785761,200,-1878,-381,-1025,-560,-328,251,143,-447
0,5785769,200,-1878,-381,-1025,-560,-328,251,143,-447
0,5785776,200,-1871,-384,-1030,-571,-322,251,143,-447
0,5785784,200,-1871,-384,-1030,-571,-322,251,143,-447
0,5785791,200,-1871,-384,-1030,-571,-322,251,143,-447
0,5785797,200,-1877,-387,-1030,-569,-321,251,143,-447
0,5785803,200,-1877,-387,-1030,-569,-321,251,143,-447
0,5785811,200,-1877,-387,-1030,-569,-321,251,143,-447
0,5785819,202,-1875,-383,-1023,-563,-325,251,143,-447
0,5785826,202,-1875,-383,-1023,-563,-325,251,143,-447
0,5785832,202,-1875,-383,-1023,-563,-325,251,143,-447
0,5785840,199,-1876,-381,-1023,-558,-327,251,143,-447
0,5785847,199,-1876,-381,-1023,-558,-327,251,143,-447
0,5785852,199,-1876,-381,-1023,-558,-327,251,143,-447
0,5785861,200,-1876,-387,-1020,-568,-326,251,143,-447
0,5785868,200,-1876,-387,-1020,-568,-326,251,143,-447
0,5785875,201,-1872,-382,-1021,-569,-326,255,147,-445
0,5785882,201,-1872,-382,-1021,-569,-326,255,147,-445
0,5785890,201,-1872,-382,-1021,-569,-326,255,147,-445
0,5785896,201,-1877,-388,-1024,-567,-332,255,147,-445
0,5785903,201,-1877,-388,-1024,-567,-332,255,147,-445
0,5785910,201,-1877,-388,-1024,-567,-332,255,147,-445
0,5785917,198,-1874,-380,-1028,-568,-331,255,147,-445
0,5785923,198,-1874,-380,-1028,-568,-331,255,147,-445
0,5785930,198,-1874,-380,-1028,-568,-331,255,147,-445
0,5785937,199,-1874,-390,-1019,-567,-330,255,147,-445
0,5785945,199,-1874,-390,-1019,-567,-330,255,147,-445
0,5785951,199,-1874,-390,-1019,-567,-330,255,147,-445
0,5785958,199,-1875,-384,-1025,-566,-329,255,147,-445
0,5785967,199,-1875,-384,-1025,-566,-329,255,147,-445
0,5785974,200,-1874,-382,-1024,-563,-327,255,147,-445
0,5785980,200,-1874,-382,-1024,-563,-327,255,147,-445
0,5785986,200,-1874,-382,-1024,-563,-327,255,147,-445
0,5785991,200,-1874,-382,-1024,-563,-327,255,147,-445
0,5785996,197,-1875,-383,-1032,-570,-329,260,148,-448
0,5786001,197,-1875,-383,-1032,-570,-329,260,148,-448
0,5786006,197,-1875,-383,-1032,-570,-329,260,148,-448
0,5786012,197,-1875,-383,-1032,-570,-329,260,148,-448
0,5786017,199,-1875,-380,-1029,-563,-319,260,148,-448
0,5786025,199,-1875,-380,-1029,-563,-319,260,148,-448
0,5786034,199,-1875,-380,-1029,-563,-319,260,148,-448
0,5786039,200,-1874,-382,-1024,-562,-326,260,148,-448
0,5786044,200,-1874,-382,-1024,-562,-326,260,148,-448
0,5786049,200,-1874,-382,-1024,-562,-326,260,148,-448
0,5786057,196,-1871,-379,-1019,-566,-325,260,148,-448
0,5786063,196,-1871,-379,-1019,-566,-325,260,148,-448
0,5786068,196,-1871,-379,-1019,-566,-325,260,148,-448
0,5786077,197,-1874,-383,-1030,-557,-317,260,148,-448
0,5786084,197,-1874,-383,-1030,-557,-317,260,148,-448
0,5786091,197,-1874,-383,-1030,-557,-317,260,148,-448
0,5786097,201,-1874,-388,-1034,-560,-323,260,148,-448
0,5786103,201,-1874,-388,-1034,-560,-323,260,148,-448
0,5786110,201,-1874,-388,-1034,-560,-323,260,148,-448
0,5786117,199,-1879,-382,-1031,-567,-316,260,148,-448
0,5786122,199,-1879,-382,-1031,-567,-316,260,148,-448
0,5786130,199,-1879,-382,-1031,-567,-316,260,148,-448
0,5786137,198,-1876,-382,-1031,-566,-318,254,144,-442
0,5786144,198,-1876,-382,-1031,-566,-318,254,144,-442
0,5786152,198,-1876,-382,-1031,-566,-318,254,144,-442
0,5786160,198,-1876,-382,-1031,-566,-318,254,144,-442
0,5786166,198,-1876,-382,-1031,-566,-318,254,144,-442
0,5786172,198,-1876,-382,-1031,-566,-318,254,144,-442
0,5786179,199,-1875,-383,-1023,-566,-320,254,144,-442
0,5786185,199,-1875,-383,-1023,-566,-320,254,144,-442
0,5786193,199,-1875,-383,-1023,-566,-320,254,144,-442
0,5786202,198,-1874,-386,-1022,-559,-316,254,144,-442
0,5786208,198,-1874,-386,-1022,-559,-316,254,144,-442
0,5786214,198,-1874,-386,-1022,-559,-316,254,144,-442
0,5786221,197,-1874,-385,-1024,-561,-318,254,144,-442
0,5786228,197,-1874,-385,-1024,-561,-318,254,144,-442
0,5786235,197,-1874,-385,-1024,-561,-318,254,144,-442
0,5786243,199,-1876,-387,-1022,-569,-324,254,144,-442
0,5786250,199,-1876,-387,-1022,-569,-324,254,144,-442
0,5786257,200,-1876,-377,-1023,-561,-324,255,143,-445
0,5786263,200,-1876,-377,-1023,-561,-324,255,143,-445
0,5786270,200,-1876,-377,-1023,-561,-324,255,143,-445
0,5786277,197,-1874,-377,-1030,-563,-325,255,143,-445
0,5786284,197,-1874,-377,-1030,-563,-325,255,143,-445
0,5786289,197,-1874,-377,-1030,-563,-325,255,143,-445
0,5786296,201,-1874,-381,-1023,-568,-325,255,143,-445
0,5786303,201,-1874,-381,-1023,-568,-325,255,143,-445
0,5786310,201,-1874,-381,-1023,-568,-325,255,143,-445
0,5786318,201,-1874,-385,-1033,-565,-332,255,143,-445
0,5786326,201,-1874,-385,-1033,-565,-332,255,143,-445
0,5786332,201,-1874,-385,-1033,-565,-332,255,143,-445
0,5786339,200,-1876,-388,-1034,-575,-328,255,143,-445
0,5786346,200,-1876,-388,-1034,-575,-328,255,143,-445
0,5786352,200,-1876,-388,-1034,-575,-328,255,143,-445
0,5786361,200,-1874,-379,-1028,-569,-329,255,143,-445
0,5786369,200,-1874,-379,-1028,-569,-329,255,143,-445
0,5786376,198,-1873,-382,-1030,-566,-325,255,143,-445
0,5786383,198,-1873,-382,-1030,-566,-325,255,143,-445
0,5786390,198,-1873,-382,-1030,-566,-325,255,143,-445
0,5786397,200,-1873,-384,-1023,-572,-329,269,147,-445
0,5786403,200,-1873,-384,-1023,-572,-329,269,147,-445
0,5786411,200,-1873,-384,-1023,-572,-329,269,147,-445
0,5786419,199,-1876,-386,-1026,-567,-327,269,147,-445
0,5786426,199,-1876,-386,-1026,-567,-327,269,147,-445
0,5786432,199,-1876,-386,-1026,-567,-327,269,147,-445
0,5786439,201,-1874,-382,-1026,-564,-327,269,147,-445
0,5786446,201,-1874,-382,-1026,-564,-327,269,147,-445
0,5786454,201,-1874,-382,-1026,-564,-327,269,147,-445
0,5786461,200,-1872,-388,-1026,-571,-325,269,147,-445
0,5786468,200,-1872,-388,-1026,-571,-325,269,147,-445
0,5786476,201,-1875,-385,-1022,-565,-326,269,147,-445
0,5786483,201,-1875,-385,-1022,-565,-326,269,147,-445
0,5786488,201,-1875,-385,-1022,-565,-326,269,147,-445
0,5786494,201,-1875,-385,-1022,-565,-326,269,147,-445
0,5786501,202,-1875,-383,-1026,-565,-321,269,147,-445
0,5786508,202,-1875,-383,-1026,-565,-321,269,147,-445
0,5786514,202,-1875,-383,-1026,-565,-321,269,147,-445
0,5786520,201,-1876,-382,-1023,-569,-327,257,141,-443
0,5786528,201,-1876,-382,-1023,-569,-327,257,141,-443
0,5786536,202,-1874,-380,-1022,-569,-329,257,141,-443
0,5786542,202,-1874,-380,-1022,-569,-329,257,141,-443
0,5786547,202,-1874,-380,-1022,-569,-329,257,141,-443
0,5786551,202,-1874,-380,-1022,-569,-329,257,141,-443
0,5786556,197,-1873,-384,-1028,-561,-332,257,141,-443
0,5786561,197,-1873,-384,-1028,-561,-332,257,141,-443
0,5786566,197,-1873,-384,-1028,-561,-332,257,141,-443
0,5786574,197,-1873,-384,-1028,-561,-332,257,141,-443
0,5786582,200,-1874,-380,-1027,-568,-326,257,141,-443
0,5786589,200,-1874,-380,-1027,-568,-326,257,141,-443
0,5786597,201,-1875,-386,-1019,-566,-320,257,141,-443
0,5786603,201,-1875,-386,-1019,-566,-320,257,141,-443
0,5786609,201,-1875,-386,-1019,-566,-320,257,141,-443
0,5786615,201,-1875,-386,-1019,-566,-320,257,141,-443
0,5786620,200,-1875,-392,-1023,-563,-333,257,141,-443
0,5786628,200,-1875,-392,-1023,-563,-333,257,141,-443
0,5786635,200,-1875,-392,-1023,-563,-333,257,141,-443
0,5786642,200,-1874,-387,-1025,-566,-330,249,147,-445
0,5786650,200,-1874,-387,-1025,-566,-330,249,147,-445
0,5786656,198,-1873,-376,-1026,-564,-326,249,147,-445
0,5786663,198,-1873,-376,-1026,-564,-326,249,147,-445
0,5786671,198,-1873,-376,-1026,-564,-326,249,147,-445
0,5786679,198,-1879,-380,-1028,-566,-327,249,147,-445
0,5786686,198,-1879,-380,-1028,-566,-327,249,147,-445
0,5786692,198,-1879,-380,-1028,-566,-327,249,147,-445
0,5786700,195,-1877,-384,-1020,-564,-323,249,147,-445
0,5786707,195,-1877,-384,-1020,-564,-323,249,147,-445
0,5786715,195,-1877,-384,-1020,-564,-323,249,147,-445
0,5786726,202,-1875,-379,-1025,-562,-322,249,147,-445
0,5786739,198,-1875,-384,-1030,-571,-322,249,147,-445
0,5786752,198,-1875,-384,-1030,-571,-322,249,147,-445
0,5786765,203,-1874,-380,-1034,-568,-327,249,147,-445
0,5786778,198,-1873,-376,-1027,-563,-328,252,148,-446
0,5786790,198,-1873,-376,-1027,-563,-328,252,148,-446
0,5786802,199,-1877,-381,-1028,-570,-326,252,148,-446
0,5786812,199,-1877,-381,-1028,-570,-326,252,148,-446
0,5786821,200,-1875,-387,-1029,-572,-324,252,148,-446
0,5786834,200,-1875,-387,-1029,-572,-324,252,148,-446
0,5786848,201,-1874,-386,-1032,-572,-326,252,148,-446
0,5786858,201,-1876,-385,-1030,-566,-334,252,148,-446
0,5786870,201,-1876,-385,-1030,-566,-334,252,148,-446
0,5786883,201,-1873,-384,-1020,-557,-335,252,148,-446
0,5786895,201,-1873,-384,-1020,-557,-335,252,148,-446
0,5786907,201,-1872,-384,-1014,-564,-325,258,140,-438
0,5786919,199,-1876,-382,-1025,-566,-322,258,140,-438
0,5786934,199,-1876,-382,-1025,-566,-322,258,140,-438
0,5786946,198,-1874,-381,-1023,-562,-316,258,140,-438
0,5786957,198,-1873,-379,-1023,-572,-321,258,140,-438
0,5786971,198,-1873,-379,-1023,-572,-321,258,140,-438
0,5786980,200,-1875,-383,-1025,-566,-314,258,140,-438
0,5786988,200,-1875,-383,-1025,-566,-314,258,140,-438
0,5786996,200,-1872,-382,-1023,-565,-325,258,140,-438
0,5787003,200,-1872,-382,-1023,-565,-325,258,140,-438
0,5787013,200,-1872,-382,-1023,-565,-325,258,140,-438
0,5787021,200,-1875,-381,-1031,-571,-331,258,140,-438
0,5787029,200,-1875,-381,-1031,-571,-331,258,140,-438
0,5787036,199,-1872,-381,-1035,-568,-328,260,148,-442
0,5787044,199,-1872,-381,-1035,-568,-328,260,148,-442
0,5787053,199,-1872,-381,-1035,-568,-328,260,148,-442
0,5787061,200,-1873,-380,-1030,-565,-327,260,148,-442
0,5787069,200,-1873,-380,-1030,-565,-327,260,148,-442
0,5787077,201,-1876,-383,-1023,-566,-317,260,148,-442
0,5787085,201,-1876,-383,-1023,-566,-317,260,148,-442
0,5787094,201,-1876,-383,-1023,-566,-317,260,148,-442
0,5787102,200,-1876,-389,-1028,-569,-319,260,148,-442
0,5787111,200,-1876,-389,-1028,-569,-319,260,148,-442
0,5787120,199,-1872,-388,-1021,-566,-323,260,148,-442
0,5787129,199,-1872,-388,-1021,-566,-323,260,148,-442
0,5787138,198,-1874,-385,-1024,-569,-325,260,148,-442
0,5787146,198,-1874,-385,-1024,-569,-325,260,148,-442
0,5787153,198,-1874,-385,-1024,-569,-325,260,148,-442
0,5787161,198,-1875,-381,-1026,-566,-324,256,138,-450
0,5787170,198,-1875,-381,-1026,-566,-324,256,138,-450
0,5787180,198,-1873,-376,-1027,-566,-328,256,138,-450
0,5787191,198,-1873,-376,-1027,-566,-328,256,138,-450
0,5787205,202,-1873,-381,-1030,-567,-326,256,138,-450
0,5787219,200,-1873,-386,-1018,-562,-318,256,138,-450
0,5787228,200,-1873,-386,-1018,-562,-318,256,138,-450
0,5787241,203,-1874,-380,-1023,-571,-328,256,138,-450
0,5787255,203,-1874,-380,-1023,-571,-328,256,138,-450
0,5787269,200,-1872,-386,-1023,-570,-331,256,138,-450
0,5787278,202,-1874,-381,-1031,-573,-328,256,138,-450
0,5787290,202,-1874,-381,-1031,-573,-328,256,138,-450
0,5787302,200,-1872,-383,-1024,-569,-331,268,146,-444
0,5787316,200,-1872,-383,-1024,-569,-331,268,146,-444
0,5787327,203,-1873,-383,-1020,-566,-331,268,146,-444
0,5787341,200,-1874,-390,-1026,-564,-326,268,146,-444
0,5787354,200,-1874,-390,-1026,-564,-326,268,146,-444
0,5787366,201,-1871,-380,-1027,-557,-326,268,146,-444
0,5787379,197,-1874,-390,-1027,-558,-322,268,146,-444
0,5787393,197,-1874,-390,-1027,-558,-322,268,146,-444
0,5787404,200,-1874,-383,-1016,-557,-321,268,146,-444
0,5787418,202,-1873,-381,-1019,-568,-329,261,143,-441
0,5787430,202,-1873,-381,-1019,-568,-329,261,143,-441
0,5787444,198,-1875,-381,-1025,-575,-318,261,143,-441
0,5787457,203,-1876,-380,-1027,-563,-320,261,143,-441
0,5787470,203,-1876,-380,-1027,-563,-320,261,143,-441
0,5787484,202,-1877,-384,-1029,-568,-330,261,143,-441
0,5787494,202,-1877,-384,-1029,-568,-330,261,143,-441
0,5787506,202,-1874,-380,-1018,-567,-321,261,143,-441
0,5787518,200,-1875,-382,-1022,-570,-322,261,143,-441
0,5787532,200,-1875,-382,-1022,-570,-322,261,143,-441
0,5787541,198,-1875,-379,-1022,-574,-321,267,147,-443
0,5787549,198,-1875,-379,-1022,-574,-321,267,147,-443
0,5787556,198,-1875,-379,-1022,-574,-321,267,147,-443
0,5787566,198,-1875,-379,-1022,-574,-321,267,147,-443
0,5787575,198,-1875,-379,-1022,-574,-321,267,147,-443
0,5787590,200,-1876,-380,-1029,-567,-331,267,147,-443
0,5787603,201,-1876,-382,-1032,-568,-327,267,147,-443
0,5787613,201,-1876,-382,-1032,-568,-327,267,147,-443
0,5787625,197,-1874,-385,-1033,-570,-327,267,147,-443
0,5787639,199,-1876,-385,-1036,-565,-320,267,147,-443
0,5787654,199,-1876,-385,-1036,-565,-320,267,147,-443
0,5787663,198,-1875,-384,-1026,-565,-327,267,147,-443
0,5787675,198,-1875,-384,-1026,-565,-327,267,147,-443
0,5787688,203,-1872,-381,-1030,-565,-327,256,144,-446
0,5787702,198,-1872,-390,-1027,-566,-330,256,144,-446
0,5787711,198,-1872,-390,-1027,-566,-330,256,144,-446
0,5787724,199,-1873,-385,-1025,-566,-330,256,144,-446
0,5787730,199,-1873,-385,-1025,-566,-330,256,144,-446
0,5787739,200,-1872,-384,-1021,-561,-323,256,144,-446
0,5787746,200,-1872,-384,-1021,-561,-323,256,144,-446
0,5787752,200,-1872,-384,-1021,-561,-323,256,144,-446
0,5787759,201,-1875,-383,-1015,-563,-321,256,144,-446
0,5787765,201,-1875,-383,-1015,-563,-321,256,144,-446
0,5787770,201,-1875,-383,-1015,-563,-321,256,144,-446
0,5787774,201,-1875,-383,-1015,-563,-321,256,144,-446
0,5787782,201,-1874,-385,-1015,-560,-323,256,144,-446
0,5787790,201,-1874,-385,-1015,-560,-323,256,144,-446
0,5787796,201,-1874,-385,-1015,-560,-323,256,144,-446
0,5787803,202,-1873,-381,-1017,-562,-323,254,142,-444
0,5787810,202,-1873,-381,-1017,-562,-323,254,142,-444
0,5787816,202,-1873,-381,-1017,-562,-323,254,142,-444
0,5787822,201,-1875,-378,-1026,-563,-326,254,142,-444
0,5787828,201,-1875,-378,-1026,-563,-326,254,142,-444
0,5787836,201,-1875,-378,-1026,-563,-326,254,142,-444
0,5787842,199,-1876,-379,-1037,-571,-320,254,142,-444
0,5787848,199,-1876,-379,-1037,-571,-320,254,142,-444
0,5787855,199,-1876,-379,-1037,-571,-320,254,142,-444
0,5787863,201,-1873,-379,-1032,-573,-330,254,142,-444
0,5787870,201,-1873,-379,-1032,-573,-330,254,142,-444
0,5787876,201,-1873,-379,-1032,-573,-330,254,142,-444
0,5787884,200,-1872,-388,-1026,-560,-328,254,142,-444
0,5787891,200,-1872,-388,-1026,-560,-328,254,142,-444
0,5787897,200,-1876,-392,-1023,-559,-325,254,142,-444
0,5787905,200,-1876,-392,-1023,-559,-325,254,142,-444
0,5787913,200,-1876,-392,-1023,-559,-325,254,142,-444
0,5787920,198,-1874,-383,-1024,-570,-328,254,142,-444
0,5787926,198,-1874,-383,-1024,-570,-328,254,142,-444
0,5787933,198,-1874,-383,-1024,-570,-328,254,142,-444
0,5787940,200,-1876,-380,-1024,-570,-333,255,141,-445
0,5787948,200,-1876,-380,-1024,-570,-333,255,141,-445
0,5787954,200,-1876,-380,-1024,-570,-333,255,141,-445
0,5787962,200,-1875,-388,-1021,-571,-322,255,141,-445
0,5787969,200,-1875,-388,-1021,-571,-322,255,141,-445
0,5787976,200,-1875,-388,-1021,-571,-322,255,141,-445
0,5787981,199,-1871,-391,-1018,-563,-317,255,141,-445
0,5787986,199,-1871,-391,-1018,-563,-317,255,141,-445
0,5787992,199,-1871,-391,-1018,-563,-317,255,141,-445
0,5787997,199,-1871,-391,-1018,-563,-317,255,141,-445
0,5788002,198,-1876,-386,-1017,-558,-324,255,141,-445
0,5788007,198,-1876,-386,-1017,-558,-324,255,141,-445
0,5788015,198,-1876,-386,-1017,-558,-324,255,141,-445
0,5788021,200,-1871,-388,-1032,-568,-334,255,141,-445
0,5788027,200,-1871,-388,-1032,-568,-334,255,141,-445
0,5788035,200,-1871,-388,-1032,-568,-334,255,141,-445
0,5788041,202,-1875,-379,-1031,-564,-330,255,141,-445
0,5788048,202,-1875,-379,-1031,-564,-330,255,141,-445
0,5788054,202,-1875,-379,-1031,-564,-330,255,141,-445
0,5788060,199,-1873,-379,-1023,-567,-326,259,149,-439
0,5788068,199,-1873,-379,-1023,-567,-326,259,149,-439
0,5788076,199,-1873,-379,-1023,-567,-326,259,149,-439
0,5788083,200,-1874,-386,-1022,-568,-326,259,149,-439
0,5788089,200,-1874,-386,-1022,-568,-326,259,149,-439
0,5788097,198,-1875,-383,-1027,-571,-321,259,149,-439
0,5788103,198,-1875,-383,-1027,-571,-321,259,149,-439
0,5788111,198,-1875,-383,-1027,-571,-321,259,149,-439
0,5788120,200,-1874,-383,-1020,-563,-323,259,149,-439
0,5788126,200,-1874,-383,-1020,-563,-323,259,149,-439
0,5788131,200,-1874,-383,-1020,-563,-323,259,149,-439
0,5788139,199,-1874,-385,-1033,-558,-322,259,149,-439
0,5788145,199,-1874,-385,-1033,-558,-322,259,149,-439
0,5788152,199,-1874,-385,-1033,-558,-322,259,149,-439
0,5788160,199,-1872,-383,-1036,-559,-328,259,149,-439
0,5788166,199,-1872,-383,-1036,-559,-328,259,149,-439
0,5788173,199,-1872,-383,-1036,-559,-328,259,149,-439
0,5788181,201,-1874,-386,-1027,-562,-324,259,149,-439
0,5788187,201,-1874,-386,-1027,-562,-324,259,149,-439
0,5788195,201,-1874,-386,-1027,-562,-324,259,149,-439
0,5788204,201,-1872,-384,-1025,-562,-319,259,149,-439
0,5788212,201,-1872,-384,-1025,-562,-319,259,149,-439
0,5788220,196,-1873,-378,-1033,-565,-322,259,149,-439
0,5788228,196,-1873,-378,-1033,-565,-322,259,149,-439
0,5788234,196,-1873,-378,-1033,-565,-322,259,149,-439
0,5788241,200,-1873,-384,-1035,-568,-327,259,149,-439
0,5788247,200,-1873,-384,-1035,-568,-327,259,149,-439
0,5788255,200,-1873,-384,-1035,-568,-327,259,149,-439
0,5788262,202,-1874,-382,-1023,-561,-330,259,149,-439
0,5788268,202,-1874,-382,-1023,-561,-330,259,149,-439
0,5788273,202,-1874,-382,-1023,-561,-330,259,149,-439
0,5788278,198,-1875,-376,-1019,-566,-324,259,149,-439
0,5788285,198,-1875,-376,-1019,-566,-324,259,149,-439
0,5788293,198,-1875,-376,-1019,-566,-324,259,149,-439
0,5788299,201,-1875,-386,-1030,-568,-327,259,149,-439
0,5788306,201,-1875,-386,-1030,-568,-327,259,149,-439
0,5788312,201,-1875,-386,-1030,-568,-327,259,149,-439
0,5788319,202,-1873,-381,-1026,-563,-319,259,147,-443
0,5788326,202,-1873,-381,-1026,-563,-319,259,147,-443
0,5788334,202,-1873,-381,-1026,-563,-319,259,147,-443
0,5788341,195,-1873,-376,-1031,-561,-323,259,147,-443
0,5788348,195,-1873,-376,-1031,-561,-323,259,147,-443
0,5788356,195,-1873,-376,-1031,-561,-323,259,147,-443
0,5788363,200,-1876,-385,-1023,-566,-326,259,147,-443
0,5788369,200,-1876,-385,-1023,-566,-326,259,147,-443
0,5788378,204,-1874,-387,-1024,-568,-330,259,147,-443
0,5788384,204,-1874,-387,-1024,-568,-330,259,147,-443
0,5788392,204,-1874,-387,-1024,-568,-330,259,147,-443
0,5788400,199,-1874,-383,-1030,-559,-328,259,147,-443
0,5788407,199,-1874,-383,-1030,-559,-328,259,147,-443
0,5788413,199,-1874,-383,-1030,-559,-328,259,147,-443
0,5788421,198,-1872,-387,-1027,-567,-327,259,147,-443
0,5788428,198,-1872,-387,-1027,-567,-327,259,147,-443
0,5788435,198,-1872,-387,-1027,-567,-327,259,147,-443
0,5788442,202,-1872,-382,-1032,-569,-328,259,137,-447
0,5788449,202,-1872,-382,-1032,-569,-328,259,137,-447
0,5788455,202,-1872,-382,-1032,-569,-328,259,137,-447
0,5788463,200,-1875,-382,-1030,-569,-325,259,137,-447
0,5788472,200,-1875,-382,-1030,-569,-325,259,137,-447
0,5788479,201,-1878,-378,-1025,-564,-323,259,137,-447
0,5788484,201,-1878,-378,-1025,-564,-323,259,137,-447
0,5788490,201,-1878,-378,-1025,-564,-323,259,137,-447
0,5788497,201,-1878,-378,-1025,-564,-323,259,137,-447
0,5788504,199,-1874,-383,-1024,-563,-324,259,137,-447
0,5788511,199,-1874,-383,-1024,-563,-324,259,137,-447
0,5788517,199,-1874,-383,-1024,-563,-324,259,137,-447
0,5788524,198,-1873,-385,-1034,-568,-330,259,137,-447
0,5788531,198,-1873,-385,-1034,-568,-330,259,137,-447
0,5788538,199,-1875,-380,-1028,-568,-321,259,137,-447
0,5788544,199,-1875,-380,-1028,-568,-321,259,137,-447
0,5788549,199,-1875,-380,-1028,-568,-321,259,137,-447
0,5788555,199,-1875,-380,-1028,-568,-321,259,137,-447
0,5788559,197,-1876,-388,-1024,-563,-325,259,137,-447
0,5788565,197,-1876,-388,-1024,-563,-325,259,137,-447
0,5788570,197,-1876,-388,-1024,-563,-325,259,137,-447
0,5788578,198,-1873,-381,-1028,-569,-324,259,137,-447
0,5788584,198,-1873,-381,-1028,-569,-324,254,140,-456
0,5788592,198,-1873,-381,-1028,-569,-324,254,140,-456
0,5788598,201,-1875,-384,-1029,-564,-330,254,140,-456
0,5788606,201,-1875,-384,-1029,-564,-330,254,140,-456
0,5788614,201,-1875,-384,-1029,-564,-330,254,140,-456
0,5788621,202,-1873,-382,-1031,-565,-329,254,140,-456
0,5788628,202,-1873,-382,-1031,-565,-329,254,140,-456
0,5788636,202,-1873,-382,-1031,-565,-329,254,140,-456
0,5788643,200,-1874,-384,-1035,-569,-330,254,140,-456
0,5788649,200,-1874,-384,-1035,-569,-330,254,140,-456
0,5788656,200,-1874,-384,-1035,-569,-330,254,140,-456
0,5788664,196,-1874,-383,-1025,-565,-324,254,140,-456
0,5788672,196,-1874,-383,-1025,-565,-324,254,140,-456
0,5788678,200,-1874,-382,-1025,-570,-328,254,140,-456
0,5788684,200,-1874,-382,-1025,-570,-328,254,140,-456
0,5788691,200,-1874,-382,-1025,-570,-328,254,140,-456
0,5788697,200,-1874,-382,-1025,-570,-328,254,140,-456
0,5788705,200,-1874,-387,-1017,-558,-324,259,145,-453
0,5788712,200,-1874,-387,-1017,-558,-324,259,145,-453
0,5788719,202,-1874,-381,-1019,-567,-327,259,145,-453
0,5788727,202,-1874,-381,-1019,-567,-327,259,145,-453
0,5788739,200,-1873,-383,-1029,-566,-327,259,145,-453
0,5788750,200,-1873,-383,-1029,-566,-327,259,145,-453
0,5788764,197,-1877,-392,-1028,-566,-329,259,145,-453
0,5788778,200,-1872,-382,-1030,-564,-323,259,145,-453
0,5788791,200,-1872,-382,-1030,-564,-323,259,145,-453
0,5788802,200,-1873,-381,-1029,-563,-325,259,145,-453
0,5788812,200,-1873,-381,-1029,-563,-325,259,145,-453
0,5788821,198,-1873,-379,-1033,-565,-327,259,145,-453
0,5788828,198,-1873,-379,-1033,-565,-327,259,145,-453
0,5788837,198,-1873,-379,-1033,-565,-327,259,145,-453
0,5788848,202,-1874,-379,-1028,-568,-325,268,142,-440
0,5788858,202,-1875,-384,-1025,-573,-326,268,142,-440
0,5788870,202,-1875,-384,-1025,-573,-326,268,142,-440
0,5788883,203,-1873,-381,-1027,-569,-328,268,142,-440
0,5788898,203,-1873,-381,-1027,-569,-328,268,142,-440
0,5788911,199,-1874,-380,-1022,-570,-326,268,142,-440
0,5788919,202,-1878,-381,-1026,-568,-324,268,142,-440
0,5788932,202,-1878,-381,-1026,-568,-324,268,142,-440
0,5788946,200,-1877,-386,-1023,-565,-326,268,142,-440
0,5788959,199,-1874,-384,-1032,-565,-327,255,139,-445
0,5788969,199,-1874,-384,-1032,-565,-327,255,139,-445
0,5788979,202,-1873,-381,-1023,-560,-320,255,139,-445
0,5788987,202,-1873,-381,-1023,-560,-320,255,139,-445
0,5788995,202,-1873,-381,-1023,-560,-320,255,139,-445
0,5789003,199,-1876,-385,-1017,-556,-327,255,139,-445
0,5789011,199,-1876,-385,-1017,-556,-327,255,139,-445
0,5789020,199,-1876,-382,-1014,-560,-324,255,139,-445
0,5789029,199,-1876,-382,-1014,-560,-324,255,139,-445
0,5789037,199,-1876,-382,-1014,-560,-324,255,139,-445
0,5789044,201,-1874,-382,-1022,-562,-324,255,139,-445
0,5789053,201,-1874,-382,-1022,-562,-324,255,139,-445
0,5789062,201,-1874,-385,-1031,-566,-326,255,139,-445
0,5789070,201,-1874,-385,-1031,-566,-326,255,139,-445
0,5789079,202,-1875,-381,-1032,-568,-330,249,147,-449
0,5789087,202,-1875,-381,-1032,-568,-330,249,147,-449
0,5789097,202,-1875,-381,-1032,-568,-330,249,147,-449
0,5789107,200,-1874,-378,-1034,-565,-332,249,147,-449
0,5789115,200,-1874,-378,-1034,-565,-332,249,147,-449
0,5789123,200,-1874,-385,-1022,-565,-324,249,147,-449
0,5789134,200,-1874,-385,-1022,-565,-324,249,147,-449
0,5789147,196,-1873,-379,-1033,-561,-324,249,147,-449
0,5789157,196,-1873,-379,-1033,-561,-324,249,147,-449
0,5789167,198,-1875,-384,-1030,-559,-322,249,147,-449
0,5789181,199,-1871,-384,-1026,-563,-327,249,147,-449
0,5789194,199,-1871,-384,-1026,-563,-327,249,147,-449
0,5789204,199,-1871,-384,-1026,-563,-327,249,147,-449
0,5789215,199,-1871,-384,-1026,-563,-327,249,147,-449
0,5789231,199,-1874,-378,-1026,-563,-328,253,147,-445
0,5789244,196,-1874,-380,-1030,-568,-328,253,147,-445
0,5789254,196,-1874,-380,-1030,-568,-328,253,147,-445
0,5789266,197,-1874,-385,-1024,-564,-328,253,147,-445
0,5789281,199,-1875,-387,-1021,-565,-323,253,147,-445
0,5789294,199,-1875,-387,-1021,-565,-323,253,147,-445
0,5789304,199,-1872,-388,-1023,-562,-324,253,147,-445
0,5789318,199,-1872,-388,-1023,-562,-324,253,147,-445
0,5789332,199,-1873,-386,-1025,-567,-325,253,147,-445
0,5789343,199,-1873,-384,-1030,-568,-333,252,148,-440
0,5789353,199,-1873,-384,-1030,-568,-333,252,148,-440
0,5789365,202,-1875,-382,-1034,-568,-334,252,148,-440
0,5789373,202,-1875,-382,-1034,-568,-334,252,148,-440
0,5789385,200,-1876,-380,-1023,-564,-329,252,148,-440
0,5789399,200,-1876,-380,-1023,-564,-329,252,148,-440
0,5789413,201,-1873,-381,-1025,-560,-319,252,148,-440
0,5789422,201,-1875,-383,-1029,-569,-320,252,148,-440
0,5789433,201,-1875,-383,-1029,-569,-320,252,148,-440
0,5789448,199,-1875,-385,-1028,-564,-325,252,148,-440
0,5789462,203,-1876,-389,-1030,-562,-329,252,148,-440
0,5789472,203,-1876,-389,-1030,-562,-329,252,148,-440
0,5789481,200,-1875,-380,-1028,-566,-319,264,144,-444
0,5789490,200,-1875,-380,-1028,-566,-319,264,144,-444
0,5789498,200,-1875,-380,-1028,-566,-319,264,144,-444
0,5789506,199,-1873,-385,-1031,-566,-327,264,144,-444
0,5789516,199,-1873,-385,-1031,-566,-327,264,144,-444
0,5789528,199,-1875,-380,-1030,-565,-334,264,144,-444
0,5789538,199,-1875,-380,-1030,-565,-334,264,144,-444
0,5789546,200,-1876,-385,-1028,-566,-327,264,144,-444
0,5789554,200,-1876,-385,-1028,-566,-327,264,144,-444
0,5789561,199,-1876,-383,-1034,-566,-323,264,144,-444
0,5789573,199,-1876,-383,-1034,-566,-323,264,144,-444
0,5789585,202,-1876,-387,-1038,-561,-326,264,144,-444
0,5789597,202,-1876,-387,-1038,-561,-326,264,144,-444
0,5789608,199,-1873,-378,-1024,-561,-325,259,143,-441
0,5789621,203,-1872,-380,-1025,-564,-328,259,143,-441
0,5789636,203,-1872,-380,-1025,-564,-328,259,143,-441
0,5789647,199,-1874,-382,-1023,-562,-337,259,143,-441
0,5789657,199,-1874,-382,-1023,-562,-337,259,143,-441
0,5789668,198,-1872,-382,-1026,-573,-329,259,143,-441
0,5789683,198,-1874,-381,-1033,-571,-317,259,143,-441
0,5789694,198,-1874,-381,-1033,-571,-317,259,143,-441
0,5789707,197,-1874,-383,-1027,-570,-331,259,143,-441
0,5789719,197,-1875,-380,-1023,-562,-330,259,143,-441
0,5789733,197,-1875,-380,-1023,-562,-330,259,143,-441
0,5789740,200,-1876,-378,-1025,-568,-329,252,144,-444
0,5789748,200,-1876,-378,-1025,-568,-329,252,144,-444
0,5789758,200,-1876,-378,-1025,-568,-329,252,144,-444
0,5789764,199,-1872,-386,-1023,-568,-327,252,144,-444
0,5789771,199,-1872,-386,-1023,-568,-327,252,144,-444
0,5789778,199,-1872,-386,-1023,-568,-327,252,144,-444
0,5789785,201,-1875,-387,-1030,-567,-333,252,144,-444
0,5789791,201,-1875,-387,-1030,-567,-333,252,144,-444
0,5789798,201,-1875,-387,-1030,-567,-333,252,144,-444
0,5789806,199,-1874,-386,-1035,-565,-326,252,144,-444
0,5789812,199,-1874,-386,-1035,-565,-326,252,144,-444
0,5789819,200,-1876,-387,-1030,-561,-325,252,144,-444
0,5789828,200,-1876,-387,-1030,-561,-325,252,144,-444
0,5789835,200,-1876,-387,-1030,-561,-325,252,144,-444
0,5789841,202,-1875,-387,-1022,-568,-321,252,144,-444
0,5789848,202,-1875,-387,-1022,-568,-321,252,144,-444
0,5789857,202,-1875,-387,-1022,-568,-321,252,144,-444
0,5789863,197,-1875,-378,-1031,-566,-332,261,135,-437
0,5789870,197,-1875,-378,-1031,-566,-332,261,135,-437
0,5789878,197,-1875,-378,-1031,-566,-332,261,135,-437
0,5789885,200,-1875,-385,-1032,-566,-330,261,135,-437
0,5789891,200,-1875,-385,-1032,-566,-330,261,135,-437
0,5789899,200,-1875,-385,-1032,-566,-330,261,135,-437
0,5789905,199,-1874,-382,-1032,-564,-328,261,135,-437
0,5789913,199,-1874,-382,-1032,-564,-328,261,135,-437
0,5789920,199,-1877,-382,-1031,-568,-325,261,135,-437
0,5789927,199,-1877,-382,-1031,-568,-325,261,135,-437
0,5789932,199,-1877,-382,-1031,-568,-325,261,135,-437
0,5789940,199,-1876,-391,-1014,-564,-320,261,135,-437
0,5789947,199,-1876,-391,-1014,-564,-320,261,135,-437
0,5789956,199,-1876,-391,-1014,-564,-320,261,135,-437
0,5789964,201,-1872,-390,-1016,-561,-321,261,135,-437
0,5789970,201,-1872,-390,-1016,-561,-321,261,135,-437
0,5789976,201,-1872,-390,-1016,-561,-321,261,135,-437
0,5789981,198,-1874,-381,-1022,-568,-322,255,137,-451
0,5789987,198,-1874,-381,-1022,-568,-322,255,137,-451
0,5789992,198,-1874,-381,-1022,-568,-322,255,137,-451
0,5789997,198,-1874,-381,-1022,-568,-322,255,137,-451
0,5790002,200,-1876,-382,-1028,-566,-329,255,137,-451
0,5790008,200,-1876,-382,-1028,-566,-329,255,137,-451
0,5790013,200,-1876,-382,-1028,-566,-329,255,137,-451
0,5790021,202,-1875,-381,-1025,-564,-330,255,137,-451
0,5790027,202,-1875,-381,-1025,-564,-330,255,137,-451
0,5790034,202,-1875,-381,-1025,-564,-330,255,137,-451
0,5790039,202,-1875,-381,-1025,-564,-330,255,137,-451
0,5790047,201,-1875,-378,-1030,-573,-326,255,137,-451
0,5790055,201,-1875,-378,-1030,-573,-326,255,137,-451
0,5790063,200,-1874,-383,-1029,-565,-324,255,137,-451
0,5790070,200,-1874,-383,-1029,-565,-324,255,137,-451
0,5790078,200,-1874,-383,-1029,-565,-324,255,137,-451
0,5790085,198,-1873,-386,-1028,-566,-325,255,137,-451
0,5790091,198,-1873,-386,-1028,-566,-325,255,137,-451
0,5790096,198,-1873,-386,-1028,-566,-325,255,137,-451
0,5790102,201,-1874,-389,-1027,-560,-324,255,137,-451
0,5790110,201,-1874,-389,-1027,-560,-324,255,137,-451
0,5790116,201,-1874,-389,-1027,-560,-324,255,137,-451
0,5790124,199,-1872,-381,-1026,-565,-323,256,146,-456
0,5790131,199,-1872,-381,-1026,-565,-323,256,146,-456
0,5790136,199,-1872,-381,-1026,-565,-323,256,146,-456
0,5790143,197,-1874,-388,-1032,-570,-324,256,146,-456
0,5790150,197,-1874,-388,-1032,-570,-324,256,146,-456
0,5790156,197,-1874,-388,-1032,-570,-324,256,146,-456
0,5790164,200,-1875,-387,-1025,-568,-330,256,146,-456
0,5790171,200,-1875,-387,-1025,-568,-330,256,146,-456
0,5790178,200,-1875,-387,-1025,-568,-330,256,146,-456
0,5790186,200,-1873,-387,-1030,-570,-324,256,146,-456
0,5790192,200,-1873,-387,-1030,-570,-324,256,146,-456
0,5790199,200,-1873,-387,-1030,-570,-324,256,146,-456
0,5790205,200,-1874,-383,-1023,-568,-325,256,146,-456
0,5790213,200,-1874,-383,-1023,-568,-325,256,146,-456
0,5790219,200,-1874,-383,-1023,-568,-325,256,146,-456
0,5790225,200,-1874,-381,-1024,-562,-321,256,146,-456
0,5790232,200,-1874,-381,-1024,-562,-321,256,146,-456
0,5790239,200,-1874,-381,-1024,-562,-321,256,146,-456
0,5790246,198,-1874,-375,-1021,-568,-327,254,142,-444
0,5790255,198,-1874,-375,-1021,-568,-327,254,142,-444
0,5790261,198,-1873,-383,-1025,-564,-326,254,142,-444
0,5790269,198,-1873,-383,-1025,-564,-326,254,142,-444
0,5790274,198,-1873,-383,-1025,-564,-326,254,142,-444
0,5790282,202,-1872,-381,-1035,-561,-327,254,142,-444
0,5790289,202,-1872,-381,-1035,-561,-327,254,142,-444
0,5790297,202,-1872,-381,-1035,-561,-327,254,142,-444
0,5790304,198,-1872,-386,-1022,-559,-326,254,142,-444
0,5790310,198,-1872,-386,-1022,-559,-326,254,142,-444
0,5790318,198,-1872,-386,-1022,-559,-326,254,142,-444
0,5790324,199,-1869,-381,-1032,-562,-326,254,142,-444
0,5790332,199,-1869,-381,-1032,-562,-326,254,142,-444
0,5790340,199,-1869,-381,-1032,-562,-326,254,142,-444
0,5790347,199,-1871,-379,-1033,-559,-327,254,142,-444
0,5790354,199,-1871,-379,-1033,-559,-327,254,142,-444
0,5790361,201,-1873,-380,-1027,-566,-322,254,142,-444
0,5790368,201,-1873,-380,-1027,-566,-322,254,142,-444
0,5790374,201,-1873,-380,-1027,-566,-322,254,142,-444
0,5790381,202,-1871,-381,-1027,-566,-325,254,142,-444
0,5790388,202,-1871,-381,-1027,-566,-325,252,148,-456
0,5790395,202,-1871,-381,-1027,-566,-325,252,148,-456
0,5790402,198,-1874,-386,-1026,-567,-331,252,148,-456
0,5790410,198,-1874,-386,-1026,-567,-331,252,148,-456
0,5790416,198,-1874,-386,-1026,-567,-331,252,148,-456
0,5790424,198,-1871,-382,-1029,-567,-330,252,148,-456
0,5790432,198,-1871,-382,-1029,-567,-330,252,148,-456
0,5790439,198,-1871,-382,-1029,-567,-330,252,148,-456
0,5790444,202,-1877,-381,-1022,-566,-330,252,148,-456
0,5790451,202,-1877,-381,-1022,-566,-330,252,148,-456
0,5790459,202,-1877,-381,-1022,-566,-330,252,148,-456
0,5790466,202,-1875,-384,-1024,-568,-325,252,148,-456
0,5790473,202,-1875,-384,-1024,-568,-325,252,148,-456
0,5790478,202,-1875,-384,-1024,-568,-325,252,148,-456
0,5790484,201,-1873,-383,-1024,-561,-329,252,148,-456
0,5790490,201,-1873,-383,-1024,-561,-329,252,148,-456
0,5790498,201,-1873,-383,-1024,-561,-329,252,148,-456
0,5790505,199,-1874,-381,-1034,-564,-326,256,144,-454
0,5790511,199,-1874,-381,-1034,-564,-326,256,144,-454
0,5790518,199,-1874,-381,-1034,-564,-326,256,144,-454
0,5790525,202,-1875,-383,-1033,-566,-315,256,144,-454
0,5790532,202,-1875,-383,-1033,-566,-315,256,144,-454
0,5790538,202,-1875,-383,-1033,-566,-315,256,144,-454
0,5790543,202,-1875,-384,-1023,-566,-325,256,144,-454
0,5790548,202,-1875,-384,-1023,-566,-325,256,144,-454
0,5790554,202,-1875,-384,-1023,-566,-325,256,144,-454
0,5790559,202,-1875,-384,-1023,-566,-325,256,144,-454
0,5790564,200,-1875,-385,-1017,-564,-325,256,144,-454
0,5790569,200,-1875,-385,-1017,-564,-325,256,144,-454
0,5790578,200,-1875,-385,-1017,-564,-325,256,144,-454
0,5790584,198,-1873,-385,-1028,-567,-322,256,144,-454
0,5790590,198,-1873,-385,-1028,-567,-322,256,144,-454
0,5790599,198,-1873,-385,-1028,-567,-322,256,144,-454
0,5790605,200,-1878,-388,-1033,-569,-325,256,144,-454
0,5790612,200,-1878,-388,-1033,-569,-325,256,144,-454
0,5790619,200,-1878,-388,-1033,-569,-325,256,144,-454
0,5790627,194,-1873,-386,-1027,-567,-330,256,144,-454
0,5790632,194,-1873,-386,-1027,-567,-330,256,144,-454
0,5790639,194,-1873,-386,-1027,-567,-330,256,144,-454
0,5790643,199,-1873,-383,-1025,-562,-331,258,142,-452
0,5790650,199,-1873,-383,-1025,-562,-331,258,142,-452
0,5790657,199,-1873,-383,-1025,-562,-331,258,142,-452
0,5790663,202,-1874,-383,-1026,-567,-321,258,142,-452
0,5790671,202,-1874,-383,-1026,-567,-321,258,142,-452
0,5790679,202,-1874,-383,-1026,-567,-321,258,142,-452
0,5790685,202,-1874,-386,-1024,-567,-327,258,142,-452
0,5790690,202,-1874,-386,-1024,-567,-327,258,142,-452
0,5790697,202,-1874,-386,-1024,-567,-327,258,142,-452
0,5790704,200,-1876,-385,-1025,-574,-323,258,142,-452
0,5790709,200,-1876,-385,-1025,-574,-323,258,142,-452
0,5790717,200,-1876,-385,-1025,-574,-323,258,142,-452
0,5790725,197,-1873,-384,-1024,-566,-324,258,142,-452
0,5790732,197,-1873,-384,-1024,-566,-324,258,142,-452
0,5790739,197,-1873,-384,-1024,-566,-324,258,142,-452
0,5790748,193,-1876,-380,-1025,-563,-329,258,142,-452
0,5790760,193,-1876,-380,-1025,-563,-329,258,142,-452
0,5790772,197,-1876,-375,-1026,-567,-331,270,142,-444
0,5790785,198,-1875,-381,-1022,-571,-326,270,142,-444
0,5790799,198,-1875,-381,-1022,-571,-326,270,142,-444
0,5790811,202,-1878,-384,-1029,-569,-325,270,142,-444
0,5790822,202,-1878,-384,-1029,-569,-325,270,142,-444
0,5790835,202,-1878,-384,-1029,-569,-325,270,142,-444
0,5790849,195,-1873,-376,-1019,-563,-325,270,142,-444
0,5790862,196,-1877,-385,-1024,-560,-321,270,142,-444
0,5790873,196,-1877,-385,-1024,-560,-321,270,142,-444
0,5790888,197,-1875,-384,-1021,-563,-322,258,142,-450
0,5790902,201,-1874,-378,-1026,-559,-323,258,142,-450
0,5790913,201,-1874,-378,-1026,-559,-323,258,142,-450
0,5790925,199,-1872,-383,-1028,-568,-334,258,142,-450
0,5790939,199,-1872,-383,-1028,-568,-334,258,142,-450
0,5790952,200,-1871,-383,-1029,-566,-324,258,142,-450
0,5790962,200,-1875,-383,-1023,-572,-325,258,142,-450
0,5790976,200,-1875,-383,-1023,-572,-325,258,142,-450
0,5790984,199,-1874,-383,-1017,-555,-326,258,142,-450
0,5790992,199,-1874,-383,-1017,-555,-326,258,142,-450
0,5791000,199,-1874,-383,-1017,-555,-326,258,142,-450
0,5791007,201,-1876,-380,-1028,-567,-321,258,142,-450
0,5791015,201,-1876,-380,-1028,-567,-321,258,142,-450
0,5791024,200,-1877,-375,-1031,-562,-325,258,140,-450
0,5791032,200,-1877,-375,-1031,-562,-325,258,140,-450
0,5791040,200,-1877,-375,-1031,-562,-325,258,140,-450
0,5791049,201,-1875,-381,-1037,-571,-326,258,140,-450
0,5791057,201,-1875,-381,-1037,-571,-326,258,140,-450
0,5791065,201,-1874,-385,-1028,-567,-331,258,140,-450
0,5791073,201,-1874,-385,-1028,-567,-331,258,140,-450
0,5791081,201,-1874,-385,-1028,-567,-331,258,140,-450
0,5791090,199,-1872,-386,-1028,-560,-327,258,140,-450
0,5791098,199,-1872,-386,-1028,-560,-327,258,140,-450
0,5791108,199,-1874,-383,-1022,-567,-327,258,140,-450
0,5791117,199,-1874,-383,-1022,-567,-327,258,140,-450
0,5791125,198,-1874,-391,-1032,-571,-328,258,140,-450
0,5791134,198,-1874,-391,-1032,-571,-328,258,140,-450
0,5791144,197,-1874,-378,-1031,-571,-327,260,138,-442
0,5791157,197,-1874,-378,-1031,-571,-327,260,138,-442
0,5791170,198,-1873,-377,-1029,-564,-321,260,138,-442
0,5791178,198,-1873,-377,-1029,-564,-321,260,138,-442
0,5791192,199,-1876,-382,-1026,-563,-317,260,138,-442
0,5791203,200,-1876,-386,-1022,-562,-328,260,138,-442
0,5791213,200,-1876,-386,-1022,-562,-328,260,138,-442
0,5791226,199,-1875,-385,-1024,-563,-317,260,138,-442
0,5791241,199,-1875,-385,-1024,-563,-317,260,138,-442
0,5791250,200,-1870,-385,-1024,-564,-323,260,138,-442
0,5791259,200,-1870,-385,-1024,-564,-323,260,138,-442
0,5791268,198,-1875,-388,-1024,-566,-328,260,138,-442
0,5791277,198,-1875,-388,-1024,-566,-328,260,138,-442
0,5791285,198,-1872,-383,-1028,-570,-329,252,146,-444
0,5791295,198,-1872,-383,-1028,-570,-329,252,146,-444
0,5791306,198,-1872,-374,-1020,-572,-322,252,146,-444
0,5791320,198,-1872,-374,-1020,-572,-322,252,146,-444
0,5791333,202,-1875,-382,-1029,-565,-319,252,146,-444
0,5791346,199,-1872,-383,-1026,-572,-324,252,146,-444
0,5791358,199,-1872,-383,-1026,-572,-324,252,146,-444
0,5791370,198,-1874,-388,-1036,-565,-324,252,146,-444
0,5791382,201,-1875,-384,-1029,-565,-327,252,146,-444
0,5791395,201,-1875,-384,-1029,-565,-327,252,146,-444
0,5791410,196,-1876,-383,-1036,-571,-320,256,142,-450
0,5791420,196,-1876,-383,-1036,-571,-320,256,142,-450
0,5791430,196,-1873,-382,-1026,-561,-319,256,142,-450
0,5791442,197,-1875,-384,-1025,-561,-318,256,142,-450
0,5791456,197,-1875,-384,-1025,-561,-318,256,142,-450
0,5791467,198,-1877,-384,-1030,-565,-335,256,142,-450
0,5791479,198,-1877,-384,-1030,-565,-335,256,142,-450
0,5791492,202,-1879,-381,-1019,-562,-325,256,142,-450
0,5791504,199,-1877,-383,-1022,-572,-325,256,142,-450
0,5791518,199,-1877,-383,-1022,-572,-325,256,142,-450
0,5791531,199,-1876,-380,-1027,-570,-326,256,142,-450
0,5791541,199,-1876,-380,-1027,-570,-326,256,142,-450
0,5791549,198,-1873,-379,-1027,-564,-321,255,139,-435
0,5791557,198,-1873,-379,-1027,-564,-321,255,139,-435
0,5791565,197,-1873,-378,-1023,-570,-324,255,139,-435
0,5791578,197,-1873,-378,-1023,-570,-324,255,139,-435
0,5791587,199,-1874,-384,-1033,-572,-323,255,139,-435
0,5791596,199,-1874,-384,-1033,-572,-323,255,139,-435
0,5791605,197,-1875,-381,-1027,-574,-326,255,139,-435
0,5791613,197,-1875,-381,-1027,-574,-326,255,139,-435
0,5791623,197,-1872,-385,-1025,-562,-331,255,139,-435
0,5791632,197,-1872,-385,-1025,-562,-331,255,139,-435
0,5791646,199,-1875,-385,-1019,-563,-326,255,139,-435
0,5791659,199,-1875,-385,-1019,-563,-326,255,139,-435
0,5791671,197,-1875,-375,-1027,-565,-323,258,132,-446
0,5791683,200,-1876,-381,-1028,-564,-324,258,132,-446
0,5791695,200,-1876,-381,-1028,-564,-324,258,132,-446
0,5791708,200,-1874,-377,-1031,-565,-328,258,132,-446
0,5791721,200,-1874,-377,-1031,-565,-328,258,132,-446
0,5791732,198,-1873,-385,-1022,-569,-325,258,132,-446
0,5791747,201,-1876,-384,-1028,-566,-325,258,132,-446
0,5791756,201,-1876,-384,-1028,-566,-325,258,132,-446
0,5791763,201,-1877,-384,-1029,-570,-329,258,132,-446
0,5791771,201,-1877,-384,-1029,-570,-329,258,132,-446
0,5791778,201,-1877,-384,-1029,-570,-329,258,132,-446
0,5791785,198,-1876,-378,-1027,-569,-332,259,145,-447
0,5791793,198,-1876,-378,-1027,-569,-332,259,145,-447
0,5791799,198,-1876,-378,-1027,-569,-332,259,145,-447
0,5791806,199,-1875,-376,-1026,-566,-324,259,145,-447
0,5791811,199,-1875,-376,-1026,-566,-324,259,145,-447
0,5791818,199,-1875,-376,-1026,-566,-324,259,145,-447
0,5791825,197,-1873,-387,-1023,-564,-329,259,145,-447
0,5791832,197,-1873,-387,-1023,-564,-329,259,145,-447
0,5791838,197,-1873,-387,-1023,-564,-329,259,145,-447
0,5791843,199,-1874,-381,-1019,-566,-325,259,145,-447
0,5791848,199,-1874,-381,-1019,-566,-325,259,145,-447
0,5791855,199,-1874,-381,-1019,-566,-325,259,145,-447
0,5791861,199,-1874,-381,-1019,-566,-325,259,145,-447
0,5791868,201,-1873,-389,-1012,-561,-323,259,145,-447
0,5791877,201,-1873,-389,-1012,-561,-323,259,145,-447
0,5791884,201,-1873,-389,-1012,-561,-323,259,145,-447
0,5791890,201,-1873,-389,-1012,-561,-323,259,145,-447
0,5791897,201,-1873,-389,-1012,-561,-323,259,145,-447
0,5791904,200,-1876,-388,-1027,-567,-329,259,145,-447
0,5791911,200,-1876,-388,-1027,-567,-329,259,145,-447
0,5791919,200,-1876,-388,-1027,-567,-329,259,145,-447
0,5791926,196,-1873,-382,-1034,-568,-327,257,137,-445
0,5791932,196,-1873,-382,-1034,-568,-327,257,137,-445
0,5791938,196,-1873,-382,-1034,-568,-327,257,137,-445
0,5791945,200,-1872,-384,-1029,-568,-320,257,137,-445
0,5791952,200,-1872,-384,-1029,-568,-320,257,137,-445
0,5791961,200,-1872,-384,-1029,-568,-320,257,137,-445
0,5791966,197,-1875,-383,-1026,-571,-322,257,137,-445
0,5791974,197,-1875,-383,-1026,-571,-322,257,137,-445
0,5791979,197,-1875,-383,-1026,-571,-322,257,137,-445
0,5791984,199,-1875,-381,-1022,-565,-327,257,137,-445
0,5791989,199,-1875,-381,-1022,-565,-327,257,137,-445
0,5791994,199,-1875,-381,-1022,-565,-327,257,137,-445
0,5792000,199,-1875,-381,-1022,-565,-327,257,137,-445
0,5792005,199,-1875,-384,-1018,-569,-326,257,137,-445
0,5792012,199,-1875,-384,-1018,-569,-326,257,137,-445
0,5792019,199,-1875,-384,-1018,-569,-326,257,137,-445
0,5792025,197,-1873,-387,-1017,-560,-325,257,137,-445
0,5792031,197,-1873,-387,-1017,-560,-325,257,137,-445
0,5792040,197,-1873,-387,-1017,-560,-325,257,137,-445
0,5792048,198,-1875,-382,-1023,-563,-324,255,137,-437
0,5792054,198,-1875,-382,-1023,-563,-324,255,137,-437
0,5792060,198,-1875,-382,-1023,-563,-324,255,137,-437
0,5792068,198,-1874,-382,-1031,-563,-324,255,137,-437
0,5792075,198,-1874,-382,-1031,-563,-324,255,137,-437
0,5792081,198,-1874,-382,-1031,-563,-324,255,137,-437
0,5792090,200,-1875,-379,-1025,-568,-327,255,137,-437
0,5792097,200,-1875,-379,-1025,-568,-327,255,137,-437
0,5792102,198,-1872,-381,-1029,-569,-322,255,137,-437
0,5792110,198,-1872,-381,-1029,-569,-322,255,137,-437
0,5792116,198,-1872,-381,-1029,-569,-322,255,137,-437
0,5792124,198,-1873,-386,-1024,-576,-321,255,137,-437
0,5792133,198,-1873,-386,-1024,-576,-321,255,137,-437
0,5792141,198,-1873,-386,-1024,-576,-321,255,137,-437
0,5792149,199,-1873,-384,-1029,-571,-324,255,137,-437
0,5792156,199,-1873,-384,-1029,-571,-324,255,137,-437
0,5792162,200,-1874,-387,-1026,-570,-332,255,137,-437
0,5792168,200,-1874,-387,-1026,-570,-332,255,137,-437
0,5792176,200,-1874,-387,-1026,-570,-332,255,137,-437
0,5792182,200,-1874,-387,-1026,-570,-332,255,137,-437
0,5792188,198,-1877,-386,-1024,-568,-325,262,144,-444
0,5792195,198,-1877,-386,-1024,-568,-325,262,144,-444
0,5792203,201,-1876,-384,-1031,-569,-325,262,144,-444
0,5792209,201,-1876,-384,-1031,-569,-325,262,144,-444
0,5792217,201,-1876,-384,-1031,-569,-325,262,144,-444
0,5792224,201,-1874,-382,-1033,-565,-322,262,144,-444
0,5792231,201,-1874,-382,-1033,-565,-322,262,144,-444
0,5792238,201,-1874,-382,-1033,-565,-322,262,144,-444
0,5792245,203,-1874,-384,-1029,-566,-315,262,144,-444
0,5792250,203,-1874,-384,-1029,-566,-315,262,144,-444
0,5792259,203,-1874,-384,-1029,-566,-315,262,144,-444
0,5792266,203,-1875,-382,-1032,-564,-325,262,144,-444
0,5792274,203,-1875,-382,-1032,-564,-325,262,144,-444
0,5792280,203,-1875,-382,-1032,-564,-325,262,144,-444
0,5792286,196,-1870,-382,-1029,-564,-326,262,144,-444
0,5792292,196,-1870,-382,-1029,-564,-326,262,144,-444
0,5792299,196,-1870,-382,-1029,-564,-326,262,144,-444
0,5792305,197,-1875,-387,-1021,-564,-324,261,147,-445
0,5792313,197,-1875,-387,-1021,-564,-324,261,147,-445
0,5792319,197,-1875,-387,-1021,-564,-324,261,147,-445
0,5792326,197,-1876,-384,-1029,-568,-328,261,147,-445
0,5792333,197,-1876,-384,-1029,-568,-328,261,147,-445
0,5792339,197,-1876,-384,-1029,-568,-328,261,147,-445
0,5792347,198,-1871,-383,-1031,-571,-320,261,147,-445
0,5792352,198,-1871,-383,-1031,-571,-320,261,147,-445
0,5792358,198,-1871,-383,-1031,-571,-320,261,147,-445
0,5792362,198,-1871,-383,-1031,-571,-320,261,147,-445
0,5792368,197,-1874,-387,-1028,-571,-322,261,147,-445
0,5792374,197,-1874,-387,-1028,-571,-322,261,147,-445
0,5792382,200,-1873,-378,-1023,-567,-327,261,147,-445
0,5792390,200,-1873,-378,-1023,-567,-327,261,147,-445
0,5792397,200,-1873,-378,-1023,-567,-327,261,147,-445
0,5792402,200,-1873,-378,-1023,-567,-327,261,147,-445
0,5792409,200,-1877,-378,-1022,-565,-328,261,147,-445
0,5792415,200,-1877,-378,-1022,-565,-328,261,147,-445
0,5792421,200,-1877,-378,-1022,-565,-328,261,147,-445
0,5792429,200,-1872,-382,-1023,-558,-332,263,143,-447
0,5792437,200,-1872,-382,-1023,-558,-332,263,143,-447
0,5792444,199,-1875,-380,-1027,-559,-325,263,143,-447
0,5792450,199,-1875,-380,-1027,-559,-325,263,143,-447
0,5792459,199,-1875,-380,-1027,-559,-325,263,143,-447
0,5792466,200,-1873,-386,-1025,-570,-321,263,143,-447
0,5792473,200,-1873,-386,-1025,-570,-321,263,143,-447
0,5792479,200,-1873,-386,-1025,-570,-321,263,143,-447
0,5792487,198,-1873,-388,-1022,-571,-323,263,143,-447
0,5792495,198,-1873,-388,-1022,-571,-323,263,143,-447
0,5792501,198,-1873,-388,-1022,-571,-323,263,143,-447
0,5792508,197,-1872,-384,-1026,-571,-322,263,143,-447
0,5792516,197,-1872,-384,-1026,-571,-322,263,143,-447
0,5792522,197,-1872,-384,-1026,-571,-322,263,143,-447
0,5792529,199,-1876,-385,-1033,-564,-333,263,143,-447
0,5792537,199,-1876,-385,-1033,-564,-333,263,143,-447
0,5792542,199,-1876,-385,-1033,-564,-333,263,143,-447
0,5792547,200,-1875,-384,-1025,-563,-323,263,143,-447
0,5792552,200,-1875,-384,-1025,-563,-323,263,143,-447
0,5792558,200,-1875,-384,-1025,-563,-323,263,143,-447
0,5792563,200,-1875,-384,-1025,-563,-323,263,143,-447
0,5792568,199,-1879,-375,-1027,-566,-327,256,142,-444
0,5792574,199,-1879,-375,-1027,-566,-327,256,142,-444
0,5792581,199,-1879,-375,-1027,-566,-327,256,142,-444
0,5792588,197,-1875,-383,-1033,-568,-325,256,142,-444
0,5792595,197,-1875,-383,-1033,-568,-325,256,142,-444
0,5792603,197,-1874,-380,-1024,-562,-321,256,142,-444
0,5792610,197,-1874,-380,-1024,-562,-321,256,142,-444
0,5792618,197,-1874,-380,-1024,-562,-321,256,142,-444
0,5792626,196,-1876,-381,-1028,-567,-322,256,142,-444
0,5792633,196,-1876,-381,-1028,-567,-322,256,142,-444
0,5792640,196,-1876,-381,-1028,-567,-322,256,142,-444
0,5792648,196,-1879,-385,-1034,-567,-329,256,142,-444
0,5792656,196,-1879,-385,-1034,-567,-329,256,142,-444
0,5792662,196,-1879,-385,-1034,-567,-329,256,142,-444
0,5792670,201,-1875,-385,-1030,-566,-331,256,142,-444
0,5792677,201,-1875,-385,-1030,-566,-331,256,142,-444
0,5792684,203,-1873,-385,-1028,-570,-318,250,138,-446
0,5792690,203,-1873,-385,-1028,-570,-318,250,138,-446
0,5792698,203,-1873,-385,-1028,-570,-318,250,138,-446
0,5792703,199,-1876,-381,-1031,-565,-325,250,138,-446
0,5792712,199,-1876,-381,-1031,-565,-325,250,138,-446
0,5792719,199,-1876,-381,-1031,-565,-325,250,138,-446
0,5792727,199,-1876,-375,-1028,-570,-322,250,138,-446
0,5792733,199,-1876,-375,-1028,-570,-322,250,138,-446
0,5792741,199,-1876,-375,-1028,-570,-322,250,138,-446
0,5792747,199,-1877,-379,-1023,-569,-323,250,138,-446
0,5792753,199,-1877,-379,-1023,-569,-323,250,138,-446
0,5792765,198,-1877,-380,-1027,-568,-321,250,138,-446
0,5792777,198,-1877,-380,-1027,-568,-321,250,138,-446
0,5792788,198,-1874,-382,-1032,-580,-323,250,138,-446
0,5792800,198,-1874,-382,-1032,-580,-323,250,138,-446
0,5792812,199,-1877,-389,-1020,-570,-323,250,138,-446
0,5792823,199,-1877,-381,-1022,-561,-322,250,138,-446
0,5792837,199,-1877,-381,-1022,-561,-322,250,142,-452
