imu,time,ax,ay,az,gx,gy,gz,mx,my,mz
1,7418396,440,-1326,-922,-1484,-306,-43,428,28,-110
1,7418416,443,-1321,-925,-1482,-301,-46,428,28,-110
1,7418424,443,-1321,-925,-1482,-301,-46,428,28,-110
1,7418431,440,-1324,-918,-1487,-298,-45,422,34,-110
1,7418440,440,-1324,-918,-1487,-298,-45,422,34,-110
1,7418448,444,-1324,-921,-1485,-305,-41,422,34,-110
1,7418457,444,-1324,-921,-1485,-305,-41,422,34,-110
1,7418466,444,-1324,-921,-1485,-305,-41,422,34,-110
1,7418473,443,-1324,-926,-1492,-300,-45,422,34,-110
1,7418481,443,-1324,-926,-1492,-300,-45,422,34,-110
1,7418488,443,-1324,-919,-1485,-303,-47,422,34,-110
1,7418497,443,-1324,-919,-1485,-303,-47,422,34,-110
1,7418505,443,-1324,-919,-1485,-303,-47,422,34,-110
1,7418513,439,-1323,-918,-1486,-303,-45,422,34,-110
1,7418520,439,-1323,-918,-1486,-303,-45,422,34,-110
1,7418528,439,-1323,-918,-1486,-303,-45,422,34,-110
1,7418536,440,-1323,-918,-1481,-302,-43,422,34,-110
1,7418545,440,-1323,-918,-1481,-302,-43,422,34,-110
1,7418553,440,-1327,-922,-1482,-302,-39,424,34,-110
1,7418563,440,-1327,-922,-1482,-302,-39,424,34,-110
1,7418571,440,-1325,-914,-1492,-303,-41,424,34,-110
1,7418579,440,-1325,-914,-1492,-303,-41,424,34,-110
1,7418588,440,-1325,-914,-1492,-303,-41,424,34,-110
1,7418595,443,-1324,-916,-1491,-305,-47,424,34,-110
1,7418603,443,-1324,-916,-1491,-305,-47,424,34,-110
1,7418610,445,-1323,-917,-1482,-305,-43,424,34,-110
1,7418617,445,-1323,-917,-1482,-305,-43,424,34,-110
1,7418626,445,-1323,-917,-1482,-305,-43,424,34,-110
1,7418635,444,-1320,-916,-1489,-302,-41,424,34,-110
1,7418641,444,-1320,-916,-1489,-302,-41,424,34,-110
1,7418650,442,-1323,-922,-1478,-301,-38,424,34,-110
1,7418658,442,-1323,-922,-1478,-301,-38,424,34,-110
1,7418667,442,-1323,-922,-1478,-301,-38,424,34,-110
1,7418674,441,-1327,-919,-1482,-311,-42,424,34,-110
1,7418683,441,-1327,-919,-1482,-311,-42,424,34,-110
1,7418692,440,-1326,-918,-1486,-306,-46,422,34,-116
1,7418700,440,-1326,-918,-1486,-306,-46,422,34,-116
1,7418708,440,-1326,-918,-1486,-306,-46,422,34,-116
1,7418717,441,-1328,-919,-1495,-302,-47,422,34,-116
1,7418725,441,-1328,-919,-1495,-302,-47,422,34,-116
1,7418732,447,-1324,-921,-1483,-302,-46,422,34,-116
1,7418744,447,-1324,-921,-1483,-302,-46,422,34,-116
1,7418752,446,-1325,-921,-1485,-302,-42,422,34,-116
1,7418760,446,-1325,-921,-1485,-302,-42,422,34,-116
1,7418767,446,-1325,-921,-1485,-302,-42,422,34,-116
1,7418774,442,-1323,-922,-1486,-305,-40,422,34,-116
1,7418782,442,-1323,-922,-1486,-305,-40,422,34,-116
1,7418789,440,-1326,-924,-1482,-301,-42,422,34,-116
1,7418798,440,-1326,-924,-1482,-301,-42,422,34,-116
1,7418805,440,-1326,-924,-1482,-301,-42,422,34,-116
1,7418812,439,-1324,-919,-1487,-303,-38,423,35,-107
1,7418820,439,-1324,-919,-1487,-303,-38,423,35,-107
1,7418829,441,-1328,-922,-1484,-304,-40,423,35,-107
1,7418838,441,-1328,-922,-1484,-304,-40,423,35,-107
1,7418847,441,-1328,-922,-1484,-304,-40,423,35,-107
1,7418856,440,-1327,-922,-1487,-299,-41,423,35,-107
1,7418865,440,-1327,-922,-1487,-299,-41,423,35,-107
1,7418873,447,-1323,-912,-1491,-299,-37,423,35,-107
1,7418883,447,-1323,-912,-1491,-299,-37,423,35,-107
1,7418892,445,-1327,-927,-1488,-305,-36,423,35,-107
1,7418900,445,-1327,-927,-1488,-305,-36,423,35,-107
1,7418909,443,-1326,-925,-1482,-300,-43,423,35,-107
1,7418918,443,-1326,-925,-1482,-300,-43,423,35,-107
1,7418927,443,-1326,-925,-1482,-300,-43,423,35,-107
1,7418937,442,-1320,-916,-1488,-297,-43,416,34,-114
1,7418949,443,-1321,-924,-1485,-301,-39,416,34,-114
1,7418961,443,-1321,-924,-1485,-301,-39,416,34,-114
1,7418974,440,-1324,-922,-1485,-301,-43,416,34,-114
1,7418986,440,-1324,-922,-1485,-301,-43,416,34,-114
1,7418999,440,-1325,-922,-1489,-311,-45,416,34,-114
1,7419013,444,-1322,-923,-1487,-307,-32,416,34,-114
1,7419027,444,-1322,-923,-1487,-307,-32,416,34,-114
1,7419038,446,-1322,-921,-1487,-302,-43,416,34,-114
1,7419048,446,-1322,-921,-1487,-302,-43,416,34,-114
1,7419057,448,-1320,-919,-1492,-303,-42,418,30,-116
1,7419064,448,-1320,-919,-1492,-303,-42,418,30,-116
1,7419072,448,-1320,-916,-1479,-301,-44,418,30,-116
1,7419081,448,-1320,-916,-1479,-301,-44,418,30,-116
1,7419089,440,-1323,-924,-1488,-302,-42,418,30,-116
1,7419102,440,-1323,-924,-1488,-302,-42,418,30,-116
1,7419116,441,-1322,-921,-1485,-306,-41,418,30,-116
1,7419131,439,-1326,-924,-1476,-307,-40,418,30,-116
1,7419140,439,-1326,-924,-1476,-307,-40,418,30,-116
1,7419153,439,-1327,-919,-1493,-299,-41,418,30,-116
1,7419165,439,-1327,-919,-1493,-299,-41,418,30,-116
1,7419180,445,-1326,-922,-1489,-301,-44,418,30,-116
1,7419189,445,-1326,-922,-1489,-301,-44,418,30,-116
1,7419201,441,-1326,-908,-1490,-301,-41,420,28,-104
1,7419214,446,-1324,-922,-1491,-299,-46,420,28,-104
1,7419228,446,-1324,-922,-1491,-299,-46,420,28,-104
1,7419239,443,-1323,-924,-1490,-302,-45,420,28,-104
1,7419250,443,-1324,-917,-1486,-305,-39,420,28,-104
1,7419265,443,-1324,-917,-1486,-305,-39,420,28,-104
1,7419277,443,-1324,-918,-1491,-304,-39,420,28,-104
1,7419289,439,-1326,-922,-1487,-303,-36,420,28,-104
1,7419302,439,-1326,-922,-1487,-303,-36,420,28,-104
1,7419316,443,-1321,-913,-1491,-300,-38,420,34,-110
1,7419330,442,-1328,-920,-1484,-304,-38,420,34,-110
1,7419339,442,-1328,-920,-1484,-304,-38,420,34,-110
1,7419346,442,-1328,-920,-1484,-304,-38,420,34,-110
1,7419353,445,-1327,-923,-1484,-307,-39,420,34,-110
1,7419361,445,-1327,-923,-1484,-307,-39,420,34,-110
1,7419367,445,-1327,-923,-1484,-307,-39,420,34,-110
1,7419372,446,-1327,-915,-1482,-301,-39,420,34,-110
1,7419379,446,-1327,-915,-1482,-301,-39,420,34,-110
1,7419386,446,-1327,-915,-1482,-301,-39,420,34,-110
1,7419392,446,-1324,-923,-1489,-300,-36,420,34,-110
1,7419400,446,-1324,-923,-1489,-300,-36,420,34,-110
1,7419408,446,-1324,-923,-1489,-300,-36,420,34,-110
1,7419414,442,-1324,-918,-1485,-301,-37,420,34,-110
1,7419419,442,-1324,-918,-1485,-301,-37,420,34,-110
1,7419424,442,-1324,-918,-1485,-301,-37,420,34,-110
1,7419429,440,-1322,-916,-1491,-311,-41,421,33,-107
1,7419438,440,-1322,-916,-1491,-311,-41,421,33,-107
1,7419446,440,-1322,-916,-1491,-311,-41,421,33,-107
1,7419453,443,-1324,-921,-1490,-302,-44,421,33,-107
1,7419460,443,-1324,-921,-1490,-302,-44,421,33,-107
1,7419466,443,-1324,-921,-1490,-302,-44,421,33,-107
1,7419473,441,-1324,-922,-1490,-298,-43,421,33,-107
1,7419480,441,-1324,-922,-1490,-298,-43,421,33,-107
1,7419487,441,-1324,-922,-1490,-298,-43,421,33,-107
1,7419495,439,-1326,-923,-1492,-303,-38,421,33,-107
1,7419502,439,-1326,-923,-1492,-303,-38,421,33,-107
1,7419510,442,-1326,-916,-1492,-307,-44,421,33,-107
1,7419517,442,-1326,-916,-1492,-307,-44,421,33,-107
1,7419525,442,-1326,-916,-1492,-307,-44,421,33,-107
1,7419532,444,-1327,-919,-1493,-312,-45,421,33,-107
1,7419540,444,-1327,-919,-1493,-312,-45,421,33,-107
1,7419547,444,-1327,-919,-1493,-312,-45,421,33,-107
1,7419553,445,-1324,-919,-1490,-311,-45,421,37,-119
1,7419561,445,-1324,-919,-1490,-311,-45,421,37,-119
1,7419570,442,-1322,-921,-1486,-302,-32,421,37,-119
1,7419576,442,-1322,-921,-1486,-302,-32,421,37,-119
1,7419582,442,-1322,-921,-1486,-302,-32,421,37,-119
1,7419589,442,-1328,-926,-1486,-296,-42,421,37,-119
1,7419596,442,-1328,-926,-1486,-296,-42,421,37,-119
1,7419603,442,-1328,-926,-1486,-296,-42,421,37,-119
1,7419610,445,-1328,-922,-1480,-303,-42,421,37,-119
1,7419615,445,-1328,-922,-1480,-303,-42,421,37,-119
1,7419620,445,-1328,-922,-1480,-303,-42,421,37,-119
1,7419627,445,-1328,-922,-1480,-303,-42,421,37,-119
1,7419633,446,-1322,-916,-1487,-309,-38,421,37,-119
1,7419639,446,-1322,-916,-1487,-309,-38,421,37,-119
1,7419646,446,-1322,-916,-1487,-309,-38,421,37,-119
1,7419653,445,-1325,-919,-1487,-306,-34,421,37,-119
1,7419658,445,-1325,-919,-1487,-306,-34,421,37,-119
1,7419664,445,-1325,-919,-1487,-306,-34,421,37,-119
1,7419669,445,-1325,-919,-1487,-306,-34,421,37,-119
1,7419674,447,-1324,-915,-1490,-303,-31,416,32,-116
1,7419681,447,-1324,-915,-1490,-303,-31,416,32,-116
1,7419687,447,-1324,-915,-1490,-303,-31,416,32,-116
1,7419694,446,-1325,-918,-1492,-307,-43,416,32,-116
1,7419700,446,-1325,-918,-1492,-307,-43,416,32,-116
1,7419705,446,-1325,-918,-1492,-307,-43,416,32,-116
1,7419710,439,-1329,-924,-1486,-305,-41,416,32,-116
1,7419715,439,-1329,-924,-1486,-305,-41,416,32,-116
1,7419720,439,-1329,-924,-1486,-305,-41,416,32,-116
1,7419725,439,-1329,-924,-1486,-305,-41,416,32,-116
1,7419730,443,-1326,-919,-1482,-303,-39,416,32,-116
1,7419735,443,-1326,-919,-1482,-303,-39,416,32,-116
1,7419741,443,-1326,-919,-1482,-303,-39,416,32,-116
1,7419747,443,-1326,-919,-1482,-303,-39,416,32,-116
1,7419752,443,-1325,-921,-1491,-301,-42,416,32,-116
1,7419758,443,-1325,-921,-1491,-301,-42,416,32,-116
1,7419763,443,-1325,-921,-1491,-301,-42,416,32,-116
1,7419768,443,-1325,-921,-1491,-301,-42,416,32,-116
1,7419774,445,-1326,-920,-1486,-302,-38,416,32,-116
1,7419781,445,-1326,-920,-1486,-302,-38,416,32,-116
1,7419786,445,-1326,-920,-1486,-302,-38,416,32,-116
1,7419791,443,-1323,-919,-1484,-302,-43,416,32,-116
1,7419797,443,-1323,-919,-1484,-302,-43,416,32,-116
1,7419803,443,-1323,-919,-1484,-302,-43,416,32,-116
1,7419808,443,-1323,-919,-1484,-302,-43,416,32,-116
1,7419814,445,-1326,-917,-1486,-300,-34,420,38,-110
1,7419821,445,-1326,-917,-1486,-300,-34,420,38,-110
1,7419826,445,-1326,-917,-1486,-300,-34,420,38,-110
1,7419832,441,-1324,-922,-1491,-302,-38,420,38,-110
1,7419838,441,-1324,-922,-1491,-302,-38,420,38,-110
1,7419844,441,-1324,-922,-1491,-302,-38,420,38,-110
1,7419851,444,-1325,-916,-1489,-301,-38,420,38,-110
1,7419857,444,-1325,-916,-1489,-301,-38,420,38,-110
1,7419865,444,-1325,-916,-1489,-301,-38,420,38,-110
1,7419873,441,-1324,-925,-1481,-300,-40,420,38,-110
1,7419882,441,-1324,-925,-1481,-300,-40,420,38,-110
1,7419889,442,-1325,-921,-1487,-294,-30,420,38,-110
1,7419896,442,-1325,-921,-1487,-294,-30,420,38,-110
1,7419902,442,-1325,-921,-1487,-294,-30,420,38,-110
1,7419909,442,-1325,-921,-1487,-294,-30,420,38,-110
1,7419916,443,-1326,-923,-1483,-303,-41,420,38,-110
1,7419923,443,-1326,-923,-1483,-303,-41,420,38,-110
1,7419930,447,-1321,-924,-1492,-301,-47,414,26,-120
1,7419937,447,-1321,-924,-1492,-301,-47,414,26,-120
1,7419943,447,-1321,-924,-1492,-301,-47,414,26,-120
1,7419952,445,-1326,-919,-1485,-294,-42,414,26,-120
1,7419959,445,-1326,-919,-1485,-294,-42,414,26,-120
1,7419967,445,-1326,-919,-1485,-294,-42,414,26,-120
1,7419974,442,-1324,-921,-1495,-306,-38,414,26,-120
1,7419981,442,-1324,-921,-1495,-306,-38,414,26,-120
1,7419987,442,-1324,-921,-1495,-306,-38,414,26,-120
1,7419995,440,-1324,-921,-1497,-307,-43,414,26,-120
1,7420002,440,-1324,-921,-1497,-307,-43,414,26,-120
1,7420010,440,-1324,-920,-1504,-307,-48,414,26,-120
1,7420017,440,-1324,-920,-1504,-307,-48,414,26,-120
1,7420024,440,-1324,-920,-1504,-307,-48,414,26,-120
1,7420030,439,-1326,-926,-1494,-305,-46,414,26,-120
1,7420038,439,-1326,-926,-1494,-305,-46,414,26,-120
1,7420045,439,-1326,-926,-1494,-305,-46,414,26,-120
1,7420051,444,-1327,-921,-1483,-299,-38,417,39,-109
1,7420060,444,-1327,-921,-1483,-299,-38,417,39,-109
1,7420066,444,-1327,-921,-1483,-299,-38,417,39,-109
1,7420073,444,-1325,-922,-1492,-304,-34,417,39,-109
1,7420083,444,-1325,-922,-1492,-304,-34,417,39,-109
1,7420091,447,-1327,-921,-1498,-310,-37,417,39,-109
1,7420098,447,-1327,-921,-1498,-310,-37,417,39,-109
1,7420106,447,-1327,-921,-1498,-310,-37,417,39,-109
1,7420114,440,-1325,-922,-1487,-302,-38,417,39,-109
1,7420121,440,-1325,-922,-1487,-302,-38,417,39,-109
1,7420127,440,-1325,-922,-1487,-302,-38,417,39,-109
1,7420134,444,-1324,-917,-1482,-307,-34,417,39,-109
1,7420141,444,-1324,-917,-1482,-307,-34,417,39,-109
1,7420149,444,-1324,-917,-1482,-307,-34,417,39,-109
1,7420157,444,-1325,-922,-1488,-301,-43,417,39,-109
1,7420164,444,-1325,-922,-1488,-301,-43,417,39,-109
1,7420171,442,-1327,-915,-1486,-301,-38,426,32,-108
1,7420178,442,-1327,-915,-1486,-301,-38,426,32,-108
1,7420185,442,-1327,-915,-1486,-301,-38,426,32,-108
1,7420192,444,-1327,-918,-1485,-299,-39,426,32,-108
1,7420197,444,-1327,-918,-1485,-299,-39,426,32,-108
1,7420203,444,-1327,-918,-1485,-299,-39,426,32,-108
1,7420208,444,-1327,-918,-1485,-299,-39,426,32,-108
1,7420216,443,-1324,-920,-1485,-301,-40,426,32,-108
1,7420223,443,-1324,-920,-1485,-301,-40,426,32,-108
1,7420231,443,-1322,-926,-1493,-307,-37,426,32,-108
1,7420237,443,-1322,-926,-1493,-307,-37,426,32,-108
1,7420244,443,-1322,-926,-1493,-307,-37,426,32,-108
1,7420252,445,-1325,-924,-1493,-299,-40,426,32,-108
1,7420259,445,-1325,-924,-1493,-299,-40,426,32,-108
1,7420266,445,-1325,-924,-1493,-299,-40,426,32,-108
1,7420273,443,-1324,-920,-1498,-301,-41,426,32,-108
1,7420278,443,-1324,-920,-1498,-301,-41,426,32,-108
1,7420285,443,-1324,-920,-1498,-301,-41,426,32,-108
1,7420293,442,-1327,-922,-1490,-297,-36,426,32,-108
1,7420301,442,-1327,-922,-1490,-297,-36,426,32,-108
1,7420308,442,-1327,-922,-1490,-297,-36,426,32,-108
1,7420315,440,-1327,-921,-1484,-303,-39,416,30,-110
1,7420323,440,-1327,-921,-1484,-303,-39,416,30,-110
1,7420331,444,-1324,-918,-1488,-299,-32,416,30,-110
1,7420338,444,-1324,-918,-1488,-299,-32,416,30,-110
1,7420343,444,-1324,-918,-1488,-299,-32,416,30,-110
1,7420355,445,-1323,-923,-1487,-298,-39,416,30,-110
1,7420363,445,-1323,-923,-1487,-298,-39,416,30,-110
1,7420376,447,-1322,-919,-1491,-302,-38,416,30,-110
1,7420390,446,-1323,-919,-1491,-299,-47,416,30,-110
1,7420404,446,-1323,-919,-1491,-299,-47,416,30,-110
1,7420412,442,-1325,-925,-1491,-303,-38,416,30,-110
1,7420424,442,-1325,-925,-1491,-303,-38,416,30,-110
1,7420439,442,-1324,-916,-1494,-307,-39,418,32,-118
1,7420452,442,-1325,-914,-1488,-308,-35,418,32,-118
1,7420463,442,-1325,-914,-1488,-308,-35,418,32,-118
1,7420475,442,-1328,-919,-1489,-303,-34,418,32,-118
1,7420489,442,-1325,-920,-1497,-303,-35,418,32,-118
1,7420503,442,-1325,-920,-1497,-303,-35,418,32,-118
1,7420513,443,-1324,-923,-1487,-300,-41,418,32,-118
1,7420526,443,-1324,-923,-1487,-300,-41,418,32,-118
1,7420539,449,-1322,-918,-1485,-302,-36,418,32,-118
1,7420554,447,-1325,-915,-1489,-301,-40,415,31,-117
1,7420563,447,-1325,-915,-1489,-301,-40,415,31,-117
1,7420575,442,-1323,-921,-1489,-302,-39,415,31,-117
1,7420588,442,-1323,-921,-1489,-302,-39,415,31,-117
1,7420601,444,-1324,-919,-1487,-309,-37,415,31,-117
1,7420612,440,-1323,-918,-1482,-305,-32,415,31,-117
1,7420626,440,-1323,-918,-1482,-305,-32,415,31,-117
1,7420639,441,-1324,-922,-1489,-304,-32,415,31,-117
1,7420652,444,-1324,-920,-1488,-304,-44,415,31,-117
1,7420660,444,-1324,-920,-1488,-304,-44,415,31,-117
1,7420668,444,-1324,-920,-1488,-304,-44,415,31,-117
1,7420676,444,-1324,-920,-1488,-304,-44,425,35,-121
1,7420686,444,-1324,-920,-1488,-304,-44,425,35,-121
1,7420695,443,-1325,-919,-1494,-300,-42,425,35,-121
1,7420703,443,-1325,-919,-1494,-300,-42,425,35,-121
1,7420711,442,-1325,-921,-1487,-303,-43,425,35,-121
1,7420719,442,-1325,-921,-1487,-303,-43,425,35,-121
1,7420727,442,-1325,-921,-1487,-303,-43,425,35,-121
1,7420735,443,-1324,-917,-1495,-308,-43,425,35,-121
1,7420742,443,-1324,-917,-1495,-308,-43,425,35,-121
1,7420750,442,-1325,-924,-1488,-302,-41,425,35,-121
1,7420759,442,-1325,-924,-1488,-302,-41,425,35,-121
1,7420767,442,-1325,-924,-1488,-302,-41,425,35,-121
1,7420774,442,-1323,-922,-1489,-304,-40,425,35,-121
1,7420782,442,-1323,-922,-1489,-304,-40,425,35,-121
1,7420790,443,-1326,-919,-1494,-303,-43,425,31,-105
1,7420797,443,-1326,-919,-1494,-303,-43,425,31,-105
1,7420811,446,-1328,-919,-1491,-303,-31,425,31,-105
1,7420822,446,-1328,-919,-1491,-303,-31,425,31,-105
1,7420835,444,-1325,-921,-1483,-303,-40,425,31,-105
1,7420849,444,-1325,-921,-1483,-303,-40,425,31,-105
1,7420862,444,-1324,-922,-1488,-306,-36,425,31,-105
1,7420874,441,-1324,-919,-1487,-307,-35,425,31,-105
1,7420887,441,-1324,-919,-1487,-307,-35,425,31,-105
1,7420901,441,-1324,-919,-1487,-307,-35,425,31,-105
1,7420914,439,-1326,-920,-1488,-308,-34,425,31,-105
1,7420926,439,-1326,-920,-1488,-308,-34,425,31,-105
1,7420942,447,-1325,-917,-1492,-314,-39,415,41,-117
1,7420955,447,-1326,-923,-1498,-304,-41,415,41,-117
1,7420965,447,-1326,-923,-1498,-304,-41,415,41,-117
1,7420979,445,-1323,-923,-1492,-305,-48,415,41,-117
1,7420991,441,-1323,-915,-1489,-299,-44,415,41,-117
1,7421004,441,-1323,-915,-1489,-299,-44,415,41,-117
1,7421015,442,-1323,-919,-1488,-308,-32,415,41,-117
1,7421028,442,-1323,-919,-1488,-308,-32,415,41,-117
1,7421041,444,-1326,-923,-1486,-305,-39,415,41,-117
1,7421053,440,-1323,-919,-1482,-304,-46,419,37,-105
1,7421065,440,-1323,-919,-1482,-304,-46,419,37,-105
1,7421079,441,-1326,-919,-1487,-306,-38,419,37,-105
1,7421091,445,-1326,-921,-1494,-308,-31,419,37,-105
1,7421105,445,-1326,-921,-1494,-308,-31,419,37,-105
1,7421118,450,-1322,-921,-1493,-306,-49,419,37,-105
1,7421130,443,-1324,-921,-1484,-304,-42,419,37,-105
1,7421143,443,-1324,-921,-1484,-304,-42,419,37,-105
1,7421157,443,-1325,-922,-1485,-306,-33,419,37,-105
1,7421169,443,-1325,-922,-1485,-306,-33,419,37,-105
1,7421181,442,-1323,-916,-1493,-303,-38,425,37,-113
1,7421196,437,-1325,-917,-1491,-303,-36,425,37,-113
1,7421209,437,-1325,-917,-1491,-303,-36,425,37,-113
1,7421221,442,-1325,-918,-1488,-307,-39,425,37,-113
1,7421233,444,-1326,-924,-1495,-304,-38,425,37,-113
1,7421246,444,-1326,-924,-1495,-304,-38,425,37,-113
1,7421258,445,-1322,-921,-1498,-314,-40,425,37,-113
1,7421272,445,-1322,-919,-1501,-307,-34,425,37,-113
1,7421283,445,-1322,-919,-1501,-307,-34,425,37,-113
1,7421296,442,-1324,-916,-1496,-306,-37,422,36,-112
1,7421308,442,-1324,-916,-1496,-306,-37,422,36,-112
1,7421322,444,-1324,-920,-1496,-308,-46,422,36,-112
1,7421335,441,-1324,-926,-1492,-307,-36,422,36,-112
1,7421348,441,-1324,-926,-1492,-307,-36,422,36,-112
1,7421356,443,-1326,-920,-1480,-310,-37,422,36,-112
1,7421363,443,-1326,-920,-1480,-310,-37,422,36,-112
1,7421371,445,-1324,-924,-1487,-305,-37,422,36,-112
1,7421378,445,-1324,-924,-1487,-305,-37,422,36,-112
1,7421384,445,-1324,-924,-1487,-305,-37,422,36,-112
1,7421391,442,-1324,-926,-1490,-304,-43,422,36,-112
1,7421399,442,-1324,-926,-1490,-304,-43,422,36,-112
1,7421404,442,-1324,-926,-1490,-304,-43,422,36,-112
1,7421409,442,-1324,-926,-1490,-304,-43,422,36,-112
1,7421414,445,-1321,-919,-1487,-303,-41,422,36,-112
1,7421421,445,-1321,-919,-1487,-303,-41,422,36,-112
1,7421427,445,-1321,-919,-1487,-303,-41,422,36,-112
1,7421434,438,-1327,-916,-1486,-298,-46,422,30,-106
1,7421442,438,-1327,-916,-1486,-298,-46,422,30,-106
1,7421448,438,-1327,-916,-1486,-298,-46,422,30,-106
1,7421453,444,-1322,-916,-1489,-300,-35,422,30,-106
1,7421461,444,-1322,-916,-1489,-300,-35,422,30,-106
1,7421468,444,-1322,-916,-1489,-300,-35,422,30,-106
1,7421475,442,-1326,-918,-1491,-301,-34,422,30,-106
1,7421481,442,-1326,-918,-1491,-301,-34,422,30,-106
1,7421490,441,-1326,-922,-1495,-307,-37,422,30,-106
1,7421498,441,-1326,-922,-1495,-307,-37,422,30,-106
1,7421505,441,-1326,-922,-1495,-307,-37,422,30,-106
1,7421512,443,-1325,-920,-1491,-305,-30,422,30,-106
1,7421518,443,-1325,-920,-1491,-305,-30,422,30,-106
1,7421524,443,-1325,-920,-1491,-305,-30,422,30,-106
1,7421531,441,-1320,-917,-1488,-303,-26,422,30,-106
1,7421537,441,-1320,-917,-1488,-303,-26,422,30,-106
1,7421545,441,-1320,-917,-1488,-303,-26,422,30,-106
1,7421550,447,-1322,-917,-1490,-302,-37,415,39,-107
1,7421557,447,-1322,-917,-1490,-302,-37,415,39,-107
1,7421564,447,-1322,-917,-1490,-302,-37,415,39,-107
1,7421574,441,-1323,-924,-1493,-308,-44,415,39,-107
1,7421580,441,-1323,-924,-1493,-308,-44,415,39,-107
1,7421587,441,-1323,-924,-1493,-308,-44,415,39,-107
1,7421593,441,-1326,-919,-1486,-302,-44,415,39,-107
1,7421600,441,-1326,-919,-1486,-302,-44,415,39,-107
1,7421607,441,-1326,-919,-1486,-302,-44,415,39,-107
1,7421614,440,-1326,-921,-1487,-305,-46,415,39,-107
1,7421620,440,-1326,-921,-1487,-305,-46,415,39,-107
1,7421629,440,-1326,-921,-1487,-305,-46,415,39,-107
1,7421634,442,-1326,-917,-1485,-301,-47,415,39,-107
1,7421643,442,-1326,-917,-1485,-301,-47,415,39,-107
1,7421650,443,-1324,-928,-1488,-306,-41,415,39,-107
1,7421656,443,-1324,-928,-1488,-306,-41,415,39,-107
1,7421661,443,-1324,-928,-1488,-306,-41,415,39,-107
1,7421666,443,-1324,-928,-1488,-306,-41,415,39,-107
1,7421670,445,-1322,-919,-1482,-305,-36,420,44,-114
1,7421676,445,-1322,-919,-1482,-305,-36,420,44,-114
1,7421681,445,-1322,-919,-1482,-305,-36,420,44,-114
1,7421686,445,-1322,-919,-1482,-305,-36,420,44,-114
1,7421692,449,-1325,-919,-1488,-302,-44,420,44,-114
1,7421699,449,-1325,-919,-1488,-302,-44,420,44,-114
1,7421704,449,-1325,-919,-1488,-302,-44,420,44,-114
1,7421709,449,-1325,-919,-1488,-302,-44,420,44,-114
1,7421714,444,-1321,-917,-1489,-301,-38,420,44,-114
1,7421720,444,-1321,-917,-1489,-301,-38,420,44,-114
1,7421725,444,-1321,-917,-1489,-301,-38,420,44,-114
1,7421729,445,-1324,-922,-1491,-306,-35,420,44,-114
1,7421735,445,-1324,-922,-1491,-306,-35,420,44,-114
1,7421741,445,-1324,-922,-1491,-306,-35,420,44,-114
1,7421747,445,-1324,-922,-1491,-306,-35,420,44,-114
1,7421752,440,-1323,-915,-1489,-303,-40,420,44,-114
1,7421758,440,-1323,-915,-1489,-303,-40,420,44,-114
1,7421763,440,-1323,-915,-1489,-303,-40,420,44,-114
1,7421769,440,-1323,-915,-1489,-303,-40,420,44,-114
1,7421774,437,-1325,-921,-1489,-304,-37,420,44,-114
1,7421780,437,-1325,-921,-1489,-304,-37,420,44,-114
1,7421787,437,-1325,-921,-1489,-304,-37,420,44,-114
1,7421792,438,-1326,-917,-1489,-301,-46,418,44,-118
1,7421798,438,-1326,-917,-1489,-301,-46,418,44,-118
1,7421806,438,-1326,-917,-1489,-301,-46,418,44,-118
1,7421813,442,-1327,-916,-1486,-301,-45,418,44,-118
1,7421821,442,-1327,-916,-1486,-301,-45,418,44,-118
1,7421829,442,-1327,-916,-1486,-301,-45,418,44,-118
1,7421834,443,-1323,-921,-1487,-297,-44,418,44,-118
1,7421842,443,-1323,-921,-1487,-297,-44,418,44,-118
1,7421850,445,-1325,-919,-1490,-299,-42,418,44,-118
1,7421858,445,-1325,-919,-1490,-299,-42,418,44,-118
1,7421865,445,-1325,-919,-1490,-299,-42,418,44,-118
1,7421871,446,-1325,-921,-1490,-303,-46,418,44,-118
1,7421877,446,-1325,-921,-1490,-303,-46,418,44,-118
1,7421886,446,-1325,-921,-1490,-303,-46,418,44,-118
1,7421892,441,-1324,-918,-1482,-303,-43,418,44,-118
1,7421898,441,-1324,-918,-1482,-303,-43,418,44,-118
1,7421904,441,-1324,-918,-1482,-303,-43,418,44,-118
1,7421913,437,-1327,-920,-1484,-298,-42,418,44,-118
1,7421921,437,-1327,-920,-1484,-298,-42,418,44,-118
1,7421927,437,-1327,-920,-1484,-298,-42,418,44,-118
1,7421933,443,-1327,-914,-1489,-302,-41,422,36,-106
1,7421942,443,-1327,-914,-1489,-302,-41,422,36,-106
1,7421949,443,-1327,-914,-1489,-302,-41,422,36,-106
1,7421957,442,-1328,-916,-1487,-301,-38,422,36,-106
1,7421963,442,-1328,-916,-1487,-301,-38,422,36,-106
1,7421970,442,-1322,-921,-1494,-305,-44,422,36,-106
1,7421977,442,-1322,-921,-1494,-305,-44,422,36,-106
1,7421984,442,-1322,-921,-1494,-305,-44,422,36,-106
1,7421992,444,-1324,-920,-1492,-308,-40,422,36,-106
1,7422000,444,-1324,-920,-1492,-308,-40,422,36,-106
1,7422006,444,-1324,-920,-1492,-308,-40,422,36,-106
1,7422014,441,-1326,-919,-1487,-304,-37,422,36,-106
1,7422021,441,-1326,-919,-1487,-304,-37,422,36,-106
1,7422028,441,-1326,-919,-1487,-304,-37,422,36,-106
1,7422036,440,-1324,-918,-1487,-300,-40,422,36,-106
1,7422043,440,-1324,-918,-1487,-300,-40,422,36,-106
1,7422050,440,-1324,-918,-1487,-300,-40,422,36,-106
1,7422057,441,-1324,-913,-1492,-300,-42,417,35,-113
1,7422064,441,-1324,-913,-1492,-300,-42,417,35,-113
1,7422070,439,-1325,-913,-1496,-300,-37,417,35,-113
1,7422077,439,-1325,-913,-1496,-300,-37,417,35,-113
1,7422086,439,-1325,-913,-1496,-300,-37,417,35,-113
1,7422092,439,-1326,-918,-1492,-297,-36,417,35,-113
1,7422100,439,-1326,-918,-1492,-297,-36,417,35,-113
1,7422105,439,-1326,-918,-1492,-297,-36,417,35,-113
1,7422111,441,-1326,-922,-1486,-305,-34,417,35,-113
1,7422118,441,-1326,-922,-1486,-305,-34,417,35,-113
1,7422127,441,-1326,-922,-1486,-305,-34,417,35,-113
1,7422134,443,-1321,-923,-1484,-301,-36,417,35,-113
1,7422138,443,-1321,-923,-1484,-301,-36,417,35,-113
1,7422144,443,-1321,-923,-1484,-301,-36,417,35,-113
1,7422152,446,-1323,-920,-1489,-298,-35,417,35,-113
1,7422160,446,-1323,-920,-1489,-298,-35,417,35,-113
1,7422168,446,-1323,-920,-1489,-298,-35,417,35,-113
1,7422176,440,-1326,-911,-1486,-305,-36,418,32,-106
1,7422183,440,-1326,-911,-1486,-305,-36,418,32,-106
1,7422191,437,-1324,-917,-1492,-307,-47,418,32,-106
1,7422197,437,-1324,-917,-1492,-307,-47,418,32,-106
1,7422203,437,-1324,-917,-1492,-307,-47,418,32,-106
1,7422209,437,-1324,-917,-1492,-307,-47,418,32,-106
1,7422215,437,-1326,-918,-1484,-305,-43,418,32,-106
1,7422220,437,-1326,-918,-1484,-305,-43,418,32,-106
1,7422228,437,-1326,-918,-1484,-305,-43,418,32,-106
1,7422234,439,-1325,-921,-1487,-302,-40,418,32,-106
1,7422242,439,-1325,-921,-1487,-302,-40,418,32,-106
1,7422249,439,-1325,-921,-1487,-302,-40,418,32,-106
1,7422257,444,-1322,-919,-1483,-300,-45,418,32,-106
1,7422263,444,-1322,-919,-1483,-300,-45,418,32,-106
1,7422270,444,-1322,-919,-1483,-300,-45,418,32,-106
1,7422277,447,-1322,-918,-1487,-304,-42,418,32,-106
1,7422284,447,-1322,-918,-1487,-304,-42,418,32,-106
1,7422290,446,-1327,-915,-1492,-304,-42,421,41,-113
1,7422298,446,-1327,-915,-1492,-304,-42,421,41,-113
1,7422305,446,-1327,-915,-1492,-304,-42,421,41,-113
1,7422312,444,-1322,-918,-1487,-302,-44,421,41,-113
1,7422318,444,-1322,-918,-1487,-302,-44,421,41,-113
1,7422325,444,-1322,-918,-1487,-302,-44,421,41,-113
1,7422331,444,-1322,-916,-1485,-303,-41,421,41,-113
1,7422337,444,-1322,-916,-1485,-303,-41,421,41,-113
1,7422345,444,-1322,-916,-1485,-303,-41,421,41,-113
1,7422352,439,-1325,-913,-1491,-299,-33,421,41,-113
1,7422362,439,-1325,-913,-1491,-299,-33,421,41,-113
1,7422372,439,-1325,-913,-1491,-299,-33,421,41,-113
1,7422387,439,-1325,-913,-1491,-299,-33,421,41,-113
1,7422399,440,-1325,-921,-1488,-309,-40,421,41,-113
1,7422412,443,-1325,-924,-1496,-303,-42,423,39,-115
1,7422424,443,-1325,-924,-1496,-303,-42,423,39,-115
1,7422437,442,-1323,-910,-1485,-304,-39,423,39,-115
1,7422449,442,-1323,-910,-1485,-304,-39,423,39,-115
1,7422458,442,-1327,-918,-1495,-305,-45,423,39,-115
1,7422471,441,-1326,-921,-1486,-295,-37,423,39,-115
1,7422484,441,-1326,-921,-1486,-295,-37,423,39,-115
1,7422498,437,-1327,-918,-1489,-303,-39,423,39,-115
1,7422508,437,-1327,-918,-1489,-303,-39,423,39,-115
1,7422520,439,-1326,-923,-1488,-307,-37,423,39,-115
1,7422535,442,-1324,-917,-1490,-306,-35,423,39,-115
1,7422550,442,-1324,-917,-1490,-306,-35,423,39,-115
1,7422558,442,-1324,-918,-1490,-308,-37,418,30,-100
1,7422571,446,-1326,-920,-1495,-305,-41,418,30,-100
1,7422584,446,-1326,-920,-1495,-305,-41,418,30,-100
1,7422597,444,-1323,-915,-1486,-298,-40,418,30,-100
1,7422608,444,-1323,-915,-1486,-298,-40,418,30,-100
1,7422621,441,-1325,-919,-1489,-301,-39,418,30,-100
1,7422633,440,-1323,-918,-1488,-307,-37,418,30,-100
1,7422646,440,-1323,-918,-1488,-307,-37,418,30,-100
1,7422656,437,-1325,-914,-1489,-306,-38,418,30,-100
1,7422663,437,-1325,-914,-1489,-306,-38,418,30,-100
1,7422673,439,-1325,-918,-1485,-301,-41,422,34,-102
1,7422682,439,-1325,-918,-1485,-301,-41,422,34,-102
1,7422692,439,-1329,-915,-1492,-296,-45,422,34,-102
1,7422702,439,-1329,-915,-1492,-296,-45,422,34,-102
1,7422710,444,-1324,-912,-1486,-301,-49,422,34,-102
1,7422718,444,-1324,-912,-1486,-301,-49,422,34,-102
1,7422727,444,-1324,-912,-1486,-301,-49,422,34,-102
1,7422736,443,-1321,-918,-1490,-298,-44,422,34,-102
1,7422744,443,-1321,-918,-1490,-298,-44,422,34,-102
1,7422751,439,-1322,-916,-1485,-299,-39,422,34,-102
1,7422759,439,-1322,-916,-1485,-299,-39,422,34,-102
1,7422768,439,-1322,-916,-1485,-299,-39,422,34,-102
1,7422776,439,-1325,-917,-1484,-300,-34,422,34,-102
1,7422784,439,-1325,-917,-1484,-300,-34,422,34,-102
1,7422792,440,-1325,-917,-1489,-300,-34,417,33,-101
1,7422800,440,-1325,-917,-1489,-300,-34,417,33,-101
1,7422810,440,-1325,-917,-1489,-300,-34,417,33,-101
1,7422820,439,-1327,-913,-1489,-296,-38,417,33,-101
1,7422829,439,-1327,-913,-1489,-296,-38,417,33,-101
1,7422836,442,-1325,-915,-1489,-303,-34,417,33,-101
1,7422845,442,-1325,-915,-1489,-303,-34,417,33,-101
1,7422853,442,-1327,-922,-1483,-305,-34,417,33,-101
1,7422861,442,-1327,-922,-1483,-305,-34,417,33,-101
1,7422872,444,-1324,-915,-1491,-299,-44,417,33,-101
1,7422884,444,-1324,-915,-1491,-299,-44,417,33,-101
1,7422894,442,-1325,-920,-1495,-301,-44,417,33,-101
1,7422906,442,-1325,-920,-1495,-301,-44,417,33,-101
1,7422919,441,-1325,-916,-1485,-300,-40,418,34,-114
1,7422934,441,-1325,-916,-1485,-300,-40,418,34,-114
1,7422943,441,-1325,-916,-1485,-300,-40,418,34,-114
1,7422955,438,-1326,-917,-1492,-302,-35,418,34,-114
1,7422969,438,-1326,-917,-1492,-302,-35,418,34,-114
1,7422984,439,-1328,-915,-1494,-297,-41,418,34,-114
1,7422993,437,-1328,-914,-1490,-301,-41,418,34,-114
1,7423005,437,-1328,-914,-1490,-301,-41,418,34,-114
1,7423020,443,-1325,-917,-1488,-299,-41,418,34,-114
1,7423034,445,-1327,-916,-1492,-296,-43,418,34,-114
1,7423043,445,-1327,-916,-1492,-296,-43,418,34,-114
1,7423056,444,-1326,-915,-1489,-302,-43,418,34,-110
1,7423069,444,-1326,-915,-1489,-302,-43,418,34,-110
1,7423082,441,-1324,-920,-1498,-301,-37,418,34,-110
1,7423092,435,-1325,-920,-1488,-305,-39,418,34,-110
1,7423106,435,-1325,-920,-1488,-305,-39,418,34,-110
1,7423116,438,-1326,-916,-1490,-308,-39,418,34,-110
1,7423127,438,-1326,-916,-1490,-308,-39,418,34,-110
1,7423140,440,-1325,-916,-1495,-308,-33,418,34,-110
1,7423154,444,-1325,-918,-1482,-296,-37,418,34,-110
1,7423164,444,-1325,-918,-1482,-296,-37,418,34,-110
1,7423174,443,-1325,-917,-1490,-302,-37,420,40,-108
1,7423188,443,-1325,-917,-1490,-302,-37,420,40,-108
1,7423203,442,-1323,-920,-1490,-303,-41,420,40,-108
1,7423211,441,-1324,-914,-1484,-307,-41,420,40,-108
1,7423223,441,-1324,-914,-1484,-307,-41,420,40,-108
1,7423238,441,-1328,-915,-1487,-303,-35,420,40,-108
1,7423252,440,-1324,-913,-1482,-301,-42,420,40,-108
1,7423261,440,-1324,-913,-1482,-301,-42,420,40,-108
1,7423275,440,-1328,-921,-1492,-303,-43,420,40,-108
1,7423287,440,-1328,-921,-1492,-303,-43,420,40,-108
1,7423300,441,-1325,-925,-1492,-302,-39,408,36,-110
1,7423310,440,-1320,-918,-1492,-301,-36,408,36,-110
1,7423324,440,-1320,-918,-1492,-301,-36,408,36,-110
1,7423336,439,-1322,-914,-1491,-305,-40,408,36,-110
1,7423348,439,-1322,-914,-1491,-305,-40,408,36,-110
1,7423360,441,-1324,-917,-1481,-299,-44,408,36,-110
1,7423369,441,-1324,-917,-1481,-299,-44,408,36,-110
1,7423376,438,-1326,-915,-1483,-301,-39,408,36,-110
1,7423383,438,-1326,-915,-1483,-301,-39,408,36,-110
1,7423390,437,-1328,-918,-1487,-298,-42,408,36,-110
1,7423396,437,-1328,-918,-1487,-298,-42,408,36,-110
1,7423404,437,-1328,-918,-1487,-298,-42,408,36,-110
1,7423412,444,-1328,-916,-1485,-300,-40,415,33,-109
1,7423418,444,-1328,-916,-1485,-300,-40,415,33,-109
1,7423424,444,-1328,-916,-1485,-300,-40,415,33,-109
1,7423429,444,-1328,-916,-1485,-300,-40,415,33,-109
1,7423436,442,-1325,-912,-1491,-303,-35,415,33,-109
1,7423442,442,-1325,-912,-1491,-303,-35,415,33,-109
1,7423451,443,-1321,-915,-1493,-298,-39,415,33,-109
1,7423457,443,-1321,-915,-1493,-298,-39,415,33,-109
1,7423464,443,-1321,-915,-1493,-298,-39,415,33,-109
1,7423472,443,-1320,-914,-1482,-301,-39,415,33,-109
1,7423479,443,-1320,-914,-1482,-301,-39,415,33,-109
1,7423486,443,-1320,-914,-1482,-301,-39,415,33,-109
1,7423493,440,-1324,-918,-1489,-300,-37,415,33,-109
1,7423500,440,-1324,-918,-1489,-300,-37,415,33,-109
1,7423507,440,-1324,-918,-1489,-300,-37,415,33,-109
1,7423513,438,-1325,-918,-1490,-308,-38,415,33,-109
1,7423521,438,-1325,-918,-1490,-308,-38,415,33,-109
1,7423528,438,-1325,-918,-1490,-308,-38,415,33,-109
1,7423535,436,-1324,-919,-1485,-310,-43,416,40,-102
1,7423542,436,-1324,-919,-1485,-310,-43,416,40,-102
1,7423551,440,-1326,-916,-1494,-299,-32,416,40,-102
1,7423558,440,-1326,-916,-1494,-299,-32,416,40,-102
1,7423564,440,-1326,-916,-1494,-299,-32,416,40,-102
1,7423571,442,-1323,-917,-1484,-303,-47,416,40,-102
1,7423577,442,-1323,-917,-1484,-303,-47,416,40,-102
1,7423582,442,-1323,-917,-1484,-303,-47,416,40,-102
1,7423589,442,-1323,-917,-1484,-303,-47,416,40,-102
1,7423596,442,-1323,-917,-1484,-303,-47,416,40,-102
1,7423602,442,-1323,-917,-1484,-303,-47,416,40,-102
1,7423609,442,-1323,-917,-1484,-303,-47,416,40,-102
1,7423618,443,-1325,-915,-1495,-302,-37,416,40,-102
1,7423625,443,-1325,-915,-1495,-302,-37,416,40,-102
1,7423633,442,-1324,-919,-1492,-298,-37,416,40,-102
1,7423639,442,-1324,-919,-1492,-298,-37,416,40,-102
1,7423646,442,-1324,-919,-1492,-298,-37,416,40,-102
1,7423653,443,-1324,-919,-1486,-307,-38,416,40,-102
1,7423657,443,-1324,-919,-1486,-307,-38,416,40,-102
1,7423663,443,-1324,-919,-1486,-307,-38,416,40,-102
1,7423668,443,-1324,-919,-1486,-307,-38,416,40,-102
1,7423673,438,-1325,-914,-1479,-302,-43,417,43,-109
1,7423678,438,-1325,-914,-1479,-302,-43,417,43,-109
1,7423685,438,-1325,-914,-1479,-302,-43,417,43,-109
1,7423692,437,-1325,-913,-1487,-306,-47,417,43,-109
1,7423699,437,-1325,-913,-1487,-306,-47,417,43,-109
1,7423705,437,-1325,-913,-1487,-306,-47,417,43,-109
1,7423710,437,-1325,-913,-1487,-306,-47,417,43,-109
1,7423715,439,-1324,-917,-1492,-304,-40,417,43,-109
1,7423720,439,-1324,-917,-1492,-304,-40,417,43,-109
1,7423725,439,-1324,-917,-1492,-304,-40,417,43,-109
1,7423730,439,-1324,-917,-1492,-304,-40,417,43,-109
1,7423735,442,-1324,-921,-1494,-299,-38,417,43,-109
1,7423742,442,-1324,-921,-1494,-299,-38,417,43,-109
1,7423751,445,-1326,-918,-1489,-309,-43,417,43,-109
1,7423758,445,-1326,-918,-1489,-309,-43,417,43,-109
1,7423765,445,-1326,-918,-1489,-309,-43,417,43,-109
1,7423772,440,-1326,-914,-1491,-304,-43,417,43,-109
1,7423778,440,-1326,-914,-1491,-304,-43,417,43,-109
1,7423785,440,-1326,-914,-1491,-304,-43,417,43,-109
1,7423794,444,-1326,-914,-1491,-303,-39,423,45,-113
1,7423801,444,-1326,-914,-1491,-303,-39,423,45,-113
1,7423808,444,-1326,-914,-1491,-303,-39,423,45,-113
1,7423815,438,-1325,-919,-1491,-309,-41,423,45,-113
1,7423821,438,-1325,-919,-1491,-309,-41,423,45,-113
1,7423828,438,-1325,-919,-1491,-309,-41,423,45,-113
1,7423836,440,-1323,-916,-1483,-306,-34,423,45,-113
1,7423843,440,-1323,-916,-1483,-306,-34,423,45,-113
1,7423850,440,-1323,-916,-1483,-306,-34,423,45,-113
1,7423858,444,-1325,-918,-1493,-305,-35,423,45,-113
1,7423865,444,-1325,-918,-1493,-305,-35,423,45,-113
1,7423873,444,-1327,-915,-1493,-305,-28,423,45,-113
1,7423879,444,-1327,-915,-1493,-305,-28,423,45,-113
1,7423886,444,-1327,-915,-1493,-305,-28,423,45,-113
1,7423893,443,-1327,-917,-1490,-303,-36,423,45,-113
1,7423899,443,-1327,-917,-1490,-303,-36,423,45,-113
1,7423907,443,-1327,-917,-1490,-303,-36,423,45,-113
1,7423915,442,-1328,-917,-1490,-306,-35,416,36,-102
1,7423923,442,-1328,-917,-1490,-306,-35,416,36,-102
1,7423931,438,-1326,-914,-1486,-304,-40,416,36,-102
1,7423937,438,-1326,-914,-1486,-304,-40,416,36,-102
1,7423943,438,-1326,-914,-1486,-304,-40,416,36,-102
1,7423950,440,-1325,-920,-1482,-305,-37,416,36,-102
1,7423959,440,-1325,-920,-1482,-305,-37,416,36,-102
1,7423966,440,-1325,-920,-1482,-305,-37,416,36,-102
1,7423972,439,-1326,-918,-1490,-304,-36,416,36,-102
1,7423980,439,-1326,-918,-1490,-304,-36,416,36,-102
1,7423987,439,-1326,-918,-1490,-304,-36,416,36,-102
1,7423993,442,-1327,-918,-1488,-299,-41,416,36,-102
1,7424000,442,-1327,-918,-1488,-299,-41,416,36,-102
1,7424005,442,-1327,-918,-1488,-299,-41,416,36,-102
1,7424010,442,-1327,-918,-1488,-299,-41,416,36,-102
1,7424017,442,-1326,-917,-1494,-302,-41,416,36,-102
1,7424024,442,-1326,-917,-1494,-302,-41,416,36,-102
1,7424029,442,-1326,-917,-1494,-302,-41,416,36,-102
1,7424037,442,-1323,-921,-1491,-313,-36,418,36,-102
1,7424045,442,-1323,-921,-1491,-313,-36,418,36,-102
1,7424053,445,-1323,-911,-1491,-305,-44,418,36,-102
1,7424060,445,-1323,-911,-1491,-305,-44,418,36,-102
1,7424065,445,-1323,-911,-1491,-305,-44,418,36,-102
1,7424072,441,-1325,-913,-1492,-302,-42,418,36,-102
1,7424078,441,-1325,-913,-1492,-302,-42,418,36,-102
1,7424088,441,-1325,-913,-1492,-302,-42,418,36,-102
1,7424094,435,-1328,-913,-1484,-303,-42,418,36,-102
1,7424101,435,-1328,-913,-1484,-303,-42,418,36,-102
1,7424107,435,-1328,-913,-1484,-303,-42,418,36,-102
1,7424113,434,-1328,-915,-1494,-303,-41,418,36,-102
1,7424120,434,-1328,-915,-1494,-303,-41,418,36,-102
1,7424128,434,-1328,-915,-1494,-303,-41,418,36,-102
1,7424135,439,-1326,-919,-1492,-308,-39,418,36,-102
1,7424143,439,-1326,-919,-1492,-308,-39,418,36,-102
1,7424150,439,-1326,-919,-1492,-308,-39,418,36,-102
1,7424157,441,-1326,-919,-1491,-300,-39,418,36,-102
1,7424163,441,-1326,-919,-1491,-300,-39,418,36,-102
1,7424172,445,-1325,-918,-1493,-301,-43,418,34,-108
1,7424179,445,-1325,-918,-1493,-301,-43,418,34,-108
1,7424186,445,-1325,-918,-1493,-301,-43,418,34,-108
1,7424193,446,-1324,-918,-1490,-300,-37,418,34,-108
1,7424200,446,-1324,-918,-1490,-300,-37,418,34,-108
1,7424206,446,-1324,-918,-1490,-300,-37,418,34,-108
1,7424212,445,-1328,-918,-1491,-309,-42,418,34,-108
1,7424221,445,-1328,-918,-1491,-309,-42,418,34,-108
1,7424228,445,-1328,-918,-1491,-309,-42,418,34,-108
1,7424234,437,-1327,-917,-1490,-304,-41,418,34,-108
1,7424240,437,-1327,-917,-1490,-304,-41,418,34,-108
1,7424246,437,-1327,-917,-1490,-304,-41,418,34,-108
1,7424254,438,-1327,-919,-1486,-305,-45,418,34,-108
1,7424261,438,-1327,-919,-1486,-305,-45,418,34,-108
1,7424268,438,-1327,-919,-1486,-305,-45,418,34,-108
1,7424275,437,-1327,-916,-1491,-307,-50,418,34,-108
1,7424283,437,-1327,-916,-1491,-307,-50,418,34,-108
1,7424291,437,-1325,-916,-1489,-307,-43,420,32,-112
1,7424297,437,-1325,-916,-1489,-307,-43,420,32,-112
1,7424305,437,-1325,-916,-1489,-307,-43,420,32,-112
1,7424311,441,-1326,-910,-1486,-308,-44,420,32,-112
1,7424317,441,-1326,-910,-1486,-308,-44,420,32,-112
1,7424325,441,-1326,-910,-1486,-308,-44,420,32,-112
1,7424331,446,-1324,-919,-1487,-308,-41,420,32,-112
1,7424339,446,-1324,-919,-1487,-308,-41,420,32,-112
1,7424347,446,-1324,-919,-1487,-308,-41,420,32,-112
1,7424353,445,-1323,-919,-1479,-304,-38,420,32,-112
1,7424359,445,-1323,-919,-1479,-304,-38,420,32,-112
1,7424367,445,-1323,-919,-1479,-304,-38,420,32,-112
1,7424376,442,-1329,-919,-1484,-299,-36,420,32,-112
1,7424385,442,-1329,-919,-1484,-299,-36,420,32,-112
1,7424397,436,-1326,-915,-1485,-308,-38,420,32,-112
1,7424412,440,-1323,-912,-1492,-303,-45,421,35,-115
1,7424425,440,-1323,-912,-1492,-303,-45,421,35,-115
1,7424435,438,-1328,-915,-1487,-306,-41,421,35,-115
1,7424445,438,-1328,-915,-1487,-306,-41,421,35,-115
1,7424459,441,-1326,-918,-1496,-306,-37,421,35,-115
1,7424473,446,-1323,-920,-1483,-301,-44,421,35,-115
1,7424484,446,-1323,-920,-1483,-301,-44,421,35,-115
1,7424496,445,-1325,-918,-1483,-303,-38,421,35,-115
1,7424508,445,-1325,-918,-1483,-303,-38,421,35,-115
1,7424522,443,-1326,-920,-1480,-304,-38,421,35,-115
1,7424533,439,-1322,-917,-1486,-300,-33,415,39,-113
1,7424547,439,-1322,-917,-1486,-300,-33,415,39,-113
1,7424560,438,-1324,-917,-1489,-307,-39,415,39,-113
1,7424573,443,-1325,-916,-1488,-305,-44,415,39,-113
1,7424586,443,-1325,-916,-1488,-305,-44,415,39,-113
1,7424600,441,-1324,-917,-1488,-303,-44,415,39,-113
1,7424611,447,-1324,-915,-1486,-303,-37,415,39,-113
1,7424619,447,-1324,-915,-1486,-303,-37,415,39,-113
1,7424627,447,-1324,-915,-1486,-303,-37,415,39,-113
1,7424636,445,-1325,-917,-1489,-306,-39,415,39,-113
1,7424647,445,-1325,-917,-1489,-306,-39,415,39,-113
1,7424655,441,-1327,-917,-1489,-307,-42,415,39,-113
1,7424663,441,-1327,-917,-1489,-307,-42,415,39,-113
1,7424671,442,-1323,-912,-1493,-304,-37,418,32,-114
1,7424678,442,-1323,-912,-1493,-304,-37,418,32,-114
1,7424693,439,-1324,-909,-1491,-301,-38,418,32,-114
1,7424702,439,-1324,-909,-1491,-301,-38,418,32,-114
1,7424710,439,-1324,-909,-1491,-301,-38,418,32,-114
1,7424719,438,-1327,-913,-1485,-308,-40,418,32,-114
1,7424728,438,-1327,-913,-1485,-308,-40,418,32,-114
1,7424736,440,-1322,-917,-1488,-308,-38,418,32,-114
1,7424744,440,-1322,-917,-1488,-308,-38,418,32,-114
1,7424752,443,-1325,-914,-1498,-312,-43,418,32,-114
1,7424760,443,-1325,-914,-1498,-312,-43,418,32,-114
1,7424769,443,-1325,-914,-1498,-312,-43,418,32,-114
1,7424776,450,-1325,-915,-1493,-304,-40,418,32,-114
1,7424785,450,-1325,-915,-1493,-304,-40,418,32,-114
1,7424793,440,-1327,-911,-1497,-304,-39,426,40,-106
1,7424801,440,-1327,-911,-1497,-304,-39,426,40,-106
1,7424816,445,-1322,-919,-1490,-295,-36,426,40,-106
1,7424828,445,-1322,-919,-1490,-295,-36,426,40,-106
1,7424839,438,-1325,-917,-1490,-302,-38,426,40,-106
1,7424854,438,-1326,-918,-1487,-302,-35,426,40,-106
1,7424866,438,-1326,-918,-1487,-302,-35,426,40,-106
1,7424878,441,-1325,-914,-1481,-307,-42,426,40,-106
1,7424889,441,-1325,-914,-1481,-307,-42,426,40,-106
1,7424903,437,-1323,-918,-1492,-302,-48,426,40,-106
1,7424915,444,-1324,-916,-1481,-303,-40,419,31,-107
1,7424927,444,-1324,-916,-1481,-303,-40,419,31,-107
1,7424941,444,-1322,-915,-1490,-308,-34,419,31,-107
1,7424953,445,-1324,-915,-1492,-300,-38,419,31,-107
1,7424966,445,-1324,-915,-1492,-300,-38,419,31,-107
1,7424978,442,-1323,-915,-1481,-305,-33,419,31,-107
1,7424988,442,-1323,-915,-1481,-305,-33,419,31,-107
1,7425000,440,-1324,-917,-1485,-310,-36,419,31,-107
1,7425013,439,-1325,-920,-1494,-304,-36,419,31,-107
1,7425026,439,-1325,-920,-1494,-304,-36,419,31,-107
1,7425037,440,-1322,-915,-1496,-305,-45,419,27,-109
1,7425048,440,-1322,-915,-1496,-305,-45,419,27,-109
1,7425062,445,-1325,-911,-1491,-300,-42,419,27,-109
1,7425075,448,-1325,-917,-1489,-303,-39,419,27,-109
1,7425086,448,-1325,-917,-1489,-303,-39,419,27,-109
1,7425100,447,-1324,-917,-1486,-301,-44,419,27,-109
1,7425114,440,-1326,-918,-1489,-305,-41,419,27,-109
1,7425127,440,-1326,-918,-1489,-305,-41,419,27,-109
1,7425137,439,-1326,-915,-1483,-300,-46,419,27,-109
1,7425150,438,-1325,-913,-1488,-306,-36,419,27,-109
1,7425165,438,-1325,-913,-1488,-306,-36,419,27,-109
1,7425177,438,-1327,-915,-1489,-299,-39,425,35,-103
1,7425187,438,-1327,-915,-1489,-299,-39,425,35,-103
1,7425200,447,-1322,-920,-1490,-302,-39,425,35,-103
1,7425212,445,-1323,-916,-1489,-304,-38,425,35,-103
1,7425225,445,-1323,-916,-1489,-304,-38,425,35,-103
1,7425236,443,-1326,-917,-1497,-307,-45,425,35,-103
1,7425250,443,-1326,-917,-1497,-307,-45,425,35,-103
1,7425262,443,-1324,-919,-1488,-305,-42,425,35,-103
1,7425271,442,-1324,-917,-1489,-298,-36,425,35,-103
1,7425280,442,-1324,-917,-1489,-298,-36,425,35,-103
1,7425287,442,-1324,-917,-1489,-298,-36,425,35,-103
1,7425295,442,-1325,-920,-1482,-302,-35,414,32,-116
1,7425305,442,-1325,-920,-1482,-302,-35,414,32,-116
1,7425317,439,-1325,-916,-1493,-308,-36,414,32,-116
1,7425332,444,-1327,-920,-1493,-302,-36,414,32,-116
1,7425343,444,-1327,-920,-1493,-302,-36,414,32,-116
1,7425355,446,-1325,-921,-1487,-304,-34,414,32,-116
1,7425369,446,-1325,-921,-1487,-304,-34,414,32,-116
1,7425382,446,-1325,-917,-1491,-298,-36,414,32,-116
1,7425389,446,-1325,-917,-1491,-298,-36,414,32,-116
1,7425395,444,-1326,-917,-1485,-302,-36,414,32,-116
1,7425401,444,-1326,-917,-1485,-302,-36,414,32,-116
1,7425411,444,-1326,-917,-1485,-302,-36,414,32,-116
1,7425419,440,-1324,-915,-1488,-306,-38,420,30,-110
1,7425427,440,-1324,-915,-1488,-306,-38,420,30,-110
1,7425435,436,-1325,-916,-1495,-307,-33,420,30,-110
1,7425442,436,-1325,-916,-1495,-307,-33,420,30,-110
1,7425449,436,-1325,-916,-1495,-307,-33,420,30,-110
1,7425455,441,-1325,-922,-1486,-300,-33,420,30,-110
1,7425462,441,-1325,-922,-1486,-300,-33,420,30,-110
1,7425469,441,-1325,-922,-1486,-300,-33,420,30,-110
1,7425478,443,-1325,-917,-1488,-298,-37,420,30,-110
1,7425485,443,-1325,-917,-1488,-298,-37,420,30,-110
1,7425492,444,-1322,-916,-1490,-302,-39,420,30,-110
1,7425499,444,-1322,-916,-1490,-302,-39,420,30,-110
1,7425506,444,-1322,-916,-1490,-302,-39,420,30,-110
1,7425513,446,-1324,-921,-1490,-296,-31,420,30,-110
1,7425520,446,-1324,-921,-1490,-296,-31,420,30,-110
1,7425528,446,-1324,-921,-1490,-296,-31,420,30,-110
1,7425536,444,-1322,-914,-1486,-303,-38,426,32,-106
1,7425543,444,-1322,-914,-1486,-303,-38,426,32,-106
1,7425549,444,-1322,-914,-1486,-303,-38,426,32,-106
1,7425556,441,-1326,-914,-1481,-297,-38,426,32,-106
1,7425562,441,-1326,-914,-1481,-297,-38,426,32,-106
1,7425568,441,-1326,-914,-1481,-297,-38,426,32,-106
1,7425576,442,-1327,-916,-1491,-295,-35,426,32,-106
1,7425584,442,-1327,-916,-1491,-295,-35,426,32,-106
1,7425590,442,-1327,-916,-1491,-295,-35,426,32,-106
1,7425597,441,-1327,-916,-1491,-301,-38,426,32,-106
1,7425603,441,-1327,-916,-1491,-301,-38,426,32,-106
1,7425611,441,-1326,-922,-1495,-304,-46,426,32,-106
1,7425617,441,-1326,-922,-1495,-304,-46,426,32,-106
1,7425624,441,-1326,-922,-1495,-304,-46,426,32,-106
1,7425632,444,-1325,-925,-1486,-299,-44,426,32,-106
1,7425638,444,-1325,-925,-1486,-299,-44,426,32,-106
1,7425646,444,-1325,-925,-1486,-299,-44,426,32,-106
1,7425653,446,-1325,-915,-1492,-300,-42,423,31,-109
1,7425658,446,-1325,-915,-1492,-300,-42,423,31,-109
1,7425662,446,-1325,-915,-1492,-300,-42,423,31,-109
1,7425669,446,-1325,-915,-1492,-300,-42,423,31,-109
1,7425674,445,-1325,-919,-1493,-304,-35,423,31,-109
1,7425679,445,-1325,-919,-1493,-304,-35,423,31,-109
1,7425684,445,-1325,-919,-1493,-304,-35,423,31,-109
1,7425691,445,-1325,-919,-1493,-304,-35,423,31,-109
1,7425698,439,-1324,-921,-1491,-307,-35,423,31,-109
1,7425703,439,-1324,-921,-1491,-307,-35,423,31,-109
1,7425709,439,-1324,-921,-1491,-307,-35,423,31,-109
1,7425714,442,-1324,-917,-1488,-300,-38,423,31,-109
1,7425719,442,-1324,-917,-1488,-300,-38,423,31,-109
1,7425724,442,-1324,-917,-1488,-300,-38,423,31,-109
1,7425729,442,-1324,-917,-1488,-300,-38,423,31,-109
1,7425735,443,-1326,-917,-1492,-304,-37,423,31,-109
1,7425742,443,-1326,-917,-1492,-304,-37,423,31,-109
1,7425751,443,-1326,-917,-1492,-304,-37,423,31,-109
1,7425756,443,-1324,-915,-1482,-302,-39,423,31,-109
1,7425764,443,-1324,-915,-1482,-302,-39,423,31,-109
1,7425771,443,-1324,-915,-1482,-302,-39,423,31,-109
1,7425778,448,-1324,-918,-1492,-302,-40,423,31,-109
1,7425785,448,-1324,-918,-1492,-302,-40,423,31,-109
1,7425793,446,-1322,-915,-1490,-307,-39,417,39,-103
1,7425799,446,-1322,-915,-1490,-307,-39,417,39,-103
1,7425805,446,-1322,-915,-1490,-307,-39,417,39,-103
1,7425813,439,-1325,-918,-1488,-308,-31,417,39,-103
1,7425821,439,-1325,-918,-1488,-308,-31,417,39,-103
1,7425828,439,-1325,-918,-1488,-308,-31,417,39,-103
1,7425835,445,-1326,-916,-1492,-304,-36,417,39,-103
1,7425842,445,-1326,-916,-1492,-304,-36,417,39,-103
1,7425848,445,-1326,-916,-1492,-304,-36,417,39,-103
1,7425855,439,-1326,-917,-1481,-302,-39,417,39,-103
1,7425863,439,-1326,-917,-1481,-302,-39,417,39,-103
1,7425869,439,-1326,-917,-1481,-302,-39,417,39,-103
1,7425875,447,-1325,-912,-1486,-301,-35,417,39,-103
1,7425883,447,-1325,-912,-1486,-301,-35,417,39,-103
1,7425889,447,-1325,-912,-1486,-301,-35,417,39,-103
1,7425897,444,-1324,-918,-1491,-305,-40,417,39,-103
1,7425904,444,-1324,-918,-1491,-305,-40,417,39,-103
1,7425912,450,-1325,-917,-1490,-304,-36,427,31,-117
1,7425920,450,-1325,-917,-1490,-304,-36,427,31,-117
1,7425926,450,-1325,-917,-1490,-304,-36,427,31,-117
1,7425932,448,-1327,-919,-1490,-300,-26,427,31,-117
1,7425940,448,-1327,-919,-1490,-300,-26,427,31,-117
1,7425946,448,-1327,-919,-1490,-300,-26,427,31,-117
1,7425953,445,-1323,-916,-1491,-297,-31,427,31,-117
1,7425961,445,-1323,-916,-1491,-297,-31,427,31,-117
1,7425968,445,-1323,-916,-1491,-297,-31,427,31,-117
1,7425973,440,-1323,-921,-1490,-300,-37,427,31,-117
1,7425981,440,-1323,-921,-1490,-300,-37,427,31,-117
1,7425988,440,-1323,-921,-1490,-300,-37,427,31,-117
1,7425996,442,-1322,-917,-1490,-300,-37,427,31,-117
1,7426002,442,-1322,-917,-1490,-300,-37,427,31,-117
1,7426011,442,-1322,-917,-1490,-300,-37,427,31,-117
1,7426017,437,-1321,-920,-1487,-308,-42,427,31,-117
1,7426023,437,-1321,-920,-1487,-308,-42,427,31,-117
1,7426031,437,-1321,-920,-1487,-308,-42,427,31,-117
1,7426037,443,-1323,-914,-1492,-305,-45,423,33,-105
1,7426043,443,-1323,-914,-1492,-305,-45,423,33,-105
1,7426050,443,-1323,-914,-1492,-305,-45,423,33,-105
1,7426054,446,-1328,-918,-1488,-311,-42,423,33,-105
1,7426062,446,-1328,-918,-1488,-311,-42,423,33,-105
1,7426069,446,-1328,-918,-1488,-311,-42,423,33,-105
1,7426074,447,-1323,-917,-1482,-306,-46,423,33,-105
1,7426081,447,-1323,-917,-1482,-306,-46,423,33,-105
1,7426089,447,-1323,-917,-1482,-306,-46,423,33,-105
1,7426096,449,-1324,-914,-1489,-304,-43,423,33,-105
1,7426102,449,-1324,-914,-1489,-304,-43,423,33,-105
1,7426108,449,-1324,-914,-1489,-304,-43,423,33,-105
1,7426115,448,-1325,-923,-1488,-308,-41,423,33,-105
1,7426123,448,-1325,-923,-1488,-308,-41,423,33,-105
1,7426131,440,-1325,-919,-1483,-304,-33,423,33,-105
1,7426140,440,-1325,-919,-1483,-304,-33,423,33,-105
1,7426147,440,-1325,-919,-1483,-304,-33,423,33,-105
1,7426154,438,-1328,-921,-1487,-302,-40,416,38,-108
1,7426161,438,-1328,-921,-1487,-302,-40,416,38,-108
1,7426168,438,-1328,-921,-1487,-302,-40,416,38,-108
1,7426173,443,-1325,-918,-1486,-302,-40,416,38,-108
1,7426182,443,-1325,-918,-1486,-302,-40,416,38,-108
1,7426189,443,-1325,-918,-1486,-302,-40,416,38,-108
1,7426194,443,-1324,-917,-1498,-301,-44,416,38,-108
1,7426201,443,-1324,-917,-1498,-301,-44,416,38,-108
1,7426210,443,-1324,-917,-1498,-301,-44,416,38,-108
1,7426217,445,-1322,-917,-1493,-297,-40,416,38,-108
1,7426224,445,-1322,-917,-1493,-297,-40,416,38,-108
1,7426232,445,-1323,-919,-1491,-305,-37,416,38,-108
1,7426241,445,-1323,-919,-1491,-305,-37,416,38,-108
1,7426249,445,-1323,-919,-1491,-305,-37,416,38,-108
1,7426256,444,-1324,-916,-1488,-305,-41,416,38,-108
1,7426263,444,-1324,-916,-1488,-305,-41,416,38,-108
1,7426271,444,-1324,-916,-1488,-305,-41,416,38,-108
1,7426278,445,-1325,-922,-1489,-302,-39,416,38,-108
1,7426285,445,-1325,-922,-1489,-302,-39,416,38,-108
1,7426291,445,-1325,-922,-1489,-302,-39,416,38,-108
1,7426298,442,-1324,-917,-1489,-300,-40,419,29,-119
1,7426307,442,-1324,-917,-1489,-300,-40,419,29,-119
1,7426314,440,-1327,-917,-1492,-299,-43,419,29,-119
1,7426321,440,-1327,-917,-1492,-299,-43,419,29,-119
1,7426327,440,-1327,-917,-1492,-299,-43,419,29,-119
1,7426335,444,-1325,-919,-1490,-298,-28,419,29,-119
1,7426341,444,-1325,-919,-1490,-298,-28,419,29,-119
1,7426350,444,-1325,-919,-1490,-298,-28,419,29,-119
1,7426357,446,-1325,-923,-1490,-299,-27,419,29,-119
1,7426365,446,-1325,-923,-1490,-299,-27,419,29,-119
1,7426371,449,-1323,-919,-1486,-303,-34,419,29,-119
1,7426378,449,-1323,-919,-1486,-303,-34,419,29,-119
1,7426385,449,-1323,-919,-1486,-303,-34,419,29,-119
1,7426395,447,-1324,-920,-1489,-294,-42,419,29,-119
1,7426408,447,-1324,-920,-1489,-294,-42,419,29,-119
1,7426423,444,-1324,-914,-1487,-302,-35,419,35,-113
1,7426437,439,-1327,-919,-1492,-293,-32,419,35,-113
1,7426445,439,-1327,-919,-1492,-293,-32,419,35,-113
1,7426457,440,-1327,-915,-1493,-294,-41,419,35,-113
1,7426471,442,-1326,-918,-1495,-291,-42,419,35,-113
1,7426487,442,-1326,-918,-1495,-291,-42,419,35,-113
1,7426495,445,-1325,-920,-1490,-299,-41,419,35,-113
1,7426508,445,-1325,-920,-1490,-299,-41,419,35,-113
1,7426522,447,-1321,-918,-1487,-300,-36,419,35,-113
1,7426535,447,-1323,-917,-1494,-303,-42,417,41,-113
1,7426545,447,-1323,-917,-1494,-303,-42,417,41,-113
1,7426556,447,-1326,-920,-1499,-311,-42,417,41,-113
1,7426570,447,-1326,-920,-1499,-311,-42,417,41,-113
1,7426583,441,-1326,-919,-1494,-306,-40,417,41,-113
1,7426594,439,-1326,-911,-1493,-307,-39,417,41,-113
1,7426606,439,-1326,-911,-1493,-307,-39,417,41,-113
1,7426615,440,-1324,-918,-1489,-301,-42,417,41,-113
1,7426623,440,-1324,-918,-1489,-301,-42,417,41,-113
1,7426631,440,-1324,-918,-1489,-301,-42,417,41,-113
1,7426640,441,-1325,-916,-1488,-304,-40,417,41,-113
1,7426651,441,-1325,-916,-1488,-304,-40,417,41,-113
1,7426658,443,-1325,-918,-1488,-301,-36,416,34,-108
1,7426666,443,-1325,-918,-1488,-301,-36,416,34,-108
1,7426673,447,-1324,-915,-1487,-304,-37,416,34,-108
1,7426683,447,-1324,-915,-1487,-304,-37,416,34,-108
1,7426695,446,-1323,-915,-1498,-305,-42,416,34,-108
1,7426704,446,-1323,-915,-1498,-305,-42,416,34,-108
1,7426712,441,-1326,-921,-1495,-303,-40,416,34,-108
1,7426720,441,-1326,-921,-1495,-303,-40,416,34,-108
1,7426728,441,-1326,-921,-1495,-303,-40,416,34,-108
1,7426737,441,-1326,-918,-1484,-301,-41,416,34,-108
1,7426745,441,-1326,-918,-1484,-301,-41,416,34,-108
1,7426753,443,-1325,-922,-1484,-302,-39,416,34,-108
1,7426761,443,-1325,-922,-1484,-302,-39,416,34,-108
1,7426769,443,-1325,-922,-1484,-302,-39,416,34,-108
1,7426778,441,-1327,-918,-1492,-298,-33,416,34,-108
1,7426786,441,-1327,-918,-1492,-298,-33,416,34,-108
1,7426793,441,-1327,-918,-1492,-298,-33,414,32,-118
1,7426801,441,-1327,-918,-1492,-298,-33,414,32,-118
1,7426809,441,-1327,-918,-1492,-298,-33,414,32,-118
1,7426818,446,-1324,-915,-1488,-302,-36,414,32,-118
1,7426826,446,-1324,-915,-1488,-302,-36,414,32,-118
1,7426839,447,-1323,-917,-1485,-301,-43,414,32,-118
1,7426852,444,-1326,-921,-1488,-305,-44,414,32,-118
1,7426864,444,-1326,-921,-1488,-305,-44,414,32,-118
1,7426877,444,-1325,-917,-1483,-301,-45,414,32,-118
1,7426888,444,-1325,-917,-1483,-301,-45,414,32,-118
1,7426903,443,-1326,-922,-1485,-300,-41,414,32,-118
1,7426913,439,-1326,-922,-1485,-305,-33,422,38,-110
1,7426924,439,-1326,-922,-1485,-305,-33,422,38,-110
1,7426938,445,-1324,-919,-1486,-303,-35,422,38,-110
1,7426951,445,-1324,-919,-1486,-303,-35,422,38,-110
1,7426963,443,-1326,-922,-1485,-305,-38,422,38,-110
1,7426976,449,-1325,-916,-1487,-304,-39,422,38,-110
1,7426990,449,-1325,-916,-1487,-304,-39,422,38,-110
1,7427003,448,-1326,-917,-1489,-308,-44,422,38,-110
1,7427014,439,-1328,-921,-1487,-306,-42,422,38,-110
1,7427027,439,-1328,-921,-1487,-306,-42,422,38,-110
1,7427040,440,-1324,-917,-1490,-303,-37,419,31,-119
1,7427053,444,-1325,-920,-1489,-303,-41,419,31,-119
1,7427063,444,-1325,-920,-1489,-303,-41,419,31,-119
1,7427078,442,-1327,-920,-1494,-303,-37,419,31,-119
1,7427090,442,-1327,-920,-1494,-303,-37,419,31,-119
1,7427098,446,-1325,-920,-1484,-304,-29,419,31,-119
1,7427110,446,-1325,-920,-1484,-304,-29,419,31,-119
1,7427124,448,-1325,-920,-1482,-302,-35,419,31,-119
1,7427132,449,-1324,-919,-1485,-304,-43,419,31,-119
1,7427144,449,-1324,-919,-1485,-304,-43,419,31,-119
1,7427160,442,-1324,-916,-1483,-303,-43,423,27,-113
1,7427173,443,-1326,-914,-1494,-301,-42,423,27,-113
1,7427182,443,-1326,-914,-1494,-301,-42,423,27,-113
1,7427192,443,-1324,-919,-1493,-303,-42,423,27,-113
1,7427207,443,-1324,-919,-1493,-303,-42,423,27,-113
1,7427218,445,-1325,-922,-1490,-300,-40,423,27,-113
1,7427231,445,-1325,-922,-1490,-300,-40,423,27,-113
1,7427245,448,-1323,-917,-1489,-308,-37,423,27,-113
1,7427257,450,-1324,-918,-1495,-307,-35,423,27,-113
1,7427269,450,-1324,-918,-1495,-307,-35,423,27,-113
1,7427281,450,-1326,-921,-1493,-304,-36,415,27,-107
1,7427293,448,-1324,-916,-1490,-304,-39,415,27,-107
1,7427303,448,-1324,-916,-1490,-304,-39,415,27,-107
1,7427310,448,-1324,-916,-1490,-304,-39,415,27,-107
1,7427318,441,-1327,-916,-1488,-303,-38,415,27,-107
1,7427329,441,-1327,-916,-1488,-303,-38,415,27,-107
1,7427341,443,-1326,-917,-1488,-306,-43,415,27,-107
1,7427353,439,-1324,-923,-1488,-305,-37,415,27,-107
1,7427365,439,-1324,-923,-1488,-305,-37,415,27,-107
1,7427379,446,-1324,-919,-1488,-302,-38,415,27,-107
1,7427391,446,-1324,-919,-1488,-302,-38,415,27,-107
1,7427399,445,-1322,-915,-1492,-308,-36,415,27,-107
1,7427406,445,-1322,-915,-1492,-308,-36,415,27,-107
1,7427412,447,-1326,-912,-1489,-308,-40,417,33,-115
1,7427421,447,-1326,-912,-1489,-308,-40,417,33,-115
1,7427426,447,-1326,-912,-1489,-308,-40,417,33,-115
1,7427431,447,-1326,-912,-1489,-308,-40,417,33,-115
1,7427439,443,-1322,-917,-1487,-306,-35,417,33,-115
1,7427446,443,-1322,-917,-1487,-306,-35,417,33,-115
1,7427453,443,-1326,-917,-1494,-307,-34,417,33,-115
1,7427460,443,-1326,-917,-1494,-307,-34,417,33,-115
1,7427468,443,-1326,-917,-1494,-307,-34,417,33,-115
1,7427474,445,-1326,-921,-1490,-303,-34,417,33,-115
1,7427481,445,-1326,-921,-1490,-303,-34,417,33,-115
1,7427486,445,-1326,-921,-1490,-303,-34,417,33,-115
1,7427494,442,-1324,-920,-1486,-308,-43,417,33,-115
1,7427501,442,-1324,-920,-1486,-308,-43,417,33,-115
1,7427508,442,-1324,-920,-1486,-308,-43,417,33,-115
1,7427514,446,-1326,-922,-1482,-307,-43,417,33,-115
1,7427522,446,-1326,-922,-1482,-307,-43,417,33,-115
1,7427530,446,-1326,-922,-1482,-307,-43,417,33,-115
1,7427538,446,-1325,-916,-1484,-301,-44,410,38,-110
1,7427547,446,-1325,-916,-1484,-301,-44,410,38,-110
1,7427554,445,-1324,-918,-1487,-300,-36,410,38,-110
1,7427561,445,-1324,-918,-1487,-300,-36,410,38,-110
1,7427568,445,-1324,-918,-1487,-300,-36,410,38,-110
1,7427574,444,-1325,-920,-1491,-302,-40,410,38,-110
1,7427581,444,-1325,-920,-1491,-302,-40,410,38,-110
1,7427589,444,-1325,-920,-1491,-302,-40,410,38,-110
1,7427597,443,-1326,-921,-1492,-301,-35,410,38,-110
1,7427605,443,-1326,-921,-1492,-301,-35,410,38,-110
1,7427611,443,-1326,-921,-1492,-301,-35,410,38,-110
1,7427618,442,-1327,-923,-1487,-299,-37,410,38,-110
1,7427627,442,-1327,-923,-1487,-299,-37,410,38,-110
1,7427634,442,-1326,-917,-1491,-303,-39,410,38,-110
1,7427640,442,-1326,-917,-1491,-303,-39,410,38,-110
1,7427646,442,-1326,-917,-1491,-303,-39,410,38,-110
1,7427653,444,-1329,-918,-1494,-302,-42,419,35,-115
1,7427658,444,-1329,-918,-1494,-302,-42,419,35,-115
1,7427663,444,-1329,-918,-1494,-302,-42,419,35,-115
1,7427668,444,-1329,-918,-1494,-302,-42,419,35,-115
1,7427674,448,-1325,-916,-1492,-298,-34,419,35,-115
1,7427679,448,-1325,-916,-1492,-298,-34,419,35,-115
1,7427684,448,-1325,-916,-1492,-298,-34,419,35,-115
1,7427690,448,-1325,-916,-1492,-298,-34,419,35,-115
1,7427696,450,-1323,-921,-1483,-297,-34,419,35,-115
1,7427701,450,-1323,-921,-1483,-297,-34,419,35,-115
1,7427706,450,-1323,-921,-1483,-297,-34,419,35,-115
1,7427712,446,-1324,-921,-1477,-298,-37,419,35,-115
1,7427717,446,-1324,-921,-1477,-298,-37,419,35,-115
1,7427722,446,-1324,-921,-1477,-298,-37,419,35,-115
1,7427727,446,-1324,-921,-1477,-298,-37,419,35,-115
1,7427732,441,-1325,-914,-1481,-297,-44,419,35,-115
1,7427738,441,-1325,-914,-1481,-297,-44,419,35,-115
1,7427744,441,-1325,-914,-1481,-297,-44,419,35,-115
1,7427749,441,-1325,-914,-1481,-297,-44,419,35,-115
1,7427756,445,-1325,-920,-1494,-293,-39,419,35,-115
1,7427762,445,-1325,-920,-1494,-293,-39,419,35,-115
1,7427767,445,-1325,-920,-1494,-293,-39,419,35,-115
1,7427772,439,-1320,-915,-1489,-302,-35,411,35,-109
1,7427778,439,-1320,-915,-1489,-302,-35,411,35,-109
1,7427784,439,-1320,-915,-1489,-302,-35,411,35,-109
1,7427789,439,-1320,-915,-1489,-302,-35,411,35,-109
1,7427795,445,-1324,-917,-1488,-304,-41,411,35,-109
1,7427801,445,-1324,-917,-1488,-304,-41,411,35,-109
1,7427807,445,-1324,-917,-1488,-304,-41,411,35,-109
1,7427813,447,-1326,-915,-1487,-304,-41,411,35,-109
1,7427819,447,-1326,-915,-1487,-304,-41,411,35,-109
1,7427824,447,-1326,-915,-1487,-304,-41,411,35,-109
1,7427830,447,-1326,-915,-1487,-304,-41,411,35,-109
1,7427836,447,-1323,-917,-1484,-303,-39,411,35,-109
1,7427842,447,-1323,-917,-1484,-303,-39,411,35,-109
1,7427848,447,-1323,-917,-1484,-303,-39,411,35,-109
1,7427853,443,-1325,-918,-1487,-308,-36,411,35,-109
1,7427860,443,-1325,-918,-1487,-308,-36,411,35,-109
1,7427866,443,-1325,-918,-1487,-308,-36,411,35,-109
1,7427871,443,-1325,-918,-1487,-308,-36,411,35,-109
1,7427876,446,-1324,-921,-1485,-308,-43,411,35,-109
1,7427881,446,-1324,-921,-1485,-308,-43,411,35,-109
1,7427889,446,-1324,-921,-1485,-308,-43,411,35,-109
1,7427897,442,-1328,-918,-1494,-309,-36,411,35,-109
1,7427902,442,-1328,-918,-1494,-309,-36,411,35,-109
1,7427909,442,-1328,-918,-1494,-309,-36,411,35,-109
1,7427915,439,-1325,-913,-1483,-307,-38,415,31,-111
1,7427923,439,-1325,-913,-1483,-307,-38,415,31,-111
1,7427931,439,-1325,-913,-1483,-307,-38,415,31,-111
1,7427938,440,-1325,-922,-1489,-309,-37,415,31,-111
1,7427944,440,-1325,-922,-1489,-309,-37,415,31,-111
1,7427950,440,-1325,-922,-1489,-309,-37,415,31,-111
1,7427958,442,-1325,-917,-1493,-310,-39,415,31,-111
1,7427965,442,-1325,-917,-1493,-310,-39,415,31,-111
1,7427975,444,-1322,-919,-1490,-304,-42,415,31,-111
1,7427982,444,-1322,-919,-1490,-304,-42,415,31,-111
1,7427989,444,-1322,-919,-1490,-304,-42,415,31,-111
1,7427995,446,-1324,-919,-1488,-309,-33,415,31,-111
1,7428000,446,-1324,-919,-1488,-309,-33,415,31,-111
1,7428008,446,-1324,-919,-1488,-309,-33,415,31,-111
1,7428017,448,-1326,-921,-1496,-305,-39,415,31,-111
1,7428024,448,-1326,-921,-1496,-305,-39,415,31,-111
1,7428031,448,-1326,-921,-1496,-305,-39,415,31,-111
1,7428037,442,-1327,-915,-1494,-301,-39,416,28,-110
1,7428045,442,-1327,-915,-1494,-301,-39,416,28,-110
1,7428052,443,-1327,-917,-1495,-307,-38,416,28,-110
1,7428060,443,-1327,-917,-1495,-307,-38,416,28,-110
1,7428067,443,-1327,-917,-1495,-307,-38,416,28,-110
1,7428075,442,-1324,-917,-1490,-299,-32,416,28,-110
1,7428082,442,-1324,-917,-1490,-299,-32,416,28,-110
1,7428090,442,-1324,-917,-1490,-299,-32,416,28,-110
1,7428099,440,-1326,-918,-1497,-302,-40,416,28,-110
1,7428104,440,-1326,-918,-1497,-302,-40,416,28,-110
1,7428111,440,-1326,-918,-1497,-302,-40,416,28,-110
1,7428119,443,-1326,-914,-1496,-298,-42,416,28,-110
1,7428125,443,-1326,-914,-1496,-298,-42,416,28,-110
1,7428131,445,-1326,-917,-1494,-300,-37,416,28,-110
1,7428139,445,-1326,-917,-1494,-300,-37,416,28,-110
1,7428146,445,-1326,-917,-1494,-300,-37,416,28,-110
1,7428152,444,-1325,-915,-1494,-301,-35,423,29,-113
1,7428159,444,-1325,-915,-1494,-301,-35,423,29,-113
1,7428166,444,-1325,-915,-1494,-301,-35,423,29,-113
1,7428174,441,-1327,-913,-1496,-304,-32,423,29,-113
1,7428182,441,-1327,-913,-1496,-304,-32,423,29,-113
1,7428189,441,-1327,-913,-1496,-304,-32,423,29,-113
1,7428196,445,-1324,-916,-1491,-301,-39,423,29,-113
1,7428204,445,-1324,-916,-1491,-301,-39,423,29,-113
1,7428210,445,-1324,-916,-1491,-301,-39,423,29,-113
1,7428217,438,-1323,-918,-1488,-303,-40,423,29,-113
1,7428226,438,-1323,-918,-1488,-303,-40,423,29,-113
1,7428235,439,-1325,-917,-1488,-304,-39,423,29,-113
1,7428241,439,-1325,-917,-1488,-304,-39,423,29,-113
1,7428248,439,-1325,-917,-1488,-304,-39,423,29,-113
1,7428254,443,-1326,-918,-1491,-310,-41,423,29,-113
1,7428260,443,-1326,-918,-1491,-310,-41,423,29,-113
1,7428268,443,-1326,-918,-1491,-310,-41,423,29,-113
1,7428274,443,-1325,-915,-1488,-303,-38,416,34,-120
1,7428281,443,-1325,-915,-1488,-303,-38,416,34,-120
1,7428288,443,-1325,-915,-1488,-303,-38,416,34,-120
1,7428295,448,-1324,-914,-1483,-305,-42,416,34,-120
1,7428301,448,-1324,-914,-1483,-305,-42,416,34,-120
1,7428310,448,-1324,-914,-1483,-305,-42,416,34,-120
1,7428316,444,-1328,-916,-1487,-301,-42,416,34,-120
1,7428324,444,-1328,-916,-1487,-301,-42,416,34,-120
1,7428329,444,-1328,-916,-1487,-301,-42,416,34,-120
1,7428334,438,-1326,-917,-1492,-293,-33,416,34,-120
1,7428342,438,-1326,-917,-1492,-293,-33,416,34,-120
1,7428348,438,-1326,-917,-1492,-293,-33,416,34,-120
1,7428356,440,-1325,-912,-1493,-298,-33,416,34,-120
1,7428363,440,-1325,-912,-1493,-298,-33,416,34,-120
1,7428370,440,-1325,-912,-1493,-298,-33,416,34,-120
1,7428375,438,-1322,-915,-1485,-300,-39,416,34,-120
1,7428380,438,-1322,-915,-1485,-300,-39,416,34,-120
1,7428385,438,-1322,-915,-1485,-300,-39,416,34,-120
1,7428390,438,-1322,-915,-1485,-300,-39,416,34,-120
1,7428396,444,-1322,-915,-1489,-311,-43,416,34,-120
1,7428401,444,-1322,-915,-1489,-311,-43,416,34,-120
1,7428409,444,-1322,-915,-1489,-311,-43,416,34,-120
1,7428417,446,-1322,-916,-1491,-310,-41,418,32,-104
1,7428425,446,-1322,-916,-1491,-310,-41,418,32,-104
1,7428433,446,-1324,-917,-1496,-306,-31,418,32,-104
1,7428442,446,-1324,-917,-1496,-306,-31,418,32,-104
1,7428450,446,-1324,-917,-1496,-306,-31,418,32,-104
1,7428458,444,-1325,-918,-1499,-305,-43,418,32,-104
1,7428467,444,-1325,-918,-1499,-305,-43,418,32,-104
1,7428475,440,-1328,-922,-1484,-300,-39,418,32,-104
1,7428484,440,-1328,-922,-1484,-300,-39,418,32,-104
1,7428492,440,-1328,-922,-1484,-300,-39,418,32,-104
1,7428500,440,-1325,-918,-1480,-306,-41,418,32,-104
1,7428509,440,-1325,-918,-1480,-306,-41,418,32,-104
1,7428517,439,-1324,-918,-1481,-306,-37,418,32,-104
1,7428526,439,-1324,-918,-1481,-306,-37,418,32,-104
1,7428533,439,-1325,-914,-1484,-307,-41,419,33,-109
1,7428541,439,-1325,-914,-1484,-307,-41,419,33,-109
1,7428549,439,-1325,-914,-1484,-307,-41,419,33,-109
1,7428557,442,-1327,-915,-1491,-301,-41,419,33,-109
1,7428566,442,-1327,-915,-1491,-301,-41,419,33,-109
1,7428575,443,-1324,-915,-1485,-302,-40,419,33,-109
1,7428583,443,-1324,-915,-1485,-302,-40,419,33,-109
1,7428591,443,-1324,-915,-1485,-302,-40,419,33,-109
1,7428599,445,-1325,-921,-1488,-308,-39,419,33,-109
1,7428608,445,-1325,-921,-1488,-308,-39,419,33,-109
1,7428616,442,-1324,-919,-1490,-300,-39,419,33,-109
1,7428624,442,-1324,-919,-1490,-300,-39,419,33,-109
1,7428632,442,-1324,-919,-1490,-300,-39,419,33,-109
1,7428640,437,-1327,-920,-1487,-302,-40,419,33,-109
1,7428647,437,-1327,-920,-1487,-302,-40,419,33,-109
1,7428657,437,-1325,-913,-1494,-302,-36,411,43,-105
1,7428665,437,-1325,-913,-1494,-302,-36,411,43,-105
1,7428673,441,-1324,-915,-1487,-312,-33,411,43,-105
1,7428684,441,-1324,-915,-1487,-312,-33,411,43,-105
1,7428691,441,-1324,-915,-1487,-312,-33,411,43,-105
1,7428700,445,-1327,-918,-1481,-308,-38,411,43,-105
1,7428708,445,-1327,-918,-1481,-308,-38,411,43,-105
1,7428716,443,-1324,-917,-1480,-302,-36,411,43,-105
1,7428724,443,-1324,-917,-1480,-302,-36,411,43,-105
1,7428732,441,-1325,-919,-1481,-299,-43,411,43,-105
1,7428740,441,-1325,-919,-1481,-299,-43,411,43,-105
1,7428747,441,-1325,-919,-1481,-299,-43,411,43,-105
1,7428755,440,-1326,-921,-1489,-298,-46,411,43,-105
1,7428762,440,-1326,-921,-1489,-298,-46,411,43,-105
1,7428770,440,-1326,-921,-1489,-298,-46,411,43,-105
1,7428779,440,-1323,-915,-1487,-300,-32,419,27,-117
1,7428787,440,-1323,-915,-1487,-300,-32,419,27,-117
1,7428795,440,-1325,-916,-1492,-298,-33,419,27,-117
1,7428802,440,-1325,-916,-1492,-298,-33,419,27,-117
1,7428809,440,-1325,-916,-1492,-298,-33,419,27,-117
1,7428817,442,-1325,-915,-1494,-304,-40,419,27,-117
1,7428825,442,-1325,-915,-1494,-304,-40,419,27,-117
1,7428833,442,-1327,-915,-1494,-307,-41,419,27,-117
1,7428841,442,-1327,-915,-1494,-307,-41,419,27,-117
1,7428849,442,-1327,-915,-1494,-307,-41,419,27,-117
1,7428856,441,-1322,-925,-1489,-299,-46,419,27,-117
1,7428864,441,-1322,-925,-1489,-299,-46,419,27,-117
1,7428871,441,-1322,-925,-1489,-299,-46,419,27,-117
1,7428879,444,-1326,-924,-1489,-299,-35,419,27,-117
1,7428886,444,-1326,-924,-1489,-299,-35,419,27,-117
1,7428894,443,-1324,-916,-1490,-293,-36,423,39,-111
1,7428902,443,-1324,-916,-1490,-293,-36,423,39,-111
1,7428910,443,-1324,-916,-1490,-293,-36,423,39,-111
1,7428917,439,-1324,-913,-1486,-303,-36,423,39,-111
1,7428924,439,-1324,-913,-1486,-303,-36,423,39,-111
1,7428933,437,-1329,-917,-1485,-312,-37,423,39,-111
1,7428941,437,-1329,-917,-1485,-312,-37,423,39,-111
1,7428950,437,-1329,-917,-1485,-312,-37,423,39,-111
1,7428958,436,-1323,-917,-1488,-306,-37,423,39,-111
1,7428966,436,-1323,-917,-1488,-306,-37,423,39,-111
1,7428973,437,-1324,-918,-1481,-295,-33,423,39,-111
1,7428981,437,-1324,-918,-1481,-295,-33,423,39,-111
1,7428988,437,-1324,-918,-1481,-295,-33,423,39,-111
1,7428997,445,-1320,-920,-1486,-305,-44,423,39,-111
1,7429005,445,-1320,-920,-1486,-305,-44,423,39,-111
1,7429012,445,-1325,-918,-1494,-307,-33,423,39,-111
1,7429019,445,-1325,-918,-1494,-307,-33,423,39,-111
1,7429027,445,-1325,-918,-1494,-307,-33,423,39,-111
1,7429035,445,-1327,-914,-1491,-306,-35,419,41,-105
1,7429045,445,-1327,-914,-1491,-306,-35,419,41,-105
1,7429053,442,-1326,-918,-1495,-300,-39,419,41,-105
1,7429060,442,-1326,-918,-1495,-300,-39,419,41,-105
1,7429067,442,-1326,-918,-1495,-300,-39,419,41,-105
1,7429075,438,-1325,-919,-1484,-305,-39,419,41,-105
1,7429083,438,-1325,-919,-1484,-305,-39,419,41,-105
1,7429090,438,-1325,-919,-1484,-305,-39,419,41,-105
1,7429097,439,-1324,-913,-1495,-306,-37,419,41,-105
1,7429105,439,-1324,-913,-1495,-306,-37,419,41,-105
1,7429112,439,-1325,-916,-1494,-308,-35,419,41,-105
1,7429122,439,-1325,-916,-1494,-308,-35,419,41,-105
1,7429128,439,-1325,-916,-1494,-308,-35,419,41,-105
1,7429135,440,-1325,-917,-1492,-305,-38,419,41,-105
1,7429143,440,-1325,-917,-1492,-305,-38,419,41,-105
1,7429150,440,-1325,-917,-1492,-305,-38,419,41,-105
1,7429158,443,-1324,-913,-1490,-303,-36,422,32,-118
1,7429166,443,-1324,-913,-1490,-303,-36,422,32,-118
1,7429173,445,-1324,-916,-1484,-303,-37,422,32,-118
1,7429181,445,-1324,-916,-1484,-303,-37,422,32,-118
1,7429188,445,-1324,-916,-1484,-303,-37,422,32,-118
1,7429196,445,-1325,-919,-1489,-298,-46,422,32,-118
1,7429203,445,-1325,-919,-1489,-298,-46,422,32,-118
1,7429212,445,-1325,-919,-1489,-298,-46,422,32,-118
1,7429220,442,-1322,-919,-1497,-305,-34,422,32,-118
1,7429229,442,-1322,-919,-1497,-305,-34,422,32,-118
1,7429237,439,-1326,-916,-1488,-303,-36,422,32,-118
1,7429245,439,-1326,-916,-1488,-303,-36,422,32,-118
1,7429254,435,-1325,-916,-1487,-300,-29,422,32,-118
1,7429262,435,-1325,-916,-1487,-300,-29,422,32,-118
1,7429272,435,-1325,-916,-1487,-300,-29,422,32,-118
1,7429281,441,-1323,-915,-1488,-304,-41,408,32,-102
1,7429291,441,-1323,-915,-1488,-304,-41,408,32,-102
1,7429300,444,-1321,-912,-1489,-306,-35,408,32,-102
1,7429310,444,-1321,-912,-1489,-306,-35,408,32,-102
1,7429323,446,-1324,-915,-1492,-311,-36,408,32,-102
1,7429336,444,-1326,-917,-1489,-306,-36,408,32,-102
1,7429349,444,-1326,-917,-1489,-306,-36,408,32,-102
1,7429359,445,-1326,-916,-1483,-302,-32,408,32,-102
1,7429371,445,-1326,-916,-1483,-302,-32,408,32,-102
1,7429383,442,-1327,-920,-1493,-300,-40,408,32,-102
1,7429397,440,-1326,-920,-1492,-298,-41,413,33,-123
1,7429408,440,-1326,-920,-1492,-298,-41,413,33,-123
1,7429415,440,-1327,-915,-1487,-298,-41,413,33,-123
1,7429422,440,-1327,-915,-1487,-298,-41,413,33,-123
1,7429429,440,-1327,-915,-1487,-298,-41,413,33,-123
1,7429436,440,-1328,-913,-1484,-298,-39,413,33,-123
1,7429442,440,-1328,-913,-1484,-298,-39,413,33,-123
1,7429449,440,-1328,-913,-1484,-298,-39,413,33,-123
1,7429457,445,-1323,-918,-1486,-302,-38,413,33,-123
1,7429465,445,-1323,-918,-1486,-302,-38,413,33,-123
1,7429471,445,-1323,-918,-1486,-302,-38,413,33,-123
1,7429477,442,-1324,-917,-1487,-303,-41,413,33,-123
1,7429483,442,-1324,-917,-1487,-303,-41,413,33,-123
1,7429490,442,-1324,-917,-1487,-303,-41,413,33,-123
1,7429496,442,-1325,-912,-1485,-308,-38,413,33,-123
1,7429502,442,-1325,-912,-1485,-308,-38,413,33,-123
1,7429508,442,-1325,-912,-1485,-308,-38,413,33,-123
1,7429515,438,-1326,-913,-1495,-304,-41,413,33,-123
1,7429522,438,-1326,-913,-1495,-304,-41,413,33,-123
1,7429529,438,-1326,-913,-1495,-304,-41,413,33,-123
1,7429534,437,-1326,-912,-1489,-307,-34,420,28,-110
1,7429540,437,-1326,-912,-1489,-307,-34,420,28,-110
1,7429549,437,-1326,-912,-1489,-307,-34,420,28,-110
1,7429555,437,-1327,-916,-1488,-303,-38,420,28,-110
1,7429562,437,-1327,-916,-1488,-303,-38,420,28,-110
1,7429567,437,-1327,-916,-1488,-303,-38,420,28,-110
1,7429574,441,-1325,-914,-1497,-305,-38,420,28,-110
1,7429582,441,-1325,-914,-1497,-305,-38,420,28,-110
1,7429590,441,-1325,-914,-1497,-305,-38,420,28,-110
1,7429597,444,-1328,-917,-1485,-311,-36,420,28,-110
1,7429604,444,-1328,-917,-1485,-311,-36,420,28,-110
1,7429612,444,-1328,-917,-1485,-311,-36,420,28,-110
1,7429618,446,-1324,-916,-1497,-304,-37,420,28,-110
1,7429625,446,-1324,-916,-1497,-304,-37,420,28,-110
1,7429633,439,-1325,-920,-1486,-308,-41,420,28,-110
1,7429640,439,-1325,-920,-1486,-308,-41,420,28,-110
1,7429645,439,-1325,-920,-1486,-308,-41,420,28,-110
1,7429653,438,-1325,-912,-1488,-302,-41,427,27,-115
1,7429658,438,-1325,-912,-1488,-302,-41,427,27,-115
1,7429663,438,-1325,-912,-1488,-302,-41,427,27,-115
1,7429668,438,-1325,-912,-1488,-302,-41,427,27,-115
1,7429675,437,-1326,-913,-1486,-304,-39,427,27,-115
1,7429680,437,-1326,-913,-1486,-304,-39,427,27,-115
1,7429684,437,-1326,-913,-1486,-304,-39,427,27,-115
1,7429691,437,-1326,-913,-1486,-304,-39,427,27,-115
1,7429698,438,-1324,-915,-1494,-307,-41,427,27,-115
1,7429703,438,-1324,-915,-1494,-307,-41,427,27,-115
1,7429707,438,-1324,-915,-1494,-307,-41,427,27,-115
1,7429713,438,-1327,-915,-1487,-304,-38,427,27,-115
1,7429719,438,-1327,-915,-1487,-304,-38,427,27,-115
1,7429724,438,-1327,-915,-1487,-304,-38,427,27,-115
1,7429729,438,-1327,-915,-1487,-304,-38,427,27,-115
1,7429734,441,-1324,-915,-1489,-302,-36,427,27,-115
1,7429741,441,-1324,-915,-1489,-302,-36,427,27,-115
1,7429748,441,-1324,-915,-1489,-302,-36,427,27,-115
1,7429754,445,-1326,-918,-1493,-307,-38,427,27,-115
1,7429761,445,-1326,-918,-1493,-307,-38,427,27,-115
1,7429768,445,-1326,-918,-1493,-307,-38,427,27,-115
1,7429776,442,-1325,-915,-1496,-303,-42,421,37,-105
1,7429782,442,-1325,-915,-1496,-303,-42,421,37,-105
1,7429789,442,-1325,-915,-1496,-303,-42,421,37,-105
1,7429796,438,-1326,-914,-1488,-305,-40,421,37,-105
1,7429805,438,-1326,-914,-1488,-305,-40,421,37,-105
1,7429810,438,-1326,-914,-1488,-305,-40,421,37,-105
1,7429818,438,-1325,-914,-1488,-304,-39,421,37,-105
1,7429824,438,-1325,-914,-1488,-304,-39,421,37,-105
1,7429829,438,-1325,-914,-1488,-304,-39,421,37,-105
1,7429836,437,-1325,-912,-1483,-304,-37,421,37,-105
1,7429843,437,-1325,-912,-1483,-304,-37,421,37,-105
1,7429852,437,-1325,-912,-1483,-304,-37,421,37,-105
1,7429859,441,-1327,-915,-1484,-301,-37,421,37,-105
1,7429867,441,-1327,-915,-1484,-301,-37,421,37,-105
1,7429874,437,-1324,-910,-1494,-305,-35,421,37,-105
1,7429878,437,-1324,-910,-1494,-305,-35,421,37,-105
1,7429885,437,-1324,-910,-1494,-305,-35,421,37,-105
1,7429892,437,-1324,-910,-1494,-305,-35,421,37,-105
1,7429897,442,-1327,-912,-1490,-307,-35,426,32,-110
1,7429904,442,-1327,-912,-1490,-307,-35,426,32,-110
1,7429910,442,-1327,-912,-1490,-307,-35,426,32,-110
1,7429918,442,-1322,-915,-1488,-304,-42,426,32,-110
1,7429925,442,-1322,-915,-1488,-304,-42,426,32,-110
1,7429932,442,-1322,-915,-1488,-304,-42,426,32,-110
1,7429939,439,-1324,-915,-1489,-300,-41,426,32,-110
1,7429946,439,-1324,-915,-1489,-300,-41,426,32,-110
1,7429952,439,-1324,-915,-1489,-300,-41,426,32,-110
1,7429959,439,-1323,-918,-1488,-297,-41,426,32,-110
1,7429966,439,-1323,-918,-1488,-297,-41,426,32,-110
1,7429975,437,-1324,-916,-1486,-298,-37,426,32,-110
1,7429982,437,-1324,-916,-1486,-298,-37,426,32,-110
1,7429990,437,-1324,-916,-1486,-298,-37,426,32,-110
1,7429997,440,-1324,-917,-1490,-296,-38,426,32,-110
1,7430004,440,-1324,-917,-1490,-296,-38,426,32,-110
1,7430011,440,-1324,-917,-1490,-296,-38,426,32,-110
1,7430019,441,-1325,-919,-1484,-297,-45,426,32,-110
1,7430026,441,-1325,-919,-1484,-297,-45,426,32,-110
1,7430035,442,-1325,-914,-1488,-309,-38,419,35,-107
1,7430041,442,-1325,-914,-1488,-309,-38,419,35,-107
1,7430047,442,-1325,-914,-1488,-309,-38,419,35,-107
1,7430053,442,-1325,-919,-1491,-306,-40,419,35,-107
1,7430061,442,-1325,-919,-1491,-306,-40,419,35,-107
1,7430069,442,-1325,-919,-1491,-306,-40,419,35,-107
1,7430077,439,-1326,-914,-1486,-305,-48,419,35,-107
1,7430085,439,-1326,-914,-1486,-305,-48,419,35,-107
1,7430093,437,-1326,-912,-1483,-309,-40,419,35,-107
1,7430100,437,-1326,-912,-1483,-309,-40,419,35,-107
1,7430108,437,-1326,-912,-1483,-309,-40,419,35,-107
1,7430114,435,-1326,-915,-1489,-305,-43,419,35,-107
1,7430121,435,-1326,-915,-1489,-305,-43,419,35,-107
1,7430128,435,-1326,-915,-1489,-305,-43,419,35,-107
1,7430136,435,-1325,-920,-1492,-300,-36,419,35,-107
1,7430142,435,-1325,-920,-1492,-300,-36,419,35,-107
1,7430150,435,-1325,-920,-1492,-300,-36,419,35,-107
1,7430156,437,-1324,-916,-1486,-295,-42,416,30,-106
1,7430164,437,-1324,-916,-1486,-295,-42,416,30,-106
1,7430170,437,-1324,-916,-1486,-295,-42,416,30,-106
1,7430177,438,-1327,-916,-1487,-304,-35,416,30,-106
1,7430185,438,-1327,-916,-1487,-304,-35,416,30,-106
1,7430193,438,-1327,-916,-1487,-304,-35,416,30,-106
1,7430199,442,-1326,-918,-1486,-299,-35,416,30,-106
1,7430206,442,-1326,-918,-1486,-299,-35,416,30,-106
1,7430212,442,-1326,-918,-1486,-299,-35,416,30,-106
1,7430220,439,-1323,-914,-1480,-308,-34,416,30,-106
1,7430228,439,-1323,-914,-1480,-308,-34,416,30,-106
1,7430235,441,-1323,-912,-1484,-299,-40,416,30,-106
1,7430243,441,-1323,-912,-1484,-299,-40,416,30,-106
1,7430248,441,-1323,-912,-1484,-299,-40,416,30,-106
1,7430255,441,-1329,-920,-1486,-304,-43,416,30,-106
1,7430263,441,-1329,-920,-1486,-304,-43,416,30,-106
1,7430269,441,-1329,-920,-1486,-304,-43,416,30,-106
1,7430276,435,-1323,-911,-1486,-300,-42,413,41,-113
1,7430282,435,-1323,-911,-1486,-300,-42,413,41,-113
1,7430289,435,-1323,-911,-1486,-300,-42,413,41,-113
1,7430295,441,-1325,-911,-1488,-297,-31,413,41,-113
1,7430303,441,-1325,-911,-1488,-297,-31,413,41,-113
1,7430310,441,-1325,-911,-1488,-297,-31,413,41,-113
1,7430319,438,-1329,-914,-1489,-295,-29,413,41,-113
1,7430326,438,-1329,-914,-1489,-295,-29,413,41,-113
1,7430331,438,-1329,-914,-1489,-295,-29,413,41,-113
1,7430339,439,-1323,-914,-1486,-294,-32,413,41,-113
1,7430346,439,-1323,-914,-1486,-294,-32,413,41,-113
1,7430353,441,-1323,-916,-1488,-303,-34,413,41,-113
1,7430362,441,-1323,-916,-1488,-303,-34,413,41,-113
1,7430370,441,-1323,-916,-1488,-303,-34,413,41,-113
1,7430377,440,-1325,-915,-1481,-296,-39,413,41,-113
1,7430384,440,-1325,-915,-1481,-296,-39,413,41,-113
1,7430390,440,-1325,-915,-1481,-296,-39,413,41,-113
1,7430398,440,-1323,-915,-1483,-300,-39,425,37,-115
1,7430405,440,-1323,-915,-1483,-300,-39,425,37,-115
1,7430413,438,-1324,-912,-1478,-305,-39,425,37,-115
1,7430426,438,-1324,-912,-1478,-305,-39,425,37,-115
1,7430439,437,-1325,-912,-1482,-300,-46,425,37,-115
1,7430452,437,-1325,-912,-1482,-300,-46,425,37,-115
1,7430465,438,-1323,-913,-1482,-300,-37,425,37,-115
1,7430478,441,-1324,-919,-1489,-307,-42,425,37,-115
1,7430494,444,-1326,-920,-1490,-306,-46,425,37,-115
1,7430507,444,-1326,-920,-1490,-306,-46,425,37,-115
1,7430516,442,-1324,-919,-1496,-309,-42,419,35,-115
1,7430528,442,-1324,-919,-1496,-309,-42,419,35,-115
1,7430540,440,-1323,-912,-1485,-295,-39,419,35,-115
1,7430554,437,-1323,-916,-1488,-301,-34,419,35,-115
1,7430564,437,-1323,-916,-1488,-301,-34,419,35,-115
1,7430580,440,-1324,-914,-1485,-302,-34,419,35,-115
1,7430592,440,-1324,-914,-1485,-302,-34,419,35,-115
1,7430606,442,-1323,-918,-1484,-301,-41,419,35,-115
1,7430619,442,-1325,-919,-1483,-299,-43,419,35,-115
1,7430632,442,-1325,-919,-1483,-299,-43,419,35,-115
1,7430644,438,-1323,-920,-1484,-299,-45,419,35,-115
1,7430653,437,-1325,-917,-1490,-301,-50,418,38,-108
1,7430662,437,-1325,-917,-1490,-301,-50,418,38,-108
1,7430670,437,-1325,-917,-1490,-301,-50,418,38,-108
1,7430677,439,-1327,-915,-1494,-309,-41,418,38,-108
1,7430687,439,-1327,-915,-1494,-309,-41,418,38,-108
1,7430697,441,-1324,-917,-1486,-308,-38,418,38,-108
1,7430706,441,-1324,-917,-1486,-308,-38,418,38,-108
1,7430714,440,-1324,-915,-1488,-303,-36,418,38,-108
1,7430722,440,-1324,-915,-1488,-303,-36,418,38,-108
1,7430729,440,-1324,-915,-1488,-303,-36,418,38,-108
1,7430737,443,-1325,-919,-1487,-298,-34,418,38,-108
1,7430747,443,-1325,-919,-1487,-298,-34,418,38,-108
1,7430755,441,-1324,-918,-1487,-302,-27,418,38,-108
1,7430762,441,-1324,-918,-1487,-302,-27,418,38,-108
1,7430770,441,-1324,-918,-1487,-302,-27,418,38,-108
1,7430778,444,-1326,-910,-1494,-301,-38,422,28,-110
1,7430787,444,-1326,-910,-1494,-301,-38,422,28,-110
1,7430795,437,-1325,-919,-1488,-301,-31,422,28,-110
1,7430803,437,-1325,-919,-1488,-301,-31,422,28,-110
1,7430812,437,-1325,-919,-1488,-301,-31,422,28,-110
1,7430819,441,-1323,-912,-1491,-301,-39,422,28,-110
1,7430828,441,-1323,-912,-1491,-301,-39,422,28,-110
1,7430835,437,-1325,-916,-1494,-305,-42,422,28,-110
1,7430844,437,-1325,-916,-1494,-305,-42,422,28,-110
1,7430852,437,-1325,-916,-1494,-305,-42,422,28,-110
1,7430862,440,-1326,-918,-1492,-308,-42,422,28,-110
1,7430873,440,-1326,-918,-1492,-308,-42,422,28,-110
1,7430882,445,-1323,-918,-1484,-308,-34,422,28,-110
1,7430892,445,-1323,-918,-1484,-308,-34,422,28,-110
1,7430902,444,-1324,-919,-1479,-302,-34,422,42,-116
1,7430914,444,-1324,-919,-1479,-302,-34,422,42,-116
1,7430928,444,-1324,-919,-1479,-302,-34,422,42,-116
1,7430936,443,-1323,-921,-1495,-303,-35,422,42,-116
1,7430948,443,-1323,-921,-1495,-303,-35,422,42,-116
1,7430961,439,-1324,-914,-1484,-309,-44,422,42,-116
1,7430974,438,-1324,-917,-1492,-306,-43,422,42,-116
1,7430986,438,-1324,-917,-1492,-306,-43,422,42,-116
1,7431000,438,-1326,-922,-1488,-303,-40,422,42,-116
1,7431012,438,-1326,-922,-1488,-303,-40,422,42,-116
1,7431023,443,-1326,-914,-1495,-305,-40,412,38,-110
1,7431033,443,-1323,-919,-1487,-306,-39,412,38,-110
1,7431048,443,-1323,-919,-1487,-306,-39,412,38,-110
1,7431062,443,-1323,-919,-1487,-306,-39,412,38,-110
1,7431070,443,-1323,-919,-1487,-306,-39,412,38,-110
1,7431083,443,-1322,-919,-1494,-304,-35,412,38,-110
1,7431097,444,-1322,-917,-1493,-299,-36,412,38,-110
1,7431111,444,-1322,-917,-1493,-299,-36,412,38,-110
1,7431119,441,-1324,-916,-1489,-305,-32,412,38,-110
1,7431133,441,-1324,-916,-1489,-305,-32,412,38,-110
1,7431145,436,-1326,-919,-1486,-304,-41,412,38,-110
1,7431158,441,-1323,-914,-1493,-299,-37,413,29,-117
1,7431169,441,-1323,-914,-1493,-299,-37,413,29,-117
1,7431180,441,-1326,-915,-1494,-301,-34,413,29,-117
1,7431192,441,-1326,-915,-1494,-301,-34,413,29,-117
1,7431205,445,-1324,-913,-1491,-306,-37,413,29,-117
1,7431218,443,-1322,-924,-1483,-303,-40,413,29,-117
1,7431230,443,-1322,-924,-1483,-303,-40,413,29,-117
1,7431240,440,-1326,-918,-1485,-305,-32,413,29,-117
1,7431250,440,-1326,-918,-1485,-305,-32,413,29,-117
1,7431265,438,-1323,-919,-1490,-298,-34,413,29,-117
1,7431277,439,-1323,-914,-1491,-304,-34,406,34,-112
1,7431286,439,-1323,-914,-1491,-304,-34,406,34,-112
1,7431299,441,-1324,-920,-1491,-308,-37,406,34,-112
1,7431315,441,-1325,-919,-1485,-300,-35,406,34,-112
1,7431329,441,-1325,-919,-1485,-300,-35,406,34,-112
1,7431337,444,-1326,-919,-1485,-299,-30,406,34,-112
1,7431351,444,-1326,-919,-1485,-299,-30,406,34,-112
1,7431364,446,-1323,-914,-1491,-305,-41,406,34,-112
1,7431377,447,-1325,-921,-1489,-296,-40,406,34,-112
1,7431388,447,-1325,-921,-1489,-296,-40,406,34,-112
1,7431398,445,-1323,-919,-1488,-296,-33,419,33,-109
1,7431406,445,-1323,-919,-1488,-296,-33,419,33,-109
1,7431414,440,-1323,-917,-1481,-303,-34,419,33,-109
1,7431422,440,-1323,-917,-1481,-303,-34,419,33,-109
1,7431430,440,-1323,-917,-1481,-303,-34,419,33,-109
1,7431435,439,-1322,-912,-1489,-294,-36,419,33,-109
1,7431443,439,-1322,-912,-1489,-294,-36,419,33,-109
1,7431451,439,-1322,-912,-1489,-294,-36,419,33,-109
1,7431458,440,-1324,-919,-1489,-297,-40,419,33,-109
1,7431467,440,-1324,-919,-1489,-297,-40,419,33,-109
1,7431473,440,-1324,-919,-1489,-297,-40,419,33,-109
1,7431479,443,-1323,-918,-1486,-300,-38,419,33,-109
1,7431485,443,-1323,-918,-1486,-300,-38,419,33,-109
1,7431493,445,-1322,-918,-1487,-307,-38,419,33,-109
1,7431499,445,-1322,-918,-1487,-307,-38,419,33,-109
1,7431504,445,-1322,-918,-1487,-307,-38,419,33,-109
1,7431514,443,-1325,-919,-1488,-306,-37,422,28,-112
1,7431521,443,-1325,-919,-1488,-306,-37,422,28,-112
1,7431527,443,-1325,-919,-1488,-306,-37,422,28,-112
1,7431533,446,-1325,-914,-1486,-302,-45,422,28,-112
1,7431538,446,-1325,-914,-1486,-302,-45,422,28,-112
1,7431545,446,-1325,-914,-1486,-302,-45,422,28,-112
1,7431553,446,-1325,-914,-1486,-302,-45,422,28,-112
1,7431561,442,-1324,-925,-1482,-303,-39,422,28,-112
1,7431567,442,-1324,-925,-1482,-303,-39,422,28,-112
1,7431572,442,-1324,-925,-1482,-303,-39,422,28,-112
1,7431580,440,-1324,-922,-1491,-301,-50,422,28,-112
1,7431587,440,-1324,-922,-1491,-301,-50,422,28,-112
1,7431595,439,-1325,-923,-1488,-303,-39,422,28,-112
1,7431602,439,-1325,-923,-1488,-303,-39,422,28,-112
1,7431609,439,-1325,-923,-1488,-303,-39,422,28,-112
1,7431616,442,-1322,-922,-1486,-299,-36,422,28,-112
1,7431623,442,-1322,-922,-1486,-299,-36,422,28,-112
1,7431630,442,-1322,-922,-1486,-299,-36,422,28,-112
1,7431636,442,-1328,-920,-1490,-302,-39,422,28,-112
1,7431644,442,-1328,-920,-1490,-302,-39,422,28,-112
1,7431649,442,-1328,-920,-1490,-302,-39,422,28,-112
1,7431655,445,-1325,-921,-1486,-302,-39,414,42,-104
1,7431660,445,-1325,-921,-1486,-302,-39,414,42,-104
1,7431666,445,-1325,-921,-1486,-302,-39,414,42,-104
1,7431671,445,-1325,-921,-1486,-302,-39,414,42,-104
1,7431676,444,-1326,-917,-1490,-306,-37,414,42,-104
1,7431682,444,-1326,-917,-1490,-306,-37,414,42,-104
1,7431690,444,-1326,-917,-1490,-306,-37,414,42,-104
1,7431696,447,-1324,-918,-1489,-299,-34,414,42,-104
1,7431701,447,-1324,-918,-1489,-299,-34,414,42,-104
1,7431706,447,-1324,-918,-1489,-299,-34,414,42,-104
1,7431711,447,-1324,-918,-1489,-299,-34,414,42,-104
1,7431716,444,-1325,-917,-1485,-297,-40,414,42,-104
1,7431721,444,-1325,-917,-1485,-297,-40,414,42,-104
1,7431727,444,-1325,-917,-1485,-297,-40,414,42,-104
1,7431733,444,-1325,-917,-1485,-297,-40,414,42,-104
1,7431738,441,-1326,-918,-1489,-302,-38,414,42,-104
1,7431745,441,-1326,-918,-1489,-302,-38,414,42,-104
1,7431752,441,-1326,-918,-1489,-302,-38,414,42,-104
1,7431759,441,-1324,-918,-1485,-303,-37,414,42,-104
1,7431767,441,-1324,-918,-1485,-303,-37,414,42,-104
1,7431774,446,-1326,-913,-1488,-304,-32,412,34,-112
1,7431781,446,-1326,-913,-1488,-304,-32,412,34,-112
1,7431787,446,-1326,-913,-1488,-304,-32,412,34,-112
1,7431794,441,-1327,-918,-1483,-297,-33,412,34,-112
1,7431802,441,-1327,-918,-1483,-297,-33,412,34,-112
1,7431811,441,-1327,-918,-1483,-297,-33,412,34,-112
1,7431818,444,-1321,-916,-1487,-293,-35,412,34,-112
1,7431824,444,-1321,-916,-1487,-293,-35,412,34,-112
1,7431831,444,-1321,-916,-1487,-293,-35,412,34,-112
1,7431839,443,-1324,-919,-1491,-301,-38,412,34,-112
1,7431846,443,-1324,-919,-1491,-301,-38,412,34,-112
1,7431853,443,-1324,-919,-1491,-301,-38,412,34,-112
1,7431861,442,-1326,-921,-1493,-305,-38,412,34,-112
1,7431868,442,-1326,-921,-1493,-305,-38,412,34,-112
1,7431875,442,-1326,-923,-1487,-306,-36,412,34,-112
1,7431882,442,-1326,-923,-1487,-306,-36,412,34,-112
1,7431887,442,-1326,-923,-1487,-306,-36,412,34,-112
1,7431892,442,-1326,-923,-1487,-306,-36,412,34,-112
1,7431899,444,-1324,-916,-1486,-304,-39,415,37,-101
1,7431904,444,-1324,-916,-1486,-304,-39,415,37,-101
1,7431911,444,-1324,-916,-1486,-304,-39,415,37,-101
1,7431919,440,-1326,-915,-1488,-305,-36,415,37,-101
1,7431925,440,-1326,-915,-1488,-305,-36,415,37,-101
1,7431932,440,-1326,-915,-1488,-305,-36,415,37,-101
1,7431938,441,-1327,-919,-1490,-303,-38,415,37,-101
1,7431946,441,-1327,-919,-1490,-303,-38,415,37,-101
1,7431952,441,-1327,-919,-1490,-303,-38,415,37,-101
1,7431958,442,-1327,-923,-1487,-307,-36,415,37,-101
1,7431966,442,-1327,-923,-1487,-307,-36,415,37,-101
1,7431973,443,-1328,-921,-1483,-302,-47,415,37,-101
1,7431981,443,-1328,-921,-1483,-302,-47,415,37,-101
1,7431987,443,-1328,-921,-1483,-302,-47,415,37,-101
1,7431995,442,-1322,-923,-1497,-300,-35,415,37,-101
1,7432001,442,-1322,-923,-1497,-300,-35,415,37,-101
1,7432008,442,-1322,-923,-1497,-300,-35,415,37,-101
1,7432015,441,-1323,-915,-1491,-300,-44,415,33,-111
1,7432022,441,-1323,-915,-1491,-300,-44,415,33,-111
1,7432030,441,-1323,-915,-1491,-300,-44,415,33,-111
1,7432037,438,-1325,-921,-1490,-305,-43,415,33,-111
1,7432045,438,-1325,-921,-1490,-305,-43,415,33,-111
1,7432051,438,-1325,-921,-1490,-305,-43,415,33,-111
1,7432059,441,-1324,-920,-1493,-304,-45,415,33,-111
1,7432066,441,-1324,-920,-1493,-304,-45,415,33,-111
1,7432072,441,-1324,-920,-1493,-304,-45,415,33,-111
1,7432079,442,-1325,-919,-1487,-308,-50,415,33,-111
1,7432088,442,-1325,-919,-1487,-308,-50,415,33,-111
1,7432094,445,-1325,-919,-1486,-310,-46,415,33,-111
1,7432101,445,-1325,-919,-1486,-310,-46,415,33,-111
1,7432107,445,-1325,-919,-1486,-310,-46,415,33,-111
1,7432115,447,-1327,-920,-1491,-298,-40,415,33,-111
1,7432122,447,-1327,-920,-1491,-298,-40,415,33,-111
1,7432130,447,-1327,-920,-1491,-298,-40,415,33,-111
1,7432138,443,-1326,-916,-1495,-301,-39,415,33,-111
1,7432144,443,-1326,-916,-1495,-301,-39,415,33,-111
1,7432152,443,-1326,-916,-1495,-301,-39,415,33,-111
1,7432158,440,-1328,-919,-1489,-304,-36,419,39,-105
1,7432165,440,-1328,-919,-1489,-304,-36,419,39,-105
1,7432171,440,-1328,-919,-1489,-304,-36,419,39,-105
1,7432180,441,-1326,-916,-1491,-303,-38,419,39,-105
1,7432187,441,-1326,-916,-1491,-303,-38,419,39,-105
1,7432195,439,-1325,-915,-1492,-300,-39,419,39,-105
1,7432201,439,-1325,-915,-1492,-300,-39,419,39,-105
1,7432208,439,-1325,-915,-1492,-300,-39,419,39,-105
1,7432216,442,-1326,-920,-1492,-290,-37,419,39,-105
1,7432222,442,-1326,-920,-1492,-290,-37,419,39,-105
1,7432231,442,-1326,-920,-1492,-290,-37,419,39,-105
1,7432238,442,-1326,-920,-1492,-290,-37,419,39,-105
1,7432246,442,-1326,-920,-1492,-290,-37,419,39,-105
1,7432253,441,-1325,-922,-1489,-299,-44,419,39,-105
1,7432261,441,-1325,-922,-1489,-299,-44,419,39,-105
1,7432267,441,-1325,-922,-1489,-299,-44,419,39,-105
1,7432275,447,-1323,-914,-1489,-300,-47,419,37,-111
1,7432282,447,-1323,-914,-1489,-300,-47,419,37,-111
1,7432288,447,-1323,-914,-1489,-300,-47,419,37,-111
1,7432296,445,-1326,-919,-1494,-302,-40,419,37,-111
1,7432303,445,-1326,-919,-1494,-302,-40,419,37,-111
1,7432310,445,-1326,-919,-1494,-302,-40,419,37,-111
1,7432316,440,-1324,-921,-1490,-301,-41,419,37,-111
1,7432325,440,-1324,-921,-1490,-301,-41,419,37,-111
1,7432332,440,-1324,-921,-1490,-301,-41,419,37,-111
1,7432338,442,-1326,-921,-1476,-300,-35,419,37,-111
1,7432346,442,-1326,-921,-1476,-300,-35,419,37,-111
1,7432352,442,-1326,-921,-1476,-300,-35,419,37,-111
1,7432359,442,-1326,-918,-1487,-296,-39,419,37,-111
1,7432367,442,-1326,-918,-1487,-296,-39,419,37,-111
1,7432373,442,-1326,-918,-1487,-296,-39,419,37,-111
1,7432381,443,-1326,-918,-1489,-302,-38,419,37,-111
1,7432389,443,-1326,-918,-1489,-302,-38,419,37,-111
1,7432398,440,-1328,-914,-1490,-304,-40,424,34,-104
1,7432406,440,-1328,-914,-1490,-304,-40,424,34,-104
1,7432413,440,-1328,-914,-1490,-304,-40,424,34,-104
1,7432419,445,-1326,-920,-1495,-304,-44,424,34,-104
1,7432425,445,-1326,-920,-1495,-304,-44,424,34,-104
1,7432430,445,-1326,-920,-1495,-304,-44,424,34,-104
1,7432440,444,-1326,-923,-1483,-304,-45,424,34,-104
1,7432453,444,-1326,-923,-1483,-304,-45,424,34,-104
1,7432464,441,-1326,-920,-1491,-306,-47,424,34,-104
1,7432475,442,-1325,-920,-1494,-300,-42,424,34,-104
1,7432489,442,-1325,-920,-1494,-300,-42,424,34,-104
1,7432502,446,-1326,-922,-1488,-301,-42,424,34,-104
1,7432513,442,-1324,-916,-1490,-300,-46,424,34,-104
1,7432526,442,-1324,-916,-1490,-300,-46,423,31,-103
1,7432540,445,-1326,-913,-1487,-300,-42,423,31,-103
1,7432552,445,-1326,-913,-1487,-300,-42,423,31,-103
1,7432565,443,-1325,-915,-1493,-310,-35,423,31,-103
1,7432580,445,-1324,-916,-1489,-310,-41,423,31,-103
1,7432592,445,-1324,-916,-1489,-310,-41,423,31,-103
1,7432606,445,-1324,-918,-1494,-308,-45,423,31,-103
1,7432619,442,-1322,-922,-1498,-307,-41,423,31,-103
1,7432632,442,-1322,-922,-1498,-307,-41,423,31,-103
1,7432643,440,-1321,-914,-1491,-299,-48,414,34,-114
1,7432654,443,-1325,-919,-1493,-301,-45,414,34,-114
1,7432663,443,-1325,-919,-1493,-301,-45,414,34,-114
1,7432671,443,-1325,-919,-1493,-301,-45,414,34,-114
1,7432679,444,-1324,-920,-1484,-301,-34,414,34,-114
1,7432687,444,-1324,-920,-1484,-301,-34,414,34,-114
1,7432699,444,-1327,-920,-1487,-302,-47,414,34,-114
1,7432708,444,-1327,-920,-1487,-302,-47,414,34,-114
1,7432716,444,-1323,-921,-1493,-306,-51,414,34,-114
1,7432724,444,-1323,-921,-1493,-306,-51,414,34,-114
1,7432732,444,-1323,-921,-1493,-306,-51,414,34,-114
1,7432740,444,-1322,-924,-1492,-306,-45,414,34,-114
1,7432749,444,-1322,-924,-1492,-306,-45,414,34,-114
1,7432756,440,-1323,-918,-1489,-299,-41,414,34,-114
1,7432764,440,-1323,-918,-1489,-299,-41,414,34,-114
1,7432772,440,-1323,-918,-1489,-299,-41,414,34,-114
1,7432780,442,-1323,-914,-1489,-299,-45,422,34,-114
1,7432788,442,-1323,-914,-1489,-299,-45,422,34,-114
1,7432797,440,-1323,-917,-1488,-303,-40,422,34,-114
1,7432809,440,-1323,-917,-1488,-303,-40,422,34,-114
1,7432822,441,-1323,-917,-1489,-303,-41,422,34,-114
1,7432836,440,-1325,-921,-1491,-299,-41,422,34,-114
1,7432847,440,-1325,-921,-1491,-299,-41,422,34,-114
1,7432860,446,-1324,-919,-1482,-301,-40,422,34,-114
1,7432875,442,-1326,-921,-1490,-298,-43,422,34,-114
1,7432888,442,-1326,-921,-1490,-298,-43,422,34,-114
1,7432901,448,-1326,-918,-1488,-300,-40,419,35,-101
1,7432914,444,-1325,-917,-1484,-302,-45,419,35,-101
1,7432928,444,-1325,-917,-1484,-302,-45,419,35,-101
1,7432939,443,-1323,-919,-1488,-299,-35,419,35,-101
1,7432951,443,-1323,-919,-1488,-299,-35,419,35,-101
1,7432965,444,-1325,-919,-1492,-298,-43,419,35,-101
1,7432978,444,-1325,-919,-1492,-298,-43,419,35,-101
1,7432991,444,-1325,-919,-1492,-298,-43,419,35,-101
1,7433006,443,-1327,-925,-1485,-299,-35,419,35,-101
1,7433019,444,-1323,-921,-1489,-302,-43,421,29,-109
1,7433029,444,-1323,-921,-1489,-302,-43,421,29,-109
1,7433043,443,-1325,-914,-1489,-305,-35,421,29,-109
1,7433060,445,-1326,-918,-1494,-304,-34,421,29,-109
1,7433072,445,-1326,-918,-1494,-304,-34,421,29,-109
1,7433082,445,-1326,-918,-1494,-304,-34,421,29,-109
1,7433094,445,-1326,-918,-1494,-304,-34,421,29,-109
1,7433106,442,-1323,-921,-1497,-303,-38,421,29,-109
1,7433119,442,-1323,-921,-1497,-303,-38,421,29,-109
1,7433132,442,-1323,-921,-1497,-303,-38,421,29,-109
1,7433145,440,-1326,-915,-1491,-303,-44,419,35,-107
1,7433157,441,-1324,-918,-1489,-302,-52,419,35,-107
1,7433170,441,-1324,-918,-1489,-302,-52,419,35,-107
1,7433184,441,-1325,-919,-1489,-308,-40,419,35,-107
1,7433196,445,-1325,-922,-1490,-303,-40,419,35,-107
1,7433207,445,-1325,-922,-1490,-303,-40,419,35,-107
1,7433221,446,-1324,-922,-1489,-299,-34,419,35,-107
1,7433234,442,-1325,-923,-1490,-301,-42,419,35,-107
1,7433246,442,-1325,-923,-1490,-301,-42,419,35,-107
1,7433257,442,-1325,-921,-1484,-306,-48,419,35,-107
1,7433266,442,-1325,-921,-1484,-306,-48,419,35,-107
1,7433274,440,-1325,-917,-1486,-310,-40,419,35,-107
1,7433282,440,-1325,-917,-1486,-310,-40,417,33,-111
1,7433293,443,-1324,-920,-1486,-305,-40,417,33,-111
1,7433306,443,-1324,-920,-1486,-305,-40,417,33,-111
1,7433315,441,-1325,-919,-1488,-303,-42,417,33,-111
1,7433326,441,-1325,-919,-1488,-303,-42,417,33,-111
1,7433341,440,-1325,-918,-1491,-303,-46,417,33,-111
1,7433356,443,-1323,-925,-1492,-303,-43,417,33,-111
1,7433365,443,-1323,-925,-1492,-303,-43,417,33,-111
1,7433377,441,-1325,-924,-1487,-299,-40,417,33,-111
1,7433392,441,-1325,-924,-1487,-299,-40,417,33,-111
1,7433406,448,-1323,-915,-1481,-305,-39,412,34,-108
1,7433415,444,-1324,-921,-1485,-307,-32,412,34,-108
1,7433427,444,-1324,-921,-1485,-307,-32,412,34,-108
1,7433440,446,-1327,-917,-1484,-309,-35,412,34,-108
1,7433447,446,-1327,-917,-1484,-309,-35,412,34,-108
1,7433454,443,-1328,-923,-1487,-308,-36,412,34,-108
1,7433460,443,-1328,-923,-1487,-308,-36,412,34,-108
1,7433467,443,-1328,-923,-1487,-308,-36,412,34,-108
1,7433476,444,-1324,-924,-1484,-301,-36,412,34,-108
1,7433483,444,-1324,-924,-1484,-301,-36,412,34,-108
1,7433489,444,-1324,-924,-1484,-301,-36,412,34,-108
1,7433497,444,-1323,-920,-1488,-310,-39,412,34,-108
1,7433504,444,-1323,-920,-1488,-310,-39,412,34,-108
1,7433511,444,-1323,-920,-1488,-310,-39,412,34,-108
1,7433520,439,-1324,-915,-1490,-303,-45,413,39,-111
1,7433526,439,-1324,-915,-1490,-303,-45,413,39,-111
1,7433533,439,-1324,-915,-1490,-303,-45,413,39,-111
1,7433539,443,-1323,-917,-1487,-303,-38,413,39,-111
1,7433546,443,-1323,-917,-1487,-303,-38,413,39,-111
1,7433554,443,-1324,-924,-1488,-303,-36,413,39,-111
1,7433562,443,-1324,-924,-1488,-303,-36,413,39,-111
1,7433570,443,-1324,-924,-1488,-303,-36,413,39,-111
1,7433577,447,-1328,-922,-1492,-298,-38,413,39,-111
1,7433583,447,-1328,-922,-1492,-298,-38,413,39,-111
1,7433589,447,-1328,-922,-1492,-298,-38,413,39,-111
1,7433596,442,-1326,-922,-1494,-296,-41,413,39,-111
1,7433603,442,-1326,-922,-1494,-296,-41,413,39,-111
1,7433608,442,-1326,-922,-1494,-296,-41,413,39,-111
1,7433613,442,-1326,-922,-1494,-296,-41,413,39,-111
1,7433621,444,-1328,-923,-1486,-301,-44,413,39,-111
1,7433628,444,-1328,-923,-1486,-301,-44,413,39,-111
1,7433634,443,-1327,-915,-1485,-307,-31,414,34,-108
1,7433641,443,-1327,-915,-1485,-307,-31,414,34,-108
1,7433649,443,-1327,-915,-1485,-307,-31,414,34,-108
1,7433654,439,-1328,-913,-1491,-300,-35,414,34,-108
1,7433659,439,-1328,-913,-1491,-300,-35,414,34,-108
1,7433664,439,-1328,-913,-1491,-300,-35,414,34,-108
1,7433669,439,-1328,-913,-1491,-300,-35,414,34,-108
1,7433674,440,-1327,-920,-1491,-298,-33,414,34,-108
1,7433680,440,-1327,-920,-1491,-298,-33,414,34,-108
1,7433686,440,-1327,-920,-1491,-298,-33,414,34,-108
1,7433693,440,-1327,-920,-1491,-298,-33,414,34,-108
1,7433700,445,-1325,-918,-1487,-296,-35,414,34,-108
1,7433705,445,-1325,-918,-1487,-296,-35,414,34,-108
1,7433710,445,-1325,-918,-1487,-296,-35,414,34,-108
1,7433715,442,-1325,-917,-1483,-301,-41,414,34,-108
1,7433720,442,-1325,-917,-1483,-301,-41,414,34,-108
1,7433725,442,-1325,-917,-1483,-301,-41,414,34,-108
1,7433731,442,-1325,-917,-1483,-301,-41,414,34,-108
1,7433739,445,-1324,-918,-1492,-303,-40,414,34,-108
1,7433746,445,-1324,-918,-1492,-303,-40,414,34,-108
1,7433753,445,-1324,-918,-1492,-303,-40,414,34,-108
1,7433759,442,-1324,-919,-1496,-306,-38,414,34,-108
1,7433764,442,-1324,-919,-1496,-306,-38,414,34,-108
1,7433772,442,-1324,-919,-1496,-306,-38,414,34,-108
1,7433780,442,-1324,-919,-1496,-306,-38,418,34,-108
1,7433788,442,-1324,-919,-1496,-306,-38,418,34,-108
1,7433796,444,-1327,-917,-1489,-295,-47,418,34,-108
1,7433803,444,-1327,-917,-1489,-295,-47,418,34,-108
1,7433810,444,-1327,-917,-1489,-295,-47,418,34,-108
1,7433817,445,-1325,-920,-1489,-298,-44,418,34,-108
1,7433822,445,-1325,-920,-1489,-298,-44,418,34,-108
1,7433827,445,-1325,-920,-1489,-298,-44,418,34,-108
1,7433832,445,-1325,-920,-1489,-298,-44,418,34,-108
1,7433840,441,-1323,-919,-1498,-308,-43,418,34,-108
1,7433849,441,-1323,-919,-1498,-308,-43,418,34,-108
1,7433857,440,-1325,-917,-1492,-305,-42,418,34,-108
1,7433863,440,-1325,-917,-1492,-305,-42,418,34,-108
1,7433870,440,-1325,-917,-1492,-305,-42,418,34,-108
1,7433877,442,-1324,-923,-1485,-308,-43,418,34,-108
1,7433882,442,-1324,-923,-1485,-308,-43,418,34,-108
1,7433889,442,-1324,-923,-1485,-308,-43,418,34,-108
1,7433896,442,-1325,-920,-1491,-304,-38,415,25,-113
1,7433905,442,-1325,-920,-1491,-304,-38,415,25,-113
1,7433913,442,-1325,-920,-1491,-304,-38,415,25,-113
1,7433920,441,-1321,-916,-1489,-309,-39,415,25,-113
1,7433927,441,-1321,-916,-1489,-309,-39,415,25,-113
1,7433932,441,-1321,-916,-1489,-309,-39,415,25,-113
1,7433939,442,-1321,-918,-1486,-308,-44,415,25,-113
1,7433946,442,-1321,-918,-1486,-308,-44,415,25,-113
1,7433952,442,-1321,-918,-1486,-308,-44,415,25,-113
1,7433960,441,-1324,-920,-1493,-300,-39,415,25,-113
1,7433967,441,-1324,-920,-1493,-300,-39,415,25,-113
1,7433974,444,-1323,-921,-1496,-293,-39,415,25,-113
1,7433981,444,-1323,-921,-1496,-293,-39,415,25,-113
1,7433990,444,-1323,-921,-1496,-293,-39,415,25,-113
1,7433998,443,-1326,-922,-1496,-297,-45,415,25,-113
1,7434006,443,-1326,-922,-1496,-297,-45,415,25,-113
1,7434014,448,-1324,-912,-1488,-299,-37,415,25,-113
1,7434021,448,-1324,-912,-1488,-299,-37,414,36,-116
1,7434029,448,-1324,-912,-1488,-299,-37,414,36,-116
1,7434038,444,-1326,-924,-1486,-307,-40,414,36,-116
1,7434050,444,-1326,-924,-1486,-307,-40,414,36,-116
1,7434060,441,-1324,-920,-1488,-305,-41,414,36,-116
1,7434073,441,-1324,-920,-1488,-305,-41,414,36,-116
1,7434086,443,-1324,-919,-1496,-303,-38,414,36,-116
1,7434099,440,-1324,-922,-1490,-293,-45,414,36,-116
1,7434108,440,-1324,-922,-1490,-293,-45,414,36,-116
1,7434122,440,-1328,-916,-1494,-303,-45,414,36,-116
1,7434135,443,-1325,-917,-1492,-302,-42,416,36,-108
1,7434148,443,-1325,-917,-1492,-302,-42,416,36,-108
1,7434157,439,-1327,-920,-1493,-300,-42,416,36,-108
1,7434169,439,-1327,-920,-1493,-300,-42,416,36,-108
1,7434182,444,-1326,-917,-1491,-304,-45,416,36,-108
1,7434192,444,-1326,-917,-1491,-304,-45,416,36,-108
1,7434203,441,-1323,-919,-1493,-304,-42,416,36,-108
1,7434216,443,-1324,-917,-1494,-300,-35,416,36,-108
1,7434229,443,-1324,-917,-1494,-300,-35,416,36,-108
1,7434243,439,-1326,-921,-1492,-302,-44,416,36,-108
1,7434253,439,-1326,-921,-1492,-302,-44,416,36,-108
1,7434266,440,-1326,-915,-1495,-301,-40,410,36,-104
1,7434275,441,-1325,-913,-1488,-301,-44,410,36,-104
1,7434289,441,-1325,-913,-1488,-301,-44,410,36,-104
1,7434301,438,-1324,-921,-1483,-299,-39,410,36,-104
1,7434315,439,-1323,-920,-1487,-295,-45,410,36,-104
1,7434324,439,-1323,-920,-1487,-295,-45,410,36,-104
1,7434336,441,-1327,-916,-1490,-299,-37,410,36,-104
1,7434344,441,-1327,-916,-1490,-299,-37,410,36,-104
1,7434353,441,-1327,-916,-1490,-299,-37,410,36,-104
1,7434361,443,-1325,-923,-1488,-303,-34,410,36,-104
1,7434370,443,-1325,-923,-1488,-303,-34,410,36,-104
1,7434379,440,-1325,-921,-1489,-303,-39,410,36,-104
1,7434390,440,-1325,-921,-1489,-303,-39,410,36,-104
1,7434402,441,-1321,-917,-1492,-306,-40,415,31,-105
1,7434417,439,-1325,-921,-1490,-307,-37,415,31,-105
1,7434427,439,-1325,-921,-1490,-307,-37,415,31,-105
1,7434439,441,-1323,-915,-1486,-310,-40,415,31,-105
1,7434451,441,-1323,-915,-1486,-310,-40,415,31,-105
1,7434466,441,-1324,-913,-1489,-306,-41,415,31,-105
1,7434478,441,-1326,-919,-1485,-301,-39,415,31,-105
1,7434487,441,-1326,-919,-1485,-301,-39,415,31,-105
1,7434501,440,-1324,-919,-1491,-302,-42,415,31,-105
1,7434514,441,-1324,-914,-1487,-295,-40,415,31,-105
1,7434526,441,-1324,-914,-1487,-295,-40,420,26,-112
1,7434536,438,-1325,-916,-1492,-300,-38,420,26,-112
1,7434550,438,-1325,-916,-1492,-300,-38,420,26,-112
1,7434564,441,-1330,-919,-1493,-305,-34,420,26,-112
1,7434577,438,-1324,-921,-1490,-302,-37,420,26,-112
1,7434588,438,-1324,-921,-1490,-302,-37,420,26,-112
1,7434601,439,-1325,-918,-1488,-304,-30,420,26,-112
1,7434615,439,-1321,-915,-1481,-306,-37,420,26,-112
1,7434629,439,-1321,-915,-1481,-306,-37,420,26,-112
1,7434638,440,-1323,-917,-1483,-308,-37,413,37,-105
1,7434651,440,-1323,-917,-1483,-308,-37,413,37,-105
1,7434658,439,-1322,-915,-1492,-308,-42,413,37,-105
1,7434667,439,-1322,-915,-1492,-308,-42,413,37,-105
1,7434674,438,-1324,-917,-1493,-306,-47,413,37,-105
1,7434682,438,-1324,-917,-1493,-306,-47,413,37,-105
1,7434692,438,-1324,-917,-1493,-306,-47,413,37,-105
1,7434701,442,-1327,-918,-1488,-304,-51,413,37,-105
1,7434710,442,-1327,-918,-1488,-304,-51,413,37,-105
1,7434718,442,-1328,-920,-1492,-302,-47,413,37,-105
1,7434726,442,-1328,-920,-1492,-302,-47,413,37,-105
1,7434734,442,-1328,-920,-1492,-302,-47,413,37,-105
1,7434742,441,-1326,-915,-1487,-298,-41,413,37,-105
1,7434749,441,-1326,-915,-1487,-298,-41,413,37,-105
1,7434759,444,-1326,-917,-1487,-299,-38,420,36,-104
1,7434767,444,-1326,-917,-1487,-299,-38,420,36,-104
1,7434775,442,-1327,-917,-1483,-303,-34,420,36,-104
1,7434782,442,-1327,-917,-1483,-303,-34,420,36,-104
1,7434790,442,-1327,-917,-1483,-303,-34,420,36,-104
1,7434799,443,-1327,-917,-1485,-303,-41,420,36,-104
1,7434807,443,-1327,-917,-1485,-303,-41,420,36,-104
1,7434815,442,-1325,-914,-1492,-308,-36,420,36,-104
1,7434825,442,-1325,-914,-1492,-308,-36,420,36,-104
1,7434834,438,-1324,-917,-1493,-308,-44,420,36,-104
1,7434849,438,-1324,-917,-1493,-308,-44,420,36,-104
1,7434857,436,-1328,-917,-1490,-298,-33,420,36,-104
1,7434869,436,-1328,-917,-1490,-298,-33,420,36,-104
1,7434883,439,-1326,-918,-1486,-301,-38,420,36,-104
1,7434896,440,-1326,-913,-1487,-298,-41,416,36,-116
1,7434906,440,-1326,-913,-1487,-298,-41,416,36,-116
1,7434916,443,-1321,-920,-1498,-305,-42,416,36,-116
1,7434930,443,-1321,-920,-1498,-305,-42,416,36,-116
1,7434942,443,-1326,-920,-1496,-300,-38,416,36,-116
1,7434954,443,-1326,-920,-1496,-300,-38,416,36,-116
1,7434967,439,-1324,-920,-1497,-305,-36,416,36,-116
1,7434978,440,-1324,-919,-1490,-307,-39,416,36,-116
1,7434986,440,-1324,-919,-1490,-307,-39,416,36,-116
1,7434994,440,-1328,-916,-1486,-301,-40,416,36,-116
1,7435002,440,-1328,-916,-1486,-301,-40,416,36,-116
1,7435011,440,-1328,-916,-1486,-301,-40,416,36,-116
1,7435022,440,-1324,-916,-1487,-298,-40,420,40,-112
1,7435034,437,-1323,-921,-1491,-298,-44,420,40,-112
1,7435047,437,-1323,-921,-1491,-298,-44,420,40,-112
1,7435060,440,-1321,-917,-1489,-299,-44,420,40,-112
1,7435072,440,-1321,-917,-1489,-299,-44,420,40,-112
1,7435084,440,-1321,-917,-1489,-299,-44,420,40,-112
1,7435098,440,-1324,-916,-1484,-306,-30,420,40,-112
1,7435110,440,-1324,-916,-1484,-306,-30,420,40,-112
1,7435123,442,-1326,-919,-1487,-307,-33,420,40,-112
1,7435137,439,-1325,-917,-1495,-307,-34,415,37,-101
1,7435149,439,-1325,-917,-1495,-307,-34,415,37,-101
1,7435161,442,-1322,-914,-1492,-299,-40,415,37,-101
1,7435173,442,-1322,-914,-1492,-299,-40,415,37,-101
1,7435188,438,-1326,-915,-1493,-307,-44,415,37,-101
1,7435200,438,-1327,-917,-1485,-309,-40,415,37,-101
1,7435208,438,-1327,-917,-1485,-309,-40,415,37,-101
1,7435220,442,-1327,-921,-1488,-313,-37,415,37,-101
1,7435235,442,-1322,-921,-1481,-300,-31,415,37,-101
1,7435244,442,-1322,-921,-1481,-300,-31,415,37,-101
1,7435255,440,-1322,-915,-1486,-302,-37,421,31,-117
1,7435270,440,-1322,-915,-1486,-302,-37,421,31,-117
1,7435284,436,-1326,-915,-1485,-293,-44,421,31,-117
1,7435292,436,-1326,-915,-1485,-293,-44,421,31,-117
1,7435304,440,-1326,-915,-1485,-304,-37,421,31,-117
1,7435319,438,-1326,-922,-1494,-304,-37,421,31,-117
1,7435331,438,-1326,-922,-1494,-304,-37,421,31,-117
1,7435341,441,-1326,-919,-1489,-301,-44,421,31,-117
1,7435355,442,-1326,-917,-1492,-303,-35,421,31,-117
1,7435367,442,-1326,-917,-1492,-303,-35,421,31,-117
1,7435380,442,-1324,-917,-1489,-302,-38,421,31,-117
1,7435390,442,-1324,-917,-1489,-302,-38,421,31,-117
1,7435403,441,-1324,-912,-1479,-304,-42,412,28,-102
1,7435413,441,-1324,-912,-1479,-304,-42,412,28,-102
1,7435425,439,-1324,-917,-1485,-302,-42,412,28,-102
1,7435439,440,-1322,-918,-1495,-308,-39,412,28,-102
1,7435453,440,-1322,-918,-1495,-308,-39,412,28,-102
1,7435461,437,-1323,-919,-1491,-310,-42,412,28,-102
1,7435473,437,-1323,-919,-1491,-310,-42,412,28,-102
1,7435487,438,-1324,-915,-1492,-302,-40,412,28,-102
1,7435501,439,-1323,-919,-1491,-302,-45,412,28,-102
1,7435512,439,-1323,-919,-1491,-302,-45,412,28,-102
1,7435525,441,-1325,-913,-1488,-304,-45,423,31,-105
1,7435536,441,-1323,-918,-1487,-307,-40,423,31,-105
1,7435550,441,-1323,-918,-1487,-307,-40,423,31,-105
1,7435563,439,-1328,-915,-1482,-305,-41,423,31,-105
1,7435575,436,-1327,-916,-1488,-305,-48,423,31,-105
1,7435586,436,-1327,-916,-1488,-305,-48,423,31,-105
1,7435599,439,-1327,-915,-1496,-303,-46,423,31,-105
1,7435609,439,-1327,-915,-1496,-303,-46,423,31,-105
1,7435617,437,-1326,-918,-1489,-303,-45,423,31,-105
1,7435625,437,-1326,-918,-1489,-303,-45,423,31,-105
1,7435631,437,-1326,-918,-1489,-303,-45,423,31,-105
1,7435639,439,-1324,-911,-1492,-302,-45,413,35,-113
1,7435648,439,-1324,-911,-1492,-302,-45,413,35,-113
1,7435657,438,-1327,-915,-1496,-301,-45,413,35,-113
1,7435664,438,-1327,-915,-1496,-301,-45,413,35,-113
1,7435672,438,-1327,-915,-1496,-301,-45,413,35,-113
1,7435679,441,-1323,-922,-1495,-302,-38,413,35,-113
1,7435693,441,-1323,-922,-1495,-302,-38,413,35,-113
1,7435702,439,-1326,-919,-1493,-305,-39,413,35,-113
1,7435711,439,-1326,-919,-1493,-305,-39,413,35,-113
1,7435718,442,-1325,-921,-1487,-300,-42,413,35,-113
1,7435726,442,-1325,-921,-1487,-300,-42,413,35,-113
1,7435735,442,-1325,-921,-1487,-300,-42,413,35,-113
1,7435743,441,-1326,-919,-1490,-300,-38,413,35,-113
1,7435748,441,-1326,-919,-1490,-300,-38,413,35,-113
1,7435754,441,-1326,-919,-1490,-300,-38,413,35,-113
1,7435760,438,-1328,-916,-1492,-296,-40,413,35,-113
1,7435766,438,-1328,-916,-1492,-296,-40,413,35,-113
1,7435773,438,-1328,-916,-1492,-296,-40,413,35,-113
1,7435782,440,-1325,-910,-1489,-297,-40,413,35,-113
1,7435792,440,-1325,-910,-1489,-297,-40,413,35,-113
1,7435802,439,-1324,-916,-1491,-305,-36,413,35,-113
1,7435812,439,-1324,-916,-1491,-305,-36,413,35,-113
1,7435822,440,-1324,-915,-1492,-308,-44,413,35,-113
1,7435830,440,-1324,-915,-1492,-308,-44,413,35,-113
1,7435840,436,-1324,-920,-1484,-303,-41,413,35,-113
1,7435847,436,-1324,-920,-1484,-303,-41,413,35,-113
1,7435856,440,-1324,-920,-1489,-296,-34,413,35,-113
1,7435866,440,-1324,-920,-1489,-296,-34,413,35,-113
1,7435875,442,-1324,-917,-1494,-305,-37,412,34,-106
1,7435884,442,-1324,-917,-1494,-305,-37,412,34,-106
1,7435892,442,-1324,-917,-1494,-305,-37,412,34,-106
1,7435902,442,-1322,-913,-1488,-307,-39,412,34,-106
1,7435913,442,-1322,-913,-1488,-307,-39,412,34,-106
1,7435921,444,-1323,-917,-1486,-301,-42,412,34,-106
1,7435931,444,-1323,-917,-1486,-301,-42,412,34,-106
1,7435941,445,-1326,-917,-1488,-301,-40,412,34,-106
1,7435949,445,-1326,-917,-1488,-301,-40,412,34,-106
1,7435959,439,-1325,-914,-1490,-299,-32,412,34,-106
1,7435969,439,-1325,-914,-1490,-299,-32,412,34,-106
1,7435980,437,-1323,-920,-1490,-299,-40,412,34,-106
1,7435991,437,-1323,-920,-1490,-299,-40,412,34,-106
1,7436000,438,-1325,-912,-1486,-298,-37,412,34,-106
1,7436009,438,-1325,-912,-1486,-298,-37,412,34,-106
1,7436019,438,-1327,-918,-1486,-302,-48,412,32,-110
1,7436027,438,-1327,-918,-1486,-302,-48,412,32,-110
1,7436037,437,-1327,-920,-1490,-302,-45,412,32,-110
1,7436044,437,-1327,-920,-1490,-302,-45,412,32,-110
1,7436053,437,-1327,-920,-1490,-302,-45,412,32,-110
1,7436060,440,-1324,-916,-1497,-304,-41,412,32,-110
1,7436070,440,-1324,-916,-1497,-304,-41,412,32,-110
1,7436080,439,-1326,-917,-1497,-299,-44,412,32,-110
1,7436089,439,-1326,-917,-1497,-299,-44,412,32,-110
1,7436096,440,-1324,-918,-1489,-301,-42,412,32,-110
1,7436104,440,-1324,-918,-1489,-301,-42,412,32,-110
1,7436111,440,-1324,-918,-1489,-301,-42,412,32,-110
1,7436121,440,-1324,-921,-1491,-306,-46,412,32,-110
1,7436131,440,-1324,-921,-1491,-306,-46,412,32,-110
1,7436141,440,-1322,-918,-1488,-299,-46,420,26,-116
1,7436150,440,-1322,-918,-1488,-299,-46,420,26,-116
1,7436161,439,-1323,-917,-1488,-298,-42,420,26,-116
1,7436169,439,-1323,-917,-1488,-298,-42,420,26,-116
1,7436177,438,-1325,-920,-1488,-296,-44,420,26,-116
1,7436188,438,-1325,-920,-1488,-296,-44,420,26,-116
1,7436198,438,-1325,-920,-1488,-296,-44,420,26,-116
1,7436207,438,-1325,-920,-1488,-296,-44,420,26,-116
1,7436216,443,-1325,-918,-1490,-301,-41,420,26,-116
1,7436225,443,-1325,-918,-1490,-301,-41,420,26,-116
1,7436232,443,-1325,-918,-1490,-301,-41,420,26,-116
1,7436242,438,-1326,-917,-1494,-299,-43,420,26,-116
1,7436252,438,-1326,-917,-1494,-299,-43,420,26,-116
1,7436262,442,-1326,-913,-1487,-299,-47,412,36,-108
1,7436270,442,-1326,-913,-1487,-299,-47,412,36,-108
1,7436278,442,-1328,-913,-1487,-303,-44,412,36,-108
1,7436284,442,-1328,-913,-1487,-303,-44,412,36,-108
1,7436292,442,-1328,-913,-1487,-303,-44,412,36,-108
1,7436298,443,-1324,-913,-1490,-302,-42,412,36,-108
1,7436306,443,-1324,-913,-1490,-302,-42,412,36,-108
1,7436313,443,-1324,-913,-1490,-302,-42,412,36,-108
1,7436323,441,-1323,-912,-1485,-296,-44,412,36,-108
1,7436331,441,-1323,-912,-1485,-296,-44,412,36,-108
1,7436340,440,-1325,-916,-1483,-298,-37,412,36,-108
1,7436351,440,-1325,-916,-1483,-298,-37,412,36,-108
1,7436361,438,-1328,-918,-1487,-304,-50,412,36,-108
1,7436370,438,-1328,-918,-1487,-304,-50,412,36,-108
1,7436379,434,-1323,-916,-1486,-297,-45,417,27,-107
1,7436390,434,-1323,-916,-1486,-297,-45,417,27,-107
1,7436397,441,-1325,-909,-1487,-298,-40,417,27,-107
1,7436407,441,-1325,-909,-1487,-298,-40,417,27,-107
1,7436417,444,-1324,-920,-1485,-301,-41,417,27,-107
1,7436427,444,-1324,-920,-1485,-301,-41,417,27,-107
1,7436437,439,-1326,-916,-1485,-304,-40,417,27,-107
1,7436445,439,-1326,-916,-1485,-304,-40,417,27,-107
1,7436455,440,-1328,-920,-1491,-304,-44,417,27,-107
1,7436467,440,-1328,-920,-1491,-304,-44,417,27,-107
1,7436481,439,-1326,-922,-1488,-303,-38,417,27,-107
1,7436494,439,-1326,-922,-1488,-303,-38,417,27,-107
1,7436507,442,-1324,-922,-1489,-302,-38,417,27,-107
1,7436517,439,-1322,-913,-1487,-304,-39,420,34,-118
1,7436530,439,-1322,-913,-1487,-304,-39,420,34,-118
1,7436544,443,-1325,-912,-1479,-299,-45,420,34,-118
1,7436556,438,-1324,-918,-1482,-305,-33,420,34,-118
1,7436566,438,-1324,-918,-1482,-305,-33,420,34,-118
1,7436578,438,-1323,-915,-1486,-314,-38,420,34,-118
1,7436592,438,-1323,-915,-1486,-314,-38,420,34,-118
1,7436605,438,-1326,-918,-1491,-302,-43,420,34,-118
1,7436615,438,-1326,-918,-1491,-302,-43,420,34,-118
1,7436627,438,-1326,-918,-1491,-302,-43,420,34,-118
1,7436642,440,-1327,-914,-1487,-302,-39,423,35,-111
1,7436654,440,-1327,-914,-1487,-302,-39,423,35,-111
1,7436661,442,-1323,-915,-1490,-299,-43,423,35,-111
1,7436669,442,-1323,-915,-1490,-299,-43,423,35,-111
1,7436678,442,-1327,-922,-1491,-294,-46,423,35,-111
1,7436686,442,-1327,-922,-1491,-294,-46,423,35,-111
1,7436699,445,-1324,-921,-1489,-302,-41,423,35,-111
1,7436707,445,-1324,-921,-1489,-302,-41,423,35,-111
1,7436716,441,-1325,-922,-1494,-306,-47,423,35,-111
1,7436724,441,-1325,-922,-1494,-306,-47,423,35,-111
1,7436732,441,-1325,-922,-1494,-306,-47,423,35,-111
1,7436739,438,-1323,-917,-1492,-300,-51,423,35,-111
1,7436748,438,-1323,-917,-1492,-300,-51,423,35,-111
1,7436755,442,-1327,-917,-1486,-303,-39,414,34,-112
1,7436764,442,-1327,-917,-1486,-303,-39,414,34,-112
1,7436772,442,-1327,-917,-1486,-303,-39,414,34,-112
1,7436780,440,-1326,-915,-1480,-305,-42,414,34,-112
1,7436788,440,-1326,-915,-1480,-305,-42,414,34,-112
1,7436796,441,-1326,-917,-1490,-298,-41,414,34,-112
1,7436809,441,-1326,-917,-1490,-298,-41,414,34,-112
1,7436822,441,-1325,-925,-1491,-304,-45,414,34,-112
1,7436835,444,-1325,-921,-1483,-305,-54,414,34,-112
1,7436848,444,-1325,-921,-1483,-305,-54,414,34,-112
1,7436860,445,-1325,-921,-1483,-303,-47,414,34,-112
1,7436873,445,-1325,-921,-1483,-303,-47,414,34,-112
1,7436887,442,-1327,-916,-1482,-307,-49,410,34,-108
1,7436899,443,-1323,-915,-1482,-301,-43,410,34,-108
1,7436909,443,-1323,-915,-1482,-301,-43,410,34,-108
1,7436918,443,-1325,-918,-1493,-301,-43,410,34,-108
1,7436926,443,-1325,-918,-1493,-301,-43,410,34,-108
1,7436935,443,-1325,-918,-1493,-301,-43,410,34,-108
1,7436946,447,-1325,-920,-1483,-301,-41,410,34,-108
1,7436957,437,-1326,-919,-1484,-300,-37,410,34,-108
1,7436969,437,-1326,-919,-1484,-300,-37,410,34,-108
1,7436982,438,-1323,-918,-1487,-309,-41,410,34,-108
1,7436995,440,-1321,-921,-1485,-308,-44,410,34,-108
1,7437007,440,-1321,-921,-1485,-308,-44,410,34,-108
1,7437018,443,-1324,-915,-1486,-303,-44,414,36,-110
1,7437029,443,-1324,-915,-1486,-303,-44,414,36,-110
1,7437044,442,-1327,-922,-1493,-306,-46,414,36,-110
1,7437058,442,-1328,-918,-1494,-295,-40,414,36,-110
1,7437067,442,-1328,-918,-1494,-295,-40,414,36,-110
1,7437081,445,-1327,-917,-1489,-300,-39,414,36,-110
1,7437096,442,-1326,-918,-1491,-302,-41,414,36,-110
1,7437109,442,-1326,-918,-1491,-302,-41,414,36,-110
1,7437118,441,-1328,-918,-1485,-304,-43,414,36,-110
1,7437130,441,-1328,-918,-1485,-304,-43,414,36,-110
1,7437146,441,-1326,-914,-1481,-303,-44,409,33,-117
1,7437160,437,-1323,-913,-1489,-300,-39,409,33,-117
1,7437168,437,-1323,-913,-1489,-300,-39,409,33,-117
1,7437179,439,-1324,-918,-1491,-302,-37,409,33,-117
1,7437194,439,-1324,-918,-1491,-302,-37,409,33,-117
1,7437207,439,-1324,-917,-1486,-307,-36,409,33,-117
1,7437218,445,-1325,-924,-1483,-301,-41,409,33,-117
1,7437231,445,-1325,-924,-1483,-301,-41,409,33,-117
1,7437243,443,-1323,-924,-1485,-299,-40,409,33,-117
1,7437256,444,-1325,-915,-1489,-305,-40,424,32,-108
1,7437266,444,-1325,-915,-1489,-305,-40,424,32,-108
1,7437282,444,-1326,-917,-1491,-300,-41,424,32,-108
1,7437294,444,-1326,-917,-1491,-300,-41,424,32,-108
1,7437306,439,-1324,-917,-1497,-304,-36,424,32,-108
1,7437319,442,-1324,-912,-1495,-297,-36,424,32,-108
1,7437333,442,-1324,-912,-1495,-297,-36,424,32,-108
1,7437345,440,-1327,-920,-1489,-298,-35,424,32,-108
1,7437359,442,-1327,-921,-1487,-301,-37,424,32,-108
1,7437372,442,-1327,-921,-1487,-301,-37,424,32,-108
1,7437384,444,-1324,-919,-1491,-308,-43,418,30,-110
1,7437396,444,-1325,-917,-1491,-308,-41,418,30,-110
1,7437410,444,-1325,-917,-1491,-308,-41,418,30,-110
1,7437422,445,-1321,-918,-1487,-302,-43,418,30,-110
1,7437435,444,-1326,-921,-1491,-305,-43,418,30,-110
1,7437448,444,-1326,-921,-1491,-305,-43,418,30,-110
1,7437461,442,-1324,-921,-1491,-303,-47,418,30,-110
1,7437471,442,-1324,-921,-1491,-303,-47,418,30,-110
1,7437479,437,-1324,-921,-1492,-305,-39,418,30,-110
1,7437486,437,-1324,-921,-1492,-305,-39,418,30,-110
1,7437496,440,-1327,-917,-1493,-298,-44,419,37,-113
1,7437502,440,-1327,-917,-1493,-298,-44,419,37,-113
1,7437513,440,-1327,-917,-1493,-298,-44,419,37,-113
1,7437521,447,-1324,-923,-1488,-300,-42,419,37,-113
1,7437530,447,-1324,-923,-1488,-300,-42,419,37,-113
1,7437536,443,-1321,-920,-1488,-307,-41,419,37,-113
1,7437542,443,-1321,-920,-1488,-307,-41,419,37,-113
1,7437548,443,-1321,-920,-1488,-307,-41,419,37,-113
1,7437555,443,-1325,-919,-1486,-303,-36,419,37,-113
1,7437564,443,-1325,-919,-1486,-303,-36,419,37,-113
1,7437572,443,-1325,-919,-1486,-303,-36,419,37,-113
1,7437582,440,-1326,-918,-1479,-301,-42,419,37,-113
1,7437591,440,-1326,-918,-1479,-301,-42,419,37,-113
1,7437600,443,-1323,-919,-1487,-303,-40,419,37,-113
1,7437611,443,-1323,-919,-1487,-303,-40,419,37,-113
1,7437619,443,-1327,-921,-1487,-299,-39,419,37,-113
1,7437629,443,-1327,-921,-1487,-299,-39,419,37,-113
1,7437638,442,-1324,-918,-1490,-298,-37,414,32,-110
1,7437647,442,-1324,-918,-1490,-298,-37,414,32,-110
1,7437655,442,-1324,-918,-1490,-298,-37,414,32,-110
1,7437661,444,-1325,-916,-1486,-301,-44,414,32,-110
1,7437666,444,-1325,-916,-1486,-301,-44,414,32,-110
1,7437672,444,-1325,-916,-1486,-301,-44,414,32,-110
1,7437678,445,-1330,-917,-1488,-303,-42,414,32,-110
1,7437686,445,-1330,-917,-1488,-303,-42,414,32,-110
1,7437697,444,-1324,-921,-1492,-302,-44,414,32,-110
1,7437703,444,-1324,-921,-1492,-302,-44,414,32,-110
1,7437709,444,-1324,-921,-1492,-302,-44,414,32,-110
1,7437715,444,-1324,-921,-1492,-302,-44,414,32,-110
1,7437721,446,-1321,-920,-1484,-309,-33,414,32,-110
1,7437727,446,-1321,-920,-1484,-309,-33,414,32,-110
1,7437733,446,-1321,-920,-1484,-309,-33,414,32,-110
1,7437740,444,-1326,-917,-1482,-298,-44,414,32,-110
1,7437747,444,-1326,-917,-1482,-298,-44,414,32,-110
1,7437753,444,-1326,-917,-1482,-298,-44,414,32,-110
1,7437765,440,-1329,-912,-1486,-304,-42,411,37,-111
1,7437771,440,-1329,-912,-1486,-304,-42,411,37,-111
1,7437784,439,-1328,-917,-1485,-307,-38,411,37,-111
1,7437791,439,-1328,-917,-1485,-307,-38,411,37,-111
1,7437800,441,-1326,-914,-1486,-309,-43,411,37,-111
1,7437809,441,-1326,-914,-1486,-309,-43,411,37,-111
1,7437818,445,-1325,-921,-1489,-302,-36,411,37,-111
1,7437829,445,-1325,-921,-1489,-302,-36,411,37,-111
1,7437837,448,-1324,-921,-1488,-299,-35,411,37,-111
1,7437846,448,-1324,-921,-1488,-299,-35,411,37,-111
1,7437855,446,-1326,-924,-1491,-308,-38,411,37,-111
1,7437865,446,-1326,-924,-1491,-308,-38,411,37,-111
1,7437875,446,-1326,-924,-1491,-308,-38,411,37,-111
1,7437884,444,-1323,-916,-1489,-305,-37,416,38,-114
1,7437893,444,-1323,-916,-1489,-305,-37,416,38,-114
1,7437901,445,-1326,-916,-1490,-301,-43,416,38,-114
1,7437912,445,-1326,-916,-1490,-301,-43,416,38,-114
1,7437920,440,-1330,-917,-1488,-305,-35,416,38,-114
1,7437928,440,-1330,-917,-1488,-305,-35,416,38,-114
1,7437936,439,-1325,-924,-1487,-308,-34,416,38,-114
1,7437945,439,-1325,-924,-1487,-308,-34,416,38,-114
1,7437957,441,-1325,-925,-1489,-303,-44,416,38,-114
1,7437966,441,-1325,-925,-1489,-303,-44,416,38,-114
1,7437974,441,-1325,-925,-1489,-303,-44,416,38,-114
1,7437984,445,-1324,-919,-1477,-302,-37,416,38,-114
1,7437991,445,-1324,-919,-1477,-302,-37,416,38,-114
1,7438002,446,-1321,-914,-1486,-301,-32,414,34,-114
1,7438011,446,-1321,-914,-1486,-301,-32,414,34,-114
1,7438022,451,-1324,-919,-1493,-298,-45,414,34,-114
1,7438032,451,-1324,-919,-1493,-298,-45,414,34,-114
1,7438039,445,-1324,-919,-1493,-306,-38,414,34,-114
1,7438049,445,-1324,-919,-1493,-306,-38,414,34,-114
1,7438056,443,-1325,-925,-1485,-300,-41,414,34,-114
1,7438066,443,-1325,-925,-1485,-300,-41,414,34,-114
1,7438074,443,-1325,-925,-1485,-300,-41,414,34,-114
1,7438082,441,-1327,-918,-1488,-300,-39,414,34,-114
1,7438088,441,-1327,-918,-1488,-300,-39,414,34,-114
1,7438094,441,-1327,-918,-1488,-300,-39,414,34,-114
1,7438103,443,-1323,-917,-1488,-298,-38,414,34,-114
1,7438113,443,-1323,-917,-1488,-298,-38,414,34,-114
1,7438123,443,-1324,-924,-1488,-299,-46,414,34,-114
1,7438132,443,-1324,-924,-1488,-299,-46,414,34,-114
1,7438139,445,-1326,-918,-1488,-296,-39,417,29,-113
1,7438148,445,-1326,-918,-1488,-296,-39,417,29,-113
1,7438155,445,-1326,-918,-1488,-296,-39,417,29,-113
1,7438166,446,-1325,-923,-1490,-302,-40,417,29,-113
1,7438175,446,-1325,-923,-1490,-302,-40,417,29,-113
1,7438182,445,-1326,-922,-1487,-299,-30,417,29,-113
1,7438189,445,-1326,-922,-1487,-299,-30,417,29,-113
1,7438199,445,-1325,-925,-1487,-306,-36,417,29,-113
1,7438205,445,-1325,-925,-1487,-306,-36,417,29,-113
1,7438217,447,-1325,-924,-1489,-304,-46,417,29,-113
1,7438226,447,-1325,-924,-1489,-304,-46,417,29,-113
1,7438234,447,-1325,-924,-1489,-304,-46,417,29,-113
1,7438243,444,-1319,-919,-1483,-307,-41,417,29,-113
1,7438253,444,-1319,-919,-1483,-307,-41,417,29,-113
1,7438261,442,-1322,-917,-1484,-304,-38,414,30,-106
1,7438271,442,-1322,-917,-1484,-304,-38,414,30,-106
1,7438281,443,-1325,-921,-1492,-303,-29,414,30,-106
1,7438291,443,-1325,-921,-1492,-303,-29,414,30,-106
1,7438301,443,-1326,-915,-1492,-302,-38,414,30,-106
1,7438311,443,-1326,-915,-1492,-302,-38,414,30,-106
1,7438319,445,-1326,-923,-1482,-298,-39,414,30,-106
1,7438327,445,-1326,-923,-1482,-298,-39,414,30,-106
