imu,time,ax,ay,az,gx,gy,gz,mx,my,mz
2,5246071,-3467,-1692,-558,-153,-235,-84,263,157,-273
2,5246081,-3470,-1694,-559,-157,-238,-88,263,157,-273
2,5246086,-3470,-1694,-559,-157,-238,-88,263,157,-273
2,5246091,-3470,-1694,-559,-157,-238,-88,263,157,-273
2,5246096,-3471,-1693,-550,-159,-235,-81,260,160,-286
2,5246101,-3471,-1693,-550,-159,-235,-81,260,160,-286
2,5246107,-3471,-1693,-550,-159,-235,-81,260,160,-286
2,5246112,-3471,-1693,-550,-159,-235,-81,260,160,-286
2,5246119,-3470,-1692,-553,-156,-238,-84,260,160,-286
2,5246125,-3470,-1692,-553,-156,-238,-84,260,160,-286
2,5246130,-3470,-1692,-553,-156,-238,-84,260,160,-286
2,5246135,-3469,-1691,-554,-158,-237,-86,260,160,-286
2,5246141,-3469,-1691,-554,-158,-237,-86,260,160,-286
2,5246147,-3469,-1691,-554,-158,-237,-86,260,160,-286
2,5246152,-3469,-1691,-554,-158,-237,-86,260,160,-286
2,5246158,-3470,-1692,-551,-161,-233,-84,260,160,-286
2,5246166,-3470,-1692,-551,-161,-233,-84,260,160,-286
2,5246174,-3469,-1694,-554,-160,-229,-91,260,160,-286
2,5246180,-3469,-1694,-554,-160,-229,-91,260,160,-286
2,5246185,-3469,-1694,-554,-160,-229,-91,260,160,-286
2,5246193,-3468,-1695,-553,-157,-234,-84,260,160,-286
2,5246200,-3468,-1695,-553,-157,-234,-84,260,160,-286
2,5246208,-3468,-1695,-553,-157,-234,-84,260,160,-286
2,5246214,-3467,-1693,-552,-158,-232,-85,261,159,-287
2,5246220,-3467,-1693,-552,-158,-232,-85,261,159,-287
2,5246227,-3467,-1693,-552,-158,-232,-85,261,159,-287
2,5246235,-3470,-1694,-547,-156,-231,-84,261,159,-287
2,5246242,-3470,-1694,-547,-156,-231,-84,261,159,-287
2,5246251,-3470,-1694,-547,-156,-231,-84,261,159,-287
2,5246258,-3472,-1691,-550,-166,-239,-84,261,159,-287
2,5246264,-3472,-1691,-550,-166,-239,-84,261,159,-287
2,5246270,-3472,-1691,-550,-166,-239,-84,261,159,-287
2,5246278,-3471,-1691,-559,-160,-237,-85,261,159,-287
2,5246285,-3471,-1691,-559,-160,-237,-85,261,159,-287
2,5246292,-3471,-1691,-559,-160,-237,-85,261,159,-287
2,5246300,-3469,-1697,-555,-161,-245,-82,261,159,-287
2,5246306,-3469,-1697,-555,-161,-245,-82,261,159,-287
2,5246314,-3473,-1693,-555,-162,-243,-78,261,159,-287
2,5246321,-3473,-1693,-555,-162,-243,-78,261,159,-287
2,5246327,-3473,-1693,-555,-162,-243,-78,261,159,-287
2,5246333,-3469,-1691,-552,-158,-239,-82,260,164,-284
2,5246342,-3469,-1691,-552,-158,-239,-82,260,164,-284
2,5246349,-3469,-1691,-552,-158,-239,-82,260,164,-284
2,5246356,-3469,-1692,-546,-160,-243,-86,260,164,-284
2,5246362,-3469,-1692,-546,-160,-243,-86,260,164,-284
2,5246371,-3469,-1692,-546,-160,-243,-86,260,164,-284
2,5246379,-3472,-1691,-551,-153,-239,-86,260,164,-284
2,5246385,-3472,-1691,-551,-153,-239,-86,260,164,-284
2,5246392,-3472,-1691,-551,-153,-239,-86,260,164,-284
2,5246399,-3471,-1693,-558,-154,-235,-84,260,164,-284
2,5246404,-3471,-1693,-558,-154,-235,-84,260,164,-284
2,5246411,-3471,-1693,-558,-154,-235,-84,260,164,-284
2,5246418,-3468,-1692,-559,-157,-239,-78,260,164,-284
2,5246426,-3468,-1692,-559,-157,-239,-78,260,164,-284
2,5246433,-3468,-1692,-559,-157,-239,-78,260,164,-284
2,5246439,-3470,-1695,-556,-154,-231,-81,260,164,-284
2,5246446,-3470,-1695,-556,-154,-231,-81,260,164,-284
2,5246452,-3470,-1695,-556,-154,-231,-81,260,164,-284
2,5246460,-3470,-1694,-552,-162,-234,-87,260,164,-284
2,5246468,-3470,-1694,-552,-162,-234,-87,260,164,-284
2,5246473,-3470,-1694,-552,-162,-234,-87,260,164,-284
2,5246478,-3469,-1694,-549,-161,-240,-86,260,164,-284
2,5246485,-3469,-1694,-549,-161,-240,-86,260,164,-284
2,5246492,-3469,-1694,-549,-161,-240,-86,260,164,-284
2,5246498,-3468,-1694,-551,-161,-246,-87,260,164,-284
2,5246504,-3468,-1694,-551,-161,-246,-87,260,164,-284
2,5246510,-3468,-1694,-551,-161,-246,-87,260,164,-284
2,5246514,-3469,-1693,-551,-159,-240,-85,260,164,-284
2,5246520,-3469,-1693,-551,-159,-240,-85,260,164,-284
2,5246525,-3469,-1693,-551,-159,-240,-85,260,164,-284
2,5246532,-3469,-1693,-551,-159,-240,-85,260,164,-284
2,5246539,-3469,-1694,-550,-161,-239,-82,260,164,-284
2,5246546,-3469,-1694,-550,-161,-239,-82,260,164,-284
2,5246554,-3469,-1694,-550,-161,-239,-82,260,164,-284
2,5246561,-3467,-1692,-556,-160,-242,-77,260,164,-284
2,5246569,-3467,-1692,-556,-160,-242,-77,260,164,-284
2,5246577,-3469,-1693,-553,-162,-246,-85,260,164,-284
2,5246584,-3469,-1693,-553,-162,-246,-85,260,164,-284
2,5246592,-3469,-1693,-553,-162,-246,-85,260,164,-284
2,5246600,-3471,-1694,-555,-157,-240,-87,259,155,-287
2,5246607,-3471,-1694,-555,-157,-240,-87,259,155,-287
2,5246614,-3469,-1694,-553,-150,-239,-80,259,155,-287
2,5246620,-3469,-1694,-553,-150,-239,-80,259,155,-287
2,5246628,-3469,-1694,-553,-150,-239,-80,259,155,-287
2,5246635,-3468,-1691,-553,-158,-239,-84,259,155,-287
2,5246642,-3468,-1691,-553,-158,-239,-84,259,155,-287
2,5246649,-3468,-1691,-553,-158,-239,-84,259,155,-287
2,5246656,-3472,-1691,-555,-154,-231,-82,259,155,-287
2,5246663,-3472,-1691,-555,-154,-231,-82,259,155,-287
2,5246670,-3472,-1691,-555,-154,-231,-82,259,155,-287
2,5246678,-3472,-1691,-557,-160,-246,-84,259,155,-287
2,5246686,-3472,-1691,-557,-160,-246,-84,259,155,-287
2,5246694,-3471,-1692,-550,-161,-237,-81,259,155,-287
2,5246700,-3471,-1692,-550,-161,-237,-81,259,155,-287
2,5246707,-3471,-1692,-550,-161,-237,-81,259,155,-287
2,5246714,-3471,-1693,-553,-163,-239,-83,264,156,-284
2,5246721,-3471,-1693,-553,-163,-239,-83,264,156,-284
2,5246729,-3471,-1693,-553,-163,-239,-83,264,156,-284
2,5246736,-3471,-1692,-552,-162,-235,-85,264,156,-284
2,5246743,-3471,-1692,-552,-162,-235,-85,264,156,-284
2,5246751,-3471,-1692,-552,-162,-235,-85,264,156,-284
2,5246757,-3470,-1694,-556,-161,-240,-86,264,156,-284
2,5246765,-3470,-1694,-556,-161,-240,-86,264,156,-284
2,5246771,-3470,-1694,-556,-161,-240,-86,264,156,-284
2,5246777,-3470,-1692,-555,-164,-242,-85,264,156,-284
2,5246784,-3470,-1692,-555,-164,-242,-85,264,156,-284
2,5246790,-3470,-1692,-555,-164,-242,-85,264,156,-284
2,5246796,-3470,-1690,-553,-162,-246,-87,264,156,-284
2,5246802,-3470,-1690,-553,-162,-246,-87,264,156,-284
2,5246809,-3470,-1690,-553,-162,-246,-87,264,156,-284
2,5246815,-3469,-1692,-550,-156,-240,-83,264,156,-284
2,5246823,-3469,-1692,-550,-156,-240,-83,264,156,-284
2,5246830,-3469,-1692,-550,-156,-240,-83,264,156,-284
2,5246836,-3468,-1691,-553,-157,-236,-81,261,163,-285
2,5246843,-3468,-1691,-553,-157,-236,-81,261,163,-285
2,5246851,-3468,-1691,-553,-157,-236,-81,261,163,-285
2,5246859,-3470,-1693,-551,-160,-232,-88,261,163,-285
2,5246865,-3470,-1693,-551,-160,-232,-88,261,163,-285
2,5246873,-3470,-1693,-551,-160,-232,-88,261,163,-285
2,5246881,-3472,-1692,-553,-160,-235,-76,261,163,-285
2,5246892,-3472,-1692,-553,-160,-235,-76,261,163,-285
2,5246905,-3471,-1692,-552,-164,-234,-83,261,163,-285
2,5246920,-3470,-1693,-555,-155,-238,-83,261,163,-285
2,5246931,-3470,-1693,-555,-155,-238,-83,261,163,-285
2,5246942,-3473,-1694,-555,-153,-247,-82,261,163,-285
2,5246953,-3473,-1694,-555,-153,-247,-82,261,163,-285
2,5246965,-3470,-1694,-555,-162,-240,-89,264,162,-284
2,5246979,-3471,-1692,-551,-165,-238,-83,264,162,-284
2,5246990,-3471,-1692,-551,-165,-238,-83,264,162,-284
2,5247005,-3470,-1698,-549,-159,-236,-85,264,162,-284
2,5247017,-3471,-1693,-552,-155,-231,-79,264,162,-284
2,5247030,-3471,-1693,-552,-155,-231,-79,264,162,-284
2,5247043,-3471,-1695,-556,-156,-238,-88,264,162,-284
2,5247056,-3470,-1692,-559,-162,-238,-87,264,162,-284
2,5247065,-3470,-1692,-559,-162,-238,-87,264,162,-284
2,5247074,-3470,-1692,-559,-162,-238,-87,264,162,-284
2,5247087,-3470,-1692,-559,-162,-238,-87,264,162,-284
2,5247100,-3468,-1695,-549,-165,-240,-90,254,160,-288
2,5247110,-3468,-1695,-549,-165,-240,-90,254,160,-288
2,5247121,-3467,-1693,-551,-166,-238,-82,254,160,-288
2,5247130,-3467,-1693,-551,-166,-238,-82,254,160,-288
2,5247140,-3468,-1692,-552,-162,-233,-86,254,160,-288
2,5247149,-3468,-1692,-552,-162,-233,-86,254,160,-288
2,5247158,-3469,-1691,-557,-157,-231,-89,254,160,-288
2,5247167,-3469,-1691,-557,-157,-231,-89,254,160,-288
2,5247175,-3471,-1692,-555,-156,-239,-83,254,160,-288
2,5247183,-3471,-1692,-555,-156,-239,-83,254,160,-288
2,5247193,-3471,-1692,-555,-156,-239,-83,254,160,-288
2,5247202,-3473,-1694,-554,-154,-235,-78,254,160,-288
2,5247211,-3473,-1694,-554,-154,-235,-78,254,160,-288
2,5247224,-3469,-1693,-552,-160,-233,-79,257,163,-281
2,5247236,-3469,-1694,-552,-160,-242,-92,257,163,-281
2,5247248,-3469,-1694,-552,-160,-242,-92,257,163,-281
2,5247262,-3469,-1694,-550,-162,-237,-80,257,163,-281
2,5247276,-3470,-1696,-556,-161,-240,-84,257,163,-281
2,5247287,-3470,-1696,-556,-161,-240,-84,257,163,-281
2,5247301,-3469,-1698,-548,-160,-234,-77,257,163,-281
2,5247312,-3469,-1698,-548,-160,-234,-77,257,163,-281
2,5247327,-3468,-1691,-554,-155,-236,-89,257,163,-281
2,5247339,-3471,-1692,-549,-156,-234,-95,257,159,-289
2,5247352,-3471,-1692,-549,-156,-234,-95,257,159,-289
2,5247365,-3472,-1692,-551,-165,-236,-94,257,159,-289
2,5247376,-3469,-1694,-551,-162,-238,-90,257,159,-289
2,5247389,-3469,-1694,-551,-162,-238,-90,257,159,-289
2,5247401,-3471,-1693,-554,-159,-236,-93,257,159,-289
2,5247416,-3468,-1693,-553,-166,-239,-87,257,159,-289
2,5247427,-3468,-1693,-553,-166,-239,-87,257,159,-289
2,5247440,-3470,-1693,-558,-161,-241,-85,257,159,-289
2,5247453,-3470,-1693,-558,-161,-241,-85,257,159,-289
2,5247466,-3471,-1693,-550,-150,-235,-84,260,160,-284
2,5247480,-3467,-1695,-555,-157,-240,-84,260,160,-284
2,5247493,-3467,-1695,-555,-157,-240,-84,260,160,-284
2,5247502,-3469,-1696,-553,-164,-241,-82,260,160,-284
2,5247510,-3469,-1696,-553,-164,-241,-82,260,160,-284
2,5247517,-3471,-1696,-554,-163,-238,-86,260,160,-284
2,5247526,-3471,-1696,-554,-163,-238,-86,260,160,-284
2,5247541,-3469,-1697,-556,-157,-240,-82,260,160,-284
2,5247553,-3469,-1697,-556,-157,-240,-82,260,160,-284
2,5247565,-3470,-1691,-554,-156,-238,-86,260,160,-284
2,5247579,-3469,-1693,-552,-152,-244,-84,262,156,-288
2,5247592,-3469,-1693,-552,-152,-244,-84,262,156,-288
2,5247605,-3466,-1694,-553,-160,-245,-87,262,156,-288
2,5247617,-3468,-1695,-553,-157,-240,-90,262,156,-288
2,5247627,-3468,-1695,-553,-157,-240,-90,262,156,-288
2,5247640,-3470,-1696,-550,-163,-236,-88,262,156,-288
2,5247649,-3470,-1696,-550,-163,-236,-88,262,156,-288
2,5247661,-3471,-1695,-555,-157,-237,-93,262,156,-288
2,5247673,-3471,-1695,-555,-157,-237,-93,262,156,-288
2,5247684,-3470,-1694,-552,-159,-240,-85,262,156,-288
2,5247696,-3470,-1690,-552,-162,-246,-84,262,156,-288
2,5247710,-3470,-1690,-552,-162,-246,-84,262,156,-288
2,5247721,-3471,-1693,-553,-159,-244,-87,258,166,-288
2,5247730,-3471,-1693,-553,-159,-244,-87,258,166,-288
2,5247737,-3473,-1689,-555,-160,-237,-92,258,166,-288
2,5247746,-3473,-1689,-555,-160,-237,-92,258,166,-288
2,5247755,-3470,-1691,-555,-160,-240,-91,258,166,-288
2,5247764,-3470,-1691,-555,-160,-240,-91,258,166,-288
2,5247776,-3476,-1693,-554,-159,-238,-85,258,166,-288
2,5247792,-3476,-1693,-554,-159,-238,-85,258,166,-288
2,5247800,-3469,-1691,-551,-153,-236,-90,258,166,-288
2,5247811,-3469,-1691,-551,-153,-236,-90,258,166,-288
2,5247824,-3472,-1692,-551,-163,-232,-86,258,166,-288
2,5247837,-3473,-1691,-554,-157,-238,-91,265,161,-289
2,5247848,-3473,-1691,-554,-157,-238,-91,265,161,-289
2,5247861,-3470,-1694,-552,-160,-240,-78,265,161,-289
2,5247874,-3470,-1694,-552,-160,-240,-78,265,161,-289
2,5247885,-3467,-1694,-547,-165,-238,-79,265,161,-289
2,5247892,-3467,-1694,-547,-165,-238,-79,265,161,-289
2,5247898,-3472,-1695,-552,-164,-243,-80,265,161,-289
2,5247906,-3472,-1695,-552,-164,-243,-80,265,161,-289
2,5247913,-3472,-1695,-552,-164,-243,-80,265,161,-289
2,5247920,-3468,-1694,-555,-160,-241,-82,265,161,-289
2,5247927,-3468,-1694,-555,-160,-241,-82,265,161,-289
2,5247934,-3468,-1694,-555,-160,-241,-82,265,161,-289
2,5247941,-3470,-1690,-554,-158,-231,-85,265,161,-289
2,5247947,-3470,-1690,-554,-158,-231,-85,265,161,-289
2,5247954,-3470,-1690,-554,-158,-231,-85,265,161,-289
2,5247961,-3472,-1692,-546,-157,-233,-75,262,160,-288
2,5247970,-3472,-1692,-546,-157,-233,-75,262,160,-288
2,5247977,-3471,-1693,-555,-162,-243,-81,262,160,-288
2,5247984,-3471,-1693,-555,-162,-243,-81,262,160,-288
2,5247991,-3471,-1693,-555,-162,-243,-81,262,160,-288
2,5247996,-3471,-1692,-555,-159,-243,-83,262,160,-288
2,5248004,-3471,-1692,-555,-159,-243,-83,262,160,-288
2,5248010,-3471,-1692,-555,-159,-243,-83,262,160,-288
2,5248016,-3469,-1694,-553,-158,-239,-82,262,160,-288
2,5248024,-3469,-1694,-553,-158,-239,-82,262,160,-288
2,5248032,-3469,-1694,-553,-158,-239,-82,262,160,-288
2,5248039,-3471,-1694,-555,-158,-236,-80,262,160,-288
2,5248047,-3471,-1694,-555,-158,-236,-80,262,160,-288
2,5248053,-3471,-1694,-555,-158,-236,-80,262,160,-288
2,5248060,-3470,-1693,-554,-158,-237,-84,262,160,-288
2,5248068,-3470,-1693,-554,-158,-237,-84,262,160,-288
2,5248075,-3470,-1693,-554,-158,-237,-84,262,160,-288
2,5248081,-3470,-1689,-553,-155,-235,-87,269,153,-281
2,5248088,-3470,-1689,-553,-155,-235,-87,269,153,-281
2,5248095,-3470,-1689,-553,-155,-235,-87,269,153,-281
2,5248102,-3469,-1691,-552,-157,-235,-80,269,153,-281
2,5248110,-3469,-1691,-552,-157,-235,-80,269,153,-281
2,5248119,-3472,-1694,-560,-161,-234,-84,269,153,-281
2,5248125,-3472,-1694,-560,-161,-234,-84,269,153,-281
2,5248133,-3472,-1694,-560,-161,-234,-84,269,153,-281
2,5248140,-3472,-1694,-560,-161,-234,-84,269,153,-281
2,5248148,-3472,-1694,-560,-161,-234,-84,269,153,-281
2,5248154,-3472,-1694,-560,-161,-234,-84,269,153,-281
2,5248161,-3470,-1692,-553,-166,-239,-83,269,153,-281
2,5248169,-3470,-1692,-553,-166,-239,-83,269,153,-281
2,5248177,-3470,-1692,-553,-161,-246,-92,269,153,-281
2,5248185,-3470,-1692,-553,-161,-246,-92,269,153,-281
2,5248191,-3470,-1692,-553,-161,-246,-92,269,153,-281
2,5248198,-3471,-1691,-548,-164,-231,-90,267,159,-279
2,5248204,-3471,-1691,-548,-164,-231,-90,267,159,-279
2,5248211,-3471,-1691,-548,-164,-231,-90,267,159,-279
2,5248219,-3471,-1691,-548,-164,-231,-90,267,159,-279
2,5248226,-3471,-1691,-548,-164,-231,-90,267,159,-279
2,5248232,-3471,-1691,-548,-164,-231,-90,267,159,-279
2,5248239,-3473,-1693,-554,-167,-247,-94,267,159,-279
2,5248248,-3473,-1693,-554,-167,-247,-94,267,159,-279
2,5248254,-3473,-1693,-554,-167,-247,-94,267,159,-279
2,5248262,-3468,-1694,-552,-161,-243,-80,267,159,-279
2,5248269,-3468,-1694,-552,-161,-243,-80,267,159,-279
2,5248276,-3469,-1692,-550,-155,-239,-88,267,159,-279
2,5248283,-3469,-1692,-550,-155,-239,-88,267,159,-279
2,5248289,-3469,-1692,-550,-155,-239,-88,267,159,-279
2,5248299,-3470,-1694,-550,-163,-240,-90,267,159,-279
2,5248305,-3470,-1694,-550,-163,-240,-90,267,159,-279
2,5248313,-3470,-1694,-550,-163,-240,-90,267,159,-279
2,5248318,-3470,-1692,-559,-156,-239,-88,267,159,-279
2,5248323,-3470,-1692,-559,-156,-239,-88,267,159,-279
2,5248328,-3470,-1692,-559,-156,-239,-88,267,159,-279
2,5248335,-3469,-1691,-554,-159,-238,-88,260,160,-282
2,5248344,-3469,-1691,-554,-159,-238,-88,260,160,-282
2,5248351,-3469,-1691,-554,-159,-238,-88,260,160,-282
2,5248357,-3470,-1693,-552,-162,-235,-93,260,160,-282
2,5248365,-3470,-1693,-552,-162,-235,-93,260,160,-282
2,5248371,-3470,-1693,-552,-162,-235,-93,260,160,-282
2,5248378,-3470,-1692,-551,-157,-236,-89,260,160,-282
2,5248388,-3470,-1692,-551,-157,-236,-89,260,160,-282
2,5248394,-3470,-1692,-551,-157,-236,-89,260,160,-282
2,5248401,-3470,-1693,-554,-165,-234,-89,260,160,-282
2,5248408,-3470,-1693,-554,-165,-234,-89,260,160,-282
2,5248415,-3472,-1696,-552,-161,-239,-86,260,160,-282
2,5248422,-3472,-1696,-552,-161,-239,-86,260,160,-282
2,5248429,-3472,-1696,-552,-161,-239,-86,260,160,-282
2,5248436,-3472,-1694,-551,-163,-240,-88,260,160,-282
2,5248442,-3472,-1694,-551,-163,-240,-88,260,160,-282
2,5248447,-3472,-1694,-551,-163,-240,-88,260,160,-282
2,5248455,-3472,-1694,-551,-163,-240,-88,260,160,-282
2,5248462,-3467,-1693,-556,-164,-248,-88,260,156,-288
2,5248470,-3467,-1693,-556,-164,-248,-88,260,156,-288
2,5248477,-3469,-1694,-556,-161,-239,-81,260,156,-288
2,5248485,-3469,-1694,-556,-161,-239,-81,260,156,-288
2,5248491,-3469,-1694,-556,-161,-239,-81,260,156,-288
2,5248497,-3469,-1691,-557,-163,-235,-91,260,156,-288
2,5248502,-3469,-1691,-557,-163,-235,-91,260,156,-288
2,5248507,-3469,-1691,-557,-163,-235,-91,260,156,-288
2,5248513,-3469,-1691,-557,-163,-235,-91,260,156,-288
2,5248518,-3471,-1692,-553,-160,-238,-91,260,156,-288
2,5248523,-3471,-1692,-553,-160,-238,-91,260,156,-288
2,5248528,-3471,-1692,-553,-160,-238,-91,260,156,-288
2,5248533,-3471,-1692,-553,-160,-238,-91,260,156,-288
2,5248540,-3470,-1695,-555,-162,-236,-91,260,156,-288
2,5248547,-3470,-1695,-555,-162,-236,-91,260,156,-288
2,5248555,-3470,-1695,-555,-162,-236,-91,260,156,-288
2,5248563,-3471,-1693,-551,-160,-239,-89,260,156,-288
2,5248570,-3471,-1693,-551,-160,-239,-89,260,156,-288
2,5248576,-3470,-1695,-554,-170,-241,-86,256,158,-280
2,5248582,-3470,-1695,-554,-170,-241,-86,256,158,-280
2,5248589,-3470,-1695,-554,-170,-241,-86,256,158,-280
2,5248595,-3470,-1693,-549,-165,-238,-88,256,158,-280
2,5248604,-3470,-1693,-549,-165,-238,-88,256,158,-280
2,5248612,-3470,-1693,-549,-165,-238,-88,256,158,-280
2,5248617,-3471,-1693,-551,-155,-233,-85,256,158,-280
2,5248624,-3471,-1693,-551,-155,-233,-85,256,158,-280
2,5248631,-3471,-1693,-551,-155,-233,-85,256,158,-280
2,5248638,-3470,-1694,-555,-162,-241,-74,256,158,-280
2,5248646,-3470,-1694,-555,-162,-241,-74,256,158,-280
2,5248652,-3470,-1694,-555,-162,-241,-74,256,158,-280
2,5248659,-3470,-1696,-555,-164,-237,-78,256,158,-280
2,5248665,-3470,-1696,-555,-164,-237,-78,256,158,-280
2,5248672,-3470,-1696,-555,-164,-237,-78,256,158,-280
2,5248680,-3467,-1696,-553,-168,-237,-79,256,158,-280
2,5248688,-3467,-1696,-553,-168,-237,-79,256,158,-280
2,5248694,-3467,-1696,-553,-168,-237,-79,256,158,-280
2,5248701,-3470,-1696,-549,-157,-239,-85,264,158,-286
2,5248708,-3470,-1696,-549,-157,-239,-85,264,158,-286
2,5248714,-3470,-1696,-549,-157,-239,-85,264,158,-286
2,5248722,-3468,-1696,-555,-164,-239,-86,264,158,-286
2,5248730,-3468,-1696,-555,-164,-239,-86,264,158,-286
2,5248736,-3468,-1696,-555,-164,-239,-86,264,158,-286
2,5248742,-3468,-1696,-558,-165,-239,-85,264,158,-286
2,5248749,-3468,-1696,-558,-165,-239,-85,264,158,-286
2,5248756,-3473,-1692,-555,-164,-238,-84,264,158,-286
2,5248763,-3473,-1692,-555,-164,-238,-84,264,158,-286
2,5248770,-3473,-1692,-555,-164,-238,-84,264,158,-286
2,5248777,-3474,-1695,-560,-163,-241,-88,264,158,-286
2,5248784,-3474,-1695,-560,-163,-241,-88,264,158,-286
2,5248791,-3474,-1695,-560,-163,-241,-88,264,158,-286
2,5248796,-3472,-1693,-551,-163,-236,-81,264,158,-286
2,5248803,-3472,-1693,-551,-163,-236,-81,264,158,-286
2,5248811,-3472,-1693,-551,-163,-236,-81,264,158,-286
2,5248816,-3469,-1692,-555,-163,-239,-84,260,160,-284
2,5248823,-3469,-1692,-555,-163,-239,-84,260,160,-284
2,5248831,-3469,-1692,-555,-163,-239,-84,260,160,-284
2,5248837,-3468,-1696,-550,-159,-242,-78,260,160,-284
2,5248843,-3468,-1696,-550,-159,-242,-78,260,160,-284
2,5248848,-3468,-1696,-550,-159,-242,-78,260,160,-284
2,5248854,-3468,-1696,-550,-159,-242,-78,260,160,-284
2,5248861,-3472,-1692,-552,-160,-240,-82,260,160,-284
2,5248866,-3472,-1692,-552,-160,-240,-82,260,160,-284
2,5248874,-3472,-1692,-552,-160,-240,-82,260,160,-284
2,5248880,-3469,-1693,-554,-163,-233,-82,260,160,-284
2,5248888,-3469,-1693,-554,-163,-233,-82,260,160,-284
2,5248896,-3469,-1693,-554,-163,-233,-82,260,160,-284
2,5248909,-3470,-1692,-554,-161,-237,-81,260,160,-284
2,5248921,-3471,-1696,-556,-160,-240,-79,260,160,-284
2,5248933,-3471,-1696,-556,-160,-240,-79,260,160,-284
2,5248947,-3468,-1690,-558,-164,-233,-83,260,160,-284
2,5248960,-3470,-1695,-549,-160,-240,-86,260,160,-284
2,5248972,-3470,-1695,-549,-160,-240,-86,260,160,-284
2,5248985,-3471,-1695,-552,-166,-241,-87,260,160,-284
2,5248997,-3468,-1691,-552,-166,-237,-88,260,160,-284
2,5249009,-3468,-1691,-552,-166,-237,-88,260,160,-284
2,5249021,-3471,-1693,-553,-156,-234,-85,260,160,-284
2,5249035,-3471,-1693,-553,-156,-234,-85,260,160,-284
2,5249049,-3473,-1695,-553,-165,-237,-84,260,160,-284
2,5249062,-3472,-1695,-557,-156,-236,-86,260,160,-284
2,5249071,-3472,-1695,-557,-156,-236,-86,260,160,-284
2,5249083,-3470,-1695,-548,-162,-245,-91,261,159,-287
2,5249097,-3470,-1694,-552,-160,-245,-85,261,159,-287
2,5249110,-3470,-1694,-552,-160,-245,-85,261,159,-287
2,5249123,-3468,-1693,-549,-162,-243,-79,261,159,-287
2,5249137,-3471,-1694,-555,-162,-245,-79,261,159,-287
2,5249150,-3471,-1694,-555,-162,-245,-79,261,159,-287
2,5249162,-3473,-1693,-556,-161,-236,-79,261,159,-287
2,5249174,-3473,-1693,-556,-161,-236,-79,261,159,-287
2,5249186,-3471,-1692,-555,-156,-241,-81,261,159,-287
2,5249200,-3473,-1693,-553,-158,-240,-84,263,163,-285
2,5249212,-3473,-1693,-553,-158,-240,-84,263,163,-285
2,5249220,-3469,-1693,-551,-159,-237,-85,263,163,-285
2,5249232,-3469,-1693,-551,-159,-237,-85,263,163,-285
2,5249246,-3469,-1692,-550,-163,-236,-83,263,163,-285
2,5249258,-3473,-1695,-558,-164,-240,-86,263,163,-285
2,5249269,-3473,-1695,-558,-164,-240,-86,263,163,-285
2,5249281,-3471,-1695,-554,-163,-248,-84,263,163,-285
2,5249291,-3471,-1695,-554,-163,-248,-84,263,163,-285
2,5249302,-3470,-1691,-556,-164,-239,-87,263,163,-285
2,5249314,-3470,-1691,-556,-164,-239,-87,263,163,-285
2,5249329,-3470,-1695,-547,-160,-239,-81,260,160,-282
2,5249337,-3472,-1693,-553,-163,-246,-86,260,160,-282
2,5249348,-3472,-1693,-553,-163,-246,-86,260,160,-282
2,5249362,-3470,-1695,-550,-160,-243,-90,260,160,-282
2,5249375,-3470,-1695,-550,-160,-243,-90,260,160,-282
2,5249387,-3471,-1694,-552,-163,-237,-86,260,160,-282
2,5249397,-3471,-1694,-550,-157,-235,-88,260,160,-282
2,5249406,-3471,-1694,-550,-157,-235,-88,260,160,-282
2,5249414,-3471,-1694,-550,-157,-235,-88,260,160,-282
2,5249422,-3469,-1691,-557,-160,-242,-91,260,160,-282
2,5249434,-3469,-1691,-557,-160,-242,-91,260,160,-282
2,5249445,-3471,-1692,-558,-162,-233,-88,263,155,-291
2,5249457,-3471,-1691,-550,-166,-235,-79,263,155,-291
2,5249470,-3471,-1691,-550,-166,-235,-79,263,155,-291
2,5249484,-3472,-1695,-553,-161,-236,-85,263,155,-291
2,5249498,-3472,-1694,-553,-165,-239,-87,263,155,-291
2,5249506,-3472,-1694,-553,-165,-239,-87,263,155,-291
2,5249514,-3472,-1694,-553,-165,-239,-87,263,155,-291
2,5249522,-3473,-1693,-552,-166,-243,-80,263,155,-291
2,5249537,-3469,-1694,-554,-164,-239,-76,263,155,-291
2,5249551,-3469,-1694,-554,-164,-239,-76,263,155,-291
2,5249563,-3472,-1695,-549,-160,-246,-87,264,160,-286
2,5249575,-3472,-1695,-549,-160,-246,-87,264,160,-286
2,5249588,-3471,-1689,-550,-159,-236,-83,264,160,-286
2,5249602,-3473,-1691,-550,-158,-233,-80,264,160,-286
2,5249614,-3473,-1691,-550,-158,-233,-80,264,160,-286
2,5249626,-3469,-1693,-552,-167,-230,-80,264,160,-286
2,5249639,-3469,-1694,-552,-158,-235,-81,264,160,-286
2,5249652,-3469,-1694,-552,-158,-235,-81,264,160,-286
2,5249665,-3468,-1692,-553,-160,-233,-81,264,160,-286
2,5249677,-3472,-1694,-548,-163,-237,-92,264,160,-286
2,5249690,-3472,-1694,-548,-163,-237,-92,264,160,-286
2,5249703,-3469,-1693,-546,-158,-248,-89,260,162,-278
2,5249717,-3468,-1692,-547,-164,-236,-88,260,162,-278
2,5249726,-3468,-1692,-547,-164,-236,-88,260,162,-278
2,5249737,-3471,-1691,-551,-161,-234,-89,260,162,-278
2,5249751,-3471,-1691,-551,-161,-234,-89,260,162,-278
2,5249763,-3472,-1691,-558,-157,-235,-94,260,162,-278
2,5249773,-3472,-1691,-558,-157,-235,-94,260,162,-278
2,5249784,-3473,-1694,-556,-160,-239,-90,260,162,-278
2,5249797,-3471,-1695,-553,-163,-238,-90,260,162,-278
2,5249806,-3471,-1695,-553,-163,-238,-90,260,162,-278
2,5249819,-3470,-1693,-550,-163,-239,-86,258,168,-292
2,5249831,-3470,-1693,-550,-163,-239,-86,258,168,-292
2,5249843,-3473,-1696,-552,-161,-241,-83,258,168,-292
2,5249855,-3473,-1696,-552,-161,-241,-83,258,168,-292
2,5249869,-3474,-1694,-554,-163,-238,-85,258,168,-292
2,5249882,-3469,-1692,-556,-160,-239,-88,258,168,-292
2,5249894,-3469,-1692,-556,-160,-239,-88,258,168,-292
2,5249904,-3471,-1691,-554,-166,-239,-85,258,168,-292
2,5249911,-3471,-1691,-554,-166,-239,-85,258,168,-292
2,5249917,-3472,-1692,-556,-162,-233,-81,258,168,-292
2,5249925,-3472,-1692,-556,-162,-233,-81,258,168,-292
2,5249933,-3472,-1692,-556,-162,-233,-81,258,168,-292
2,5249938,-3472,-1689,-554,-158,-234,-79,263,159,-295
2,5249945,-3472,-1689,-554,-158,-234,-79,263,159,-295
2,5249953,-3472,-1689,-554,-158,-234,-79,263,159,-295
2,5249959,-3469,-1696,-552,-161,-237,-85,263,159,-295
2,5249967,-3469,-1696,-552,-161,-237,-85,263,159,-295
2,5249972,-3469,-1696,-552,-161,-237,-85,263,159,-295
2,5249979,-3473,-1694,-551,-163,-241,-90,263,159,-295
2,5249986,-3473,-1694,-551,-163,-241,-90,263,159,-295
2,5249992,-3473,-1694,-551,-163,-241,-90,263,159,-295
2,5249999,-3472,-1696,-557,-164,-237,-90,263,159,-295
2,5250008,-3472,-1696,-557,-164,-237,-90,263,159,-295
2,5250015,-3472,-1696,-557,-164,-237,-90,263,159,-295
2,5250024,-3474,-1697,-552,-160,-232,-86,263,159,-295
2,5250029,-3474,-1697,-552,-160,-232,-86,263,159,-295
2,5250036,-3474,-1697,-552,-160,-232,-86,263,159,-295
2,5250043,-3473,-1693,-556,-157,-243,-87,263,159,-295
2,5250049,-3473,-1693,-556,-157,-243,-87,263,159,-295
2,5250054,-3473,-1693,-556,-157,-243,-87,263,159,-295
2,5250061,-3474,-1690,-550,-159,-243,-84,252,160,-286
2,5250067,-3474,-1690,-550,-159,-243,-84,252,160,-286
2,5250075,-3474,-1690,-550,-159,-243,-84,252,160,-286
2,5250082,-3471,-1693,-551,-163,-241,-85,252,160,-286
2,5250088,-3471,-1693,-551,-163,-241,-85,252,160,-286
2,5250096,-3471,-1693,-551,-163,-241,-85,252,160,-286
2,5250102,-3470,-1692,-555,-160,-243,-84,252,160,-286
2,5250109,-3470,-1692,-555,-160,-243,-84,252,160,-286
2,5250116,-3470,-1692,-555,-160,-243,-84,252,160,-286
2,5250123,-3468,-1689,-557,-160,-244,-84,252,160,-286
2,5250130,-3468,-1689,-557,-160,-244,-84,252,160,-286
2,5250138,-3470,-1693,-556,-165,-240,-77,252,160,-286
2,5250143,-3470,-1693,-556,-165,-240,-77,252,160,-286
2,5250151,-3470,-1693,-556,-165,-240,-77,252,160,-286
2,5250156,-3470,-1693,-556,-165,-240,-77,252,160,-286
2,5250163,-3466,-1696,-550,-162,-233,-83,252,160,-286
2,5250171,-3466,-1696,-550,-162,-233,-83,252,160,-286
2,5250179,-3472,-1695,-552,-163,-230,-86,266,154,-282
2,5250185,-3472,-1695,-552,-163,-230,-86,266,154,-282
2,5250192,-3472,-1695,-552,-163,-230,-86,266,154,-282
2,5250199,-3468,-1694,-552,-163,-236,-81,266,154,-282
2,5250205,-3468,-1694,-552,-163,-236,-81,266,154,-282
2,5250213,-3468,-1694,-552,-163,-236,-81,266,154,-282
2,5250221,-3473,-1690,-552,-163,-239,-80,266,154,-282
2,5250226,-3473,-1690,-552,-163,-239,-80,266,154,-282
2,5250233,-3473,-1690,-552,-163,-239,-80,266,154,-282
2,5250240,-3470,-1696,-552,-159,-241,-84,266,154,-282
2,5250246,-3470,-1696,-552,-159,-241,-84,266,154,-282
2,5250253,-3470,-1696,-552,-159,-241,-84,266,154,-282
2,5250260,-3468,-1695,-552,-162,-238,-83,266,154,-282
2,5250267,-3468,-1695,-552,-162,-238,-83,266,154,-282
2,5250273,-3468,-1695,-552,-162,-238,-83,266,154,-282
2,5250281,-3468,-1695,-556,-163,-243,-82,266,154,-282
2,5250288,-3468,-1695,-556,-163,-243,-82,266,154,-282
2,5250293,-3468,-1695,-556,-163,-243,-82,266,154,-282
2,5250299,-3470,-1695,-555,-164,-247,-87,266,154,-282
2,5250309,-3470,-1695,-555,-164,-247,-87,266,154,-282
2,5250315,-3470,-1695,-555,-164,-247,-87,266,154,-282
2,5250322,-3470,-1694,-554,-159,-234,-89,261,163,-287
2,5250328,-3470,-1694,-554,-159,-234,-89,261,163,-287
2,5250336,-3470,-1694,-554,-159,-234,-89,261,163,-287
2,5250343,-3470,-1693,-556,-159,-238,-86,261,163,-287
2,5250350,-3470,-1693,-556,-159,-238,-86,261,163,-287
2,5250358,-3471,-1693,-554,-163,-242,-83,261,163,-287
2,5250364,-3471,-1693,-554,-163,-242,-83,261,163,-287
2,5250371,-3471,-1693,-554,-163,-242,-83,261,163,-287
2,5250378,-3470,-1693,-558,-160,-238,-84,261,163,-287
2,5250385,-3470,-1693,-558,-160,-238,-84,261,163,-287
2,5250391,-3470,-1693,-558,-160,-238,-84,261,163,-287
2,5250396,-3470,-1693,-558,-160,-238,-84,261,163,-287
2,5250403,-3470,-1690,-553,-158,-240,-83,261,163,-287
2,5250408,-3470,-1690,-553,-158,-240,-83,261,163,-287
2,5250415,-3470,-1690,-553,-158,-240,-83,261,163,-287
2,5250422,-3472,-1693,-554,-156,-241,-86,261,163,-287
2,5250430,-3472,-1693,-554,-156,-241,-86,261,163,-287
2,5250438,-3469,-1691,-551,-159,-239,-82,261,163,-287
2,5250444,-3469,-1691,-551,-159,-239,-82,261,153,-281
2,5250451,-3469,-1691,-551,-159,-239,-82,261,153,-281
2,5250459,-3470,-1694,-549,-159,-248,-87,261,153,-281
2,5250466,-3470,-1694,-549,-159,-248,-87,261,153,-281
2,5250472,-3470,-1694,-549,-159,-248,-87,261,153,-281
2,5250480,-3473,-1693,-556,-159,-246,-87,261,153,-281
2,5250487,-3473,-1693,-556,-159,-246,-87,261,153,-281
2,5250491,-3473,-1693,-556,-159,-246,-87,261,153,-281
2,5250499,-3470,-1692,-554,-167,-242,-89,261,153,-281
2,5250504,-3470,-1692,-554,-167,-242,-89,261,153,-281
2,5250508,-3470,-1692,-554,-167,-242,-89,261,153,-281
2,5250513,-3470,-1692,-554,-167,-242,-89,261,153,-281
2,5250519,-3467,-1692,-551,-160,-231,-84,261,153,-281
2,5250525,-3467,-1692,-551,-160,-231,-84,261,153,-281
2,5250530,-3467,-1692,-551,-160,-231,-84,261,153,-281
2,5250537,-3467,-1692,-551,-160,-231,-84,261,153,-281
2,5250541,-3467,-1695,-551,-159,-235,-82,261,153,-281
2,5250547,-3467,-1695,-551,-159,-235,-82,261,153,-281
2,5250552,-3467,-1695,-551,-159,-235,-82,261,153,-281
2,5250557,-3469,-1694,-554,-160,-236,-79,261,163,-291
2,5250566,-3469,-1694,-554,-160,-236,-79,261,163,-291
2,5250572,-3469,-1694,-554,-160,-236,-79,261,163,-291
2,5250580,-3466,-1692,-552,-160,-238,-86,261,163,-291
2,5250585,-3466,-1692,-552,-160,-238,-86,261,163,-291
2,5250591,-3466,-1692,-552,-160,-238,-86,261,163,-291
2,5250598,-3471,-1693,-557,-157,-240,-87,261,163,-291
2,5250606,-3471,-1693,-557,-157,-240,-87,261,163,-291
2,5250613,-3471,-1693,-557,-157,-240,-87,261,163,-291
2,5250619,-3470,-1692,-553,-163,-242,-83,261,163,-291
2,5250625,-3470,-1692,-553,-163,-242,-83,261,163,-291
2,5250632,-3470,-1692,-553,-163,-242,-83,261,163,-291
2,5250640,-3471,-1694,-549,-163,-232,-84,261,163,-291
2,5250649,-3471,-1694,-549,-163,-232,-84,261,163,-291
2,5250654,-3471,-1694,-549,-163,-232,-84,261,163,-291
2,5250662,-3468,-1693,-554,-159,-232,-87,261,163,-291
2,5250669,-3468,-1693,-554,-159,-232,-87,261,163,-291
2,5250675,-3468,-1693,-554,-159,-232,-87,261,163,-291
2,5250682,-3468,-1696,-551,-169,-239,-87,257,161,-285
2,5250690,-3468,-1696,-551,-169,-239,-87,257,161,-285
2,5250696,-3468,-1696,-551,-169,-239,-87,257,161,-285
2,5250704,-3471,-1692,-551,-163,-241,-86,257,161,-285
2,5250711,-3471,-1692,-551,-163,-241,-86,257,161,-285
2,5250719,-3470,-1695,-553,-167,-236,-86,257,161,-285
2,5250727,-3470,-1695,-553,-167,-236,-86,257,161,-285
2,5250735,-3470,-1695,-553,-167,-236,-86,257,161,-285
2,5250741,-3467,-1695,-554,-164,-237,-86,257,161,-285
2,5250746,-3467,-1695,-554,-164,-237,-86,257,161,-285
2,5250753,-3467,-1695,-554,-164,-237,-86,257,161,-285
2,5250759,-3473,-1694,-553,-167,-235,-83,257,161,-285
2,5250767,-3473,-1694,-553,-167,-235,-83,257,161,-285
2,5250777,-3473,-1694,-553,-167,-235,-83,257,161,-285
2,5250784,-3471,-1695,-557,-167,-240,-81,257,161,-285
2,5250790,-3471,-1695,-557,-167,-240,-81,257,161,-285
2,5250796,-3471,-1695,-557,-167,-240,-81,257,161,-285
2,5250802,-3471,-1693,-552,-166,-243,-82,261,155,-285
2,5250808,-3471,-1693,-552,-166,-243,-82,261,155,-285
2,5250817,-3471,-1693,-552,-166,-243,-82,261,155,-285
2,5250823,-3472,-1693,-546,-165,-230,-81,261,155,-285
2,5250829,-3472,-1693,-546,-165,-230,-81,261,155,-285
2,5250836,-3472,-1693,-546,-165,-230,-81,261,155,-285
2,5250843,-3468,-1693,-553,-162,-234,-90,261,155,-285
2,5250850,-3468,-1693,-553,-162,-234,-90,261,155,-285
2,5250859,-3469,-1692,-556,-167,-238,-88,261,155,-285
2,5250867,-3469,-1692,-556,-167,-238,-88,261,155,-285
2,5250875,-3469,-1692,-556,-167,-238,-88,261,155,-285
2,5250881,-3469,-1693,-551,-167,-240,-88,261,155,-285
2,5250888,-3469,-1693,-551,-167,-240,-88,261,155,-285
2,5250893,-3469,-1693,-551,-167,-240,-88,261,155,-285
2,5250900,-3469,-1691,-548,-163,-238,-81,261,155,-285
2,5250908,-3469,-1691,-548,-163,-238,-81,261,155,-285
2,5250921,-3472,-1693,-554,-161,-228,-77,261,155,-285
2,5250934,-3472,-1693,-554,-161,-228,-77,261,155,-285
2,5250948,-3470,-1691,-552,-166,-236,-89,262,166,-294
2,5250961,-3474,-1692,-552,-171,-238,-86,262,166,-294
2,5250972,-3474,-1692,-552,-171,-238,-86,262,166,-294
2,5250983,-3471,-1693,-558,-166,-240,-81,262,166,-294
2,5250997,-3471,-1693,-558,-166,-240,-81,262,166,-294
2,5251010,-3471,-1694,-557,-169,-237,-77,262,166,-294
2,5251022,-3469,-1693,-556,-169,-242,-84,262,166,-294
2,5251036,-3469,-1693,-556,-169,-242,-84,262,166,-294
2,5251049,-3470,-1695,-556,-166,-237,-89,262,166,-294
2,5251062,-3468,-1693,-549,-163,-240,-89,253,155,-285
2,5251074,-3468,-1693,-549,-163,-240,-89,253,155,-285
2,5251082,-3468,-1696,-556,-163,-238,-89,253,155,-285
2,5251090,-3468,-1696,-556,-163,-238,-89,253,155,-285
2,5251098,-3469,-1693,-557,-162,-237,-83,253,155,-285
2,5251108,-3469,-1693,-557,-162,-237,-83,253,155,-285
2,5251118,-3471,-1693,-559,-161,-239,-88,253,155,-285
2,5251128,-3471,-1693,-559,-161,-239,-88,253,155,-285
2,5251140,-3470,-1692,-551,-156,-237,-84,253,155,-285
2,5251153,-3470,-1692,-551,-156,-237,-84,253,155,-285
2,5251166,-3469,-1695,-555,-159,-235,-87,253,155,-285
2,5251178,-3467,-1692,-551,-168,-241,-85,258,164,-280
2,5251190,-3467,-1692,-551,-168,-241,-85,258,164,-280
2,5251202,-3471,-1694,-549,-168,-243,-80,258,164,-280
2,5251216,-3471,-1694,-549,-168,-243,-80,258,164,-280
2,5251229,-3471,-1693,-555,-166,-236,-86,258,164,-280
2,5251243,-3471,-1692,-554,-156,-238,-90,258,164,-280
2,5251258,-3471,-1692,-554,-156,-238,-90,258,164,-280
2,5251271,-3471,-1693,-552,-169,-241,-85,258,164,-280
2,5251281,-3472,-1692,-553,-161,-242,-84,258,164,-280
2,5251293,-3472,-1692,-553,-161,-242,-84,258,164,-280
2,5251307,-3471,-1692,-549,-161,-239,-84,264,160,-288
2,5251320,-3471,-1693,-553,-161,-245,-81,264,160,-288
2,5251331,-3471,-1693,-553,-161,-245,-81,264,160,-288
2,5251342,-3472,-1693,-550,-160,-237,-85,264,160,-288
2,5251354,-3472,-1693,-550,-160,-237,-85,264,160,-288
2,5251367,-3471,-1693,-554,-165,-235,-84,264,160,-288
2,5251380,-3471,-1695,-556,-172,-239,-89,264,160,-288
2,5251395,-3471,-1695,-556,-172,-239,-89,264,160,-288
2,5251407,-3474,-1694,-555,-171,-244,-87,264,160,-288
2,5251419,-3471,-1694,-556,-166,-245,-88,267,163,-287
2,5251432,-3471,-1694,-556,-166,-245,-88,267,163,-287
2,5251445,-3470,-1696,-557,-166,-242,-83,267,163,-287
2,5251458,-3470,-1696,-557,-166,-242,-83,267,163,-287
2,5251469,-3472,-1696,-554,-167,-241,-80,267,163,-287
2,5251483,-3467,-1693,-555,-172,-234,-85,267,163,-287
2,5251496,-3467,-1693,-555,-172,-234,-85,267,163,-287
2,5251504,-3468,-1696,-557,-171,-243,-87,267,163,-287
2,5251512,-3468,-1696,-557,-171,-243,-87,267,163,-287
2,5251520,-3471,-1696,-555,-161,-236,-85,267,163,-287
2,5251528,-3471,-1696,-555,-161,-236,-85,267,163,-287
2,5251544,-3473,-1695,-555,-157,-237,-84,267,163,-287
2,5251555,-3473,-1695,-555,-157,-237,-84,267,163,-287
2,5251564,-3471,-1689,-549,-161,-240,-83,251,161,-285
2,5251576,-3471,-1689,-549,-161,-240,-83,251,161,-285
2,5251591,-3472,-1694,-554,-162,-244,-87,251,161,-285
2,5251604,-3468,-1693,-554,-166,-242,-93,251,161,-285
2,5251615,-3468,-1693,-554,-166,-242,-93,251,161,-285
2,5251628,-3469,-1693,-555,-161,-234,-83,251,161,-285
2,5251643,-3468,-1694,-559,-163,-242,-83,251,161,-285
2,5251657,-3468,-1694,-559,-163,-242,-83,251,161,-285
2,5251666,-3469,-1694,-554,-162,-242,-82,251,161,-285
2,5251679,-3469,-1693,-548,-161,-242,-79,260,154,-284
2,5251693,-3469,-1693,-548,-161,-242,-79,260,154,-284
2,5251707,-3469,-1693,-548,-161,-242,-79,260,154,-284
2,5251717,-3469,-1693,-548,-161,-242,-79,260,154,-284
2,5251727,-3473,-1692,-550,-161,-241,-87,260,154,-284
2,5251735,-3473,-1692,-550,-161,-241,-87,260,154,-284
2,5251742,-3468,-1693,-552,-159,-240,-88,260,154,-284
2,5251750,-3468,-1693,-552,-159,-240,-88,260,154,-284
2,5251759,-3470,-1692,-551,-156,-239,-77,260,154,-284
2,5251768,-3470,-1692,-551,-156,-239,-77,260,154,-284
2,5251780,-3469,-1695,-550,-164,-239,-77,260,154,-284
2,5251793,-3469,-1695,-550,-164,-239,-77,260,154,-284
2,5251802,-3472,-1691,-551,-155,-244,-81,258,162,-286
2,5251814,-3472,-1691,-551,-155,-244,-81,258,162,-286
2,5251826,-3473,-1694,-554,-164,-251,-88,258,162,-286
2,5251835,-3473,-1694,-554,-164,-251,-88,258,162,-286
2,5251847,-3473,-1695,-555,-164,-245,-84,258,162,-286
2,5251862,-3468,-1695,-554,-162,-244,-88,258,162,-286
2,5251875,-3468,-1695,-554,-162,-244,-88,258,162,-286
2,5251885,-3472,-1694,-552,-162,-241,-87,258,162,-286
2,5251897,-3472,-1694,-552,-162,-241,-87,258,162,-286
2,5251911,-3470,-1694,-553,-163,-244,-83,258,162,-286
2,5251920,-3469,-1693,-549,-166,-243,-78,259,163,-283
2,5251927,-3469,-1693,-549,-166,-243,-78,259,163,-283
2,5251932,-3469,-1693,-549,-166,-243,-78,259,163,-283
2,5251939,-3470,-1694,-550,-159,-244,-83,259,163,-283
2,5251947,-3470,-1694,-550,-159,-244,-83,259,163,-283
2,5251954,-3470,-1694,-550,-159,-244,-83,259,163,-283
2,5251962,-3470,-1692,-554,-160,-241,-90,259,163,-283
2,5251970,-3470,-1692,-554,-160,-241,-90,259,163,-283
2,5251977,-3470,-1692,-554,-160,-241,-90,259,163,-283
2,5251983,-3470,-1695,-555,-163,-236,-82,259,163,-283
2,5251990,-3470,-1695,-555,-163,-236,-82,259,163,-283
2,5251997,-3470,-1695,-555,-163,-236,-82,259,163,-283
2,5252004,-3471,-1692,-554,-162,-251,-88,259,163,-283
2,5252012,-3471,-1692,-554,-162,-251,-88,259,163,-283
2,5252017,-3471,-1692,-554,-162,-251,-88,259,163,-283
2,5252024,-3472,-1693,-555,-162,-244,-89,259,163,-283
2,5252032,-3472,-1693,-555,-162,-244,-89,259,163,-283
2,5252040,-3472,-1693,-551,-161,-241,-85,268,160,-282
2,5252047,-3472,-1693,-551,-161,-241,-85,268,160,-282
2,5252052,-3472,-1693,-551,-161,-241,-85,268,160,-282
2,5252061,-3471,-1692,-555,-162,-238,-84,268,160,-282
2,5252067,-3471,-1692,-555,-162,-238,-84,268,160,-282
2,5252074,-3471,-1692,-555,-162,-238,-84,268,160,-282
2,5252080,-3469,-1694,-557,-164,-245,-86,268,160,-282
2,5252086,-3469,-1694,-557,-164,-245,-86,268,160,-282
2,5252093,-3469,-1694,-557,-164,-245,-86,268,160,-282
2,5252100,-3469,-1694,-550,-166,-242,-87,268,160,-282
2,5252108,-3469,-1694,-550,-166,-242,-87,268,160,-282
2,5252115,-3469,-1694,-550,-166,-242,-87,268,160,-282
2,5252122,-3469,-1693,-557,-168,-242,-89,268,160,-282
2,5252128,-3469,-1693,-557,-168,-242,-89,268,160,-282
2,5252135,-3469,-1693,-557,-168,-242,-89,268,160,-282
2,5252143,-3469,-1693,-557,-168,-242,-89,268,160,-282
2,5252150,-3469,-1693,-557,-168,-242,-89,268,160,-282
2,5252158,-3469,-1693,-557,-168,-242,-89,268,160,-282
2,5252164,-3471,-1691,-557,-155,-233,-87,268,160,-282
2,5252170,-3471,-1691,-557,-155,-233,-87,268,160,-282
2,5252178,-3471,-1692,-547,-159,-237,-87,268,160,-282
2,5252187,-3471,-1692,-547,-159,-237,-87,269,161,-287
2,5252193,-3471,-1692,-547,-159,-237,-87,269,161,-287
2,5252199,-3473,-1697,-551,-165,-242,-87,269,161,-287
2,5252207,-3473,-1697,-551,-165,-242,-87,269,161,-287
2,5252214,-3473,-1697,-551,-165,-242,-87,269,161,-287
2,5252221,-3472,-1691,-554,-164,-242,-83,269,161,-287
2,5252228,-3472,-1691,-554,-164,-242,-83,269,161,-287
2,5252234,-3472,-1691,-554,-164,-242,-83,269,161,-287
2,5252241,-3472,-1695,-555,-162,-244,-84,269,161,-287
2,5252248,-3472,-1695,-555,-162,-244,-84,269,161,-287
2,5252256,-3472,-1695,-555,-162,-244,-84,269,161,-287
2,5252263,-3470,-1690,-555,-169,-246,-82,269,161,-287
2,5252272,-3470,-1690,-555,-169,-246,-82,269,161,-287
2,5252278,-3470,-1690,-555,-169,-246,-82,269,161,-287
2,5252284,-3474,-1693,-551,-161,-244,-87,269,161,-287
2,5252289,-3474,-1693,-551,-161,-244,-87,269,161,-287
2,5252295,-3474,-1693,-551,-161,-244,-87,269,161,-287
2,5252300,-3469,-1695,-549,-167,-245,-86,263,167,-287
2,5252308,-3469,-1695,-549,-167,-245,-86,263,167,-287
2,5252316,-3469,-1695,-549,-167,-245,-86,263,167,-287
2,5252323,-3471,-1693,-549,-165,-246,-90,263,167,-287
2,5252329,-3471,-1693,-549,-165,-246,-90,263,167,-287
2,5252336,-3471,-1693,-549,-165,-246,-90,263,167,-287
2,5252342,-3471,-1693,-553,-164,-242,-81,263,167,-287
2,5252348,-3471,-1693,-553,-164,-242,-81,263,167,-287
2,5252354,-3471,-1693,-553,-164,-242,-81,263,167,-287
2,5252361,-3473,-1692,-550,-160,-241,-87,263,167,-287
2,5252367,-3473,-1692,-550,-160,-241,-87,263,167,-287
2,5252375,-3473,-1692,-550,-160,-241,-87,263,167,-287
2,5252382,-3468,-1692,-556,-157,-244,-84,263,167,-287
2,5252389,-3468,-1692,-556,-157,-244,-84,263,167,-287
2,5252397,-3468,-1692,-556,-157,-244,-84,263,167,-287
2,5252405,-3471,-1690,-553,-160,-243,-80,263,167,-287
2,5252411,-3471,-1690,-553,-160,-243,-80,263,167,-287
2,5252417,-3471,-1690,-553,-160,-243,-80,263,167,-287
2,5252425,-3471,-1695,-553,-157,-236,-86,262,170,-294
2,5252432,-3471,-1695,-553,-157,-236,-86,262,170,-294
2,5252439,-3471,-1695,-553,-157,-236,-86,262,170,-294
2,5252446,-3472,-1693,-551,-160,-242,-90,262,170,-294
2,5252452,-3472,-1693,-551,-160,-242,-90,262,170,-294
2,5252459,-3471,-1694,-551,-167,-237,-88,262,170,-294
2,5252466,-3471,-1694,-551,-167,-237,-88,262,170,-294
2,5252473,-3471,-1694,-551,-167,-237,-88,262,170,-294
2,5252480,-3473,-1692,-555,-165,-235,-88,262,170,-294
2,5252488,-3473,-1692,-555,-165,-235,-88,262,170,-294
2,5252494,-3473,-1692,-555,-165,-235,-88,262,170,-294
2,5252499,-3468,-1694,-560,-164,-248,-81,262,170,-294
2,5252504,-3468,-1694,-560,-164,-248,-81,262,170,-294
2,5252510,-3468,-1694,-560,-164,-248,-81,262,170,-294
2,5252515,-3468,-1694,-560,-164,-248,-81,262,170,-294
2,5252520,-3474,-1689,-553,-167,-242,-83,262,170,-294
2,5252526,-3474,-1689,-553,-167,-242,-83,262,170,-294
2,5252532,-3474,-1689,-553,-167,-242,-83,262,170,-294
2,5252540,-3470,-1691,-554,-166,-247,-80,262,152,-284
2,5252547,-3470,-1691,-554,-166,-247,-80,262,152,-284
2,5252554,-3470,-1691,-554,-166,-247,-80,262,152,-284
2,5252561,-3470,-1691,-554,-167,-244,-83,262,152,-284
2,5252569,-3470,-1691,-554,-167,-244,-83,262,152,-284
2,5252578,-3470,-1691,-554,-167,-244,-83,262,152,-284
2,5252584,-3470,-1693,-554,-169,-236,-88,262,152,-284
2,5252592,-3470,-1693,-554,-169,-236,-88,262,152,-284
2,5252598,-3470,-1693,-554,-169,-236,-88,262,152,-284
2,5252605,-3471,-1694,-553,-167,-238,-93,262,152,-284
2,5252613,-3471,-1694,-553,-167,-238,-93,262,152,-284
2,5252619,-3471,-1694,-553,-167,-238,-93,262,152,-284
2,5252627,-3469,-1693,-558,-161,-234,-92,262,152,-284
2,5252634,-3469,-1693,-558,-161,-234,-92,262,152,-284
2,5252640,-3474,-1693,-558,-152,-234,-80,262,152,-284
2,5252647,-3474,-1693,-558,-152,-234,-80,262,152,-284
2,5252654,-3474,-1693,-558,-152,-234,-80,262,152,-284
2,5252662,-3469,-1692,-553,-157,-240,-77,259,159,-287
2,5252669,-3469,-1692,-553,-157,-240,-77,259,159,-287
2,5252676,-3469,-1692,-553,-157,-240,-77,259,159,-287
2,5252682,-3467,-1692,-552,-158,-242,-84,259,159,-287
2,5252688,-3467,-1692,-552,-158,-242,-84,259,159,-287
2,5252697,-3467,-1692,-552,-158,-242,-84,259,159,-287
2,5252704,-3467,-1691,-551,-164,-236,-81,259,159,-287
2,5252711,-3467,-1691,-551,-164,-236,-81,259,159,-287
2,5252718,-3467,-1691,-551,-164,-236,-81,259,159,-287
2,5252726,-3468,-1693,-553,-168,-237,-88,259,159,-287
2,5252734,-3468,-1693,-553,-168,-237,-88,259,159,-287
2,5252743,-3470,-1696,-554,-162,-244,-86,259,159,-287
2,5252750,-3470,-1696,-554,-162,-244,-86,259,159,-287
2,5252756,-3470,-1696,-554,-162,-244,-86,259,159,-287
2,5252763,-3470,-1693,-556,-160,-242,-82,259,159,-287
2,5252770,-3470,-1693,-556,-160,-242,-82,259,159,-287
2,5252777,-3470,-1693,-556,-160,-242,-82,259,159,-287
2,5252785,-3472,-1693,-556,-166,-238,-81,259,159,-287
2,5252791,-3472,-1693,-556,-166,-238,-81,259,159,-287
2,5252797,-3472,-1693,-556,-166,-238,-81,259,159,-287
2,5252802,-3470,-1691,-552,-159,-240,-89,263,157,-287
2,5252807,-3470,-1691,-552,-159,-240,-89,263,157,-287
2,5252815,-3470,-1691,-552,-159,-240,-89,263,157,-287
2,5252823,-3471,-1694,-553,-163,-229,-86,263,157,-287
2,5252829,-3471,-1694,-553,-163,-229,-86,263,157,-287
2,5252835,-3471,-1694,-553,-163,-229,-86,263,157,-287
2,5252842,-3470,-1691,-554,-159,-238,-88,263,157,-287
2,5252849,-3470,-1691,-554,-159,-238,-88,263,157,-287
2,5252856,-3470,-1691,-554,-159,-238,-88,263,157,-287
2,5252864,-3467,-1698,-556,-160,-245,-88,263,157,-287
2,5252871,-3467,-1698,-556,-160,-245,-88,263,157,-287
2,5252878,-3467,-1698,-556,-160,-245,-88,263,157,-287
2,5252886,-3469,-1692,-553,-166,-241,-78,263,157,-287
2,5252893,-3469,-1692,-553,-166,-241,-78,263,157,-287
2,5252899,-3469,-1692,-553,-166,-241,-78,263,157,-287
2,5252904,-3471,-1694,-555,-167,-245,-78,263,157,-287
2,5252912,-3471,-1694,-555,-167,-245,-78,263,157,-287
2,5252919,-3471,-1694,-555,-167,-245,-78,263,157,-287
2,5252932,-3473,-1696,-552,-166,-241,-88,260,170,-294
2,5252940,-3471,-1694,-554,-161,-239,-83,260,170,-294
2,5252952,-3471,-1694,-554,-161,-239,-83,260,170,-294
2,5252964,-3469,-1694,-551,-161,-242,-78,260,170,-294
2,5252978,-3469,-1694,-551,-161,-242,-78,260,170,-294
2,5252988,-3471,-1692,-556,-166,-244,-86,260,170,-294
2,5253003,-3471,-1691,-554,-161,-236,-83,260,170,-294
2,5253016,-3471,-1691,-554,-161,-236,-83,260,170,-294
2,5253028,-3471,-1691,-550,-152,-245,-87,260,170,-294
2,5253041,-3470,-1694,-552,-160,-245,-90,257,165,-285
2,5253054,-3470,-1694,-552,-160,-245,-90,257,165,-285
2,5253066,-3472,-1694,-553,-164,-242,-89,257,165,-285
2,5253079,-3472,-1694,-553,-164,-242,-89,257,165,-285
2,5253092,-3469,-1693,-554,-162,-242,-87,257,165,-285
2,5253105,-3470,-1692,-553,-161,-238,-83,257,165,-285
2,5253117,-3470,-1692,-553,-161,-238,-83,257,165,-285
2,5253132,-3472,-1692,-551,-159,-231,-85,257,165,-285
2,5253145,-3470,-1693,-552,-158,-239,-82,257,165,-285
2,5253157,-3470,-1693,-552,-158,-239,-82,257,165,-285
2,5253169,-3471,-1690,-552,-162,-245,-86,261,159,-283
2,5253181,-3472,-1693,-553,-167,-246,-90,261,159,-283
2,5253193,-3472,-1693,-553,-167,-246,-90,261,159,-283
2,5253206,-3473,-1692,-554,-158,-243,-80,261,159,-283
2,5253220,-3467,-1694,-550,-157,-245,-83,261,159,-283
2,5253233,-3467,-1694,-550,-157,-245,-83,261,159,-283
2,5253242,-3469,-1693,-552,-164,-246,-87,261,159,-283
2,5253255,-3469,-1693,-552,-164,-246,-87,261,159,-283
2,5253269,-3469,-1694,-554,-168,-246,-82,261,159,-283
2,5253280,-3468,-1691,-548,-160,-240,-84,261,157,-285
2,5253294,-3468,-1691,-548,-160,-240,-84,261,157,-285
2,5253307,-3471,-1696,-548,-161,-240,-89,261,157,-285
2,5253320,-3471,-1694,-551,-162,-240,-95,261,157,-285
2,5253332,-3471,-1694,-551,-162,-240,-95,261,157,-285
2,5253341,-3470,-1694,-554,-158,-234,-84,261,157,-285
2,5253349,-3470,-1694,-554,-158,-234,-84,261,157,-285
2,5253357,-3470,-1694,-554,-158,-234,-84,261,157,-285
2,5253364,-3466,-1691,-554,-157,-236,-84,261,157,-285
2,5253376,-3466,-1691,-554,-157,-236,-84,261,157,-285
2,5253388,-3472,-1691,-548,-159,-235,-82,261,157,-285
2,5253401,-3471,-1691,-555,-159,-235,-85,262,158,-292
2,5253412,-3471,-1691,-555,-159,-235,-85,262,158,-292
2,5253424,-3470,-1691,-555,-152,-235,-84,262,158,-292
2,5253436,-3470,-1691,-555,-152,-235,-84,262,158,-292
2,5253446,-3471,-1694,-557,-161,-237,-88,262,158,-292
2,5253456,-3471,-1694,-557,-161,-237,-88,262,158,-292
2,5253471,-3473,-1691,-555,-156,-239,-85,262,158,-292
2,5253485,-3471,-1691,-554,-159,-251,-89,262,158,-292
2,5253495,-3471,-1691,-554,-159,-251,-89,262,158,-292
2,5253502,-3466,-1691,-555,-157,-245,-88,262,158,-292
2,5253511,-3466,-1691,-555,-157,-245,-88,262,158,-292
2,5253519,-3466,-1691,-555,-157,-245,-88,262,158,-292
2,5253528,-3470,-1695,-555,-157,-236,-92,262,158,-292
2,5253541,-3472,-1695,-552,-159,-234,-82,264,160,-290
2,5253554,-3472,-1695,-552,-159,-234,-82,264,160,-290
2,5253568,-3471,-1692,-548,-166,-242,-80,264,160,-290
2,5253580,-3469,-1692,-549,-165,-240,-84,264,160,-290
2,5253593,-3469,-1692,-549,-165,-240,-84,264,160,-290
2,5253605,-3470,-1695,-552,-157,-236,-91,264,160,-290
2,5253618,-3470,-1695,-552,-157,-236,-91,264,160,-290
2,5253632,-3469,-1692,-552,-161,-235,-88,264,160,-290
2,5253643,-3469,-1693,-556,-158,-231,-81,264,160,-290
2,5253655,-3469,-1693,-556,-158,-231,-81,264,160,-290
2,5253667,-3472,-1692,-552,-156,-238,-86,259,157,-291
2,5253681,-3473,-1694,-553,-159,-247,-84,259,157,-291
2,5253692,-3473,-1694,-553,-159,-247,-84,259,157,-291
2,5253706,-3470,-1693,-557,-158,-241,-86,259,157,-291
2,5253719,-3470,-1693,-557,-158,-241,-86,259,157,-291
2,5253732,-3473,-1694,-556,-164,-235,-81,259,157,-291
2,5253745,-3470,-1694,-556,-163,-232,-79,259,157,-291
2,5253758,-3470,-1694,-556,-163,-232,-79,259,157,-291
2,5253770,-3470,-1691,-553,-166,-236,-78,259,157,-291
2,5253783,-3471,-1691,-550,-164,-242,-87,259,159,-289
2,5253795,-3471,-1691,-550,-164,-242,-87,259,159,-289
2,5253806,-3469,-1693,-552,-159,-233,-84,259,159,-289
2,5253818,-3469,-1693,-552,-159,-233,-84,259,159,-289
2,5253831,-3468,-1693,-555,-166,-239,-88,259,159,-289
2,5253843,-3470,-1694,-553,-163,-239,-91,259,159,-289
2,5253857,-3470,-1694,-553,-163,-239,-91,259,159,-289
2,5253871,-3472,-1693,-551,-162,-241,-87,259,159,-289
2,5253881,-3469,-1693,-553,-162,-238,-86,259,159,-289
2,5253892,-3469,-1693,-553,-162,-238,-86,259,159,-289
2,5253905,-3470,-1694,-553,-159,-236,-91,256,162,-282
2,5253918,-3470,-1694,-553,-159,-236,-91,256,162,-282
2,5253929,-3471,-1694,-547,-163,-245,-83,256,162,-282
2,5253935,-3471,-1694,-547,-163,-245,-83,256,162,-282
2,5253940,-3471,-1694,-547,-163,-245,-83,256,162,-282
2,5253945,-3471,-1692,-552,-159,-247,-90,256,162,-282
2,5253953,-3471,-1692,-552,-159,-247,-90,256,162,-282
2,5253960,-3468,-1695,-554,-158,-234,-84,256,162,-282
2,5253967,-3468,-1695,-554,-158,-234,-84,256,162,-282
2,5253974,-3468,-1695,-554,-158,-234,-84,256,162,-282
2,5253981,-3469,-1693,-551,-162,-239,-79,256,162,-282
2,5253987,-3469,-1693,-551,-162,-239,-79,256,162,-282
2,5253992,-3469,-1693,-551,-162,-239,-79,256,162,-282
2,5253999,-3469,-1693,-551,-162,-239,-79,256,162,-282
2,5254007,-3469,-1694,-554,-162,-245,-78,256,162,-282
2,5254012,-3469,-1694,-554,-162,-245,-78,256,162,-282
2,5254020,-3469,-1694,-554,-162,-245,-78,256,162,-282
2,5254026,-3466,-1694,-548,-158,-237,-78,260,158,-280
2,5254034,-3466,-1694,-548,-158,-237,-78,260,158,-280
2,5254040,-3466,-1694,-548,-158,-237,-78,260,158,-280
2,5254046,-3472,-1694,-552,-165,-240,-84,260,158,-280
2,5254053,-3472,-1694,-552,-165,-240,-84,260,158,-280
2,5254060,-3472,-1694,-552,-165,-240,-84,260,158,-280
2,5254067,-3471,-1696,-557,-157,-235,-86,260,158,-280
2,5254075,-3471,-1696,-557,-157,-235,-86,260,158,-280
2,5254081,-3468,-1694,-559,-157,-229,-88,260,158,-280
2,5254088,-3468,-1694,-559,-157,-229,-88,260,158,-280
2,5254093,-3468,-1694,-559,-157,-229,-88,260,158,-280
2,5254100,-3470,-1693,-554,-158,-233,-85,260,158,-280
2,5254109,-3470,-1693,-554,-158,-233,-85,260,158,-280
2,5254117,-3470,-1693,-554,-158,-233,-85,260,158,-280
2,5254123,-3470,-1691,-559,-166,-239,-89,260,158,-280
2,5254130,-3470,-1691,-559,-166,-239,-89,260,158,-280
2,5254136,-3470,-1691,-559,-166,-239,-89,260,158,-280
2,5254142,-3471,-1692,-556,-162,-237,-89,260,158,-280
2,5254149,-3471,-1692,-556,-162,-237,-89,260,158,-280
2,5254156,-3471,-1692,-556,-162,-237,-89,260,158,-280
2,5254163,-3471,-1692,-554,-163,-235,-86,251,161,-283
2,5254170,-3471,-1692,-554,-163,-235,-86,251,161,-283
2,5254176,-3471,-1692,-554,-163,-235,-86,251,161,-283
2,5254184,-3468,-1693,-555,-157,-238,-85,251,161,-283
2,5254192,-3468,-1693,-555,-157,-238,-85,251,161,-283
2,5254197,-3468,-1693,-555,-157,-238,-85,251,161,-283
2,5254205,-3467,-1695,-553,-161,-233,-86,251,161,-283
2,5254210,-3467,-1695,-553,-161,-233,-86,251,161,-283
2,5254218,-3467,-1695,-553,-161,-233,-86,251,161,-283
2,5254224,-3471,-1692,-553,-160,-248,-82,251,161,-283
2,5254231,-3471,-1692,-553,-160,-248,-82,251,161,-283
2,5254239,-3471,-1692,-553,-160,-248,-82,251,161,-283
2,5254244,-3469,-1696,-558,-157,-245,-83,251,161,-283
2,5254252,-3469,-1696,-558,-157,-245,-83,251,161,-283
2,5254259,-3469,-1696,-558,-157,-245,-83,251,161,-283
2,5254267,-3470,-1691,-552,-161,-241,-88,251,161,-283
2,5254274,-3470,-1691,-552,-161,-241,-88,251,161,-283
2,5254281,-3472,-1694,-551,-161,-236,-85,261,165,-287
2,5254288,-3472,-1694,-551,-161,-236,-85,261,165,-287
2,5254295,-3472,-1694,-551,-161,-236,-85,261,165,-287
2,5254301,-3468,-1694,-553,-159,-235,-95,261,165,-287
2,5254309,-3468,-1694,-553,-159,-235,-95,261,165,-287
2,5254316,-3468,-1694,-553,-159,-235,-95,261,165,-287
2,5254323,-3470,-1696,-557,-161,-239,-88,261,165,-287
2,5254328,-3470,-1696,-557,-161,-239,-88,261,165,-287
2,5254336,-3470,-1696,-557,-161,-239,-88,261,165,-287
2,5254343,-3469,-1693,-558,-163,-243,-80,261,165,-287
2,5254349,-3469,-1693,-558,-163,-243,-80,261,165,-287
2,5254356,-3469,-1693,-558,-163,-243,-80,261,165,-287
2,5254365,-3468,-1694,-554,-161,-250,-81,261,165,-287
2,5254371,-3468,-1694,-554,-161,-250,-81,261,165,-287
2,5254377,-3468,-1694,-554,-161,-250,-81,261,165,-287
2,5254383,-3470,-1691,-553,-162,-241,-85,261,165,-287
2,5254389,-3470,-1691,-553,-162,-241,-85,261,165,-287
2,5254394,-3470,-1691,-553,-162,-241,-85,261,165,-287
2,5254403,-3468,-1690,-551,-159,-240,-85,264,152,-288
2,5254409,-3468,-1690,-551,-159,-240,-85,264,152,-288
2,5254415,-3468,-1690,-551,-159,-240,-85,264,152,-288
2,5254421,-3470,-1691,-549,-159,-245,-85,264,152,-288
2,5254428,-3470,-1691,-549,-159,-245,-85,264,152,-288
2,5254435,-3470,-1691,-549,-159,-245,-85,264,152,-288
2,5254441,-3470,-1692,-560,-161,-243,-80,264,152,-288
2,5254449,-3470,-1692,-560,-161,-243,-80,264,152,-288
2,5254455,-3470,-1692,-560,-161,-243,-80,264,152,-288
2,5254462,-3474,-1696,-555,-160,-242,-78,264,152,-288
2,5254470,-3474,-1696,-555,-160,-242,-78,264,152,-288
2,5254477,-3474,-1696,-555,-160,-242,-78,264,152,-288
2,5254486,-3474,-1693,-556,-168,-236,-78,264,152,-288
2,5254492,-3474,-1693,-556,-168,-236,-78,264,152,-288
2,5254499,-3474,-1693,-556,-168,-236,-78,264,152,-288
2,5254504,-3473,-1690,-552,-163,-235,-90,264,152,-288
2,5254509,-3473,-1690,-552,-163,-235,-90,264,152,-288
2,5254514,-3473,-1690,-552,-163,-235,-90,264,152,-288
2,5254519,-3473,-1690,-552,-163,-235,-90,264,152,-288
2,5254524,-3472,-1691,-550,-161,-243,-94,255,157,-283
2,5254530,-3472,-1691,-550,-161,-243,-94,255,157,-283
2,5254535,-3472,-1691,-550,-161,-243,-94,255,157,-283
2,5254540,-3472,-1691,-550,-161,-243,-94,255,157,-283
2,5254546,-3467,-1692,-550,-158,-241,-95,255,157,-283
2,5254553,-3467,-1692,-550,-158,-241,-95,255,157,-283
2,5254561,-3468,-1693,-551,-164,-230,-94,255,157,-283
2,5254569,-3468,-1693,-551,-164,-230,-94,255,157,-283
2,5254576,-3468,-1693,-551,-164,-230,-94,255,157,-283
2,5254583,-3469,-1696,-559,-159,-241,-88,255,157,-283
2,5254590,-3469,-1696,-559,-159,-241,-88,255,157,-283
2,5254596,-3469,-1696,-559,-159,-241,-88,255,157,-283
2,5254603,-3469,-1690,-555,-160,-238,-92,255,157,-283
2,5254611,-3469,-1690,-555,-160,-238,-92,255,157,-283
2,5254620,-3469,-1690,-555,-160,-238,-92,255,157,-283
2,5254626,-3472,-1694,-557,-156,-237,-88,255,157,-283
2,5254633,-3472,-1694,-557,-156,-237,-88,255,157,-283
2,5254640,-3472,-1694,-557,-156,-237,-88,255,157,-283
2,5254648,-3470,-1693,-551,-167,-236,-88,258,164,-294
2,5254654,-3470,-1693,-551,-167,-236,-88,258,164,-294
2,5254662,-3470,-1693,-547,-164,-239,-91,258,164,-294
2,5254668,-3470,-1693,-547,-164,-239,-91,258,164,-294
2,5254675,-3470,-1693,-547,-164,-239,-91,258,164,-294
2,5254680,-3470,-1693,-547,-164,-239,-91,258,164,-294
2,5254688,-3470,-1693,-555,-161,-236,-75,258,164,-294
2,5254695,-3470,-1693,-555,-161,-236,-75,258,164,-294
2,5254704,-3470,-1692,-556,-155,-239,-81,258,164,-294
2,5254710,-3470,-1692,-556,-155,-239,-81,258,164,-294
2,5254716,-3470,-1692,-556,-155,-239,-81,258,164,-294
2,5254723,-3472,-1692,-555,-163,-239,-87,258,164,-294
2,5254729,-3472,-1692,-555,-163,-239,-87,258,164,-294
2,5254737,-3472,-1692,-555,-163,-239,-87,258,164,-294
2,5254744,-3471,-1692,-549,-157,-238,-87,258,164,-294
2,5254751,-3471,-1692,-549,-157,-238,-87,258,164,-294
2,5254758,-3471,-1692,-549,-157,-238,-87,258,164,-294
2,5254765,-3469,-1693,-554,-157,-242,-89,258,164,-294
2,5254772,-3469,-1693,-554,-157,-242,-89,258,164,-294
2,5254779,-3469,-1693,-554,-157,-242,-89,258,164,-294
2,5254788,-3472,-1691,-556,-159,-237,-89,259,159,-285
2,5254795,-3472,-1691,-556,-159,-237,-89,259,159,-285
2,5254802,-3467,-1694,-549,-154,-243,-85,259,159,-285
2,5254809,-3467,-1694,-549,-154,-243,-85,259,159,-285
2,5254814,-3467,-1694,-549,-154,-243,-85,259,159,-285
2,5254821,-3471,-1693,-551,-159,-247,-85,259,159,-285
2,5254829,-3471,-1693,-551,-159,-247,-85,259,159,-285
2,5254835,-3471,-1693,-551,-159,-247,-85,259,159,-285
2,5254842,-3471,-1694,-553,-162,-238,-84,259,159,-285
2,5254850,-3471,-1694,-553,-162,-238,-84,259,159,-285
2,5254858,-3471,-1694,-553,-162,-238,-84,259,159,-285
2,5254865,-3471,-1692,-555,-158,-239,-87,259,159,-285
2,5254873,-3471,-1692,-555,-158,-239,-87,259,159,-285
2,5254880,-3471,-1692,-555,-158,-239,-87,259,159,-285
2,5254888,-3472,-1690,-556,-157,-234,-88,259,159,-285
2,5254894,-3472,-1690,-556,-157,-234,-88,259,159,-285
2,5254900,-3472,-1690,-556,-157,-234,-88,259,159,-285
2,5254907,-3471,-1693,-550,-158,-243,-82,260,164,-286
2,5254916,-3471,-1693,-550,-158,-243,-82,260,164,-286
2,5254923,-3471,-1695,-555,-161,-241,-81,260,164,-286
2,5254929,-3471,-1695,-555,-161,-241,-81,260,164,-286
2,5254935,-3471,-1695,-555,-161,-241,-81,260,164,-286
2,5254948,-3473,-1694,-551,-159,-240,-84,260,164,-286
2,5254961,-3473,-1694,-551,-159,-240,-84,260,164,-286
2,5254970,-3472,-1696,-557,-161,-229,-77,260,164,-286
2,5254977,-3472,-1696,-557,-161,-229,-77,260,164,-286
2,5254985,-3469,-1692,-557,-159,-237,-80,260,164,-286
2,5254998,-3469,-1692,-557,-159,-237,-80,260,164,-286
2,5255009,-3469,-1695,-548,-157,-240,-89,260,164,-286
2,5255019,-3469,-1695,-548,-157,-240,-89,260,164,-286
2,5255032,-3470,-1696,-550,-154,-241,-82,266,158,-282
2,5255046,-3469,-1695,-553,-160,-238,-88,266,158,-282
2,5255058,-3469,-1695,-553,-160,-238,-88,266,158,-282
2,5255068,-3470,-1691,-553,-161,-238,-84,266,158,-282
2,5255079,-3470,-1691,-553,-161,-238,-84,266,158,-282
2,5255095,-3471,-1693,-553,-172,-242,-79,266,158,-282
2,5255108,-3474,-1693,-546,-162,-240,-84,266,158,-282
2,5255118,-3474,-1693,-546,-162,-240,-84,266,158,-282
2,5255130,-3471,-1694,-554,-166,-231,-84,266,158,-282
2,5255144,-3474,-1691,-551,-161,-239,-87,262,166,-290
2,5255156,-3474,-1691,-551,-161,-239,-87,262,166,-290
2,5255168,-3470,-1693,-554,-169,-236,-82,262,166,-290
2,5255180,-3470,-1693,-554,-169,-236,-82,262,166,-290
2,5255195,-3470,-1695,-555,-163,-238,-82,262,166,-290
2,5255208,-3472,-1694,-556,-160,-237,-94,262,166,-290
2,5255219,-3472,-1694,-556,-160,-237,-94,262,166,-290
2,5255231,-3470,-1692,-555,-163,-239,-86,262,166,-290
2,5255245,-3470,-1689,-555,-162,-235,-84,262,166,-290
2,5255259,-3470,-1689,-555,-162,-235,-84,262,166,-290
2,5255269,-3471,-1694,-551,-156,-238,-76,265,157,-293
2,5255280,-3471,-1694,-551,-156,-238,-76,265,157,-293
2,5255293,-3470,-1694,-554,-161,-241,-81,265,157,-293
2,5255307,-3473,-1694,-547,-163,-242,-87,265,157,-293
2,5255317,-3473,-1694,-547,-163,-242,-87,265,157,-293
2,5255332,-3473,-1694,-547,-163,-242,-87,265,157,-293
2,5255345,-3469,-1692,-561,-164,-244,-81,265,157,-293
2,5255356,-3469,-1692,-561,-164,-244,-81,265,157,-293
2,5255370,-3470,-1692,-556,-168,-243,-81,265,157,-293
2,5255384,-3468,-1688,-555,-166,-248,-77,265,157,-293
2,5255393,-3468,-1688,-555,-166,-248,-77,265,157,-293
2,5255401,-3468,-1688,-555,-166,-248,-77,265,157,-293
2,5255409,-3469,-1692,-548,-162,-244,-87,258,160,-284
2,5255417,-3469,-1692,-548,-162,-244,-87,258,160,-284
2,5255431,-3471,-1694,-552,-158,-238,-83,258,160,-284
2,5255444,-3469,-1694,-554,-159,-248,-82,258,160,-284
2,5255453,-3469,-1694,-554,-159,-248,-82,258,160,-284
2,5255467,-3469,-1694,-555,-162,-244,-82,258,160,-284
2,5255480,-3469,-1694,-555,-162,-244,-82,258,160,-284
2,5255493,-3469,-1694,-549,-162,-241,-86,258,160,-284
2,5255502,-3470,-1694,-552,-165,-241,-83,258,160,-284
2,5255510,-3470,-1694,-552,-165,-241,-83,258,160,-284
2,5255518,-3470,-1694,-552,-165,-241,-83,258,160,-284
2,5255526,-3470,-1692,-548,-162,-240,-84,259,165,-291
2,5255536,-3470,-1692,-548,-162,-240,-84,259,165,-291
2,5255547,-3468,-1691,-554,-161,-237,-80,259,165,-291
2,5255556,-3468,-1691,-554,-161,-237,-80,259,165,-291
2,5255569,-3469,-1692,-554,-167,-243,-90,259,165,-291
2,5255580,-3469,-1692,-554,-167,-243,-90,259,165,-291
2,5255589,-3469,-1692,-551,-163,-240,-89,259,165,-291
2,5255597,-3469,-1692,-551,-163,-240,-89,259,165,-291
2,5255605,-3470,-1692,-550,-164,-245,-88,259,165,-291
2,5255615,-3470,-1692,-550,-164,-245,-88,259,165,-291
2,5255626,-3471,-1694,-555,-160,-244,-90,259,165,-291
2,5255638,-3471,-1694,-555,-160,-244,-90,259,165,-291
2,5255651,-3469,-1693,-548,-163,-241,-85,261,163,-285
2,5255664,-3472,-1690,-551,-166,-243,-84,261,163,-285
2,5255673,-3472,-1690,-551,-166,-243,-84,261,163,-285
2,5255685,-3471,-1693,-556,-162,-242,-84,261,163,-285
2,5255699,-3471,-1693,-556,-162,-242,-84,261,163,-285
2,5255712,-3472,-1691,-552,-163,-236,-86,261,163,-285
2,5255721,-3472,-1691,-552,-163,-236,-86,261,163,-285
2,5255735,-3471,-1695,-547,-164,-236,-85,261,163,-285
2,5255746,-3473,-1692,-552,-161,-240,-80,261,163,-285
2,5255759,-3473,-1692,-552,-161,-240,-80,261,163,-285
2,5255772,-3470,-1691,-547,-168,-243,-85,268,160,-286
2,5255785,-3472,-1692,-553,-169,-242,-84,268,160,-286
2,5255797,-3472,-1692,-553,-169,-242,-84,268,160,-286
2,5255805,-3471,-1693,-557,-168,-242,-84,268,160,-286
2,5255820,-3471,-1693,-557,-168,-242,-84,268,160,-286
2,5255834,-3472,-1693,-557,-165,-237,-93,268,160,-286
2,5255846,-3471,-1692,-553,-158,-236,-88,268,160,-286
2,5255858,-3471,-1692,-553,-158,-236,-88,268,160,-286
2,5255872,-3470,-1694,-557,-156,-233,-87,268,160,-286
2,5255885,-3469,-1694,-552,-168,-234,-83,259,167,-289
2,5255898,-3469,-1694,-552,-168,-234,-83,259,167,-289
2,5255910,-3469,-1693,-548,-162,-239,-82,259,167,-289
2,5255923,-3471,-1691,-555,-169,-246,-87,259,167,-289
2,5255937,-3471,-1691,-555,-169,-246,-87,259,167,-289
2,5255947,-3470,-1691,-554,-164,-237,-83,259,167,-289
2,5255953,-3470,-1691,-554,-164,-237,-83,259,167,-289
2,5255961,-3470,-1691,-554,-164,-237,-83,259,167,-289
2,5255969,-3469,-1693,-554,-161,-238,-86,259,167,-289
2,5255975,-3469,-1693,-554,-161,-238,-86,259,167,-289
2,5255983,-3469,-1693,-554,-161,-238,-86,259,167,-289
2,5255990,-3469,-1693,-554,-161,-238,-86,259,167,-289
2,5255997,-3469,-1693,-554,-161,-238,-86,259,167,-289
2,5256004,-3471,-1693,-556,-156,-242,-79,259,167,-289
2,5256012,-3471,-1693,-556,-156,-242,-79,259,167,-289
2,5256019,-3471,-1693,-556,-156,-242,-79,259,167,-289
2,5256027,-3471,-1695,-555,-159,-242,-84,257,167,-279
2,5256033,-3471,-1695,-555,-159,-242,-84,257,167,-279
2,5256041,-3471,-1695,-555,-159,-242,-84,257,167,-279
2,5256047,-3469,-1692,-554,-155,-241,-82,257,167,-279
2,5256053,-3469,-1692,-554,-155,-241,-82,257,167,-279
2,5256061,-3469,-1692,-554,-155,-241,-82,257,167,-279
2,5256069,-3474,-1689,-553,-162,-239,-87,257,167,-279
2,5256075,-3474,-1689,-553,-162,-239,-87,257,167,-279
2,5256081,-3474,-1689,-553,-162,-239,-87,257,167,-279
2,5256089,-3469,-1693,-549,-162,-239,-84,257,167,-279
2,5256095,-3469,-1693,-549,-162,-239,-84,257,167,-279
2,5256102,-3469,-1693,-549,-162,-239,-84,257,167,-279
2,5256109,-3470,-1689,-555,-161,-235,-87,257,167,-279
2,5256115,-3470,-1689,-555,-161,-235,-87,257,167,-279
2,5256121,-3470,-1689,-555,-161,-235,-87,257,167,-279
2,5256128,-3472,-1693,-553,-159,-240,-87,257,167,-279
2,5256136,-3472,-1693,-553,-159,-240,-87,257,167,-279
2,5256142,-3471,-1691,-551,-164,-244,-97,257,167,-279
2,5256148,-3471,-1691,-551,-164,-244,-97,261,163,-287
2,5256156,-3471,-1691,-551,-164,-244,-97,261,163,-287
2,5256163,-3471,-1692,-554,-159,-243,-85,261,163,-287
2,5256169,-3471,-1692,-554,-159,-243,-85,261,163,-287
2,5256176,-3471,-1692,-554,-159,-243,-85,261,163,-287
2,5256181,-3471,-1692,-554,-159,-243,-85,261,163,-287
2,5256186,-3471,-1695,-554,-160,-232,-89,261,163,-287
2,5256195,-3471,-1695,-554,-160,-232,-89,261,163,-287
2,5256201,-3471,-1695,-554,-160,-232,-89,261,163,-287
2,5256207,-3471,-1694,-550,-162,-235,-84,261,163,-287
2,5256214,-3471,-1694,-550,-162,-235,-84,261,163,-287
2,5256220,-3471,-1694,-550,-162,-235,-84,261,163,-287
2,5256227,-3470,-1695,-558,-168,-234,-89,261,163,-287
2,5256233,-3470,-1695,-558,-168,-234,-89,261,163,-287
2,5256241,-3470,-1695,-558,-168,-234,-89,261,163,-287
2,5256247,-3471,-1694,-554,-171,-241,-82,261,163,-287
2,5256257,-3471,-1694,-554,-171,-241,-82,261,163,-287
2,5256263,-3468,-1693,-546,-162,-248,-87,259,157,-293
2,5256269,-3468,-1693,-546,-162,-248,-87,259,157,-293
2,5256274,-3468,-1693,-546,-162,-248,-87,259,157,-293
2,5256283,-3473,-1692,-552,-167,-242,-87,259,157,-293
2,5256289,-3473,-1692,-552,-167,-242,-87,259,157,-293
2,5256296,-3473,-1692,-552,-167,-242,-87,259,157,-293
2,5256304,-3470,-1696,-552,-156,-237,-82,259,157,-293
2,5256312,-3470,-1696,-552,-156,-237,-82,259,157,-293
2,5256320,-3470,-1696,-552,-156,-237,-82,259,157,-293
2,5256325,-3468,-1693,-556,-157,-236,-81,259,157,-293
2,5256332,-3468,-1693,-556,-157,-236,-81,259,157,-293
2,5256339,-3468,-1693,-556,-157,-236,-81,259,157,-293
2,5256347,-3470,-1690,-553,-163,-233,-86,259,157,-293
2,5256354,-3470,-1690,-553,-163,-233,-86,259,157,-293
2,5256364,-3471,-1694,-557,-169,-252,-89,259,157,-293
2,5256370,-3471,-1694,-557,-169,-252,-89,259,157,-293
2,5256375,-3471,-1694,-557,-169,-252,-89,259,157,-293
2,5256381,-3471,-1694,-557,-169,-252,-89,259,157,-293
2,5256388,-3470,-1695,-554,-161,-250,-88,259,157,-289
2,5256396,-3470,-1695,-554,-161,-250,-88,259,157,-289
2,5256403,-3470,-1693,-551,-153,-240,-87,259,157,-289
2,5256411,-3470,-1693,-551,-153,-240,-87,259,157,-289
2,5256418,-3470,-1693,-551,-153,-240,-87,259,157,-289
2,5256423,-3471,-1694,-554,-157,-240,-88,259,157,-289
2,5256430,-3471,-1694,-554,-157,-240,-88,259,157,-289
2,5256438,-3471,-1694,-554,-157,-240,-88,259,157,-289
2,5256446,-3473,-1694,-557,-161,-232,-86,259,157,-289
2,5256454,-3473,-1694,-557,-161,-232,-86,259,157,-289
2,5256460,-3473,-1694,-557,-161,-232,-86,259,157,-289
2,5256467,-3468,-1695,-552,-163,-244,-81,259,157,-289
2,5256473,-3468,-1695,-552,-163,-244,-81,259,157,-289
2,5256481,-3468,-1695,-552,-163,-244,-81,259,157,-289
2,5256487,-3469,-1696,-556,-163,-247,-79,259,157,-289
2,5256496,-3469,-1696,-556,-163,-247,-79,259,157,-289
2,5256501,-3469,-1696,-556,-163,-247,-79,259,157,-289
2,5256506,-3470,-1693,-553,-164,-240,-86,260,158,-286
2,5256511,-3470,-1693,-553,-164,-240,-86,260,158,-286
2,5256516,-3470,-1693,-553,-164,-240,-86,260,158,-286
2,5256521,-3470,-1693,-553,-164,-240,-86,260,158,-286
2,5256526,-3474,-1695,-551,-168,-243,-88,260,158,-286
2,5256534,-3474,-1695,-551,-168,-243,-88,260,158,-286
2,5256542,-3474,-1695,-551,-168,-243,-88,260,158,-286
2,5256549,-3470,-1692,-547,-157,-239,-86,260,158,-286
2,5256556,-3470,-1692,-547,-157,-239,-86,260,158,-286
2,5256563,-3470,-1692,-553,-156,-239,-86,260,158,-286
2,5256570,-3470,-1692,-553,-156,-239,-86,260,158,-286
2,5256577,-3470,-1692,-553,-156,-239,-86,260,158,-286
2,5256584,-3468,-1692,-557,-161,-238,-89,260,158,-286
2,5256592,-3468,-1692,-557,-161,-238,-89,260,158,-286
2,5256599,-3468,-1692,-557,-161,-238,-89,260,158,-286
2,5256606,-3469,-1691,-559,-164,-242,-89,260,158,-286
2,5256613,-3469,-1691,-559,-164,-242,-89,260,158,-286
2,5256622,-3469,-1691,-559,-164,-242,-89,260,158,-286
2,5256628,-3471,-1693,-557,-156,-243,-93,260,158,-286
2,5256634,-3471,-1693,-557,-156,-243,-93,260,158,-286
2,5256640,-3471,-1693,-557,-156,-243,-93,260,158,-286
2,5256647,-3469,-1694,-551,-156,-241,-89,261,161,-289
2,5256656,-3469,-1694,-551,-156,-241,-89,261,161,-289
2,5256664,-3467,-1691,-552,-155,-231,-80,261,161,-289
2,5256673,-3467,-1691,-552,-155,-231,-80,261,161,-289
2,5256680,-3467,-1691,-552,-155,-231,-80,261,161,-289
2,5256687,-3470,-1694,-553,-163,-243,-86,261,161,-289
2,5256692,-3470,-1694,-553,-163,-243,-86,261,161,-289
2,5256699,-3470,-1694,-553,-163,-243,-86,261,161,-289
2,5256706,-3467,-1695,-551,-164,-238,-88,261,161,-289
2,5256714,-3467,-1695,-551,-164,-238,-88,261,161,-289
2,5256721,-3467,-1695,-551,-164,-238,-88,261,161,-289
2,5256728,-3471,-1693,-553,-162,-243,-82,261,161,-289
2,5256735,-3471,-1693,-553,-162,-243,-82,261,161,-289
2,5256743,-3470,-1694,-553,-165,-237,-80,261,161,-289
2,5256750,-3470,-1694,-553,-165,-237,-80,261,161,-289
2,5256756,-3470,-1694,-553,-165,-237,-80,261,161,-289
2,5256763,-3471,-1692,-552,-164,-234,-88,267,165,-289
2,5256770,-3471,-1692,-552,-164,-234,-88,267,165,-287
2,5256776,-3471,-1692,-552,-164,-234,-88,267,165,-287
2,5256783,-3473,-1693,-552,-161,-245,-88,267,165,-287
2,5256792,-3473,-1693,-552,-161,-245,-88,267,165,-287
2,5256797,-3473,-1693,-552,-161,-245,-88,267,165,-287
2,5256805,-3469,-1695,-553,-160,-246,-87,267,165,-287
2,5256810,-3469,-1695,-553,-160,-246,-87,267,165,-287
2,5256816,-3469,-1695,-553,-160,-246,-87,267,165,-287
2,5256823,-3471,-1691,-556,-158,-233,-89,267,165,-287
2,5256830,-3471,-1691,-556,-158,-233,-89,267,165,-287
2,5256837,-3471,-1691,-556,-158,-233,-89,267,165,-287
2,5256842,-3471,-1691,-556,-158,-233,-89,267,165,-287
2,5256849,-3472,-1694,-554,-157,-230,-81,267,165,-287
2,5256857,-3472,-1694,-554,-157,-230,-81,267,165,-287
2,5256864,-3471,-1691,-553,-156,-232,-77,267,165,-287
2,5256870,-3471,-1691,-553,-156,-232,-77,267,165,-287
2,5256877,-3471,-1691,-553,-156,-232,-77,267,165,-287
2,5256883,-3471,-1691,-553,-156,-232,-77,267,165,-287
2,5256890,-3472,-1695,-547,-156,-243,-84,264,166,-282
2,5256896,-3472,-1695,-547,-156,-243,-84,264,166,-282
2,5256903,-3472,-1695,-547,-156,-243,-84,264,166,-282
2,5256910,-3470,-1693,-552,-154,-230,-82,264,166,-282
2,5256919,-3470,-1693,-552,-154,-230,-82,264,166,-282
2,5256925,-3470,-1692,-555,-161,-235,-88,264,166,-282
2,5256931,-3470,-1692,-555,-161,-235,-88,264,166,-282
2,5256939,-3470,-1692,-555,-161,-235,-88,264,166,-282
2,5256946,-3468,-1693,-555,-163,-240,-81,264,166,-282
2,5256958,-3468,-1693,-555,-163,-240,-81,264,166,-282
2,5256970,-3467,-1693,-555,-159,-237,-94,264,166,-282
2,5256982,-3467,-1693,-555,-159,-237,-94,264,166,-282
2,5256994,-3468,-1692,-556,-157,-241,-88,264,166,-282
2,5257006,-3468,-1690,-546,-156,-239,-87,261,161,-289
2,5257020,-3468,-1690,-546,-156,-239,-87,261,161,-289
2,5257032,-3473,-1693,-553,-160,-243,-86,261,161,-289
2,5257044,-3465,-1690,-553,-158,-235,-81,261,161,-289
2,5257055,-3465,-1690,-553,-158,-235,-81,261,161,-289
2,5257068,-3467,-1694,-555,-164,-235,-84,261,161,-289
2,5257078,-3467,-1694,-555,-164,-235,-84,261,161,-289
2,5257091,-3469,-1691,-553,-163,-244,-87,261,161,-289
2,5257103,-3469,-1692,-551,-165,-241,-90,261,161,-289
2,5257115,-3469,-1692,-551,-165,-241,-90,261,161,-289
2,5257126,-3470,-1692,-547,-163,-235,-82,263,159,-279
2,5257135,-3470,-1692,-547,-163,-235,-82,263,159,-279
2,5257143,-3470,-1692,-547,-163,-235,-82,263,159,-279
2,5257151,-3472,-1694,-551,-162,-229,-86,263,159,-279
2,5257159,-3472,-1694,-551,-162,-229,-86,263,159,-279
2,5257175,-3468,-1692,-553,-159,-232,-88,263,159,-279
2,5257191,-3471,-1694,-556,-162,-234,-86,263,159,-279
2,5257202,-3471,-1694,-556,-162,-234,-86,263,159,-279
2,5257213,-3469,-1695,-555,-156,-236,-88,263,159,-279
2,5257227,-3472,-1694,-554,-161,-235,-83,263,159,-279
2,5257242,-3472,-1694,-554,-161,-235,-83,263,159,-279
2,5257254,-3471,-1693,-554,-159,-239,-80,261,157,-283
2,5257267,-3470,-1695,-553,-158,-234,-87,261,157,-283
2,5257279,-3470,-1695,-553,-158,-234,-87,261,157,-283
2,5257292,-3470,-1693,-554,-157,-236,-80,261,157,-283
2,5257305,-3469,-1692,-554,-164,-241,-77,261,157,-283
2,5257318,-3469,-1692,-554,-164,-241,-77,261,157,-283
2,5257331,-3471,-1692,-555,-162,-242,-92,261,157,-283
2,5257345,-3469,-1694,-551,-151,-245,-90,261,157,-283
2,5257358,-3469,-1694,-551,-151,-245,-90,261,157,-283
2,5257371,-3469,-1692,-553,-157,-243,-84,261,157,-283
2,5257384,-3472,-1694,-549,-161,-240,-80,256,164,-282
2,5257395,-3472,-1694,-549,-161,-240,-80,256,164,-282
2,5257410,-3471,-1694,-557,-157,-244,-81,256,164,-282
2,5257422,-3471,-1694,-557,-157,-244,-81,256,164,-282
2,5257434,-3472,-1693,-553,-157,-245,-85,256,164,-282
2,5257448,-3470,-1693,-552,-157,-240,-83,256,164,-282
2,5257461,-3470,-1693,-552,-157,-240,-83,256,164,-282
2,5257473,-3470,-1692,-557,-158,-242,-83,256,164,-282
2,5257485,-3469,-1696,-553,-153,-236,-81,256,164,-282
2,5257498,-3469,-1696,-553,-153,-236,-81,256,164,-282
2,5257506,-3469,-1693,-547,-153,-226,-88,259,163,-285
2,5257515,-3469,-1693,-547,-153,-226,-88,259,163,-285
2,5257524,-3469,-1693,-554,-157,-234,-77,259,163,-285
2,5257534,-3469,-1693,-554,-157,-234,-77,259,163,-285
2,5257547,-3469,-1695,-558,-160,-234,-81,259,163,-285
2,5257561,-3469,-1695,-558,-160,-234,-81,259,163,-285
2,5257573,-3470,-1692,-552,-161,-241,-80,259,163,-285
2,5257582,-3470,-1692,-552,-161,-241,-80,259,163,-285
2,5257593,-3470,-1692,-556,-157,-243,-83,259,163,-285
2,5257607,-3469,-1691,-558,-166,-232,-92,259,163,-285
2,5257618,-3469,-1691,-558,-166,-232,-92,259,163,-285
2,5257630,-3469,-1692,-550,-160,-237,-85,261,163,-285
2,5257641,-3469,-1692,-550,-160,-237,-85,261,163,-285
2,5257652,-3469,-1692,-551,-156,-232,-87,261,163,-285
2,5257662,-3469,-1692,-551,-156,-232,-87,261,163,-285
2,5257676,-3470,-1692,-553,-163,-244,-91,261,163,-285
2,5257689,-3471,-1694,-555,-160,-243,-83,261,163,-285
2,5257697,-3471,-1694,-555,-160,-243,-83,261,163,-285
2,5257705,-3470,-1690,-557,-163,-236,-87,261,163,-285
2,5257713,-3470,-1690,-557,-163,-236,-87,261,163,-285
2,5257721,-3470,-1690,-557,-163,-236,-87,261,163,-285
2,5257732,-3474,-1694,-552,-161,-248,-81,261,163,-285
2,5257745,-3470,-1692,-549,-159,-240,-84,262,170,-284
2,5257759,-3470,-1692,-549,-159,-240,-84,262,170,-284
2,5257773,-3474,-1690,-551,-153,-237,-84,262,170,-284
2,5257783,-3474,-1690,-551,-153,-237,-84,262,170,-284
2,5257796,-3472,-1692,-553,-155,-236,-91,262,170,-284
2,5257804,-3471,-1694,-552,-161,-238,-84,262,170,-284
2,5257815,-3471,-1694,-552,-161,-238,-84,262,170,-284
2,5257828,-3472,-1694,-552,-160,-239,-85,262,170,-284
2,5257840,-3472,-1694,-552,-160,-239,-85,262,170,-284
2,5257849,-3472,-1693,-552,-161,-229,-84,262,170,-284
2,5257862,-3472,-1693,-552,-161,-229,-84,262,170,-284
2,5257874,-3470,-1693,-557,-160,-229,-92,260,160,-284
2,5257885,-3469,-1691,-555,-162,-240,-84,260,160,-284
2,5257899,-3469,-1691,-555,-162,-240,-84,260,160,-284
2,5257910,-3469,-1690,-551,-159,-237,-89,260,160,-284
2,5257923,-3469,-1690,-551,-159,-237,-89,260,160,-284
2,5257936,-3470,-1694,-549,-153,-239,-86,260,160,-284
2,5257949,-3469,-1693,-553,-166,-247,-86,260,160,-284
2,5257961,-3469,-1693,-553,-166,-247,-86,260,160,-284
2,5257967,-3471,-1692,-553,-162,-240,-82,260,160,-284
2,5257974,-3471,-1692,-553,-162,-240,-82,260,160,-284
2,5257982,-3471,-1692,-553,-162,-240,-82,260,160,-284
2,5257989,-3471,-1694,-552,-164,-241,-80,260,160,-284
2,5257996,-3471,-1694,-552,-164,-241,-80,260,160,-284
2,5258001,-3471,-1694,-552,-164,-241,-80,260,160,-284
2,5258008,-3469,-1694,-549,-158,-242,-81,263,163,-281
2,5258016,-3469,-1694,-549,-158,-242,-81,263,163,-281
2,5258022,-3469,-1694,-549,-158,-242,-81,263,163,-281
2,5258030,-3471,-1693,-548,-159,-230,-84,263,163,-281
2,5258036,-3471,-1693,-548,-159,-230,-84,263,163,-281
2,5258043,-3471,-1693,-548,-159,-230,-84,263,163,-281
2,5258048,-3469,-1693,-550,-162,-242,-83,263,163,-281
2,5258055,-3469,-1693,-550,-162,-242,-83,263,163,-281
2,5258064,-3468,-1695,-551,-161,-240,-80,263,163,-281
2,5258072,-3468,-1695,-551,-161,-240,-80,263,163,-281
2,5258079,-3468,-1695,-551,-161,-240,-80,263,163,-281
2,5258085,-3473,-1690,-557,-158,-238,-85,263,163,-281
2,5258092,-3473,-1690,-557,-158,-238,-85,263,163,-281
2,5258098,-3473,-1690,-557,-158,-238,-85,263,163,-281
2,5258105,-3471,-1694,-558,-156,-241,-91,263,163,-281
2,5258114,-3471,-1694,-558,-156,-241,-91,263,163,-281
2,5258121,-3471,-1694,-558,-156,-241,-91,263,163,-281
2,5258127,-3469,-1692,-555,-163,-240,-86,265,163,-281
2,5258133,-3469,-1692,-555,-163,-240,-86,265,163,-281
2,5258141,-3469,-1692,-555,-163,-240,-86,265,163,-281
2,5258147,-3470,-1694,-552,-163,-243,-78,265,163,-281
2,5258155,-3470,-1694,-552,-163,-243,-78,265,163,-281
2,5258163,-3470,-1694,-552,-163,-243,-78,265,163,-281
2,5258168,-3469,-1692,-552,-162,-237,-84,265,163,-281
2,5258175,-3469,-1692,-552,-162,-237,-84,265,163,-281
2,5258183,-3469,-1692,-552,-162,-237,-84,265,163,-281
2,5258188,-3467,-1693,-552,-160,-240,-90,265,163,-281
2,5258194,-3467,-1693,-552,-160,-240,-90,265,163,-281
2,5258200,-3467,-1693,-552,-160,-240,-90,265,163,-281
2,5258206,-3469,-1694,-551,-160,-234,-91,265,163,-281
2,5258213,-3469,-1694,-551,-160,-234,-91,265,163,-281
2,5258220,-3469,-1694,-551,-160,-234,-91,265,163,-281
2,5258226,-3469,-1691,-554,-154,-243,-81,265,163,-281
2,5258232,-3469,-1691,-554,-154,-243,-81,265,163,-281
2,5258238,-3469,-1691,-554,-154,-243,-81,265,163,-281
2,5258245,-3470,-1692,-550,-156,-237,-79,258,158,-290
2,5258252,-3470,-1692,-550,-156,-237,-79,258,158,-290
2,5258260,-3470,-1692,-550,-156,-237,-79,258,158,-290
2,5258265,-3470,-1694,-550,-163,-237,-79,258,158,-290
2,5258273,-3470,-1694,-550,-163,-237,-79,258,158,-290
2,5258281,-3470,-1694,-550,-163,-237,-79,258,158,-290
2,5258288,-3467,-1693,-553,-163,-241,-87,258,158,-290
2,5258295,-3467,-1693,-553,-163,-241,-87,258,158,-290
2,5258302,-3467,-1693,-553,-163,-241,-87,258,158,-290
2,5258309,-3469,-1692,-555,-162,-237,-86,258,158,-290
2,5258316,-3469,-1692,-555,-162,-237,-86,258,158,-290
2,5258324,-3469,-1693,-555,-166,-234,-86,258,158,-290
2,5258332,-3469,-1693,-555,-166,-234,-86,258,158,-290
2,5258339,-3469,-1693,-555,-166,-234,-86,258,158,-290
2,5258346,-3470,-1692,-554,-165,-237,-84,258,158,-290
2,5258352,-3470,-1692,-554,-165,-237,-84,258,158,-290
2,5258359,-3470,-1692,-554,-165,-237,-84,258,158,-290
2,5258366,-3468,-1691,-556,-165,-235,-82,260,160,-286
2,5258374,-3468,-1691,-556,-165,-235,-82,260,160,-286
2,5258382,-3468,-1691,-556,-165,-235,-82,260,160,-286
2,5258389,-3470,-1694,-555,-158,-232,-86,260,160,-286
2,5258396,-3470,-1694,-555,-158,-232,-86,260,160,-286
2,5258403,-3470,-1694,-555,-158,-232,-86,260,160,-286
2,5258411,-3470,-1694,-551,-150,-232,-84,260,160,-286
2,5258419,-3470,-1694,-551,-150,-232,-84,260,160,-286
2,5258426,-3472,-1695,-555,-161,-239,-82,260,160,-286
2,5258433,-3472,-1695,-555,-161,-239,-82,260,160,-286
2,5258440,-3472,-1695,-555,-161,-239,-82,260,160,-286
2,5258447,-3469,-1692,-558,-163,-237,-86,260,160,-286
2,5258452,-3469,-1692,-558,-163,-237,-86,260,160,-286
2,5258460,-3469,-1692,-558,-163,-237,-86,260,160,-286
2,5258466,-3471,-1694,-561,-159,-239,-82,260,160,-286
2,5258473,-3471,-1694,-561,-159,-239,-82,260,160,-286
2,5258479,-3471,-1694,-561,-159,-239,-82,260,160,-286
2,5258486,-3469,-1694,-554,-156,-245,-76,258,160,-294
2,5258493,-3469,-1694,-554,-156,-245,-76,258,160,-294
2,5258500,-3469,-1694,-554,-156,-245,-76,258,160,-294
2,5258505,-3473,-1693,-551,-161,-243,-88,258,160,-294
2,5258510,-3473,-1693,-551,-161,-243,-88,258,160,-294
2,5258515,-3473,-1693,-551,-161,-243,-88,258,160,-294
2,5258520,-3473,-1693,-551,-161,-243,-88,258,160,-294
2,5258525,-3474,-1694,-557,-158,-239,-87,258,160,-294
2,5258531,-3474,-1694,-557,-158,-239,-87,258,160,-294
2,5258539,-3474,-1694,-557,-158,-239,-87,258,160,-294
2,5258546,-3467,-1695,-555,-162,-243,-86,258,160,-294
2,5258553,-3467,-1695,-555,-162,-243,-86,258,160,-294
2,5258560,-3467,-1695,-555,-162,-243,-86,258,160,-294
2,5258566,-3468,-1692,-555,-161,-241,-89,258,160,-294
2,5258572,-3468,-1692,-555,-161,-241,-89,258,160,-294
2,5258579,-3468,-1692,-555,-161,-241,-89,258,160,-294
2,5258587,-3469,-1694,-556,-161,-240,-88,258,160,-294
2,5258595,-3469,-1694,-556,-161,-240,-88,258,160,-294
2,5258601,-3469,-1694,-556,-161,-240,-88,258,160,-294
2,5258609,-3472,-1691,-555,-159,-237,-79,258,160,-294
2,5258617,-3472,-1691,-555,-159,-237,-79,258,160,-294
2,5258626,-3471,-1694,-556,-164,-240,-86,268,166,-290
2,5258633,-3471,-1694,-556,-164,-240,-86,268,166,-290
2,5258640,-3471,-1694,-556,-164,-240,-86,268,166,-290
2,5258647,-3474,-1689,-550,-166,-239,-93,268,166,-290
2,5258654,-3474,-1689,-550,-166,-239,-93,268,166,-290
2,5258660,-3474,-1689,-550,-166,-239,-93,268,166,-290
2,5258667,-3474,-1695,-552,-166,-239,-85,268,166,-290
2,5258673,-3474,-1695,-552,-166,-239,-85,268,166,-290
2,5258678,-3474,-1695,-552,-166,-239,-85,268,166,-290
2,5258684,-3474,-1695,-552,-166,-239,-85,268,166,-290
2,5258690,-3469,-1696,-555,-163,-238,-84,268,166,-290
2,5258697,-3469,-1696,-555,-163,-238,-84,268,166,-290
2,5258702,-3469,-1696,-555,-163,-238,-84,268,166,-290
2,5258710,-3471,-1693,-553,-155,-238,-93,268,166,-290
2,5258717,-3471,-1693,-553,-155,-238,-93,268,166,-290
2,5258724,-3471,-1693,-553,-155,-238,-93,268,166,-290
2,5258730,-3472,-1694,-553,-163,-243,-92,268,166,-290
2,5258737,-3472,-1694,-553,-163,-243,-92,268,166,-290
2,5258744,-3472,-1694,-553,-163,-243,-92,268,166,-290
2,5258752,-3473,-1695,-551,-164,-235,-94,258,158,-290
2,5258757,-3473,-1695,-551,-164,-235,-94,258,158,-290
2,5258765,-3473,-1695,-551,-164,-235,-94,258,158,-290
2,5258772,-3471,-1691,-551,-164,-238,-92,258,158,-290
2,5258778,-3471,-1691,-551,-164,-238,-92,258,158,-290
2,5258784,-3472,-1692,-554,-159,-238,-88,258,158,-290
2,5258792,-3472,-1692,-554,-159,-238,-88,258,158,-290
2,5258798,-3472,-1692,-554,-159,-238,-88,258,158,-290
2,5258805,-3472,-1692,-554,-159,-238,-88,258,158,-290
2,5258812,-3468,-1694,-555,-157,-238,-78,258,158,-290
2,5258818,-3468,-1694,-555,-157,-238,-78,258,158,-290
2,5258824,-3468,-1694,-555,-157,-238,-78,258,158,-290
2,5258830,-3471,-1692,-559,-163,-239,-78,258,158,-290
2,5258838,-3471,-1692,-559,-163,-239,-78,258,158,-290
2,5258845,-3471,-1693,-557,-165,-238,-85,258,158,-290
2,5258851,-3471,-1693,-557,-165,-238,-85,258,158,-290
2,5258858,-3471,-1693,-557,-165,-238,-85,258,158,-290
2,5258865,-3470,-1691,-550,-167,-235,-79,256,164,-288
2,5258872,-3470,-1691,-550,-167,-235,-79,256,164,-288
2,5258880,-3470,-1691,-550,-167,-235,-79,256,164,-288
2,5258887,-3470,-1692,-555,-164,-238,-83,256,164,-288
2,5258893,-3470,-1692,-555,-164,-238,-83,256,164,-288
2,5258901,-3470,-1692,-555,-164,-238,-83,256,164,-288
2,5258907,-3469,-1692,-551,-159,-232,-87,256,164,-288
2,5258914,-3469,-1692,-551,-159,-232,-87,256,164,-288
2,5258919,-3469,-1692,-551,-159,-232,-87,256,164,-288
2,5258927,-3470,-1692,-552,-159,-247,-85,256,164,-288
2,5258934,-3470,-1692,-552,-159,-247,-85,256,164,-288
2,5258940,-3470,-1692,-552,-159,-247,-85,256,164,-288
2,5258947,-3470,-1692,-559,-163,-244,-83,256,164,-288
2,5258953,-3470,-1692,-559,-163,-244,-83,256,164,-288
2,5258960,-3470,-1692,-559,-163,-244,-83,256,164,-288
2,5258971,-3472,-1693,-555,-162,-239,-89,256,164,-288
2,5258983,-3472,-1693,-555,-162,-239,-89,256,164,-288
2,5258997,-3471,-1696,-549,-157,-240,-86,262,166,-282
2,5259010,-3468,-1694,-550,-161,-245,-93,262,166,-282
2,5259021,-3468,-1694,-550,-161,-245,-93,262,166,-282
2,5259033,-3470,-1693,-553,-163,-242,-90,262,166,-282
2,5259045,-3471,-1694,-553,-159,-238,-87,262,166,-282
2,5259060,-3471,-1694,-553,-159,-238,-87,262,166,-282
2,5259072,-3471,-1689,-556,-162,-240,-85,262,166,-282
2,5259083,-3471,-1689,-556,-162,-240,-85,262,166,-282
2,5259098,-3473,-1692,-556,-160,-230,-88,262,166,-282
2,5259110,-3472,-1695,-554,-157,-236,-90,264,156,-286
2,5259121,-3472,-1695,-554,-157,-236,-90,264,156,-286
2,5259134,-3472,-1696,-550,-158,-236,-81,264,156,-286
2,5259149,-3470,-1694,-551,-165,-237,-88,264,156,-286
2,5259162,-3470,-1694,-551,-165,-237,-88,264,156,-286
2,5259172,-3470,-1692,-549,-166,-242,-87,264,156,-286
2,5259184,-3470,-1692,-549,-166,-242,-87,264,156,-286
2,5259192,-3470,-1693,-553,-161,-231,-83,264,156,-286
2,5259199,-3470,-1693,-553,-161,-231,-83,264,156,-286
2,5259207,-3469,-1692,-546,-162,-238,-89,264,156,-286
2,5259217,-3469,-1692,-546,-162,-238,-89,264,156,-286
2,5259228,-3469,-1693,-555,-160,-245,-88,264,156,-286
2,5259237,-3469,-1693,-555,-160,-245,-88,264,156,-286
2,5259249,-3468,-1694,-551,-160,-244,-77,257,173,-285
2,5259264,-3468,-1694,-551,-160,-244,-77,257,173,-285
2,5259275,-3470,-1695,-551,-164,-240,-83,257,173,-285
2,5259288,-3468,-1694,-546,-161,-237,-89,257,173,-285
2,5259300,-3468,-1694,-546,-161,-237,-89,257,173,-285
2,5259314,-3470,-1692,-551,-162,-236,-82,257,173,-285
2,5259327,-3471,-1694,-552,-154,-232,-81,257,173,-285
2,5259339,-3471,-1694,-552,-154,-232,-81,257,173,-285
2,5259352,-3470,-1690,-549,-155,-237,-85,257,173,-285
2,5259367,-3469,-1691,-548,-158,-233,-84,263,159,-289
2,5259380,-3469,-1691,-548,-158,-233,-84,263,159,-289
2,5259390,-3473,-1693,-555,-164,-240,-81,263,159,-289
2,5259403,-3473,-1693,-555,-164,-240,-81,263,159,-289
2,5259417,-3470,-1691,-551,-165,-243,-95,263,159,-289
2,5259431,-3471,-1697,-551,-168,-234,-86,263,159,-289
2,5259441,-3471,-1697,-551,-168,-234,-86,263,159,-289
2,5259452,-3472,-1693,-551,-163,-230,-85,263,159,-289
2,5259464,-3472,-1693,-551,-163,-230,-85,263,159,-289
2,5259478,-3467,-1692,-556,-166,-240,-81,263,159,-289
2,5259490,-3471,-1695,-553,-164,-240,-83,262,158,-284
2,5259501,-3471,-1695,-553,-164,-240,-83,262,158,-284
2,5259509,-3470,-1695,-551,-160,-241,-84,262,158,-284
2,5259517,-3470,-1695,-551,-160,-241,-84,262,158,-284
2,5259526,-3467,-1692,-554,-158,-244,-87,262,158,-284
2,5259538,-3467,-1692,-554,-158,-244,-87,262,158,-284
2,5259549,-3467,-1693,-555,-162,-239,-91,262,158,-284
2,5259558,-3467,-1693,-555,-162,-239,-91,262,158,-284
2,5259571,-3467,-1695,-556,-165,-234,-86,262,158,-284
2,5259586,-3469,-1694,-557,-165,-241,-84,262,158,-284
2,5259599,-3469,-1694,-557,-165,-241,-84,262,158,-284
2,5259609,-3468,-1688,-549,-164,-241,-83,265,165,-281
2,5259621,-3468,-1688,-549,-164,-241,-83,265,165,-281
2,5259635,-3470,-1692,-553,-166,-238,-87,265,165,-281
2,5259648,-3468,-1695,-552,-164,-235,-83,265,165,-281
2,5259658,-3468,-1695,-552,-164,-235,-83,265,165,-281
2,5259670,-3469,-1693,-553,-164,-234,-85,265,165,-281
2,5259681,-3469,-1693,-553,-164,-234,-85,265,165,-281
2,5259693,-3471,-1690,-558,-159,-238,-81,265,165,-281
2,5259706,-3468,-1692,-553,-160,-239,-90,265,165,-281
2,5259719,-3468,-1692,-553,-160,-239,-90,265,165,-281
2,5259729,-3472,-1693,-552,-155,-233,-90,264,158,-288
2,5259741,-3472,-1693,-552,-155,-233,-90,264,158,-288
2,5259755,-3470,-1696,-552,-161,-246,-93,264,158,-288
2,5259769,-3472,-1691,-555,-157,-235,-86,264,158,-288
2,5259781,-3472,-1691,-555,-157,-235,-86,264,158,-288
2,5259789,-3470,-1693,-553,-155,-235,-88,264,158,-288
2,5259797,-3470,-1693,-553,-155,-235,-88,264,158,-288
2,5259807,-3471,-1695,-555,-163,-232,-90,264,158,-288
2,5259815,-3471,-1695,-555,-163,-232,-90,264,158,-288
2,5259826,-3471,-1695,-555,-163,-232,-90,264,158,-288
2,5259837,-3473,-1692,-554,-165,-236,-88,264,158,-288
2,5259851,-3469,-1691,-549,-158,-240,-84,264,158,-288
2,5259863,-3469,-1691,-549,-158,-240,-84,264,158,-288
2,5259876,-3469,-1694,-547,-154,-234,-81,263,159,-291
2,5259888,-3470,-1692,-551,-162,-236,-77,263,159,-291
2,5259901,-3470,-1692,-551,-162,-236,-77,263,159,-291
2,5259913,-3470,-1694,-554,-167,-239,-84,263,159,-291
2,5259925,-3470,-1694,-554,-167,-239,-84,263,159,-291
2,5259938,-3468,-1692,-549,-168,-240,-81,263,159,-291
2,5259951,-3466,-1694,-555,-157,-243,-84,263,159,-291
2,5259961,-3466,-1694,-555,-157,-243,-84,263,159,-291
2,5259973,-3467,-1693,-556,-162,-242,-80,263,159,-291
2,5259979,-3467,-1693,-556,-162,-242,-80,263,159,-291
2,5259985,-3469,-1695,-545,-162,-239,-83,258,164,-291
2,5259992,-3469,-1695,-545,-162,-239,-83,258,164,-290
2,5260000,-3469,-1695,-545,-162,-239,-83,258,164,-290
2,5260008,-3469,-1691,-554,-164,-238,-88,258,164,-290
2,5260015,-3469,-1691,-554,-164,-238,-88,258,164,-290
2,5260022,-3469,-1691,-554,-164,-238,-88,258,164,-290
2,5260028,-3469,-1692,-551,-154,-240,-89,258,164,-290
2,5260036,-3469,-1692,-551,-154,-240,-89,258,164,-290
2,5260043,-3469,-1692,-551,-154,-240,-89,258,164,-290
2,5260049,-3470,-1695,-558,-162,-234,-89,258,164,-290
2,5260056,-3470,-1695,-558,-162,-234,-89,258,164,-290
2,5260062,-3470,-1695,-558,-162,-234,-89,258,164,-290
2,5260068,-3468,-1695,-553,-156,-247,-96,258,164,-290
2,5260077,-3468,-1695,-553,-156,-247,-96,258,164,-290
2,5260084,-3468,-1695,-553,-156,-247,-96,258,164,-290
2,5260090,-3468,-1695,-553,-156,-247,-96,258,164,-290
2,5260097,-3468,-1695,-553,-156,-247,-96,258,164,-290
2,5260103,-3468,-1695,-553,-156,-247,-96,258,164,-290
2,5260109,-3469,-1691,-550,-157,-232,-82,265,167,-281
2,5260118,-3469,-1691,-550,-157,-232,-82,265,167,-281
2,5260125,-3469,-1691,-550,-157,-232,-82,265,167,-281
2,5260131,-3471,-1691,-555,-159,-241,-83,265,167,-281
2,5260138,-3471,-1691,-555,-159,-241,-83,265,167,-281
2,5260143,-3471,-1691,-555,-159,-241,-83,265,167,-281
2,5260151,-3471,-1692,-552,-157,-241,-81,265,167,-281
2,5260158,-3471,-1692,-552,-157,-241,-81,265,167,-281
2,5260166,-3471,-1692,-552,-157,-241,-81,265,167,-281
2,5260173,-3469,-1694,-553,-161,-229,-80,265,167,-281
2,5260180,-3469,-1694,-553,-161,-229,-80,265,167,-281
2,5260186,-3473,-1692,-556,-162,-231,-77,265,167,-281
2,5260194,-3473,-1692,-556,-162,-231,-77,265,167,-281
2,5260201,-3473,-1692,-556,-162,-231,-77,265,167,-281
2,5260208,-3470,-1691,-548,-168,-238,-84,265,167,-281
2,5260216,-3470,-1691,-548,-168,-238,-84,265,167,-281
2,5260224,-3470,-1691,-548,-168,-238,-84,265,167,-281
2,5260230,-3470,-1691,-550,-161,-247,-88,256,156,-284
2,5260236,-3470,-1691,-550,-161,-247,-88,256,156,-284
2,5260244,-3470,-1691,-550,-161,-247,-88,256,156,-284
2,5260253,-3467,-1692,-560,-160,-241,-82,256,156,-284
2,5260260,-3467,-1692,-560,-160,-241,-82,256,156,-284
2,5260268,-3468,-1688,-557,-158,-246,-78,256,156,-284
2,5260274,-3468,-1688,-557,-158,-246,-78,256,156,-284
2,5260280,-3468,-1688,-557,-158,-246,-78,256,156,-284
2,5260288,-3470,-1692,-550,-166,-250,-82,256,156,-284
2,5260295,-3470,-1692,-550,-166,-250,-82,256,156,-284
2,5260302,-3470,-1692,-550,-166,-250,-82,256,156,-284
2,5260309,-3470,-1692,-552,-161,-237,-82,256,156,-284
2,5260316,-3470,-1692,-552,-161,-237,-82,256,156,-284
2,5260322,-3470,-1692,-552,-161,-237,-82,256,156,-284
2,5260329,-3468,-1691,-551,-153,-237,-81,256,156,-284
2,5260336,-3468,-1691,-551,-153,-237,-81,256,156,-284
2,5260343,-3468,-1691,-551,-153,-237,-81,256,156,-284
2,5260350,-3469,-1692,-554,-162,-233,-85,272,152,-282
2,5260356,-3469,-1692,-554,-162,-233,-85,272,152,-282
2,5260362,-3469,-1692,-554,-162,-233,-85,272,152,-282
2,5260367,-3470,-1694,-545,-167,-240,-92,272,152,-282
2,5260372,-3470,-1694,-545,-167,-240,-92,272,152,-282
2,5260378,-3470,-1694,-545,-167,-240,-92,272,152,-282
2,5260385,-3470,-1694,-545,-167,-240,-92,272,152,-282
2,5260391,-3469,-1692,-556,-165,-246,-87,272,152,-282
2,5260395,-3469,-1692,-556,-165,-246,-87,272,152,-282
2,5260402,-3469,-1692,-556,-165,-246,-87,272,152,-282
2,5260409,-3473,-1694,-555,-167,-241,-88,272,152,-282
2,5260417,-3473,-1694,-555,-167,-241,-88,272,152,-282
2,5260424,-3473,-1694,-555,-167,-241,-88,272,152,-282
2,5260430,-3470,-1691,-553,-164,-250,-81,272,152,-282
2,5260437,-3470,-1691,-553,-164,-250,-81,272,152,-282
2,5260444,-3470,-1691,-553,-164,-250,-81,272,152,-282
2,5260451,-3470,-1694,-553,-164,-240,-83,272,152,-282
2,5260459,-3470,-1694,-553,-164,-240,-83,272,152,-282
2,5260465,-3470,-1694,-553,-164,-240,-83,272,152,-282
2,5260471,-3469,-1694,-555,-159,-236,-85,272,152,-282
2,5260478,-3469,-1694,-555,-159,-236,-85,272,152,-282
2,5260485,-3469,-1694,-555,-159,-236,-85,272,152,-282
2,5260492,-3469,-1692,-550,-156,-237,-88,262,166,-294
2,5260499,-3469,-1692,-550,-156,-237,-88,262,166,-294
2,5260505,-3469,-1692,-550,-156,-237,-88,262,166,-294
2,5260510,-3474,-1697,-553,-160,-237,-82,262,166,-294
2,5260515,-3474,-1697,-553,-160,-237,-82,262,166,-294
2,5260520,-3474,-1697,-553,-160,-237,-82,262,166,-294
2,5260525,-3474,-1697,-553,-160,-237,-82,262,166,-294
2,5260530,-3474,-1696,-553,-162,-237,-73,262,166,-294
2,5260536,-3474,-1696,-553,-162,-237,-73,262,166,-294
2,5260544,-3474,-1696,-553,-162,-237,-73,262,166,-294
2,5260552,-3472,-1695,-550,-166,-243,-81,262,166,-294
2,5260558,-3472,-1695,-550,-166,-243,-81,262,166,-294
2,5260565,-3472,-1695,-550,-166,-243,-81,262,166,-294
2,5260571,-3467,-1693,-554,-169,-251,-85,262,166,-294
2,5260577,-3467,-1693,-554,-169,-251,-85,262,166,-294
2,5260585,-3467,-1693,-554,-169,-251,-85,262,166,-294
2,5260592,-3471,-1693,-556,-163,-243,-86,262,166,-294
2,5260599,-3471,-1693,-556,-163,-243,-86,262,166,-294
2,5260606,-3471,-1693,-556,-163,-243,-86,262,166,-294
2,5260614,-3467,-1689,-550,-171,-235,-84,258,158,-286
2,5260620,-3467,-1689,-550,-171,-235,-84,258,158,-286
2,5260626,-3471,-1693,-556,-166,-238,-89,258,158,-286
2,5260634,-3471,-1693,-556,-166,-238,-89,258,158,-286
2,5260641,-3471,-1693,-556,-166,-238,-89,258,158,-286
2,5260648,-3470,-1695,-554,-161,-238,-82,258,158,-286
2,5260655,-3470,-1695,-554,-161,-238,-82,258,158,-286
2,5260662,-3470,-1695,-554,-161,-238,-82,258,158,-286
2,5260669,-3469,-1694,-553,-155,-235,-82,258,158,-286
2,5260677,-3469,-1694,-553,-155,-235,-82,258,158,-286
2,5260682,-3469,-1694,-553,-155,-235,-82,258,158,-286
2,5260689,-3470,-1694,-554,-162,-230,-84,258,158,-286
2,5260697,-3470,-1694,-554,-162,-230,-84,258,158,-286
2,5260704,-3470,-1694,-554,-162,-230,-84,258,158,-286
2,5260710,-3468,-1693,-555,-165,-236,-87,258,158,-286
2,5260718,-3468,-1693,-555,-165,-236,-87,258,158,-286
2,5260725,-3468,-1693,-555,-165,-236,-87,258,158,-286
2,5260732,-3468,-1695,-552,-167,-242,-84,265,165,-289
2,5260739,-3468,-1695,-552,-167,-242,-84,265,165,-289
2,5260747,-3470,-1694,-548,-162,-238,-82,265,165,-289
2,5260753,-3470,-1694,-548,-162,-238,-82,265,165,-289
2,5260761,-3470,-1694,-548,-162,-238,-82,265,165,-289
2,5260768,-3470,-1694,-555,-158,-239,-82,265,165,-289
2,5260774,-3470,-1694,-555,-158,-239,-82,265,165,-289
2,5260779,-3470,-1694,-555,-158,-239,-82,265,165,-289
2,5260787,-3474,-1694,-553,-156,-234,-87,265,165,-289
2,5260794,-3474,-1694,-553,-156,-234,-87,265,165,-289
2,5260802,-3474,-1694,-553,-156,-234,-87,265,165,-289
2,5260808,-3469,-1693,-553,-160,-228,-90,265,165,-289
2,5260813,-3469,-1693,-553,-160,-228,-90,265,165,-289
2,5260820,-3469,-1693,-553,-160,-228,-90,265,165,-289
2,5260828,-3474,-1693,-556,-162,-239,-85,265,165,-289
2,5260836,-3474,-1693,-556,-162,-239,-85,265,165,-289
2,5260845,-3474,-1693,-556,-162,-239,-85,265,165,-289
2,5260850,-3469,-1692,-549,-158,-239,-89,260,170,-288
2,5260856,-3469,-1692,-549,-158,-239,-89,260,170,-288
2,5260863,-3469,-1692,-549,-158,-239,-89,260,170,-288
2,5260868,-3468,-1689,-551,-168,-246,-89,260,170,-288
2,5260874,-3468,-1689,-551,-168,-246,-89,260,170,-288
2,5260879,-3468,-1689,-551,-168,-246,-89,260,170,-288
2,5260887,-3472,-1695,-548,-167,-239,-83,260,170,-288
2,5260893,-3472,-1695,-548,-167,-239,-83,260,170,-288
2,5260900,-3472,-1695,-548,-167,-239,-83,260,170,-288
2,5260908,-3471,-1693,-550,-158,-238,-82,260,170,-288
2,5260915,-3471,-1693,-550,-158,-238,-82,260,170,-288
2,5260922,-3471,-1693,-550,-158,-238,-82,260,170,-288
2,5260929,-3469,-1694,-555,-162,-239,-80,260,170,-288
2,5260936,-3469,-1694,-555,-162,-239,-80,260,170,-288
2,5260944,-3469,-1694,-555,-162,-239,-80,260,170,-288
2,5260951,-3472,-1695,-553,-164,-241,-81,260,170,-288
2,5260957,-3472,-1695,-553,-164,-241,-81,260,170,-288
2,5260965,-3472,-1695,-553,-164,-241,-81,260,170,-288
2,5260973,-3471,-1694,-555,-164,-235,-82,263,163,-277
2,5260979,-3471,-1694,-555,-164,-235,-82,263,163,-277
2,5260993,-3471,-1691,-552,-162,-234,-80,263,163,-277
2,5261003,-3471,-1691,-552,-162,-234,-80,263,163,-277
2,5261014,-3470,-1690,-554,-169,-232,-83,263,163,-277
2,5261027,-3471,-1691,-558,-157,-234,-86,263,163,-277
2,5261040,-3471,-1691,-558,-157,-234,-86,263,163,-277
2,5261049,-3469,-1695,-555,-159,-239,-81,263,163,-277
2,5261062,-3469,-1695,-555,-159,-239,-81,263,163,-277
2,5261074,-3470,-1694,-553,-163,-244,-81,263,163,-277
2,5261087,-3469,-1693,-552,-160,-246,-82,263,163,-277
2,5261097,-3469,-1693,-552,-160,-246,-82,263,163,-277
2,5261113,-3470,-1694,-546,-160,-241,-89,261,163,-289
2,5261125,-3470,-1694,-546,-160,-241,-89,261,163,-289
2,5261138,-3473,-1692,-553,-157,-239,-87,261,163,-289
2,5261152,-3469,-1693,-555,-154,-242,-84,261,163,-289
2,5261165,-3469,-1693,-555,-154,-242,-84,261,163,-289
2,5261176,-3470,-1693,-555,-162,-244,-85,261,163,-289
2,5261190,-3470,-1691,-557,-161,-240,-84,261,163,-289
2,5261202,-3470,-1691,-557,-161,-240,-84,261,163,-289
2,5261215,-3471,-1694,-553,-165,-235,-92,261,163,-289
2,5261229,-3471,-1688,-552,-163,-232,-87,265,161,-291
2,5261242,-3471,-1688,-552,-163,-232,-87,265,161,-291
2,5261255,-3471,-1693,-555,-164,-239,-91,265,161,-291
2,5261267,-3472,-1694,-550,-158,-245,-91,265,161,-291
2,5261280,-3472,-1694,-550,-158,-245,-91,265,161,-291
2,5261293,-3470,-1691,-550,-159,-243,-91,265,161,-291
2,5261306,-3470,-1691,-550,-159,-243,-91,265,161,-291
2,5261316,-3470,-1693,-552,-159,-237,-87,265,161,-291
2,5261331,-3472,-1695,-558,-157,-240,-89,265,161,-291
2,5261344,-3472,-1695,-558,-157,-240,-89,265,161,-291
2,5261352,-3469,-1691,-553,-159,-246,-85,259,165,-283
2,5261364,-3469,-1691,-553,-159,-246,-85,259,165,-283
2,5261379,-3467,-1694,-550,-158,-236,-93,259,165,-283
2,5261390,-3469,-1692,-552,-160,-233,-86,259,165,-283
2,5261404,-3469,-1692,-552,-160,-233,-86,259,165,-283
2,5261417,-3471,-1693,-559,-161,-237,-87,259,165,-283
2,5261430,-3469,-1692,-558,-158,-244,-83,259,165,-283
2,5261443,-3469,-1692,-558,-158,-244,-83,259,165,-283
2,5261451,-3471,-1693,-559,-160,-244,-80,259,165,-283
2,5261459,-3471,-1693,-559,-160,-244,-80,259,165,-283
2,5261467,-3471,-1693,-559,-160,-244,-80,259,165,-283
2,5261474,-3472,-1693,-556,-163,-250,-86,266,164,-292
2,5261486,-3472,-1693,-556,-163,-250,-86,266,164,-292
2,5261498,-3471,-1692,-556,-161,-246,-83,266,164,-292
2,5261506,-3471,-1692,-556,-161,-246,-83,266,164,-292
2,5261513,-3470,-1693,-556,-166,-237,-85,266,164,-292
2,5261521,-3470,-1693,-556,-166,-237,-85,266,164,-292
2,5261531,-3472,-1695,-551,-163,-235,-81,266,164,-292
2,5261544,-3472,-1695,-551,-163,-235,-81,266,164,-292
2,5261555,-3470,-1693,-553,-155,-241,-83,266,164,-292
2,5261566,-3470,-1693,-553,-155,-241,-83,266,164,-292
2,5261579,-3469,-1692,-554,-159,-242,-89,266,164,-292
2,5261592,-3468,-1692,-554,-169,-242,-79,260,158,-288
2,5261602,-3468,-1692,-554,-169,-242,-79,260,158,-288
2,5261615,-3472,-1694,-553,-162,-241,-83,260,158,-288
2,5261629,-3469,-1695,-552,-156,-241,-78,260,158,-288
2,5261641,-3469,-1695,-552,-156,-241,-78,260,158,-288
2,5261652,-3471,-1693,-551,-157,-239,-76,260,158,-288
2,5261665,-3471,-1693,-551,-157,-239,-76,260,158,-288
2,5261679,-3469,-1693,-553,-160,-243,-83,260,158,-288
2,5261692,-3469,-1693,-549,-159,-240,-88,260,158,-288
2,5261703,-3469,-1693,-549,-159,-240,-88,260,158,-288
2,5261716,-3472,-1692,-550,-162,-239,-89,270,164,-286
2,5261729,-3472,-1691,-552,-156,-243,-80,270,164,-286
2,5261743,-3472,-1691,-552,-156,-243,-80,270,164,-286
2,5261753,-3473,-1691,-552,-158,-236,-81,270,164,-286
2,5261763,-3473,-1691,-552,-158,-236,-81,270,164,-286
2,5261773,-3468,-1693,-549,-156,-243,-81,270,164,-286
2,5261784,-3468,-1693,-549,-156,-243,-81,270,164,-286
2,5261797,-3470,-1692,-550,-154,-243,-86,270,164,-286
2,5261807,-3470,-1692,-550,-154,-243,-86,270,164,-286
2,5261818,-3472,-1695,-551,-155,-245,-89,270,164,-286
2,5261831,-3470,-1697,-555,-160,-244,-87,270,164,-286
2,5261843,-3470,-1697,-555,-160,-244,-87,270,164,-286
2,5261856,-3471,-1692,-549,-160,-242,-90,258,158,-286
2,5261869,-3472,-1694,-549,-163,-235,-84,258,158,-286
2,5261880,-3472,-1694,-549,-163,-235,-84,258,158,-286
2,5261893,-3470,-1691,-552,-161,-245,-86,258,158,-286
2,5261906,-3470,-1691,-552,-161,-245,-86,258,158,-286
2,5261919,-3471,-1691,-553,-165,-250,-88,258,158,-286
2,5261931,-3471,-1694,-549,-161,-241,-81,258,158,-286
2,5261945,-3471,-1694,-549,-161,-241,-81,258,158,-286
2,5261959,-3471,-1693,-551,-164,-241,-89,258,158,-286
2,5261970,-3472,-1692,-548,-154,-235,-84,264,164,-294
2,5261983,-3472,-1692,-548,-154,-235,-84,264,164,-294
2,5261991,-3474,-1692,-555,-153,-242,-79,264,164,-294
2,5261999,-3474,-1692,-555,-153,-242,-79,264,164,-294
2,5262005,-3474,-1692,-555,-153,-242,-79,264,164,-294
2,5262012,-3471,-1692,-554,-155,-245,-78,264,164,-294
2,5262018,-3471,-1692,-554,-155,-245,-78,264,164,-294
2,5262025,-3471,-1692,-554,-155,-245,-78,264,164,-294
2,5262031,-3469,-1696,-554,-166,-242,-85,264,164,-294
2,5262040,-3469,-1696,-554,-166,-242,-85,264,164,-294
2,5262047,-3469,-1696,-554,-166,-242,-85,264,164,-294
2,5262053,-3472,-1694,-553,-161,-236,-87,264,164,-294
2,5262060,-3472,-1694,-553,-161,-236,-87,264,164,-294
2,5262067,-3472,-1694,-553,-161,-236,-87,264,164,-294
2,5262074,-3471,-1696,-548,-168,-238,-76,264,164,-294
2,5262080,-3471,-1696,-548,-168,-238,-76,264,164,-294
2,5262086,-3471,-1696,-548,-168,-238,-76,264,164,-294
2,5262091,-3469,-1695,-551,-158,-239,-82,261,161,-289
2,5262098,-3469,-1695,-551,-158,-239,-82,261,161,-289
2,5262103,-3469,-1695,-551,-158,-239,-82,261,161,-289
2,5262110,-3469,-1695,-552,-155,-239,-77,261,161,-289
2,5262117,-3469,-1695,-552,-155,-239,-77,261,161,-289
2,5262124,-3469,-1695,-552,-155,-239,-77,261,161,-289
2,5262130,-3467,-1694,-548,-154,-242,-79,261,161,-289
2,5262139,-3467,-1694,-548,-154,-242,-79,261,161,-289
2,5262146,-3467,-1694,-548,-154,-242,-79,261,161,-289
2,5262152,-3469,-1694,-547,-158,-246,-86,261,161,-289
2,5262159,-3469,-1694,-547,-158,-246,-86,261,161,-289
2,5262167,-3469,-1694,-547,-158,-246,-86,261,161,-289
2,5262174,-3470,-1695,-557,-163,-237,-81,261,161,-289
2,5262181,-3470,-1695,-557,-163,-237,-81,261,161,-289
2,5262189,-3470,-1695,-552,-161,-243,-81,261,161,-289
2,5262196,-3470,-1695,-552,-161,-243,-81,261,161,-289
2,5262202,-3470,-1695,-552,-161,-243,-81,261,161,-289
2,5262211,-3471,-1691,-555,-162,-239,-84,255,163,-287
2,5262219,-3471,-1691,-555,-162,-239,-84,255,163,-287
2,5262227,-3471,-1691,-555,-162,-239,-84,255,163,-287
2,5262234,-3471,-1695,-553,-159,-236,-84,255,163,-287
2,5262240,-3471,-1695,-553,-159,-236,-84,255,163,-287
2,5262247,-3471,-1695,-553,-159,-236,-84,255,163,-287
2,5262255,-3471,-1693,-554,-162,-247,-84,255,163,-287
2,5262262,-3471,-1693,-554,-162,-247,-84,255,163,-287
2,5262269,-3469,-1694,-556,-164,-242,-80,255,163,-287
2,5262277,-3469,-1694,-556,-164,-242,-80,255,163,-287
2,5262284,-3469,-1694,-556,-164,-242,-80,255,163,-287
2,5262291,-3468,-1695,-553,-168,-238,-73,255,163,-287
2,5262299,-3468,-1695,-553,-168,-238,-73,255,163,-287
2,5262306,-3468,-1695,-553,-168,-238,-73,255,163,-287
2,5262314,-3472,-1693,-555,-161,-244,-85,255,163,-287
2,5262321,-3472,-1693,-555,-161,-244,-85,255,163,-287
2,5262327,-3472,-1693,-555,-161,-244,-85,255,163,-287
2,5262334,-3473,-1694,-553,-167,-249,-85,257,159,-285
2,5262341,-3473,-1694,-553,-167,-249,-85,257,159,-285
2,5262348,-3473,-1694,-553,-167,-249,-85,257,159,-285
2,5262354,-3471,-1696,-551,-163,-241,-81,257,159,-285
2,5262362,-3471,-1696,-551,-163,-241,-81,257,159,-285
2,5262369,-3469,-1693,-551,-158,-245,-81,257,159,-285
2,5262376,-3469,-1693,-551,-158,-245,-81,257,159,-285
2,5262383,-3469,-1693,-551,-158,-245,-81,257,159,-285
2,5262390,-3472,-1693,-557,-160,-238,-85,257,159,-285
2,5262397,-3472,-1693,-557,-160,-238,-85,257,159,-285
2,5262404,-3472,-1693,-557,-160,-238,-85,257,159,-285
2,5262411,-3470,-1693,-555,-164,-240,-86,257,159,-285
2,5262419,-3470,-1693,-555,-164,-240,-86,257,159,-285
2,5262427,-3470,-1693,-555,-164,-240,-86,257,159,-285
2,5262434,-3470,-1693,-550,-162,-233,-88,257,159,-285
2,5262439,-3470,-1693,-550,-162,-233,-88,257,159,-285
2,5262446,-3470,-1693,-550,-162,-233,-88,257,159,-285
2,5262453,-3470,-1696,-554,-157,-239,-82,257,159,-285
2,5262461,-3470,-1696,-554,-157,-239,-82,257,159,-285
2,5262468,-3470,-1696,-554,-157,-239,-82,257,159,-285
2,5262474,-3471,-1695,-548,-167,-239,-85,266,156,-286
2,5262480,-3471,-1695,-548,-167,-239,-85,266,156,-286
2,5262487,-3471,-1695,-548,-167,-239,-85,266,156,-286
2,5262495,-3472,-1690,-553,-173,-236,-89,266,156,-286
2,5262501,-3472,-1690,-553,-173,-236,-89,266,156,-286
2,5262507,-3472,-1690,-553,-173,-236,-89,266,156,-286
2,5262512,-3469,-1690,-556,-163,-241,-93,266,156,-286
2,5262517,-3469,-1690,-556,-163,-241,-93,266,156,-286
2,5262522,-3469,-1690,-556,-163,-241,-93,266,156,-286
2,5262527,-3469,-1690,-556,-163,-241,-93,266,156,-286
2,5262534,-3470,-1692,-552,-161,-235,-90,266,156,-286
2,5262540,-3470,-1692,-552,-161,-235,-90,266,156,-286
2,5262547,-3470,-1692,-552,-161,-235,-90,266,156,-286
2,5262554,-3472,-1692,-553,-156,-238,-90,266,156,-286
2,5262560,-3472,-1692,-553,-156,-238,-90,266,156,-286
2,5262565,-3472,-1692,-553,-156,-238,-90,266,156,-286
2,5262570,-3471,-1693,-552,-159,-250,-91,266,156,-286
2,5262576,-3471,-1693,-552,-159,-250,-91,266,156,-286
2,5262584,-3471,-1693,-552,-159,-250,-91,266,156,-286
2,5262592,-3467,-1693,-551,-160,-241,-85,269,167,-293
2,5262599,-3467,-1693,-551,-160,-241,-85,269,167,-293
2,5262607,-3467,-1693,-551,-160,-241,-85,269,167,-293
2,5262613,-3470,-1694,-553,-162,-239,-84,269,167,-293
2,5262619,-3470,-1694,-553,-162,-239,-84,269,167,-293
2,5262624,-3470,-1694,-553,-162,-239,-84,269,167,-293
2,5262631,-3472,-1693,-553,-162,-230,-81,269,167,-293
2,5262640,-3472,-1693,-553,-162,-230,-81,269,167,-293
2,5262646,-3472,-1693,-553,-162,-230,-81,269,167,-293
2,5262652,-3469,-1692,-551,-166,-230,-83,269,167,-293
2,5262659,-3469,-1692,-551,-166,-230,-83,269,167,-293
2,5262668,-3469,-1692,-551,-166,-230,-83,269,167,-293
2,5262673,-3470,-1692,-550,-168,-235,-83,269,167,-293
2,5262680,-3470,-1692,-550,-168,-235,-83,269,167,-293
2,5262686,-3470,-1692,-550,-168,-235,-83,269,167,-293
2,5262691,-3470,-1694,-555,-169,-249,-88,269,167,-293
2,5262698,-3470,-1694,-555,-169,-249,-88,269,167,-293
2,5262704,-3470,-1694,-555,-169,-249,-88,269,167,-293
2,5262712,-3468,-1692,-549,-165,-245,-84,265,157,-293
2,5262718,-3468,-1692,-549,-165,-245,-84,265,157,-293
2,5262726,-3468,-1692,-549,-165,-245,-84,265,157,-293
2,5262733,-3470,-1693,-552,-166,-243,-90,265,157,-293
2,5262741,-3470,-1693,-552,-166,-243,-90,265,157,-293
2,5262748,-3471,-1692,-553,-166,-242,-89,265,157,-293
2,5262755,-3471,-1692,-553,-166,-242,-89,265,157,-293
2,5262763,-3471,-1692,-553,-166,-242,-89,265,157,-293
2,5262769,-3473,-1693,-552,-175,-244,-88,265,157,-293
2,5262776,-3473,-1693,-552,-175,-244,-88,265,157,-293
2,5262783,-3473,-1693,-552,-175,-244,-88,265,157,-293
2,5262789,-3470,-1690,-553,-170,-238,-93,265,157,-293
2,5262795,-3470,-1690,-553,-170,-238,-93,265,157,-293
2,5262802,-3470,-1690,-553,-170,-238,-93,265,157,-293
2,5262810,-3470,-1696,-554,-170,-245,-86,265,157,-293
2,5262815,-3470,-1696,-554,-170,-245,-86,265,157,-293
2,5262822,-3470,-1696,-554,-170,-245,-86,265,157,-293
2,5262829,-3470,-1692,-552,-168,-251,-86,257,157,-285
2,5262836,-3470,-1692,-552,-168,-251,-86,257,157,-285
2,5262842,-3470,-1692,-552,-168,-251,-86,257,157,-285
2,5262850,-3469,-1693,-547,-162,-247,-87,257,157,-285
2,5262857,-3469,-1693,-547,-162,-247,-87,257,157,-285
2,5262864,-3469,-1693,-547,-162,-247,-87,257,157,-285
2,5262871,-3470,-1692,-549,-164,-242,-89,257,157,-285
2,5262876,-3470,-1692,-549,-164,-242,-89,257,157,-285
2,5262883,-3470,-1692,-549,-164,-242,-89,257,157,-285
2,5262891,-3469,-1694,-555,-165,-250,-81,257,157,-285
2,5262898,-3469,-1694,-555,-165,-250,-81,257,157,-285
2,5262905,-3469,-1694,-555,-165,-250,-81,257,157,-285
2,5262911,-3468,-1694,-551,-163,-246,-83,257,157,-285
2,5262917,-3468,-1694,-551,-163,-246,-83,257,157,-285
2,5262923,-3468,-1694,-551,-163,-246,-83,257,157,-285
2,5262931,-3471,-1693,-550,-160,-241,-85,257,157,-285
2,5262940,-3471,-1693,-550,-160,-241,-85,257,157,-285
2,5262947,-3471,-1693,-550,-160,-241,-85,257,157,-285
2,5262955,-3470,-1695,-551,-167,-237,-90,256,162,-286
2,5262961,-3470,-1695,-551,-167,-237,-90,256,162,-286
2,5262968,-3469,-1692,-550,-166,-237,-88,256,162,-286
2,5262976,-3469,-1692,-550,-166,-237,-88,256,162,-286
2,5262983,-3469,-1692,-550,-166,-237,-88,256,162,-286
2,5262990,-3471,-1694,-558,-159,-241,-79,256,162,-286
2,5262999,-3471,-1694,-558,-159,-241,-79,256,162,-286
2,5263010,-3468,-1689,-557,-165,-243,-81,256,162,-286
2,5263020,-3468,-1689,-557,-165,-243,-81,256,162,-286
2,5263028,-3468,-1689,-557,-165,-243,-81,256,162,-286
2,5263036,-3468,-1694,-553,-161,-236,-91,256,162,-286
2,5263044,-3468,-1694,-553,-161,-236,-91,256,162,-286
2,5263052,-3473,-1693,-554,-165,-245,-84,256,162,-286
2,5263065,-3473,-1693,-554,-165,-245,-84,256,162,-286
2,5263077,-3473,-1692,-555,-160,-243,-82,256,162,-286
2,5263089,-3470,-1695,-551,-157,-244,-80,260,158,-290
2,5263105,-3470,-1695,-551,-157,-244,-80,260,158,-290
2,5263115,-3468,-1694,-551,-158,-238,-89,260,158,-290
2,5263126,-3468,-1694,-551,-158,-238,-89,260,158,-290
2,5263140,-3469,-1692,-552,-162,-240,-79,260,158,-290
2,5263154,-3471,-1692,-554,-161,-241,-85,260,158,-290
2,5263164,-3471,-1692,-554,-161,-241,-85,260,158,-290
2,5263174,-3471,-1693,-555,-160,-243,-86,260,158,-290
2,5263186,-3471,-1693,-555,-160,-243,-86,260,158,-290
2,5263199,-3471,-1693,-554,-155,-245,-86,260,158,-290
2,5263211,-3469,-1693,-551,-166,-241,-87,265,161,-289
2,5263225,-3469,-1693,-551,-166,-241,-87,265,161,-289
2,5263238,-3469,-1692,-550,-161,-237,-88,265,161,-289
2,5263251,-3469,-1692,-550,-161,-237,-88,265,161,-289
2,5263264,-3469,-1692,-550,-161,-237,-88,265,161,-289
2,5263277,-3470,-1693,-553,-163,-247,-86,265,161,-289
2,5263289,-3469,-1693,-552,-160,-242,-87,265,161,-289
2,5263303,-3469,-1693,-552,-160,-242,-87,265,161,-289
2,5263315,-3471,-1692,-553,-159,-238,-78,265,161,-289
2,5263328,-3471,-1692,-553,-159,-238,-78,265,161,-289
2,5263340,-3469,-1696,-546,-162,-242,-79,267,163,-285
2,5263353,-3470,-1694,-552,-157,-238,-83,267,163,-285
2,5263367,-3470,-1694,-552,-157,-238,-83,267,163,-285
2,5263378,-3469,-1692,-552,-157,-238,-87,267,163,-285
2,5263390,-3470,-1693,-552,-162,-235,-86,267,163,-285
2,5263401,-3470,-1693,-552,-162,-235,-86,267,163,-285
2,5263415,-3472,-1692,-553,-158,-237,-92,267,163,-285
2,5263427,-3472,-1692,-553,-158,-237,-92,267,163,-285
2,5263441,-3470,-1694,-555,-160,-243,-90,267,163,-285
2,5263454,-3470,-1690,-551,-162,-246,-85,253,165,-291
2,5263466,-3470,-1690,-551,-162,-246,-85,253,165,-291
2,5263479,-3470,-1691,-550,-162,-236,-83,253,165,-291
2,5263493,-3472,-1691,-554,-163,-237,-89,253,165,-291
2,5263502,-3472,-1691,-554,-163,-237,-89,253,165,-291
2,5263510,-3469,-1693,-551,-166,-247,-88,253,165,-291
2,5263518,-3469,-1693,-551,-166,-247,-88,253,165,-291
2,5263526,-3469,-1693,-551,-166,-247,-88,253,165,-291
2,5263540,-3472,-1695,-553,-157,-246,-88,253,165,-291
2,5263551,-3471,-1694,-557,-163,-245,-88,253,165,-291
2,5263561,-3471,-1694,-557,-163,-245,-88,253,165,-291
2,5263575,-3471,-1694,-553,-163,-239,-88,255,161,-287
2,5263588,-3471,-1694,-553,-163,-239,-88,255,161,-287
2,5263597,-3469,-1692,-554,-165,-240,-86,255,161,-287
2,5263606,-3469,-1692,-554,-165,-240,-86,255,161,-287
2,5263614,-3473,-1694,-554,-165,-232,-88,255,161,-287
2,5263624,-3473,-1694,-554,-165,-232,-88,255,161,-287
2,5263632,-3470,-1694,-552,-158,-240,-89,255,161,-287
2,5263640,-3470,-1694,-552,-158,-240,-89,255,161,-287
2,5263653,-3472,-1694,-551,-164,-237,-88,255,161,-287
2,5263664,-3472,-1694,-551,-164,-237,-88,255,161,-287
2,5263677,-3471,-1695,-556,-159,-237,-88,255,161,-287
2,5263692,-3470,-1694,-555,-162,-230,-90,255,161,-287
2,5263707,-3470,-1694,-555,-162,-230,-90,255,161,-287
2,5263716,-3471,-1693,-550,-173,-234,-90,262,160,-294
2,5263727,-3471,-1693,-550,-173,-234,-90,262,160,-294
2,5263742,-3473,-1691,-553,-170,-239,-80,262,160,-294
2,5263753,-3472,-1693,-546,-157,-233,-88,262,160,-294
2,5263764,-3472,-1693,-546,-157,-233,-88,262,160,-294
2,5263776,-3470,-1692,-550,-153,-227,-89,262,160,-294
2,5263790,-3469,-1693,-550,-162,-233,-87,262,160,-294
2,5263798,-3469,-1693,-550,-162,-233,-87,262,160,-294
2,5263811,-3469,-1693,-556,-156,-242,-87,262,160,-294
2,5263823,-3469,-1693,-556,-156,-242,-87,262,160,-294
2,5263833,-3470,-1693,-553,-156,-235,-86,263,163,-291
2,5263844,-3470,-1693,-553,-156,-235,-86,263,163,-291
2,5263857,-3472,-1693,-551,-162,-239,-83,263,163,-291
2,5263870,-3470,-1693,-550,-158,-240,-81,263,163,-291
2,5263881,-3470,-1693,-550,-158,-240,-81,263,163,-291
2,5263894,-3469,-1693,-553,-153,-233,-81,263,163,-291
2,5263906,-3469,-1693,-553,-153,-233,-81,263,163,-291
2,5263920,-3470,-1694,-555,-161,-241,-79,263,163,-291
2,5263931,-3469,-1693,-555,-158,-236,-90,263,163,-291
2,5263941,-3469,-1693,-555,-158,-236,-90,263,163,-291
2,5263954,-3472,-1694,-554,-161,-232,-89,260,158,-294
2,5263968,-3472,-1694,-554,-161,-232,-89,260,158,-294
2,5263981,-3470,-1695,-552,-161,-229,-92,260,158,-294
2,5263993,-3473,-1692,-551,-160,-236,-91,260,158,-294
2,5264005,-3473,-1692,-551,-160,-236,-91,260,158,-294
2,5264011,-3469,-1696,-550,-161,-236,-83,260,158,-294
2,5264016,-3469,-1696,-550,-161,-236,-83,260,158,-294
2,5264023,-3469,-1696,-550,-161,-236,-83,260,158,-294
2,5264029,-3469,-1696,-550,-161,-236,-83,260,158,-294
2,5264034,-3470,-1695,-555,-155,-237,-84,260,158,-294
2,5264041,-3470,-1695,-555,-155,-237,-84,260,158,-294
2,5264049,-3470,-1695,-555,-155,-237,-84,260,158,-294
2,5264056,-3472,-1694,-558,-160,-235,-86,260,158,-294
2,5264063,-3472,-1694,-558,-160,-235,-86,260,158,-294
2,5264070,-3471,-1690,-546,-163,-243,-77,258,164,-284
2,5264078,-3471,-1690,-546,-163,-243,-77,258,164,-284
2,5264087,-3471,-1690,-546,-163,-243,-77,258,164,-284
2,5264094,-3469,-1696,-552,-165,-240,-86,258,164,-284
2,5264100,-3469,-1696,-552,-165,-240,-86,258,164,-284
2,5264107,-3469,-1696,-552,-165,-240,-86,258,164,-284
2,5264113,-3468,-1693,-556,-161,-244,-86,258,164,-284
2,5264121,-3468,-1693,-556,-161,-244,-86,258,164,-284
2,5264129,-3468,-1693,-556,-161,-244,-86,258,164,-284
2,5264137,-3467,-1693,-554,-161,-235,-88,258,164,-284
2,5264144,-3467,-1693,-554,-161,-235,-88,258,164,-284
2,5264149,-3467,-1693,-554,-161,-235,-88,258,164,-284
2,5264155,-3471,-1694,-554,-163,-239,-83,258,164,-284
2,5264161,-3471,-1694,-554,-163,-239,-83,258,164,-284
2,5264168,-3471,-1694,-554,-163,-239,-83,258,164,-284
2,5264176,-3469,-1692,-557,-160,-243,-83,258,164,-284
2,5264181,-3469,-1692,-557,-160,-243,-83,258,164,-284
2,5264186,-3469,-1692,-557,-160,-243,-83,258,164,-284
2,5264192,-3471,-1693,-550,-165,-235,-86,263,161,-285
2,5264197,-3471,-1693,-550,-165,-235,-86,263,161,-285
2,5264203,-3471,-1693,-550,-165,-235,-86,263,161,-285
2,5264210,-3469,-1696,-548,-162,-234,-85,263,161,-285
2,5264218,-3469,-1696,-548,-162,-234,-85,263,161,-285
2,5264223,-3469,-1696,-548,-162,-234,-85,263,161,-285
2,5264230,-3471,-1694,-555,-163,-228,-83,263,161,-285
2,5264238,-3471,-1694,-555,-163,-228,-83,263,161,-285
2,5264245,-3471,-1694,-555,-163,-228,-83,263,161,-285
2,5264252,-3470,-1692,-558,-163,-231,-87,263,161,-285
2,5264260,-3470,-1692,-558,-163,-231,-87,263,161,-285
2,5264267,-3470,-1692,-558,-163,-231,-87,263,161,-285
2,5264274,-3472,-1696,-552,-158,-227,-90,263,161,-285
2,5264280,-3472,-1696,-552,-158,-227,-90,263,161,-285
2,5264288,-3472,-1696,-552,-158,-227,-90,263,161,-285
2,5264295,-3469,-1695,-550,-156,-239,-91,263,161,-285
2,5264302,-3469,-1695,-550,-156,-239,-91,263,161,-285
2,5264309,-3469,-1695,-550,-156,-239,-91,263,161,-285
2,5264315,-3473,-1694,-552,-162,-240,-86,263,161,-285
2,5264322,-3473,-1694,-552,-162,-240,-86,263,161,-285
2,5264329,-3473,-1694,-552,-162,-240,-86,263,161,-285
2,5264335,-3469,-1694,-553,-161,-239,-88,268,160,-282
2,5264344,-3469,-1694,-553,-161,-239,-88,268,160,-282
2,5264351,-3474,-1695,-550,-159,-236,-87,268,160,-282
2,5264357,-3474,-1695,-550,-159,-236,-87,268,160,-282
2,5264365,-3474,-1695,-550,-159,-236,-87,268,160,-282
2,5264371,-3470,-1695,-555,-160,-248,-87,268,160,-282
2,5264378,-3470,-1695,-555,-160,-248,-87,268,160,-282
2,5264385,-3470,-1695,-555,-160,-248,-87,268,160,-282
2,5264393,-3472,-1693,-556,-169,-249,-74,268,160,-282
2,5264399,-3472,-1693,-556,-169,-249,-74,268,160,-282
2,5264406,-3472,-1693,-556,-169,-249,-74,268,160,-282
2,5264413,-3470,-1693,-554,-171,-241,-82,268,160,-282
2,5264418,-3470,-1693,-554,-171,-241,-82,268,160,-282
2,5264427,-3470,-1693,-554,-171,-241,-82,268,160,-282
2,5264434,-3470,-1693,-554,-165,-236,-76,268,160,-282
2,5264440,-3470,-1693,-554,-165,-236,-76,268,160,-282
2,5264447,-3470,-1693,-554,-165,-236,-76,268,160,-282
2,5264454,-3471,-1693,-553,-161,-231,-85,262,170,-280
2,5264460,-3471,-1693,-553,-161,-231,-85,262,170,-280
2,5264468,-3471,-1693,-553,-161,-231,-85,262,170,-280
2,5264475,-3472,-1692,-554,-159,-237,-82,262,170,-280
2,5264482,-3472,-1692,-554,-159,-237,-82,262,170,-280
2,5264488,-3472,-1692,-554,-159,-237,-82,262,170,-280
2,5264495,-3469,-1691,-550,-166,-234,-86,262,170,-280
2,5264501,-3469,-1691,-550,-166,-234,-86,262,170,-280
2,5264506,-3469,-1691,-550,-166,-234,-86,262,170,-280
2,5264512,-3472,-1695,-551,-163,-236,-82,262,170,-280
2,5264517,-3472,-1695,-551,-163,-236,-82,262,170,-280
2,5264522,-3472,-1695,-551,-163,-236,-82,262,170,-280
2,5264527,-3472,-1695,-551,-163,-236,-82,262,170,-280
2,5264533,-3470,-1696,-553,-158,-241,-74,262,170,-280
2,5264538,-3470,-1696,-553,-158,-241,-74,262,170,-280
2,5264544,-3470,-1696,-553,-158,-241,-74,262,170,-280
2,5264550,-3470,-1696,-553,-158,-241,-74,262,170,-280
2,5264557,-3470,-1696,-553,-158,-241,-74,262,170,-280
2,5264562,-3470,-1696,-553,-158,-241,-74,262,170,-280
2,5264567,-3470,-1696,-553,-158,-241,-74,262,170,-280
2,5264573,-3470,-1689,-555,-161,-234,-86,265,157,-291
2,5264579,-3470,-1689,-555,-161,-234,-86,265,157,-291
2,5264585,-3470,-1689,-555,-161,-234,-86,265,157,-291
2,5264591,-3468,-1692,-548,-159,-239,-82,265,157,-291
2,5264596,-3468,-1692,-548,-159,-239,-82,265,157,-291
2,5264602,-3468,-1692,-548,-159,-239,-82,265,157,-291
2,5264608,-3468,-1692,-548,-159,-239,-82,265,157,-291
2,5264614,-3467,-1692,-550,-158,-238,-96,265,157,-291
2,5264620,-3467,-1692,-550,-158,-238,-96,265,157,-291
2,5264626,-3467,-1692,-550,-158,-238,-96,265,157,-291
2,5264631,-3470,-1696,-551,-161,-239,-84,265,157,-291
2,5264637,-3470,-1696,-551,-161,-239,-84,265,157,-291
2,5264644,-3470,-1696,-551,-161,-239,-84,265,157,-291
2,5264649,-3470,-1696,-551,-161,-239,-84,265,157,-291
2,5264655,-3467,-1691,-556,-165,-249,-90,265,157,-291
2,5264661,-3467,-1691,-556,-165,-249,-90,265,157,-291
2,5264666,-3467,-1691,-556,-165,-249,-90,265,157,-291
2,5264673,-3473,-1692,-550,-161,-234,-78,265,157,-291
2,5264679,-3473,-1692,-550,-161,-234,-78,265,157,-291
2,5264686,-3473,-1692,-550,-161,-234,-78,265,157,-291
2,5264694,-3469,-1694,-545,-162,-237,-78,262,164,-286
2,5264702,-3469,-1694,-545,-162,-237,-78,262,164,-286
2,5264708,-3469,-1694,-545,-162,-237,-78,262,164,-286
2,5264715,-3469,-1691,-552,-164,-241,-82,262,164,-286
2,5264721,-3469,-1691,-552,-164,-241,-82,262,164,-286
2,5264727,-3469,-1691,-552,-164,-241,-82,262,164,-286
2,5264732,-3471,-1691,-550,-155,-240,-86,262,164,-286
2,5264739,-3471,-1691,-550,-155,-240,-86,262,164,-286
2,5264745,-3471,-1691,-550,-155,-240,-86,262,164,-286
2,5264750,-3467,-1693,-554,-156,-230,-89,262,164,-286
2,5264758,-3467,-1693,-554,-156,-230,-89,262,164,-286
2,5264765,-3467,-1693,-554,-156,-230,-89,262,164,-286
2,5264774,-3469,-1689,-553,-160,-236,-86,262,164,-286
2,5264780,-3469,-1689,-553,-160,-236,-86,262,164,-286
2,5264787,-3469,-1689,-553,-160,-236,-86,262,164,-286
2,5264793,-3468,-1693,-557,-160,-232,-83,262,164,-286
2,5264797,-3468,-1693,-557,-160,-232,-83,262,164,-286
2,5264804,-3468,-1693,-557,-160,-232,-83,262,164,-286
2,5264811,-3469,-1693,-554,-164,-236,-82,257,161,-289
2,5264817,-3469,-1693,-554,-164,-236,-82,257,161,-289
2,5264825,-3469,-1693,-554,-164,-236,-82,257,161,-289
2,5264833,-3469,-1695,-551,-161,-245,-79,257,161,-289
2,5264841,-3469,-1695,-551,-161,-245,-79,257,161,-289
2,5264848,-3469,-1695,-551,-161,-245,-79,257,161,-289
2,5264856,-3469,-1695,-553,-163,-240,-84,257,161,-289
2,5264863,-3469,-1695,-553,-163,-240,-84,257,161,-289
2,5264870,-3469,-1695,-553,-163,-240,-84,257,161,-289
2,5264877,-3469,-1694,-555,-164,-237,-87,257,161,-289
2,5264883,-3469,-1694,-555,-164,-237,-87,257,161,-289
2,5264891,-3471,-1695,-551,-158,-239,-78,257,161,-289
2,5264898,-3471,-1695,-551,-158,-239,-78,257,161,-289
2,5264905,-3471,-1695,-551,-158,-239,-78,257,161,-289
2,5264912,-3467,-1695,-554,-157,-238,-89,257,161,-289
2,5264920,-3467,-1695,-554,-157,-238,-89,257,161,-289
2,5264926,-3467,-1695,-554,-157,-238,-89,257,161,-289
2,5264933,-3469,-1691,-551,-158,-239,-90,257,161,-289
2,5264940,-3469,-1691,-551,-158,-239,-90,257,161,-289
2,5264947,-3469,-1691,-551,-158,-239,-90,257,161,-289
2,5264954,-3470,-1691,-552,-157,-239,-80,256,164,-290
2,5264961,-3470,-1691,-552,-157,-239,-80,256,164,-290
2,5264969,-3470,-1691,-552,-157,-239,-80,256,164,-290
2,5264976,-3471,-1692,-553,-151,-241,-82,256,164,-290
2,5264984,-3471,-1692,-553,-151,-241,-82,256,164,-290
2,5264991,-3473,-1691,-551,-156,-241,-82,256,164,-290
2,5264998,-3473,-1691,-551,-156,-241,-82,256,164,-290
2,5265005,-3473,-1691,-551,-156,-241,-82,256,164,-290
2,5265018,-3467,-1693,-548,-159,-242,-81,256,164,-290
2,5265032,-3472,-1697,-551,-159,-238,-83,256,164,-290
2,5265043,-3472,-1697,-551,-159,-238,-83,256,164,-290
2,5265054,-3471,-1690,-552,-156,-241,-85,256,164,-290
