imu,time,ax,ay,az,gx,gy,gz,mx,my,mz
0,6896043,117,-1906,200,-3831,-2788,-1676,224,36,-302
0,6896047,117,-1906,200,-3831,-2788,-1676,224,36,-302
0,6896052,117,-1906,200,-3831,-2788,-1676,224,36,-302
0,6896057,117,-1906,200,-3831,-2788,-1676,224,36,-302
0,6896062,131,-1897,185,-3798,-2804,-1733,224,36,-302
0,6896068,131,-1897,185,-3798,-2804,-1733,224,36,-302
0,6896073,131,-1897,185,-3798,-2804,-1733,224,36,-302
0,6896078,131,-1897,185,-3798,-2804,-1733,224,36,-302
0,6896083,121,-1904,146,-3720,-2821,-1772,224,36,-302
0,6896089,121,-1904,146,-3720,-2821,-1772,224,36,-302
0,6896094,121,-1904,146,-3720,-2821,-1772,224,36,-302
0,6896099,121,-1904,146,-3720,-2821,-1772,224,36,-302
0,6896104,135,-1899,91,-3587,-2831,-1799,224,36,-302
0,6896109,135,-1899,91,-3587,-2831,-1799,224,36,-302
0,6896115,135,-1899,91,-3587,-2831,-1799,224,36,-302
0,6896120,135,-1899,91,-3587,-2831,-1799,224,36,-302
0,6896126,140,-1921,96,-3439,-2838,-1829,236,30,-312
0,6896135,140,-1921,96,-3439,-2838,-1829,236,30,-312
0,6896141,140,-1921,96,-3439,-2838,-1829,236,30,-312
0,6896148,142,-1939,47,-3333,-2851,-1856,236,30,-312
0,6896155,142,-1939,47,-3333,-2851,-1856,236,30,-312
0,6896162,141,-1928,-8,-3268,-2865,-1870,236,30,-312
0,6896169,141,-1928,-8,-3268,-2865,-1870,236,30,-312
0,6896177,141,-1928,-8,-3268,-2865,-1870,236,30,-312
0,6896185,135,-1915,-37,-3187,-2878,-1888,236,30,-312
0,6896192,135,-1915,-37,-3187,-2878,-1888,236,30,-312
0,6896198,135,-1915,-37,-3187,-2878,-1888,236,30,-312
0,6896204,145,-1923,-85,-3043,-2888,-1893,236,30,-312
0,6896210,145,-1923,-85,-3043,-2888,-1893,236,30,-312
0,6896219,145,-1923,-85,-3043,-2888,-1893,236,30,-312
0,6896227,169,-1950,-125,-2888,-2889,-1886,236,30,-312
0,6896236,169,-1950,-125,-2888,-2889,-1886,236,30,-312
0,6896243,207,-1983,-144,-2775,-2898,-1836,247,27,-329
0,6896250,207,-1983,-144,-2775,-2898,-1836,247,27,-329
0,6896258,207,-1983,-144,-2775,-2898,-1836,247,27,-329
0,6896263,197,-1979,-167,-2726,-2923,-1749,247,27,-329
0,6896268,197,-1979,-167,-2726,-2923,-1749,247,27,-329
0,6896276,197,-1979,-167,-2726,-2923,-1749,247,27,-329
0,6896284,155,-1929,-208,-2674,-2952,-1670,247,27,-329
0,6896293,155,-1929,-208,-2674,-2952,-1670,247,27,-329
0,6896301,155,-1929,-208,-2674,-2952,-1670,247,27,-329
0,6896308,148,-1909,-289,-2525,-2963,-1643,247,27,-329
0,6896315,148,-1909,-289,-2525,-2963,-1643,247,27,-329
0,6896320,148,-1909,-289,-2525,-2963,-1643,247,27,-329
0,6896327,184,-1960,-274,-2321,-2958,-1632,247,27,-329
0,6896335,184,-1960,-274,-2321,-2958,-1632,247,27,-329
0,6896343,186,-1988,-275,-2243,-2983,-1601,247,27,-329
0,6896349,186,-1988,-275,-2243,-2983,-1601,247,27,-329
0,6896356,186,-1988,-275,-2243,-2983,-1601,247,27,-329
0,6896363,179,-1970,-293,-2211,-3007,-1529,247,27,-329
0,6896368,179,-1970,-293,-2211,-3007,-1529,247,27,-329
0,6896374,179,-1970,-293,-2211,-3007,-1529,247,27,-329
0,6896381,179,-1970,-293,-2211,-3007,-1529,247,27,-329
0,6896388,169,-1945,-377,-2170,-3027,-1471,256,12,-336
0,6896395,169,-1945,-377,-2170,-3027,-1471,256,12,-336
0,6896400,169,-1945,-377,-2170,-3027,-1471,256,12,-336
0,6896406,145,-1931,-372,-2083,-3040,-1452,256,12,-336
0,6896411,145,-1931,-372,-2083,-3040,-1452,256,12,-336
0,6896416,145,-1931,-372,-2083,-3040,-1452,256,12,-336
0,6896421,145,-1931,-372,-2083,-3040,-1452,256,12,-336
0,6896427,147,-1936,-386,-1937,-3045,-1454,256,12,-336
0,6896432,147,-1936,-386,-1937,-3045,-1454,256,12,-336
0,6896437,147,-1936,-386,-1937,-3045,-1454,256,12,-336
0,6896442,154,-1945,-415,-1839,-3047,-1456,256,12,-336
0,6896449,154,-1945,-415,-1839,-3047,-1456,256,12,-336
0,6896455,154,-1945,-415,-1839,-3047,-1456,256,12,-336
0,6896462,160,-1950,-421,-1781,-3069,-1441,256,12,-336
0,6896470,160,-1950,-421,-1781,-3069,-1441,256,12,-336
0,6896478,160,-1950,-421,-1781,-3069,-1441,256,12,-336
0,6896484,155,-1956,-455,-1726,-3087,-1424,256,12,-336
0,6896490,155,-1956,-455,-1726,-3087,-1424,256,12,-336
0,6896496,155,-1956,-455,-1726,-3087,-1424,256,12,-336
0,6896504,162,-1945,-497,-1644,-3087,-1390,265,11,-333
0,6896510,162,-1945,-497,-1644,-3087,-1390,265,11,-333
0,6896517,162,-1945,-497,-1644,-3087,-1390,265,11,-333
0,6896524,153,-1931,-462,-1541,-3111,-1357,265,11,-333
0,6896532,153,-1931,-462,-1541,-3111,-1357,265,11,-333
0,6896539,153,-1931,-462,-1541,-3111,-1357,265,11,-333
0,6896545,141,-1934,-511,-1444,-3116,-1343,265,11,-333
0,6896552,141,-1934,-511,-1444,-3116,-1343,265,11,-333
0,6896561,141,-1934,-511,-1444,-3116,-1343,265,11,-333
0,6896566,141,-1934,-511,-1444,-3116,-1343,265,11,-333
0,6896574,141,-1934,-511,-1444,-3116,-1343,265,11,-333
0,6896580,141,-1934,-511,-1444,-3116,-1343,265,11,-333
0,6896587,139,-1938,-510,-1314,-3135,-1340,265,11,-333
0,6896593,139,-1938,-510,-1314,-3135,-1340,265,11,-333
0,6896602,139,-1938,-510,-1314,-3135,-1340,265,11,-333
0,6896609,139,-1938,-543,-1216,-3146,-1347,265,11,-333
0,6896616,139,-1938,-543,-1216,-3146,-1347,265,11,-333
0,6896624,128,-1946,-499,-1110,-3145,-1350,265,11,-333
0,6896632,128,-1946,-499,-1110,-3145,-1350,265,11,-333
0,6896640,128,-1946,-499,-1110,-3145,-1350,265,11,-333
0,6896648,137,-1944,-488,-1048,-3159,-1361,285,21,-331
0,6896662,137,-1944,-488,-1048,-3159,-1361,285,21,-331
0,6896670,117,-1935,-492,-998,-3165,-1393,285,21,-331
0,6896681,117,-1935,-492,-998,-3165,-1393,285,21,-331
0,6896691,122,-1929,-499,-920,-3164,-1437,285,21,-331
0,6896700,122,-1929,-499,-920,-3164,-1437,285,21,-331
0,6896709,129,-1929,-494,-803,-3161,-1479,285,21,-331
0,6896722,126,-1950,-462,-713,-3158,-1516,285,21,-331
0,6896733,126,-1950,-462,-713,-3158,-1516,285,21,-331
0,6896744,141,-1955,-508,-650,-3176,-1552,285,21,-331
0,6896752,141,-1955,-508,-650,-3176,-1552,285,21,-331
0,6896760,141,-1955,-508,-650,-3176,-1552,285,21,-331
0,6896769,121,-1952,-510,-574,-3174,-1564,274,22,-350
0,6896780,121,-1952,-510,-574,-3174,-1564,274,22,-350
0,6896791,127,-1944,-486,-477,-3184,-1577,274,22,-350
0,6896803,127,-1944,-486,-477,-3184,-1577,274,22,-350
0,6896818,127,-1944,-486,-477,-3184,-1577,274,22,-350
0,6896831,134,-1961,-490,-308,-3200,-1619,274,22,-350
0,6896843,128,-1959,-492,-251,-3210,-1632,274,22,-350
0,6896856,128,-1959,-492,-251,-3210,-1632,274,22,-350
0,6896868,132,-1958,-516,-194,-3219,-1646,274,22,-350
0,6896882,132,-1958,-516,-194,-3219,-1646,274,22,-350
0,6896896,122,-1949,-490,-118,-3225,-1663,282,26,-352
0,6896906,118,-1952,-497,-48,-3222,-1707,282,26,-352
0,6896916,118,-1952,-497,-48,-3222,-1707,282,26,-352
0,6896928,131,-1954,-524,23,-3223,-1745,282,26,-352
0,6896943,131,-1954,-524,23,-3223,-1745,282,26,-352
0,6896951,143,-1958,-523,117,-3235,-1762,282,26,-352
0,6896964,146,-1961,-537,206,-3246,-1763,282,26,-352
0,6896976,146,-1961,-537,206,-3246,-1763,282,26,-352
0,6896988,151,-1957,-535,298,-3265,-1755,282,26,-352
0,6897000,151,-1957,-535,298,-3265,-1755,282,26,-352
0,6897012,148,-1956,-544,405,-3271,-1746,282,26,-352
0,6897027,155,-1961,-536,511,-3277,-1736,282,12,-356
0,6897038,155,-1961,-536,511,-3277,-1736,282,12,-356
0,6897046,157,-1959,-536,600,-3292,-1729,282,12,-356
0,6897056,157,-1959,-536,600,-3292,-1729,282,12,-356
0,6897065,165,-1956,-535,692,-3306,-1719,282,12,-356
0,6897081,165,-1956,-535,692,-3306,-1719,282,12,-356
0,6897088,168,-1964,-524,789,-3320,-1718,282,12,-356
0,6897097,168,-1964,-524,789,-3320,-1718,282,12,-356
0,6897107,170,-1967,-525,883,-3330,-1684,282,12,-356
0,6897117,170,-1967,-525,883,-3330,-1684,282,12,-356
0,6897129,168,-1966,-520,967,-3344,-1648,282,12,-356
0,6897142,168,-1974,-502,1016,-3359,-1618,282,12,-356
0,6897152,168,-1974,-502,1016,-3359,-1618,291,25,-349
0,6897163,158,-1976,-490,1061,-3371,-1596,291,25,-349
0,6897174,158,-1976,-490,1061,-3371,-1596,291,25,-349
0,6897186,157,-1977,-504,1101,-3385,-1576,291,25,-349
0,6897200,157,-1977,-504,1101,-3385,-1576,291,25,-349
0,6897214,170,-1985,-490,1149,-3406,-1553,291,25,-349
0,6897225,188,-1994,-465,1177,-3418,-1512,291,25,-349
0,6897240,188,-1994,-465,1177,-3418,-1512,291,25,-349
0,6897253,190,-1997,-423,1179,-3440,-1466,291,25,-349
0,6897265,168,-1989,-428,1173,-3458,-1414,291,25,-349
0,6897277,168,-1989,-428,1173,-3458,-1414,291,25,-349
0,6897290,169,-1995,-429,1161,-3473,-1397,294,16,-348
0,6897303,169,-1995,-429,1161,-3473,-1397,294,16,-348
0,6897315,160,-1992,-435,1148,-3483,-1377,294,16,-348
0,6897328,158,-1993,-420,1143,-3493,-1372,294,16,-348
0,6897337,158,-1993,-420,1143,-3493,-1372,294,16,-348
0,6897345,162,-1999,-419,1134,-3506,-1356,294,16,-348
0,6897353,162,-1999,-419,1134,-3506,-1356,294,16,-348
0,6897361,162,-1999,-419,1134,-3506,-1356,294,16,-348
0,6897371,175,-1998,-401,1108,-3520,-1335,294,16,-348
0,6897381,175,-1998,-401,1108,-3520,-1335,294,16,-348
0,6897389,208,-2077,-334,1044,-3522,-1319,294,16,-348
0,6897398,208,-2077,-334,1044,-3522,-1319,294,16,-348
0,6897406,178,-2032,-412,849,-3536,-1309,285,23,-349
0,6897415,178,-2032,-412,849,-3536,-1309,285,23,-349
0,6897423,178,-2032,-412,849,-3536,-1309,285,23,-349
0,6897430,173,-2002,-407,720,-3553,-1289,285,23,-349
0,6897439,173,-2002,-407,720,-3553,-1289,285,23,-349
0,6897447,159,-2006,-432,679,-3561,-1276,285,23,-349
0,6897455,159,-2006,-432,679,-3561,-1276,285,23,-349
0,6897463,159,-2006,-432,679,-3561,-1276,285,23,-349
0,6897471,154,-1997,-451,658,-3568,-1264,285,23,-349
0,6897479,154,-1997,-451,658,-3568,-1264,285,23,-349
0,6897488,148,-1987,-442,658,-3582,-1259,285,23,-349
0,6897499,148,-1987,-442,658,-3582,-1259,285,23,-349
0,6897508,160,-1999,-464,642,-3578,-1258,285,23,-349
0,6897518,160,-1999,-464,642,-3578,-1258,285,23,-349
0,6897526,156,-2006,-445,617,-3593,-1261,285,23,-349
0,6897537,156,-2006,-445,617,-3593,-1261,285,23,-349
0,6897546,162,-2002,-430,583,-3589,-1273,262,26,-340
0,6897556,162,-2002,-430,583,-3589,-1273,262,26,-340
0,6897564,163,-2007,-476,517,-3603,-1267,262,26,-340
0,6897573,163,-2007,-476,517,-3603,-1267,262,26,-340
0,6897586,167,-2002,-473,463,-3616,-1256,262,26,-340
0,6897599,167,-2002,-473,463,-3616,-1256,262,26,-340
0,6897610,169,-2008,-494,437,-3617,-1255,262,26,-340
0,6897619,169,-2008,-494,437,-3617,-1255,262,26,-340
0,6897625,166,-1986,-506,433,-3622,-1242,262,26,-340
0,6897630,166,-1986,-506,433,-3622,-1242,262,26,-340
0,6897635,166,-1986,-506,433,-3622,-1242,262,26,-340
0,6897640,166,-1986,-506,433,-3622,-1242,262,26,-340
0,6897645,159,-1982,-512,464,-3621,-1241,262,26,-340
0,6897651,159,-1982,-512,464,-3621,-1241,262,26,-340
0,6897659,159,-1982,-512,464,-3621,-1241,262,26,-340
0,6897667,167,-1995,-504,483,-3617,-1247,254,16,-344
0,6897674,167,-1995,-504,483,-3617,-1247,254,16,-344
0,6897681,167,-1995,-504,483,-3617,-1247,254,16,-344
0,6897688,174,-1996,-498,496,-3626,-1252,254,16,-344
0,6897695,174,-1996,-498,496,-3626,-1252,254,16,-344
0,6897702,174,-1996,-498,496,-3626,-1252,254,16,-344
0,6897709,175,-1999,-502,487,-3629,-1241,254,16,-344
0,6897716,175,-1999,-502,487,-3629,-1241,254,16,-344
0,6897723,175,-1999,-502,487,-3629,-1241,254,16,-344
0,6897730,182,-2003,-529,474,-3629,-1245,254,16,-344
0,6897736,182,-2003,-529,474,-3629,-1245,254,16,-344
0,6897743,179,-1985,-524,487,-3634,-1228,254,16,-344
0,6897752,179,-1985,-524,487,-3634,-1228,254,16,-344
0,6897760,179,-1985,-524,487,-3634,-1228,254,16,-344
0,6897767,189,-1980,-525,545,-3635,-1221,254,16,-344
0,6897772,189,-1980,-525,545,-3635,-1221,254,16,-344
0,6897777,189,-1980,-525,545,-3635,-1221,254,16,-344
0,6897784,198,-2000,-512,634,-3632,-1192,265,29,-339
0,6897789,198,-2000,-512,634,-3632,-1192,265,29,-339
0,6897795,198,-2000,-512,634,-3632,-1192,265,29,-339
0,6897802,198,-2000,-512,634,-3632,-1192,265,29,-339
0,6897809,185,-2002,-499,643,-3635,-1163,265,29,-339
0,6897817,185,-2002,-499,643,-3635,-1163,265,29,-339
0,6897823,190,-1996,-465,633,-3642,-1154,265,29,-339
0,6897830,190,-1996,-465,633,-3642,-1154,265,29,-339
0,6897837,190,-1996,-465,633,-3642,-1154,265,29,-339
0,6897845,196,-1998,-474,651,-3646,-1146,265,29,-339
0,6897852,196,-1998,-474,651,-3646,-1146,265,29,-339
0,6897857,196,-1998,-474,651,-3646,-1146,265,29,-339
0,6897862,196,-1998,-474,651,-3646,-1146,265,29,-339
0,6897868,196,-1999,-441,670,-3649,-1139,265,29,-339
0,6897878,196,-1999,-441,670,-3649,-1139,265,29,-339
0,6897885,202,-2010,-421,670,-3663,-1129,265,29,-339
0,6897893,202,-2010,-421,670,-3663,-1129,265,29,-339
0,6897900,202,-2010,-421,670,-3663,-1129,265,29,-339
0,6897906,196,-2017,-404,679,-3665,-1112,265,29,-339
0,6897913,196,-2017,-404,679,-3665,-1112,265,29,-339
0,6897921,196,-2017,-404,679,-3665,-1112,265,29,-339
0,6897928,195,-2016,-371,672,-3667,-1101,254,30,-338
0,6897935,195,-2016,-371,672,-3667,-1101,254,30,-338
0,6897940,195,-2016,-371,672,-3667,-1101,254,30,-338
0,6897947,198,-2016,-377,663,-3678,-1084,254,30,-338
0,6897953,198,-2016,-377,663,-3678,-1084,254,30,-338
0,6897963,198,-2016,-377,663,-3678,-1084,254,30,-338
0,6897971,192,-2008,-365,674,-3690,-1070,254,30,-338
0,6897979,192,-2008,-365,674,-3690,-1070,254,30,-338
0,6897985,202,-2012,-346,700,-3688,-1055,254,30,-338
0,6897991,202,-2012,-346,700,-3688,-1055,254,30,-338
0,6897999,202,-2012,-346,700,-3688,-1055,254,30,-338
0,6898003,208,-2026,-361,714,-3697,-1040,254,30,-338
0,6898012,208,-2026,-361,714,-3697,-1040,254,30,-338
0,6898019,208,-2026,-361,714,-3697,-1040,254,30,-338
0,6898026,205,-2025,-340,719,-3707,-1022,254,30,-338
0,6898033,205,-2025,-340,719,-3707,-1022,254,30,-338
0,6898041,205,-2025,-340,719,-3707,-1022,254,30,-338
0,6898048,201,-2023,-345,710,-3720,-1004,257,21,-333
0,6898055,201,-2023,-345,710,-3720,-1004,257,21,-333
0,6898062,201,-2023,-345,710,-3720,-1004,257,21,-333
0,6898070,193,-2025,-350,688,-3718,-980,257,21,-333
0,6898077,193,-2025,-350,688,-3718,-980,257,21,-333
0,6898084,192,-2024,-353,680,-3729,-960,257,21,-333
0,6898092,192,-2024,-353,680,-3729,-960,257,21,-333
0,6898098,192,-2024,-353,680,-3729,-960,257,21,-333
0,6898105,196,-2020,-375,680,-3741,-948,257,21,-333
0,6898112,196,-2020,-375,680,-3741,-948,257,21,-333
0,6898120,196,-2020,-375,680,-3741,-948,257,21,-333
0,6898127,183,-2025,-356,688,-3746,-934,257,21,-333
0,6898136,183,-2025,-356,688,-3746,-934,257,21,-333
0,6898142,183,-2025,-356,688,-3746,-934,257,21,-333
0,6898149,200,-2027,-353,684,-3749,-925,257,21,-333
0,6898155,200,-2027,-353,684,-3749,-925,257,21,-333
0,6898161,200,-2027,-353,684,-3749,-925,257,21,-333
0,6898169,188,-2028,-365,679,-3759,-910,257,21,-333
0,6898176,188,-2028,-365,679,-3759,-910,257,21,-333
0,6898184,188,-2028,-365,679,-3759,-910,257,21,-333
0,6898191,195,-2024,-380,674,-3768,-901,259,27,-343
0,6898197,195,-2024,-380,674,-3768,-901,259,27,-343
0,6898204,184,-2022,-401,680,-3763,-891,259,27,-343
0,6898212,184,-2022,-401,680,-3763,-891,259,27,-343
0,6898220,184,-2022,-401,680,-3763,-891,259,27,-343
0,6898227,185,-2025,-395,690,-3770,-885,259,27,-343
0,6898234,185,-2025,-395,690,-3770,-885,259,27,-343
0,6898241,185,-2025,-395,690,-3770,-885,259,27,-343
0,6898247,191,-2024,-430,699,-3781,-864,259,27,-343
0,6898253,191,-2024,-430,699,-3781,-864,259,27,-343
0,6898258,191,-2024,-430,699,-3781,-864,259,27,-343
0,6898266,191,-2020,-456,703,-3783,-855,259,27,-343
0,6898272,191,-2020,-456,703,-3783,-855,259,27,-343
0,6898280,191,-2020,-456,703,-3783,-855,259,27,-343
0,6898288,202,-2022,-468,715,-3783,-848,259,27,-343
0,6898294,202,-2022,-468,715,-3783,-848,259,27,-343
0,6898301,202,-2022,-468,715,-3783,-848,259,27,-343
0,6898309,192,-2024,-475,723,-3788,-839,268,22,-330
0,6898317,192,-2024,-475,723,-3788,-839,268,22,-330
0,6898322,192,-2024,-475,723,-3788,-839,268,22,-330
0,6898329,198,-2023,-495,732,-3786,-826,268,22,-330
0,6898338,198,-2023,-495,732,-3786,-826,268,22,-330
0,6898344,187,-2014,-504,746,-3787,-825,268,22,-330
0,6898353,187,-2014,-504,746,-3787,-825,268,22,-330
0,6898360,187,-2014,-504,746,-3787,-825,268,22,-330
0,6898365,194,-2011,-512,771,-3785,-812,268,22,-330
0,6898370,194,-2011,-512,771,-3785,-812,268,22,-330
0,6898375,194,-2011,-512,771,-3785,-812,268,22,-330
0,6898383,194,-2011,-512,771,-3785,-812,268,22,-330
0,6898392,197,-2013,-488,801,-3780,-802,268,22,-330
0,6898398,197,-2013,-488,801,-3780,-802,268,22,-330
0,6898403,197,-2013,-488,801,-3780,-802,268,22,-330
0,6898408,204,-2022,-511,809,-3780,-802,268,22,-330
0,6898414,204,-2022,-511,809,-3780,-802,268,22,-330
0,6898419,204,-2022,-511,809,-3780,-802,268,22,-330
0,6898424,216,-2026,-504,802,-3780,-794,268,22,-330
0,6898429,216,-2026,-504,802,-3780,-794,268,22,-330
0,6898436,216,-2026,-504,802,-3780,-794,268,22,-330
0,6898441,216,-2026,-504,802,-3780,-794,268,22,-330
0,6898449,201,-2020,-489,795,-3778,-794,260,38,-338
0,6898458,201,-2020,-489,795,-3778,-794,260,38,-338
0,6898464,214,-2020,-458,779,-3782,-778,260,38,-338
0,6898472,214,-2020,-458,779,-3782,-778,260,38,-338
0,6898481,214,-2020,-458,779,-3782,-778,260,38,-338
0,6898488,201,-2022,-499,770,-3790,-784,260,38,-338
0,6898493,201,-2022,-499,770,-3790,-784,260,38,-338
0,6898500,201,-2022,-499,770,-3790,-784,260,38,-338
0,6898507,210,-2018,-466,768,-3776,-779,260,38,-338
0,6898514,210,-2018,-466,768,-3776,-779,260,38,-338
0,6898522,210,-2018,-466,768,-3776,-779,260,38,-338
0,6898530,219,-2030,-489,746,-3785,-774,260,38,-338
0,6898537,219,-2030,-489,746,-3785,-774,260,38,-338
0,6898542,219,-2030,-489,746,-3785,-774,260,38,-338
0,6898549,226,-2025,-451,744,-3780,-768,260,38,-338
0,6898556,226,-2025,-451,744,-3780,-768,260,38,-338
0,6898564,226,-2025,-451,744,-3780,-768,260,38,-338
0,6898572,225,-2024,-479,728,-3775,-755,260,32,-334
0,6898581,225,-2024,-479,728,-3775,-755,260,32,-334
0,6898588,227,-2014,-456,748,-3771,-749,260,32,-334
0,6898594,227,-2014,-456,748,-3771,-749,260,32,-334
0,6898603,227,-2014,-456,748,-3771,-749,260,32,-334
0,6898610,222,-2027,-404,763,-3778,-731,260,32,-334
0,6898617,222,-2027,-404,763,-3778,-731,260,32,-334
0,6898622,222,-2027,-404,763,-3778,-731,260,32,-334
0,6898627,233,-2028,-318,753,-3781,-715,260,32,-334
0,6898634,233,-2028,-318,753,-3781,-715,260,32,-334
0,6898642,233,-2028,-318,753,-3781,-715,260,32,-334
0,6898655,214,-2033,-383,744,-3782,-699,260,32,-334
0,6898668,232,-2037,-384,727,-3778,-681,260,32,-334
0,6898677,232,-2037,-384,727,-3778,-681,260,32,-334
0,6898691,224,-2031,-393,710,-3787,-670,266,38,-334
0,6898704,224,-2031,-393,710,-3787,-670,266,38,-334
0,6898717,238,-2023,-338,706,-3790,-643,266,38,-334
0,6898726,229,-2033,-378,710,-3801,-614,266,38,-334
0,6898740,229,-2033,-378,710,-3801,-614,266,38,-334
0,6898753,224,-2022,-395,721,-3794,-594,266,38,-334
0,6898766,218,-2024,-439,730,-3792,-583,266,38,-334
0,6898777,218,-2024,-439,730,-3792,-583,266,38,-334
0,6898788,227,-2024,-389,728,-3801,-582,266,38,-334
0,6898798,227,-2024,-389,728,-3801,-582,266,38,-334
0,6898809,225,-2029,-392,742,-3796,-572,266,38,-334
0,6898824,225,-2029,-392,742,-3796,-572,266,38,-334
0,6898838,234,-2025,-408,759,-3802,-552,269,41,-323
0,6898851,230,-2038,-425,773,-3809,-520,269,41,-323
0,6898864,230,-2038,-425,773,-3809,-520,269,41,-323
0,6898877,242,-2029,-412,780,-3806,-502,269,41,-323
0,6898890,235,-2027,-385,772,-3801,-477,269,41,-323
0,6898903,235,-2027,-385,772,-3801,-477,269,41,-323
0,6898915,226,-2011,-427,783,-3808,-469,269,41,-323
0,6898927,220,-2027,-434,848,-3807,-456,269,41,-323
0,6898940,220,-2027,-434,848,-3807,-456,269,41,-323
0,6898953,238,-2034,-421,883,-3799,-434,268,38,-326
0,6898965,231,-2034,-386,873,-3811,-414,268,38,-326
0,6898979,231,-2034,-386,873,-3811,-414,268,38,-326
0,6898993,238,-2031,-392,863,-3803,-395,268,38,-326
0,6899005,238,-2031,-392,863,-3803,-395,268,38,-326
0,6899014,240,-2028,-399,854,-3802,-379,268,38,-326
0,6899022,240,-2028,-399,854,-3802,-379,268,38,-326
0,6899031,237,-2029,-448,838,-3803,-363,268,38,-326
0,6899040,237,-2029,-448,838,-3803,-363,268,38,-326
0,6899053,238,-2033,-403,827,-3806,-350,268,38,-326
0,6899062,238,-2033,-403,827,-3806,-350,268,38,-326
0,6899075,230,-2028,-392,808,-3811,-332,268,38,-326
0,6899089,230,-2031,-378,803,-3802,-317,266,42,-322
0,6899102,230,-2031,-378,803,-3802,-317,266,42,-322
0,6899112,231,-2027,-447,801,-3801,-308,266,42,-322
0,6899125,231,-2027,-447,801,-3801,-308,266,42,-322
0,6899141,225,-2016,-420,822,-3808,-306,266,42,-322
0,6899154,234,-2027,-413,836,-3796,-309,266,42,-322
0,6899163,234,-2027,-413,836,-3796,-309,266,42,-322
0,6899176,238,-2028,-398,816,-3800,-310,266,42,-322
0,6899190,240,-2032,-445,807,-3803,-291,266,42,-322
0,6899203,240,-2032,-445,807,-3803,-291,266,42,-322
0,6899213,239,-2039,-423,778,-3802,-282,272,42,-324
0,6899226,240,-2026,-413,764,-3800,-272,272,42,-324
0,6899238,240,-2026,-413,764,-3800,-272,272,42,-324
0,6899251,232,-2023,-411,758,-3797,-258,272,42,-324
0,6899262,232,-2023,-411,758,-3797,-258,272,42,-324
0,6899275,233,-2012,-425,777,-3795,-255,272,42,-324
0,6899288,233,-2026,-424,795,-3792,-258,272,42,-324
0,6899297,233,-2026,-424,795,-3792,-258,272,42,-324
0,6899309,249,-2029,-417,787,-3776,-260,272,42,-324
0,6899323,249,-2029,-417,787,-3776,-260,272,42,-324
0,6899332,240,-2031,-406,752,-3781,-263,275,53,-325
0,6899344,240,-2031,-406,752,-3781,-263,275,53,-325
0,6899358,255,-2020,-420,745,-3787,-258,275,53,-325
0,6899372,238,-2019,-475,759,-3781,-243,275,53,-325
0,6899381,238,-2019,-475,759,-3781,-243,275,53,-325
0,6899394,247,-2019,-457,782,-3783,-238,275,53,-325
0,6899402,247,-2019,-457,782,-3783,-238,275,53,-325
0,6899409,244,-2021,-446,789,-3780,-243,275,53,-325
0,6899418,244,-2021,-446,789,-3780,-243,275,53,-325
0,6899427,249,-2022,-441,785,-3766,-235,275,53,-325
0,6899435,249,-2022,-441,785,-3766,-235,275,53,-325
0,6899443,249,-2022,-441,785,-3766,-235,275,53,-325
0,6899450,260,-2018,-470,782,-3756,-227,275,53,-325
0,6899459,260,-2018,-470,782,-3756,-227,275,53,-325
0,6899467,264,-2016,-485,807,-3760,-223,273,51,-315
0,6899476,264,-2016,-485,807,-3760,-223,273,51,-315
0,6899487,256,-2024,-441,841,-3755,-208,273,51,-315
0,6899497,256,-2024,-441,841,-3755,-208,273,51,-315
0,6899511,261,-2017,-427,842,-3755,-196,273,51,-315
0,6899524,261,-2017,-427,842,-3755,-196,273,51,-315
0,6899537,254,-2020,-442,832,-3741,-189,273,51,-315
0,6899548,258,-2017,-451,822,-3738,-163,273,51,-315
0,6899558,258,-2017,-451,822,-3738,-163,273,51,-315
0,6899567,264,-2021,-418,810,-3739,-160,273,51,-315
0,6899574,264,-2021,-418,810,-3739,-160,273,51,-315
0,6899582,264,-2021,-418,810,-3739,-160,273,51,-315
0,6899592,272,-2014,-430,798,-3738,-136,279,57,-315
0,6899601,272,-2014,-430,798,-3738,-136,279,57,-315
0,6899612,283,-2033,-420,779,-3731,-117,279,57,-315
0,6899620,283,-2033,-420,779,-3731,-117,279,57,-315
0,6899629,298,-2024,-450,770,-3726,-78,279,57,-315
0,6899636,298,-2024,-450,770,-3726,-78,279,57,-315
0,6899641,298,-2024,-450,770,-3726,-78,279,57,-315
0,6899646,270,-2019,-425,762,-3718,-27,279,57,-315
0,6899652,270,-2019,-425,762,-3718,-27,279,57,-315
0,6899658,270,-2019,-425,762,-3718,-27,279,57,-315
0,6899665,270,-2019,-425,762,-3718,-27,279,57,-315
0,6899673,266,-2013,-421,752,-3717,0,279,57,-315
0,6899679,266,-2013,-421,752,-3717,0,279,57,-315
0,6899687,266,-2012,-431,747,-3714,8,279,57,-315
0,6899693,266,-2012,-431,747,-3714,8,279,57,-315
0,6899699,266,-2012,-431,747,-3714,8,279,57,-315
0,6899707,269,-2013,-433,736,-3708,17,279,57,-315
0,6899715,269,-2013,-433,736,-3708,17,279,57,-315
0,6899722,269,-2013,-433,736,-3708,17,279,57,-315
0,6899729,278,-2013,-425,722,-3702,30,280,60,-302
0,6899737,278,-2013,-425,722,-3702,30,280,60,-302
0,6899745,278,-2013,-425,722,-3702,30,280,60,-302
0,6899752,276,-2008,-419,730,-3693,48,280,60,-302
0,6899761,276,-2008,-419,730,-3693,48,280,60,-302
0,6899767,286,-2010,-427,735,-3687,62,280,60,-302
0,6899774,286,-2010,-427,735,-3687,62,280,60,-302
0,6899782,286,-2010,-427,735,-3687,62,280,60,-302
0,6899789,272,-2016,-418,716,-3685,74,280,60,-302
0,6899796,272,-2016,-418,716,-3685,74,280,60,-302
0,6899805,272,-2016,-418,716,-3685,74,280,60,-302
0,6899813,276,-2013,-416,702,-3683,88,280,60,-302
0,6899821,276,-2013,-416,702,-3683,88,280,60,-302
0,6899827,270,-2007,-420,675,-3679,108,280,60,-302
0,6899834,270,-2007,-420,675,-3679,108,280,60,-302
0,6899841,270,-2007,-420,675,-3679,108,280,60,-302
0,6899849,269,-2005,-410,676,-3672,121,280,64,-298
0,6899856,269,-2005,-410,676,-3672,121,280,64,-298
0,6899863,269,-2005,-410,676,-3672,121,280,64,-298
0,6899870,276,-2005,-410,693,-3665,129,280,64,-298
0,6899877,276,-2005,-410,693,-3665,129,280,64,-298
0,6899886,276,-2005,-410,693,-3665,129,280,64,-298
0,6899893,277,-2007,-399,690,-3664,146,280,64,-298
0,6899899,277,-2007,-399,690,-3664,146,280,64,-298
0,6899906,284,-2002,-407,688,-3666,170,280,64,-298
0,6899912,284,-2002,-407,688,-3666,170,280,64,-298
0,6899921,284,-2002,-407,688,-3666,170,280,64,-298
0,6899929,272,-2005,-385,703,-3651,172,280,64,-298
0,6899934,272,-2005,-385,703,-3651,172,280,64,-298
0,6899942,272,-2005,-385,703,-3651,172,280,64,-298
0,6899948,278,-1997,-374,706,-3652,185,280,64,-298
0,6899956,278,-1997,-374,706,-3652,185,280,64,-298
0,6899963,278,-1997,-374,706,-3652,185,280,64,-298
0,6899972,269,-2002,-377,700,-3646,190,280,64,-298
0,6899980,269,-2002,-377,700,-3646,190,280,64,-298
0,6899987,271,-1992,-389,714,-3643,194,288,70,-298
0,6899994,271,-1992,-389,714,-3643,194,288,70,-298
0,6900001,271,-1992,-389,714,-3643,194,288,70,-298
0,6900008,265,-1991,-382,733,-3642,193,288,70,-298
0,6900015,265,-1991,-382,733,-3642,193,288,70,-298
0,6900022,265,-1991,-382,733,-3642,193,288,70,-298
0,6900030,265,-1985,-351,773,-3631,181,288,70,-298
0,6900038,265,-1985,-351,773,-3631,181,288,70,-298
0,6900044,265,-1985,-351,773,-3631,181,288,70,-298
0,6900051,267,-1993,-348,777,-3631,173,288,70,-298
0,6900058,267,-1993,-348,777,-3631,173,288,70,-298
0,6900066,276,-2001,-377,763,-3630,179,288,70,-298
0,6900072,276,-2001,-377,763,-3630,179,288,70,-298
0,6900079,276,-2001,-377,763,-3630,179,288,70,-298
0,6900087,273,-2000,-359,752,-3623,184,288,70,-298
0,6900094,273,-2000,-359,752,-3623,184,288,70,-298
0,6900103,273,-2000,-359,752,-3623,184,288,70,-298
0,6900109,267,-1995,-360,731,-3631,185,298,70,-290
0,6900116,267,-1995,-360,731,-3631,185,298,70,-290
0,6900123,267,-1995,-360,731,-3631,185,298,70,-290
0,6900129,274,-2000,-386,723,-3620,195,298,70,-290
0,6900136,274,-2000,-386,723,-3620,195,298,70,-290
0,6900143,274,-2000,-386,723,-3620,195,298,70,-290
0,6900148,275,-2002,-401,711,-3615,204,298,70,-290
0,6900155,275,-2002,-401,711,-3615,204,298,70,-290
0,6900162,275,-2002,-401,711,-3615,204,298,70,-290
0,6900169,276,-1996,-404,695,-3609,216,298,70,-290
0,6900177,276,-1996,-404,695,-3609,216,298,70,-290
0,6900183,276,-1996,-404,695,-3609,216,298,70,-290
0,6900191,278,-1995,-415,681,-3609,228,298,70,-290
0,6900198,278,-1995,-415,681,-3609,228,298,70,-290
0,6900204,278,-1995,-415,681,-3609,228,298,70,-290
0,6900211,283,-1994,-421,689,-3598,233,298,70,-290
0,6900219,283,-1994,-421,689,-3598,233,298,70,-290
0,6900226,283,-1994,-421,689,-3598,233,298,70,-290
0,6900233,284,-2004,-420,692,-3584,243,290,76,-286
0,6900240,284,-2004,-420,692,-3584,243,290,76,-286
0,6900248,275,-1998,-421,685,-3578,259,290,76,-286
0,6900256,275,-1998,-421,685,-3578,259,290,76,-286
0,6900263,275,-1998,-421,685,-3578,259,290,76,-286
0,6900269,281,-1999,-400,661,-3564,275,290,76,-286
0,6900275,281,-1999,-400,661,-3564,275,290,76,-286
0,6900282,281,-1999,-400,661,-3564,275,290,76,-286
0,6900289,273,-2000,-398,621,-3560,282,290,76,-286
0,6900296,273,-2000,-398,621,-3560,282,290,76,-286
0,6900303,273,-2000,-398,621,-3560,282,290,76,-286
0,6900310,288,-1995,-420,580,-3556,286,290,76,-286
0,6900317,288,-1995,-420,580,-3556,286,290,76,-286
0,6900324,288,-1995,-420,580,-3556,286,290,76,-286
0,6900331,286,-1983,-426,583,-3552,301,290,76,-286
0,6900336,286,-1983,-426,583,-3552,301,290,76,-286
0,6900343,286,-1983,-426,583,-3552,301,290,76,-286
0,6900350,296,-1990,-401,607,-3546,307,290,76,-286
0,6900358,296,-1990,-401,607,-3546,307,290,76,-286
0,6900365,296,-1990,-401,607,-3546,307,290,76,-286
0,6900373,298,-1997,-386,582,-3542,321,291,63,-281
0,6900379,298,-1997,-386,582,-3542,321,291,63,-281
0,6900386,298,-1997,-386,582,-3542,321,291,63,-281
0,6900395,293,-1989,-385,557,-3536,324,291,63,-281
0,6900400,293,-1989,-385,557,-3536,324,291,63,-281
0,6900405,293,-1989,-385,557,-3536,324,291,63,-281
0,6900410,290,-1989,-395,540,-3528,331,291,63,-281
0,6900415,290,-1989,-395,540,-3528,331,291,63,-281
0,6900420,290,-1989,-395,540,-3528,331,291,63,-281
0,6900425,290,-1989,-395,540,-3528,331,291,63,-281
0,6900430,291,-1975,-375,546,-3508,345,291,63,-281
0,6900435,291,-1975,-375,546,-3508,345,291,63,-281
0,6900442,291,-1975,-375,546,-3508,345,291,63,-281
0,6900450,288,-1977,-371,572,-3504,352,291,63,-281
0,6900457,288,-1977,-371,572,-3504,352,291,63,-281
0,6900463,288,-1977,-371,572,-3504,352,291,63,-281
0,6900469,297,-1985,-375,582,-3500,373,291,63,-281
0,6900476,297,-1985,-375,582,-3500,373,291,63,-281
0,6900485,297,-1985,-375,582,-3500,373,291,63,-281
0,6900491,289,-1987,-379,575,-3495,378,300,82,-280
0,6900497,289,-1987,-379,575,-3495,378,300,82,-280
0,6900504,289,-1987,-379,575,-3495,378,300,82,-280
0,6900511,300,-1981,-371,569,-3497,385,300,82,-280
0,6900517,300,-1981,-371,569,-3497,385,300,82,-280
0,6900526,300,-1981,-371,569,-3497,385,300,82,-280
0,6900533,290,-1971,-370,590,-3485,404,300,82,-280
0,6900541,290,-1971,-370,590,-3485,404,300,82,-280
0,6900547,290,-1971,-370,590,-3485,404,300,82,-280
0,6900553,294,-1977,-378,619,-3477,414,300,82,-280
0,6900561,294,-1977,-378,619,-3477,414,300,82,-280
0,6900568,291,-1981,-392,622,-3464,418,300,82,-280
0,6900575,291,-1981,-392,622,-3464,418,300,82,-280
0,6900582,291,-1981,-392,622,-3464,418,300,82,-280
0,6900588,289,-1983,-362,614,-3453,442,300,82,-280
0,6900595,289,-1983,-362,614,-3453,442,300,82,-280
0,6900601,289,-1983,-362,614,-3453,442,300,82,-280
0,6900610,305,-1984,-375,602,-3450,461,300,82,-280
0,6900617,305,-1984,-375,602,-3450,461,300,82,-280
0,6900622,305,-1984,-375,602,-3450,461,300,82,-280
0,6900627,294,-1975,-366,595,-3445,480,296,88,-272
0,6900632,294,-1975,-366,595,-3445,480,296,88,-272
0,6900637,294,-1975,-366,595,-3445,480,296,88,-272
0,6900644,294,-1975,-366,595,-3445,480,296,88,-272
0,6900653,294,-1975,-366,595,-3445,480,296,88,-272
0,6900661,294,-1975,-366,595,-3445,480,296,88,-272
0,6900669,291,-1981,-363,560,-3426,505,296,88,-272
0,6900677,291,-1981,-363,560,-3426,505,296,88,-272
0,6900685,291,-1981,-363,560,-3426,505,296,88,-272
0,6900695,285,-1976,-362,544,-3416,518,296,88,-272
0,6900705,285,-1976,-362,544,-3416,518,296,88,-272
0,6900715,291,-1975,-364,535,-3416,525,296,88,-272
0,6900723,291,-1975,-364,535,-3416,525,296,88,-272
0,6900734,292,-1968,-379,523,-3410,534,296,88,-272
0,6900743,292,-1968,-379,523,-3410,534,296,88,-272
0,6900753,284,-1966,-368,531,-3400,541,305,85,-269
0,6900766,284,-1966,-368,531,-3400,541,305,85,-269
0,6900780,303,-1979,-366,517,-3385,557,305,85,-269
0,6900792,291,-1979,-368,497,-3381,576,305,85,-269
0,6900804,291,-1979,-368,497,-3381,576,305,85,-269
0,6900816,296,-1977,-390,464,-3371,586,305,85,-269
0,6900829,290,-1969,-402,444,-3364,594,305,85,-269
0,6900842,290,-1969,-402,444,-3364,594,305,85,-269
0,6900854,291,-1970,-385,458,-3357,606,305,85,-269
0,6900868,294,-1972,-391,453,-3351,620,305,85,-269
0,6900881,294,-1972,-391,453,-3351,620,305,85,-269
0,6900889,289,-1970,-402,436,-3337,623,307,99,-259
0,6900901,289,-1970,-402,436,-3337,623,307,99,-259
0,6900915,308,-1964,-413,434,-3319,627,307,99,-259
0,6900929,288,-1965,-404,439,-3309,631,307,99,-259
0,6900939,288,-1965,-404,439,-3309,631,307,99,-259
0,6900951,296,-1965,-405,450,-3303,637,307,99,-259
0,6900966,296,-1965,-405,450,-3303,637,307,99,-259
0,6900980,294,-1965,-413,444,-3288,652,307,99,-259
0,6900989,290,-1961,-431,453,-3282,656,307,99,-259
0,6901002,290,-1961,-431,453,-3282,656,307,99,-259
0,6901016,299,-1963,-428,464,-3273,656,305,93,-259
0,6901029,299,-1971,-431,477,-3260,669,305,93,-259
0,6901039,299,-1971,-431,477,-3260,669,305,93,-259
0,6901052,303,-1970,-439,481,-3240,672,305,93,-259
0,6901065,303,-1970,-439,481,-3240,672,305,93,-259
0,6901078,295,-1964,-444,459,-3229,682,305,93,-259
0,6901089,301,-1962,-436,451,-3217,699,305,93,-259
0,6901101,301,-1962,-436,451,-3217,699,305,93,-259
0,6901112,304,-1963,-440,441,-3208,706,305,93,-259
0,6901125,304,-1963,-440,441,-3208,706,305,93,-259
0,6901137,299,-1967,-441,429,-3200,704,312,98,-252
0,6901152,298,-1965,-447,412,-3181,710,312,98,-252
0,6901164,298,-1965,-447,412,-3181,710,312,98,-252
0,6901176,295,-1958,-434,401,-3165,703,312,98,-252
0,6901190,299,-1958,-418,373,-3156,704,312,98,-252
0,6901202,299,-1958,-418,373,-3156,704,312,98,-252
0,6901215,300,-1959,-425,357,-3144,715,312,98,-252
0,6901227,300,-1959,-425,357,-3144,715,312,98,-252
0,6901240,315,-1967,-419,331,-3126,727,312,98,-252
0,6901254,301,-1961,-416,279,-3117,732,312,98,-252
0,6901266,301,-1961,-416,279,-3117,732,312,98,-252
0,6901274,300,-1960,-409,250,-3100,734,313,115,-253
0,6901282,300,-1960,-409,250,-3100,734,313,115,-253
0,6901291,302,-1937,-431,234,-3092,740,313,115,-253
0,6901298,302,-1937,-431,234,-3092,740,313,115,-253
0,6901308,302,-1937,-431,234,-3092,740,313,115,-253
0,6901319,301,-1943,-403,260,-3081,743,313,115,-253
0,6901331,314,-1955,-408,289,-3065,740,313,115,-253
0,6901345,314,-1955,-408,289,-3065,740,313,115,-253
0,6901356,310,-1952,-376,267,-3055,750,313,115,-253
0,6901370,316,-1944,-368,237,-3044,754,313,115,-253
0,6901383,316,-1944,-368,237,-3044,754,313,115,-253
0,6901396,316,-1949,-364,208,-3032,768,306,112,-254
0,6901403,316,-1949,-364,208,-3032,768,306,112,-254
0,6901411,311,-1938,-359,174,-3021,780,306,112,-254
0,6901419,311,-1938,-359,174,-3021,780,306,112,-254
0,6901428,311,-1938,-359,174,-3021,780,306,112,-254
0,6901436,300,-1935,-385,177,-3006,776,306,112,-254
0,6901443,300,-1935,-385,177,-3006,776,306,112,-254
0,6901451,300,-1925,-356,201,-2998,797,306,112,-254
0,6901460,300,-1925,-356,201,-2998,797,306,112,-254
0,6901468,300,-1925,-356,201,-2998,797,306,112,-254
0,6901476,309,-1935,-335,226,-2978,800,306,112,-254
0,6901484,309,-1935,-335,226,-2978,800,306,112,-254
0,6901495,305,-1940,-338,227,-2972,813,306,112,-254
0,6901509,312,-1932,-345,216,-2961,815,306,112,-254
0,6901521,312,-1932,-345,216,-2961,815,306,112,-254
0,6901533,311,-1931,-329,208,-2949,824,309,109,-245
0,6901542,311,-1931,-329,208,-2949,824,309,109,-245
0,6901555,311,-1931,-329,208,-2949,824,309,109,-245
0,6901567,311,-1931,-329,208,-2949,824,309,109,-245
0,6901579,306,-1931,-354,192,-2928,833,309,109,-245
0,6901592,313,-1938,-365,209,-2919,847,309,109,-245
0,6901606,313,-1938,-365,209,-2919,847,309,109,-245
0,6901618,309,-1932,-355,201,-2895,863,309,109,-245
0,6901626,309,-1932,-355,201,-2895,863,309,109,-245
0,6901635,309,-1932,-355,201,-2895,863,309,109,-245
0,6901643,309,-1932,-355,201,-2895,863,309,109,-245
0,6901651,297,-1933,-369,190,-2870,877,308,112,-234
0,6901659,297,-1933,-369,190,-2870,877,308,112,-234
0,6901666,297,-1933,-369,190,-2870,877,308,112,-234
0,6901672,307,-1937,-374,170,-2853,881,308,112,-234
0,6901680,307,-1937,-374,170,-2853,881,308,112,-234
0,6901686,307,-1937,-374,170,-2853,881,308,112,-234
0,6901692,310,-1939,-391,159,-2843,887,308,112,-234
0,6901699,310,-1939,-391,159,-2843,887,308,112,-234
0,6901706,310,-1939,-391,159,-2843,887,308,112,-234
0,6901714,301,-1943,-373,151,-2829,884,308,112,-234
0,6901721,301,-1943,-373,151,-2829,884,308,112,-234
0,6901728,301,-1943,-373,151,-2829,884,308,112,-234
0,6901734,303,-1940,-388,123,-2817,896,308,112,-234
0,6901741,303,-1940,-388,123,-2817,896,308,112,-234
0,6901749,307,-1946,-372,91,-2809,904,308,112,-234
0,6901756,307,-1946,-372,91,-2809,904,308,112,-234
0,6901764,307,-1946,-372,91,-2809,904,308,112,-234
0,6901770,306,-1937,-386,67,-2789,917,308,112,-234
0,6901776,306,-1937,-386,67,-2789,917,308,112,-234
0,6901784,306,-1937,-386,67,-2789,917,308,112,-234
0,6901790,300,-1935,-373,40,-2777,922,310,118,-230
0,6901798,300,-1935,-373,40,-2777,922,310,118,-230
0,6901806,300,-1935,-373,40,-2777,922,310,118,-230
0,6901813,304,-1938,-386,22,-2759,922,310,118,-230
0,6901820,304,-1938,-386,22,-2759,922,310,118,-230
0,6901825,304,-1938,-386,22,-2759,922,310,118,-230
0,6901830,305,-1938,-368,10,-2743,921,310,118,-230
0,6901837,305,-1938,-368,10,-2743,921,310,118,-230
0,6901846,305,-1938,-368,10,-2743,921,310,118,-230
0,6901853,298,-1936,-375,-2,-2734,929,310,118,-230
0,6901858,298,-1936,-375,-2,-2734,929,310,118,-230
0,6901866,298,-1936,-375,-2,-2734,929,310,118,-230
0,6901871,300,-1935,-371,-23,-2708,936,310,118,-230
0,6901876,300,-1935,-371,-23,-2708,936,310,118,-230
0,6901881,300,-1935,-371,-23,-2708,936,310,118,-230
0,6901889,297,-1928,-370,-33,-2693,929,310,118,-230
0,6901894,297,-1928,-370,-33,-2693,929,310,118,-230
0,6901900,297,-1928,-370,-33,-2693,929,310,118,-230
0,6901906,297,-1928,-370,-33,-2693,929,310,118,-230
0,6901912,297,-1923,-356,-42,-2679,928,307,117,-231
0,6901920,297,-1923,-356,-42,-2679,928,307,117,-231
0,6901925,297,-1923,-356,-42,-2679,928,307,117,-231
0,6901933,297,-1920,-359,-47,-2674,929,307,117,-231
0,6901940,297,-1920,-359,-47,-2674,929,307,117,-231
0,6901947,297,-1920,-359,-47,-2674,929,307,117,-231
0,6901954,301,-1928,-358,-35,-2658,932,307,117,-231
0,6901961,301,-1928,-358,-35,-2658,932,307,117,-231
0,6901967,301,-1928,-358,-35,-2658,932,307,117,-231
0,6901975,304,-1927,-345,-49,-2642,931,307,117,-231
0,6901983,304,-1927,-345,-49,-2642,931,307,117,-231
0,6901991,300,-1923,-337,-71,-2632,929,307,117,-231
0,6901997,300,-1923,-337,-71,-2632,929,307,117,-231
0,6902003,300,-1923,-337,-71,-2632,929,307,117,-231
0,6902009,300,-1923,-337,-71,-2632,929,307,117,-231
0,6902017,300,-1923,-337,-71,-2632,929,307,117,-231
0,6902025,300,-1923,-337,-71,-2632,929,307,117,-231
0,6902033,285,-1920,-339,-61,-2604,920,318,126,-220
0,6902041,285,-1920,-339,-61,-2604,920,318,126,-220
0,6902048,285,-1920,-339,-61,-2604,920,318,126,-220
0,6902055,297,-1917,-327,-56,-2593,913,318,126,-220
0,6902063,297,-1917,-327,-56,-2593,913,318,126,-220
0,6902069,296,-1920,-315,-76,-2582,920,318,126,-220
0,6902076,296,-1920,-315,-76,-2582,920,318,126,-220
0,6902084,296,-1920,-315,-76,-2582,920,318,126,-220
0,6902091,303,-1918,-310,-86,-2563,917,318,126,-220
0,6902098,303,-1918,-310,-86,-2563,917,318,126,-220
0,6902105,303,-1918,-310,-86,-2563,917,318,126,-220
0,6902113,294,-1914,-311,-96,-2548,938,318,126,-220
0,6902120,294,-1914,-311,-96,-2548,938,318,126,-220
0,6902126,294,-1914,-311,-96,-2548,938,318,126,-220
0,6902134,294,-1914,-311,-96,-2548,938,318,126,-220
0,6902141,294,-1914,-311,-96,-2548,938,318,126,-220
0,6902151,289,-1924,-285,-124,-2519,928,318,126,-220
0,6902158,289,-1924,-285,-124,-2519,928,318,126,-220
0,6902166,289,-1924,-285,-124,-2519,928,318,126,-220
0,6902173,290,-1934,-272,-184,-2510,921,318,132,-218
0,6902179,290,-1934,-272,-184,-2510,921,318,132,-218
0,6902187,290,-1934,-272,-184,-2510,921,318,132,-218
0,6902193,289,-1934,-282,-299,-2496,916,318,132,-218
0,6902201,289,-1934,-282,-299,-2496,916,318,132,-218
0,6902208,289,-1934,-282,-299,-2496,916,318,132,-218
0,6902215,291,-1917,-294,-381,-2480,922,318,132,-218
0,6902222,291,-1917,-294,-381,-2480,922,318,132,-218
0,6902230,297,-1925,-311,-411,-2478,924,318,132,-218
0,6902237,297,-1925,-311,-411,-2478,924,318,132,-218
0,6902243,297,-1925,-311,-411,-2478,924,318,132,-218
0,6902250,294,-1913,-301,-436,-2459,929,318,132,-218
0,6902259,294,-1913,-301,-436,-2459,929,318,132,-218
0,6902266,294,-1913,-301,-436,-2459,929,318,132,-218
0,6902273,292,-1916,-312,-449,-2450,925,318,132,-218
0,6902278,292,-1916,-312,-449,-2450,925,318,132,-218
0,6902283,292,-1916,-312,-449,-2450,925,318,132,-218
0,6902288,292,-1916,-312,-449,-2450,925,318,132,-218
0,6902293,285,-1919,-301,-461,-2432,919,313,137,-219
0,6902301,285,-1919,-301,-461,-2432,919,313,137,-219
0,6902308,285,-1919,-301,-461,-2432,919,313,137,-219
0,6902316,288,-1918,-293,-496,-2419,927,313,137,-219
0,6902323,288,-1918,-293,-496,-2419,927,313,137,-219
0,6902329,288,-1918,-293,-496,-2419,927,313,137,-219
0,6902335,290,-1922,-284,-520,-2411,926,313,137,-219
0,6902341,290,-1922,-284,-520,-2411,926,313,137,-219
0,6902347,290,-1922,-284,-520,-2411,926,313,137,-219
0,6902355,282,-1935,-265,-579,-2394,926,313,137,-219
0,6902361,282,-1935,-265,-579,-2394,926,313,137,-219
0,6902369,282,-1935,-265,-579,-2394,926,313,137,-219
0,6902376,284,-1919,-298,-668,-2383,927,313,137,-219
0,6902383,284,-1919,-298,-668,-2383,927,313,137,-219
0,6902389,284,-1919,-298,-668,-2383,927,313,137,-219
0,6902396,278,-1911,-304,-705,-2369,919,313,137,-219
0,6902402,278,-1911,-304,-705,-2369,919,313,137,-219
0,6902407,278,-1911,-304,-705,-2369,919,313,137,-219
0,6902413,281,-1907,-311,-709,-2357,919,313,137,-219
0,6902418,281,-1907,-311,-709,-2357,919,313,137,-219
0,6902423,281,-1907,-311,-709,-2357,919,313,137,-219
0,6902428,281,-1907,-311,-709,-2357,919,313,137,-219
0,6902433,274,-1910,-313,-712,-2352,910,303,133,-215
0,6902438,274,-1910,-313,-712,-2352,910,303,133,-215
0,6902446,274,-1910,-313,-712,-2352,910,303,133,-215
0,6902453,276,-1918,-287,-722,-2343,904,303,133,-215
0,6902460,276,-1918,-287,-722,-2343,904,303,133,-215
0,6902469,276,-1918,-287,-722,-2343,904,303,133,-215
0,6902475,273,-1929,-289,-779,-2325,896,303,133,-215
0,6902480,273,-1929,-289,-779,-2325,896,303,133,-215
0,6902489,273,-1929,-289,-779,-2325,896,303,133,-215
0,6902495,274,-1915,-304,-859,-2319,884,303,133,-215
0,6902503,274,-1915,-304,-859,-2319,884,303,133,-215
0,6902510,276,-1903,-292,-894,-2305,878,303,133,-215
0,6902518,276,-1903,-292,-894,-2305,878,303,133,-215
0,6902525,276,-1903,-292,-894,-2305,878,303,133,-215
0,6902532,269,-1912,-288,-913,-2297,866,303,133,-215
0,6902539,269,-1912,-288,-913,-2297,866,303,133,-215
0,6902547,269,-1912,-288,-913,-2297,866,303,133,-215
0,6902553,271,-1918,-267,-966,-2290,860,310,136,-226
0,6902560,271,-1918,-267,-966,-2290,860,310,136,-226
0,6902568,271,-1918,-267,-966,-2290,860,310,136,-226
0,6902577,262,-1919,-271,-1037,-2272,849,310,136,-226
0,6902583,262,-1919,-271,-1037,-2272,849,310,136,-226
0,6902589,265,-1912,-278,-1104,-2270,834,310,136,-226
0,6902597,265,-1912,-278,-1104,-2270,834,310,136,-226
0,6902604,265,-1912,-278,-1104,-2270,834,310,136,-226
0,6902610,263,-1909,-265,-1159,-2258,816,310,136,-226
0,6902617,263,-1909,-265,-1159,-2258,816,310,136,-226
0,6902622,263,-1909,-265,-1159,-2258,816,310,136,-226
0,6902627,263,-1909,-265,-1159,-2258,816,310,136,-226
0,6902632,267,-1918,-256,-1237,-2250,803,310,136,-226
0,6902637,267,-1918,-256,-1237,-2250,803,310,136,-226
0,6902643,267,-1918,-256,-1237,-2250,803,310,136,-226
0,6902648,267,-1918,-256,-1237,-2250,803,310,136,-226
0,6902656,267,-1909,-271,-1317,-2249,794,310,136,-226
0,6902669,267,-1909,-271,-1317,-2249,794,310,136,-226
0,6902681,265,-1903,-259,-1370,-2242,787,287,147,-225
0,6902694,265,-1903,-259,-1370,-2242,787,287,147,-225
0,6902708,265,-1903,-259,-1370,-2242,787,287,147,-225
0,6902721,249,-1908,-242,-1492,-2225,752,287,147,-225
0,6902731,252,-1899,-234,-1568,-2221,734,287,147,-225
0,6902744,252,-1899,-234,-1568,-2221,734,287,147,-225
0,6902756,252,-1899,-234,-1568,-2221,734,287,147,-225
0,6902770,255,-1892,-204,-1713,-2226,684,287,147,-225
0,6902781,255,-1892,-204,-1713,-2226,684,287,147,-225
0,6902792,249,-1897,-181,-1781,-2224,679,287,147,-225
0,6902800,249,-1897,-181,-1781,-2224,679,287,147,-225
0,6902808,249,-1897,-181,-1781,-2224,679,287,147,-225
0,6902817,247,-1884,-170,-1860,-2216,663,283,145,-217
0,6902825,247,-1884,-170,-1860,-2216,663,283,145,-217
0,6902835,245,-1886,-172,-1936,-2210,649,283,145,-217
0,6902846,245,-1886,-172,-1936,-2210,649,283,145,-217
0,6902860,245,-1884,-148,-2015,-2217,634,283,145,-217
0,6902876,236,-1879,-142,-2086,-2211,616,283,145,-217
0,6902884,236,-1879,-142,-2086,-2211,616,283,145,-217
0,6902896,234,-1883,-122,-2156,-2209,586,283,145,-217
0,6902910,228,-1889,-125,-2253,-2216,555,283,145,-217
0,6902925,228,-1889,-125,-2253,-2216,555,283,145,-217
0,6902933,228,-1867,-117,-2349,-2224,533,270,150,-230
0,6902945,228,-1867,-117,-2349,-2224,533,270,150,-230
0,6902958,226,-1865,-100,-2406,-2228,500,270,150,-230
0,6902971,224,-1870,-69,-2457,-2233,468,270,150,-230
0,6902981,224,-1870,-69,-2457,-2233,468,270,150,-230
0,6902996,199,-1864,-60,-2560,-2245,423,270,150,-230
0,6903009,199,-1864,-60,-2560,-2245,423,270,150,-230
0,6903021,204,-1858,-89,-2635,-2259,365,270,150,-230
0,6903035,195,-1861,-121,-2689,-2266,316,270,150,-230
0,6903048,195,-1861,-121,-2689,-2266,316,270,150,-230
0,6903060,209,-1878,-77,-2728,-2270,267,270,150,-230
0,6903073,204,-1874,10,-2842,-2270,225,267,157,-235
0,6903087,204,-1874,10,-2842,-2270,225,267,157,-235
0,6903099,209,-1851,19,-2943,-2304,174,267,157,-235
0,6903112,183,-1827,-14,-2959,-2322,126,267,157,-235
0,6903126,183,-1827,-14,-2959,-2322,126,267,157,-235
0,6903139,196,-1866,-36,-2948,-2319,67,267,157,-235
0,6903150,193,-1887,44,-3010,-2340,8,267,157,-235
0,6903160,193,-1887,44,-3010,-2340,8,267,157,-235
0,6903172,207,-1866,42,-3146,-2350,-37,267,157,-235
0,6903183,207,-1866,42,-3146,-2350,-37,267,157,-235
0,6903196,181,-1834,35,-3194,-2377,-84,267,151,-235
0,6903205,181,-1834,35,-3194,-2377,-84,267,151,-235
0,6903217,177,-1851,-12,-3188,-2387,-153,267,151,-235
0,6903230,177,-1851,-12,-3188,-2387,-153,267,151,-235
0,6903241,180,-1863,50,-3177,-2405,-222,267,151,-235
0,6903255,188,-1890,43,-3249,-2409,-289,267,151,-235
0,6903267,188,-1890,43,-3249,-2409,-289,267,151,-235
0,6903278,182,-1859,31,-3336,-2423,-326,267,151,-235
0,6903292,172,-1846,32,-3343,-2446,-366,267,151,-235
0,6903305,172,-1846,32,-3343,-2446,-366,267,151,-235
0,6903317,166,-1866,-1,-3338,-2452,-429,267,151,-235
0,6903328,166,-1866,-1,-3338,-2452,-429,267,151,-235
0,6903336,160,-1874,47,-3335,-2465,-482,266,150,-240
0,6903345,160,-1874,47,-3335,-2465,-482,266,150,-240
0,6903353,169,-1872,13,-3385,-2483,-527,266,150,-240
0,6903365,169,-1872,13,-3385,-2483,-527,266,150,-240
0,6903376,159,-1868,2,-3393,-2494,-577,266,150,-240
0,6903390,159,-1868,2,-3393,-2494,-577,266,150,-240
0,6903401,151,-1862,15,-3389,-2505,-624,266,150,-240
0,6903409,151,-1862,15,-3389,-2505,-624,266,150,-240
0,6903417,160,-1877,-22,-3390,-2520,-674,266,150,-240
0,6903426,160,-1877,-22,-3390,-2520,-674,266,150,-240
0,6903434,163,-1877,-25,-3406,-2536,-730,266,150,-240
0,6903442,163,-1877,-25,-3406,-2536,-730,266,150,-240
0,6903450,163,-1877,-25,-3406,-2536,-730,266,150,-240
0,6903458,154,-1879,-25,-3406,-2542,-770,275,155,-247
0,6903467,154,-1879,-25,-3406,-2542,-770,275,155,-247
0,6903474,158,-1887,-42,-3381,-2550,-804,275,155,-247
0,6903482,158,-1887,-42,-3381,-2550,-804,275,155,-247
0,6903490,158,-1887,-42,-3381,-2550,-804,275,155,-247
0,6903498,151,-1888,-68,-3356,-2565,-840,275,155,-247
0,6903513,164,-1887,-87,-3323,-2586,-894,275,155,-247
0,6903527,164,-1887,-87,-3323,-2586,-894,275,155,-247
0,6903536,147,-1890,-103,-3266,-2583,-930,275,155,-247
0,6903548,147,-1890,-103,-3266,-2583,-930,275,155,-247
0,6903562,160,-1890,-108,-3199,-2597,-956,275,155,-247
0,6903575,159,-1896,-106,-3141,-2607,-986,279,157,-257
0,6903585,159,-1896,-106,-3141,-2607,-986,279,157,-257
0,6903599,160,-1903,-127,-3099,-2616,-1015,279,157,-257
0,6903613,156,-1902,-148,-3069,-2628,-1048,279,157,-257
0,6903621,156,-1902,-148,-3069,-2628,-1048,279,157,-257
0,6903629,156,-1902,-148,-3069,-2628,-1048,279,157,-257
0,6903638,157,-1901,-158,-3031,-2632,-1071,279,157,-257
0,6903645,157,-1901,-158,-3031,-2632,-1071,279,157,-257
0,6903654,156,-1908,-172,-2992,-2656,-1089,279,157,-257
0,6903665,156,-1908,-172,-2992,-2656,-1089,279,157,-257
0,6903671,157,-1911,-195,-2944,-2662,-1111,279,157,-257
0,6903677,157,-1911,-195,-2944,-2662,-1111,279,157,-257
0,6903684,157,-1911,-195,-2944,-2662,-1111,279,157,-257
0,6903690,157,-1911,-195,-2944,-2662,-1111,279,157,-257
0,6903695,153,-1915,-200,-2895,-2662,-1140,279,157,-257
0,6903701,153,-1915,-200,-2895,-2662,-1140,279,157,-257
0,6903707,153,-1915,-200,-2895,-2662,-1140,279,157,-257
0,6903713,158,-1911,-209,-2840,-2669,-1165,287,147,-257
0,6903719,158,-1911,-209,-2840,-2669,-1165,287,147,-257
0,6903727,158,-1911,-209,-2840,-2669,-1165,287,147,-257
0,6903734,149,-1911,-214,-2796,-2681,-1174,287,147,-257
0,6903741,149,-1911,-214,-2796,-2681,-1174,287,147,-257
0,6903749,149,-1911,-214,-2796,-2681,-1174,287,147,-257
0,6903754,153,-1919,-237,-2755,-2696,-1197,287,147,-257
0,6903759,153,-1919,-237,-2755,-2696,-1197,287,147,-257
0,6903766,153,-1919,-237,-2755,-2696,-1197,287,147,-257
0,6903774,157,-1923,-251,-2700,-2698,-1212,287,147,-257
0,6903781,157,-1923,-251,-2700,-2698,-1212,287,147,-257
0,6903788,157,-1923,-251,-2700,-2698,-1212,287,147,-257
0,6903795,150,-1920,-233,-2631,-2705,-1224,287,147,-257
0,6903803,150,-1920,-233,-2631,-2705,-1224,287,147,-257
0,6903810,150,-1920,-233,-2631,-2705,-1224,287,147,-257
0,6903817,150,-1926,-258,-2564,-2717,-1242,287,147,-257
0,6903823,150,-1926,-258,-2564,-2717,-1242,287,147,-257
0,6903829,150,-1926,-258,-2564,-2717,-1242,287,147,-257
0,6903834,159,-1925,-252,-2512,-2722,-1259,301,143,-263
0,6903840,159,-1925,-252,-2512,-2722,-1259,301,143,-263
0,6903846,159,-1925,-252,-2512,-2722,-1259,301,143,-263
0,6903853,145,-1922,-269,-2462,-2744,-1280,301,143,-263
0,6903860,145,-1922,-269,-2462,-2744,-1280,301,143,-263
0,6903868,145,-1922,-269,-2462,-2744,-1280,301,143,-263
0,6903874,152,-1923,-288,-2382,-2758,-1295,301,143,-263
0,6903881,152,-1923,-288,-2382,-2758,-1295,301,143,-263
0,6903886,152,-1923,-288,-2382,-2758,-1295,301,143,-263
0,6903894,149,-1922,-272,-2292,-2767,-1311,301,143,-263
0,6903902,149,-1922,-272,-2292,-2767,-1311,301,143,-263
0,6903910,149,-1922,-272,-2292,-2767,-1311,301,143,-263
0,6903917,140,-1925,-299,-2194,-2775,-1324,301,143,-263
0,6903922,140,-1925,-299,-2194,-2775,-1324,301,143,-263
0,6903930,140,-1925,-299,-2194,-2775,-1324,301,143,-263
0,6903939,149,-1934,-302,-2093,-2777,-1343,301,143,-263
0,6903945,149,-1934,-302,-2093,-2777,-1343,301,143,-263
0,6903954,135,-1940,-286,-2019,-2791,-1357,301,143,-263
0,6903960,135,-1940,-286,-2019,-2791,-1357,301,143,-263
0,6903965,135,-1940,-286,-2019,-2791,-1357,301,143,-263
0,6903972,143,-1932,-323,-1956,-2798,-1375,313,141,-265
0,6903980,143,-1932,-323,-1956,-2798,-1375,313,141,-265
0,6903986,143,-1932,-323,-1956,-2798,-1375,313,141,-265
0,6903994,145,-1933,-331,-1869,-2820,-1394,313,141,-265
0,6904002,145,-1933,-331,-1869,-2820,-1394,313,141,-265
0,6904009,145,-1933,-331,-1869,-2820,-1394,313,141,-265
0,6904016,136,-1932,-316,-1766,-2830,-1405,313,141,-265
0,6904025,136,-1932,-316,-1766,-2830,-1405,313,141,-265
0,6904031,136,-1932,-316,-1766,-2830,-1405,313,141,-265
0,6904036,146,-1943,-355,-1701,-2847,-1432,313,141,-265
0,6904044,146,-1943,-355,-1701,-2847,-1432,313,141,-265
0,6904051,126,-1930,-364,-1640,-2854,-1441,313,141,-265
0,6904059,126,-1930,-364,-1640,-2854,-1441,313,141,-265
0,6904065,126,-1930,-364,-1640,-2854,-1441,313,141,-265
0,6904071,126,-1930,-364,-1640,-2854,-1441,313,141,-265
0,6904078,137,-1927,-377,-1556,-2862,-1459,313,141,-265
0,6904086,137,-1927,-377,-1556,-2862,-1459,313,141,-265
0,6904094,127,-1942,-401,-1461,-2866,-1475,321,143,-273
0,6904101,127,-1942,-401,-1461,-2866,-1475,321,143,-273
0,6904109,127,-1942,-401,-1461,-2866,-1475,321,143,-273
0,6904115,133,-1930,-393,-1379,-2879,-1494,321,143,-273
0,6904120,133,-1930,-393,-1379,-2879,-1494,321,143,-273
0,6904128,133,-1930,-393,-1379,-2879,-1494,321,143,-273
0,6904136,124,-1928,-429,-1288,-2890,-1508,321,143,-273
0,6904144,124,-1928,-429,-1288,-2890,-1508,321,143,-273
0,6904152,128,-1921,-450,-1192,-2904,-1528,321,143,-273
0,6904159,128,-1921,-450,-1192,-2904,-1528,321,143,-273
0,6904165,128,-1921,-450,-1192,-2904,-1528,321,143,-273
0,6904172,139,-1930,-434,-1081,-2908,-1540,321,143,-273
0,6904180,139,-1930,-434,-1081,-2908,-1540,321,143,-273
0,6904186,139,-1930,-434,-1081,-2908,-1540,321,143,-273
0,6904194,133,-1935,-451,-997,-2908,-1559,321,143,-273
0,6904201,133,-1935,-451,-997,-2908,-1559,321,143,-273
0,6904208,133,-1935,-451,-997,-2908,-1559,321,143,-273
0,6904214,140,-1938,-470,-928,-2922,-1576,321,143,-273
0,6904222,140,-1938,-470,-928,-2922,-1576,321,143,-273
0,6904229,140,-1938,-470,-928,-2922,-1576,321,143,-273
0,6904236,134,-1929,-473,-846,-2936,-1589,333,135,-269
0,6904244,134,-1929,-473,-846,-2936,-1589,333,135,-269
0,6904249,134,-1929,-473,-846,-2936,-1589,333,135,-269
0,6904255,132,-1924,-481,-746,-2942,-1594,333,135,-269
0,6904262,132,-1924,-481,-746,-2942,-1594,333,135,-269
0,6904270,132,-1924,-481,-746,-2942,-1594,333,135,-269
0,6904276,133,-1933,-472,-652,-2951,-1607,333,135,-269
0,6904284,133,-1933,-472,-652,-2951,-1607,333,135,-269
0,6904291,133,-1933,-472,-652,-2951,-1607,333,135,-269
0,6904297,138,-1931,-504,-571,-2958,-1623,333,135,-269
0,6904304,138,-1931,-504,-571,-2958,-1623,333,135,-269
0,6904309,138,-1931,-504,-571,-2958,-1623,333,135,-269
0,6904314,145,-1928,-514,-496,-2968,-1632,333,135,-269
0,6904321,145,-1928,-514,-496,-2968,-1632,333,135,-269
0,6904328,145,-1928,-514,-496,-2968,-1632,333,135,-269
0,6904334,138,-1939,-486,-419,-2980,-1642,333,135,-269
0,6904341,138,-1939,-486,-419,-2980,-1642,333,135,-269
0,6904348,138,-1939,-486,-419,-2980,-1642,333,135,-269
0,6904354,148,-1938,-510,-365,-2978,-1645,331,125,-277
0,6904363,148,-1938,-510,-365,-2978,-1645,331,125,-277
0,6904369,148,-1938,-510,-365,-2978,-1645,331,125,-277
0,6904375,146,-1930,-509,-303,-3000,-1643,331,125,-277
0,6904380,146,-1930,-509,-303,-3000,-1643,331,125,-277
0,6904387,146,-1930,-509,-303,-3000,-1643,331,125,-277
0,6904393,149,-1933,-501,-217,-3004,-1646,331,125,-277
0,6904399,149,-1933,-501,-217,-3004,-1646,331,125,-277
0,6904404,149,-1933,-501,-217,-3004,-1646,331,125,-277
0,6904410,149,-1933,-501,-217,-3004,-1646,331,125,-277
0,6904415,155,-1942,-496,-138,-3016,-1643,331,125,-277
0,6904420,155,-1942,-496,-138,-3016,-1643,331,125,-277
0,6904426,155,-1942,-496,-138,-3016,-1643,331,125,-277
0,6904431,155,-1942,-496,-138,-3016,-1643,331,125,-277
0,6904436,154,-1935,-484,-68,-3023,-1646,331,125,-277
0,6904441,154,-1935,-484,-68,-3023,-1646,331,125,-277
0,6904449,154,-1935,-484,-68,-3023,-1646,331,125,-277
0,6904457,157,-1948,-477,5,-3042,-1646,331,125,-277
0,6904464,157,-1948,-477,5,-3042,-1646,331,125,-277
0,6904471,157,-1948,-477,5,-3042,-1646,331,125,-277
0,6904479,157,-1946,-475,87,-3060,-1638,345,127,-283
0,6904486,157,-1946,-475,87,-3060,-1638,345,127,-283
0,6904493,159,-1953,-453,159,-3074,-1636,345,127,-283
0,6904501,159,-1953,-453,159,-3074,-1636,345,127,-283
0,6904508,159,-1953,-453,159,-3074,-1636,345,127,-283
0,6904515,161,-1955,-450,211,-3088,-1621,345,127,-283
0,6904522,161,-1955,-450,211,-3088,-1621,345,127,-283
0,6904529,161,-1955,-450,211,-3088,-1621,345,127,-283
0,6904538,153,-1958,-445,271,-3100,-1619,345,127,-283
0,6904543,153,-1958,-445,271,-3100,-1619,345,127,-283
0,6904550,153,-1958,-445,271,-3100,-1619,345,127,-283
0,6904556,151,-1956,-435,315,-3113,-1605,345,127,-283
0,6904563,151,-1956,-435,315,-3113,-1605,345,127,-283
0,6904570,151,-1956,-435,315,-3113,-1605,345,127,-283
0,6904579,161,-1961,-409,333,-3131,-1600,345,127,-283
0,6904586,161,-1961,-409,333,-3131,-1600,345,127,-283
0,6904593,154,-1964,-423,364,-3144,-1589,345,127,-283
0,6904601,154,-1964,-423,364,-3144,-1589,345,127,-283
0,6904608,154,-1964,-423,364,-3144,-1589,345,127,-283
0,6904616,159,-1967,-410,398,-3159,-1579,354,122,-280
0,6904622,159,-1967,-410,398,-3159,-1579,354,122,-280
0,6904627,159,-1967,-410,398,-3159,-1579,354,122,-280
0,6904632,157,-1973,-386,406,-3180,-1563,354,122,-280
0,6904637,157,-1973,-386,406,-3180,-1563,354,122,-280
0,6904642,157,-1973,-386,406,-3180,-1563,354,122,-280
0,6904647,157,-1973,-386,406,-3180,-1563,354,122,-280
0,6904654,157,-1973,-386,406,-3180,-1563,354,122,-280
0,6904663,157,-1973,-386,406,-3180,-1563,354,122,-280
0,6904669,157,-1973,-386,406,-3180,-1563,354,122,-280
0,6904683,159,-1975,-377,402,-3208,-1539,354,122,-280
0,6904692,141,-1975,-383,419,-3221,-1531,354,122,-280
0,6904705,141,-1975,-383,419,-3221,-1531,354,122,-280
0,6904718,165,-1974,-383,423,-3236,-1524,354,122,-280
0,6904731,165,-1974,-383,423,-3236,-1524,354,122,-280
0,6904742,140,-1983,-369,414,-3256,-1516,336,118,-276
0,6904756,155,-1985,-388,417,-3268,-1514,336,118,-276
0,6904768,155,-1985,-388,417,-3268,-1514,336,118,-276
0,6904781,144,-1979,-367,411,-3284,-1509,336,118,-276
0,6904792,144,-1979,-367,411,-3284,-1509,336,118,-276
0,6904803,150,-1983,-379,400,-3293,-1496,336,118,-276
0,6904812,150,-1983,-379,400,-3293,-1496,336,118,-276
0,6904819,135,-1983,-399,386,-3304,-1493,336,118,-276
0,6904827,135,-1983,-399,386,-3304,-1493,336,118,-276
0,6904837,142,-1989,-359,371,-3317,-1492,336,118,-276
0,6904852,142,-1989,-359,371,-3317,-1492,336,118,-276
0,6904860,141,-1988,-375,305,-3336,-1481,336,118,-276
0,6904872,141,-1988,-375,305,-3336,-1481,336,118,-276
0,6904887,137,-1988,-386,231,-3351,-1485,330,106,-272
0,6904901,137,-1980,-403,184,-3351,-1483,330,106,-272
0,6904910,137,-1980,-403,184,-3351,-1483,330,106,-272
0,6904924,147,-1986,-411,160,-3357,-1479,330,106,-272
0,6904937,143,-1983,-414,144,-3369,-1471,330,106,-272
0,6904952,143,-1983,-414,144,-3369,-1471,330,106,-272
0,6904961,140,-1977,-443,144,-3388,-1470,330,106,-272
0,6904974,145,-1969,-433,198,-3401,-1477,330,106,-272
0,6904986,145,-1969,-433,198,-3401,-1477,330,106,-272
0,6905000,150,-1982,-414,220,-3397,-1476,319,105,-265
0,6905011,150,-1982,-414,220,-3397,-1476,319,105,-265
0,6905023,153,-1988,-419,217,-3407,-1473,319,105,-265
0,6905035,142,-1988,-410,209,-3424,-1469,319,105,-265
0,6905049,142,-1988,-410,209,-3424,-1469,319,105,-265
0,6905059,151,-1981,-466,214,-3433,-1467,319,105,-265
0,6905074,144,-1967,-458,266,-3445,-1459,319,105,-265
0,6905085,144,-1967,-458,266,-3445,-1459,319,105,-265
0,6905098,155,-1974,-433,356,-3448,-1462,319,105,-265
0,6905112,155,-1974,-433,356,-3448,-1462,319,105,-265
0,6905125,148,-1991,-434,402,-3451,-1454,328,106,-262
0,6905137,152,-1976,-446,404,-3460,-1459,328,106,-262
0,6905149,152,-1976,-446,404,-3460,-1459,328,106,-262
0,6905162,150,-1982,-476,416,-3469,-1461,328,106,-262
0,6905176,164,-1988,-450,441,-3480,-1451,328,106,-262
0,6905188,164,-1988,-450,441,-3480,-1451,328,106,-262
0,6905202,160,-1987,-437,468,-3491,-1450,328,106,-262
0,6905214,165,-1985,-477,481,-3500,-1441,328,106,-262
0,6905227,165,-1985,-477,481,-3500,-1441,328,106,-262
0,6905241,164,-1989,-491,501,-3504,-1418,328,106,-262
0,6905254,163,-1992,-484,510,-3504,-1412,329,95,-253
0,6905268,163,-1992,-484,510,-3504,-1412,329,95,-253
0,6905278,167,-1990,-474,515,-3520,-1403,329,95,-253
0,6905290,167,-1990,-474,515,-3520,-1403,329,95,-253
0,6905303,173,-1981,-485,502,-3535,-1395,329,95,-253
0,6905315,164,-1980,-517,514,-3527,-1375,329,95,-253
0,6905327,164,-1980,-517,514,-3527,-1375,329,95,-253
0,6905339,176,-1986,-510,527,-3537,-1366,329,95,-253
0,6905352,176,-1986,-510,527,-3537,-1366,329,95,-253
0,6905365,178,-1997,-483,530,-3541,-1339,329,95,-253
0,6905377,183,-1996,-483,523,-3551,-1322,325,93,-249
0,6905389,183,-1996,-483,523,-3551,-1322,325,93,-249
0,6905398,173,-1991,-490,510,-3563,-1301,325,93,-249
0,6905406,173,-1991,-490,510,-3563,-1301,325,93,-249
0,6905414,187,-1996,-486,505,-3567,-1282,325,93,-249
0,6905422,187,-1996,-486,505,-3567,-1282,325,93,-249
0,6905431,187,-1996,-486,505,-3567,-1282,325,93,-249
0,6905439,181,-1998,-446,501,-3570,-1264,325,93,-249
0,6905447,181,-1998,-446,501,-3570,-1264,325,93,-249
0,6905455,186,-1994,-433,500,-3581,-1251,325,93,-249
0,6905464,186,-1994,-433,500,-3581,-1251,325,93,-249
0,6905472,186,-1994,-433,500,-3581,-1251,325,93,-249
0,6905481,184,-2001,-440,483,-3590,-1233,325,93,-249
0,6905488,184,-2001,-440,483,-3590,-1233,325,93,-249
0,6905496,183,-2004,-432,495,-3589,-1218,325,93,-249
0,6905508,183,-2004,-432,495,-3589,-1218,325,93,-249
0,6905521,181,-1999,-403,500,-3592,-1205,318,88,-240
0,6905535,176,-2004,-395,499,-3612,-1200,318,88,-240
0,6905546,176,-2004,-395,499,-3612,-1200,318,88,-240
0,6905559,182,-2000,-413,501,-3619,-1198,318,88,-240
0,6905571,182,-2000,-413,501,-3619,-1198,318,88,-240
0,6905582,181,-2004,-420,518,-3627,-1189,318,88,-240
0,6905595,188,-2007,-406,529,-3628,-1178,318,88,-240
0,6905608,188,-2007,-406,529,-3628,-1178,318,88,-240
0,6905618,189,-2010,-404,540,-3635,-1161,318,88,-240
0,6905626,189,-2010,-404,540,-3635,-1161,318,88,-240
0,6905634,188,-2006,-413,541,-3644,-1152,325,79,-249
0,6905641,188,-2006,-413,541,-3644,-1152,325,79,-249
0,6905654,184,-2003,-432,555,-3650,-1134,325,79,-249
0,6905664,184,-2003,-432,555,-3650,-1134,325,79,-249
0,6905676,180,-2000,-415,585,-3662,-1129,325,79,-249
0,6905684,180,-2000,-415,585,-3662,-1129,325,79,-249
0,6905692,180,-2000,-415,585,-3662,-1129,325,79,-249
0,6905699,181,-2006,-411,621,-3664,-1118,325,79,-249
0,6905706,181,-2006,-411,621,-3664,-1118,325,79,-249
0,6905711,181,-2006,-411,621,-3664,-1118,325,79,-249
0,6905719,185,-2014,-425,643,-3666,-1118,325,79,-249
0,6905728,185,-2014,-425,643,-3666,-1118,325,79,-249
0,6905734,190,-2008,-427,643,-3674,-1119,325,79,-249
0,6905742,190,-2008,-427,643,-3674,-1119,325,79,-249
0,6905749,190,-2008,-427,643,-3674,-1119,325,79,-249
0,6905756,185,-2010,-419,643,-3686,-1114,325,79,-249
0,6905762,185,-2010,-419,643,-3686,-1114,325,79,-249
0,6905771,185,-2010,-419,643,-3686,-1114,325,79,-249
0,6905780,189,-2009,-423,643,-3691,-1101,312,76,-248
0,6905786,189,-2009,-423,643,-3691,-1101,312,76,-248
0,6905793,190,-2012,-429,649,-3687,-1086,312,76,-248
0,6905799,190,-2012,-429,649,-3687,-1086,312,76,-248
0,6905805,190,-2012,-429,649,-3687,-1086,312,76,-248
0,6905811,190,-2012,-429,649,-3687,-1086,312,76,-248
0,6905821,188,-2011,-443,666,-3692,-1095,312,76,-248
0,6905828,188,-2011,-443,666,-3692,-1095,312,76,-248
0,6905837,188,-2011,-436,683,-3696,-1084,312,76,-248
0,6905843,188,-2011,-436,683,-3696,-1084,312,76,-248
0,6905848,188,-2011,-436,683,-3696,-1084,312,76,-248
0,6905856,190,-2011,-438,689,-3699,-1080,312,76,-248
0,6905865,190,-2011,-438,689,-3699,-1080,312,76,-248
0,6905872,190,-2011,-438,689,-3699,-1080,312,76,-248
0,6905879,191,-2017,-440,704,-3702,-1067,312,76,-248
0,6905885,191,-2017,-440,704,-3702,-1067,312,76,-248
0,6905892,191,-2017,-440,704,-3702,-1067,312,76,-248
0,6905901,198,-2020,-434,697,-3718,-1055,309,63,-235
0,6905908,198,-2020,-434,697,-3718,-1055,309,63,-235
0,6905915,204,-2016,-432,692,-3716,-1041,309,63,-235
0,6905922,204,-2016,-432,692,-3716,-1041,309,63,-235
0,6905929,204,-2016,-432,692,-3716,-1041,309,63,-235
0,6905934,195,-2013,-449,677,-3718,-1042,309,63,-235
0,6905940,195,-2013,-449,677,-3718,-1042,309,63,-235
0,6905946,195,-2013,-449,677,-3718,-1042,309,63,-235
0,6905953,195,-2013,-449,677,-3718,-1042,309,63,-235
0,6905959,196,-2016,-447,673,-3722,-1045,309,63,-235
0,6905966,196,-2016,-447,673,-3722,-1045,309,63,-235
0,6905973,203,-2018,-434,671,-3721,-1031,309,63,-235
0,6905979,203,-2018,-434,671,-3721,-1031,309,63,-235
0,6905988,203,-2018,-434,671,-3721,-1031,309,63,-235
0,6905995,197,-2018,-444,681,-3720,-1025,309,63,-235
0,6906000,197,-2018,-444,681,-3720,-1025,309,63,-235
0,6906006,197,-2018,-444,681,-3720,-1025,309,63,-235
0,6906015,210,-2019,-446,681,-3730,-1012,301,65,-225
0,6906020,210,-2019,-446,681,-3730,-1012,301,65,-225
0,6906027,210,-2019,-446,681,-3730,-1012,301,65,-225
0,6906033,210,-2019,-446,681,-3730,-1012,301,65,-225
0,6906041,199,-2019,-433,671,-3734,-999,301,65,-225
0,6906047,199,-2019,-433,671,-3734,-999,301,65,-225
0,6906055,211,-2022,-430,681,-3733,-987,301,65,-225
0,6906062,211,-2022,-430,681,-3733,-987,301,65,-225
0,6906070,211,-2022,-430,681,-3733,-987,301,65,-225
0,6906077,200,-2022,-423,672,-3731,-973,301,65,-225
0,6906084,200,-2022,-423,672,-3731,-973,301,65,-225
0,6906091,200,-2022,-423,672,-3731,-973,301,65,-225
0,6906097,214,-2023,-425,671,-3742,-963,301,65,-225
0,6906105,214,-2023,-425,671,-3742,-963,301,65,-225
0,6906113,214,-2023,-425,671,-3742,-963,301,65,-225
0,6906121,205,-2018,-424,674,-3749,-941,301,65,-225
0,6906127,205,-2018,-424,674,-3749,-941,301,65,-225
0,6906133,205,-2018,-424,674,-3749,-941,301,65,-225
0,6906140,213,-2024,-397,695,-3747,-929,301,65,-225
0,6906147,213,-2024,-397,695,-3747,-929,301,65,-225
0,6906156,222,-2025,-395,713,-3753,-913,296,58,-228
0,6906162,222,-2025,-395,713,-3753,-913,296,58,-228
0,6906168,222,-2025,-395,713,-3753,-913,296,58,-228
0,6906175,211,-2026,-393,714,-3754,-889,296,58,-228
0,6906181,211,-2026,-393,714,-3754,-889,296,58,-228
0,6906189,211,-2026,-393,714,-3754,-889,296,58,-228
0,6906196,217,-2026,-394,723,-3761,-865,296,58,-228
0,6906205,217,-2026,-394,723,-3761,-865,296,58,-228
0,6906213,217,-2026,-394,723,-3761,-865,296,58,-228
0,6906221,212,-2021,-368,740,-3763,-845,296,58,-228
0,6906228,212,-2021,-368,740,-3763,-845,296,58,-228
0,6906233,212,-2021,-368,740,-3763,-845,296,58,-228
0,6906240,218,-2016,-395,749,-3772,-828,296,58,-228
0,6906246,218,-2016,-395,749,-3772,-828,296,58,-228
0,6906252,218,-2016,-395,749,-3772,-828,296,58,-228
0,6906260,211,-2026,-397,789,-3774,-818,296,58,-228
0,6906265,211,-2026,-397,789,-3774,-818,296,58,-228
0,6906273,211,-2026,-397,789,-3774,-818,296,58,-228
0,6906279,219,-2030,-375,817,-3776,-796,304,60,-226
0,6906287,219,-2030,-375,817,-3776,-796,304,60,-226
0,6906294,219,-2030,-375,817,-3776,-796,304,60,-226
0,6906302,213,-2029,-361,817,-3785,-775,304,60,-226
0,6906308,213,-2029,-361,817,-3785,-775,304,60,-226
0,6906314,218,-2032,-373,810,-3793,-751,304,60,-226
0,6906322,218,-2032,-373,810,-3793,-751,304,60,-226
0,6906331,218,-2032,-373,810,-3793,-751,304,60,-226
0,6906338,219,-2033,-372,804,-3790,-732,304,60,-226
0,6906346,219,-2033,-372,804,-3790,-732,304,60,-226
0,6906351,219,-2033,-372,804,-3790,-732,304,60,-226
0,6906358,211,-2030,-377,786,-3798,-722,304,60,-226
0,6906366,211,-2030,-377,786,-3798,-722,304,60,-226
0,6906374,211,-2030,-377,786,-3798,-722,304,60,-226
0,6906380,216,-2032,-390,768,-3803,-706,304,60,-226
0,6906388,216,-2032,-390,768,-3803,-706,304,60,-226
0,6906395,214,-2028,-398,764,-3809,-682,304,60,-226
0,6906400,214,-2028,-398,764,-3809,-682,304,60,-226
0,6906405,214,-2028,-398,764,-3809,-682,304,60,-226
0,6906411,214,-2028,-398,764,-3809,-682,304,60,-226
0,6906416,213,-2028,-408,781,-3809,-678,297,53,-223
0,6906422,213,-2028,-408,781,-3809,-678,297,53,-223
0,6906427,213,-2028,-408,781,-3809,-678,297,53,-223
0,6906433,213,-2028,-408,781,-3809,-678,297,53,-223
0,6906438,208,-2032,-403,805,-3805,-669,297,53,-223
0,6906445,208,-2032,-403,805,-3805,-669,297,53,-223
0,6906451,208,-2032,-403,805,-3805,-669,297,53,-223
0,6906459,211,-2034,-411,797,-3812,-650,297,53,-223
0,6906465,211,-2034,-411,797,-3812,-650,297,53,-223
0,6906470,211,-2034,-411,797,-3812,-650,297,53,-223
0,6906475,218,-2035,-434,786,-3819,-643,297,53,-223
0,6906482,218,-2035,-434,786,-3819,-643,297,53,-223
0,6906490,218,-2035,-434,786,-3819,-643,297,53,-223
0,6906498,218,-2039,-437,781,-3817,-630,297,53,-223
0,6906507,218,-2039,-437,781,-3817,-630,297,53,-223
0,6906513,218,-2039,-437,781,-3817,-630,297,53,-223
0,6906518,219,-2031,-422,774,-3819,-608,297,53,-223
0,6906525,219,-2031,-422,774,-3819,-608,297,53,-223
0,6906531,219,-2031,-422,774,-3819,-608,297,53,-223
0,6906539,213,-2028,-436,748,-3823,-587,292,46,-224
0,6906545,213,-2028,-436,748,-3823,-587,292,46,-224
0,6906552,213,-2028,-436,748,-3823,-587,292,46,-224
0,6906560,215,-2028,-463,736,-3818,-567,292,46,-224
0,6906566,215,-2028,-463,736,-3818,-567,292,46,-224
0,6906574,220,-2020,-461,740,-3824,-558,292,46,-224
0,6906582,220,-2020,-461,740,-3824,-558,292,46,-224
0,6906589,220,-2020,-461,740,-3824,-558,292,46,-224
0,6906595,212,-2030,-483,769,-3819,-552,292,46,-224
0,6906600,212,-2030,-483,769,-3819,-552,292,46,-224
0,6906608,212,-2030,-483,769,-3819,-552,292,46,-224
0,6906616,221,-2036,-412,770,-3809,-540,292,46,-224
0,6906621,221,-2036,-412,770,-3809,-540,292,46,-224
0,6906627,221,-2036,-412,770,-3809,-540,292,46,-224
0,6906632,221,-2036,-412,770,-3809,-540,292,46,-224
0,6906637,219,-2030,-465,742,-3824,-531,292,46,-224
0,6906642,219,-2030,-465,742,-3824,-531,292,46,-224
0,6906648,219,-2030,-465,742,-3824,-531,292,46,-224
0,6906656,227,-2031,-449,733,-3814,-513,292,46,-224
0,6906662,227,-2031,-449,733,-3814,-513,292,46,-224
0,6906670,227,-2031,-449,733,-3814,-513,292,46,-224
0,6906678,215,-2009,-513,746,-3818,-514,289,37,-223
0,6906687,215,-2009,-513,746,-3818,-514,289,37,-223
0,6906700,228,-2022,-512,790,-3811,-491,289,37,-223
0,6906713,228,-2022,-512,790,-3811,-491,289,37,-223
0,6906726,223,-2028,-486,807,-3803,-479,289,37,-223
0,6906738,229,-2030,-471,804,-3804,-464,289,37,-223
0,6906752,229,-2030,-471,804,-3804,-464,289,37,-223
0,6906764,227,-2028,-476,803,-3803,-454,289,37,-223
0,6906778,234,-2020,-507,803,-3801,-441,289,37,-223
0,6906789,234,-2020,-507,803,-3801,-441,289,37,-223
0,6906802,228,-2019,-449,837,-3789,-432,293,35,-217
0,6906816,228,-2025,-439,868,-3792,-420,293,35,-217
0,6906828,228,-2025,-439,868,-3792,-420,293,35,-217
0,6906842,234,-2023,-407,879,-3798,-417,293,35,-217
0,6906854,234,-2023,-407,879,-3798,-417,293,35,-217
0,6906866,230,-2031,-444,878,-3790,-401,293,35,-217
0,6906881,236,-2027,-422,861,-3784,-397,293,35,-217
0,6906894,236,-2027,-422,861,-3784,-397,293,35,-217
0,6906904,233,-2021,-390,847,-3796,-389,293,35,-217
0,6906915,238,-2031,-406,841,-3788,-377,290,32,-218
0,6906929,238,-2031,-406,841,-3788,-377,290,32,-218
0,6906941,242,-2025,-409,833,-3792,-376,290,32,-218
0,6906953,242,-2025,-409,833,-3792,-376,290,32,-218
0,6906966,237,-2027,-423,831,-3790,-364,290,32,-218
0,6906980,235,-2019,-399,834,-3791,-361,290,32,-218
0,6906992,235,-2019,-399,834,-3791,-361,290,32,-218
0,6907003,240,-2020,-402,845,-3786,-347,290,32,-218
0,6907016,230,-2022,-405,854,-3787,-346,290,32,-218
0,6907030,230,-2022,-405,854,-3787,-346,290,32,-218
0,6907042,238,-2026,-439,840,-3786,-346,290,32,-218
0,6907054,238,-2026,-439,840,-3786,-346,290,32,-218
0,6907067,238,-2028,-447,832,-3781,-348,286,20,-216
0,6907081,245,-2026,-423,818,-3775,-337,286,20,-216
0,6907094,245,-2026,-423,818,-3775,-337,286,20,-216
0,6907104,241,-2026,-425,784,-3780,-320,286,20,-216
0,6907115,251,-2027,-458,756,-3778,-306,286,20,-216
0,6907125,251,-2027,-458,756,-3778,-306,286,20,-216
0,6907133,251,-2027,-458,756,-3778,-306,286,20,-216
0,6907141,251,-2017,-467,759,-3771,-286,286,20,-216
0,6907150,251,-2017,-467,759,-3771,-286,286,20,-216
0,6907164,254,-2026,-446,778,-3758,-267,286,20,-216
0,6907173,254,-2026,-446,778,-3758,-267,286,20,-216
0,6907186,248,-2025,-411,767,-3765,-246,285,19,-225
0,6907199,250,-2029,-406,737,-3759,-215,285,19,-225
0,6907213,250,-2029,-406,737,-3759,-215,285,19,-225
0,6907223,252,-2014,-436,736,-3756,-213,285,19,-225
0,6907234,252,-2014,-436,736,-3756,-213,285,19,-225
0,6907248,246,-2017,-421,733,-3757,-202,285,19,-225
0,6907260,252,-2005,-393,752,-3751,-213,285,19,-225
0,6907272,252,-2005,-393,752,-3751,-213,285,19,-225
0,6907285,253,-2020,-385,751,-3751,-231,285,19,-225
0,6907298,260,-2016,-395,746,-3743,-231,285,19,-225
0,6907312,260,-2016,-395,746,-3743,-231,285,19,-225
0,6907322,259,-2015,-390,754,-3750,-215,281,19,-229
0,6907335,262,-2016,-374,770,-3737,-206,281,19,-229
0,6907347,262,-2016,-374,770,-3737,-206,281,19,-229
0,6907361,261,-2011,-353,799,-3736,-187,281,19,-229
0,6907372,261,-2011,-353,799,-3736,-187,281,19,-229
0,6907385,271,-2025,-383,805,-3744,-177,281,19,-229
0,6907399,281,-2041,-372,812,-3736,-141,281,19,-229
0,6907407,281,-2041,-372,812,-3736,-141,281,19,-229
0,6907415,281,-2041,-372,812,-3736,-141,281,19,-229
0,6907423,280,-2030,-385,799,-3736,-73,281,19,-229
0,6907432,280,-2030,-385,799,-3736,-73,281,19,-229
0,6907441,261,-2013,-347,790,-3736,-28,275,7,-215
0,6907449,261,-2013,-347,790,-3736,-28,275,7,-215
0,6907457,261,-2018,-381,780,-3733,-11,275,7,-215
0,6907464,261,-2018,-381,780,-3733,-11,275,7,-215
0,6907474,261,-2018,-381,780,-3733,-11,275,7,-215
0,6907482,264,-2012,-385,771,-3727,4,275,7,-215
0,6907491,264,-2012,-385,771,-3727,4,275,7,-215
0,6907503,259,-2008,-386,782,-3726,15,275,7,-215
0,6907515,272,-2013,-378,790,-3717,32,275,7,-215
0,6907527,272,-2013,-378,790,-3717,32,275,7,-215
0,6907539,263,-2012,-378,821,-3713,54,275,7,-215
0,6907553,263,-2012,-378,821,-3713,54,275,7,-215
0,6907566,264,-2021,-375,813,-3716,72,275,7,-215
0,6907578,263,-2016,-389,798,-3717,86,274,2,-208
0,6907589,263,-2016,-389,798,-3717,86,274,2,-208
0,6907602,263,-2016,-389,798,-3717,86,274,2,-208
0,6907615,263,-2016,-389,798,-3717,86,274,2,-208
0,6907624,257,-2016,-403,766,-3700,99,274,2,-208
0,6907632,257,-2016,-403,766,-3700,99,274,2,-208
0,6907640,262,-2016,-425,747,-3710,102,274,2,-208
0,6907649,262,-2016,-425,747,-3710,102,274,2,-208
0,6907658,259,-2015,-449,744,-3706,120,274,2,-208
0,6907670,259,-2015,-449,744,-3706,120,274,2,-208
0,6907684,262,-2014,-450,758,-3695,131,274,2,-208
0,6907696,262,-2014,-450,758,-3695,131,274,2,-208
0,6907702,260,-2022,-455,741,-3683,146,273,3,-217
0,6907708,260,-2022,-455,741,-3683,146,273,3,-217
0,6907715,260,-2022,-455,741,-3683,146,273,3,-217
0,6907721,260,-2022,-455,741,-3683,146,273,3,-217
0,6907730,260,-2022,-455,741,-3683,146,273,3,-217
0,6907737,270,-2006,-478,690,-3678,151,273,3,-217
0,6907744,270,-2006,-478,690,-3678,151,273,3,-217
0,6907751,270,-2006,-478,690,-3678,151,273,3,-217
0,6907756,265,-2009,-475,702,-3673,154,273,3,-217
0,6907763,265,-2009,-475,702,-3673,154,273,3,-217
0,6907771,265,-2009,-475,702,-3673,154,273,3,-217
0,6907778,273,-2008,-475,707,-3657,148,273,3,-217
0,6907785,273,-2008,-475,707,-3657,148,273,3,-217
0,6907790,273,-2008,-475,707,-3657,148,273,3,-217
0,6907797,265,-2012,-456,705,-3652,152,273,3,-217
0,6907804,265,-2012,-456,705,-3652,152,273,3,-217
0,6907810,265,-2012,-456,705,-3652,152,273,3,-217
0,6907815,265,-2012,-456,705,-3652,152,273,3,-217
0,6907822,273,-2005,-463,697,-3649,150,277,-3,-205
0,6907829,273,-2005,-463,697,-3649,150,277,-3,-205
0,6907836,273,-2005,-463,697,-3649,150,277,-3,-205
0,6907842,279,-2006,-474,699,-3639,160,277,-3,-205
0,6907847,279,-2006,-474,699,-3639,160,277,-3,-205
0,6907852,279,-2006,-474,699,-3639,160,277,-3,-205
0,6907857,272,-1998,-471,710,-3638,169,277,-3,-205
0,6907866,272,-1998,-471,710,-3638,169,277,-3,-205
0,6907874,272,-1998,-471,710,-3638,169,277,-3,-205
0,6907880,285,-1998,-455,719,-3620,176,277,-3,-205
0,6907887,285,-1998,-455,719,-3620,176,277,-3,-205
0,6907894,285,-1998,-455,719,-3620,176,277,-3,-205
0,6907901,275,-1993,-449,718,-3614,192,277,-3,-205
0,6907907,275,-1993,-449,718,-3614,192,277,-3,-205
0,6907915,275,-1993,-449,718,-3614,192,277,-3,-205
0,6907922,284,-2000,-452,735,-3610,200,277,-3,-205
0,6907931,284,-2000,-452,735,-3610,200,277,-3,-205
0,6907938,287,-2007,-439,749,-3606,215,277,-3,-205
0,6907943,287,-2007,-439,749,-3606,215,277,-3,-205
0,6907950,287,-2007,-439,749,-3606,215,277,-3,-205
0,6907958,287,-2007,-439,749,-3606,215,278,0,-210
0,6907964,287,-2007,-439,749,-3606,215,278,0,-210
0,6907970,287,-2007,-439,749,-3606,215,278,0,-210
0,6907975,287,-2007,-439,749,-3606,215,278,0,-210
0,6907982,287,-1998,-410,730,-3589,232,278,0,-210
0,6907991,287,-1998,-410,730,-3589,232,278,0,-210
0,6907997,288,-1994,-420,716,-3584,249,278,0,-210
0,6908004,288,-1994,-420,716,-3584,249,278,0,-210
0,6908011,288,-1994,-420,716,-3584,249,278,0,-210
0,6908018,285,-1996,-430,685,-3579,266,278,0,-210
0,6908024,285,-1996,-430,685,-3579,266,278,0,-210
0,6908030,285,-1996,-430,685,-3579,266,278,0,-210
0,6908040,285,-1990,-406,689,-3573,269,278,0,-210
0,6908047,285,-1990,-406,689,-3573,269,278,0,-210
0,6908053,285,-1990,-406,689,-3573,269,278,0,-210
0,6908060,287,-1989,-408,680,-3570,261,278,0,-210
0,6908066,287,-1989,-408,680,-3570,261,278,0,-210
0,6908073,287,-1989,-408,680,-3570,261,278,0,-210
0,6908081,286,-1987,-426,672,-3562,274,268,-10,-206
0,6908089,286,-1987,-426,672,-3562,274,268,-10,-206
0,6908094,286,-1987,-426,672,-3562,274,268,-10,-206
0,6908102,285,-1998,-423,675,-3550,284,268,-10,-206
0,6908110,285,-1998,-423,675,-3550,284,268,-10,-206
0,6908116,299,-1999,-417,674,-3541,302,268,-10,-206
0,6908123,299,-1999,-417,674,-3541,302,268,-10,-206
0,6908131,299,-1999,-417,674,-3541,302,268,-10,-206
0,6908137,298,-1996,-403,661,-3531,315,268,-10,-206
0,6908144,298,-1996,-403,661,-3531,315,268,-10,-206
0,6908151,298,-1996,-403,661,-3531,315,268,-10,-206
0,6908160,296,-2001,-400,635,-3525,334,268,-10,-206
0,6908167,296,-2001,-400,635,-3525,334,268,-10,-206
0,6908174,296,-2001,-400,635,-3525,334,268,-10,-206
0,6908182,295,-1993,-394,596,-3519,356,268,-10,-206
0,6908188,295,-1993,-394,596,-3519,356,268,-10,-206
0,6908194,295,-1993,-394,596,-3519,356,268,-10,-206
0,6908201,296,-1991,-399,563,-3510,368,268,-10,-206
0,6908210,296,-1991,-399,563,-3510,368,268,-10,-206
0,6908217,298,-1976,-390,558,-3500,391,273,-17,-205
0,6908224,298,-1976,-390,558,-3500,391,273,-17,-205
0,6908231,298,-1976,-390,558,-3500,391,273,-17,-205
0,6908238,288,-1978,-372,581,-3491,396,273,-17,-205
0,6908246,288,-1978,-372,581,-3491,396,273,-17,-205
0,6908253,288,-1978,-372,581,-3491,396,273,-17,-205
0,6908260,298,-1990,-366,570,-3486,403,273,-17,-205
0,6908267,298,-1990,-366,570,-3486,403,273,-17,-205
0,6908274,298,-1990,-366,570,-3486,403,273,-17,-205
0,6908282,292,-1979,-341,543,-3483,408,273,-17,-205
0,6908291,292,-1979,-341,543,-3483,408,273,-17,-205
0,6908300,298,-1984,-354,522,-3474,418,273,-17,-205
0,6908307,298,-1984,-354,522,-3474,418,273,-17,-205
0,6908314,298,-1984,-354,522,-3474,418,273,-17,-205
0,6908322,296,-1976,-358,518,-3465,428,273,-17,-205
0,6908327,296,-1976,-358,518,-3465,428,273,-17,-205
0,6908336,296,-1976,-358,518,-3465,428,273,-17,-205
0,6908343,297,-1971,-341,542,-3465,435,265,-13,-209
0,6908348,297,-1971,-341,542,-3465,435,265,-13,-209
0,6908353,297,-1971,-341,542,-3465,435,265,-13,-209
0,6908359,295,-1977,-333,555,-3455,437,265,-13,-209
0,6908366,295,-1977,-333,555,-3455,437,265,-13,-209
0,6908374,295,-1977,-333,555,-3455,437,265,-13,-209
0,6908381,297,-1977,-327,547,-3461,454,265,-13,-209
0,6908387,297,-1977,-327,547,-3461,454,265,-13,-209
0,6908393,297,-1977,-327,547,-3461,454,265,-13,-209
0,6908398,292,-1974,-336,549,-3440,464,265,-13,-209
0,6908404,292,-1974,-336,549,-3440,464,265,-13,-209
0,6908408,292,-1974,-336,549,-3440,464,265,-13,-209
0,6908414,292,-1974,-336,549,-3440,464,265,-13,-209
0,6908420,299,-1970,-359,538,-3445,478,265,-13,-209
0,6908426,299,-1970,-359,538,-3445,478,265,-13,-209
0,6908430,299,-1970,-359,538,-3445,478,265,-13,-209
0,6908435,299,-1970,-359,538,-3445,478,265,-13,-209
0,6908442,288,-1966,-334,556,-3437,490,265,-13,-209
0,6908450,288,-1966,-334,556,-3437,490,265,-13,-209
0,6908456,288,-1966,-334,556,-3437,490,265,-13,-209
0,6908464,294,-1972,-336,585,-3430,493,274,-12,-204
0,6908471,294,-1972,-336,585,-3430,493,274,-12,-204
0,6908477,294,-1972,-336,585,-3430,493,274,-12,-204
0,6908483,288,-1980,-344,594,-3424,505,274,-12,-204
0,6908492,288,-1980,-344,594,-3424,505,274,-12,-204
0,6908499,294,-1977,-343,577,-3415,520,274,-12,-204
0,6908508,294,-1977,-343,577,-3415,520,274,-12,-204
0,6908515,294,-1977,-343,577,-3415,520,274,-12,-204
0,6908521,293,-1972,-333,569,-3412,540,274,-12,-204
0,6908527,293,-1972,-333,569,-3412,540,274,-12,-204
0,6908534,293,-1972,-333,569,-3412,540,274,-12,-204
0,6908541,293,-1975,-345,545,-3401,549,274,-12,-204
0,6908548,293,-1975,-345,545,-3401,549,274,-12,-204
0,6908556,293,-1975,-345,545,-3401,549,274,-12,-204
0,6908563,294,-1978,-358,538,-3392,560,274,-12,-204
0,6908570,294,-1978,-358,538,-3392,560,274,-12,-204
0,6908577,292,-1974,-363,525,-3389,562,274,-12,-204
0,6908584,292,-1974,-363,525,-3389,562,274,-12,-204
0,6908592,292,-1974,-363,525,-3389,562,274,-12,-204
0,6908598,288,-1975,-367,507,-3375,561,272,-20,-210
0,6908606,288,-1975,-367,507,-3375,561,272,-20,-210
0,6908611,288,-1975,-367,507,-3375,561,272,-20,-210
0,6908617,291,-1979,-382,489,-3371,563,272,-20,-210
0,6908622,291,-1979,-382,489,-3371,563,272,-20,-210
0,6908627,291,-1979,-382,489,-3371,563,272,-20,-210
0,6908633,291,-1979,-382,489,-3371,563,272,-20,-210
0,6908638,286,-1972,-393,491,-3364,578,272,-20,-210
0,6908643,286,-1972,-393,491,-3364,578,272,-20,-210
0,6908648,286,-1972,-393,491,-3364,578,272,-20,-210
0,6908655,286,-1972,-393,491,-3364,578,272,-20,-210
0,6908661,290,-1977,-411,487,-3353,580,272,-20,-210
0,6908668,290,-1977,-411,487,-3353,580,272,-20,-210
0,6908677,290,-1977,-411,487,-3353,580,272,-20,-210
0,6908684,288,-1977,-410,473,-3351,587,272,-20,-210
0,6908691,288,-1977,-410,473,-3351,587,272,-20,-210
0,6908696,288,-1977,-410,473,-3351,587,272,-20,-210
0,6908703,297,-1974,-425,450,-3337,593,272,-20,-210
0,6908711,297,-1974,-425,450,-3337,593,272,-20,-210
0,6908724,287,-1975,-434,434,-3334,602,258,-18,-202
0,6908736,287,-1975,-434,434,-3334,602,258,-18,-202
0,6908748,301,-1974,-455,419,-3313,606,258,-18,-202
0,6908762,295,-1975,-450,416,-3298,616,258,-18,-202
0,6908775,295,-1975,-450,416,-3298,616,258,-18,-202
0,6908788,307,-1979,-453,416,-3281,620,258,-18,-202
0,6908802,296,-1977,-454,408,-3272,625,258,-18,-202
0,6908813,296,-1977,-454,408,-3272,625,258,-18,-202
0,6908825,296,-1970,-470,389,-3263,636,258,-18,-202
0,6908841,305,-1970,-479,394,-3244,647,258,-18,-202
0,6908856,305,-1970,-479,394,-3244,647,258,-18,-202
0,6908864,302,-1970,-466,406,-3232,650,266,-22,-206
0,6908875,302,-1970,-466,406,-3232,650,266,-22,-206
0,6908890,308,-1970,-445,396,-3221,665,266,-22,-206
0,6908902,308,-1968,-452,393,-3211,673,266,-22,-206
0,6908913,308,-1968,-452,393,-3211,673,266,-22,-206
0,6908928,307,-1967,-451,379,-3197,685,266,-22,-206
0,6908941,315,-1958,-435,395,-3181,693,266,-22,-206
0,6908954,315,-1958,-435,395,-3181,693,266,-22,-206
0,6908964,319,-1964,-424,400,-3161,702,266,-22,-206
0,6908976,319,-1964,-424,400,-3161,702,266,-22,-206
0,6908984,318,-1962,-417,411,-3146,723,268,-30,-202
0,6908992,318,-1962,-417,411,-3146,723,268,-30,-202
0,6908999,312,-1955,-416,401,-3141,732,268,-30,-202
0,6909007,312,-1955,-416,401,-3141,732,268,-30,-202
0,6909019,316,-1951,-391,384,-3124,741,268,-30,-202
0,6909030,316,-1951,-391,384,-3124,741,268,-30,-202
0,6909043,305,-1953,-371,381,-3117,750,268,-30,-202
0,6909058,322,-1952,-369,363,-3100,763,268,-30,-202
0,6909069,322,-1952,-369,363,-3100,763,268,-30,-202
0,6909082,311,-1959,-379,344,-3087,777,268,-30,-202
0,6909095,311,-1959,-379,344,-3087,777,268,-30,-202
0,6909109,318,-1958,-377,334,-3077,787,268,-30,-202
0,6909123,309,-1951,-368,324,-3063,783,264,-22,-212
0,6909132,309,-1951,-368,324,-3063,783,264,-22,-212
0,6909144,310,-1943,-337,308,-3052,804,264,-22,-212
0,6909156,310,-1943,-337,308,-3052,804,264,-22,-212
0,6909170,306,-1948,-361,295,-3042,806,264,-22,-212
0,6909181,309,-1949,-353,285,-3026,820,264,-22,-212
0,6909195,309,-1949,-353,285,-3026,820,264,-22,-212
0,6909207,328,-1953,-348,258,-3016,831,264,-22,-212
0,6909220,313,-1954,-332,238,-3002,833,264,-22,-212
0,6909233,313,-1954,-332,238,-3002,833,264,-22,-212
0,6909247,320,-1954,-342,206,-2996,841,254,-32,-222
0,6909258,312,-1945,-349,171,-2983,844,254,-32,-222
0,6909271,312,-1945,-349,171,-2983,844,254,-32,-222
0,6909285,306,-1943,-362,167,-2973,853,254,-32,-222
0,6909297,306,-1943,-362,167,-2973,853,254,-32,-222
0,6909308,309,-1949,-357,169,-2959,864,254,-32,-222
0,6909321,302,-1944,-370,146,-2943,861,254,-32,-222
0,6909335,302,-1944,-370,146,-2943,861,254,-32,-222
0,6909347,311,-1943,-374,120,-2939,865,254,-32,-222
0,6909361,313,-1944,-379,106,-2918,859,256,-36,-226
0,6909374,313,-1944,-379,106,-2918,859,256,-36,-226
0,6909386,319,-1943,-396,121,-2910,865,256,-36,-226
0,6909399,307,-1942,-381,138,-2892,873,256,-36,-226
0,6909407,307,-1942,-381,138,-2892,873,256,-36,-226
0,6909415,307,-1942,-381,138,-2892,873,256,-36,-226
0,6909423,302,-1945,-388,132,-2883,875,256,-36,-226
0,6909431,302,-1945,-388,132,-2883,875,256,-36,-226
0,6909440,302,-1945,-388,132,-2883,875,256,-36,-226
0,6909448,302,-1945,-388,132,-2883,875,256,-36,-226
0,6909455,302,-1945,-388,132,-2883,875,256,-36,-226
0,6909463,311,-1936,-421,157,-2850,880,256,-36,-226
0,6909471,311,-1936,-421,157,-2850,880,256,-36,-226
0,6909479,311,-1938,-394,187,-2841,874,256,-36,-226
0,6909494,311,-1938,-394,187,-2841,874,256,-36,-226
0,6909506,308,-1939,-387,186,-2820,880,256,-24,-226
0,6909516,308,-1939,-387,186,-2820,880,256,-24,-226
0,6909530,304,-1942,-379,183,-2802,881,256,-24,-226
0,6909543,310,-1944,-384,168,-2789,878,256,-24,-226
0,6909554,310,-1944,-384,168,-2789,878,256,-24,-226
0,6909566,308,-1939,-377,141,-2776,881,256,-24,-226
0,6909580,308,-1936,-366,130,-2767,881,256,-24,-226
0,6909594,308,-1936,-366,130,-2767,881,256,-24,-226
0,6909606,311,-1940,-361,115,-2750,880,256,-24,-226
0,6909618,311,-1940,-361,115,-2750,880,256,-24,-226
0,6909625,311,-1944,-354,96,-2739,878,264,-30,-226
0,6909633,311,-1944,-354,96,-2739,878,264,-30,-226
0,6909641,310,-1942,-340,67,-2725,877,264,-30,-226
0,6909650,310,-1942,-340,67,-2725,877,264,-30,-226
0,6909664,315,-1943,-335,26,-2717,883,264,-30,-226
0,6909676,315,-1943,-335,26,-2717,883,264,-30,-226
0,6909685,317,-1938,-342,-15,-2696,889,264,-30,-226
0,6909698,311,-1937,-334,-41,-2684,892,264,-30,-226
0,6909709,311,-1937,-334,-41,-2684,892,264,-30,-226
0,6909716,311,-1937,-334,-41,-2684,892,264,-30,-226
0,6909722,310,-1929,-357,-64,-2665,902,264,-30,-226
0,6909729,310,-1929,-357,-64,-2665,902,264,-30,-226
0,6909735,310,-1929,-357,-64,-2665,902,264,-30,-226
0,6909743,308,-1917,-341,-54,-2654,901,264,-30,-226
0,6909750,308,-1917,-341,-54,-2654,901,264,-30,-226
0,6909758,301,-1928,-328,-28,-2635,903,264,-30,-226
0,6909766,301,-1928,-328,-28,-2635,903,265,-23,-233
0,6909772,301,-1928,-328,-28,-2635,903,265,-23,-233
0,6909777,301,-1928,-328,-28,-2635,903,265,-23,-233
0,6909783,311,-1936,-312,-50,-2620,917,265,-23,-233
0,6909790,311,-1936,-312,-50,-2620,917,265,-23,-233
0,6909798,311,-1936,-312,-50,-2620,917,265,-23,-233
0,6909803,308,-1929,-305,-86,-2612,923,265,-23,-233
0,6909811,308,-1929,-305,-86,-2612,923,265,-23,-233
0,6909817,308,-1929,-305,-86,-2612,923,265,-23,-233
0,6909825,303,-1931,-310,-131,-2598,924,265,-23,-233
0,6909833,303,-1931,-310,-131,-2598,924,265,-23,-233
0,6909840,296,-1922,-310,-162,-2586,929,265,-23,-233
0,6909846,296,-1922,-310,-162,-2586,929,265,-23,-233
0,6909851,296,-1922,-310,-162,-2586,929,265,-23,-233
0,6909858,303,-1921,-298,-188,-2570,942,265,-23,-233
0,6909865,303,-1921,-298,-188,-2570,942,265,-23,-233
0,6909872,303,-1921,-298,-188,-2570,942,265,-23,-233
0,6909880,311,-1920,-312,-186,-2566,945,262,-16,-232
0,6909885,311,-1920,-312,-186,-2566,945,262,-16,-232
0,6909893,311,-1920,-312,-186,-2566,945,262,-16,-232
0,6909900,299,-1917,-282,-174,-2546,946,262,-16,-232
0,6909908,299,-1917,-282,-174,-2546,946,262,-16,-232
0,6909916,299,-1917,-282,-174,-2546,946,262,-16,-232
0,6909924,303,-1926,-297,-175,-2525,951,262,-16,-232
0,6909931,303,-1926,-297,-175,-2525,951,262,-16,-232
0,6909937,303,-1926,-297,-175,-2525,951,262,-16,-232
0,6909945,297,-1918,-280,-188,-2518,970,262,-16,-232
0,6909950,297,-1918,-280,-188,-2518,970,262,-16,-232
0,6909960,298,-1922,-284,-209,-2504,969,262,-16,-232
0,6909966,298,-1922,-284,-209,-2504,969,262,-16,-232
0,6909971,298,-1922,-284,-209,-2504,969,262,-16,-232
0,6909978,296,-1918,-291,-232,-2489,971,262,-16,-232
0,6909985,296,-1918,-291,-232,-2489,971,262,-16,-232
0,6909993,296,-1918,-291,-232,-2489,971,262,-16,-232
0,6910001,293,-1922,-283,-262,-2478,971,262,-16,-232
0,6910008,293,-1922,-283,-262,-2478,971,262,-16,-232
0,6910015,293,-1922,-283,-262,-2478,971,262,-16,-232
0,6910022,295,-1926,-275,-294,-2468,973,257,-23,-241
0,6910029,295,-1926,-275,-294,-2468,973,257,-23,-241
0,6910036,295,-1926,-275,-294,-2468,973,257,-23,-241
0,6910043,292,-1930,-282,-327,-2456,976,257,-23,-241
0,6910049,292,-1930,-282,-327,-2456,976,257,-23,-241
0,6910056,292,-1930,-282,-327,-2456,976,257,-23,-241
0,6910062,297,-1928,-282,-371,-2442,970,257,-23,-241
0,6910068,297,-1928,-282,-371,-2442,970,257,-23,-241
0,6910075,297,-1928,-282,-371,-2442,970,257,-23,-241
0,6910084,292,-1937,-283,-428,-2421,977,257,-23,-241
0,6910091,292,-1937,-283,-428,-2421,977,257,-23,-241
0,6910097,292,-1937,-283,-428,-2421,977,257,-23,-241
0,6910102,291,-1929,-291,-491,-2413,974,257,-23,-241
0,6910110,291,-1929,-291,-491,-2413,974,257,-23,-241
0,6910117,291,-1929,-291,-491,-2413,974,257,-23,-241
0,6910126,285,-1927,-290,-554,-2404,972,257,-23,-241
0,6910133,285,-1927,-290,-554,-2404,972,257,-23,-241
0,6910141,279,-1926,-288,-601,-2391,976,263,-7,-231
0,6910147,279,-1926,-288,-601,-2391,976,263,-7,-231
0,6910154,279,-1926,-288,-601,-2391,976,263,-7,-231
0,6910160,282,-1929,-302,-652,-2382,980,263,-7,-231
0,6910168,282,-1929,-302,-652,-2382,980,263,-7,-231
0,6910176,282,-1929,-302,-652,-2382,980,263,-7,-231
0,6910183,278,-1921,-310,-687,-2368,970,263,-7,-231
0,6910189,278,-1921,-310,-687,-2368,970,263,-7,-231
0,6910196,278,-1921,-310,-687,-2368,970,263,-7,-231
0,6910204,277,-1921,-308,-706,-2359,970,263,-7,-231
0,6910212,277,-1921,-308,-706,-2359,970,263,-7,-231
0,6910218,277,-1921,-308,-706,-2359,970,263,-7,-231
0,6910224,277,-1923,-301,-716,-2333,964,263,-7,-231
0,6910229,277,-1923,-301,-716,-2333,964,263,-7,-231
0,6910234,277,-1923,-301,-716,-2333,964,263,-7,-231
0,6910240,271,-1925,-294,-755,-2327,949,263,-7,-231
0,6910248,271,-1925,-294,-755,-2327,949,263,-7,-231
0,6910256,271,-1925,-294,-755,-2327,949,263,-7,-231
0,6910262,265,-1925,-308,-821,-2319,924,265,-13,-243
0,6910270,265,-1925,-308,-821,-2319,924,265,-13,-243
0,6910277,265,-1925,-308,-821,-2319,924,265,-13,-243
0,6910284,266,-1926,-304,-874,-2313,901,265,-13,-243
0,6910290,266,-1926,-304,-874,-2313,901,265,-13,-243
0,6910299,266,-1926,-304,-874,-2313,901,265,-13,-243
0,6910306,268,-1927,-298,-925,-2312,884,265,-13,-243
0,6910312,268,-1927,-298,-925,-2312,884,265,-13,-243
0,6910319,263,-1930,-302,-982,-2290,878,265,-13,-243
0,6910327,263,-1930,-302,-982,-2290,878,265,-13,-243
0,6910333,263,-1930,-302,-982,-2290,878,265,-13,-243
0,6910340,263,-1926,-318,-1039,-2282,862,265,-13,-243
0,6910347,263,-1926,-318,-1039,-2282,862,265,-13,-243
0,6910355,263,-1926,-318,-1039,-2282,862,265,-13,-243
0,6910361,264,-1921,-315,-1093,-2281,850,265,-13,-243
0,6910369,264,-1921,-315,-1093,-2281,850,265,-13,-243
0,6910377,264,-1921,-315,-1093,-2281,850,265,-13,-243
0,6910385,266,-1927,-308,-1160,-2272,832,265,-13,-243
0,6910392,266,-1927,-308,-1160,-2272,832,265,-13,-243
0,6910399,266,-1927,-308,-1160,-2272,832,265,-13,-243
0,6910404,265,-1927,-286,-1230,-2261,806,252,-18,-238
0,6910409,265,-1927,-286,-1230,-2261,806,252,-18,-238
0,6910414,265,-1927,-286,-1230,-2261,806,252,-18,-238
0,6910419,268,-1927,-304,-1290,-2251,778,252,-18,-238
0,6910425,268,-1927,-304,-1290,-2251,778,252,-18,-238
0,6910429,268,-1927,-304,-1290,-2251,778,252,-18,-238
0,6910434,268,-1927,-304,-1290,-2251,778,252,-18,-238
0,6910442,258,-1916,-295,-1361,-2243,768,252,-18,-238
0,6910448,258,-1916,-295,-1361,-2243,768,252,-18,-238
0,6910454,258,-1916,-295,-1361,-2243,768,252,-18,-238
0,6910462,257,-1918,-276,-1419,-2230,753,252,-18,-238
0,6910471,257,-1918,-276,-1419,-2230,753,252,-18,-238
0,6910479,257,-1918,-276,-1419,-2230,753,252,-18,-238
0,6910486,272,-1914,-225,-1499,-2227,736,252,-18,-238
0,6910494,272,-1914,-225,-1499,-2227,736,252,-18,-238
0,6910500,259,-1910,-233,-1570,-2224,717,252,-18,-238
0,6910508,259,-1910,-233,-1570,-2224,717,252,-18,-238
0,6910515,259,-1910,-233,-1570,-2224,717,252,-18,-238
0,6910523,252,-1902,-234,-1640,-2218,706,247,-3,-247
0,6910530,252,-1902,-234,-1640,-2218,706,247,-3,-247
0,6910536,252,-1902,-234,-1640,-2218,706,247,-3,-247
0,6910543,250,-1901,-188,-1703,-2210,699,247,-3,-247
0,6910551,250,-1901,-188,-1703,-2210,699,247,-3,-247
0,6910558,250,-1901,-188,-1703,-2210,699,247,-3,-247
0,6910565,261,-1899,-185,-1782,-2212,677,247,-3,-247
0,6910573,261,-1899,-185,-1782,-2212,677,247,-3,-247
0,6910579,251,-1894,-187,-1858,-2207,668,247,-3,-247
0,6910586,251,-1894,-187,-1858,-2207,668,247,-3,-247
0,6910595,251,-1894,-187,-1858,-2207,668,247,-3,-247
0,6910602,254,-1888,-153,-1927,-2204,649,247,-3,-247
0,6910609,254,-1888,-153,-1927,-2204,649,247,-3,-247
0,6910615,254,-1888,-153,-1927,-2204,649,247,-3,-247
0,6910621,242,-1885,-147,-1977,-2209,632,247,-3,-247
0,6910626,242,-1885,-147,-1977,-2209,632,247,-3,-247
0,6910630,242,-1885,-147,-1977,-2209,632,247,-3,-247
0,6910636,242,-1885,-147,-1977,-2209,632,247,-3,-247
0,6910641,239,-1887,-103,-2072,-2210,612,247,-3,-247
0,6910646,239,-1887,-103,-2072,-2210,612,247,-3,-247
0,6910654,239,-1887,-103,-2072,-2210,612,247,-3,-247
0,6910661,231,-1869,-95,-2166,-2207,578,241,7,-257
0,6910668,231,-1869,-95,-2166,-2207,578,241,7,-257
0,6910676,231,-1869,-95,-2166,-2207,578,241,7,-257
0,6910684,233,-1863,-95,-2217,-2216,535,241,7,-257
0,6910691,233,-1863,-95,-2217,-2216,535,241,7,-257
0,6910697,233,-1863,-95,-2217,-2216,535,241,7,-257
0,6910706,233,-1872,-26,-2263,-2225,514,241,7,-257
0,6910713,233,-1872,-26,-2263,-2225,514,241,7,-257
0,6910724,231,-1882,-37,-2351,-2228,493,241,7,-257
0,6910737,231,-1882,-37,-2351,-2228,493,241,7,-257
0,6910749,223,-1861,-58,-2447,-2235,475,241,7,-257
0,6910763,206,-1855,-85,-2513,-2251,435,241,7,-257
0,6910776,206,-1855,-85,-2513,-2251,435,241,7,-257
0,6910789,203,-1869,-55,-2552,-2255,390,233,3,-259
0,6910803,206,-1870,51,-2632,-2261,331,233,3,-259
0,6910818,206,-1870,51,-2632,-2261,331,233,3,-259
0,6910831,200,-1851,86,-2734,-2294,291,233,3,-259
0,6910843,188,-1828,17,-2789,-2303,264,233,3,-259
0,6910853,188,-1828,17,-2789,-2303,264,233,3,-259
0,6910862,189,-1867,-24,-2808,-2309,212,233,3,-259
0,6910870,189,-1867,-24,-2808,-2309,212,233,3,-259
0,6910878,189,-1867,-24,-2808,-2309,212,233,3,-259
0,6910888,185,-1863,95,-2893,-2331,163,233,3,-259
0,6910901,194,-1852,30,-3032,-2340,110,241,13,-263
0,6910913,194,-1852,30,-3032,-2340,110,241,13,-263
0,6910925,170,-1834,41,-3070,-2360,54,241,13,-263
0,6910940,170,-1834,41,-3070,-2360,54,241,13,-263
0,6910952,163,-1839,-19,-3081,-2385,-12,241,13,-263
0,6910964,170,-1868,20,-3101,-2385,-90,241,13,-263
0,6910978,170,-1868,20,-3101,-2385,-90,241,13,-263
0,6910991,187,-1893,7,-3193,-2404,-158,241,13,-263
0,6911004,180,-1853,18,-3274,-2416,-198,241,13,-263
0,6911019,180,-1853,18,-3274,-2416,-198,241,13,-263
0,6911032,168,-1853,-24,-3294,-2437,-232,241,13,-263
0,6911042,164,-1860,23,-3287,-2432,-279,236,6,-270
0,6911054,164,-1860,23,-3287,-2432,-279,236,6,-270
0,6911067,146,-1867,15,-3353,-2449,-337,236,6,-270
0,6911080,160,-1846,-10,-3422,-2476,-403,236,6,-270
0,6911091,160,-1846,-10,-3422,-2476,-403,236,6,-270
0,6911106,160,-1846,-10,-3422,-2476,-403,236,6,-270
0,6911118,160,-1846,-10,-3422,-2476,-403,236,6,-270
0,6911131,160,-1868,-22,-3415,-2488,-528,236,6,-270
0,6911144,160,-1868,-22,-3415,-2488,-528,236,6,-270
0,6911157,160,-1868,-22,-3415,-2488,-528,236,6,-270
0,6911168,171,-1881,-10,-3403,-2529,-627,231,13,-275
0,6911180,144,-1873,-41,-3415,-2529,-651,231,13,-275
0,6911193,144,-1873,-41,-3415,-2529,-651,231,13,-275
0,6911205,148,-1857,-60,-3429,-2548,-695,231,13,-275
0,6911217,148,-1857,-60,-3429,-2548,-695,231,13,-275
0,6911229,138,-1863,-58,-3398,-2549,-763,231,13,-275
0,6911243,152,-1880,-81,-3346,-2552,-818,231,13,-275
0,6911256,152,-1880,-81,-3346,-2552,-818,231,13,-275
0,6911268,164,-1894,-67,-3334,-2561,-845,231,13,-275
0,6911277,164,-1894,-67,-3334,-2561,-845,231,13,-275
0,6911290,149,-1890,-74,-3325,-2584,-873,231,13,-275
0,6911302,138,-1878,-105,-3317,-2595,-917,251,9,-293
0,6911314,138,-1878,-105,-3317,-2595,-917,251,9,-293
0,6911326,149,-1886,-111,-3290,-2599,-971,251,9,-293
0,6911339,149,-1886,-111,-3290,-2599,-971,251,9,-293
0,6911351,153,-1896,-139,-3262,-2607,-1009,251,9,-293
0,6911365,156,-1895,-157,-3230,-2621,-1044,251,9,-293
0,6911377,156,-1895,-157,-3230,-2621,-1044,251,9,-293
0,6911388,143,-1893,-160,-3204,-2626,-1066,251,9,-293
0,6911399,143,-1893,-160,-3204,-2626,-1066,251,9,-293
0,6911408,156,-1897,-203,-3159,-2631,-1087,251,9,-293
0,6911416,156,-1897,-203,-3159,-2631,-1087,251,9,-293
0,6911424,141,-1885,-202,-3087,-2643,-1113,258,10,-296
0,6911432,141,-1885,-202,-3087,-2643,-1113,258,10,-296
0,6911440,147,-1898,-208,-2996,-2647,-1130,258,10,-296
0,6911449,147,-1898,-208,-2996,-2647,-1130,258,10,-296
0,6911457,147,-1898,-208,-2996,-2647,-1130,258,10,-296
0,6911466,151,-1908,-227,-2925,-2653,-1157,258,10,-296
0,6911473,151,-1908,-227,-2925,-2653,-1157,258,10,-296
0,6911482,146,-1898,-222,-2867,-2672,-1179,258,10,-296
0,6911491,146,-1898,-222,-2867,-2672,-1179,258,10,-296
0,6911499,146,-1898,-222,-2867,-2672,-1179,258,10,-296
0,6911508,134,-1898,-255,-2819,-2678,-1196,258,10,-296
0,6911517,134,-1898,-255,-2819,-2678,-1196,258,10,-296
0,6911526,149,-1907,-264,-2747,-2686,-1212,258,10,-296
0,6911537,149,-1907,-264,-2747,-2686,-1212,258,10,-296
0,6911545,150,-1913,-260,-2665,-2691,-1232,258,10,-296
0,6911554,150,-1913,-260,-2665,-2691,-1232,258,10,-296
0,6911562,142,-1904,-296,-2599,-2695,-1241,256,10,-306
0,6911571,142,-1904,-296,-2599,-2695,-1241,256,10,-306
0,6911584,147,-1913,-289,-2528,-2706,-1262,256,10,-306
0,6911598,147,-1913,-289,-2528,-2706,-1262,256,10,-306
0,6911610,149,-1918,-307,-2451,-2716,-1269,256,10,-306
0,6911620,149,-1918,-307,-2451,-2716,-1269,256,10,-306
0,6911628,149,-1918,-307,-2451,-2716,-1269,256,10,-306
0,6911636,149,-1918,-307,-2451,-2716,-1269,256,10,-306
0,6911643,151,-1919,-294,-2334,-2734,-1289,256,10,-306
0,6911656,151,-1919,-294,-2334,-2734,-1289,256,10,-306
0,6911668,144,-1918,-352,-2283,-2743,-1305,256,10,-306
0,6911680,144,-1918,-352,-2283,-2743,-1305,256,10,-306
0,6911692,149,-1915,-324,-2219,-2755,-1314,276,12,-310
0,6911705,142,-1927,-309,-2153,-2765,-1329,276,12,-310
0,6911714,142,-1927,-309,-2153,-2765,-1329,276,12,-310
0,6911725,147,-1923,-346,-2084,-2773,-1349,276,12,-310
0,6911731,147,-1923,-346,-2084,-2773,-1349,276,12,-310
0,6911738,147,-1923,-346,-2084,-2773,-1349,276,12,-310
0,6911746,140,-1920,-348,-2006,-2785,-1366,276,12,-310
0,6911753,140,-1920,-348,-2006,-2785,-1366,276,12,-310
0,6911760,140,-1920,-348,-2006,-2785,-1366,276,12,-310
0,6911767,145,-1929,-339,-1912,-2792,-1378,276,12,-310
0,6911775,145,-1929,-339,-1912,-2792,-1378,276,12,-310
0,6911780,145,-1929,-339,-1912,-2792,-1378,276,12,-310
0,6911788,137,-1936,-343,-1844,-2804,-1395,276,12,-310
0,6911796,137,-1936,-343,-1844,-2804,-1395,276,12,-310
0,6911803,145,-1929,-328,-1778,-2822,-1414,283,9,-325
0,6911809,145,-1929,-328,-1778,-2822,-1414,283,9,-325
0,6911816,145,-1929,-328,-1778,-2822,-1414,283,9,-325
0,6911822,120,-1923,-372,-1685,-2826,-1417,283,9,-325
0,6911827,120,-1923,-372,-1685,-2826,-1417,283,9,-325
0,6911835,120,-1923,-372,-1685,-2826,-1417,283,9,-325
0,6911843,142,-1930,-369,-1584,-2826,-1441,283,9,-325
0,6911850,142,-1930,-369,-1584,-2826,-1441,283,9,-325
0,6911857,142,-1930,-369,-1584,-2826,-1441,283,9,-325
0,6911863,134,-1938,-367,-1512,-2844,-1456,283,9,-325
0,6911870,134,-1938,-367,-1512,-2844,-1456,283,9,-325
0,6911877,134,-1938,-367,-1512,-2844,-1456,283,9,-325
0,6911885,132,-1923,-396,-1450,-2854,-1476,283,9,-325
0,6911891,132,-1923,-396,-1450,-2854,-1476,283,9,-325
0,6911897,132,-1923,-396,-1450,-2854,-1476,283,9,-325
0,6911905,144,-1919,-406,-1340,-2865,-1485,283,9,-325
0,6911913,144,-1919,-406,-1340,-2865,-1485,283,9,-325
0,6911921,144,-1919,-406,-1340,-2865,-1485,283,9,-325
0,6911927,116,-1933,-389,-1231,-2874,-1495,283,9,-325
0,6911934,116,-1933,-389,-1231,-2874,-1495,283,9,-325
0,6911942,132,-1934,-414,-1164,-2892,-1516,292,2,-334
0,6911949,132,-1934,-414,-1164,-2892,-1516,292,2,-334
0,6911956,132,-1934,-414,-1164,-2892,-1516,292,2,-334
0,6911964,126,-1925,-425,-1100,-2898,-1537,292,2,-334
0,6911971,126,-1925,-425,-1100,-2898,-1537,292,2,-334
0,6911978,126,-1925,-425,-1100,-2898,-1537,292,2,-334
0,6911983,138,-1923,-444,-998,-2909,-1545,292,2,-334
0,6911988,138,-1923,-444,-998,-2909,-1545,292,2,-334
0,6911993,138,-1923,-444,-998,-2909,-1545,292,2,-334
0,6912002,128,-1940,-441,-885,-2913,-1562,292,2,-334
0,6912009,128,-1940,-441,-885,-2913,-1562,292,2,-334
0,6912015,128,-1940,-441,-885,-2913,-1562,292,2,-334
0,6912021,128,-1934,-436,-796,-2920,-1567,292,2,-334
0,6912028,128,-1934,-436,-796,-2920,-1567,292,2,-334
0,6912034,128,-1934,-436,-796,-2920,-1567,292,2,-334
0,6912040,128,-1934,-436,-796,-2920,-1567,292,2,-334
0,6912047,127,-1923,-467,-730,-2937,-1575,292,2,-334
0,6912054,127,-1923,-467,-730,-2937,-1575,292,2,-334
0,6912062,128,-1928,-453,-623,-2944,-1590,287,9,-333
0,6912069,128,-1928,-453,-623,-2944,-1590,287,9,-333
0,6912076,128,-1928,-453,-623,-2944,-1590,287,9,-333
0,6912082,136,-1942,-432,-519,-2952,-1609,287,9,-333
0,6912090,136,-1942,-432,-519,-2952,-1609,287,9,-333
0,6912098,136,-1942,-432,-519,-2952,-1609,287,9,-333
0,6912105,133,-1943,-427,-455,-2965,-1622,287,9,-333
0,6912112,133,-1943,-427,-455,-2965,-1622,287,9,-333
0,6912119,133,-1943,-427,-455,-2965,-1622,287,9,-333
0,6912128,131,-1940,-445,-411,-2981,-1629,287,9,-333
0,6912134,131,-1940,-445,-411,-2981,-1629,287,9,-333
0,6912142,127,-1942,-431,-353,-2997,-1627,287,9,-333
0,6912150,127,-1942,-431,-353,-2997,-1627,287,9,-333
0,6912156,127,-1942,-431,-353,-2997,-1627,287,9,-333
0,6912162,136,-1944,-432,-277,-3008,-1626,287,9,-333
0,6912169,136,-1944,-432,-277,-3008,-1626,287,9,-333
0,6912178,136,-1944,-432,-277,-3008,-1626,287,9,-333
0,6912184,133,-1952,-411,-203,-3020,-1637,287,9,-333
0,6912191,133,-1952,-411,-203,-3020,-1637,287,9,-333
0,6912196,133,-1952,-411,-203,-3020,-1637,287,9,-333
0,6912203,134,-1940,-424,-126,-3031,-1644,296,-2,-338
0,6912211,134,-1940,-424,-126,-3031,-1644,296,-2,-338
0,6912220,134,-1940,-424,-126,-3031,-1644,296,-2,-338
0,6912226,139,-1945,-425,-33,-3040,-1643,296,-2,-338
0,6912232,139,-1945,-425,-33,-3040,-1643,296,-2,-338
0,6912239,139,-1945,-425,-33,-3040,-1643,296,-2,-338
0,6912247,139,-1945,-425,-33,-3040,-1643,296,-2,-338
0,6912254,139,-1945,-425,-33,-3040,-1643,296,-2,-338
0,6912261,139,-1945,-425,-33,-3040,-1643,296,-2,-338
0,6912267,136,-1951,-422,147,-3072,-1646,296,-2,-338
0,6912274,136,-1951,-422,147,-3072,-1646,296,-2,-338
0,6912280,136,-1951,-422,147,-3072,-1646,296,-2,-338
0,6912287,139,-1950,-430,205,-3095,-1642,296,-2,-338
0,6912294,139,-1950,-430,205,-3095,-1642,296,-2,-338
0,6912303,132,-1954,-432,266,-3105,-1642,296,-2,-338
0,6912310,132,-1954,-432,266,-3105,-1642,296,-2,-338
0,6912316,132,-1954,-432,266,-3105,-1642,296,-2,-338
0,6912322,136,-1955,-418,327,-3117,-1636,303,-9,-337
0,6912330,136,-1955,-418,327,-3117,-1636,303,-9,-337
0,6912337,136,-1955,-418,327,-3117,-1636,303,-9,-337
0,6912345,140,-1956,-412,366,-3134,-1626,303,-9,-337
0,6912351,140,-1956,-412,366,-3134,-1626,303,-9,-337
0,6912358,140,-1956,-412,366,-3134,-1626,303,-9,-337
0,6912366,139,-1959,-426,418,-3154,-1625,303,-9,-337
0,6912373,139,-1959,-426,418,-3154,-1625,303,-9,-337
0,6912381,132,-1964,-421,447,-3162,-1620,303,-9,-337
0,6912389,132,-1964,-421,447,-3162,-1620,303,-9,-337
0,6912395,132,-1964,-421,447,-3162,-1620,303,-9,-337
0,6912401,132,-1964,-421,447,-3162,-1620,303,-9,-337
0,6912406,146,-1963,-415,471,-3176,-1613,303,-9,-337
0,6912411,146,-1963,-415,471,-3176,-1613,303,-9,-337
0,6912416,146,-1963,-415,471,-3176,-1613,303,-9,-337
0,6912421,147,-1965,-422,470,-3192,-1603,303,-9,-337
0,6912427,147,-1965,-422,470,-3192,-1603,303,-9,-337
0,6912432,147,-1965,-422,470,-3192,-1603,303,-9,-337
0,6912438,147,-1965,-422,470,-3192,-1603,303,-9,-337
0,6912443,133,-1965,-419,487,-3207,-1583,303,-9,-337
0,6912449,133,-1965,-419,487,-3207,-1583,303,-9,-337
0,6912456,133,-1965,-419,487,-3207,-1583,303,-9,-337
0,6912460,133,-1965,-419,487,-3207,-1583,303,-9,-337
0,6912468,137,-1965,-423,495,-3218,-1579,300,6,-332
0,6912475,137,-1965,-423,495,-3218,-1579,300,6,-332
0,6912482,155,-1974,-430,490,-3234,-1559,300,6,-332
0,6912489,155,-1974,-430,490,-3234,-1559,300,6,-332
0,6912495,155,-1974,-430,490,-3234,-1559,300,6,-332
0,6912501,155,-1974,-430,490,-3234,-1559,300,6,-332
0,6912509,137,-1975,-420,499,-3252,-1535,300,6,-332
0,6912516,137,-1975,-420,499,-3252,-1535,300,6,-332
0,6912524,137,-1975,-420,499,-3252,-1535,300,6,-332
0,6912531,137,-1975,-420,499,-3252,-1535,300,6,-332
0,6912538,137,-1975,-420,499,-3252,-1535,300,6,-332
0,6912544,139,-1973,-426,479,-3280,-1493,300,6,-332
0,6912550,139,-1973,-426,479,-3280,-1493,300,6,-332
0,6912558,139,-1973,-426,479,-3280,-1493,300,6,-332
0,6912565,153,-1974,-412,462,-3295,-1480,300,6,-332
0,6912573,153,-1974,-412,462,-3295,-1480,300,6,-332
0,6912580,153,-1974,-412,462,-3295,-1480,300,6,-332
0,6912588,151,-1993,-395,438,-3306,-1480,303,5,-347
0,6912596,151,-1993,-395,438,-3306,-1480,303,5,-347
0,6912604,149,-1989,-381,374,-3319,-1462,303,5,-347
0,6912611,149,-1989,-381,374,-3319,-1462,303,5,-347
0,6912617,149,-1989,-381,374,-3319,-1462,303,5,-347
0,6912622,143,-1989,-406,265,-3329,-1452,303,5,-347
0,6912627,143,-1989,-406,265,-3329,-1452,303,5,-347
0,6912632,143,-1989,-406,265,-3329,-1452,303,5,-347
0,6912637,143,-1989,-406,265,-3329,-1452,303,5,-347
0,6912643,145,-1975,-422,200,-3349,-1442,303,5,-347
0,6912649,145,-1975,-422,200,-3349,-1442,303,5,-347
0,6912655,145,-1975,-422,200,-3349,-1442,303,5,-347
0,6912662,149,-1979,-443,169,-3352,-1440,303,5,-347
0,6912668,149,-1979,-443,169,-3352,-1440,303,5,-347
0,6912673,149,-1979,-443,169,-3352,-1440,303,5,-347
0,6912679,149,-1979,-443,169,-3352,-1440,303,5,-347
0,6912685,146,-1978,-425,154,-3358,-1438,303,5,-347
0,6912690,146,-1978,-425,154,-3358,-1438,303,5,-347
0,6912696,146,-1978,-425,154,-3358,-1438,303,5,-347
0,6912702,144,-1966,-461,140,-3375,-1436,303,5,-347
0,6912707,144,-1966,-461,140,-3375,-1436,287,3,-341
0,6912713,144,-1966,-461,140,-3375,-1436,287,3,-341
0,6912717,144,-1966,-461,140,-3375,-1436,287,3,-341
0,6912723,145,-1965,-450,160,-3376,-1445,287,3,-341
0,6912729,145,-1965,-450,160,-3376,-1445,287,3,-341
0,6912739,145,-1965,-450,160,-3376,-1445,287,3,-341
0,6912747,135,-1976,-440,178,-3384,-1447,287,3,-341
0,6912756,135,-1976,-440,178,-3384,-1447,287,3,-341
0,6912765,135,-1976,-440,178,-3384,-1447,287,3,-341
0,6912779,135,-1976,-440,178,-3384,-1447,287,3,-341
0,6912791,134,-1980,-418,161,-3415,-1449,287,3,-341
0,6912803,141,-1967,-462,147,-3406,-1454,287,3,-341
0,6912817,141,-1967,-462,147,-3406,-1454,287,3,-341
0,6912825,148,-1965,-477,172,-3417,-1466,287,3,-341
0,6912833,148,-1965,-477,172,-3417,-1466,287,3,-341
0,6912841,148,-1965,-477,172,-3417,-1466,287,3,-341
0,6912852,143,-1963,-452,226,-3431,-1474,282,0,-342
0,6912867,151,-1983,-460,270,-3432,-1470,282,0,-342
0,6912880,151,-1983,-460,270,-3432,-1470,282,0,-342
0,6912892,152,-1980,-439,297,-3445,-1462,282,0,-342
0,6912902,152,-1980,-439,297,-3445,-1462,282,0,-342
0,6912914,154,-1980,-460,307,-3448,-1454,282,0,-342
0,6912927,147,-1975,-471,342,-3461,-1442,282,0,-342
0,6912941,147,-1975,-471,342,-3461,-1442,282,0,-342
0,6912952,143,-1967,-422,414,-3466,-1435,282,0,-342
0,6912965,159,-1985,-422,472,-3479,-1422,271,1,-333
0,6912977,159,-1985,-422,472,-3479,-1422,271,1,-333
0,6912991,159,-1991,-411,491,-3495,-1414,271,1,-333
0,6913002,159,-1991,-411,491,-3495,-1414,271,1,-333
0,6913015,153,-1993,-406,488,-3498,-1422,271,1,-333
0,6913030,154,-1991,-396,486,-3507,-1414,271,1,-333
0,6913044,157,-1988,-389,483,-3517,-1403,271,1,-333
0,6913053,157,-1988,-389,483,-3517,-1403,271,1,-333
0,6913067,143,-1991,-422,496,-3523,-1391,271,1,-333
0,6913080,143,-1991,-422,496,-3523,-1391,271,1,-333
0,6913093,163,-1984,-429,508,-3523,-1372,271,1,-333
0,6913103,160,-1991,-415,523,-3539,-1367,273,3,-341
0,6913117,160,-1991,-415,523,-3539,-1367,273,3,-341
0,6913129,176,-1997,-440,539,-3547,-1352,273,3,-341
0,6913143,171,-1999,-433,532,-3560,-1326,273,3,-341
0,6913157,171,-1999,-433,532,-3560,-1326,273,3,-341
0,6913169,168,-1996,-452,534,-3562,-1306,273,3,-341
0,6913182,168,-1996,-452,534,-3562,-1306,273,3,-341
0,6913192,156,-1998,-428,524,-3577,-1275,273,3,-341
0,6913205,158,-1994,-443,496,-3583,-1261,273,3,-341
0,6913218,158,-1994,-443,496,-3583,-1261,273,3,-341
0,6913230,157,-1987,-447,497,-3590,-1241,273,9,-333
0,6913244,167,-1995,-456,492,-3597,-1236,273,9,-333
0,6913258,167,-1995,-456,492,-3597,-1236,273,9,-333
0,6913270,176,-2003,-439,503,-3592,-1230,273,9,-333
0,6913283,171,-2000,-436,479,-3611,-1216,273,9,-333
0,6913297,171,-2000,-436,479,-3611,-1216,273,9,-333
0,6913309,169,-1995,-442,476,-3620,-1205,273,9,-333
0,6913320,169,-1995,-442,476,-3620,-1205,273,9,-333
0,6913334,168,-1999,-467,486,-3620,-1194,273,9,-333
0,6913348,166,-2001,-437,492,-3628,-1183,265,5,-333
0,6913361,166,-2001,-437,492,-3628,-1183,265,5,-333
0,6913371,173,-2003,-435,504,-3631,-1169,265,5,-333
0,6913383,176,-2004,-430,519,-3637,-1160,265,5,-333
0,6913394,176,-2004,-430,519,-3637,-1160,265,5,-333
0,6913403,176,-2003,-443,530,-3645,-1149,265,5,-333
0,6913412,176,-2003,-443,530,-3645,-1149,265,5,-333
0,6913420,176,-2003,-443,530,-3645,-1149,265,5,-333
0,6913427,178,-1993,-431,556,-3650,-1132,265,5,-333
0,6913436,178,-1993,-431,556,-3650,-1132,265,5,-333
0,6913443,181,-1996,-430,595,-3667,-1119,265,5,-333
0,6913453,181,-1996,-430,595,-3667,-1119,265,5,-333
0,6913461,181,-1996,-430,595,-3667,-1119,265,5,-333
0,6913469,168,-2002,-420,639,-3669,-1108,265,5,-333
0,6913476,168,-2002,-420,639,-3669,-1108,265,5,-333
0,6913484,170,-2005,-409,652,-3671,-1111,263,7,-327
0,6913492,170,-2005,-409,652,-3671,-1111,263,7,-327
0,6913503,170,-2010,-403,639,-3678,-1107,263,7,-327
0,6913516,170,-2010,-403,639,-3678,-1107,263,7,-327
0,6913530,171,-2016,-401,629,-3679,-1103,263,7,-327
0,6913540,171,-2016,-401,629,-3679,-1103,263,7,-327
0,6913549,170,-2015,-406,619,-3689,-1105,263,7,-327
0,6913558,170,-2015,-406,619,-3689,-1105,263,7,-327
0,6913565,169,-2008,-416,609,-3695,-1099,263,7,-327
0,6913573,169,-2008,-416,609,-3695,-1099,263,7,-327
0,6913586,176,-2000,-439,622,-3697,-1096,263,7,-327
0,6913598,176,-2000,-439,622,-3697,-1096,263,7,-327
0,6913607,171,-2001,-412,665,-3710,-1095,266,16,-334
0,6913617,171,-2001,-412,665,-3710,-1095,266,16,-334
0,6913625,173,-2013,-407,695,-3702,-1084,266,16,-334
0,6913633,173,-2013,-407,695,-3702,-1084,266,16,-334
0,6913641,173,-2013,-407,695,-3702,-1084,266,16,-334
0,6913653,169,-2015,-413,701,-3709,-1094,266,16,-334
0,6913666,169,-2017,-405,691,-3722,-1088,266,16,-334
0,6913678,169,-2017,-405,691,-3722,-1088,266,16,-334
0,6913691,178,-2023,-398,668,-3729,-1079,266,16,-334
0,6913703,185,-2019,-410,665,-3729,-1083,266,16,-334
0,6913716,185,-2019,-410,665,-3729,-1083,266,16,-334
0,6913727,182,-2013,-407,676,-3731,-1075,266,16,-334
0,6913738,182,-2013,-407,676,-3731,-1075,266,16,-334
0,6913745,188,-2018,-413,688,-3735,-1071,256,6,-338
0,6913753,188,-2018,-413,688,-3735,-1071,256,6,-338
0,6913760,188,-2018,-413,688,-3735,-1071,256,6,-338
0,6913768,192,-2019,-405,684,-3731,-1068,256,6,-338
0,6913775,192,-2019,-405,684,-3731,-1068,256,6,-338
0,6913782,192,-2019,-405,684,-3731,-1068,256,6,-338
0,6913790,191,-2025,-408,673,-3743,-1065,256,6,-338
0,6913797,191,-2025,-408,673,-3743,-1065,256,6,-338
0,6913804,200,-2027,-423,679,-3742,-1054,256,6,-338
0,6913811,200,-2027,-423,679,-3742,-1054,256,6,-338
0,6913818,200,-2027,-423,679,-3742,-1054,256,6,-338
0,6913823,189,-2023,-408,684,-3752,-1040,256,6,-338
0,6913830,189,-2023,-408,684,-3752,-1040,256,6,-338
0,6913836,189,-2023,-408,684,-3752,-1040,256,6,-338
0,6913845,204,-2023,-435,683,-3749,-1026,256,6,-338
0,6913851,204,-2023,-435,683,-3749,-1026,256,6,-338
0,6913857,204,-2023,-435,683,-3749,-1026,256,6,-338
0,6913864,199,-2026,-439,690,-3753,-1013,254,10,-330
0,6913870,199,-2026,-439,690,-3753,-1013,254,10,-330
0,6913878,199,-2026,-439,690,-3753,-1013,254,10,-330
0,6913884,211,-2022,-443,689,-3761,-983,254,10,-330
0,6913892,211,-2022,-443,689,-3761,-983,254,10,-330
0,6913898,211,-2022,-443,689,-3761,-983,254,10,-330
0,6913905,211,-2022,-443,689,-3761,-983,254,10,-330
0,6913913,211,-2022,-443,689,-3761,-983,254,10,-330
0,6913921,211,-2022,-443,689,-3761,-983,254,10,-330
0,6913929,200,-2021,-466,697,-3764,-925,254,10,-330
0,6913936,200,-2021,-466,697,-3764,-925,254,10,-330
0,6913942,200,-2021,-466,697,-3764,-925,254,10,-330
0,6913948,205,-2024,-480,705,-3765,-895,254,10,-330
0,6913955,205,-2024,-480,705,-3765,-895,254,10,-330
0,6913964,201,-2018,-488,712,-3765,-873,254,10,-330
0,6913970,201,-2018,-488,712,-3765,-873,254,10,-330
0,6913977,201,-2018,-488,712,-3765,-873,254,10,-330
0,6913984,209,-2021,-475,719,-3764,-855,254,10,-330
0,6913992,209,-2021,-475,719,-3764,-855,254,10,-330
0,6913998,209,-2021,-475,719,-3764,-855,254,10,-330
0,6914007,212,-2018,-490,724,-3772,-842,251,17,-333
0,6914013,212,-2018,-490,724,-3772,-842,251,17,-333
0,6914020,212,-2018,-490,724,-3772,-842,251,17,-333
0,6914025,218,-2018,-512,733,-3775,-810,251,17,-333
0,6914033,218,-2018,-512,733,-3775,-810,251,17,-333
0,6914040,218,-2018,-512,733,-3775,-810,251,17,-333
0,6914048,210,-2019,-487,764,-3777,-784,251,17,-333
0,6914054,210,-2019,-487,764,-3777,-784,251,17,-333
0,6914062,210,-2019,-487,764,-3777,-784,251,17,-333
0,6914068,222,-2020,-479,783,-3770,-757,251,17,-333
0,6914074,222,-2020,-479,783,-3770,-757,251,17,-333
0,6914081,222,-2020,-479,783,-3770,-757,251,17,-333
0,6914088,212,-2021,-475,781,-3772,-746,251,17,-333
0,6914095,212,-2021,-475,781,-3772,-746,251,17,-333
0,6914102,212,-2021,-475,781,-3772,-746,251,17,-333
0,6914108,212,-2021,-475,781,-3772,-746,251,17,-333
0,6914113,212,-2021,-475,781,-3772,-746,251,17,-333
0,6914119,212,-2021,-475,781,-3772,-746,251,17,-333
0,6914126,221,-2022,-475,761,-3778,-723,256,18,-338
0,6914135,221,-2022,-475,761,-3778,-723,256,18,-338
0,6914141,221,-2022,-475,761,-3778,-723,256,18,-338
0,6914148,222,-2022,-460,759,-3784,-701,256,18,-338
0,6914154,222,-2022,-460,759,-3784,-701,256,18,-338
0,6914159,222,-2022,-460,759,-3784,-701,256,18,-338
0,6914166,224,-2025,-457,739,-3775,-681,256,18,-338
0,6914172,224,-2025,-457,739,-3775,-681,256,18,-338
0,6914181,224,-2025,-457,739,-3775,-681,256,18,-338
0,6914189,226,-2018,-450,747,-3781,-671,256,18,-338
0,6914196,226,-2018,-450,747,-3781,-671,256,18,-338
0,6914203,226,-2018,-450,747,-3781,-671,256,18,-338
0,6914211,218,-2019,-406,769,-3783,-667,256,18,-338
0,6914217,218,-2019,-406,769,-3783,-667,256,18,-338
0,6914226,223,-2029,-415,776,-3776,-659,256,18,-338
0,6914233,223,-2029,-415,776,-3776,-659,256,18,-338
0,6914239,223,-2029,-415,776,-3776,-659,256,18,-338
0,6914246,217,-2029,-405,769,-3790,-640,257,13,-327
0,6914253,217,-2029,-405,769,-3790,-640,257,13,-327
0,6914259,217,-2029,-405,769,-3790,-640,257,13,-327
0,6914265,222,-2031,-388,753,-3786,-632,257,13,-327
0,6914272,222,-2031,-388,753,-3786,-632,257,13,-327
0,6914280,222,-2031,-388,753,-3786,-632,257,13,-327
0,6914286,220,-2033,-380,739,-3791,-623,257,13,-327
0,6914293,220,-2033,-380,739,-3791,-623,257,13,-327
0,6914300,220,-2033,-380,739,-3791,-623,257,13,-327
0,6914308,225,-2025,-390,733,-3792,-595,257,13,-327
0,6914315,225,-2025,-390,733,-3792,-595,257,13,-327
0,6914322,225,-2025,-390,733,-3792,-595,257,13,-327
0,6914330,225,-2025,-390,733,-3792,-595,257,13,-327
0,6914336,225,-2025,-390,733,-3792,-595,257,13,-327
0,6914340,225,-2025,-390,733,-3792,-595,257,13,-327
0,6914349,213,-2025,-390,764,-3799,-575,257,13,-327
0,6914356,213,-2025,-390,764,-3799,-575,257,13,-327
0,6914363,213,-2025,-390,764,-3799,-575,257,13,-327
0,6914370,225,-2029,-385,754,-3801,-566,257,13,-327
0,6914378,225,-2029,-385,754,-3801,-566,257,13,-327
0,6914385,213,-2025,-378,739,-3803,-562,257,21,-327
0,6914392,213,-2025,-378,739,-3803,-562,257,21,-327
0,6914399,213,-2025,-378,739,-3803,-562,257,21,-327
0,6914404,219,-2022,-397,738,-3808,-555,257,21,-327
0,6914409,219,-2022,-397,738,-3808,-555,257,21,-327
0,6914414,219,-2022,-397,738,-3808,-555,257,21,-327
0,6914419,219,-2022,-397,738,-3808,-555,257,21,-327
0,6914424,218,-2026,-398,749,-3806,-555,257,21,-327
0,6914429,218,-2026,-398,749,-3806,-555,257,21,-327
0,6914435,218,-2026,-398,749,-3806,-555,257,21,-327
0,6914443,218,-2026,-398,749,-3806,-555,257,21,-327
0,6914449,233,-2029,-390,757,-3806,-553,257,21,-327
0,6914455,233,-2029,-390,757,-3806,-553,257,21,-327
0,6914463,233,-2029,-390,757,-3806,-553,257,21,-327
0,6914470,223,-2031,-403,768,-3806,-545,257,21,-327
0,6914478,223,-2031,-403,768,-3806,-545,257,21,-327
0,6914485,230,-2023,-414,767,-3803,-519,257,21,-327
0,6914493,230,-2023,-414,767,-3803,-519,257,21,-327
0,6914500,230,-2023,-414,767,-3803,-519,257,21,-327
0,6914506,220,-2023,-414,774,-3813,-512,254,18,-330
0,6914514,220,-2023,-414,774,-3813,-512,254,18,-330
0,6914521,220,-2023,-414,774,-3813,-512,254,18,-330
0,6914528,222,-2023,-416,790,-3809,-502,254,18,-330
0,6914535,222,-2023,-416,790,-3809,-502,254,18,-330
0,6914541,222,-2023,-416,790,-3809,-502,254,18,-330
0,6914549,211,-2019,-431,797,-3809,-500,254,18,-330
0,6914556,211,-2019,-431,797,-3809,-500,254,18,-330
0,6914565,216,-2022,-418,791,-3807,-517,254,18,-330
0,6914573,216,-2022,-418,791,-3807,-517,254,18,-330
0,6914579,216,-2022,-418,791,-3807,-517,254,18,-330
0,6914585,230,-2017,-423,812,-3813,-520,254,18,-330
0,6914591,230,-2017,-423,812,-3813,-520,254,18,-330
0,6914598,230,-2017,-423,812,-3813,-520,254,18,-330
0,6914607,238,-2026,-417,861,-3807,-502,254,18,-330
0,6914613,238,-2026,-417,861,-3807,-502,254,18,-330
0,6914618,238,-2026,-417,861,-3807,-502,254,18,-330
0,6914623,238,-2026,-417,861,-3807,-502,254,18,-330
0,6914628,238,-2037,-414,880,-3810,-492,254,18,-330
0,6914633,238,-2037,-414,880,-3810,-492,254,18,-330
0,6914638,238,-2037,-414,880,-3810,-492,254,18,-330
0,6914643,238,-2037,-414,880,-3810,-492,254,18,-330
0,6914649,235,-2033,-393,880,-3807,-482,266,24,-324
0,6914656,235,-2033,-393,880,-3807,-482,266,24,-324
0,6914663,235,-2033,-393,880,-3807,-482,266,24,-324
0,6914670,228,-2031,-406,867,-3805,-469,266,24,-324
0,6914675,228,-2031,-406,867,-3805,-469,266,24,-324
0,6914683,228,-2031,-406,867,-3805,-469,266,24,-324
0,6914691,228,-2028,-408,854,-3808,-453,266,24,-324
0,6914697,228,-2028,-408,854,-3808,-453,266,24,-324
0,6914704,228,-2028,-408,854,-3808,-453,266,24,-324
0,6914710,233,-2038,-426,838,-3806,-443,266,24,-324
0,6914717,233,-2038,-426,838,-3806,-443,266,24,-324
0,6914725,237,-2030,-390,833,-3799,-422,266,24,-324
0,6914733,237,-2030,-390,833,-3799,-422,266,24,-324
0,6914740,237,-2030,-390,833,-3799,-422,266,24,-324
0,6914752,243,-2029,-404,819,-3807,-416,266,24,-324
0,6914762,243,-2029,-404,819,-3807,-416,266,24,-324
0,6914775,235,-2030,-401,816,-3802,-385,252,26,-332
0,6914787,237,-2026,-426,814,-3801,-378,252,26,-332
0,6914800,237,-2026,-426,814,-3801,-378,252,26,-332
0,6914811,239,-2022,-421,816,-3801,-355,252,26,-332
0,6914824,239,-2022,-421,816,-3801,-355,252,26,-332
0,6914837,233,-2030,-415,825,-3801,-347,252,26,-332
0,6914851,233,-2030,-415,825,-3801,-347,252,26,-332
0,6914863,233,-2030,-415,825,-3801,-347,252,26,-332
0,6914874,246,-2032,-412,824,-3802,-310,252,26,-332
0,6914889,248,-2032,-415,809,-3804,-286,252,26,-332
0,6914902,248,-2032,-415,809,-3804,-286,252,26,-332
0,6914913,241,-2029,-407,782,-3798,-258,261,29,-321
0,6914926,235,-2027,-433,754,-3791,-246,261,29,-321
0,6914939,235,-2027,-433,754,-3791,-246,261,29,-321
0,6914949,243,-2026,-448,738,-3788,-239,261,29,-321
0,6914961,243,-2026,-448,738,-3788,-239,261,29,-321
0,6914973,238,-2013,-451,740,-3792,-242,261,29,-321
0,6914987,242,-2022,-438,768,-3779,-234,261,29,-321
0,6915000,242,-2022,-438,768,-3779,-234,261,29,-321
0,6915012,252,-2027,-445,760,-3782,-232,261,29,-321
0,6915025,252,-2031,-441,741,-3780,-216,260,34,-322
0,6915039,252,-2031,-441,741,-3780,-216,260,34,-322
0,6915052,255,-2021,-458,732,-3771,-207,260,34,-322
0,6915065,255,-2015,-451,734,-3773,-196,260,34,-322
0,6915079,255,-2015,-451,734,-3773,-196,260,34,-322
0,6915090,251,-2017,-445,763,-3771,-182,260,34,-322
0,6915103,251,-2017,-445,763,-3771,-182,260,34,-322
0,6915117,255,-2024,-443,784,-3767,-167,260,34,-322
0,6915130,258,-2029,-449,779,-3758,-157,260,34,-322
0,6915143,258,-2029,-449,779,-3758,-157,260,34,-322
0,6915158,254,-2022,-450,758,-3753,-143,273,35,-319
0,6915170,256,-2012,-448,750,-3755,-142,273,35,-319
0,6915181,256,-2012,-448,750,-3755,-142,273,35,-319
0,6915192,264,-2003,-472,789,-3748,-127,273,35,-319
0,6915205,260,-2019,-468,837,-3743,-122,273,35,-319
0,6915218,260,-2019,-468,837,-3743,-122,273,35,-319
0,6915230,265,-2026,-457,832,-3738,-94,273,35,-319
0,6915243,265,-2026,-457,832,-3738,-94,273,35,-319
0,6915255,265,-2022,-445,810,-3734,-67,273,35,-319
0,6915267,256,-2018,-445,809,-3724,-40,273,35,-319
0,6915279,256,-2018,-445,809,-3724,-40,273,35,-319
0,6915294,265,-2013,-442,795,-3727,-24,275,37,-315
0,6915306,257,-2015,-442,784,-3714,-18,275,37,-315
0,6915320,257,-2015,-442,784,-3714,-18,275,37,-315
0,6915334,269,-2011,-421,770,-3714,-18,275,37,-315
0,6915346,265,-2006,-438,776,-3710,-7,275,37,-315
0,6915358,265,-2006,-438,776,-3710,-7,275,37,-315
0,6915369,272,-2013,-428,796,-3704,6,275,37,-315
0,6915383,272,-2013,-428,796,-3704,6,275,37,-315
0,6915395,270,-2016,-427,814,-3694,22,275,37,-315
0,6915403,270,-2016,-427,814,-3694,22,275,37,-315
0,6915411,271,-2016,-401,792,-3700,36,273,57,-321
0,6915420,271,-2016,-401,792,-3700,36,273,57,-321
0,6915428,276,-2016,-410,763,-3697,45,273,57,-321
