imu,time,ax,ay,az,gx,gy,gz,mx,my,mz
2,8206957,-3472,-1694,-557,-162,-242,-85,324,158,-240
2,8206961,-3472,-1694,-557,-162,-242,-85,324,158,-240
2,8206966,-3472,-1694,-557,-162,-242,-85,324,158,-240
2,8206971,-3472,-1694,-557,-162,-242,-85,324,158,-240
2,8206977,-3472,-1694,-557,-164,-242,-85,324,158,-240
2,8206982,-3472,-1694,-557,-164,-242,-85,324,158,-240
2,8206987,-3472,-1694,-557,-164,-242,-85,324,158,-240
2,8206992,-3472,-1694,-557,-164,-242,-85,324,158,-240
2,8206997,-3473,-1694,-560,-161,-247,-87,324,158,-240
2,8207002,-3473,-1694,-560,-161,-247,-87,324,158,-240
2,8207007,-3473,-1694,-560,-161,-247,-87,324,158,-240
2,8207012,-3473,-1694,-560,-161,-247,-87,324,158,-240
2,8207019,-3473,-1693,-563,-164,-240,-80,324,158,-240
2,8207026,-3473,-1693,-563,-164,-240,-80,324,158,-240
2,8207033,-3473,-1693,-563,-164,-240,-80,324,158,-240
2,8207040,-3471,-1694,-565,-158,-245,-77,324,158,-240
2,8207046,-3471,-1694,-565,-158,-245,-77,324,158,-240
2,8207054,-3471,-1694,-565,-158,-245,-77,324,158,-240
2,8207062,-3472,-1692,-559,-164,-244,-83,324,158,-240
2,8207068,-3472,-1692,-559,-164,-244,-83,324,158,-240
2,8207075,-3472,-1692,-559,-164,-244,-83,324,158,-240
2,8207081,-3471,-1694,-555,-163,-244,-86,322,172,-254
2,8207089,-3471,-1694,-555,-163,-244,-86,322,172,-254
2,8207096,-3469,-1694,-560,-169,-245,-80,322,172,-254
2,8207105,-3469,-1694,-560,-169,-245,-80,322,172,-254
2,8207111,-3469,-1694,-560,-169,-245,-80,322,172,-254
2,8207117,-3473,-1692,-560,-162,-237,-84,322,172,-254
2,8207125,-3473,-1692,-560,-162,-237,-84,322,172,-254
2,8207131,-3473,-1692,-560,-162,-237,-84,322,172,-254
2,8207138,-3470,-1691,-556,-154,-241,-83,322,172,-254
2,8207145,-3470,-1691,-556,-154,-241,-83,322,172,-254
2,8207152,-3470,-1691,-556,-154,-241,-83,322,172,-254
2,8207158,-3470,-1692,-563,-152,-244,-80,322,172,-254
2,8207167,-3470,-1692,-563,-152,-244,-80,322,172,-254
2,8207174,-3470,-1692,-563,-152,-244,-80,322,172,-254
2,8207181,-3470,-1695,-558,-164,-245,-82,322,172,-254
2,8207188,-3470,-1695,-558,-164,-245,-82,322,172,-254
2,8207195,-3470,-1695,-558,-164,-245,-82,322,172,-254
2,8207202,-3471,-1696,-558,-164,-241,-84,316,166,-242
2,8207208,-3471,-1696,-558,-164,-241,-84,316,166,-242
2,8207215,-3471,-1694,-556,-165,-247,-89,316,166,-242
2,8207221,-3471,-1694,-556,-165,-247,-89,316,166,-242
2,8207228,-3471,-1694,-556,-165,-247,-89,316,166,-242
2,8207235,-3471,-1694,-556,-165,-247,-89,316,166,-242
2,8207243,-3473,-1696,-562,-161,-247,-88,316,166,-242
2,8207249,-3473,-1696,-562,-161,-247,-88,316,166,-242
2,8207255,-3473,-1696,-562,-161,-247,-88,316,166,-242
2,8207262,-3472,-1696,-556,-161,-242,-83,316,166,-242
2,8207268,-3472,-1696,-556,-161,-242,-83,316,166,-242
2,8207275,-3472,-1696,-556,-161,-242,-83,316,166,-242
2,8207281,-3470,-1694,-561,-162,-243,-79,316,166,-242
2,8207289,-3470,-1694,-561,-162,-243,-79,316,166,-242
2,8207296,-3467,-1695,-561,-163,-243,-80,316,166,-242
2,8207302,-3467,-1695,-561,-163,-243,-80,316,166,-242
2,8207308,-3467,-1695,-561,-163,-243,-80,316,166,-242
2,8207315,-3467,-1695,-561,-163,-243,-80,316,166,-242
2,8207322,-3470,-1694,-558,-158,-244,-85,310,170,-246
2,8207329,-3470,-1694,-558,-158,-244,-85,310,170,-246
2,8207337,-3469,-1694,-560,-152,-235,-83,310,170,-246
2,8207343,-3469,-1694,-560,-152,-235,-83,310,170,-246
2,8207350,-3469,-1694,-560,-152,-235,-83,310,170,-246
2,8207356,-3470,-1693,-560,-157,-238,-81,310,170,-246
2,8207363,-3470,-1693,-560,-157,-238,-81,310,170,-246
2,8207370,-3470,-1693,-560,-157,-238,-81,310,170,-246
2,8207377,-3468,-1695,-556,-166,-242,-84,310,170,-246
2,8207384,-3468,-1695,-556,-166,-242,-84,310,170,-246
2,8207389,-3468,-1695,-556,-166,-242,-84,310,170,-246
2,8207397,-3472,-1694,-562,-158,-248,-86,310,170,-246
2,8207404,-3472,-1694,-562,-158,-248,-86,310,170,-246
2,8207412,-3472,-1694,-562,-158,-248,-86,310,170,-246
2,8207417,-3473,-1694,-563,-158,-257,-86,310,170,-246
2,8207422,-3473,-1694,-563,-158,-257,-86,310,170,-246
2,8207429,-3473,-1694,-563,-158,-257,-86,310,170,-246
2,8207436,-3473,-1693,-560,-165,-251,-87,310,170,-246
2,8207443,-3473,-1693,-560,-165,-251,-87,310,170,-246
2,8207450,-3473,-1693,-560,-165,-251,-87,310,170,-246
2,8207457,-3473,-1694,-555,-169,-242,-91,319,167,-247
2,8207463,-3473,-1694,-555,-169,-242,-91,319,167,-247
2,8207471,-3473,-1694,-555,-169,-242,-91,319,167,-247
2,8207478,-3470,-1695,-558,-165,-248,-76,319,167,-247
2,8207484,-3470,-1695,-558,-165,-248,-76,319,167,-247
2,8207491,-3470,-1695,-558,-165,-248,-76,319,167,-247
2,8207498,-3473,-1693,-560,-170,-247,-73,319,167,-247
2,8207506,-3473,-1693,-560,-170,-247,-73,319,167,-247
2,8207513,-3473,-1693,-560,-170,-247,-73,319,167,-247
2,8207520,-3468,-1692,-562,-167,-237,-82,319,167,-247
2,8207528,-3468,-1692,-562,-167,-237,-82,319,167,-247
2,8207535,-3468,-1692,-562,-167,-237,-82,319,167,-247
2,8207542,-3470,-1691,-557,-161,-245,-81,319,167,-247
2,8207548,-3470,-1691,-557,-161,-245,-81,319,167,-247
2,8207555,-3470,-1691,-557,-161,-245,-81,319,167,-247
2,8207562,-3469,-1691,-556,-156,-245,-81,319,167,-247
2,8207569,-3469,-1691,-556,-156,-245,-81,319,167,-247
2,8207576,-3474,-1692,-559,-162,-244,-86,319,167,-247
2,8207582,-3474,-1692,-559,-162,-244,-86,314,172,-240
2,8207589,-3474,-1692,-559,-162,-244,-86,314,172,-240
2,8207595,-3474,-1692,-559,-162,-244,-86,314,172,-240
2,8207601,-3470,-1692,-561,-158,-245,-81,314,172,-240
2,8207607,-3470,-1692,-561,-158,-245,-81,314,172,-240
2,8207614,-3470,-1692,-561,-158,-245,-81,314,172,-240
2,8207623,-3470,-1693,-564,-165,-236,-79,314,172,-240
2,8207630,-3470,-1693,-564,-165,-236,-79,314,172,-240
2,8207636,-3470,-1693,-564,-165,-236,-79,314,172,-240
2,8207641,-3471,-1691,-559,-165,-239,-78,314,172,-240
2,8207648,-3471,-1691,-559,-165,-239,-78,314,172,-240
2,8207654,-3471,-1691,-559,-165,-239,-78,314,172,-240
2,8207663,-3468,-1690,-562,-160,-247,-83,314,172,-240
2,8207669,-3468,-1690,-562,-160,-247,-83,314,172,-240
2,8207675,-3468,-1690,-562,-160,-247,-83,314,172,-240
2,8207682,-3470,-1693,-564,-156,-243,-90,314,172,-240
2,8207688,-3470,-1693,-564,-156,-243,-90,314,172,-240
2,8207695,-3470,-1693,-564,-156,-243,-90,314,172,-240
2,8207700,-3469,-1693,-555,-160,-242,-88,318,166,-250
2,8207706,-3469,-1693,-555,-160,-242,-88,318,166,-250
2,8207711,-3469,-1693,-555,-160,-242,-88,318,166,-250
2,8207716,-3471,-1694,-561,-166,-250,-94,318,166,-250
2,8207721,-3471,-1694,-561,-166,-250,-94,318,166,-250
2,8207726,-3471,-1694,-561,-166,-250,-94,318,166,-250
2,8207732,-3471,-1694,-561,-166,-250,-94,318,166,-250
2,8207739,-3470,-1694,-564,-164,-247,-76,318,166,-250
2,8207746,-3470,-1694,-564,-164,-247,-76,318,166,-250
2,8207751,-3470,-1694,-564,-164,-247,-76,318,166,-250
2,8207756,-3470,-1694,-564,-164,-247,-76,318,166,-250
2,8207761,-3469,-1691,-564,-156,-241,-79,318,166,-250
2,8207766,-3469,-1691,-564,-156,-241,-79,318,166,-250
2,8207772,-3469,-1691,-564,-156,-241,-79,318,166,-250
2,8207778,-3474,-1695,-558,-163,-239,-83,318,166,-250
2,8207783,-3474,-1695,-558,-163,-239,-83,318,166,-250
2,8207789,-3474,-1695,-558,-163,-239,-83,318,166,-250
2,8207794,-3474,-1695,-558,-163,-239,-83,318,166,-250
2,8207800,-3469,-1691,-561,-162,-236,-85,318,166,-250
2,8207805,-3469,-1691,-561,-162,-236,-85,318,166,-250
2,8207810,-3469,-1691,-561,-162,-236,-85,318,166,-250
2,8207815,-3469,-1691,-561,-162,-236,-85,318,166,-250
2,8207821,-3470,-1690,-558,-160,-237,-88,320,160,-246
2,8207826,-3470,-1690,-558,-160,-237,-88,320,160,-246
2,8207833,-3470,-1690,-558,-160,-237,-88,320,160,-246
2,8207838,-3472,-1692,-560,-162,-247,-87,320,160,-246
2,8207844,-3472,-1692,-560,-162,-247,-87,320,160,-246
2,8207849,-3472,-1692,-560,-162,-247,-87,320,160,-246
2,8207855,-3472,-1692,-560,-162,-247,-87,320,160,-246
2,8207860,-3472,-1692,-560,-160,-250,-87,320,160,-246
2,8207866,-3472,-1692,-560,-160,-250,-87,320,160,-246
2,8207872,-3472,-1692,-560,-160,-250,-87,320,160,-246
2,8207878,-3471,-1691,-554,-162,-233,-84,320,160,-246
2,8207883,-3471,-1691,-554,-162,-233,-84,320,160,-246
2,8207888,-3471,-1691,-554,-162,-233,-84,320,160,-246
2,8207894,-3471,-1691,-554,-162,-233,-84,320,160,-246
2,8207900,-3471,-1692,-556,-159,-243,-85,320,160,-246
2,8207905,-3471,-1692,-556,-159,-243,-85,320,160,-246
2,8207911,-3471,-1692,-556,-159,-243,-85,320,160,-246
2,8207917,-3473,-1692,-562,-161,-247,-88,320,160,-246
2,8207922,-3473,-1692,-562,-161,-247,-88,320,160,-246
2,8207927,-3473,-1692,-562,-161,-247,-88,320,160,-246
2,8207932,-3473,-1692,-562,-161,-247,-88,320,160,-246
2,8207937,-3473,-1695,-560,-159,-242,-86,310,164,-246
2,8207942,-3473,-1695,-560,-159,-242,-86,310,164,-246
2,8207947,-3473,-1695,-560,-159,-242,-86,310,164,-246
2,8207953,-3473,-1695,-560,-159,-242,-86,310,164,-246
2,8207963,-3473,-1690,-562,-162,-241,-84,310,164,-246
2,8207972,-3473,-1690,-562,-162,-241,-84,310,164,-246
2,8207981,-3469,-1690,-558,-159,-236,-90,310,164,-246
2,8207988,-3469,-1690,-558,-159,-236,-90,310,164,-246
2,8207998,-3469,-1692,-563,-157,-230,-87,310,164,-246
2,8208007,-3469,-1692,-563,-157,-230,-87,310,164,-246
2,8208015,-3469,-1692,-563,-157,-230,-87,310,164,-246
2,8208030,-3472,-1694,-556,-164,-242,-82,310,164,-246
2,8208043,-3475,-1692,-566,-157,-252,-85,310,164,-246
2,8208056,-3475,-1692,-566,-157,-252,-85,310,164,-246
2,8208068,-3472,-1693,-560,-171,-242,-88,310,164,-246
2,8208080,-3472,-1693,-560,-171,-242,-88,316,170,-248
2,8208090,-3472,-1693,-560,-171,-242,-88,316,170,-248
2,8208103,-3472,-1691,-562,-170,-243,-84,316,170,-248
2,8208116,-3472,-1691,-562,-170,-243,-84,316,170,-248
2,8208131,-3471,-1693,-563,-163,-247,-87,316,170,-248
2,8208144,-3475,-1689,-558,-169,-251,-83,316,170,-248
2,8208154,-3475,-1689,-558,-169,-251,-83,316,170,-248
2,8208164,-3472,-1693,-563,-162,-245,-80,316,170,-248
2,8208178,-3472,-1694,-563,-168,-246,-83,316,170,-248
2,8208190,-3472,-1694,-563,-168,-246,-83,316,170,-248
2,8208204,-3472,-1692,-558,-165,-247,-88,317,167,-233
2,8208214,-3472,-1692,-558,-165,-247,-88,317,167,-233
2,8208227,-3471,-1690,-563,-163,-246,-81,317,167,-233
2,8208240,-3471,-1696,-560,-164,-235,-84,317,167,-233
2,8208253,-3471,-1696,-560,-164,-235,-84,317,167,-233
2,8208268,-3472,-1690,-565,-164,-243,-87,317,167,-233
2,8208281,-3470,-1693,-560,-160,-244,-89,317,167,-233
2,8208294,-3470,-1693,-560,-160,-244,-89,317,167,-233
2,8208308,-3470,-1694,-563,-170,-248,-85,317,167,-233
2,8208320,-3470,-1693,-554,-166,-251,-90,312,164,-254
2,8208333,-3470,-1693,-554,-166,-251,-90,312,164,-254
2,8208348,-3469,-1695,-561,-160,-252,-86,312,164,-254
2,8208361,-3473,-1695,-558,-155,-246,-87,312,164,-254
2,8208374,-3473,-1695,-558,-155,-246,-87,312,164,-254
2,8208388,-3469,-1690,-556,-162,-247,-80,312,164,-254
2,8208400,-3470,-1694,-563,-166,-238,-86,312,164,-254
2,8208413,-3470,-1694,-563,-166,-238,-86,312,164,-254
2,8208427,-3472,-1693,-563,-161,-244,-82,312,164,-254
2,8208441,-3471,-1690,-556,-161,-248,-89,307,179,-251
2,8208451,-3471,-1690,-556,-161,-248,-89,307,179,-251
2,8208463,-3470,-1693,-561,-162,-238,-87,307,179,-251
2,8208478,-3472,-1694,-559,-160,-245,-89,307,179,-251
2,8208490,-3472,-1694,-559,-160,-245,-89,307,179,-251
2,8208503,-3471,-1695,-562,-164,-243,-84,307,179,-251
2,8208518,-3468,-1695,-562,-163,-245,-90,307,179,-251
2,8208530,-3468,-1695,-562,-163,-245,-90,307,179,-251
2,8208543,-3470,-1693,-557,-168,-241,-85,307,179,-251
2,8208556,-3470,-1693,-557,-168,-241,-85,307,179,-251
2,8208568,-3470,-1689,-562,-159,-242,-86,320,162,-250
2,8208581,-3472,-1693,-558,-163,-245,-88,320,162,-250
2,8208594,-3472,-1693,-558,-163,-245,-88,320,162,-250
2,8208607,-3472,-1693,-558,-163,-245,-88,320,162,-250
2,8208620,-3471,-1690,-564,-169,-244,-90,320,162,-250
2,8208632,-3471,-1690,-564,-169,-244,-90,320,162,-250
2,8208645,-3472,-1693,-563,-160,-236,-83,320,162,-250
2,8208658,-3474,-1694,-555,-158,-240,-83,320,162,-250
2,8208671,-3474,-1694,-555,-158,-240,-83,320,162,-250
2,8208685,-3473,-1689,-563,-165,-251,-85,320,162,-250
2,8208697,-3473,-1692,-559,-161,-250,-86,320,162,-250
2,8208705,-3473,-1692,-559,-161,-250,-86,314,170,-252
2,8208713,-3473,-1692,-559,-161,-250,-86,314,170,-252
2,8208720,-3471,-1689,-558,-157,-249,-77,314,170,-252
2,8208729,-3471,-1689,-558,-157,-249,-77,314,170,-252
2,8208741,-3468,-1691,-560,-162,-245,-81,314,170,-252
2,8208751,-3468,-1691,-560,-162,-245,-81,314,170,-252
2,8208760,-3470,-1692,-562,-167,-238,-84,314,170,-252
2,8208769,-3470,-1692,-562,-167,-238,-84,314,170,-252
2,8208778,-3471,-1694,-565,-161,-248,-85,314,170,-252
2,8208786,-3471,-1694,-565,-161,-248,-85,314,170,-252
2,8208795,-3471,-1694,-565,-161,-248,-85,314,170,-252
2,8208807,-3468,-1693,-565,-168,-250,-81,314,170,-252
2,8208820,-3473,-1695,-557,-164,-248,-87,321,167,-241
2,8208833,-3473,-1695,-557,-164,-248,-87,321,167,-241
2,8208846,-3470,-1695,-559,-167,-251,-86,321,167,-241
2,8208860,-3470,-1695,-559,-159,-240,-79,321,167,-241
2,8208875,-3470,-1695,-559,-159,-240,-79,321,167,-241
2,8208886,-3468,-1691,-558,-160,-249,-86,321,167,-241
2,8208899,-3469,-1689,-560,-163,-240,-87,321,167,-241
2,8208912,-3469,-1689,-560,-163,-240,-87,321,167,-241
2,8208925,-3469,-1692,-563,-168,-248,-90,321,167,-241
2,8208936,-3469,-1692,-563,-168,-248,-90,321,167,-241
2,8208945,-3470,-1694,-558,-164,-240,-85,315,165,-243
2,8208958,-3469,-1692,-558,-168,-239,-85,315,165,-243
2,8208967,-3469,-1692,-558,-168,-239,-85,315,165,-243
2,8208973,-3469,-1692,-558,-168,-239,-85,315,165,-243
2,8208980,-3471,-1690,-556,-170,-242,-88,315,165,-243
2,8208987,-3471,-1690,-556,-170,-242,-88,315,165,-243
2,8208993,-3471,-1690,-556,-170,-242,-88,315,165,-243
2,8209000,-3472,-1695,-563,-165,-244,-88,315,165,-243
2,8209007,-3472,-1695,-563,-165,-244,-88,315,165,-243
2,8209013,-3472,-1695,-563,-165,-244,-88,315,165,-243
2,8209020,-3471,-1692,-561,-157,-237,-88,315,165,-243
2,8209027,-3471,-1692,-561,-157,-237,-88,315,165,-243
2,8209033,-3471,-1692,-561,-157,-237,-88,315,165,-243
2,8209039,-3468,-1696,-564,-160,-243,-82,315,165,-243
2,8209045,-3468,-1696,-564,-160,-243,-82,315,165,-243
2,8209052,-3468,-1696,-564,-160,-243,-82,315,165,-243
2,8209059,-3469,-1690,-557,-166,-244,-86,317,167,-251
2,8209064,-3469,-1690,-557,-166,-244,-86,317,167,-251
2,8209071,-3469,-1690,-557,-166,-244,-86,317,167,-251
2,8209078,-3471,-1694,-559,-163,-242,-89,317,167,-251
2,8209085,-3471,-1694,-559,-163,-242,-89,317,167,-251
2,8209091,-3471,-1694,-559,-163,-242,-89,317,167,-251
2,8209097,-3471,-1694,-559,-163,-242,-89,317,167,-251
2,8209103,-3472,-1692,-562,-157,-249,-83,317,167,-251
2,8209111,-3472,-1692,-562,-157,-249,-83,317,167,-251
2,8209117,-3472,-1692,-562,-157,-249,-83,317,167,-251
2,8209124,-3471,-1693,-559,-159,-250,-85,317,167,-251
2,8209131,-3471,-1693,-559,-159,-250,-85,317,167,-251
2,8209137,-3474,-1693,-562,-157,-242,-84,317,167,-251
2,8209144,-3474,-1693,-562,-157,-242,-84,317,167,-251
2,8209150,-3474,-1693,-562,-157,-242,-84,317,167,-251
2,8209157,-3474,-1693,-562,-157,-242,-84,317,167,-251
2,8209163,-3471,-1692,-561,-155,-243,-81,317,167,-251
2,8209171,-3471,-1692,-561,-155,-243,-81,317,167,-251
2,8209177,-3471,-1692,-561,-155,-243,-81,317,167,-251
2,8209183,-3473,-1694,-557,-158,-237,-84,317,169,-245
2,8209190,-3473,-1694,-557,-158,-237,-84,317,169,-245
2,8209197,-3473,-1694,-557,-158,-237,-84,317,169,-245
2,8209203,-3473,-1695,-562,-164,-241,-85,317,169,-245
2,8209209,-3473,-1695,-562,-164,-241,-85,317,169,-245
2,8209216,-3473,-1695,-562,-164,-241,-85,317,169,-245
2,8209222,-3470,-1693,-561,-166,-244,-87,317,169,-245
2,8209229,-3470,-1693,-561,-166,-244,-87,317,169,-245
2,8209234,-3470,-1693,-561,-166,-244,-87,317,169,-245
2,8209242,-3470,-1694,-561,-165,-241,-91,317,169,-245
2,8209248,-3470,-1694,-561,-165,-241,-91,317,169,-245
2,8209254,-3470,-1694,-561,-165,-241,-91,317,169,-245
2,8209261,-3469,-1692,-559,-165,-242,-92,317,169,-245
2,8209268,-3469,-1692,-559,-165,-242,-92,317,169,-245
2,8209275,-3469,-1692,-559,-165,-242,-92,317,169,-245
2,8209282,-3468,-1692,-567,-160,-242,-90,317,169,-245
2,8209288,-3468,-1692,-567,-160,-242,-90,317,169,-245
2,8209295,-3468,-1692,-567,-160,-242,-90,317,169,-245
2,8209301,-3471,-1694,-564,-164,-243,-91,317,169,-245
2,8209308,-3471,-1694,-564,-164,-243,-91,317,169,-245
2,8209315,-3471,-1694,-564,-164,-243,-91,317,169,-245
2,8209321,-3471,-1692,-564,-162,-240,-73,316,168,-242
2,8209328,-3471,-1692,-564,-162,-240,-73,316,168,-242
2,8209333,-3471,-1692,-564,-162,-240,-73,316,168,-242
2,8209340,-3471,-1690,-554,-163,-248,-90,316,168,-242
2,8209345,-3471,-1690,-554,-163,-248,-90,316,168,-242
2,8209351,-3471,-1690,-554,-163,-248,-90,316,168,-242
2,8209359,-3473,-1691,-566,-159,-248,-90,316,168,-242
2,8209366,-3473,-1691,-566,-159,-248,-90,316,168,-242
2,8209372,-3473,-1691,-566,-159,-248,-90,316,168,-242
2,8209379,-3471,-1692,-563,-166,-252,-87,316,168,-242
2,8209385,-3471,-1692,-563,-166,-252,-87,316,168,-242
2,8209391,-3471,-1692,-563,-166,-252,-87,316,168,-242
2,8209397,-3471,-1692,-563,-166,-252,-87,316,168,-242
2,8209403,-3470,-1694,-561,-166,-251,-85,316,168,-242
2,8209411,-3470,-1694,-561,-166,-251,-85,316,168,-242
2,8209418,-3470,-1694,-561,-166,-251,-85,316,168,-242
2,8209424,-3469,-1694,-561,-168,-251,-81,316,168,-242
2,8209430,-3469,-1694,-561,-168,-251,-81,316,168,-242
2,8209436,-3469,-1694,-561,-168,-251,-81,316,168,-242
2,8209443,-3472,-1692,-556,-164,-240,-85,318,166,-244
2,8209451,-3472,-1692,-556,-164,-240,-85,318,166,-244
2,8209457,-3472,-1692,-556,-164,-240,-85,318,166,-244
2,8209463,-3472,-1694,-558,-158,-246,-89,318,166,-244
2,8209469,-3472,-1694,-558,-158,-246,-89,318,166,-244
2,8209475,-3472,-1694,-558,-158,-246,-89,318,166,-244
2,8209482,-3473,-1692,-562,-165,-248,-83,318,166,-244
2,8209488,-3473,-1692,-562,-165,-248,-83,318,166,-244
2,8209496,-3473,-1692,-562,-165,-248,-83,318,166,-244
2,8209502,-3470,-1694,-560,-165,-248,-86,318,166,-244
2,8209508,-3470,-1694,-560,-165,-248,-86,318,166,-244
2,8209515,-3470,-1694,-560,-165,-248,-86,318,166,-244
2,8209521,-3471,-1690,-557,-158,-249,-83,318,166,-244
2,8209528,-3471,-1690,-557,-158,-249,-83,318,166,-244
2,8209534,-3471,-1690,-557,-158,-249,-83,318,166,-244
2,8209543,-3471,-1692,-562,-160,-249,-86,318,166,-244
2,8209550,-3471,-1692,-562,-160,-249,-86,318,166,-244
2,8209556,-3471,-1692,-562,-160,-249,-86,318,166,-244
2,8209563,-3472,-1693,-555,-161,-246,-83,325,167,-237
2,8209570,-3472,-1693,-555,-161,-246,-83,325,167,-237
2,8209576,-3472,-1693,-555,-161,-246,-83,325,167,-237
2,8209584,-3470,-1694,-556,-166,-247,-84,325,167,-237
2,8209591,-3470,-1694,-556,-166,-247,-84,325,167,-237
2,8209598,-3473,-1692,-562,-164,-248,-90,325,167,-237
2,8209604,-3473,-1692,-562,-164,-248,-90,325,167,-237
2,8209610,-3473,-1692,-562,-164,-248,-90,325,167,-237
2,8209616,-3473,-1692,-562,-164,-248,-90,325,167,-237
2,8209625,-3468,-1693,-562,-167,-245,-91,325,167,-237
2,8209631,-3468,-1693,-562,-167,-245,-91,325,167,-237
2,8209638,-3468,-1693,-562,-167,-245,-91,325,167,-237
2,8209642,-3469,-1692,-558,-156,-240,-85,325,167,-237
2,8209649,-3469,-1692,-558,-156,-240,-85,325,167,-237
2,8209655,-3469,-1692,-558,-156,-240,-85,325,167,-237
2,8209662,-3468,-1694,-563,-162,-244,-80,325,167,-237
2,8209669,-3468,-1694,-563,-162,-244,-80,325,167,-237
2,8209676,-3468,-1694,-563,-162,-244,-80,325,167,-237
2,8209683,-3470,-1693,-551,-169,-242,-81,310,174,-248
2,8209690,-3470,-1693,-551,-169,-242,-81,310,174,-248
2,8209696,-3470,-1693,-551,-169,-242,-81,310,174,-248
2,8209701,-3475,-1694,-557,-161,-243,-82,310,174,-248
2,8209707,-3475,-1694,-557,-161,-243,-82,310,174,-248
2,8209712,-3475,-1694,-557,-161,-243,-82,310,174,-248
2,8209717,-3475,-1694,-557,-161,-243,-82,310,174,-248
2,8209722,-3467,-1690,-558,-163,-243,-82,310,174,-248
2,8209727,-3467,-1690,-558,-163,-243,-82,310,174,-248
2,8209732,-3467,-1690,-558,-163,-243,-82,310,174,-248
2,8209738,-3468,-1692,-559,-169,-245,-88,310,174,-248
2,8209744,-3468,-1692,-559,-169,-245,-88,310,174,-248
2,8209752,-3468,-1692,-559,-169,-245,-88,310,174,-248
2,8209758,-3471,-1693,-562,-167,-243,-86,310,174,-248
2,8209765,-3471,-1693,-562,-167,-243,-86,310,174,-248
2,8209772,-3471,-1693,-562,-167,-243,-86,310,174,-248
2,8209778,-3470,-1693,-563,-161,-239,-86,310,174,-248
2,8209785,-3470,-1693,-563,-161,-239,-86,310,174,-248
2,8209793,-3470,-1693,-563,-161,-239,-86,310,174,-248
2,8209799,-3472,-1690,-561,-160,-238,-86,313,169,-243
2,8209805,-3472,-1690,-561,-160,-238,-86,313,169,-243
2,8209811,-3472,-1690,-561,-160,-238,-86,313,169,-243
2,8209818,-3472,-1692,-558,-165,-242,-85,313,169,-243
2,8209824,-3472,-1692,-558,-165,-242,-85,313,169,-243
2,8209831,-3472,-1692,-558,-165,-242,-85,313,169,-243
2,8209839,-3472,-1692,-563,-166,-251,-87,313,169,-243
2,8209845,-3472,-1692,-563,-166,-251,-87,313,169,-243
2,8209851,-3472,-1692,-563,-166,-251,-87,313,169,-243
2,8209858,-3472,-1693,-563,-162,-249,-85,313,169,-243
2,8209864,-3472,-1693,-563,-162,-249,-85,313,169,-243
2,8209870,-3472,-1693,-563,-162,-249,-85,313,169,-243
2,8209878,-3472,-1693,-563,-162,-249,-85,313,169,-243
2,8209884,-3472,-1691,-564,-164,-238,-83,313,169,-243
2,8209891,-3472,-1691,-564,-164,-238,-83,313,169,-243
2,8209897,-3472,-1691,-564,-164,-238,-83,313,169,-243
2,8209903,-3470,-1692,-557,-162,-241,-83,313,169,-243
2,8209909,-3470,-1692,-557,-162,-241,-83,313,169,-243
2,8209916,-3470,-1692,-557,-162,-241,-83,313,169,-243
2,8209923,-3470,-1693,-561,-167,-248,-80,313,169,-243
2,8209929,-3470,-1693,-561,-167,-248,-80,313,169,-243
2,8209935,-3470,-1693,-561,-167,-248,-80,313,169,-243
2,8209942,-3471,-1690,-553,-166,-244,-74,314,162,-248
2,8209948,-3471,-1690,-553,-166,-244,-74,314,162,-248
2,8209955,-3471,-1690,-553,-166,-244,-74,314,162,-248
2,8209963,-3472,-1692,-561,-161,-243,-83,314,162,-248
2,8209970,-3472,-1692,-561,-161,-243,-83,314,162,-248
2,8209983,-3469,-1692,-565,-165,-237,-82,314,162,-248
2,8209996,-3469,-1692,-565,-165,-237,-82,314,162,-248
2,8210010,-3470,-1695,-560,-170,-239,-85,314,162,-248
2,8210023,-3472,-1698,-561,-165,-247,-84,314,162,-248
2,8210036,-3472,-1698,-561,-165,-247,-84,314,162,-248
2,8210051,-3469,-1691,-560,-166,-242,-85,314,162,-248
2,8210065,-3473,-1692,-557,-160,-247,-85,322,168,-242
2,8210079,-3472,-1695,-561,-159,-240,-86,322,168,-242
2,8210093,-3472,-1695,-561,-159,-240,-86,322,168,-242
2,8210106,-3472,-1694,-562,-162,-239,-80,322,168,-242
2,8210119,-3473,-1692,-564,-164,-240,-85,322,168,-242
2,8210132,-3473,-1692,-564,-164,-240,-85,322,168,-242
2,8210146,-3473,-1692,-565,-165,-238,-84,322,168,-242
2,8210160,-3470,-1695,-561,-161,-240,-84,322,168,-242
2,8210170,-3470,-1695,-561,-161,-240,-84,322,168,-242
2,8210184,-3469,-1692,-559,-160,-235,-90,307,173,-243
2,8210197,-3469,-1692,-559,-160,-235,-90,307,173,-243
2,8210210,-3472,-1691,-563,-162,-239,-87,307,173,-243
2,8210225,-3472,-1696,-558,-163,-237,-81,307,173,-243
2,8210238,-3472,-1696,-558,-163,-237,-81,307,173,-243
2,8210251,-3471,-1689,-556,-160,-241,-81,307,173,-243
2,8210265,-3469,-1693,-558,-163,-238,-86,307,173,-243
2,8210278,-3469,-1693,-558,-163,-238,-86,307,173,-243
2,8210291,-3471,-1691,-558,-159,-235,-88,307,173,-243
2,8210304,-3473,-1689,-558,-157,-239,-92,313,175,-245
2,8210318,-3473,-1689,-558,-157,-239,-92,313,175,-245
2,8210341,-3473,-1689,-566,-161,-241,-85,313,175,-245
2,8210354,-3473,-1689,-566,-161,-241,-85,313,175,-245
2,8210367,-3471,-1692,-558,-165,-241,-79,313,175,-245
2,8210380,-3472,-1693,-558,-165,-241,-81,313,175,-245
2,8210394,-3472,-1693,-558,-165,-241,-81,313,175,-245
2,8210405,-3470,-1694,-562,-162,-237,-77,313,175,-245
2,8210415,-3470,-1694,-562,-162,-237,-77,313,175,-245
2,8210428,-3473,-1691,-562,-162,-240,-81,320,168,-240
2,8210443,-3468,-1693,-563,-158,-240,-77,320,168,-240
2,8210456,-3468,-1693,-563,-158,-240,-77,320,168,-240
2,8210469,-3468,-1694,-561,-156,-243,-77,320,168,-240
2,8210494,-3470,-1692,-559,-159,-238,-83,320,168,-240
2,8210505,-3469,-1693,-560,-161,-246,-91,320,168,-240
2,8210518,-3469,-1693,-560,-161,-246,-91,320,168,-240
2,8210530,-3471,-1694,-561,-162,-245,-88,320,168,-240
2,8210541,-3471,-1694,-558,-167,-242,-82,315,169,-249
2,8210554,-3471,-1694,-558,-167,-242,-82,315,169,-249
2,8210565,-3469,-1694,-558,-164,-239,-86,315,169,-249
2,8210578,-3469,-1694,-558,-164,-239,-86,315,169,-249
2,8210591,-3470,-1691,-560,-160,-248,-90,315,169,-249
2,8210605,-3470,-1694,-558,-161,-240,-85,315,169,-249
2,8210618,-3470,-1694,-558,-161,-240,-85,315,169,-249
2,8210631,-3471,-1691,-561,-168,-239,-88,315,169,-249
2,8210643,-3468,-1693,-563,-163,-242,-87,315,169,-249
2,8210659,-3470,-1690,-563,-164,-240,-83,315,169,-249
2,8210669,-3470,-1690,-563,-164,-240,-83,315,169,-249
2,8210681,-3474,-1693,-560,-165,-243,-83,316,168,-252
2,8210692,-3474,-1693,-560,-165,-243,-83,316,168,-252
2,8210704,-3470,-1693,-562,-171,-242,-72,316,168,-252
2,8210711,-3470,-1693,-562,-171,-242,-72,316,168,-252
2,8210719,-3473,-1693,-561,-171,-236,-82,316,168,-252
2,8210728,-3473,-1693,-561,-171,-236,-82,316,168,-252
2,8210737,-3473,-1693,-561,-171,-236,-82,316,168,-252
2,8210751,-3471,-1694,-560,-161,-238,-79,316,168,-252
2,8210765,-3467,-1691,-561,-159,-237,-80,316,168,-252
2,8210774,-3467,-1691,-561,-159,-237,-80,316,168,-252
2,8210784,-3466,-1694,-567,-160,-235,-85,316,168,-252
2,8210797,-3466,-1694,-567,-160,-235,-85,316,168,-252
2,8210810,-3470,-1693,-556,-166,-235,-76,317,165,-247
2,8210823,-3470,-1694,-556,-165,-241,-83,317,165,-247
2,8210834,-3470,-1694,-556,-165,-241,-83,317,165,-247
2,8210842,-3470,-1691,-563,-162,-240,-80,317,165,-247
2,8210850,-3470,-1691,-563,-162,-240,-80,317,165,-247
2,8210859,-3470,-1693,-563,-163,-240,-83,317,165,-247
2,8210871,-3470,-1693,-563,-163,-240,-83,317,165,-247
2,8210883,-3471,-1693,-560,-153,-249,-81,317,165,-247
2,8210896,-3471,-1693,-560,-153,-249,-81,317,165,-247
2,8210906,-3471,-1693,-559,-156,-247,-92,317,165,-247
2,8210919,-3471,-1693,-559,-156,-247,-92,317,165,-247
2,8210927,-3472,-1694,-560,-163,-252,-89,322,166,-244
2,8210936,-3472,-1694,-560,-163,-252,-89,322,166,-244
2,8210945,-3468,-1694,-555,-159,-243,-83,322,166,-244
2,8210953,-3468,-1694,-555,-159,-243,-83,322,166,-244
2,8210961,-3473,-1693,-559,-161,-242,-75,322,166,-244
2,8210969,-3473,-1693,-559,-161,-242,-75,322,166,-244
2,8210977,-3473,-1693,-559,-161,-242,-75,322,166,-244
2,8210982,-3469,-1691,-557,-169,-242,-80,322,166,-244
2,8210989,-3469,-1691,-557,-169,-242,-80,322,166,-244
2,8210997,-3469,-1691,-557,-169,-242,-80,322,166,-244
2,8211004,-3470,-1694,-563,-167,-246,-83,322,166,-244
2,8211013,-3470,-1694,-563,-167,-246,-83,322,166,-244
2,8211019,-3472,-1694,-557,-163,-243,-92,322,166,-244
2,8211027,-3472,-1694,-557,-163,-243,-92,322,166,-244
2,8211034,-3472,-1694,-557,-163,-243,-92,322,166,-244
2,8211042,-3469,-1691,-557,-166,-238,-79,321,163,-243
2,8211048,-3469,-1691,-557,-166,-238,-79,321,163,-243
2,8211055,-3469,-1691,-557,-166,-238,-79,321,163,-243
2,8211062,-3469,-1694,-560,-163,-250,-73,321,163,-243
2,8211070,-3469,-1694,-560,-163,-250,-73,321,163,-243
2,8211076,-3469,-1694,-560,-163,-250,-73,321,163,-243
2,8211084,-3468,-1693,-558,-167,-248,-77,321,163,-243
2,8211091,-3468,-1693,-558,-167,-248,-77,321,163,-243
2,8211097,-3468,-1693,-558,-167,-248,-77,321,163,-243
2,8211103,-3468,-1693,-558,-168,-246,-82,321,163,-243
2,8211109,-3468,-1693,-558,-168,-246,-82,321,163,-243
2,8211118,-3468,-1693,-558,-168,-246,-82,321,163,-243
2,8211125,-3470,-1692,-560,-162,-243,-81,321,163,-243
2,8211132,-3470,-1692,-560,-162,-243,-81,321,163,-243
2,8211138,-3470,-1692,-560,-162,-243,-81,321,163,-243
2,8211146,-3474,-1690,-556,-159,-243,-87,321,163,-243
2,8211154,-3474,-1690,-556,-159,-243,-87,321,163,-243
2,8211162,-3474,-1693,-559,-162,-247,-83,312,170,-242
2,8211173,-3474,-1693,-559,-162,-247,-83,312,170,-242
2,8211181,-3471,-1691,-558,-163,-245,-88,312,170,-242
2,8211189,-3471,-1691,-558,-163,-245,-88,312,170,-242
2,8211197,-3471,-1691,-558,-163,-245,-88,312,170,-242
2,8211209,-3470,-1693,-555,-159,-243,-92,312,170,-242
2,8211217,-3470,-1693,-555,-159,-243,-92,312,170,-242
2,8211223,-3472,-1692,-559,-161,-240,-79,312,170,-242
2,8211231,-3472,-1692,-559,-161,-240,-79,312,170,-242
2,8211239,-3471,-1691,-559,-167,-245,-87,312,170,-242
2,8211248,-3471,-1691,-559,-167,-245,-87,312,170,-242
2,8211255,-3471,-1691,-559,-167,-245,-87,312,170,-242
2,8211261,-3474,-1692,-559,-168,-255,-88,312,170,-242
2,8211267,-3474,-1692,-559,-168,-255,-88,312,170,-242
2,8211274,-3474,-1692,-559,-168,-255,-88,312,170,-242
2,8211281,-3471,-1694,-558,-164,-250,-77,312,170,-242
2,8211288,-3471,-1694,-558,-164,-250,-77,312,170,-242
2,8211294,-3471,-1694,-558,-164,-250,-77,312,170,-242
2,8211303,-3471,-1690,-560,-165,-249,-81,317,167,-243
2,8211308,-3471,-1690,-560,-165,-249,-81,317,167,-243
2,8211315,-3471,-1690,-560,-165,-249,-81,317,167,-243
2,8211323,-3471,-1693,-556,-168,-238,-80,317,167,-243
2,8211331,-3471,-1693,-556,-168,-238,-80,317,167,-243
2,8211338,-3471,-1693,-556,-168,-238,-80,317,167,-243
2,8211346,-3472,-1692,-563,-157,-240,-79,317,167,-243
2,8211353,-3472,-1692,-563,-157,-240,-79,317,167,-243
2,8211361,-3473,-1694,-566,-160,-244,-77,317,167,-243
2,8211368,-3473,-1694,-566,-160,-244,-77,317,167,-243
2,8211375,-3473,-1694,-566,-160,-244,-77,317,167,-243
2,8211382,-3470,-1695,-564,-162,-240,-73,317,167,-243
2,8211390,-3470,-1695,-564,-162,-240,-73,317,167,-243
2,8211398,-3470,-1695,-564,-162,-240,-73,317,167,-243
2,8211406,-3471,-1693,-563,-167,-236,-81,317,167,-243
2,8211412,-3471,-1693,-563,-167,-236,-81,317,167,-243
2,8211421,-3469,-1689,-557,-167,-248,-86,317,173,-257
2,8211428,-3469,-1689,-557,-167,-248,-86,317,173,-257
2,8211435,-3469,-1689,-557,-167,-248,-86,317,173,-257
2,8211441,-3471,-1692,-557,-161,-240,-85,317,173,-257
2,8211449,-3471,-1692,-557,-161,-240,-85,317,173,-257
2,8211457,-3471,-1692,-557,-161,-240,-85,317,173,-257
2,8211466,-3471,-1693,-557,-157,-249,-83,317,173,-257
2,8211474,-3471,-1693,-557,-157,-249,-83,317,173,-257
2,8211480,-3470,-1694,-558,-150,-249,-78,317,173,-257
2,8211487,-3470,-1694,-558,-150,-249,-78,317,173,-257
2,8211493,-3470,-1694,-558,-150,-249,-78,317,173,-257
2,8211501,-3469,-1692,-564,-152,-238,-82,317,173,-257
2,8211508,-3469,-1692,-564,-152,-238,-82,317,173,-257
2,8211515,-3469,-1692,-564,-152,-238,-82,317,173,-257
2,8211522,-3471,-1693,-563,-159,-241,-85,317,173,-257
2,8211528,-3471,-1693,-563,-159,-241,-85,317,173,-257
2,8211535,-3471,-1693,-563,-159,-241,-85,317,173,-257
2,8211544,-3475,-1691,-554,-161,-243,-78,313,165,-243
2,8211550,-3475,-1691,-554,-161,-243,-78,313,165,-243
2,8211557,-3475,-1691,-554,-161,-243,-78,313,165,-243
2,8211565,-3472,-1695,-561,-158,-250,-82,313,165,-243
2,8211572,-3472,-1695,-561,-158,-250,-82,313,165,-243
2,8211578,-3472,-1695,-561,-158,-250,-82,313,165,-243
2,8211585,-3473,-1695,-559,-166,-242,-85,313,165,-243
2,8211592,-3473,-1695,-559,-166,-242,-85,313,165,-243
2,8211599,-3473,-1695,-559,-166,-242,-85,313,165,-243
2,8211607,-3471,-1692,-560,-163,-239,-79,313,165,-243
2,8211613,-3471,-1692,-560,-163,-239,-79,313,165,-243
2,8211619,-3471,-1692,-560,-163,-239,-79,313,165,-243
2,8211624,-3469,-1694,-557,-162,-248,-84,313,165,-243
2,8211630,-3469,-1694,-557,-162,-248,-84,313,165,-243
2,8211635,-3469,-1694,-557,-162,-248,-84,313,165,-243
2,8211642,-3469,-1691,-563,-164,-242,-79,313,165,-243
2,8211650,-3469,-1691,-563,-164,-242,-79,313,165,-243
2,8211657,-3469,-1691,-563,-164,-242,-79,313,165,-243
2,8211665,-3470,-1692,-555,-166,-246,-86,321,173,-251
2,8211672,-3470,-1692,-555,-166,-246,-86,321,173,-251
2,8211679,-3470,-1692,-555,-166,-246,-86,321,173,-251
2,8211687,-3470,-1693,-557,-160,-246,-87,321,173,-251
2,8211694,-3470,-1693,-557,-160,-246,-87,321,173,-251
2,8211701,-3468,-1692,-561,-158,-243,-85,321,173,-251
2,8211706,-3468,-1692,-561,-158,-243,-85,321,173,-251
2,8211712,-3468,-1692,-561,-158,-243,-85,321,173,-251
2,8211717,-3468,-1692,-561,-158,-243,-85,321,173,-251
2,8211722,-3471,-1690,-559,-159,-240,-84,321,173,-251
2,8211730,-3471,-1690,-559,-159,-240,-84,321,173,-251
2,8211738,-3471,-1690,-559,-159,-240,-84,321,173,-251
2,8211745,-3472,-1691,-560,-157,-241,-81,321,173,-251
2,8211751,-3472,-1691,-560,-157,-241,-81,321,173,-251
2,8211760,-3472,-1691,-560,-157,-241,-81,321,173,-251
2,8211767,-3471,-1689,-557,-161,-240,-80,321,173,-251
2,8211773,-3471,-1689,-557,-161,-240,-80,321,173,-251
2,8211780,-3470,-1690,-559,-160,-246,-80,314,168,-246
2,8211787,-3470,-1690,-559,-160,-246,-80,314,168,-246
2,8211794,-3470,-1690,-559,-160,-246,-80,314,168,-246
2,8211802,-3469,-1692,-557,-160,-240,-83,314,168,-246
2,8211809,-3469,-1692,-557,-160,-240,-83,314,168,-246
2,8211816,-3469,-1692,-557,-160,-240,-83,314,168,-246
2,8211823,-3469,-1694,-561,-160,-240,-80,314,168,-246
2,8211830,-3469,-1694,-561,-160,-240,-80,314,168,-246
2,8211838,-3469,-1694,-561,-160,-240,-80,314,168,-246
2,8211846,-3472,-1694,-562,-162,-246,-81,314,168,-246
2,8211853,-3472,-1694,-562,-162,-246,-81,314,168,-246
2,8211860,-3472,-1694,-562,-162,-246,-81,314,168,-246
2,8211867,-3469,-1695,-558,-162,-245,-85,314,168,-246
2,8211875,-3469,-1695,-558,-162,-245,-85,314,168,-246
2,8211884,-3468,-1694,-559,-159,-244,-84,314,168,-246
2,8211891,-3468,-1694,-559,-159,-244,-84,314,168,-246
2,8211896,-3468,-1694,-559,-159,-244,-84,314,168,-246
2,8211903,-3467,-1694,-564,-159,-243,-87,314,168,-246
2,8211910,-3467,-1694,-564,-159,-243,-87,314,168,-246
2,8211917,-3467,-1694,-564,-159,-243,-87,314,168,-246
2,8211923,-3475,-1694,-558,-164,-249,-86,311,169,-247
2,8211931,-3475,-1694,-558,-164,-249,-86,311,169,-247
2,8211936,-3475,-1694,-558,-164,-249,-86,311,169,-247
2,8211941,-3472,-1689,-560,-160,-240,-84,311,169,-247
2,8211946,-3472,-1689,-560,-160,-240,-84,311,169,-247
2,8211951,-3472,-1689,-560,-160,-240,-84,311,169,-247
2,8211956,-3472,-1689,-560,-160,-240,-84,311,169,-247
2,8211961,-3471,-1696,-558,-168,-238,-91,311,169,-247
2,8211968,-3471,-1696,-558,-168,-238,-91,311,169,-247
2,8211973,-3471,-1696,-558,-168,-238,-91,311,169,-247
2,8211978,-3471,-1696,-558,-168,-238,-91,311,169,-247
2,8211985,-3471,-1698,-559,-169,-242,-85,311,169,-247
2,8211996,-3471,-1698,-559,-169,-242,-85,311,169,-247
2,8212009,-3473,-1695,-561,-165,-242,-82,311,169,-247
2,8212022,-3470,-1690,-564,-164,-239,-87,311,169,-247
2,8212035,-3470,-1690,-564,-164,-239,-87,311,169,-247
2,8212046,-3471,-1693,-558,-161,-246,-84,311,165,-241
2,8212061,-3473,-1692,-565,-154,-243,-80,311,165,-241
2,8212073,-3473,-1692,-565,-154,-243,-80,311,165,-241
2,8212086,-3472,-1691,-560,-160,-240,-80,311,165,-241
2,8212097,-3472,-1691,-560,-160,-240,-80,311,165,-241
2,8212109,-3471,-1693,-557,-164,-244,-82,311,165,-241
2,8212120,-3472,-1694,-562,-165,-245,-82,311,165,-241
2,8212133,-3472,-1694,-562,-165,-245,-82,311,165,-241
2,8212146,-3468,-1694,-561,-162,-251,-81,311,165,-241
2,8212161,-3469,-1689,-559,-156,-247,-77,320,178,-244
2,8212172,-3469,-1689,-559,-156,-247,-77,320,178,-244
2,8212182,-3471,-1690,-556,-162,-236,-85,320,178,-244
2,8212189,-3471,-1690,-556,-162,-236,-85,320,178,-244
2,8212197,-3471,-1690,-556,-162,-236,-85,320,178,-244
2,8212205,-3470,-1694,-553,-167,-240,-82,320,178,-244
2,8212215,-3470,-1694,-553,-167,-240,-82,320,178,-244
2,8212228,-3470,-1694,-553,-167,-240,-82,320,178,-244
2,8212242,-3469,-1693,-560,-164,-250,-88,320,178,-244
2,8212256,-3469,-1693,-560,-164,-250,-88,320,178,-244
2,8212265,-3472,-1692,-563,-159,-246,-81,320,178,-244
2,8212279,-3472,-1692,-563,-159,-246,-81,320,178,-244
2,8212292,-3471,-1691,-559,-156,-243,-86,312,174,-244
2,8212308,-3470,-1692,-557,-156,-247,-84,312,174,-244
2,8212317,-3470,-1692,-557,-156,-247,-84,312,174,-244
2,8212328,-3469,-1693,-557,-158,-244,-84,312,174,-244
2,8212340,-3472,-1693,-555,-157,-241,-81,312,174,-244
2,8212354,-3472,-1693,-555,-157,-241,-81,312,174,-244
2,8212365,-3473,-1692,-563,-160,-242,-87,312,174,-244
2,8212379,-3473,-1692,-563,-160,-242,-87,312,174,-244
2,8212391,-3474,-1691,-561,-157,-239,-86,312,174,-244
2,8212405,-3474,-1691,-561,-157,-239,-86,319,163,-249
2,8212418,-3474,-1691,-561,-157,-239,-86,319,163,-249
2,8212431,-3472,-1692,-559,-160,-239,-87,319,163,-249
2,8212444,-3473,-1693,-561,-162,-248,-86,319,163,-249
2,8212458,-3473,-1693,-561,-162,-248,-86,319,163,-249
2,8212471,-3473,-1690,-558,-166,-246,-87,319,163,-249
2,8212482,-3473,-1695,-563,-163,-247,-84,319,163,-249
2,8212493,-3473,-1695,-563,-163,-247,-84,319,163,-249
2,8212507,-3470,-1690,-559,-162,-247,-79,319,163,-249
2,8212520,-3468,-1693,-563,-157,-232,-87,319,163,-249
2,8212532,-3468,-1693,-563,-157,-232,-87,319,163,-249
2,8212544,-3472,-1694,-557,-165,-239,-87,317,169,-253
2,8212557,-3472,-1694,-557,-165,-239,-87,317,169,-253
2,8212570,-3471,-1692,-559,-159,-241,-84,317,169,-253
2,8212583,-3470,-1694,-556,-158,-244,-90,317,169,-253
2,8212593,-3470,-1694,-556,-158,-244,-90,317,169,-253
2,8212603,-3471,-1690,-559,-159,-240,-85,317,169,-253
2,8212614,-3471,-1690,-559,-159,-240,-85,317,169,-253
2,8212627,-3473,-1692,-560,-160,-243,-80,317,169,-253
2,8212640,-3473,-1692,-560,-160,-243,-80,317,169,-253
2,8212651,-3467,-1692,-558,-164,-243,-88,317,169,-253
2,8212663,-3468,-1691,-555,-162,-246,-90,313,175,-245
2,8212677,-3468,-1691,-555,-162,-246,-90,313,175,-245
2,8212689,-3473,-1692,-557,-163,-249,-82,313,175,-245
2,8212701,-3471,-1694,-562,-161,-244,-79,313,175,-245
2,8212709,-3471,-1694,-562,-161,-244,-79,313,175,-245
2,8212717,-3471,-1694,-562,-161,-244,-79,313,175,-245
2,8212724,-3470,-1695,-564,-163,-244,-79,313,175,-245
2,8212734,-3470,-1695,-564,-163,-244,-79,313,175,-245
2,8212743,-3469,-1690,-564,-159,-241,-85,313,175,-245
2,8212751,-3469,-1690,-564,-159,-241,-85,313,175,-245
2,8212759,-3469,-1690,-564,-159,-241,-85,313,175,-245
2,8212768,-3473,-1695,-561,-165,-237,-78,313,175,-245
2,8212776,-3473,-1695,-561,-165,-237,-78,313,175,-245
2,8212786,-3471,-1693,-562,-166,-239,-83,320,166,-244
2,8212794,-3471,-1693,-562,-166,-239,-83,320,166,-244
2,8212803,-3472,-1689,-558,-153,-239,-90,320,166,-244
2,8212812,-3472,-1689,-558,-153,-239,-90,320,166,-244
2,8212820,-3471,-1693,-564,-159,-245,-88,320,166,-244
2,8212829,-3471,-1693,-564,-159,-245,-88,320,166,-244
2,8212838,-3471,-1693,-564,-159,-245,-88,320,166,-244
2,8212845,-3470,-1693,-560,-162,-243,-88,320,166,-244
2,8212854,-3470,-1693,-560,-162,-243,-88,320,166,-244
2,8212861,-3472,-1692,-565,-163,-242,-91,320,166,-244
2,8212870,-3472,-1692,-565,-163,-242,-91,320,166,-244
2,8212878,-3472,-1692,-565,-163,-242,-91,320,166,-244
2,8212885,-3470,-1695,-562,-158,-241,-87,320,166,-244
2,8212893,-3470,-1695,-562,-158,-241,-87,320,166,-244
2,8212900,-3471,-1692,-558,-157,-239,-84,320,166,-244
2,8212908,-3471,-1692,-558,-157,-239,-84,320,162,-250
2,8212916,-3471,-1692,-558,-157,-239,-84,320,162,-250
2,8212924,-3474,-1689,-558,-155,-235,-86,320,162,-250
2,8212932,-3474,-1689,-558,-155,-235,-86,320,162,-250
2,8212941,-3472,-1695,-564,-156,-238,-88,320,162,-250
2,8212950,-3472,-1695,-564,-156,-238,-88,320,162,-250
2,8212958,-3472,-1695,-564,-156,-238,-88,320,162,-250
2,8212967,-3470,-1694,-563,-159,-241,-81,320,162,-250
2,8212975,-3470,-1694,-563,-159,-241,-81,320,162,-250
2,8212983,-3469,-1696,-559,-161,-242,-78,320,162,-250
2,8212992,-3469,-1696,-559,-161,-242,-78,320,162,-250
2,8212997,-3469,-1696,-559,-161,-242,-78,320,162,-250
2,8213003,-3469,-1692,-557,-162,-239,-81,320,162,-250
2,8213007,-3469,-1692,-557,-162,-239,-81,320,162,-250
2,8213012,-3469,-1692,-557,-162,-239,-81,320,162,-250
2,8213017,-3469,-1692,-557,-162,-239,-81,320,162,-250
2,8213022,-3470,-1692,-560,-161,-246,-86,314,166,-238
2,8213026,-3470,-1692,-560,-161,-246,-86,314,166,-238
2,8213031,-3470,-1692,-560,-161,-246,-86,314,166,-238
2,8213037,-3470,-1692,-560,-161,-246,-86,314,166,-238
2,8213041,-3470,-1689,-555,-157,-243,-86,314,166,-238
2,8213046,-3470,-1689,-555,-157,-243,-86,314,166,-238
2,8213050,-3470,-1689,-555,-157,-243,-86,314,166,-238
2,8213055,-3470,-1689,-555,-157,-243,-86,314,166,-238
2,8213059,-3470,-1689,-555,-157,-243,-86,314,166,-238
2,8213064,-3471,-1690,-561,-160,-246,-86,314,166,-238
2,8213068,-3471,-1690,-561,-160,-246,-86,314,166,-238
2,8213072,-3471,-1690,-561,-160,-246,-86,314,166,-238
2,8213078,-3471,-1690,-561,-160,-246,-86,314,166,-238
2,8213082,-3467,-1692,-561,-165,-244,-82,314,166,-238
2,8213086,-3467,-1692,-561,-165,-244,-82,314,166,-238
2,8213091,-3467,-1692,-561,-165,-244,-82,314,166,-238
2,8213096,-3467,-1692,-561,-165,-244,-82,314,166,-238
2,8213101,-3467,-1692,-561,-165,-244,-82,314,166,-238
2,8213105,-3467,-1693,-559,-162,-248,-84,314,166,-238
2,8213111,-3467,-1693,-559,-162,-248,-84,314,166,-238
2,8213116,-3467,-1693,-559,-162,-248,-84,314,166,-238
2,8213122,-3471,-1693,-559,-168,-244,-83,314,166,-238
2,8213126,-3471,-1693,-559,-168,-244,-83,314,166,-238
2,8213132,-3471,-1693,-559,-168,-244,-83,314,166,-238
2,8213136,-3471,-1693,-559,-168,-244,-83,314,166,-238
2,8213141,-3471,-1693,-559,-168,-244,-83,314,166,-238
2,8213146,-3468,-1696,-561,-170,-246,-81,314,166,-238
2,8213151,-3468,-1696,-561,-170,-246,-81,314,166,-238
2,8213156,-3468,-1696,-561,-170,-246,-81,314,166,-238
2,8213161,-3470,-1691,-558,-164,-240,-84,314,166,-238
2,8213167,-3470,-1691,-558,-164,-240,-84,314,166,-238
2,8213173,-3470,-1691,-558,-164,-240,-84,314,166,-238
2,8213177,-3470,-1691,-558,-164,-240,-84,314,166,-238
2,8213183,-3470,-1689,-558,-158,-241,-87,314,166,-238
2,8213188,-3470,-1689,-558,-158,-241,-87,314,166,-238
2,8213193,-3470,-1689,-558,-158,-241,-87,314,166,-238
2,8213197,-3470,-1689,-558,-158,-241,-87,314,166,-238
2,8213202,-3469,-1692,-563,-160,-241,-89,314,166,-238
2,8213208,-3469,-1692,-563,-160,-241,-89,314,166,-238
2,8213213,-3469,-1692,-563,-160,-241,-89,314,166,-238
2,8213218,-3469,-1692,-563,-160,-241,-89,314,166,-238
2,8213223,-3469,-1694,-556,-159,-242,-85,314,166,-238
2,8213228,-3469,-1694,-556,-159,-242,-85,314,166,-238
2,8213234,-3469,-1694,-556,-159,-242,-85,314,166,-238
2,8213239,-3469,-1694,-556,-159,-242,-85,314,166,-238
2,8213244,-3469,-1692,-560,-154,-251,-92,314,166,-238
2,8213250,-3469,-1692,-560,-154,-251,-92,314,166,-238
2,8213255,-3469,-1692,-560,-154,-251,-92,314,166,-238
2,8213260,-3469,-1692,-560,-154,-251,-92,314,166,-238
2,8213266,-3472,-1694,-557,-160,-246,-84,314,166,-238
2,8213271,-3472,-1694,-557,-160,-246,-84,314,166,-238
2,8213276,-3472,-1694,-557,-160,-246,-84,314,166,-238
2,8213281,-3471,-1693,-558,-167,-241,-84,316,162,-254
2,8213286,-3471,-1693,-558,-167,-241,-84,316,162,-254
2,8213292,-3471,-1693,-558,-167,-241,-84,316,162,-254
2,8213298,-3471,-1693,-558,-167,-241,-84,316,162,-254
2,8213302,-3471,-1694,-561,-164,-248,-78,316,162,-254
2,8213308,-3471,-1694,-561,-164,-248,-78,316,162,-254
2,8213313,-3471,-1694,-561,-164,-248,-78,316,162,-254
2,8213318,-3471,-1694,-561,-164,-248,-78,316,162,-254
2,8213323,-3472,-1693,-563,-166,-247,-87,316,162,-254
2,8213329,-3472,-1693,-563,-166,-247,-87,316,162,-254
2,8213336,-3472,-1693,-563,-166,-247,-87,316,162,-254
2,8213341,-3472,-1693,-563,-166,-247,-87,316,162,-254
2,8213346,-3473,-1693,-558,-161,-241,-77,316,162,-254
2,8213352,-3473,-1693,-558,-161,-241,-77,316,162,-254
2,8213356,-3473,-1693,-558,-161,-241,-77,316,162,-254
2,8213362,-3471,-1692,-556,-158,-247,-79,316,162,-254
2,8213366,-3471,-1692,-556,-158,-247,-79,316,162,-254
2,8213371,-3471,-1692,-556,-158,-247,-79,316,162,-254
2,8213377,-3471,-1692,-556,-158,-247,-79,316,162,-254
2,8213382,-3471,-1691,-561,-160,-252,-87,316,162,-254
2,8213388,-3471,-1691,-561,-160,-252,-87,316,162,-254
2,8213393,-3471,-1691,-561,-160,-252,-87,316,162,-254
2,8213399,-3471,-1691,-561,-160,-252,-87,316,162,-254
2,8213404,-3472,-1691,-556,-163,-247,-87,316,168,-250
2,8213409,-3472,-1691,-556,-163,-247,-87,316,168,-250
2,8213415,-3472,-1691,-556,-163,-247,-87,316,168,-250
2,8213421,-3472,-1691,-556,-163,-247,-87,316,168,-250
2,8213426,-3469,-1689,-561,-159,-248,-84,316,168,-250
2,8213432,-3469,-1689,-561,-159,-248,-84,316,168,-250
2,8213437,-3469,-1689,-561,-159,-248,-84,316,168,-250
2,8213443,-3471,-1693,-559,-162,-248,-79,316,168,-250
2,8213449,-3471,-1693,-559,-162,-248,-79,316,168,-250
2,8213455,-3471,-1693,-559,-162,-248,-79,316,168,-250
2,8213460,-3471,-1693,-559,-162,-248,-79,316,168,-250
2,8213467,-3470,-1692,-557,-159,-249,-74,316,168,-250
2,8213473,-3470,-1692,-557,-159,-249,-74,316,168,-250
2,8213478,-3470,-1692,-557,-159,-249,-74,316,168,-250
2,8213484,-3473,-1691,-563,-158,-241,-77,316,168,-250
2,8213490,-3473,-1691,-563,-158,-241,-77,316,168,-250
2,8213496,-3473,-1691,-563,-158,-241,-77,316,168,-250
2,8213504,-3474,-1693,-558,-157,-243,-85,316,168,-250
2,8213511,-3474,-1693,-558,-157,-243,-85,316,168,-250
2,8213517,-3474,-1693,-558,-157,-243,-85,316,168,-250
2,8213525,-3471,-1693,-559,-159,-239,-81,320,166,-248
2,8213532,-3471,-1693,-559,-159,-239,-81,320,166,-248
2,8213538,-3471,-1693,-559,-159,-239,-81,320,166,-248
2,8213547,-3471,-1691,-561,-172,-250,-78,320,166,-248
2,8213554,-3471,-1691,-561,-172,-250,-78,320,166,-248
2,8213561,-3471,-1691,-561,-172,-250,-78,320,166,-248
2,8213566,-3474,-1692,-559,-172,-246,-87,320,166,-248
2,8213571,-3474,-1692,-559,-172,-246,-87,320,166,-248
2,8213577,-3474,-1692,-559,-172,-246,-87,320,166,-248
2,8213584,-3467,-1689,-565,-161,-249,-82,320,166,-248
2,8213593,-3467,-1689,-565,-161,-249,-82,320,166,-248
2,8213600,-3467,-1689,-565,-161,-249,-82,320,166,-248
2,8213606,-3472,-1693,-563,-163,-253,-78,320,166,-248
2,8213613,-3472,-1693,-563,-163,-253,-78,320,166,-248
2,8213621,-3472,-1693,-563,-163,-253,-78,320,166,-248
2,8213627,-3469,-1692,-563,-161,-247,-82,320,166,-248
2,8213635,-3469,-1692,-563,-161,-247,-82,320,166,-248
2,8213640,-3469,-1692,-563,-161,-247,-82,320,166,-248
2,8213648,-3469,-1693,-561,-166,-244,-80,313,171,-247
2,8213653,-3469,-1693,-561,-166,-244,-80,313,171,-247
2,8213661,-3469,-1693,-561,-166,-244,-80,313,171,-247
2,8213669,-3468,-1691,-560,-161,-252,-86,313,171,-247
2,8213677,-3468,-1691,-560,-161,-252,-86,313,171,-247
2,8213683,-3471,-1691,-558,-159,-248,-77,313,171,-247
2,8213690,-3471,-1691,-558,-159,-248,-77,313,171,-247
2,8213697,-3471,-1691,-558,-159,-248,-77,313,171,-247
2,8213702,-3469,-1694,-566,-160,-244,-79,313,171,-247
2,8213707,-3469,-1694,-566,-160,-244,-79,313,171,-247
2,8213712,-3469,-1694,-566,-160,-244,-79,313,171,-247
2,8213718,-3469,-1694,-566,-160,-244,-79,313,171,-247
2,8213723,-3473,-1688,-555,-165,-236,-77,313,171,-247
2,8213728,-3473,-1688,-555,-165,-236,-77,313,171,-247
2,8213733,-3473,-1688,-555,-165,-236,-77,313,171,-247
2,8213738,-3473,-1688,-555,-165,-236,-77,313,171,-247
2,8213743,-3473,-1695,-564,-164,-240,-75,313,171,-247
2,8213748,-3473,-1695,-564,-164,-240,-75,313,171,-247
2,8213754,-3473,-1695,-564,-164,-240,-75,313,171,-247
2,8213760,-3473,-1695,-564,-164,-240,-75,313,171,-247
2,8213766,-3468,-1692,-559,-159,-247,-79,320,166,-244
2,8213772,-3468,-1692,-559,-159,-247,-79,320,166,-244
2,8213777,-3468,-1692,-559,-159,-247,-79,320,166,-244
2,8213783,-3467,-1695,-558,-163,-241,-86,320,166,-244
2,8213788,-3467,-1695,-558,-163,-241,-86,320,166,-244
2,8213794,-3467,-1695,-558,-163,-241,-86,320,166,-244
2,8213799,-3467,-1695,-558,-163,-241,-86,320,166,-244
2,8213807,-3472,-1695,-560,-165,-245,-83,320,166,-244
2,8213814,-3472,-1695,-560,-165,-245,-83,320,166,-244
2,8213821,-3472,-1695,-560,-165,-245,-83,320,166,-244
2,8213828,-3471,-1692,-560,-167,-252,-90,320,166,-244
2,8213835,-3471,-1692,-560,-167,-252,-90,320,166,-244
2,8213843,-3470,-1694,-559,-168,-249,-83,320,166,-244
2,8213850,-3470,-1694,-559,-168,-249,-83,320,166,-244
2,8213858,-3470,-1694,-559,-168,-249,-83,320,166,-244
2,8213864,-3472,-1691,-558,-165,-252,-82,320,166,-244
2,8213871,-3472,-1691,-558,-165,-252,-82,320,166,-244
2,8213878,-3472,-1691,-558,-165,-252,-82,320,166,-244
2,8213886,-3472,-1691,-558,-168,-244,-76,320,166,-244
2,8213894,-3472,-1691,-558,-168,-244,-76,320,166,-244
2,8213901,-3472,-1691,-558,-168,-244,-76,320,166,-244
2,8213907,-3473,-1693,-555,-169,-243,-76,321,159,-247
2,8213914,-3473,-1693,-555,-169,-243,-76,321,159,-247
2,8213920,-3473,-1693,-555,-169,-243,-76,321,159,-247
2,8213928,-3468,-1693,-562,-160,-247,-86,321,159,-247
2,8213936,-3468,-1693,-562,-160,-247,-86,321,159,-247
2,8213941,-3468,-1693,-562,-160,-247,-86,321,159,-247
2,8213946,-3472,-1693,-562,-159,-237,-87,321,159,-247
2,8213951,-3472,-1693,-562,-159,-237,-87,321,159,-247
2,8213956,-3472,-1693,-562,-159,-237,-87,321,159,-247
2,8213962,-3471,-1695,-562,-158,-246,-82,321,159,-247
2,8213967,-3471,-1695,-562,-158,-246,-82,321,159,-247
2,8213972,-3471,-1695,-562,-158,-246,-82,321,159,-247
2,8213978,-3471,-1695,-562,-158,-246,-82,321,159,-247
2,8213986,-3473,-1693,-563,-161,-237,-85,321,159,-247
2,8213993,-3473,-1693,-563,-161,-237,-85,321,159,-247
2,8214003,-3469,-1694,-564,-159,-248,-88,321,159,-247
2,8214018,-3469,-1694,-564,-159,-248,-88,321,159,-247
2,8214027,-3468,-1692,-553,-166,-245,-80,309,171,-249
2,8214038,-3468,-1692,-553,-166,-245,-80,309,171,-249
2,8214052,-3471,-1690,-560,-165,-247,-82,309,171,-249
2,8214066,-3470,-1692,-562,-162,-250,-81,309,171,-249
2,8214075,-3470,-1692,-562,-162,-250,-81,309,171,-249
2,8214085,-3472,-1693,-562,-157,-241,-85,309,171,-249
2,8214093,-3472,-1693,-562,-157,-241,-85,309,171,-249
2,8214102,-3472,-1693,-562,-157,-241,-85,309,171,-249
2,8214109,-3469,-1693,-563,-162,-244,-84,309,171,-249
2,8214121,-3469,-1693,-563,-162,-244,-84,309,171,-249
2,8214133,-3470,-1692,-560,-162,-241,-86,309,171,-249
2,8214147,-3469,-1692,-558,-160,-247,-84,317,165,-243
2,8214159,-3469,-1692,-558,-160,-247,-84,317,165,-243
2,8214172,-3471,-1690,-563,-159,-249,-77,317,165,-243
2,8214184,-3473,-1691,-565,-158,-249,-81,317,165,-243
2,8214193,-3473,-1691,-565,-158,-249,-81,317,165,-243
2,8214205,-3475,-1691,-566,-158,-246,-84,317,165,-243
2,8214219,-3475,-1691,-566,-158,-246,-84,317,165,-243
2,8214232,-3472,-1691,-563,-166,-248,-85,317,165,-243
2,8214242,-3472,-1691,-563,-166,-248,-85,317,165,-243
2,8214251,-3473,-1689,-559,-159,-242,-88,317,165,-243
2,8214264,-3473,-1689,-559,-159,-242,-88,319,177,-247
2,8214278,-3473,-1689,-559,-159,-242,-88,319,177,-247
2,8214291,-3469,-1689,-557,-156,-244,-86,319,177,-247
2,8214304,-3470,-1691,-560,-157,-240,-80,319,177,-247
2,8214318,-3470,-1691,-560,-157,-240,-80,319,177,-247
2,8214330,-3473,-1693,-558,-163,-244,-83,319,177,-247
2,8214342,-3473,-1693,-558,-163,-244,-83,319,177,-247
2,8214355,-3474,-1692,-561,-165,-240,-78,319,177,-247
2,8214368,-3470,-1688,-554,-161,-241,-89,319,177,-247
2,8214381,-3470,-1688,-554,-161,-241,-89,319,177,-247
2,8214392,-3471,-1692,-560,-166,-249,-85,318,176,-240
2,8214404,-3471,-1692,-560,-164,-247,-87,318,176,-240
2,8214416,-3471,-1692,-560,-164,-247,-87,318,176,-240
2,8214429,-3468,-1692,-560,-154,-236,-80,318,176,-240
2,8214444,-3472,-1689,-558,-161,-250,-88,318,176,-240
2,8214457,-3472,-1689,-558,-161,-250,-88,318,176,-240
2,8214469,-3472,-1690,-564,-164,-249,-90,318,176,-240
2,8214482,-3472,-1690,-564,-164,-249,-90,318,176,-240
2,8214496,-3472,-1694,-560,-159,-246,-81,318,176,-240
2,8214508,-3471,-1692,-559,-159,-246,-86,318,176,-240
2,8214517,-3471,-1692,-559,-159,-246,-86,318,176,-240
2,8214525,-3470,-1691,-559,-158,-239,-90,320,170,-248
2,8214534,-3470,-1691,-559,-158,-239,-90,320,170,-248
2,8214542,-3467,-1692,-556,-157,-241,-86,320,170,-248
2,8214550,-3467,-1692,-556,-157,-241,-86,320,170,-248
2,8214559,-3467,-1692,-556,-157,-241,-86,320,170,-248
2,8214566,-3471,-1693,-562,-153,-241,-81,320,170,-248
2,8214576,-3471,-1693,-562,-153,-241,-81,320,170,-248
2,8214584,-3469,-1691,-558,-158,-245,-82,320,170,-248
2,8214592,-3469,-1691,-558,-158,-245,-82,320,170,-248
2,8214600,-3469,-1691,-558,-158,-245,-82,320,170,-248
2,8214607,-3471,-1691,-557,-161,-241,-81,320,170,-248
2,8214621,-3471,-1691,-557,-161,-241,-81,320,170,-248
2,8214629,-3474,-1691,-558,-158,-240,-81,320,170,-248
2,8214640,-3474,-1691,-558,-158,-240,-81,320,170,-248
2,8214654,-3468,-1693,-557,-156,-246,-96,313,163,-239
2,8214663,-3472,-1692,-560,-164,-236,-97,313,163,-239
2,8214671,-3472,-1692,-560,-164,-236,-97,313,163,-239
2,8214680,-3472,-1692,-560,-164,-236,-97,313,163,-239
2,8214689,-3473,-1691,-558,-163,-243,-85,313,163,-239
2,8214697,-3473,-1691,-558,-163,-243,-85,313,163,-239
2,8214705,-3470,-1691,-559,-164,-241,-92,313,163,-239
2,8214713,-3470,-1691,-559,-164,-241,-92,313,163,-239
2,8214721,-3470,-1691,-559,-164,-241,-92,313,163,-239
2,8214729,-3468,-1692,-562,-161,-236,-80,313,163,-239
2,8214738,-3468,-1692,-562,-161,-236,-80,313,163,-239
2,8214748,-3470,-1697,-562,-166,-242,-82,313,163,-239
2,8214756,-3470,-1697,-562,-166,-242,-82,313,163,-239
2,8214765,-3470,-1693,-557,-165,-244,-83,313,165,-245
2,8214775,-3470,-1693,-557,-165,-244,-83,313,165,-245
2,8214788,-3473,-1690,-558,-170,-247,-76,313,165,-245
2,8214799,-3473,-1690,-558,-170,-247,-76,313,165,-245
2,8214811,-3470,-1691,-559,-165,-245,-85,313,165,-245
2,8214825,-3468,-1694,-563,-163,-249,-88,313,165,-245
2,8214838,-3468,-1694,-563,-163,-249,-88,313,165,-245
2,8214851,-3474,-1692,-561,-159,-242,-87,313,165,-245
2,8214863,-3468,-1690,-561,-160,-247,-88,313,165,-245
2,8214877,-3468,-1690,-561,-160,-247,-88,313,165,-245
2,8214889,-3469,-1692,-559,-159,-247,-87,317,163,-241
2,8214899,-3469,-1692,-559,-159,-247,-87,317,163,-241
2,8214910,-3471,-1692,-557,-164,-245,-79,317,163,-241
2,8214926,-3471,-1692,-563,-164,-254,-78,317,163,-241
2,8214937,-3471,-1692,-563,-164,-254,-78,317,163,-241
2,8214945,-3470,-1692,-563,-161,-254,-76,317,163,-241
2,8214953,-3470,-1692,-563,-161,-254,-76,317,163,-241
2,8214962,-3470,-1692,-563,-161,-254,-76,317,163,-241
2,8214970,-3468,-1692,-559,-154,-245,-79,317,163,-241
2,8214978,-3468,-1692,-559,-154,-245,-79,317,163,-241
2,8214986,-3471,-1694,-563,-161,-244,-87,317,163,-241
2,8214995,-3471,-1694,-563,-161,-244,-87,317,163,-241
2,8215003,-3472,-1692,-556,-161,-243,-83,314,164,-248
2,8215009,-3472,-1692,-556,-161,-243,-83,314,164,-248
2,8215014,-3472,-1692,-556,-161,-243,-83,314,164,-248
2,8215021,-3472,-1692,-556,-161,-243,-83,314,164,-248
2,8215028,-3472,-1692,-559,-158,-238,-87,314,164,-248
2,8215035,-3472,-1692,-559,-158,-238,-87,314,164,-248
2,8215044,-3471,-1694,-558,-166,-240,-89,314,164,-248
2,8215051,-3471,-1694,-558,-166,-240,-89,314,164,-248
2,8215058,-3471,-1694,-558,-166,-240,-89,314,164,-248
2,8215065,-3473,-1688,-561,-160,-237,-84,314,164,-248
2,8215071,-3473,-1688,-561,-160,-237,-84,314,164,-248
2,8215078,-3473,-1688,-561,-160,-237,-84,314,164,-248
2,8215087,-3471,-1690,-562,-165,-245,-86,314,164,-248
2,8215094,-3471,-1690,-562,-165,-245,-86,314,164,-248
2,8215101,-3471,-1690,-562,-165,-245,-86,314,164,-248
2,8215108,-3469,-1692,-559,-158,-237,-90,314,164,-248
2,8215116,-3469,-1692,-559,-158,-237,-90,314,164,-248
2,8215122,-3469,-1691,-556,-163,-249,-88,314,164,-248
2,8215130,-3469,-1691,-556,-163,-249,-88,314,164,-248
2,8215137,-3469,-1691,-556,-163,-249,-88,314,164,-248
2,8215143,-3471,-1694,-558,-162,-253,-86,314,164,-248
2,8215150,-3471,-1694,-558,-162,-253,-86,319,167,-247
2,8215156,-3471,-1694,-558,-162,-253,-86,319,167,-247
2,8215161,-3471,-1694,-558,-162,-253,-86,319,167,-247
2,8215170,-3472,-1691,-556,-157,-241,-87,319,167,-247
2,8215176,-3472,-1691,-556,-157,-241,-87,319,167,-247
2,8215183,-3472,-1691,-556,-157,-241,-87,319,167,-247
2,8215190,-3473,-1693,-559,-158,-240,-82,319,167,-247
2,8215197,-3473,-1693,-559,-158,-240,-82,319,167,-247
2,8215203,-3472,-1689,-556,-166,-240,-85,319,167,-247
2,8215209,-3472,-1689,-556,-166,-240,-85,319,167,-247
2,8215218,-3472,-1689,-556,-166,-240,-85,319,167,-247
2,8215224,-3470,-1691,-558,-168,-240,-78,319,167,-247
2,8215230,-3470,-1691,-558,-168,-240,-78,319,167,-247
2,8215236,-3470,-1691,-558,-168,-240,-78,319,167,-247
2,8215243,-3471,-1692,-558,-162,-237,-86,319,167,-247
2,8215250,-3471,-1692,-558,-162,-237,-86,319,167,-247
2,8215258,-3471,-1692,-558,-162,-237,-86,319,167,-247
2,8215266,-3472,-1690,-559,-168,-232,-89,316,174,-244
2,8215273,-3472,-1690,-559,-168,-232,-89,316,174,-244
2,8215278,-3472,-1690,-559,-168,-232,-89,316,174,-244
2,8215283,-3470,-1692,-562,-163,-244,-88,316,174,-244
2,8215289,-3470,-1692,-562,-163,-244,-88,316,174,-244
2,8215294,-3470,-1692,-562,-163,-244,-88,316,174,-244
2,8215301,-3470,-1692,-562,-163,-244,-88,316,174,-244
2,8215307,-3470,-1693,-560,-161,-247,-80,316,174,-244
2,8215312,-3470,-1693,-560,-161,-247,-80,316,174,-244
2,8215319,-3470,-1693,-560,-161,-247,-80,316,174,-244
2,8215327,-3470,-1695,-561,-162,-245,-81,316,174,-244
2,8215335,-3470,-1695,-561,-162,-245,-81,316,174,-244
2,8215344,-3471,-1695,-557,-166,-243,-83,316,174,-244
2,8215350,-3471,-1695,-557,-166,-243,-83,316,174,-244
2,8215356,-3471,-1695,-557,-166,-243,-83,316,174,-244
2,8215362,-3471,-1695,-557,-166,-243,-83,316,174,-244
2,8215370,-3470,-1695,-560,-169,-245,-80,316,174,-244
2,8215377,-3470,-1695,-560,-169,-245,-80,316,174,-244
2,8215387,-3471,-1693,-558,-167,-246,-89,317,167,-243
2,8215394,-3471,-1693,-558,-167,-246,-89,317,167,-243
2,8215401,-3471,-1693,-558,-167,-246,-89,317,167,-243
2,8215407,-3472,-1694,-564,-172,-252,-82,317,167,-243
2,8215414,-3472,-1694,-564,-172,-252,-82,317,167,-243
2,8215421,-3472,-1694,-564,-172,-252,-82,317,167,-243
2,8215429,-3472,-1692,-558,-160,-238,-80,317,167,-243
2,8215437,-3472,-1692,-558,-160,-238,-80,317,167,-243
2,8215444,-3472,-1694,-560,-158,-245,-76,317,167,-243
2,8215450,-3472,-1694,-560,-158,-245,-76,317,167,-243
2,8215457,-3472,-1694,-560,-158,-245,-76,317,167,-243
2,8215465,-3472,-1694,-561,-162,-251,-86,317,167,-243
2,8215472,-3472,-1694,-561,-162,-251,-86,317,167,-243
2,8215480,-3472,-1694,-561,-162,-251,-86,317,167,-243
2,8215486,-3472,-1693,-563,-167,-248,-86,317,167,-243
2,8215493,-3472,-1693,-563,-167,-248,-86,317,167,-243
2,8215500,-3472,-1693,-563,-167,-248,-86,317,167,-243
2,8215507,-3470,-1691,-559,-156,-248,-82,317,165,-245
2,8215515,-3470,-1691,-559,-156,-248,-82,317,165,-245
2,8215522,-3470,-1691,-559,-156,-248,-82,317,165,-245
2,8215528,-3468,-1695,-562,-160,-246,-81,317,165,-245
2,8215536,-3468,-1695,-562,-160,-246,-81,317,165,-245
2,8215544,-3470,-1693,-562,-161,-247,-83,317,165,-245
2,8215550,-3470,-1693,-562,-161,-247,-83,317,165,-245
2,8215558,-3470,-1693,-562,-161,-247,-83,317,165,-245
2,8215566,-3471,-1694,-560,-160,-243,-86,317,165,-245
2,8215572,-3471,-1694,-560,-160,-243,-86,317,165,-245
2,8215578,-3471,-1694,-560,-160,-243,-86,317,165,-245
2,8215586,-3471,-1694,-560,-160,-243,-86,317,165,-245
2,8215593,-3471,-1694,-560,-160,-243,-86,317,165,-245
2,8215601,-3471,-1694,-560,-160,-243,-86,317,165,-245
2,8215608,-3473,-1692,-566,-167,-250,-88,317,165,-245
2,8215616,-3473,-1692,-566,-167,-250,-88,317,165,-245
2,8215622,-3473,-1692,-566,-167,-250,-88,317,165,-245
2,8215631,-3473,-1689,-559,-166,-246,-85,326,164,-246
2,8215639,-3473,-1689,-559,-166,-246,-85,326,164,-246
2,8215646,-3469,-1694,-556,-166,-246,-84,326,164,-246
2,8215654,-3469,-1694,-556,-166,-246,-84,326,164,-246
2,8215660,-3469,-1694,-556,-166,-246,-84,326,164,-246
2,8215667,-3473,-1692,-562,-168,-248,-83,326,164,-246
2,8215673,-3473,-1692,-562,-168,-248,-83,326,164,-246
2,8215682,-3473,-1692,-562,-168,-248,-83,326,164,-246
2,8215688,-3469,-1694,-559,-166,-248,-83,326,164,-246
2,8215694,-3469,-1694,-559,-166,-248,-83,326,164,-246
2,8215701,-3469,-1694,-559,-166,-248,-83,326,164,-246
2,8215706,-3471,-1691,-563,-168,-245,-83,326,164,-246
2,8215711,-3471,-1691,-563,-168,-245,-83,326,164,-246
2,8215716,-3471,-1691,-563,-168,-245,-83,326,164,-246
2,8215723,-3471,-1691,-563,-168,-245,-83,326,164,-246
2,8215728,-3474,-1691,-563,-162,-250,-84,326,164,-246
2,8215733,-3474,-1691,-563,-162,-250,-84,326,164,-246
2,8215740,-3474,-1691,-563,-162,-250,-84,326,164,-246
2,8215746,-3471,-1692,-556,-157,-245,-90,326,164,-246
2,8215753,-3471,-1692,-556,-157,-245,-90,326,164,-246
2,8215760,-3471,-1692,-556,-157,-245,-90,326,164,-246
2,8215768,-3472,-1694,-559,-170,-256,-80,315,167,-243
2,8215775,-3472,-1694,-559,-170,-256,-80,315,167,-243
2,8215783,-3472,-1694,-559,-170,-256,-80,315,167,-243
2,8215790,-3471,-1691,-562,-176,-256,-83,315,167,-243
2,8215797,-3471,-1691,-562,-176,-256,-83,315,167,-243
2,8215804,-3470,-1692,-562,-166,-250,-87,315,167,-243
2,8215813,-3470,-1692,-562,-166,-250,-87,315,167,-243
2,8215819,-3470,-1692,-562,-166,-250,-87,315,167,-243
2,8215826,-3472,-1695,-560,-166,-243,-85,315,167,-243
2,8215833,-3472,-1695,-560,-166,-243,-85,315,167,-243
2,8215840,-3472,-1695,-560,-166,-243,-85,315,167,-243
2,8215846,-3471,-1691,-565,-163,-242,-79,315,167,-243
2,8215854,-3471,-1691,-565,-163,-242,-79,315,167,-243
2,8215861,-3471,-1691,-565,-163,-242,-79,315,167,-243
2,8215868,-3469,-1691,-561,-162,-242,-75,315,167,-243
2,8215873,-3469,-1691,-561,-162,-242,-75,315,167,-243
2,8215878,-3469,-1691,-561,-162,-242,-75,315,167,-243
2,8215883,-3470,-1690,-566,-162,-240,-80,315,167,-243
2,8215891,-3470,-1690,-566,-162,-240,-80,315,173,-245
2,8215899,-3470,-1690,-566,-162,-240,-80,315,173,-245
2,8215905,-3471,-1692,-561,-165,-243,-82,315,173,-245
2,8215911,-3471,-1692,-561,-165,-243,-82,315,173,-245
2,8215918,-3471,-1692,-561,-165,-243,-82,315,173,-245
2,8215924,-3473,-1693,-555,-163,-238,-87,315,173,-245
2,8215931,-3473,-1693,-555,-163,-238,-87,315,173,-245
2,8215937,-3473,-1693,-555,-163,-238,-87,315,173,-245
2,8215942,-3473,-1693,-555,-163,-238,-87,315,173,-245
2,8215948,-3472,-1694,-562,-164,-245,-84,315,173,-245
2,8215953,-3472,-1694,-562,-164,-245,-84,315,173,-245
2,8215957,-3472,-1694,-562,-164,-245,-84,315,173,-245
2,8215963,-3472,-1694,-562,-164,-245,-84,315,173,-245
2,8215968,-3473,-1695,-562,-165,-245,-86,315,173,-245
2,8215972,-3473,-1695,-562,-165,-245,-86,315,173,-245
2,8215980,-3473,-1695,-562,-165,-245,-86,315,173,-245
2,8215987,-3474,-1692,-561,-168,-253,-83,315,173,-245
2,8215993,-3474,-1692,-561,-168,-253,-83,315,173,-245
2,8216000,-3474,-1692,-561,-168,-253,-83,315,173,-245
2,8216007,-3473,-1691,-555,-161,-245,-78,314,170,-246
2,8216016,-3473,-1691,-555,-161,-245,-78,314,170,-246
2,8216029,-3471,-1693,-561,-164,-245,-80,314,170,-246
2,8216039,-3471,-1693,-561,-164,-245,-80,314,170,-246
2,8216049,-3470,-1694,-561,-163,-239,-86,314,170,-246
2,8216062,-3470,-1694,-561,-163,-239,-86,314,170,-246
2,8216076,-3472,-1696,-559,-157,-240,-81,314,170,-246
2,8216085,-3471,-1690,-558,-165,-245,-77,314,170,-246
2,8216097,-3471,-1690,-558,-165,-245,-77,314,170,-246
2,8216115,-3471,-1690,-559,-164,-249,-76,314,170,-246
2,8216129,-3471,-1691,-560,-162,-237,-78,313,169,-243
2,8216137,-3471,-1691,-560,-162,-237,-78,313,169,-243
2,8216150,-3470,-1691,-564,-164,-234,-85,313,169,-243
2,8216161,-3470,-1691,-564,-164,-234,-85,313,169,-243
2,8216172,-3473,-1694,-563,-160,-241,-76,313,169,-243
2,8216183,-3470,-1693,-560,-166,-245,-86,313,169,-243
2,8216197,-3470,-1693,-560,-166,-245,-86,313,169,-243
2,8216211,-3470,-1692,-558,-163,-238,-83,313,169,-243
2,8216224,-3470,-1690,-559,-162,-241,-85,313,169,-243
2,8216235,-3470,-1690,-559,-162,-241,-85,313,169,-243
2,8216248,-3473,-1688,-558,-160,-241,-80,314,162,-246
2,8216260,-3473,-1688,-558,-160,-241,-80,314,162,-246
2,8216273,-3469,-1693,-558,-165,-251,-81,314,162,-246
2,8216284,-3470,-1693,-559,-168,-234,-90,314,162,-246
2,8216298,-3470,-1693,-559,-168,-234,-90,314,162,-246
2,8216310,-3470,-1689,-562,-164,-250,-85,314,162,-246
2,8216322,-3470,-1689,-562,-164,-250,-85,314,162,-246
2,8216335,-3471,-1693,-558,-157,-249,-83,314,162,-246
2,8216350,-3469,-1691,-554,-157,-245,-86,314,162,-246
2,8216361,-3469,-1691,-554,-157,-245,-86,314,162,-246
2,8216373,-3473,-1692,-561,-164,-241,-85,314,162,-246
2,8216385,-3473,-1691,-558,-157,-240,-83,314,162,-246
2,8216398,-3473,-1691,-558,-157,-240,-83,314,162,-246
2,8216411,-3471,-1694,-561,-158,-252,-80,314,162,-246
2,8216424,-3471,-1694,-561,-158,-252,-80,314,162,-246
2,8216437,-3469,-1694,-560,-156,-246,-85,314,162,-246
2,8216451,-3473,-1691,-563,-154,-247,-87,314,162,-246
2,8216463,-3473,-1691,-563,-154,-247,-87,314,162,-246
2,8216472,-3470,-1690,-560,-160,-240,-93,314,162,-246
2,8216480,-3470,-1690,-560,-160,-240,-93,314,162,-246
2,8216488,-3470,-1693,-558,-160,-241,-84,314,162,-246
2,8216496,-3470,-1693,-558,-160,-241,-84,314,162,-246
2,8216509,-3467,-1694,-553,-163,-240,-84,314,170,-246
2,8216519,-3467,-1694,-553,-163,-240,-84,314,170,-246
2,8216532,-3472,-1692,-559,-159,-236,-81,314,170,-246
2,8216545,-3470,-1691,-560,-156,-241,-82,314,170,-246
2,8216557,-3470,-1691,-560,-156,-241,-82,314,170,-246
2,8216569,-3471,-1693,-562,-158,-240,-88,314,170,-246
2,8216583,-3471,-1693,-562,-158,-240,-88,314,170,-246
2,8216598,-3469,-1695,-558,-161,-245,-83,314,170,-246
2,8216608,-3473,-1694,-564,-161,-246,-88,314,170,-246
2,8216621,-3473,-1694,-564,-161,-246,-88,314,170,-246
2,8216634,-3471,-1695,-558,-171,-248,-77,316,166,-240
2,8216647,-3470,-1690,-560,-170,-244,-82,316,166,-240
2,8216659,-3470,-1690,-560,-170,-244,-82,316,166,-240
2,8216673,-3472,-1692,-564,-158,-245,-88,316,166,-240
2,8216686,-3468,-1691,-566,-153,-244,-81,316,166,-240
2,8216699,-3468,-1691,-566,-153,-244,-81,316,166,-240
2,8216708,-3471,-1692,-564,-155,-236,-88,316,166,-240
2,8216716,-3471,-1692,-564,-155,-236,-88,316,166,-240
2,8216724,-3470,-1691,-562,-169,-235,-82,316,166,-240
2,8216732,-3470,-1691,-562,-169,-235,-82,316,166,-240
2,8216743,-3470,-1691,-562,-169,-235,-82,316,166,-240
2,8216755,-3473,-1690,-562,-162,-241,-80,312,170,-240
2,8216768,-3469,-1692,-565,-154,-235,-83,312,170,-240
2,8216783,-3469,-1692,-565,-154,-235,-83,312,170,-240
2,8216799,-3469,-1691,-564,-157,-240,-82,312,170,-240
2,8216807,-3469,-1693,-561,-162,-241,-87,312,170,-240
2,8216819,-3469,-1693,-561,-162,-241,-87,312,170,-240
2,8216834,-3472,-1692,-559,-161,-240,-85,312,170,-240
2,8216849,-3472,-1691,-560,-165,-246,-88,312,170,-240
2,8216857,-3472,-1691,-560,-165,-246,-88,312,170,-240
2,8216869,-3470,-1693,-559,-165,-243,-78,312,170,-246
2,8216883,-3470,-1693,-559,-165,-243,-78,312,170,-246
2,8216895,-3470,-1692,-561,-164,-243,-76,312,170,-246
2,8216907,-3473,-1691,-566,-164,-247,-86,312,170,-246
2,8216920,-3473,-1691,-566,-164,-247,-86,312,170,-246
2,8216934,-3470,-1689,-563,-160,-247,-84,312,170,-246
2,8216941,-3470,-1689,-563,-160,-247,-84,312,170,-246
2,8216949,-3471,-1692,-562,-164,-244,-88,312,170,-246
2,8216957,-3471,-1692,-562,-164,-244,-88,312,170,-246
2,8216967,-3467,-1691,-563,-165,-245,-85,312,170,-246
2,8216975,-3467,-1691,-563,-165,-245,-85,312,170,-246
2,8216983,-3467,-1691,-563,-165,-245,-85,312,170,-246
2,8216991,-3466,-1692,-563,-165,-248,-79,315,165,-247
2,8216999,-3466,-1692,-563,-165,-248,-79,315,165,-247
2,8217008,-3470,-1693,-566,-167,-251,-82,315,165,-247
2,8217016,-3470,-1693,-566,-167,-251,-82,315,165,-247
2,8217023,-3470,-1693,-566,-167,-251,-82,315,165,-247
2,8217031,-3471,-1691,-560,-168,-251,-83,315,165,-247
2,8217037,-3471,-1691,-560,-168,-251,-83,315,165,-247
2,8217046,-3471,-1691,-553,-166,-241,-83,315,165,-247
2,8217053,-3471,-1691,-553,-166,-241,-83,315,165,-247
2,8217060,-3471,-1691,-553,-166,-241,-83,315,165,-247
2,8217066,-3471,-1690,-560,-160,-243,-82,315,165,-247
2,8217073,-3471,-1690,-560,-160,-243,-82,315,165,-247
2,8217080,-3471,-1690,-560,-160,-243,-82,315,165,-247
2,8217086,-3473,-1693,-561,-161,-249,-87,315,165,-247
2,8217095,-3473,-1693,-561,-161,-249,-87,315,165,-247
2,8217102,-3473,-1693,-561,-161,-249,-87,315,165,-247
2,8217106,-3472,-1692,-560,-164,-246,-83,315,165,-247
2,8217114,-3472,-1692,-560,-164,-246,-83,315,165,-247
2,8217120,-3472,-1692,-560,-164,-246,-83,315,165,-247
2,8217127,-3471,-1695,-562,-165,-254,-83,310,168,-246
2,8217135,-3471,-1695,-562,-165,-254,-83,310,168,-246
2,8217142,-3471,-1695,-562,-165,-254,-83,310,168,-246
2,8217147,-3472,-1690,-560,-158,-252,-83,310,168,-246
2,8217152,-3472,-1690,-560,-158,-252,-83,310,168,-246
2,8217159,-3472,-1690,-560,-158,-252,-83,310,168,-246
2,8217166,-3470,-1693,-567,-158,-250,-84,310,168,-246
2,8217171,-3470,-1693,-567,-158,-250,-84,310,168,-246
2,8217180,-3470,-1693,-567,-158,-250,-84,310,168,-246
2,8217187,-3469,-1690,-557,-166,-254,-77,310,168,-246
2,8217196,-3469,-1690,-557,-166,-254,-77,310,168,-246
2,8217202,-3469,-1690,-557,-166,-254,-77,310,168,-246
2,8217208,-3469,-1695,-562,-163,-251,-78,310,168,-246
2,8217216,-3469,-1695,-562,-163,-251,-78,310,168,-246
2,8217225,-3469,-1695,-562,-163,-251,-78,310,168,-246
2,8217231,-3473,-1694,-560,-165,-250,-77,310,168,-246
2,8217238,-3473,-1694,-560,-165,-250,-77,310,168,-246
2,8217246,-3470,-1693,-560,-167,-243,-81,316,172,-248
2,8217253,-3470,-1693,-560,-167,-243,-81,316,172,-248
2,8217260,-3470,-1693,-560,-167,-243,-81,316,172,-248
2,8217267,-3470,-1691,-559,-161,-246,-80,316,172,-248
2,8217275,-3470,-1691,-559,-161,-246,-80,316,172,-248
2,8217281,-3470,-1691,-559,-161,-246,-80,316,172,-248
2,8217288,-3472,-1694,-561,-158,-242,-77,316,172,-248
2,8217294,-3472,-1694,-561,-158,-242,-77,316,172,-248
2,8217302,-3472,-1694,-561,-158,-242,-77,316,172,-248
2,8217308,-3472,-1693,-561,-155,-243,-78,316,172,-248
2,8217316,-3472,-1693,-561,-155,-243,-78,316,172,-248
2,8217322,-3472,-1693,-561,-155,-243,-78,316,172,-248
2,8217330,-3472,-1693,-560,-165,-246,-83,316,172,-248
2,8217336,-3472,-1693,-560,-165,-246,-83,316,172,-248
2,8217345,-3472,-1693,-560,-165,-246,-83,316,172,-248
2,8217351,-3469,-1694,-556,-158,-237,-90,316,172,-248
2,8217357,-3469,-1694,-556,-158,-237,-90,316,172,-248
2,8217364,-3469,-1694,-556,-158,-237,-90,316,172,-248
2,8217372,-3474,-1692,-561,-164,-248,-89,312,164,-246
2,8217378,-3474,-1692,-561,-164,-248,-89,312,164,-246
2,8217385,-3472,-1691,-564,-158,-250,-76,312,164,-246
2,8217392,-3472,-1691,-564,-158,-250,-76,312,164,-246
2,8217399,-3472,-1691,-564,-158,-250,-76,312,164,-246
2,8217407,-3475,-1694,-561,-162,-249,-82,312,164,-246
2,8217415,-3475,-1694,-561,-162,-249,-82,312,164,-246
2,8217422,-3475,-1694,-561,-162,-249,-82,312,164,-246
2,8217430,-3472,-1693,-563,-163,-250,-85,312,164,-246
2,8217438,-3472,-1693,-563,-163,-250,-85,312,164,-246
2,8217444,-3472,-1693,-563,-163,-250,-85,312,164,-246
2,8217451,-3474,-1693,-563,-155,-244,-82,312,164,-246
2,8217456,-3474,-1693,-563,-155,-244,-82,312,164,-246
2,8217464,-3474,-1693,-563,-155,-244,-82,312,164,-246
2,8217470,-3470,-1693,-568,-168,-251,-86,312,164,-246
2,8217477,-3470,-1693,-568,-168,-251,-86,312,164,-246
2,8217484,-3470,-1693,-568,-168,-251,-86,312,164,-246
2,8217492,-3470,-1693,-561,-167,-243,-81,316,164,-244
2,8217499,-3470,-1693,-561,-167,-243,-81,316,164,-244
2,8217506,-3473,-1694,-555,-166,-246,-81,316,164,-244
2,8217513,-3473,-1694,-555,-166,-246,-81,316,164,-244
2,8217521,-3473,-1694,-555,-166,-246,-81,316,164,-244
2,8217527,-3470,-1693,-557,-164,-251,-79,316,164,-244
2,8217534,-3470,-1693,-557,-164,-251,-79,316,164,-244
2,8217543,-3470,-1693,-557,-164,-251,-79,316,164,-244
2,8217549,-3471,-1695,-560,-163,-250,-80,316,164,-244
2,8217556,-3471,-1695,-560,-163,-250,-80,316,164,-244
2,8217563,-3471,-1695,-560,-163,-250,-80,316,164,-244
2,8217570,-3470,-1696,-559,-160,-240,-85,316,164,-244
2,8217576,-3470,-1696,-559,-160,-240,-85,316,164,-244
2,8217583,-3470,-1696,-559,-160,-240,-85,316,164,-244
2,8217589,-3471,-1693,-563,-158,-240,-84,316,164,-244
2,8217597,-3471,-1693,-563,-158,-240,-84,316,164,-244
2,8217604,-3471,-1693,-563,-158,-240,-84,316,164,-244
2,8217611,-3470,-1690,-559,-160,-247,-89,321,169,-243
2,8217618,-3470,-1690,-559,-160,-247,-89,321,169,-243
2,8217624,-3470,-1690,-559,-160,-247,-89,321,169,-243
2,8217631,-3471,-1694,-558,-167,-245,-84,321,169,-243
2,8217638,-3471,-1694,-558,-167,-245,-84,321,169,-243
2,8217645,-3471,-1694,-558,-167,-245,-84,321,169,-243
2,8217649,-3471,-1692,-558,-161,-244,-81,321,169,-243
2,8217657,-3471,-1692,-558,-161,-244,-81,321,169,-243
2,8217665,-3470,-1691,-564,-161,-242,-81,321,169,-243
2,8217671,-3470,-1691,-564,-161,-242,-81,321,169,-243
2,8217677,-3470,-1691,-564,-161,-242,-81,321,169,-243
2,8217684,-3470,-1691,-564,-161,-242,-81,321,169,-243
2,8217691,-3468,-1696,-562,-160,-247,-85,321,169,-243
2,8217698,-3468,-1696,-562,-160,-247,-85,321,169,-243
2,8217703,-3468,-1696,-562,-160,-247,-85,321,169,-243
2,8217708,-3470,-1695,-565,-160,-251,-84,321,169,-243
2,8217712,-3470,-1695,-565,-160,-251,-84,321,169,-243
2,8217717,-3470,-1695,-565,-160,-251,-84,321,169,-243
2,8217722,-3470,-1695,-565,-160,-251,-84,321,169,-243
2,8217729,-3471,-1691,-563,-161,-244,-83,321,169,-243
2,8217737,-3471,-1691,-563,-161,-244,-83,321,169,-243
2,8217743,-3471,-1691,-563,-161,-244,-83,321,169,-243
2,8217750,-3471,-1695,-562,-165,-249,-82,310,166,-244
2,8217758,-3471,-1695,-562,-165,-249,-82,310,166,-244
2,8217765,-3472,-1691,-560,-163,-249,-83,310,166,-244
2,8217773,-3472,-1691,-560,-163,-249,-83,310,166,-244
2,8217779,-3472,-1691,-560,-163,-249,-83,310,166,-244
2,8217786,-3474,-1691,-562,-166,-246,-81,310,166,-244
2,8217791,-3474,-1691,-562,-166,-246,-81,310,166,-244
2,8217799,-3474,-1691,-562,-166,-246,-81,310,166,-244
2,8217807,-3472,-1693,-562,-166,-239,-80,310,166,-244
2,8217815,-3472,-1693,-562,-166,-239,-80,310,166,-244
2,8217822,-3472,-1693,-562,-166,-239,-80,310,166,-244
2,8217829,-3468,-1691,-564,-168,-243,-73,310,166,-244
2,8217835,-3468,-1691,-564,-168,-243,-73,310,166,-244
2,8217842,-3468,-1691,-564,-168,-243,-73,310,166,-244
2,8217849,-3470,-1691,-565,-167,-244,-79,310,166,-244
2,8217857,-3470,-1691,-565,-167,-244,-79,310,166,-244
2,8217865,-3470,-1691,-565,-167,-244,-79,310,166,-244
2,8217871,-3471,-1691,-558,-168,-246,-81,321,157,-247
2,8217876,-3471,-1691,-558,-168,-246,-81,321,157,-247
2,8217883,-3471,-1691,-558,-168,-246,-81,321,157,-247
2,8217891,-3471,-1693,-556,-167,-235,-84,321,157,-247
2,8217900,-3471,-1693,-556,-167,-235,-84,321,157,-247
2,8217907,-3472,-1695,-556,-160,-239,-78,321,157,-247
2,8217913,-3472,-1695,-556,-160,-239,-78,321,157,-247
2,8217919,-3472,-1695,-556,-160,-239,-78,321,157,-247
2,8217927,-3474,-1694,-563,-161,-240,-77,321,157,-247
2,8217934,-3474,-1694,-563,-161,-240,-77,321,157,-247
2,8217938,-3474,-1694,-563,-161,-240,-77,321,157,-247
2,8217945,-3474,-1694,-563,-161,-240,-77,321,157,-247
2,8217950,-3476,-1695,-565,-168,-242,-84,321,157,-247
2,8217955,-3476,-1695,-565,-168,-242,-84,321,157,-247
2,8217960,-3476,-1695,-565,-168,-242,-84,321,157,-247
2,8217965,-3476,-1695,-565,-168,-242,-84,321,157,-247
2,8217970,-3472,-1692,-561,-168,-238,-83,321,157,-247
2,8217975,-3472,-1692,-561,-168,-238,-83,321,157,-247
2,8217980,-3472,-1692,-561,-168,-238,-83,321,157,-247
2,8217987,-3470,-1692,-558,-167,-238,-88,315,165,-247
2,8217995,-3470,-1692,-558,-167,-238,-88,315,165,-247
2,8218000,-3470,-1692,-558,-167,-238,-88,315,165,-247
2,8218007,-3471,-1691,-560,-165,-238,-83,315,165,-247
2,8218013,-3471,-1691,-560,-165,-238,-83,315,165,-247
2,8218020,-3471,-1691,-560,-165,-238,-83,315,165,-247
2,8218029,-3472,-1692,-565,-166,-242,-84,315,165,-247
2,8218042,-3472,-1692,-565,-166,-242,-84,315,165,-247
2,8218054,-3471,-1695,-560,-164,-238,-79,315,165,-247
2,8218062,-3471,-1695,-560,-164,-238,-79,315,165,-247
2,8218076,-3467,-1691,-564,-164,-238,-75,315,165,-247
2,8218089,-3471,-1693,-562,-166,-236,-77,315,165,-247
2,8218101,-3471,-1693,-562,-166,-236,-77,315,165,-247
2,8218112,-3473,-1693,-559,-164,-230,-80,310,166,-242
2,8218123,-3473,-1693,-559,-164,-230,-80,310,166,-242
2,8218132,-3472,-1691,-556,-159,-239,-81,310,166,-242
2,8218143,-3472,-1691,-556,-159,-239,-81,310,166,-242
2,8218157,-3472,-1692,-563,-158,-241,-88,310,166,-242
2,8218170,-3472,-1693,-562,-161,-241,-88,310,166,-242
2,8218180,-3472,-1693,-562,-161,-241,-88,310,166,-242
2,8218192,-3470,-1689,-564,-158,-239,-89,310,166,-242
2,8218206,-3473,-1688,-564,-162,-239,-88,310,166,-242
2,8218219,-3473,-1688,-564,-162,-239,-88,310,166,-242
2,8218229,-3475,-1691,-557,-164,-237,-82,314,172,-244
2,8218243,-3475,-1691,-557,-164,-237,-82,314,172,-244
2,8218256,-3472,-1692,-561,-167,-235,-89,314,172,-244
2,8218270,-3468,-1691,-564,-161,-233,-92,314,172,-244
2,8218280,-3468,-1691,-564,-161,-233,-92,314,172,-244
2,8218291,-3469,-1692,-564,-161,-235,-84,314,172,-244
2,8218299,-3469,-1692,-564,-161,-235,-84,314,172,-244
2,8218307,-3472,-1693,-566,-159,-237,-85,314,172,-244
2,8218314,-3472,-1693,-566,-159,-237,-85,314,172,-244
2,8218327,-3470,-1689,-566,-165,-239,-91,314,172,-244
2,8218338,-3470,-1689,-566,-165,-239,-91,314,172,-244
2,8218347,-3473,-1690,-560,-161,-236,-86,314,172,-244
2,8218359,-3473,-1690,-560,-161,-236,-86,314,172,-244
2,8218373,-3470,-1690,-556,-161,-243,-82,311,165,-241
2,8218386,-3473,-1692,-566,-160,-244,-85,311,165,-241
2,8218397,-3473,-1692,-566,-160,-244,-85,311,165,-241
2,8218408,-3469,-1695,-559,-160,-243,-81,311,165,-241
2,8218423,-3469,-1695,-559,-160,-243,-81,311,165,-241
2,8218436,-3470,-1693,-557,-161,-243,-83,311,165,-241
2,8218447,-3470,-1691,-558,-153,-236,-83,311,165,-241
2,8218460,-3470,-1691,-558,-153,-236,-83,311,165,-241
2,8218474,-3472,-1693,-561,-155,-241,-84,311,165,-241
2,8218488,-3472,-1696,-556,-165,-241,-87,313,163,-249
2,8218499,-3472,-1696,-556,-165,-241,-87,313,163,-249
2,8218509,-3470,-1694,-560,-161,-239,-87,313,163,-249
2,8218525,-3470,-1694,-560,-161,-239,-87,313,163,-249
2,8218540,-3473,-1691,-558,-163,-235,-81,313,163,-249
2,8218549,-3473,-1691,-558,-163,-235,-81,313,163,-249
2,8218561,-3473,-1691,-558,-163,-235,-81,313,163,-249
2,8218573,-3472,-1692,-561,-158,-240,-83,313,163,-249
2,8218587,-3472,-1692,-561,-158,-240,-83,313,163,-249
2,8218597,-3472,-1692,-561,-158,-240,-83,313,163,-249
2,8218611,-3470,-1691,-561,-157,-238,-78,314,166,-242
2,8218624,-3470,-1691,-561,-157,-238,-78,314,166,-242
2,8218636,-3469,-1690,-556,-154,-240,-81,314,166,-242
2,8218649,-3471,-1692,-556,-160,-239,-83,314,166,-242
2,8218662,-3471,-1692,-556,-160,-239,-83,314,166,-242
2,8218675,-3473,-1692,-564,-158,-247,-83,314,166,-242
2,8218688,-3470,-1691,-564,-160,-237,-85,314,166,-242
2,8218700,-3470,-1691,-564,-160,-237,-85,314,166,-242
2,8218708,-3471,-1693,-561,-160,-234,-81,314,166,-242
2,8218717,-3471,-1693,-561,-160,-234,-81,314,166,-242
2,8218725,-3471,-1693,-561,-160,-234,-81,314,166,-242
2,8218734,-3473,-1694,-561,-161,-240,-84,311,169,-243
2,8218746,-3470,-1691,-560,-169,-250,-91,311,169,-243
2,8218760,-3470,-1691,-560,-169,-250,-91,311,169,-243
2,8218772,-3473,-1690,-559,-169,-255,-87,311,169,-243
2,8218782,-3473,-1690,-559,-169,-255,-87,311,169,-243
2,8218796,-3474,-1694,-561,-157,-248,-81,311,169,-243
2,8218809,-3470,-1692,-556,-165,-239,-78,311,169,-243
2,8218822,-3470,-1692,-556,-165,-239,-78,311,169,-243
2,8218832,-3471,-1694,-559,-168,-251,-94,311,169,-243
2,8218846,-3471,-1694,-559,-168,-251,-94,311,169,-243
2,8218858,-3473,-1690,-559,-164,-249,-86,311,173,-245
2,8218871,-3470,-1692,-559,-167,-247,-80,311,173,-245
2,8218883,-3470,-1692,-559,-167,-247,-80,311,173,-245
2,8218895,-3474,-1692,-554,-160,-242,-78,311,173,-245
2,8218909,-3471,-1693,-557,-162,-251,-81,311,173,-245
2,8218923,-3471,-1693,-557,-162,-251,-81,311,173,-245
2,8218933,-3469,-1695,-562,-157,-251,-85,311,173,-245
2,8218941,-3469,-1695,-562,-157,-251,-85,311,173,-245
2,8218949,-3468,-1690,-566,-157,-242,-88,311,173,-245
2,8218957,-3468,-1690,-566,-157,-242,-88,311,173,-245
2,8218967,-3472,-1694,-556,-165,-237,-86,311,173,-245
2,8218975,-3472,-1694,-556,-165,-237,-86,311,173,-245
2,8218983,-3472,-1694,-556,-165,-237,-86,311,173,-245
2,8218991,-3473,-1693,-557,-162,-248,-81,317,163,-243
2,8218999,-3473,-1693,-557,-162,-248,-81,317,163,-243
2,8219008,-3472,-1693,-561,-167,-250,-81,317,163,-243
2,8219016,-3472,-1693,-561,-167,-250,-81,317,163,-243
2,8219029,-3469,-1694,-561,-166,-250,-85,317,163,-243
2,8219038,-3469,-1694,-561,-166,-250,-85,317,163,-243
2,8219046,-3469,-1694,-561,-166,-250,-85,317,163,-243
2,8219053,-3471,-1694,-559,-165,-246,-84,317,163,-243
2,8219059,-3471,-1694,-559,-165,-246,-84,317,163,-243
2,8219067,-3471,-1690,-561,-166,-244,-86,317,163,-243
2,8219074,-3471,-1690,-561,-166,-244,-86,317,163,-243
2,8219080,-3471,-1690,-561,-166,-244,-86,317,163,-243
2,8219087,-3471,-1698,-561,-172,-238,-88,317,163,-243
2,8219094,-3471,-1698,-561,-172,-238,-88,317,163,-243
2,8219099,-3471,-1698,-561,-172,-238,-88,317,163,-243
2,8219106,-3471,-1698,-561,-172,-238,-88,317,163,-243
2,8219114,-3472,-1691,-559,-163,-239,-87,317,175,-247
2,8219122,-3472,-1691,-559,-163,-239,-87,317,175,-247
2,8219129,-3475,-1691,-558,-165,-247,-86,317,175,-247
2,8219136,-3475,-1691,-558,-165,-247,-86,317,175,-247
2,8219142,-3475,-1691,-558,-165,-247,-86,317,175,-247
2,8219148,-3471,-1693,-560,-168,-242,-89,317,175,-247
2,8219155,-3471,-1693,-560,-168,-242,-89,317,175,-247
2,8219163,-3471,-1693,-560,-168,-242,-89,317,175,-247
2,8219170,-3474,-1690,-561,-157,-247,-88,317,175,-247
2,8219176,-3474,-1690,-561,-157,-247,-88,317,175,-247
2,8219185,-3474,-1690,-561,-157,-247,-88,317,175,-247
2,8219192,-3470,-1693,-562,-166,-246,-88,317,175,-247
2,8219200,-3470,-1693,-562,-166,-246,-88,317,175,-247
2,8219206,-3472,-1691,-562,-167,-244,-80,317,175,-247
2,8219213,-3472,-1691,-562,-167,-244,-80,317,175,-247
2,8219220,-3472,-1691,-562,-167,-244,-80,317,175,-247
2,8219228,-3471,-1691,-557,-161,-246,-83,317,173,-249
2,8219235,-3471,-1691,-557,-161,-246,-83,317,173,-249
2,8219242,-3471,-1691,-557,-161,-246,-83,317,173,-249
2,8219249,-3471,-1691,-559,-166,-245,-90,317,173,-249
2,8219256,-3471,-1691,-559,-166,-245,-90,317,173,-249
2,8219264,-3471,-1691,-559,-166,-245,-90,317,173,-249
2,8219271,-3471,-1691,-559,-167,-246,-86,317,173,-249
2,8219278,-3471,-1691,-559,-167,-246,-86,317,173,-249
2,8219285,-3471,-1691,-559,-167,-246,-86,317,173,-249
2,8219291,-3472,-1691,-558,-164,-246,-84,317,173,-249
2,8219297,-3472,-1691,-558,-164,-246,-84,317,173,-249
2,8219307,-3472,-1691,-558,-164,-246,-84,317,173,-249
2,8219314,-3470,-1691,-563,-164,-241,-84,317,173,-249
2,8219321,-3470,-1691,-563,-164,-241,-84,317,173,-249
2,8219328,-3470,-1692,-559,-159,-243,-84,317,173,-249
2,8219335,-3470,-1692,-559,-159,-243,-84,317,173,-249
2,8219343,-3470,-1692,-559,-159,-243,-84,317,173,-249
2,8219351,-3470,-1693,-561,-163,-250,-88,318,172,-244
2,8219359,-3470,-1693,-561,-163,-250,-88,318,172,-244
2,8219364,-3470,-1693,-561,-163,-250,-88,318,172,-244
2,8219370,-3470,-1691,-563,-168,-244,-86,318,172,-244
2,8219378,-3470,-1691,-563,-168,-244,-86,318,172,-244
2,8219383,-3470,-1691,-563,-168,-244,-86,318,172,-244
2,8219392,-3474,-1692,-564,-162,-240,-81,318,172,-244
2,8219399,-3474,-1692,-564,-162,-240,-81,318,172,-244
2,8219407,-3474,-1692,-564,-162,-240,-81,318,172,-244
2,8219413,-3469,-1689,-561,-156,-243,-80,318,172,-244
2,8219421,-3469,-1689,-561,-156,-243,-80,318,172,-244
2,8219427,-3469,-1696,-562,-163,-247,-85,318,172,-244
2,8219433,-3469,-1696,-562,-163,-247,-85,318,172,-244
2,8219441,-3469,-1696,-562,-163,-247,-85,318,172,-244
2,8219449,-3469,-1696,-562,-163,-247,-85,318,172,-244
2,8219456,-3469,-1696,-562,-163,-247,-85,318,172,-244
2,8219462,-3469,-1696,-562,-163,-247,-85,318,172,-244
2,8219468,-3471,-1690,-557,-154,-249,-90,325,163,-251
2,8219475,-3471,-1690,-557,-154,-249,-90,325,163,-251
2,8219483,-3471,-1690,-557,-154,-249,-90,325,163,-251
2,8219491,-3469,-1694,-560,-161,-249,-85,325,163,-251
2,8219499,-3469,-1694,-560,-161,-249,-85,325,163,-251
2,8219505,-3469,-1694,-560,-161,-249,-85,325,163,-251
2,8219512,-3469,-1691,-560,-160,-242,-90,325,163,-251
2,8219520,-3469,-1691,-560,-160,-242,-90,325,163,-251
2,8219525,-3469,-1691,-560,-160,-242,-90,325,163,-251
2,8219530,-3472,-1692,-567,-159,-244,-82,325,163,-251
2,8219535,-3472,-1692,-567,-159,-244,-82,325,163,-251
2,8219543,-3472,-1692,-567,-159,-244,-82,325,163,-251
2,8219550,-3472,-1692,-567,-159,-244,-82,325,163,-251
2,8219557,-3472,-1692,-567,-159,-244,-82,325,163,-251
2,8219564,-3472,-1692,-567,-159,-244,-82,325,163,-251
2,8219571,-3471,-1694,-557,-165,-249,-90,325,163,-251
2,8219578,-3471,-1694,-557,-165,-249,-90,325,163,-251
2,8219584,-3471,-1694,-557,-165,-249,-90,325,163,-251
2,8219592,-3469,-1695,-559,-166,-244,-85,325,163,-251
2,8219599,-3469,-1695,-559,-166,-244,-85,325,163,-251
2,8219604,-3469,-1695,-559,-166,-244,-85,325,163,-251
2,8219613,-3471,-1692,-558,-165,-246,-84,316,160,-244
2,8219621,-3471,-1692,-558,-165,-246,-84,316,160,-244
2,8219627,-3471,-1694,-564,-161,-240,-85,316,160,-244
2,8219633,-3471,-1694,-564,-161,-240,-85,316,160,-244
2,8219641,-3471,-1694,-564,-161,-240,-85,316,160,-244
2,8219648,-3469,-1690,-563,-165,-250,-84,316,160,-244
2,8219654,-3469,-1690,-563,-165,-250,-84,316,160,-244
2,8219659,-3469,-1690,-563,-165,-250,-84,316,160,-244
2,8219664,-3469,-1690,-563,-165,-250,-84,316,160,-244
2,8219669,-3471,-1696,-563,-155,-241,-80,316,160,-244
2,8219674,-3471,-1696,-563,-155,-241,-80,316,160,-244
2,8219681,-3471,-1696,-563,-155,-241,-80,316,160,-244
2,8219688,-3470,-1692,-564,-159,-246,-85,316,160,-244
2,8219695,-3470,-1692,-564,-159,-246,-85,316,160,-244
2,8219702,-3470,-1692,-564,-159,-246,-85,316,160,-244
2,8219707,-3470,-1695,-563,-165,-243,-85,316,160,-244
2,8219712,-3470,-1695,-563,-165,-243,-85,316,160,-244
2,8219717,-3470,-1695,-563,-165,-243,-85,316,160,-244
2,8219722,-3470,-1695,-563,-165,-243,-85,316,160,-244
2,8219727,-3471,-1694,-557,-164,-246,-91,313,171,-243
2,8219732,-3471,-1694,-557,-164,-246,-91,313,171,-243
2,8219741,-3471,-1694,-557,-164,-246,-91,313,171,-243
2,8219747,-3471,-1694,-557,-164,-246,-91,313,171,-243
2,8219752,-3472,-1692,-561,-160,-250,-87,313,171,-243
2,8219760,-3472,-1692,-561,-160,-250,-87,313,171,-243
2,8219767,-3469,-1693,-560,-161,-239,-86,313,171,-243
2,8219776,-3469,-1693,-560,-161,-239,-86,313,171,-243
2,8219782,-3469,-1693,-560,-161,-239,-86,313,171,-243
2,8219789,-3473,-1694,-559,-163,-247,-84,313,171,-243
2,8219796,-3473,-1694,-559,-163,-247,-84,313,171,-243
2,8219805,-3473,-1694,-559,-163,-247,-84,313,171,-243
2,8219811,-3473,-1692,-558,-158,-244,-78,313,171,-243
2,8219817,-3473,-1692,-558,-158,-244,-78,313,171,-243
2,8219826,-3473,-1692,-558,-158,-244,-78,313,171,-243
2,8219833,-3474,-1692,-559,-159,-242,-87,313,171,-243
2,8219840,-3474,-1692,-559,-159,-242,-87,313,171,-243
2,8219846,-3474,-1692,-559,-159,-242,-87,313,171,-243
2,8219854,-3470,-1692,-552,-157,-245,-85,310,170,-254
2,8219860,-3470,-1692,-552,-157,-245,-85,310,170,-254
2,8219868,-3470,-1692,-552,-157,-245,-85,310,170,-254
2,8219875,-3470,-1692,-552,-157,-245,-85,310,170,-254
2,8219882,-3470,-1692,-552,-157,-245,-85,310,170,-254
2,8219887,-3471,-1692,-563,-166,-250,-79,310,170,-254
2,8219895,-3471,-1692,-563,-166,-250,-79,310,170,-254
2,8219902,-3471,-1692,-563,-166,-250,-79,310,170,-254
2,8219909,-3474,-1694,-563,-163,-247,-83,310,170,-254
2,8219917,-3474,-1694,-563,-163,-247,-83,310,170,-254
2,8219923,-3474,-1694,-563,-163,-247,-83,310,170,-254
2,8219930,-3470,-1694,-561,-157,-249,-86,310,170,-254
2,8219936,-3470,-1694,-561,-157,-249,-86,310,170,-254
2,8219941,-3470,-1694,-561,-157,-249,-86,310,170,-254
2,8219947,-3470,-1694,-561,-157,-249,-86,310,170,-254
2,8219952,-3470,-1696,-562,-159,-247,-83,310,170,-254
2,8219957,-3470,-1696,-562,-159,-247,-83,310,170,-254
2,8219962,-3470,-1696,-562,-159,-247,-83,310,170,-254
2,8219967,-3471,-1691,-560,-159,-245,-90,316,170,-254
2,8219972,-3471,-1691,-560,-159,-245,-90,316,156,-244
2,8219977,-3471,-1691,-560,-159,-245,-90,316,156,-244
2,8219985,-3471,-1691,-560,-159,-245,-90,316,156,-244
2,8219994,-3469,-1690,-557,-166,-241,-92,316,156,-244
2,8220002,-3469,-1690,-557,-166,-241,-92,316,156,-244
2,8220007,-3470,-1693,-565,-163,-240,-95,316,156,-244
2,8220015,-3470,-1693,-565,-163,-240,-95,316,156,-244
2,8220022,-3470,-1693,-565,-163,-240,-95,316,156,-244
2,8220028,-3470,-1692,-560,-160,-238,-88,316,156,-244
2,8220036,-3470,-1692,-560,-160,-238,-88,316,156,-244
2,8220045,-3470,-1692,-560,-160,-238,-88,316,156,-244
2,8220056,-3470,-1693,-557,-160,-251,-84,316,156,-244
2,8220067,-3470,-1693,-557,-160,-251,-84,316,156,-244
2,8220081,-3472,-1693,-562,-160,-246,-84,316,156,-244
2,8220090,-3470,-1691,-556,-163,-249,-83,308,180,-244
2,8220103,-3470,-1691,-556,-163,-249,-83,308,180,-244
2,8220115,-3470,-1692,-560,-161,-244,-80,308,180,-244
2,8220128,-3473,-1693,-560,-161,-250,-82,308,180,-244
2,8220139,-3473,-1693,-560,-161,-250,-82,308,180,-244
2,8220154,-3471,-1692,-559,-161,-238,-83,308,180,-244
2,8220169,-3468,-1693,-559,-156,-245,-85,308,180,-244
2,8220181,-3468,-1693,-559,-156,-245,-85,308,180,-244
2,8220190,-3470,-1693,-560,-158,-249,-79,308,180,-244
2,8220203,-3470,-1693,-560,-158,-249,-79,308,180,-244
2,8220215,-3473,-1694,-562,-163,-242,-81,310,160,-236
2,8220228,-3469,-1692,-557,-159,-243,-80,310,160,-236
2,8220236,-3469,-1692,-557,-159,-243,-80,310,160,-236
2,8220243,-3469,-1692,-557,-159,-243,-80,310,160,-236
2,8220252,-3468,-1692,-560,-160,-247,-82,310,160,-236
2,8220260,-3468,-1692,-560,-160,-247,-82,310,160,-236
2,8220268,-3471,-1690,-560,-167,-244,-81,310,160,-236
2,8220281,-3471,-1690,-560,-167,-244,-81,310,160,-236
2,8220294,-3467,-1693,-562,-166,-244,-84,310,160,-236
2,8220306,-3467,-1693,-562,-166,-244,-84,310,160,-236
2,8220319,-3472,-1691,-563,-166,-250,-90,310,160,-236
2,8220335,-3471,-1693,-560,-158,-249,-86,310,160,-236
2,8220349,-3469,-1690,-556,-163,-245,-74,312,166,-254
2,8220358,-3469,-1690,-556,-163,-245,-74,312,166,-254
2,8220371,-3468,-1690,-558,-165,-245,-88,312,166,-254
2,8220385,-3468,-1690,-558,-165,-245,-88,312,166,-254
2,8220399,-3469,-1694,-566,-160,-244,-81,312,166,-254
2,8220408,-3469,-1692,-560,-158,-248,-88,312,166,-254
2,8220421,-3469,-1692,-560,-158,-248,-88,312,166,-254
2,8220432,-3468,-1694,-567,-153,-247,-82,312,166,-254
2,8220446,-3468,-1694,-567,-153,-247,-82,312,166,-254
2,8220457,-3467,-1690,-561,-158,-244,-83,312,166,-254
2,8220472,-3467,-1690,-561,-162,-245,-84,310,174,-250
2,8220483,-3467,-1690,-561,-162,-245,-84,310,174,-250
2,8220496,-3467,-1695,-556,-162,-240,-75,310,174,-250
2,8220510,-3471,-1695,-561,-165,-239,-80,310,174,-250
2,8220523,-3471,-1695,-561,-165,-239,-80,310,174,-250
2,8220535,-3472,-1693,-567,-164,-248,-84,310,174,-250
2,8220549,-3471,-1695,-561,-163,-245,-79,310,174,-250
2,8220561,-3471,-1695,-561,-163,-245,-79,310,174,-250
2,8220573,-3470,-1694,-563,-160,-244,-85,310,174,-250
2,8220588,-3470,-1694,-563,-160,-244,-85,310,174,-250
2,8220601,-3469,-1693,-560,-161,-237,-82,316,166,-248
2,8220614,-3468,-1692,-560,-164,-238,-89,316,166,-248
2,8220625,-3468,-1692,-560,-164,-238,-89,316,166,-248
2,8220639,-3472,-1692,-558,-164,-237,-88,316,166,-248
2,8220651,-3470,-1696,-565,-160,-238,-77,316,166,-248
2,8220664,-3470,-1696,-565,-160,-238,-77,316,166,-248
2,8220675,-3471,-1695,-561,-163,-237,-78,316,166,-248
2,8220690,-3471,-1692,-561,-162,-246,-83,316,166,-248
2,8220702,-3471,-1692,-561,-162,-246,-83,316,166,-248
2,8220710,-3470,-1693,-559,-167,-249,-76,316,164,-242
2,8220719,-3470,-1693,-559,-167,-249,-76,316,164,-242
2,8220727,-3470,-1693,-559,-167,-249,-76,316,164,-242
2,8220736,-3471,-1692,-556,-156,-248,-80,316,164,-242
2,8220744,-3471,-1692,-556,-156,-248,-80,316,164,-242
2,8220754,-3470,-1691,-555,-166,-246,-81,316,164,-242
2,8220764,-3470,-1691,-555,-166,-246,-81,316,164,-242
2,8220773,-3467,-1687,-563,-169,-248,-84,316,164,-242
2,8220783,-3467,-1687,-563,-169,-248,-84,316,164,-242
2,8220792,-3470,-1692,-562,-164,-255,-87,316,164,-242
2,8220803,-3470,-1692,-562,-164,-255,-87,316,164,-242
2,8220811,-3470,-1692,-567,-164,-249,-88,316,164,-242
2,8220821,-3470,-1692,-567,-164,-249,-88,316,164,-242
2,8220830,-3468,-1695,-555,-164,-249,-80,320,168,-242
2,8220839,-3468,-1695,-555,-164,-249,-80,320,168,-242
2,8220849,-3472,-1692,-558,-161,-244,-80,320,168,-242
2,8220857,-3472,-1692,-558,-161,-244,-80,320,168,-242
2,8220866,-3472,-1692,-558,-161,-244,-80,320,168,-242
2,8220876,-3472,-1692,-564,-160,-243,-83,320,168,-242
2,8220886,-3472,-1692,-564,-160,-243,-83,320,168,-242
2,8220895,-3471,-1691,-559,-158,-249,-85,320,168,-242
2,8220903,-3471,-1691,-559,-158,-249,-85,320,168,-242
2,8220911,-3469,-1693,-558,-163,-242,-87,320,168,-242
2,8220919,-3469,-1693,-558,-163,-242,-87,320,168,-242
2,8220933,-3469,-1693,-563,-168,-247,-85,320,168,-242
2,8220941,-3469,-1693,-563,-168,-247,-85,320,168,-242
2,8220949,-3470,-1693,-561,-158,-243,-82,320,168,-242
2,8220957,-3470,-1693,-561,-158,-243,-82,320,168,-242
2,8220965,-3470,-1693,-561,-158,-243,-82,320,168,-242
2,8220974,-3470,-1692,-558,-157,-244,-83,321,175,-249
2,8220982,-3470,-1692,-558,-157,-244,-83,321,175,-249
2,8220991,-3468,-1694,-562,-164,-238,-78,321,175,-249
2,8220999,-3468,-1694,-562,-164,-238,-78,321,175,-249
2,8221006,-3468,-1694,-562,-164,-238,-78,321,175,-249
2,8221015,-3470,-1692,-560,-165,-241,-77,321,175,-249
2,8221023,-3470,-1692,-560,-165,-241,-77,321,175,-249
2,8221031,-3470,-1692,-555,-157,-243,-78,321,175,-249
2,8221044,-3470,-1692,-555,-157,-243,-78,321,175,-249
2,8221053,-3469,-1690,-555,-159,-239,-85,321,175,-249
2,8221059,-3469,-1690,-555,-159,-239,-85,321,175,-249
2,8221067,-3469,-1690,-555,-159,-239,-85,321,175,-249
2,8221075,-3469,-1692,-561,-161,-241,-82,321,175,-249
2,8221082,-3469,-1692,-561,-161,-241,-82,321,175,-249
2,8221088,-3469,-1692,-554,-159,-246,-89,312,166,-240
2,8221095,-3469,-1692,-554,-159,-246,-89,312,166,-240
2,8221104,-3469,-1692,-554,-159,-246,-89,312,166,-240
2,8221110,-3469,-1691,-558,-161,-242,-92,312,166,-240
2,8221117,-3469,-1691,-558,-161,-242,-92,312,166,-240
2,8221125,-3469,-1691,-558,-161,-242,-92,312,166,-240
2,8221130,-3470,-1693,-556,-169,-241,-82,312,166,-240
2,8221136,-3470,-1693,-556,-169,-241,-82,312,166,-240
2,8221143,-3470,-1693,-556,-169,-241,-82,312,166,-240
2,8221151,-3469,-1693,-561,-173,-244,-87,312,166,-240
2,8221158,-3469,-1693,-561,-173,-244,-87,312,166,-240
2,8221166,-3469,-1693,-561,-173,-244,-87,312,166,-240
2,8221174,-3470,-1692,-558,-167,-240,-90,312,166,-240
2,8221179,-3470,-1692,-558,-167,-240,-90,312,166,-240
2,8221188,-3470,-1692,-558,-167,-240,-90,312,166,-240
2,8221196,-3474,-1691,-563,-168,-240,-91,312,166,-240
2,8221203,-3474,-1691,-563,-168,-240,-91,312,166,-240
2,8221209,-3470,-1691,-557,-165,-235,-80,308,168,-240
2,8221217,-3470,-1691,-557,-165,-235,-80,308,168,-240
2,8221224,-3470,-1691,-557,-165,-235,-80,308,168,-240
2,8221233,-3468,-1693,-566,-160,-250,-83,308,168,-240
2,8221240,-3468,-1693,-566,-160,-250,-83,308,168,-240
2,8221248,-3468,-1693,-566,-160,-250,-83,308,168,-240
2,8221254,-3470,-1692,-558,-163,-256,-82,308,168,-240
2,8221262,-3470,-1692,-558,-163,-256,-82,308,168,-240
2,8221268,-3471,-1692,-555,-165,-245,-81,308,168,-240
2,8221276,-3471,-1692,-555,-165,-245,-81,308,168,-240
2,8221284,-3471,-1692,-555,-165,-245,-81,308,168,-240
2,8221290,-3471,-1695,-566,-168,-251,-84,308,168,-240
2,8221296,-3471,-1695,-566,-168,-251,-84,308,168,-240
2,8221302,-3471,-1695,-566,-168,-251,-84,308,168,-240
2,8221309,-3468,-1695,-561,-163,-247,-83,308,168,-240
2,8221318,-3468,-1695,-561,-163,-247,-83,308,168,-240
2,8221324,-3468,-1695,-561,-163,-247,-83,308,168,-240
2,8221330,-3470,-1691,-561,-162,-241,-83,313,169,-239
2,8221337,-3470,-1691,-561,-162,-241,-83,313,169,-239
2,8221345,-3470,-1691,-561,-162,-241,-83,313,169,-239
2,8221351,-3472,-1690,-552,-165,-246,-80,313,169,-239
2,8221359,-3472,-1690,-552,-165,-246,-80,313,169,-239
2,8221365,-3472,-1690,-552,-165,-246,-80,313,169,-239
2,8221371,-3470,-1693,-563,-157,-239,-77,313,169,-239
2,8221376,-3470,-1693,-563,-157,-239,-77,313,169,-239
2,8221384,-3470,-1693,-563,-157,-239,-77,313,169,-239
2,8221391,-3470,-1695,-557,-160,-240,-79,313,169,-239
2,8221399,-3470,-1695,-557,-160,-240,-79,313,169,-239
2,8221407,-3470,-1695,-557,-160,-240,-79,313,169,-239
2,8221413,-3469,-1690,-557,-160,-243,-83,313,169,-239
2,8221419,-3469,-1690,-557,-160,-243,-83,313,169,-239
2,8221425,-3469,-1690,-557,-160,-243,-83,313,169,-239
2,8221432,-3470,-1691,-565,-158,-244,-84,313,169,-239
2,8221440,-3470,-1691,-565,-158,-244,-84,313,169,-239
2,8221446,-3470,-1691,-565,-158,-244,-84,313,169,-239
2,8221454,-3468,-1693,-562,-162,-247,-85,317,173,-239
2,8221462,-3468,-1693,-562,-162,-247,-85,317,173,-239
2,8221469,-3467,-1692,-559,-158,-248,-88,317,173,-239
2,8221477,-3467,-1692,-559,-158,-248,-88,317,173,-239
2,8221485,-3467,-1692,-559,-158,-248,-88,317,173,-239
2,8221492,-3472,-1694,-557,-161,-246,-81,317,173,-239
2,8221498,-3472,-1694,-557,-161,-246,-81,317,173,-239
2,8221506,-3472,-1694,-557,-161,-246,-81,317,173,-239
2,8221512,-3471,-1692,-561,-165,-242,-79,317,173,-239
2,8221518,-3471,-1692,-561,-165,-242,-79,317,173,-239
2,8221524,-3471,-1692,-561,-165,-242,-79,317,173,-239
2,8221531,-3471,-1694,-562,-161,-253,-86,317,173,-239
2,8221538,-3471,-1694,-562,-161,-253,-86,317,173,-239
2,8221544,-3471,-1694,-562,-161,-253,-86,317,173,-239
2,8221552,-3467,-1693,-557,-164,-249,-95,317,173,-239
2,8221559,-3467,-1693,-557,-164,-249,-95,317,173,-239
2,8221564,-3467,-1693,-557,-164,-249,-95,317,173,-239
2,8221573,-3474,-1692,-559,-158,-250,-86,317,173,-239
2,8221579,-3474,-1692,-559,-158,-250,-86,317,173,-239
2,8221586,-3474,-1692,-559,-158,-250,-86,317,173,-239
2,8221593,-3472,-1694,-556,-161,-246,-85,317,173,-247
2,8221600,-3472,-1694,-556,-161,-246,-85,317,173,-247
2,8221607,-3472,-1694,-556,-161,-246,-85,317,173,-247
2,8221615,-3470,-1691,-553,-166,-242,-86,317,173,-247
2,8221623,-3470,-1691,-553,-166,-242,-86,317,173,-247
2,8221631,-3473,-1694,-559,-166,-247,-90,317,173,-247
2,8221638,-3473,-1694,-559,-166,-247,-90,317,173,-247
2,8221644,-3473,-1694,-559,-166,-247,-90,317,173,-247
2,8221652,-3470,-1694,-564,-169,-243,-90,317,173,-247
2,8221660,-3470,-1694,-564,-169,-243,-90,317,173,-247
2,8221665,-3470,-1694,-564,-169,-243,-90,317,173,-247
2,8221673,-3471,-1691,-557,-162,-246,-90,317,173,-247
2,8221680,-3471,-1691,-557,-162,-246,-90,317,173,-247
2,8221687,-3471,-1691,-557,-162,-246,-90,317,173,-247
2,8221693,-3469,-1690,-560,-157,-239,-91,317,173,-247
2,8221699,-3469,-1690,-560,-157,-239,-91,317,173,-247
2,8221704,-3469,-1690,-560,-157,-239,-91,317,173,-247
2,8221709,-3471,-1693,-556,-159,-246,-92,315,173,-247
2,8221714,-3471,-1693,-556,-159,-246,-92,315,165,-241
2,8221719,-3471,-1693,-556,-159,-246,-92,315,165,-241
2,8221724,-3471,-1693,-556,-159,-246,-92,315,165,-241
2,8221729,-3471,-1694,-558,-160,-251,-84,315,165,-241
2,8221735,-3471,-1694,-558,-160,-251,-84,315,165,-241
2,8221743,-3471,-1694,-558,-160,-251,-84,315,165,-241
2,8221750,-3471,-1693,-562,-162,-246,-88,315,165,-241
2,8221757,-3471,-1693,-562,-162,-246,-88,315,165,-241
2,8221763,-3471,-1693,-562,-162,-246,-88,315,165,-241
2,8221771,-3472,-1693,-564,-159,-247,-91,315,165,-241
2,8221779,-3472,-1693,-564,-159,-247,-91,315,165,-241
2,8221787,-3472,-1693,-564,-159,-247,-91,315,165,-241
2,8221793,-3468,-1696,-559,-162,-247,-85,315,165,-241
2,8221800,-3468,-1696,-559,-162,-247,-85,315,165,-241
2,8221808,-3468,-1696,-559,-162,-247,-85,315,165,-241
2,8221813,-3471,-1690,-560,-163,-244,-86,315,165,-241
2,8221820,-3471,-1690,-560,-163,-244,-86,315,165,-241
2,8221828,-3471,-1690,-560,-163,-244,-86,315,165,-241
2,8221833,-3472,-1692,-555,-155,-239,-88,316,166,-244
2,8221840,-3472,-1692,-555,-155,-239,-88,316,166,-244
2,8221846,-3472,-1692,-555,-155,-239,-88,316,166,-244
2,8221852,-3469,-1691,-562,-152,-240,-87,316,166,-244
2,8221859,-3469,-1691,-562,-152,-240,-87,316,166,-244
2,8221867,-3469,-1691,-562,-152,-240,-87,316,166,-244
2,8221873,-3471,-1694,-557,-149,-237,-86,316,166,-244
2,8221880,-3471,-1694,-557,-149,-237,-86,316,166,-244
2,8221887,-3471,-1694,-557,-149,-237,-86,316,166,-244
2,8221895,-3470,-1692,-562,-152,-245,-85,316,166,-244
2,8221902,-3470,-1692,-562,-152,-245,-85,316,166,-244
2,8221910,-3471,-1692,-556,-154,-243,-85,316,166,-244
2,8221916,-3471,-1692,-556,-154,-243,-85,316,166,-244
2,8221924,-3471,-1692,-556,-154,-243,-85,316,166,-244
2,8221930,-3473,-1693,-556,-160,-244,-84,316,166,-244
2,8221936,-3473,-1693,-556,-160,-244,-84,316,166,-244
2,8221941,-3473,-1693,-556,-160,-244,-84,316,166,-244
2,8221946,-3473,-1693,-556,-160,-244,-84,316,166,-244
2,8221953,-3471,-1694,-556,-158,-252,-83,315,165,-247
2,8221958,-3471,-1694,-556,-158,-252,-83,315,165,-247
2,8221964,-3471,-1694,-556,-158,-252,-83,315,165,-247
2,8221969,-3471,-1694,-556,-158,-252,-83,315,165,-247
2,8221974,-3469,-1691,-558,-159,-245,-84,315,165,-247
2,8221980,-3469,-1691,-558,-159,-245,-84,315,165,-247
2,8221985,-3469,-1691,-558,-159,-245,-84,315,165,-247
2,8221991,-3470,-1694,-554,-157,-232,-85,315,165,-247
2,8221997,-3470,-1694,-554,-157,-232,-85,315,165,-247
2,8222003,-3470,-1694,-554,-157,-232,-85,315,165,-247
2,8222010,-3468,-1693,-561,-157,-236,-83,315,165,-247
2,8222015,-3468,-1693,-561,-157,-236,-83,315,165,-247
2,8222023,-3468,-1693,-561,-157,-236,-83,315,165,-247
2,8222030,-3469,-1693,-554,-160,-240,-84,315,165,-247
2,8222039,-3469,-1693,-554,-160,-240,-84,315,165,-247
2,8222047,-3469,-1693,-554,-160,-240,-84,315,165,-247
2,8222052,-3472,-1689,-564,-169,-243,-78,315,165,-247
2,8222065,-3472,-1689,-564,-169,-243,-78,315,165,-247
2,8222078,-3473,-1692,-558,-159,-245,-80,316,166,-242
2,8222092,-3471,-1692,-557,-156,-245,-88,316,166,-242
2,8222105,-3471,-1692,-557,-156,-245,-88,316,166,-242
2,8222116,-3472,-1693,-562,-153,-244,-96,316,166,-242
2,8222129,-3472,-1693,-562,-153,-244,-96,316,166,-242
2,8222142,-3468,-1694,-562,-156,-245,-89,316,166,-242
2,8222154,-3469,-1693,-558,-162,-245,-88,316,166,-242
2,8222166,-3469,-1693,-558,-162,-245,-88,316,166,-242
2,8222179,-3466,-1692,-561,-165,-240,-81,316,166,-242
2,8222193,-3470,-1691,-560,-159,-237,-88,316,166,-242
2,8222205,-3470,-1691,-560,-159,-237,-88,316,166,-242
2,8222217,-3470,-1691,-558,-160,-241,-78,316,172,-244
2,8222230,-3467,-1692,-562,-162,-248,-80,316,172,-244
2,8222243,-3467,-1692,-562,-162,-248,-80,316,172,-244
2,8222257,-3468,-1694,-560,-160,-242,-81,316,172,-244
2,8222267,-3468,-1694,-560,-160,-242,-81,316,172,-244
2,8222279,-3469,-1693,-560,-162,-249,-76,316,172,-244
2,8222291,-3471,-1688,-563,-160,-249,-79,316,172,-244
2,8222305,-3471,-1688,-563,-160,-249,-79,316,172,-244
2,8222317,-3469,-1692,-560,-169,-251,-76,316,172,-244
2,8222331,-3470,-1691,-562,-166,-245,-78,316,166,-248
2,8222344,-3470,-1691,-562,-166,-245,-78,316,166,-248
2,8222356,-3471,-1695,-558,-159,-250,-80,316,166,-248
2,8222369,-3471,-1695,-558,-159,-250,-80,316,166,-248
2,8222382,-3471,-1692,-561,-161,-247,-79,316,166,-248
2,8222394,-3468,-1693,-562,-162,-247,-80,316,166,-248
2,8222406,-3468,-1693,-562,-162,-247,-80,316,166,-248
2,8222418,-3471,-1692,-562,-157,-236,-83,316,166,-248
2,8222432,-3471,-1690,-559,-158,-245,-80,316,166,-248
2,8222445,-3471,-1690,-559,-158,-245,-80,316,166,-248
2,8222457,-3471,-1694,-558,-157,-242,-84,318,168,-246
2,8222471,-3469,-1693,-559,-158,-253,-89,318,168,-246
2,8222484,-3469,-1693,-559,-158,-253,-89,318,168,-246
2,8222497,-3472,-1692,-566,-154,-247,-91,318,168,-246
2,8222511,-3471,-1697,-559,-162,-247,-83,318,168,-246
2,8222523,-3471,-1697,-559,-162,-247,-83,318,168,-246
2,8222534,-3470,-1697,-560,-166,-241,-87,318,168,-246
2,8222547,-3470,-1697,-560,-166,-241,-87,318,168,-246
2,8222559,-3472,-1694,-564,-163,-242,-84,318,168,-246
2,8222572,-3471,-1694,-559,-159,-239,-81,316,162,-242
2,8222584,-3471,-1694,-559,-159,-239,-81,316,162,-242
2,8222599,-3469,-1693,-557,-162,-238,-85,316,162,-242
2,8222611,-3468,-1692,-557,-167,-238,-85,316,162,-242
2,8222623,-3468,-1692,-557,-167,-238,-85,316,162,-242
2,8222637,-3471,-1693,-561,-159,-242,-77,316,162,-242
2,8222650,-3472,-1694,-561,-162,-235,-86,316,162,-242
2,8222664,-3472,-1694,-561,-162,-235,-86,316,162,-242
2,8222678,-3469,-1693,-564,-156,-241,-82,316,162,-242
2,8222690,-3469,-1693,-564,-156,-241,-82,316,162,-242
2,8222702,-3470,-1694,-557,-160,-240,-82,316,166,-252
2,8222710,-3469,-1691,-562,-161,-240,-83,316,166,-252
2,8222718,-3469,-1691,-562,-161,-240,-83,316,166,-252
2,8222727,-3469,-1691,-562,-161,-240,-83,316,166,-252
2,8222736,-3471,-1690,-557,-158,-243,-86,316,166,-252
2,8222744,-3471,-1690,-557,-158,-243,-86,316,166,-252
2,8222752,-3471,-1691,-561,-163,-239,-83,316,166,-252
2,8222763,-3471,-1691,-561,-163,-239,-83,316,166,-252
2,8222773,-3469,-1691,-560,-161,-243,-76,316,166,-252
2,8222782,-3469,-1691,-560,-161,-243,-76,316,166,-252
2,8222791,-3469,-1691,-562,-160,-240,-87,316,166,-252
2,8222801,-3469,-1691,-562,-160,-240,-87,316,166,-252
2,8222814,-3472,-1690,-563,-162,-246,-85,316,166,-252
2,8222827,-3472,-1690,-563,-162,-246,-85,316,166,-252
2,8222840,-3466,-1694,-558,-163,-243,-84,308,170,-248
2,8222854,-3468,-1691,-561,-168,-250,-82,308,170,-248
2,8222866,-3468,-1691,-561,-168,-250,-82,308,170,-248
2,8222880,-3469,-1691,-566,-165,-247,-75,308,170,-248
2,8222892,-3469,-1693,-564,-155,-245,-74,308,170,-248
2,8222904,-3469,-1693,-564,-155,-245,-74,308,170,-248
2,8222917,-3469,-1693,-564,-155,-245,-74,308,170,-248
2,8222930,-3473,-1694,-557,-164,-245,-81,308,170,-248
2,8222939,-3473,-1694,-557,-164,-245,-81,308,170,-248
2,8222947,-3473,-1694,-557,-164,-245,-81,308,170,-248
2,8222955,-3471,-1692,-558,-159,-249,-81,309,173,-237
2,8222963,-3471,-1692,-558,-159,-249,-81,309,173,-237
2,8222971,-3471,-1692,-557,-160,-254,-85,309,173,-237
2,8222979,-3471,-1692,-557,-160,-254,-85,309,173,-237
2,8222987,-3471,-1692,-557,-160,-254,-85,309,173,-237
2,8222995,-3470,-1695,-561,-159,-238,-86,309,173,-237
2,8223003,-3470,-1695,-561,-159,-238,-86,309,173,-237
2,8223011,-3472,-1692,-560,-164,-244,-81,309,173,-237
2,8223020,-3472,-1692,-560,-164,-244,-81,309,173,-237
2,8223028,-3472,-1692,-560,-164,-244,-81,309,173,-237
2,8223037,-3469,-1693,-565,-156,-246,-85,309,173,-237
2,8223052,-3471,-1693,-565,-161,-243,-78,309,173,-237
2,8223066,-3471,-1693,-565,-161,-243,-78,309,173,-237
2,8223073,-3469,-1692,-557,-163,-239,-72,308,162,-246
2,8223079,-3469,-1692,-557,-163,-239,-72,308,162,-246
2,8223085,-3469,-1692,-557,-163,-239,-72,308,162,-246
2,8223093,-3469,-1692,-557,-163,-239,-72,308,162,-246
2,8223100,-3469,-1692,-557,-163,-239,-72,308,162,-246
2,8223106,-3469,-1692,-557,-163,-239,-72,308,162,-246
2,8223113,-3470,-1691,-559,-161,-245,-78,308,162,-246
2,8223119,-3470,-1691,-559,-161,-245,-78,308,162,-246
2,8223126,-3470,-1691,-559,-161,-245,-78,308,162,-246
2,8223133,-3469,-1693,-557,-161,-237,-84,308,162,-246
2,8223140,-3469,-1693,-557,-161,-237,-84,308,162,-246
2,8223148,-3469,-1693,-557,-161,-237,-84,308,162,-246
2,8223155,-3471,-1694,-560,-160,-239,-81,308,162,-246
2,8223161,-3471,-1694,-560,-160,-239,-81,308,162,-246
2,8223168,-3471,-1694,-560,-160,-239,-81,308,162,-246
2,8223175,-3471,-1695,-564,-159,-235,-77,308,162,-246
2,8223182,-3471,-1695,-564,-159,-235,-77,308,162,-246
2,8223187,-3471,-1695,-564,-159,-235,-77,308,162,-246
2,8223195,-3469,-1691,-556,-166,-240,-83,322,166,-234
2,8223203,-3469,-1691,-556,-166,-240,-83,322,166,-234
2,8223209,-3469,-1691,-556,-166,-240,-83,322,166,-234
2,8223216,-3468,-1690,-559,-160,-239,-85,322,166,-234
2,8223223,-3468,-1690,-559,-160,-239,-85,322,166,-234
2,8223232,-3474,-1693,-560,-158,-248,-84,322,166,-234
2,8223238,-3474,-1693,-560,-158,-248,-84,322,166,-234
2,8223245,-3474,-1693,-560,-158,-248,-84,322,166,-234
2,8223253,-3471,-1691,-559,-165,-242,-73,322,166,-234
2,8223259,-3471,-1691,-559,-165,-242,-73,322,166,-234
2,8223266,-3471,-1691,-559,-165,-242,-73,322,166,-234
2,8223275,-3470,-1691,-564,-156,-249,-84,322,166,-234
2,8223282,-3470,-1691,-564,-156,-249,-84,322,166,-234
2,8223288,-3470,-1691,-564,-156,-249,-84,322,166,-234
2,8223295,-3465,-1694,-557,-156,-254,-91,322,166,-234
2,8223302,-3465,-1694,-557,-156,-254,-91,322,166,-234
2,8223308,-3465,-1694,-557,-156,-254,-91,322,166,-234
2,8223314,-3473,-1692,-562,-163,-246,-84,311,179,-245
2,8223323,-3473,-1692,-562,-163,-246,-84,311,179,-245
2,8223328,-3473,-1692,-562,-163,-246,-84,311,179,-245
2,8223333,-3472,-1694,-557,-167,-244,-88,311,179,-245
2,8223338,-3472,-1694,-557,-167,-244,-88,311,179,-245
2,8223345,-3472,-1694,-557,-167,-244,-88,311,179,-245
2,8223352,-3469,-1692,-558,-167,-244,-80,311,179,-245
2,8223360,-3469,-1692,-558,-167,-244,-80,311,179,-245
2,8223368,-3469,-1692,-558,-167,-244,-80,311,179,-245
2,8223374,-3471,-1692,-563,-165,-245,-76,311,179,-245
2,8223381,-3471,-1692,-563,-165,-245,-76,311,179,-245
2,8223388,-3471,-1692,-563,-165,-245,-76,311,179,-245
2,8223395,-3466,-1696,-564,-160,-247,-81,311,179,-245
2,8223401,-3466,-1696,-564,-160,-247,-81,311,179,-245
2,8223410,-3466,-1696,-564,-160,-247,-81,311,179,-245
2,8223416,-3468,-1695,-567,-160,-245,-88,311,179,-245
2,8223423,-3468,-1695,-567,-160,-245,-88,311,179,-245
2,8223431,-3469,-1696,-563,-157,-249,-90,314,172,-236
2,8223438,-3469,-1696,-563,-157,-249,-90,314,172,-236
2,8223446,-3469,-1696,-563,-157,-249,-90,314,172,-236
2,8223452,-3472,-1693,-561,-159,-247,-89,314,172,-236
2,8223459,-3472,-1693,-561,-159,-247,-89,314,172,-236
2,8223466,-3472,-1693,-561,-159,-247,-89,314,172,-236
2,8223474,-3471,-1690,-560,-155,-246,-86,314,172,-236
2,8223480,-3471,-1690,-560,-155,-246,-86,314,172,-236
2,8223486,-3471,-1690,-560,-155,-246,-86,314,172,-236
2,8223492,-3472,-1692,-561,-166,-241,-90,314,172,-236
2,8223499,-3472,-1692,-561,-166,-241,-90,314,172,-236
2,8223505,-3472,-1692,-561,-166,-241,-90,314,172,-236
2,8223512,-3470,-1694,-557,-164,-247,-81,314,172,-236
2,8223519,-3470,-1694,-557,-164,-247,-81,314,172,-236
2,8223526,-3470,-1694,-557,-164,-247,-81,314,172,-236
2,8223534,-3472,-1697,-559,-159,-239,-80,314,172,-236
2,8223542,-3472,-1697,-559,-159,-239,-80,314,172,-236
2,8223548,-3472,-1697,-559,-159,-239,-80,314,172,-236
2,8223554,-3469,-1695,-561,-166,-241,-86,314,172,-236
2,8223561,-3469,-1695,-561,-166,-241,-86,314,172,-236
2,8223568,-3469,-1695,-561,-166,-241,-86,314,172,-236
2,8223576,-3472,-1694,-554,-156,-240,-88,316,166,-248
2,8223583,-3472,-1694,-554,-156,-240,-88,316,166,-248
2,8223591,-3471,-1693,-561,-164,-249,-83,316,166,-248
2,8223598,-3471,-1693,-561,-164,-249,-83,316,166,-248
2,8223604,-3471,-1693,-561,-164,-249,-83,316,166,-248
2,8223610,-3472,-1690,-558,-160,-250,-88,316,166,-248
2,8223617,-3472,-1690,-558,-160,-250,-88,316,166,-248
2,8223623,-3472,-1690,-558,-160,-250,-88,316,166,-248
2,8223630,-3472,-1690,-558,-160,-250,-88,316,166,-248
2,8223638,-3473,-1693,-563,-156,-249,-83,316,166,-248
2,8223645,-3473,-1693,-563,-156,-249,-83,316,166,-248
2,8223651,-3473,-1693,-563,-156,-249,-83,316,166,-248
2,8223659,-3473,-1693,-563,-156,-249,-83,316,166,-248
2,8223666,-3473,-1693,-563,-156,-249,-83,316,166,-248
2,8223673,-3472,-1694,-565,-159,-245,-85,316,166,-248
2,8223680,-3472,-1694,-565,-159,-245,-85,316,166,-248
2,8223688,-3472,-1694,-565,-159,-245,-85,316,166,-248
2,8223695,-3472,-1694,-556,-160,-240,-86,311,165,-247
2,8223702,-3472,-1694,-556,-160,-240,-86,311,165,-247
2,8223707,-3472,-1694,-556,-160,-240,-86,311,165,-247
2,8223713,-3470,-1694,-557,-162,-244,-80,311,165,-247
2,8223718,-3470,-1694,-557,-162,-244,-80,311,165,-247
2,8223723,-3470,-1694,-557,-162,-244,-80,311,165,-247
2,8223729,-3470,-1694,-557,-162,-244,-80,311,165,-247
2,8223736,-3472,-1694,-559,-163,-242,-84,311,165,-247
2,8223742,-3472,-1694,-559,-163,-242,-84,311,165,-247
2,8223750,-3472,-1694,-559,-163,-242,-84,311,165,-247
2,8223759,-3470,-1694,-556,-159,-245,-87,311,165,-247
2,8223766,-3470,-1694,-556,-159,-245,-87,311,165,-247
2,8223773,-3470,-1692,-562,-151,-252,-87,311,165,-247
2,8223781,-3470,-1692,-562,-151,-252,-87,311,165,-247
2,8223790,-3470,-1692,-562,-151,-252,-87,311,165,-247
2,8223798,-3471,-1694,-563,-163,-251,-81,311,165,-247
2,8223805,-3471,-1694,-563,-163,-251,-81,311,165,-247
2,8223813,-3472,-1692,-558,-162,-251,-79,317,169,-247
2,8223819,-3472,-1692,-558,-162,-251,-79,317,169,-247
2,8223826,-3472,-1692,-558,-162,-251,-79,317,169,-247
2,8223833,-3471,-1693,-557,-162,-246,-78,317,169,-247
2,8223839,-3471,-1693,-557,-162,-246,-78,317,169,-247
2,8223847,-3471,-1693,-557,-162,-246,-78,317,169,-247
2,8223854,-3472,-1694,-559,-167,-245,-79,317,169,-247
2,8223859,-3472,-1694,-559,-167,-245,-79,317,169,-247
2,8223867,-3472,-1694,-559,-167,-245,-79,317,169,-247
2,8223874,-3472,-1689,-558,-159,-251,-86,317,169,-247
2,8223882,-3472,-1689,-558,-159,-251,-86,317,169,-247
2,8223888,-3472,-1689,-558,-159,-251,-86,317,169,-247
2,8223894,-3469,-1693,-561,-159,-243,-82,317,169,-247
2,8223901,-3469,-1693,-561,-159,-243,-82,317,169,-247
2,8223909,-3469,-1693,-561,-159,-243,-82,317,169,-247
2,8223917,-3472,-1691,-558,-163,-242,-84,317,169,-247
2,8223922,-3472,-1691,-558,-163,-242,-84,317,169,-247
2,8223928,-3472,-1691,-558,-163,-242,-84,317,169,-247
2,8223933,-3472,-1690,-561,-170,-245,-84,323,167,-243
2,8223938,-3472,-1690,-561,-170,-245,-84,323,167,-243
2,8223944,-3472,-1690,-561,-170,-245,-84,323,167,-243
2,8223949,-3472,-1690,-561,-170,-245,-84,323,167,-243
2,8223954,-3471,-1692,-559,-160,-239,-80,323,167,-243
2,8223960,-3471,-1692,-559,-160,-239,-80,323,167,-243
2,8223965,-3471,-1692,-559,-160,-239,-80,323,167,-243
2,8223970,-3471,-1692,-559,-160,-239,-80,323,167,-243
2,8223975,-3471,-1690,-556,-155,-243,-86,323,167,-243
2,8223980,-3471,-1690,-556,-155,-243,-86,323,167,-243
2,8223987,-3471,-1690,-556,-155,-243,-86,323,167,-243
2,8223994,-3470,-1693,-563,-168,-253,-81,323,167,-243
2,8224002,-3470,-1693,-563,-168,-253,-81,323,167,-243
2,8224008,-3470,-1693,-563,-168,-253,-81,323,167,-243
2,8224016,-3469,-1695,-558,-160,-248,-87,323,167,-243
2,8224024,-3469,-1695,-558,-160,-248,-87,323,167,-243
2,8224030,-3469,-1695,-558,-160,-248,-87,323,167,-243
2,8224036,-3471,-1692,-560,-167,-248,-94,323,167,-243
2,8224044,-3471,-1692,-560,-167,-248,-94,323,167,-243
2,8224050,-3471,-1692,-560,-167,-248,-94,323,167,-243
2,8224056,-3472,-1693,-562,-166,-245,-91,321,171,-247
2,8224062,-3472,-1693,-562,-166,-245,-91,321,171,-247
2,8224070,-3472,-1693,-562,-166,-245,-91,321,171,-247
2,8224082,-3472,-1693,-561,-157,-241,-87,321,171,-247
2,8224094,-3470,-1693,-562,-165,-239,-87,321,171,-247
2,8224108,-3470,-1693,-562,-165,-239,-87,321,171,-247
2,8224120,-3472,-1692,-557,-161,-243,-83,321,171,-247
2,8224133,-3474,-1695,-556,-161,-241,-87,321,171,-247
2,8224142,-3474,-1695,-556,-161,-241,-87,321,171,-247
2,8224154,-3473,-1691,-557,-160,-244,-86,321,171,-247
2,8224165,-3473,-1691,-557,-160,-244,-86,321,171,-247
2,8224176,-3472,-1692,-561,-161,-244,-83,321,171,-247
2,8224190,-3472,-1692,-561,-161,-244,-83,321,171,-247
2,8224203,-3471,-1693,-558,-168,-246,-90,320,172,-250
2,8224212,-3469,-1690,-559,-162,-238,-90,320,172,-250
2,8224224,-3469,-1690,-559,-162,-238,-90,320,172,-250
2,8224238,-3468,-1691,-561,-151,-244,-80,320,172,-250
2,8224251,-3469,-1693,-561,-163,-236,-82,320,172,-250
2,8224262,-3469,-1693,-561,-163,-236,-82,320,172,-250
2,8224275,-3467,-1693,-562,-161,-239,-83,320,172,-250
2,8224288,-3467,-1693,-562,-161,-239,-83,320,172,-250
2,8224302,-3470,-1692,-561,-153,-237,-84,320,172,-250
2,8224312,-3468,-1690,-558,-161,-246,-85,320,170,-238
2,8224325,-3468,-1690,-558,-161,-246,-85,320,170,-238
2,8224338,-3470,-1692,-559,-157,-238,-90,320,170,-238
2,8224353,-3469,-1694,-553,-161,-239,-80,320,170,-238
2,8224362,-3469,-1694,-553,-161,-239,-80,320,170,-238
2,8224374,-3472,-1694,-559,-167,-244,-92,320,170,-238
2,8224387,-3472,-1694,-559,-167,-244,-92,320,170,-238
2,8224400,-3468,-1693,-560,-167,-245,-91,320,170,-238
2,8224411,-3468,-1693,-560,-167,-245,-91,320,170,-238
2,8224425,-3472,-1691,-559,-163,-250,-85,320,170,-238
2,8224438,-3473,-1691,-556,-168,-242,-90,309,169,-243
2,8224451,-3471,-1692,-556,-160,-241,-87,309,169,-243
2,8224463,-3471,-1692,-556,-160,-241,-87,309,169,-243
2,8224477,-3469,-1691,-558,-165,-245,-83,309,169,-243
2,8224489,-3469,-1691,-558,-165,-245,-83,309,169,-243
2,8224503,-3472,-1690,-560,-165,-244,-83,309,169,-243
2,8224516,-3472,-1693,-563,-161,-240,-79,309,169,-243
2,8224529,-3472,-1693,-563,-161,-240,-79,309,169,-243
2,8224540,-3472,-1694,-561,-167,-250,-77,309,169,-243
2,8224553,-3470,-1691,-555,-160,-242,-77,318,168,-252
2,8224567,-3470,-1691,-555,-160,-242,-77,318,168,-252
2,8224579,-3470,-1692,-562,-167,-242,-79,318,168,-252
2,8224591,-3471,-1693,-560,-169,-250,-80,318,168,-252
2,8224603,-3471,-1693,-560,-169,-250,-80,318,168,-252
2,8224613,-3473,-1695,-560,-166,-250,-81,318,168,-252
2,8224625,-3473,-1695,-560,-166,-250,-81,318,168,-252
2,8224633,-3472,-1694,-560,-174,-247,-87,318,168,-252
2,8224642,-3472,-1694,-560,-174,-247,-87,318,168,-252
2,8224650,-3472,-1694,-560,-174,-247,-87,318,168,-252
2,8224659,-3471,-1693,-557,-171,-236,-87,318,168,-252
2,8224672,-3469,-1692,-556,-171,-242,-81,314,170,-244
2,8224681,-3469,-1692,-556,-171,-242,-81,314,170,-244
2,8224689,-3469,-1692,-556,-171,-242,-81,314,170,-244
2,8224698,-3471,-1692,-555,-162,-245,-97,314,170,-244
2,8224706,-3471,-1692,-555,-162,-245,-97,314,170,-244
2,8224714,-3470,-1694,-564,-161,-246,-91,314,170,-244
2,8224722,-3470,-1694,-564,-161,-246,-91,314,170,-244
2,8224731,-3470,-1694,-564,-161,-246,-91,314,170,-244
2,8224740,-3472,-1694,-556,-160,-243,-95,314,170,-244
2,8224749,-3472,-1694,-556,-160,-243,-95,314,170,-244
2,8224759,-3471,-1692,-563,-158,-238,-86,314,170,-244
2,8224769,-3471,-1692,-563,-158,-238,-86,314,170,-244
2,8224778,-3470,-1694,-555,-164,-246,-88,314,170,-244
2,8224790,-3470,-1694,-555,-164,-246,-88,314,170,-244
2,8224798,-3471,-1692,-559,-162,-243,-84,314,170,-244
2,8224811,-3471,-1692,-559,-162,-243,-84,314,170,-244
2,8224823,-3473,-1694,-558,-162,-250,-83,315,165,-243
2,8224836,-3472,-1693,-560,-157,-246,-90,315,165,-243
2,8224846,-3472,-1693,-560,-157,-246,-90,315,165,-243
2,8224861,-3471,-1692,-563,-156,-241,-81,315,165,-243
2,8224873,-3469,-1693,-561,-155,-243,-89,315,165,-243
2,8224882,-3469,-1693,-561,-155,-243,-89,315,165,-243
2,8224894,-3473,-1692,-557,-160,-242,-83,315,165,-243
2,8224908,-3473,-1692,-557,-160,-242,-83,315,165,-243
2,8224916,-3472,-1697,-556,-167,-244,-77,315,165,-243
2,8224929,-3472,-1697,-556,-167,-244,-77,315,165,-243
2,8224939,-3472,-1695,-554,-162,-242,-80,327,161,-241
2,8224947,-3472,-1695,-554,-162,-242,-80,327,161,-241
2,8224955,-3469,-1691,-560,-159,-240,-80,327,161,-241
2,8224963,-3469,-1691,-560,-159,-240,-80,327,161,-241
2,8224971,-3469,-1691,-560,-159,-240,-80,327,161,-241
2,8224979,-3470,-1692,-562,-159,-239,-90,327,161,-241
2,8224988,-3470,-1692,-562,-159,-239,-90,327,161,-241
2,8224996,-3473,-1694,-562,-160,-244,-95,327,161,-241
2,8225004,-3473,-1694,-562,-160,-244,-95,327,161,-241
2,8225011,-3473,-1694,-562,-160,-244,-95,327,161,-241
2,8225019,-3472,-1694,-559,-164,-237,-84,327,161,-241
2,8225028,-3472,-1694,-559,-164,-237,-84,327,161,-241
2,8225039,-3469,-1693,-561,-166,-240,-75,327,161,-241
2,8225052,-3470,-1690,-557,-160,-235,-89,327,161,-241
2,8225063,-3470,-1690,-557,-160,-235,-89,311,171,-247
2,8225077,-3469,-1693,-560,-158,-244,-86,311,171,-247
2,8225084,-3469,-1693,-560,-158,-244,-86,311,171,-247
2,8225091,-3469,-1693,-560,-158,-244,-86,311,171,-247
2,8225097,-3468,-1697,-566,-161,-242,-86,311,171,-247
2,8225105,-3468,-1697,-566,-161,-242,-86,311,171,-247
2,8225113,-3468,-1694,-561,-159,-248,-88,311,171,-247
2,8225120,-3468,-1694,-561,-159,-248,-88,311,171,-247
2,8225126,-3468,-1694,-561,-159,-248,-88,311,171,-247
2,8225133,-3469,-1694,-558,-167,-247,-90,311,171,-247
2,8225140,-3469,-1694,-558,-167,-247,-90,311,171,-247
2,8225147,-3469,-1694,-558,-167,-247,-90,311,171,-247
2,8225155,-3470,-1694,-561,-159,-245,-92,311,171,-247
2,8225162,-3470,-1694,-561,-159,-245,-92,311,171,-247
2,8225168,-3470,-1694,-561,-159,-245,-92,311,171,-247
2,8225174,-3470,-1692,-559,-161,-239,-81,323,171,-241
2,8225182,-3470,-1692,-559,-161,-239,-81,323,171,-241
2,8225189,-3470,-1692,-559,-161,-239,-81,323,171,-241
2,8225196,-3470,-1692,-560,-159,-236,-84,323,171,-241
2,8225203,-3470,-1692,-560,-159,-236,-84,323,171,-241
2,8225209,-3470,-1692,-560,-159,-236,-84,323,171,-241
2,8225214,-3469,-1694,-559,-156,-244,-88,323,171,-241
2,8225221,-3469,-1694,-559,-156,-244,-88,323,171,-241
2,8225228,-3469,-1694,-559,-156,-244,-88,323,171,-241
2,8225233,-3472,-1692,-561,-156,-246,-86,323,171,-241
2,8225241,-3472,-1692,-561,-156,-246,-86,323,171,-241
2,8225249,-3472,-1692,-561,-156,-246,-86,323,171,-241
2,8225255,-3471,-1693,-561,-162,-243,-90,323,171,-241
2,8225263,-3471,-1693,-561,-162,-243,-90,323,171,-241
2,8225271,-3471,-1693,-561,-162,-243,-90,323,171,-241
2,8225278,-3472,-1694,-558,-165,-245,-82,323,171,-241
2,8225286,-3472,-1694,-558,-165,-245,-82,323,171,-241
2,8225292,-3472,-1694,-558,-165,-245,-82,323,171,-241
2,8225298,-3472,-1693,-557,-160,-246,-80,325,167,-247
2,8225306,-3472,-1693,-557,-160,-246,-80,325,167,-247
2,8225313,-3469,-1692,-553,-166,-245,-86,325,167,-247
2,8225323,-3469,-1692,-553,-166,-245,-86,325,167,-247
2,8225329,-3469,-1692,-553,-166,-245,-86,325,167,-247
2,8225334,-3470,-1691,-558,-167,-251,-83,325,167,-247
2,8225340,-3470,-1691,-558,-167,-251,-83,325,167,-247
2,8225346,-3470,-1691,-558,-167,-251,-83,325,167,-247
2,8225354,-3469,-1692,-560,-162,-246,-71,325,167,-247
2,8225361,-3469,-1692,-560,-162,-246,-71,325,167,-247
2,8225369,-3469,-1692,-560,-162,-246,-71,325,167,-247
2,8225374,-3472,-1690,-558,-167,-255,-76,325,167,-247
2,8225379,-3472,-1690,-558,-167,-255,-76,325,167,-247
2,8225386,-3472,-1690,-558,-167,-255,-76,325,167,-247
2,8225393,-3468,-1694,-558,-159,-247,-85,325,167,-247
2,8225401,-3468,-1694,-558,-159,-247,-85,325,167,-247
2,8225406,-3468,-1694,-558,-159,-247,-85,325,167,-247
2,8225413,-3470,-1694,-561,-160,-248,-77,325,167,-247
2,8225418,-3470,-1694,-561,-160,-248,-77,325,167,-247
