imu,time,ax,ay,az,gx,gy,gz,mx,my,mz
1,6217799,423,-1366,-489,-1482,-298,-40,441,167,-223
1,6217807,423,-1366,-489,-1482,-298,-40,441,167,-223
1,6217816,422,-1364,-494,-1480,-296,-46,441,167,-223
1,6217824,422,-1364,-494,-1480,-296,-46,441,167,-223
1,6217833,424,-1364,-488,-1486,-300,-46,441,167,-223
1,6217841,424,-1364,-488,-1486,-300,-46,441,167,-223
1,6217849,424,-1364,-488,-1486,-300,-46,441,167,-223
1,6217858,422,-1366,-490,-1490,-304,-38,443,165,-229
1,6217866,422,-1366,-490,-1490,-304,-38,443,165,-229
1,6217874,426,-1364,-489,-1483,-296,-35,443,165,-229
1,6217881,426,-1364,-489,-1483,-296,-35,443,165,-229
1,6217889,426,-1364,-489,-1483,-296,-35,443,165,-229
1,6217897,422,-1365,-493,-1483,-300,-36,443,165,-229
1,6217906,422,-1365,-493,-1483,-300,-36,443,165,-229
1,6217914,423,-1366,-497,-1486,-299,-41,443,165,-229
1,6217921,423,-1366,-497,-1486,-299,-41,443,165,-229
1,6217929,423,-1366,-497,-1486,-299,-41,443,165,-229
1,6217936,421,-1365,-491,-1485,-300,-43,443,165,-229
1,6217945,421,-1365,-491,-1485,-300,-43,443,165,-229
1,6217953,422,-1368,-494,-1482,-302,-36,443,165,-229
1,6217960,422,-1368,-494,-1482,-302,-36,443,165,-229
1,6217968,422,-1368,-494,-1482,-302,-36,443,165,-229
1,6217975,424,-1368,-488,-1481,-297,-38,443,169,-229
1,6217985,424,-1368,-488,-1481,-297,-38,443,169,-229
1,6217998,421,-1367,-488,-1482,-299,-36,443,169,-229
1,6218005,421,-1367,-488,-1482,-299,-36,443,169,-229
1,6218014,424,-1363,-491,-1485,-302,-46,443,169,-229
1,6218022,424,-1363,-491,-1485,-302,-46,443,169,-229
1,6218031,424,-1363,-491,-1485,-302,-46,443,169,-229
1,6218040,427,-1365,-492,-1490,-307,-42,443,169,-229
1,6218048,427,-1365,-492,-1490,-307,-42,443,169,-229
1,6218060,425,-1366,-492,-1486,-298,-44,443,169,-229
1,6218074,427,-1364,-495,-1483,-301,-43,443,169,-229
1,6218088,427,-1364,-495,-1483,-301,-43,443,169,-229
1,6218097,423,-1366,-489,-1492,-299,-40,443,169,-229
1,6218109,423,-1366,-489,-1492,-299,-40,443,169,-229
1,6218125,423,-1363,-489,-1485,-301,-38,437,165,-227
1,6218137,423,-1364,-492,-1487,-303,-39,437,165,-227
1,6218145,423,-1364,-492,-1487,-303,-39,437,165,-227
1,6218153,425,-1364,-492,-1485,-307,-42,437,165,-227
1,6218162,425,-1364,-492,-1485,-307,-42,437,165,-227
1,6218169,425,-1364,-492,-1485,-307,-42,437,165,-227
1,6218177,424,-1366,-492,-1477,-300,-32,437,165,-227
1,6218185,424,-1366,-492,-1477,-300,-32,437,165,-227
1,6218192,422,-1364,-488,-1482,-304,-36,437,165,-227
1,6218201,422,-1364,-488,-1482,-304,-36,437,165,-227
1,6218209,422,-1364,-488,-1482,-304,-36,437,165,-227
1,6218217,425,-1364,-497,-1498,-301,-43,437,165,-227
1,6218225,425,-1364,-497,-1498,-301,-43,437,165,-227
1,6218234,426,-1365,-485,-1494,-307,-40,442,166,-218
1,6218247,426,-1365,-485,-1494,-307,-40,442,166,-218
1,6218261,425,-1363,-487,-1484,-300,-34,442,166,-218
1,6218273,425,-1362,-490,-1478,-302,-40,442,166,-218
1,6218287,425,-1362,-490,-1478,-302,-40,442,166,-218
1,6218297,422,-1366,-488,-1475,-298,-43,442,166,-218
1,6218311,422,-1366,-488,-1475,-298,-43,442,166,-218
1,6218323,419,-1364,-494,-1485,-306,-38,442,166,-218
1,6218333,422,-1364,-492,-1487,-307,-32,442,166,-218
1,6218345,422,-1364,-492,-1487,-307,-32,442,166,-218
1,6218359,424,-1366,-488,-1488,-297,-38,448,168,-230
1,6218369,424,-1366,-488,-1488,-297,-38,448,168,-230
1,6218379,425,-1365,-490,-1488,-297,-42,448,168,-230
1,6218393,423,-1363,-488,-1482,-297,-44,448,168,-230
1,6218407,423,-1363,-488,-1482,-297,-44,448,168,-230
1,6218417,425,-1364,-489,-1488,-305,-38,448,168,-230
1,6218426,425,-1364,-489,-1488,-305,-38,448,168,-230
1,6218435,422,-1364,-490,-1495,-304,-40,448,168,-230
1,6218443,422,-1364,-490,-1495,-304,-40,448,168,-230
1,6218451,422,-1364,-490,-1495,-304,-40,448,168,-230
1,6218463,423,-1364,-493,-1489,-302,-46,448,168,-230
1,6218475,426,-1363,-489,-1489,-301,-44,438,156,-226
1,6218487,426,-1363,-489,-1489,-301,-44,438,156,-226
1,6218500,422,-1365,-489,-1488,-304,-42,438,156,-226
1,6218513,426,-1365,-494,-1483,-299,-39,438,156,-226
1,6218525,426,-1365,-494,-1483,-299,-39,438,156,-226
1,6218533,425,-1364,-493,-1481,-307,-37,438,156,-226
1,6218547,425,-1364,-493,-1481,-307,-37,438,156,-226
1,6218560,425,-1364,-490,-1483,-307,-41,438,156,-226
1,6218573,425,-1361,-491,-1489,-309,-41,438,156,-226
1,6218580,425,-1361,-491,-1489,-309,-41,438,156,-226
1,6218589,425,-1361,-491,-1489,-309,-41,438,156,-226
1,6218597,425,-1365,-491,-1483,-303,-36,438,156,-226
1,6218606,425,-1365,-491,-1483,-303,-36,438,156,-226
1,6218619,422,-1364,-489,-1484,-307,-38,444,164,-228
1,6218632,424,-1366,-493,-1483,-301,-44,444,164,-228
1,6218645,424,-1366,-493,-1483,-301,-44,444,164,-228
1,6218659,426,-1367,-491,-1492,-307,-36,444,164,-228
1,6218673,423,-1364,-488,-1491,-302,-43,444,164,-228
1,6218684,423,-1364,-488,-1491,-302,-43,444,164,-228
1,6218697,426,-1366,-491,-1481,-308,-46,444,164,-228
1,6218711,426,-1366,-491,-1481,-308,-46,444,164,-228
1,6218726,425,-1365,-487,-1481,-307,-41,444,164,-228
1,6218734,424,-1365,-483,-1485,-301,-36,444,166,-228
1,6218746,424,-1365,-483,-1485,-301,-36,444,166,-228
1,6218759,423,-1363,-490,-1492,-301,-36,444,166,-228
1,6218768,423,-1363,-490,-1492,-301,-36,444,166,-228
1,6218781,424,-1364,-495,-1487,-308,-41,444,166,-228
1,6218792,424,-1365,-490,-1486,-308,-37,444,166,-228
1,6218799,424,-1365,-490,-1486,-308,-37,444,166,-228
1,6218807,424,-1365,-490,-1486,-308,-37,444,166,-228
1,6218812,422,-1363,-494,-1481,-306,-44,444,166,-228
1,6218818,422,-1363,-494,-1481,-306,-44,444,166,-228
1,6218823,422,-1363,-494,-1481,-306,-44,444,166,-228
1,6218831,422,-1363,-494,-1481,-306,-44,444,166,-228
1,6218839,423,-1366,-495,-1487,-301,-40,444,166,-228
1,6218845,423,-1366,-495,-1487,-301,-40,444,166,-228
1,6218852,426,-1362,-488,-1482,-295,-35,442,166,-228
1,6218858,426,-1362,-488,-1482,-295,-35,442,166,-230
1,6218865,426,-1362,-488,-1482,-295,-35,442,166,-230
1,6218870,426,-1362,-488,-1482,-295,-35,442,166,-230
1,6218878,421,-1365,-491,-1481,-302,-41,442,166,-230
1,6218884,421,-1365,-491,-1481,-302,-41,442,166,-230
1,6218891,421,-1365,-491,-1481,-302,-41,442,166,-230
1,6218900,422,-1363,-491,-1477,-303,-46,442,166,-230
1,6218906,422,-1363,-491,-1477,-303,-46,442,166,-230
1,6218912,419,-1366,-489,-1480,-299,-43,442,166,-230
1,6218919,419,-1366,-489,-1480,-299,-43,442,166,-230
1,6218928,419,-1366,-489,-1480,-299,-43,442,166,-230
1,6218935,424,-1364,-492,-1483,-293,-44,442,166,-230
1,6218942,424,-1364,-492,-1483,-293,-44,442,166,-230
1,6218948,424,-1364,-492,-1483,-293,-44,442,166,-230
1,6218956,425,-1364,-493,-1488,-294,-40,442,166,-230
1,6218964,425,-1364,-493,-1488,-294,-40,442,166,-230
1,6218972,427,-1364,-489,-1489,-295,-39,442,166,-230
1,6218978,427,-1364,-489,-1489,-295,-39,436,166,-226
1,6218985,427,-1364,-489,-1489,-295,-39,436,166,-226
1,6218992,424,-1364,-489,-1490,-303,-35,436,166,-226
1,6218999,424,-1364,-489,-1490,-303,-35,436,166,-226
1,6219006,424,-1364,-489,-1490,-303,-35,436,166,-226
1,6219015,422,-1362,-488,-1487,-298,-36,436,166,-226
1,6219020,422,-1362,-488,-1487,-298,-36,436,166,-226
1,6219027,422,-1362,-488,-1487,-298,-36,436,166,-226
1,6219036,424,-1366,-488,-1490,-307,-39,436,166,-226
1,6219042,424,-1366,-488,-1490,-307,-39,436,166,-226
1,6219048,424,-1366,-488,-1490,-307,-39,436,166,-226
1,6219055,424,-1368,-493,-1485,-295,-37,436,166,-226
1,6219063,424,-1368,-493,-1485,-295,-37,436,166,-226
1,6219068,424,-1368,-493,-1485,-295,-37,436,166,-226
1,6219074,425,-1367,-497,-1490,-303,-36,436,166,-226
1,6219078,425,-1367,-497,-1490,-303,-36,436,166,-226
1,6219084,425,-1367,-497,-1490,-303,-36,436,166,-226
1,6219091,425,-1367,-497,-1490,-303,-36,436,166,-226
1,6219099,425,-1365,-495,-1491,-299,-41,435,169,-233
1,6219107,425,-1365,-495,-1491,-299,-41,435,169,-233
1,6219113,428,-1363,-489,-1488,-307,-38,435,169,-233
1,6219120,428,-1363,-489,-1488,-307,-38,435,169,-233
1,6219126,428,-1363,-489,-1488,-307,-38,435,169,-233
1,6219132,427,-1361,-489,-1490,-307,-36,435,169,-233
1,6219139,427,-1361,-489,-1490,-307,-36,435,169,-233
1,6219144,427,-1361,-489,-1490,-307,-36,435,169,-233
1,6219149,427,-1361,-489,-1490,-307,-36,435,169,-233
1,6219154,425,-1365,-495,-1490,-304,-40,435,169,-233
1,6219159,425,-1365,-495,-1490,-304,-40,435,169,-233
1,6219164,425,-1365,-495,-1490,-304,-40,435,169,-233
1,6219170,425,-1365,-495,-1490,-304,-40,435,169,-233
1,6219175,425,-1367,-491,-1492,-301,-40,435,169,-233
1,6219184,425,-1367,-491,-1492,-301,-40,435,169,-233
1,6219192,425,-1367,-491,-1492,-301,-40,435,169,-233
1,6219199,423,-1363,-491,-1483,-298,-35,435,169,-233
1,6219207,423,-1363,-491,-1483,-298,-35,435,169,-233
1,6219213,425,-1363,-490,-1478,-300,-35,435,169,-233
1,6219220,425,-1363,-490,-1478,-300,-35,435,169,-233
1,6219228,425,-1363,-490,-1478,-300,-35,435,169,-233
1,6219235,424,-1367,-485,-1482,-299,-35,435,161,-221
1,6219242,424,-1367,-485,-1482,-299,-35,435,161,-221
1,6219249,424,-1367,-485,-1482,-299,-35,435,161,-221
1,6219257,423,-1365,-487,-1483,-310,-34,435,161,-221
1,6219264,423,-1365,-487,-1483,-310,-34,435,161,-221
1,6219272,423,-1365,-487,-1483,-310,-34,435,161,-221
1,6219279,424,-1367,-489,-1474,-299,-31,435,161,-221
1,6219285,424,-1367,-489,-1474,-299,-31,435,161,-221
1,6219293,424,-1364,-492,-1479,-302,-38,435,161,-221
1,6219300,424,-1364,-492,-1479,-302,-38,435,161,-221
1,6219309,424,-1364,-492,-1479,-302,-38,435,161,-221
1,6219316,424,-1365,-491,-1484,-300,-43,435,161,-221
1,6219321,424,-1365,-491,-1484,-300,-43,435,161,-221
1,6219327,424,-1365,-491,-1484,-300,-43,435,161,-221
1,6219333,423,-1368,-492,-1494,-305,-40,435,161,-221
1,6219341,423,-1368,-492,-1494,-305,-40,435,161,-221
1,6219346,423,-1368,-492,-1494,-305,-40,435,161,-221
1,6219352,423,-1368,-492,-1494,-305,-40,435,161,-221
1,6219359,421,-1365,-491,-1487,-308,-39,441,167,-227
1,6219366,421,-1365,-491,-1487,-308,-39,441,167,-227
1,6219372,421,-1365,-491,-1487,-308,-39,441,167,-227
1,6219379,425,-1366,-491,-1497,-305,-37,441,167,-227
1,6219386,425,-1366,-491,-1497,-305,-37,441,167,-227
1,6219395,423,-1365,-493,-1494,-300,-29,441,167,-227
1,6219402,423,-1365,-493,-1494,-300,-29,441,167,-227
1,6219410,423,-1365,-493,-1494,-300,-29,441,167,-227
1,6219418,424,-1366,-490,-1481,-307,-29,441,167,-227
1,6219425,424,-1366,-490,-1481,-307,-29,441,167,-227
1,6219431,424,-1366,-490,-1481,-307,-29,441,167,-227
1,6219439,423,-1362,-492,-1490,-301,-39,441,167,-227
1,6219446,423,-1362,-492,-1490,-301,-39,441,167,-227
1,6219452,423,-1364,-493,-1488,-301,-42,441,167,-227
1,6219460,423,-1364,-493,-1488,-301,-42,441,167,-227
1,6219468,423,-1364,-493,-1488,-301,-42,441,167,-227
1,6219475,425,-1365,-486,-1488,-304,-39,434,162,-228
1,6219484,425,-1365,-486,-1488,-304,-39,434,162,-228
1,6219489,425,-1365,-486,-1488,-304,-39,434,162,-228
1,6219495,425,-1369,-491,-1482,-301,-31,434,162,-228
1,6219502,425,-1369,-491,-1482,-301,-31,434,162,-228
1,6219510,425,-1369,-491,-1482,-301,-31,434,162,-228
1,6219516,424,-1368,-492,-1484,-308,-37,434,162,-228
1,6219524,424,-1368,-492,-1484,-308,-37,434,162,-228
1,6219530,424,-1368,-492,-1484,-308,-37,434,162,-228
1,6219538,425,-1366,-489,-1489,-300,-41,434,162,-228
1,6219544,425,-1366,-489,-1489,-300,-41,434,162,-228
1,6219551,425,-1366,-489,-1489,-300,-41,434,162,-228
1,6219558,424,-1365,-491,-1485,-295,-36,434,162,-228
1,6219567,424,-1365,-491,-1485,-295,-36,434,162,-228
1,6219572,425,-1365,-495,-1487,-294,-38,434,162,-228
1,6219577,425,-1365,-495,-1487,-294,-38,434,162,-228
1,6219583,425,-1365,-495,-1487,-294,-38,434,162,-228
1,6219588,425,-1365,-495,-1487,-294,-38,434,162,-228
1,6219593,421,-1365,-489,-1489,-301,-42,438,168,-230
1,6219598,421,-1365,-489,-1489,-301,-42,438,168,-230
1,6219604,421,-1365,-489,-1489,-301,-42,438,168,-230
1,6219612,421,-1365,-489,-1489,-301,-42,438,168,-230
1,6219619,419,-1365,-487,-1488,-304,-35,438,168,-230
1,6219627,419,-1365,-487,-1488,-304,-35,438,168,-230
1,6219634,423,-1362,-489,-1476,-304,-34,438,168,-230
1,6219641,423,-1362,-489,-1476,-304,-34,438,168,-230
1,6219649,423,-1362,-489,-1476,-304,-34,438,168,-230
1,6219654,423,-1366,-493,-1481,-304,-39,438,168,-230
1,6219661,423,-1366,-493,-1481,-304,-39,438,168,-230
1,6219670,423,-1366,-493,-1481,-304,-39,438,168,-230
1,6219678,427,-1367,-488,-1483,-297,-35,438,168,-230
1,6219686,427,-1367,-488,-1483,-297,-35,438,168,-230
1,6219694,428,-1362,-494,-1483,-299,-37,438,168,-230
1,6219701,428,-1362,-494,-1483,-299,-37,438,168,-230
1,6219707,428,-1362,-494,-1483,-299,-37,438,168,-230
1,6219714,423,-1366,-496,-1478,-296,-38,438,168,-230
1,6219720,423,-1366,-496,-1478,-296,-38,438,168,-230
1,6219728,423,-1366,-496,-1478,-296,-38,438,168,-230
1,6219735,420,-1365,-490,-1477,-303,-47,440,164,-218
1,6219740,420,-1365,-490,-1477,-303,-47,440,164,-218
1,6219747,420,-1365,-490,-1477,-303,-47,440,164,-218
1,6219754,424,-1365,-488,-1482,-300,-40,440,164,-218
1,6219761,424,-1365,-488,-1482,-300,-40,440,164,-218
1,6219769,424,-1365,-488,-1482,-300,-40,440,164,-218
1,6219778,426,-1362,-490,-1485,-300,-38,440,164,-218
1,6219786,426,-1362,-490,-1485,-300,-38,440,164,-218
1,6219794,427,-1362,-489,-1485,-300,-39,440,164,-218
1,6219807,427,-1362,-489,-1485,-300,-39,440,164,-218
1,6219821,424,-1365,-494,-1487,-295,-37,440,164,-218
1,6219833,424,-1364,-491,-1492,-302,-35,440,164,-218
1,6219841,424,-1364,-491,-1492,-302,-35,440,164,-218
1,6219852,424,-1364,-491,-1492,-302,-35,440,164,-218
1,6219866,423,-1365,-488,-1489,-300,-40,438,166,-224
1,6219878,420,-1364,-491,-1487,-304,-30,438,166,-224
1,6219889,420,-1364,-491,-1487,-304,-30,438,166,-224
1,6219901,426,-1362,-493,-1490,-310,-32,438,166,-224
1,6219915,426,-1365,-492,-1484,-304,-38,438,166,-224
1,6219928,426,-1365,-492,-1484,-304,-38,438,166,-224
1,6219939,425,-1364,-493,-1489,-302,-42,438,166,-224
1,6219953,426,-1365,-495,-1486,-309,-37,438,166,-224
1,6219965,426,-1365,-495,-1486,-309,-37,438,166,-224
1,6219977,425,-1365,-488,-1493,-303,-40,439,169,-223
1,6219991,425,-1365,-488,-1493,-303,-40,439,169,-223
1,6220004,427,-1362,-487,-1484,-302,-37,439,169,-223
1,6220016,422,-1363,-494,-1486,-303,-42,439,169,-223
1,6220027,422,-1363,-494,-1486,-303,-42,439,169,-223
1,6220041,424,-1364,-490,-1485,-300,-41,439,169,-223
1,6220054,429,-1367,-493,-1486,-308,-45,439,169,-223
1,6220066,429,-1367,-493,-1486,-308,-45,439,169,-223
1,6220079,428,-1365,-493,-1490,-306,-38,439,169,-223
1,6220091,428,-1365,-493,-1490,-306,-38,439,169,-223
1,6220105,426,-1364,-489,-1487,-294,-30,440,168,-224
1,6220118,424,-1363,-487,-1485,-303,-44,440,168,-224
1,6220126,424,-1363,-487,-1485,-303,-44,440,168,-224
1,6220134,425,-1368,-491,-1484,-304,-43,440,168,-224
1,6220142,425,-1368,-491,-1484,-304,-43,440,168,-224
1,6220150,425,-1368,-491,-1484,-304,-43,440,168,-224
1,6220158,426,-1369,-486,-1491,-301,-41,440,168,-224
1,6220168,426,-1369,-486,-1491,-301,-41,440,168,-224
1,6220176,424,-1367,-491,-1491,-302,-42,440,168,-224
1,6220184,424,-1367,-491,-1491,-302,-42,440,168,-224
1,6220193,425,-1363,-489,-1491,-296,-36,440,168,-224
1,6220201,425,-1363,-489,-1491,-296,-36,440,168,-224
1,6220210,425,-1363,-489,-1491,-296,-36,440,168,-224
1,6220218,423,-1369,-493,-1487,-296,-42,440,168,-224
1,6220226,423,-1369,-493,-1487,-296,-42,440,168,-224
1,6220234,423,-1364,-486,-1486,-295,-42,432,166,-220
1,6220243,423,-1364,-486,-1486,-295,-42,432,166,-220
1,6220252,423,-1364,-486,-1486,-295,-42,432,166,-220
1,6220262,423,-1363,-492,-1486,-292,-34,432,166,-220
1,6220270,423,-1363,-492,-1486,-292,-34,432,166,-220
1,6220280,422,-1365,-491,-1485,-302,-39,432,166,-220
1,6220291,422,-1365,-491,-1485,-302,-39,432,166,-220
1,6220305,425,-1364,-492,-1489,-304,-34,432,166,-220
1,6220318,424,-1365,-485,-1487,-307,-45,432,166,-220
1,6220326,424,-1365,-485,-1487,-307,-45,432,166,-220
1,6220340,426,-1368,-494,-1485,-305,-42,432,166,-220
1,6220355,423,-1363,-490,-1481,-304,-44,437,169,-221
1,6220368,423,-1363,-490,-1481,-304,-44,437,169,-221
1,6220380,423,-1365,-492,-1481,-305,-40,437,169,-221
1,6220392,423,-1365,-492,-1481,-305,-40,437,169,-221
1,6220406,423,-1365,-488,-1477,-304,-45,437,169,-221
1,6220419,424,-1366,-489,-1483,-305,-43,437,169,-221
1,6220431,424,-1366,-489,-1483,-305,-43,437,169,-221
1,6220442,422,-1363,-490,-1482,-303,-31,437,169,-221
1,6220455,425,-1367,-498,-1478,-298,-45,437,169,-221
1,6220471,425,-1367,-498,-1478,-298,-45,437,169,-221
1,6220485,424,-1365,-487,-1485,-304,-38,441,175,-225
1,6220494,425,-1367,-488,-1483,-305,-42,441,175,-225
1,6220507,425,-1367,-488,-1483,-305,-42,441,175,-225
1,6220520,427,-1363,-493,-1483,-304,-42,441,175,-225
1,6220533,424,-1367,-492,-1490,-299,-40,441,175,-225
1,6220544,424,-1367,-492,-1490,-299,-40,441,175,-225
1,6220558,423,-1364,-494,-1477,-300,-47,441,175,-225
1,6220570,423,-1364,-494,-1477,-300,-47,441,175,-225
1,6220579,425,-1361,-492,-1483,-307,-43,441,175,-225
1,6220587,425,-1361,-492,-1483,-307,-43,441,175,-225
1,6220595,424,-1367,-487,-1480,-300,-33,436,164,-226
1,6220603,424,-1367,-487,-1480,-300,-33,436,164,-226
1,6220612,424,-1367,-487,-1480,-300,-33,436,164,-226
1,6220623,425,-1364,-490,-1483,-300,-40,436,164,-226
1,6220637,424,-1363,-490,-1489,-302,-42,436,164,-226
1,6220649,424,-1363,-490,-1489,-302,-42,436,164,-226
1,6220660,421,-1363,-493,-1486,-300,-43,436,164,-226
1,6220674,423,-1364,-490,-1487,-303,-37,436,164,-226
1,6220689,423,-1364,-490,-1487,-303,-37,436,164,-226
1,6220703,424,-1362,-493,-1487,-306,-33,436,164,-226
1,6220711,424,-1362,-493,-1487,-306,-33,436,164,-226
1,6220725,424,-1362,-493,-1487,-306,-33,436,164,-226
1,6220738,423,-1363,-486,-1490,-300,-37,434,168,-228
1,6220752,423,-1363,-486,-1490,-300,-37,434,168,-228
1,6220762,426,-1365,-490,-1489,-302,-39,434,168,-228
1,6220773,425,-1365,-488,-1487,-297,-40,434,168,-228
1,6220781,425,-1365,-488,-1487,-297,-40,434,168,-228
1,6220789,425,-1365,-488,-1487,-297,-40,434,168,-228
1,6220797,425,-1367,-491,-1491,-302,-39,434,168,-228
1,6220807,425,-1367,-491,-1491,-302,-39,434,168,-228
1,6220812,425,-1367,-491,-1491,-302,-39,434,168,-228
1,6220820,424,-1366,-491,-1479,-303,-42,434,168,-228
1,6220826,424,-1366,-491,-1479,-303,-42,434,168,-228
1,6220834,423,-1365,-490,-1480,-307,-44,434,168,-228
1,6220841,423,-1365,-490,-1480,-307,-44,434,168,-228
1,6220848,423,-1365,-490,-1480,-307,-44,434,168,-228
1,6220855,423,-1365,-487,-1485,-305,-39,436,164,-224
1,6220862,423,-1365,-487,-1485,-305,-39,436,164,-224
1,6220868,423,-1365,-487,-1485,-305,-39,436,164,-224
1,6220874,424,-1361,-488,-1485,-300,-42,436,164,-224
1,6220882,424,-1361,-488,-1485,-300,-42,436,164,-224
1,6220889,424,-1361,-488,-1485,-300,-42,436,164,-224
1,6220895,422,-1364,-488,-1489,-298,-35,436,164,-224
1,6220902,422,-1364,-488,-1489,-298,-35,436,164,-224
1,6220909,422,-1364,-488,-1489,-298,-35,436,164,-224
1,6220916,425,-1361,-490,-1486,-309,-31,436,164,-224
1,6220922,425,-1361,-490,-1486,-309,-31,436,164,-224
1,6220931,425,-1361,-490,-1486,-309,-31,436,164,-224
1,6220937,426,-1361,-493,-1485,-296,-35,436,164,-224
1,6220943,426,-1361,-493,-1485,-296,-35,436,164,-224
1,6220951,426,-1361,-493,-1485,-296,-35,436,164,-224
1,6220959,424,-1364,-494,-1491,-301,-36,436,164,-224
1,6220971,424,-1364,-494,-1491,-301,-36,436,164,-224
1,6220980,426,-1364,-489,-1482,-297,-32,433,171,-225
1,6220988,426,-1364,-489,-1482,-297,-32,433,171,-225
1,6220997,423,-1365,-489,-1489,-302,-36,433,171,-225
1,6221007,423,-1365,-489,-1489,-302,-36,433,171,-225
1,6221017,423,-1366,-489,-1482,-302,-34,433,171,-225
1,6221027,423,-1366,-489,-1482,-302,-34,433,171,-225
1,6221038,423,-1366,-489,-1482,-302,-34,433,171,-225
1,6221045,423,-1366,-489,-1482,-302,-34,433,171,-225
1,6221057,423,-1366,-489,-1482,-302,-34,433,171,-225
1,6221063,423,-1366,-489,-1482,-302,-34,433,171,-225
1,6221074,425,-1368,-495,-1480,-305,-35,433,171,-225
1,6221083,425,-1368,-495,-1480,-305,-35,433,171,-225
1,6221094,424,-1362,-487,-1483,-301,-38,443,163,-231
1,6221105,424,-1362,-487,-1483,-301,-38,443,163,-231
1,6221112,424,-1362,-487,-1483,-301,-38,443,163,-231
1,6221124,424,-1366,-488,-1485,-307,-39,443,163,-231
1,6221131,424,-1366,-488,-1485,-307,-39,443,163,-231
1,6221138,421,-1366,-491,-1485,-303,-35,443,163,-231
1,6221145,421,-1366,-491,-1485,-303,-35,443,163,-231
1,6221150,421,-1366,-491,-1485,-303,-35,443,163,-231
1,6221156,424,-1363,-491,-1480,-298,-40,443,163,-231
1,6221162,424,-1363,-491,-1480,-298,-40,443,163,-231
1,6221168,424,-1363,-491,-1480,-298,-40,443,163,-231
1,6221174,425,-1365,-491,-1482,-303,-42,443,163,-231
1,6221181,425,-1365,-491,-1482,-303,-42,443,163,-231
1,6221193,425,-1364,-493,-1488,-303,-44,443,163,-231
1,6221200,425,-1364,-493,-1488,-303,-44,443,163,-231
1,6221211,425,-1364,-493,-1488,-303,-44,443,163,-231
1,6221221,423,-1365,-499,-1488,-306,-35,440,162,-230
1,6221230,423,-1365,-499,-1488,-306,-35,440,162,-230
1,6221241,423,-1367,-490,-1482,-307,-39,440,162,-230
1,6221252,422,-1365,-490,-1492,-304,-37,440,162,-230
1,6221262,422,-1365,-490,-1492,-304,-37,440,162,-230
1,6221273,426,-1364,-491,-1489,-303,-35,440,162,-230
1,6221280,426,-1364,-491,-1489,-303,-35,440,162,-230
1,6221290,426,-1364,-491,-1489,-303,-35,440,162,-230
1,6221300,427,-1366,-492,-1492,-308,-37,440,162,-230
1,6221308,427,-1366,-492,-1492,-308,-37,440,162,-230
1,6221316,425,-1364,-492,-1489,-307,-34,440,162,-230
1,6221321,425,-1364,-492,-1489,-307,-34,440,162,-230
1,6221327,425,-1364,-492,-1489,-307,-34,440,162,-230
1,6221335,425,-1365,-492,-1486,-306,-44,440,162,-230
1,6221345,425,-1365,-492,-1486,-306,-44,440,162,-230
1,6221358,422,-1366,-495,-1489,-306,-43,436,166,-224
1,6221369,422,-1366,-495,-1489,-306,-43,436,166,-224
1,6221376,423,-1366,-489,-1481,-302,-37,436,166,-224
1,6221384,423,-1366,-489,-1481,-302,-37,436,166,-224
1,6221394,428,-1366,-495,-1480,-300,-41,436,166,-224
1,6221404,428,-1366,-495,-1480,-300,-41,436,166,-224
1,6221415,422,-1363,-499,-1479,-295,-38,436,166,-224
1,6221425,422,-1363,-499,-1479,-295,-38,436,166,-224
1,6221436,427,-1363,-485,-1480,-297,-44,436,166,-224
1,6221447,427,-1363,-485,-1480,-297,-44,436,166,-224
1,6221462,425,-1364,-491,-1480,-302,-42,436,166,-224
1,6221477,424,-1366,-491,-1489,-305,-32,432,156,-226
1,6221487,424,-1366,-491,-1489,-305,-32,432,156,-226
1,6221498,423,-1365,-488,-1486,-303,-37,432,156,-226
1,6221511,423,-1365,-488,-1486,-303,-37,432,156,-226
1,6221528,423,-1366,-491,-1487,-303,-38,432,156,-226
1,6221544,423,-1364,-491,-1483,-303,-38,432,156,-226
1,6221553,425,-1365,-496,-1480,-307,-41,432,156,-226
1,6221564,425,-1365,-496,-1480,-307,-41,432,156,-226
1,6221575,420,-1366,-490,-1479,-305,-39,432,156,-226
1,6221583,420,-1366,-490,-1479,-305,-39,432,156,-226
1,6221590,420,-1366,-490,-1479,-305,-39,432,156,-226
1,6221599,422,-1365,-492,-1487,-301,-41,435,165,-225
1,6221605,422,-1365,-492,-1487,-301,-41,435,165,-225
1,6221615,425,-1364,-489,-1480,-303,-33,435,165,-225
1,6221624,425,-1364,-489,-1480,-303,-33,435,165,-225
1,6221631,425,-1364,-489,-1480,-303,-33,435,165,-225
1,6221641,425,-1365,-491,-1476,-306,-41,435,165,-225
1,6221651,425,-1365,-491,-1476,-306,-41,435,165,-225
1,6221661,424,-1364,-486,-1487,-304,-39,435,165,-225
1,6221673,423,-1367,-489,-1481,-306,-36,435,165,-225
1,6221683,423,-1367,-489,-1481,-306,-36,435,165,-225
1,6221697,425,-1364,-491,-1487,-305,-37,435,165,-225
1,6221710,425,-1364,-491,-1487,-305,-37,435,165,-225
1,6221718,423,-1366,-489,-1483,-301,-43,438,164,-226
1,6221730,423,-1366,-489,-1483,-301,-43,438,164,-226
1,6221742,424,-1364,-484,-1491,-301,-43,438,164,-226
1,6221750,424,-1364,-484,-1491,-301,-43,438,164,-226
1,6221758,424,-1365,-493,-1490,-304,-37,438,164,-226
1,6221767,424,-1365,-493,-1490,-304,-37,438,164,-226
1,6221782,425,-1367,-490,-1493,-304,-33,438,164,-226
1,6221791,425,-1367,-490,-1493,-304,-33,438,164,-226
1,6221801,422,-1366,-491,-1489,-304,-37,438,164,-226
1,6221813,425,-1364,-495,-1484,-300,-31,438,164,-226
1,6221829,425,-1364,-495,-1484,-300,-31,438,164,-226
1,6221844,425,-1364,-497,-1487,-303,-36,438,164,-226
1,6221852,425,-1364,-497,-1487,-303,-36,438,164,-226
1,6221861,425,-1365,-486,-1488,-301,-41,443,165,-223
1,6221871,425,-1365,-486,-1488,-301,-41,443,165,-223
1,6221878,424,-1367,-491,-1485,-303,-36,443,165,-223
1,6221886,424,-1367,-491,-1485,-303,-36,443,165,-223
1,6221898,424,-1363,-495,-1487,-302,-39,443,165,-223
1,6221911,424,-1363,-495,-1487,-302,-39,443,165,-223
1,6221924,426,-1364,-493,-1482,-293,-38,443,165,-223
1,6221937,425,-1365,-492,-1485,-296,-33,443,165,-223
1,6221950,425,-1365,-492,-1485,-296,-33,443,165,-223
1,6221963,423,-1364,-490,-1492,-301,-39,443,165,-223
1,6221974,423,-1364,-490,-1485,-308,-34,443,161,-219
1,6221985,423,-1364,-490,-1485,-308,-34,443,161,-219
1,6221999,427,-1362,-491,-1489,-301,-41,443,161,-219
1,6222012,427,-1362,-491,-1489,-301,-41,443,161,-219
1,6222023,423,-1367,-492,-1479,-302,-44,443,161,-219
1,6222033,425,-1363,-493,-1480,-309,-48,443,161,-219
1,6222046,425,-1363,-493,-1480,-309,-48,443,161,-219
1,6222059,423,-1365,-493,-1486,-305,-40,443,161,-219
1,6222069,423,-1365,-493,-1486,-305,-40,443,161,-219
1,6222082,425,-1364,-489,-1484,-299,-36,443,161,-219
1,6222096,424,-1367,-494,-1490,-298,-37,434,158,-226
1,6222110,424,-1367,-494,-1490,-298,-37,434,158,-226
1,6222119,424,-1369,-491,-1489,-297,-41,434,158,-226
1,6222132,424,-1369,-491,-1489,-297,-41,434,158,-226
1,6222141,425,-1366,-493,-1486,-309,-35,434,158,-226
1,6222149,425,-1366,-493,-1486,-309,-35,434,158,-226
1,6222157,421,-1364,-488,-1491,-301,-37,434,158,-226
1,6222164,421,-1364,-488,-1491,-301,-37,434,158,-226
1,6222173,424,-1368,-495,-1485,-304,-51,434,158,-226
1,6222181,424,-1368,-495,-1485,-304,-51,434,158,-226
1,6222189,424,-1368,-495,-1485,-304,-51,434,158,-226
1,6222197,423,-1366,-494,-1486,-289,-42,434,158,-226
1,6222205,423,-1366,-494,-1486,-289,-42,434,158,-226
1,6222213,424,-1366,-492,-1478,-300,-28,434,158,-226
1,6222222,424,-1366,-492,-1478,-300,-28,440,164,-230
1,6222230,424,-1366,-492,-1478,-300,-28,440,164,-230
1,6222241,425,-1363,-489,-1488,-306,-33,440,164,-230
1,6222253,425,-1363,-489,-1488,-306,-33,440,164,-230
1,6222267,425,-1363,-490,-1480,-302,-33,440,164,-230
1,6222280,425,-1363,-490,-1480,-302,-33,440,164,-230
1,6222292,425,-1363,-490,-1480,-302,-33,440,164,-230
1,6222306,425,-1365,-495,-1484,-305,-39,440,164,-230
1,6222319,422,-1362,-493,-1483,-309,-41,440,164,-230
1,6222332,422,-1362,-493,-1483,-309,-41,440,164,-230
1,6222345,420,-1363,-491,-1488,-308,-39,440,164,-230
1,6222356,424,-1366,-484,-1487,-298,-36,436,172,-226
1,6222369,424,-1366,-484,-1487,-298,-36,436,172,-226
1,6222383,426,-1363,-494,-1486,-294,-47,436,172,-226
1,6222395,423,-1365,-494,-1482,-307,-40,436,172,-226
1,6222409,423,-1365,-494,-1482,-307,-40,436,172,-226
1,6222423,422,-1361,-490,-1484,-300,-36,436,172,-226
1,6222435,424,-1365,-491,-1492,-292,-37,436,172,-226
1,6222447,424,-1365,-491,-1492,-292,-37,436,172,-226
1,6222456,425,-1363,-492,-1479,-307,-39,436,172,-226
1,6222467,425,-1363,-492,-1479,-307,-39,436,172,-226
1,6222481,424,-1362,-487,-1486,-308,-45,439,169,-225
1,6222489,424,-1362,-487,-1486,-308,-45,439,169,-225
1,6222497,425,-1364,-493,-1481,-307,-39,439,169,-225
1,6222505,425,-1364,-493,-1481,-307,-39,439,169,-225
1,6222514,423,-1363,-494,-1482,-303,-39,439,169,-225
1,6222527,423,-1363,-494,-1482,-303,-39,439,169,-225
1,6222539,424,-1365,-487,-1487,-306,-36,439,169,-225
1,6222553,424,-1365,-487,-1487,-306,-36,439,169,-225
1,6222565,421,-1364,-495,-1487,-305,-39,439,169,-225
1,6222575,424,-1367,-496,-1489,-304,-36,439,169,-225
1,6222583,424,-1367,-496,-1489,-304,-36,439,169,-225
1,6222590,424,-1367,-496,-1489,-304,-36,439,169,-225
1,6222599,423,-1366,-484,-1487,-306,-36,437,163,-223
1,6222608,423,-1366,-484,-1487,-306,-36,437,163,-223
1,6222616,425,-1364,-493,-1492,-304,-41,437,163,-223
1,6222625,425,-1364,-493,-1492,-304,-41,437,163,-223
1,6222632,425,-1364,-493,-1492,-304,-41,437,163,-223
1,6222643,422,-1362,-492,-1482,-304,-35,437,163,-223
1,6222652,422,-1362,-492,-1482,-304,-35,437,163,-223
1,6222661,425,-1363,-486,-1487,-299,-33,437,163,-223
1,6222672,425,-1363,-486,-1487,-299,-33,437,163,-223
1,6222682,425,-1365,-492,-1488,-302,-34,437,163,-223
1,6222691,425,-1365,-492,-1488,-302,-34,437,163,-223
1,6222700,424,-1365,-489,-1492,-307,-34,437,163,-223
1,6222709,424,-1365,-489,-1492,-307,-34,437,163,-223
1,6222717,424,-1365,-486,-1486,-304,-37,438,170,-232
1,6222728,424,-1365,-486,-1486,-304,-37,438,170,-232
1,6222739,422,-1363,-492,-1491,-306,-40,438,170,-232
1,6222753,425,-1363,-488,-1494,-302,-36,438,170,-232
1,6222766,425,-1363,-488,-1494,-302,-36,438,170,-232
1,6222778,425,-1363,-488,-1494,-302,-36,438,170,-232
1,6222791,425,-1363,-488,-1494,-302,-36,438,170,-232
1,6222804,427,-1365,-491,-1494,-299,-40,438,170,-232
1,6222818,421,-1365,-498,-1491,-299,-37,438,170,-232
1,6222830,421,-1365,-498,-1491,-299,-37,438,170,-232
1,6222839,423,-1363,-495,-1486,-301,-33,435,167,-227
1,6222850,423,-1363,-495,-1486,-301,-33,435,167,-227
1,6222858,424,-1367,-488,-1483,-302,-38,435,167,-227
1,6222869,424,-1367,-488,-1483,-302,-38,435,167,-227
1,6222880,424,-1364,-488,-1482,-303,-41,435,167,-227
1,6222887,424,-1364,-488,-1482,-303,-41,435,167,-227
1,6222899,425,-1362,-492,-1481,-304,-36,435,167,-227
1,6222905,425,-1362,-492,-1481,-304,-36,435,167,-227
1,6222916,422,-1364,-491,-1485,-299,-27,435,167,-227
1,6222925,422,-1364,-491,-1485,-299,-27,435,167,-227
1,6222937,427,-1367,-492,-1480,-304,-32,435,167,-227
1,6222946,427,-1367,-492,-1480,-304,-32,435,167,-227
1,6222955,426,-1367,-493,-1487,-301,-31,435,167,-227
1,6222965,426,-1367,-493,-1487,-301,-31,435,167,-227
1,6222976,423,-1366,-489,-1487,-300,-31,441,161,-221
1,6222986,423,-1366,-489,-1487,-300,-31,441,161,-221
1,6222995,423,-1368,-488,-1476,-301,-40,441,161,-221
1,6223005,423,-1368,-488,-1476,-301,-40,441,161,-221
1,6223011,423,-1368,-488,-1476,-301,-40,441,161,-221
1,6223017,423,-1367,-482,-1483,-296,-37,441,161,-221
1,6223024,423,-1367,-482,-1483,-296,-37,441,161,-221
1,6223030,423,-1367,-482,-1483,-296,-37,441,161,-221
1,6223040,425,-1364,-488,-1479,-305,-39,441,161,-221
1,6223051,425,-1364,-488,-1479,-305,-39,441,161,-221
1,6223063,425,-1363,-489,-1487,-303,-33,441,161,-221
1,6223072,425,-1363,-489,-1487,-303,-33,441,161,-221
1,6223082,423,-1364,-491,-1475,-304,-31,441,161,-221
1,6223091,423,-1364,-491,-1475,-304,-31,441,161,-221
1,6223102,426,-1366,-488,-1487,-307,-32,434,172,-224
1,6223110,426,-1366,-488,-1487,-307,-32,434,172,-224
1,6223120,423,-1366,-486,-1482,-307,-41,434,172,-224
1,6223128,423,-1366,-486,-1482,-307,-41,434,172,-224
1,6223137,424,-1365,-492,-1489,-297,-39,434,172,-224
1,6223143,424,-1365,-492,-1489,-297,-39,434,172,-224
1,6223150,424,-1365,-492,-1489,-297,-39,434,172,-224
1,6223156,422,-1366,-496,-1486,-301,-37,434,172,-224
1,6223163,422,-1366,-496,-1486,-301,-37,434,172,-224
1,6223169,422,-1366,-496,-1486,-301,-37,434,172,-224
1,6223175,425,-1365,-492,-1488,-298,-37,434,172,-224
1,6223181,425,-1365,-492,-1488,-298,-37,434,172,-224
1,6223187,425,-1365,-492,-1488,-298,-37,434,172,-224
1,6223194,424,-1363,-495,-1483,-303,-35,434,172,-224
1,6223204,424,-1363,-495,-1483,-303,-35,434,172,-224
1,6223214,423,-1366,-493,-1484,-305,-33,438,156,-232
1,6223223,423,-1366,-493,-1484,-305,-33,438,156,-232
1,6223234,423,-1366,-493,-1484,-305,-33,438,156,-232
1,6223240,423,-1366,-493,-1484,-305,-33,438,156,-232
1,6223252,423,-1366,-493,-1484,-305,-33,438,156,-232
1,6223261,426,-1364,-490,-1482,-307,-34,438,156,-232
1,6223272,426,-1364,-490,-1482,-307,-34,438,156,-232
1,6223284,425,-1367,-493,-1478,-300,-37,438,156,-232
1,6223290,425,-1367,-493,-1478,-300,-37,438,156,-232
1,6223301,421,-1366,-491,-1478,-309,-38,438,156,-232
1,6223312,421,-1366,-491,-1478,-309,-38,438,156,-232
1,6223322,421,-1366,-488,-1485,-306,-43,438,156,-232
1,6223333,421,-1366,-488,-1485,-306,-43,438,156,-232
1,6223340,424,-1364,-493,-1487,-307,-37,437,167,-225
1,6223351,424,-1364,-493,-1487,-307,-37,437,167,-225
1,6223363,423,-1364,-485,-1490,-305,-39,437,167,-225
1,6223371,423,-1364,-485,-1490,-305,-39,437,167,-225
1,6223379,426,-1362,-492,-1486,-305,-41,437,167,-225
1,6223389,426,-1362,-492,-1486,-305,-41,437,167,-225
1,6223400,424,-1365,-492,-1486,-300,-39,437,167,-225
1,6223410,424,-1365,-492,-1486,-300,-39,437,167,-225
1,6223417,424,-1364,-489,-1484,-308,-36,437,167,-225
1,6223428,424,-1364,-489,-1484,-308,-36,437,167,-225
1,6223439,423,-1365,-492,-1478,-305,-40,437,167,-225
1,6223449,423,-1365,-492,-1478,-305,-40,437,167,-225
1,6223458,424,-1364,-494,-1482,-302,-33,437,167,-225
1,6223469,424,-1364,-494,-1482,-302,-33,437,167,-225
1,6223478,422,-1366,-483,-1480,-301,-40,430,174,-222
1,6223489,422,-1366,-483,-1480,-301,-40,430,174,-222
1,6223501,425,-1365,-495,-1481,-302,-41,430,174,-222
1,6223508,425,-1365,-495,-1481,-302,-41,430,174,-222
1,6223519,422,-1362,-492,-1481,-299,-35,430,174,-222
1,6223531,422,-1362,-492,-1481,-299,-35,430,174,-222
1,6223540,426,-1364,-490,-1488,-303,-34,430,174,-222
1,6223551,426,-1364,-490,-1488,-303,-34,430,174,-222
1,6223559,426,-1366,-488,-1485,-304,-33,430,174,-222
1,6223569,426,-1366,-488,-1485,-304,-33,430,174,-222
1,6223576,424,-1362,-495,-1483,-305,-31,430,174,-222
1,6223582,424,-1362,-495,-1483,-305,-31,430,174,-222
1,6223588,424,-1362,-495,-1483,-305,-31,430,174,-222
1,6223594,418,-1364,-489,-1484,-308,-33,436,164,-228
1,6223600,418,-1364,-489,-1484,-308,-33,436,164,-228
1,6223607,418,-1364,-489,-1484,-308,-33,436,164,-228
1,6223612,418,-1364,-489,-1484,-308,-33,436,164,-228
1,6223620,426,-1363,-492,-1485,-296,-32,436,164,-228
1,6223626,426,-1363,-492,-1485,-296,-32,436,164,-228
1,6223632,426,-1363,-492,-1485,-296,-32,436,164,-228
1,6223641,424,-1365,-492,-1487,-301,-38,436,164,-228
1,6223651,424,-1365,-492,-1487,-301,-38,436,164,-228
1,6223659,422,-1362,-491,-1489,-304,-39,436,164,-228
1,6223670,422,-1362,-491,-1489,-304,-39,436,164,-228
1,6223676,423,-1365,-492,-1478,-304,-38,436,164,-228
1,6223688,423,-1365,-492,-1478,-304,-38,436,164,-228
1,6223698,421,-1366,-489,-1479,-300,-43,436,164,-228
1,6223708,421,-1366,-489,-1479,-300,-43,436,164,-228
1,6223720,424,-1365,-491,-1479,-296,-50,436,162,-224
1,6223727,424,-1365,-491,-1479,-296,-50,436,162,-224
1,6223738,427,-1362,-487,-1488,-305,-39,436,162,-224
1,6223746,427,-1362,-487,-1488,-305,-39,436,162,-224
1,6223757,425,-1364,-494,-1493,-307,-38,436,162,-224
1,6223768,425,-1364,-494,-1493,-307,-38,436,162,-224
1,6223776,423,-1365,-493,-1482,-304,-39,436,162,-224
1,6223787,423,-1365,-493,-1482,-304,-39,436,162,-224
1,6223798,423,-1366,-491,-1486,-299,-35,436,162,-224
1,6223808,423,-1366,-491,-1486,-299,-35,436,162,-224
1,6223819,426,-1367,-490,-1490,-302,-38,436,162,-224
1,6223827,426,-1367,-490,-1490,-302,-38,436,162,-224
1,6223841,427,-1368,-491,-1484,-304,-36,439,165,-227
1,6223853,425,-1360,-492,-1488,-307,-33,439,165,-227
1,6223866,425,-1360,-492,-1488,-307,-33,439,165,-227
1,6223878,426,-1366,-492,-1484,-301,-33,439,165,-227
1,6223890,426,-1366,-492,-1484,-301,-33,439,165,-227
1,6223902,423,-1367,-488,-1487,-299,-38,439,165,-227
1,6223916,425,-1365,-488,-1489,-303,-39,439,165,-227
1,6223928,425,-1365,-488,-1489,-303,-39,439,165,-227
1,6223940,421,-1363,-495,-1484,-300,-35,439,165,-227
1,6223954,426,-1366,-490,-1482,-303,-36,439,165,-227
1,6223967,426,-1366,-490,-1482,-303,-36,439,165,-227
1,6223978,422,-1364,-487,-1480,-303,-35,436,172,-228
1,6223991,422,-1364,-487,-1480,-303,-35,436,172,-228
1,6224006,421,-1365,-489,-1483,-302,-32,436,172,-228
1,6224019,425,-1364,-492,-1482,-311,-27,436,172,-228
1,6224029,425,-1364,-492,-1482,-311,-27,436,172,-228
1,6224041,422,-1366,-493,-1490,-304,-35,436,172,-228
1,6224055,424,-1365,-497,-1480,-305,-45,436,172,-228
1,6224068,424,-1365,-497,-1480,-305,-45,436,172,-228
1,6224078,422,-1366,-484,-1482,-302,-37,436,172,-228
1,6224092,422,-1366,-484,-1482,-302,-37,436,172,-228
1,6224103,422,-1365,-488,-1479,-306,-37,434,166,-226
1,6224116,424,-1365,-495,-1484,-307,-39,434,166,-226
1,6224124,424,-1365,-495,-1484,-307,-39,434,166,-226
1,6224133,424,-1365,-495,-1484,-307,-39,434,166,-226
1,6224141,425,-1365,-496,-1483,-306,-37,434,166,-226
1,6224149,425,-1365,-496,-1483,-306,-37,434,166,-226
1,6224157,424,-1367,-493,-1491,-301,-36,434,166,-226
1,6224165,424,-1367,-493,-1491,-301,-36,434,166,-226
1,6224173,424,-1367,-493,-1491,-301,-36,434,166,-226
1,6224182,426,-1364,-494,-1489,-302,-32,434,166,-226
1,6224189,426,-1364,-494,-1489,-302,-32,434,166,-226
1,6224197,423,-1368,-494,-1492,-304,-38,434,166,-226
1,6224205,423,-1368,-494,-1492,-304,-38,434,166,-226
1,6224215,425,-1365,-494,-1488,-297,-31,447,165,-221
1,6224223,425,-1365,-494,-1488,-297,-31,447,165,-221
1,6224231,425,-1365,-494,-1488,-297,-31,447,165,-221
1,6224239,420,-1367,-491,-1488,-305,-34,447,165,-221
1,6224248,420,-1367,-491,-1488,-305,-34,447,165,-221
1,6224262,421,-1366,-493,-1479,-305,-35,447,165,-221
1,6224275,422,-1369,-487,-1489,-307,-42,447,165,-221
1,6224288,422,-1369,-487,-1489,-307,-42,447,165,-221
1,6224300,422,-1366,-494,-1490,-304,-33,447,165,-221
1,6224312,422,-1366,-494,-1490,-304,-33,447,165,-221
1,6224324,422,-1366,-493,-1491,-308,-38,447,165,-221
1,6224334,423,-1366,-490,-1488,-303,-39,441,165,-227
1,6224346,423,-1366,-490,-1488,-303,-39,441,165,-227
1,6224360,423,-1362,-489,-1494,-305,-39,441,165,-227
1,6224374,422,-1365,-488,-1487,-305,-41,441,165,-227
1,6224386,422,-1365,-488,-1487,-305,-41,441,165,-227
1,6224398,422,-1364,-495,-1486,-301,-33,441,165,-227
1,6224411,422,-1364,-495,-1486,-301,-33,441,165,-227
1,6224424,422,-1363,-493,-1486,-304,-32,441,165,-227
1,6224434,422,-1363,-493,-1486,-304,-32,441,165,-227
1,6224443,422,-1363,-493,-1486,-304,-32,441,165,-227
1,6224457,422,-1365,-491,-1481,-307,-49,441,165,-227
1,6224471,422,-1365,-491,-1481,-307,-49,441,165,-227
1,6224481,426,-1365,-485,-1484,-301,-44,443,163,-225
1,6224494,423,-1365,-493,-1492,-303,-34,443,163,-225
1,6224508,423,-1365,-493,-1492,-303,-34,443,163,-225
1,6224522,426,-1363,-496,-1487,-301,-43,443,163,-225
1,6224532,426,-1363,-496,-1487,-301,-43,443,163,-225
1,6224544,426,-1365,-491,-1486,-305,-38,443,163,-225
1,6224557,422,-1367,-499,-1491,-308,-42,443,163,-225
1,6224570,422,-1367,-499,-1491,-308,-42,443,163,-225
1,6224578,425,-1364,-492,-1490,-299,-44,443,163,-225
1,6224586,425,-1364,-492,-1490,-299,-44,443,163,-225
1,6224594,424,-1366,-489,-1480,-310,-41,435,175,-223
1,6224603,424,-1366,-489,-1480,-310,-41,435,175,-223
1,6224613,424,-1366,-489,-1480,-310,-41,435,175,-223
1,6224627,423,-1363,-490,-1487,-298,-43,435,175,-223
1,6224640,423,-1364,-490,-1482,-297,-43,435,175,-223
1,6224649,423,-1364,-490,-1482,-297,-43,435,175,-223
1,6224662,424,-1366,-488,-1476,-305,-44,435,175,-223
1,6224675,424,-1366,-490,-1487,-300,-40,435,175,-223
1,6224690,424,-1366,-490,-1487,-300,-40,435,175,-223
1,6224699,422,-1367,-496,-1491,-302,-43,435,175,-223
1,6224712,422,-1367,-496,-1491,-302,-43,435,175,-223
1,6224724,424,-1367,-494,-1492,-304,-43,432,162,-224
1,6224738,425,-1365,-488,-1487,-301,-42,432,162,-224
1,6224749,425,-1365,-488,-1487,-301,-42,432,162,-224
1,6224761,423,-1365,-488,-1489,-305,-34,432,162,-224
1,6224773,423,-1365,-488,-1489,-305,-34,432,162,-224
1,6224785,422,-1364,-489,-1489,-307,-33,432,162,-224
1,6224796,420,-1362,-493,-1492,-299,-31,432,162,-224
1,6224804,420,-1362,-493,-1492,-299,-31,432,162,-224
1,6224812,420,-1362,-493,-1492,-299,-31,432,162,-224
1,6224820,421,-1365,-492,-1488,-298,-39,432,162,-224
1,6224829,421,-1365,-492,-1488,-298,-39,432,162,-224
1,6224840,425,-1363,-489,-1486,-308,-36,438,172,-228
1,6224850,425,-1363,-489,-1486,-308,-36,438,172,-228
1,6224862,425,-1365,-486,-1482,-310,-37,438,172,-228
1,6224869,425,-1365,-486,-1482,-310,-37,438,172,-228
1,6224879,425,-1363,-492,-1481,-299,-41,438,172,-228
1,6224886,425,-1363,-492,-1481,-299,-41,438,172,-228
1,6224898,423,-1364,-492,-1489,-297,-41,438,172,-228
1,6224909,423,-1364,-492,-1489,-297,-41,438,172,-228
1,6224917,424,-1364,-494,-1485,-299,-34,438,172,-228
1,6224928,424,-1364,-494,-1485,-299,-34,438,172,-228
1,6224936,424,-1364,-491,-1480,-301,-38,438,172,-228
1,6224947,424,-1364,-491,-1480,-301,-38,438,172,-228
1,6224957,422,-1365,-489,-1483,-305,-40,439,169,-227
1,6224965,422,-1365,-489,-1483,-305,-40,439,169,-227
1,6224976,423,-1365,-485,-1485,-297,-40,439,169,-227
1,6224983,423,-1365,-485,-1485,-297,-40,439,169,-227
1,6224994,423,-1365,-485,-1485,-297,-40,439,169,-227
1,6225003,423,-1364,-488,-1486,-294,-36,439,169,-227
1,6225014,422,-1364,-492,-1484,-297,-36,439,169,-227
1,6225024,422,-1364,-492,-1484,-297,-36,439,169,-227
1,6225032,422,-1364,-492,-1484,-297,-36,439,169,-227
1,6225042,427,-1364,-488,-1482,-297,-37,439,169,-227
1,6225053,427,-1364,-488,-1482,-297,-37,439,169,-227
1,6225064,423,-1365,-489,-1482,-304,-43,439,169,-227
1,6225076,422,-1366,-488,-1488,-304,-37,439,169,-227
1,6225083,422,-1366,-488,-1488,-304,-37,439,169,-227
1,6225094,426,-1362,-483,-1484,-301,-37,436,170,-227
1,6225100,426,-1362,-483,-1484,-301,-37,436,170,-226
1,6225112,426,-1362,-483,-1484,-301,-37,436,170,-226
1,6225124,419,-1365,-491,-1481,-296,-40,436,170,-226
1,6225132,419,-1365,-491,-1481,-296,-40,436,170,-226
1,6225139,424,-1366,-495,-1485,-300,-45,436,170,-226
1,6225145,424,-1366,-495,-1485,-300,-45,436,170,-226
1,6225152,424,-1366,-495,-1485,-300,-45,436,170,-226
1,6225158,424,-1366,-491,-1488,-308,-39,436,170,-226
1,6225163,424,-1366,-491,-1488,-308,-39,436,170,-226
1,6225170,424,-1366,-491,-1488,-308,-39,436,170,-226
1,6225175,422,-1365,-493,-1490,-301,-39,436,170,-226
1,6225183,422,-1365,-493,-1490,-301,-39,436,170,-226
1,6225193,422,-1365,-493,-1490,-301,-39,436,170,-226
1,6225201,425,-1362,-492,-1487,-299,-43,436,170,-226
1,6225211,425,-1362,-492,-1487,-299,-43,436,170,-226
1,6225222,426,-1363,-493,-1484,-308,-39,436,168,-216
1,6225229,426,-1363,-493,-1484,-308,-39,436,168,-216
1,6225235,424,-1363,-490,-1485,-300,-40,436,168,-216
1,6225248,424,-1363,-490,-1485,-300,-40,436,168,-216
1,6225255,421,-1364,-489,-1487,-305,-45,436,168,-216
1,6225266,421,-1364,-489,-1487,-305,-45,436,168,-216
1,6225277,423,-1366,-490,-1491,-301,-49,436,168,-216
1,6225284,423,-1366,-490,-1491,-301,-49,436,168,-216
1,6225290,423,-1366,-490,-1491,-301,-49,436,168,-216
1,6225296,425,-1368,-493,-1483,-296,-36,436,168,-216
1,6225303,425,-1368,-493,-1483,-296,-36,436,168,-216
1,6225314,425,-1365,-493,-1487,-302,-39,436,168,-216
1,6225321,425,-1365,-493,-1487,-302,-39,436,168,-216
1,6225332,425,-1365,-493,-1487,-302,-39,436,168,-216
1,6225343,424,-1366,-485,-1493,-301,-38,438,160,-226
1,6225352,424,-1366,-485,-1493,-301,-38,438,160,-226
1,6225362,422,-1365,-489,-1490,-300,-35,438,160,-226
1,6225370,422,-1365,-489,-1490,-300,-35,438,160,-226
1,6225381,423,-1363,-496,-1486,-300,-36,438,160,-226
1,6225392,423,-1363,-496,-1486,-300,-36,438,160,-226
1,6225402,425,-1366,-493,-1486,-297,-44,438,160,-226
1,6225410,425,-1366,-493,-1486,-297,-44,438,160,-226
1,6225418,426,-1364,-494,-1489,-308,-42,438,160,-226
1,6225429,426,-1364,-494,-1489,-308,-42,438,160,-226
1,6225439,425,-1363,-490,-1482,-301,-37,438,160,-226
1,6225446,425,-1363,-490,-1482,-301,-37,438,160,-226
1,6225454,423,-1367,-488,-1484,-301,-35,438,160,-226
1,6225465,423,-1367,-488,-1484,-301,-35,442,152,-224
1,6225472,423,-1367,-488,-1484,-301,-35,442,152,-224
1,6225483,425,-1366,-491,-1480,-298,-38,442,152,-224
1,6225494,425,-1366,-491,-1480,-298,-38,442,152,-224
1,6225505,425,-1364,-493,-1489,-305,-39,442,152,-224
1,6225516,423,-1361,-494,-1479,-303,-38,442,152,-224
1,6225527,423,-1361,-494,-1479,-303,-38,442,152,-224
1,6225536,424,-1366,-490,-1484,-306,-38,442,152,-224
1,6225546,424,-1366,-490,-1484,-306,-38,442,152,-224
1,6225557,423,-1365,-487,-1488,-301,-44,442,152,-224
1,6225566,423,-1365,-487,-1488,-301,-44,442,152,-224
1,6225575,425,-1363,-494,-1489,-306,-41,442,152,-224
1,6225582,425,-1363,-494,-1489,-306,-41,442,152,-224
1,6225588,425,-1363,-494,-1489,-306,-41,442,152,-224
1,6225594,425,-1363,-494,-1489,-306,-41,442,152,-224
1,6225600,425,-1367,-491,-1484,-295,-38,449,165,-231
1,6225606,425,-1367,-491,-1484,-295,-38,449,165,-231
1,6225617,421,-1364,-493,-1480,-305,-36,449,165,-231
1,6225627,421,-1364,-493,-1480,-305,-36,449,165,-231
1,6225636,425,-1363,-491,-1492,-309,-40,449,165,-231
1,6225646,425,-1363,-491,-1492,-309,-40,449,165,-231
1,6225656,424,-1363,-491,-1492,-306,-39,449,165,-231
1,6225665,424,-1363,-491,-1492,-306,-39,449,165,-231
1,6225673,424,-1363,-491,-1492,-306,-39,449,165,-231
1,6225683,424,-1365,-495,-1485,-302,-40,449,165,-231
1,6225691,424,-1365,-495,-1485,-302,-40,449,165,-231
1,6225701,423,-1362,-491,-1489,-298,-36,449,165,-231
1,6225713,423,-1362,-491,-1489,-298,-36,449,165,-231
1,6225723,421,-1363,-490,-1489,-296,-33,435,171,-229
1,6225734,424,-1364,-485,-1482,-303,-42,435,171,-229
1,6225743,424,-1364,-485,-1482,-303,-42,435,171,-229
1,6225752,424,-1364,-485,-1482,-303,-42,435,171,-229
1,6225762,423,-1366,-486,-1479,-303,-38,435,171,-229
1,6225773,423,-1366,-486,-1479,-303,-38,435,171,-229
1,6225783,424,-1365,-491,-1486,-302,-37,435,171,-229
1,6225790,424,-1365,-491,-1486,-302,-37,435,171,-229
1,6225801,423,-1364,-493,-1487,-301,-36,435,171,-229
1,6225810,423,-1364,-493,-1487,-301,-36,435,171,-229
1,6225819,426,-1366,-495,-1481,-301,-30,435,171,-229
1,6225830,426,-1366,-495,-1481,-301,-30,435,171,-229
1,6225840,424,-1367,-488,-1490,-302,-35,439,167,-219
1,6225848,424,-1367,-488,-1490,-302,-35,439,167,-219
1,6225857,424,-1366,-497,-1491,-303,-41,439,167,-219
1,6225864,424,-1366,-497,-1491,-303,-41,439,167,-219
1,6225873,424,-1366,-497,-1491,-303,-41,439,167,-219
1,6225886,422,-1366,-494,-1490,-303,-42,439,167,-219
1,6225901,423,-1363,-492,-1488,-301,-41,439,167,-219
1,6225917,425,-1364,-490,-1485,-302,-31,439,167,-219
1,6225930,425,-1364,-490,-1485,-302,-31,439,167,-219
1,6225939,425,-1366,-491,-1487,-310,-32,439,167,-219
1,6225952,425,-1366,-491,-1487,-310,-32,439,167,-219
1,6225967,424,-1363,-492,-1491,-303,-32,442,168,-226
1,6225980,422,-1364,-483,-1484,-303,-38,442,168,-226
1,6225989,422,-1364,-483,-1484,-303,-38,442,168,-226
1,6226002,422,-1365,-497,-1485,-302,-38,442,168,-226
1,6226017,428,-1365,-498,-1486,-301,-31,442,168,-226
1,6226031,428,-1365,-498,-1486,-301,-31,442,168,-226
1,6226040,425,-1365,-495,-1484,-307,-39,442,168,-226
1,6226053,425,-1365,-495,-1484,-307,-39,442,168,-226
1,6226067,421,-1366,-491,-1484,-304,-42,442,168,-226
1,6226081,421,-1364,-487,-1486,-302,-41,442,168,-226
1,6226091,421,-1364,-487,-1486,-302,-41,442,168,-226
1,6226103,424,-1367,-488,-1496,-297,-35,436,164,-224
1,6226116,422,-1365,-491,-1487,-296,-37,436,164,-224
1,6226127,422,-1365,-491,-1487,-296,-37,436,164,-224
1,6226140,424,-1367,-492,-1482,-298,-39,436,164,-224
1,6226147,424,-1367,-492,-1482,-298,-39,436,164,-224
1,6226156,421,-1367,-492,-1483,-303,-41,436,164,-224
1,6226164,421,-1367,-492,-1483,-303,-41,436,164,-224
1,6226172,421,-1367,-492,-1483,-303,-41,436,164,-224
1,6226181,424,-1366,-492,-1480,-297,-43,436,164,-224
1,6226189,424,-1366,-492,-1480,-297,-43,436,164,-224
1,6226196,421,-1366,-490,-1482,-300,-38,436,164,-224
1,6226204,421,-1366,-490,-1482,-300,-38,436,164,-224
1,6226212,421,-1366,-490,-1482,-300,-38,436,164,-224
1,6226221,421,-1367,-488,-1489,-301,-41,437,165,-225
1,6226228,421,-1367,-488,-1489,-301,-41,437,165,-225
1,6226236,422,-1365,-492,-1488,-306,-35,437,165,-225
1,6226244,422,-1365,-492,-1488,-306,-35,437,165,-225
1,6226252,422,-1365,-492,-1488,-306,-35,437,165,-225
1,6226262,423,-1365,-494,-1490,-302,-31,437,165,-225
1,6226272,423,-1365,-494,-1490,-302,-31,437,165,-225
1,6226281,425,-1365,-496,-1483,-299,-39,437,165,-225
1,6226289,425,-1365,-496,-1483,-299,-39,437,165,-225
1,6226298,425,-1365,-492,-1482,-301,-43,437,165,-225
1,6226308,425,-1365,-492,-1482,-301,-43,437,165,-225
1,6226321,423,-1365,-495,-1492,-296,-39,437,165,-225
1,6226333,423,-1365,-495,-1492,-296,-39,437,165,-225
1,6226348,425,-1361,-487,-1483,-297,-37,437,163,-229
1,6226358,424,-1365,-489,-1481,-297,-39,437,163,-229
1,6226371,424,-1365,-489,-1481,-297,-39,437,163,-229
1,6226383,424,-1369,-491,-1480,-305,-35,437,163,-229
1,6226397,426,-1367,-492,-1484,-308,-46,437,163,-229
1,6226407,426,-1367,-492,-1484,-308,-46,437,163,-229
1,6226420,424,-1366,-496,-1489,-306,-39,437,163,-229
1,6226432,424,-1366,-496,-1489,-306,-39,437,163,-229
1,6226442,426,-1364,-491,-1487,-305,-39,437,163,-229
1,6226455,421,-1363,-493,-1490,-301,-39,428,168,-220
1,6226469,421,-1363,-493,-1490,-301,-39,428,168,-220
1,6226481,422,-1363,-492,-1482,-303,-42,428,168,-220
1,6226492,422,-1363,-492,-1482,-303,-42,428,168,-220
1,6226506,428,-1363,-489,-1488,-302,-41,428,168,-220
1,6226521,423,-1362,-497,-1480,-304,-36,428,168,-220
1,6226533,423,-1362,-497,-1480,-304,-36,428,168,-220
1,6226541,426,-1363,-497,-1494,-312,-34,428,168,-220
1,6226549,426,-1363,-497,-1494,-312,-34,428,168,-220
1,6226557,423,-1364,-493,-1488,-308,-35,428,168,-220
1,6226566,423,-1364,-493,-1488,-308,-35,428,168,-220
1,6226576,425,-1364,-490,-1489,-299,-32,428,168,-220
1,6226583,425,-1364,-490,-1489,-299,-32,428,168,-220
1,6226591,425,-1364,-490,-1489,-299,-32,428,168,-220
1,6226599,424,-1365,-486,-1490,-296,-47,448,166,-228
1,6226611,424,-1365,-486,-1490,-296,-47,448,166,-228
1,6226621,423,-1364,-490,-1483,-301,-48,448,166,-228
1,6226630,423,-1364,-490,-1483,-301,-48,448,166,-228
1,6226640,424,-1366,-492,-1492,-301,-44,448,166,-228
1,6226650,424,-1366,-492,-1492,-301,-44,448,166,-228
1,6226660,425,-1364,-492,-1487,-305,-40,448,166,-228
1,6226672,425,-1364,-492,-1487,-305,-40,448,166,-228
1,6226685,423,-1368,-496,-1481,-300,-36,448,166,-228
1,6226698,421,-1366,-493,-1492,-304,-38,448,166,-228
1,6226709,421,-1366,-493,-1492,-304,-38,448,166,-228
1,6226721,423,-1366,-490,-1487,-296,-39,431,155,-227
1,6226737,425,-1365,-491,-1493,-296,-42,431,155,-227
1,6226747,425,-1365,-491,-1493,-296,-42,431,155,-227
1,6226755,425,-1365,-491,-1493,-296,-42,431,155,-227
1,6226764,425,-1365,-491,-1493,-296,-42,431,155,-227
1,6226774,425,-1365,-491,-1493,-296,-42,431,155,-227
1,6226787,425,-1366,-492,-1486,-302,-38,431,155,-227
1,6226800,423,-1364,-492,-1488,-297,-39,431,155,-227
1,6226810,423,-1364,-492,-1488,-297,-39,431,155,-227
1,6226824,421,-1365,-494,-1487,-293,-45,431,155,-227
1,6226837,423,-1366,-488,-1489,-305,-40,434,166,-232
1,6226849,423,-1366,-488,-1489,-305,-40,434,166,-232
1,6226859,423,-1365,-494,-1488,-305,-39,434,166,-232
1,6226869,423,-1365,-494,-1488,-305,-39,434,166,-232
1,6226876,424,-1363,-490,-1482,-305,-44,434,166,-232
1,6226887,424,-1363,-490,-1482,-305,-44,434,166,-232
1,6226893,424,-1363,-490,-1482,-305,-44,434,166,-232
1,6226906,425,-1367,-489,-1487,-303,-46,434,166,-232
1,6226916,424,-1364,-492,-1488,-299,-39,434,166,-232
1,6226927,424,-1364,-492,-1488,-299,-39,434,166,-232
1,6226939,422,-1364,-488,-1489,-297,-46,434,166,-232
1,6226948,422,-1364,-488,-1489,-297,-46,434,166,-232
1,6226958,427,-1369,-488,-1486,-305,-48,430,166,-232
1,6226968,427,-1369,-488,-1486,-305,-48,430,166,-232
1,6226978,423,-1365,-492,-1488,-301,-40,430,166,-232
1,6226990,423,-1365,-492,-1488,-301,-40,430,166,-232
1,6227001,422,-1363,-491,-1491,-303,-36,430,166,-232
1,6227010,422,-1363,-491,-1491,-303,-36,430,166,-232
1,6227020,425,-1365,-491,-1494,-297,-41,430,166,-232
1,6227027,425,-1365,-491,-1494,-297,-41,430,166,-232
1,6227034,425,-1365,-491,-1494,-297,-41,430,166,-232
1,6227040,426,-1364,-494,-1490,-300,-46,430,166,-232
1,6227046,426,-1364,-494,-1490,-300,-46,430,166,-232
1,6227052,426,-1364,-494,-1490,-300,-46,430,166,-232
1,6227058,425,-1365,-494,-1484,-292,-34,430,166,-232
1,6227064,425,-1365,-494,-1484,-292,-34,430,166,-232
1,6227070,425,-1365,-494,-1484,-292,-34,430,166,-232
1,6227077,424,-1369,-491,-1484,-305,-43,439,173,-227
1,6227083,424,-1369,-491,-1484,-305,-43,439,173,-227
1,6227090,424,-1369,-491,-1484,-305,-43,439,173,-227
1,6227096,423,-1366,-491,-1490,-307,-47,439,173,-227
1,6227102,423,-1366,-491,-1490,-307,-47,439,173,-227
1,6227108,423,-1366,-491,-1490,-307,-47,439,173,-227
1,6227113,423,-1366,-491,-1490,-307,-47,439,173,-227
1,6227120,425,-1365,-487,-1481,-299,-37,439,173,-227
1,6227126,425,-1365,-487,-1481,-299,-37,439,173,-227
1,6227132,425,-1365,-487,-1481,-299,-37,439,173,-227
1,6227138,424,-1366,-490,-1485,-299,-46,439,173,-227
1,6227144,424,-1366,-490,-1485,-299,-46,439,173,-227
1,6227150,424,-1366,-490,-1485,-299,-46,439,173,-227
1,6227156,425,-1367,-495,-1490,-307,-37,439,173,-227
1,6227163,425,-1367,-495,-1490,-307,-37,439,173,-227
1,6227168,425,-1367,-495,-1490,-307,-37,439,173,-227
1,6227175,424,-1363,-493,-1486,-304,-43,439,173,-227
1,6227181,424,-1363,-493,-1486,-304,-43,439,173,-227
1,6227186,424,-1363,-493,-1486,-304,-43,439,173,-227
1,6227191,424,-1363,-493,-1486,-304,-43,439,173,-227
1,6227196,423,-1363,-493,-1488,-306,-46,439,173,-227
1,6227202,423,-1363,-493,-1488,-306,-46,439,173,-227
1,6227208,423,-1363,-493,-1488,-306,-46,439,173,-227
1,6227214,423,-1363,-493,-1488,-306,-46,439,173,-227
1,6227218,423,-1366,-487,-1485,-290,-38,436,164,-228
1,6227223,423,-1366,-487,-1485,-290,-38,436,164,-228
1,6227228,423,-1366,-487,-1485,-290,-38,436,164,-228
1,6227233,423,-1366,-487,-1485,-290,-38,436,164,-228
1,6227238,423,-1365,-491,-1484,-296,-37,436,164,-228
1,6227244,423,-1365,-491,-1484,-296,-37,436,164,-228
1,6227249,423,-1365,-491,-1484,-296,-37,436,164,-228
1,6227254,423,-1365,-491,-1484,-296,-37,436,164,-228
1,6227259,424,-1364,-492,-1482,-305,-37,436,164,-228
1,6227264,424,-1364,-492,-1482,-305,-37,436,164,-228
1,6227269,424,-1364,-492,-1482,-305,-37,436,164,-228
1,6227273,424,-1364,-492,-1482,-305,-37,436,164,-228
1,6227278,426,-1365,-495,-1486,-301,-39,436,164,-228
1,6227284,426,-1365,-495,-1486,-301,-39,436,164,-228
1,6227289,426,-1365,-495,-1486,-301,-39,436,164,-228
1,6227295,426,-1365,-495,-1486,-301,-39,436,164,-228
1,6227300,424,-1366,-488,-1491,-303,-47,436,164,-228
1,6227304,424,-1366,-488,-1491,-303,-47,436,164,-228
1,6227309,424,-1366,-488,-1491,-303,-47,436,164,-228
1,6227313,424,-1366,-488,-1491,-303,-47,436,164,-228
1,6227318,423,-1364,-489,-1487,-302,-41,436,164,-228
1,6227323,423,-1364,-489,-1487,-302,-41,436,164,-228
1,6227329,423,-1364,-489,-1487,-302,-41,436,164,-228
1,6227334,423,-1364,-489,-1487,-302,-41,436,164,-228
1,6227339,423,-1365,-493,-1487,-303,-38,438,168,-232
1,6227344,423,-1365,-493,-1487,-303,-38,438,168,-232
1,6227349,423,-1365,-493,-1487,-303,-38,438,168,-232
1,6227354,423,-1365,-493,-1487,-303,-38,438,168,-232
1,6227359,425,-1362,-492,-1486,-305,-41,438,168,-232
1,6227363,425,-1362,-492,-1486,-305,-41,438,168,-232
1,6227368,425,-1362,-492,-1486,-305,-41,438,168,-232
1,6227374,425,-1362,-492,-1486,-305,-41,438,168,-232
1,6227379,424,-1364,-491,-1492,-307,-42,438,168,-232
1,6227383,424,-1364,-491,-1492,-307,-42,438,168,-232
1,6227388,424,-1364,-491,-1492,-307,-42,438,168,-232
1,6227393,424,-1364,-491,-1492,-307,-42,438,168,-232
1,6227398,424,-1363,-492,-1487,-298,-43,438,168,-232
1,6227403,424,-1363,-492,-1487,-298,-43,438,168,-232
1,6227408,424,-1363,-492,-1487,-298,-43,438,168,-232
1,6227414,424,-1363,-492,-1487,-298,-43,438,168,-232
1,6227419,422,-1364,-496,-1485,-302,-37,438,168,-232
1,6227423,422,-1364,-496,-1485,-302,-37,438,168,-232
1,6227428,422,-1364,-496,-1485,-302,-37,438,168,-232
1,6227433,422,-1364,-496,-1485,-302,-37,438,168,-232
1,6227438,424,-1365,-490,-1489,-300,-30,438,168,-232
1,6227443,424,-1365,-490,-1489,-300,-30,438,168,-232
1,6227448,424,-1365,-490,-1489,-300,-30,438,168,-232
1,6227453,424,-1365,-490,-1489,-300,-30,438,168,-232
1,6227459,427,-1364,-493,-1477,-299,-40,438,166,-226
1,6227465,427,-1364,-493,-1477,-299,-40,438,166,-226
1,6227470,427,-1364,-493,-1477,-299,-40,438,166,-226
1,6227475,426,-1365,-491,-1481,-301,-38,438,166,-226
1,6227480,426,-1365,-491,-1481,-301,-38,438,166,-226
1,6227485,426,-1365,-491,-1481,-301,-38,438,166,-226
1,6227489,426,-1365,-491,-1481,-301,-38,438,166,-226
1,6227495,423,-1365,-491,-1490,-299,-43,438,166,-226
1,6227501,423,-1365,-491,-1490,-299,-43,438,166,-226
1,6227505,423,-1365,-491,-1490,-299,-43,438,166,-226
1,6227511,423,-1365,-491,-1490,-299,-43,438,166,-226
1,6227515,424,-1367,-495,-1483,-300,-41,438,166,-226
1,6227520,424,-1367,-495,-1483,-300,-41,438,166,-226
1,6227525,424,-1367,-495,-1483,-300,-41,438,166,-226
1,6227530,424,-1367,-495,-1483,-300,-41,438,166,-226
1,6227536,422,-1367,-495,-1493,-294,-35,438,166,-226
1,6227540,422,-1367,-495,-1493,-294,-35,438,166,-226
1,6227547,422,-1367,-495,-1493,-294,-35,438,166,-226
1,6227553,422,-1367,-495,-1493,-294,-35,438,166,-226
1,6227559,425,-1367,-493,-1488,-289,-34,438,166,-226
1,6227566,425,-1367,-493,-1488,-289,-34,438,166,-226
1,6227571,425,-1367,-493,-1488,-289,-34,438,166,-226
1,6227576,425,-1365,-493,-1485,-297,-36,439,163,-227
1,6227581,425,-1365,-493,-1485,-297,-36,439,163,-227
1,6227587,425,-1365,-493,-1485,-297,-36,439,163,-227
1,6227592,425,-1365,-493,-1485,-297,-36,439,163,-227
1,6227597,423,-1362,-488,-1486,-304,-41,439,163,-227
1,6227602,423,-1362,-488,-1486,-304,-41,439,163,-227
1,6227609,423,-1362,-488,-1486,-304,-41,439,163,-227
1,6227616,423,-1362,-489,-1479,-308,-36,439,163,-227
1,6227623,423,-1362,-489,-1479,-308,-36,439,163,-227
1,6227630,423,-1362,-489,-1479,-308,-36,439,163,-227
1,6227638,422,-1367,-489,-1490,-307,-37,439,163,-227
1,6227644,422,-1367,-489,-1490,-307,-37,439,163,-227
1,6227651,422,-1367,-489,-1490,-307,-37,439,163,-227
1,6227658,422,-1367,-494,-1484,-302,-46,439,163,-227
1,6227665,422,-1367,-494,-1484,-302,-46,439,163,-227
1,6227672,422,-1367,-494,-1484,-302,-46,439,163,-227
1,6227679,424,-1365,-490,-1488,-298,-40,439,163,-227
1,6227687,424,-1365,-490,-1488,-298,-40,439,163,-227
1,6227695,422,-1369,-494,-1490,-302,-42,439,163,-227
1,6227702,422,-1369,-494,-1490,-302,-42,439,163,-227
1,6227710,422,-1369,-494,-1490,-302,-42,439,163,-227
1,6227718,423,-1365,-490,-1478,-298,-32,438,162,-228
1,6227724,423,-1365,-490,-1478,-298,-32,438,162,-228
1,6227730,423,-1365,-490,-1478,-298,-32,438,162,-228
1,6227738,423,-1367,-489,-1479,-295,-38,438,162,-228
1,6227745,423,-1367,-489,-1479,-295,-38,438,162,-228
1,6227752,423,-1367,-489,-1479,-295,-38,438,162,-228
1,6227760,423,-1367,-489,-1479,-295,-38,438,162,-228
1,6227766,423,-1367,-489,-1479,-295,-38,438,162,-228
1,6227772,423,-1367,-489,-1479,-295,-38,438,162,-228
1,6227777,424,-1364,-495,-1484,-304,-43,438,162,-228
1,6227782,424,-1364,-495,-1484,-304,-43,438,162,-228
1,6227789,424,-1364,-495,-1484,-304,-43,438,162,-228
1,6227795,423,-1367,-492,-1486,-300,-41,438,162,-228
1,6227803,423,-1367,-492,-1486,-300,-41,438,162,-228
1,6227809,423,-1367,-492,-1486,-300,-41,438,162,-228
1,6227816,425,-1366,-493,-1483,-302,-41,438,162,-228
1,6227823,425,-1366,-493,-1483,-302,-41,438,162,-228
1,6227828,425,-1366,-493,-1483,-302,-41,438,162,-228
1,6227834,425,-1366,-493,-1483,-302,-41,438,162,-228
1,6227843,428,-1366,-494,-1482,-303,-44,432,170,-218
1,6227848,428,-1366,-494,-1482,-303,-44,432,170,-218
1,6227858,425,-1365,-492,-1485,-296,-39,432,170,-218
1,6227870,425,-1365,-492,-1485,-296,-39,432,170,-218
1,6227884,424,-1367,-493,-1483,-301,-42,432,170,-218
1,6227897,425,-1365,-494,-1486,-307,-35,432,170,-218
1,6227909,425,-1365,-494,-1486,-307,-35,432,170,-218
1,6227921,425,-1365,-492,-1477,-308,-36,432,170,-218
1,6227934,425,-1365,-492,-1477,-308,-36,432,170,-218
1,6227946,426,-1364,-491,-1492,-303,-33,432,170,-218
1,6227955,423,-1363,-484,-1490,-299,-31,439,163,-229
1,6227965,423,-1363,-484,-1490,-299,-31,439,163,-229
1,6227980,424,-1363,-492,-1486,-296,-44,439,163,-229
1,6227993,424,-1363,-492,-1486,-296,-44,439,163,-229
1,6228006,426,-1366,-494,-1483,-304,-41,439,163,-229
1,6228017,428,-1367,-495,-1482,-307,-34,439,163,-229
1,6228029,428,-1367,-495,-1482,-307,-34,439,163,-229
1,6228041,424,-1364,-492,-1485,-301,-37,439,163,-229
1,6228055,424,-1364,-492,-1485,-301,-37,439,163,-229
1,6228067,423,-1368,-494,-1483,-300,-42,439,163,-229
1,6228081,423,-1368,-492,-1482,-301,-37,440,166,-224
1,6228093,423,-1368,-492,-1482,-301,-37,440,166,-224
1,6228106,424,-1365,-494,-1492,-300,-37,440,166,-224
1,6228120,420,-1366,-490,-1490,-302,-39,440,166,-224
1,6228132,420,-1366,-490,-1490,-302,-39,440,166,-224
1,6228142,424,-1364,-493,-1484,-296,-48,440,166,-224
1,6228150,424,-1364,-493,-1484,-296,-48,440,166,-224
1,6228158,424,-1364,-493,-1482,-297,-46,440,166,-224
1,6228165,424,-1364,-493,-1482,-297,-46,440,166,-224
1,6228173,424,-1364,-493,-1482,-297,-46,440,166,-224
1,6228182,422,-1365,-492,-1484,-301,-39,440,166,-224
1,6228190,422,-1365,-492,-1484,-301,-39,440,166,-224
1,6228198,425,-1363,-494,-1480,-303,-30,440,166,-224
1,6228205,425,-1363,-494,-1480,-303,-30,440,166,-224
1,6228213,425,-1363,-494,-1480,-303,-30,440,166,-224
1,6228221,425,-1365,-490,-1482,-314,-38,437,163,-219
1,6228230,425,-1365,-490,-1482,-314,-38,437,163,-219
1,6228238,423,-1366,-493,-1487,-304,-36,437,163,-219
1,6228247,423,-1366,-493,-1487,-304,-36,437,163,-219
1,6228256,423,-1365,-492,-1488,-305,-43,437,163,-219
1,6228265,423,-1365,-492,-1488,-305,-43,437,163,-219
1,6228275,423,-1365,-492,-1488,-305,-43,437,163,-219
1,6228284,425,-1366,-490,-1485,-303,-42,437,163,-219
1,6228298,422,-1365,-493,-1487,-299,-45,437,163,-219
1,6228311,422,-1365,-493,-1487,-299,-45,437,163,-219
1,6228324,421,-1369,-492,-1483,-297,-42,437,163,-219
1,6228337,424,-1369,-484,-1480,-303,-37,437,163,-223
1,6228350,424,-1369,-484,-1480,-303,-37,437,163,-223
1,6228361,422,-1367,-484,-1479,-306,-43,437,163,-223
1,6228372,422,-1367,-484,-1479,-306,-43,437,163,-223
1,6228384,425,-1365,-490,-1488,-303,-42,437,163,-223
1,6228398,425,-1365,-492,-1489,-303,-31,437,163,-223
1,6228410,425,-1365,-492,-1489,-303,-31,437,163,-223
1,6228422,425,-1365,-492,-1489,-303,-31,437,163,-223
1,6228435,425,-1367,-489,-1485,-303,-38,437,163,-223
1,6228449,425,-1367,-489,-1485,-303,-38,437,163,-223
1,6228461,423,-1364,-486,-1478,-309,-43,438,162,-228
1,6228470,423,-1364,-486,-1478,-309,-43,438,162,-228
1,6228483,424,-1364,-486,-1486,-300,-38,438,162,-228
1,6228495,426,-1363,-494,-1488,-304,-44,438,162,-228
1,6228504,426,-1363,-494,-1488,-304,-44,438,162,-228
1,6228512,426,-1363,-494,-1488,-304,-44,438,162,-228
1,6228520,425,-1364,-492,-1492,-306,-40,438,162,-228
1,6228529,425,-1364,-492,-1492,-306,-40,438,162,-228
1,6228543,425,-1366,-490,-1491,-302,-35,438,162,-228
1,6228556,423,-1365,-496,-1481,-304,-38,438,162,-228
1,6228569,423,-1365,-496,-1481,-304,-38,438,162,-228
1,6228578,426,-1367,-492,-1481,-303,-45,437,173,-233
1,6228585,426,-1367,-492,-1481,-303,-45,437,173,-233
1,6228593,426,-1367,-492,-1481,-303,-45,437,173,-233
1,6228601,424,-1362,-494,-1483,-302,-40,437,173,-233
1,6228615,424,-1362,-494,-1483,-302,-40,437,173,-233
1,6228627,423,-1363,-489,-1484,-298,-37,437,173,-233
1,6228638,422,-1366,-499,-1480,-299,-35,437,173,-233
1,6228652,422,-1366,-499,-1480,-299,-35,437,173,-233
1,6228664,422,-1367,-493,-1481,-303,-42,437,173,-233
1,6228674,422,-1367,-493,-1481,-303,-42,437,173,-233
1,6228685,423,-1364,-490,-1484,-305,-35,437,173,-233
1,6228698,424,-1364,-491,-1489,-302,-36,437,173,-233
1,6228710,424,-1364,-491,-1489,-302,-36,437,173,-233
1,6228720,424,-1364,-488,-1491,-299,-40,445,167,-229
1,6228732,424,-1364,-488,-1491,-299,-40,445,167,-229
1,6228744,425,-1366,-486,-1485,-307,-43,445,167,-229
1,6228756,425,-1366,-491,-1487,-309,-40,445,167,-229
1,6228769,425,-1366,-491,-1487,-309,-40,445,167,-229
1,6228783,424,-1366,-490,-1485,-301,-35,445,167,-229
1,6228795,424,-1367,-491,-1482,-307,-40,445,167,-229
1,6228808,424,-1367,-491,-1482,-307,-40,445,167,-229
1,6228822,423,-1362,-490,-1486,-304,-43,445,167,-229
1,6228836,421,-1367,-486,-1480,-304,-39,445,167,-227
1,6228847,421,-1367,-486,-1480,-304,-39,445,167,-227
1,6228859,425,-1365,-491,-1487,-299,-32,445,167,-227
1,6228868,425,-1365,-491,-1487,-299,-32,445,167,-227
1,6228875,425,-1365,-491,-1487,-299,-32,445,167,-227
1,6228882,425,-1363,-490,-1493,-299,-36,445,167,-227
1,6228889,425,-1363,-490,-1493,-299,-36,445,167,-227
1,6228896,424,-1363,-488,-1488,-303,-42,445,167,-227
1,6228904,424,-1363,-488,-1488,-303,-42,445,167,-227
1,6228912,424,-1363,-488,-1488,-303,-42,445,167,-227
1,6228918,425,-1367,-493,-1491,-304,-36,445,167,-227
1,6228926,425,-1367,-493,-1491,-304,-36,445,167,-227
1,6228934,425,-1367,-493,-1491,-304,-36,445,167,-227
1,6228941,423,-1365,-490,-1482,-302,-39,445,167,-227
1,6228948,423,-1365,-490,-1482,-302,-39,445,167,-227
1,6228956,424,-1363,-486,-1484,-299,-36,438,168,-226
1,6228963,424,-1363,-486,-1484,-299,-36,438,168,-226
1,6228970,424,-1363,-486,-1484,-299,-36,438,168,-226
1,6228978,424,-1364,-489,-1494,-298,-38,438,168,-226
1,6228985,424,-1364,-489,-1494,-298,-38,438,168,-226
1,6228994,424,-1364,-489,-1494,-298,-38,438,168,-226
1,6229002,425,-1369,-492,-1488,-306,-39,438,168,-226
1,6229009,425,-1369,-492,-1488,-306,-39,438,168,-226
1,6229016,426,-1366,-494,-1483,-305,-39,438,168,-226
1,6229023,426,-1366,-494,-1483,-305,-39,438,168,-226
1,6229030,426,-1366,-494,-1483,-305,-39,438,168,-226
1,6229037,424,-1367,-494,-1488,-304,-38,438,168,-226
1,6229046,424,-1367,-494,-1488,-304,-38,438,168,-226
1,6229053,424,-1367,-494,-1488,-304,-38,438,168,-226
1,6229061,424,-1365,-493,-1488,-304,-37,438,168,-226
1,6229067,424,-1365,-493,-1488,-304,-37,438,168,-226
1,6229072,424,-1365,-493,-1488,-304,-37,438,168,-226
1,6229080,425,-1365,-490,-1487,-300,-34,439,169,-231
1,6229088,425,-1365,-490,-1487,-300,-34,439,169,-231
1,6229095,425,-1365,-490,-1487,-300,-34,439,169,-231
1,6229102,429,-1366,-487,-1493,-296,-38,439,169,-231
1,6229110,429,-1366,-487,-1493,-296,-38,439,169,-231
1,6229118,427,-1365,-491,-1489,-299,-37,439,169,-231
1,6229124,427,-1365,-491,-1489,-299,-37,439,169,-231
1,6229130,427,-1365,-491,-1489,-299,-37,439,169,-231
1,6229137,424,-1368,-486,-1484,-299,-35,439,169,-231
1,6229142,424,-1368,-486,-1484,-299,-35,439,169,-231
1,6229147,424,-1368,-486,-1484,-299,-35,439,169,-231
1,6229152,424,-1368,-486,-1484,-299,-35,439,169,-231
1,6229158,425,-1368,-496,-1488,-302,-33,439,169,-231
1,6229164,425,-1368,-496,-1488,-302,-33,439,169,-231
1,6229169,425,-1368,-496,-1488,-302,-33,439,169,-231
1,6229174,425,-1368,-496,-1488,-302,-33,439,169,-231
1,6229180,424,-1367,-492,-1492,-303,-35,439,169,-231
1,6229187,424,-1367,-492,-1492,-303,-35,439,169,-231
1,6229193,424,-1367,-492,-1492,-303,-35,439,169,-231
1,6229200,425,-1365,-491,-1478,-303,-39,442,168,-236
1,6229207,425,-1365,-491,-1478,-303,-39,442,168,-236
1,6229214,425,-1365,-491,-1478,-303,-39,442,168,-236
1,6229221,425,-1364,-492,-1488,-302,-39,442,168,-236
1,6229229,425,-1364,-492,-1488,-302,-39,442,168,-236
1,6229236,424,-1365,-492,-1485,-296,-35,442,168,-236
1,6229243,424,-1365,-492,-1485,-296,-35,442,168,-236
1,6229249,424,-1365,-492,-1485,-296,-35,442,168,-236
1,6229254,424,-1365,-492,-1485,-296,-35,442,168,-236
1,6229259,423,-1365,-490,-1494,-303,-40,442,168,-236
1,6229265,423,-1365,-490,-1494,-303,-40,442,168,-236
1,6229271,423,-1365,-490,-1494,-303,-40,442,168,-236
1,6229279,422,-1367,-488,-1483,-306,-43,442,168,-236
1,6229286,422,-1367,-488,-1483,-306,-43,442,168,-236
1,6229294,422,-1367,-488,-1483,-306,-43,442,168,-236
1,6229301,424,-1365,-495,-1485,-301,-42,442,168,-236
1,6229307,424,-1365,-495,-1485,-301,-42,442,168,-236
1,6229314,424,-1365,-495,-1485,-301,-42,442,168,-236
1,6229321,424,-1367,-493,-1478,-297,-36,442,168,-236
1,6229328,424,-1367,-493,-1478,-297,-36,442,168,-236
1,6229335,424,-1367,-493,-1478,-297,-36,442,168,-236
1,6229341,422,-1362,-488,-1481,-298,-44,441,171,-225
1,6229348,422,-1362,-488,-1481,-298,-44,441,171,-225
1,6229355,422,-1362,-488,-1481,-298,-44,441,171,-225
1,6229362,422,-1364,-490,-1487,-299,-35,441,171,-225
1,6229369,422,-1364,-490,-1487,-299,-35,441,171,-225
1,6229376,422,-1364,-490,-1487,-299,-35,441,171,-225
1,6229383,420,-1365,-492,-1485,-297,-45,441,171,-225
1,6229389,420,-1365,-492,-1485,-297,-45,441,171,-225
1,6229397,421,-1367,-493,-1488,-302,-45,441,171,-225
1,6229404,421,-1367,-493,-1488,-302,-45,441,171,-225
1,6229411,421,-1367,-493,-1488,-302,-45,441,171,-225
1,6229419,421,-1366,-492,-1485,-301,-36,441,171,-225
1,6229426,421,-1366,-492,-1485,-301,-36,441,171,-225
1,6229433,421,-1366,-492,-1485,-301,-36,441,171,-225
1,6229439,421,-1366,-491,-1484,-299,-38,441,171,-225
1,6229447,421,-1366,-491,-1484,-299,-38,441,171,-225
1,6229454,421,-1366,-491,-1484,-299,-38,441,171,-225
1,6229462,422,-1362,-488,-1489,-300,-39,439,167,-229
1,6229469,422,-1362,-488,-1489,-300,-39,439,167,-229
1,6229474,422,-1362,-488,-1489,-300,-39,439,167,-229
1,6229481,423,-1363,-491,-1476,-301,-32,439,167,-229
1,6229487,423,-1363,-491,-1476,-301,-32,439,167,-229
1,6229494,423,-1363,-491,-1476,-301,-32,439,167,-229
1,6229501,423,-1363,-491,-1476,-301,-32,439,167,-229
1,6229509,423,-1363,-491,-1476,-301,-32,439,167,-229
1,6229516,421,-1363,-487,-1486,-306,-42,439,167,-229
1,6229523,421,-1363,-487,-1486,-306,-42,439,167,-229
1,6229530,421,-1363,-487,-1486,-306,-42,439,167,-229
1,6229537,422,-1366,-491,-1485,-303,-37,439,167,-229
1,6229543,422,-1366,-491,-1485,-303,-37,439,167,-229
1,6229550,422,-1366,-491,-1485,-303,-37,439,167,-229
1,6229556,425,-1364,-489,-1482,-308,-39,439,167,-229
1,6229564,425,-1364,-489,-1482,-308,-39,439,167,-229
1,6229571,425,-1364,-489,-1482,-308,-39,439,167,-229
1,6229576,425,-1363,-487,-1487,-302,-37,435,169,-229
1,6229581,425,-1363,-487,-1487,-302,-37,435,169,-229
1,6229586,425,-1363,-487,-1487,-302,-37,435,169,-229
1,6229592,425,-1363,-487,-1487,-302,-37,435,169,-229
1,6229597,423,-1364,-491,-1485,-303,-41,435,169,-229
1,6229602,423,-1364,-491,-1485,-303,-41,435,169,-229
1,6229610,423,-1364,-491,-1485,-303,-41,435,169,-229
1,6229617,421,-1368,-493,-1486,-302,-44,435,169,-229
1,6229625,421,-1368,-493,-1486,-302,-44,435,169,-229
1,6229632,421,-1368,-493,-1486,-302,-44,435,169,-229
1,6229639,422,-1363,-487,-1479,-302,-38,435,169,-229
1,6229647,422,-1363,-487,-1479,-302,-38,435,169,-229
1,6229655,422,-1363,-487,-1479,-302,-38,435,169,-229
1,6229662,424,-1362,-486,-1477,-297,-38,435,169,-229
1,6229670,424,-1362,-486,-1477,-297,-38,435,169,-229
1,6229678,425,-1365,-493,-1482,-303,-36,435,169,-229
1,6229685,425,-1365,-493,-1482,-303,-36,435,169,-229
1,6229692,425,-1365,-493,-1482,-303,-36,435,169,-229
1,6229699,424,-1361,-490,-1476,-304,-32,433,171,-223
1,6229705,424,-1361,-490,-1476,-304,-32,433,171,-223
1,6229713,424,-1361,-490,-1476,-304,-32,433,171,-223
1,6229721,423,-1362,-491,-1475,-293,-36,433,171,-223
1,6229728,423,-1362,-491,-1475,-293,-36,433,171,-223
1,6229735,423,-1362,-491,-1475,-293,-36,433,171,-223
1,6229742,421,-1367,-489,-1480,-298,-38,433,171,-223
1,6229749,421,-1367,-489,-1480,-298,-38,433,171,-223
1,6229756,421,-1366,-491,-1478,-302,-36,433,171,-223
1,6229764,421,-1366,-491,-1478,-302,-36,433,171,-223
1,6229771,421,-1366,-491,-1478,-302,-36,433,171,-223
1,6229777,421,-1368,-498,-1485,-297,-35,433,171,-223
1,6229785,421,-1368,-498,-1485,-297,-35,433,171,-223
1,6229792,421,-1368,-498,-1485,-297,-35,433,171,-223
1,6229799,419,-1366,-491,-1482,-301,-39,433,171,-223
1,6229806,419,-1366,-491,-1482,-301,-39,433,171,-223
1,6229813,419,-1366,-491,-1482,-301,-39,433,171,-223
1,6229820,421,-1365,-490,-1485,-306,-40,433,171,-223
1,6229825,421,-1365,-490,-1485,-306,-40,433,171,-223
1,6229833,421,-1365,-490,-1485,-306,-40,433,171,-223
1,6229840,426,-1364,-486,-1490,-305,-41,439,161,-223
1,6229847,426,-1364,-486,-1490,-305,-41,439,161,-223
1,6229854,426,-1364,-486,-1490,-305,-41,439,161,-223
1,6229861,424,-1364,-490,-1485,-308,-39,439,161,-223
1,6229869,424,-1364,-490,-1485,-308,-39,439,161,-223
1,6229877,424,-1368,-492,-1485,-302,-38,439,161,-223
1,6229890,424,-1368,-492,-1485,-302,-38,439,161,-223
1,6229903,423,-1368,-494,-1483,-303,-39,439,161,-223
1,6229915,423,-1368,-494,-1483,-303,-39,439,161,-223
1,6229925,426,-1365,-496,-1488,-304,-34,439,161,-223
1,6229938,424,-1363,-491,-1491,-305,-39,439,161,-223
1,6229952,424,-1363,-491,-1491,-305,-39,439,161,-223
1,6229963,423,-1367,-485,-1486,-304,-36,429,159,-227
1,6229977,423,-1368,-486,-1495,-305,-38,429,159,-227
1,6229988,423,-1368,-486,-1495,-305,-38,429,159,-227
1,6229997,422,-1365,-493,-1485,-307,-35,429,159,-227
1,6230004,422,-1365,-493,-1485,-307,-35,429,159,-227
1,6230012,422,-1365,-493,-1485,-307,-35,429,159,-227
1,6230026,422,-1365,-492,-1483,-305,-37,429,159,-227
1,6230038,423,-1367,-494,-1484,-305,-44,429,159,-227
1,6230052,423,-1367,-494,-1484,-305,-44,429,159,-227
1,6230065,423,-1365,-489,-1492,-303,-42,429,159,-227
1,6230077,422,-1368,-488,-1487,-303,-35,440,166,-220
1,6230090,422,-1368,-488,-1487,-303,-35,440,166,-220
1,6230103,422,-1364,-489,-1484,-300,-37,440,166,-220
1,6230116,426,-1362,-491,-1479,-303,-39,440,166,-220
1,6230128,426,-1362,-491,-1479,-303,-39,440,166,-220
1,6230139,426,-1363,-494,-1487,-304,-40,440,166,-220
1,6230148,426,-1363,-494,-1487,-304,-40,440,166,-220
1,6230157,422,-1364,-491,-1488,-301,-38,440,166,-220
1,6230164,422,-1364,-491,-1488,-301,-38,440,166,-220
1,6230172,422,-1364,-491,-1488,-301,-38,440,166,-220
1,6230180,425,-1363,-490,-1488,-296,-36,440,166,-220
1,6230189,425,-1363,-490,-1488,-296,-36,440,166,-220
1,6230197,423,-1366,-492,-1482,-301,-43,436,160,-228
1,6230205,423,-1366,-492,-1482,-301,-43,436,160,-228
1,6230213,423,-1366,-492,-1482,-301,-43,436,160,-228
1,6230221,423,-1364,-492,-1487,-308,-43,436,160,-228
1,6230230,423,-1364,-492,-1487,-308,-43,436,160,-228
1,6230242,422,-1363,-493,-1485,-302,-38,436,160,-228
1,6230254,422,-1363,-493,-1485,-302,-38,436,160,-228
1,6230266,421,-1365,-490,-1484,-304,-41,436,160,-228
1,6230279,423,-1365,-496,-1487,-300,-39,436,160,-228
1,6230293,423,-1365,-496,-1487,-300,-39,436,160,-228
1,6230305,423,-1364,-489,-1488,-300,-40,436,160,-228
1,6230315,423,-1364,-489,-1488,-300,-40,436,160,-228
1,6230326,426,-1364,-490,-1490,-305,-41,436,160,-228
1,6230340,425,-1364,-488,-1486,-296,-35,439,171,-223
1,6230353,425,-1364,-488,-1486,-296,-35,439,171,-223
1,6230363,425,-1364,-488,-1483,-301,-44,439,171,-223
1,6230376,426,-1366,-489,-1480,-304,-38,439,171,-223
1,6230385,426,-1366,-489,-1480,-304,-38,439,171,-223
1,6230394,426,-1366,-489,-1480,-304,-38,439,171,-223
1,6230409,420,-1363,-492,-1484,-305,-34,439,171,-223
1,6230421,425,-1367,-493,-1480,-303,-37,439,171,-223
1,6230433,425,-1367,-493,-1480,-303,-37,439,171,-223
1,6230448,424,-1366,-489,-1478,-305,-40,439,171,-223
1,6230460,425,-1366,-486,-1483,-306,-44,431,161,-223
1,6230472,425,-1366,-486,-1483,-306,-44,431,161,-223
1,6230486,425,-1362,-492,-1482,-305,-40,431,161,-223
1,6230497,423,-1364,-491,-1483,-301,-40,431,161,-223
1,6230510,423,-1364,-491,-1483,-301,-40,431,161,-223
1,6230522,423,-1366,-490,-1486,-303,-43,431,161,-223
1,6230536,423,-1366,-490,-1486,-303,-43,431,161,-223
1,6230548,425,-1367,-484,-1487,-304,-41,431,161,-223
1,6230561,426,-1364,-487,-1483,-300,-40,431,161,-223
1,6230574,426,-1364,-487,-1483,-300,-40,431,161,-223
1,6230584,425,-1364,-487,-1483,-299,-39,443,169,-223
1,6230592,425,-1364,-487,-1483,-299,-39,443,169,-223
1,6230599,422,-1365,-489,-1482,-305,-37,443,169,-223
1,6230608,422,-1365,-489,-1482,-305,-37,443,169,-223
1,6230619,423,-1365,-490,-1480,-305,-42,443,169,-223
1,6230627,423,-1365,-490,-1480,-305,-42,443,169,-223
1,6230637,423,-1367,-495,-1481,-299,-43,443,169,-223
1,6230647,423,-1367,-495,-1481,-299,-43,443,169,-223
1,6230657,421,-1366,-493,-1487,-306,-34,443,169,-223
1,6230666,421,-1366,-493,-1487,-306,-34,443,169,-223
1,6230678,427,-1364,-490,-1479,-303,-39,443,169,-223
1,6230690,427,-1364,-490,-1479,-303,-39,443,169,-223
1,6230703,422,-1364,-489,-1484,-301,-40,446,158,-232
1,6230716,422,-1364,-489,-1484,-301,-40,446,158,-232
1,6230728,424,-1364,-487,-1487,-305,-42,446,158,-232
1,6230740,420,-1366,-488,-1486,-313,-40,446,158,-232
1,6230750,420,-1366,-488,-1486,-313,-40,446,158,-232
1,6230757,424,-1364,-495,-1487,-307,-41,446,158,-232
1,6230765,424,-1364,-495,-1487,-307,-41,446,158,-232
1,6230774,424,-1364,-495,-1487,-307,-41,446,158,-232
1,6230782,424,-1363,-490,-1486,-303,-38,446,158,-232
1,6230795,424,-1363,-490,-1486,-303,-38,446,158,-232
1,6230807,422,-1364,-493,-1479,-301,-44,446,158,-232
1,6230819,424,-1365,-490,-1490,-305,-44,446,158,-232
1,6230831,424,-1365,-490,-1490,-305,-44,446,158,-232
1,6230845,425,-1364,-486,-1492,-300,-41,446,158,-232
1,6230856,424,-1366,-491,-1485,-308,-39,446,158,-232
1,6230870,424,-1366,-491,-1485,-308,-39,446,158,-232
1,6230879,421,-1366,-489,-1486,-298,-37,446,158,-232
1,6230886,421,-1366,-489,-1486,-298,-37,446,158,-232
1,6230892,421,-1366,-489,-1486,-298,-37,446,158,-232
1,6230898,424,-1367,-492,-1484,-300,-30,446,158,-232
1,6230905,424,-1367,-492,-1484,-300,-30,446,158,-232
1,6230912,424,-1367,-492,-1484,-300,-30,446,158,-232
1,6230919,426,-1365,-493,-1487,-303,-45,446,158,-232
1,6230926,426,-1365,-493,-1487,-303,-45,446,158,-232
1,6230933,426,-1365,-493,-1487,-303,-45,446,158,-232
1,6230939,423,-1364,-490,-1485,-307,-40,446,158,-232
1,6230947,423,-1364,-490,-1485,-307,-40,446,158,-232
1,6230953,423,-1364,-490,-1485,-307,-40,446,158,-232
1,6230960,427,-1365,-487,-1489,-305,-41,442,166,-230
1,6230967,427,-1365,-487,-1489,-305,-41,442,166,-230
1,6230974,427,-1365,-487,-1489,-305,-41,442,166,-230
1,6230980,427,-1365,-487,-1489,-305,-41,442,166,-230
1,6230987,427,-1365,-487,-1489,-305,-41,442,166,-230
1,6230994,427,-1365,-487,-1489,-305,-41,442,166,-230
1,6231001,423,-1366,-497,-1487,-304,-37,442,166,-230
1,6231008,423,-1366,-497,-1487,-304,-37,442,166,-230
1,6231014,423,-1366,-497,-1487,-304,-37,442,166,-230
1,6231021,423,-1363,-490,-1484,-305,-39,442,166,-230
1,6231029,423,-1363,-490,-1484,-305,-39,442,166,-230
1,6231037,422,-1366,-491,-1483,-307,-41,442,166,-230
1,6231045,422,-1366,-491,-1483,-307,-41,442,166,-230
1,6231051,422,-1366,-491,-1483,-307,-41,442,166,-230
1,6231058,422,-1367,-493,-1476,-302,-38,442,166,-230
1,6231064,422,-1367,-493,-1476,-302,-38,442,166,-230
1,6231072,422,-1367,-493,-1476,-302,-38,442,166,-230
1,6231079,424,-1365,-484,-1487,-302,-35,445,165,-229
1,6231088,424,-1365,-484,-1487,-302,-35,445,165,-229
1,6231094,424,-1365,-484,-1487,-302,-35,445,165,-229
1,6231101,426,-1364,-491,-1484,-298,-42,445,165,-229
1,6231109,426,-1364,-491,-1484,-298,-42,445,165,-229
1,6231114,426,-1364,-491,-1484,-298,-42,445,165,-229
1,6231122,422,-1365,-492,-1486,-303,-40,445,165,-229
1,6231130,422,-1365,-492,-1486,-303,-40,445,165,-229
1,6231137,423,-1364,-489,-1481,-304,-45,445,165,-229
1,6231142,423,-1364,-489,-1481,-304,-45,445,165,-229
1,6231147,423,-1364,-489,-1481,-304,-45,445,165,-229
1,6231153,423,-1364,-489,-1481,-304,-45,445,165,-229
1,6231158,421,-1361,-489,-1483,-306,-40,445,165,-229
1,6231163,421,-1361,-489,-1483,-306,-40,445,165,-229
1,6231169,421,-1361,-489,-1483,-306,-40,445,165,-229
1,6231174,421,-1361,-489,-1483,-306,-40,445,165,-229
1,6231181,425,-1364,-489,-1480,-297,-41,445,165,-229
1,6231189,425,-1364,-489,-1480,-297,-41,445,165,-229
1,6231197,424,-1364,-486,-1486,-297,-39,434,154,-228
1,6231204,424,-1364,-486,-1486,-297,-39,434,154,-228
1,6231212,424,-1364,-486,-1486,-297,-39,434,154,-228
1,6231219,424,-1365,-489,-1488,-296,-38,434,154,-228
1,6231226,424,-1365,-489,-1488,-296,-38,434,154,-228
1,6231231,424,-1365,-489,-1488,-296,-38,434,154,-228
1,6231239,422,-1365,-489,-1495,-304,-42,434,154,-228
1,6231247,422,-1365,-489,-1495,-304,-42,434,154,-228
1,6231255,422,-1365,-489,-1495,-304,-42,434,154,-228
1,6231262,425,-1365,-491,-1491,-304,-46,434,154,-228
1,6231269,425,-1365,-491,-1491,-304,-46,434,154,-228
1,6231276,424,-1365,-489,-1490,-298,-43,434,154,-228
1,6231281,424,-1365,-489,-1490,-298,-43,434,154,-228
1,6231290,424,-1365,-489,-1490,-298,-43,434,154,-228
1,6231297,424,-1363,-491,-1485,-305,-32,434,154,-228
1,6231304,424,-1363,-491,-1485,-305,-32,434,154,-228
1,6231311,424,-1363,-491,-1485,-305,-32,434,154,-228
1,6231318,421,-1365,-492,-1484,-304,-32,443,165,-231
1,6231325,421,-1365,-492,-1484,-304,-32,443,165,-231
1,6231331,421,-1365,-492,-1484,-304,-32,443,165,-231
1,6231340,422,-1366,-487,-1478,-308,-48,443,165,-231
1,6231346,422,-1366,-487,-1478,-308,-48,443,165,-231
1,6231352,422,-1366,-487,-1478,-308,-48,443,165,-231
1,6231359,426,-1364,-497,-1483,-312,-45,443,165,-231
1,6231367,426,-1364,-497,-1483,-312,-45,443,165,-231
1,6231372,426,-1364,-497,-1483,-312,-45,443,165,-231
1,6231377,422,-1365,-496,-1483,-311,-39,443,165,-231
1,6231383,422,-1365,-496,-1483,-311,-39,443,165,-231
1,6231390,422,-1365,-496,-1483,-311,-39,443,165,-231
1,6231396,423,-1365,-493,-1488,-299,-43,443,165,-231
1,6231403,423,-1365,-493,-1488,-299,-43,443,165,-231
1,6231411,423,-1365,-493,-1488,-299,-43,443,165,-231
1,6231417,424,-1368,-495,-1488,-294,-34,443,165,-231
1,6231425,424,-1368,-495,-1488,-294,-34,443,165,-231
1,6231432,424,-1368,-495,-1488,-294,-34,443,165,-231
1,6231439,424,-1365,-490,-1488,-305,-38,443,165,-231
1,6231444,424,-1365,-490,-1488,-305,-38,443,165,-231
1,6231449,424,-1365,-490,-1488,-305,-38,443,165,-231
1,6231457,424,-1367,-490,-1484,-302,-38,433,163,-225
1,6231464,424,-1367,-490,-1484,-302,-38,433,163,-225
1,6231472,424,-1367,-490,-1484,-302,-38,433,163,-225
1,6231478,422,-1364,-490,-1485,-296,-41,433,163,-225
1,6231483,422,-1364,-490,-1485,-296,-41,433,163,-225
1,6231491,422,-1364,-490,-1485,-296,-41,433,163,-225
1,6231499,426,-1365,-490,-1491,-306,-41,433,163,-225
1,6231507,426,-1365,-490,-1491,-306,-41,433,163,-225
1,6231515,426,-1365,-490,-1491,-306,-41,433,163,-225
1,6231522,425,-1365,-493,-1490,-308,-42,433,163,-225
1,6231528,425,-1365,-493,-1490,-308,-42,433,163,-225
1,6231533,425,-1365,-493,-1490,-308,-42,433,163,-225
1,6231540,424,-1363,-488,-1480,-304,-45,433,163,-225
1,6231548,424,-1363,-488,-1480,-304,-45,433,163,-225
1,6231556,425,-1366,-488,-1483,-299,-33,433,163,-225
1,6231564,425,-1366,-488,-1483,-299,-33,433,163,-225
1,6231569,425,-1366,-488,-1483,-299,-33,433,163,-225
1,6231575,425,-1366,-488,-1483,-299,-33,433,163,-225
1,6231580,424,-1366,-490,-1487,-301,-40,436,160,-226
1,6231585,424,-1366,-490,-1487,-301,-40,436,160,-226
1,6231590,424,-1366,-490,-1487,-301,-40,436,160,-226
1,6231596,424,-1366,-490,-1487,-301,-40,436,160,-226
1,6231602,426,-1364,-492,-1487,-302,-37,436,160,-226
1,6231608,426,-1364,-492,-1487,-302,-37,436,160,-226
1,6231616,426,-1364,-492,-1487,-302,-37,436,160,-226
1,6231624,424,-1362,-493,-1483,-305,-40,436,160,-226
1,6231631,424,-1362,-493,-1483,-305,-40,436,160,-226
1,6231638,423,-1363,-496,-1487,-305,-39,436,160,-226
1,6231644,423,-1363,-496,-1487,-305,-39,436,160,-226
1,6231652,423,-1363,-496,-1487,-305,-39,436,160,-226
1,6231659,426,-1365,-494,-1486,-303,-38,436,160,-226
1,6231666,426,-1365,-494,-1486,-303,-38,436,160,-226
1,6231674,426,-1365,-494,-1486,-303,-38,436,160,-226
1,6231681,424,-1369,-494,-1488,-301,-45,436,160,-226
1,6231688,424,-1369,-494,-1488,-301,-45,436,160,-226
1,6231694,424,-1369,-494,-1488,-301,-45,436,160,-226
1,6231700,423,-1363,-488,-1487,-308,-42,431,161,-225
1,6231708,423,-1363,-488,-1487,-308,-42,431,161,-225
1,6231716,425,-1364,-490,-1483,-308,-39,431,161,-225
1,6231725,425,-1364,-490,-1483,-308,-39,431,161,-225
1,6231733,425,-1364,-490,-1483,-308,-39,431,161,-225
1,6231740,424,-1366,-492,-1483,-312,-39,431,161,-225
1,6231747,424,-1366,-492,-1483,-312,-39,431,161,-225
1,6231754,424,-1366,-492,-1483,-312,-39,431,161,-225
1,6231762,426,-1366,-493,-1496,-310,-41,431,161,-225
1,6231768,426,-1366,-493,-1496,-310,-41,431,161,-225
1,6231776,426,-1366,-493,-1496,-310,-41,431,161,-225
1,6231784,422,-1365,-491,-1492,-309,-43,431,161,-225
1,6231790,422,-1365,-491,-1492,-309,-43,431,161,-225
1,6231796,424,-1363,-490,-1486,-309,-40,431,161,-225
1,6231803,424,-1363,-490,-1486,-309,-40,431,161,-225
1,6231811,424,-1363,-490,-1486,-309,-40,431,161,-225
1,6231818,424,-1363,-494,-1481,-303,-38,443,169,-229
1,6231825,424,-1363,-494,-1481,-303,-38,443,169,-229
1,6231832,424,-1363,-494,-1481,-303,-38,443,169,-229
1,6231838,425,-1364,-490,-1484,-302,-40,443,169,-229
1,6231845,425,-1364,-490,-1484,-302,-40,443,169,-229
1,6231854,425,-1364,-490,-1484,-302,-40,443,169,-229
1,6231859,423,-1366,-496,-1491,-309,-47,443,169,-229
1,6231864,423,-1366,-496,-1491,-309,-47,443,169,-229
1,6231869,423,-1366,-496,-1491,-309,-47,443,169,-229
1,6231876,425,-1366,-489,-1485,-299,-42,443,169,-229
1,6231883,425,-1366,-489,-1485,-299,-42,443,169,-229
1,6231896,425,-1366,-489,-1485,-299,-42,443,169,-229
1,6231908,423,-1365,-494,-1486,-303,-39,443,169,-229
1,6231919,421,-1366,-488,-1485,-304,-38,443,169,-229
1,6231933,421,-1366,-488,-1485,-304,-38,443,169,-229
1,6231946,424,-1365,-490,-1488,-300,-39,443,169,-229
1,6231954,424,-1365,-490,-1488,-300,-39,443,169,-229
1,6231966,422,-1366,-492,-1482,-302,-38,433,167,-221
1,6231981,422,-1365,-491,-1488,-298,-37,433,167,-221
1,6231994,422,-1365,-491,-1488,-298,-37,433,167,-221
1,6232004,426,-1363,-490,-1483,-298,-35,433,167,-221
1,6232017,422,-1365,-491,-1477,-298,-34,433,167,-221
1,6232032,422,-1365,-491,-1477,-298,-34,433,167,-221
1,6232044,422,-1367,-489,-1487,-308,-41,433,167,-221
1,6232054,422,-1367,-489,-1487,-308,-41,433,167,-221
1,6232067,422,-1363,-494,-1484,-301,-42,433,167,-221
1,6232081,422,-1363,-491,-1480,-296,-43,432,168,-230
1,6232093,422,-1363,-491,-1480,-296,-43,432,168,-230
1,6232104,424,-1367,-487,-1484,-304,-40,432,168,-230
1,6232118,424,-1367,-487,-1484,-304,-40,432,168,-230
1,6232131,424,-1367,-487,-1484,-304,-40,432,168,-230
1,6232139,423,-1365,-491,-1484,-297,-35,432,168,-230
1,6232147,423,-1365,-491,-1484,-297,-35,432,168,-230
1,6232156,423,-1365,-491,-1484,-297,-35,432,168,-230
1,6232164,424,-1366,-488,-1489,-306,-36,432,168,-230
1,6232172,424,-1366,-488,-1489,-306,-36,432,168,-230
1,6232180,424,-1362,-490,-1489,-303,-38,432,168,-230
1,6232189,424,-1362,-490,-1489,-303,-38,432,168,-230
1,6232197,424,-1364,-487,-1489,-310,-37,438,162,-226
1,6232205,424,-1364,-487,-1489,-310,-37,438,162,-226
1,6232213,424,-1364,-487,-1489,-310,-37,438,162,-226
1,6232221,423,-1364,-487,-1484,-313,-35,438,162,-226
1,6232229,423,-1364,-487,-1484,-313,-35,438,162,-226
1,6232239,422,-1364,-492,-1485,-307,-44,438,162,-226
1,6232247,422,-1364,-492,-1485,-307,-44,438,162,-226
1,6232255,422,-1364,-492,-1485,-307,-44,438,162,-226
1,6232265,422,-1363,-494,-1484,-299,-41,438,162,-226
1,6232273,422,-1363,-494,-1484,-299,-41,438,162,-226
1,6232283,424,-1366,-494,-1492,-304,-38,438,162,-226
1,6232293,424,-1366,-494,-1492,-304,-38,438,162,-226
1,6232301,423,-1365,-494,-1482,-308,-37,438,162,-226
1,6232311,423,-1365,-494,-1482,-308,-37,438,162,-226
1,6232320,422,-1365,-490,-1479,-301,-33,439,161,-223
1,6232329,422,-1365,-490,-1479,-301,-33,439,161,-223
1,6232341,422,-1363,-483,-1480,-301,-33,439,161,-223
1,6232353,422,-1363,-483,-1480,-301,-33,439,161,-223
1,6232367,422,-1366,-485,-1486,-296,-41,439,161,-223
1,6232377,424,-1363,-493,-1480,-297,-35,439,161,-223
1,6232388,424,-1363,-493,-1480,-297,-35,439,161,-223
1,6232400,425,-1367,-489,-1485,-299,-37,439,161,-223
1,6232414,425,-1367,-489,-1485,-299,-37,439,161,-223
1,6232423,424,-1364,-488,-1485,-303,-41,439,161,-223
1,6232434,424,-1364,-488,-1485,-303,-41,439,161,-223
1,6232442,425,-1366,-492,-1483,-306,-48,439,161,-223
1,6232454,425,-1366,-492,-1483,-306,-48,439,161,-223
1,6232469,425,-1368,-489,-1489,-301,-36,437,161,-231
1,6232484,422,-1363,-492,-1488,-305,-42,437,161,-231
1,6232495,422,-1363,-492,-1488,-305,-42,437,161,-231
1,6232506,421,-1365,-491,-1487,-304,-38,437,161,-231
1,6232520,421,-1364,-489,-1488,-308,-33,437,161,-231
1,6232535,421,-1364,-489,-1488,-308,-33,437,161,-231
1,6232545,424,-1367,-495,-1484,-307,-40,437,161,-231
1,6232553,424,-1367,-495,-1484,-307,-40,437,161,-231
1,6232561,425,-1363,-494,-1479,-301,-44,437,161,-231
1,6232569,425,-1363,-494,-1479,-301,-44,437,161,-231
1,6232578,420,-1364,-487,-1491,-305,-39,442,166,-222
1,6232585,420,-1364,-487,-1491,-305,-39,442,166,-222
1,6232593,420,-1364,-487,-1491,-305,-39,442,166,-222
1,6232601,422,-1366,-492,-1486,-304,-37,442,166,-222
1,6232610,422,-1366,-492,-1486,-304,-37,442,166,-222
1,6232620,426,-1365,-488,-1488,-297,-41,442,166,-222
1,6232629,426,-1365,-488,-1488,-297,-41,442,166,-222
1,6232639,424,-1364,-491,-1489,-304,-36,442,166,-222
1,6232652,424,-1364,-491,-1489,-304,-36,442,166,-222
1,6232665,423,-1363,-491,-1489,-302,-41,442,166,-222
1,6232678,426,-1365,-492,-1485,-304,-40,442,166,-222
1,6232690,426,-1365,-492,-1485,-304,-40,442,166,-222
1,6232705,424,-1364,-490,-1481,-299,-36,437,161,-225
1,6232717,424,-1366,-494,-1483,-302,-39,437,161,-225
1,6232730,424,-1366,-494,-1483,-302,-39,437,161,-225
1,6232743,424,-1366,-494,-1483,-302,-39,437,161,-225
1,6232757,422,-1366,-493,-1486,-308,-39,437,161,-225
1,6232769,422,-1366,-493,-1486,-308,-39,437,161,-225
1,6232783,422,-1366,-493,-1486,-308,-39,437,161,-225
1,6232796,422,-1366,-493,-1486,-308,-39,437,161,-225
1,6232808,424,-1368,-491,-1489,-306,-39,437,161,-225
1,6232820,422,-1363,-490,-1491,-304,-37,442,160,-226
1,6232834,422,-1363,-490,-1491,-304,-37,442,160,-226
1,6232848,424,-1364,-489,-1487,-305,-41,442,160,-226
1,6232858,420,-1365,-490,-1489,-300,-42,442,160,-226
1,6232871,420,-1365,-490,-1489,-300,-42,442,160,-226
1,6232884,422,-1364,-494,-1487,-304,-36,442,160,-226
1,6232894,422,-1364,-494,-1487,-304,-36,442,160,-226
1,6232901,425,-1363,-490,-1475,-304,-37,442,160,-226
1,6232908,425,-1363,-490,-1475,-304,-37,442,160,-226
1,6232915,425,-1363,-490,-1475,-304,-37,442,160,-226
1,6232923,425,-1363,-490,-1475,-304,-37,442,160,-226
1,6232932,425,-1363,-490,-1475,-304,-37,442,160,-226
1,6232939,422,-1363,-493,-1485,-301,-32,432,166,-228
1,6232947,422,-1363,-493,-1485,-301,-32,432,166,-228
1,6232954,422,-1363,-493,-1485,-301,-32,432,166,-228
1,6232962,422,-1365,-491,-1490,-304,-41,432,166,-228
1,6232968,422,-1365,-491,-1490,-304,-41,432,166,-228
1,6232976,422,-1365,-491,-1490,-304,-41,432,166,-228
1,6232983,424,-1364,-489,-1477,-304,-39,432,166,-228
1,6232990,424,-1364,-489,-1477,-304,-39,432,166,-228
1,6232998,424,-1364,-489,-1477,-304,-39,432,166,-228
1,6233006,424,-1364,-489,-1477,-304,-39,432,166,-228
1,6233015,424,-1364,-489,-1477,-304,-39,432,166,-228
1,6233022,424,-1363,-487,-1490,-302,-39,432,166,-228
1,6233027,424,-1363,-487,-1490,-302,-39,432,166,-228
1,6233032,424,-1363,-487,-1490,-302,-39,432,166,-228
1,6233039,425,-1365,-489,-1482,-297,-35,432,166,-228
1,6233047,425,-1365,-489,-1482,-297,-35,432,166,-228
1,6233054,425,-1365,-489,-1482,-297,-35,432,166,-228
1,6233059,425,-1364,-490,-1488,-309,-43,432,166,-228
1,6233066,425,-1364,-490,-1488,-309,-43,432,166,-228
1,6233074,425,-1364,-490,-1488,-309,-43,432,166,-228
1,6233081,425,-1364,-488,-1488,-305,-36,438,168,-222
1,6233089,425,-1364,-488,-1488,-305,-36,438,168,-222
1,6233096,425,-1364,-488,-1488,-305,-36,438,168,-222
1,6233103,424,-1362,-490,-1481,-303,-34,438,168,-222
1,6233108,424,-1362,-490,-1481,-303,-34,438,168,-222
1,6233116,424,-1362,-490,-1481,-303,-34,438,168,-222
1,6233123,423,-1364,-490,-1483,-300,-40,438,168,-222
1,6233131,423,-1364,-490,-1483,-300,-40,438,168,-222
1,6233138,425,-1361,-493,-1487,-307,-37,438,168,-222
1,6233143,425,-1361,-493,-1487,-307,-37,438,168,-222
1,6233149,425,-1361,-493,-1487,-307,-37,438,168,-222
1,6233155,425,-1361,-493,-1487,-307,-37,438,168,-222
1,6233160,422,-1365,-490,-1491,-304,-36,438,168,-222
1,6233165,422,-1365,-490,-1491,-304,-36,438,168,-222
1,6233170,422,-1365,-490,-1491,-304,-36,438,168,-222
1,6233176,422,-1365,-490,-1491,-304,-36,438,168,-222
1,6233181,423,-1364,-493,-1493,-298,-35,438,168,-222
1,6233188,423,-1364,-493,-1493,-298,-35,438,168,-222
1,6233195,423,-1364,-493,-1493,-298,-35,438,168,-222
1,6233201,427,-1363,-487,-1486,-303,-44,436,162,-228
1,6233208,427,-1363,-487,-1486,-303,-44,436,162,-228
1,6233217,427,-1363,-487,-1486,-303,-44,436,162,-228
1,6233223,424,-1364,-487,-1487,-301,-39,436,162,-228
1,6233229,424,-1364,-487,-1487,-301,-39,436,162,-228
1,6233237,425,-1365,-496,-1489,-305,-40,436,162,-228
1,6233244,425,-1365,-496,-1489,-305,-40,436,162,-228
1,6233251,425,-1365,-496,-1489,-305,-40,436,162,-228
1,6233259,426,-1364,-495,-1494,-307,-36,436,162,-228
1,6233266,426,-1364,-495,-1494,-307,-36,436,162,-228
1,6233272,426,-1364,-495,-1494,-307,-36,436,162,-228
1,6233277,422,-1368,-495,-1488,-305,-41,436,162,-228
1,6233284,422,-1368,-495,-1488,-305,-41,436,162,-228
1,6233292,422,-1368,-495,-1488,-305,-41,436,162,-228
1,6233299,422,-1368,-495,-1488,-305,-41,436,162,-228
1,6233306,422,-1368,-495,-1488,-305,-41,436,162,-228
1,6233313,422,-1368,-495,-1488,-305,-41,436,162,-228
1,6233320,422,-1363,-488,-1485,-302,-38,433,175,-231
1,6233325,422,-1363,-488,-1485,-302,-38,433,175,-231
1,6233333,422,-1363,-488,-1485,-302,-38,433,175,-231
1,6233340,425,-1363,-491,-1488,-300,-39,433,175,-231
1,6233347,425,-1363,-491,-1488,-300,-39,433,175,-231
1,6233354,425,-1363,-491,-1488,-300,-39,433,175,-231
1,6233360,426,-1367,-485,-1488,-302,-35,433,175,-231
1,6233366,426,-1367,-485,-1488,-302,-35,433,175,-231
1,6233374,426,-1367,-485,-1488,-302,-35,433,175,-231
1,6233382,425,-1365,-489,-1484,-304,-40,433,175,-231
1,6233391,425,-1365,-489,-1484,-304,-40,433,175,-231
1,6233396,425,-1365,-489,-1484,-304,-40,433,175,-231
1,6233402,422,-1369,-490,-1485,-296,-39,433,175,-231
1,6233409,422,-1369,-490,-1485,-296,-39,433,175,-231
1,6233415,422,-1369,-490,-1485,-296,-39,433,175,-231
1,6233421,423,-1367,-490,-1486,-300,-37,433,175,-231
1,6233426,423,-1367,-490,-1486,-300,-37,433,175,-231
1,6233435,423,-1367,-490,-1486,-300,-37,433,175,-231
1,6233443,427,-1366,-490,-1485,-298,-41,439,159,-231
1,6233451,427,-1366,-490,-1485,-298,-41,439,159,-231
1,6233457,424,-1366,-490,-1489,-300,-34,439,159,-231
1,6233462,424,-1366,-490,-1489,-300,-34,439,159,-231
1,6233469,424,-1366,-490,-1489,-300,-34,439,159,-231
1,6233477,424,-1366,-490,-1489,-300,-34,439,159,-231
1,6233483,427,-1363,-489,-1484,-311,-34,439,159,-231
1,6233491,427,-1363,-489,-1484,-311,-34,439,159,-231
1,6233496,427,-1363,-489,-1484,-311,-34,439,159,-231
1,6233505,426,-1362,-489,-1484,-303,-37,439,159,-231
1,6233511,426,-1362,-489,-1484,-303,-37,439,159,-231
1,6233519,428,-1366,-489,-1484,-302,-33,439,159,-231
1,6233527,428,-1366,-489,-1484,-302,-33,439,159,-231
1,6233534,428,-1366,-489,-1484,-302,-33,439,159,-231
1,6233540,425,-1365,-493,-1482,-301,-32,439,159,-231
1,6233547,425,-1365,-493,-1482,-301,-32,439,159,-231
1,6233555,425,-1365,-493,-1482,-301,-32,439,159,-231
1,6233563,425,-1362,-487,-1485,-305,-44,439,159,-231
1,6233570,425,-1362,-487,-1485,-305,-44,439,159,-231
1,6233575,425,-1362,-487,-1485,-305,-44,439,159,-231
1,6233580,424,-1363,-489,-1485,-300,-37,437,173,-223
1,6233585,424,-1363,-489,-1485,-300,-37,437,173,-223
1,6233590,424,-1363,-489,-1485,-300,-37,437,173,-223
1,6233595,424,-1363,-489,-1485,-300,-37,437,173,-223
1,6233602,422,-1363,-491,-1482,-308,-39,437,173,-223
1,6233608,422,-1363,-491,-1482,-308,-39,437,173,-223
1,6233613,422,-1363,-491,-1482,-308,-39,437,173,-223
1,6233618,425,-1367,-495,-1484,-302,-45,437,173,-223
1,6233624,425,-1367,-495,-1484,-302,-45,437,173,-223
1,6233630,425,-1367,-495,-1484,-302,-45,437,173,-223
1,6233636,423,-1364,-488,-1490,-294,-46,437,173,-223
1,6233644,423,-1364,-488,-1490,-294,-46,437,173,-223
1,6233650,423,-1364,-488,-1490,-294,-46,437,173,-223
1,6233655,423,-1364,-488,-1490,-294,-46,437,173,-223
1,6233661,426,-1364,-490,-1489,-310,-52,437,173,-223
1,6233668,426,-1364,-490,-1489,-310,-52,437,173,-223
1,6233675,426,-1364,-490,-1489,-310,-52,437,173,-223
1,6233682,424,-1365,-489,-1487,-299,-44,437,173,-223
1,6233688,424,-1365,-489,-1487,-299,-44,437,173,-223
1,6233693,424,-1365,-489,-1487,-299,-44,437,173,-223
1,6233698,427,-1364,-484,-1485,-300,-39,432,154,-224
1,6233706,427,-1364,-484,-1485,-300,-39,432,154,-224
1,6233711,427,-1364,-484,-1485,-300,-39,432,154,-224
1,6233719,423,-1366,-491,-1483,-301,-38,432,154,-224
1,6233726,423,-1366,-491,-1483,-301,-38,432,154,-224
1,6233735,423,-1366,-491,-1483,-301,-38,432,154,-224
1,6233741,424,-1366,-489,-1481,-303,-37,432,154,-224
1,6233749,424,-1366,-489,-1481,-303,-37,432,154,-224
1,6233755,424,-1366,-489,-1481,-303,-37,432,154,-224
1,6233761,423,-1366,-490,-1488,-295,-38,432,154,-224
1,6233769,423,-1366,-490,-1488,-295,-38,432,154,-224
1,6233776,423,-1366,-490,-1488,-295,-38,432,154,-224
1,6233783,423,-1365,-496,-1485,-296,-47,432,154,-224
1,6233790,423,-1365,-496,-1485,-296,-47,432,154,-224
1,6233795,423,-1365,-496,-1485,-296,-47,432,154,-224
1,6233802,423,-1365,-488,-1491,-302,-42,432,154,-224
1,6233810,423,-1365,-488,-1491,-302,-42,432,154,-224
1,6233819,427,-1366,-493,-1488,-308,-49,437,165,-237
1,6233825,427,-1366,-493,-1488,-308,-49,437,165,-237
1,6233832,427,-1366,-493,-1488,-308,-49,437,165,-237
1,6233839,424,-1366,-491,-1476,-302,-47,437,165,-237
1,6233847,424,-1366,-491,-1476,-302,-47,437,165,-237
1,6233853,424,-1366,-491,-1476,-302,-47,437,165,-237
1,6233860,422,-1364,-485,-1489,-307,-33,437,165,-237
1,6233866,422,-1364,-485,-1489,-307,-33,437,165,-237
1,6233873,422,-1364,-485,-1489,-307,-33,437,165,-237
1,6233879,423,-1365,-492,-1487,-311,-41,437,165,-237
1,6233887,423,-1365,-492,-1487,-311,-41,437,165,-237
1,6233894,423,-1365,-492,-1487,-311,-41,437,165,-237
1,6233909,426,-1365,-492,-1486,-305,-47,437,165,-237
1,6233923,427,-1363,-489,-1480,-308,-40,437,165,-237
1,6233932,427,-1363,-489,-1480,-308,-40,437,165,-237
1,6233945,422,-1365,-490,-1479,-304,-33,437,165,-223
1,6233958,424,-1361,-492,-1485,-300,-34,437,165,-223
1,6233971,424,-1361,-492,-1485,-300,-34,437,165,-223
1,6233982,426,-1365,-492,-1491,-301,-35,437,165,-223
1,6233995,426,-1365,-492,-1491,-301,-35,437,165,-223
1,6234009,426,-1366,-492,-1486,-299,-43,437,165,-223
1,6234023,422,-1362,-491,-1483,-303,-40,437,165,-223
1,6234032,422,-1362,-491,-1483,-303,-40,437,165,-223
1,6234044,426,-1365,-488,-1483,-298,-36,437,165,-223
1,6234056,426,-1365,-488,-1483,-298,-36,437,165,-223
1,6234068,425,-1365,-488,-1484,-301,-41,437,165,-223
1,6234080,425,-1365,-488,-1488,-298,-44,433,169,-223
1,6234095,425,-1365,-488,-1488,-298,-44,433,169,-223
1,6234107,426,-1364,-490,-1488,-300,-41,433,169,-223
1,6234120,424,-1370,-487,-1492,-299,-39,433,169,-223
1,6234133,424,-1370,-487,-1492,-299,-39,433,169,-223
1,6234141,424,-1365,-493,-1486,-300,-33,433,169,-223
1,6234150,424,-1365,-493,-1486,-300,-33,433,169,-223
1,6234159,425,-1364,-492,-1479,-295,-43,433,169,-223
1,6234167,425,-1364,-492,-1479,-295,-43,433,169,-223
1,6234175,425,-1364,-492,-1479,-295,-43,433,169,-223
1,6234183,425,-1365,-496,-1482,-302,-39,433,169,-223
1,6234191,425,-1365,-496,-1482,-302,-39,433,169,-223
1,6234200,425,-1365,-488,-1487,-310,-43,439,173,-225
1,6234208,425,-1365,-488,-1487,-310,-43,439,173,-225
1,6234216,425,-1365,-488,-1487,-310,-43,439,173,-225
1,6234224,424,-1366,-487,-1492,-306,-39,439,173,-225
1,6234232,424,-1366,-487,-1492,-306,-39,439,173,-225
1,6234241,426,-1365,-490,-1487,-300,-39,439,173,-225
1,6234250,426,-1365,-490,-1487,-300,-39,439,173,-225
1,6234260,424,-1365,-490,-1486,-303,-39,439,173,-225
1,6234269,424,-1365,-490,-1486,-303,-39,439,173,-225
1,6234277,424,-1365,-490,-1486,-303,-39,439,173,-225
1,6234286,424,-1365,-490,-1486,-303,-39,439,173,-225
1,6234296,424,-1365,-490,-1486,-303,-39,439,173,-225
1,6234310,427,-1363,-489,-1489,-298,-40,439,173,-225
1,6234321,426,-1364,-488,-1483,-306,-38,440,166,-226
1,6234335,426,-1364,-488,-1483,-306,-38,440,166,-226
1,6234348,424,-1365,-489,-1484,-307,-36,440,166,-226
1,6234363,423,-1366,-491,-1498,-304,-39,440,166,-226
1,6234376,423,-1366,-491,-1498,-304,-39,440,166,-226
1,6234387,421,-1362,-491,-1491,-304,-40,440,166,-226
1,6234399,422,-1366,-491,-1485,-307,-43,440,166,-226
1,6234413,422,-1366,-491,-1485,-307,-43,440,166,-226
1,6234425,424,-1366,-492,-1482,-302,-41,440,166,-226
1,6234436,424,-1366,-492,-1482,-302,-41,440,166,-226
1,6234449,422,-1363,-492,-1479,-304,-43,438,166,-224
1,6234463,423,-1365,-483,-1485,-306,-44,438,166,-224
1,6234475,423,-1365,-483,-1485,-306,-44,438,166,-224
1,6234484,424,-1363,-487,-1493,-304,-46,438,166,-224
1,6234497,424,-1363,-487,-1493,-304,-46,438,166,-224
1,6234510,422,-1363,-488,-1482,-302,-38,438,166,-224
1,6234522,423,-1364,-489,-1483,-300,-46,438,166,-224
1,6234533,423,-1364,-489,-1483,-300,-46,438,166,-224
1,6234546,423,-1366,-497,-1479,-297,-43,438,166,-224
1,6234557,423,-1366,-497,-1479,-297,-43,438,166,-224
1,6234569,421,-1367,-492,-1479,-299,-44,438,166,-224
1,6234577,423,-1367,-492,-1484,-304,-44,442,168,-222
1,6234586,423,-1367,-492,-1484,-304,-44,442,168,-222
1,6234594,423,-1367,-492,-1484,-304,-44,442,168,-222
1,6234603,425,-1367,-487,-1484,-301,-35,442,168,-222
1,6234616,425,-1367,-487,-1484,-301,-35,442,168,-222
1,6234625,424,-1368,-494,-1488,-304,-40,442,168,-222
1,6234634,424,-1368,-494,-1488,-304,-40,442,168,-222
1,6234648,422,-1367,-491,-1481,-300,-45,442,168,-222
1,6234662,423,-1364,-490,-1491,-299,-36,442,168,-222
1,6234675,423,-1364,-490,-1491,-299,-36,442,168,-222
1,6234685,421,-1365,-494,-1485,-301,-33,442,168,-222
1,6234698,425,-1364,-488,-1488,-306,-37,437,163,-229
1,6234711,425,-1364,-488,-1488,-306,-37,437,163,-229
1,6234723,425,-1366,-487,-1488,-302,-36,437,163,-229
1,6234734,425,-1366,-487,-1488,-302,-36,437,163,-229
1,6234749,423,-1365,-490,-1483,-306,-34,437,163,-229
1,6234762,425,-1365,-488,-1478,-305,-37,437,163,-229
1,6234771,425,-1365,-488,-1478,-305,-37,437,163,-229
1,6234783,426,-1363,-494,-1486,-306,-39,437,163,-229
1,6234798,423,-1366,-493,-1483,-300,-40,437,163,-229
1,6234812,423,-1366,-493,-1483,-300,-40,437,163,-229
1,6234820,422,-1365,-492,-1488,-299,-45,438,166,-234
1,6234833,422,-1365,-492,-1488,-299,-45,438,166,-234
1,6234849,423,-1365,-489,-1488,-297,-48,438,166,-234
1,6234860,426,-1367,-490,-1490,-305,-40,438,166,-234
1,6234870,426,-1367,-490,-1490,-305,-40,438,166,-234
1,6234883,427,-1363,-492,-1480,-301,-37,438,166,-234
1,6234896,427,-1363,-492,-1480,-301,-37,438,166,-234
1,6234907,423,-1365,-495,-1481,-306,-44,438,166,-234
1,6234912,423,-1365,-495,-1481,-306,-44,438,166,-234
1,6234918,423,-1369,-492,-1483,-307,-45,438,166,-234
1,6234924,423,-1369,-492,-1483,-307,-45,438,166,-234
1,6234929,423,-1369,-492,-1483,-307,-45,438,166,-234
1,6234934,423,-1369,-492,-1483,-307,-45,438,166,-234
1,6234941,422,-1363,-490,-1487,-303,-39,439,165,-227
1,6234948,422,-1363,-490,-1487,-303,-39,439,165,-227
1,6234956,422,-1363,-490,-1487,-303,-39,439,165,-227
1,6234963,422,-1363,-490,-1487,-303,-39,439,165,-227
1,6234970,422,-1363,-490,-1487,-303,-39,439,165,-227
1,6234978,423,-1369,-492,-1491,-302,-38,439,165,-227
1,6234986,423,-1369,-492,-1491,-302,-38,439,165,-227
1,6234992,423,-1369,-492,-1491,-302,-38,439,165,-227
1,6235000,424,-1365,-487,-1499,-308,-40,439,165,-227
1,6235006,424,-1365,-487,-1499,-308,-40,439,165,-227
1,6235015,424,-1365,-487,-1499,-308,-40,439,165,-227
1,6235022,421,-1366,-492,-1481,-305,-40,439,165,-227
1,6235029,421,-1366,-492,-1481,-305,-40,439,165,-227
1,6235035,421,-1366,-492,-1481,-305,-40,439,165,-227
1,6235043,422,-1365,-495,-1487,-308,-40,439,165,-227
1,6235051,422,-1365,-495,-1487,-308,-40,439,165,-227
1,6235058,421,-1366,-491,-1491,-306,-43,440,170,-218
1,6235064,421,-1366,-491,-1491,-306,-43,440,170,-218
1,6235072,421,-1366,-491,-1491,-306,-43,440,170,-218
1,6235078,421,-1365,-490,-1486,-308,-43,440,170,-218
1,6235085,421,-1365,-490,-1486,-308,-43,440,170,-218
1,6235094,421,-1365,-490,-1486,-308,-43,440,170,-218
1,6235100,424,-1363,-491,-1487,-304,-33,440,170,-218
1,6235106,424,-1363,-491,-1487,-304,-33,440,170,-218
1,6235113,424,-1363,-491,-1487,-304,-33,440,170,-218
1,6235121,424,-1362,-489,-1490,-304,-40,440,170,-218
1,6235127,424,-1362,-489,-1490,-304,-40,440,170,-218
1,6235134,424,-1362,-489,-1490,-304,-40,440,170,-218
1,6235140,422,-1365,-490,-1489,-299,-36,440,170,-218
1,6235145,422,-1365,-490,-1489,-299,-36,440,170,-218
1,6235150,422,-1365,-490,-1489,-299,-36,440,170,-218
1,6235155,422,-1365,-490,-1489,-299,-36,440,170,-218
1,6235160,424,-1366,-489,-1482,-299,-37,440,170,-218
1,6235165,424,-1366,-489,-1482,-299,-37,440,170,-218
1,6235170,424,-1366,-489,-1482,-299,-37,440,170,-218
1,6235179,422,-1364,-491,-1483,-303,-41,440,170,-218
1,6235186,422,-1364,-491,-1483,-303,-41,440,170,-218
1,6235193,422,-1364,-491,-1483,-303,-41,440,170,-218
1,6235201,423,-1364,-485,-1481,-306,-42,437,161,-225
1,6235208,423,-1364,-485,-1481,-306,-42,437,161,-225
1,6235215,423,-1364,-485,-1481,-306,-42,437,161,-225
1,6235223,425,-1367,-491,-1479,-296,-30,437,161,-225
1,6235230,425,-1367,-491,-1479,-296,-30,437,161,-225
1,6235236,425,-1367,-491,-1479,-296,-30,437,161,-225
1,6235244,421,-1364,-490,-1485,-298,-39,437,161,-225
1,6235252,421,-1364,-490,-1485,-298,-39,437,161,-225
1,6235258,426,-1364,-498,-1490,-304,-44,437,161,-225
1,6235266,426,-1364,-498,-1490,-304,-44,437,161,-225
1,6235274,426,-1364,-498,-1490,-304,-44,437,161,-225
1,6235281,424,-1364,-491,-1479,-301,-35,437,161,-225
1,6235286,424,-1364,-491,-1479,-301,-35,437,161,-225
1,6235294,424,-1364,-491,-1479,-301,-35,437,161,-225
1,6235302,426,-1366,-488,-1478,-297,-41,437,161,-225
1,6235311,426,-1366,-488,-1478,-297,-41,437,161,-225
1,6235318,426,-1362,-490,-1489,-298,-41,427,169,-225
1,6235324,426,-1362,-490,-1489,-298,-41,427,169,-225
1,6235330,426,-1362,-490,-1489,-298,-41,427,169,-225
1,6235336,426,-1362,-490,-1489,-298,-41,427,169,-225
1,6235342,424,-1362,-491,-1488,-300,-37,427,169,-225
1,6235350,424,-1362,-491,-1488,-300,-37,427,169,-225
1,6235356,424,-1362,-491,-1488,-300,-37,427,169,-225
1,6235364,424,-1364,-493,-1485,-303,-45,427,169,-225
1,6235371,424,-1364,-493,-1485,-303,-45,427,169,-225
1,6235378,425,-1365,-494,-1483,-304,-37,427,169,-225
1,6235385,425,-1365,-494,-1483,-304,-37,427,169,-225
1,6235394,425,-1365,-494,-1483,-304,-37,427,169,-225
1,6235401,424,-1365,-494,-1484,-296,-39,427,169,-225
1,6235408,424,-1365,-494,-1484,-296,-39,427,169,-225
1,6235415,424,-1365,-494,-1484,-296,-39,427,169,-225
1,6235423,424,-1364,-493,-1482,-302,-41,427,169,-225
1,6235430,424,-1364,-493,-1482,-302,-41,427,169,-225
1,6235437,424,-1364,-493,-1482,-302,-41,427,169,-225
1,6235444,426,-1364,-488,-1489,-309,-37,442,162,-226
1,6235452,426,-1364,-488,-1489,-309,-37,442,162,-226
1,6235459,423,-1362,-495,-1482,-296,-41,442,162,-226
1,6235467,423,-1362,-495,-1482,-296,-41,442,162,-226
1,6235474,423,-1362,-495,-1482,-296,-41,442,162,-226
1,6235481,425,-1366,-491,-1481,-297,-38,442,162,-226
1,6235489,425,-1366,-491,-1481,-297,-38,442,162,-226
1,6235495,425,-1366,-491,-1481,-297,-38,442,162,-226
1,6235502,422,-1366,-492,-1478,-304,-36,442,162,-226
1,6235511,422,-1366,-492,-1478,-304,-36,442,162,-226
1,6235518,425,-1362,-490,-1492,-304,-43,442,162,-226
1,6235525,425,-1362,-490,-1492,-304,-43,442,162,-226
1,6235533,425,-1362,-490,-1492,-304,-43,442,162,-226
1,6235540,422,-1365,-490,-1487,-300,-31,442,162,-226
1,6235547,422,-1365,-490,-1487,-300,-31,442,162,-226
1,6235555,422,-1365,-490,-1487,-300,-31,442,162,-226
1,6235563,425,-1363,-489,-1488,-314,-31,441,165,-235
1,6235569,425,-1363,-489,-1488,-314,-31,441,165,-235
1,6235575,425,-1363,-489,-1488,-314,-31,441,165,-235
1,6235580,423,-1364,-486,-1484,-302,-38,441,165,-235
1,6235585,423,-1364,-486,-1484,-302,-38,441,165,-235
1,6235590,423,-1364,-486,-1484,-302,-38,441,165,-235
1,6235595,423,-1364,-486,-1484,-302,-38,441,165,-235
1,6235600,424,-1365,-487,-1481,-302,-44,441,165,-235
1,6235607,424,-1365,-487,-1481,-302,-44,441,165,-235
1,6235614,424,-1365,-487,-1481,-302,-44,441,165,-235
1,6235619,424,-1365,-489,-1493,-307,-43,441,165,-235
1,6235628,424,-1365,-489,-1493,-307,-43,441,165,-235
1,6235634,424,-1365,-489,-1493,-307,-43,441,165,-235
1,6235641,423,-1365,-493,-1494,-301,-36,441,165,-235
1,6235649,423,-1365,-493,-1494,-301,-36,441,165,-235
1,6235655,423,-1365,-493,-1494,-301,-36,441,165,-235
1,6235662,422,-1366,-495,-1486,-307,-41,441,165,-235
1,6235670,422,-1366,-495,-1486,-307,-41,441,165,-235
1,6235678,423,-1363,-494,-1474,-299,-40,441,165,-235
1,6235685,423,-1363,-494,-1474,-299,-40,441,165,-235
1,6235693,423,-1363,-494,-1474,-299,-40,441,165,-235
1,6235700,421,-1367,-488,-1481,-303,-43,434,166,-228
1,6235707,421,-1367,-488,-1481,-303,-43,434,166,-228
1,6235714,421,-1367,-488,-1481,-303,-43,434,166,-228
1,6235721,422,-1365,-492,-1487,-308,-41,434,166,-228
1,6235729,422,-1365,-492,-1487,-308,-41,434,166,-228
1,6235737,422,-1365,-492,-1487,-308,-41,434,166,-228
1,6235745,424,-1366,-494,-1482,-300,-37,434,166,-228
1,6235752,424,-1366,-494,-1482,-300,-37,434,166,-228
1,6235759,421,-1364,-490,-1480,-297,-39,434,166,-228
1,6235766,421,-1364,-490,-1480,-297,-39,434,166,-228
1,6235774,421,-1364,-490,-1480,-297,-39,434,166,-228
1,6235781,424,-1361,-491,-1481,-301,-44,434,166,-228
1,6235787,424,-1361,-491,-1481,-301,-44,434,166,-228
1,6235795,424,-1361,-491,-1481,-301,-44,434,166,-228
1,6235802,422,-1364,-490,-1485,-300,-39,434,166,-228
1,6235809,422,-1364,-490,-1485,-300,-39,434,166,-228
1,6235819,424,-1365,-485,-1483,-307,-38,433,161,-231
1,6235826,424,-1365,-485,-1483,-307,-38,433,161,-231
1,6235834,424,-1365,-485,-1483,-307,-38,433,161,-231
1,6235840,423,-1365,-491,-1485,-301,-39,433,161,-231
1,6235847,423,-1365,-491,-1485,-301,-39,433,161,-231
1,6235855,423,-1365,-491,-1485,-301,-39,433,161,-231
1,6235862,422,-1365,-492,-1491,-300,-46,433,161,-231
1,6235868,422,-1365,-492,-1491,-300,-46,433,161,-231
1,6235873,422,-1365,-492,-1491,-300,-46,433,161,-231
1,6235881,424,-1365,-493,-1498,-303,-41,433,161,-231
1,6235889,424,-1365,-493,-1498,-303,-41,433,161,-231
1,6235896,424,-1365,-493,-1498,-303,-41,433,161,-231
1,6235905,423,-1367,-489,-1495,-305,-42,433,161,-231
1,6235914,423,-1367,-489,-1495,-305,-42,433,161,-231
1,6235925,425,-1362,-493,-1495,-301,-40,433,161,-231
1,6235937,425,-1362,-493,-1495,-301,-40,437,169,-225
1,6235951,425,-1362,-493,-1495,-301,-40,437,169,-225
1,6235964,424,-1367,-492,-1485,-304,-39,437,169,-225
1,6235975,424,-1367,-492,-1485,-304,-39,437,169,-225
1,6235986,426,-1366,-491,-1488,-303,-36,437,169,-225
1,6236002,423,-1364,-495,-1480,-295,-41,437,169,-225
1,6236015,423,-1364,-495,-1480,-295,-41,437,169,-225
1,6236025,423,-1367,-493,-1487,-303,-42,437,169,-225
1,6236039,422,-1364,-490,-1490,-301,-40,437,169,-225
1,6236054,422,-1364,-490,-1490,-301,-40,437,169,-225
1,6236068,421,-1365,-492,-1488,-297,-39,439,169,-229
1,6236077,421,-1365,-492,-1488,-297,-39,439,169,-229
1,6236090,422,-1362,-492,-1485,-297,-40,439,169,-229
1,6236104,426,-1364,-490,-1489,-302,-34,439,169,-229
1,6236118,425,-1366,-487,-1484,-303,-38,439,169,-229
1,6236126,425,-1366,-487,-1484,-303,-38,439,169,-229
1,6236137,425,-1366,-487,-1484,-303,-38,439,169,-229
1,6236145,424,-1368,-492,-1490,-301,-42,439,169,-229
1,6236153,424,-1368,-492,-1490,-301,-42,439,169,-229
1,6236162,422,-1366,-492,-1483,-305,-40,439,169,-229
1,6236170,422,-1366,-492,-1483,-305,-40,439,169,-229
1,6236179,423,-1363,-488,-1485,-304,-36,439,169,-229
1,6236187,423,-1363,-488,-1485,-304,-36,439,169,-229
1,6236194,423,-1363,-488,-1485,-304,-36,439,169,-229
1,6236203,423,-1364,-484,-1486,-300,-40,435,161,-229
1,6236211,423,-1364,-484,-1486,-300,-40,435,161,-229
1,6236219,423,-1362,-489,-1486,-303,-42,435,161,-229
1,6236227,423,-1362,-489,-1486,-303,-42,435,161,-229
1,6236235,423,-1362,-489,-1486,-303,-42,435,161,-229
1,6236243,421,-1363,-492,-1488,-302,-36,435,161,-229
1,6236253,421,-1363,-492,-1488,-302,-36,435,161,-229
1,6236261,423,-1368,-488,-1487,-305,-33,435,161,-229
1,6236269,423,-1368,-488,-1487,-305,-33,435,161,-229
1,6236278,425,-1366,-489,-1483,-301,-35,435,161,-229
1,6236290,425,-1366,-489,-1483,-301,-35,435,161,-229
1,6236304,427,-1367,-492,-1481,-297,-41,435,161,-229
1,6236318,425,-1368,-481,-1487,-305,-38,443,171,-229
1,6236327,425,-1368,-481,-1487,-305,-38,443,171,-229
1,6236340,424,-1365,-484,-1487,-307,-28,443,171,-229
1,6236352,424,-1365,-484,-1487,-307,-28,443,171,-229
1,6236364,425,-1365,-491,-1488,-301,-35,443,171,-229
1,6236377,425,-1365,-491,-1488,-301,-35,443,171,-229
1,6236392,421,-1366,-488,-1484,-302,-39,443,171,-229
1,6236404,423,-1367,-495,-1482,-303,-29,443,171,-229
1,6236419,424,-1364,-493,-1484,-302,-35,443,171,-229
1,6236432,424,-1364,-493,-1484,-302,-35,443,171,-229
1,6236444,425,-1362,-490,-1486,-303,-40,442,164,-230
1,6236456,425,-1362,-490,-1486,-303,-40,442,164,-230
1,6236470,421,-1366,-489,-1484,-301,-38,442,164,-230
1,6236482,422,-1365,-495,-1480,-299,-42,442,164,-230
1,6236494,422,-1365,-495,-1480,-299,-42,442,164,-230
1,6236509,422,-1366,-493,-1479,-303,-32,442,164,-230
1,6236522,424,-1365,-491,-1490,-305,-27,442,164,-230
1,6236535,424,-1365,-491,-1490,-305,-27,442,164,-230
1,6236546,425,-1364,-492,-1491,-308,-27,442,164,-230
1,6236559,425,-1364,-492,-1491,-308,-27,435,167,-225
1,6236574,425,-1364,-492,-1491,-308,-27,435,167,-225
1,6236582,423,-1364,-490,-1486,-305,-41,435,167,-225
1,6236591,423,-1364,-490,-1486,-305,-41,435,167,-225
1,6236599,424,-1364,-488,-1490,-303,-33,435,167,-225
1,6236607,424,-1364,-488,-1490,-303,-33,435,167,-225
1,6236616,424,-1364,-488,-1490,-303,-33,435,167,-225
1,6236626,423,-1367,-488,-1493,-293,-29,435,167,-225
1,6236643,424,-1366,-489,-1484,-303,-38,435,167,-225
1,6236657,424,-1366,-489,-1484,-303,-38,435,167,-225
1,6236668,425,-1362,-492,-1482,-296,-36,435,167,-225
1,6236682,425,-1362,-492,-1482,-296,-36,435,167,-225
1,6236695,425,-1362,-492,-1482,-296,-36,435,167,-225
1,6236709,423,-1364,-490,-1482,-297,-36,435,171,-225
1,6236722,425,-1363,-489,-1482,-299,-37,435,171,-225
1,6236733,425,-1363,-489,-1482,-299,-37,435,171,-225
1,6236746,426,-1362,-492,-1486,-301,-33,435,171,-225
1,6236760,425,-1365,-488,-1477,-299,-27,435,171,-225
1,6236772,425,-1365,-488,-1477,-299,-27,435,171,-225
1,6236781,422,-1364,-489,-1483,-296,-38,435,171,-225
1,6236789,422,-1364,-489,-1483,-296,-38,435,171,-225
1,6236797,422,-1364,-492,-1483,-297,-36,435,171,-225
1,6236811,422,-1364,-492,-1483,-297,-36,435,171,-225
1,6236823,425,-1362,-484,-1484,-299,-39,435,169,-223
1,6236832,425,-1362,-484,-1484,-299,-39,435,169,-223
1,6236845,423,-1363,-493,-1486,-288,-39,435,169,-223
1,6236857,423,-1363,-493,-1486,-288,-39,435,169,-223
1,6236866,425,-1366,-492,-1485,-295,-42,435,169,-223
1,6236874,425,-1366,-492,-1485,-295,-42,435,169,-223
1,6236882,425,-1365,-491,-1484,-302,-42,435,169,-223
1,6236891,425,-1365,-491,-1484,-302,-42,435,169,-223
1,6236903,424,-1365,-494,-1484,-302,-43,435,169,-223
1,6236915,424,-1365,-494,-1484,-302,-43,435,169,-223
1,6236922,422,-1363,-492,-1484,-303,-41,435,169,-223
1,6236929,422,-1363,-492,-1484,-303,-41,435,169,-223
1,6236937,422,-1363,-492,-1484,-303,-41,435,169,-223
1,6236944,424,-1363,-485,-1479,-300,-39,430,164,-226
1,6236952,424,-1363,-485,-1479,-300,-39,430,164,-226
1,6236959,425,-1364,-489,-1485,-300,-33,430,164,-226
1,6236966,425,-1364,-489,-1485,-300,-33,430,164,-226
1,6236973,425,-1364,-489,-1485,-300,-33,430,164,-226
1,6236978,423,-1363,-490,-1479,-302,-35,430,164,-226
1,6236987,423,-1363,-490,-1479,-302,-35,430,164,-226
1,6236994,423,-1363,-490,-1479,-302,-35,430,164,-226
1,6237001,422,-1366,-496,-1476,-297,-37,430,164,-226
1,6237008,422,-1366,-496,-1476,-297,-37,430,164,-226
1,6237016,422,-1366,-496,-1476,-297,-37,430,164,-226
1,6237022,426,-1369,-489,-1481,-302,-38,430,164,-226
1,6237029,426,-1369,-489,-1481,-302,-38,430,164,-226
1,6237036,426,-1369,-489,-1481,-302,-38,430,164,-226
1,6237044,425,-1366,-489,-1482,-304,-34,430,164,-226
1,6237051,425,-1366,-489,-1482,-304,-34,430,164,-226
1,6237059,424,-1366,-491,-1485,-301,-34,438,166,-224
1,6237064,424,-1366,-491,-1485,-301,-34,438,166,-224
1,6237071,424,-1366,-491,-1485,-301,-34,438,166,-224
1,6237079,423,-1365,-492,-1485,-305,-40,438,166,-224
1,6237086,423,-1365,-492,-1485,-305,-40,438,166,-224
1,6237094,423,-1365,-492,-1485,-305,-40,438,166,-224
1,6237102,422,-1366,-490,-1487,-301,-42,438,166,-224
1,6237109,422,-1366,-490,-1487,-301,-42,438,166,-224
1,6237115,422,-1366,-490,-1487,-301,-42,438,166,-224
1,6237120,423,-1366,-490,-1483,-300,-39,438,166,-224
1,6237127,423,-1366,-490,-1483,-300,-39,438,166,-224
1,6237132,423,-1366,-490,-1483,-300,-39,438,166,-224
1,6237138,422,-1364,-488,-1485,-297,-47,438,166,-224
1,6237144,422,-1364,-488,-1485,-297,-47,438,166,-224
1,6237150,422,-1364,-488,-1485,-297,-47,438,166,-224
1,6237155,422,-1364,-488,-1485,-297,-47,438,166,-224
1,6237160,425,-1366,-491,-1491,-306,-36,438,166,-224
1,6237165,425,-1366,-491,-1491,-306,-36,438,166,-224
1,6237170,425,-1366,-491,-1491,-306,-36,438,166,-224
1,6237176,425,-1366,-491,-1491,-306,-36,438,166,-224
1,6237185,424,-1362,-496,-1492,-302,-32,445,173,-225
1,6237191,424,-1362,-496,-1492,-302,-32,445,173,-225
1,6237197,424,-1362,-496,-1492,-302,-32,445,173,-225
1,6237205,423,-1364,-488,-1487,-305,-39,445,173,-225
1,6237212,423,-1364,-488,-1487,-305,-39,445,173,-225
1,6237219,424,-1365,-492,-1485,-301,-32,445,173,-225
1,6237227,424,-1365,-492,-1485,-301,-32,445,173,-225
1,6237232,424,-1365,-492,-1485,-301,-32,445,173,-225
1,6237239,423,-1364,-490,-1488,-296,-34,445,173,-225
1,6237246,423,-1364,-490,-1488,-296,-34,445,173,-225
1,6237254,423,-1364,-490,-1488,-296,-34,445,173,-225
1,6237261,425,-1365,-492,-1488,-300,-35,445,173,-225
1,6237268,425,-1365,-492,-1488,-300,-35,445,173,-225
1,6237275,425,-1365,-492,-1488,-300,-35,445,173,-225
1,6237281,423,-1364,-489,-1487,-301,-40,445,173,-225
1,6237288,423,-1364,-489,-1487,-301,-40,445,173,-225
1,6237296,423,-1364,-489,-1487,-301,-40,445,173,-225
1,6237304,425,-1367,-494,-1487,-306,-35,445,173,-225
1,6237312,425,-1367,-494,-1487,-306,-35,445,173,-225
1,6237319,426,-1364,-489,-1489,-303,-42,442,162,-224
1,6237326,426,-1364,-489,-1489,-303,-42,442,162,-224
1,6237334,426,-1364,-489,-1489,-303,-42,442,162,-224
1,6237341,424,-1365,-490,-1487,-304,-42,442,162,-224
1,6237347,424,-1365,-490,-1487,-304,-42,442,162,-224
1,6237356,424,-1365,-490,-1487,-304,-42,442,162,-224
1,6237363,425,-1363,-494,-1485,-303,-39,442,162,-224
1,6237369,425,-1363,-494,-1485,-303,-39,442,162,-224
1,6237375,425,-1363,-494,-1485,-303,-39,442,162,-224
1,6237380,424,-1368,-490,-1481,-301,-39,442,162,-224
1,6237387,424,-1368,-490,-1481,-301,-39,442,162,-224
1,6237395,424,-1368,-490,-1481,-301,-39,442,162,-224
1,6237401,425,-1367,-485,-1494,-301,-41,442,162,-224
1,6237408,425,-1367,-485,-1494,-301,-41,442,162,-224
1,6237414,425,-1367,-485,-1494,-301,-41,442,162,-224
1,6237422,426,-1366,-487,-1485,-305,-40,442,162,-224
1,6237430,426,-1366,-487,-1485,-305,-40,442,162,-224
1,6237438,428,-1364,-487,-1481,-305,-36,426,162,-224
1,6237447,428,-1364,-487,-1481,-305,-36,426,168,-226
1,6237453,428,-1364,-487,-1481,-305,-36,426,168,-226
1,6237458,429,-1366,-495,-1487,-314,-46,426,168,-226
1,6237465,429,-1366,-495,-1487,-314,-46,426,168,-226
1,6237472,429,-1366,-495,-1487,-314,-46,426,168,-226
1,6237480,422,-1366,-491,-1483,-301,-42,426,168,-226
1,6237488,422,-1366,-491,-1483,-301,-42,426,168,-226
1,6237495,422,-1366,-491,-1483,-301,-42,426,168,-226
1,6237501,425,-1364,-496,-1478,-301,-40,426,168,-226
1,6237508,425,-1364,-496,-1478,-301,-40,426,168,-226
1,6237514,425,-1364,-496,-1478,-301,-40,426,168,-226
1,6237522,427,-1367,-492,-1481,-301,-42,426,168,-226
1,6237531,427,-1367,-492,-1481,-301,-42,426,168,-226
1,6237538,425,-1360,-496,-1480,-296,-38,426,168,-226
1,6237546,425,-1360,-496,-1480,-296,-38,426,168,-226
1,6237553,425,-1360,-496,-1480,-296,-38,426,168,-226
1,6237559,423,-1362,-488,-1488,-295,-27,432,168,-224
1,6237565,423,-1362,-488,-1488,-295,-27,432,168,-224
1,6237573,423,-1362,-488,-1488,-295,-27,432,168,-224
1,6237578,423,-1362,-488,-1488,-295,-27,432,168,-224
1,6237583,426,-1366,-491,-1487,-303,-39,432,168,-224
1,6237588,426,-1366,-491,-1487,-303,-39,432,168,-224
1,6237593,426,-1366,-491,-1487,-303,-39,432,168,-224
1,6237599,424,-1365,-488,-1495,-301,-40,432,168,-224
1,6237604,424,-1365,-488,-1495,-301,-40,432,168,-224
1,6237612,424,-1365,-488,-1495,-301,-40,432,168,-224
1,6237619,422,-1365,-491,-1480,-296,-39,432,168,-224
1,6237626,422,-1365,-491,-1480,-296,-39,432,168,-224
1,6237632,422,-1365,-491,-1480,-296,-39,432,168,-224
1,6237640,424,-1367,-491,-1482,-300,-39,432,168,-224
1,6237647,424,-1367,-491,-1482,-300,-39,432,168,-224
1,6237657,424,-1367,-491,-1482,-300,-39,432,168,-224
1,6237664,425,-1365,-496,-1484,-306,-31,432,168,-224
1,6237669,425,-1365,-496,-1484,-306,-31,432,168,-224
1,6237676,425,-1365,-496,-1484,-306,-31,432,168,-224
1,6237683,424,-1365,-489,-1478,-302,-39,444,170,-236
1,6237690,424,-1365,-489,-1478,-302,-39,444,170,-236
1,6237697,424,-1365,-489,-1478,-302,-39,444,170,-236
1,6237702,422,-1366,-487,-1483,-292,-38,444,170,-236
1,6237710,422,-1366,-487,-1483,-292,-38,444,170,-236
1,6237718,422,-1366,-487,-1483,-292,-38,444,170,-236
1,6237725,424,-1367,-487,-1484,-302,-41,444,170,-236
1,6237732,424,-1367,-487,-1484,-302,-41,444,170,-236
1,6237741,425,-1364,-493,-1483,-304,-44,444,170,-236
1,6237749,425,-1364,-493,-1483,-304,-44,444,170,-236
1,6237756,425,-1364,-493,-1483,-304,-44,444,170,-236
1,6237762,426,-1366,-492,-1485,-294,-40,444,170,-236
1,6237769,426,-1366,-492,-1485,-294,-40,444,170,-236
1,6237776,426,-1366,-492,-1485,-294,-40,444,170,-236
1,6237783,425,-1366,-493,-1484,-299,-42,444,170,-236
1,6237791,425,-1366,-493,-1484,-299,-42,444,170,-236
