imu,time,ax,ay,az,gx,gy,gz,mx,my,mz
1,8712776,423,-1367,-498,-1498,-306,-32,430,166,-228
1,8712784,424,-1365,-498,-1500,-312,-45,433,167,-223
1,8712790,424,-1365,-498,-1500,-312,-45,433,167,-223
1,8712796,424,-1365,-498,-1500,-312,-45,433,167,-223
1,8712800,425,-1364,-497,-1499,-307,-42,433,167,-223
1,8712805,425,-1364,-497,-1499,-307,-42,433,167,-223
1,8712810,425,-1364,-497,-1499,-307,-42,433,167,-223
1,8712817,424,-1363,-506,-1495,-307,-39,433,167,-223
1,8712823,424,-1363,-506,-1495,-307,-39,433,167,-223
1,8712828,424,-1363,-506,-1495,-307,-39,433,167,-223
1,8712834,424,-1363,-506,-1495,-307,-39,433,167,-223
1,8712839,418,-1366,-495,-1498,-302,-39,433,167,-223
1,8712845,418,-1366,-495,-1498,-302,-39,433,167,-223
1,8712851,418,-1366,-495,-1498,-302,-39,433,167,-223
1,8712856,418,-1366,-495,-1498,-302,-39,433,167,-223
1,8712862,417,-1367,-497,-1489,-303,-35,433,167,-223
1,8712868,417,-1367,-497,-1489,-303,-35,433,167,-223
1,8712873,417,-1367,-497,-1489,-303,-35,433,167,-223
1,8712879,424,-1366,-499,-1491,-308,-39,433,167,-223
1,8712884,424,-1366,-499,-1491,-308,-39,433,167,-223
1,8712891,424,-1366,-499,-1491,-308,-39,433,167,-223
1,8712898,421,-1366,-497,-1490,-297,-41,434,160,-224
1,8712905,421,-1366,-497,-1490,-297,-41,434,160,-224
1,8712912,421,-1366,-497,-1490,-297,-41,434,160,-224
1,8712921,424,-1367,-496,-1489,-303,-45,434,160,-224
1,8712928,424,-1367,-496,-1489,-303,-45,434,160,-224
1,8712934,424,-1367,-496,-1489,-303,-45,434,160,-224
1,8712941,420,-1364,-498,-1488,-298,-43,434,160,-224
1,8712947,420,-1364,-498,-1488,-298,-43,434,160,-224
1,8712952,420,-1364,-498,-1488,-298,-43,434,160,-224
1,8712961,421,-1366,-500,-1490,-306,-39,434,160,-224
1,8712969,421,-1366,-500,-1490,-306,-39,434,160,-224
1,8712976,421,-1366,-500,-1490,-306,-39,434,160,-224
1,8712982,422,-1367,-497,-1491,-306,-36,434,160,-224
1,8712989,422,-1367,-497,-1491,-306,-36,434,160,-224
1,8712996,422,-1367,-497,-1491,-306,-36,434,160,-224
1,8713003,423,-1366,-500,-1486,-303,-34,434,160,-224
1,8713008,423,-1366,-500,-1486,-303,-34,434,160,-224
1,8713015,423,-1366,-500,-1486,-303,-34,434,160,-224
1,8713023,422,-1368,-497,-1494,-299,-40,445,161,-225
1,8713030,422,-1368,-497,-1494,-299,-40,445,161,-225
1,8713036,422,-1368,-497,-1494,-299,-40,445,161,-225
1,8713043,422,-1366,-498,-1492,-300,-50,445,161,-225
1,8713052,422,-1366,-498,-1492,-300,-50,445,161,-225
1,8713060,423,-1367,-500,-1490,-302,-45,445,161,-225
1,8713068,423,-1367,-500,-1490,-302,-45,445,161,-225
1,8713074,423,-1367,-500,-1490,-302,-45,445,161,-225
1,8713081,422,-1364,-495,-1486,-299,-38,445,161,-225
1,8713086,422,-1364,-495,-1486,-299,-38,445,161,-225
1,8713092,422,-1364,-495,-1486,-299,-38,445,161,-225
1,8713097,422,-1364,-495,-1486,-299,-38,445,161,-225
1,8713102,424,-1365,-495,-1487,-308,-37,445,161,-225
1,8713108,424,-1365,-495,-1487,-308,-37,445,161,-225
1,8713116,424,-1365,-495,-1487,-308,-37,445,161,-225
1,8713122,424,-1364,-495,-1492,-306,-40,445,161,-225
1,8713131,424,-1364,-495,-1492,-306,-40,445,161,-225
1,8713138,422,-1364,-496,-1493,-303,-38,445,161,-225
1,8713146,422,-1364,-496,-1493,-303,-38,445,161,-225
1,8713152,422,-1364,-496,-1493,-303,-38,445,161,-225
1,8713160,426,-1368,-496,-1493,-307,-42,436,164,-224
1,8713166,426,-1368,-496,-1493,-307,-42,436,164,-224
1,8713174,426,-1368,-496,-1493,-307,-42,436,164,-224
1,8713180,423,-1363,-496,-1493,-301,-43,436,164,-224
1,8713187,423,-1363,-496,-1493,-301,-43,436,164,-224
1,8713194,423,-1363,-496,-1493,-301,-43,436,164,-224
1,8713201,424,-1366,-500,-1493,-304,-40,436,164,-224
1,8713207,424,-1366,-500,-1493,-304,-40,436,164,-224
1,8713213,424,-1366,-500,-1493,-304,-40,436,164,-224
1,8713220,422,-1363,-497,-1491,-296,-37,436,164,-224
1,8713228,422,-1363,-497,-1491,-296,-37,436,164,-224
1,8713236,422,-1363,-497,-1491,-296,-37,436,164,-224
1,8713243,419,-1363,-493,-1485,-303,-40,436,164,-224
1,8713249,419,-1363,-493,-1485,-303,-40,436,164,-224
1,8713254,419,-1363,-493,-1485,-303,-40,436,164,-224
1,8713261,421,-1368,-497,-1493,-309,-39,436,164,-224
1,8713266,421,-1368,-497,-1493,-309,-39,436,164,-224
1,8713271,421,-1368,-497,-1493,-309,-39,436,164,-224
1,8713279,424,-1367,-493,-1487,-304,-38,437,159,-221
1,8713286,424,-1367,-493,-1487,-304,-38,437,159,-221
1,8713292,424,-1367,-493,-1487,-304,-38,437,159,-221
1,8713299,425,-1362,-492,-1488,-307,-41,437,159,-221
1,8713305,425,-1362,-492,-1488,-307,-41,437,159,-221
1,8713312,425,-1362,-492,-1488,-307,-41,437,159,-221
1,8713318,424,-1363,-497,-1491,-300,-39,437,159,-221
1,8713326,424,-1363,-497,-1491,-300,-39,437,159,-221
1,8713333,424,-1363,-497,-1491,-300,-39,437,159,-221
1,8713340,423,-1364,-499,-1490,-302,-39,437,159,-221
1,8713349,423,-1364,-499,-1490,-302,-39,437,159,-221
1,8713356,423,-1364,-499,-1490,-302,-39,437,159,-221
1,8713363,423,-1366,-495,-1496,-304,-42,437,159,-221
1,8713370,423,-1366,-495,-1496,-304,-42,437,159,-221
1,8713377,422,-1366,-497,-1492,-308,-51,437,159,-221
1,8713385,422,-1366,-497,-1492,-308,-51,437,159,-221
1,8713392,422,-1366,-497,-1492,-308,-51,437,159,-221
1,8713399,422,-1366,-492,-1490,-310,-45,431,163,-221
1,8713407,422,-1366,-492,-1490,-310,-45,431,163,-221
1,8713414,422,-1366,-492,-1490,-310,-45,431,163,-221
1,8713421,424,-1367,-498,-1490,-302,-41,431,163,-221
1,8713428,424,-1367,-498,-1490,-302,-41,431,163,-221
1,8713435,424,-1367,-498,-1490,-302,-41,431,163,-221
1,8713442,422,-1367,-502,-1493,-300,-46,431,163,-221
1,8713449,422,-1367,-502,-1493,-300,-46,431,163,-221
1,8713455,422,-1367,-502,-1493,-300,-46,431,163,-221
1,8713462,421,-1364,-503,-1494,-304,-45,431,163,-221
1,8713468,421,-1364,-503,-1494,-304,-45,431,163,-221
1,8713476,421,-1364,-503,-1494,-304,-45,431,163,-221
1,8713483,426,-1363,-499,-1495,-307,-53,431,163,-221
1,8713489,426,-1363,-499,-1495,-307,-53,431,163,-221
1,8713496,426,-1363,-499,-1495,-307,-53,431,163,-221
1,8713504,427,-1366,-499,-1490,-301,-43,431,163,-221
1,8713511,427,-1366,-499,-1490,-301,-43,431,163,-221
1,8713519,424,-1367,-492,-1495,-306,-34,441,167,-231
1,8713525,424,-1367,-492,-1495,-306,-34,441,167,-231
1,8713532,424,-1367,-492,-1495,-306,-34,441,167,-231
1,8713538,424,-1369,-495,-1495,-304,-37,441,167,-231
1,8713546,424,-1369,-495,-1495,-304,-37,441,167,-231
1,8713552,424,-1369,-495,-1495,-304,-37,441,167,-231
1,8713560,421,-1366,-496,-1493,-312,-38,441,167,-231
1,8713572,421,-1366,-496,-1493,-312,-38,441,167,-231
1,8713586,422,-1367,-496,-1487,-310,-35,441,167,-231
1,8713597,422,-1366,-493,-1495,-307,-38,441,167,-231
1,8713611,422,-1366,-493,-1495,-307,-38,441,167,-231
1,8713625,421,-1366,-500,-1495,-299,-40,441,167,-231
1,8713638,423,-1367,-495,-1484,-302,-39,441,167,-231
1,8713651,423,-1367,-495,-1484,-302,-39,441,167,-231
1,8713664,422,-1364,-495,-1489,-303,-35,438,170,-232
1,8713676,422,-1364,-495,-1489,-303,-35,438,170,-232
1,8713690,420,-1365,-496,-1490,-305,-35,438,170,-232
1,8713704,424,-1367,-497,-1492,-304,-44,438,170,-232
1,8713716,424,-1367,-497,-1492,-304,-44,438,170,-232
1,8713728,420,-1364,-497,-1487,-303,-40,438,170,-232
1,8713740,422,-1361,-496,-1494,-306,-38,438,170,-232
1,8713748,422,-1361,-496,-1494,-306,-38,438,170,-232
1,8713759,421,-1363,-498,-1489,-306,-38,438,170,-232
1,8713769,421,-1363,-498,-1489,-306,-38,438,170,-232
1,8713778,422,-1366,-498,-1489,-303,-36,435,169,-232
1,8713786,422,-1366,-498,-1489,-303,-36,435,169,-227
1,8713796,422,-1366,-498,-1489,-303,-36,435,169,-227
1,8713805,424,-1364,-497,-1495,-303,-36,435,169,-227
1,8713812,424,-1364,-497,-1495,-303,-36,435,169,-227
1,8713821,419,-1365,-498,-1496,-300,-40,435,169,-227
1,8713832,419,-1365,-498,-1496,-300,-40,435,169,-227
1,8713842,422,-1367,-498,-1497,-300,-38,435,169,-227
1,8713849,422,-1367,-498,-1497,-300,-38,435,169,-227
1,8713859,425,-1365,-501,-1497,-306,-35,435,169,-227
1,8713867,425,-1365,-501,-1497,-306,-35,435,169,-227
1,8713876,425,-1365,-501,-1497,-306,-35,435,169,-227
1,8713883,418,-1364,-498,-1497,-310,-39,435,169,-227
1,8713891,418,-1364,-498,-1497,-310,-39,435,169,-227
1,8713901,421,-1364,-496,-1498,-305,-35,438,168,-220
1,8713911,421,-1364,-496,-1498,-305,-35,438,168,-220
1,8713920,423,-1363,-499,-1495,-302,-51,438,168,-220
1,8713928,423,-1363,-499,-1495,-302,-51,438,168,-220
1,8713938,428,-1364,-496,-1495,-297,-43,438,168,-220
1,8713951,428,-1364,-496,-1495,-297,-43,438,168,-220
1,8713960,422,-1365,-497,-1492,-303,-38,438,168,-220
1,8713972,422,-1365,-497,-1492,-303,-38,438,168,-220
1,8713986,419,-1365,-503,-1495,-302,-43,438,168,-220
1,8713997,419,-1365,-503,-1495,-302,-43,438,168,-220
1,8714009,421,-1363,-499,-1494,-306,-35,438,168,-220
1,8714020,424,-1364,-494,-1490,-301,-41,442,162,-224
1,8714030,424,-1364,-494,-1490,-301,-41,442,162,-224
1,8714041,425,-1368,-498,-1494,-301,-41,442,162,-224
1,8714054,425,-1368,-498,-1494,-301,-41,442,162,-224
1,8714065,423,-1366,-495,-1494,-299,-38,442,162,-224
1,8714076,423,-1366,-495,-1494,-299,-38,442,162,-224
1,8714085,422,-1366,-494,-1489,-305,-40,442,162,-224
1,8714093,422,-1366,-494,-1489,-305,-40,442,162,-224
1,8714100,421,-1365,-500,-1490,-298,-40,442,162,-224
1,8714108,421,-1365,-500,-1490,-298,-40,442,162,-224
1,8714117,421,-1365,-500,-1490,-298,-40,442,162,-224
1,8714125,421,-1365,-497,-1497,-299,-35,442,162,-224
1,8714133,421,-1365,-497,-1497,-299,-35,442,162,-224
1,8714141,425,-1365,-501,-1497,-305,-44,442,162,-224
1,8714148,425,-1365,-501,-1497,-305,-44,442,162,-224
1,8714157,425,-1365,-501,-1497,-305,-44,442,162,-224
1,8714165,422,-1366,-494,-1495,-302,-38,438,162,-224
1,8714173,422,-1366,-494,-1495,-302,-38,438,162,-224
1,8714181,423,-1368,-498,-1492,-303,-38,438,162,-224
1,8714190,423,-1368,-498,-1492,-303,-38,438,162,-224
1,8714205,418,-1368,-500,-1489,-303,-44,438,162,-224
1,8714216,418,-1368,-500,-1489,-303,-44,438,162,-224
1,8714227,421,-1366,-504,-1497,-308,-39,438,162,-224
1,8714241,421,-1365,-500,-1487,-298,-41,438,162,-224
1,8714253,421,-1365,-500,-1487,-298,-41,438,162,-224
1,8714261,420,-1366,-496,-1492,-301,-45,438,162,-224
1,8714269,420,-1366,-496,-1492,-301,-45,438,162,-224
1,8714277,420,-1366,-496,-1492,-301,-45,438,162,-224
1,8714286,420,-1366,-491,-1494,-301,-45,445,165,-231
1,8714298,420,-1366,-491,-1494,-301,-45,445,165,-231
1,8714310,421,-1365,-497,-1490,-307,-43,445,165,-231
1,8714324,428,-1367,-497,-1489,-305,-31,445,165,-231
1,8714336,428,-1367,-497,-1489,-305,-31,445,165,-231
1,8714348,423,-1366,-496,-1492,-298,-35,445,165,-231
1,8714360,421,-1366,-500,-1497,-301,-40,445,165,-231
1,8714374,421,-1366,-500,-1497,-301,-40,445,165,-231
1,8714386,422,-1367,-497,-1495,-302,-40,445,165,-231
1,8714397,422,-1367,-497,-1495,-302,-40,445,165,-231
1,8714409,421,-1367,-498,-1488,-302,-37,439,171,-227
1,8714422,419,-1364,-496,-1494,-302,-40,439,171,-227
1,8714432,419,-1364,-496,-1494,-302,-40,439,171,-227
1,8714442,425,-1367,-494,-1494,-308,-41,439,171,-227
1,8714455,425,-1367,-494,-1494,-308,-41,439,171,-227
1,8714468,421,-1365,-498,-1496,-312,-35,439,171,-227
1,8714479,426,-1367,-495,-1494,-302,-33,439,171,-227
1,8714492,426,-1367,-495,-1494,-302,-33,439,171,-227
1,8714505,424,-1365,-497,-1486,-305,-34,439,171,-227
1,8714518,422,-1365,-496,-1494,-314,-31,439,171,-227
1,8714534,422,-1365,-496,-1494,-314,-31,430,164,-230
1,8714546,423,-1370,-495,-1494,-308,-39,430,164,-230
1,8714558,423,-1370,-495,-1494,-308,-39,430,164,-230
1,8714571,422,-1365,-500,-1499,-304,-40,430,164,-230
1,8714580,418,-1366,-502,-1500,-301,-45,430,164,-230
1,8714592,418,-1366,-502,-1500,-301,-45,430,164,-230
1,8714599,420,-1368,-496,-1498,-299,-41,430,164,-230
1,8714610,420,-1368,-496,-1498,-299,-41,430,164,-230
1,8714618,420,-1364,-503,-1490,-303,-42,430,164,-230
1,8714628,420,-1364,-503,-1490,-303,-42,430,164,-230
1,8714638,424,-1366,-497,-1491,-305,-45,430,164,-230
1,8714645,424,-1366,-497,-1491,-305,-45,436,162,-220
1,8714654,424,-1366,-497,-1491,-305,-45,436,162,-220
1,8714662,426,-1364,-493,-1488,-300,-37,436,162,-220
1,8714672,426,-1364,-493,-1488,-300,-37,436,162,-220
1,8714679,423,-1366,-498,-1485,-308,-37,436,162,-220
1,8714689,423,-1366,-498,-1485,-308,-37,436,162,-220
1,8714696,423,-1366,-498,-1485,-308,-37,436,162,-220
1,8714705,422,-1364,-491,-1491,-304,-38,436,162,-220
1,8714715,422,-1364,-491,-1491,-304,-38,436,162,-220
1,8714724,420,-1365,-500,-1490,-303,-38,436,162,-220
1,8714734,420,-1365,-500,-1490,-303,-38,436,162,-220
1,8714740,422,-1367,-499,-1493,-303,-34,436,162,-220
1,8714746,422,-1367,-499,-1493,-303,-34,436,162,-220
1,8714753,422,-1367,-499,-1493,-303,-34,436,162,-220
1,8714759,424,-1367,-500,-1489,-301,-40,436,162,-220
1,8714766,424,-1367,-500,-1489,-301,-40,436,162,-220
1,8714776,424,-1367,-500,-1489,-301,-40,436,162,-220
1,8714783,421,-1366,-493,-1489,-300,-42,436,168,-228
1,8714792,421,-1366,-493,-1489,-300,-42,436,168,-228
1,8714800,419,-1362,-500,-1493,-307,-42,436,168,-228
1,8714807,419,-1362,-500,-1493,-307,-42,436,168,-228
1,8714813,419,-1362,-500,-1493,-307,-42,436,168,-228
1,8714819,422,-1362,-503,-1491,-302,-35,436,168,-228
1,8714828,422,-1362,-503,-1491,-302,-35,436,168,-228
1,8714838,422,-1362,-503,-1491,-302,-35,436,168,-228
1,8714847,421,-1365,-494,-1493,-299,-41,436,168,-228
1,8714856,421,-1365,-494,-1493,-299,-41,436,168,-228
1,8714865,424,-1367,-499,-1501,-302,-38,436,168,-228
1,8714875,424,-1367,-499,-1501,-302,-38,436,168,-228
1,8714883,423,-1365,-502,-1492,-303,-38,436,168,-228
1,8714893,423,-1365,-502,-1492,-303,-38,436,168,-228
1,8714900,422,-1368,-490,-1490,-301,-40,437,167,-231
1,8714910,422,-1368,-490,-1490,-301,-40,437,167,-231
1,8714918,425,-1366,-496,-1490,-297,-41,437,167,-231
1,8714929,425,-1366,-496,-1490,-297,-41,437,167,-231
1,8714939,424,-1368,-495,-1492,-300,-40,437,167,-231
1,8714947,424,-1368,-495,-1492,-300,-40,437,167,-231
1,8714957,424,-1368,-495,-1492,-300,-40,437,167,-231
1,8714964,421,-1366,-502,-1497,-305,-45,437,167,-231
1,8714974,421,-1366,-502,-1497,-305,-45,437,167,-231
1,8714985,421,-1369,-500,-1499,-307,-44,437,167,-231
1,8714993,421,-1369,-500,-1499,-307,-44,437,167,-231
1,8715002,418,-1369,-501,-1488,-299,-34,437,167,-231
1,8715013,418,-1369,-501,-1488,-299,-34,437,167,-231
1,8715020,419,-1364,-484,-1485,-303,-35,444,166,-226
1,8715029,419,-1364,-484,-1485,-303,-35,444,166,-226
1,8715038,421,-1365,-491,-1495,-309,-36,444,166,-226
1,8715048,421,-1365,-491,-1495,-309,-36,444,166,-226
1,8715058,422,-1365,-501,-1495,-313,-40,444,166,-226
1,8715065,422,-1365,-501,-1495,-313,-40,444,166,-226
1,8715075,422,-1365,-501,-1495,-313,-40,444,166,-226
1,8715081,424,-1367,-498,-1495,-297,-34,444,166,-226
1,8715087,424,-1367,-498,-1495,-297,-34,444,166,-226
1,8715094,424,-1367,-498,-1495,-297,-34,444,166,-226
1,8715100,423,-1366,-498,-1490,-300,-35,444,166,-226
1,8715106,423,-1366,-498,-1490,-300,-35,444,166,-226
1,8715112,423,-1366,-498,-1490,-300,-35,444,166,-226
1,8715119,421,-1366,-498,-1491,-304,-42,444,166,-226
1,8715124,421,-1366,-498,-1491,-304,-42,444,166,-226
1,8715130,421,-1366,-498,-1491,-304,-42,444,166,-226
1,8715137,421,-1366,-498,-1491,-304,-42,444,166,-226
1,8715147,421,-1365,-495,-1489,-297,-42,440,166,-224
1,8715156,421,-1365,-495,-1489,-297,-42,440,166,-224
1,8715164,422,-1369,-496,-1492,-306,-38,440,166,-224
1,8715173,422,-1369,-496,-1492,-306,-38,440,166,-224
1,8715181,418,-1364,-497,-1497,-310,-36,440,166,-224
1,8715187,418,-1364,-497,-1497,-310,-36,440,166,-224
1,8715196,418,-1364,-497,-1497,-310,-36,440,166,-224
1,8715206,420,-1368,-495,-1492,-307,-34,440,166,-224
1,8715214,420,-1368,-495,-1492,-307,-34,440,166,-224
1,8715225,424,-1367,-497,-1492,-307,-36,440,166,-224
1,8715232,424,-1367,-497,-1492,-307,-36,440,166,-224
1,8715241,425,-1368,-498,-1489,-302,-39,440,166,-224
1,8715252,425,-1368,-498,-1489,-302,-39,440,166,-224
1,8715261,425,-1365,-496,-1493,-300,-41,440,166,-224
1,8715273,425,-1365,-496,-1493,-300,-41,440,166,-224
1,8715282,420,-1368,-495,-1488,-299,-42,432,166,-224
1,8715288,420,-1368,-495,-1488,-299,-42,432,166,-224
1,8715294,420,-1368,-495,-1488,-299,-42,432,166,-224
1,8715300,421,-1368,-495,-1495,-299,-45,432,166,-224
1,8715307,421,-1368,-495,-1495,-299,-45,432,166,-224
1,8715317,421,-1368,-495,-1495,-299,-45,432,166,-224
1,8715327,420,-1366,-495,-1499,-298,-40,432,166,-224
1,8715335,420,-1366,-495,-1499,-298,-40,432,166,-224
1,8715344,420,-1366,-495,-1499,-298,-40,432,166,-224
1,8715355,420,-1366,-495,-1499,-298,-40,432,166,-224
1,8715364,423,-1365,-495,-1490,-310,-42,432,166,-224
1,8715374,423,-1365,-495,-1490,-310,-42,432,166,-224
1,8715381,420,-1366,-492,-1490,-308,-39,432,166,-224
1,8715392,420,-1366,-492,-1490,-308,-39,432,166,-224
1,8715400,419,-1366,-493,-1491,-300,-35,439,161,-233
1,8715410,419,-1366,-493,-1491,-300,-35,439,161,-233
1,8715419,419,-1364,-493,-1494,-307,-42,439,161,-233
1,8715428,419,-1364,-493,-1494,-307,-42,439,161,-233
1,8715437,419,-1364,-493,-1494,-307,-42,439,161,-233
1,8715447,420,-1364,-495,-1490,-299,-49,439,161,-233
1,8715455,420,-1364,-495,-1490,-299,-49,439,161,-233
1,8715462,422,-1369,-497,-1488,-306,-42,439,161,-233
1,8715472,422,-1369,-497,-1488,-306,-42,439,161,-233
1,8715481,423,-1365,-496,-1491,-305,-36,439,161,-233
1,8715490,423,-1365,-496,-1491,-305,-36,439,161,-233
1,8715499,422,-1365,-502,-1493,-299,-40,439,161,-233
1,8715510,422,-1365,-502,-1493,-299,-40,439,161,-233
1,8715518,422,-1364,-495,-1487,-300,-40,432,168,-228
1,8715529,422,-1364,-495,-1487,-300,-40,432,168,-228
1,8715538,422,-1365,-495,-1491,-307,-39,432,168,-228
1,8715548,422,-1365,-495,-1491,-307,-39,432,168,-228
1,8715557,422,-1365,-495,-1491,-307,-39,432,168,-228
1,8715569,425,-1365,-493,-1491,-305,-38,432,168,-228
1,8715582,421,-1363,-499,-1491,-301,-35,432,168,-228
1,8715596,421,-1363,-499,-1491,-301,-35,432,168,-228
1,8715609,423,-1361,-502,-1490,-301,-42,432,168,-228
1,8715619,421,-1368,-500,-1490,-306,-42,432,168,-228
1,8715632,421,-1368,-500,-1490,-306,-42,432,168,-228
1,8715646,420,-1364,-496,-1490,-306,-39,436,156,-226
1,8715660,423,-1365,-501,-1494,-305,-40,436,156,-226
1,8715669,423,-1365,-501,-1494,-305,-40,436,156,-226
1,8715681,427,-1363,-502,-1494,-304,-47,436,156,-226
1,8715696,427,-1363,-502,-1494,-304,-47,436,156,-226
1,8715710,424,-1367,-499,-1488,-304,-39,436,156,-226
1,8715719,421,-1367,-497,-1488,-301,-47,436,156,-226
1,8715731,421,-1367,-497,-1488,-301,-47,436,156,-226
1,8715741,423,-1366,-500,-1497,-308,-38,436,156,-226
1,8715748,423,-1366,-500,-1497,-308,-38,436,156,-226
1,8715757,423,-1366,-500,-1497,-308,-38,436,156,-226
1,8715764,424,-1367,-494,-1489,-305,-45,436,156,-226
1,8715778,424,-1367,-494,-1489,-305,-45,436,156,-226
1,8715789,422,-1365,-494,-1491,-306,-43,436,160,-218
1,8715802,423,-1364,-503,-1498,-302,-40,436,160,-218
1,8715810,423,-1364,-503,-1498,-302,-40,436,160,-218
1,8715819,425,-1368,-500,-1494,-299,-42,436,160,-218
1,8715831,425,-1368,-500,-1494,-299,-42,436,160,-218
1,8715843,422,-1366,-497,-1490,-299,-36,436,160,-218
1,8715856,422,-1366,-497,-1490,-299,-36,436,160,-218
1,8715866,421,-1366,-493,-1493,-298,-34,436,160,-218
1,8715874,421,-1366,-493,-1493,-298,-34,436,160,-218
1,8715881,422,-1369,-498,-1496,-303,-42,436,160,-218
1,8715890,422,-1369,-498,-1496,-303,-42,436,160,-218
1,8715899,421,-1367,-492,-1497,-297,-44,442,164,-238
1,8715914,421,-1367,-492,-1497,-297,-44,442,164,-238
1,8715928,422,-1366,-497,-1495,-300,-36,442,164,-238
1,8715938,422,-1366,-497,-1495,-300,-36,442,164,-238
1,8715951,422,-1364,-499,-1492,-296,-37,442,164,-238
1,8715965,425,-1366,-496,-1494,-306,-41,442,164,-238
1,8715978,425,-1367,-495,-1491,-304,-40,442,164,-238
1,8715987,425,-1367,-495,-1491,-304,-40,442,164,-238
1,8716000,423,-1363,-502,-1491,-303,-38,442,164,-238
1,8716014,423,-1363,-502,-1491,-303,-38,442,164,-238
1,8716027,418,-1364,-500,-1486,-303,-41,429,167,-231
1,8716037,418,-1364,-500,-1486,-303,-41,429,167,-231
1,8716049,423,-1368,-494,-1489,-301,-36,429,167,-231
1,8716059,423,-1368,-499,-1497,-302,-36,429,167,-231
1,8716070,423,-1368,-499,-1497,-302,-36,429,167,-231
1,8716082,422,-1366,-499,-1490,-301,-44,429,167,-231
1,8716090,422,-1366,-499,-1490,-301,-44,429,167,-231
1,8716098,422,-1366,-499,-1490,-301,-44,429,167,-231
1,8716106,422,-1364,-499,-1488,-306,-42,429,167,-231
1,8716114,422,-1364,-499,-1488,-306,-42,429,167,-231
1,8716123,420,-1367,-495,-1490,-304,-39,429,167,-231
1,8716131,420,-1367,-495,-1490,-304,-39,429,167,-231
1,8716139,421,-1365,-495,-1491,-299,-36,443,163,-225
1,8716147,421,-1365,-495,-1491,-299,-36,443,163,-225
1,8716155,421,-1365,-495,-1491,-299,-36,443,163,-225
1,8716164,420,-1366,-495,-1493,-305,-42,443,163,-225
1,8716172,420,-1366,-495,-1493,-305,-42,443,163,-225
1,8716181,423,-1368,-494,-1493,-305,-36,443,163,-225
1,8716190,423,-1368,-494,-1493,-305,-36,443,163,-225
1,8716198,421,-1366,-502,-1492,-304,-36,443,163,-225
1,8716208,421,-1366,-502,-1492,-304,-36,443,163,-225
1,8716217,421,-1366,-502,-1492,-304,-36,443,163,-225
1,8716226,420,-1364,-502,-1492,-305,-36,443,163,-225
1,8716240,421,-1366,-495,-1495,-298,-38,443,163,-225
1,8716253,421,-1366,-495,-1495,-298,-38,443,163,-225
1,8716265,426,-1366,-498,-1495,-304,-43,434,174,-220
1,8716273,426,-1366,-498,-1495,-304,-43,434,174,-220
1,8716285,424,-1365,-495,-1488,-301,-47,434,174,-220
1,8716299,424,-1366,-499,-1485,-296,-41,434,174,-220
1,8716311,424,-1366,-499,-1485,-296,-41,434,174,-220
1,8716322,419,-1365,-498,-1494,-302,-32,434,174,-220
1,8716335,419,-1365,-498,-1494,-302,-32,434,174,-220
1,8716346,421,-1363,-499,-1492,-301,-38,434,174,-220
1,8716359,425,-1366,-498,-1495,-307,-39,434,174,-220
1,8716371,425,-1366,-498,-1495,-307,-39,434,174,-220
1,8716384,423,-1365,-501,-1496,-305,-45,434,174,-220
1,8716397,423,-1365,-501,-1496,-305,-45,434,174,-220
1,8716410,423,-1366,-496,-1500,-307,-40,439,163,-235
1,8716422,419,-1365,-495,-1492,-302,-43,439,163,-235
1,8716433,419,-1365,-495,-1492,-302,-43,439,163,-235
1,8716441,423,-1368,-492,-1486,-306,-31,439,163,-235
1,8716449,423,-1368,-492,-1486,-306,-31,439,163,-235
1,8716457,423,-1368,-492,-1486,-306,-31,439,163,-235
1,8716470,420,-1367,-497,-1488,-297,-39,439,163,-235
1,8716481,422,-1369,-502,-1483,-305,-45,439,163,-235
1,8716490,422,-1369,-502,-1483,-305,-45,439,163,-235
1,8716503,424,-1364,-498,-1488,-299,-42,439,163,-235
1,8716515,424,-1364,-498,-1488,-299,-42,439,163,-235
1,8716526,423,-1366,-493,-1495,-297,-40,434,162,-230
1,8716538,423,-1366,-493,-1495,-297,-40,434,162,-230
1,8716551,420,-1366,-495,-1492,-302,-45,434,162,-230
1,8716562,418,-1363,-495,-1493,-304,-48,434,162,-230
1,8716573,418,-1363,-495,-1493,-304,-48,434,162,-230
1,8716585,421,-1367,-495,-1490,-301,-38,434,162,-230
1,8716594,421,-1367,-495,-1490,-301,-38,434,162,-230
1,8716604,423,-1364,-495,-1487,-303,-43,434,162,-230
1,8716614,423,-1364,-495,-1487,-303,-43,434,162,-230
1,8716625,421,-1363,-493,-1492,-308,-44,434,162,-230
1,8716636,421,-1363,-493,-1492,-308,-44,434,162,-230
1,8716643,420,-1366,-494,-1497,-304,-44,439,167,-229
1,8716652,420,-1366,-494,-1497,-304,-44,439,167,-229
1,8716660,422,-1368,-495,-1497,-301,-44,439,167,-229
1,8716669,422,-1368,-495,-1497,-301,-44,439,167,-229
1,8716681,425,-1366,-494,-1489,-303,-38,439,167,-229
1,8716691,425,-1366,-494,-1489,-303,-38,439,167,-229
1,8716703,423,-1367,-497,-1490,-299,-41,439,167,-229
1,8716712,423,-1367,-497,-1490,-299,-41,439,167,-229
1,8716725,422,-1368,-498,-1489,-301,-45,439,167,-229
1,8716737,422,-1368,-498,-1489,-301,-45,439,167,-229
1,8716745,417,-1367,-499,-1487,-305,-39,439,167,-229
1,8716752,417,-1367,-499,-1487,-305,-39,439,167,-229
1,8716761,417,-1366,-494,-1484,-307,-35,435,167,-229
1,8716769,417,-1366,-494,-1484,-307,-35,435,167,-229
1,8716783,421,-1368,-494,-1489,-302,-36,435,167,-229
1,8716796,421,-1368,-494,-1489,-302,-36,435,167,-229
1,8716806,425,-1368,-498,-1495,-297,-40,435,167,-229
1,8716816,425,-1368,-498,-1495,-297,-40,435,167,-229
1,8716825,423,-1367,-495,-1489,-303,-42,435,167,-229
1,8716838,423,-1367,-495,-1489,-303,-42,435,167,-229
1,8716853,427,-1363,-498,-1493,-306,-47,435,167,-229
1,8716866,421,-1368,-498,-1493,-302,-38,435,167,-229
1,8716875,421,-1368,-498,-1493,-302,-38,435,167,-229
1,8716889,422,-1368,-499,-1485,-303,-44,435,167,-229
1,8716902,422,-1365,-494,-1492,-300,-47,440,168,-230
1,8716914,422,-1365,-494,-1492,-300,-47,440,168,-230
1,8716925,422,-1366,-495,-1491,-293,-39,440,168,-230
1,8716937,422,-1366,-495,-1491,-293,-39,440,168,-230
1,8716950,421,-1367,-499,-1489,-297,-34,440,168,-230
1,8716962,421,-1364,-502,-1490,-301,-43,440,168,-230
1,8716975,421,-1364,-502,-1490,-301,-43,440,168,-230
1,8716983,424,-1364,-499,-1490,-301,-41,440,168,-230
1,8716991,424,-1364,-499,-1490,-301,-41,440,168,-230
1,8716997,424,-1364,-499,-1490,-301,-41,440,168,-230
1,8717005,423,-1368,-494,-1498,-304,-39,440,168,-230
1,8717015,423,-1368,-494,-1498,-304,-39,440,168,-230
1,8717028,424,-1368,-499,-1493,-306,-45,438,166,-236
1,8717040,421,-1367,-499,-1489,-299,-37,438,166,-236
1,8717049,421,-1367,-499,-1489,-299,-37,438,166,-236
1,8717060,419,-1368,-492,-1490,-295,-38,438,166,-236
1,8717073,419,-1368,-492,-1490,-295,-38,438,166,-236
1,8717083,422,-1369,-498,-1494,-297,-41,438,166,-236
1,8717091,422,-1369,-498,-1494,-297,-41,438,166,-236
1,8717100,425,-1366,-496,-1494,-301,-35,438,166,-236
1,8717109,425,-1366,-496,-1494,-301,-35,438,166,-236
1,8717115,425,-1366,-496,-1494,-301,-35,438,166,-236
1,8717122,425,-1365,-495,-1489,-300,-36,438,166,-236
1,8717130,425,-1365,-495,-1489,-300,-36,438,166,-236
1,8717138,422,-1364,-496,-1487,-302,-43,438,166,-236
1,8717147,422,-1364,-496,-1487,-302,-43,430,166,-226
1,8717155,422,-1364,-496,-1487,-302,-43,430,166,-226
1,8717163,422,-1363,-503,-1487,-298,-42,430,166,-226
1,8717172,422,-1363,-503,-1487,-298,-42,430,166,-226
1,8717185,420,-1365,-498,-1487,-294,-39,430,166,-226
1,8717194,420,-1365,-498,-1487,-294,-39,430,166,-226
1,8717207,424,-1367,-498,-1483,-301,-33,430,166,-226
1,8717217,424,-1367,-498,-1483,-301,-33,430,166,-226
1,8717230,421,-1364,-500,-1492,-304,-44,430,166,-226
1,8717242,422,-1365,-498,-1496,-301,-40,430,166,-226
1,8717255,422,-1365,-498,-1496,-301,-40,430,166,-226
1,8717264,424,-1366,-498,-1500,-310,-38,434,168,-226
1,8717275,424,-1366,-498,-1500,-310,-38,434,168,-226
1,8717285,423,-1367,-496,-1490,-297,-44,434,168,-226
1,8717298,423,-1367,-496,-1490,-297,-44,434,168,-226
1,8717310,425,-1367,-495,-1496,-300,-42,434,168,-226
1,8717324,424,-1366,-499,-1489,-300,-42,434,168,-226
1,8717332,424,-1366,-499,-1489,-300,-42,434,168,-226
1,8717344,420,-1367,-497,-1492,-310,-40,434,168,-226
1,8717357,420,-1367,-497,-1492,-310,-40,434,168,-226
1,8717370,418,-1363,-497,-1490,-305,-40,434,168,-226
1,8717379,418,-1363,-497,-1490,-305,-40,434,168,-226
1,8717392,419,-1364,-504,-1491,-310,-39,434,168,-226
1,8717405,424,-1366,-492,-1494,-301,-33,434,160,-228
1,8717413,424,-1366,-492,-1494,-301,-33,434,160,-228
1,8717426,425,-1366,-497,-1496,-299,-33,434,160,-228
1,8717435,425,-1366,-497,-1496,-299,-33,434,160,-228
1,8717448,425,-1367,-493,-1494,-301,-39,434,160,-228
1,8717460,424,-1370,-495,-1486,-302,-42,434,160,-228
1,8717473,424,-1370,-495,-1486,-302,-42,434,160,-228
1,8717483,426,-1366,-495,-1490,-304,-45,434,160,-228
1,8717494,426,-1366,-495,-1490,-304,-45,434,160,-228
1,8717505,424,-1367,-500,-1486,-305,-34,434,160,-228
1,8717518,424,-1367,-500,-1486,-305,-34,434,160,-228
1,8717527,421,-1363,-490,-1493,-301,-38,431,163,-223
1,8717535,421,-1363,-490,-1493,-301,-38,431,163,-223
1,8717543,422,-1364,-495,-1492,-299,-43,431,163,-223
1,8717550,422,-1364,-495,-1492,-299,-43,431,163,-223
1,8717561,421,-1368,-502,-1487,-304,-42,431,163,-223
1,8717576,421,-1368,-502,-1487,-304,-42,431,163,-223
1,8717589,421,-1366,-501,-1488,-295,-41,431,163,-223
1,8717597,421,-1366,-501,-1488,-295,-41,431,163,-223
1,8717609,424,-1368,-498,-1492,-302,-39,431,163,-223
1,8717624,425,-1366,-495,-1494,-303,-40,431,163,-223
1,8717637,425,-1366,-495,-1494,-303,-40,431,163,-223
1,8717646,424,-1366,-494,-1491,-298,-41,441,163,-225
1,8717659,424,-1366,-494,-1491,-298,-41,441,163,-225
1,8717671,421,-1368,-496,-1491,-304,-39,441,163,-225
1,8717684,421,-1368,-496,-1491,-304,-39,441,163,-225
1,8717697,421,-1368,-496,-1491,-304,-39,441,163,-225
1,8717710,422,-1369,-500,-1494,-305,-39,441,163,-225
1,8717722,420,-1368,-500,-1497,-300,-44,441,163,-225
1,8717734,420,-1368,-500,-1497,-300,-44,441,163,-225
1,8717742,426,-1366,-501,-1494,-299,-35,441,163,-225
1,8717750,426,-1366,-501,-1494,-299,-35,441,163,-225
1,8717758,426,-1366,-501,-1494,-299,-35,441,163,-225
1,8717768,420,-1364,-494,-1488,-307,-47,440,166,-230
1,8717778,420,-1364,-494,-1488,-307,-47,440,166,-230
1,8717792,420,-1365,-493,-1491,-306,-43,440,166,-230
1,8717805,424,-1365,-496,-1493,-306,-44,440,166,-230
1,8717814,424,-1365,-496,-1493,-306,-44,440,166,-230
1,8717827,424,-1365,-496,-1488,-304,-39,440,166,-230
1,8717841,424,-1367,-501,-1490,-305,-42,440,166,-230
1,8717853,424,-1367,-501,-1490,-305,-42,440,166,-230
1,8717864,424,-1367,-501,-1490,-305,-42,440,166,-230
1,8717877,424,-1367,-501,-1490,-305,-42,440,166,-230
1,8717890,422,-1367,-495,-1495,-303,-43,435,165,-225
1,8717903,421,-1367,-497,-1480,-310,-40,435,165,-225
1,8717914,421,-1367,-497,-1480,-310,-40,435,165,-225
1,8717926,421,-1366,-496,-1484,-308,-42,435,165,-225
1,8717938,421,-1366,-496,-1484,-308,-42,435,165,-225
1,8717953,424,-1366,-497,-1481,-302,-40,435,165,-225
1,8717967,424,-1365,-500,-1484,-303,-38,435,165,-225
1,8717979,423,-1366,-496,-1485,-304,-39,435,165,-225
1,8717991,423,-1366,-496,-1485,-304,-39,435,165,-225
1,8718004,425,-1366,-501,-1488,-301,-47,435,165,-225
1,8718017,425,-1366,-501,-1488,-301,-47,435,165,-225
1,8718029,425,-1363,-493,-1485,-309,-45,439,161,-223
1,8718043,424,-1368,-494,-1491,-304,-42,439,161,-223
1,8718058,424,-1368,-494,-1491,-304,-42,439,161,-223
1,8718070,423,-1367,-490,-1491,-298,-41,439,161,-223
1,8718082,422,-1366,-501,-1489,-298,-42,439,161,-223
1,8718090,422,-1366,-501,-1489,-298,-42,439,161,-223
1,8718099,422,-1366,-501,-1489,-298,-42,439,161,-223
1,8718106,421,-1363,-498,-1489,-302,-38,439,161,-223
1,8718114,421,-1363,-498,-1489,-302,-38,439,161,-223
1,8718123,426,-1366,-497,-1494,-304,-48,439,161,-223
1,8718132,426,-1366,-497,-1494,-304,-48,439,161,-223
1,8718140,425,-1363,-494,-1494,-304,-46,442,160,-224
1,8718148,425,-1363,-494,-1494,-304,-46,442,160,-224
1,8718156,425,-1363,-494,-1494,-304,-46,442,160,-224
1,8718164,424,-1365,-498,-1492,-303,-43,442,160,-224
1,8718173,424,-1365,-498,-1492,-303,-43,442,160,-224
1,8718181,417,-1367,-500,-1495,-306,-40,442,160,-224
1,8718190,417,-1367,-500,-1495,-306,-40,442,160,-224
1,8718199,423,-1366,-498,-1493,-304,-37,442,160,-224
1,8718210,423,-1366,-498,-1493,-304,-37,442,160,-224
1,8718220,423,-1367,-494,-1494,-306,-39,442,160,-224
1,8718229,423,-1367,-494,-1494,-306,-39,442,160,-224
1,8718237,423,-1367,-494,-1494,-306,-39,442,160,-224
1,8718246,423,-1364,-498,-1494,-297,-42,442,160,-224
1,8718256,423,-1364,-498,-1494,-297,-42,442,160,-224
1,8718264,424,-1363,-495,-1499,-303,-39,439,167,-231
1,8718277,424,-1363,-495,-1499,-303,-39,439,167,-231
1,8718290,422,-1367,-501,-1494,-301,-45,439,167,-231
1,8718303,422,-1367,-500,-1499,-303,-47,439,167,-231
1,8718315,422,-1367,-500,-1499,-303,-47,439,167,-231
1,8718327,423,-1367,-499,-1493,-301,-39,439,167,-231
1,8718338,423,-1367,-499,-1493,-301,-39,439,167,-231
1,8718349,425,-1365,-496,-1494,-313,-37,439,167,-231
1,8718362,420,-1365,-498,-1494,-310,-33,439,167,-231
1,8718375,420,-1365,-498,-1494,-310,-33,439,167,-231
1,8718387,423,-1368,-502,-1488,-301,-33,440,162,-226
1,8718399,423,-1368,-502,-1488,-301,-33,440,162,-226
1,8718412,425,-1364,-502,-1492,-305,-42,440,162,-226
1,8718423,428,-1366,-497,-1494,-305,-38,440,162,-226
1,8718435,428,-1366,-497,-1494,-305,-38,440,162,-226
1,8718448,425,-1364,-494,-1487,-310,-41,440,162,-226
1,8718459,426,-1366,-498,-1484,-303,-40,440,162,-226
1,8718472,426,-1366,-498,-1484,-303,-40,440,162,-226
1,8718485,421,-1366,-501,-1486,-305,-43,440,162,-226
1,8718497,421,-1366,-501,-1486,-305,-43,440,162,-226
1,8718510,420,-1366,-501,-1486,-306,-44,440,162,-226
1,8718521,423,-1362,-493,-1491,-300,-43,439,167,-229
1,8718534,423,-1362,-493,-1491,-300,-43,439,167,-229
1,8718546,423,-1364,-496,-1491,-297,-39,439,167,-229
1,8718559,423,-1364,-496,-1491,-297,-39,439,167,-229
1,8718568,425,-1369,-498,-1485,-299,-41,439,167,-229
1,8718580,422,-1366,-495,-1485,-304,-42,439,167,-229
1,8718594,422,-1366,-495,-1485,-304,-42,439,167,-229
1,8718604,423,-1368,-502,-1490,-301,-45,439,167,-229
1,8718615,423,-1368,-502,-1490,-301,-45,439,167,-229
1,8718625,423,-1366,-494,-1492,-305,-43,439,167,-229
1,8718633,423,-1366,-494,-1492,-305,-43,439,167,-229
1,8718645,424,-1367,-494,-1488,-305,-39,439,167,-225
1,8718653,424,-1367,-494,-1488,-305,-39,439,167,-225
1,8718665,423,-1366,-493,-1495,-302,-40,439,167,-225
1,8718676,423,-1366,-493,-1495,-302,-40,439,167,-225
1,8718686,419,-1362,-499,-1492,-305,-43,439,167,-225
1,8718693,419,-1362,-499,-1492,-305,-43,439,167,-225
1,8718702,420,-1363,-499,-1495,-302,-41,439,167,-225
1,8718709,420,-1363,-499,-1495,-302,-41,439,167,-225
1,8718717,420,-1363,-499,-1495,-302,-41,439,167,-225
1,8718730,422,-1368,-501,-1492,-305,-47,439,167,-225
1,8718738,422,-1368,-501,-1492,-305,-47,439,167,-225
1,8718746,425,-1365,-501,-1497,-300,-42,439,167,-225
1,8718754,425,-1365,-501,-1497,-300,-42,439,167,-225
1,8718763,425,-1364,-496,-1494,-303,-45,439,159,-231
1,8718775,425,-1364,-496,-1494,-303,-45,439,159,-231
1,8718784,422,-1368,-499,-1490,-300,-40,439,159,-231
1,8718793,422,-1368,-499,-1490,-300,-40,439,159,-231
1,8718803,420,-1370,-498,-1495,-308,-45,439,159,-231
1,8718813,420,-1370,-498,-1495,-308,-45,439,159,-231
1,8718821,424,-1365,-495,-1494,-310,-41,439,159,-231
1,8718831,424,-1365,-495,-1494,-310,-41,439,159,-231
1,8718839,424,-1365,-495,-1494,-310,-41,439,159,-231
1,8718850,427,-1366,-501,-1500,-310,-41,439,159,-231
1,8718860,425,-1366,-498,-1497,-308,-49,439,159,-231
1,8718870,425,-1366,-498,-1497,-308,-49,439,159,-231
1,8718881,423,-1366,-499,-1495,-305,-48,438,160,-232
1,8718888,423,-1366,-499,-1495,-305,-48,438,160,-232
1,8718900,421,-1367,-496,-1495,-304,-41,438,160,-232
1,8718907,421,-1367,-496,-1495,-304,-41,438,160,-232
1,8718917,421,-1367,-496,-1495,-304,-41,438,160,-232
1,8718928,424,-1364,-500,-1500,-301,-38,438,160,-232
1,8718939,424,-1364,-500,-1500,-301,-38,438,160,-232
1,8718949,426,-1366,-499,-1500,-305,-46,438,160,-232
1,8718957,426,-1366,-499,-1500,-305,-46,438,160,-232
1,8718970,426,-1366,-499,-1500,-305,-46,438,160,-232
1,8718984,423,-1368,-499,-1492,-303,-43,438,160,-232
1,8718997,423,-1368,-499,-1492,-303,-43,438,160,-232
1,8719005,419,-1368,-496,-1487,-303,-47,438,160,-232
1,8719019,419,-1368,-496,-1487,-303,-47,438,160,-232
1,8719031,419,-1368,-496,-1487,-303,-47,437,173,-227
1,8719040,425,-1367,-496,-1497,-305,-41,437,173,-227
1,8719051,425,-1367,-496,-1497,-305,-41,437,173,-227
1,8719064,425,-1367,-498,-1495,-303,-45,437,173,-227
1,8719077,425,-1367,-498,-1495,-303,-45,437,173,-227
1,8719084,424,-1367,-492,-1491,-304,-42,437,173,-227
1,8719092,424,-1367,-492,-1491,-304,-42,437,173,-227
1,8719100,421,-1365,-497,-1488,-310,-42,437,173,-227
1,8719108,421,-1365,-497,-1488,-310,-42,437,173,-227
1,8719116,421,-1365,-497,-1488,-310,-42,437,173,-227
1,8719123,421,-1366,-498,-1484,-309,-42,437,173,-227
1,8719131,421,-1366,-498,-1484,-309,-42,437,173,-227
1,8719139,421,-1366,-498,-1484,-309,-42,437,173,-227
1,8719148,422,-1367,-490,-1488,-302,-37,441,169,-229
1,8719156,422,-1367,-490,-1488,-302,-37,441,169,-229
1,8719167,423,-1367,-498,-1492,-301,-39,441,169,-229
1,8719175,423,-1367,-498,-1492,-301,-39,441,169,-229
1,8719188,425,-1367,-495,-1494,-299,-39,441,169,-229
1,8719201,423,-1365,-499,-1490,-302,-41,441,169,-229
1,8719214,423,-1365,-499,-1490,-302,-41,441,169,-229
1,8719223,422,-1369,-491,-1489,-301,-41,441,169,-229
1,8719236,422,-1369,-491,-1489,-301,-41,441,169,-229
1,8719249,425,-1366,-496,-1487,-300,-39,441,169,-229
1,8719258,425,-1366,-496,-1487,-300,-39,441,169,-229
1,8719266,424,-1366,-496,-1487,-300,-44,446,164,-234
1,8719275,424,-1366,-496,-1487,-300,-44,446,164,-234
1,8719283,424,-1365,-501,-1494,-302,-51,446,164,-234
1,8719290,424,-1365,-501,-1494,-302,-51,446,164,-234
1,8719303,423,-1366,-498,-1486,-298,-47,446,164,-234
1,8719318,423,-1366,-498,-1486,-298,-47,446,164,-234
1,8719327,423,-1361,-499,-1490,-300,-47,446,164,-234
1,8719338,423,-1361,-499,-1490,-300,-47,446,164,-234
1,8719349,424,-1367,-500,-1494,-298,-40,446,164,-234
1,8719364,426,-1367,-497,-1492,-300,-46,446,164,-234
1,8719377,426,-1367,-497,-1492,-300,-46,446,164,-234
1,8719388,422,-1367,-497,-1490,-306,-42,440,170,-230
1,8719400,423,-1369,-499,-1494,-310,-43,440,170,-230
1,8719409,423,-1369,-499,-1494,-310,-43,440,170,-230
1,8719421,424,-1367,-498,-1493,-304,-45,440,170,-230
1,8719434,424,-1367,-498,-1493,-304,-45,440,170,-230
1,8719443,426,-1366,-494,-1494,-300,-41,440,170,-230
1,8719456,426,-1366,-494,-1494,-300,-41,440,170,-230
1,8719469,426,-1365,-496,-1489,-300,-42,440,170,-230
1,8719482,422,-1367,-495,-1492,-303,-43,440,170,-230
1,8719491,422,-1367,-495,-1492,-303,-43,440,170,-230
1,8719504,422,-1365,-496,-1496,-303,-38,440,170,-230
1,8719516,422,-1365,-496,-1496,-303,-38,440,170,-230
1,8719525,421,-1366,-491,-1493,-308,-42,440,170,-230
1,8719538,421,-1366,-491,-1493,-308,-42,440,170,-230
1,8719547,424,-1364,-491,-1490,-300,-48,440,170,-230
1,8719560,421,-1367,-500,-1491,-299,-46,440,170,-230
1,8719570,421,-1367,-500,-1491,-299,-46,440,170,-230
1,8719584,423,-1367,-499,-1491,-298,-49,440,170,-230
1,8719593,423,-1367,-499,-1491,-298,-49,440,170,-230
1,8719605,424,-1369,-502,-1492,-306,-46,440,170,-230
1,8719618,424,-1369,-502,-1492,-306,-46,440,170,-230
1,8719631,422,-1369,-500,-1497,-304,-45,440,170,-230
1,8719640,424,-1364,-495,-1497,-308,-39,440,164,-226
1,8719652,424,-1364,-495,-1497,-308,-39,440,164,-226
1,8719667,424,-1365,-490,-1495,-309,-43,440,164,-226
1,8719680,422,-1364,-501,-1496,-304,-49,440,164,-226
1,8719690,422,-1364,-501,-1496,-304,-49,440,164,-226
1,8719704,422,-1366,-498,-1487,-303,-45,440,164,-226
1,8719716,422,-1366,-498,-1487,-303,-45,440,164,-226
1,8719729,420,-1367,-493,-1487,-302,-44,440,164,-226
1,8719740,424,-1365,-495,-1488,-305,-39,440,164,-226
1,8719748,424,-1365,-495,-1488,-305,-39,440,164,-226
1,8719757,424,-1365,-495,-1488,-305,-39,440,164,-226
1,8719764,425,-1365,-491,-1495,-299,-45,433,163,-227
1,8719773,425,-1365,-491,-1495,-299,-45,433,163,-227
1,8719784,424,-1369,-494,-1495,-307,-48,433,163,-227
1,8719793,424,-1369,-494,-1495,-307,-48,433,163,-227
1,8719801,425,-1368,-496,-1497,-303,-43,433,163,-227
1,8719809,425,-1368,-496,-1497,-303,-43,433,163,-227
1,8719817,425,-1368,-496,-1497,-303,-43,433,163,-227
1,8719825,425,-1368,-496,-1497,-303,-43,433,163,-227
1,8719836,425,-1368,-496,-1497,-303,-43,433,163,-227
1,8719845,425,-1367,-496,-1489,-303,-39,433,163,-227
1,8719854,425,-1367,-496,-1489,-303,-39,433,163,-227
1,8719864,423,-1368,-499,-1490,-300,-37,433,163,-227
1,8719874,423,-1368,-499,-1490,-300,-37,433,163,-227
1,8719888,420,-1364,-493,-1496,-296,-46,435,163,-225
1,8719902,423,-1367,-495,-1499,-303,-45,435,163,-225
1,8719915,423,-1367,-495,-1499,-303,-45,435,163,-225
1,8719926,423,-1366,-499,-1491,-305,-37,435,163,-225
1,8719939,423,-1366,-499,-1491,-305,-37,435,163,-225
1,8719951,419,-1369,-494,-1493,-306,-38,435,163,-225
1,8719961,426,-1368,-499,-1498,-307,-40,435,163,-225
1,8719972,426,-1368,-499,-1498,-307,-40,435,163,-225
1,8719984,424,-1367,-495,-1495,-305,-45,435,163,-225
1,8719997,424,-1367,-495,-1495,-305,-45,435,163,-225
1,8720008,419,-1368,-495,-1499,-312,-45,434,156,-232
1,8720021,421,-1365,-500,-1495,-310,-35,434,156,-232
1,8720032,421,-1365,-500,-1495,-310,-35,434,156,-232
1,8720047,422,-1368,-493,-1487,-302,-37,434,156,-232
1,8720061,423,-1367,-496,-1493,-296,-42,434,156,-232
1,8720073,423,-1367,-496,-1493,-296,-42,434,156,-232
1,8720083,423,-1367,-496,-1493,-296,-42,434,156,-232
1,8720093,423,-1367,-496,-1493,-296,-42,434,156,-232
1,8720100,424,-1366,-495,-1486,-304,-36,434,156,-232
1,8720108,424,-1366,-495,-1486,-304,-36,434,156,-232
1,8720116,424,-1366,-495,-1486,-304,-36,434,156,-232
1,8720124,420,-1369,-498,-1494,-304,-40,434,156,-232
1,8720133,420,-1369,-498,-1494,-304,-40,434,156,-232
1,8720140,424,-1369,-492,-1485,-305,-35,439,157,-225
1,8720148,424,-1369,-492,-1485,-305,-35,439,157,-225
1,8720156,424,-1369,-492,-1485,-305,-35,439,157,-225
1,8720164,424,-1368,-493,-1488,-300,-39,439,157,-225
1,8720172,424,-1368,-493,-1488,-300,-39,439,157,-225
1,8720182,422,-1365,-499,-1496,-302,-37,439,157,-225
1,8720190,422,-1365,-499,-1496,-302,-37,439,157,-225
1,8720198,422,-1365,-499,-1496,-302,-37,439,157,-225
1,8720207,422,-1365,-499,-1496,-302,-37,439,157,-225
1,8720218,422,-1365,-499,-1496,-302,-37,439,157,-225
1,8720227,423,-1364,-498,-1489,-298,-40,439,157,-225
1,8720235,423,-1364,-498,-1489,-298,-40,439,157,-225
1,8720243,422,-1364,-500,-1494,-305,-41,439,157,-225
1,8720256,422,-1364,-500,-1494,-305,-41,439,157,-225
1,8720269,421,-1364,-492,-1491,-307,-37,437,161,-227
1,8720281,424,-1365,-497,-1492,-302,-36,437,161,-227
1,8720293,424,-1365,-497,-1492,-302,-36,437,161,-227
1,8720305,422,-1367,-496,-1494,-303,-49,437,161,-227
1,8720320,421,-1364,-495,-1493,-305,-45,437,161,-227
1,8720333,421,-1364,-495,-1493,-305,-45,437,161,-227
1,8720344,424,-1364,-497,-1490,-299,-47,437,161,-227
1,8720354,424,-1364,-497,-1490,-299,-47,437,161,-227
1,8720362,427,-1367,-493,-1487,-295,-35,437,161,-227
1,8720370,427,-1367,-493,-1487,-295,-35,437,161,-227
1,8720378,427,-1367,-493,-1487,-295,-35,437,161,-227
1,8720391,426,-1365,-493,-1492,-300,-39,438,164,-224
1,8720403,427,-1366,-496,-1496,-306,-43,438,164,-224
1,8720416,427,-1366,-496,-1496,-306,-43,438,164,-224
1,8720428,420,-1368,-494,-1503,-301,-38,438,164,-224
1,8720441,419,-1363,-497,-1493,-304,-33,438,164,-224
1,8720453,419,-1363,-497,-1493,-304,-33,438,164,-224
1,8720462,422,-1365,-497,-1493,-307,-40,438,164,-224
1,8720474,422,-1365,-497,-1493,-307,-40,438,164,-224
1,8720487,427,-1365,-496,-1492,-306,-45,438,164,-224
1,8720499,427,-1365,-496,-1492,-306,-45,438,164,-224
1,8720510,426,-1367,-494,-1489,-306,-45,439,165,-227
1,8720523,422,-1369,-493,-1493,-302,-38,439,165,-227
1,8720536,422,-1369,-493,-1493,-302,-38,439,165,-227
1,8720549,424,-1370,-497,-1487,-303,-36,439,165,-227
1,8720561,422,-1370,-497,-1489,-309,-43,439,165,-227
1,8720571,422,-1370,-497,-1489,-309,-43,439,165,-227
1,8720583,422,-1367,-497,-1496,-308,-36,439,165,-227
1,8720596,422,-1367,-497,-1496,-308,-36,439,165,-227
1,8720610,423,-1367,-491,-1498,-308,-38,439,165,-227
1,8720619,423,-1367,-491,-1498,-308,-38,439,165,-227
1,8720627,422,-1367,-501,-1494,-304,-30,439,165,-227
1,8720638,422,-1367,-501,-1494,-304,-30,439,165,-227
1,8720646,424,-1366,-495,-1494,-303,-34,443,167,-223
1,8720657,424,-1366,-495,-1494,-303,-34,443,167,-223
1,8720664,424,-1367,-499,-1484,-300,-36,443,167,-223
1,8720675,424,-1367,-499,-1484,-300,-36,443,167,-223
1,8720687,426,-1366,-494,-1486,-303,-32,443,167,-223
1,8720694,426,-1366,-494,-1486,-303,-32,443,167,-223
1,8720705,425,-1366,-495,-1490,-309,-35,443,167,-223
1,8720711,425,-1366,-495,-1490,-309,-35,443,167,-223
1,8720721,422,-1368,-499,-1494,-309,-40,443,167,-223
1,8720732,422,-1368,-499,-1494,-309,-40,443,167,-223
1,8720739,422,-1368,-499,-1494,-309,-40,443,167,-223
1,8720745,427,-1366,-498,-1490,-305,-43,443,167,-223
1,8720751,427,-1366,-498,-1490,-305,-43,443,167,-223
1,8720757,427,-1366,-498,-1490,-305,-43,443,167,-223
1,8720764,426,-1367,-491,-1493,-305,-42,446,164,-226
1,8720773,426,-1367,-491,-1493,-305,-42,446,164,-226
1,8720780,426,-1366,-494,-1494,-302,-47,446,164,-226
1,8720786,426,-1366,-494,-1494,-302,-47,446,164,-226
1,8720797,426,-1366,-494,-1494,-302,-47,446,164,-226
1,8720807,429,-1365,-496,-1493,-295,-39,446,164,-226
1,8720819,429,-1365,-496,-1493,-295,-39,446,164,-226
1,8720828,428,-1365,-499,-1499,-292,-46,446,164,-226
1,8720841,422,-1364,-494,-1500,-303,-33,446,164,-226
1,8720855,422,-1364,-494,-1500,-303,-33,446,164,-226
1,8720867,421,-1366,-498,-1494,-302,-37,446,164,-226
1,8720879,421,-1366,-498,-1494,-302,-37,446,164,-226
1,8720893,426,-1366,-498,-1489,-302,-35,437,167,-229
1,8720906,428,-1367,-495,-1484,-305,-37,437,167,-229
1,8720918,428,-1367,-495,-1484,-305,-37,437,167,-229
1,8720929,424,-1367,-497,-1494,-297,-42,437,167,-229
1,8720941,425,-1366,-496,-1498,-300,-46,437,167,-229
1,8720950,425,-1366,-496,-1498,-300,-46,437,167,-229
1,8720962,421,-1368,-494,-1489,-299,-41,437,167,-229
1,8720973,421,-1368,-494,-1489,-299,-41,437,167,-229
1,8720983,429,-1366,-500,-1493,-304,-35,437,167,-229
1,8720990,429,-1366,-500,-1493,-304,-35,437,167,-229
1,8720998,429,-1366,-500,-1493,-304,-35,437,167,-229
1,8721008,425,-1364,-497,-1502,-304,-39,434,162,-230
1,8721016,425,-1364,-497,-1502,-304,-39,434,162,-230
1,8721030,423,-1367,-491,-1495,-301,-36,434,162,-230
1,8721043,421,-1364,-497,-1488,-300,-39,434,162,-230
1,8721052,421,-1364,-497,-1488,-300,-39,434,162,-230
1,8721065,424,-1365,-495,-1491,-307,-46,434,162,-230
1,8721079,424,-1365,-495,-1491,-307,-46,434,162,-230
1,8721087,425,-1363,-496,-1498,-303,-41,434,162,-230
1,8721095,425,-1363,-496,-1498,-303,-41,434,162,-230
1,8721101,424,-1369,-498,-1493,-305,-39,434,162,-230
1,8721108,424,-1369,-498,-1493,-305,-39,434,162,-230
1,8721115,424,-1369,-498,-1493,-305,-39,434,162,-230
1,8721121,424,-1366,-496,-1496,-303,-44,434,162,-230
1,8721127,424,-1366,-496,-1496,-303,-44,434,162,-230
1,8721133,424,-1366,-496,-1496,-303,-44,434,162,-230
1,8721139,424,-1366,-496,-1496,-303,-44,434,162,-230
1,8721145,424,-1366,-494,-1496,-306,-42,437,171,-225
1,8721152,424,-1366,-494,-1496,-306,-42,437,171,-225
1,8721162,423,-1368,-491,-1482,-300,-41,437,171,-225
1,8721172,423,-1368,-491,-1482,-300,-41,437,171,-225
1,8721183,423,-1366,-495,-1483,-300,-36,437,171,-225
1,8721195,423,-1366,-495,-1483,-300,-36,437,171,-225
1,8721204,424,-1365,-499,-1496,-300,-45,437,171,-225
1,8721213,424,-1365,-499,-1496,-300,-45,437,171,-225
1,8721222,424,-1367,-498,-1494,-301,-45,437,171,-225
1,8721234,424,-1367,-498,-1494,-301,-45,437,171,-225
1,8721246,423,-1365,-497,-1496,-301,-43,437,171,-225
1,8721257,423,-1365,-497,-1496,-301,-43,437,171,-225
1,8721266,423,-1363,-493,-1490,-307,-42,437,171,-229
1,8721278,423,-1363,-493,-1490,-307,-42,437,171,-229
1,8721293,425,-1368,-495,-1485,-298,-38,437,171,-229
1,8721306,423,-1371,-501,-1493,-299,-45,437,171,-229
1,8721316,423,-1371,-501,-1493,-299,-45,437,171,-229
1,8721329,427,-1367,-495,-1491,-302,-46,437,171,-229
1,8721341,422,-1367,-497,-1488,-301,-39,437,171,-229
1,8721350,422,-1367,-497,-1488,-301,-39,437,171,-229
1,8721362,424,-1366,-502,-1483,-299,-37,437,171,-229
1,8721372,424,-1366,-502,-1483,-299,-37,437,171,-229
1,8721383,426,-1367,-495,-1492,-300,-40,436,160,-222
1,8721396,426,-1367,-495,-1492,-300,-40,436,160,-222
1,8721410,422,-1366,-494,-1496,-297,-46,436,160,-222
1,8721418,422,-1366,-494,-1496,-297,-46,436,160,-222
1,8721430,424,-1363,-494,-1489,-300,-46,436,160,-222
1,8721440,424,-1363,-494,-1489,-300,-46,436,160,-222
1,8721454,424,-1366,-499,-1498,-305,-44,436,160,-222
1,8721466,421,-1366,-498,-1492,-308,-42,436,160,-222
1,8721479,421,-1366,-498,-1492,-308,-42,436,160,-222
1,8721487,425,-1366,-504,-1490,-300,-42,436,160,-222
1,8721496,425,-1366,-504,-1490,-300,-42,436,160,-222
1,8721504,425,-1365,-491,-1486,-305,-37,442,164,-226
1,8721511,425,-1365,-491,-1486,-305,-37,442,164,-226
1,8721519,425,-1365,-491,-1486,-305,-37,442,164,-226
1,8721532,427,-1366,-497,-1490,-303,-41,442,164,-226
1,8721545,425,-1366,-495,-1490,-302,-40,442,164,-226
1,8721559,425,-1366,-495,-1490,-302,-40,442,164,-226
1,8721567,424,-1364,-492,-1492,-299,-35,442,164,-226
1,8721582,421,-1367,-497,-1488,-307,-40,442,164,-226
1,8721590,421,-1367,-497,-1488,-307,-40,442,164,-226
1,8721602,425,-1363,-494,-1490,-303,-43,442,164,-226
1,8721614,425,-1363,-494,-1490,-303,-43,442,164,-226
1,8721629,426,-1364,-499,-1492,-304,-42,424,164,-226
1,8721642,424,-1367,-498,-1497,-300,-43,424,164,-226
1,8721651,424,-1367,-498,-1497,-300,-43,424,164,-226
1,8721665,424,-1366,-501,-1500,-303,-41,424,164,-226
1,8721680,424,-1366,-501,-1500,-303,-41,424,164,-226
1,8721690,422,-1366,-497,-1500,-305,-38,424,164,-226
1,8721700,426,-1367,-492,-1492,-302,-35,424,164,-226
1,8721713,426,-1367,-492,-1492,-302,-35,424,164,-226
1,8721726,428,-1364,-493,-1493,-299,-41,424,164,-226
1,8721737,428,-1364,-493,-1493,-299,-41,424,164,-226
1,8721745,426,-1366,-496,-1491,-299,-36,424,164,-226
1,8721755,426,-1366,-496,-1491,-299,-36,424,164,-226
1,8721762,422,-1366,-495,-1494,-310,-39,440,166,-228
1,8721772,422,-1366,-495,-1494,-310,-39,440,166,-228
1,8721783,422,-1367,-498,-1489,-302,-34,440,166,-228
1,8721797,422,-1367,-498,-1489,-302,-34,440,166,-228
1,8721808,424,-1367,-495,-1492,-302,-36,440,166,-228
1,8721818,424,-1367,-495,-1492,-302,-36,440,166,-228
1,8721830,426,-1366,-499,-1486,-305,-48,440,166,-228
1,8721844,427,-1367,-499,-1485,-305,-43,440,166,-228
1,8721856,427,-1367,-499,-1485,-305,-43,440,166,-228
1,8721867,424,-1366,-496,-1487,-302,-42,440,166,-228
1,8721880,424,-1366,-496,-1487,-302,-42,440,166,-228
1,8721892,422,-1368,-493,-1489,-304,-39,440,162,-232
1,8721905,426,-1368,-497,-1489,-300,-34,440,162,-232
1,8721916,426,-1368,-497,-1489,-300,-34,440,162,-232
1,8721930,427,-1366,-494,-1491,-302,-44,440,162,-232
1,8721940,427,-1366,-494,-1491,-302,-44,440,162,-232
1,8721951,425,-1369,-497,-1483,-305,-36,440,162,-232
1,8721964,425,-1368,-495,-1489,-307,-44,440,162,-232
1,8721978,425,-1368,-495,-1489,-307,-44,440,162,-232
1,8721987,421,-1365,-499,-1490,-302,-40,440,162,-232
1,8721997,421,-1365,-499,-1490,-302,-40,440,162,-232
1,8722011,425,-1366,-493,-1498,-307,-40,433,161,-231
1,8722023,423,-1365,-498,-1492,-299,-40,433,161,-231
1,8722035,423,-1365,-498,-1492,-299,-40,433,161,-231
1,8722049,422,-1364,-493,-1485,-302,-44,433,161,-231
1,8722062,425,-1366,-494,-1497,-309,-46,433,161,-231
1,8722074,425,-1366,-494,-1497,-309,-46,433,161,-231
1,8722083,426,-1367,-497,-1494,-309,-38,433,161,-231
1,8722092,426,-1367,-497,-1494,-309,-38,433,161,-231
1,8722100,426,-1367,-497,-1494,-309,-38,433,161,-231
1,8722108,425,-1371,-497,-1494,-304,-43,433,161,-231
1,8722116,425,-1371,-497,-1494,-304,-43,433,161,-231
1,8722125,427,-1368,-496,-1487,-308,-46,436,166,-220
1,8722134,427,-1368,-496,-1487,-308,-46,436,166,-220
1,8722142,428,-1366,-490,-1490,-308,-38,436,166,-220
1,8722150,428,-1366,-490,-1490,-308,-38,436,166,-220
1,8722159,428,-1366,-490,-1490,-308,-38,436,166,-220
1,8722167,426,-1364,-498,-1491,-306,-37,436,166,-220
1,8722174,426,-1364,-498,-1491,-306,-37,436,166,-220
1,8722183,426,-1365,-495,-1495,-307,-42,436,166,-220
1,8722191,426,-1365,-495,-1495,-307,-42,436,166,-220
1,8722200,426,-1365,-495,-1495,-307,-42,436,166,-220
1,8722211,423,-1364,-498,-1498,-307,-40,436,166,-220
1,8722223,422,-1364,-496,-1488,-302,-38,436,166,-220
1,8722236,422,-1364,-496,-1488,-302,-38,436,166,-220
1,8722248,427,-1368,-501,-1487,-297,-41,436,166,-220
1,8722260,427,-1368,-501,-1487,-297,-41,436,166,-220
1,8722274,425,-1364,-486,-1494,-303,-35,436,170,-222
1,8722286,425,-1368,-491,-1488,-302,-44,436,170,-222
1,8722299,425,-1368,-491,-1488,-302,-44,436,170,-222
1,8722312,425,-1370,-498,-1479,-303,-42,436,170,-222
1,8722322,422,-1367,-495,-1488,-300,-43,436,170,-222
1,8722334,422,-1367,-495,-1488,-300,-43,436,170,-222
1,8722347,425,-1367,-503,-1489,-304,-46,436,170,-222
1,8722359,425,-1367,-503,-1489,-304,-46,436,170,-222
1,8722370,427,-1366,-499,-1492,-306,-46,436,170,-222
1,8722382,427,-1362,-494,-1491,-305,-43,439,169,-223
1,8722396,427,-1362,-494,-1491,-305,-43,439,169,-223
1,8722409,424,-1366,-495,-1493,-300,-36,439,169,-223
1,8722421,426,-1367,-497,-1491,-307,-40,439,169,-223
1,8722435,426,-1367,-497,-1491,-307,-40,439,169,-223
1,8722449,424,-1366,-499,-1496,-305,-42,439,169,-223
1,8722462,424,-1366,-498,-1492,-304,-38,439,169,-223
1,8722471,424,-1366,-498,-1492,-304,-38,439,169,-223
1,8722485,428,-1366,-495,-1489,-305,-44,439,169,-223
1,8722497,428,-1366,-495,-1489,-305,-44,439,169,-223
1,8722509,424,-1368,-495,-1484,-299,-40,436,172,-230
1,8722521,424,-1366,-497,-1485,-301,-33,436,172,-230
1,8722532,424,-1366,-497,-1485,-301,-33,436,172,-230
1,8722540,427,-1366,-496,-1496,-301,-34,436,172,-230
1,8722552,427,-1366,-496,-1496,-301,-34,436,172,-230
1,8722565,425,-1363,-497,-1485,-302,-36,436,172,-230
1,8722578,425,-1363,-497,-1485,-302,-36,436,172,-230
1,8722589,420,-1366,-499,-1494,-298,-42,436,172,-230
1,8722601,425,-1367,-499,-1487,-305,-45,436,172,-230
1,8722615,425,-1367,-499,-1487,-305,-45,436,172,-230
1,8722627,425,-1365,-496,-1487,-303,-44,435,167,-229
1,8722636,425,-1365,-496,-1487,-303,-44,435,167,-229
1,8722646,425,-1366,-498,-1489,-299,-44,435,167,-229
1,8722655,425,-1366,-498,-1489,-299,-44,435,167,-229
1,8722665,423,-1368,-493,-1491,-305,-35,435,167,-229
1,8722674,423,-1368,-493,-1491,-305,-35,435,167,-229
1,8722680,428,-1365,-493,-1494,-307,-31,435,167,-229
1,8722686,428,-1365,-493,-1494,-307,-31,435,167,-229
1,8722693,428,-1365,-493,-1494,-307,-31,435,167,-229
1,8722703,428,-1365,-493,-1494,-307,-31,435,167,-229
1,8722714,428,-1365,-493,-1494,-307,-31,435,167,-229
1,8722723,424,-1366,-498,-1491,-309,-39,435,167,-229
1,8722736,424,-1366,-498,-1491,-309,-39,435,167,-229
1,8722741,426,-1369,-501,-1490,-307,-37,435,167,-229
1,8722747,426,-1369,-501,-1490,-307,-37,435,167,-229
1,8722753,426,-1369,-501,-1490,-307,-37,435,167,-229
1,8722759,426,-1369,-501,-1490,-307,-37,435,167,-229
1,8722765,421,-1367,-496,-1496,-306,-46,440,164,-230
1,8722776,421,-1367,-496,-1496,-306,-46,440,164,-230
1,8722786,425,-1365,-500,-1491,-308,-45,440,164,-230
1,8722793,425,-1365,-500,-1491,-308,-45,440,164,-230
1,8722803,427,-1365,-499,-1495,-304,-34,440,164,-230
1,8722810,427,-1365,-499,-1495,-304,-34,440,164,-230
1,8722820,427,-1365,-499,-1495,-304,-34,440,164,-230
1,8722831,424,-1366,-501,-1487,-304,-34,440,164,-230
1,8722841,427,-1366,-490,-1491,-304,-44,440,164,-230
1,8722854,427,-1366,-490,-1491,-304,-44,440,164,-230
1,8722865,425,-1365,-497,-1487,-301,-48,440,164,-230
1,8722874,425,-1365,-497,-1487,-301,-48,440,164,-230
1,8722887,426,-1368,-495,-1491,-301,-41,438,164,-228
1,8722900,422,-1366,-496,-1498,-305,-45,438,164,-228
1,8722910,422,-1366,-496,-1498,-305,-45,438,164,-228
1,8722922,422,-1370,-498,-1493,-300,-42,438,164,-228
1,8722935,422,-1370,-498,-1493,-300,-42,438,164,-228
1,8722948,427,-1367,-494,-1499,-294,-38,438,164,-228
1,8722958,427,-1367,-494,-1499,-294,-38,438,164,-228
1,8722969,426,-1366,-498,-1499,-304,-46,438,164,-228
1,8722982,424,-1363,-495,-1489,-299,-48,438,164,-228
1,8722995,424,-1363,-495,-1489,-299,-48,438,164,-228
1,8723006,424,-1364,-495,-1490,-296,-44,442,162,-228
1,8723015,424,-1364,-495,-1490,-296,-44,442,162,-228
1,8723024,422,-1366,-488,-1499,-299,-45,442,162,-228
1,8723038,422,-1366,-488,-1499,-299,-45,442,162,-228
1,8723051,425,-1366,-495,-1489,-299,-34,442,162,-228
1,8723063,428,-1366,-496,-1494,-301,-38,442,162,-228
1,8723075,428,-1366,-496,-1494,-301,-38,442,162,-228
1,8723083,424,-1370,-497,-1496,-297,-30,442,162,-228
1,8723091,424,-1370,-497,-1496,-297,-30,442,162,-228
1,8723097,424,-1370,-497,-1496,-297,-30,442,162,-228
1,8723105,420,-1366,-498,-1495,-298,-38,442,162,-228
1,8723113,420,-1366,-498,-1495,-298,-38,442,162,-228
1,8723123,424,-1370,-494,-1490,-301,-39,438,168,-228
1,8723130,424,-1370,-494,-1490,-301,-39,438,168,-228
1,8723138,424,-1370,-494,-1490,-301,-39,438,168,-228
1,8723145,426,-1364,-492,-1495,-303,-42,438,168,-228
1,8723153,426,-1364,-492,-1495,-303,-42,438,168,-228
1,8723162,427,-1364,-500,-1492,-304,-41,438,168,-228
1,8723169,427,-1364,-500,-1492,-304,-41,438,168,-228
1,8723179,427,-1364,-500,-1492,-304,-41,438,168,-228
1,8723191,425,-1365,-495,-1495,-305,-37,438,168,-228
1,8723204,424,-1365,-495,-1492,-304,-44,438,168,-228
1,8723213,424,-1365,-495,-1492,-304,-44,438,168,-228
1,8723221,422,-1367,-500,-1488,-306,-31,438,168,-228
1,8723229,422,-1367,-500,-1488,-306,-31,438,168,-228
1,8723237,422,-1367,-500,-1488,-306,-31,438,168,-228
1,8723247,425,-1367,-492,-1491,-310,-43,434,166,-230
1,8723258,425,-1367,-492,-1491,-310,-43,434,166,-230
1,8723272,427,-1367,-491,-1488,-305,-36,434,166,-230
1,8723281,423,-1368,-495,-1490,-299,-35,434,166,-230
1,8723292,423,-1368,-495,-1490,-299,-35,434,166,-230
1,8723303,424,-1366,-496,-1485,-306,-40,434,166,-230
1,8723315,424,-1366,-496,-1485,-306,-40,434,166,-230
1,8723328,425,-1367,-498,-1491,-306,-40,434,166,-230
1,8723340,425,-1367,-498,-1491,-306,-40,434,166,-230
1,8723351,425,-1367,-498,-1491,-306,-40,434,166,-230
1,8723363,426,-1367,-500,-1491,-306,-40,434,166,-230
1,8723376,426,-1367,-500,-1491,-306,-40,434,166,-230
1,8723388,425,-1363,-496,-1492,-304,-38,439,165,-231
1,8723397,425,-1363,-496,-1492,-304,-38,439,165,-231
1,8723409,424,-1366,-489,-1487,-302,-34,439,165,-231
1,8723422,425,-1369,-497,-1489,-303,-36,439,165,-231
1,8723431,425,-1369,-497,-1489,-303,-36,439,165,-231
1,8723442,422,-1367,-496,-1492,-299,-40,439,165,-231
1,8723454,422,-1367,-496,-1492,-299,-40,439,165,-231
1,8723468,426,-1365,-500,-1479,-301,-38,439,165,-231
1,8723480,426,-1365,-500,-1479,-301,-38,439,165,-231
1,8723491,427,-1368,-501,-1493,-297,-37,439,165,-231
1,8723503,424,-1370,-494,-1495,-296,-44,434,174,-220
1,8723511,424,-1370,-494,-1495,-296,-44,434,174,-220
1,8723524,423,-1364,-500,-1501,-305,-40,434,174,-220
1,8723536,423,-1364,-500,-1501,-305,-40,434,174,-220
1,8723550,426,-1368,-495,-1491,-304,-40,434,174,-220
1,8723560,426,-1368,-495,-1491,-304,-40,434,174,-220
1,8723572,421,-1368,-495,-1491,-309,-39,434,174,-220
1,8723586,428,-1369,-494,-1491,-303,-38,434,174,-220
1,8723598,428,-1369,-494,-1491,-303,-38,434,174,-220
1,8723610,427,-1367,-491,-1493,-301,-30,434,174,-220
1,8723622,424,-1368,-492,-1488,-300,-40,442,170,-218
1,8723636,424,-1368,-492,-1488,-300,-40,442,170,-218
1,8723649,425,-1368,-497,-1493,-303,-39,442,170,-218
1,8723660,425,-1368,-497,-1493,-303,-39,442,170,-218
1,8723674,426,-1369,-498,-1489,-303,-43,442,170,-218
1,8723688,425,-1366,-495,-1492,-305,-40,442,170,-218
1,8723700,425,-1366,-495,-1492,-305,-40,442,170,-218
1,8723712,423,-1367,-497,-1498,-299,-44,442,170,-218
1,8723723,423,-1366,-502,-1489,-303,-36,442,170,-218
1,8723735,423,-1366,-502,-1489,-303,-36,442,170,-218
1,8723743,425,-1365,-494,-1493,-301,-44,436,170,-228
1,8723750,425,-1365,-494,-1493,-301,-44,436,170,-228
1,8723759,425,-1365,-494,-1493,-301,-44,436,170,-228
1,8723767,427,-1367,-500,-1493,-304,-38,436,170,-228
1,8723778,427,-1367,-500,-1493,-304,-38,436,170,-228
1,8723790,425,-1366,-492,-1497,-306,-45,436,170,-228
1,8723804,428,-1367,-496,-1500,-301,-42,436,170,-228
1,8723816,428,-1367,-496,-1500,-301,-42,436,170,-228
1,8723828,426,-1364,-498,-1492,-298,-31,436,170,-228
1,8723840,426,-1364,-498,-1492,-298,-31,436,170,-228
1,8723848,425,-1369,-496,-1487,-303,-31,436,170,-228
1,8723856,425,-1369,-496,-1487,-303,-31,436,170,-228
1,8723865,426,-1364,-497,-1485,-298,-36,436,170,-228
1,8723876,426,-1364,-497,-1485,-298,-36,436,170,-228
1,8723889,427,-1364,-497,-1484,-307,-38,436,162,-230
1,8723902,426,-1367,-491,-1490,-299,-44,436,162,-230
1,8723913,426,-1367,-491,-1490,-299,-44,436,162,-230
1,8723927,425,-1365,-494,-1492,-304,-39,436,162,-230
1,8723939,425,-1365,-494,-1492,-304,-39,436,162,-230
1,8723947,424,-1362,-501,-1494,-305,-36,436,162,-230
1,8723958,424,-1362,-501,-1494,-305,-36,436,162,-230
1,8723972,422,-1366,-498,-1496,-307,-43,436,162,-230
1,8723984,428,-1368,-496,-1494,-303,-41,436,162,-230
1,8723996,428,-1368,-496,-1494,-303,-41,436,162,-230
1,8724007,428,-1367,-491,-1484,-305,-43,437,169,-231
1,8724021,428,-1367,-491,-1484,-305,-43,437,169,-231
1,8724034,429,-1368,-497,-1485,-310,-43,437,169,-231
1,8724045,422,-1368,-499,-1482,-307,-45,437,169,-231
1,8724059,422,-1368,-499,-1482,-307,-45,437,169,-231
1,8724073,421,-1367,-498,-1486,-306,-38,437,169,-231
1,8724082,425,-1365,-499,-1487,-308,-40,437,169,-231
1,8724090,425,-1365,-499,-1487,-308,-40,437,169,-231
1,8724099,425,-1365,-499,-1487,-308,-40,437,169,-231
1,8724107,429,-1366,-497,-1484,-303,-37,437,169,-231
1,8724115,429,-1366,-497,-1484,-303,-37,437,169,-231
1,8724122,425,-1368,-494,-1486,-298,-44,434,168,-218
1,8724130,425,-1368,-494,-1486,-298,-44,434,168,-218
1,8724139,425,-1368,-494,-1486,-298,-44,434,168,-218
1,8724147,421,-1366,-495,-1494,-306,-44,434,168,-218
1,8724155,421,-1366,-495,-1494,-306,-44,434,168,-218
1,8724163,423,-1367,-494,-1495,-309,-44,434,168,-218
1,8724171,423,-1367,-494,-1495,-309,-44,434,168,-218
1,8724179,423,-1367,-494,-1495,-309,-44,434,168,-218
1,8724187,428,-1368,-490,-1501,-307,-35,434,168,-218
1,8724196,428,-1368,-490,-1501,-307,-35,434,168,-218
1,8724206,428,-1367,-495,-1488,-307,-45,434,168,-218
1,8724214,428,-1367,-495,-1488,-307,-45,434,168,-218
1,8724224,426,-1367,-493,-1488,-302,-41,434,168,-218
1,8724233,426,-1367,-493,-1488,-302,-41,434,168,-218
1,8724242,425,-1368,-496,-1482,-300,-47,438,164,-226
1,8724252,425,-1368,-496,-1482,-300,-47,438,164,-226
1,8724262,427,-1369,-497,-1487,-304,-40,438,164,-226
1,8724273,427,-1369,-497,-1487,-304,-40,438,164,-226
1,8724285,427,-1369,-497,-1487,-304,-40,438,164,-226
1,8724299,427,-1369,-497,-1487,-304,-40,438,164,-226
1,8724312,430,-1362,-500,-1493,-299,-38,438,164,-226
1,8724324,424,-1364,-499,-1497,-300,-36,438,164,-226
1,8724337,424,-1364,-499,-1497,-300,-36,438,164,-226
1,8724350,425,-1366,-501,-1495,-299,-39,438,164,-226
1,8724364,425,-1366,-498,-1489,-306,-36,438,164,-226
1,8724376,425,-1366,-498,-1489,-306,-36,438,164,-226
1,8724387,426,-1366,-497,-1485,-305,-38,438,172,-228
1,8724399,426,-1366,-497,-1485,-305,-38,438,172,-228
1,8724411,426,-1368,-490,-1486,-311,-42,438,172,-228
1,8724420,426,-1368,-490,-1486,-311,-42,438,172,-228
1,8724431,426,-1370,-495,-1501,-307,-40,438,172,-228
1,8724445,424,-1371,-492,-1491,-311,-38,438,172,-228
1,8724457,424,-1371,-492,-1491,-311,-38,438,172,-228
1,8724466,423,-1370,-501,-1491,-304,-41,438,172,-228
1,8724473,423,-1370,-501,-1491,-304,-41,438,172,-228
1,8724483,425,-1366,-500,-1496,-298,-38,438,172,-228
1,8724491,425,-1366,-500,-1496,-298,-38,438,172,-228
1,8724503,424,-1365,-489,-1489,-304,-34,435,165,-225
1,8724515,424,-1365,-489,-1489,-304,-34,435,165,-225
1,8724529,424,-1368,-493,-1489,-298,-38,435,165,-225
1,8724542,425,-1363,-498,-1485,-305,-38,435,165,-225
1,8724554,425,-1363,-498,-1485,-305,-38,435,165,-225
1,8724567,426,-1366,-497,-1493,-304,-42,435,165,-225
1,8724580,426,-1366,-497,-1493,-304,-42,435,165,-225
1,8724592,423,-1369,-495,-1495,-299,-49,435,165,-225
1,8724604,424,-1368,-499,-1502,-301,-42,435,165,-225
1,8724616,424,-1368,-499,-1502,-301,-42,435,165,-225
1,8724628,427,-1368,-489,-1496,-306,-45,438,168,-226
1,8724640,427,-1368,-489,-1496,-306,-45,438,168,-226
1,8724648,423,-1369,-490,-1492,-300,-39,438,168,-226
1,8724659,423,-1369,-490,-1492,-300,-39,438,168,-226
1,8724666,426,-1368,-495,-1488,-305,-39,438,168,-226
1,8724676,426,-1368,-495,-1488,-305,-39,438,168,-226
1,8724686,428,-1367,-502,-1486,-308,-31,438,168,-226
1,8724697,428,-1367,-502,-1486,-308,-31,438,168,-226
1,8724708,429,-1366,-496,-1490,-301,-35,438,168,-226
1,8724715,429,-1366,-496,-1490,-301,-35,438,168,-226
1,8724726,425,-1364,-497,-1493,-310,-39,438,168,-226
1,8724733,425,-1364,-497,-1493,-310,-39,438,168,-226
1,8724740,425,-1364,-497,-1493,-310,-39,438,168,-226
1,8724746,425,-1366,-493,-1496,-309,-42,432,162,-224
1,8724752,425,-1366,-493,-1496,-309,-42,432,162,-224
1,8724758,425,-1366,-493,-1496,-309,-42,432,162,-224
1,8724765,423,-1366,-493,-1495,-307,-37,432,162,-224
1,8724772,423,-1366,-493,-1495,-307,-37,432,162,-224
1,8724779,423,-1366,-493,-1495,-307,-37,432,162,-224
1,8724786,424,-1370,-496,-1494,-308,-46,432,162,-224
1,8724794,424,-1370,-496,-1494,-308,-46,432,162,-224
1,8724802,426,-1368,-498,-1498,-300,-43,432,162,-224
1,8724809,426,-1368,-498,-1498,-300,-43,432,162,-224
1,8724815,426,-1368,-498,-1498,-300,-43,432,162,-224
1,8724823,429,-1367,-495,-1490,-300,-41,432,162,-224
1,8724829,429,-1367,-495,-1490,-300,-41,432,162,-224
1,8724837,429,-1367,-495,-1490,-300,-41,432,162,-224
1,8724847,426,-1367,-500,-1492,-303,-41,432,162,-224
1,8724858,426,-1367,-500,-1492,-303,-41,432,162,-224
1,8724866,426,-1366,-496,-1491,-310,-39,439,171,-227
1,8724877,426,-1366,-496,-1491,-310,-39,439,171,-227
1,8724883,427,-1365,-492,-1492,-311,-40,439,171,-227
1,8724894,427,-1365,-492,-1492,-311,-40,439,171,-227
1,8724903,427,-1365,-488,-1500,-302,-39,439,171,-227
1,8724914,427,-1365,-488,-1500,-302,-39,439,171,-227
1,8724921,424,-1368,-491,-1487,-303,-36,439,171,-227
1,8724931,424,-1368,-491,-1487,-303,-36,439,171,-227
1,8724940,424,-1368,-491,-1487,-303,-36,439,171,-227
1,8724950,424,-1368,-491,-1487,-303,-36,439,171,-227
1,8724961,424,-1368,-491,-1487,-303,-36,439,171,-227
1,8724970,425,-1363,-495,-1489,-304,-38,439,171,-227
1,8724980,425,-1363,-495,-1489,-304,-38,439,171,-227
1,8724987,425,-1365,-497,-1489,-304,-44,439,171,-227
1,8724998,425,-1365,-497,-1489,-304,-44,439,171,-227
1,8725005,424,-1369,-495,-1487,-299,-45,437,161,-229
1,8725011,424,-1369,-495,-1487,-299,-45,437,161,-229
1,8725017,424,-1369,-495,-1487,-299,-45,437,161,-229
1,8725023,430,-1368,-492,-1494,-294,-48,437,161,-229
1,8725032,430,-1368,-492,-1494,-294,-48,437,161,-229
1,8725042,423,-1368,-498,-1496,-297,-46,437,161,-229
1,8725051,423,-1368,-498,-1496,-297,-46,437,161,-229
1,8725061,426,-1369,-496,-1501,-301,-47,437,161,-229
1,8725071,426,-1369,-496,-1501,-301,-47,437,161,-229
1,8725080,426,-1369,-496,-1501,-301,-47,437,161,-229
1,8725086,427,-1364,-498,-1498,-302,-43,437,161,-229
1,8725092,427,-1364,-498,-1498,-302,-43,437,161,-229
1,8725098,427,-1364,-498,-1498,-302,-43,437,161,-229
1,8725104,425,-1365,-497,-1487,-306,-47,437,161,-229
1,8725110,425,-1365,-497,-1487,-306,-47,437,161,-229
1,8725116,425,-1365,-497,-1487,-306,-47,437,161,-229
1,8725123,428,-1366,-496,-1490,-301,-40,443,167,-227
1,8725129,428,-1366,-496,-1490,-301,-40,443,167,-227
1,8725135,428,-1366,-496,-1490,-301,-40,443,167,-227
1,8725143,425,-1368,-500,-1491,-304,-37,443,167,-227
1,8725152,425,-1368,-500,-1491,-304,-37,443,167,-227
1,8725163,427,-1369,-498,-1495,-307,-34,443,167,-227
1,8725170,427,-1369,-498,-1495,-307,-34,443,167,-227
1,8725177,427,-1369,-498,-1495,-307,-34,443,167,-227
1,8725183,427,-1368,-498,-1492,-307,-35,443,167,-227
1,8725189,427,-1368,-498,-1492,-307,-35,443,167,-227
1,8725198,427,-1368,-498,-1492,-307,-35,443,167,-227
1,8725209,428,-1369,-498,-1489,-300,-37,443,167,-227
1,8725218,428,-1369,-498,-1489,-300,-37,443,167,-227
1,8725228,427,-1368,-503,-1495,-308,-38,443,167,-227
1,8725235,427,-1368,-503,-1495,-308,-38,443,167,-227
1,8725246,425,-1366,-495,-1492,-303,-43,438,172,-228
1,8725257,425,-1366,-495,-1492,-303,-43,438,172,-228
1,8725266,422,-1367,-493,-1497,-300,-37,438,172,-228
1,8725274,422,-1367,-493,-1497,-300,-37,438,172,-228
1,8725284,427,-1368,-497,-1499,-304,-43,438,172,-228
1,8725294,427,-1368,-497,-1499,-304,-43,438,172,-228
1,8725302,428,-1367,-496,-1493,-302,-33,438,172,-228
1,8725312,428,-1367,-496,-1493,-302,-33,438,172,-228
1,8725318,428,-1367,-496,-1493,-302,-33,438,172,-228
1,8725328,426,-1366,-494,-1497,-300,-34,438,172,-228
1,8725340,426,-1366,-494,-1497,-300,-34,438,172,-228
1,8725350,428,-1368,-496,-1495,-301,-37,438,172,-228
1,8725360,428,-1368,-496,-1495,-301,-37,438,172,-228
1,8725369,427,-1367,-496,-1491,-301,-37,440,170,-226
1,8725378,427,-1367,-496,-1491,-301,-37,440,170,-226
1,8725389,425,-1367,-495,-1489,-297,-45,440,170,-226
1,8725400,425,-1367,-495,-1489,-297,-45,440,170,-226
1,8725410,428,-1367,-502,-1490,-298,-40,440,170,-226
1,8725419,428,-1367,-502,-1490,-298,-40,440,170,-226
1,8725430,429,-1370,-495,-1491,-299,-37,440,170,-226
1,8725436,429,-1370,-495,-1491,-299,-37,440,170,-226
1,8725447,426,-1366,-494,-1493,-311,-44,440,170,-226
1,8725457,426,-1366,-494,-1493,-311,-44,440,170,-226
1,8725468,425,-1368,-498,-1488,-301,-42,440,170,-226
1,8725479,425,-1368,-498,-1488,-301,-42,440,170,-226
1,8725486,427,-1367,-501,-1493,-302,-39,440,170,-226
1,8725498,427,-1367,-501,-1493,-302,-39,440,170,-226
1,8725509,430,-1367,-499,-1497,-307,-44,435,167,-223
1,8725518,430,-1367,-499,-1497,-307,-44,435,167,-223
1,8725525,427,-1366,-494,-1495,-301,-45,435,167,-223
1,8725531,427,-1366,-494,-1495,-301,-45,435,167,-223
1,8725538,427,-1366,-494,-1495,-301,-45,435,167,-223
1,8725544,424,-1364,-492,-1487,-299,-50,435,167,-223
1,8725554,424,-1364,-492,-1487,-299,-50,435,167,-223
1,8725565,425,-1369,-493,-1492,-304,-50,435,167,-223
1,8725575,425,-1369,-493,-1492,-304,-50,435,167,-223
1,8725584,425,-1367,-498,-1494,-310,-44,435,167,-223
1,8725593,425,-1367,-498,-1494,-310,-44,435,167,-223
1,8725602,423,-1369,-496,-1493,-308,-45,435,167,-223
1,8725611,423,-1369,-496,-1493,-308,-45,435,167,-223
1,8725622,424,-1368,-493,-1494,-309,-42,439,171,-229
1,8725634,424,-1368,-493,-1494,-309,-42,439,171,-229
1,8725641,424,-1368,-493,-1494,-309,-42,439,171,-229
1,8725653,425,-1367,-496,-1492,-304,-36,439,171,-229
1,8725665,425,-1364,-496,-1492,-300,-41,439,171,-229
1,8725679,425,-1364,-496,-1492,-300,-41,439,171,-229
1,8725691,423,-1366,-498,-1497,-303,-42,439,171,-229
1,8725703,424,-1365,-497,-1497,-306,-35,439,171,-229
1,8725715,424,-1365,-497,-1497,-306,-35,439,171,-229
1,8725728,431,-1364,-498,-1491,-300,-44,439,171,-229
1,8725738,431,-1364,-498,-1491,-300,-44,439,171,-229
1,8725746,426,-1366,-495,-1494,-301,-43,440,170,-230
1,8725754,426,-1366,-495,-1494,-301,-43,440,170,-230
1,8725763,426,-1370,-495,-1500,-301,-45,440,170,-230
1,8725771,426,-1370,-495,-1500,-301,-45,440,170,-230
1,8725784,424,-1368,-494,-1496,-302,-40,440,170,-230
1,8725797,424,-1368,-494,-1496,-302,-40,440,170,-230
1,8725811,426,-1370,-498,-1486,-300,-41,440,170,-230
1,8725822,426,-1367,-499,-1487,-305,-37,440,170,-230
1,8725835,426,-1367,-499,-1487,-305,-37,440,170,-230
1,8725850,426,-1367,-494,-1490,-309,-36,440,170,-230
1,8725861,426,-1367,-494,-1490,-309,-36,440,170,-230
1,8725872,427,-1369,-493,-1493,-309,-41,435,171,-223
1,8725884,425,-1365,-497,-1496,-307,-39,435,171,-223
1,8725898,425,-1365,-497,-1496,-307,-39,435,171,-223
1,8725910,424,-1368,-498,-1488,-308,-40,435,171,-223
1,8725922,426,-1370,-495,-1494,-303,-42,435,171,-223
1,8725936,426,-1370,-495,-1494,-303,-42,435,171,-223
1,8725949,430,-1369,-493,-1494,-299,-46,435,171,-223
1,8725960,430,-1369,-493,-1494,-299,-46,435,171,-223
1,8725972,426,-1368,-496,-1494,-300,-48,435,171,-223
1,8725987,425,-1365,-497,-1494,-307,-41,435,171,-223
1,8725999,425,-1365,-497,-1494,-307,-41,435,171,-223
1,8726012,425,-1365,-491,-1497,-302,-40,440,172,-226
1,8726023,427,-1367,-495,-1491,-308,-49,440,172,-226
1,8726035,427,-1367,-495,-1491,-308,-49,440,172,-226
1,8726046,428,-1368,-497,-1499,-305,-39,440,172,-226
1,8726060,428,-1368,-497,-1499,-305,-39,440,172,-226
1,8726072,425,-1364,-499,-1497,-303,-48,440,172,-226
1,8726083,424,-1367,-502,-1501,-300,-42,440,172,-226
1,8726091,424,-1367,-502,-1501,-300,-42,440,172,-226
1,8726099,424,-1367,-502,-1501,-300,-42,440,172,-226
1,8726108,424,-1366,-497,-1499,-304,-45,440,172,-226
1,8726116,424,-1366,-497,-1499,-304,-45,440,172,-226
1,8726124,425,-1362,-497,-1490,-309,-50,442,162,-224
1,8726132,425,-1362,-497,-1490,-309,-50,442,162,-224
1,8726140,425,-1362,-497,-1490,-309,-50,442,162,-224
1,8726148,429,-1368,-498,-1490,-301,-50,442,162,-224
1,8726157,429,-1368,-498,-1490,-301,-50,442,162,-224
1,8726165,427,-1368,-494,-1496,-306,-45,442,162,-224
1,8726173,427,-1368,-494,-1496,-306,-45,442,162,-224
1,8726181,427,-1368,-494,-1496,-306,-45,442,162,-224
1,8726191,427,-1368,-496,-1493,-305,-37,442,162,-224
1,8726199,427,-1368,-496,-1493,-305,-37,442,162,-224
1,8726208,423,-1366,-500,-1491,-308,-46,442,162,-224
1,8726217,423,-1366,-500,-1491,-308,-46,442,162,-224
1,8726226,427,-1364,-497,-1489,-305,-47,442,162,-224
1,8726237,427,-1364,-497,-1489,-305,-47,442,162,-224
1,8726246,427,-1364,-495,-1498,-311,-44,430,156,-228
1,8726257,427,-1364,-495,-1498,-311,-44,430,156,-228
1,8726270,428,-1365,-493,-1498,-302,-46,430,156,-228
1,8726283,424,-1365,-498,-1491,-298,-42,430,156,-228
1,8726297,424,-1365,-498,-1491,-298,-42,430,156,-228
1,8726308,427,-1368,-496,-1496,-304,-42,430,156,-228
1,8726319,427,-1368,-496,-1496,-304,-42,430,156,-228
1,8726331,425,-1365,-497,-1494,-301,-37,430,156,-228
1,8726344,426,-1363,-499,-1488,-300,-37,430,156,-228
1,8726356,426,-1363,-499,-1488,-300,-37,430,156,-228
1,8726369,425,-1366,-498,-1485,-304,-44,443,169,-235
1,8726380,425,-1366,-498,-1485,-304,-44,443,169,-235
1,8726393,427,-1366,-492,-1493,-303,-38,443,169,-235
1,8726406,426,-1366,-493,-1489,-306,-46,443,169,-235
1,8726419,426,-1366,-493,-1489,-306,-46,443,169,-235
1,8726430,429,-1365,-495,-1501,-305,-50,443,169,-235
1,8726444,425,-1367,-500,-1492,-299,-42,443,169,-235
1,8726456,425,-1367,-500,-1492,-299,-42,443,169,-235
1,8726468,426,-1367,-491,-1495,-305,-43,443,169,-235
1,8726477,426,-1367,-491,-1495,-305,-43,443,169,-235
1,8726490,425,-1367,-499,-1498,-296,-47,443,169,-235
1,8726502,425,-1370,-495,-1495,-303,-41,443,169,-235
1,8726514,425,-1370,-495,-1495,-303,-41,432,164,-226
1,8726525,424,-1366,-502,-1496,-305,-37,432,164,-226
1,8726538,424,-1366,-502,-1496,-305,-37,432,164,-226
1,8726552,427,-1370,-495,-1504,-305,-42,432,164,-226
1,8726565,427,-1369,-500,-1500,-306,-41,432,164,-226
1,8726577,427,-1369,-500,-1500,-306,-41,432,164,-226
1,8726587,425,-1369,-499,-1500,-301,-42,432,164,-226
1,8726600,425,-1369,-499,-1500,-301,-42,432,164,-226
1,8726612,428,-1366,-494,-1495,-308,-37,432,164,-226
1,8726625,427,-1368,-491,-1492,-303,-42,439,171,-231
1,8726638,427,-1368,-491,-1492,-303,-42,439,171,-231
1,8726651,428,-1369,-496,-1491,-305,-39,439,171,-231
1,8726663,430,-1370,-494,-1497,-303,-40,439,171,-231
1,8726673,430,-1370,-494,-1497,-303,-40,439,171,-231
1,8726683,429,-1367,-496,-1498,-303,-40,439,171,-231
1,8726691,429,-1367,-496,-1498,-303,-40,439,171,-231
1,8726703,428,-1369,-498,-1487,-297,-37,439,171,-231
1,8726711,428,-1369,-498,-1487,-297,-37,439,171,-231
1,8726722,427,-1369,-498,-1491,-302,-42,439,171,-231
1,8726729,427,-1369,-498,-1491,-302,-42,439,171,-231
1,8726735,427,-1369,-498,-1491,-302,-42,439,171,-231
1,8726742,426,-1368,-491,-1494,-305,-42,439,171,-231
1,8726748,426,-1368,-491,-1494,-305,-42,440,170,-226
1,8726754,426,-1368,-491,-1494,-305,-42,440,170,-226
1,8726760,426,-1368,-491,-1494,-305,-42,440,170,-226
1,8726766,425,-1369,-494,-1491,-298,-42,440,170,-226
1,8726775,425,-1369,-494,-1491,-298,-42,440,170,-226
1,8726788,427,-1365,-496,-1492,-299,-41,440,170,-226
1,8726795,427,-1365,-496,-1492,-299,-41,440,170,-226
1,8726806,424,-1369,-495,-1485,-298,-40,440,170,-226
1,8726813,424,-1369,-495,-1485,-298,-40,440,170,-226
1,8726824,427,-1371,-499,-1497,-308,-42,440,170,-226
1,8726835,427,-1371,-499,-1497,-308,-42,440,170,-226
1,8726845,424,-1368,-497,-1497,-312,-49,440,170,-226
1,8726855,424,-1368,-497,-1497,-312,-49,440,170,-226
1,8726862,427,-1368,-489,-1496,-301,-42,440,170,-226
1,8726873,427,-1368,-489,-1496,-301,-42,439,167,-219
1,8726884,426,-1367,-495,-1497,-307,-44,439,167,-219
1,8726893,426,-1367,-495,-1497,-307,-44,439,167,-219
1,8726904,428,-1368,-494,-1495,-300,-42,439,167,-219
1,8726910,428,-1368,-494,-1495,-300,-42,439,167,-219
1,8726922,424,-1368,-497,-1486,-301,-37,439,167,-219
1,8726933,424,-1368,-497,-1486,-301,-37,439,167,-219
1,8726943,428,-1366,-500,-1487,-305,-42,439,167,-219
1,8726953,428,-1366,-500,-1487,-305,-42,439,167,-219
1,8726961,428,-1366,-500,-1487,-305,-42,439,167,-219
1,8726972,430,-1370,-493,-1488,-306,-35,439,167,-219
1,8726981,430,-1370,-493,-1488,-306,-35,439,167,-219
1,8726992,430,-1367,-492,-1498,-304,-40,444,164,-224
1,8727003,425,-1367,-498,-1494,-308,-40,444,164,-224
1,8727011,425,-1367,-498,-1494,-308,-40,444,164,-224
1,8727018,425,-1367,-498,-1494,-308,-40,444,164,-224
1,8727027,425,-1364,-497,-1494,-307,-36,444,164,-224
1,8727037,425,-1364,-497,-1494,-307,-36,444,164,-224
1,8727048,424,-1367,-497,-1491,-302,-48,444,164,-224
1,8727059,424,-1367,-497,-1491,-302,-48,444,164,-224
1,8727070,425,-1365,-492,-1495,-304,-44,444,164,-224
1,8727077,425,-1365,-492,-1495,-304,-44,444,164,-224
1,8727085,428,-1366,-496,-1494,-311,-46,444,164,-224
1,8727091,428,-1366,-496,-1494,-311,-46,444,164,-224
1,8727097,428,-1366,-496,-1494,-311,-46,444,164,-224
1,8727103,425,-1365,-494,-1490,-306,-42,444,164,-224
1,8727108,425,-1365,-494,-1490,-306,-42,444,164,-224
1,8727115,425,-1365,-494,-1490,-306,-42,444,164,-224
1,8727120,425,-1365,-494,-1490,-306,-42,444,164,-224
1,8727127,425,-1368,-495,-1500,-301,-32,443,161,-233
1,8727133,425,-1368,-495,-1500,-301,-32,443,161,-233
1,8727142,425,-1368,-495,-1500,-301,-32,443,161,-233
1,8727152,425,-1369,-499,-1496,-308,-42,443,161,-233
1,8727161,425,-1369,-499,-1496,-308,-42,443,161,-233
1,8727172,423,-1367,-502,-1495,-301,-44,443,161,-233
1,8727179,423,-1367,-502,-1495,-301,-44,443,161,-233
1,8727189,425,-1366,-493,-1495,-299,-43,443,161,-233
1,8727199,425,-1366,-493,-1495,-299,-43,443,161,-233
1,8727209,424,-1367,-492,-1491,-301,-40,443,161,-233
1,8727221,424,-1367,-492,-1491,-301,-40,443,161,-233
1,8727229,424,-1368,-498,-1495,-303,-43,443,161,-233
1,8727240,424,-1368,-498,-1495,-303,-43,443,161,-233
1,8727246,427,-1365,-492,-1490,-303,-42,437,165,-221
1,8727258,427,-1365,-492,-1490,-303,-42,437,165,-221
1,8727269,425,-1365,-491,-1499,-299,-36,437,165,-221
1,8727275,425,-1365,-491,-1499,-299,-36,437,165,-221
1,8727282,425,-1365,-491,-1499,-299,-36,437,165,-221
1,8727287,429,-1367,-497,-1496,-305,-40,437,165,-221
1,8727296,429,-1367,-497,-1496,-305,-40,437,165,-221
1,8727306,427,-1364,-494,-1493,-300,-37,437,165,-221
1,8727313,427,-1364,-494,-1493,-300,-37,437,165,-221
1,8727323,425,-1369,-495,-1498,-302,-46,437,165,-221
1,8727331,425,-1369,-495,-1498,-302,-46,437,165,-221
1,8727342,425,-1369,-495,-1498,-302,-46,437,165,-221
1,8727349,423,-1370,-497,-1495,-310,-41,437,165,-221
1,8727359,423,-1370,-497,-1495,-310,-41,437,165,-221
1,8727368,427,-1367,-492,-1490,-307,-42,442,166,-218
1,8727378,427,-1367,-492,-1490,-307,-42,442,166,-218
1,8727390,426,-1367,-495,-1493,-303,-42,442,166,-218
1,8727396,426,-1367,-495,-1493,-303,-42,442,166,-218
1,8727406,427,-1364,-502,-1482,-296,-41,442,166,-218
1,8727417,427,-1364,-502,-1482,-296,-41,442,166,-218
1,8727427,429,-1367,-492,-1487,-294,-45,442,166,-218
1,8727434,429,-1367,-492,-1487,-294,-45,442,166,-218
1,8727445,428,-1363,-496,-1494,-293,-41,442,166,-218
1,8727453,428,-1363,-496,-1494,-293,-41,442,166,-218
1,8727462,427,-1366,-495,-1489,-300,-42,442,166,-218
1,8727473,427,-1366,-495,-1489,-300,-42,442,166,-218
1,8727483,424,-1366,-496,-1487,-308,-50,441,171,-231
1,8727494,424,-1366,-496,-1487,-308,-50,441,171,-231
1,8727501,424,-1366,-496,-1487,-308,-50,441,171,-231
1,8727513,423,-1366,-495,-1493,-303,-45,441,171,-231
1,8727523,423,-1366,-495,-1493,-303,-45,441,171,-231
1,8727534,423,-1366,-495,-1493,-303,-45,441,171,-231
1,8727545,426,-1370,-499,-1488,-304,-41,441,171,-231
1,8727557,426,-1370,-499,-1488,-304,-41,441,171,-231
1,8727564,429,-1363,-499,-1489,-304,-41,441,171,-231
1,8727574,429,-1363,-499,-1489,-304,-41,441,171,-231
1,8727583,429,-1365,-501,-1490,-298,-43,441,171,-231
1,8727593,429,-1365,-501,-1490,-298,-43,441,171,-231
1,8727601,429,-1365,-501,-1490,-298,-43,441,171,-231
1,8727613,430,-1366,-494,-1486,-300,-50,441,171,-231
1,8727622,429,-1367,-498,-1486,-300,-39,446,170,-218
1,8727630,429,-1367,-498,-1486,-300,-39,446,170,-218
1,8727641,429,-1367,-498,-1486,-300,-39,446,170,-218
1,8727648,426,-1363,-499,-1489,-297,-44,446,170,-218
1,8727659,426,-1363,-499,-1489,-297,-44,446,170,-218
1,8727667,423,-1363,-500,-1493,-302,-39,446,170,-218
1,8727680,423,-1363,-500,-1493,-302,-39,446,170,-218
1,8727693,424,-1365,-498,-1488,-300,-35,446,170,-218
1,8727706,429,-1369,-501,-1486,-298,-46,446,170,-218
1,8727716,429,-1369,-501,-1486,-298,-46,446,170,-218
1,8727728,426,-1370,-496,-1489,-301,-46,446,170,-218
1,8727740,426,-1370,-496,-1489,-301,-46,446,170,-218
1,8727747,426,-1365,-497,-1495,-302,-41,440,174,-222
1,8727755,426,-1365,-497,-1495,-302,-41,440,174,-222
1,8727762,428,-1364,-495,-1497,-301,-44,440,174,-222
1,8727774,428,-1364,-495,-1497,-301,-44,440,174,-222
1,8727783,426,-1366,-501,-1494,-306,-43,440,174,-222
1,8727790,426,-1366,-501,-1494,-306,-43,440,174,-222
1,8727798,426,-1366,-501,-1494,-306,-43,440,174,-222
1,8727806,426,-1369,-499,-1492,-302,-47,440,174,-222
1,8727816,426,-1369,-499,-1492,-302,-47,440,174,-222
1,8727825,425,-1366,-493,-1488,-300,-38,440,174,-222
1,8727833,425,-1366,-493,-1488,-300,-38,440,174,-222
1,8727842,425,-1366,-499,-1492,-309,-45,440,174,-222
1,8727852,425,-1366,-499,-1492,-309,-45,440,174,-222
1,8727860,425,-1366,-499,-1492,-309,-45,440,174,-222
1,8727873,426,-1368,-493,-1490,-302,-46,435,165,-225
1,8727883,426,-1366,-496,-1490,-305,-40,435,165,-225
1,8727895,426,-1366,-496,-1490,-305,-40,435,165,-225
1,8727905,429,-1367,-499,-1492,-304,-41,435,165,-225
1,8727919,429,-1367,-499,-1492,-304,-41,435,165,-225
1,8727931,426,-1369,-499,-1492,-298,-38,435,165,-225
1,8727945,422,-1367,-497,-1491,-301,-34,435,165,-225
1,8727956,422,-1367,-497,-1491,-301,-34,435,165,-225
1,8727967,422,-1368,-499,-1492,-308,-41,435,165,-225
1,8727981,422,-1368,-499,-1492,-308,-41,435,165,-225
1,8727994,425,-1367,-497,-1495,-307,-41,439,163,-233
1,8728003,430,-1366,-495,-1494,-303,-38,439,163,-233
1,8728013,430,-1366,-495,-1494,-303,-38,439,163,-233
1,8728027,427,-1368,-501,-1491,-302,-43,439,163,-233
1,8728039,427,-1368,-501,-1491,-302,-43,439,163,-233
1,8728050,427,-1368,-497,-1497,-303,-47,439,163,-233
1,8728064,427,-1367,-500,-1489,-314,-46,439,163,-233
1,8728077,427,-1367,-500,-1489,-314,-46,439,163,-233
1,8728086,426,-1368,-494,-1497,-310,-38,439,163,-233
1,8728093,426,-1368,-494,-1497,-310,-38,439,163,-233
1,8728102,426,-1368,-494,-1497,-310,-38,439,163,-233
1,8728110,427,-1367,-495,-1494,-299,-41,439,163,-233
1,8728119,427,-1367,-495,-1494,-299,-41,439,163,-233
1,8728127,429,-1367,-487,-1497,-297,-38,429,161,-225
1,8728134,429,-1367,-487,-1497,-297,-38,429,161,-225
1,8728142,429,-1367,-487,-1497,-297,-38,429,161,-225
1,8728151,426,-1369,-497,-1493,-305,-42,429,161,-225
1,8728159,426,-1369,-497,-1493,-305,-42,429,161,-225
1,8728168,423,-1364,-499,-1491,-308,-41,429,161,-225
1,8728176,423,-1364,-499,-1491,-308,-41,429,161,-225
1,8728184,427,-1365,-497,-1492,-311,-41,429,161,-225
1,8728194,427,-1365,-497,-1492,-311,-41,429,161,-225
1,8728204,427,-1366,-494,-1494,-312,-37,429,161,-225
1,8728212,427,-1366,-494,-1494,-312,-37,429,161,-225
1,8728220,427,-1366,-494,-1494,-312,-37,429,161,-225
1,8728230,427,-1366,-502,-1493,-306,-44,429,161,-225
1,8728241,427,-1366,-502,-1493,-306,-44,429,161,-225
1,8728253,427,-1363,-496,-1488,-305,-47,439,161,-233
1,8728266,425,-1368,-498,-1495,-305,-41,439,161,-233
1,8728279,425,-1368,-498,-1495,-305,-41,439,161,-233
1,8728291,429,-1367,-501,-1497,-302,-39,439,161,-233
1,8728304,427,-1368,-497,-1499,-303,-41,439,161,-233
1,8728316,427,-1368,-497,-1499,-303,-41,439,161,-233
1,8728329,428,-1368,-498,-1502,-306,-42,439,161,-233
1,8728338,428,-1368,-498,-1502,-306,-42,439,161,-233
1,8728349,428,-1365,-498,-1495,-307,-42,439,161,-233
1,8728363,426,-1366,-486,-1494,-303,-42,439,161,-233
1,8728376,426,-1366,-486,-1494,-303,-42,437,169,-215
1,8728386,427,-1366,-495,-1491,-300,-44,437,169,-215
1,8728397,427,-1366,-495,-1491,-300,-44,437,169,-215
1,8728406,427,-1365,-499,-1496,-304,-43,437,169,-215
1,8728414,427,-1365,-499,-1496,-304,-43,437,169,-215
1,8728422,427,-1365,-499,-1496,-304,-43,437,169,-215
1,8728431,427,-1367,-502,-1494,-305,-47,437,169,-215
1,8728440,427,-1367,-502,-1494,-305,-47,437,169,-215
1,8728451,427,-1365,-495,-1493,-307,-43,437,169,-215
1,8728466,423,-1368,-497,-1493,-303,-43,437,169,-215
1,8728479,423,-1368,-497,-1493,-303,-43,437,169,-215
1,8728488,428,-1366,-493,-1494,-304,-43,433,161,-227
1,8728501,428,-1366,-493,-1494,-304,-43,433,161,-227
1,8728515,431,-1368,-495,-1496,-305,-44,433,161,-227
1,8728528,428,-1367,-496,-1499,-304,-43,433,161,-227
1,8728538,428,-1367,-496,-1499,-304,-43,433,161,-227
1,8728550,429,-1369,-495,-1498,-303,-48,433,161,-227
1,8728562,429,-1369,-495,-1498,-303,-48,433,161,-227
1,8728576,424,-1366,-499,-1497,-303,-48,433,161,-227
1,8728587,427,-1367,-496,-1497,-310,-44,433,161,-227
1,8728600,427,-1367,-496,-1497,-310,-44,433,161,-227
1,8728613,428,-1364,-498,-1486,-303,-35,431,161,-229
1,8728626,429,-1365,-494,-1484,-304,-45,431,161,-229
1,8728639,429,-1365,-494,-1484,-304,-45,431,161,-229
1,8728651,427,-1362,-495,-1486,-303,-44,431,161,-229
1,8728664,428,-1365,-496,-1490,-299,-40,431,161,-229
1,8728677,428,-1365,-496,-1490,-299,-40,431,161,-229
1,8728685,423,-1367,-499,-1489,-300,-41,431,161,-229
1,8728696,423,-1367,-499,-1489,-300,-41,431,161,-229
1,8728704,425,-1366,-497,-1493,-303,-43,431,161,-229
1,8728714,425,-1366,-497,-1493,-303,-43,431,161,-229
1,8728723,425,-1366,-497,-1496,-304,-44,431,161,-229
1,8728733,425,-1366,-497,-1496,-304,-44,431,161,-229
1,8728739,425,-1366,-497,-1496,-304,-44,431,161,-229
1,8728745,429,-1368,-496,-1490,-305,-42,444,162,-228
1,8728752,429,-1368,-496,-1490,-305,-42,444,162,-228
1,8728758,429,-1368,-496,-1490,-305,-42,444,162,-228
1,8728763,426,-1368,-496,-1489,-301,-38,444,162,-228
1,8728770,426,-1368,-496,-1489,-301,-38,444,162,-228
1,8728780,426,-1368,-496,-1489,-301,-38,444,162,-228
1,8728787,428,-1365,-496,-1486,-297,-50,444,162,-228
1,8728798,428,-1365,-496,-1486,-297,-50,444,162,-228
1,8728804,423,-1365,-495,-1491,-305,-42,444,162,-228
1,8728815,423,-1365,-495,-1491,-305,-42,444,162,-228
1,8728823,425,-1368,-493,-1491,-302,-43,444,162,-228
1,8728836,425,-1368,-493,-1491,-302,-43,444,162,-228
1,8728846,425,-1367,-496,-1489,-304,-48,444,162,-228
1,8728854,425,-1367,-496,-1489,-304,-48,444,162,-228
1,8728864,425,-1367,-492,-1488,-302,-41,442,166,-232
1,8728871,425,-1367,-492,-1488,-302,-41,442,166,-232
1,8728883,424,-1368,-500,-1490,-306,-42,442,166,-232
1,8728892,424,-1368,-500,-1490,-306,-42,442,166,-232
1,8728903,427,-1368,-496,-1492,-305,-47,442,166,-232
1,8728915,427,-1368,-496,-1492,-305,-47,442,166,-232
1,8728922,427,-1368,-496,-1492,-305,-47,442,166,-232
1,8728933,426,-1366,-498,-1493,-300,-38,442,166,-232
1,8728940,426,-1366,-498,-1493,-300,-38,442,166,-232
1,8728946,427,-1365,-495,-1483,-305,-47,442,166,-232
1,8728952,427,-1365,-495,-1483,-305,-47,442,166,-232
1,8728958,427,-1365,-495,-1483,-305,-47,442,166,-232
1,8728969,425,-1367,-497,-1493,-303,-39,442,166,-232
1,8728977,425,-1367,-497,-1493,-303,-39,442,166,-232
1,8728986,424,-1365,-496,-1492,-300,-35,439,165,-223
1,8728997,424,-1365,-496,-1492,-300,-35,439,165,-223
1,8729005,423,-1365,-500,-1494,-307,-42,439,165,-223
1,8729016,423,-1365,-500,-1494,-307,-42,439,165,-223
1,8729022,423,-1365,-500,-1494,-307,-42,439,165,-223
1,8729032,428,-1365,-501,-1495,-306,-43,439,165,-223
1,8729043,431,-1366,-498,-1497,-303,-40,439,165,-223
1,8729054,431,-1366,-498,-1497,-303,-40,439,165,-223
1,8729064,428,-1367,-495,-1490,-303,-44,439,165,-223
1,8729071,428,-1367,-495,-1490,-303,-44,439,165,-223
1,8729080,428,-1367,-495,-1490,-303,-44,439,165,-223
1,8729088,427,-1370,-499,-1492,-296,-34,439,165,-223
1,8729094,427,-1370,-499,-1492,-296,-34,439,165,-223
1,8729099,427,-1370,-499,-1492,-296,-34,439,165,-223
1,8729105,425,-1370,-494,-1490,-304,-47,435,161,-227
1,8729111,425,-1370,-494,-1490,-304,-47,435,161,-227
1,8729117,425,-1370,-494,-1490,-304,-47,435,161,-227
1,8729123,425,-1366,-497,-1483,-303,-41,435,161,-227
1,8729129,425,-1366,-497,-1483,-303,-41,435,161,-227
1,8729138,425,-1366,-497,-1483,-303,-41,435,161,-227
1,8729147,426,-1366,-498,-1492,-302,-40,435,161,-227
1,8729155,426,-1366,-498,-1492,-302,-40,435,161,-227
1,8729166,425,-1363,-498,-1485,-308,-48,435,161,-227
1,8729177,425,-1363,-498,-1485,-308,-48,435,161,-227
1,8729186,428,-1366,-500,-1489,-309,-50,435,161,-227
1,8729193,428,-1366,-500,-1489,-309,-50,435,161,-227
1,8729204,426,-1365,-502,-1489,-311,-43,435,161,-227
1,8729214,426,-1365,-502,-1489,-311,-43,435,161,-227
1,8729223,426,-1365,-502,-1489,-311,-43,435,161,-227
1,8729234,426,-1366,-495,-1489,-305,-42,435,161,-227
1,8729242,426,-1366,-495,-1489,-305,-42,435,161,-227
1,8729252,425,-1366,-492,-1491,-301,-43,437,165,-229
1,8729265,427,-1366,-496,-1487,-306,-46,437,165,-229
1,8729273,427,-1366,-496,-1487,-306,-46,437,165,-229
1,8729283,427,-1366,-496,-1487,-306,-46,437,165,-229
1,8729289,422,-1368,-498,-1492,-306,-39,437,165,-229
1,8729300,422,-1368,-498,-1492,-306,-39,437,165,-229
1,8729312,426,-1368,-498,-1496,-309,-40,437,165,-229
1,8729321,426,-1368,-498,-1496,-309,-40,437,165,-229
1,8729333,427,-1365,-497,-1496,-300,-45,437,165,-229
1,8729340,427,-1365,-497,-1496,-300,-45,437,165,-229
1,8729353,428,-1366,-502,-1489,-297,-46,437,165,-229
1,8729360,428,-1366,-502,-1489,-297,-46,437,165,-229
1,8729370,426,-1368,-498,-1484,-298,-50,439,161,-233
1,8729382,426,-1368,-498,-1484,-298,-50,439,161,-233
1,8729392,423,-1367,-501,-1491,-302,-43,439,161,-233
1,8729401,423,-1367,-501,-1491,-302,-43,439,161,-233
1,8729407,425,-1365,-499,-1496,-302,-39,439,161,-233
1,8729413,425,-1365,-499,-1496,-302,-39,439,161,-233
1,8729419,425,-1365,-499,-1496,-302,-39,439,161,-233
1,8729425,424,-1369,-498,-1495,-304,-41,439,161,-233
1,8729433,424,-1369,-498,-1495,-304,-41,439,161,-233
1,8729442,424,-1369,-498,-1495,-304,-41,439,161,-233
1,8729452,428,-1368,-496,-1490,-310,-48,439,161,-233
1,8729458,428,-1368,-496,-1490,-310,-48,439,161,-233
1,8729469,427,-1368,-497,-1495,-307,-40,439,161,-233
1,8729479,427,-1368,-497,-1495,-307,-40,439,161,-233
1,8729490,429,-1370,-495,-1489,-302,-36,437,161,-231
1,8729500,429,-1370,-495,-1489,-302,-36,437,161,-231
1,8729507,427,-1366,-494,-1489,-302,-48,437,161,-231
1,8729517,427,-1366,-494,-1489,-302,-48,437,161,-231
1,8729527,424,-1369,-492,-1490,-313,-45,437,161,-231
1,8729538,424,-1369,-492,-1490,-313,-45,437,161,-231
1,8729546,424,-1367,-494,-1491,-302,-40,437,161,-231
1,8729558,424,-1367,-494,-1491,-302,-40,437,161,-231
1,8729567,426,-1364,-500,-1494,-300,-46,437,161,-231
1,8729575,426,-1364,-500,-1494,-300,-46,437,161,-231
1,8729586,426,-1364,-500,-1495,-304,-48,437,161,-231
1,8729595,426,-1364,-500,-1495,-304,-48,437,161,-231
1,8729606,424,-1365,-496,-1501,-305,-45,433,165,-231
1,8729617,424,-1365,-496,-1501,-305,-45,433,165,-231
1,8729625,426,-1366,-495,-1492,-302,-40,433,165,-231
1,8729636,426,-1366,-495,-1492,-302,-40,433,165,-231
1,8729648,428,-1367,-500,-1496,-298,-42,433,165,-231
1,8729656,428,-1367,-500,-1496,-298,-42,433,165,-231
1,8729666,426,-1366,-498,-1492,-303,-44,433,165,-231
1,8729675,426,-1366,-498,-1492,-303,-44,433,165,-231
1,8729689,425,-1364,-494,-1497,-311,-43,433,165,-231
1,8729701,425,-1364,-494,-1497,-311,-43,433,165,-231
1,8729713,427,-1367,-494,-1493,-313,-32,433,165,-231
1,8729725,428,-1367,-497,-1488,-308,-43,433,165,-231
1,8729738,428,-1367,-497,-1488,-308,-43,433,165,-231
1,8729746,430,-1369,-497,-1487,-308,-40,433,165,-231
1,8729753,430,-1369,-497,-1487,-308,-40,433,165,-231
1,8729761,430,-1369,-497,-1487,-308,-40,433,165,-231
1,8729769,428,-1363,-497,-1489,-303,-42,433,165,-231
1,8729780,428,-1363,-497,-1489,-303,-42,433,165,-231
1,8729788,425,-1366,-499,-1496,-308,-44,433,165,-231
1,8729798,425,-1366,-499,-1496,-308,-44,433,165,-231
1,8729807,422,-1365,-495,-1488,-298,-37,433,165,-231
1,8729817,422,-1365,-495,-1488,-298,-37,433,165,-231
1,8729826,423,-1369,-496,-1493,-298,-38,433,165,-231
1,8729839,423,-1369,-496,-1493,-298,-38,433,165,-231
1,8729850,427,-1368,-497,-1490,-298,-38,433,165,-231
1,8729863,427,-1368,-497,-1490,-298,-38,433,165,-231
1,8729875,427,-1365,-491,-1493,-304,-44,435,165,-223
1,8729888,428,-1364,-494,-1490,-299,-43,435,165,-223
1,8729897,428,-1364,-494,-1490,-299,-43,435,165,-223
1,8729909,424,-1367,-499,-1486,-300,-44,435,165,-223
1,8729922,424,-1367,-499,-1486,-300,-44,435,165,-223
1,8729934,427,-1362,-498,-1493,-306,-48,435,165,-223
1,8729945,428,-1364,-495,-1492,-301,-38,435,165,-223
1,8729957,428,-1364,-495,-1492,-301,-38,435,165,-223
1,8729968,430,-1361,-500,-1495,-306,-32,435,165,-223
1,8729982,430,-1361,-500,-1495,-306,-32,435,165,-223
1,8729994,424,-1368,-500,-1487,-307,-44,432,162,-230
1,8730008,424,-1366,-495,-1494,-310,-47,432,162,-230
1,8730020,424,-1366,-495,-1494,-310,-47,432,162,-230
1,8730035,425,-1369,-495,-1495,-304,-41,432,162,-230
1,8730047,426,-1367,-501,-1488,-305,-43,432,162,-230
1,8730059,426,-1367,-501,-1488,-305,-43,432,162,-230
1,8730072,426,-1366,-498,-1497,-304,-41,432,162,-230
1,8730081,426,-1366,-498,-1497,-304,-41,432,162,-230
1,8730088,426,-1369,-498,-1497,-298,-40,432,162,-230
1,8730097,426,-1369,-498,-1497,-298,-40,432,162,-230
1,8730105,426,-1366,-498,-1493,-302,-34,431,163,-231
1,8730115,426,-1366,-498,-1493,-302,-34,431,163,-231
1,8730123,426,-1366,-498,-1493,-302,-34,431,163,-231
1,8730131,425,-1366,-495,-1492,-300,-43,431,163,-231
1,8730139,425,-1366,-495,-1492,-300,-43,431,163,-231
1,8730147,426,-1368,-496,-1492,-300,-45,431,163,-231
1,8730156,426,-1368,-496,-1492,-300,-45,431,163,-231
1,8730164,425,-1365,-496,-1497,-299,-40,431,163,-231
1,8730172,425,-1365,-496,-1497,-299,-40,431,163,-231
1,8730180,425,-1365,-496,-1497,-299,-40,431,163,-231
1,8730188,427,-1369,-498,-1490,-298,-50,431,163,-231
1,8730198,427,-1369,-498,-1490,-298,-50,431,163,-231
1,8730206,427,-1370,-498,-1491,-296,-43,431,163,-231
1,8730214,427,-1370,-498,-1491,-296,-43,431,163,-231
1,8730222,427,-1370,-498,-1491,-296,-43,431,163,-231
1,8730231,425,-1367,-493,-1494,-301,-46,437,163,-223
1,8730241,425,-1367,-493,-1494,-301,-46,437,163,-223
1,8730250,426,-1366,-496,-1492,-308,-43,437,163,-223
1,8730258,426,-1366,-496,-1492,-308,-43,437,163,-223
1,8730267,429,-1366,-499,-1487,-302,-42,437,163,-223
1,8730277,429,-1366,-499,-1487,-302,-42,437,163,-223
1,8730289,430,-1368,-503,-1487,-305,-38,437,163,-223
1,8730302,430,-1368,-503,-1487,-305,-38,437,163,-223
1,8730315,424,-1366,-501,-1492,-306,-33,437,163,-223
1,8730329,423,-1362,-499,-1494,-299,-38,437,163,-223
1,8730342,423,-1362,-499,-1494,-299,-38,437,163,-223
1,8730356,427,-1363,-493,-1489,-295,-43,437,163,-223
1,8730370,428,-1365,-496,-1493,-295,-42,439,161,-227
1,8730380,428,-1365,-496,-1493,-295,-42,439,161,-227
1,8730394,427,-1366,-494,-1493,-299,-36,439,161,-227
1,8730406,426,-1367,-495,-1491,-304,-43,439,161,-227
1,8730419,426,-1367,-495,-1491,-304,-43,439,161,-227
1,8730429,425,-1367,-501,-1493,-309,-51,439,161,-227
1,8730443,425,-1367,-501,-1493,-309,-51,439,161,-227
1,8730456,427,-1367,-503,-1484,-300,-40,439,161,-227
1,8730465,427,-1364,-502,-1488,-299,-35,439,161,-227
1,8730477,427,-1364,-502,-1488,-299,-35,439,161,-227
1,8730490,429,-1365,-498,-1491,-299,-36,428,166,-230
1,8730499,429,-1365,-498,-1491,-299,-36,428,166,-230
1,8730511,427,-1369,-500,-1487,-305,-46,428,166,-230
1,8730523,427,-1369,-500,-1487,-305,-46,428,166,-230
1,8730535,425,-1367,-498,-1484,-302,-39,428,166,-230
1,8730547,425,-1367,-498,-1484,-302,-39,428,166,-230
1,8730560,425,-1367,-498,-1484,-302,-39,428,166,-230
1,8730573,425,-1365,-496,-1496,-304,-38,428,166,-230
1,8730586,426,-1367,-500,-1488,-299,-46,428,166,-230
1,8730597,426,-1367,-500,-1488,-299,-46,428,166,-230
1,8730611,426,-1368,-495,-1486,-296,-43,443,167,-225
1,8730624,426,-1369,-500,-1489,-299,-34,443,167,-225
1,8730637,426,-1369,-500,-1489,-299,-34,443,167,-225
1,8730647,426,-1367,-500,-1483,-303,-38,443,167,-225
1,8730658,426,-1367,-500,-1483,-303,-38,443,167,-225
1,8730667,429,-1369,-496,-1485,-304,-47,443,167,-225
1,8730675,429,-1369,-496,-1485,-304,-47,443,167,-225
1,8730683,426,-1365,-493,-1490,-300,-43,443,167,-225
1,8730690,426,-1365,-493,-1490,-300,-43,443,167,-225
1,8730697,426,-1365,-493,-1490,-300,-43,443,167,-225
1,8730707,428,-1366,-502,-1492,-301,-38,443,167,-225
1,8730715,428,-1366,-502,-1492,-301,-38,443,167,-225
1,8730726,423,-1368,-494,-1496,-305,-45,440,164,-230
1,8730738,423,-1368,-494,-1496,-305,-45,440,164,-230
1,8730744,423,-1367,-492,-1495,-299,-46,440,164,-230
1,8730750,423,-1367,-492,-1495,-299,-46,440,164,-230
1,8730757,423,-1367,-492,-1495,-299,-46,440,164,-230
1,8730763,423,-1367,-492,-1495,-299,-46,440,164,-230
1,8730770,429,-1366,-500,-1494,-304,-43,440,164,-230
1,8730778,429,-1366,-500,-1494,-304,-43,440,164,-230
1,8730783,429,-1363,-499,-1494,-306,-39,440,164,-230
1,8730790,429,-1363,-499,-1494,-306,-39,440,164,-230
1,8730799,429,-1363,-499,-1494,-306,-39,440,164,-230
1,8730806,427,-1362,-500,-1489,-299,-33,440,164,-230
1,8730813,427,-1362,-500,-1489,-299,-33,440,164,-230
1,8730821,427,-1362,-500,-1489,-299,-33,440,164,-230
1,8730829,421,-1367,-498,-1487,-302,-47,440,164,-230
1,8730840,421,-1367,-498,-1487,-302,-47,440,164,-230
1,8730848,422,-1368,-493,-1494,-300,-45,440,164,-230
1,8730859,422,-1368,-493,-1494,-300,-45,440,164,-230
1,8730866,423,-1366,-491,-1493,-299,-37,431,163,-233
1,8730876,423,-1366,-491,-1493,-299,-37,431,163,-233
1,8730888,425,-1365,-496,-1492,-302,-36,431,163,-233
1,8730897,425,-1365,-496,-1492,-302,-36,431,163,-233
1,8730907,426,-1366,-500,-1490,-306,-35,431,163,-233
1,8730915,426,-1366,-500,-1490,-306,-35,431,163,-233
1,8730927,425,-1366,-502,-1488,-303,-35,431,163,-233
1,8730938,425,-1366,-502,-1488,-303,-35,431,163,-233
1,8730947,425,-1366,-500,-1490,-297,-39,431,163,-233
1,8730957,425,-1366,-500,-1490,-297,-39,431,163,-233
1,8730966,426,-1367,-497,-1498,-308,-39,431,163,-233
1,8730974,426,-1367,-497,-1498,-308,-39,431,163,-233
1,8730982,426,-1367,-497,-1498,-308,-39,431,163,-233
1,8730992,427,-1363,-498,-1500,-306,-36,439,165,-227
1,8731002,427,-1363,-498,-1500,-306,-36,439,165,-227
1,8731014,428,-1366,-497,-1492,-300,-44,439,165,-227
1,8731025,425,-1366,-500,-1488,-300,-42,439,165,-227
1,8731032,425,-1366,-500,-1488,-300,-42,439,165,-227
1,8731042,425,-1366,-500,-1488,-300,-42,439,165,-227
1,8731052,426,-1365,-494,-1496,-303,-31,439,165,-227
1,8731064,426,-1364,-499,-1493,-299,-38,439,165,-227
1,8731073,426,-1364,-499,-1493,-299,-38,439,165,-227
1,8731082,426,-1364,-499,-1493,-299,-38,439,165,-227
1,8731088,426,-1363,-498,-1486,-299,-39,439,165,-227
1,8731095,426,-1363,-498,-1486,-299,-39,439,165,-227
1,8731101,426,-1363,-498,-1486,-299,-39,439,165,-227
1,8731107,429,-1365,-494,-1485,-302,-42,437,165,-227
1,8731113,429,-1365,-494,-1485,-302,-42,437,165,-227
1,8731119,429,-1365,-494,-1485,-302,-42,437,165,-227
1,8731125,425,-1365,-496,-1493,-296,-39,437,165,-227
1,8731131,425,-1365,-496,-1493,-296,-39,437,165,-227
1,8731141,425,-1365,-496,-1493,-296,-39,437,165,-227
1,8731152,427,-1363,-498,-1490,-305,-40,437,165,-227
1,8731163,427,-1363,-498,-1490,-305,-40,437,165,-227
1,8731172,426,-1367,-495,-1483,-307,-43,437,165,-227
1,8731183,426,-1367,-495,-1483,-307,-43,437,165,-227
1,8731189,426,-1367,-495,-1483,-307,-43,437,165,-227
1,8731195,426,-1367,-495,-1483,-307,-43,437,165,-227
1,8731201,426,-1367,-495,-1483,-307,-43,437,165,-227
1,8731207,428,-1368,-490,-1486,-301,-37,437,165,-227
1,8731217,428,-1368,-490,-1486,-301,-37,437,165,-227
1,8731228,427,-1365,-496,-1490,-302,-39,437,159,-227
1,8731237,427,-1365,-496,-1490,-302,-39,437,159,-227
1,8731248,427,-1367,-500,-1495,-306,-38,437,159,-227
1,8731255,427,-1367,-500,-1495,-306,-38,437,159,-227
1,8731266,427,-1365,-498,-1493,-309,-38,437,159,-227
1,8731277,427,-1365,-498,-1493,-309,-38,437,159,-227
1,8731286,426,-1365,-496,-1488,-309,-41,437,159,-227
1,8731296,426,-1365,-496,-1488,-309,-41,437,159,-227
1,8731303,426,-1368,-497,-1488,-302,-32,437,159,-227
1,8731314,426,-1368,-497,-1488,-302,-32,437,159,-227
1,8731325,426,-1367,-498,-1492,-312,-45,437,159,-227
1,8731333,426,-1367,-498,-1492,-312,-45,437,159,-227
1,8731343,424,-1363,-497,-1492,-305,-45,437,159,-227
1,8731351,424,-1363,-497,-1492,-305,-45,433,165,-231
1,8731361,424,-1363,-497,-1492,-305,-45,433,165,-231
1,8731372,423,-1363,-498,-1488,-299,-34,433,165,-231
1,8731382,423,-1363,-498,-1488,-299,-34,433,165,-231
1,8731393,427,-1364,-497,-1490,-304,-34,433,165,-231
1,8731401,427,-1364,-497,-1490,-304,-34,433,165,-231
1,8731410,427,-1366,-497,-1494,-306,-44,433,165,-231
1,8731417,427,-1366,-497,-1494,-306,-44,433,165,-231
1,8731428,425,-1367,-504,-1485,-310,-43,433,165,-231
1,8731439,425,-1367,-504,-1485,-310,-43,433,165,-231
1,8731447,426,-1366,-498,-1491,-305,-41,433,165,-231
1,8731459,426,-1366,-498,-1491,-305,-41,433,165,-231
1,8731468,423,-1366,-498,-1490,-306,-44,433,165,-231
1,8731479,423,-1366,-498,-1490,-306,-44,433,165,-231
1,8731485,426,-1367,-493,-1492,-303,-40,438,164,-228
1,8731496,426,-1367,-493,-1492,-303,-40,438,164,-228
1,8731507,427,-1365,-491,-1494,-302,-46,438,164,-228
1,8731516,427,-1365,-491,-1494,-302,-46,438,164,-228
1,8731524,426,-1366,-499,-1489,-303,-46,438,164,-228
1,8731534,426,-1366,-499,-1489,-303,-46,438,164,-228
1,8731543,426,-1366,-499,-1489,-303,-46,438,164,-228
1,8731551,424,-1366,-502,-1491,-299,-42,438,164,-228
1,8731563,424,-1366,-502,-1491,-299,-42,438,164,-228
1,8731569,425,-1367,-501,-1494,-299,-38,438,164,-228
1,8731579,425,-1367,-501,-1494,-299,-38,438,164,-228
1,8731590,427,-1365,-496,-1494,-304,-40,438,164,-228
1,8731600,427,-1365,-496,-1494,-304,-40,438,164,-228
1,8731611,424,-1362,-494,-1494,-307,-33,445,167,-231
1,8731619,424,-1362,-494,-1494,-307,-33,445,167,-231
1,8731630,422,-1365,-491,-1491,-302,-41,445,167,-231
1,8731636,422,-1365,-491,-1491,-302,-41,445,167,-231
1,8731649,420,-1368,-501,-1490,-299,-43,445,167,-231
1,8731659,420,-1368,-501,-1490,-299,-43,445,167,-231
1,8731666,423,-1366,-496,-1493,-302,-43,445,167,-231
1,8731671,423,-1366,-496,-1493,-302,-43,445,167,-231
1,8731677,423,-1366,-496,-1493,-302,-43,445,167,-231
1,8731685,427,-1364,-492,-1496,-304,-47,445,167,-231
1,8731698,427,-1364,-492,-1496,-304,-47,445,167,-231
1,8731708,427,-1365,-500,-1491,-304,-40,445,167,-231
1,8731719,427,-1365,-500,-1491,-304,-40,445,167,-231
1,8731732,426,-1369,-493,-1490,-302,-45,436,164,-218
1,8731741,426,-1369,-493,-1490,-302,-45,436,164,-218
1,8731749,424,-1366,-497,-1492,-306,-37,436,164,-218
1,8731757,424,-1366,-497,-1492,-306,-37,436,164,-218
1,8731767,424,-1369,-494,-1492,-303,-41,436,164,-218
1,8731781,424,-1369,-494,-1492,-303,-41,436,164,-218
1,8731789,424,-1367,-496,-1490,-310,-46,436,164,-218
1,8731801,424,-1367,-496,-1490,-310,-46,436,164,-218
1,8731813,426,-1365,-496,-1489,-306,-44,436,164,-218
1,8731826,426,-1366,-496,-1488,-308,-49,436,164,-218
1,8731838,426,-1366,-496,-1488,-308,-49,436,164,-218
1,8731852,424,-1363,-494,-1487,-304,-40,442,164,-230
1,8731865,420,-1367,-497,-1489,-307,-35,442,164,-230
1,8731877,420,-1367,-497,-1489,-307,-35,442,164,-230
1,8731888,423,-1365,-498,-1498,-306,-39,442,164,-230
1,8731901,423,-1365,-498,-1498,-306,-39,442,164,-230
1,8731914,426,-1364,-498,-1491,-299,-43,442,164,-230
1,8731925,422,-1362,-500,-1494,-299,-44,442,164,-230
1,8731938,422,-1362,-500,-1494,-299,-44,442,164,-230
1,8731952,424,-1367,-497,-1491,-304,-41,442,164,-230
1,8731964,424,-1367,-497,-1491,-304,-41,442,164,-230
1,8731975,424,-1364,-494,-1486,-301,-46,442,164,-230
1,8731987,426,-1366,-493,-1489,-300,-46,434,158,-224
1,8732000,426,-1366,-493,-1489,-300,-46,434,158,-224
1,8732014,429,-1364,-494,-1485,-304,-42,434,158,-224
1,8732022,429,-1364,-494,-1485,-304,-42,434,158,-224
1,8732036,427,-1366,-498,-1481,-306,-46,434,158,-224
1,8732048,425,-1366,-498,-1493,-306,-33,434,158,-224
1,8732060,425,-1366,-498,-1493,-306,-33,434,158,-224
1,8732071,424,-1367,-494,-1489,-305,-45,434,158,-224
1,8732083,424,-1367,-494,-1489,-305,-45,434,158,-224
1,8732091,425,-1365,-501,-1491,-300,-47,434,158,-224
1,8732099,425,-1365,-501,-1491,-300,-47,434,158,-224
1,8732107,429,-1365,-496,-1489,-309,-39,431,161,-229
1,8732115,429,-1365,-496,-1489,-309,-39,431,161,-229
1,8732125,427,-1364,-495,-1491,-301,-39,431,161,-229
1,8732132,427,-1364,-495,-1491,-301,-39,431,161,-229
1,8732141,427,-1364,-495,-1491,-301,-39,431,161,-229
1,8732148,426,-1368,-499,-1486,-295,-43,431,161,-229
1,8732157,426,-1368,-499,-1486,-295,-43,431,161,-229
1,8732165,423,-1366,-502,-1495,-300,-45,431,161,-229
1,8732173,423,-1366,-502,-1495,-300,-45,431,161,-229
1,8732181,423,-1366,-502,-1495,-300,-45,431,161,-229
1,8732189,422,-1365,-500,-1491,-300,-40,431,161,-229
1,8732198,422,-1365,-500,-1491,-300,-40,431,161,-229
1,8732208,426,-1366,-497,-1488,-301,-41,431,161,-229
1,8732217,426,-1366,-497,-1488,-301,-41,431,161,-229
1,8732225,427,-1367,-492,-1488,-301,-40,441,169,-223
1,8732234,427,-1367,-492,-1488,-301,-40,441,169,-223
1,8732242,427,-1367,-492,-1488,-301,-40,441,169,-223
1,8732253,427,-1365,-494,-1488,-303,-36,441,169,-223
1,8732265,421,-1366,-496,-1489,-299,-43,441,169,-223
1,8732273,421,-1366,-496,-1489,-299,-43,441,169,-223
1,8732281,421,-1366,-496,-1489,-299,-43,441,169,-223
1,8732291,429,-1366,-503,-1496,-294,-42,441,169,-223
1,8732298,429,-1366,-503,-1496,-294,-42,441,169,-223
1,8732307,423,-1366,-500,-1487,-300,-38,441,169,-223
1,8732319,423,-1366,-500,-1487,-300,-38,441,169,-223
1,8732334,425,-1368,-497,-1494,-307,-38,441,169,-223
1,8732343,425,-1368,-497,-1494,-307,-38,441,169,-223
1,8732354,427,-1368,-496,-1489,-303,-38,439,175,-231
1,8732368,424,-1367,-490,-1484,-305,-41,439,175,-231
1,8732381,424,-1367,-490,-1484,-305,-41,439,175,-231
1,8732391,423,-1364,-496,-1483,-300,-45,439,175,-231
1,8732404,426,-1363,-500,-1494,-303,-42,439,175,-231
1,8732419,426,-1363,-500,-1494,-303,-42,439,175,-231
1,8732432,426,-1363,-496,-1491,-300,-34,439,175,-231
1,8732441,426,-1363,-496,-1491,-300,-34,439,175,-231
1,8732454,423,-1365,-496,-1484,-298,-45,439,175,-231
1,8732468,427,-1367,-499,-1492,-299,-38,439,175,-231
1,8732480,427,-1367,-499,-1492,-299,-38,439,175,-231
1,8732490,423,-1364,-495,-1492,-307,-42,435,171,-219
1,8732504,423,-1364,-495,-1492,-307,-42,435,171,-219
1,8732516,426,-1367,-503,-1492,-302,-37,435,171,-219
1,8732528,429,-1364,-498,-1494,-298,-37,435,171,-219
1,8732539,429,-1364,-498,-1494,-298,-37,435,171,-219
1,8732554,427,-1367,-502,-1490,-303,-41,435,171,-219
1,8732566,425,-1366,-499,-1488,-301,-36,435,171,-219
1,8732579,425,-1366,-499,-1488,-301,-36,435,171,-219
1,8732593,424,-1365,-497,-1492,-307,-42,435,171,-219
1,8732606,426,-1362,-496,-1490,-304,-38,441,165,-233
1,8732617,426,-1362,-496,-1490,-304,-38,441,165,-233
1,8732628,428,-1365,-496,-1487,-304,-39,441,165,-233
1,8732641,428,-1365,-496,-1487,-304,-39,441,165,-233
1,8732654,427,-1365,-501,-1495,-315,-45,441,165,-233
1,8732665,426,-1365,-502,-1493,-309,-39,441,165,-233
1,8732675,426,-1365,-502,-1493,-309,-39,441,165,-233
1,8732689,424,-1365,-500,-1491,-305,-39,441,165,-233
1,8732700,424,-1365,-500,-1491,-305,-39,441,165,-233
1,8732708,423,-1364,-503,-1494,-300,-36,441,165,-233
1,8732720,423,-1364,-503,-1494,-300,-36,441,165,-233
1,8732727,425,-1361,-491,-1484,-303,-37,437,163,-231
1,8732737,425,-1361,-491,-1484,-303,-37,437,163,-231
1,8732743,425,-1361,-491,-1484,-303,-37,437,163,-231
1,8732749,422,-1365,-495,-1488,-298,-36,437,163,-231
1,8732755,422,-1365,-495,-1488,-298,-36,437,163,-231
1,8732761,422,-1365,-495,-1488,-298,-36,437,163,-231
1,8732768,425,-1366,-500,-1494,-302,-37,437,163,-231
1,8732775,425,-1366,-500,-1494,-302,-37,437,163,-231
1,8732786,422,-1365,-502,-1490,-304,-38,437,163,-231
1,8732796,422,-1365,-502,-1490,-304,-38,437,163,-231
1,8732807,423,-1365,-499,-1494,-301,-41,437,163,-231
1,8732819,423,-1365,-499,-1494,-301,-41,437,163,-231
1,8732825,427,-1368,-502,-1487,-299,-44,437,163,-231
1,8732836,427,-1368,-502,-1487,-299,-44,437,163,-231
1,8732843,427,-1368,-502,-1487,-299,-44,437,163,-231
1,8732849,428,-1362,-501,-1488,-300,-45,441,165,-227
1,8732858,428,-1362,-501,-1488,-300,-45,441,165,-227
1,8732869,426,-1367,-495,-1492,-300,-40,441,165,-227
1,8732878,426,-1367,-495,-1492,-300,-40,441,165,-227
1,8732889,426,-1365,-502,-1491,-303,-39,441,165,-227
1,8732896,426,-1365,-502,-1491,-303,-39,441,165,-227
1,8732902,426,-1365,-502,-1491,-303,-39,441,165,-227
1,8732908,425,-1367,-500,-1489,-299,-40,441,165,-227
1,8732914,425,-1367,-500,-1489,-299,-40,441,165,-227
1,8732924,423,-1366,-496,-1482,-298,-42,441,165,-227
1,8732935,423,-1366,-496,-1482,-298,-42,441,165,-227
1,8732943,423,-1366,-496,-1482,-298,-42,441,165,-227
1,8732953,427,-1366,-501,-1489,-300,-40,441,165,-227
1,8732963,427,-1366,-501,-1489,-300,-40,441,165,-227
1,8732973,422,-1366,-498,-1494,-298,-36,433,157,-229
1,8732981,422,-1366,-498,-1494,-298,-36,433,157,-229
1,8732991,427,-1366,-499,-1498,-306,-41,433,157,-229
1,8733003,427,-1366,-499,-1498,-306,-41,433,157,-229
1,8733014,426,-1369,-501,-1499,-300,-44,433,157,-229
1,8733025,427,-1365,-499,-1493,-307,-42,433,157,-229
1,8733035,427,-1365,-499,-1493,-307,-42,433,157,-229
1,8733043,427,-1365,-499,-1493,-307,-42,433,157,-229
1,8733053,426,-1367,-493,-1493,-307,-43,433,157,-229
1,8733060,426,-1367,-493,-1493,-307,-43,433,157,-229
1,8733071,425,-1367,-495,-1491,-304,-39,433,157,-229
1,8733081,425,-1367,-495,-1491,-304,-39,433,157,-229
1,8733087,422,-1364,-499,-1495,-302,-41,433,157,-229
1,8733093,422,-1364,-499,-1495,-302,-41,433,157,-229
1,8733100,422,-1364,-499,-1495,-302,-41,433,157,-229
1,8733106,425,-1367,-491,-1490,-300,-39,433,167,-223
1,8733113,425,-1367,-491,-1490,-300,-39,433,167,-223
1,8733118,425,-1367,-491,-1490,-300,-39,433,167,-223
1,8733124,425,-1364,-500,-1493,-304,-27,433,167,-223
1,8733130,425,-1364,-500,-1493,-304,-27,433,167,-223
1,8733136,425,-1364,-500,-1493,-304,-27,433,167,-223
1,8733146,425,-1361,-499,-1490,-303,-35,433,167,-223
1,8733156,425,-1361,-499,-1490,-303,-35,433,167,-223
1,8733164,425,-1361,-499,-1490,-303,-35,433,167,-223
1,8733174,424,-1366,-496,-1485,-303,-39,433,167,-223
1,8733184,424,-1366,-496,-1485,-303,-39,433,167,-223
1,8733193,422,-1368,-502,-1495,-304,-44,433,167,-223
1,8733203,422,-1368,-502,-1495,-304,-44,433,167,-223
1,8733210,420,-1367,-497,-1490,-302,-40,433,167,-223
1,8733220,420,-1367,-497,-1490,-302,-40,433,167,-223
1,8733232,422,-1369,-496,-1491,-294,-41,441,165,-235
1,8733243,422,-1369,-496,-1491,-294,-41,441,165,-235
1,8733253,426,-1364,-497,-1490,-301,-45,441,165,-235
1,8733260,426,-1364,-497,-1490,-301,-45,441,165,-235
1,8733268,429,-1366,-498,-1492,-307,-42,441,165,-235
1,8733278,429,-1366,-498,-1492,-307,-42,441,165,-235
1,8733288,424,-1365,-499,-1493,-306,-36,441,165,-235
1,8733298,424,-1365,-499,-1493,-306,-36,441,165,-235
1,8733307,424,-1365,-505,-1496,-304,-38,441,165,-235
1,8733319,424,-1365,-505,-1496,-304,-38,441,165,-235
1,8733328,425,-1363,-498,-1484,-303,-44,441,165,-235
1,8733339,425,-1363,-498,-1484,-303,-44,441,165,-235
1,8733349,423,-1365,-493,-1485,-310,-38,438,162,-238
1,8733360,423,-1365,-493,-1485,-310,-38,438,162,-238
1,8733370,422,-1367,-497,-1485,-305,-38,438,162,-238
1,8733378,422,-1367,-497,-1485,-305,-38,438,162,-238
1,8733389,423,-1368,-498,-1495,-311,-36,438,162,-238
1,8733400,423,-1368,-498,-1495,-311,-36,438,162,-238
1,8733409,424,-1367,-498,-1493,-300,-38,438,162,-238
1,8733416,424,-1367,-498,-1493,-300,-38,438,162,-238
1,8733423,424,-1367,-498,-1493,-300,-38,438,162,-238
1,8733429,427,-1367,-503,-1495,-296,-45,438,162,-238
1,8733435,427,-1367,-503,-1495,-296,-45,438,162,-238
1,8733445,429,-1363,-495,-1496,-293,-44,438,162,-238
1,8733455,429,-1363,-495,-1496,-293,-44,438,162,-238
1,8733464,429,-1363,-495,-1496,-293,-44,438,162,-238
1,8733475,426,-1365,-499,-1496,-303,-42,428,164,-226
1,8733483,426,-1365,-499,-1496,-303,-42,428,164,-226
1,8733493,426,-1367,-497,-1491,-303,-42,428,164,-226
1,8733502,426,-1367,-497,-1491,-303,-42,428,164,-226
1,8733513,423,-1367,-493,-1500,-306,-38,428,164,-226
1,8733522,423,-1367,-493,-1500,-306,-38,428,164,-226
1,8733533,424,-1365,-496,-1489,-301,-28,428,164,-226
1,8733543,424,-1365,-496,-1489,-301,-28,428,164,-226
1,8733550,424,-1365,-501,-1492,-304,-38,428,164,-226
1,8733560,424,-1365,-501,-1492,-304,-38,428,164,-226
1,8733571,427,-1368,-501,-1497,-307,-35,428,164,-226
1,8733581,427,-1368,-501,-1497,-307,-35,428,164,-226
1,8733591,425,-1366,-502,-1494,-307,-46,428,164,-226
1,8733598,425,-1366,-502,-1494,-307,-46,428,164,-226
1,8733608,424,-1369,-497,-1489,-308,-42,438,170,-218
1,8733619,424,-1369,-497,-1489,-308,-42,438,170,-218
1,8733628,423,-1363,-501,-1486,-309,-36,438,170,-218
1,8733638,423,-1363,-501,-1486,-309,-36,438,170,-218
1,8733646,426,-1364,-496,-1492,-310,-37,438,170,-218
1,8733657,426,-1364,-496,-1492,-310,-37,438,170,-218
1,8733666,425,-1365,-496,-1492,-313,-40,438,170,-218
1,8733678,425,-1365,-496,-1492,-313,-40,438,170,-218
1,8733686,424,-1362,-494,-1490,-306,-30,438,170,-218
1,8733693,424,-1362,-494,-1490,-306,-30,438,170,-218
1,8733703,424,-1362,-494,-1490,-306,-30,438,170,-218
1,8733715,425,-1361,-498,-1492,-305,-37,438,170,-218
1,8733728,426,-1366,-492,-1492,-303,-29,428,164,-230
1,8733740,426,-1366,-492,-1492,-303,-29,428,164,-230
1,8733748,426,-1368,-497,-1490,-304,-34,428,164,-230
1,8733756,426,-1368,-497,-1490,-304,-34,428,164,-230
1,8733765,423,-1364,-499,-1491,-301,-35,428,164,-230
1,8733778,423,-1364,-499,-1491,-301,-35,428,164,-230
1,8733792,423,-1366,-498,-1493,-306,-37,428,164,-230
1,8733800,423,-1366,-498,-1493,-306,-37,428,164,-230
1,8733812,425,-1366,-498,-1498,-306,-40,428,164,-230
1,8733825,424,-1369,-501,-1496,-309,-36,428,164,-230
1,8733838,424,-1369,-501,-1496,-309,-36,428,164,-230
1,8733848,428,-1367,-500,-1499,-300,-42,436,170,-222
1,8733861,428,-1367,-500,-1499,-300,-42,436,170,-222
1,8733875,428,-1362,-498,-1492,-305,-42,436,170,-222
1,8733887,424,-1365,-502,-1481,-303,-38,436,170,-222
1,8733898,424,-1365,-502,-1481,-303,-38,436,170,-222
1,8733911,424,-1363,-497,-1491,-302,-37,436,170,-222
1,8733923,424,-1363,-497,-1491,-302,-37,436,170,-222
1,8733936,420,-1366,-499,-1494,-303,-40,436,170,-222
1,8733947,424,-1367,-499,-1496,-302,-40,436,170,-222
1,8733961,424,-1367,-499,-1496,-302,-40,436,170,-222
1,8733973,423,-1363,-494,-1494,-304,-43,442,168,-228
1,8733982,423,-1363,-494,-1494,-304,-43,442,168,-228
1,8733989,426,-1365,-502,-1494,-302,-42,442,168,-228
1,8733999,426,-1365,-502,-1494,-302,-42,442,168,-228
1,8734006,421,-1366,-499,-1495,-304,-38,442,168,-228
1,8734016,421,-1366,-499,-1495,-304,-38,442,168,-228
1,8734029,426,-1364,-500,-1494,-311,-34,442,168,-228
1,8734045,426,-1365,-495,-1493,-306,-40,442,168,-228
1,8734060,426,-1365,-495,-1493,-306,-40,442,168,-228
1,8734068,426,-1364,-495,-1495,-310,-34,442,168,-228
1,8734081,426,-1364,-495,-1495,-310,-34,442,168,-228
1,8734090,427,-1362,-496,-1492,-301,-34,442,168,-228
1,8734099,427,-1362,-496,-1492,-301,-34,442,168,-228
1,8734106,422,-1365,-493,-1485,-303,-41,436,166,-226
1,8734114,422,-1365,-493,-1485,-303,-41,436,166,-226
1,8734123,422,-1365,-493,-1485,-303,-41,436,166,-226
1,8734132,425,-1365,-495,-1481,-298,-38,436,166,-226
1,8734139,425,-1365,-495,-1481,-298,-38,436,166,-226
1,8734148,427,-1364,-498,-1490,-304,-43,436,166,-226
1,8734155,427,-1364,-498,-1490,-304,-43,436,166,-226
1,8734163,427,-1364,-498,-1490,-304,-43,436,166,-226
1,8734172,425,-1366,-497,-1489,-302,-40,436,166,-226
1,8734182,425,-1366,-497,-1489,-302,-40,436,166,-226
1,8734194,424,-1365,-496,-1485,-304,-33,436,166,-226
1,8734206,421,-1366,-499,-1490,-305,-31,436,166,-226
1,8734220,421,-1366,-499,-1490,-305,-31,436,166,-226
1,8734232,422,-1365,-497,-1492,-301,-44,435,169,-221
1,8734244,423,-1364,-493,-1497,-302,-31,435,169,-221
1,8734257,423,-1364,-493,-1497,-302,-31,435,169,-221
1,8734269,428,-1362,-499,-1495,-304,-35,435,169,-221
1,8734281,428,-1362,-499,-1495,-304,-35,435,169,-221
1,8734294,429,-1364,-501,-1492,-307,-42,435,169,-221
1,8734307,425,-1364,-497,-1488,-304,-39,435,169,-221
1,8734320,425,-1364,-497,-1488,-304,-39,435,169,-221
1,8734333,422,-1363,-502,-1487,-296,-44,435,169,-221
1,8734346,425,-1362,-496,-1492,-296,-40,437,165,-235
1,8734357,425,-1362,-496,-1492,-296,-40,437,165,-235
1,8734369,426,-1363,-497,-1490,-305,-42,437,165,-235
1,8734382,426,-1363,-497,-1490,-305,-42,437,165,-235
1,8734397,425,-1369,-498,-1488,-308,-41,437,165,-235
1,8734409,422,-1364,-499,-1494,-304,-41,437,165,-235
1,8734423,422,-1364,-499,-1494,-304,-41,437,165,-235
1,8734436,425,-1364,-495,-1497,-306,-40,437,165,-235
1,8734449,423,-1368,-501,-1492,-306,-34,437,165,-235
1,8734460,423,-1368,-501,-1492,-306,-34,437,165,-235
1,8734472,423,-1368,-501,-1492,-306,-34,441,167,-229
1,8734485,424,-1362,-494,-1491,-300,-36,441,167,-229
1,8734498,424,-1362,-494,-1491,-300,-36,441,167,-229
1,8734510,423,-1367,-499,-1491,-304,-30,441,167,-229
1,8734522,423,-1367,-499,-1491,-304,-30,441,167,-229
1,8734534,420,-1367,-500,-1491,-301,-35,441,167,-229
1,8734547,422,-1372,-496,-1500,-302,-45,441,167,-229
1,8734558,422,-1372,-496,-1500,-302,-45,441,167,-229
1,8734567,422,-1368,-492,-1497,-302,-40,441,167,-229
1,8734575,422,-1368,-492,-1497,-302,-40,441,167,-229
1,8734583,422,-1368,-492,-1497,-302,-40,441,167,-229
1,8734590,425,-1362,-496,-1496,-301,-36,443,159,-231
1,8734602,425,-1362,-496,-1496,-301,-36,443,159,-231
1,8734614,427,-1364,-496,-1492,-304,-40,443,159,-231
1,8734625,427,-1369,-499,-1495,-301,-35,443,159,-231
1,8734637,427,-1369,-499,-1495,-301,-35,443,159,-231
1,8734651,424,-1368,-496,-1489,-293,-36,443,159,-231
1,8734665,425,-1365,-500,-1485,-307,-29,443,159,-231
1,8734676,425,-1365,-500,-1485,-307,-29,443,159,-231
1,8734690,425,-1362,-500,-1496,-308,-39,443,159,-231
1,8734702,425,-1362,-500,-1496,-308,-39,443,159,-231
1,8734714,424,-1365,-498,-1494,-309,-39,443,159,-231
1,8734723,424,-1365,-498,-1494,-309,-39,443,159,-231
1,8734733,422,-1365,-489,-1485,-313,-36,432,162,-226
1,8734740,422,-1365,-489,-1485,-313,-36,432,162,-226
1,8734745,426,-1363,-496,-1486,-301,-35,432,162,-226
1,8734751,426,-1363,-496,-1486,-301,-35,432,162,-226
1,8734757,426,-1363,-496,-1486,-301,-35,432,162,-226
1,8734764,426,-1363,-496,-1486,-301,-35,432,162,-226
1,8734772,425,-1366,-499,-1494,-299,-29,432,162,-226
1,8734782,425,-1366,-499,-1494,-299,-29,432,162,-226
1,8734792,423,-1363,-503,-1487,-307,-38,432,162,-226
1,8734801,423,-1363,-503,-1487,-307,-38,432,162,-226
1,8734813,423,-1363,-499,-1485,-310,-37,432,162,-226
1,8734820,423,-1363,-499,-1485,-310,-37,432,162,-226
1,8734831,422,-1365,-502,-1495,-296,-40,432,162,-226
1,8734841,422,-1365,-502,-1495,-296,-40,432,162,-226
1,8734853,426,-1366,-493,-1490,-295,-32,436,166,-226
1,8734862,426,-1366,-493,-1490,-295,-32,436,166,-226
1,8734870,424,-1364,-496,-1495,-299,-34,436,166,-226
1,8734880,424,-1364,-496,-1495,-299,-34,436,166,-226
1,8734887,424,-1363,-499,-1495,-302,-42,436,166,-226
1,8734898,424,-1363,-499,-1495,-302,-42,436,166,-226
1,8734909,427,-1363,-501,-1496,-307,-45,436,166,-226
1,8734920,427,-1363,-501,-1496,-307,-45,436,166,-226
1,8734931,421,-1363,-503,-1501,-306,-41,436,166,-226
1,8734939,421,-1363,-503,-1501,-306,-41,436,166,-226
1,8734949,423,-1364,-501,-1495,-300,-43,436,166,-226
1,8734956,423,-1364,-501,-1495,-300,-43,436,166,-226
1,8734967,423,-1366,-492,-1492,-298,-41,432,164,-230
1,8734979,423,-1366,-492,-1492,-298,-41,432,164,-230
1,8734987,426,-1363,-497,-1496,-298,-42,432,164,-230
1,8734997,426,-1363,-497,-1496,-298,-42,432,164,-230
1,8735008,427,-1366,-499,-1493,-305,-38,432,164,-230
1,8735019,427,-1366,-499,-1493,-305,-38,432,164,-230
1,8735030,422,-1363,-502,-1494,-301,-41,432,164,-230
1,8735037,422,-1363,-502,-1494,-301,-41,432,164,-230
1,8735047,425,-1367,-501,-1494,-301,-44,432,164,-230
1,8735057,425,-1367,-501,-1494,-301,-44,432,164,-230
1,8735069,426,-1365,-501,-1491,-295,-46,432,164,-230
1,8735078,426,-1365,-501,-1491,-295,-46,432,164,-230
1,8735084,426,-1365,-501,-1491,-295,-46,432,164,-230
1,8735090,426,-1365,-499,-1486,-299,-46,435,163,-217
1,8735096,426,-1365,-499,-1486,-299,-46,435,163,-217
1,8735102,426,-1365,-499,-1486,-299,-46,435,163,-217
1,8735109,422,-1366,-497,-1493,-298,-47,435,163,-217
1,8735115,422,-1366,-497,-1493,-298,-47,435,163,-217
1,8735121,422,-1366,-497,-1493,-298,-47,435,163,-217
1,8735127,422,-1365,-500,-1499,-301,-37,435,163,-217
1,8735133,422,-1365,-500,-1499,-301,-37,435,163,-217
1,8735140,422,-1365,-500,-1499,-301,-37,435,163,-217
1,8735150,426,-1366,-501,-1497,-298,-43,435,163,-217
1,8735157,426,-1366,-501,-1497,-298,-43,435,163,-217
1,8735167,427,-1363,-501,-1490,-299,-42,435,163,-217
1,8735179,427,-1363,-501,-1490,-299,-42,435,163,-217
1,8735186,428,-1363,-499,-1489,-308,-36,435,163,-217
1,8735198,428,-1363,-499,-1489,-308,-36,435,163,-217
1,8735205,428,-1363,-499,-1489,-308,-36,435,163,-217
1,8735211,425,-1365,-499,-1493,-305,-35,435,163,-217
1,8735217,425,-1365,-499,-1493,-305,-35,435,163,-217
1,8735227,426,-1363,-493,-1488,-308,-37,438,164,-234
1,8735239,426,-1363,-493,-1488,-308,-37,438,164,-234
1,8735249,421,-1364,-497,-1488,-303,-48,438,164,-234
1,8735255,421,-1364,-497,-1488,-303,-48,438,164,-234
1,8735266,420,-1363,-501,-1488,-300,-35,438,164,-234
1,8735277,420,-1363,-501,-1488,-300,-35,438,164,-234
1,8735287,424,-1368,-495,-1482,-305,-37,438,164,-234
1,8735298,424,-1368,-495,-1482,-305,-37,438,164,-234
