imu,time,ax,ay,az,gx,gy,gz,mx,my,mz
0,7504251,213,-1833,-805,-1029,-567,-319,288,24,-292
0,7504257,213,-1833,-805,-1029,-567,-319,288,24,-292
0,7504264,213,-1833,-805,-1029,-567,-319,288,24,-292
0,7504269,213,-1833,-805,-1029,-567,-319,288,24,-292
0,7504274,214,-1827,-804,-1026,-566,-324,288,24,-292
0,7504280,214,-1827,-804,-1026,-566,-324,288,24,-292
0,7504284,214,-1827,-804,-1026,-566,-324,288,24,-292
0,7504289,214,-1827,-804,-1026,-566,-324,288,24,-292
0,7504294,215,-1829,-807,-1034,-566,-317,288,24,-292
0,7504300,215,-1829,-807,-1034,-566,-317,288,24,-292
0,7504305,215,-1829,-807,-1034,-566,-317,288,24,-292
0,7504313,213,-1831,-813,-1032,-570,-326,288,24,-292
0,7504320,213,-1831,-813,-1032,-570,-326,288,24,-292
0,7504325,213,-1831,-813,-1032,-570,-326,288,24,-292
0,7504332,217,-1831,-807,-1031,-563,-326,292,26,-292
0,7504340,217,-1831,-807,-1031,-563,-326,292,26,-292
0,7504347,217,-1831,-807,-1031,-563,-326,292,26,-292
0,7504353,216,-1831,-808,-1029,-567,-324,292,26,-292
0,7504359,216,-1831,-808,-1029,-567,-324,292,26,-292
0,7504365,216,-1831,-808,-1029,-567,-324,292,26,-292
0,7504372,216,-1831,-808,-1029,-567,-324,292,26,-292
0,7504380,216,-1831,-808,-1029,-567,-324,292,26,-292
0,7504388,216,-1831,-808,-1029,-567,-324,292,26,-292
0,7504395,216,-1831,-808,-1031,-561,-322,292,26,-292
0,7504401,216,-1831,-808,-1031,-561,-322,292,26,-292
0,7504406,216,-1831,-808,-1031,-561,-322,292,26,-292
0,7504414,213,-1829,-807,-1029,-559,-326,292,26,-292
0,7504422,213,-1829,-807,-1029,-559,-326,292,26,-292
0,7504430,213,-1829,-807,-1029,-559,-326,292,26,-292
0,7504438,211,-1829,-804,-1037,-569,-330,292,26,-292
0,7504445,211,-1829,-804,-1037,-569,-330,292,26,-292
0,7504453,216,-1829,-805,-1027,-567,-323,291,27,-299
0,7504461,216,-1829,-805,-1027,-567,-323,291,27,-299
0,7504470,216,-1829,-805,-1027,-567,-323,291,27,-299
0,7504477,216,-1828,-804,-1032,-565,-325,291,27,-299
0,7504484,216,-1828,-804,-1032,-565,-325,291,27,-299
0,7504491,217,-1829,-808,-1026,-568,-335,291,27,-299
0,7504497,217,-1829,-808,-1026,-568,-335,291,27,-299
0,7504505,217,-1829,-808,-1026,-568,-335,291,27,-299
0,7504513,219,-1833,-808,-1024,-569,-329,291,27,-299
0,7504520,219,-1833,-808,-1024,-569,-329,291,27,-299
0,7504526,219,-1833,-808,-1024,-569,-329,291,27,-299
0,7504534,216,-1832,-809,-1032,-564,-323,291,27,-299
0,7504540,216,-1832,-809,-1032,-564,-323,291,27,-299
0,7504548,216,-1832,-809,-1032,-564,-323,291,27,-299
0,7504557,207,-1834,-810,-1027,-563,-329,291,27,-299
0,7504565,207,-1834,-810,-1027,-563,-329,291,27,-299
0,7504572,214,-1836,-807,-1028,-574,-330,291,27,-299
0,7504579,214,-1836,-807,-1028,-574,-330,291,27,-299
0,7504586,214,-1836,-807,-1028,-574,-330,291,27,-299
0,7504591,215,-1828,-804,-1034,-569,-327,288,24,-298
0,7504596,215,-1828,-804,-1034,-569,-327,288,24,-298
0,7504603,215,-1828,-804,-1034,-569,-327,288,24,-298
0,7504608,215,-1828,-804,-1034,-569,-327,288,24,-298
0,7504615,216,-1828,-809,-1027,-570,-317,288,24,-298
0,7504621,216,-1828,-809,-1027,-570,-317,288,24,-298
0,7504628,216,-1828,-809,-1027,-570,-317,288,24,-298
0,7504634,217,-1831,-807,-1021,-567,-328,288,24,-298
0,7504641,217,-1831,-807,-1021,-567,-328,288,24,-298
0,7504646,217,-1831,-807,-1021,-567,-328,288,24,-298
0,7504652,215,-1828,-810,-1025,-564,-320,288,24,-298
0,7504657,215,-1828,-810,-1025,-564,-320,288,24,-298
0,7504662,215,-1828,-810,-1025,-564,-320,288,24,-298
0,7504667,215,-1828,-810,-1025,-564,-320,288,24,-298
0,7504672,219,-1831,-812,-1039,-568,-319,288,24,-298
0,7504677,219,-1831,-812,-1039,-568,-319,288,24,-298
0,7504683,219,-1831,-812,-1039,-568,-319,288,24,-298
0,7504689,219,-1831,-812,-1039,-568,-319,288,24,-298
0,7504697,211,-1834,-809,-1039,-569,-323,288,24,-298
0,7504703,211,-1834,-809,-1039,-569,-323,288,24,-298
0,7504708,211,-1834,-809,-1039,-569,-323,288,24,-298
0,7504713,211,-1830,-810,-1037,-565,-321,291,17,-297
0,7504718,211,-1830,-810,-1037,-565,-321,291,17,-297
0,7504723,211,-1830,-810,-1037,-565,-321,291,17,-297
0,7504729,211,-1830,-810,-1037,-565,-321,291,17,-297
0,7504734,209,-1828,-813,-1032,-567,-318,291,17,-297
0,7504739,209,-1828,-813,-1032,-567,-318,291,17,-297
0,7504747,209,-1828,-813,-1032,-567,-318,291,17,-297
0,7504754,210,-1831,-804,-1039,-570,-322,291,17,-297
0,7504760,210,-1831,-804,-1039,-570,-322,291,17,-297
0,7504769,210,-1831,-804,-1039,-570,-322,291,17,-297
0,7504776,219,-1831,-813,-1031,-573,-323,291,17,-297
0,7504783,219,-1831,-813,-1031,-573,-323,291,17,-297
0,7504790,219,-1831,-813,-1031,-573,-323,291,17,-297
0,7504797,220,-1829,-808,-1034,-577,-320,291,17,-297
0,7504804,220,-1829,-808,-1034,-577,-320,291,17,-297
0,7504811,220,-1829,-808,-1034,-577,-320,291,17,-297
0,7504819,218,-1830,-809,-1031,-568,-331,291,17,-297
0,7504826,218,-1830,-809,-1031,-568,-331,291,17,-297
0,7504832,217,-1831,-812,-1031,-566,-325,293,19,-295
0,7504839,217,-1831,-812,-1031,-566,-325,293,19,-295
0,7504845,217,-1831,-812,-1031,-566,-325,293,19,-295
0,7504851,213,-1830,-802,-1035,-572,-330,293,19,-295
0,7504858,213,-1830,-802,-1035,-572,-330,293,19,-295
0,7504866,213,-1830,-802,-1035,-572,-330,293,19,-295
0,7504871,217,-1832,-805,-1032,-570,-326,293,19,-295
0,7504878,217,-1832,-805,-1032,-570,-326,293,19,-295
0,7504885,217,-1832,-805,-1032,-570,-326,293,19,-295
0,7504891,215,-1830,-814,-1029,-577,-334,293,19,-295
0,7504899,215,-1830,-814,-1029,-577,-334,293,19,-295
0,7504908,215,-1830,-814,-1029,-577,-334,293,19,-295
0,7504915,219,-1830,-812,-1030,-571,-326,293,19,-295
0,7504923,219,-1830,-812,-1030,-571,-326,293,19,-295
0,7504927,219,-1830,-812,-1030,-571,-326,293,19,-295
0,7504934,217,-1829,-813,-1038,-567,-324,293,19,-295
0,7504941,217,-1829,-813,-1038,-567,-324,293,19,-295
0,7504952,217,-1830,-817,-1031,-571,-321,293,19,-295
0,7504961,217,-1830,-817,-1031,-571,-321,293,19,-295
0,7504973,215,-1830,-807,-1022,-570,-330,288,20,-290
0,7504988,215,-1830,-807,-1022,-570,-330,288,20,-290
0,7505002,211,-1828,-808,-1027,-568,-327,288,20,-290
0,7505011,211,-1828,-808,-1027,-568,-327,288,20,-290
0,7505025,214,-1831,-810,-1030,-563,-332,288,20,-290
0,7505038,214,-1830,-806,-1022,-570,-331,288,20,-290
0,7505051,218,-1827,-812,-1030,-566,-327,288,20,-290
0,7505061,218,-1827,-812,-1030,-566,-327,288,20,-290
0,7505075,220,-1828,-806,-1027,-566,-324,288,20,-290
0,7505087,220,-1828,-806,-1027,-566,-324,288,20,-290
0,7505100,219,-1827,-810,-1028,-562,-324,284,20,-290
0,7505112,219,-1827,-810,-1028,-562,-324,284,20,-290
0,7505124,217,-1830,-811,-1033,-561,-322,284,20,-290
0,7505136,211,-1831,-807,-1035,-567,-327,284,20,-290
0,7505149,211,-1831,-807,-1035,-567,-327,284,20,-290
0,7505160,214,-1831,-808,-1032,-563,-328,284,20,-290
0,7505175,216,-1828,-807,-1029,-563,-329,284,20,-290
0,7505187,216,-1828,-807,-1029,-563,-329,284,20,-290
0,7505200,221,-1833,-813,-1028,-571,-323,284,20,-290
0,7505214,219,-1832,-812,-1022,-569,-323,284,20,-290
0,7505227,219,-1832,-812,-1022,-569,-323,284,20,-290
0,7505236,219,-1830,-806,-1031,-569,-316,296,24,-290
0,7505246,219,-1830,-806,-1031,-569,-316,296,24,-290
0,7505259,220,-1831,-814,-1040,-570,-325,296,24,-290
0,7505273,214,-1830,-813,-1027,-568,-322,296,24,-290
0,7505282,214,-1830,-813,-1027,-568,-322,296,24,-290
0,7505290,214,-1830,-813,-1027,-568,-322,296,24,-290
0,7505300,212,-1833,-812,-1023,-570,-328,296,24,-290
0,7505308,212,-1833,-812,-1023,-570,-328,296,24,-290
0,7505316,211,-1834,-809,-1028,-567,-328,296,24,-290
0,7505327,211,-1834,-809,-1028,-567,-328,296,24,-290
0,7505336,215,-1832,-807,-1030,-570,-328,296,24,-290
0,7505345,215,-1832,-807,-1030,-570,-328,296,24,-290
0,7505353,218,-1832,-812,-1030,-569,-319,291,17,-295
0,7505362,218,-1832,-812,-1030,-569,-319,291,17,-295
0,7505372,223,-1827,-804,-1029,-566,-324,291,17,-295
0,7505384,223,-1827,-804,-1029,-566,-324,291,17,-295
0,7505395,222,-1829,-815,-1026,-571,-330,291,17,-295
0,7505408,222,-1829,-815,-1026,-571,-330,291,17,-295
0,7505416,219,-1830,-808,-1027,-567,-323,291,17,-295
0,7505424,219,-1830,-808,-1027,-567,-323,291,17,-295
0,7505432,214,-1830,-810,-1029,-567,-322,291,17,-295
0,7505439,214,-1830,-810,-1029,-567,-322,291,17,-295
0,7505447,214,-1830,-810,-1029,-567,-322,291,17,-295
0,7505460,215,-1829,-811,-1023,-564,-325,291,17,-295
0,7505475,213,-1835,-812,-1030,-569,-324,291,17,-295
0,7505489,213,-1835,-812,-1030,-569,-324,291,17,-295
0,7505498,216,-1831,-809,-1031,-568,-320,291,17,-295
0,7505511,216,-1831,-809,-1031,-568,-320,291,17,-295
0,7505524,217,-1831,-815,-1025,-576,-322,291,17,-295
0,7505538,218,-1830,-812,-1026,-570,-329,291,17,-295
0,7505548,218,-1830,-812,-1026,-570,-329,291,17,-295
0,7505560,218,-1829,-812,-1031,-564,-330,291,17,-295
0,7505575,215,-1828,-813,-1031,-566,-321,291,17,-295
0,7505589,215,-1828,-813,-1031,-566,-321,291,17,-295
0,7505598,218,-1834,-807,-1026,-569,-319,291,17,-295
0,7505611,218,-1834,-807,-1026,-569,-319,291,17,-295
0,7505624,217,-1830,-811,-1028,-564,-331,291,15,-293
0,7505639,219,-1830,-811,-1028,-565,-327,291,15,-293
0,7505651,219,-1830,-811,-1028,-565,-327,291,15,-293
0,7505659,217,-1830,-815,-1025,-563,-327,291,15,-293
0,7505668,217,-1830,-815,-1025,-563,-327,291,15,-293
0,7505676,220,-1830,-811,-1029,-562,-334,291,15,-293
0,7505683,220,-1830,-811,-1029,-562,-334,291,15,-293
0,7505696,220,-1832,-818,-1028,-564,-331,291,15,-293
0,7505705,220,-1832,-818,-1028,-564,-331,291,15,-293
0,7505714,213,-1833,-814,-1032,-574,-326,291,15,-293
0,7505723,213,-1833,-814,-1032,-574,-326,291,15,-293
0,7505731,213,-1833,-814,-1032,-574,-326,291,15,-293
0,7505738,218,-1831,-815,-1031,-571,-330,292,24,-296
0,7505746,218,-1831,-815,-1031,-571,-330,292,24,-296
0,7505755,215,-1832,-808,-1030,-568,-326,292,24,-296
0,7505763,215,-1832,-808,-1030,-568,-326,292,24,-296
0,7505771,215,-1832,-808,-1030,-568,-326,292,24,-296
0,7505779,219,-1830,-807,-1023,-566,-329,292,24,-296
0,7505786,219,-1830,-807,-1023,-566,-329,292,24,-296
0,7505798,221,-1827,-813,-1027,-570,-324,292,24,-296
0,7505811,221,-1827,-813,-1027,-570,-324,292,24,-296
0,7505824,222,-1829,-812,-1032,-573,-324,292,24,-296
0,7505832,218,-1828,-810,-1030,-571,-327,292,24,-296
0,7505846,218,-1828,-810,-1030,-571,-327,292,24,-296
0,7505859,213,-1830,-818,-1023,-568,-327,292,24,-296
0,7505873,214,-1832,-811,-1025,-575,-329,294,26,-292
0,7505883,214,-1832,-811,-1025,-575,-329,294,26,-292
0,7505895,219,-1833,-808,-1027,-566,-326,294,26,-292
0,7505910,219,-1833,-808,-1027,-566,-326,294,26,-292
0,7505925,215,-1832,-812,-1038,-567,-329,294,26,-292
0,7505934,224,-1828,-810,-1031,-562,-335,294,26,-292
0,7505944,224,-1828,-810,-1031,-562,-335,294,26,-292
0,7505957,221,-1829,-820,-1031,-567,-328,294,26,-292
0,7505964,221,-1829,-820,-1031,-567,-328,294,26,-292
0,7505971,221,-1829,-820,-1031,-567,-328,294,26,-292
0,7505978,220,-1829,-815,-1031,-571,-321,294,26,-292
0,7505984,220,-1829,-815,-1031,-571,-321,294,26,-292
0,7505992,220,-1829,-815,-1031,-571,-321,294,26,-292
0,7505999,218,-1830,-811,-1034,-569,-326,290,14,-304
0,7506007,218,-1830,-811,-1034,-569,-326,290,14,-304
0,7506015,216,-1827,-813,-1032,-574,-324,290,14,-304
0,7506022,216,-1827,-813,-1032,-574,-324,290,14,-304
0,7506029,216,-1827,-813,-1032,-574,-324,290,14,-304
0,7506035,216,-1831,-805,-1022,-572,-328,290,14,-304
0,7506043,216,-1831,-805,-1022,-572,-328,290,14,-304
0,7506051,216,-1831,-805,-1022,-572,-328,290,14,-304
0,7506057,213,-1832,-815,-1029,-565,-320,290,14,-304
0,7506063,213,-1832,-815,-1029,-565,-320,290,14,-304
0,7506071,213,-1832,-815,-1029,-565,-320,290,14,-304
0,7506079,221,-1830,-813,-1031,-568,-333,290,14,-304
0,7506085,221,-1830,-813,-1031,-568,-333,290,14,-304
0,7506093,221,-1830,-813,-1031,-568,-333,290,14,-304
0,7506101,222,-1829,-810,-1032,-565,-324,290,14,-304
0,7506107,222,-1829,-810,-1032,-565,-324,290,14,-304
0,7506113,220,-1829,-816,-1021,-569,-324,290,14,-304
0,7506120,220,-1829,-816,-1021,-569,-324,290,14,-304
0,7506127,220,-1829,-816,-1021,-569,-324,290,14,-304
0,7506132,220,-1829,-816,-1021,-569,-324,290,14,-304
0,7506138,221,-1829,-802,-1019,-567,-324,296,18,-294
0,7506143,221,-1829,-802,-1019,-567,-324,296,18,-294
0,7506149,221,-1829,-802,-1019,-567,-324,296,18,-294
0,7506157,217,-1831,-805,-1027,-569,-326,296,18,-294
0,7506163,217,-1831,-805,-1027,-569,-326,296,18,-294
0,7506170,217,-1831,-805,-1027,-569,-326,296,18,-294
0,7506178,220,-1831,-812,-1017,-570,-320,296,18,-294
0,7506184,220,-1831,-812,-1017,-570,-320,296,18,-294
0,7506191,220,-1831,-812,-1017,-570,-320,296,18,-294
0,7506198,218,-1829,-811,-1029,-569,-326,296,18,-294
0,7506205,218,-1829,-811,-1029,-569,-326,296,18,-294
0,7506213,218,-1829,-817,-1028,-569,-330,296,18,-294
0,7506220,218,-1829,-817,-1028,-569,-330,296,18,-294
0,7506228,218,-1829,-817,-1028,-569,-330,296,18,-294
0,7506234,221,-1830,-813,-1023,-567,-328,296,18,-294
0,7506241,221,-1830,-813,-1023,-567,-328,296,18,-294
0,7506247,221,-1830,-813,-1023,-567,-328,296,18,-294
0,7506255,222,-1829,-808,-1020,-562,-331,290,16,-296
0,7506262,222,-1829,-808,-1020,-562,-331,290,16,-296
0,7506270,222,-1829,-808,-1020,-562,-331,290,16,-296
0,7506276,222,-1831,-813,-1026,-564,-329,290,16,-296
0,7506282,222,-1831,-813,-1026,-564,-329,290,16,-296
0,7506289,222,-1831,-813,-1026,-564,-329,290,16,-296
0,7506298,219,-1830,-815,-1031,-566,-321,290,16,-296
0,7506307,219,-1830,-815,-1031,-566,-321,290,16,-296
0,7506314,216,-1832,-808,-1026,-569,-320,290,16,-296
0,7506322,216,-1832,-808,-1026,-569,-320,290,16,-296
0,7506329,216,-1832,-808,-1026,-569,-320,290,16,-296
0,7506335,216,-1831,-817,-1026,-564,-321,290,16,-296
0,7506341,216,-1831,-817,-1026,-564,-321,290,16,-296
0,7506349,216,-1831,-817,-1026,-564,-321,290,16,-296
0,7506356,220,-1830,-807,-1029,-569,-332,290,16,-296
0,7506363,220,-1830,-807,-1029,-569,-332,290,16,-296
0,7506369,220,-1830,-807,-1029,-569,-332,290,16,-296
0,7506377,222,-1830,-816,-1026,-562,-329,292,16,-296
0,7506385,222,-1830,-816,-1026,-562,-329,292,16,-296
0,7506393,222,-1830,-816,-1026,-562,-329,292,16,-296
0,7506399,225,-1827,-811,-1024,-565,-320,292,16,-296
0,7506407,225,-1827,-811,-1024,-565,-320,292,16,-296
0,7506413,223,-1830,-805,-1031,-561,-324,292,16,-296
0,7506420,223,-1830,-805,-1031,-561,-324,292,16,-296
0,7506427,223,-1830,-805,-1031,-561,-324,292,16,-296
0,7506433,223,-1830,-805,-1031,-561,-324,292,16,-296
0,7506441,221,-1834,-810,-1031,-567,-320,292,16,-296
0,7506449,221,-1834,-810,-1031,-567,-320,292,16,-296
0,7506456,217,-1832,-811,-1031,-567,-326,292,16,-296
0,7506462,217,-1832,-811,-1031,-567,-326,292,16,-296
0,7506469,217,-1832,-811,-1031,-567,-326,292,16,-296
0,7506478,215,-1831,-807,-1025,-563,-333,292,16,-296
0,7506486,215,-1831,-807,-1025,-563,-333,292,16,-296
0,7506492,215,-1831,-807,-1025,-563,-333,292,16,-296
0,7506498,216,-1828,-816,-1028,-563,-328,292,16,-296
0,7506507,216,-1828,-816,-1028,-563,-328,292,16,-296
0,7506515,223,-1829,-808,-1033,-571,-326,287,15,-295
0,7506522,223,-1829,-808,-1033,-571,-326,287,15,-295
0,7506528,223,-1829,-808,-1033,-571,-326,287,15,-295
0,7506536,221,-1830,-811,-1027,-569,-322,287,15,-295
0,7506542,221,-1830,-811,-1027,-569,-322,287,15,-295
0,7506549,221,-1830,-811,-1027,-569,-322,287,15,-295
0,7506557,224,-1829,-811,-1028,-566,-328,287,15,-295
0,7506564,224,-1829,-811,-1028,-566,-328,287,15,-295
0,7506570,224,-1829,-811,-1028,-566,-328,287,15,-295
0,7506578,222,-1832,-809,-1025,-564,-324,287,15,-295
0,7506586,222,-1832,-809,-1025,-564,-324,287,15,-295
0,7506593,222,-1832,-809,-1025,-564,-324,287,15,-295
0,7506600,216,-1830,-816,-1032,-569,-329,287,15,-295
0,7506608,216,-1830,-816,-1032,-569,-329,287,15,-295
0,7506615,212,-1831,-813,-1027,-571,-331,287,15,-295
0,7506621,212,-1831,-813,-1027,-571,-331,287,15,-295
0,7506628,212,-1831,-813,-1027,-571,-331,287,15,-295
0,7506634,213,-1830,-812,-1028,-569,-333,296,24,-292
0,7506641,213,-1830,-812,-1028,-569,-333,296,24,-292
0,7506649,213,-1830,-812,-1028,-569,-333,296,24,-292
0,7506654,217,-1831,-813,-1028,-569,-328,296,24,-292
0,7506659,217,-1831,-813,-1028,-569,-328,296,24,-292
0,7506664,217,-1831,-813,-1028,-569,-328,296,24,-292
0,7506669,217,-1831,-813,-1028,-569,-328,296,24,-292
0,7506674,221,-1832,-811,-1023,-573,-319,296,24,-292
0,7506679,221,-1832,-811,-1023,-573,-319,296,24,-292
0,7506684,221,-1832,-811,-1023,-573,-319,296,24,-292
0,7506693,221,-1832,-811,-1023,-573,-319,296,24,-292
0,7506700,223,-1831,-812,-1023,-567,-320,296,24,-292
0,7506705,223,-1831,-812,-1023,-567,-320,296,24,-292
0,7506710,223,-1831,-812,-1023,-567,-320,296,24,-292
0,7506715,224,-1824,-812,-1025,-571,-324,296,24,-292
0,7506720,224,-1824,-812,-1025,-571,-324,296,24,-292
0,7506725,224,-1824,-812,-1025,-571,-324,296,24,-292
0,7506731,224,-1824,-812,-1025,-571,-324,296,24,-292
0,7506737,219,-1832,-813,-1021,-559,-325,296,24,-292
0,7506742,219,-1832,-813,-1021,-559,-325,296,24,-292
0,7506747,219,-1832,-813,-1021,-559,-325,296,24,-292
0,7506752,219,-1832,-813,-1021,-559,-325,296,24,-292
0,7506757,217,-1827,-815,-1021,-562,-323,296,24,-292
0,7506762,217,-1827,-815,-1021,-562,-323,296,24,-292
0,7506768,217,-1827,-815,-1021,-562,-323,296,24,-292
0,7506777,217,-1829,-807,-1028,-564,-325,287,23,-297
0,7506784,217,-1829,-807,-1028,-564,-325,287,23,-297
0,7506792,217,-1829,-807,-1028,-564,-325,287,23,-297
0,7506798,218,-1828,-806,-1028,-561,-329,287,23,-297
0,7506804,218,-1828,-806,-1028,-561,-329,287,23,-297
0,7506811,218,-1828,-806,-1028,-561,-329,287,23,-297
0,7506820,222,-1831,-815,-1035,-568,-331,287,23,-297
0,7506827,222,-1831,-815,-1035,-568,-331,287,23,-297
0,7506833,222,-1831,-815,-1035,-568,-331,287,23,-297
0,7506839,219,-1832,-817,-1033,-566,-333,287,23,-297
0,7506846,219,-1832,-817,-1033,-566,-333,287,23,-297
0,7506852,219,-1832,-817,-1033,-566,-333,287,23,-297
0,7506861,217,-1828,-809,-1031,-568,-328,287,23,-297
0,7506868,217,-1828,-809,-1031,-568,-328,287,23,-297
0,7506875,219,-1828,-810,-1033,-567,-329,287,23,-297
0,7506881,219,-1828,-810,-1033,-567,-329,287,23,-297
0,7506888,219,-1828,-810,-1033,-567,-329,287,23,-297
0,7506895,217,-1828,-810,-1030,-570,-330,293,23,-299
0,7506902,217,-1828,-810,-1030,-570,-330,293,23,-299
0,7506910,217,-1828,-810,-1030,-570,-330,293,23,-299
0,7506917,216,-1829,-804,-1031,-563,-320,293,23,-299
0,7506924,216,-1829,-804,-1031,-563,-320,293,23,-299
0,7506931,216,-1829,-804,-1031,-563,-320,293,23,-299
0,7506938,215,-1830,-813,-1024,-565,-330,293,23,-299
0,7506945,215,-1830,-813,-1024,-565,-330,293,23,-299
0,7506952,215,-1830,-813,-1024,-565,-330,293,23,-299
0,7506960,222,-1830,-811,-1025,-566,-322,293,23,-299
0,7506971,222,-1830,-811,-1025,-566,-322,293,23,-299
0,7506984,222,-1827,-812,-1030,-567,-327,293,23,-299
0,7506997,219,-1826,-813,-1034,-564,-325,293,23,-299
0,7507006,219,-1826,-813,-1034,-564,-325,293,23,-299
0,7507018,216,-1831,-815,-1031,-567,-328,293,23,-299
0,7507032,216,-1831,-815,-1031,-567,-328,293,23,-299
0,7507045,215,-1829,-804,-1034,-567,-328,297,27,-297
0,7507055,213,-1829,-804,-1027,-567,-333,297,27,-297
0,7507066,213,-1829,-804,-1027,-567,-333,297,27,-297
0,7507081,214,-1832,-805,-1027,-572,-331,297,27,-297
0,7507093,214,-1832,-805,-1027,-572,-331,297,27,-297
0,7507105,218,-1828,-808,-1022,-571,-330,297,27,-297
0,7507118,220,-1827,-808,-1025,-563,-333,297,27,-297
0,7507132,220,-1827,-808,-1025,-563,-333,297,27,-297
0,7507144,221,-1830,-809,-1034,-566,-325,297,27,-297
0,7507155,221,-1829,-809,-1030,-573,-331,291,13,-301
0,7507169,221,-1829,-809,-1030,-573,-331,291,13,-301
0,7507182,218,-1828,-815,-1027,-566,-328,291,13,-301
0,7507195,212,-1832,-812,-1024,-561,-327,291,13,-301
0,7507206,212,-1832,-812,-1024,-561,-327,291,13,-301
0,7507218,215,-1834,-813,-1022,-564,-322,291,13,-301
0,7507229,215,-1834,-813,-1022,-564,-322,291,13,-301
0,7507244,216,-1829,-816,-1032,-561,-324,291,13,-301
0,7507255,221,-1832,-811,-1024,-565,-325,291,13,-301
0,7507270,221,-1832,-811,-1024,-565,-325,291,13,-301
0,7507282,219,-1832,-805,-1022,-565,-334,289,21,-295
0,7507295,221,-1831,-807,-1032,-567,-329,289,21,-295
0,7507307,221,-1831,-807,-1032,-567,-329,289,21,-295
0,7507320,219,-1830,-813,-1025,-568,-324,289,21,-295
0,7507333,219,-1830,-813,-1025,-568,-324,289,21,-295
0,7507344,216,-1832,-812,-1026,-569,-331,289,21,-295
0,7507357,214,-1829,-813,-1024,-571,-330,289,21,-295
0,7507371,214,-1829,-813,-1024,-571,-330,289,21,-295
0,7507383,213,-1831,-810,-1027,-573,-327,289,21,-295
0,7507395,220,-1830,-813,-1033,-569,-333,289,21,-295
0,7507409,220,-1830,-813,-1033,-569,-333,289,21,-295
0,7507423,217,-1830,-810,-1034,-569,-326,297,13,-301
0,7507435,219,-1831,-810,-1034,-562,-320,297,13,-301
0,7507443,219,-1831,-810,-1034,-562,-320,297,13,-301
0,7507451,219,-1831,-810,-1034,-562,-320,297,13,-301
0,7507460,221,-1830,-811,-1033,-565,-329,297,13,-301
0,7507468,221,-1830,-811,-1033,-565,-329,297,13,-301
0,7507480,215,-1827,-808,-1029,-568,-320,297,13,-301
0,7507490,215,-1827,-808,-1029,-568,-320,297,13,-301
0,7507505,215,-1831,-818,-1033,-561,-325,297,13,-301
0,7507516,216,-1832,-810,-1027,-568,-326,297,13,-301
0,7507529,216,-1832,-810,-1027,-568,-326,297,13,-301
0,7507540,218,-1829,-807,-1027,-567,-323,300,22,-304
0,7507553,218,-1829,-807,-1027,-567,-323,300,22,-304
0,7507568,218,-1827,-810,-1028,-573,-323,300,22,-304
0,7507581,218,-1829,-813,-1021,-572,-326,300,22,-304
0,7507592,218,-1829,-813,-1021,-572,-326,300,22,-304
0,7507605,221,-1829,-815,-1037,-565,-322,300,22,-304
0,7507619,218,-1831,-816,-1036,-571,-322,300,22,-304
0,7507634,218,-1831,-816,-1036,-571,-322,300,22,-304
0,7507643,218,-1831,-816,-1036,-571,-322,300,22,-304
0,7507655,215,-1834,-808,-1026,-572,-332,300,22,-304
0,7507663,215,-1834,-808,-1026,-572,-332,300,22,-304
0,7507672,215,-1834,-808,-1026,-572,-332,300,22,-304
0,7507679,211,-1833,-809,-1023,-565,-332,294,18,-292
0,7507688,211,-1833,-809,-1023,-565,-332,294,18,-292
0,7507696,219,-1832,-809,-1039,-572,-327,294,18,-292
0,7507705,219,-1832,-809,-1039,-572,-327,294,18,-292
0,7507714,219,-1832,-809,-1039,-572,-327,294,18,-292
0,7507722,223,-1830,-815,-1028,-566,-326,294,18,-292
0,7507729,223,-1830,-815,-1028,-566,-326,294,18,-292
0,7507737,220,-1831,-808,-1029,-566,-324,294,18,-292
0,7507744,220,-1831,-808,-1029,-566,-324,294,18,-292
0,7507752,220,-1831,-808,-1029,-566,-324,294,18,-292
0,7507761,217,-1831,-814,-1022,-566,-320,294,18,-292
0,7507769,217,-1831,-814,-1022,-566,-320,294,18,-292
0,7507776,213,-1833,-806,-1018,-567,-321,294,18,-292
0,7507784,213,-1833,-806,-1018,-567,-321,294,18,-292
0,7507792,213,-1833,-806,-1018,-567,-321,294,18,-292
0,7507802,212,-1829,-802,-1024,-566,-319,290,22,-300
0,7507812,212,-1829,-802,-1024,-566,-319,290,22,-300
0,7507821,211,-1830,-810,-1030,-572,-322,290,22,-300
0,7507830,211,-1830,-810,-1030,-572,-322,290,22,-300
0,7507838,215,-1828,-806,-1028,-570,-325,290,22,-300
0,7507851,215,-1828,-806,-1028,-570,-325,290,22,-300
0,7507864,219,-1830,-808,-1025,-568,-327,290,22,-300
0,7507877,218,-1832,-812,-1018,-557,-325,290,22,-300
0,7507891,218,-1832,-812,-1018,-557,-325,290,22,-300
0,7507905,218,-1829,-817,-1022,-561,-319,290,22,-300
0,7507917,217,-1828,-813,-1033,-568,-328,288,14,-290
0,7507931,217,-1828,-813,-1033,-568,-328,288,14,-290
0,7507942,214,-1826,-810,-1030,-572,-327,288,14,-290
0,7507956,214,-1832,-809,-1021,-572,-332,288,14,-290
0,7507968,214,-1832,-809,-1021,-572,-332,288,14,-290
0,7507975,214,-1832,-809,-1021,-572,-332,288,14,-290
0,7507982,213,-1831,-808,-1026,-567,-329,288,14,-290
0,7507990,213,-1831,-808,-1026,-567,-329,288,14,-290
0,7507997,215,-1828,-802,-1023,-568,-323,288,14,-290
0,7508003,215,-1828,-802,-1023,-568,-323,288,14,-290
0,7508008,215,-1828,-802,-1023,-568,-323,288,14,-290
0,7508017,218,-1831,-803,-1032,-573,-325,288,14,-290
0,7508025,218,-1831,-803,-1032,-573,-325,288,14,-290
0,7508032,218,-1831,-803,-1032,-573,-325,288,14,-290
0,7508039,220,-1827,-809,-1033,-576,-322,288,14,-290
0,7508045,220,-1827,-809,-1033,-576,-322,288,14,-290
0,7508051,220,-1827,-809,-1033,-576,-322,288,14,-290
0,7508061,217,-1832,-807,-1037,-569,-320,291,15,-295
0,7508067,217,-1832,-807,-1037,-569,-320,291,15,-295
0,7508074,217,-1832,-807,-1037,-569,-320,291,15,-295
0,7508082,213,-1828,-811,-1020,-576,-317,291,15,-295
0,7508088,213,-1828,-811,-1020,-576,-317,291,15,-295
0,7508096,213,-1829,-809,-1026,-567,-327,291,15,-295
0,7508101,213,-1829,-809,-1026,-567,-327,291,15,-295
0,7508109,213,-1829,-809,-1026,-567,-327,291,15,-295
0,7508114,213,-1829,-809,-1026,-567,-327,291,15,-295
0,7508119,211,-1829,-810,-1015,-564,-325,291,15,-295
0,7508124,211,-1829,-810,-1015,-564,-325,291,15,-295
0,7508133,211,-1829,-810,-1015,-564,-325,291,15,-295
0,7508141,216,-1829,-807,-1030,-569,-316,291,15,-295
0,7508147,216,-1829,-807,-1030,-569,-316,291,15,-295
0,7508155,216,-1829,-807,-1030,-569,-316,291,15,-295
0,7508162,217,-1832,-807,-1037,-565,-325,291,15,-295
0,7508168,217,-1832,-807,-1037,-565,-325,291,15,-295
0,7508175,212,-1830,-811,-1034,-564,-327,294,20,-294
0,7508183,212,-1830,-811,-1034,-564,-327,294,20,-294
0,7508191,212,-1830,-811,-1034,-564,-327,294,20,-294
0,7508198,213,-1832,-807,-1026,-570,-327,294,20,-294
0,7508205,213,-1832,-807,-1026,-570,-327,294,20,-294
0,7508212,213,-1832,-807,-1026,-570,-327,294,20,-294
0,7508219,209,-1829,-805,-1026,-572,-324,294,20,-294
0,7508226,209,-1829,-805,-1026,-572,-324,294,20,-294
0,7508235,209,-1829,-805,-1026,-572,-324,294,20,-294
0,7508242,214,-1832,-805,-1027,-558,-323,294,20,-294
0,7508249,214,-1832,-805,-1027,-558,-323,294,20,-294
0,7508256,215,-1828,-805,-1027,-564,-321,294,20,-294
0,7508262,215,-1828,-805,-1027,-564,-321,294,20,-294
0,7508269,215,-1828,-805,-1027,-564,-321,294,20,-294
0,7508276,218,-1833,-803,-1021,-568,-326,294,20,-294
0,7508283,218,-1833,-803,-1021,-568,-326,294,20,-294
0,7508289,218,-1833,-803,-1021,-568,-326,294,20,-294
0,7508295,220,-1832,-811,-1028,-567,-323,294,20,-294
0,7508304,220,-1832,-811,-1028,-567,-323,294,20,-294
0,7508312,220,-1832,-811,-1028,-567,-323,294,20,-294
0,7508319,217,-1830,-803,-1027,-567,-330,290,20,-292
0,7508327,217,-1830,-803,-1027,-567,-330,290,20,-292
0,7508334,217,-1830,-803,-1027,-567,-330,290,20,-292
0,7508340,219,-1832,-802,-1026,-565,-332,290,20,-292
0,7508345,219,-1832,-802,-1026,-565,-332,290,20,-292
0,7508353,219,-1832,-802,-1026,-565,-332,290,20,-292
0,7508360,210,-1832,-811,-1025,-565,-323,290,20,-292
0,7508367,210,-1832,-811,-1025,-565,-323,290,20,-292
0,7508375,210,-1832,-811,-1025,-565,-323,290,20,-292
0,7508383,212,-1829,-809,-1015,-564,-327,290,20,-292
0,7508391,212,-1829,-809,-1015,-564,-327,290,20,-292
0,7508399,214,-1833,-808,-1022,-569,-321,290,20,-292
0,7508407,214,-1833,-808,-1022,-569,-321,290,20,-292
0,7508413,214,-1833,-808,-1022,-569,-321,290,20,-292
0,7508421,218,-1833,-804,-1028,-563,-318,290,20,-292
0,7508428,218,-1833,-804,-1028,-563,-318,290,20,-292
0,7508436,219,-1830,-801,-1030,-567,-325,289,17,-297
0,7508444,219,-1830,-801,-1030,-567,-325,289,17,-297
0,7508452,219,-1830,-801,-1030,-567,-325,289,17,-297
0,7508460,218,-1828,-807,-1028,-567,-329,289,17,-297
0,7508469,218,-1828,-807,-1028,-567,-329,289,17,-297
0,7508477,219,-1831,-809,-1021,-569,-325,289,17,-297
0,7508485,219,-1831,-809,-1021,-569,-325,289,17,-297
0,7508490,219,-1831,-809,-1021,-569,-325,289,17,-297
0,7508497,219,-1831,-809,-1021,-569,-325,289,17,-297
0,7508504,219,-1831,-809,-1021,-569,-325,289,17,-297
0,7508511,219,-1831,-809,-1021,-569,-325,289,17,-297
0,7508518,214,-1830,-809,-1027,-569,-318,289,17,-297
0,7508526,214,-1830,-809,-1027,-569,-318,289,17,-297
0,7508533,214,-1830,-809,-1027,-569,-318,289,17,-297
0,7508540,216,-1833,-806,-1023,-571,-326,289,17,-297
0,7508548,216,-1833,-806,-1023,-571,-326,289,17,-297
0,7508554,216,-1833,-806,-1023,-571,-326,289,17,-297
0,7508561,212,-1831,-807,-1025,-567,-326,289,17,-297
0,7508569,212,-1831,-807,-1025,-567,-326,289,17,-297
0,7508577,216,-1827,-808,-1029,-562,-321,288,18,-296
0,7508583,216,-1827,-808,-1029,-562,-321,288,18,-296
0,7508591,216,-1827,-808,-1029,-562,-321,288,18,-296
0,7508597,215,-1829,-795,-1029,-565,-324,288,18,-296
0,7508605,215,-1829,-795,-1029,-565,-324,288,18,-296
0,7508612,215,-1829,-795,-1029,-565,-324,288,18,-296
0,7508620,218,-1828,-807,-1024,-568,-328,288,18,-296
0,7508627,218,-1828,-807,-1024,-568,-328,288,18,-296
0,7508634,218,-1828,-807,-1024,-568,-328,288,18,-296
0,7508642,217,-1832,-807,-1029,-565,-331,288,18,-296
0,7508648,217,-1832,-807,-1029,-565,-331,288,18,-296
0,7508656,217,-1832,-807,-1029,-565,-331,288,18,-296
0,7508661,217,-1831,-814,-1028,-572,-320,288,18,-296
0,7508666,217,-1831,-814,-1028,-572,-320,288,18,-296
0,7508671,217,-1831,-814,-1028,-572,-320,288,18,-296
0,7508676,217,-1833,-811,-1036,-569,-321,288,18,-296
0,7508681,217,-1833,-811,-1036,-569,-321,288,18,-296
0,7508686,217,-1833,-811,-1036,-569,-321,288,18,-296
0,7508695,217,-1833,-811,-1036,-569,-321,288,18,-296
0,7508701,215,-1828,-808,-1030,-566,-320,291,23,-301
0,7508706,215,-1828,-808,-1030,-566,-320,291,23,-301
0,7508711,215,-1828,-808,-1030,-566,-320,291,23,-301
0,7508717,216,-1831,-799,-1025,-568,-323,291,23,-301
0,7508722,216,-1831,-799,-1025,-568,-323,291,23,-301
0,7508727,216,-1831,-799,-1025,-568,-323,291,23,-301
0,7508733,216,-1831,-799,-1025,-568,-323,291,23,-301
0,7508739,213,-1829,-802,-1038,-571,-326,291,23,-301
0,7508744,213,-1829,-802,-1038,-571,-326,291,23,-301
0,7508751,213,-1829,-802,-1038,-571,-326,291,23,-301
0,7508757,213,-1829,-807,-1032,-571,-323,291,23,-301
0,7508763,213,-1829,-807,-1032,-571,-323,291,23,-301
0,7508770,213,-1829,-807,-1032,-571,-323,291,23,-301
0,7508779,213,-1835,-802,-1030,-562,-323,291,23,-301
0,7508786,213,-1835,-802,-1030,-562,-323,291,23,-301
0,7508792,213,-1835,-802,-1030,-562,-323,291,23,-301
0,7508799,215,-1831,-806,-1032,-560,-326,291,23,-301
0,7508807,215,-1831,-806,-1032,-560,-326,291,23,-301
0,7508812,215,-1831,-806,-1032,-560,-326,291,23,-301
0,7508820,210,-1832,-809,-1034,-567,-336,292,20,-294
0,7508828,210,-1832,-809,-1034,-567,-336,292,20,-294
0,7508835,210,-1832,-809,-1034,-567,-336,292,20,-294
0,7508842,213,-1831,-804,-1040,-568,-330,292,20,-294
0,7508848,213,-1831,-804,-1040,-568,-330,292,20,-294
0,7508854,213,-1831,-804,-1040,-568,-330,292,20,-294
0,7508861,218,-1829,-803,-1025,-573,-319,292,20,-294
0,7508870,218,-1829,-803,-1025,-573,-319,292,20,-294
0,7508878,219,-1829,-808,-1031,-565,-333,292,20,-294
0,7508885,219,-1829,-808,-1031,-565,-333,292,20,-294
0,7508892,219,-1829,-808,-1031,-565,-333,292,20,-294
0,7508899,218,-1831,-811,-1033,-567,-327,292,20,-294
0,7508907,218,-1831,-811,-1033,-567,-327,292,20,-294
0,7508913,218,-1831,-811,-1033,-567,-327,292,20,-294
0,7508919,219,-1831,-811,-1024,-564,-314,292,20,-294
0,7508927,219,-1831,-811,-1024,-564,-314,292,20,-294
0,7508934,219,-1831,-811,-1024,-564,-314,292,20,-294
0,7508940,214,-1830,-804,-1024,-566,-325,292,20,-294
0,7508947,214,-1830,-804,-1024,-566,-325,292,20,-294
0,7508956,214,-1830,-804,-1024,-566,-325,292,20,-294
0,7508962,210,-1829,-803,-1024,-565,-328,289,19,-289
0,7508970,210,-1829,-803,-1024,-565,-328,289,19,-289
0,7508980,211,-1831,-803,-1027,-569,-322,289,19,-289
0,7508993,211,-1831,-803,-1027,-569,-322,289,19,-289
0,7509007,212,-1829,-809,-1033,-561,-321,289,19,-289
0,7509019,221,-1828,-809,-1028,-565,-331,289,19,-289
0,7509032,221,-1828,-809,-1028,-565,-331,289,19,-289
0,7509046,221,-1829,-813,-1026,-568,-327,289,19,-289
0,7509058,222,-1833,-806,-1025,-566,-320,289,19,-289
0,7509070,222,-1833,-806,-1025,-566,-320,289,19,-289
0,7509082,216,-1831,-810,-1033,-571,-326,290,18,-302
0,7509094,216,-1831,-810,-1033,-571,-326,290,18,-302
0,7509105,213,-1833,-810,-1029,-567,-330,290,18,-302
0,7509115,213,-1833,-810,-1029,-567,-330,290,18,-302
0,7509129,211,-1833,-803,-1036,-571,-333,290,18,-302
0,7509144,212,-1832,-812,-1037,-572,-331,290,18,-302
0,7509152,212,-1832,-812,-1037,-572,-331,290,18,-302
0,7509164,216,-1831,-806,-1028,-569,-319,290,18,-302
0,7509178,219,-1833,-806,-1032,-570,-323,290,18,-302
0,7509193,219,-1833,-806,-1032,-570,-323,290,18,-302
0,7509202,219,-1833,-808,-1028,-570,-329,290,18,-302
0,7509214,219,-1833,-808,-1028,-570,-329,290,18,-302
0,7509228,218,-1834,-805,-1035,-573,-323,285,25,-299
0,7509241,216,-1827,-812,-1033,-572,-322,285,25,-299
0,7509251,216,-1827,-812,-1033,-572,-322,285,25,-299
0,7509264,213,-1831,-809,-1031,-568,-324,285,25,-299
0,7509277,210,-1833,-813,-1022,-569,-330,285,25,-299
0,7509291,210,-1833,-813,-1022,-569,-330,285,25,-299
0,7509300,215,-1828,-809,-1027,-572,-330,285,25,-299
0,7509312,215,-1828,-809,-1027,-572,-330,285,25,-299
0,7509320,218,-1829,-810,-1027,-571,-324,285,25,-299
0,7509328,218,-1829,-810,-1027,-571,-324,285,25,-299
0,7509337,217,-1828,-811,-1026,-574,-329,285,25,-299
0,7509345,217,-1828,-811,-1026,-574,-329,290,26,-296
0,7509356,217,-1828,-811,-1026,-574,-329,290,26,-296
0,7509369,219,-1832,-806,-1036,-570,-328,290,26,-296
0,7509383,218,-1831,-805,-1030,-567,-329,290,26,-296
0,7509398,213,-1831,-807,-1023,-564,-326,290,26,-296
0,7509409,213,-1831,-807,-1023,-564,-326,290,26,-296
0,7509422,216,-1831,-803,-1027,-568,-321,290,26,-296
0,7509434,216,-1831,-803,-1027,-568,-321,290,26,-296
0,7509448,219,-1830,-805,-1030,-559,-318,290,26,-296
0,7509460,219,-1827,-812,-1023,-558,-322,290,26,-296
0,7509473,219,-1827,-812,-1023,-558,-322,290,26,-296
0,7509486,221,-1827,-807,-1026,-561,-328,288,14,-296
0,7509500,220,-1829,-807,-1030,-569,-329,288,14,-296
0,7509513,220,-1829,-807,-1030,-569,-329,288,14,-296
0,7509524,217,-1829,-813,-1031,-568,-322,288,14,-296
0,7509535,217,-1829,-813,-1031,-568,-322,288,14,-296
0,7509550,213,-1833,-805,-1034,-575,-319,288,14,-296
0,7509563,212,-1829,-807,-1027,-571,-312,288,14,-296
0,7509573,212,-1829,-807,-1027,-571,-312,288,14,-296
0,7509584,214,-1830,-810,-1029,-570,-326,288,14,-296
0,7509598,221,-1829,-805,-1029,-566,-326,282,20,-292
0,7509614,221,-1829,-805,-1029,-566,-326,282,20,-292
0,7509625,218,-1829,-804,-1034,-568,-318,282,20,-292
0,7509640,221,-1830,-811,-1028,-567,-325,282,20,-292
0,7509654,221,-1830,-811,-1028,-567,-325,282,20,-292
0,7509661,216,-1830,-811,-1035,-564,-333,282,20,-292
0,7509670,216,-1830,-811,-1035,-564,-333,282,20,-292
0,7509678,215,-1831,-813,-1032,-575,-326,282,20,-292
0,7509686,215,-1831,-813,-1032,-575,-326,282,20,-292
0,7509694,215,-1831,-813,-1032,-575,-326,282,20,-292
0,7509703,214,-1831,-812,-1033,-579,-327,282,20,-292
0,7509711,214,-1831,-812,-1033,-579,-327,282,20,-292
0,7509720,213,-1830,-807,-1033,-577,-333,292,20,-296
0,7509728,213,-1830,-807,-1033,-577,-333,292,20,-296
0,7509736,213,-1830,-807,-1033,-577,-333,292,20,-296
0,7509743,215,-1831,-808,-1032,-566,-330,292,20,-296
0,7509751,215,-1831,-808,-1032,-566,-330,292,20,-296
0,7509761,218,-1831,-805,-1031,-563,-325,292,20,-296
0,7509769,218,-1831,-805,-1031,-563,-325,292,20,-296
0,7509776,218,-1831,-805,-1031,-563,-325,292,20,-296
0,7509784,223,-1831,-809,-1034,-573,-329,292,20,-296
0,7509791,223,-1831,-809,-1034,-573,-329,292,20,-296
0,7509799,223,-1829,-808,-1026,-572,-327,292,20,-296
0,7509808,223,-1829,-808,-1026,-572,-327,292,20,-296
0,7509816,223,-1829,-808,-1026,-572,-327,292,20,-296
0,7509823,218,-1830,-808,-1029,-563,-328,292,20,-296
0,7509831,218,-1830,-808,-1029,-563,-328,292,20,-296
0,7509839,219,-1832,-816,-1030,-567,-327,292,20,-296
0,7509849,219,-1832,-816,-1030,-567,-327,292,20,-296
0,7509856,219,-1832,-816,-1030,-567,-327,292,20,-296
0,7509863,216,-1829,-813,-1029,-568,-324,284,22,-294
0,7509871,216,-1829,-813,-1029,-568,-324,284,22,-294
0,7509880,214,-1834,-813,-1025,-561,-323,284,22,-294
0,7509888,214,-1834,-813,-1025,-561,-323,284,22,-294
0,7509897,214,-1834,-813,-1025,-561,-323,284,22,-294
0,7509905,214,-1833,-808,-1031,-569,-323,284,22,-294
0,7509914,214,-1833,-808,-1031,-569,-323,284,22,-294
0,7509927,218,-1829,-802,-1021,-567,-325,284,22,-294
0,7509938,219,-1830,-810,-1028,-560,-316,284,22,-294
0,7509949,219,-1830,-810,-1028,-560,-316,284,22,-294
0,7509963,221,-1830,-815,-1029,-571,-324,284,22,-294
0,7509978,221,-1830,-815,-1029,-571,-324,284,22,-294
0,7509985,218,-1829,-809,-1033,-573,-325,289,13,-299
0,7509991,218,-1829,-809,-1033,-573,-325,289,13,-299
0,7509996,218,-1829,-809,-1033,-573,-325,289,13,-299
0,7510001,216,-1831,-808,-1027,-574,-319,289,13,-299
0,7510009,216,-1831,-808,-1027,-574,-319,289,13,-299
0,7510018,216,-1831,-808,-1027,-574,-319,289,13,-299
0,7510024,217,-1834,-810,-1039,-574,-319,289,13,-299
0,7510031,217,-1834,-810,-1039,-574,-319,289,13,-299
0,7510038,217,-1829,-811,-1037,-573,-317,289,13,-299
0,7510044,217,-1829,-811,-1037,-573,-317,289,13,-299
0,7510050,217,-1829,-811,-1037,-573,-317,289,13,-299
0,7510059,217,-1831,-810,-1032,-564,-323,289,13,-299
0,7510066,217,-1831,-810,-1032,-564,-323,289,13,-299
0,7510073,217,-1831,-810,-1032,-564,-323,289,13,-299
0,7510080,221,-1826,-806,-1032,-565,-320,289,13,-299
0,7510087,221,-1826,-806,-1032,-565,-320,289,13,-299
0,7510095,221,-1826,-806,-1032,-565,-320,289,13,-299
0,7510103,218,-1831,-810,-1025,-560,-319,289,13,-299
0,7510111,218,-1831,-810,-1025,-560,-319,289,13,-299
0,7510117,218,-1831,-810,-1025,-560,-319,289,13,-299
0,7510125,216,-1829,-809,-1024,-567,-320,294,18,-300
0,7510130,216,-1829,-809,-1024,-567,-320,294,18,-300
0,7510136,216,-1829,-809,-1024,-567,-320,294,18,-300
0,7510145,217,-1827,-807,-1030,-572,-325,294,18,-300
0,7510151,217,-1827,-807,-1030,-572,-325,294,18,-300
0,7510158,216,-1832,-812,-1028,-573,-323,294,18,-300
0,7510164,216,-1832,-812,-1028,-573,-323,294,18,-300
0,7510170,216,-1832,-812,-1028,-573,-323,294,18,-300
0,7510177,219,-1829,-812,-1027,-572,-322,294,18,-300
0,7510187,219,-1829,-812,-1027,-572,-322,294,18,-300
0,7510194,219,-1829,-812,-1027,-572,-322,294,18,-300
0,7510200,221,-1833,-812,-1020,-573,-327,294,18,-300
0,7510207,221,-1833,-812,-1020,-573,-327,294,18,-300
0,7510215,221,-1833,-812,-1020,-573,-327,294,18,-300
0,7510220,221,-1831,-815,-1027,-569,-330,294,18,-300
0,7510227,221,-1831,-815,-1027,-569,-330,294,18,-300
0,7510234,221,-1831,-815,-1027,-569,-330,294,18,-300
0,7510241,224,-1832,-803,-1028,-570,-334,291,13,-291
0,7510248,224,-1832,-803,-1028,-570,-334,291,13,-291
0,7510253,224,-1832,-803,-1028,-570,-334,291,13,-291
0,7510261,220,-1831,-809,-1033,-567,-325,291,13,-291
0,7510268,220,-1831,-809,-1033,-567,-325,291,13,-291
0,7510277,220,-1831,-809,-1033,-567,-325,291,13,-291
0,7510284,214,-1830,-814,-1032,-567,-329,291,13,-291
0,7510291,214,-1830,-814,-1032,-567,-329,291,13,-291
0,7510298,214,-1830,-814,-1032,-567,-329,291,13,-291
0,7510306,214,-1828,-816,-1029,-569,-328,291,13,-291
0,7510313,214,-1828,-816,-1029,-569,-328,291,13,-291
0,7510320,218,-1829,-807,-1029,-571,-331,291,13,-291
0,7510328,218,-1829,-807,-1029,-571,-331,291,13,-291
0,7510334,218,-1829,-807,-1029,-571,-331,291,13,-291
0,7510340,219,-1832,-811,-1025,-572,-325,291,13,-291
0,7510347,219,-1832,-811,-1025,-572,-325,291,13,-291
0,7510355,219,-1832,-811,-1025,-572,-325,291,13,-291
0,7510364,219,-1832,-811,-1025,-572,-325,283,15,-297
0,7510370,219,-1832,-811,-1025,-572,-325,283,15,-297
0,7510377,219,-1832,-811,-1025,-572,-325,283,15,-297
0,7510383,223,-1827,-800,-1028,-571,-318,283,15,-297
0,7510389,223,-1827,-800,-1028,-571,-318,283,15,-297
0,7510397,223,-1827,-800,-1028,-571,-318,283,15,-297
0,7510405,222,-1830,-808,-1028,-569,-317,283,15,-297
0,7510413,222,-1830,-808,-1028,-569,-317,283,15,-297
0,7510419,218,-1831,-809,-1032,-569,-326,283,15,-297
0,7510428,218,-1831,-809,-1032,-569,-326,283,15,-297
0,7510434,218,-1831,-809,-1032,-569,-326,283,15,-297
0,7510441,218,-1830,-815,-1031,-572,-326,283,15,-297
0,7510449,218,-1830,-815,-1031,-572,-326,283,15,-297
0,7510457,218,-1830,-815,-1031,-572,-326,283,15,-297
0,7510463,218,-1829,-808,-1027,-577,-323,283,15,-297
0,7510470,218,-1829,-808,-1027,-577,-323,283,15,-297
0,7510478,218,-1829,-808,-1027,-577,-323,283,15,-297
0,7510486,218,-1831,-809,-1022,-570,-324,283,15,-297
0,7510492,218,-1831,-809,-1022,-570,-324,283,15,-297
0,7510500,216,-1831,-805,-1026,-570,-324,289,13,-299
0,7510507,216,-1831,-805,-1026,-570,-324,289,13,-299
0,7510513,216,-1831,-805,-1026,-570,-324,289,13,-299
0,7510520,225,-1832,-807,-1029,-569,-326,289,13,-299
0,7510528,225,-1832,-807,-1029,-569,-326,289,13,-299
0,7510534,225,-1832,-807,-1029,-569,-326,289,13,-299
0,7510541,220,-1831,-812,-1033,-576,-325,289,13,-299
0,7510549,220,-1831,-812,-1033,-576,-325,289,13,-299
0,7510555,220,-1831,-812,-1033,-576,-325,289,13,-299
0,7510562,222,-1831,-811,-1031,-574,-326,289,13,-299
0,7510569,222,-1831,-811,-1031,-574,-326,289,13,-299
0,7510577,222,-1831,-811,-1031,-574,-326,289,13,-299
0,7510584,218,-1832,-814,-1027,-574,-325,289,13,-299
0,7510591,218,-1832,-814,-1027,-574,-325,289,13,-299
0,7510597,218,-1832,-814,-1027,-574,-325,289,13,-299
0,7510603,220,-1829,-817,-1025,-573,-322,289,13,-299
0,7510609,220,-1829,-817,-1025,-573,-322,289,13,-299
0,7510616,220,-1829,-817,-1025,-573,-322,289,13,-299
0,7510621,220,-1829,-817,-1025,-573,-322,296,20,-304
0,7510628,220,-1829,-817,-1025,-573,-322,296,20,-304
0,7510635,220,-1829,-817,-1025,-573,-322,296,20,-304
0,7510642,222,-1832,-807,-1036,-563,-319,296,20,-304
0,7510649,222,-1832,-807,-1036,-563,-319,296,20,-304
0,7510656,222,-1832,-807,-1036,-563,-319,296,20,-304
0,7510661,220,-1830,-813,-1038,-571,-325,296,20,-304
0,7510666,220,-1830,-813,-1038,-571,-325,296,20,-304
0,7510671,220,-1830,-813,-1038,-571,-325,296,20,-304
0,7510676,220,-1830,-813,-1038,-571,-325,296,20,-304
0,7510681,217,-1833,-809,-1035,-572,-328,296,20,-304
0,7510687,217,-1833,-809,-1035,-572,-328,296,20,-304
0,7510693,217,-1833,-809,-1035,-572,-328,296,20,-304
0,7510699,216,-1831,-810,-1018,-567,-326,296,20,-304
0,7510704,216,-1831,-810,-1018,-567,-326,296,20,-304
0,7510709,216,-1831,-810,-1018,-567,-326,296,20,-304
0,7510715,216,-1831,-810,-1018,-567,-326,296,20,-304
0,7510720,216,-1832,-814,-1028,-567,-325,296,20,-304
0,7510724,216,-1832,-814,-1028,-567,-325,296,20,-304
0,7510730,216,-1832,-814,-1028,-567,-325,296,20,-304
0,7510735,216,-1832,-814,-1028,-567,-325,296,20,-304
0,7510740,218,-1833,-815,-1029,-568,-330,296,20,-304
0,7510746,218,-1833,-815,-1029,-568,-330,296,20,-304
0,7510751,218,-1833,-815,-1029,-568,-330,296,20,-304
0,7510756,218,-1833,-815,-1029,-568,-330,296,20,-304
0,7510762,222,-1831,-805,-1028,-572,-331,285,17,-287
0,7510768,222,-1831,-805,-1028,-572,-331,285,17,-287
0,7510773,222,-1831,-805,-1028,-572,-331,285,17,-287
0,7510779,222,-1830,-808,-1028,-567,-324,285,17,-287
0,7510785,222,-1830,-808,-1028,-567,-324,285,17,-287
0,7510791,222,-1830,-808,-1028,-567,-324,285,17,-287
0,7510796,222,-1830,-808,-1028,-567,-324,285,17,-287
0,7510801,222,-1832,-809,-1036,-564,-323,285,17,-287
0,7510807,222,-1832,-809,-1036,-564,-323,285,17,-287
0,7510813,222,-1832,-809,-1036,-564,-323,285,17,-287
0,7510818,222,-1832,-809,-1036,-564,-323,285,17,-287
0,7510823,222,-1830,-811,-1029,-567,-330,285,17,-287
0,7510830,222,-1830,-811,-1029,-567,-330,285,17,-287
0,7510835,222,-1830,-811,-1029,-567,-330,285,17,-287
0,7510840,219,-1830,-814,-1030,-569,-321,285,17,-287
0,7510846,219,-1830,-814,-1030,-569,-321,285,17,-287
0,7510851,219,-1830,-814,-1030,-569,-321,285,17,-287
0,7510858,219,-1830,-814,-1030,-569,-321,285,17,-287
0,7510863,215,-1831,-810,-1030,-566,-326,285,17,-287
0,7510868,215,-1831,-810,-1030,-566,-326,285,17,-287
0,7510874,215,-1831,-810,-1030,-566,-326,285,17,-287
0,7510880,217,-1831,-803,-1026,-562,-321,280,24,-290
0,7510886,217,-1831,-803,-1026,-562,-321,280,24,-290
0,7510892,217,-1831,-803,-1026,-562,-321,280,24,-290
0,7510897,217,-1831,-803,-1026,-562,-321,280,24,-290
0,7510903,220,-1832,-806,-1030,-570,-323,280,24,-290
0,7510908,220,-1832,-806,-1030,-570,-323,280,24,-290
0,7510915,220,-1832,-806,-1030,-570,-323,280,24,-290
0,7510921,219,-1831,-809,-1028,-563,-332,280,24,-290
0,7510927,219,-1831,-809,-1028,-563,-332,280,24,-290
0,7510932,219,-1831,-809,-1028,-563,-332,280,24,-290
0,7510940,221,-1830,-811,-1031,-566,-325,280,24,-290
0,7510946,221,-1830,-811,-1031,-566,-325,280,24,-290
0,7510953,221,-1830,-811,-1031,-566,-325,280,24,-290
0,7510961,224,-1829,-819,-1029,-560,-328,280,24,-290
0,7510968,224,-1829,-819,-1029,-560,-328,280,24,-290
0,7510974,224,-1829,-819,-1029,-560,-328,280,24,-290
0,7510982,217,-1830,-808,-1026,-570,-328,280,24,-290
0,7510989,217,-1830,-808,-1026,-570,-328,280,24,-290
0,7511005,218,-1831,-810,-1029,-572,-314,280,24,-290
0,7511018,218,-1831,-810,-1029,-572,-314,280,24,-290
0,7511027,219,-1829,-815,-1020,-568,-327,288,16,-290
0,7511040,218,-1830,-812,-1018,-572,-322,288,16,-290
0,7511054,218,-1830,-812,-1018,-572,-322,288,16,-290
0,7511068,217,-1833,-808,-1030,-573,-316,288,16,-290
0,7511077,217,-1833,-808,-1030,-573,-316,288,16,-290
0,7511091,219,-1832,-809,-1030,-567,-330,288,16,-290
0,7511104,221,-1830,-815,-1029,-566,-329,288,16,-290
0,7511117,221,-1830,-815,-1029,-566,-329,288,16,-290
0,7511128,219,-1829,-807,-1029,-570,-332,288,16,-290
0,7511140,219,-1828,-804,-1025,-566,-320,296,22,-302
0,7511152,219,-1828,-804,-1025,-566,-320,296,22,-302
0,7511164,217,-1829,-809,-1025,-571,-327,296,22,-302
0,7511176,217,-1829,-809,-1025,-571,-327,296,22,-302
0,7511191,216,-1831,-809,-1026,-566,-324,296,22,-302
0,7511203,222,-1831,-806,-1026,-564,-330,296,22,-302
0,7511212,222,-1831,-806,-1026,-564,-330,296,22,-302
0,7511221,221,-1830,-808,-1034,-569,-326,296,22,-302
0,7511230,221,-1830,-808,-1034,-569,-326,296,22,-302
0,7511238,221,-1830,-808,-1034,-569,-326,296,22,-302
0,7511246,221,-1830,-809,-1030,-569,-334,296,22,-302
0,7511255,221,-1830,-809,-1030,-569,-334,296,22,-302
0,7511268,218,-1830,-805,-1032,-563,-323,293,23,-291
0,7511281,218,-1830,-814,-1035,-568,-333,293,23,-291
0,7511293,218,-1830,-814,-1035,-568,-333,293,23,-291
0,7511307,217,-1830,-804,-1025,-572,-326,293,23,-291
0,7511321,216,-1829,-805,-1026,-566,-326,293,23,-291
0,7511333,216,-1829,-805,-1026,-566,-326,293,23,-291
0,7511345,219,-1832,-815,-1021,-566,-317,293,23,-291
0,7511357,219,-1832,-815,-1021,-566,-317,293,23,-291
0,7511369,222,-1831,-811,-1028,-565,-325,293,23,-291
0,7511380,221,-1829,-807,-1026,-561,-325,293,23,-291
0,7511395,221,-1829,-807,-1026,-561,-325,293,23,-291
0,7511409,221,-1832,-801,-1029,-564,-331,290,10,-294
0,7511421,218,-1835,-808,-1025,-571,-327,290,10,-294
0,7511430,218,-1835,-808,-1025,-571,-327,290,10,-294
0,7511442,222,-1831,-810,-1027,-569,-330,290,10,-294
0,7511457,222,-1831,-810,-1027,-569,-330,290,10,-294
0,7511470,213,-1829,-810,-1022,-565,-327,290,10,-294
0,7511484,217,-1830,-812,-1032,-564,-321,290,10,-294
0,7511495,217,-1830,-812,-1032,-564,-321,290,10,-294
0,7511508,218,-1830,-809,-1043,-572,-321,290,10,-294
0,7511521,225,-1828,-804,-1037,-579,-328,288,20,-292
0,7511533,225,-1828,-804,-1037,-579,-328,288,20,-292
0,7511546,220,-1830,-808,-1026,-573,-329,288,20,-292
0,7511560,220,-1831,-812,-1027,-571,-331,288,20,-292
0,7511573,220,-1831,-812,-1027,-571,-331,288,20,-292
0,7511587,216,-1833,-806,-1028,-576,-333,288,20,-292
0,7511597,216,-1833,-806,-1028,-576,-333,288,20,-292
0,7511610,216,-1832,-812,-1037,-574,-328,288,20,-292
0,7511621,217,-1833,-810,-1032,-576,-325,288,20,-292
0,7511629,217,-1833,-810,-1032,-576,-325,288,20,-292
0,7511643,218,-1828,-807,-1023,-575,-328,288,20,-292
0,7511656,218,-1828,-807,-1023,-575,-328,288,20,-292
0,7511664,217,-1829,-804,-1031,-567,-327,289,23,-297
0,7511672,217,-1829,-804,-1031,-567,-327,289,23,-297
0,7511683,221,-1832,-810,-1033,-567,-325,289,23,-297
0,7511693,221,-1832,-810,-1033,-567,-325,289,23,-297
0,7511704,220,-1830,-810,-1027,-571,-326,289,23,-297
0,7511712,220,-1830,-810,-1027,-571,-326,289,23,-297
0,7511720,219,-1829,-806,-1023,-568,-327,289,23,-297
0,7511728,219,-1829,-806,-1023,-568,-327,289,23,-297
0,7511737,219,-1829,-806,-1023,-568,-327,289,23,-297
0,7511745,216,-1830,-805,-1023,-569,-330,289,23,-297
0,7511753,216,-1830,-805,-1023,-569,-330,289,23,-297
0,7511760,217,-1831,-815,-1022,-568,-328,289,23,-297
0,7511769,217,-1831,-815,-1022,-568,-328,289,23,-297
0,7511776,217,-1831,-815,-1022,-568,-328,289,23,-297
0,7511785,219,-1828,-805,-1020,-568,-327,291,17,-289
0,7511792,219,-1828,-805,-1020,-568,-327,291,17,-289
0,7511800,215,-1831,-805,-1034,-570,-331,291,17,-289
0,7511813,215,-1831,-805,-1034,-570,-331,291,17,-289
0,7511826,220,-1831,-812,-1027,-568,-325,291,17,-289
0,7511838,220,-1831,-812,-1027,-568,-325,291,17,-289
0,7511848,220,-1832,-808,-1030,-566,-324,291,17,-289
0,7511860,217,-1832,-806,-1027,-567,-327,291,17,-289
0,7511874,217,-1832,-806,-1027,-567,-327,291,17,-289
0,7511887,218,-1829,-805,-1032,-569,-326,291,17,-289
0,7511898,218,-1829,-805,-1032,-569,-326,291,17,-289
0,7511911,215,-1830,-810,-1035,-573,-321,291,17,-289
0,7511924,216,-1830,-801,-1026,-569,-326,300,20,-298
0,7511939,216,-1830,-801,-1026,-569,-326,300,20,-298
0,7511948,218,-1828,-811,-1026,-572,-325,300,20,-298
0,7511958,218,-1828,-811,-1026,-572,-325,300,20,-298
0,7511967,219,-1829,-811,-1025,-569,-331,300,20,-298
0,7511974,219,-1829,-811,-1025,-569,-331,300,20,-298
0,7511984,216,-1829,-813,-1033,-564,-330,300,20,-298
0,7511994,216,-1829,-813,-1033,-564,-330,300,20,-298
0,7512001,213,-1830,-809,-1035,-567,-328,300,20,-298
0,7512008,213,-1830,-809,-1035,-567,-328,300,20,-298
0,7512015,213,-1830,-809,-1035,-567,-328,300,20,-298
0,7512023,216,-1831,-811,-1029,-567,-328,300,20,-298
0,7512030,216,-1831,-811,-1029,-567,-328,300,20,-298
0,7512038,216,-1831,-811,-1029,-567,-328,300,20,-298
0,7512044,215,-1830,-805,-1032,-573,-323,296,18,-298
0,7512052,215,-1830,-805,-1032,-573,-323,296,18,-298
0,7512058,215,-1830,-805,-1032,-573,-323,296,18,-298
0,7512066,214,-1832,-808,-1032,-570,-326,296,18,-298
0,7512072,214,-1832,-808,-1032,-570,-326,296,18,-298
0,7512078,214,-1832,-808,-1032,-570,-326,296,18,-298
0,7512086,214,-1831,-803,-1026,-565,-335,296,18,-298
0,7512092,214,-1831,-803,-1026,-565,-335,296,18,-298
0,7512097,214,-1831,-803,-1026,-565,-335,296,18,-298
0,7512105,221,-1831,-809,-1023,-566,-333,296,18,-298
0,7512114,221,-1831,-809,-1023,-566,-333,296,18,-298
0,7512121,219,-1831,-811,-1026,-568,-330,296,18,-298
0,7512128,219,-1831,-811,-1026,-568,-330,296,18,-298
0,7512135,219,-1831,-811,-1026,-568,-330,296,18,-298
0,7512142,219,-1832,-807,-1025,-564,-322,296,18,-298
0,7512148,219,-1832,-807,-1025,-564,-322,296,18,-298
0,7512156,219,-1832,-807,-1025,-564,-322,296,18,-298
0,7512162,220,-1831,-804,-1032,-565,-340,295,25,-289
0,7512170,220,-1831,-804,-1032,-565,-340,295,25,-289
0,7512177,220,-1831,-804,-1032,-565,-340,295,25,-289
0,7512182,213,-1832,-808,-1027,-562,-329,295,25,-289
0,7512189,213,-1832,-808,-1027,-562,-329,295,25,-289
0,7512198,213,-1832,-808,-1027,-562,-329,295,25,-289
0,7512205,213,-1831,-805,-1030,-559,-321,295,25,-289
0,7512212,213,-1831,-805,-1030,-559,-321,295,25,-289
0,7512220,218,-1829,-803,-1030,-565,-323,295,25,-289
0,7512227,218,-1829,-803,-1030,-565,-323,295,25,-289
0,7512235,218,-1829,-803,-1030,-565,-323,295,25,-289
0,7512242,218,-1829,-809,-1033,-562,-324,295,25,-289
0,7512249,218,-1829,-809,-1033,-562,-324,295,25,-289
0,7512256,218,-1829,-809,-1033,-562,-324,295,25,-289
0,7512262,215,-1830,-807,-1032,-565,-332,295,25,-289
0,7512270,215,-1830,-807,-1032,-565,-332,295,25,-289
0,7512278,215,-1830,-807,-1032,-565,-332,295,25,-289
0,7512286,218,-1830,-812,-1031,-570,-326,295,25,-289
0,7512292,218,-1830,-812,-1031,-570,-326,295,25,-289
0,7512297,218,-1830,-812,-1031,-570,-326,295,25,-289
0,7512305,218,-1830,-809,-1027,-570,-319,294,20,-294
0,7512313,218,-1830,-809,-1027,-570,-319,294,20,-294
0,7512321,215,-1830,-811,-1022,-569,-321,294,20,-294
0,7512327,215,-1830,-811,-1022,-569,-321,294,20,-294
0,7512335,215,-1830,-811,-1022,-569,-321,294,20,-294
0,7512342,217,-1828,-811,-1027,-573,-327,294,20,-294
0,7512348,217,-1828,-811,-1027,-573,-327,294,20,-294
0,7512356,217,-1828,-811,-1027,-573,-327,294,20,-294
0,7512364,216,-1831,-808,-1040,-565,-326,294,20,-294
0,7512373,216,-1831,-808,-1040,-565,-326,294,20,-294
0,7512379,216,-1831,-808,-1040,-565,-326,294,20,-294
0,7512385,214,-1831,-807,-1029,-562,-321,294,20,-294
0,7512393,214,-1831,-807,-1029,-562,-321,294,20,-294
0,7512400,214,-1831,-807,-1029,-562,-321,294,20,-294
0,7512407,217,-1833,-805,-1020,-571,-318,294,20,-294
0,7512414,217,-1833,-805,-1020,-571,-318,294,20,-294
0,7512421,218,-1829,-805,-1031,-563,-323,297,15,-287
0,7512429,218,-1829,-805,-1031,-563,-323,297,15,-287
0,7512436,218,-1829,-805,-1031,-563,-323,297,15,-287
0,7512443,217,-1830,-799,-1025,-565,-314,297,15,-287
0,7512451,217,-1830,-799,-1025,-565,-314,297,15,-287
0,7512457,217,-1830,-799,-1025,-565,-314,297,15,-287
0,7512464,217,-1830,-801,-1035,-565,-322,297,15,-287
0,7512471,217,-1830,-801,-1035,-565,-322,297,15,-287
0,7512477,217,-1830,-801,-1035,-565,-322,297,15,-287
0,7512483,216,-1831,-806,-1028,-559,-327,297,15,-287
0,7512488,216,-1831,-806,-1028,-559,-327,297,15,-287
0,7512494,216,-1831,-806,-1028,-559,-327,297,15,-287
0,7512499,216,-1831,-806,-1028,-559,-327,297,15,-287
0,7512506,214,-1832,-809,-1025,-561,-330,297,15,-287
0,7512513,214,-1832,-809,-1025,-561,-330,297,15,-287
0,7512520,214,-1832,-809,-1025,-561,-330,297,15,-287
0,7512527,214,-1830,-805,-1020,-561,-330,297,15,-287
0,7512532,214,-1830,-805,-1020,-561,-330,297,15,-287
0,7512540,214,-1830,-805,-1020,-561,-330,297,15,-287
0,7512548,217,-1831,-812,-1025,-567,-329,297,15,-287
0,7512555,217,-1831,-812,-1025,-567,-329,297,15,-287
0,7512562,219,-1830,-804,-1029,-567,-320,292,24,-302
0,7512569,219,-1830,-804,-1029,-567,-320,292,24,-302
0,7512576,219,-1830,-804,-1029,-567,-320,292,24,-302
0,7512582,216,-1831,-807,-1031,-567,-327,292,24,-302
0,7512590,216,-1831,-807,-1031,-567,-327,292,24,-302
0,7512596,216,-1831,-807,-1031,-567,-327,292,24,-302
0,7512603,217,-1832,-804,-1026,-569,-331,292,24,-302
0,7512610,217,-1832,-804,-1026,-569,-331,292,24,-302
0,7512617,217,-1832,-804,-1026,-569,-331,292,24,-302
0,7512626,216,-1829,-813,-1022,-558,-327,292,24,-302
0,7512632,216,-1829,-813,-1022,-558,-327,292,24,-302
0,7512641,217,-1828,-804,-1027,-561,-329,292,24,-302
0,7512647,217,-1828,-804,-1027,-561,-329,292,24,-302
0,7512652,217,-1828,-804,-1027,-561,-329,292,24,-302
0,7512658,217,-1828,-804,-1027,-561,-329,292,24,-302
0,7512664,214,-1829,-809,-1033,-568,-327,292,24,-302
0,7512668,214,-1829,-809,-1033,-568,-327,292,24,-302
0,7512673,214,-1829,-809,-1033,-568,-327,292,24,-302
0,7512678,214,-1829,-809,-1033,-568,-327,292,24,-302
0,7512686,217,-1829,-804,-1029,-576,-330,285,23,-293
0,7512693,217,-1829,-804,-1029,-576,-330,285,23,-293
0,7512699,217,-1829,-804,-1029,-576,-330,285,23,-293
0,7512705,219,-1832,-807,-1031,-569,-334,285,23,-293
0,7512711,219,-1832,-807,-1031,-569,-334,285,23,-293
0,7512716,219,-1832,-807,-1031,-569,-334,285,23,-293
0,7512721,219,-1832,-807,-1031,-569,-334,285,23,-293
0,7512726,213,-1828,-810,-1029,-566,-330,285,23,-293
0,7512731,213,-1828,-810,-1029,-566,-330,285,23,-293
0,7512736,213,-1828,-810,-1029,-566,-330,285,23,-293
0,7512741,218,-1827,-809,-1027,-573,-326,285,23,-293
0,7512749,218,-1827,-809,-1027,-573,-326,285,23,-293
0,7512757,218,-1827,-809,-1027,-573,-326,285,23,-293
0,7512765,217,-1830,-810,-1028,-574,-326,285,23,-293
0,7512773,217,-1830,-810,-1028,-574,-326,285,23,-293
0,7512779,217,-1830,-810,-1028,-574,-326,285,23,-293
0,7512786,214,-1831,-803,-1024,-569,-323,285,23,-293
0,7512794,214,-1831,-803,-1024,-569,-323,285,23,-293
0,7512800,214,-1831,-803,-1024,-569,-323,285,23,-293
0,7512808,216,-1831,-805,-1033,-564,-318,283,21,-293
0,7512815,216,-1831,-805,-1033,-564,-318,283,21,-293
0,7512823,212,-1829,-800,-1034,-566,-316,283,21,-293
0,7512829,212,-1829,-800,-1034,-566,-316,283,21,-293
0,7512838,212,-1829,-800,-1034,-566,-316,283,21,-293
0,7512845,218,-1827,-797,-1029,-570,-319,283,21,-293
0,7512850,218,-1827,-797,-1029,-570,-319,283,21,-293
0,7512858,218,-1827,-797,-1029,-570,-319,283,21,-293
0,7512865,220,-1828,-805,-1026,-573,-327,283,21,-293
0,7512873,220,-1828,-805,-1026,-573,-327,283,21,-293
0,7512880,220,-1828,-805,-1026,-573,-327,283,21,-293
0,7512887,217,-1831,-807,-1033,-571,-329,283,21,-293
0,7512895,217,-1831,-807,-1033,-571,-329,283,21,-293
0,7512902,214,-1829,-808,-1029,-564,-326,283,21,-293
0,7512909,214,-1829,-808,-1029,-564,-326,283,21,-293
0,7512916,214,-1829,-808,-1029,-564,-326,283,21,-293
0,7512924,215,-1831,-808,-1021,-567,-322,283,21,-293
0,7512931,215,-1831,-808,-1021,-567,-322,283,21,-293
0,7512938,215,-1831,-808,-1021,-567,-322,283,21,-293
0,7512945,213,-1827,-808,-1031,-573,-325,295,17,-299
0,7512952,213,-1827,-808,-1031,-573,-325,295,17,-299
0,7512960,213,-1827,-808,-1031,-573,-325,295,17,-299
0,7512967,215,-1831,-808,-1036,-565,-328,295,17,-299
0,7512974,215,-1831,-808,-1036,-565,-328,295,17,-299
0,7512981,212,-1829,-809,-1031,-559,-326,295,17,-299
0,7512988,212,-1829,-809,-1031,-559,-326,295,17,-299
0,7512995,212,-1829,-809,-1031,-559,-326,295,17,-299
0,7513001,213,-1833,-811,-1023,-569,-328,295,17,-299
0,7513017,213,-1833,-811,-1023,-569,-328,295,17,-299
0,7513029,218,-1831,-807,-1029,-573,-326,295,17,-299
0,7513041,220,-1830,-810,-1033,-574,-325,295,17,-299
0,7513052,220,-1830,-810,-1033,-574,-325,295,17,-299
0,7513067,215,-1833,-808,-1035,-569,-326,283,21,-303
0,7513079,215,-1833,-808,-1035,-569,-326,283,21,-303
0,7513092,216,-1829,-808,-1035,-566,-328,283,21,-303
0,7513105,211,-1833,-803,-1029,-564,-322,283,21,-303
0,7513118,211,-1833,-803,-1029,-564,-322,283,21,-303
0,7513131,213,-1833,-807,-1029,-566,-320,283,21,-303
0,7513139,213,-1833,-807,-1029,-566,-320,283,21,-303
0,7513147,216,-1831,-807,-1035,-569,-331,283,21,-303
0,7513155,216,-1831,-807,-1035,-569,-331,283,21,-303
0,7513163,214,-1834,-803,-1029,-559,-326,283,21,-303
0,7513172,214,-1834,-803,-1029,-559,-326,283,21,-303
0,7513185,217,-1831,-809,-1020,-562,-327,283,21,-303
0,7513199,217,-1831,-809,-1020,-562,-327,283,21,-303
0,7513212,210,-1831,-809,-1032,-565,-327,294,20,-294
0,7513222,213,-1828,-806,-1024,-564,-328,294,20,-294
0,7513234,213,-1828,-806,-1024,-564,-328,294,20,-294
0,7513246,218,-1832,-808,-1037,-570,-319,294,20,-294
0,7513259,218,-1832,-808,-1037,-570,-319,294,20,-294
0,7513271,213,-1830,-810,-1033,-567,-332,294,20,-294
0,7513285,214,-1829,-810,-1040,-571,-329,294,20,-294
0,7513297,214,-1829,-810,-1040,-571,-329,294,20,-294
0,7513310,215,-1832,-814,-1034,-567,-332,294,20,-294
0,7513322,217,-1830,-809,-1022,-566,-335,280,18,-298
0,7513336,217,-1830,-809,-1022,-566,-335,280,18,-298
0,7513349,209,-1831,-809,-1030,-567,-335,280,18,-298
0,7513360,209,-1831,-809,-1030,-567,-335,280,18,-298
0,7513372,212,-1831,-805,-1030,-569,-328,280,18,-298
0,7513387,212,-1830,-806,-1019,-572,-322,280,18,-298
0,7513399,212,-1830,-806,-1019,-572,-322,280,18,-298
0,7513412,214,-1834,-807,-1028,-565,-321,280,18,-298
0,7513426,215,-1830,-814,-1026,-566,-323,280,18,-298
0,7513439,215,-1830,-814,-1026,-566,-323,280,18,-298
0,7513451,217,-1829,-809,-1024,-575,-327,280,18,-298
0,7513462,220,-1829,-809,-1033,-564,-325,280,18,-298
0,7513475,220,-1829,-809,-1033,-564,-325,289,19,-291
0,7513487,215,-1831,-808,-1029,-568,-331,289,19,-291
0,7513502,215,-1832,-804,-1032,-571,-324,289,19,-291
0,7513516,215,-1832,-804,-1032,-571,-324,289,19,-291
0,7513528,211,-1830,-812,-1030,-564,-326,289,19,-291
0,7513541,211,-1830,-812,-1030,-564,-326,289,19,-291
0,7513554,214,-1831,-812,-1034,-564,-325,289,19,-291
0,7513566,218,-1832,-806,-1034,-566,-323,289,19,-291
0,7513578,218,-1832,-806,-1034,-566,-323,289,19,-291
0,7513592,216,-1831,-805,-1040,-571,-326,289,21,-303
0,7513606,213,-1828,-808,-1027,-575,-326,289,21,-303
0,7513619,213,-1828,-808,-1027,-575,-326,289,21,-303
0,7513633,213,-1834,-812,-1026,-573,-328,289,21,-303
0,7513647,214,-1827,-809,-1025,-573,-327,289,21,-303
0,7513658,214,-1827,-809,-1025,-573,-327,289,21,-303
0,7513665,214,-1829,-809,-1033,-573,-327,289,21,-303
0,7513673,214,-1829,-809,-1033,-573,-327,289,21,-303
0,7513681,214,-1829,-809,-1033,-573,-327,289,21,-303
0,7513693,214,-1830,-809,-1030,-574,-332,289,21,-303
0,7513704,213,-1829,-809,-1032,-569,-332,289,21,-295
0,7513712,213,-1829,-809,-1032,-569,-332,289,21,-295
0,7513720,213,-1829,-809,-1032,-569,-332,289,21,-295
0,7513729,212,-1832,-802,-1033,-568,-337,289,21,-295
0,7513736,212,-1832,-802,-1033,-568,-337,289,21,-295
0,7513744,215,-1829,-812,-1028,-566,-330,289,21,-295
0,7513753,215,-1829,-812,-1028,-566,-330,289,21,-295
0,7513761,215,-1829,-812,-1028,-566,-330,289,21,-295
0,7513769,215,-1831,-804,-1028,-561,-327,289,21,-295
0,7513779,215,-1831,-804,-1028,-561,-327,289,21,-295
0,7513788,218,-1832,-812,-1024,-566,-322,289,21,-295
0,7513796,218,-1832,-812,-1024,-566,-322,289,21,-295
0,7513803,216,-1832,-814,-1030,-569,-321,289,21,-295
0,7513812,216,-1832,-814,-1030,-569,-321,289,21,-295
0,7513822,216,-1832,-814,-1030,-569,-321,289,21,-295
0,7513830,215,-1833,-809,-1025,-562,-324,289,21,-295
0,7513839,215,-1833,-809,-1025,-562,-324,289,21,-295
0,7513849,214,-1831,-799,-1027,-564,-334,291,21,-295
0,7513859,214,-1831,-799,-1027,-564,-334,291,21,-295
0,7513869,215,-1833,-807,-1032,-564,-328,291,21,-295
0,7513878,215,-1833,-807,-1032,-564,-328,291,21,-295
0,7513886,215,-1831,-813,-1030,-573,-330,291,21,-295
0,7513894,215,-1831,-813,-1030,-573,-330,291,21,-295
0,7513906,216,-1833,-814,-1029,-566,-325,291,21,-295
0,7513918,216,-1833,-814,-1029,-566,-325,291,21,-295
0,7513926,218,-1831,-816,-1023,-561,-326,291,21,-295
0,7513938,218,-1831,-816,-1023,-561,-326,291,21,-295
0,7513953,218,-1829,-812,-1022,-571,-327,291,21,-295
0,7513965,215,-1830,-808,-1031,-572,-323,294,18,-298
0,7513975,215,-1830,-808,-1031,-572,-323,294,18,-298
0,7513988,214,-1826,-806,-1030,-557,-327,294,18,-298
0,7514000,214,-1826,-806,-1030,-557,-327,294,18,-298
0,7514012,218,-1830,-812,-1030,-566,-336,294,18,-298
0,7514020,218,-1830,-812,-1030,-566,-336,294,18,-298
0,7514027,218,-1830,-809,-1036,-572,-328,294,18,-298
0,7514034,218,-1830,-809,-1036,-572,-328,294,18,-298
0,7514040,218,-1830,-809,-1036,-572,-328,294,18,-298
0,7514048,217,-1834,-811,-1032,-574,-323,294,18,-298
0,7514056,217,-1834,-811,-1032,-574,-323,294,18,-298
0,7514063,220,-1833,-811,-1027,-573,-329,294,18,-298
0,7514070,220,-1833,-811,-1027,-573,-329,294,18,-298
0,7514077,220,-1833,-811,-1027,-573,-329,294,18,-298
0,7514084,215,-1833,-816,-1021,-568,-325,294,18,-298
0,7514090,215,-1833,-816,-1021,-568,-325,294,18,-298
0,7514098,215,-1833,-816,-1021,-568,-325,294,18,-298
0,7514106,218,-1831,-806,-1026,-566,-323,300,16,-302
0,7514114,218,-1831,-806,-1026,-566,-323,300,16,-302
0,7514121,218,-1831,-806,-1026,-566,-323,300,16,-302
0,7514126,213,-1831,-803,-1021,-561,-335,300,16,-302
0,7514132,213,-1831,-803,-1021,-561,-335,300,16,-302
0,7514138,213,-1831,-803,-1021,-561,-335,300,16,-302
0,7514145,215,-1831,-809,-1022,-558,-326,300,16,-302
0,7514151,215,-1831,-809,-1022,-558,-326,300,16,-302
0,7514160,215,-1831,-809,-1022,-558,-326,300,16,-302
0,7514166,216,-1830,-804,-1027,-563,-332,300,16,-302
0,7514173,216,-1830,-804,-1027,-563,-332,300,16,-302
0,7514180,216,-1830,-804,-1027,-563,-332,300,16,-302
0,7514187,219,-1830,-808,-1027,-573,-331,300,16,-302
0,7514194,219,-1830,-808,-1027,-573,-331,300,16,-302
0,7514202,219,-1830,-808,-1027,-573,-331,300,16,-302
0,7514210,220,-1831,-810,-1025,-571,-323,300,16,-302
0,7514216,220,-1831,-810,-1025,-571,-323,300,16,-302
0,7514222,220,-1831,-810,-1025,-571,-323,300,16,-302
0,7514230,217,-1829,-809,-1031,-571,-322,287,21,-297
0,7514236,217,-1829,-809,-1031,-571,-322,287,21,-297
0,7514243,220,-1828,-811,-1029,-571,-324,287,21,-297
0,7514250,220,-1828,-811,-1029,-571,-324,287,21,-297
0,7514257,220,-1828,-811,-1029,-571,-324,287,21,-297
0,7514265,220,-1829,-809,-1022,-574,-324,287,21,-297
0,7514272,220,-1829,-809,-1022,-574,-324,287,21,-297
0,7514277,220,-1829,-809,-1022,-574,-324,287,21,-297
0,7514284,217,-1828,-806,-1031,-574,-323,287,21,-297
0,7514291,217,-1828,-806,-1031,-574,-323,287,21,-297
0,7514297,217,-1828,-806,-1031,-574,-323,287,21,-297
0,7514304,218,-1832,-811,-1029,-570,-330,287,21,-297
0,7514311,218,-1832,-811,-1029,-570,-330,287,21,-297
0,7514319,218,-1832,-811,-1029,-570,-330,287,21,-297
0,7514327,218,-1830,-811,-1026,-573,-325,287,21,-297
0,7514335,218,-1830,-811,-1026,-573,-325,287,21,-297
0,7514341,218,-1830,-811,-1026,-573,-325,287,21,-297
0,7514348,219,-1834,-807,-1030,-569,-329,287,21,-297
0,7514354,219,-1834,-807,-1030,-569,-329,287,21,-297
0,7514361,219,-1834,-807,-1030,-569,-329,287,21,-297
0,7514369,220,-1830,-806,-1039,-559,-333,292,18,-290
0,7514377,220,-1830,-806,-1039,-559,-333,292,18,-290
0,7514384,217,-1829,-811,-1031,-568,-325,292,18,-290
0,7514392,217,-1829,-811,-1031,-568,-325,292,18,-290
0,7514400,217,-1829,-811,-1031,-568,-325,292,18,-290
0,7514408,216,-1828,-807,-1028,-568,-328,292,18,-290
0,7514417,216,-1828,-807,-1028,-568,-328,292,18,-290
0,7514425,217,-1832,-814,-1029,-570,-326,292,18,-290
0,7514431,217,-1832,-814,-1029,-570,-326,292,18,-290
0,7514438,217,-1832,-814,-1029,-570,-326,292,18,-290
0,7514446,218,-1828,-810,-1030,-569,-324,292,18,-290
0,7514452,218,-1828,-810,-1030,-569,-324,292,18,-290
0,7514459,218,-1828,-810,-1030,-569,-324,292,18,-290
0,7514467,220,-1830,-811,-1027,-566,-330,292,18,-290
0,7514475,220,-1830,-811,-1027,-566,-330,292,18,-290
0,7514483,217,-1833,-804,-1029,-571,-330,290,16,-292
0,7514490,217,-1833,-804,-1029,-571,-330,290,16,-292
0,7514498,217,-1833,-804,-1029,-571,-330,290,16,-292
0,7514504,215,-1829,-810,-1033,-568,-330,290,16,-292
0,7514512,215,-1829,-810,-1033,-568,-330,290,16,-292
0,7514518,215,-1829,-810,-1033,-568,-330,290,16,-292
0,7514525,216,-1829,-813,-1031,-566,-329,290,16,-292
0,7514531,216,-1829,-813,-1031,-566,-329,290,16,-292
0,7514536,216,-1829,-813,-1031,-566,-329,290,16,-292
0,7514542,216,-1829,-813,-1031,-566,-329,290,16,-292
0,7514549,216,-1828,-815,-1032,-574,-327,290,16,-292
0,7514555,216,-1828,-815,-1032,-574,-327,290,16,-292
0,7514562,216,-1828,-815,-1032,-574,-327,290,16,-292
0,7514568,219,-1830,-812,-1025,-567,-327,290,16,-292
0,7514576,219,-1830,-812,-1025,-567,-327,290,16,-292
0,7514584,216,-1832,-812,-1031,-567,-330,290,16,-292
0,7514591,216,-1832,-812,-1031,-567,-330,290,16,-292
0,7514598,216,-1832,-812,-1031,-567,-330,290,16,-292
0,7514604,220,-1829,-810,-1034,-569,-329,291,19,-297
0,7514610,220,-1829,-810,-1034,-569,-329,291,19,-297
0,7514618,220,-1829,-810,-1034,-569,-329,291,19,-297
0,7514626,217,-1829,-808,-1038,-565,-332,291,19,-297
0,7514634,217,-1829,-808,-1038,-565,-332,291,19,-297
0,7514641,217,-1829,-808,-1038,-565,-332,291,19,-297
0,7514648,221,-1830,-810,-1034,-571,-331,291,19,-297
0,7514655,221,-1830,-810,-1034,-571,-331,291,19,-297
0,7514660,221,-1830,-810,-1034,-571,-331,291,19,-297
0,7514667,219,-1831,-810,-1037,-572,-323,291,19,-297
0,7514672,219,-1831,-810,-1037,-572,-323,291,19,-297
0,7514677,219,-1831,-810,-1037,-572,-323,291,19,-297
0,7514682,219,-1831,-810,-1037,-572,-323,291,19,-297
0,7514690,216,-1831,-811,-1034,-573,-320,291,19,-297
0,7514696,216,-1831,-811,-1034,-573,-320,291,19,-297
0,7514701,216,-1831,-811,-1034,-573,-320,291,19,-297
0,7514706,217,-1831,-811,-1029,-574,-330,291,19,-297
0,7514712,217,-1831,-811,-1029,-574,-330,291,19,-297
0,7514717,217,-1831,-811,-1029,-574,-330,291,19,-297
0,7514722,217,-1831,-811,-1029,-574,-330,291,19,-297
0,7514727,215,-1829,-813,-1029,-570,-327,291,19,-297
0,7514732,215,-1829,-813,-1029,-570,-327,291,19,-297
0,7514737,215,-1829,-813,-1029,-570,-327,291,19,-297
0,7514742,215,-1829,-813,-1029,-570,-327,291,19,-297
0,7514749,220,-1830,-804,-1033,-566,-317,287,21,-293
0,7514757,220,-1830,-804,-1033,-566,-317,287,21,-293
0,7514764,217,-1829,-810,-1032,-566,-319,287,21,-293
0,7514771,217,-1829,-810,-1032,-566,-319,287,21,-293
0,7514779,217,-1829,-810,-1032,-566,-319,287,21,-293
0,7514785,221,-1826,-810,-1027,-572,-331,287,21,-293
0,7514792,221,-1826,-810,-1027,-572,-331,287,21,-293
0,7514800,221,-1826,-810,-1027,-572,-331,287,21,-293
0,7514807,219,-1830,-809,-1031,-570,-327,287,21,-293
0,7514815,219,-1830,-809,-1031,-570,-327,287,21,-293
0,7514821,219,-1830,-809,-1031,-570,-327,287,21,-293
0,7514827,220,-1830,-809,-1028,-576,-324,287,21,-293
0,7514835,220,-1830,-809,-1028,-576,-324,287,21,-293
0,7514844,222,-1829,-806,-1027,-574,-324,287,21,-293
0,7514852,222,-1829,-806,-1027,-574,-324,287,21,-293
0,7514860,222,-1829,-806,-1027,-574,-324,287,21,-293
0,7514867,217,-1828,-802,-1023,-563,-326,295,17,-289
0,7514874,217,-1828,-802,-1023,-563,-326,295,17,-289
0,7514881,217,-1828,-802,-1023,-563,-326,295,17,-289
0,7514888,216,-1831,-808,-1028,-567,-326,295,17,-289
0,7514895,216,-1831,-808,-1028,-567,-326,295,17,-289
0,7514902,216,-1831,-808,-1028,-567,-326,295,17,-289
0,7514910,217,-1833,-813,-1029,-569,-322,295,17,-289
0,7514917,217,-1833,-813,-1029,-569,-322,295,17,-289
0,7514925,219,-1829,-809,-1027,-566,-329,295,17,-289
0,7514932,219,-1829,-809,-1027,-566,-329,295,17,-289
0,7514939,219,-1829,-809,-1027,-566,-329,295,17,-289
0,7514945,220,-1830,-817,-1027,-570,-329,295,17,-289
0,7514953,220,-1830,-817,-1027,-570,-329,295,17,-289
0,7514960,220,-1830,-817,-1027,-570,-329,295,17,-289
0,7514969,224,-1828,-808,-1035,-567,-327,295,17,-289
0,7514976,224,-1828,-808,-1035,-567,-327,295,17,-289
0,7514983,224,-1828,-808,-1035,-567,-327,295,17,-289
0,7514991,221,-1833,-815,-1031,-566,-329,295,17,-289
0,7514998,221,-1833,-815,-1031,-566,-329,295,17,-289
0,7515005,216,-1830,-815,-1032,-565,-332,290,14,-292
0,7515012,216,-1830,-815,-1032,-565,-332,290,14,-292
0,7515022,216,-1830,-815,-1032,-565,-332,290,14,-292
0,7515034,219,-1830,-808,-1031,-562,-334,290,14,-292
0,7515047,219,-1833,-806,-1026,-568,-331,290,14,-292
0,7515060,219,-1833,-806,-1026,-568,-331,290,14,-292
0,7515072,220,-1830,-813,-1032,-570,-324,290,14,-292
0,7515084,220,-1831,-806,-1027,-572,-322,290,14,-292
0,7515096,220,-1831,-806,-1027,-572,-322,290,14,-292
0,7515104,221,-1829,-813,-1026,-570,-329,290,14,-292
0,7515112,221,-1829,-813,-1026,-570,-329,290,14,-292
0,7515120,221,-1829,-813,-1026,-570,-329,290,14,-292
0,7515128,217,-1832,-810,-1018,-568,-323,283,23,-291
0,7515143,217,-1832,-810,-1018,-568,-323,283,23,-291
0,7515155,219,-1827,-804,-1020,-569,-329,283,23,-291
0,7515165,220,-1828,-808,-1029,-563,-318,283,23,-291
0,7515177,220,-1828,-808,-1029,-563,-318,283,23,-291
0,7515191,219,-1830,-807,-1027,-560,-324,283,23,-291
0,7515203,219,-1830,-807,-1027,-560,-324,283,23,-291
0,7515214,215,-1835,-814,-1033,-570,-323,283,23,-291
0,7515228,217,-1834,-817,-1026,-566,-325,283,23,-291
0,7515241,217,-1834,-817,-1026,-566,-325,283,23,-291
0,7515254,220,-1830,-812,-1027,-565,-326,285,15,-289
0,7515266,221,-1830,-815,-1027,-574,-323,285,15,-289
0,7515279,221,-1830,-815,-1027,-574,-323,285,15,-289
0,7515292,222,-1826,-808,-1027,-569,-323,285,15,-289
0,7515305,220,-1831,-807,-1032,-562,-325,285,15,-289
0,7515316,220,-1831,-807,-1032,-562,-325,285,15,-289
0,7515328,218,-1831,-810,-1034,-576,-319,285,15,-289
0,7515340,218,-1831,-810,-1034,-576,-319,285,15,-289
0,7515353,215,-1831,-810,-1030,-573,-324,285,15,-289
0,7515365,219,-1830,-817,-1030,-569,-333,285,15,-289
0,7515379,219,-1830,-817,-1030,-569,-333,285,15,-289
0,7515392,218,-1831,-811,-1031,-565,-325,286,22,-296
0,7515404,218,-1831,-811,-1031,-565,-325,286,22,-296
0,7515417,219,-1826,-812,-1029,-568,-324,286,22,-296
0,7515430,223,-1829,-817,-1032,-569,-329,286,22,-296
0,7515442,223,-1829,-817,-1032,-569,-329,286,22,-296
0,7515451,219,-1832,-813,-1030,-572,-334,286,22,-296
0,7515464,219,-1832,-813,-1030,-572,-334,286,22,-296
0,7515478,218,-1829,-811,-1035,-574,-331,286,22,-296
0,7515488,215,-1831,-811,-1029,-571,-331,286,22,-296
0,7515498,215,-1831,-811,-1029,-571,-331,286,22,-296
0,7515513,216,-1831,-817,-1035,-567,-332,292,28,-300
0,7515526,219,-1829,-810,-1022,-565,-331,292,28,-300
0,7515535,219,-1829,-810,-1022,-565,-331,292,28,-300
0,7515546,220,-1828,-815,-1027,-566,-322,292,28,-300
0,7515559,220,-1828,-815,-1027,-566,-322,292,28,-300
0,7515573,221,-1833,-812,-1033,-573,-325,292,28,-300
0,7515583,221,-1833,-812,-1033,-573,-325,292,28,-300
0,7515597,219,-1827,-809,-1028,-569,-329,292,28,-300
0,7515610,216,-1830,-813,-1030,-569,-321,292,28,-300
0,7515624,216,-1830,-813,-1030,-569,-321,292,28,-300
0,7515637,217,-1831,-813,-1032,-565,-323,292,28,-300
0,7515650,213,-1834,-811,-1030,-570,-316,292,16,-302
0,7515659,213,-1834,-811,-1030,-570,-316,292,16,-302
0,7515667,221,-1830,-812,-1034,-568,-327,292,16,-302
0,7515675,221,-1830,-812,-1034,-568,-327,292,16,-302
0,7515684,221,-1830,-812,-1034,-568,-327,292,16,-302
0,7515698,221,-1831,-809,-1027,-560,-331,292,16,-302
0,7515707,220,-1828,-810,-1026,-564,-326,292,16,-302
0,7515715,220,-1828,-810,-1026,-564,-326,292,16,-302
0,7515722,220,-1828,-810,-1026,-564,-326,292,16,-302
0,7515730,216,-1831,-808,-1024,-568,-336,292,16,-302
0,7515738,216,-1831,-808,-1024,-568,-336,292,16,-302
0,7515746,223,-1829,-806,-1028,-569,-327,292,16,-302
0,7515754,223,-1829,-806,-1028,-569,-327,292,16,-302
0,7515762,223,-1829,-806,-1028,-569,-327,292,16,-302
0,7515770,220,-1832,-812,-1024,-569,-324,284,22,-302
0,7515779,220,-1832,-812,-1024,-569,-324,284,22,-302
0,7515787,216,-1831,-812,-1028,-566,-328,284,22,-302
0,7515795,216,-1831,-812,-1028,-566,-328,284,22,-302
0,7515805,217,-1831,-811,-1032,-570,-326,284,22,-302
0,7515817,217,-1831,-811,-1032,-570,-326,284,22,-302
0,7515831,219,-1833,-806,-1031,-565,-330,284,22,-302
0,7515842,219,-1833,-806,-1031,-565,-330,284,22,-302
0,7515854,219,-1827,-812,-1030,-576,-324,284,22,-302
0,7515868,218,-1831,-809,-1028,-576,-326,284,22,-302
0,7515879,218,-1831,-809,-1028,-576,-326,284,22,-302
0,7515887,219,-1830,-816,-1025,-568,-326,284,22,-302
0,7515895,219,-1830,-816,-1025,-568,-326,284,22,-302
0,7515904,219,-1830,-816,-1025,-568,-326,284,22,-302
0,7515911,217,-1827,-802,-1033,-570,-328,293,17,-295
0,7515920,217,-1827,-802,-1033,-570,-328,293,17,-295
0,7515932,214,-1831,-813,-1028,-568,-335,293,17,-295
0,7515947,218,-1831,-808,-1029,-561,-329,293,17,-295
0,7515959,218,-1831,-808,-1029,-561,-329,293,17,-295
0,7515969,219,-1833,-814,-1026,-560,-326,293,17,-295
0,7515981,219,-1833,-814,-1026,-560,-326,293,17,-295
0,7515996,218,-1829,-822,-1029,-566,-332,293,17,-295
0,7516009,216,-1829,-809,-1030,-567,-335,293,17,-295
0,7516019,216,-1829,-809,-1030,-567,-335,293,17,-295
0,7516030,212,-1826,-811,-1029,-565,-329,297,17,-297
0,7516038,212,-1826,-811,-1029,-565,-329,297,17,-297
0,7516045,212,-1826,-811,-1029,-565,-329,297,17,-297
0,7516052,216,-1828,-811,-1036,-568,-323,297,17,-297
0,7516059,216,-1828,-811,-1036,-568,-323,297,17,-297
0,7516066,217,-1830,-811,-1023,-565,-326,297,17,-297
0,7516073,217,-1830,-811,-1023,-565,-326,297,17,-297
0,7516081,217,-1830,-811,-1023,-565,-326,297,17,-297
0,7516088,219,-1832,-812,-1034,-567,-324,297,17,-297
0,7516095,219,-1832,-812,-1034,-567,-324,297,17,-297
0,7516101,219,-1832,-812,-1034,-567,-324,297,17,-297
0,7516108,219,-1829,-809,-1026,-560,-319,297,17,-297
0,7516116,219,-1829,-809,-1026,-560,-319,297,17,-297
0,7516124,219,-1829,-809,-1026,-560,-319,297,17,-297
0,7516131,217,-1832,-811,-1024,-561,-321,297,17,-297
0,7516138,217,-1832,-811,-1024,-561,-321,297,17,-297
0,7516145,217,-1832,-811,-1024,-561,-321,297,17,-297
0,7516151,221,-1829,-812,-1031,-565,-315,281,17,-295
0,7516158,221,-1829,-812,-1031,-565,-315,281,17,-295
0,7516167,219,-1828,-803,-1023,-565,-329,281,17,-295
0,7516174,219,-1828,-803,-1023,-565,-329,281,17,-295
0,7516183,219,-1828,-803,-1023,-565,-329,281,17,-295
0,7516190,218,-1832,-810,-1026,-563,-329,281,17,-295
0,7516196,218,-1832,-810,-1026,-563,-329,281,17,-295
0,7516203,218,-1832,-810,-1026,-563,-329,281,17,-295
0,7516211,219,-1831,-811,-1027,-570,-321,281,17,-295
0,7516218,219,-1831,-811,-1027,-570,-321,281,17,-295
0,7516225,219,-1831,-811,-1027,-570,-321,281,17,-295
0,7516231,214,-1834,-806,-1029,-568,-325,281,17,-295
0,7516238,214,-1834,-806,-1029,-568,-325,281,17,-295
0,7516246,215,-1829,-809,-1033,-566,-321,281,17,-295
0,7516252,215,-1829,-809,-1033,-566,-321,281,17,-295
0,7516259,215,-1829,-809,-1033,-566,-321,281,17,-295
0,7516267,218,-1830,-810,-1030,-571,-324,281,17,-295
0,7516275,218,-1830,-810,-1030,-571,-324,281,17,-295
0,7516282,218,-1830,-810,-1030,-571,-324,281,17,-295
0,7516289,220,-1831,-804,-1026,-570,-324,286,22,-294
0,7516297,220,-1831,-804,-1026,-570,-324,286,22,-294
0,7516302,220,-1831,-804,-1026,-570,-324,286,22,-294
0,7516310,218,-1829,-808,-1029,-562,-321,286,22,-294
0,7516317,218,-1829,-808,-1029,-562,-321,286,22,-294
0,7516324,218,-1829,-808,-1029,-562,-321,286,22,-294
0,7516332,214,-1830,-813,-1034,-568,-325,286,22,-294
0,7516337,214,-1830,-813,-1034,-568,-325,286,22,-294
0,7516344,214,-1830,-813,-1034,-568,-325,286,22,-294
0,7516351,216,-1831,-807,-1030,-567,-327,286,22,-294
0,7516359,216,-1831,-807,-1030,-567,-327,286,22,-294
0,7516366,216,-1831,-813,-1030,-568,-329,286,22,-294
0,7516374,216,-1831,-813,-1030,-568,-329,286,22,-294
0,7516381,216,-1831,-813,-1030,-568,-329,286,22,-294
0,7516389,216,-1832,-812,-1038,-569,-323,286,22,-294
0,7516396,216,-1832,-812,-1038,-569,-323,286,22,-294
0,7516404,216,-1832,-812,-1038,-569,-323,286,22,-294
0,7516411,216,-1829,-812,-1036,-565,-327,289,23,-297
0,7516418,216,-1829,-812,-1036,-565,-327,289,23,-297
0,7516427,214,-1829,-806,-1036,-565,-323,289,23,-297
0,7516434,214,-1829,-806,-1036,-565,-323,289,23,-297
0,7516441,214,-1829,-806,-1036,-565,-323,289,23,-297
0,7516447,218,-1833,-805,-1025,-565,-324,289,23,-297
0,7516453,218,-1833,-805,-1025,-565,-324,289,23,-297
0,7516461,218,-1833,-805,-1025,-565,-324,289,23,-297
0,7516469,217,-1829,-811,-1027,-568,-326,289,23,-297
0,7516477,217,-1829,-811,-1027,-568,-326,289,23,-297
0,7516483,217,-1829,-811,-1027,-568,-326,289,23,-297
0,7516488,215,-1829,-811,-1037,-566,-324,289,23,-297
0,7516495,215,-1829,-811,-1037,-566,-324,289,23,-297
0,7516500,215,-1829,-811,-1037,-566,-324,289,23,-297
0,7516506,218,-1832,-810,-1024,-572,-328,289,23,-297
0,7516512,218,-1832,-810,-1024,-572,-328,289,23,-297
0,7516519,218,-1832,-810,-1024,-572,-328,289,23,-297
0,7516527,214,-1832,-809,-1030,-571,-321,289,23,-297
0,7516535,214,-1832,-809,-1030,-571,-321,289,23,-297
0,7516542,214,-1832,-809,-1030,-571,-321,289,23,-297
0,7516549,218,-1830,-808,-1035,-568,-322,292,22,-288
0,7516557,218,-1830,-808,-1035,-568,-322,292,22,-288
0,7516564,218,-1830,-808,-1035,-568,-322,292,22,-288
0,7516570,215,-1829,-814,-1034,-565,-328,292,22,-288
0,7516578,215,-1829,-814,-1034,-565,-328,292,22,-288
0,7516585,215,-1829,-814,-1034,-565,-328,292,22,-288
0,7516592,216,-1829,-814,-1031,-571,-324,292,22,-288
0,7516599,216,-1829,-814,-1031,-571,-324,292,22,-288
0,7516607,215,-1831,-812,-1029,-570,-327,292,22,-288
0,7516613,215,-1831,-812,-1029,-570,-327,292,22,-288
0,7516621,215,-1831,-812,-1029,-570,-327,292,22,-288
0,7516627,214,-1830,-810,-1033,-565,-329,292,22,-288
0,7516636,214,-1830,-810,-1033,-565,-329,292,22,-288
0,7516644,214,-1830,-810,-1033,-565,-329,292,22,-288
0,7516651,213,-1833,-813,-1031,-570,-325,292,22,-288
0,7516656,213,-1833,-813,-1031,-570,-325,292,22,-288
0,7516661,213,-1833,-813,-1031,-570,-325,292,22,-288
0,7516666,215,-1830,-806,-1036,-573,-324,295,17,-303
0,7516672,215,-1830,-806,-1036,-573,-324,295,17,-303
0,7516677,215,-1830,-806,-1036,-573,-324,295,17,-303
0,7516682,215,-1830,-806,-1036,-573,-324,295,17,-303
0,7516688,220,-1831,-811,-1032,-566,-324,295,17,-303
0,7516696,220,-1831,-811,-1032,-566,-324,295,17,-303
0,7516703,220,-1831,-811,-1032,-566,-324,295,17,-303
0,7516708,215,-1830,-807,-1030,-568,-325,295,17,-303
0,7516713,215,-1830,-807,-1030,-568,-325,295,17,-303
0,7516719,215,-1830,-807,-1030,-568,-325,295,17,-303
0,7516724,215,-1830,-807,-1030,-568,-325,295,17,-303
0,7516729,217,-1831,-813,-1032,-565,-324,295,17,-303
0,7516734,217,-1831,-813,-1032,-565,-324,295,17,-303
0,7516739,217,-1831,-813,-1032,-565,-324,295,17,-303
0,7516744,217,-1831,-813,-1032,-565,-324,295,17,-303
0,7516752,216,-1832,-811,-1039,-566,-324,295,17,-303
0,7516758,216,-1832,-811,-1039,-566,-324,295,17,-303
0,7516765,216,-1832,-811,-1039,-566,-324,295,17,-303
0,7516773,214,-1829,-810,-1029,-574,-325,295,17,-303
0,7516778,214,-1829,-810,-1029,-574,-325,295,17,-303
0,7516785,214,-1829,-810,-1029,-574,-325,295,17,-303
0,7516790,214,-1832,-815,-1034,-567,-329,295,17,-303
0,7516798,214,-1832,-815,-1034,-567,-329,295,17,-303
0,7516805,214,-1832,-815,-1034,-567,-329,295,17,-303
0,7516813,213,-1830,-812,-1026,-570,-328,285,17,-297
0,7516818,213,-1830,-812,-1026,-570,-328,285,17,-297
0,7516824,213,-1830,-812,-1026,-570,-328,285,17,-297
0,7516831,216,-1828,-808,-1031,-565,-324,285,17,-297
0,7516837,216,-1828,-808,-1031,-565,-324,285,17,-297
0,7516846,216,-1828,-808,-1031,-565,-324,285,17,-297
0,7516853,217,-1830,-811,-1021,-568,-321,285,17,-297
0,7516859,217,-1830,-811,-1021,-568,-321,285,17,-297
0,7516867,214,-1830,-807,-1031,-572,-330,285,17,-297
0,7516872,214,-1830,-807,-1031,-572,-330,285,17,-297
0,7516880,214,-1830,-807,-1031,-572,-330,285,17,-297
0,7516888,217,-1827,-809,-1037,-571,-327,285,17,-297
0,7516895,217,-1827,-809,-1037,-571,-327,285,17,-297
0,7516903,217,-1827,-809,-1037,-571,-327,285,17,-297
0,7516909,213,-1828,-817,-1030,-570,-319,285,17,-297
0,7516916,213,-1828,-817,-1030,-570,-319,285,17,-297
0,7516924,213,-1828,-817,-1030,-570,-319,285,17,-297
0,7516931,212,-1828,-812,-1031,-565,-326,290,14,-296
0,7516938,212,-1828,-812,-1031,-565,-326,290,14,-296
0,7516946,212,-1828,-812,-1031,-565,-326,290,14,-296
0,7516953,215,-1832,-809,-1029,-569,-323,290,14,-296
0,7516959,215,-1832,-809,-1029,-569,-323,290,14,-296
0,7516967,216,-1829,-807,-1026,-573,-322,290,14,-296
0,7516975,216,-1829,-807,-1026,-573,-322,290,14,-296
0,7516982,216,-1829,-807,-1026,-573,-322,290,14,-296
0,7516989,219,-1830,-806,-1019,-559,-321,290,14,-296
0,7516996,219,-1830,-806,-1019,-559,-321,290,14,-296
0,7517002,219,-1830,-806,-1019,-559,-321,290,14,-296
0,7517009,217,-1830,-812,-1028,-561,-326,290,14,-296
0,7517018,217,-1830,-812,-1028,-561,-326,290,14,-296
0,7517023,217,-1830,-812,-1028,-561,-326,290,14,-296
0,7517031,216,-1830,-809,-1038,-567,-324,290,14,-296
0,7517044,216,-1830,-809,-1038,-567,-324,290,14,-296
0,7517057,213,-1829,-808,-1028,-570,-328,295,15,-289
0,7517070,211,-1831,-807,-1025,-569,-327,295,15,-289
0,7517079,211,-1831,-807,-1025,-569,-327,295,15,-289
0,7517089,214,-1828,-809,-1020,-569,-320,295,15,-289
0,7517103,214,-1828,-809,-1020,-569,-320,295,15,-289
0,7517115,213,-1832,-810,-1020,-567,-327,295,15,-289
0,7517125,213,-1832,-810,-1020,-567,-327,295,15,-289
0,7517136,215,-1829,-808,-1021,-571,-328,295,15,-289
0,7517145,215,-1829,-808,-1021,-571,-328,295,15,-289
0,7517154,214,-1832,-810,-1026,-568,-331,295,15,-289
0,7517161,214,-1832,-810,-1026,-568,-331,295,15,-289
0,7517172,214,-1832,-810,-1026,-568,-331,295,15,-289
0,7517185,214,-1832,-810,-1026,-568,-331,295,15,-289
0,7517193,217,-1831,-804,-1032,-565,-323,287,19,-297
0,7517205,217,-1831,-804,-1032,-565,-323,287,19,-297
0,7517218,212,-1832,-805,-1032,-571,-330,287,19,-297
0,7517231,213,-1831,-810,-1035,-567,-325,287,19,-297
0,7517243,213,-1831,-810,-1035,-567,-325,287,19,-297
0,7517254,215,-1830,-811,-1027,-578,-329,287,19,-297
0,7517268,219,-1829,-806,-1029,-565,-328,287,19,-297
0,7517281,219,-1829,-806,-1029,-565,-328,287,19,-297
0,7517292,215,-1831,-811,-1036,-566,-331,287,19,-297
0,7517305,215,-1831,-811,-1036,-566,-331,287,19,-297
0,7517321,221,-1830,-804,-1030,-578,-329,288,16,-296
0,7517335,218,-1831,-808,-1022,-568,-321,288,16,-296
0,7517344,218,-1831,-808,-1022,-568,-321,288,16,-296
0,7517357,215,-1829,-809,-1029,-565,-327,288,16,-296
0,7517371,212,-1830,-817,-1034,-573,-329,288,16,-296
0,7517384,212,-1830,-817,-1034,-573,-329,288,16,-296
0,7517393,210,-1832,-807,-1034,-570,-325,288,16,-296
0,7517406,210,-1832,-807,-1034,-570,-325,288,16,-296
0,7517418,216,-1830,-808,-1027,-567,-326,288,16,-296
0,7517432,215,-1829,-814,-1034,-577,-322,288,16,-296
0,7517445,215,-1829,-814,-1034,-577,-322,288,16,-296
0,7517458,219,-1831,-809,-1028,-572,-325,284,24,-290
0,7517470,219,-1827,-812,-1036,-568,-324,284,24,-290
0,7517484,219,-1827,-812,-1036,-568,-324,284,24,-290
0,7517497,214,-1831,-806,-1029,-566,-322,284,24,-290
0,7517509,214,-1830,-818,-1023,-567,-328,284,24,-290
0,7517522,214,-1830,-818,-1023,-567,-328,284,24,-290
0,7517536,208,-1832,-818,-1033,-567,-327,284,24,-290
0,7517547,212,-1829,-814,-1021,-570,-329,284,24,-290
0,7517560,212,-1829,-814,-1021,-570,-329,284,24,-290
0,7517574,212,-1827,-800,-1030,-573,-325,285,21,-295
0,7517588,219,-1832,-805,-1039,-572,-321,285,21,-295
0,7517601,219,-1832,-805,-1039,-572,-321,285,21,-295
0,7517612,216,-1830,-811,-1024,-565,-325,285,21,-295
0,7517624,216,-1830,-811,-1024,-565,-325,285,21,-295
0,7517636,213,-1831,-810,-1031,-568,-323,285,21,-295
0,7517650,213,-1829,-807,-1031,-566,-324,285,21,-295
0,7517659,213,-1829,-807,-1031,-566,-324,285,21,-295
0,7517667,209,-1831,-810,-1028,-564,-323,285,21,-295
0,7517675,209,-1831,-810,-1028,-564,-323,285,21,-295
0,7517683,209,-1831,-810,-1028,-564,-323,285,21,-295
0,7517693,212,-1830,-811,-1032,-565,-322,295,23,-287
0,7517705,212,-1830,-811,-1032,-565,-322,295,23,-287
0,7517713,213,-1831,-807,-1031,-567,-325,295,23,-287
0,7517721,213,-1831,-807,-1031,-567,-325,295,23,-287
0,7517730,214,-1831,-813,-1030,-574,-331,295,23,-287
0,7517737,214,-1831,-813,-1030,-574,-331,295,23,-287
0,7517747,214,-1831,-813,-1030,-574,-331,295,23,-287
0,7517755,219,-1831,-804,-1027,-568,-332,295,23,-287
0,7517763,219,-1831,-804,-1027,-568,-332,295,23,-287
0,7517771,214,-1830,-808,-1033,-565,-327,295,23,-287
0,7517779,214,-1830,-808,-1033,-565,-327,295,23,-287
0,7517788,214,-1828,-812,-1033,-561,-328,295,23,-287
0,7517798,214,-1828,-812,-1033,-561,-328,295,23,-287
0,7517811,215,-1830,-813,-1028,-567,-325,295,23,-287
0,7517824,215,-1830,-813,-1028,-567,-325,295,23,-287
0,7517836,212,-1831,-802,-1029,-569,-324,285,19,-291
0,7517846,212,-1831,-802,-1029,-569,-324,285,19,-291
0,7517858,215,-1831,-812,-1029,-566,-322,285,19,-291
0,7517873,214,-1833,-809,-1023,-568,-322,285,19,-291
0,7517881,214,-1833,-809,-1023,-568,-322,285,19,-291
0,7517889,214,-1828,-810,-1035,-569,-318,285,19,-291
0,7517897,214,-1828,-810,-1035,-569,-318,285,19,-291
0,7517905,214,-1828,-810,-1035,-569,-318,285,19,-291
0,7517916,216,-1828,-808,-1037,-574,-324,285,19,-291
0,7517927,216,-1828,-808,-1037,-574,-324,285,19,-291
0,7517941,214,-1828,-814,-1029,-573,-321,285,19,-291
0,7517953,212,-1832,-810,-1032,-574,-329,293,15,-293
0,7517965,212,-1832,-810,-1032,-574,-329,293,15,-293
0,7517978,211,-1833,-805,-1028,-568,-331,293,15,-293
0,7517993,215,-1832,-806,-1025,-568,-331,293,15,-293
0,7518006,215,-1832,-806,-1025,-568,-331,293,15,-293
0,7518017,214,-1828,-807,-1032,-573,-325,293,15,-293
0,7518028,216,-1828,-812,-1030,-568,-332,293,15,-293
0,7518042,216,-1828,-812,-1030,-568,-332,293,15,-293
0,7518048,218,-1829,-810,-1031,-566,-331,293,15,-293
0,7518055,218,-1829,-810,-1031,-566,-331,293,15,-293
0,7518062,218,-1829,-810,-1031,-566,-331,293,15,-293
0,7518069,217,-1831,-816,-1029,-575,-328,293,15,-293
0,7518075,217,-1831,-816,-1029,-575,-328,293,15,-293
0,7518083,217,-1831,-816,-1029,-575,-328,293,15,-293
0,7518090,213,-1833,-806,-1033,-571,-327,284,16,-294
0,7518095,213,-1833,-806,-1033,-571,-327,284,16,-294
0,7518102,213,-1833,-806,-1033,-571,-327,284,16,-294
0,7518110,210,-1831,-806,-1020,-566,-326,284,16,-294
0,7518117,210,-1831,-806,-1020,-566,-326,284,16,-294
0,7518125,210,-1831,-806,-1020,-566,-326,284,16,-294
0,7518131,215,-1834,-808,-1026,-568,-326,284,16,-294
0,7518138,215,-1834,-808,-1026,-568,-326,284,16,-294
0,7518145,215,-1834,-808,-1026,-568,-326,284,16,-294
0,7518152,215,-1831,-817,-1030,-570,-333,284,16,-294
0,7518160,215,-1831,-817,-1030,-570,-333,284,16,-294
0,7518168,218,-1829,-813,-1029,-570,-328,284,16,-294
0,7518175,218,-1829,-813,-1029,-570,-328,284,16,-294
0,7518181,218,-1829,-813,-1029,-570,-328,284,16,-294
0,7518189,219,-1830,-809,-1035,-573,-334,284,16,-294
0,7518195,219,-1830,-809,-1035,-573,-334,284,16,-294
0,7518203,219,-1830,-809,-1035,-573,-334,284,16,-294
0,7518210,217,-1830,-809,-1030,-577,-324,282,22,-298
0,7518216,217,-1830,-809,-1030,-577,-324,282,22,-298
0,7518223,217,-1830,-809,-1030,-577,-324,282,22,-298
0,7518231,215,-1830,-809,-1037,-573,-322,282,22,-298
0,7518238,215,-1830,-809,-1037,-573,-322,282,22,-298
0,7518245,215,-1830,-809,-1037,-573,-322,282,22,-298
0,7518253,215,-1832,-809,-1030,-573,-321,282,22,-298
0,7518260,215,-1832,-809,-1030,-573,-321,282,22,-298
0,7518266,215,-1832,-809,-1030,-573,-321,282,22,-298
0,7518274,213,-1833,-810,-1029,-567,-327,282,22,-298
0,7518280,213,-1833,-810,-1029,-567,-327,282,22,-298
0,7518286,213,-1833,-810,-1029,-567,-327,282,22,-298
0,7518294,215,-1832,-807,-1031,-567,-331,282,22,-298
0,7518301,215,-1832,-807,-1031,-567,-331,282,22,-298
0,7518308,215,-1831,-808,-1037,-562,-327,282,22,-298
0,7518313,215,-1831,-808,-1037,-562,-327,282,22,-298
0,7518321,215,-1831,-808,-1037,-562,-327,282,22,-298
0,7518328,219,-1829,-810,-1034,-566,-326,282,22,-298
0,7518336,219,-1829,-810,-1034,-566,-326,282,22,-298
0,7518343,219,-1829,-810,-1034,-566,-326,282,22,-298
0,7518350,215,-1832,-805,-1028,-574,-324,292,26,-292
0,7518357,215,-1832,-805,-1028,-574,-324,292,26,-292
0,7518363,215,-1832,-805,-1028,-574,-324,292,26,-292
0,7518371,217,-1832,-805,-1030,-578,-330,292,26,-292
0,7518379,217,-1832,-805,-1030,-578,-330,292,26,-292
0,7518387,217,-1832,-805,-1030,-578,-330,292,26,-292
0,7518394,213,-1830,-805,-1030,-571,-325,292,26,-292
0,7518399,213,-1830,-805,-1030,-571,-325,292,26,-292
0,7518406,213,-1830,-805,-1030,-571,-325,292,26,-292
0,7518413,215,-1830,-802,-1022,-566,-326,292,26,-292
0,7518420,215,-1830,-802,-1022,-566,-326,292,26,-292
0,7518428,217,-1834,-813,-1036,-571,-321,292,26,-292
0,7518436,217,-1834,-813,-1036,-571,-321,292,26,-292
0,7518442,217,-1834,-813,-1036,-571,-321,292,26,-292
0,7518449,219,-1833,-815,-1031,-564,-321,292,26,-292
0,7518455,219,-1833,-815,-1031,-564,-321,292,26,-292
0,7518460,219,-1833,-815,-1031,-564,-321,292,26,-292
0,7518466,219,-1833,-815,-1031,-564,-321,292,26,-292
0,7518473,214,-1830,-808,-1033,-568,-317,288,14,-298
0,7518480,214,-1830,-808,-1033,-568,-317,288,14,-298
0,7518488,216,-1829,-810,-1034,-572,-323,288,14,-298
0,7518495,216,-1829,-810,-1034,-572,-323,288,14,-298
0,7518501,216,-1829,-810,-1034,-572,-323,288,14,-298
0,7518509,214,-1827,-811,-1034,-567,-321,288,14,-298
0,7518515,214,-1827,-811,-1034,-567,-321,288,14,-298
0,7518523,214,-1827,-811,-1034,-567,-321,288,14,-298
0,7518530,213,-1829,-813,-1031,-567,-335,288,14,-298
0,7518538,213,-1829,-813,-1031,-567,-335,288,14,-298
0,7518545,213,-1829,-813,-1031,-567,-335,288,14,-298
0,7518553,209,-1834,-813,-1028,-565,-336,288,14,-298
0,7518560,209,-1834,-813,-1028,-565,-336,288,14,-298
0,7518567,209,-1834,-813,-1028,-565,-336,288,14,-298
0,7518574,211,-1834,-803,-1033,-564,-329,288,14,-298
0,7518581,211,-1834,-803,-1033,-564,-329,288,14,-298
0,7518588,219,-1834,-807,-1025,-571,-328,291,17,-297
0,7518597,219,-1834,-807,-1025,-571,-328,291,17,-297
0,7518604,219,-1834,-807,-1025,-571,-328,291,17,-297
0,7518611,219,-1832,-805,-1033,-570,-322,291,17,-297
0,7518618,219,-1832,-805,-1033,-570,-322,291,17,-297
0,7518624,219,-1832,-805,-1033,-570,-322,291,17,-297
0,7518631,220,-1830,-808,-1032,-565,-327,291,17,-297
0,7518639,220,-1830,-808,-1032,-565,-327,291,17,-297
0,7518646,220,-1830,-808,-1032,-565,-327,291,17,-297
0,7518654,217,-1828,-815,-1025,-573,-320,291,17,-297
0,7518659,217,-1828,-815,-1025,-573,-320,291,17,-297
0,7518664,217,-1828,-815,-1025,-573,-320,291,17,-297
0,7518669,217,-1833,-816,-1030,-568,-319,291,17,-297
0,7518674,217,-1833,-816,-1030,-568,-319,291,17,-297
0,7518680,217,-1833,-816,-1030,-568,-319,291,17,-297
0,7518684,217,-1833,-816,-1030,-568,-319,291,17,-297
0,7518691,214,-1832,-814,-1026,-566,-316,291,17,-297
0,7518698,214,-1832,-814,-1026,-566,-316,291,17,-297
0,7518703,214,-1832,-814,-1026,-566,-316,291,17,-297
0,7518708,214,-1832,-814,-1026,-566,-316,291,17,-297
0,7518713,214,-1832,-810,-1023,-569,-323,291,17,-297
0,7518718,214,-1832,-810,-1023,-569,-323,291,17,-297
0,7518724,214,-1832,-810,-1023,-569,-323,291,17,-297
0,7518730,214,-1833,-800,-1033,-566,-323,288,18,-288
0,7518735,214,-1833,-800,-1033,-566,-323,288,18,-288
0,7518740,214,-1833,-800,-1033,-566,-323,288,18,-288
0,7518745,214,-1833,-800,-1033,-566,-323,288,18,-288
0,7518752,217,-1830,-812,-1034,-565,-321,288,18,-288
0,7518759,217,-1830,-812,-1034,-565,-321,288,18,-288
0,7518766,217,-1830,-812,-1034,-565,-321,288,18,-288
0,7518771,219,-1826,-812,-1041,-566,-325,288,18,-288
0,7518777,219,-1826,-812,-1041,-566,-325,288,18,-288
0,7518782,219,-1826,-812,-1041,-566,-325,288,18,-288
0,7518790,221,-1828,-814,-1032,-564,-324,288,18,-288
0,7518798,221,-1828,-814,-1032,-564,-324,288,18,-288
0,7518806,221,-1828,-814,-1032,-564,-324,288,18,-288
0,7518814,221,-1830,-816,-1024,-563,-327,288,18,-288
0,7518821,221,-1830,-816,-1024,-563,-327,288,18,-288
0,7518828,221,-1830,-816,-1024,-563,-327,288,18,-288
0,7518833,215,-1833,-814,-1029,-567,-325,288,18,-288
0,7518841,215,-1833,-814,-1029,-567,-325,288,18,-288
0,7518849,216,-1832,-807,-1029,-570,-329,287,25,-297
0,7518858,216,-1832,-807,-1029,-570,-329,287,25,-297
0,7518864,216,-1832,-807,-1029,-570,-329,287,25,-297
0,7518870,215,-1831,-807,-1044,-572,-320,287,25,-297
0,7518877,215,-1831,-807,-1044,-572,-320,287,25,-297
0,7518886,215,-1831,-807,-1044,-572,-320,287,25,-297
0,7518893,215,-1828,-810,-1028,-568,-324,287,25,-297
0,7518899,215,-1828,-810,-1028,-568,-324,287,25,-297
0,7518907,215,-1828,-810,-1028,-568,-324,287,25,-297
0,7518914,219,-1828,-815,-1027,-566,-327,287,25,-297
0,7518922,219,-1828,-815,-1027,-566,-327,287,25,-297
0,7518928,220,-1830,-804,-1029,-574,-319,287,25,-297
0,7518937,220,-1830,-804,-1029,-574,-319,287,25,-297
0,7518944,220,-1830,-804,-1029,-574,-319,287,25,-297
0,7518952,217,-1830,-815,-1027,-570,-322,287,25,-297
0,7518958,217,-1830,-815,-1027,-570,-322,287,25,-297
0,7518965,217,-1830,-815,-1027,-570,-322,287,25,-297
0,7518973,218,-1834,-811,-1024,-559,-329,287,25,-297
0,7518981,218,-1834,-811,-1024,-559,-329,287,25,-297
0,7518989,218,-1834,-811,-1024,-559,-329,287,25,-297
0,7518995,217,-1829,-809,-1041,-565,-327,287,19,-301
0,7519000,217,-1829,-809,-1041,-565,-327,287,19,-301
0,7519006,217,-1829,-809,-1041,-565,-327,287,19,-301
0,7519011,215,-1833,-812,-1026,-569,-330,287,19,-301
0,7519016,215,-1833,-812,-1026,-569,-330,287,19,-301
0,7519025,215,-1833,-812,-1026,-569,-330,287,19,-301
0,7519033,216,-1829,-811,-1023,-569,-338,287,19,-301
0,7519040,216,-1829,-811,-1023,-569,-338,287,19,-301
0,7519049,217,-1832,-811,-1031,-568,-336,287,19,-301
0,7519062,217,-1832,-811,-1031,-568,-336,287,19,-301
0,7519071,222,-1830,-807,-1027,-559,-331,287,19,-301
0,7519083,222,-1830,-807,-1027,-559,-331,287,19,-301
0,7519098,220,-1834,-809,-1031,-562,-332,287,19,-301
0,7519110,222,-1832,-811,-1029,-566,-331,290,30,-284
0,7519121,222,-1832,-811,-1029,-566,-331,290,30,-284
0,7519133,216,-1833,-803,-1029,-576,-333,290,30,-284
0,7519149,216,-1833,-803,-1029,-576,-333,290,30,-284
0,7519160,215,-1832,-809,-1032,-572,-331,290,30,-284
0,7519171,216,-1831,-814,-1025,-569,-326,290,30,-284
0,7519184,216,-1831,-814,-1025,-569,-326,290,30,-284
0,7519198,219,-1828,-816,-1034,-574,-323,290,30,-284
0,7519209,222,-1830,-814,-1037,-568,-327,290,30,-284
0,7519222,222,-1830,-814,-1037,-568,-327,290,30,-284
0,7519235,218,-1832,-814,-1034,-569,-325,290,30,-284
0,7519248,218,-1832,-814,-1034,-569,-325,290,30,-284
0,7519257,216,-1832,-812,-1034,-566,-336,288,20,-292
0,7519267,216,-1832,-812,-1034,-566,-336,288,20,-292
0,7519280,214,-1832,-810,-1026,-569,-336,288,20,-292
0,7519292,216,-1833,-817,-1022,-569,-331,288,20,-292
0,7519303,216,-1833,-817,-1022,-569,-331,288,20,-292
0,7519318,219,-1830,-812,-1025,-570,-327,288,20,-292
0,7519330,218,-1831,-814,-1030,-564,-325,288,20,-292
0,7519342,218,-1831,-814,-1030,-564,-325,288,20,-292
0,7519356,220,-1830,-817,-1036,-563,-327,288,20,-292
0,7519369,220,-1830,-817,-1036,-563,-327,288,20,-292
0,7519381,216,-1831,-810,-1031,-561,-328,290,20,-290
0,7519395,221,-1830,-812,-1030,-568,-329,290,20,-290
0,7519407,221,-1830,-812,-1030,-568,-329,290,20,-290
0,7519420,217,-1833,-814,-1028,-569,-318,290,20,-290
0,7519433,214,-1833,-815,-1030,-571,-320,290,20,-290
0,7519449,214,-1833,-815,-1030,-571,-320,290,20,-290
0,7519462,217,-1830,-804,-1030,-570,-326,290,20,-290
0,7519471,217,-1830,-813,-1024,-573,-326,290,20,-290
0,7519483,217,-1830,-813,-1024,-573,-326,290,20,-290
0,7519497,223,-1832,-814,-1027,-570,-325,289,21,-293
0,7519509,223,-1832,-814,-1027,-570,-325,289,21,-293
0,7519520,221,-1828,-807,-1023,-575,-328,289,21,-293
0,7519535,220,-1828,-811,-1022,-574,-329,289,21,-293
0,7519547,220,-1828,-811,-1022,-574,-329,289,21,-293
0,7519556,217,-1830,-810,-1035,-569,-323,289,21,-293
0,7519567,217,-1830,-810,-1035,-569,-323,289,21,-293
0,7519583,218,-1830,-816,-1025,-562,-320,289,21,-293
0,7519593,218,-1833,-813,-1031,-564,-323,289,21,-293
0,7519604,218,-1833,-813,-1031,-564,-323,289,21,-293
0,7519618,221,-1834,-817,-1016,-569,-322,289,21,-293
0,7519632,220,-1829,-814,-1031,-573,-325,280,24,-300
0,7519640,220,-1829,-814,-1031,-573,-325,280,24,-300
0,7519650,221,-1833,-815,-1027,-566,-327,280,24,-300
0,7519660,221,-1833,-815,-1027,-566,-327,280,24,-300
0,7519667,221,-1833,-815,-1027,-566,-327,280,24,-300
0,7519677,216,-1827,-813,-1036,-568,-326,280,24,-300
0,7519687,216,-1827,-813,-1036,-568,-326,280,24,-300
0,7519699,217,-1831,-815,-1030,-574,-333,280,24,-300
0,7519708,217,-1831,-815,-1030,-574,-333,280,24,-300
0,7519716,218,-1833,-812,-1031,-570,-326,280,24,-300
0,7519724,218,-1833,-812,-1031,-570,-326,280,24,-300
0,7519732,216,-1832,-810,-1040,-573,-326,280,24,-300
0,7519740,216,-1832,-810,-1040,-573,-326,280,24,-300
0,7519749,216,-1832,-810,-1040,-573,-326,280,24,-300
0,7519757,216,-1832,-808,-1031,-568,-326,289,27,-293
0,7519765,216,-1832,-808,-1031,-568,-326,289,27,-293
0,7519774,219,-1830,-812,-1034,-565,-319,289,27,-293
0,7519782,219,-1830,-812,-1034,-565,-319,289,27,-293
0,7519791,224,-1831,-809,-1029,-566,-325,289,27,-293
0,7519799,224,-1831,-809,-1029,-566,-325,289,27,-293
0,7519807,224,-1831,-809,-1029,-566,-325,289,27,-293
0,7519815,221,-1833,-810,-1024,-569,-328,289,27,-293
0,7519825,221,-1833,-810,-1024,-569,-328,289,27,-293
0,7519833,219,-1833,-812,-1029,-562,-329,289,27,-293
0,7519842,219,-1833,-812,-1029,-562,-329,289,27,-293
0,7519850,213,-1833,-814,-1035,-564,-321,289,27,-293
0,7519859,213,-1833,-814,-1035,-564,-321,289,27,-293
0,7519867,213,-1833,-814,-1035,-564,-321,289,27,-293
0,7519877,214,-1831,-812,-1028,-570,-316,289,27,-293
0,7519885,214,-1831,-812,-1028,-570,-316,289,27,-293
0,7519894,219,-1829,-809,-1038,-567,-325,282,18,-296
0,7519903,219,-1829,-809,-1038,-567,-325,282,18,-296
0,7519912,219,-1831,-805,-1031,-569,-330,282,18,-296
0,7519923,219,-1831,-805,-1031,-569,-330,282,18,-296
0,7519937,222,-1829,-810,-1034,-560,-336,282,18,-296
0,7519950,221,-1829,-812,-1036,-561,-328,282,18,-296
0,7519960,221,-1829,-812,-1036,-561,-328,282,18,-296
0,7519971,221,-1830,-815,-1025,-568,-329,282,18,-296
0,7519984,221,-1830,-815,-1025,-568,-329,282,18,-296
0,7519997,219,-1829,-810,-1030,-563,-331,282,18,-296
0,7520011,217,-1830,-808,-1040,-568,-328,285,17,-299
0,7520023,217,-1830,-808,-1040,-568,-328,285,17,-299
0,7520035,217,-1831,-811,-1031,-570,-329,285,17,-299
0,7520051,220,-1830,-814,-1034,-565,-327,285,17,-299
0,7520059,220,-1830,-814,-1034,-565,-327,285,17,-299
0,7520066,220,-1830,-814,-1034,-565,-327,285,17,-299
0,7520072,219,-1832,-812,-1027,-563,-322,285,17,-299
0,7520080,219,-1832,-812,-1027,-563,-322,285,17,-299
0,7520089,219,-1832,-812,-1027,-563,-322,285,17,-299
0,7520096,224,-1832,-810,-1034,-570,-325,285,17,-299
0,7520104,224,-1832,-810,-1034,-570,-325,285,17,-299
0,7520109,224,-1832,-810,-1034,-570,-325,285,17,-299
0,7520116,223,-1829,-815,-1022,-566,-323,285,17,-299
0,7520124,223,-1829,-815,-1022,-566,-323,285,17,-299
0,7520131,220,-1831,-809,-1028,-572,-327,285,17,-299
0,7520138,220,-1831,-809,-1028,-572,-327,285,17,-299
0,7520147,220,-1831,-809,-1028,-572,-327,285,17,-299
0,7520152,216,-1831,-805,-1030,-562,-322,285,17,-299
0,7520158,216,-1831,-805,-1030,-562,-322,285,17,-299
0,7520164,216,-1831,-805,-1030,-562,-322,285,17,-299
0,7520173,219,-1829,-814,-1035,-564,-324,285,17,-299
0,7520180,219,-1829,-814,-1035,-564,-324,285,17,-299
0,7520188,219,-1829,-814,-1035,-564,-324,285,17,-299
0,7520196,220,-1832,-818,-1036,-568,-324,285,17,-299
0,7520203,220,-1832,-818,-1036,-568,-324,285,17,-299
0,7520210,220,-1831,-810,-1031,-575,-327,285,17,-299
0,7520218,220,-1831,-810,-1031,-575,-327,285,17,-299
0,7520225,220,-1831,-810,-1031,-575,-327,285,17,-299
0,7520232,222,-1832,-814,-1030,-571,-320,285,17,-299
0,7520239,222,-1832,-814,-1030,-571,-320,285,17,-299
0,7520246,222,-1832,-814,-1030,-571,-320,285,17,-299
0,7520253,219,-1828,-815,-1028,-576,-328,285,17,-299
0,7520260,219,-1828,-815,-1028,-576,-328,285,17,-299
0,7520269,219,-1828,-815,-1028,-576,-328,285,17,-299
0,7520277,216,-1832,-806,-1029,-570,-327,282,18,-298
0,7520282,216,-1832,-806,-1029,-570,-327,282,18,-298
0,7520287,216,-1832,-806,-1029,-570,-327,282,18,-298
0,7520291,217,-1832,-803,-1035,-567,-334,282,18,-298
0,7520299,217,-1832,-803,-1035,-567,-334,282,18,-298
0,7520305,217,-1832,-803,-1035,-567,-334,282,18,-298
0,7520313,217,-1827,-811,-1024,-562,-326,282,18,-298
0,7520320,217,-1827,-811,-1024,-562,-326,282,18,-298
0,7520327,217,-1827,-811,-1024,-562,-326,282,18,-298
0,7520334,218,-1829,-813,-1016,-556,-325,282,18,-298
0,7520342,218,-1829,-813,-1016,-556,-325,282,18,-298
0,7520349,218,-1829,-813,-1016,-556,-325,282,18,-298
0,7520356,221,-1831,-808,-1032,-563,-323,282,18,-298
0,7520362,221,-1831,-808,-1032,-563,-323,282,18,-298
0,7520368,221,-1831,-808,-1032,-563,-323,282,18,-298
0,7520374,223,-1827,-810,-1033,-562,-325,282,18,-298
0,7520381,223,-1827,-810,-1033,-562,-325,282,18,-298
0,7520390,223,-1827,-810,-1033,-562,-325,282,18,-298
0,7520397,224,-1828,-811,-1030,-565,-329,289,27,-297
0,7520402,224,-1828,-811,-1030,-565,-329,289,27,-297
0,7520408,224,-1828,-811,-1030,-565,-329,289,27,-297
0,7520415,224,-1828,-811,-1030,-565,-329,289,27,-297
0,7520423,224,-1828,-811,-1030,-565,-329,289,27,-297
0,7520431,219,-1831,-814,-1027,-568,-323,289,27,-297
0,7520439,219,-1831,-814,-1027,-568,-323,289,27,-297
0,7520445,219,-1831,-814,-1027,-568,-323,289,27,-297
0,7520451,212,-1833,-812,-1032,-569,-325,289,27,-297
0,7520457,212,-1833,-812,-1032,-569,-325,289,27,-297
0,7520465,212,-1833,-812,-1032,-569,-325,289,27,-297
0,7520472,215,-1835,-811,-1027,-563,-329,289,27,-297
0,7520479,215,-1835,-811,-1027,-563,-329,289,27,-297
0,7520486,215,-1835,-811,-1027,-563,-329,289,27,-297
0,7520493,220,-1832,-810,-1025,-565,-331,289,27,-297
0,7520500,220,-1832,-810,-1025,-565,-331,289,27,-297
0,7520506,220,-1832,-810,-1025,-565,-331,289,27,-297
0,7520514,222,-1832,-813,-1028,-566,-327,289,27,-297
0,7520521,222,-1832,-813,-1028,-566,-327,289,27,-297
0,7520527,222,-1832,-813,-1028,-566,-327,289,27,-297
0,7520534,222,-1834,-809,-1031,-576,-330,287,15,-295
0,7520541,222,-1834,-809,-1031,-576,-330,287,15,-295
0,7520549,222,-1834,-809,-1031,-576,-330,287,15,-295
0,7520557,220,-1831,-815,-1029,-565,-326,287,15,-295
0,7520565,220,-1831,-815,-1029,-565,-326,287,15,-295
0,7520571,218,-1829,-812,-1030,-566,-323,287,15,-295
0,7520579,218,-1829,-812,-1030,-566,-323,287,15,-295
0,7520585,218,-1829,-812,-1030,-566,-323,287,15,-295
0,7520591,214,-1832,-815,-1025,-562,-333,287,15,-295
0,7520600,214,-1832,-815,-1025,-562,-333,287,15,-295
0,7520608,214,-1832,-815,-1025,-562,-333,287,15,-295
0,7520615,216,-1833,-814,-1022,-563,-331,287,15,-295
0,7520622,216,-1833,-814,-1022,-563,-331,287,15,-295
0,7520629,216,-1833,-814,-1022,-563,-331,287,15,-295
0,7520635,217,-1833,-807,-1025,-566,-326,287,15,-295
0,7520642,217,-1833,-807,-1025,-566,-326,287,15,-295
0,7520649,217,-1833,-807,-1025,-566,-326,287,15,-295
0,7520656,220,-1831,-800,-1026,-569,-326,285,9,-299
0,7520661,220,-1831,-800,-1026,-569,-326,285,9,-299
0,7520666,220,-1831,-800,-1026,-569,-326,285,9,-299
0,7520671,221,-1829,-802,-1030,-566,-329,285,9,-299
0,7520676,221,-1829,-802,-1030,-566,-329,285,9,-299
0,7520681,221,-1829,-802,-1030,-566,-329,285,9,-299
0,7520687,221,-1829,-802,-1030,-566,-329,285,9,-299
0,7520693,222,-1830,-812,-1034,-572,-328,285,9,-299
0,7520698,222,-1830,-812,-1034,-572,-328,285,9,-299
0,7520704,222,-1830,-812,-1034,-572,-328,285,9,-299
0,7520709,222,-1830,-812,-1034,-572,-328,285,9,-299
0,7520714,222,-1829,-812,-1033,-565,-329,285,9,-299
0,7520719,222,-1829,-812,-1033,-565,-329,285,9,-299
0,7520724,222,-1829,-812,-1033,-565,-329,285,9,-299
0,7520729,222,-1829,-812,-1033,-565,-329,285,9,-299
0,7520734,215,-1833,-812,-1031,-568,-332,285,9,-299
0,7520739,215,-1833,-812,-1031,-568,-332,285,9,-299
0,7520745,215,-1833,-812,-1031,-568,-332,285,9,-299
0,7520751,216,-1832,-807,-1025,-564,-325,285,9,-299
0,7520757,216,-1832,-807,-1025,-564,-325,285,9,-299
0,7520762,216,-1832,-807,-1025,-564,-325,285,9,-299
0,7520769,216,-1832,-807,-1025,-564,-325,285,9,-299
0,7520775,215,-1831,-814,-1035,-567,-333,285,9,-299
0,7520781,215,-1831,-814,-1035,-567,-333,285,9,-299
0,7520786,215,-1831,-814,-1035,-567,-333,285,9,-299
0,7520795,219,-1829,-809,-1038,-563,-331,284,14,-288
0,7520801,219,-1829,-809,-1038,-563,-331,284,14,-288
0,7520807,219,-1829,-809,-1038,-563,-331,284,14,-288
0,7520815,219,-1827,-813,-1026,-569,-331,284,14,-288
0,7520823,219,-1827,-813,-1026,-569,-331,284,14,-288
0,7520830,219,-1827,-813,-1026,-569,-331,284,14,-288
0,7520836,220,-1831,-809,-1038,-572,-326,284,14,-288
0,7520842,220,-1831,-809,-1038,-572,-326,284,14,-288
0,7520849,220,-1831,-809,-1038,-572,-326,284,14,-288
0,7520857,220,-1830,-812,-1022,-573,-323,284,14,-288
0,7520864,220,-1830,-812,-1022,-573,-323,284,14,-288
0,7520871,217,-1833,-808,-1032,-569,-325,284,14,-288
0,7520878,217,-1833,-808,-1032,-569,-325,284,14,-288
0,7520886,217,-1833,-808,-1032,-569,-325,284,14,-288
0,7520892,212,-1828,-811,-1028,-571,-324,284,14,-288
0,7520901,212,-1828,-811,-1028,-571,-324,284,14,-288
0,7520909,212,-1828,-811,-1028,-571,-324,284,14,-288
0,7520915,211,-1828,-804,-1035,-565,-327,287,21,-291
0,7520923,211,-1828,-804,-1035,-565,-327,287,21,-291
0,7520930,211,-1828,-804,-1035,-565,-327,287,21,-291
0,7520937,218,-1827,-811,-1029,-568,-328,287,21,-291
0,7520944,218,-1827,-811,-1029,-568,-328,287,21,-291
0,7520948,218,-1827,-811,-1029,-568,-328,287,21,-291
0,7520956,222,-1829,-808,-1037,-568,-318,287,21,-291
0,7520962,222,-1829,-808,-1037,-568,-318,287,21,-291
0,7520970,222,-1829,-808,-1037,-568,-318,287,21,-291
0,7520976,221,-1832,-814,-1034,-570,-326,287,21,-291
0,7520985,221,-1832,-814,-1034,-570,-326,287,21,-291
0,7520992,220,-1831,-810,-1031,-568,-327,287,21,-291
0,7520997,220,-1831,-810,-1031,-568,-327,287,21,-291
0,7521005,220,-1831,-810,-1031,-568,-327,287,21,-291
0,7521013,214,-1829,-814,-1028,-564,-322,287,21,-291
0,7521019,214,-1829,-814,-1028,-564,-322,287,21,-291
0,7521027,214,-1829,-814,-1028,-564,-322,287,21,-291
0,7521035,211,-1832,-813,-1028,-564,-323,279,19,-297
0,7521042,211,-1832,-813,-1028,-564,-323,279,19,-297
0,7521047,211,-1832,-813,-1028,-564,-323,279,19,-297
0,7521055,216,-1833,-799,-1026,-566,-326,279,19,-297
0,7521062,216,-1833,-799,-1026,-566,-326,279,19,-297
0,7521075,216,-1833,-799,-1026,-566,-326,279,19,-297
0,7521087,216,-1833,-799,-1026,-566,-326,279,19,-297
0,7521098,219,-1834,-811,-1030,-564,-325,279,19,-297
0,7521111,219,-1834,-811,-1030,-564,-325,279,19,-297
0,7521124,226,-1831,-810,-1033,-571,-325,279,19,-297
0,7521135,221,-1829,-814,-1024,-566,-331,279,19,-297
0,7521145,221,-1829,-814,-1024,-566,-331,279,19,-297
0,7521159,222,-1830,-813,-1029,-565,-333,279,19,-297
0,7521172,216,-1828,-810,-1028,-562,-333,285,19,-297
0,7521185,216,-1828,-810,-1028,-562,-333,285,19,-295
0,7521197,213,-1832,-805,-1031,-565,-331,285,19,-295
0,7521205,213,-1832,-805,-1031,-565,-331,285,19,-295
0,7521213,211,-1830,-807,-1033,-572,-331,285,19,-295
0,7521221,211,-1830,-807,-1033,-572,-331,285,19,-295
0,7521231,219,-1832,-808,-1023,-570,-335,285,19,-295
0,7521245,219,-1832,-808,-1023,-570,-335,285,19,-295
0,7521257,219,-1834,-807,-1031,-566,-327,285,19,-295
0,7521268,219,-1834,-807,-1031,-566,-327,285,19,-295
0,7521281,218,-1827,-806,-1026,-567,-326,285,19,-295
0,7521295,220,-1826,-806,-1031,-571,-334,283,23,-293
0,7521307,220,-1826,-806,-1031,-571,-334,283,23,-293
0,7521321,218,-1832,-804,-1030,-564,-328,283,23,-293
0,7521334,217,-1833,-810,-1033,-566,-324,283,23,-293
0,7521346,217,-1833,-810,-1033,-566,-324,283,23,-293
0,7521359,215,-1833,-813,-1036,-575,-327,283,23,-293
0,7521372,215,-1833,-813,-1036,-575,-327,283,23,-293
0,7521383,215,-1831,-809,-1037,-572,-326,283,23,-293
0,7521396,217,-1832,-807,-1030,-571,-329,283,23,-293
0,7521412,217,-1832,-807,-1030,-571,-329,283,23,-293
0,7521423,219,-1835,-805,-1035,-566,-324,283,23,-293
0,7521437,217,-1831,-807,-1031,-563,-328,281,19,-297
0,7521448,217,-1831,-807,-1031,-563,-328,281,19,-297
0,7521462,215,-1828,-803,-1025,-565,-328,281,19,-297
0,7521474,215,-1829,-807,-1030,-569,-322,281,19,-297
0,7521484,215,-1829,-807,-1030,-569,-322,281,19,-297
0,7521497,214,-1831,-808,-1036,-566,-316,281,19,-297
0,7521510,214,-1831,-808,-1036,-566,-316,281,19,-297
0,7521522,213,-1831,-808,-1036,-569,-326,281,19,-297
0,7521533,217,-1831,-813,-1029,-573,-331,281,19,-297
0,7521547,217,-1831,-813,-1029,-573,-331,281,19,-297
0,7521560,218,-1832,-803,-1036,-581,-328,289,25,-293
0,7521571,218,-1832,-803,-1036,-581,-328,289,25,-293
0,7521582,215,-1832,-806,-1026,-572,-330,289,25,-293
0,7521594,214,-1830,-814,-1030,-567,-331,289,25,-293
0,7521608,214,-1830,-814,-1030,-567,-331,289,25,-293
0,7521622,212,-1831,-804,-1028,-566,-336,289,25,-293
0,7521633,217,-1829,-807,-1030,-563,-325,289,25,-293
0,7521645,217,-1829,-807,-1030,-563,-325,289,25,-293
0,7521657,213,-1834,-804,-1028,-570,-329,289,25,-293
0,7521666,213,-1834,-804,-1028,-570,-329,289,25,-293
0,7521674,211,-1829,-813,-1026,-572,-329,289,25,-293
0,7521682,211,-1829,-813,-1026,-572,-329,289,25,-293
0,7521693,221,-1828,-805,-1035,-576,-329,286,16,-294
0,7521703,221,-1828,-805,-1035,-576,-329,286,16,-294
0,7521712,221,-1828,-805,-1035,-576,-329,286,16,-294
0,7521720,221,-1828,-805,-1035,-576,-329,286,16,-294
0,7521728,221,-1828,-805,-1035,-576,-329,286,16,-294
0,7521736,221,-1828,-808,-1030,-564,-320,286,16,-294
0,7521743,221,-1828,-808,-1030,-564,-320,286,16,-294
0,7521752,213,-1834,-815,-1023,-566,-323,286,16,-294
0,7521760,213,-1834,-815,-1023,-566,-323,286,16,-294
0,7521769,213,-1834,-815,-1023,-566,-323,286,16,-294
0,7521776,212,-1830,-808,-1025,-573,-325,286,16,-294
0,7521784,212,-1830,-808,-1025,-573,-325,286,16,-294
0,7521793,212,-1831,-807,-1026,-575,-321,286,16,-294
0,7521801,212,-1831,-807,-1026,-575,-321,286,16,-294
0,7521810,212,-1831,-807,-1026,-575,-321,286,16,-294
0,7521818,215,-1832,-808,-1031,-570,-328,293,17,-293
0,7521828,215,-1832,-808,-1031,-570,-328,293,17,-293
0,7521838,220,-1830,-803,-1029,-558,-323,293,17,-293
0,7521848,220,-1830,-803,-1029,-558,-323,293,17,-293
0,7521863,217,-1831,-807,-1031,-565,-336,293,17,-293
0,7521875,218,-1837,-806,-1027,-569,-332,293,17,-293
0,7521888,218,-1837,-806,-1027,-569,-332,293,17,-293
0,7521900,213,-1828,-806,-1023,-562,-328,293,17,-293
0,7521914,214,-1831,-805,-1037,-563,-328,293,17,-293
0,7521927,214,-1831,-805,-1037,-563,-328,293,17,-293
0,7521935,213,-1832,-803,-1034,-567,-329,285,17,-291
0,7521943,213,-1832,-803,-1034,-567,-329,285,17,-291
0,7521951,213,-1832,-803,-1034,-567,-329,285,17,-291
0,7521958,215,-1834,-809,-1030,-572,-329,285,17,-291
0,7521969,215,-1834,-809,-1030,-572,-329,285,17,-291
0,7521981,218,-1831,-804,-1028,-573,-327,285,17,-291
0,7521994,216,-1831,-807,-1024,-564,-328,285,17,-291
0,7522009,216,-1831,-807,-1024,-564,-328,285,17,-291
0,7522018,219,-1833,-807,-1031,-571,-330,285,17,-291
0,7522031,219,-1833,-807,-1031,-571,-330,285,17,-291
0,7522042,218,-1830,-809,-1032,-571,-328,285,17,-291
0,7522057,214,-1830,-810,-1034,-564,-326,285,17,-291
0,7522069,214,-1830,-810,-1034,-564,-326,285,17,-291
0,7522076,212,-1831,-808,-1029,-569,-325,290,18,-296
0,7522081,212,-1831,-808,-1029,-569,-325,290,18,-296
0,7522089,212,-1831,-808,-1029,-569,-325,290,18,-296
0,7522097,216,-1833,-806,-1027,-568,-327,290,18,-296
0,7522102,216,-1833,-806,-1027,-568,-327,290,18,-296
0,7522110,216,-1833,-806,-1027,-568,-327,290,18,-296
0,7522118,220,-1831,-807,-1031,-573,-331,290,18,-296
0,7522125,220,-1831,-807,-1031,-573,-331,290,18,-296
0,7522132,220,-1831,-807,-1031,-573,-331,290,18,-296
0,7522139,217,-1833,-808,-1037,-569,-333,290,18,-296
0,7522147,217,-1833,-808,-1037,-569,-333,290,18,-296
0,7522154,220,-1832,-813,-1039,-565,-331,290,18,-296
0,7522161,220,-1832,-813,-1039,-565,-331,290,18,-296
0,7522166,220,-1832,-813,-1039,-565,-331,290,18,-296
0,7522176,215,-1833,-812,-1028,-570,-328,290,18,-296
0,7522183,215,-1833,-812,-1028,-570,-328,290,18,-296
0,7522189,215,-1833,-812,-1028,-570,-328,290,18,-296
0,7522196,210,-1831,-802,-1026,-568,-332,295,21,-295
0,7522204,210,-1831,-802,-1026,-568,-332,295,21,-295
0,7522211,210,-1831,-802,-1026,-568,-332,295,21,-295
0,7522216,212,-1830,-802,-1026,-559,-325,295,21,-295
0,7522223,212,-1830,-802,-1026,-559,-325,295,21,-295
0,7522231,212,-1830,-802,-1026,-559,-325,295,21,-295
0,7522237,214,-1832,-805,-1033,-558,-329,295,21,-295
0,7522244,214,-1832,-805,-1033,-558,-329,295,21,-295
0,7522250,214,-1832,-805,-1033,-558,-329,295,21,-295
0,7522258,216,-1832,-809,-1031,-566,-328,295,21,-295
0,7522266,216,-1832,-809,-1031,-566,-328,295,21,-295
0,7522274,219,-1831,-802,-1031,-565,-328,295,21,-295
0,7522283,219,-1831,-802,-1031,-565,-328,295,21,-295
0,7522289,219,-1831,-802,-1031,-565,-328,295,21,-295
0,7522296,219,-1831,-808,-1039,-571,-326,295,21,-295
0,7522304,219,-1831,-808,-1039,-571,-326,295,21,-295
0,7522311,219,-1831,-808,-1039,-571,-326,295,21,-295
0,7522318,219,-1828,-809,-1029,-568,-326,295,21,-295
0,7522325,219,-1828,-809,-1029,-568,-326,295,21,-295
0,7522333,213,-1829,-808,-1023,-569,-331,280,18,-294
0,7522340,213,-1829,-808,-1023,-569,-331,280,18,-294
0,7522348,213,-1829,-808,-1023,-569,-331,280,18,-294
0,7522354,211,-1831,-802,-1030,-569,-325,280,18,-294
0,7522362,211,-1831,-802,-1030,-569,-325,280,18,-294
0,7522368,211,-1831,-802,-1030,-569,-325,280,18,-294
0,7522375,208,-1832,-807,-1037,-565,-328,280,18,-294
0,7522383,208,-1832,-807,-1037,-565,-328,280,18,-294
0,7522392,208,-1832,-807,-1037,-565,-328,280,18,-294
0,7522400,211,-1833,-808,-1033,-560,-324,280,18,-294
0,7522408,211,-1833,-808,-1033,-560,-324,280,18,-294
0,7522415,216,-1833,-806,-1031,-565,-323,280,18,-294
0,7522421,216,-1833,-806,-1031,-565,-323,280,18,-294
0,7522428,216,-1833,-806,-1031,-565,-323,280,18,-294
0,7522435,219,-1831,-809,-1031,-564,-318,280,18,-294
0,7522443,219,-1831,-809,-1031,-564,-318,280,18,-294
0,7522450,219,-1831,-809,-1031,-564,-318,280,18,-294
0,7522457,219,-1828,-802,-1030,-557,-318,291,19,-297
0,7522463,219,-1828,-802,-1030,-557,-318,291,19,-297
0,7522468,219,-1828,-802,-1030,-557,-318,291,19,-297
0,7522477,216,-1832,-808,-1027,-565,-328,291,19,-297
0,7522485,216,-1832,-808,-1027,-565,-328,291,19,-297
0,7522490,216,-1832,-808,-1027,-565,-328,291,19,-297
0,7522497,213,-1832,-804,-1031,-568,-324,291,19,-297
0,7522504,213,-1832,-804,-1031,-568,-324,291,19,-297
0,7522511,213,-1832,-804,-1031,-568,-324,291,19,-297
0,7522520,213,-1829,-808,-1035,-564,-329,291,19,-297
0,7522526,213,-1829,-808,-1035,-564,-329,291,19,-297
0,7522533,214,-1831,-813,-1035,-567,-325,291,19,-297
0,7522539,214,-1831,-813,-1035,-567,-325,291,19,-297
0,7522546,214,-1831,-813,-1035,-567,-325,291,19,-297
0,7522553,215,-1829,-811,-1024,-566,-331,291,19,-297
0,7522561,215,-1829,-811,-1024,-566,-331,291,19,-297
0,7522567,215,-1829,-811,-1024,-566,-331,291,19,-297
0,7522572,215,-1829,-811,-1024,-566,-331,291,19,-297
0,7522578,217,-1832,-810,-1024,-571,-322,291,19,-297
0,7522584,217,-1832,-810,-1024,-571,-322,291,19,-297
0,7522588,217,-1832,-810,-1024,-571,-322,291,19,-297
0,7522596,220,-1830,-806,-1026,-568,-326,287,11,-289
0,7522603,220,-1830,-806,-1026,-568,-326,287,11,-289
0,7522611,220,-1830,-806,-1026,-568,-326,287,11,-289
0,7522618,217,-1829,-809,-1034,-564,-330,287,11,-289
0,7522626,217,-1829,-809,-1034,-564,-330,287,11,-289
0,7522633,215,-1829,-809,-1034,-559,-330,287,11,-289
0,7522640,215,-1829,-809,-1034,-559,-330,287,11,-289
0,7522648,215,-1829,-809,-1034,-559,-330,287,11,-289
0,7522653,215,-1829,-809,-1034,-559,-330,287,11,-289
0,7522658,214,-1830,-805,-1037,-564,-330,287,11,-289
0,7522663,214,-1830,-805,-1037,-564,-330,287,11,-289
0,7522668,214,-1830,-805,-1037,-564,-330,287,11,-289
0,7522673,214,-1830,-805,-1037,-564,-330,287,11,-289
0,7522678,213,-1832,-816,-1033,-574,-326,287,11,-289
0,7522684,213,-1832,-816,-1033,-574,-326,287,11,-289
0,7522692,213,-1832,-816,-1033,-574,-326,287,11,-289
0,7522698,216,-1829,-812,-1042,-570,-318,287,11,-289
0,7522703,216,-1829,-812,-1042,-570,-318,287,11,-289
0,7522709,216,-1829,-812,-1042,-570,-318,287,11,-289
0,7522714,218,-1829,-799,-1035,-573,-324,294,14,-292
0,7522719,218,-1829,-799,-1035,-573,-324,294,14,-292
0,7522724,218,-1829,-799,-1035,-573,-324,294,14,-292
0,7522729,218,-1829,-799,-1035,-573,-324,294,14,-292
0,7522735,218,-1831,-805,-1032,-567,-327,294,14,-292
0,7522740,218,-1831,-805,-1032,-567,-327,294,14,-292
0,7522746,218,-1831,-805,-1032,-567,-327,294,14,-292
0,7522753,218,-1831,-805,-1032,-567,-327,294,14,-292
0,7522760,217,-1829,-807,-1036,-570,-333,294,14,-292
0,7522767,217,-1829,-807,-1036,-570,-333,294,14,-292
0,7522772,217,-1829,-807,-1036,-570,-333,294,14,-292
0,7522780,214,-1833,-806,-1037,-570,-333,294,14,-292
0,7522789,214,-1833,-806,-1037,-570,-333,294,14,-292
0,7522795,210,-1833,-808,-1030,-569,-331,294,14,-292
0,7522802,210,-1833,-808,-1030,-569,-331,294,14,-292
0,7522810,210,-1833,-808,-1030,-569,-331,294,14,-292
0,7522818,216,-1834,-807,-1033,-570,-326,294,14,-292
0,7522824,216,-1834,-807,-1033,-570,-326,294,14,-292
0,7522832,216,-1834,-807,-1033,-570,-326,294,14,-292
0,7522839,216,-1833,-809,-1030,-564,-328,283,19,-295
0,7522846,216,-1833,-809,-1030,-564,-328,283,19,-295
0,7522852,216,-1833,-809,-1030,-564,-328,283,19,-295
0,7522861,219,-1829,-800,-1030,-562,-329,283,19,-295
0,7522867,219,-1829,-800,-1030,-562,-329,283,19,-295
0,7522874,219,-1830,-803,-1033,-568,-327,283,19,-295
0,7522881,219,-1830,-803,-1033,-568,-327,283,19,-295
0,7522887,219,-1830,-803,-1033,-568,-327,283,19,-295
0,7522895,218,-1832,-806,-1029,-571,-325,283,19,-295
0,7522903,218,-1832,-806,-1029,-571,-325,283,19,-295
0,7522910,218,-1832,-806,-1029,-571,-325,283,19,-295
0,7522917,213,-1829,-805,-1030,-571,-326,283,19,-295
0,7522923,213,-1829,-805,-1030,-571,-326,283,19,-295
0,7522931,213,-1829,-805,-1030,-571,-326,283,19,-295
0,7522939,213,-1829,-806,-1029,-568,-323,283,19,-295
0,7522947,213,-1829,-806,-1029,-568,-323,283,19,-295
0,7522954,215,-1833,-811,-1025,-564,-330,283,19,-295
0,7522962,215,-1833,-811,-1025,-564,-330,283,19,-295
0,7522968,215,-1833,-811,-1025,-564,-330,283,19,-295
0,7522976,213,-1834,-799,-1038,-564,-326,288,20,-288
0,7522982,213,-1834,-799,-1038,-564,-326,288,20,-288
0,7522990,213,-1834,-799,-1038,-564,-326,288,20,-288
0,7522997,216,-1831,-803,-1030,-567,-321,288,20,-288
0,7523004,216,-1831,-803,-1030,-567,-321,288,20,-288
0,7523011,216,-1831,-803,-1030,-567,-321,288,20,-288
0,7523019,219,-1829,-802,-1034,-573,-324,288,20,-288
0,7523027,219,-1829,-802,-1034,-573,-324,288,20,-288
0,7523035,222,-1833,-812,-1033,-566,-329,288,20,-288
0,7523042,222,-1833,-812,-1033,-566,-329,288,20,-288
0,7523050,222,-1833,-812,-1033,-566,-329,288,20,-288
0,7523057,220,-1831,-811,-1032,-568,-325,288,20,-288
0,7523063,220,-1831,-811,-1032,-568,-325,288,20,-288
0,7523072,220,-1831,-811,-1032,-568,-325,288,20,-288
0,7523083,216,-1830,-805,-1032,-570,-327,288,20,-288
0,7523091,216,-1830,-805,-1032,-570,-327,288,20,-288
0,7523100,211,-1827,-808,-1036,-570,-324,292,14,-294
0,7523109,211,-1827,-808,-1036,-570,-324,292,14,-294
0,7523118,212,-1830,-804,-1039,-575,-324,292,14,-294
0,7523126,212,-1830,-804,-1039,-575,-324,292,14,-294
0,7523134,212,-1830,-807,-1035,-564,-321,292,14,-294
0,7523143,212,-1830,-807,-1035,-564,-321,292,14,-294
0,7523151,212,-1830,-807,-1035,-564,-321,292,14,-294
0,7523160,219,-1829,-799,-1028,-565,-328,292,14,-294
0,7523170,219,-1829,-799,-1028,-565,-328,292,14,-294
0,7523179,219,-1834,-809,-1027,-564,-331,292,14,-294
0,7523188,219,-1834,-809,-1027,-564,-331,292,14,-294
0,7523201,219,-1833,-805,-1029,-570,-328,292,14,-294
0,7523214,219,-1832,-808,-1034,-569,-326,292,14,-294
0,7523226,219,-1832,-808,-1034,-569,-326,292,14,-294
0,7523238,218,-1829,-806,-1039,-571,-326,285,21,-297
0,7523251,218,-1829,-806,-1039,-571,-326,285,21,-297
0,7523264,218,-1833,-804,-1031,-568,-322,285,21,-297
0,7523275,217,-1827,-809,-1027,-574,-324,285,21,-297
0,7523289,217,-1827,-809,-1027,-574,-324,285,21,-297
0,7523301,216,-1829,-808,-1034,-573,-325,285,21,-297
