imu,time,ax,ay,az,gx,gy,gz,mx,my,mz
0,8802310,205,-1874,-293,-998,-574,-337,315,19,-241
0,8802318,205,-1874,-293,-998,-574,-337,315,19,-241
0,8802328,205,-1874,-293,-998,-574,-337,315,19,-241
0,8802336,204,-1873,-254,-1015,-586,-335,315,19,-241
0,8802344,204,-1873,-254,-1015,-586,-335,315,19,-241
0,8802352,203,-1868,-246,-1027,-584,-335,315,19,-241
0,8802360,203,-1868,-246,-1027,-584,-335,315,19,-241
0,8802368,203,-1868,-246,-1027,-584,-335,315,19,-241
0,8802376,210,-1870,-258,-1029,-577,-341,315,19,-241
0,8802383,210,-1870,-258,-1029,-577,-341,315,19,-241
0,8802392,210,-1876,-271,-1040,-577,-338,307,27,-239
0,8802400,210,-1876,-271,-1040,-577,-338,307,27,-239
0,8802407,210,-1876,-271,-1040,-577,-338,307,27,-239
0,8802415,208,-1875,-260,-1052,-584,-338,307,27,-239
0,8802422,208,-1875,-260,-1052,-584,-338,307,27,-239
0,8802430,200,-1875,-238,-1061,-581,-345,307,27,-239
0,8802439,200,-1875,-238,-1061,-581,-345,307,27,-239
0,8802447,200,-1875,-238,-1061,-581,-345,307,27,-239
0,8802454,204,-1871,-265,-1061,-574,-341,307,27,-239
0,8802462,204,-1871,-265,-1061,-574,-341,307,27,-239
0,8802470,204,-1875,-285,-1059,-571,-335,307,27,-239
0,8802478,204,-1875,-285,-1059,-571,-335,307,27,-239
0,8802486,204,-1875,-285,-1059,-571,-335,307,27,-239
0,8802494,209,-1871,-253,-1066,-567,-336,307,27,-239
0,8802501,209,-1871,-253,-1066,-567,-336,307,27,-239
0,8802509,209,-1871,-253,-1066,-567,-336,307,27,-239
0,8802518,212,-1874,-244,-1062,-565,-348,316,16,-240
0,8802525,212,-1874,-244,-1062,-565,-348,316,16,-240
0,8802533,208,-1865,-308,-1080,-565,-344,316,16,-240
0,8802540,208,-1865,-308,-1080,-565,-344,316,16,-240
0,8802548,208,-1865,-308,-1080,-565,-344,316,16,-240
0,8802556,208,-1868,-269,-1068,-573,-338,316,16,-240
0,8802566,208,-1868,-269,-1068,-573,-338,316,16,-240
0,8802574,201,-1870,-276,-1047,-574,-337,316,16,-240
0,8802582,201,-1870,-276,-1047,-574,-337,316,16,-240
0,8802589,201,-1870,-276,-1047,-574,-337,316,16,-240
0,8802603,216,-1868,-259,-1033,-567,-348,316,16,-240
0,8802611,210,-1870,-244,-1034,-570,-345,316,16,-240
0,8802619,210,-1870,-244,-1034,-570,-345,316,16,-240
0,8802627,210,-1870,-244,-1034,-570,-345,316,16,-240
0,8802635,209,-1876,-284,-1048,-568,-340,316,16,-240
0,8802643,209,-1876,-284,-1048,-568,-340,316,16,-240
0,8802652,201,-1871,-256,-1047,-571,-348,311,25,-233
0,8802660,201,-1871,-256,-1047,-571,-348,311,25,-233
0,8802669,201,-1871,-256,-1047,-571,-348,311,25,-233
0,8802678,203,-1870,-256,-1053,-571,-351,311,25,-233
0,8802688,203,-1870,-256,-1053,-571,-351,311,25,-233
0,8802697,206,-1866,-288,-1058,-573,-348,311,25,-233
0,8802705,206,-1866,-288,-1058,-573,-348,311,25,-233
0,8802714,210,-1870,-257,-1050,-583,-347,311,25,-233
0,8802726,210,-1870,-257,-1050,-583,-347,311,25,-233
0,8802740,212,-1869,-265,-1029,-577,-338,311,25,-233
0,8802748,212,-1869,-265,-1029,-577,-338,311,25,-233
0,8802756,211,-1872,-270,-1024,-575,-342,311,25,-233
0,8802764,211,-1872,-270,-1024,-575,-342,311,25,-233
0,8802772,211,-1873,-279,-1015,-576,-338,320,24,-234
0,8802786,211,-1873,-279,-1015,-576,-338,320,24,-234
0,8802799,201,-1875,-285,-1024,-572,-341,320,24,-234
0,8802812,210,-1863,-265,-1024,-577,-336,320,24,-234
0,8802825,210,-1863,-265,-1024,-577,-336,320,24,-234
0,8802838,210,-1859,-261,-989,-571,-336,320,24,-234
0,8802850,210,-1859,-261,-989,-571,-336,320,24,-234
0,8802863,205,-1858,-283,-958,-585,-334,320,24,-234
0,8802877,199,-1869,-283,-914,-581,-342,320,24,-234
0,8802889,199,-1869,-283,-914,-581,-342,320,24,-234
0,8802903,204,-1871,-280,-905,-580,-332,320,20,-240
0,8802914,206,-1866,-239,-923,-576,-337,320,20,-240
0,8802927,206,-1866,-239,-923,-576,-337,320,20,-240
0,8802940,212,-1873,-240,-939,-571,-346,320,20,-240
0,8802954,212,-1870,-264,-938,-575,-338,320,20,-240
0,8802966,212,-1870,-264,-938,-575,-338,320,20,-240
0,8802979,213,-1874,-258,-941,-579,-337,320,20,-240
0,8802992,212,-1875,-249,-956,-579,-332,320,20,-240
0,8803004,212,-1875,-249,-956,-579,-332,320,20,-240
0,8803017,199,-1876,-256,-974,-573,-341,320,20,-240
0,8803031,199,-1876,-256,-974,-573,-341,320,20,-240
0,8803043,205,-1874,-273,-989,-578,-345,314,28,-232
0,8803056,209,-1875,-271,-1002,-576,-337,314,28,-232
0,8803069,209,-1875,-271,-1002,-576,-337,314,28,-232
0,8803082,205,-1871,-239,-1008,-578,-335,314,28,-232
0,8803090,205,-1871,-239,-1008,-578,-335,314,28,-232
0,8803098,210,-1873,-240,-1017,-576,-346,314,28,-232
0,8803106,210,-1873,-240,-1017,-576,-346,314,28,-232
0,8803116,210,-1870,-263,-1033,-582,-341,314,28,-232
0,8803123,210,-1870,-263,-1033,-582,-341,314,28,-232
0,8803131,209,-1873,-259,-1056,-583,-340,314,28,-232
0,8803139,209,-1873,-259,-1056,-583,-340,314,28,-232
0,8803147,209,-1873,-259,-1056,-583,-340,314,28,-232
0,8803155,210,-1872,-236,-1063,-580,-339,307,21,-239
0,8803164,210,-1872,-236,-1063,-580,-339,307,21,-239
0,8803172,211,-1872,-242,-1080,-576,-336,307,21,-239
0,8803180,211,-1872,-242,-1080,-576,-336,307,21,-239
0,8803193,206,-1877,-263,-1086,-578,-337,307,21,-239
0,8803203,206,-1877,-263,-1086,-578,-337,307,21,-239
0,8803210,206,-1877,-263,-1086,-578,-337,307,21,-239
0,8803216,205,-1882,-260,-1111,-572,-338,307,21,-239
0,8803223,205,-1882,-260,-1111,-572,-338,307,21,-239
0,8803230,205,-1882,-260,-1111,-572,-338,307,21,-239
0,8803237,208,-1881,-263,-1145,-577,-338,307,21,-239
0,8803244,208,-1881,-263,-1145,-577,-338,307,21,-239
0,8803251,208,-1881,-263,-1145,-577,-338,307,21,-239
0,8803258,207,-1878,-249,-1170,-585,-339,307,21,-239
0,8803264,207,-1878,-249,-1170,-585,-339,307,21,-239
0,8803274,204,-1874,-259,-1197,-583,-333,307,21,-239
0,8803280,204,-1874,-259,-1197,-583,-333,307,21,-239
0,8803287,204,-1874,-259,-1197,-583,-333,307,21,-239
0,8803295,205,-1876,-264,-1222,-583,-334,314,26,-246
0,8803301,205,-1876,-264,-1222,-583,-334,314,26,-246
0,8803308,205,-1876,-264,-1222,-583,-334,314,26,-246
0,8803315,210,-1871,-259,-1238,-585,-339,314,26,-246
0,8803322,210,-1871,-259,-1238,-585,-339,314,26,-246
0,8803329,210,-1871,-259,-1238,-585,-339,314,26,-246
0,8803335,213,-1860,-310,-1248,-582,-343,314,26,-246
0,8803340,213,-1860,-310,-1248,-582,-343,314,26,-246
0,8803346,213,-1860,-310,-1248,-582,-343,314,26,-246
0,8803353,213,-1860,-310,-1248,-582,-343,314,26,-246
0,8803360,213,-1860,-310,-1248,-582,-343,314,26,-246
0,8803366,213,-1860,-310,-1248,-582,-343,314,26,-246
0,8803375,209,-1862,-273,-1162,-583,-339,314,26,-246
0,8803382,209,-1862,-273,-1162,-583,-339,314,26,-246
0,8803390,209,-1862,-273,-1162,-583,-339,314,26,-246
0,8803397,203,-1866,-282,-1115,-584,-332,314,26,-246
0,8803404,203,-1866,-282,-1115,-584,-332,314,26,-246
0,8803410,203,-1866,-282,-1115,-584,-332,314,26,-246
0,8803416,208,-1871,-281,-1093,-583,-329,310,24,-236
0,8803424,208,-1871,-281,-1093,-583,-329,310,24,-236
0,8803431,204,-1870,-278,-1096,-574,-333,310,24,-236
0,8803440,204,-1870,-278,-1096,-574,-333,310,24,-236
0,8803447,204,-1870,-278,-1096,-574,-333,310,24,-236
0,8803454,195,-1859,-280,-1084,-578,-339,310,24,-236
0,8803462,195,-1859,-280,-1084,-578,-339,310,24,-236
0,8803469,195,-1859,-280,-1084,-578,-339,310,24,-236
0,8803476,219,-1852,-307,-1026,-579,-338,310,24,-236
0,8803482,219,-1852,-307,-1026,-579,-338,310,24,-236
0,8803490,219,-1852,-307,-1026,-579,-338,310,24,-236
0,8803497,213,-1867,-280,-946,-565,-331,310,24,-236
0,8803507,213,-1867,-280,-946,-565,-331,310,24,-236
0,8803513,216,-1879,-285,-934,-574,-340,310,24,-236
0,8803520,216,-1879,-285,-934,-574,-340,310,24,-236
0,8803526,216,-1879,-285,-934,-574,-340,310,24,-236
0,8803534,201,-1870,-250,-945,-582,-333,310,24,-236
0,8803540,201,-1870,-250,-945,-582,-333,310,24,-236
0,8803548,201,-1870,-250,-945,-582,-333,310,24,-236
0,8803556,203,-1872,-288,-962,-579,-330,316,20,-236
0,8803564,203,-1872,-288,-962,-579,-330,316,20,-236
0,8803571,203,-1872,-288,-962,-579,-330,316,20,-236
0,8803578,200,-1874,-272,-965,-576,-338,316,20,-236
0,8803586,200,-1874,-272,-965,-576,-338,316,20,-236
0,8803592,207,-1868,-254,-965,-578,-342,316,20,-236
0,8803599,207,-1868,-254,-965,-578,-342,316,20,-236
0,8803605,207,-1868,-254,-965,-578,-342,316,20,-236
0,8803610,207,-1868,-254,-965,-578,-342,316,20,-236
0,8803615,216,-1874,-267,-959,-574,-337,316,20,-236
0,8803623,216,-1874,-267,-959,-574,-337,316,20,-236
0,8803629,216,-1874,-267,-959,-574,-337,316,20,-236
0,8803634,215,-1873,-270,-961,-580,-338,316,20,-236
0,8803641,215,-1873,-270,-961,-580,-338,316,20,-236
0,8803648,215,-1873,-270,-961,-580,-338,316,20,-236
0,8803656,212,-1874,-277,-965,-576,-342,316,20,-236
0,8803663,212,-1874,-277,-965,-576,-342,316,20,-236
0,8803671,212,-1874,-277,-965,-576,-342,316,20,-236
0,8803677,216,-1871,-281,-975,-580,-336,318,26,-236
0,8803683,216,-1871,-281,-975,-580,-336,318,26,-236
0,8803690,216,-1871,-281,-975,-580,-336,318,26,-236
0,8803696,208,-1869,-258,-970,-582,-344,318,26,-236
0,8803703,208,-1869,-258,-970,-582,-344,318,26,-236
0,8803712,214,-1866,-273,-969,-576,-336,318,26,-236
0,8803718,214,-1866,-273,-969,-576,-336,318,26,-236
0,8803725,214,-1866,-273,-969,-576,-336,318,26,-236
0,8803733,207,-1873,-265,-955,-577,-335,318,26,-236
0,8803740,207,-1873,-265,-955,-577,-335,318,26,-236
0,8803745,207,-1873,-265,-955,-577,-335,318,26,-236
0,8803750,207,-1873,-265,-955,-577,-335,318,26,-236
0,8803756,214,-1875,-263,-963,-575,-336,318,26,-236
0,8803761,214,-1875,-263,-963,-575,-336,318,26,-236
0,8803766,214,-1875,-263,-963,-575,-336,318,26,-236
0,8803772,214,-1875,-263,-963,-575,-336,318,26,-236
0,8803779,210,-1877,-252,-983,-580,-337,318,26,-236
0,8803786,210,-1877,-252,-983,-580,-337,318,26,-236
0,8803793,209,-1873,-244,-999,-574,-335,315,17,-239
0,8803802,209,-1873,-244,-999,-574,-335,315,17,-239
0,8803809,209,-1873,-244,-999,-574,-335,315,17,-239
0,8803816,210,-1873,-255,-1015,-570,-335,315,17,-239
0,8803824,210,-1873,-255,-1015,-570,-335,315,17,-239
0,8803831,210,-1873,-255,-1015,-570,-335,315,17,-239
0,8803836,212,-1878,-265,-1043,-576,-337,315,17,-239
0,8803844,212,-1878,-265,-1043,-576,-337,315,17,-239
0,8803851,212,-1878,-265,-1043,-576,-337,315,17,-239
0,8803858,213,-1871,-281,-1051,-579,-339,315,17,-239
0,8803866,213,-1871,-281,-1051,-579,-339,315,17,-239
0,8803874,211,-1867,-255,-1039,-581,-345,315,17,-239
0,8803883,211,-1867,-255,-1039,-581,-345,315,17,-239
0,8803889,211,-1867,-255,-1039,-581,-345,315,17,-239
0,8803895,218,-1866,-260,-1034,-578,-340,315,17,-239
0,8803903,218,-1866,-260,-1034,-578,-340,315,17,-239
0,8803910,218,-1866,-260,-1034,-578,-340,315,17,-239
0,8803916,216,-1870,-262,-1039,-579,-335,315,17,-239
0,8803924,216,-1870,-262,-1039,-579,-335,315,17,-239
0,8803933,212,-1870,-250,-1038,-573,-341,319,23,-235
0,8803939,212,-1870,-250,-1038,-573,-341,319,23,-235
0,8803945,212,-1870,-250,-1038,-573,-341,319,23,-235
0,8803954,211,-1869,-262,-1052,-580,-336,319,23,-235
0,8803961,211,-1869,-262,-1052,-580,-336,319,23,-235
0,8803970,211,-1869,-262,-1052,-580,-336,319,23,-235
0,8803977,202,-1871,-281,-1058,-578,-343,319,23,-235
0,8803983,202,-1871,-281,-1058,-578,-343,319,23,-235
0,8803991,202,-1871,-281,-1058,-578,-343,319,23,-235
0,8803999,204,-1869,-287,-1049,-579,-330,319,23,-235
0,8804005,204,-1869,-287,-1049,-579,-330,319,23,-235
0,8804014,210,-1869,-274,-1039,-576,-337,319,23,-235
0,8804021,210,-1869,-274,-1039,-576,-337,319,23,-235
0,8804028,210,-1869,-274,-1039,-576,-337,319,23,-235
0,8804034,222,-1872,-246,-1035,-579,-346,319,23,-235
0,8804042,222,-1872,-246,-1035,-579,-346,319,23,-235
0,8804050,222,-1872,-246,-1035,-579,-346,319,23,-235
0,8804056,213,-1870,-269,-1041,-582,-339,321,25,-237
0,8804062,213,-1870,-269,-1041,-582,-339,321,25,-237
0,8804069,213,-1870,-269,-1041,-582,-339,321,25,-237
0,8804076,198,-1870,-293,-1037,-579,-335,321,25,-237
0,8804084,198,-1870,-293,-1037,-579,-335,321,25,-237
0,8804089,198,-1870,-293,-1037,-579,-335,321,25,-237
0,8804094,211,-1866,-273,-1034,-577,-335,321,25,-237
0,8804100,211,-1866,-273,-1034,-577,-335,321,25,-237
0,8804105,211,-1866,-273,-1034,-577,-335,321,25,-237
0,8804110,211,-1866,-273,-1034,-577,-335,321,25,-237
0,8804115,214,-1861,-268,-1027,-578,-340,321,25,-237
0,8804120,214,-1861,-268,-1027,-578,-340,321,25,-237
0,8804125,214,-1861,-268,-1027,-578,-340,321,25,-237
0,8804133,211,-1861,-278,-994,-573,-336,321,25,-237
0,8804141,211,-1861,-278,-994,-573,-336,321,25,-237
0,8804149,211,-1861,-278,-994,-573,-336,321,25,-237
0,8804156,208,-1871,-279,-959,-565,-335,321,25,-237
0,8804162,208,-1871,-279,-959,-565,-335,321,25,-237
0,8804170,208,-1871,-279,-959,-565,-335,321,25,-237
0,8804176,203,-1873,-278,-945,-580,-332,321,25,-237
0,8804184,203,-1873,-278,-945,-580,-332,321,25,-237
0,8804189,203,-1873,-278,-945,-580,-332,321,25,-237
0,8804197,203,-1870,-262,-947,-579,-332,318,22,-236
0,8804203,203,-1870,-262,-947,-579,-332,318,22,-236
0,8804217,216,-1870,-268,-957,-575,-338,318,22,-236
0,8804232,216,-1870,-268,-957,-575,-338,318,22,-236
0,8804244,214,-1873,-250,-961,-583,-343,318,22,-236
0,8804255,218,-1871,-252,-972,-583,-331,318,22,-236
0,8804269,218,-1871,-252,-972,-583,-331,318,22,-236
0,8804284,212,-1871,-260,-976,-579,-327,318,22,-236
0,8804296,202,-1872,-263,-994,-575,-325,318,22,-236
0,8804306,202,-1872,-263,-994,-575,-325,318,22,-236
0,8804319,209,-1872,-256,-1014,-587,-330,316,16,-232
0,8804331,209,-1872,-256,-1014,-587,-330,316,16,-232
0,8804344,209,-1868,-259,-1024,-584,-329,316,16,-232
0,8804355,209,-1870,-262,-1029,-573,-337,316,16,-232
0,8804370,209,-1870,-262,-1029,-573,-337,316,16,-232
0,8804382,214,-1865,-265,-1026,-579,-336,316,16,-232
0,8804397,207,-1868,-258,-1026,-578,-333,316,16,-232
0,8804410,207,-1868,-258,-1026,-578,-333,316,16,-232
0,8804422,211,-1868,-275,-1013,-575,-338,316,16,-232
0,8804432,212,-1871,-269,-1015,-589,-334,316,16,-232
0,8804446,212,-1871,-269,-1015,-589,-334,316,16,-232
0,8804459,212,-1872,-269,-1027,-575,-333,322,18,-230
0,8804472,212,-1872,-269,-1027,-575,-333,322,18,-230
0,8804486,206,-1877,-263,-1046,-588,-332,322,18,-230
0,8804499,208,-1872,-271,-1055,-582,-335,322,18,-230
0,8804512,208,-1872,-271,-1055,-582,-335,322,18,-230
0,8804524,207,-1871,-268,-1069,-581,-334,322,18,-230
0,8804534,211,-1871,-264,-1088,-590,-335,322,18,-230
0,8804544,211,-1871,-264,-1088,-590,-335,322,18,-230
0,8804552,211,-1871,-264,-1088,-590,-335,322,18,-230
0,8804560,214,-1866,-263,-1075,-590,-337,322,18,-230
0,8804571,214,-1866,-263,-1075,-590,-337,322,18,-230
0,8804584,216,-1864,-253,-1053,-589,-337,318,14,-228
0,8804593,221,-1868,-256,-1028,-582,-337,318,14,-228
0,8804604,221,-1868,-256,-1028,-582,-337,318,14,-228
0,8804616,213,-1870,-253,-1020,-581,-325,318,14,-228
0,8804630,213,-1870,-253,-1020,-581,-325,318,14,-228
0,8804640,207,-1872,-284,-1030,-586,-332,318,14,-228
0,8804653,207,-1872,-284,-1030,-586,-332,318,14,-228
0,8804668,197,-1872,-289,-1041,-588,-332,318,14,-228
0,8804681,207,-1870,-279,-1048,-573,-336,318,14,-228
0,8804691,207,-1870,-279,-1048,-573,-336,318,14,-228
0,8804705,218,-1862,-250,-1044,-581,-332,313,17,-233
0,8804719,218,-1866,-253,-1022,-583,-326,313,17,-233
0,8804731,218,-1866,-253,-1022,-583,-326,313,17,-233
0,8804743,222,-1876,-262,-1022,-578,-333,313,17,-233
0,8804751,222,-1876,-262,-1022,-578,-333,313,17,-233
0,8804758,205,-1873,-261,-1019,-568,-332,313,17,-233
0,8804766,205,-1873,-261,-1019,-568,-332,313,17,-233
0,8804780,203,-1876,-286,-1026,-576,-325,313,17,-233
0,8804791,203,-1876,-286,-1026,-576,-325,313,17,-233
0,8804804,200,-1871,-295,-1034,-581,-334,313,17,-233
0,8804816,213,-1864,-288,-1026,-587,-330,313,17,-233
0,8804829,213,-1864,-288,-1026,-587,-330,313,17,-233
0,8804841,222,-1868,-267,-1000,-594,-325,315,23,-235
0,8804855,222,-1868,-267,-1000,-594,-325,315,23,-235
0,8804867,222,-1868,-267,-1000,-594,-325,315,23,-235
0,8804879,217,-1872,-258,-977,-576,-339,315,23,-235
0,8804892,217,-1872,-258,-977,-576,-339,315,23,-235
0,8804905,216,-1875,-257,-990,-575,-333,315,23,-235
0,8804918,212,-1874,-247,-1008,-591,-327,315,23,-235
0,8804930,212,-1874,-247,-1008,-591,-327,315,23,-235
0,8804943,215,-1874,-258,-1005,-592,-332,315,23,-235
0,8804956,216,-1872,-269,-1017,-578,-331,313,17,-237
0,8804969,216,-1872,-269,-1017,-578,-331,313,17,-237
0,8804981,211,-1870,-260,-1007,-577,-335,313,17,-237
0,8804996,210,-1867,-260,-1006,-580,-330,313,17,-237
0,8805008,210,-1867,-260,-1006,-580,-330,313,17,-237
0,8805020,211,-1864,-260,-1009,-585,-330,313,17,-237
0,8805035,206,-1870,-273,-1012,-589,-334,313,17,-237
0,8805048,206,-1870,-273,-1012,-589,-334,313,17,-237
0,8805058,201,-1873,-276,-1017,-584,-332,313,17,-237
0,8805072,201,-1873,-276,-1017,-584,-332,313,17,-237
0,8805085,206,-1876,-267,-1036,-589,-326,313,17,-237
0,8805093,206,-1876,-267,-1036,-589,-326,313,17,-237
0,8805100,210,-1875,-266,-1042,-585,-325,306,26,-228
0,8805109,210,-1875,-266,-1042,-585,-325,306,26,-228
0,8805116,215,-1869,-254,-1040,-583,-328,306,26,-228
0,8805125,215,-1869,-254,-1040,-583,-328,306,26,-228
0,8805133,215,-1869,-254,-1040,-583,-328,306,26,-228
0,8805141,214,-1865,-262,-1043,-585,-330,306,26,-228
0,8805149,214,-1865,-262,-1043,-585,-330,306,26,-228
0,8805157,209,-1870,-260,-1038,-576,-328,306,26,-228
0,8805166,209,-1870,-260,-1038,-576,-328,306,26,-228
0,8805177,214,-1870,-266,-1033,-577,-333,306,26,-228
0,8805187,214,-1870,-266,-1033,-577,-333,306,26,-228
0,8805196,211,-1876,-261,-1048,-577,-334,306,26,-228
0,8805203,211,-1876,-261,-1048,-577,-334,306,26,-228
0,8805212,211,-1876,-261,-1048,-577,-334,306,26,-228
0,8805219,205,-1866,-255,-1065,-577,-332,308,24,-232
0,8805225,205,-1866,-255,-1065,-577,-332,308,24,-232
0,8805232,205,-1866,-255,-1065,-577,-332,308,24,-232
0,8805239,211,-1870,-276,-1061,-582,-342,308,24,-232
0,8805245,211,-1870,-276,-1061,-582,-342,308,24,-232
0,8805254,211,-1870,-276,-1061,-582,-342,308,24,-232
0,8805261,214,-1867,-270,-1051,-584,-337,308,24,-232
0,8805267,214,-1867,-270,-1051,-584,-337,308,24,-232
0,8805272,214,-1867,-270,-1051,-584,-337,308,24,-232
0,8805278,220,-1869,-267,-1047,-582,-338,308,24,-232
0,8805285,220,-1869,-267,-1047,-582,-338,308,24,-232
0,8805292,220,-1869,-267,-1047,-582,-338,308,24,-232
0,8805300,223,-1868,-243,-1035,-581,-330,308,24,-232
0,8805307,223,-1868,-243,-1035,-581,-330,308,24,-232
0,8805312,223,-1868,-243,-1035,-581,-330,308,24,-232
0,8805318,216,-1874,-265,-1028,-574,-326,308,24,-232
0,8805324,216,-1874,-265,-1028,-574,-326,308,24,-232
0,8805331,216,-1874,-265,-1028,-574,-326,308,24,-232
0,8805338,209,-1874,-278,-1029,-575,-333,310,16,-240
0,8805345,209,-1874,-278,-1029,-575,-333,310,16,-240
0,8805352,209,-1874,-278,-1029,-575,-333,310,16,-240
0,8805359,202,-1873,-277,-1032,-578,-331,310,16,-240
0,8805366,202,-1873,-277,-1032,-578,-331,310,16,-240
0,8805373,202,-1873,-277,-1032,-578,-331,310,16,-240
0,8805381,205,-1869,-277,-1035,-581,-336,310,16,-240
0,8805387,205,-1869,-277,-1035,-581,-336,310,16,-240
0,8805394,214,-1870,-261,-1022,-576,-337,310,16,-240
0,8805400,214,-1870,-261,-1022,-576,-337,310,16,-240
0,8805407,214,-1870,-261,-1022,-576,-337,310,16,-240
0,8805414,217,-1870,-257,-1019,-577,-332,310,16,-240
0,8805422,217,-1870,-257,-1019,-577,-332,310,16,-240
0,8805429,217,-1870,-257,-1019,-577,-332,310,16,-240
0,8805436,219,-1871,-251,-1016,-582,-336,310,16,-240
0,8805444,219,-1871,-251,-1016,-582,-336,310,16,-240
0,8805450,219,-1871,-251,-1016,-582,-336,310,16,-240
0,8805456,223,-1872,-248,-1020,-583,-334,310,16,-240
0,8805463,223,-1872,-248,-1020,-583,-334,310,16,-240
0,8805471,223,-1872,-248,-1020,-583,-334,310,16,-240
0,8805479,216,-1871,-253,-1027,-579,-329,317,15,-229
0,8805485,216,-1871,-253,-1027,-579,-329,317,15,-229
0,8805492,216,-1871,-253,-1027,-579,-329,317,15,-229
0,8805500,209,-1864,-277,-1029,-584,-326,317,15,-229
0,8805508,209,-1864,-277,-1029,-584,-326,317,15,-229
0,8805514,209,-1864,-277,-1029,-584,-326,317,15,-229
0,8805521,213,-1864,-268,-1010,-583,-332,317,15,-229
0,8805529,213,-1864,-268,-1010,-583,-332,317,15,-229
0,8805535,215,-1871,-267,-986,-577,-336,317,15,-229
0,8805542,215,-1871,-267,-986,-577,-336,317,15,-229
0,8805549,215,-1871,-267,-986,-577,-336,317,15,-229
0,8805555,218,-1874,-261,-983,-580,-332,317,15,-229
0,8805560,218,-1874,-261,-983,-580,-332,317,15,-229
0,8805568,218,-1874,-261,-983,-580,-332,317,15,-229
0,8805575,215,-1874,-270,-991,-585,-328,317,15,-229
0,8805583,215,-1874,-270,-991,-585,-328,317,15,-229
0,8805591,215,-1874,-270,-991,-585,-328,317,15,-229
0,8805597,210,-1874,-268,-1007,-581,-331,315,23,-233
0,8805604,210,-1874,-268,-1007,-581,-331,315,23,-233
0,8805610,210,-1874,-268,-1007,-581,-331,315,23,-233
0,8805617,207,-1872,-269,-1024,-581,-330,315,23,-233
0,8805623,207,-1872,-269,-1024,-581,-330,315,23,-233
0,8805630,207,-1872,-269,-1024,-581,-330,315,23,-233
0,8805639,209,-1865,-272,-1026,-579,-326,315,23,-233
0,8805646,209,-1865,-272,-1026,-579,-326,315,23,-233
0,8805653,209,-1865,-272,-1026,-579,-326,315,23,-233
0,8805659,206,-1865,-264,-1002,-582,-325,315,23,-233
0,8805667,206,-1865,-264,-1002,-582,-325,315,23,-233
0,8805673,206,-1865,-264,-1002,-582,-325,315,23,-233
0,8805680,208,-1870,-265,-1007,-577,-339,315,23,-233
0,8805688,208,-1870,-265,-1007,-577,-339,315,23,-233
0,8805696,210,-1872,-262,-1016,-578,-335,315,23,-233
0,8805703,210,-1872,-262,-1016,-578,-335,315,23,-233
0,8805710,210,-1872,-262,-1016,-578,-335,315,23,-233
0,8805715,212,-1871,-270,-1031,-580,-339,315,23,-233
0,8805721,212,-1871,-270,-1031,-580,-339,315,23,-233
0,8805727,212,-1871,-270,-1031,-580,-339,315,23,-233
0,8805733,212,-1871,-270,-1031,-580,-339,315,23,-233
0,8805740,210,-1873,-261,-1054,-584,-332,316,24,-232
0,8805746,210,-1873,-261,-1054,-584,-332,316,24,-232
0,8805750,210,-1873,-261,-1054,-584,-332,316,24,-232
0,8805755,217,-1866,-258,-1046,-578,-338,316,24,-232
0,8805761,217,-1866,-258,-1046,-578,-338,316,24,-232
0,8805766,217,-1866,-258,-1046,-578,-338,316,24,-232
0,8805773,217,-1866,-258,-1046,-578,-338,316,24,-232
0,8805778,212,-1864,-263,-1026,-573,-338,316,24,-232
0,8805786,212,-1864,-263,-1026,-573,-338,316,24,-232
0,8805793,212,-1864,-263,-1026,-573,-338,316,24,-232
0,8805801,215,-1867,-252,-1025,-579,-336,316,24,-232
0,8805808,215,-1867,-252,-1025,-579,-336,316,24,-232
0,8805815,219,-1870,-256,-1035,-577,-336,316,24,-232
0,8805822,219,-1870,-256,-1035,-577,-336,316,24,-232
0,8805830,219,-1870,-256,-1035,-577,-336,316,24,-232
0,8805836,215,-1871,-253,-1042,-581,-336,316,24,-232
0,8805843,215,-1871,-253,-1042,-581,-336,316,24,-232
0,8805852,215,-1871,-253,-1042,-581,-336,316,24,-232
0,8805859,210,-1871,-280,-1055,-577,-334,313,21,-241
0,8805865,210,-1871,-280,-1055,-577,-334,313,21,-241
0,8805872,210,-1871,-280,-1055,-577,-334,313,21,-241
0,8805880,207,-1871,-275,-1062,-574,-339,313,21,-241
0,8805888,207,-1871,-275,-1062,-574,-339,313,21,-241
0,8805895,217,-1870,-266,-1046,-575,-340,313,21,-241
0,8805903,217,-1870,-266,-1046,-575,-340,313,21,-241
0,8805911,217,-1870,-266,-1046,-575,-340,313,21,-241
0,8805918,221,-1866,-249,-1046,-578,-335,313,21,-241
0,8805924,221,-1866,-249,-1046,-578,-335,313,21,-241
0,8805928,221,-1866,-249,-1046,-578,-335,313,21,-241
0,8805937,215,-1871,-263,-1041,-577,-336,313,21,-241
0,8805942,215,-1871,-263,-1041,-577,-336,313,21,-241
0,8805949,215,-1871,-263,-1041,-577,-336,313,21,-241
0,8805957,209,-1877,-281,-1037,-580,-336,313,21,-241
0,8805964,209,-1877,-281,-1037,-580,-336,313,21,-241
0,8805970,209,-1877,-281,-1037,-580,-336,313,21,-241
0,8805977,207,-1873,-279,-1044,-578,-337,313,21,-241
0,8805985,207,-1873,-279,-1044,-578,-337,313,21,-241
0,8805992,207,-1873,-279,-1044,-578,-337,313,21,-241
0,8805999,223,-1866,-262,-1056,-581,-338,309,15,-235
0,8806006,223,-1866,-262,-1056,-581,-338,309,15,-235
0,8806012,223,-1866,-262,-1056,-581,-338,309,15,-235
0,8806021,225,-1866,-250,-1023,-582,-332,309,15,-235
0,8806027,225,-1866,-250,-1023,-582,-332,309,15,-235
0,8806032,225,-1866,-250,-1023,-582,-332,309,15,-235
0,8806039,223,-1871,-267,-999,-575,-332,309,15,-235
0,8806048,223,-1871,-267,-999,-575,-332,309,15,-235
0,8806055,212,-1873,-274,-1009,-581,-332,309,15,-235
0,8806063,212,-1873,-274,-1009,-581,-332,309,15,-235
0,8806071,212,-1873,-274,-1009,-581,-332,309,15,-235
0,8806078,203,-1867,-289,-1018,-583,-327,309,15,-235
0,8806084,203,-1867,-289,-1018,-583,-327,309,15,-235
0,8806089,203,-1867,-289,-1018,-583,-327,309,15,-235
0,8806095,205,-1864,-279,-1020,-586,-329,309,15,-235
0,8806099,205,-1864,-279,-1020,-586,-329,309,15,-235
0,8806105,205,-1864,-279,-1020,-586,-329,309,15,-235
0,8806110,205,-1864,-279,-1020,-586,-329,309,15,-235
0,8806116,214,-1870,-242,-996,-577,-322,311,23,-229
0,8806121,214,-1870,-242,-996,-577,-322,311,23,-229
0,8806126,214,-1870,-242,-996,-577,-322,311,23,-229
0,8806134,214,-1870,-242,-996,-577,-322,311,23,-229
0,8806141,223,-1874,-228,-1014,-589,-337,311,23,-229
0,8806147,223,-1874,-228,-1014,-589,-337,311,23,-229
0,8806155,223,-1874,-228,-1014,-589,-337,311,23,-229
0,8806162,226,-1874,-267,-1021,-589,-333,311,23,-229
0,8806170,226,-1874,-267,-1021,-589,-333,311,23,-229
0,8806177,227,-1869,-246,-1015,-585,-337,311,23,-229
0,8806183,227,-1869,-246,-1015,-585,-337,311,23,-229
0,8806191,227,-1869,-246,-1015,-585,-337,311,23,-229
0,8806197,214,-1869,-253,-1001,-580,-333,311,23,-229
0,8806205,214,-1869,-253,-1001,-580,-333,311,23,-229
0,8806213,214,-1869,-253,-1001,-580,-333,311,23,-229
0,8806220,211,-1878,-286,-994,-579,-328,311,23,-229
0,8806234,211,-1878,-286,-994,-579,-328,311,23,-229
0,8806247,219,-1872,-252,-1014,-580,-334,312,16,-240
0,8806262,218,-1875,-261,-1017,-573,-333,312,16,-240
0,8806275,218,-1875,-261,-1017,-573,-333,312,16,-240
0,8806287,223,-1872,-280,-1029,-580,-327,312,16,-240
0,8806301,218,-1870,-259,-1025,-581,-324,312,16,-240
0,8806313,218,-1870,-259,-1025,-581,-324,312,16,-240
0,8806327,217,-1870,-276,-1035,-578,-326,312,16,-240
0,8806335,213,-1873,-273,-1033,-580,-332,312,16,-240
0,8806343,213,-1873,-273,-1033,-580,-332,312,16,-240
0,8806351,213,-1873,-273,-1033,-580,-332,312,16,-240
0,8806360,211,-1871,-269,-1033,-585,-337,312,16,-240
0,8806372,211,-1871,-269,-1033,-585,-337,312,16,-240
0,8806383,217,-1870,-270,-1025,-578,-328,312,8,-228
0,8806396,222,-1871,-245,-1037,-577,-327,312,8,-228
0,8806411,222,-1871,-245,-1037,-577,-327,312,8,-228
0,8806425,221,-1875,-247,-1034,-579,-321,312,8,-228
0,8806433,221,-1875,-247,-1034,-579,-321,312,8,-228
0,8806447,228,-1868,-269,-1046,-575,-327,312,8,-228
0,8806459,217,-1871,-258,-1058,-575,-325,312,8,-228
0,8806471,217,-1871,-258,-1058,-575,-325,312,8,-228
0,8806484,216,-1868,-279,-1053,-575,-328,312,8,-228
0,8806499,213,-1868,-277,-1041,-578,-330,315,23,-229
0,8806511,213,-1868,-277,-1041,-578,-330,315,23,-229
0,8806523,215,-1877,-264,-1026,-577,-332,315,23,-229
0,8806537,213,-1875,-268,-1034,-583,-333,315,23,-229
0,8806550,213,-1875,-268,-1034,-583,-333,315,23,-229
0,8806561,222,-1871,-263,-1049,-581,-330,315,23,-229
0,8806575,222,-1871,-263,-1049,-581,-330,315,23,-229
0,8806587,220,-1868,-273,-1041,-583,-334,315,23,-229
0,8806600,230,-1868,-269,-1014,-576,-327,315,23,-229
0,8806614,230,-1868,-269,-1014,-576,-327,315,23,-229
0,8806629,226,-1873,-250,-988,-574,-322,315,23,-229
0,8806643,223,-1875,-249,-1005,-587,-330,302,22,-222
0,8806651,223,-1875,-249,-1005,-587,-330,302,22,-222
0,8806664,217,-1873,-261,-1012,-588,-320,302,22,-222
0,8806677,216,-1873,-268,-1024,-582,-334,302,22,-222
0,8806689,216,-1873,-268,-1024,-582,-334,302,22,-222
0,8806701,211,-1872,-288,-1036,-578,-325,302,22,-222
0,8806715,211,-1872,-288,-1036,-578,-325,302,22,-222
0,8806726,217,-1867,-290,-1039,-577,-332,302,22,-222
0,8806740,220,-1871,-270,-998,-583,-333,302,22,-222
0,8806749,220,-1871,-270,-998,-583,-333,302,22,-222
0,8806757,223,-1873,-270,-994,-581,-323,313,17,-221
0,8806764,223,-1873,-270,-994,-581,-323,313,17,-221
0,8806773,223,-1873,-270,-994,-581,-323,313,17,-221
0,8806784,226,-1870,-250,-1007,-580,-325,313,17,-221
0,8806797,218,-1872,-267,-1017,-584,-330,313,17,-221
0,8806810,218,-1872,-267,-1017,-584,-330,313,17,-221
0,8806822,221,-1867,-260,-1013,-588,-329,313,17,-221
0,8806835,221,-1867,-260,-1013,-588,-329,313,17,-221
0,8806849,216,-1874,-246,-1021,-587,-327,313,17,-221
0,8806861,236,-1876,-249,-1017,-583,-327,313,17,-221
0,8806874,236,-1876,-249,-1017,-583,-327,313,17,-221
0,8806884,228,-1872,-247,-1018,-576,-330,313,17,-221
0,8806896,225,-1871,-258,-1043,-584,-333,318,16,-228
0,8806905,225,-1871,-258,-1043,-584,-333,318,16,-228
0,8806917,208,-1872,-278,-1050,-583,-336,318,16,-228
0,8806932,208,-1872,-278,-1050,-583,-336,318,16,-228
0,8806942,218,-1868,-280,-1043,-580,-327,318,16,-228
0,8806952,218,-1868,-280,-1043,-580,-327,318,16,-228
0,8806963,227,-1868,-270,-1036,-580,-334,318,16,-228
0,8806972,227,-1868,-270,-1036,-580,-334,318,16,-228
0,8806979,227,-1868,-270,-1036,-580,-334,318,16,-228
0,8806987,227,-1868,-270,-1036,-580,-334,318,16,-228
0,8806996,223,-1876,-261,-1008,-587,-327,318,16,-228
0,8807005,223,-1876,-261,-1008,-587,-327,318,16,-228
0,8807015,223,-1876,-261,-1008,-587,-327,318,16,-228
0,8807025,218,-1875,-255,-1037,-584,-327,312,20,-240
0,8807035,218,-1875,-255,-1037,-584,-327,312,20,-240
0,8807046,228,-1876,-267,-1066,-581,-331,312,20,-240
0,8807055,228,-1876,-267,-1066,-581,-331,312,20,-240
0,8807064,230,-1858,-252,-1067,-584,-329,312,20,-240
0,8807076,229,-1863,-266,-1019,-572,-334,312,20,-240
0,8807088,229,-1863,-266,-1019,-572,-334,312,20,-240
0,8807096,229,-1863,-266,-1019,-572,-334,312,20,-240
0,8807104,220,-1885,-281,-996,-584,-328,312,20,-240
0,8807112,220,-1885,-281,-996,-584,-328,312,20,-240
0,8807120,211,-1874,-270,-999,-586,-332,312,20,-240
0,8807129,211,-1874,-270,-999,-586,-332,312,20,-240
0,8807137,216,-1873,-265,-1008,-580,-329,314,20,-230
0,8807145,216,-1873,-265,-1008,-580,-329,314,20,-230
0,8807154,216,-1873,-265,-1008,-580,-329,314,20,-230
0,8807162,225,-1876,-245,-1025,-585,-332,314,20,-230
0,8807171,225,-1876,-245,-1025,-585,-332,314,20,-230
0,8807179,227,-1867,-258,-1035,-590,-328,314,20,-230
0,8807187,227,-1867,-258,-1035,-590,-328,314,20,-230
0,8807201,225,-1863,-276,-1027,-585,-327,314,20,-230
0,8807216,225,-1863,-276,-1027,-585,-327,314,20,-230
0,8807225,216,-1873,-272,-994,-580,-325,314,20,-230
0,8807233,216,-1873,-272,-994,-580,-325,314,20,-230
0,8807238,212,-1875,-271,-971,-579,-328,314,20,-230
0,8807245,212,-1875,-271,-971,-579,-328,314,20,-230
0,8807254,212,-1875,-271,-971,-579,-328,314,20,-230
0,8807261,210,-1873,-270,-988,-587,-325,314,20,-230
0,8807267,210,-1873,-270,-988,-587,-325,314,20,-230
0,8807273,210,-1873,-270,-988,-587,-325,314,20,-230
0,8807281,215,-1875,-260,-1000,-586,-329,309,23,-235
0,8807287,215,-1875,-260,-1000,-586,-329,309,23,-235
0,8807294,215,-1875,-260,-1000,-586,-329,309,23,-235
0,8807302,221,-1873,-258,-1014,-591,-333,309,23,-235
0,8807309,221,-1873,-258,-1014,-591,-333,309,23,-235
0,8807317,222,-1873,-271,-1015,-589,-331,309,23,-235
0,8807323,222,-1873,-271,-1015,-589,-331,309,23,-235
0,8807330,222,-1873,-271,-1015,-589,-331,309,23,-235
0,8807337,225,-1874,-270,-1025,-587,-328,309,23,-235
0,8807345,225,-1874,-270,-1025,-587,-328,309,23,-235
0,8807352,225,-1874,-270,-1025,-587,-328,309,23,-235
0,8807360,224,-1873,-272,-1028,-583,-332,309,23,-235
0,8807367,224,-1873,-272,-1028,-583,-332,309,23,-235
0,8807373,224,-1873,-272,-1028,-583,-332,309,23,-235
0,8807380,220,-1873,-256,-1030,-587,-333,309,23,-235
0,8807389,220,-1873,-256,-1030,-587,-333,309,23,-235
0,8807396,220,-1873,-256,-1030,-587,-333,309,23,-235
0,8807403,218,-1874,-260,-1039,-580,-332,306,22,-232
0,8807410,218,-1874,-260,-1039,-580,-332,306,22,-232
0,8807416,215,-1875,-277,-1054,-582,-328,306,22,-232
0,8807424,215,-1875,-277,-1054,-582,-328,306,22,-232
0,8807431,215,-1875,-277,-1054,-582,-328,306,22,-232
0,8807437,216,-1869,-267,-1058,-583,-335,306,22,-232
0,8807445,216,-1869,-267,-1058,-583,-335,306,22,-232
0,8807452,216,-1869,-267,-1058,-583,-335,306,22,-232
0,8807458,217,-1875,-264,-1057,-587,-331,306,22,-232
0,8807467,217,-1875,-264,-1057,-587,-331,306,22,-232
0,8807474,217,-1875,-264,-1057,-587,-331,306,22,-232
0,8807480,230,-1871,-247,-1069,-582,-324,306,22,-232
0,8807487,230,-1871,-247,-1069,-582,-324,306,22,-232
0,8807492,230,-1871,-247,-1069,-582,-324,306,22,-232
0,8807497,230,-1872,-238,-1082,-580,-325,306,22,-232
0,8807502,230,-1872,-238,-1082,-580,-325,306,22,-232
0,8807510,230,-1872,-238,-1082,-580,-325,306,22,-232
0,8807516,230,-1872,-238,-1082,-580,-325,306,22,-232
0,8807523,214,-1874,-265,-1096,-579,-333,306,22,-232
0,8807530,214,-1874,-265,-1096,-579,-333,306,22,-232
0,8807536,214,-1875,-265,-1104,-584,-328,311,19,-223
0,8807544,214,-1875,-265,-1104,-584,-328,311,19,-223
0,8807553,214,-1875,-265,-1104,-584,-328,311,19,-223
0,8807560,218,-1871,-272,-1117,-587,-322,311,19,-223
0,8807566,218,-1871,-272,-1117,-587,-322,311,19,-223
0,8807571,218,-1871,-272,-1117,-587,-322,311,19,-223
0,8807578,218,-1874,-275,-1134,-588,-319,311,19,-223
0,8807584,218,-1874,-275,-1134,-588,-319,311,19,-223
0,8807590,218,-1874,-275,-1134,-588,-319,311,19,-223
0,8807598,227,-1876,-254,-1142,-583,-320,311,19,-223
0,8807606,227,-1876,-254,-1142,-583,-320,311,19,-223
0,8807613,227,-1876,-254,-1142,-583,-320,311,19,-223
0,8807621,223,-1874,-251,-1157,-578,-319,311,19,-223
0,8807628,223,-1874,-251,-1157,-578,-319,311,19,-223
0,8807634,223,-1874,-251,-1157,-578,-319,311,19,-223
0,8807641,225,-1871,-270,-1173,-585,-323,311,19,-223
0,8807650,225,-1871,-270,-1173,-585,-323,311,19,-223
0,8807655,225,-1871,-270,-1173,-585,-323,311,19,-223
0,8807663,215,-1869,-267,-1171,-586,-327,311,13,-231
0,8807670,215,-1869,-267,-1171,-586,-327,311,13,-231
0,8807676,217,-1873,-267,-1162,-580,-330,311,13,-231
0,8807685,217,-1873,-267,-1162,-580,-330,311,13,-231
0,8807691,217,-1873,-267,-1162,-580,-330,311,13,-231
0,8807699,217,-1873,-267,-1162,-580,-330,311,13,-231
0,8807705,217,-1873,-267,-1162,-580,-330,311,13,-231
0,8807713,217,-1873,-267,-1162,-580,-330,311,13,-231
0,8807719,220,-1877,-255,-1200,-586,-333,311,13,-231
0,8807725,220,-1877,-255,-1200,-586,-333,311,13,-231
0,8807732,220,-1877,-255,-1200,-586,-333,311,13,-231
0,8807740,226,-1875,-276,-1225,-589,-334,311,13,-231
0,8807745,226,-1875,-276,-1225,-589,-334,311,13,-231
0,8807750,226,-1875,-276,-1225,-589,-334,311,13,-231
0,8807755,226,-1875,-276,-1225,-589,-334,311,13,-231
0,8807760,219,-1869,-283,-1239,-588,-328,311,13,-231
0,8807766,219,-1869,-283,-1239,-588,-328,311,13,-231
0,8807771,219,-1869,-283,-1239,-588,-328,311,13,-231
0,8807778,221,-1867,-269,-1219,-581,-313,309,21,-229
0,8807784,221,-1867,-269,-1219,-581,-313,309,21,-229
0,8807789,221,-1867,-269,-1219,-581,-313,309,21,-229
0,8807797,219,-1870,-280,-1206,-579,-324,309,21,-229
0,8807804,219,-1870,-280,-1206,-579,-324,309,21,-229
0,8807813,219,-1870,-280,-1206,-579,-324,309,21,-229
0,8807820,221,-1877,-274,-1191,-580,-329,309,21,-229
0,8807828,221,-1877,-274,-1191,-580,-329,309,21,-229
0,8807835,221,-1877,-274,-1191,-580,-329,309,21,-229
0,8807842,217,-1874,-272,-1198,-589,-325,309,21,-229
0,8807851,217,-1874,-272,-1198,-589,-325,309,21,-229
0,8807856,217,-1874,-272,-1198,-589,-325,309,21,-229
0,8807863,212,-1865,-302,-1199,-586,-331,309,21,-229
0,8807869,212,-1865,-302,-1199,-586,-331,309,21,-229
0,8807874,212,-1865,-302,-1199,-586,-331,309,21,-229
0,8807880,221,-1863,-290,-1170,-588,-330,309,21,-229
0,8807887,221,-1863,-290,-1170,-588,-330,309,21,-229
0,8807895,221,-1863,-290,-1170,-588,-330,309,21,-229
0,8807902,223,-1872,-280,-1138,-579,-328,309,21,-229
0,8807907,223,-1872,-280,-1138,-579,-328,309,21,-229
0,8807914,223,-1872,-280,-1138,-579,-328,309,21,-229
0,8807921,221,-1876,-274,-1139,-580,-333,302,22,-226
0,8807930,221,-1876,-274,-1139,-580,-333,302,22,-226
0,8807938,218,-1877,-271,-1155,-583,-324,302,22,-226
0,8807944,218,-1877,-271,-1155,-583,-324,302,22,-226
0,8807950,218,-1877,-271,-1155,-583,-324,302,22,-226
0,8807958,218,-1874,-275,-1159,-580,-334,302,22,-226
0,8807965,218,-1874,-275,-1159,-580,-334,302,22,-226
0,8807972,218,-1874,-275,-1159,-580,-334,302,22,-226
0,8807981,217,-1867,-285,-1165,-583,-328,302,22,-226
0,8807989,217,-1867,-285,-1165,-583,-328,302,22,-226
0,8807996,217,-1867,-285,-1165,-583,-328,302,22,-226
0,8808003,220,-1866,-283,-1170,-580,-320,302,22,-226
0,8808009,220,-1866,-283,-1170,-580,-320,302,22,-226
0,8808016,220,-1866,-283,-1170,-580,-320,302,22,-226
0,8808023,215,-1865,-281,-1165,-579,-320,302,22,-226
0,8808031,215,-1865,-281,-1165,-579,-320,302,22,-226
0,8808039,222,-1874,-283,-1158,-577,-321,311,19,-227
0,8808045,222,-1874,-283,-1158,-577,-321,311,19,-227
0,8808052,222,-1874,-283,-1158,-577,-321,311,19,-227
0,8808057,219,-1874,-274,-1159,-575,-323,311,19,-227
0,8808065,219,-1874,-274,-1159,-575,-323,311,19,-227
0,8808073,219,-1874,-274,-1159,-575,-323,311,19,-227
0,8808081,226,-1871,-282,-1168,-580,-320,311,19,-227
0,8808087,226,-1871,-282,-1168,-580,-320,311,19,-227
0,8808091,226,-1871,-282,-1168,-580,-320,311,19,-227
0,8808096,226,-1871,-282,-1168,-580,-320,311,19,-227
0,8808101,221,-1870,-294,-1184,-583,-332,311,19,-227
0,8808108,221,-1870,-294,-1184,-583,-332,311,19,-227
0,8808112,221,-1870,-294,-1184,-583,-332,311,19,-227
0,8808117,221,-1868,-294,-1176,-587,-328,311,19,-227
0,8808123,221,-1868,-294,-1176,-587,-328,311,19,-227
0,8808131,221,-1868,-294,-1176,-587,-328,311,19,-227
0,8808137,224,-1870,-300,-1152,-585,-321,311,19,-227
0,8808144,224,-1870,-300,-1152,-585,-321,311,19,-227
0,8808153,224,-1870,-300,-1152,-585,-321,311,19,-227
0,8808160,224,-1874,-281,-1158,-582,-325,311,19,-227
0,8808166,224,-1874,-281,-1158,-582,-325,311,19,-227
0,8808173,224,-1874,-281,-1158,-582,-325,311,19,-227
0,8808180,217,-1876,-278,-1146,-578,-324,308,22,-220
0,8808186,217,-1876,-278,-1146,-578,-324,308,22,-220
0,8808194,217,-1876,-278,-1146,-578,-324,308,22,-220
0,8808202,221,-1877,-295,-1162,-580,-326,308,22,-220
0,8808209,221,-1877,-295,-1162,-580,-326,308,22,-220
0,8808215,221,-1877,-295,-1162,-580,-326,308,22,-220
0,8808222,225,-1868,-291,-1166,-580,-325,308,22,-220
0,8808228,225,-1868,-291,-1166,-580,-325,308,22,-220
0,8808235,225,-1868,-291,-1166,-580,-325,308,22,-220
0,8808244,226,-1868,-289,-1157,-580,-323,308,22,-220
0,8808257,226,-1868,-289,-1157,-580,-323,308,22,-220
0,8808269,212,-1872,-296,-1143,-584,-327,308,22,-220
0,8808283,223,-1870,-286,-1129,-583,-324,308,22,-220
0,8808293,223,-1870,-286,-1129,-583,-324,308,22,-220
0,8808305,216,-1872,-298,-1131,-571,-319,304,14,-232
0,8808313,216,-1872,-298,-1131,-571,-319,304,14,-232
0,8808323,226,-1871,-299,-1139,-579,-330,304,14,-232
0,8808331,226,-1871,-299,-1139,-579,-330,304,14,-232
0,8808342,226,-1870,-291,-1140,-579,-323,304,14,-232
0,8808354,226,-1870,-291,-1140,-579,-323,304,14,-232
0,8808370,213,-1872,-302,-1131,-575,-329,304,14,-232
0,8808381,227,-1868,-289,-1118,-574,-335,304,14,-232
0,8808393,227,-1868,-289,-1118,-574,-335,304,14,-232
0,8808406,219,-1875,-296,-1113,-579,-327,304,14,-232
0,8808422,221,-1874,-298,-1120,-579,-329,304,14,-232
0,8808436,221,-1874,-298,-1120,-579,-329,304,14,-232
0,8808445,217,-1872,-283,-1117,-578,-329,306,20,-226
0,8808458,215,-1873,-294,-1122,-580,-328,306,20,-226
0,8808472,215,-1873,-294,-1122,-580,-328,306,20,-226
0,8808485,222,-1874,-290,-1121,-581,-330,306,20,-226
0,8808495,222,-1874,-290,-1121,-581,-330,306,20,-226
0,8808507,226,-1873,-289,-1123,-579,-325,306,20,-226
0,8808519,221,-1873,-309,-1118,-583,-327,306,20,-226
0,8808534,221,-1873,-309,-1118,-583,-327,306,20,-226
0,8808545,222,-1874,-292,-1125,-579,-326,306,20,-226
0,8808558,216,-1873,-292,-1117,-580,-327,307,19,-229
0,8808570,216,-1873,-292,-1117,-580,-327,307,19,-229
0,8808583,216,-1872,-291,-1133,-576,-330,307,19,-229
0,8808597,216,-1872,-291,-1133,-576,-330,307,19,-229
0,8808610,214,-1878,-297,-1145,-577,-325,307,19,-229
0,8808623,217,-1874,-299,-1158,-584,-322,307,19,-229
0,8808636,217,-1874,-299,-1158,-584,-322,307,19,-229
0,8808648,220,-1873,-278,-1164,-585,-325,307,19,-229
0,8808660,219,-1873,-301,-1187,-581,-330,307,19,-229
0,8808673,219,-1873,-301,-1187,-581,-330,307,19,-229
0,8808687,218,-1874,-315,-1201,-581,-328,307,11,-237
0,8808696,218,-1874,-315,-1201,-581,-328,307,11,-237
0,8808704,212,-1875,-285,-1198,-578,-324,307,11,-237
0,8808712,212,-1875,-285,-1198,-578,-324,307,11,-237
0,8808721,221,-1873,-311,-1205,-579,-322,307,11,-237
0,8808729,221,-1873,-311,-1205,-579,-322,307,11,-237
0,8808740,219,-1874,-309,-1207,-585,-327,307,11,-237
0,8808749,219,-1874,-309,-1207,-585,-327,307,11,-237
0,8808757,219,-1874,-309,-1207,-585,-327,307,11,-237
0,8808764,213,-1868,-304,-1210,-581,-328,307,11,-237
0,8808777,213,-1868,-304,-1210,-581,-328,307,11,-237
0,8808790,216,-1871,-311,-1199,-578,-335,307,11,-237
0,8808803,221,-1873,-285,-1209,-581,-329,307,11,-237
0,8808814,221,-1873,-285,-1209,-581,-329,307,11,-237
0,8808827,217,-1867,-303,-1218,-585,-325,310,22,-232
0,8808840,211,-1867,-311,-1205,-583,-323,310,22,-232
0,8808853,211,-1867,-311,-1205,-583,-323,310,22,-232
0,8808865,213,-1870,-307,-1197,-574,-328,310,22,-232
0,8808878,213,-1870,-307,-1197,-574,-328,310,22,-232
0,8808892,213,-1876,-330,-1198,-582,-325,310,22,-232
0,8808905,220,-1874,-326,-1202,-577,-328,310,22,-232
0,8808919,224,-1871,-312,-1197,-577,-333,310,22,-232
0,8808930,224,-1871,-312,-1197,-577,-333,310,22,-232
0,8808940,220,-1869,-328,-1186,-578,-334,312,16,-236
0,8808950,220,-1869,-328,-1186,-578,-334,312,16,-236
0,8808961,218,-1870,-313,-1176,-580,-331,312,16,-236
0,8808973,218,-1870,-313,-1176,-580,-331,312,16,-236
0,8808987,213,-1869,-309,-1172,-577,-325,312,16,-236
0,8808997,213,-1869,-309,-1172,-577,-325,312,16,-236
0,8809008,212,-1866,-329,-1156,-577,-330,312,16,-236
0,8809019,221,-1865,-310,-1119,-580,-332,312,16,-236
0,8809030,221,-1865,-310,-1119,-580,-332,312,16,-236
0,8809044,218,-1874,-334,-1091,-577,-337,312,16,-236
0,8809056,218,-1874,-334,-1091,-577,-337,312,16,-236
0,8809068,222,-1879,-332,-1084,-571,-329,312,16,-236
0,8809082,219,-1878,-301,-1086,-576,-336,301,19,-233
0,8809090,219,-1878,-301,-1086,-576,-336,301,19,-233
0,8809098,222,-1875,-325,-1097,-572,-333,301,19,-233
0,8809108,222,-1875,-325,-1097,-572,-333,301,19,-233
0,8809116,222,-1875,-325,-1097,-572,-333,301,19,-233
0,8809124,218,-1874,-313,-1110,-576,-333,301,19,-233
0,8809133,218,-1874,-313,-1110,-576,-333,301,19,-233
0,8809140,222,-1871,-327,-1114,-579,-337,301,19,-233
0,8809149,222,-1871,-327,-1114,-579,-337,301,19,-233
0,8809157,222,-1871,-327,-1114,-579,-337,301,19,-233
0,8809165,214,-1876,-337,-1113,-579,-337,301,19,-233
0,8809174,214,-1876,-337,-1113,-579,-337,301,19,-233
0,8809182,220,-1875,-299,-1106,-574,-332,301,19,-233
0,8809190,220,-1875,-299,-1106,-574,-332,301,19,-233
0,8809199,220,-1875,-299,-1106,-574,-332,296,20,-238
0,8809208,220,-1875,-299,-1106,-574,-332,296,20,-238
0,8809218,220,-1875,-299,-1106,-574,-332,296,20,-238
0,8809228,217,-1875,-320,-1121,-573,-334,296,20,-238
0,8809237,217,-1875,-320,-1121,-573,-334,296,20,-238
0,8809245,224,-1880,-301,-1140,-578,-325,296,20,-238
0,8809250,224,-1880,-301,-1140,-578,-325,296,20,-238
0,8809256,224,-1880,-301,-1140,-578,-325,296,20,-238
0,8809263,223,-1877,-319,-1154,-574,-322,296,20,-238
0,8809271,223,-1877,-319,-1154,-574,-322,296,20,-238
0,8809279,221,-1882,-316,-1176,-576,-327,296,20,-238
0,8809287,221,-1882,-316,-1176,-576,-327,296,20,-238
0,8809293,221,-1882,-316,-1176,-576,-327,296,20,-238
0,8809302,219,-1883,-301,-1235,-574,-326,296,20,-238
0,8809309,219,-1883,-301,-1235,-574,-326,296,20,-238
0,8809316,219,-1883,-301,-1235,-574,-326,296,20,-238
0,8809322,220,-1876,-341,-1271,-575,-321,296,20,-238
0,8809328,220,-1876,-341,-1271,-575,-321,296,20,-238
0,8809334,220,-1876,-341,-1271,-575,-321,296,20,-238
0,8809342,224,-1861,-321,-1260,-581,-315,296,20,-238
0,8809351,224,-1861,-321,-1260,-581,-315,296,20,-238
0,8809356,224,-1861,-321,-1260,-581,-315,296,20,-238
0,8809363,218,-1875,-318,-1229,-574,-319,296,20,-238
0,8809369,218,-1875,-318,-1229,-574,-319,296,20,-238
0,8809376,218,-1875,-318,-1229,-574,-319,296,20,-238
0,8809383,225,-1884,-335,-1230,-572,-314,296,20,-238
0,8809391,225,-1884,-335,-1230,-572,-314,296,20,-238
0,8809399,225,-1884,-335,-1230,-572,-314,296,20,-238
0,8809405,220,-1874,-316,-1262,-583,-320,296,20,-238
0,8809412,220,-1874,-316,-1262,-583,-320,296,20,-238
0,8809420,224,-1871,-338,-1272,-575,-323,296,20,-238
0,8809426,224,-1871,-338,-1272,-575,-323,296,20,-238
0,8809433,224,-1871,-338,-1272,-575,-323,296,20,-238
0,8809440,221,-1865,-348,-1254,-576,-323,296,20,-238
0,8809448,221,-1865,-348,-1254,-576,-323,296,20,-238
0,8809454,221,-1865,-348,-1254,-576,-323,296,20,-238
0,8809462,224,-1869,-332,-1222,-577,-334,307,23,-249
0,8809469,224,-1869,-332,-1222,-577,-334,307,23,-249
0,8809476,224,-1869,-332,-1222,-577,-334,307,23,-249
0,8809482,222,-1875,-346,-1198,-581,-333,307,23,-249
0,8809489,222,-1875,-346,-1198,-581,-333,307,23,-249
0,8809497,222,-1875,-346,-1198,-581,-333,307,23,-249
0,8809504,222,-1873,-340,-1192,-578,-327,307,23,-249
0,8809509,222,-1873,-340,-1192,-578,-327,307,23,-249
0,8809517,222,-1873,-340,-1192,-578,-327,307,23,-249
0,8809524,221,-1861,-366,-1186,-573,-320,307,23,-249
0,8809530,221,-1861,-366,-1186,-573,-320,307,23,-249
0,8809538,221,-1861,-366,-1186,-573,-320,307,23,-249
0,8809545,225,-1863,-347,-1135,-579,-322,307,23,-249
0,8809550,225,-1863,-347,-1135,-579,-322,307,23,-249
0,8809559,226,-1873,-340,-1093,-577,-326,307,23,-249
0,8809567,226,-1873,-340,-1093,-577,-326,307,23,-249
0,8809574,226,-1873,-340,-1093,-577,-326,307,23,-249
0,8809581,222,-1878,-334,-1090,-578,-330,303,19,-239
0,8809587,222,-1878,-334,-1090,-578,-330,303,19,-239
0,8809593,222,-1878,-334,-1090,-578,-330,303,19,-239
0,8809601,214,-1873,-330,-1103,-578,-335,303,19,-239
0,8809607,214,-1873,-330,-1103,-578,-335,303,19,-239
0,8809614,214,-1873,-330,-1103,-578,-335,303,19,-239
0,8809621,217,-1878,-339,-1107,-578,-329,303,19,-239
0,8809628,217,-1878,-339,-1107,-578,-329,303,19,-239
0,8809635,217,-1878,-339,-1107,-578,-329,303,19,-239
0,8809641,217,-1862,-361,-1111,-578,-327,303,19,-239
0,8809649,217,-1862,-361,-1111,-578,-327,303,19,-239
0,8809656,217,-1862,-361,-1111,-578,-327,303,19,-239
0,8809663,226,-1862,-344,-1072,-577,-322,303,19,-239
0,8809668,226,-1862,-344,-1072,-577,-322,303,19,-239
0,8809673,226,-1862,-344,-1072,-577,-322,303,19,-239
0,8809680,224,-1879,-340,-1056,-566,-323,303,19,-239
0,8809690,224,-1879,-340,-1056,-566,-323,303,19,-239
0,8809697,224,-1879,-340,-1056,-566,-323,303,19,-239
0,8809704,224,-1879,-338,-1046,-571,-317,303,19,-239
0,8809710,224,-1879,-338,-1046,-571,-317,303,19,-239
0,8809717,224,-1879,-338,-1046,-571,-317,303,19,-239
0,8809723,216,-1873,-331,-1055,-565,-312,305,9,-243
0,8809729,216,-1873,-331,-1055,-565,-312,305,9,-243
0,8809737,216,-1873,-331,-1055,-565,-312,305,9,-243
0,8809741,224,-1875,-333,-1070,-565,-325,305,9,-243
0,8809746,224,-1875,-333,-1070,-565,-325,305,9,-243
0,8809751,224,-1875,-333,-1070,-565,-325,305,9,-243
0,8809756,224,-1875,-333,-1070,-565,-325,305,9,-243
0,8809761,222,-1881,-328,-1089,-572,-321,305,9,-243
0,8809767,222,-1881,-328,-1089,-572,-321,305,9,-243
0,8809775,222,-1881,-328,-1089,-572,-321,305,9,-243
0,8809782,225,-1879,-326,-1125,-584,-320,305,9,-243
0,8809789,225,-1879,-326,-1125,-584,-320,305,9,-243
0,8809795,225,-1879,-326,-1125,-584,-320,305,9,-243
0,8809801,214,-1880,-332,-1162,-581,-317,305,9,-243
0,8809807,214,-1880,-332,-1162,-581,-317,305,9,-243
0,8809814,214,-1880,-332,-1162,-581,-317,305,9,-243
0,8809820,223,-1866,-354,-1200,-576,-327,305,9,-243
0,8809827,223,-1866,-354,-1200,-576,-327,305,9,-243
0,8809834,223,-1866,-354,-1200,-576,-327,305,9,-243
0,8809841,218,-1868,-342,-1172,-575,-323,303,15,-241
0,8809848,218,-1868,-342,-1172,-575,-323,303,15,-241
0,8809856,218,-1868,-342,-1172,-575,-323,303,15,-241
0,8809862,222,-1886,-337,-1168,-570,-330,303,15,-241
0,8809867,222,-1886,-337,-1168,-570,-330,303,15,-241
0,8809874,222,-1886,-337,-1168,-570,-330,303,15,-241
0,8809881,225,-1884,-326,-1202,-572,-333,303,15,-241
0,8809888,225,-1884,-326,-1202,-572,-333,303,15,-241
0,8809894,225,-1884,-326,-1202,-572,-333,303,15,-241
0,8809900,216,-1876,-337,-1243,-579,-328,303,15,-241
0,8809908,216,-1876,-337,-1243,-579,-328,303,15,-241
0,8809916,216,-1876,-337,-1243,-579,-328,303,15,-241
0,8809924,220,-1876,-365,-1264,-583,-324,303,15,-241
0,8809932,220,-1876,-365,-1264,-583,-324,303,15,-241
0,8809939,215,-1869,-347,-1261,-580,-326,303,15,-241
0,8809946,215,-1869,-347,-1261,-580,-326,303,15,-241
0,8809954,215,-1869,-347,-1261,-580,-326,303,15,-241
0,8809960,217,-1872,-356,-1248,-574,-326,303,15,-241
0,8809967,217,-1872,-356,-1248,-574,-326,303,15,-241
0,8809974,217,-1872,-356,-1248,-574,-326,303,15,-241
0,8809981,223,-1877,-365,-1240,-567,-334,304,10,-250
0,8809987,223,-1877,-365,-1240,-567,-334,304,10,-250
0,8809994,223,-1877,-365,-1240,-567,-334,304,10,-250
0,8810003,220,-1872,-348,-1238,-582,-331,304,10,-250
0,8810009,220,-1872,-348,-1238,-582,-331,304,10,-250
0,8810015,220,-1872,-348,-1238,-582,-331,304,10,-250
0,8810022,218,-1870,-361,-1230,-578,-322,304,10,-250
0,8810030,218,-1870,-361,-1230,-578,-322,304,10,-250
0,8810037,218,-1870,-361,-1230,-578,-322,304,10,-250
0,8810044,221,-1868,-369,-1224,-579,-326,304,10,-250
0,8810051,221,-1868,-369,-1224,-579,-326,304,10,-250
0,8810057,221,-1868,-369,-1224,-579,-326,304,10,-250
0,8810064,221,-1865,-367,-1199,-574,-325,304,10,-250
0,8810072,221,-1865,-367,-1199,-574,-325,304,10,-250
0,8810078,221,-1865,-367,-1199,-574,-325,304,10,-250
0,8810084,226,-1876,-367,-1165,-571,-322,304,10,-250
0,8810090,226,-1876,-367,-1165,-571,-322,304,10,-250
0,8810095,226,-1876,-367,-1165,-571,-322,304,10,-250
0,8810101,223,-1872,-349,-1162,-576,-324,299,19,-241
0,8810106,223,-1872,-349,-1162,-576,-324,299,19,-241
0,8810112,223,-1872,-349,-1162,-576,-324,299,19,-241
0,8810117,223,-1872,-349,-1162,-576,-324,299,19,-241
0,8810122,217,-1873,-355,-1174,-571,-321,299,19,-241
0,8810129,217,-1873,-355,-1174,-571,-321,299,19,-241
0,8810134,217,-1873,-355,-1174,-571,-321,299,19,-241
0,8810143,219,-1868,-372,-1177,-575,-316,299,19,-241
0,8810150,219,-1868,-372,-1177,-575,-316,299,19,-241
0,8810158,219,-1868,-372,-1177,-575,-316,299,19,-241
0,8810165,220,-1870,-364,-1148,-566,-323,299,19,-241
0,8810172,220,-1870,-364,-1148,-566,-323,299,19,-241
0,8810178,220,-1870,-364,-1148,-566,-323,299,19,-241
0,8810184,219,-1868,-361,-1127,-570,-325,299,19,-241
0,8810192,219,-1868,-361,-1127,-570,-325,299,19,-241
0,8810200,221,-1879,-366,-1120,-569,-328,299,19,-241
0,8810208,221,-1879,-366,-1120,-569,-328,299,19,-241
0,8810214,221,-1879,-366,-1120,-569,-328,299,19,-241
0,8810222,224,-1873,-359,-1135,-575,-327,305,17,-249
0,8810228,224,-1873,-359,-1135,-575,-327,305,17,-249
0,8810236,224,-1873,-359,-1135,-575,-327,305,17,-249
0,8810244,221,-1878,-358,-1144,-571,-330,305,17,-249
0,8810252,221,-1878,-358,-1144,-571,-330,305,17,-249
0,8810266,224,-1879,-357,-1144,-562,-332,305,17,-249
0,8810279,218,-1877,-366,-1161,-565,-328,305,17,-249
0,8810289,218,-1877,-366,-1161,-565,-328,305,17,-249
0,8810297,218,-1877,-366,-1161,-565,-328,305,17,-249
0,8810306,225,-1868,-370,-1172,-569,-332,305,17,-249
0,8810317,225,-1868,-370,-1172,-569,-332,305,17,-249
0,8810332,217,-1873,-368,-1160,-573,-325,305,17,-249
0,8810345,216,-1872,-371,-1158,-567,-331,305,17,-249
0,8810355,216,-1872,-371,-1158,-567,-331,305,17,-249
0,8810368,217,-1871,-374,-1145,-567,-325,304,12,-244
0,8810380,219,-1869,-373,-1140,-575,-332,304,12,-244
0,8810393,219,-1869,-373,-1140,-575,-332,304,12,-244
0,8810406,226,-1872,-380,-1118,-570,-327,304,12,-244
0,8810420,226,-1872,-380,-1118,-570,-327,304,12,-244
0,8810433,221,-1874,-378,-1095,-567,-322,304,12,-244
0,8810447,216,-1870,-376,-1101,-567,-321,304,12,-244
0,8810460,216,-1870,-376,-1101,-567,-321,304,12,-244
0,8810471,221,-1867,-383,-1095,-568,-320,304,12,-244
0,8810485,219,-1869,-378,-1087,-569,-321,301,21,-253
0,8810499,219,-1869,-378,-1087,-569,-321,301,21,-253
0,8810513,223,-1871,-373,-1073,-567,-329,301,21,-253
0,8810523,217,-1870,-374,-1069,-570,-323,301,21,-253
0,8810535,217,-1870,-374,-1069,-570,-323,301,21,-253
0,8810549,217,-1873,-380,-1068,-566,-322,301,21,-253
0,8810562,218,-1873,-379,-1065,-564,-319,301,21,-253
0,8810572,218,-1873,-379,-1065,-564,-319,301,21,-253
0,8810585,218,-1873,-377,-1050,-568,-320,301,21,-253
0,8810597,218,-1873,-377,-1050,-568,-320,301,21,-253
0,8810610,223,-1875,-379,-1046,-564,-318,301,21,-253
0,8810622,216,-1870,-374,-1040,-564,-331,302,20,-246
0,8810636,216,-1870,-374,-1040,-564,-331,302,20,-246
0,8810648,220,-1872,-378,-1050,-564,-329,302,20,-246
0,8810661,217,-1874,-372,-1043,-571,-330,302,20,-246
0,8810675,217,-1874,-372,-1043,-571,-330,302,20,-246
0,8810687,218,-1873,-379,-1032,-570,-330,302,20,-246
0,8810700,218,-1873,-379,-1032,-570,-330,302,20,-246
0,8810714,224,-1875,-374,-1022,-569,-329,302,20,-246
0,8810726,217,-1876,-371,-1029,-562,-329,302,20,-246
0,8810738,217,-1876,-371,-1029,-562,-329,302,20,-246
0,8810746,217,-1874,-380,-1032,-561,-322,300,18,-256
0,8810755,217,-1874,-380,-1032,-561,-322,300,18,-256
0,8810763,217,-1871,-376,-1035,-568,-321,300,18,-256
0,8810771,217,-1871,-376,-1035,-568,-321,300,18,-256
0,8810782,215,-1870,-382,-1035,-566,-321,300,18,-256
0,8810791,215,-1870,-382,-1035,-566,-321,300,18,-256
0,8810802,220,-1873,-367,-1031,-567,-319,300,18,-256
0,8810811,220,-1873,-367,-1031,-567,-319,300,18,-256
0,8810820,219,-1876,-370,-1020,-570,-320,300,18,-256
0,8810829,219,-1876,-370,-1020,-570,-320,300,18,-256
0,8810842,220,-1876,-371,-1030,-559,-318,300,18,-256
0,8810855,220,-1876,-371,-1030,-559,-318,300,18,-256
0,8810868,217,-1869,-375,-1042,-565,-322,300,18,-256
0,8810882,218,-1872,-371,-1034,-562,-321,293,21,-243
0,8810894,218,-1872,-371,-1034,-562,-321,293,21,-243
0,8810906,219,-1874,-371,-1042,-569,-320,293,21,-243
0,8810919,219,-1874,-371,-1042,-569,-320,293,21,-243
0,8810933,220,-1877,-367,-1036,-573,-321,293,21,-243
0,8810945,216,-1872,-366,-1044,-570,-321,293,21,-243
0,8810957,216,-1872,-366,-1044,-570,-321,293,21,-243
0,8810971,217,-1873,-375,-1050,-567,-330,293,21,-243
0,8810984,215,-1873,-376,-1042,-566,-322,293,21,-243
0,8810995,215,-1873,-376,-1042,-566,-322,293,21,-243
0,8811008,223,-1874,-366,-1040,-574,-326,289,21,-255
0,8811022,217,-1876,-372,-1039,-567,-326,289,21,-255
0,8811034,217,-1876,-372,-1039,-567,-326,289,21,-255
0,8811047,226,-1874,-381,-1041,-572,-323,289,21,-255
0,8811060,226,-1874,-381,-1041,-572,-323,289,21,-255
0,8811073,218,-1872,-375,-1037,-566,-324,289,21,-255
0,8811084,221,-1871,-371,-1039,-560,-322,289,21,-255
0,8811092,221,-1871,-371,-1039,-560,-322,289,21,-255
0,8811101,224,-1867,-373,-1037,-564,-319,289,21,-255
0,8811109,224,-1867,-373,-1037,-564,-319,289,21,-255
0,8811117,224,-1867,-373,-1037,-564,-319,289,21,-255
0,8811125,220,-1872,-372,-1039,-565,-324,295,13,-253
0,8811133,220,-1872,-372,-1039,-565,-324,295,13,-253
0,8811142,223,-1874,-376,-1048,-572,-328,295,13,-253
0,8811150,223,-1874,-376,-1048,-572,-328,295,13,-253
0,8811158,223,-1874,-376,-1048,-572,-328,295,13,-253
0,8811165,218,-1872,-375,-1046,-563,-326,295,13,-253
0,8811173,218,-1872,-375,-1046,-563,-326,295,13,-253
0,8811183,221,-1872,-372,-1037,-557,-324,295,13,-253
0,8811192,221,-1872,-372,-1037,-557,-324,295,13,-253
0,8811205,219,-1874,-381,-1045,-568,-325,295,13,-253
0,8811217,219,-1874,-381,-1045,-568,-325,295,13,-253
0,8811227,219,-1871,-381,-1033,-570,-323,295,13,-253
0,8811239,219,-1871,-381,-1033,-570,-323,295,13,-253
0,8811252,220,-1872,-372,-1038,-560,-321,295,13,-253
0,8811261,219,-1873,-371,-1040,-569,-321,296,22,-254
0,8811269,219,-1873,-371,-1040,-569,-321,296,22,-254
0,8811274,219,-1873,-371,-1040,-569,-321,296,22,-254
0,8811282,222,-1875,-376,-1031,-568,-328,296,22,-254
0,8811290,222,-1875,-376,-1031,-568,-328,296,22,-254
0,8811297,222,-1875,-376,-1031,-568,-328,296,22,-254
0,8811304,219,-1875,-376,-1032,-568,-330,296,22,-254
0,8811310,219,-1875,-376,-1032,-568,-330,296,22,-254
0,8811316,219,-1875,-376,-1032,-568,-330,296,22,-254
0,8811323,220,-1873,-374,-1039,-571,-327,296,22,-254
0,8811332,220,-1873,-374,-1039,-571,-327,296,22,-254
0,8811338,220,-1873,-374,-1039,-571,-327,296,22,-254
0,8811347,216,-1875,-376,-1044,-573,-323,296,22,-254
0,8811354,216,-1875,-376,-1044,-573,-323,296,22,-254
0,8811361,219,-1874,-378,-1028,-571,-316,296,22,-254
0,8811368,219,-1874,-378,-1028,-571,-316,296,22,-254
0,8811377,219,-1874,-378,-1028,-571,-316,296,22,-254
0,8811383,219,-1874,-378,-1028,-571,-316,293,11,-251
0,8811390,219,-1874,-378,-1028,-571,-316,293,11,-251
0,8811400,219,-1874,-378,-1028,-571,-316,293,11,-251
0,8811407,222,-1872,-368,-1035,-570,-319,293,11,-251
0,8811415,222,-1872,-368,-1035,-570,-319,293,11,-251
0,8811421,220,-1870,-377,-1032,-563,-322,293,11,-251
0,8811429,220,-1870,-377,-1032,-563,-322,293,11,-251
0,8811436,220,-1870,-377,-1032,-563,-322,293,11,-251
0,8811443,221,-1871,-379,-1026,-562,-326,293,11,-251
0,8811452,221,-1871,-379,-1026,-562,-326,293,11,-251
0,8811458,221,-1871,-379,-1026,-562,-326,293,11,-251
0,8811465,218,-1873,-377,-1028,-562,-324,293,11,-251
0,8811472,218,-1873,-377,-1028,-562,-324,293,11,-251
0,8811480,218,-1873,-377,-1028,-562,-324,293,11,-251
0,8811488,225,-1872,-377,-1034,-568,-320,293,11,-251
0,8811495,225,-1872,-377,-1034,-568,-320,293,11,-251
0,8811502,221,-1872,-381,-1034,-570,-329,293,11,-251
0,8811508,221,-1872,-381,-1034,-570,-329,293,11,-251
0,8811515,221,-1872,-381,-1034,-570,-329,293,11,-251
0,8811524,222,-1874,-374,-1022,-564,-331,291,15,-253
0,8811531,222,-1874,-374,-1022,-564,-331,291,15,-253
0,8811538,222,-1874,-374,-1022,-564,-331,291,15,-253
0,8811545,218,-1875,-375,-1025,-568,-330,291,15,-253
0,8811552,218,-1875,-375,-1025,-568,-330,291,15,-253
0,8811558,218,-1875,-375,-1025,-568,-330,291,15,-253
0,8811566,217,-1872,-376,-1037,-565,-329,291,15,-253
0,8811573,217,-1872,-376,-1037,-565,-329,291,15,-253
0,8811578,217,-1872,-376,-1037,-565,-329,291,15,-253
0,8811586,217,-1874,-370,-1028,-568,-329,291,15,-253
0,8811594,217,-1874,-370,-1028,-568,-329,291,15,-253
0,8811601,217,-1874,-370,-1028,-568,-329,291,15,-253
0,8811608,220,-1874,-379,-1031,-567,-324,291,15,-253
0,8811616,220,-1874,-379,-1031,-567,-324,291,15,-253
0,8811623,227,-1873,-381,-1029,-567,-320,291,15,-253
0,8811630,227,-1873,-381,-1029,-567,-320,291,15,-253
0,8811637,227,-1873,-381,-1029,-567,-320,291,15,-253
0,8811645,222,-1876,-368,-1026,-564,-327,288,10,-260
0,8811652,222,-1876,-368,-1026,-564,-327,288,10,-260
0,8811660,222,-1876,-368,-1026,-564,-327,288,10,-260
0,8811666,224,-1873,-378,-1023,-563,-320,288,10,-260
0,8811673,224,-1873,-378,-1023,-563,-320,288,10,-260
0,8811680,224,-1873,-378,-1023,-563,-320,288,10,-260
0,8811688,220,-1872,-376,-1033,-568,-324,288,10,-260
0,8811696,220,-1872,-376,-1033,-568,-324,288,10,-260
0,8811702,217,-1873,-374,-1028,-565,-330,288,10,-260
0,8811709,217,-1873,-374,-1028,-565,-330,288,10,-260
0,8811717,217,-1873,-374,-1028,-565,-330,288,10,-260
0,8811724,220,-1875,-375,-1022,-564,-323,288,10,-260
0,8811730,220,-1875,-375,-1022,-564,-323,288,10,-260
0,8811738,220,-1875,-375,-1022,-564,-323,288,10,-260
0,8811743,218,-1872,-377,-1029,-564,-326,288,10,-260
0,8811748,218,-1872,-377,-1029,-564,-326,288,10,-260
0,8811753,218,-1872,-377,-1029,-564,-326,288,10,-260
0,8811758,218,-1872,-377,-1029,-564,-326,288,10,-260
0,8811764,220,-1873,-382,-1033,-565,-326,292,12,-252
0,8811769,220,-1873,-382,-1033,-565,-326,292,12,-252
0,8811776,220,-1873,-382,-1033,-565,-326,292,12,-252
0,8811784,220,-1872,-377,-1028,-575,-335,292,12,-252
0,8811792,220,-1872,-377,-1028,-575,-335,292,12,-252
0,8811799,220,-1872,-377,-1028,-575,-335,292,12,-252
0,8811806,223,-1872,-379,-1029,-567,-321,292,12,-252
0,8811811,223,-1872,-379,-1029,-567,-321,292,12,-252
0,8811819,223,-1872,-379,-1029,-567,-321,292,12,-252
0,8811826,227,-1874,-375,-1033,-570,-323,292,12,-252
0,8811834,227,-1874,-375,-1033,-570,-323,292,12,-252
0,8811840,227,-1874,-375,-1033,-570,-323,292,12,-252
0,8811847,222,-1873,-381,-1033,-571,-327,292,12,-252
0,8811853,222,-1873,-381,-1033,-571,-327,292,12,-252
0,8811862,219,-1874,-375,-1038,-571,-322,292,12,-252
0,8811869,219,-1874,-375,-1038,-571,-322,292,12,-252
0,8811876,219,-1874,-375,-1038,-571,-322,292,12,-252
0,8811883,216,-1877,-380,-1029,-563,-322,292,12,-252
0,8811890,216,-1877,-380,-1029,-563,-322,292,12,-252
0,8811896,216,-1877,-380,-1029,-563,-322,292,12,-252
0,8811905,220,-1877,-376,-1017,-565,-321,286,22,-250
0,8811912,220,-1877,-376,-1017,-565,-321,286,22,-250
0,8811920,220,-1877,-376,-1017,-565,-321,286,22,-250
0,8811927,220,-1879,-373,-1029,-569,-329,286,22,-250
0,8811934,220,-1879,-373,-1029,-569,-329,286,22,-250
0,8811941,220,-1879,-373,-1029,-569,-329,286,22,-250
0,8811950,218,-1873,-377,-1027,-565,-327,286,22,-250
0,8811956,218,-1873,-377,-1027,-565,-327,286,22,-250
0,8811963,221,-1872,-370,-1028,-567,-328,286,22,-250
0,8811969,221,-1872,-370,-1028,-567,-328,286,22,-250
0,8811976,221,-1872,-370,-1028,-567,-328,286,22,-250
0,8811984,220,-1875,-383,-1032,-564,-323,286,22,-250
0,8811993,220,-1875,-383,-1032,-564,-323,286,22,-250
0,8812000,220,-1875,-383,-1032,-564,-323,286,22,-250
0,8812006,225,-1873,-378,-1027,-563,-324,286,22,-250
0,8812013,225,-1873,-378,-1027,-563,-324,286,22,-250
0,8812020,225,-1873,-378,-1027,-563,-324,286,22,-250
0,8812027,220,-1876,-369,-1027,-570,-330,283,13,-251
0,8812035,220,-1876,-369,-1027,-570,-330,283,13,-251
0,8812041,220,-1876,-369,-1027,-570,-330,283,13,-251
0,8812048,219,-1872,-378,-1028,-570,-323,283,13,-251
0,8812056,219,-1872,-378,-1028,-570,-323,283,13,-251
0,8812061,219,-1872,-378,-1028,-570,-323,283,13,-251
0,8812070,217,-1871,-380,-1023,-569,-324,283,13,-251
0,8812078,217,-1871,-380,-1023,-569,-324,283,13,-251
0,8812085,217,-1873,-380,-1031,-567,-328,283,13,-251
0,8812090,217,-1873,-380,-1031,-567,-328,283,13,-251
0,8812095,217,-1873,-380,-1031,-567,-328,283,13,-251
0,8812100,217,-1873,-380,-1031,-567,-328,283,13,-251
0,8812105,219,-1875,-381,-1029,-573,-324,283,13,-251
0,8812110,219,-1875,-381,-1029,-573,-324,283,13,-251
0,8812115,219,-1875,-381,-1029,-573,-324,283,13,-251
0,8812122,219,-1875,-381,-1029,-573,-324,283,13,-251
0,8812127,219,-1873,-369,-1032,-577,-329,283,13,-251
0,8812134,219,-1873,-369,-1032,-577,-329,283,13,-251
0,8812140,219,-1873,-369,-1032,-577,-329,283,13,-251
0,8812147,218,-1875,-381,-1032,-566,-337,283,13,-251
0,8812154,218,-1875,-381,-1032,-566,-337,283,13,-251
0,8812162,218,-1875,-381,-1032,-566,-337,283,13,-251
0,8812170,218,-1873,-378,-1034,-564,-333,292,22,-254
0,8812176,218,-1873,-378,-1034,-564,-333,292,22,-254
0,8812183,217,-1874,-375,-1026,-566,-330,292,22,-254
0,8812189,217,-1874,-375,-1026,-566,-330,292,22,-254
0,8812195,217,-1874,-375,-1026,-566,-330,292,22,-254
0,8812203,223,-1872,-378,-1027,-571,-340,292,22,-254
0,8812211,223,-1872,-378,-1027,-571,-340,292,22,-254
0,8812219,223,-1872,-378,-1027,-571,-340,292,22,-254
0,8812226,221,-1873,-377,-1026,-570,-337,292,22,-254
0,8812233,221,-1873,-377,-1026,-570,-337,292,22,-254
0,8812239,221,-1873,-377,-1026,-570,-337,292,22,-254
0,8812246,224,-1873,-373,-1034,-566,-331,292,22,-254
0,8812254,224,-1873,-373,-1034,-566,-331,292,22,-254
0,8812262,224,-1873,-373,-1034,-566,-331,292,22,-254
0,8812274,220,-1873,-375,-1031,-567,-328,292,22,-254
0,8812288,220,-1872,-367,-1024,-563,-331,282,16,-242
0,8812296,220,-1872,-367,-1024,-563,-331,282,16,-242
0,8812303,220,-1874,-370,-1036,-563,-333,282,16,-242
0,8812311,220,-1874,-370,-1036,-563,-333,282,16,-242
0,8812320,220,-1874,-370,-1036,-563,-333,282,16,-242
0,8812331,215,-1876,-382,-1021,-570,-325,282,16,-242
0,8812345,218,-1875,-378,-1028,-568,-325,282,16,-242
0,8812358,218,-1875,-378,-1028,-568,-325,282,16,-242
0,8812367,221,-1875,-377,-1022,-564,-328,282,16,-242
0,8812379,221,-1875,-377,-1022,-564,-328,282,16,-242
0,8812394,222,-1870,-381,-1029,-565,-329,282,16,-242
0,8812405,222,-1873,-379,-1023,-564,-328,282,16,-242
0,8812416,222,-1873,-379,-1023,-564,-328,282,16,-242
0,8812428,220,-1873,-375,-1035,-569,-327,286,20,-244
0,8812440,220,-1873,-375,-1035,-569,-327,286,20,-244
0,8812453,218,-1873,-373,-1034,-565,-325,286,20,-244
0,8812466,216,-1873,-372,-1029,-562,-326,286,20,-244
0,8812480,216,-1873,-372,-1029,-562,-326,286,20,-244
0,8812493,219,-1876,-372,-1033,-563,-324,286,20,-244
0,8812508,218,-1874,-379,-1031,-561,-313,286,20,-244
0,8812522,218,-1874,-379,-1031,-561,-313,286,20,-244
0,8812532,218,-1873,-377,-1030,-561,-318,286,20,-244
0,8812545,223,-1875,-374,-1025,-568,-322,280,14,-248
0,8812559,223,-1875,-374,-1025,-568,-322,280,14,-248
0,8812573,222,-1877,-373,-1037,-576,-324,280,14,-248
0,8812583,221,-1874,-381,-1026,-567,-327,280,14,-248
0,8812594,221,-1874,-381,-1026,-567,-327,280,14,-248
0,8812607,218,-1874,-376,-1027,-567,-317,280,14,-248
0,8812619,218,-1874,-376,-1027,-567,-317,280,14,-248
0,8812633,218,-1877,-380,-1027,-576,-314,280,14,-248
0,8812646,221,-1877,-376,-1021,-572,-317,280,14,-248
0,8812658,221,-1877,-376,-1021,-572,-317,280,14,-248
0,8812670,221,-1874,-374,-1028,-569,-322,285,19,-241
0,8812682,221,-1874,-374,-1028,-569,-322,285,19,-241
0,8812695,221,-1875,-374,-1024,-571,-326,285,19,-241
0,8812706,214,-1874,-368,-1028,-571,-330,285,19,-241
0,8812718,214,-1874,-368,-1028,-571,-330,285,19,-241
0,8812730,216,-1872,-375,-1031,-572,-332,285,19,-241
0,8812742,216,-1872,-375,-1031,-572,-332,285,19,-241
0,8812750,217,-1875,-374,-1040,-567,-328,285,19,-241
0,8812759,217,-1875,-374,-1040,-567,-328,285,19,-241
0,8812768,217,-1870,-376,-1022,-560,-325,285,19,-241
0,8812779,217,-1870,-376,-1022,-560,-325,285,19,-241
0,8812794,221,-1871,-375,-1023,-570,-328,285,19,-241
0,8812804,218,-1874,-369,-1023,-561,-325,282,18,-254
0,8812815,218,-1874,-369,-1023,-561,-325,282,18,-254
0,8812828,222,-1874,-375,-1026,-566,-323,282,18,-254
0,8812840,222,-1874,-375,-1026,-566,-323,282,18,-254
0,8812851,223,-1873,-382,-1033,-564,-332,282,18,-254
0,8812864,220,-1875,-376,-1022,-562,-326,282,18,-254
0,8812877,220,-1875,-376,-1022,-562,-326,282,18,-254
0,8812890,218,-1870,-376,-1027,-566,-328,282,18,-254
0,8812901,218,-1870,-376,-1027,-566,-328,282,18,-254
0,8812913,215,-1875,-378,-1035,-573,-328,282,18,-254
0,8812924,216,-1874,-377,-1033,-571,-333,289,17,-247
0,8812937,216,-1874,-377,-1033,-571,-333,289,17,-247
0,8812950,216,-1877,-374,-1034,-565,-332,289,17,-247
0,8812964,224,-1872,-375,-1019,-571,-328,289,17,-247
0,8812976,224,-1872,-375,-1019,-571,-328,289,17,-247
0,8812989,225,-1872,-376,-1024,-564,-326,289,17,-247
0,8813002,225,-1872,-376,-1024,-564,-326,289,17,-247
0,8813015,215,-1874,-375,-1021,-568,-328,289,17,-247
0,8813027,220,-1874,-377,-1027,-574,-319,289,17,-247
0,8813038,220,-1874,-377,-1027,-574,-319,289,17,-247
0,8813053,215,-1876,-377,-1022,-568,-322,289,17,-247
0,8813066,216,-1877,-376,-1028,-575,-332,291,15,-253
0,8813078,216,-1877,-376,-1028,-575,-332,291,15,-253
0,8813086,216,-1871,-379,-1029,-571,-325,291,15,-253
0,8813094,216,-1871,-379,-1029,-571,-325,291,15,-253
0,8813103,216,-1871,-379,-1029,-571,-325,291,15,-253
0,8813111,215,-1873,-378,-1023,-568,-325,291,15,-253
0,8813119,215,-1873,-378,-1023,-568,-325,291,15,-253
0,8813127,219,-1871,-380,-1033,-572,-330,291,15,-253
0,8813135,219,-1871,-380,-1033,-572,-330,291,15,-253
0,8813144,221,-1871,-379,-1037,-574,-324,291,15,-253
0,8813153,221,-1871,-379,-1037,-574,-324,291,15,-253
0,8813160,221,-1871,-379,-1037,-574,-324,291,15,-253
0,8813169,220,-1871,-373,-1047,-571,-324,291,15,-253
0,8813178,220,-1871,-373,-1047,-571,-324,291,15,-253
0,8813187,223,-1870,-373,-1034,-565,-317,285,21,-253
0,8813195,223,-1870,-373,-1034,-565,-317,285,21,-253
0,8813202,223,-1870,-373,-1034,-565,-317,285,21,-253
0,8813211,219,-1874,-371,-1030,-572,-328,285,21,-253
0,8813219,219,-1874,-371,-1030,-572,-328,285,21,-253
0,8813228,216,-1878,-375,-1027,-573,-321,285,21,-253
0,8813236,216,-1878,-375,-1027,-573,-321,285,21,-253
0,8813245,218,-1875,-374,-1025,-566,-333,285,21,-253
0,8813254,218,-1875,-374,-1025,-566,-333,285,21,-253
0,8813264,218,-1875,-374,-1025,-567,-333,285,21,-253
0,8813274,218,-1875,-374,-1025,-567,-333,285,21,-253
0,8813279,218,-1875,-374,-1025,-567,-333,285,21,-253
0,8813286,218,-1874,-376,-1035,-564,-327,285,21,-253
0,8813293,218,-1874,-376,-1035,-564,-327,285,21,-253
0,8813301,218,-1874,-376,-1035,-564,-327,285,21,-253
0,8813308,219,-1873,-380,-1028,-567,-327,285,21,-253
0,8813316,219,-1873,-380,-1028,-567,-327,285,21,-253
0,8813324,218,-1874,-370,-1030,-568,-321,285,21,-253
0,8813330,218,-1874,-370,-1030,-568,-321,291,15,-245
0,8813336,218,-1874,-370,-1030,-568,-321,291,15,-245
0,8813343,216,-1875,-379,-1033,-576,-319,291,15,-245
0,8813351,216,-1875,-379,-1033,-576,-319,291,15,-245
0,8813358,216,-1875,-379,-1033,-576,-319,291,15,-245
0,8813366,221,-1874,-378,-1036,-571,-323,291,15,-245
0,8813372,221,-1874,-378,-1036,-571,-323,291,15,-245
0,8813379,221,-1874,-378,-1036,-571,-323,291,15,-245
0,8813385,220,-1874,-373,-1028,-566,-330,291,15,-245
0,8813392,220,-1874,-373,-1028,-566,-330,291,15,-245
0,8813401,220,-1874,-373,-1028,-566,-330,291,15,-245
0,8813408,220,-1873,-385,-1027,-571,-329,291,15,-245
0,8813416,220,-1873,-385,-1027,-571,-329,291,15,-245
0,8813423,220,-1873,-385,-1027,-571,-329,291,15,-245
0,8813430,219,-1872,-381,-1027,-570,-329,291,15,-245
0,8813435,219,-1872,-381,-1027,-570,-329,291,15,-245
0,8813443,219,-1872,-381,-1027,-570,-329,291,15,-245
0,8813451,217,-1877,-375,-1028,-567,-320,292,18,-248
0,8813459,217,-1877,-375,-1028,-567,-320,292,18,-248
0,8813466,221,-1874,-377,-1035,-571,-320,292,18,-248
0,8813471,221,-1874,-377,-1035,-571,-320,292,18,-248
0,8813477,221,-1874,-377,-1035,-571,-320,292,18,-248
0,8813486,218,-1872,-374,-1025,-566,-321,292,18,-248
0,8813493,218,-1872,-374,-1025,-566,-321,292,18,-248
0,8813500,218,-1872,-374,-1025,-566,-321,292,18,-248
0,8813505,214,-1874,-376,-1032,-567,-320,292,18,-248
0,8813512,214,-1874,-376,-1032,-567,-320,292,18,-248
0,8813521,214,-1874,-376,-1032,-567,-320,292,18,-248
0,8813528,218,-1874,-383,-1038,-565,-322,292,18,-248
0,8813535,218,-1874,-383,-1038,-565,-322,292,18,-248
0,8813542,218,-1874,-383,-1038,-565,-322,292,18,-248
0,8813548,217,-1875,-372,-1028,-569,-326,292,18,-248
0,8813553,217,-1875,-372,-1028,-569,-326,292,18,-248
0,8813560,217,-1875,-372,-1028,-569,-326,292,18,-248
0,8813569,224,-1870,-376,-1031,-571,-324,285,7,-257
0,8813576,224,-1870,-376,-1031,-571,-324,285,7,-257
0,8813582,224,-1870,-376,-1031,-571,-324,285,7,-257
0,8813589,217,-1873,-377,-1028,-570,-321,285,7,-257
0,8813595,217,-1873,-377,-1028,-570,-321,285,7,-257
0,8813602,217,-1873,-377,-1028,-570,-321,285,7,-257
0,8813611,219,-1872,-376,-1024,-573,-317,285,7,-257
0,8813618,219,-1872,-376,-1024,-573,-317,285,7,-257
0,8813626,218,-1870,-371,-1023,-567,-324,285,7,-257
0,8813633,218,-1870,-371,-1023,-567,-324,285,7,-257
0,8813641,218,-1870,-371,-1023,-567,-324,285,7,-257
0,8813648,215,-1874,-377,-1029,-562,-321,285,7,-257
0,8813654,215,-1874,-377,-1029,-562,-321,285,7,-257
0,8813662,215,-1874,-377,-1029,-562,-321,285,7,-257
0,8813670,217,-1875,-378,-1024,-565,-329,285,7,-257
0,8813677,217,-1875,-378,-1024,-565,-329,285,7,-257
0,8813684,216,-1876,-378,-1029,-562,-328,285,7,-257
0,8813691,216,-1876,-378,-1029,-562,-328,285,7,-257
0,8813699,216,-1876,-378,-1029,-562,-328,285,7,-257
0,8813706,217,-1875,-374,-1026,-562,-333,284,20,-252
0,8813713,217,-1875,-374,-1026,-562,-333,284,20,-252
0,8813720,217,-1875,-374,-1026,-562,-333,284,20,-252
0,8813725,220,-1875,-380,-1030,-561,-330,284,20,-252
0,8813730,220,-1875,-380,-1030,-561,-330,284,20,-252
0,8813736,220,-1875,-380,-1030,-561,-330,284,20,-252
0,8813742,220,-1875,-380,-1030,-561,-330,284,20,-252
0,8813747,220,-1875,-374,-1027,-566,-319,284,20,-252
0,8813752,220,-1875,-374,-1027,-566,-319,284,20,-252
0,8813758,220,-1875,-374,-1027,-566,-319,284,20,-252
0,8813763,220,-1875,-374,-1027,-566,-319,284,20,-252
0,8813770,220,-1872,-375,-1027,-565,-325,284,20,-252
0,8813777,220,-1872,-375,-1027,-565,-325,284,20,-252
0,8813784,220,-1872,-375,-1027,-565,-325,284,20,-252
0,8813791,219,-1874,-378,-1024,-557,-326,284,20,-252
0,8813797,219,-1874,-378,-1024,-557,-326,284,20,-252
0,8813804,222,-1875,-378,-1027,-563,-322,284,20,-252
0,8813812,222,-1875,-378,-1027,-563,-322,284,20,-252
0,8813818,222,-1875,-378,-1027,-563,-322,284,20,-252
0,8813826,215,-1877,-377,-1028,-571,-322,290,26,-246
0,8813833,215,-1877,-377,-1028,-571,-322,290,26,-246
0,8813840,215,-1877,-377,-1028,-571,-322,290,26,-246
0,8813847,218,-1872,-373,-1027,-574,-320,290,26,-246
0,8813852,218,-1872,-373,-1027,-574,-320,290,26,-246
0,8813859,218,-1872,-373,-1027,-574,-320,290,26,-246
0,8813867,218,-1874,-376,-1023,-570,-318,290,26,-246
0,8813875,218,-1874,-376,-1023,-570,-318,290,26,-246
0,8813882,218,-1874,-376,-1023,-570,-318,290,26,-246
0,8813888,219,-1872,-377,-1023,-572,-320,290,26,-246
0,8813895,219,-1872,-377,-1023,-572,-320,290,26,-246
0,8813903,219,-1872,-377,-1023,-572,-320,290,26,-246
0,8813911,222,-1875,-375,-1026,-567,-325,290,26,-246
0,8813917,222,-1875,-375,-1026,-567,-325,290,26,-246
0,8813924,222,-1875,-375,-1026,-567,-325,290,26,-246
0,8813931,216,-1874,-374,-1031,-572,-328,290,26,-246
0,8813938,216,-1874,-374,-1031,-572,-328,290,26,-246
0,8813946,221,-1876,-378,-1026,-566,-328,290,26,-246
0,8813953,221,-1876,-378,-1026,-566,-328,290,26,-246
0,8813959,221,-1876,-378,-1026,-566,-328,290,26,-246
0,8813967,222,-1874,-371,-1033,-566,-328,291,25,-249
0,8813974,222,-1874,-371,-1033,-566,-328,291,25,-249
0,8813980,222,-1874,-371,-1033,-566,-328,291,25,-249
0,8813987,220,-1872,-375,-1028,-569,-330,291,25,-249
0,8813995,220,-1872,-375,-1028,-569,-330,291,25,-249
0,8814002,220,-1872,-375,-1028,-569,-330,291,25,-249
0,8814009,221,-1869,-378,-1024,-569,-327,291,25,-249
0,8814015,221,-1869,-378,-1024,-569,-327,291,25,-249
0,8814023,221,-1869,-378,-1024,-569,-327,291,25,-249
0,8814029,216,-1873,-375,-1028,-569,-323,291,25,-249
0,8814036,216,-1873,-375,-1028,-569,-323,291,25,-249
0,8814045,217,-1873,-376,-1025,-567,-319,291,25,-249
0,8814051,217,-1873,-376,-1025,-567,-319,291,25,-249
0,8814058,217,-1873,-376,-1025,-567,-319,291,25,-249
0,8814064,217,-1877,-380,-1028,-567,-328,291,25,-249
0,8814071,217,-1877,-380,-1028,-567,-328,291,25,-249
0,8814078,217,-1877,-380,-1028,-567,-328,291,25,-249
0,8814085,217,-1871,-370,-1033,-572,-320,289,21,-255
0,8814091,217,-1871,-370,-1033,-572,-320,289,21,-255
0,8814096,217,-1871,-370,-1033,-572,-320,289,21,-255
0,8814101,217,-1871,-370,-1033,-572,-320,289,21,-255
0,8814106,214,-1873,-379,-1031,-566,-321,289,21,-255
0,8814111,214,-1873,-379,-1031,-566,-321,289,21,-255
0,8814117,214,-1873,-379,-1031,-566,-321,289,21,-255
0,8814123,214,-1873,-379,-1031,-566,-321,289,21,-255
0,8814128,217,-1870,-375,-1026,-567,-327,289,21,-255
0,8814135,217,-1870,-375,-1026,-567,-327,289,21,-255
0,8814142,217,-1870,-375,-1026,-567,-327,289,21,-255
0,8814150,220,-1872,-380,-1031,-562,-325,289,21,-255
0,8814155,220,-1872,-380,-1031,-562,-325,289,21,-255
0,8814164,220,-1872,-380,-1031,-562,-325,289,21,-255
0,8814171,222,-1873,-379,-1035,-566,-328,289,21,-255
0,8814180,222,-1873,-379,-1035,-566,-328,289,21,-255
0,8814186,220,-1872,-375,-1034,-575,-325,289,21,-255
0,8814192,220,-1872,-375,-1034,-575,-325,289,21,-255
0,8814198,220,-1872,-375,-1034,-575,-325,289,21,-255
0,8814205,220,-1873,-377,-1030,-577,-325,298,16,-260
0,8814214,220,-1873,-377,-1030,-577,-325,298,16,-260
0,8814220,220,-1873,-377,-1030,-577,-325,298,16,-260
0,8814226,215,-1874,-369,-1022,-570,-323,298,16,-260
0,8814234,215,-1874,-369,-1022,-570,-323,298,16,-260
0,8814240,215,-1874,-369,-1022,-570,-323,298,16,-260
0,8814247,219,-1873,-380,-1028,-559,-320,298,16,-260
0,8814254,219,-1873,-380,-1028,-559,-320,298,16,-260
0,8814260,219,-1873,-380,-1028,-559,-320,298,16,-260
0,8814268,219,-1874,-382,-1028,-556,-323,298,16,-260
0,8814273,219,-1874,-382,-1028,-556,-323,298,16,-260
0,8814285,221,-1868,-375,-1033,-560,-322,298,16,-260
0,8814299,221,-1868,-375,-1033,-560,-322,298,16,-260
0,8814308,223,-1871,-383,-1029,-557,-319,298,16,-260
0,8814322,223,-1871,-383,-1029,-557,-319,298,16,-260
0,8814336,222,-1873,-373,-1026,-564,-327,298,16,-260
0,8814343,222,-1873,-373,-1026,-564,-327,298,16,-260
0,8814351,222,-1874,-374,-1028,-559,-313,293,25,-251
0,8814360,222,-1874,-374,-1028,-559,-313,293,25,-251
0,8814368,218,-1874,-382,-1025,-558,-320,293,25,-251
0,8814375,218,-1874,-382,-1025,-558,-320,293,25,-251
0,8814386,219,-1873,-379,-1026,-563,-317,293,25,-251
0,8814395,219,-1873,-379,-1026,-563,-317,293,25,-251
0,8814405,220,-1875,-378,-1025,-565,-315,293,25,-251
0,8814415,220,-1875,-378,-1025,-565,-315,293,25,-251
0,8814426,217,-1874,-378,-1028,-570,-321,293,25,-251
0,8814439,217,-1874,-378,-1028,-570,-321,293,25,-251
0,8814450,221,-1875,-380,-1032,-571,-326,293,25,-251
0,8814461,221,-1875,-380,-1032,-571,-326,293,25,-251
0,8814475,215,-1873,-381,-1037,-566,-325,291,15,-249
0,8814489,225,-1876,-376,-1038,-569,-313,291,15,-249
0,8814501,225,-1876,-376,-1038,-569,-313,291,15,-249
0,8814511,218,-1875,-378,-1021,-564,-317,291,15,-249
0,8814522,218,-1875,-378,-1021,-564,-317,291,15,-249
0,8814535,219,-1875,-382,-1027,-560,-325,291,15,-249
0,8814548,220,-1875,-374,-1031,-570,-329,291,15,-249
0,8814560,220,-1875,-374,-1031,-570,-329,291,15,-249
0,8814571,214,-1874,-380,-1029,-569,-328,291,15,-249
0,8814579,214,-1874,-380,-1029,-569,-328,291,15,-249
0,8814590,222,-1872,-379,-1032,-572,-325,291,15,-249
0,8814604,222,-1872,-379,-1032,-572,-325,291,15,-249
0,8814613,218,-1875,-376,-1023,-569,-321,291,21,-257
0,8814624,218,-1875,-376,-1023,-569,-321,291,21,-257
0,8814639,221,-1872,-376,-1026,-559,-325,291,21,-257
0,8814653,219,-1875,-377,-1030,-559,-326,291,21,-257
0,8814661,219,-1875,-377,-1030,-559,-326,291,21,-257
0,8814673,214,-1872,-373,-1027,-566,-323,291,21,-257
0,8814688,219,-1876,-383,-1029,-567,-328,291,21,-257
0,8814700,219,-1876,-383,-1029,-567,-328,291,21,-257
0,8814710,220,-1873,-380,-1031,-568,-326,291,21,-257
0,8814724,220,-1873,-380,-1031,-568,-326,291,21,-257
0,8814736,223,-1876,-374,-1033,-563,-320,296,22,-252
0,8814744,223,-1876,-374,-1033,-563,-320,296,22,-252
0,8814752,222,-1877,-376,-1022,-567,-326,296,22,-252
0,8814760,222,-1877,-376,-1022,-567,-326,296,22,-252
0,8814769,220,-1874,-377,-1024,-565,-327,296,22,-252
0,8814777,220,-1874,-377,-1024,-565,-327,296,22,-252
0,8814791,221,-1875,-379,-1029,-565,-331,296,22,-252
0,8814803,221,-1875,-379,-1029,-565,-331,296,22,-252
0,8814817,215,-1876,-374,-1027,-568,-328,296,22,-252
0,8814828,219,-1874,-375,-1026,-564,-327,296,22,-252
0,8814838,219,-1874,-375,-1026,-564,-327,296,22,-252
0,8814851,218,-1877,-377,-1019,-567,-326,296,22,-252
0,8814864,218,-1877,-377,-1019,-567,-326,296,22,-252
0,8814876,219,-1871,-373,-1019,-567,-332,290,24,-250
0,8814889,222,-1873,-376,-1018,-561,-321,290,24,-250
0,8814903,222,-1873,-376,-1018,-561,-321,290,24,-250
0,8814915,220,-1875,-380,-1027,-566,-324,290,24,-250
0,8814928,222,-1872,-384,-1027,-570,-329,290,24,-250
0,8814941,222,-1872,-384,-1027,-570,-329,290,24,-250
0,8814949,215,-1872,-384,-1032,-565,-324,290,24,-250
0,8814957,215,-1872,-384,-1032,-565,-324,290,24,-250
0,8814964,215,-1872,-384,-1032,-565,-324,290,24,-250
0,8814976,214,-1874,-383,-1036,-567,-322,290,24,-250
0,8814988,214,-1873,-375,-1029,-570,-324,300,12,-256
0,8814997,214,-1873,-375,-1029,-570,-324,300,12,-256
0,8815006,215,-1875,-378,-1032,-570,-319,300,12,-256
0,8815021,215,-1875,-378,-1032,-570,-319,300,12,-256
0,8815033,221,-1875,-378,-1029,-564,-328,300,12,-256
0,8815045,221,-1875,-378,-1029,-564,-328,300,12,-256
0,8815058,220,-1873,-384,-1036,-568,-331,300,12,-256
0,8815073,220,-1872,-375,-1035,-569,-330,300,12,-256
0,8815085,220,-1872,-375,-1035,-569,-330,300,12,-256
0,8815093,219,-1873,-381,-1024,-567,-325,300,12,-256
0,8815101,219,-1873,-381,-1024,-567,-325,300,12,-256
0,8815110,215,-1872,-376,-1023,-572,-323,290,18,-250
0,8815118,215,-1872,-376,-1023,-572,-323,290,18,-250
0,8815125,215,-1872,-376,-1023,-572,-323,290,18,-250
0,8815133,219,-1872,-380,-1030,-565,-331,290,18,-250
0,8815141,219,-1872,-380,-1030,-565,-331,290,18,-250
0,8815150,215,-1875,-372,-1023,-557,-335,290,18,-250
0,8815158,215,-1875,-372,-1023,-557,-335,290,18,-250
0,8815166,215,-1875,-372,-1023,-557,-335,290,18,-250
0,8815178,219,-1875,-382,-1029,-566,-321,290,18,-250
0,8815191,220,-1874,-377,-1022,-570,-329,290,18,-250
0,8815203,220,-1874,-377,-1022,-570,-329,290,18,-250
0,8815213,223,-1873,-375,-1022,-566,-331,290,18,-250
0,8815225,225,-1874,-377,-1025,-573,-335,290,18,-250
0,8815240,225,-1874,-377,-1025,-573,-335,290,18,-250
0,8815252,215,-1876,-375,-1027,-573,-329,298,16,-256
0,8815263,215,-1876,-375,-1027,-573,-329,298,16,-256
0,8815273,220,-1872,-372,-1030,-565,-329,298,16,-256
0,8815284,220,-1872,-372,-1030,-565,-329,298,16,-256
0,8815291,215,-1875,-377,-1026,-567,-330,298,16,-256
0,8815298,215,-1875,-377,-1026,-567,-330,298,16,-256
0,8815304,215,-1875,-377,-1026,-567,-330,298,16,-256
0,8815309,220,-1873,-377,-1034,-570,-331,298,16,-256
0,8815316,220,-1873,-377,-1034,-570,-331,298,16,-256
0,8815324,220,-1873,-377,-1034,-570,-331,298,16,-256
0,8815329,226,-1872,-384,-1022,-559,-329,298,16,-256
0,8815338,226,-1872,-384,-1022,-559,-329,298,16,-256
0,8815345,226,-1872,-384,-1022,-559,-329,298,16,-256
0,8815352,219,-1875,-380,-1024,-561,-330,298,16,-256
0,8815360,219,-1875,-380,-1024,-561,-330,298,16,-256
0,8815365,219,-1875,-380,-1024,-561,-330,298,16,-256
0,8815372,219,-1875,-380,-1024,-561,-330,294,16,-250
0,8815379,219,-1875,-380,-1024,-561,-330,294,16,-250
0,8815386,215,-1875,-378,-1032,-569,-334,294,16,-250
0,8815392,215,-1875,-378,-1032,-569,-334,294,16,-250
0,8815398,215,-1875,-378,-1032,-569,-334,294,16,-250
0,8815406,215,-1875,-378,-1032,-569,-334,294,16,-250
0,8815414,217,-1874,-375,-1029,-570,-326,294,16,-250
0,8815420,217,-1874,-375,-1029,-570,-326,294,16,-250
0,8815427,216,-1875,-377,-1032,-566,-330,294,16,-250
0,8815433,216,-1875,-377,-1032,-566,-330,294,16,-250
0,8815441,216,-1875,-377,-1032,-566,-330,294,16,-250
0,8815448,215,-1873,-380,-1033,-573,-333,294,16,-250
0,8815454,215,-1873,-380,-1033,-573,-333,294,16,-250
0,8815461,215,-1873,-380,-1033,-573,-333,294,16,-250
0,8815470,222,-1876,-377,-1024,-566,-323,294,16,-250
0,8815477,222,-1876,-377,-1024,-566,-323,294,16,-250
0,8815482,222,-1876,-377,-1024,-566,-323,294,16,-250
0,8815491,224,-1875,-381,-1031,-565,-323,294,16,-250
0,8815498,224,-1875,-381,-1031,-565,-323,294,16,-250
0,8815504,224,-1875,-381,-1031,-565,-323,294,16,-250
0,8815509,223,-1871,-380,-1034,-558,-323,291,13,-255
0,8815515,223,-1871,-380,-1034,-558,-323,291,13,-255
0,8815520,223,-1871,-380,-1034,-558,-323,291,13,-255
0,8815526,222,-1875,-377,-1034,-559,-325,291,13,-255
0,8815534,222,-1875,-377,-1034,-559,-325,291,13,-255
0,8815541,222,-1875,-377,-1034,-559,-325,291,13,-255
0,8815546,217,-1874,-380,-1031,-572,-324,291,13,-255
0,8815555,217,-1874,-380,-1031,-572,-324,291,13,-255
0,8815561,217,-1874,-380,-1031,-572,-324,291,13,-255
0,8815567,216,-1877,-376,-1028,-569,-316,291,13,-255
0,8815574,216,-1877,-376,-1028,-569,-316,291,13,-255
0,8815582,216,-1877,-376,-1028,-569,-316,291,13,-255
0,8815589,215,-1876,-376,-1031,-565,-331,291,13,-255
0,8815596,215,-1876,-376,-1031,-565,-331,291,13,-255
0,8815604,215,-1876,-376,-1031,-565,-331,291,13,-255
0,8815611,220,-1875,-380,-1027,-565,-326,291,13,-255
0,8815619,220,-1875,-380,-1027,-565,-326,291,13,-255
0,8815625,220,-1875,-380,-1027,-565,-326,291,13,-255
0,8815632,216,-1874,-372,-1020,-567,-326,289,17,-245
0,8815638,216,-1874,-372,-1020,-567,-326,289,17,-245
0,8815645,216,-1874,-372,-1020,-567,-326,289,17,-245
0,8815653,222,-1876,-377,-1021,-571,-324,289,17,-245
0,8815661,222,-1876,-377,-1021,-571,-324,289,17,-245
0,8815667,224,-1873,-376,-1021,-569,-327,289,17,-245
0,8815675,224,-1873,-376,-1021,-569,-327,289,17,-245
0,8815680,224,-1873,-376,-1021,-569,-327,289,17,-245
0,8815688,216,-1876,-380,-1028,-567,-324,289,17,-245
0,8815695,216,-1876,-380,-1028,-567,-324,289,17,-245
0,8815705,216,-1876,-380,-1028,-567,-324,289,17,-245
0,8815713,218,-1873,-378,-1030,-564,-322,289,17,-245
0,8815719,218,-1873,-378,-1030,-564,-322,289,17,-245
0,8815726,223,-1877,-380,-1035,-569,-318,289,17,-245
0,8815734,223,-1877,-380,-1035,-569,-318,289,17,-245
0,8815740,223,-1877,-380,-1035,-569,-318,289,17,-245
0,8815746,223,-1877,-380,-1035,-569,-318,289,17,-245
0,8815751,223,-1877,-380,-1035,-569,-318,289,17,-245
0,8815757,223,-1877,-380,-1035,-569,-318,289,17,-245
0,8815761,223,-1877,-380,-1035,-569,-318,289,17,-245
0,8815767,221,-1874,-378,-1034,-562,-319,299,19,-251
0,8815772,221,-1874,-378,-1034,-562,-319,299,19,-251
0,8815779,221,-1874,-378,-1034,-562,-319,299,19,-251
0,8815787,220,-1879,-378,-1030,-565,-330,299,19,-251
0,8815794,220,-1879,-378,-1030,-565,-330,299,19,-251
0,8815801,220,-1879,-378,-1030,-565,-330,299,19,-251
0,8815808,219,-1872,-385,-1025,-567,-325,299,19,-251
0,8815814,219,-1872,-385,-1025,-567,-325,299,19,-251
0,8815822,219,-1872,-385,-1025,-567,-325,299,19,-251
0,8815830,216,-1872,-377,-1032,-562,-324,299,19,-251
0,8815836,216,-1872,-377,-1032,-562,-324,299,19,-251
0,8815844,216,-1872,-377,-1032,-562,-324,299,19,-251
0,8815851,220,-1874,-371,-1026,-567,-325,299,19,-251
0,8815858,220,-1874,-371,-1026,-567,-325,299,19,-251
0,8815864,220,-1874,-371,-1026,-567,-325,299,19,-251
0,8815873,217,-1875,-382,-1025,-564,-327,299,19,-251
0,8815880,217,-1875,-382,-1025,-564,-327,299,19,-251
0,8815885,217,-1875,-382,-1025,-564,-327,299,19,-251
0,8815892,218,-1873,-372,-1028,-573,-329,297,21,-247
0,8815898,218,-1873,-372,-1028,-573,-329,297,21,-247
0,8815905,218,-1873,-372,-1028,-573,-329,297,21,-247
0,8815912,224,-1875,-376,-1026,-575,-322,297,21,-247
0,8815920,224,-1875,-376,-1026,-575,-322,297,21,-247
0,8815927,221,-1873,-377,-1022,-574,-331,297,21,-247
0,8815933,221,-1873,-377,-1022,-574,-331,297,21,-247
0,8815940,221,-1873,-377,-1022,-574,-331,297,21,-247
0,8815947,225,-1873,-370,-1034,-570,-333,297,21,-247
0,8815956,225,-1873,-370,-1034,-570,-333,297,21,-247
0,8815963,225,-1873,-370,-1034,-570,-333,297,21,-247
0,8815968,216,-1874,-380,-1027,-575,-325,297,21,-247
0,8815976,216,-1874,-380,-1027,-575,-325,297,21,-247
0,8815984,216,-1874,-380,-1027,-575,-325,297,21,-247
0,8815991,213,-1873,-376,-1026,-570,-330,297,21,-247
0,8816000,213,-1873,-376,-1026,-570,-330,297,21,-247
0,8816006,213,-1873,-376,-1026,-570,-330,297,21,-247
0,8816012,218,-1871,-367,-1029,-570,-325,300,22,-246
0,8816019,218,-1871,-367,-1029,-570,-325,300,22,-246
0,8816025,218,-1871,-367,-1029,-570,-325,300,22,-246
0,8816029,217,-1875,-376,-1027,-567,-324,300,22,-246
0,8816035,217,-1875,-376,-1027,-567,-324,300,22,-246
0,8816044,217,-1875,-376,-1027,-567,-324,300,22,-246
0,8816052,226,-1873,-372,-1036,-568,-324,300,22,-246
0,8816058,226,-1873,-372,-1036,-568,-324,300,22,-246
0,8816064,226,-1873,-372,-1036,-568,-324,300,22,-246
0,8816071,222,-1874,-377,-1037,-566,-324,300,22,-246
0,8816078,222,-1874,-377,-1037,-566,-324,300,22,-246
0,8816084,222,-1874,-377,-1037,-566,-324,300,22,-246
0,8816090,221,-1876,-379,-1028,-566,-325,300,22,-246
0,8816095,221,-1876,-379,-1028,-566,-325,300,22,-246
0,8816100,221,-1876,-379,-1028,-566,-325,300,22,-246
0,8816105,221,-1876,-379,-1028,-566,-325,300,22,-246
0,8816110,220,-1873,-376,-1031,-568,-328,300,22,-246
0,8816115,220,-1873,-376,-1031,-568,-328,300,22,-246
0,8816121,220,-1873,-376,-1031,-568,-328,300,22,-246
0,8816126,220,-1873,-376,-1031,-568,-328,300,22,-246
0,8816133,217,-1877,-381,-1028,-568,-323,300,22,-246
0,8816141,217,-1877,-381,-1028,-568,-323,300,22,-246
0,8816149,220,-1873,-372,-1028,-565,-331,297,19,-255
0,8816156,220,-1873,-372,-1028,-565,-331,297,19,-255
0,8816162,220,-1873,-372,-1028,-565,-331,297,19,-255
0,8816168,213,-1876,-371,-1042,-572,-327,297,19,-255
0,8816176,213,-1876,-371,-1042,-572,-327,297,19,-255
0,8816183,213,-1876,-371,-1042,-572,-327,297,19,-255
0,8816191,216,-1875,-374,-1040,-571,-326,297,19,-255
0,8816197,216,-1875,-374,-1040,-571,-326,297,19,-255
0,8816202,216,-1875,-374,-1040,-571,-326,297,19,-255
0,8816210,222,-1873,-370,-1035,-569,-327,297,19,-255
0,8816217,222,-1873,-370,-1035,-569,-327,297,19,-255
0,8816225,222,-1873,-370,-1035,-569,-327,297,19,-255
0,8816231,221,-1873,-371,-1018,-575,-339,297,19,-255
0,8816238,221,-1873,-371,-1018,-575,-339,297,19,-255
0,8816245,221,-1873,-371,-1018,-575,-339,297,19,-255
0,8816250,224,-1871,-377,-1019,-566,-335,297,19,-255
0,8816259,224,-1871,-377,-1019,-566,-335,297,19,-255
0,8816266,224,-1871,-377,-1019,-566,-335,297,19,-255
0,8816274,219,-1875,-371,-1030,-565,-331,305,19,-251
0,8816280,219,-1875,-371,-1030,-565,-331,305,19,-251
0,8816287,219,-1875,-371,-1030,-565,-331,305,19,-251
0,8816295,217,-1875,-373,-1034,-566,-326,305,19,-251
0,8816305,217,-1875,-373,-1034,-566,-326,305,19,-251
0,8816316,215,-1875,-378,-1037,-566,-324,305,19,-251
0,8816328,218,-1876,-377,-1035,-566,-323,305,19,-251
0,8816342,218,-1876,-377,-1035,-566,-323,305,19,-251
0,8816353,218,-1876,-379,-1035,-565,-326,305,19,-251
0,8816366,218,-1876,-379,-1035,-565,-326,305,19,-251
0,8816378,218,-1877,-377,-1038,-578,-332,305,19,-251
0,8816391,221,-1875,-378,-1029,-570,-329,305,19,-251
0,8816402,221,-1875,-378,-1029,-570,-329,305,19,-251
0,8816416,219,-1876,-373,-1033,-565,-329,301,23,-253
0,8816429,221,-1872,-374,-1035,-565,-329,301,23,-253
0,8816442,221,-1872,-374,-1035,-565,-329,301,23,-253
0,8816456,220,-1875,-374,-1036,-572,-331,301,23,-253
0,8816470,215,-1875,-381,-1027,-569,-327,301,23,-253
0,8816482,215,-1875,-381,-1027,-569,-327,301,23,-253
0,8816496,216,-1876,-373,-1028,-572,-324,301,23,-253
0,8816508,222,-1877,-375,-1029,-570,-321,301,23,-253
0,8816520,222,-1877,-375,-1029,-570,-321,301,23,-253
0,8816533,221,-1877,-377,-1036,-570,-324,294,18,-246
0,8816549,221,-1877,-380,-1038,-576,-322,294,18,-246
0,8816562,221,-1877,-380,-1038,-576,-322,294,18,-246
0,8816572,215,-1873,-379,-1029,-564,-325,294,18,-246
0,8816581,215,-1873,-379,-1029,-564,-325,294,18,-246
0,8816590,219,-1873,-374,-1024,-565,-320,294,18,-246
0,8816599,219,-1873,-374,-1024,-565,-320,294,18,-246
0,8816607,219,-1873,-374,-1024,-565,-320,294,18,-246
0,8816614,216,-1876,-376,-1028,-567,-325,294,18,-246
0,8816627,216,-1876,-376,-1028,-567,-325,294,18,-246
0,8816637,220,-1874,-388,-1029,-568,-328,294,18,-246
0,8816651,223,-1876,-372,-1026,-568,-328,296,22,-254
0,8816663,223,-1876,-372,-1026,-568,-328,296,22,-254
0,8816676,218,-1875,-375,-1023,-565,-333,296,22,-254
0,8816687,218,-1875,-375,-1023,-565,-333,296,22,-254
0,8816699,222,-1872,-380,-1028,-567,-333,296,22,-254
0,8816714,211,-1874,-376,-1030,-564,-331,296,22,-254
0,8816726,211,-1874,-376,-1030,-564,-331,296,22,-254
0,8816738,213,-1871,-376,-1024,-564,-330,296,22,-254
0,8816745,213,-1871,-376,-1024,-564,-330,296,22,-254
0,8816754,220,-1877,-375,-1034,-568,-321,296,22,-254
0,8816762,220,-1877,-375,-1034,-568,-321,296,22,-254
0,8816771,215,-1874,-379,-1030,-572,-324,296,22,-254
0,8816783,215,-1874,-379,-1030,-572,-324,296,22,-254
0,8816795,219,-1873,-371,-1029,-573,-325,299,21,-253
0,8816808,218,-1875,-378,-1027,-568,-329,299,21,-253
0,8816823,218,-1875,-378,-1027,-568,-329,299,21,-253
0,8816836,225,-1875,-377,-1028,-566,-318,299,21,-253
0,8816848,224,-1875,-374,-1028,-561,-325,299,21,-253
0,8816857,224,-1875,-374,-1028,-561,-325,299,21,-253
0,8816869,219,-1872,-375,-1029,-567,-322,299,21,-253
0,8816882,219,-1872,-375,-1029,-567,-322,299,21,-253
0,8816896,219,-1874,-376,-1024,-565,-324,299,21,-253
0,8816906,219,-1874,-376,-1024,-565,-324,299,21,-253
0,8816919,215,-1876,-379,-1028,-567,-333,299,13,-247
0,8816932,215,-1875,-375,-1029,-567,-321,299,13,-247
0,8816947,215,-1875,-375,-1029,-567,-321,299,13,-247
0,8816956,217,-1873,-381,-1031,-567,-330,299,13,-247
0,8816969,221,-1874,-381,-1027,-577,-324,299,13,-247
0,8816983,221,-1874,-381,-1027,-577,-324,299,13,-247
0,8816996,224,-1874,-368,-1035,-572,-322,299,13,-247
0,8817007,224,-1874,-368,-1035,-572,-322,299,13,-247
0,8817020,219,-1872,-374,-1034,-562,-327,299,13,-247
0,8817033,218,-1872,-379,-1020,-563,-327,299,13,-247
0,8817046,218,-1872,-379,-1020,-563,-327,299,13,-247
0,8817056,219,-1872,-374,-1024,-565,-321,290,16,-248
0,8817070,219,-1872,-372,-1027,-561,-323,290,16,-248
0,8817082,219,-1872,-372,-1027,-561,-323,290,16,-248
0,8817090,217,-1875,-374,-1023,-558,-330,290,16,-248
0,8817097,217,-1875,-374,-1023,-558,-330,290,16,-248
0,8817106,217,-1875,-374,-1023,-558,-330,290,16,-248
0,8817114,217,-1877,-379,-1021,-562,-322,290,16,-248
0,8817123,217,-1877,-379,-1021,-562,-322,290,16,-248
0,8817131,220,-1875,-376,-1029,-559,-318,290,16,-248
0,8817139,220,-1875,-376,-1029,-559,-318,290,16,-248
0,8817147,220,-1875,-376,-1029,-559,-318,290,16,-248
0,8817156,217,-1874,-383,-1030,-566,-325,290,16,-248
0,8817164,217,-1874,-383,-1030,-566,-325,290,16,-248
0,8817173,218,-1875,-371,-1020,-564,-321,293,17,-255
0,8817185,218,-1875,-371,-1020,-564,-321,293,17,-255
0,8817200,222,-1872,-373,-1020,-563,-322,293,17,-255
0,8817212,218,-1874,-377,-1021,-566,-329,293,17,-255
0,8817223,218,-1874,-377,-1021,-566,-329,293,17,-255
0,8817238,224,-1874,-374,-1025,-568,-327,293,17,-255
0,8817250,219,-1874,-372,-1027,-573,-320,293,17,-255
0,8817263,219,-1874,-372,-1027,-573,-320,293,17,-255
0,8817274,220,-1876,-380,-1031,-570,-326,293,17,-255
0,8817288,220,-1876,-380,-1031,-570,-326,293,17,-255
0,8817301,218,-1877,-378,-1027,-569,-326,293,17,-255
0,8817308,218,-1877,-378,-1027,-569,-326,293,17,-255
0,8817314,216,-1875,-372,-1026,-570,-324,300,20,-258
0,8817321,216,-1875,-372,-1026,-570,-324,300,20,-258
0,8817329,214,-1872,-375,-1027,-569,-323,300,20,-258
0,8817335,214,-1872,-375,-1027,-569,-323,300,20,-258
0,8817341,214,-1872,-375,-1027,-569,-323,300,20,-258
0,8817349,219,-1872,-377,-1029,-571,-325,300,20,-258
0,8817355,219,-1872,-377,-1029,-571,-325,300,20,-258
0,8817363,219,-1872,-377,-1029,-571,-325,300,20,-258
0,8817372,221,-1874,-374,-1016,-570,-325,300,20,-258
0,8817379,221,-1874,-374,-1016,-570,-325,300,20,-258
0,8817384,221,-1874,-374,-1016,-570,-325,300,20,-258
0,8817391,221,-1876,-376,-1023,-570,-331,300,20,-258
0,8817399,221,-1876,-376,-1023,-570,-331,300,20,-258
0,8817406,221,-1876,-376,-1023,-570,-331,300,20,-258
0,8817414,221,-1871,-378,-1030,-575,-330,300,20,-258
0,8817421,221,-1871,-378,-1030,-575,-330,300,20,-258
0,8817426,221,-1871,-378,-1030,-575,-330,300,20,-258
0,8817433,221,-1873,-370,-1029,-570,-327,288,14,-250
0,8817441,221,-1873,-370,-1029,-570,-327,288,14,-250
0,8817448,221,-1873,-370,-1029,-570,-327,288,14,-250
0,8817456,219,-1877,-372,-1021,-566,-324,288,14,-250
0,8817462,219,-1877,-372,-1021,-566,-324,288,14,-250
0,8817469,218,-1876,-375,-1019,-566,-324,288,14,-250
0,8817475,218,-1876,-375,-1019,-566,-324,288,14,-250
0,8817482,218,-1876,-375,-1019,-566,-324,288,14,-250
0,8817490,212,-1876,-380,-1025,-570,-329,288,14,-250
0,8817498,212,-1876,-380,-1025,-570,-329,288,14,-250
0,8817505,212,-1876,-380,-1025,-570,-329,288,14,-250
0,8817513,212,-1876,-380,-1024,-570,-324,288,14,-250
0,8817519,212,-1876,-380,-1024,-570,-324,288,14,-250
0,8817524,212,-1876,-380,-1024,-570,-324,288,14,-250
0,8817531,218,-1873,-370,-1031,-569,-328,288,14,-250
0,8817540,218,-1873,-370,-1031,-569,-328,288,14,-250
0,8817547,218,-1873,-370,-1031,-569,-328,288,14,-250
0,8817553,217,-1874,-372,-1023,-564,-324,292,10,-248
0,8817560,217,-1874,-372,-1023,-564,-324,292,10,-248
0,8817567,217,-1874,-372,-1023,-564,-324,292,10,-248
0,8817573,224,-1874,-370,-1025,-564,-324,292,10,-248
0,8817582,224,-1874,-370,-1025,-564,-324,292,10,-248
0,8817589,218,-1876,-379,-1022,-562,-331,292,10,-248
0,8817596,218,-1876,-379,-1022,-562,-331,292,10,-248
0,8817603,218,-1876,-379,-1022,-562,-331,292,10,-248
0,8817609,220,-1872,-381,-1032,-564,-328,292,10,-248
0,8817616,220,-1872,-381,-1032,-564,-328,292,10,-248
0,8817623,220,-1872,-381,-1032,-564,-328,292,10,-248
0,8817631,219,-1871,-375,-1025,-570,-332,292,10,-248
0,8817639,219,-1871,-375,-1025,-570,-332,292,10,-248
0,8817645,219,-1871,-375,-1025,-570,-332,292,10,-248
0,8817652,219,-1875,-377,-1029,-568,-335,292,10,-248
0,8817659,219,-1875,-377,-1029,-568,-335,292,10,-248
0,8817666,219,-1875,-377,-1029,-568,-335,292,10,-248
0,8817672,221,-1877,-376,-1027,-572,-335,292,10,-248
0,8817677,221,-1877,-376,-1027,-572,-335,292,10,-248
0,8817684,221,-1877,-376,-1027,-572,-335,292,10,-248
0,8817691,217,-1872,-369,-1021,-569,-328,295,15,-249
0,8817699,217,-1872,-369,-1021,-569,-328,295,15,-249
0,8817707,217,-1872,-369,-1021,-569,-328,295,15,-249
0,8817714,222,-1875,-375,-1025,-563,-321,295,15,-249
0,8817721,222,-1875,-375,-1025,-563,-321,295,15,-249
0,8817728,222,-1875,-375,-1025,-563,-321,295,15,-249
0,8817735,217,-1874,-374,-1031,-564,-322,295,15,-249
0,8817741,217,-1874,-374,-1031,-564,-322,295,15,-249
0,8817746,217,-1874,-374,-1031,-564,-322,295,15,-249
0,8817752,215,-1874,-379,-1032,-570,-327,295,15,-249
0,8817757,215,-1874,-379,-1032,-570,-327,295,15,-249
0,8817762,215,-1874,-379,-1032,-570,-327,295,15,-249
0,8817766,215,-1874,-379,-1032,-570,-327,295,15,-249
0,8817772,220,-1871,-372,-1035,-568,-327,295,15,-249
0,8817778,220,-1871,-372,-1035,-568,-327,295,15,-249
0,8817785,220,-1871,-372,-1035,-568,-327,295,15,-249
0,8817792,217,-1876,-376,-1035,-569,-327,295,15,-249
0,8817798,217,-1876,-376,-1035,-569,-327,295,15,-249
0,8817804,217,-1876,-376,-1035,-569,-327,295,15,-249
0,8817810,220,-1874,-372,-1032,-566,-333,293,19,-257
0,8817816,220,-1874,-372,-1032,-566,-333,293,19,-257
0,8817822,220,-1874,-372,-1032,-566,-333,293,19,-257
0,8817827,220,-1874,-372,-1032,-566,-333,293,19,-257
0,8817833,218,-1876,-376,-1027,-574,-331,293,19,-257
0,8817839,218,-1876,-376,-1027,-574,-331,293,19,-257
0,8817845,218,-1876,-376,-1027,-574,-331,293,19,-257
0,8817851,220,-1872,-374,-1031,-571,-325,293,19,-257
0,8817857,220,-1872,-374,-1031,-571,-325,293,19,-257
0,8817862,220,-1872,-374,-1031,-571,-325,293,19,-257
0,8817868,220,-1872,-374,-1031,-571,-325,293,19,-257
0,8817874,222,-1874,-379,-1032,-565,-325,293,19,-257
0,8817881,222,-1874,-379,-1032,-565,-325,293,19,-257
0,8817886,222,-1874,-379,-1032,-565,-325,293,19,-257
0,8817891,217,-1877,-376,-1024,-561,-323,293,19,-257
0,8817899,217,-1877,-376,-1024,-561,-323,293,19,-257
0,8817906,217,-1877,-376,-1024,-561,-323,293,19,-257
0,8817912,216,-1875,-374,-1024,-567,-327,293,19,-257
0,8817920,216,-1875,-374,-1024,-567,-327,293,19,-257
0,8817928,216,-1875,-374,-1024,-567,-327,293,19,-257
0,8817935,215,-1876,-380,-1034,-571,-330,293,19,-257
0,8817941,215,-1876,-380,-1034,-571,-330,293,19,-257
0,8817948,215,-1876,-380,-1034,-571,-330,293,19,-257
0,8817955,217,-1874,-370,-1027,-562,-331,299,19,-247
0,8817963,217,-1874,-370,-1027,-562,-331,299,19,-247
0,8817971,219,-1872,-372,-1027,-568,-329,299,19,-247
0,8817978,219,-1872,-372,-1027,-568,-329,299,19,-247
0,8817984,219,-1872,-372,-1027,-568,-329,299,19,-247
0,8817990,217,-1873,-377,-1029,-565,-327,299,19,-247
0,8817996,217,-1873,-377,-1029,-565,-327,299,19,-247
0,8818003,217,-1873,-377,-1029,-565,-327,299,19,-247
0,8818010,221,-1874,-378,-1023,-565,-329,299,19,-247
0,8818017,221,-1874,-378,-1023,-565,-329,299,19,-247
0,8818025,221,-1874,-378,-1023,-565,-329,299,19,-247
0,8818032,216,-1870,-378,-1038,-565,-330,299,19,-247
0,8818039,216,-1870,-378,-1038,-565,-330,299,19,-247
0,8818046,216,-1870,-378,-1038,-565,-330,299,19,-247
0,8818055,214,-1877,-377,-1024,-564,-325,299,19,-247
0,8818060,214,-1877,-377,-1024,-564,-325,299,19,-247
0,8818068,214,-1877,-377,-1024,-564,-325,299,19,-247
0,8818077,215,-1872,-374,-1021,-565,-330,304,22,-246
0,8818084,215,-1872,-374,-1021,-565,-330,304,22,-246
0,8818089,214,-1873,-374,-1034,-572,-338,304,22,-246
0,8818095,214,-1873,-374,-1034,-572,-338,304,22,-246
0,8818100,214,-1873,-374,-1034,-572,-338,304,22,-246
0,8818105,214,-1873,-374,-1034,-572,-338,304,22,-246
0,8818110,215,-1872,-375,-1033,-573,-330,304,22,-246
0,8818115,215,-1872,-375,-1033,-573,-330,304,22,-246
0,8818124,215,-1872,-375,-1033,-573,-330,304,22,-246
0,8818130,214,-1877,-376,-1029,-565,-334,304,22,-246
0,8818138,214,-1877,-376,-1029,-565,-334,304,22,-246
0,8818146,214,-1877,-376,-1029,-565,-334,304,22,-246
0,8818153,222,-1872,-376,-1033,-565,-325,304,22,-246
0,8818159,222,-1872,-376,-1033,-565,-325,304,22,-246
0,8818167,222,-1872,-376,-1033,-565,-325,304,22,-246
0,8818173,219,-1873,-379,-1024,-560,-329,304,22,-246
0,8818181,219,-1873,-379,-1024,-560,-329,304,22,-246
0,8818188,219,-1873,-379,-1024,-560,-329,304,22,-246
0,8818194,218,-1873,-376,-1030,-560,-327,304,18,-248
0,8818201,218,-1873,-376,-1030,-560,-327,304,18,-248
0,8818207,218,-1873,-376,-1030,-560,-327,304,18,-248
0,8818214,216,-1871,-377,-1029,-571,-328,304,18,-248
0,8818221,216,-1871,-377,-1029,-571,-328,304,18,-248
0,8818228,216,-1871,-377,-1029,-571,-328,304,18,-248
0,8818235,213,-1877,-368,-1016,-562,-328,304,18,-248
0,8818243,213,-1877,-368,-1016,-562,-328,304,18,-248
0,8818250,217,-1872,-379,-1026,-564,-334,304,18,-248
0,8818258,217,-1872,-379,-1026,-564,-334,304,18,-248
0,8818265,217,-1872,-379,-1026,-564,-334,304,18,-248
0,8818272,214,-1875,-379,-1030,-571,-339,304,18,-248
0,8818277,214,-1875,-379,-1030,-571,-339,304,18,-248
0,8818283,214,-1875,-379,-1030,-571,-339,304,18,-248
0,8818290,219,-1874,-373,-1036,-565,-337,304,18,-248
0,8818297,219,-1874,-373,-1036,-565,-337,304,18,-248
0,8818305,219,-1874,-373,-1036,-565,-337,304,18,-248
0,8818318,219,-1870,-378,-1034,-566,-332,304,18,-248
0,8818329,219,-1870,-378,-1034,-566,-332,304,18,-248
0,8818341,215,-1874,-375,-1028,-566,-334,294,18,-252
0,8818355,217,-1874,-378,-1037,-571,-338,294,18,-252
0,8818367,217,-1874,-378,-1037,-571,-338,294,18,-252
0,8818379,213,-1874,-378,-1032,-565,-326,294,18,-252
0,8818394,218,-1877,-375,-1038,-564,-337,294,18,-252
0,8818406,218,-1877,-375,-1038,-564,-337,294,18,-252
0,8818419,219,-1872,-382,-1032,-576,-337,294,18,-252
0,8818430,219,-1877,-380,-1036,-564,-329,294,18,-252
0,8818444,219,-1877,-380,-1036,-564,-329,294,18,-252
0,8818456,218,-1875,-374,-1034,-566,-335,296,22,-244
0,8818468,218,-1875,-374,-1034,-566,-335,296,22,-244
0,8818480,218,-1875,-374,-1034,-566,-335,296,22,-244
0,8818493,218,-1872,-374,-1026,-569,-325,296,22,-244
0,8818505,218,-1872,-374,-1026,-569,-325,296,22,-244
0,8818514,213,-1873,-375,-1026,-566,-320,296,22,-244
0,8818528,213,-1873,-375,-1026,-566,-320,296,22,-244
0,8818542,214,-1874,-372,-1032,-567,-318,296,22,-244
0,8818551,221,-1876,-376,-1026,-561,-319,296,22,-244
0,8818563,221,-1876,-376,-1026,-561,-319,296,22,-244
0,8818577,220,-1875,-377,-1032,-569,-328,296,22,-244
0,8818590,221,-1874,-367,-1029,-560,-326,299,19,-259
0,8818599,221,-1874,-367,-1029,-560,-326,299,19,-259
0,8818612,218,-1874,-370,-1036,-571,-324,299,19,-259
0,8818625,218,-1874,-370,-1036,-571,-324,299,19,-259
0,8818638,218,-1874,-373,-1030,-572,-325,299,19,-259
0,8818649,218,-1874,-373,-1030,-572,-325,299,19,-259
0,8818662,219,-1879,-379,-1028,-571,-326,299,19,-259
0,8818675,212,-1876,-377,-1031,-566,-327,299,19,-259
0,8818688,212,-1876,-377,-1031,-566,-327,299,19,-259
0,8818697,215,-1874,-384,-1029,-570,-325,299,19,-259
0,8818710,215,-1874,-384,-1029,-570,-325,299,19,-259
0,8818719,217,-1876,-374,-1026,-566,-326,304,14,-246
0,8818729,217,-1876,-374,-1026,-566,-326,304,14,-246
0,8818742,221,-1874,-375,-1026,-570,-328,304,14,-246
0,8818750,220,-1876,-375,-1027,-567,-330,304,14,-246
0,8818758,220,-1876,-375,-1027,-567,-330,304,14,-246
0,8818766,220,-1876,-375,-1027,-567,-330,304,14,-246
0,8818775,222,-1872,-378,-1036,-570,-328,304,14,-246
0,8818785,222,-1872,-378,-1036,-570,-328,304,14,-246
0,8818793,220,-1873,-384,-1025,-569,-322,304,14,-246
0,8818802,220,-1873,-384,-1025,-569,-322,304,14,-246
0,8818811,215,-1875,-376,-1031,-566,-326,304,14,-246
0,8818822,215,-1875,-376,-1031,-566,-326,304,14,-246
0,8818833,215,-1874,-381,-1030,-567,-333,304,14,-246
0,8818846,215,-1874,-381,-1030,-567,-333,304,14,-246
0,8818859,215,-1875,-371,-1027,-568,-330,301,17,-253
0,8818867,215,-1875,-371,-1027,-568,-330,301,17,-253
0,8818880,216,-1873,-373,-1021,-567,-328,301,17,-253
0,8818892,221,-1874,-374,-1017,-569,-326,301,17,-253
0,8818905,221,-1874,-374,-1017,-569,-326,301,17,-253
0,8818914,219,-1875,-373,-1030,-569,-326,301,17,-253
0,8818927,219,-1875,-373,-1030,-569,-326,301,17,-253
0,8818935,219,-1875,-373,-1030,-569,-326,301,17,-253
0,8818947,219,-1875,-373,-1030,-569,-326,301,17,-253
0,8818960,217,-1874,-380,-1033,-567,-326,301,17,-253
0,8818972,217,-1871,-374,-1039,-568,-322,304,14,-254
0,8818982,217,-1871,-374,-1039,-568,-322,304,14,-254
0,8818996,221,-1873,-374,-1025,-567,-321,304,14,-254
0,8819010,221,-1873,-374,-1025,-567,-321,304,14,-254
0,8819023,214,-1875,-376,-1031,-572,-324,304,14,-254
0,8819034,218,-1874,-375,-1029,-567,-328,304,14,-254
0,8819047,218,-1874,-375,-1029,-567,-328,304,14,-254
0,8819060,218,-1874,-383,-1023,-568,-334,304,14,-254
0,8819075,215,-1874,-378,-1025,-567,-331,304,14,-254
0,8819085,215,-1874,-378,-1025,-567,-331,304,14,-254
0,8819093,222,-1875,-378,-1029,-566,-318,299,15,-249
0,8819101,222,-1875,-378,-1029,-566,-318,299,15,-249
0,8819109,222,-1875,-378,-1029,-566,-318,299,15,-249
0,8819118,220,-1875,-375,-1032,-566,-326,299,15,-249
0,8819125,220,-1875,-375,-1032,-566,-326,299,15,-249
0,8819134,222,-1874,-382,-1032,-560,-323,299,15,-249
0,8819142,222,-1874,-382,-1032,-560,-323,299,15,-249
0,8819150,222,-1874,-382,-1032,-560,-323,299,15,-249
0,8819158,218,-1872,-376,-1038,-563,-330,299,15,-249
0,8819167,218,-1872,-376,-1038,-563,-330,299,15,-249
0,8819174,220,-1876,-379,-1027,-565,-331,299,15,-249
0,8819187,220,-1876,-379,-1027,-565,-331,299,15,-249
0,8819200,220,-1875,-378,-1035,-567,-327,299,15,-249
0,8819214,221,-1873,-373,-1037,-577,-320,299,15,-249
0,8819226,221,-1873,-373,-1037,-577,-320,299,15,-249
0,8819239,222,-1876,-377,-1026,-569,-329,303,13,-255
0,8819251,216,-1875,-377,-1028,-565,-329,303,13,-255
0,8819264,216,-1875,-377,-1028,-565,-329,303,13,-255
0,8819277,221,-1870,-372,-1019,-566,-328,303,13,-255
0,8819290,221,-1870,-372,-1019,-566,-328,303,13,-255
0,8819301,220,-1873,-375,-1025,-564,-321,303,13,-255
0,8819312,220,-1873,-375,-1025,-564,-321,303,13,-255
0,8819318,220,-1873,-375,-1025,-564,-321,303,13,-255
0,8819322,220,-1873,-375,-1025,-564,-321,303,13,-255
0,8819329,220,-1873,-375,-1025,-564,-321,303,13,-255
0,8819336,220,-1875,-373,-1039,-571,-332,303,13,-255
0,8819342,220,-1875,-373,-1039,-571,-332,303,13,-255
0,8819349,220,-1875,-373,-1039,-571,-332,303,13,-255
0,8819356,220,-1875,-374,-1027,-568,-328,305,11,-251
0,8819362,220,-1875,-374,-1027,-568,-328,305,11,-251
0,8819368,220,-1875,-374,-1027,-568,-328,305,11,-251
0,8819376,223,-1873,-375,-1033,-565,-322,305,11,-251
0,8819383,223,-1873,-375,-1033,-565,-322,305,11,-251
0,8819390,223,-1873,-375,-1033,-565,-322,305,11,-251
0,8819397,225,-1873,-378,-1034,-575,-329,305,11,-251
0,8819404,225,-1873,-378,-1034,-575,-329,305,11,-251
0,8819412,220,-1874,-381,-1026,-572,-328,305,11,-251
0,8819418,220,-1874,-381,-1026,-572,-328,305,11,-251
0,8819426,220,-1874,-381,-1026,-572,-328,305,11,-251
0,8819434,218,-1874,-372,-1028,-573,-328,305,11,-251
0,8819440,218,-1874,-372,-1028,-573,-328,305,11,-251
0,8819448,218,-1874,-372,-1028,-573,-328,305,11,-251
0,8819454,220,-1876,-378,-1031,-572,-326,305,11,-251
0,8819462,220,-1876,-378,-1031,-572,-326,305,11,-251
0,8819468,220,-1876,-378,-1031,-572,-326,305,11,-251
0,8819476,218,-1872,-379,-1031,-565,-330,305,11,-251
0,8819483,218,-1872,-379,-1031,-565,-330,305,11,-251
0,8819492,220,-1873,-377,-1032,-560,-330,297,21,-263
0,8819497,220,-1873,-377,-1032,-560,-330,297,21,-263
0,8819504,220,-1873,-377,-1032,-560,-330,297,21,-263
0,8819509,220,-1873,-377,-1032,-560,-330,297,21,-263
0,8819516,223,-1872,-377,-1027,-564,-329,297,21,-263
0,8819523,223,-1872,-377,-1027,-564,-329,297,21,-263
0,8819530,223,-1872,-377,-1027,-564,-329,297,21,-263
0,8819537,222,-1877,-380,-1037,-563,-328,297,21,-263
0,8819545,222,-1877,-380,-1037,-563,-328,297,21,-263
0,8819553,221,-1873,-374,-1029,-567,-328,297,21,-263
0,8819560,221,-1873,-374,-1029,-567,-328,297,21,-263
0,8819567,221,-1873,-374,-1029,-567,-328,297,21,-263
0,8819574,220,-1876,-377,-1018,-565,-325,297,21,-263
0,8819581,220,-1876,-377,-1018,-565,-325,297,21,-263
0,8819588,220,-1876,-377,-1018,-565,-325,297,21,-263
0,8819596,218,-1876,-379,-1031,-561,-318,297,21,-263
0,8819604,218,-1876,-379,-1031,-561,-318,297,21,-263
0,8819610,218,-1876,-379,-1031,-561,-318,297,21,-263
0,8819617,222,-1874,-374,-1027,-562,-329,297,21,-251
0,8819625,222,-1874,-374,-1027,-562,-329,297,21,-251
0,8819635,220,-1875,-374,-1033,-568,-331,297,21,-251
0,8819642,220,-1875,-374,-1033,-568,-331,297,21,-251
0,8819650,220,-1875,-374,-1033,-568,-331,297,21,-251
0,8819655,220,-1876,-375,-1035,-570,-325,297,21,-251
0,8819662,220,-1876,-375,-1035,-570,-325,297,21,-251
0,8819668,220,-1876,-375,-1035,-570,-325,297,21,-251
0,8819676,222,-1874,-378,-1031,-569,-326,297,21,-251
0,8819682,222,-1874,-378,-1031,-569,-326,297,21,-251
0,8819688,222,-1874,-378,-1031,-569,-326,297,21,-251
0,8819696,219,-1875,-373,-1030,-572,-335,297,21,-251
0,8819702,219,-1875,-373,-1030,-572,-335,297,21,-251
0,8819710,219,-1875,-373,-1030,-572,-335,297,21,-251
0,8819717,224,-1875,-377,-1027,-563,-327,297,21,-251
0,8819724,224,-1875,-377,-1027,-563,-327,297,21,-251
0,8819730,224,-1875,-377,-1027,-563,-327,297,21,-251
0,8819737,222,-1873,-386,-1029,-564,-324,297,21,-251
0,8819742,222,-1873,-386,-1029,-564,-324,297,21,-251
0,8819747,222,-1873,-386,-1029,-564,-324,297,21,-251
0,8819752,219,-1874,-372,-1028,-570,-324,298,20,-258
0,8819758,219,-1874,-372,-1028,-570,-324,298,20,-258
0,8819763,219,-1874,-372,-1028,-570,-324,298,20,-258
0,8819769,219,-1874,-372,-1028,-570,-324,298,20,-258
0,8819774,222,-1874,-376,-1031,-567,-319,298,20,-258
0,8819781,222,-1874,-376,-1031,-567,-319,298,20,-258
0,8819789,222,-1874,-376,-1031,-567,-319,298,20,-258
0,8819796,216,-1876,-379,-1027,-562,-326,298,20,-258
0,8819803,216,-1876,-379,-1027,-562,-326,298,20,-258
0,8819811,216,-1876,-379,-1027,-562,-326,298,20,-258
0,8819819,221,-1874,-375,-1014,-562,-328,298,20,-258
0,8819826,221,-1874,-375,-1014,-562,-328,298,20,-258
0,8819832,217,-1872,-374,-1023,-565,-322,298,20,-258
0,8819840,217,-1872,-374,-1023,-565,-322,298,20,-258
0,8819845,217,-1872,-374,-1023,-565,-322,298,20,-258
0,8819850,217,-1872,-374,-1023,-565,-322,298,20,-258
0,8819855,215,-1873,-379,-1032,-570,-320,298,20,-258
0,8819863,215,-1873,-379,-1032,-570,-320,298,20,-258
0,8819870,215,-1873,-379,-1032,-570,-320,298,20,-258
0,8819876,218,-1874,-376,-1036,-570,-323,293,17,-251
0,8819884,218,-1874,-376,-1036,-570,-323,293,17,-251
0,8819890,218,-1874,-376,-1036,-570,-323,293,17,-251
0,8819897,215,-1874,-379,-1032,-563,-322,293,17,-251
0,8819903,215,-1874,-379,-1032,-563,-322,293,17,-251
0,8819911,215,-1874,-379,-1032,-563,-322,293,17,-251
0,8819918,224,-1875,-376,-1029,-565,-322,293,17,-251
0,8819927,224,-1875,-376,-1029,-565,-322,293,17,-251
0,8819934,219,-1874,-370,-1029,-564,-323,293,17,-251
0,8819940,219,-1874,-370,-1029,-564,-323,293,17,-251
0,8819947,219,-1874,-370,-1029,-564,-323,293,17,-251
0,8819952,223,-1871,-380,-1030,-570,-329,293,17,-251
0,8819959,223,-1871,-380,-1030,-570,-329,293,17,-251
0,8819965,223,-1871,-380,-1030,-570,-329,293,17,-251
0,8819973,221,-1873,-381,-1034,-570,-326,293,17,-251
0,8819979,221,-1873,-381,-1034,-570,-326,293,17,-251
0,8819985,221,-1873,-381,-1034,-570,-326,293,17,-251
0,8819993,215,-1876,-376,-1027,-562,-323,302,20,-256
0,8819999,215,-1876,-376,-1027,-562,-323,302,20,-256
0,8820006,215,-1876,-376,-1027,-562,-323,302,20,-256
0,8820014,217,-1874,-376,-1027,-571,-323,302,20,-256
0,8820020,217,-1874,-376,-1027,-571,-323,302,20,-256
0,8820028,217,-1874,-376,-1027,-571,-323,302,20,-256
0,8820036,216,-1871,-374,-1021,-566,-318,302,20,-256
0,8820043,216,-1871,-374,-1021,-566,-318,302,20,-256
0,8820049,216,-1871,-374,-1021,-566,-318,302,20,-256
0,8820057,219,-1873,-379,-1036,-571,-331,302,20,-256
0,8820064,219,-1873,-379,-1036,-571,-331,302,20,-256
0,8820070,219,-1873,-379,-1036,-571,-331,302,20,-256
0,8820078,219,-1874,-383,-1038,-567,-328,302,20,-256
0,8820085,219,-1874,-383,-1038,-567,-328,302,20,-256
0,8820090,219,-1874,-383,-1038,-567,-328,302,20,-256
0,8820096,221,-1874,-369,-1027,-564,-333,302,20,-256
0,8820101,221,-1874,-369,-1027,-564,-333,302,20,-256
0,8820107,221,-1874,-369,-1027,-564,-333,302,20,-256
0,8820112,221,-1876,-383,-1023,-564,-324,302,20,-256
0,8820117,221,-1876,-383,-1023,-564,-324,302,20,-256
0,8820123,221,-1876,-383,-1023,-564,-324,302,20,-256
0,8820128,221,-1876,-383,-1023,-564,-324,302,20,-256
0,8820135,220,-1871,-375,-1038,-567,-330,298,22,-250
0,8820141,220,-1871,-375,-1038,-567,-330,298,22,-250
0,8820147,220,-1871,-375,-1038,-567,-330,298,22,-250
0,8820152,217,-1871,-375,-1034,-570,-327,298,22,-250
0,8820157,217,-1871,-375,-1034,-570,-327,298,22,-250
0,8820163,217,-1871,-375,-1034,-570,-327,298,22,-250
0,8820168,217,-1871,-375,-1034,-570,-327,298,22,-250
0,8820174,214,-1874,-377,-1031,-565,-327,298,22,-250
0,8820180,214,-1874,-377,-1031,-565,-327,298,22,-250
0,8820188,214,-1874,-377,-1031,-565,-327,298,22,-250
0,8820195,218,-1873,-380,-1027,-565,-325,298,22,-250
0,8820202,218,-1873,-380,-1027,-565,-325,298,22,-250
0,8820208,218,-1873,-380,-1027,-565,-325,298,22,-250
0,8820213,221,-1873,-378,-1027,-567,-328,298,22,-250
0,8820220,221,-1873,-378,-1027,-567,-328,298,22,-250
0,8820228,221,-1873,-378,-1027,-567,-328,298,22,-250
0,8820236,215,-1872,-378,-1027,-572,-323,298,22,-250
0,8820242,215,-1872,-378,-1027,-572,-323,298,22,-250
0,8820250,215,-1872,-378,-1027,-572,-323,298,22,-250
0,8820257,221,-1874,-373,-1042,-569,-322,299,15,-243
0,8820263,221,-1874,-373,-1042,-569,-322,299,15,-243
0,8820270,221,-1874,-373,-1042,-569,-322,299,15,-243
0,8820277,220,-1873,-377,-1038,-568,-326,299,15,-243
0,8820284,220,-1873,-377,-1038,-568,-326,299,15,-243
0,8820289,220,-1873,-377,-1038,-568,-326,299,15,-243
0,8820294,217,-1875,-376,-1029,-567,-327,299,15,-243
0,8820299,217,-1875,-376,-1029,-567,-327,299,15,-243
0,8820305,217,-1875,-376,-1029,-567,-327,299,15,-243
0,8820312,217,-1875,-376,-1029,-567,-327,299,15,-243
0,8820319,221,-1870,-373,-1029,-566,-325,299,15,-243
0,8820327,221,-1870,-373,-1029,-566,-325,299,15,-243
0,8820335,222,-1873,-374,-1023,-567,-326,299,15,-243
0,8820343,222,-1873,-374,-1023,-567,-326,299,15,-243
0,8820353,225,-1874,-376,-1029,-574,-326,299,15,-243
0,8820366,225,-1874,-376,-1029,-574,-326,299,15,-243
0,8820375,217,-1873,-381,-1025,-566,-323,299,15,-243
0,8820385,217,-1873,-381,-1025,-566,-323,299,15,-243
0,8820401,218,-1876,-372,-1026,-571,-323,305,21,-251
0,8820413,219,-1874,-374,-1032,-566,-324,305,21,-251
0,8820424,219,-1874,-374,-1032,-566,-324,305,21,-251
0,8820436,215,-1874,-377,-1027,-562,-337,305,21,-251
0,8820452,215,-1874,-377,-1027,-562,-337,305,21,-251
0,8820465,220,-1874,-378,-1027,-561,-324,305,21,-251
0,8820475,222,-1873,-380,-1031,-570,-322,305,21,-251
0,8820489,222,-1873,-380,-1031,-570,-322,305,21,-251
0,8820502,217,-1874,-379,-1032,-566,-326,305,21,-251
0,8820515,221,-1875,-371,-1023,-568,-326,301,19,-253
0,8820526,221,-1875,-371,-1023,-568,-326,301,19,-253
0,8820538,219,-1871,-374,-1024,-571,-329,301,19,-253
0,8820550,219,-1871,-374,-1024,-571,-329,301,19,-253
0,8820563,218,-1873,-374,-1036,-567,-322,301,19,-253
0,8820573,217,-1873,-375,-1032,-569,-320,301,19,-253
0,8820587,217,-1873,-375,-1032,-569,-320,301,19,-253
0,8820598,220,-1871,-372,-1025,-565,-325,301,19,-253
0,8820610,220,-1871,-372,-1025,-565,-325,301,19,-253
0,8820624,216,-1875,-376,-1028,-573,-323,301,19,-253
0,8820637,216,-1873,-375,-1028,-569,-329,302,18,-256
0,8820649,216,-1873,-375,-1028,-569,-329,302,18,-256
0,8820663,223,-1872,-375,-1033,-568,-330,302,18,-256
0,8820676,218,-1874,-372,-1033,-559,-327,302,18,-256
0,8820688,218,-1874,-372,-1033,-559,-327,302,18,-256
0,8820701,221,-1871,-378,-1024,-561,-336,302,18,-256
0,8820714,221,-1874,-376,-1020,-560,-328,302,18,-256
0,8820726,221,-1874,-376,-1020,-560,-328,302,18,-256
0,8820740,216,-1871,-374,-1026,-566,-332,302,18,-256
0,8820748,216,-1871,-374,-1026,-566,-332,302,18,-256
0,8820755,219,-1873,-383,-1030,-569,-335,302,18,-256
0,8820763,219,-1873,-383,-1030,-569,-335,302,18,-256
0,8820772,216,-1874,-378,-1034,-566,-320,302,18,-256
0,8820788,216,-1874,-378,-1034,-566,-320,294,20,-258
0,8820799,217,-1876,-375,-1026,-563,-320,294,20,-258
0,8820809,217,-1876,-375,-1026,-563,-320,294,20,-258
0,8820823,216,-1876,-376,-1035,-566,-319,294,20,-258
0,8820835,218,-1872,-375,-1043,-563,-322,294,20,-258
0,8820848,218,-1872,-375,-1043,-563,-322,294,20,-258
0,8820859,223,-1875,-378,-1033,-565,-324,294,20,-258
0,8820872,223,-1875,-378,-1033,-565,-324,294,20,-258
0,8820886,221,-1874,-375,-1023,-566,-322,294,20,-258
0,8820897,221,-1873,-381,-1031,-565,-323,296,24,-248
0,8820910,221,-1873,-381,-1031,-565,-323,296,24,-248
0,8820923,222,-1874,-380,-1031,-562,-331,296,24,-248
0,8820936,221,-1875,-373,-1025,-566,-332,296,24,-248
0,8820948,221,-1875,-373,-1025,-566,-332,296,24,-248
0,8820961,219,-1875,-375,-1036,-569,-330,296,24,-248
0,8820974,218,-1874,-378,-1041,-568,-330,296,24,-248
0,8820987,218,-1874,-378,-1041,-568,-330,296,24,-248
0,8821000,222,-1876,-379,-1039,-568,-324,296,24,-248
0,8821010,222,-1876,-379,-1039,-568,-324,296,24,-248
0,8821022,216,-1874,-381,-1027,-562,-326,296,24,-248
0,8821035,222,-1870,-377,-1026,-577,-330,288,12,-246
0,8821047,222,-1870,-377,-1026,-577,-330,288,12,-246
0,8821060,214,-1873,-371,-1037,-565,-330,288,12,-246
0,8821073,218,-1873,-371,-1027,-571,-331,288,12,-246
0,8821085,218,-1873,-371,-1027,-571,-331,288,12,-246
0,8821093,218,-1873,-371,-1027,-571,-331,288,12,-246
0,8821101,215,-1875,-379,-1022,-569,-327,288,12,-246
0,8821108,215,-1875,-379,-1022,-569,-327,288,12,-246
0,8821117,217,-1877,-378,-1037,-570,-332,288,12,-246
0,8821125,217,-1877,-378,-1037,-570,-332,288,12,-246
0,8821133,217,-1877,-378,-1037,-570,-332,288,12,-246
0,8821141,217,-1877,-378,-1037,-570,-332,288,12,-246
0,8821149,217,-1877,-378,-1037,-570,-332,288,12,-246
0,8821157,219,-1873,-374,-1027,-573,-326,295,13,-247
0,8821166,219,-1873,-374,-1027,-573,-326,295,13,-247
0,8821177,220,-1873,-376,-1030,-567,-325,295,13,-247
0,8821190,220,-1873,-376,-1030,-567,-325,295,13,-247
0,8821203,219,-1874,-380,-1026,-570,-323,295,13,-247
0,8821217,214,-1874,-381,-1036,-565,-334,295,13,-247
0,8821227,214,-1874,-381,-1036,-565,-334,295,13,-247
0,8821240,215,-1874,-378,-1033,-568,-327,295,13,-247
0,8821252,215,-1874,-378,-1033,-568,-327,295,13,-247
0,8821262,216,-1873,-373,-1029,-566,-331,295,13,-247
0,8821276,219,-1876,-378,-1033,-571,-326,295,13,-247
0,8821289,219,-1876,-378,-1033,-571,-326,295,13,-247
0,8821301,222,-1875,-377,-1030,-572,-329,299,19,-247
0,8821310,222,-1875,-377,-1030,-572,-329,299,19,-247
0,8821318,217,-1873,-380,-1026,-570,-332,299,19,-247
0,8821326,217,-1873,-380,-1026,-570,-332,299,19,-247
0,8821331,217,-1873,-380,-1026,-570,-332,299,19,-247
0,8821339,221,-1870,-376,-1035,-568,-327,299,19,-247
0,8821344,221,-1870,-376,-1035,-568,-327,299,19,-247
0,8821352,221,-1870,-376,-1035,-568,-327,299,19,-247
0,8821358,216,-1874,-382,-1028,-562,-328,299,19,-247
0,8821364,216,-1874,-382,-1028,-562,-328,299,19,-247
0,8821371,216,-1874,-382,-1028,-562,-328,299,19,-247
0,8821380,215,-1876,-376,-1022,-562,-340,299,19,-247
0,8821386,215,-1876,-376,-1022,-562,-340,299,19,-247
0,8821393,215,-1876,-376,-1022,-562,-340,299,19,-247
0,8821400,217,-1878,-379,-1032,-571,-335,299,19,-247
0,8821407,217,-1878,-379,-1032,-571,-335,299,19,-247
0,8821414,217,-1876,-374,-1031,-572,-332,285,17,-251
0,8821422,217,-1876,-374,-1031,-572,-332,285,17,-251
0,8821428,217,-1876,-374,-1031,-572,-332,285,17,-251
0,8821434,220,-1879,-370,-1021,-576,-330,285,17,-251
0,8821440,220,-1879,-370,-1021,-576,-330,285,17,-251
0,8821445,220,-1879,-370,-1021,-576,-330,285,17,-251
0,8821453,220,-1879,-370,-1021,-576,-330,285,17,-251
0,8821460,224,-1873,-379,-1019,-573,-327,285,17,-251
0,8821469,224,-1873,-379,-1019,-573,-327,285,17,-251
0,8821477,224,-1868,-377,-1021,-561,-332,285,17,-251
0,8821483,224,-1868,-377,-1021,-561,-332,285,17,-251
0,8821490,224,-1868,-377,-1021,-561,-332,285,17,-251
0,8821495,221,-1871,-381,-1027,-561,-328,285,17,-251
0,8821502,221,-1871,-381,-1027,-561,-328,285,17,-251
0,8821511,221,-1871,-381,-1027,-561,-328,285,17,-251
0,8821519,218,-1873,-379,-1026,-566,-324,285,17,-251
0,8821526,218,-1873,-379,-1026,-566,-324,285,17,-251
0,8821533,223,-1877,-374,-1030,-566,-326,285,17,-251
0,8821541,223,-1877,-374,-1030,-566,-326,290,24,-246
0,8821548,223,-1877,-374,-1030,-566,-326,290,24,-246
0,8821556,216,-1876,-371,-1026,-569,-325,290,24,-246
0,8821562,216,-1876,-371,-1026,-569,-325,290,24,-246
0,8821569,216,-1876,-371,-1026,-569,-325,290,24,-246
0,8821575,225,-1876,-374,-1025,-572,-325,290,24,-246
0,8821582,225,-1876,-374,-1025,-572,-325,290,24,-246
0,8821590,225,-1876,-374,-1025,-572,-325,290,24,-246
0,8821598,221,-1874,-377,-1032,-571,-321,290,24,-246
0,8821605,221,-1874,-377,-1032,-571,-321,290,24,-246
0,8821611,221,-1874,-377,-1032,-571,-321,290,24,-246
0,8821618,221,-1874,-378,-1033,-568,-322,290,24,-246
