imu,time,ax,ay,az,gx,gy,gz,mx,my,mz
2,5602849,-3472,-1688,-554,-157,-235,-85,261,169,-283
2,5602854,-3472,-1688,-554,-157,-235,-85,261,169,-283
2,5602863,-3473,-1691,-556,-161,-241,-83,261,169,-283
2,5602868,-3473,-1691,-556,-161,-241,-83,261,169,-283
2,5602873,-3473,-1691,-556,-161,-241,-83,261,169,-283
2,5602878,-3472,-1693,-556,-164,-239,-85,261,169,-283
2,5602883,-3472,-1693,-556,-164,-239,-85,261,169,-283
2,5602889,-3472,-1693,-556,-164,-239,-85,261,169,-283
2,5602894,-3472,-1693,-556,-164,-239,-85,261,169,-283
2,5602899,-3468,-1693,-556,-168,-239,-81,261,169,-283
2,5602905,-3468,-1693,-556,-168,-239,-81,261,169,-283
2,5602909,-3468,-1693,-556,-168,-239,-81,261,169,-283
2,5602914,-3468,-1693,-556,-168,-239,-81,261,169,-283
2,5602919,-3467,-1692,-556,-162,-245,-86,263,157,-283
2,5602924,-3467,-1692,-556,-162,-245,-86,263,157,-283
2,5602929,-3467,-1692,-556,-162,-245,-86,263,157,-283
2,5602934,-3467,-1692,-556,-162,-245,-86,263,157,-283
2,5602939,-3469,-1693,-550,-165,-241,-83,263,157,-283
2,5602945,-3469,-1693,-550,-165,-241,-83,263,157,-283
2,5602951,-3469,-1693,-550,-165,-241,-83,263,157,-283
2,5602956,-3469,-1693,-550,-165,-241,-83,263,157,-283
2,5602961,-3472,-1692,-555,-155,-237,-80,263,157,-283
2,5602966,-3472,-1692,-555,-155,-237,-80,263,157,-283
2,5602971,-3472,-1692,-555,-155,-237,-80,263,157,-283
2,5602976,-3472,-1692,-555,-155,-237,-80,263,157,-283
2,5602982,-3467,-1694,-558,-157,-231,-90,263,157,-283
2,5602988,-3467,-1694,-558,-157,-231,-90,263,157,-283
2,5602993,-3467,-1694,-558,-157,-231,-90,263,157,-283
2,5602999,-3471,-1694,-556,-164,-235,-85,263,157,-283
2,5603004,-3471,-1694,-556,-164,-235,-85,263,157,-283
2,5603010,-3471,-1694,-556,-164,-235,-85,263,157,-283
2,5603015,-3471,-1694,-556,-164,-235,-85,263,157,-283
2,5603020,-3474,-1694,-558,-159,-239,-84,263,157,-283
2,5603026,-3474,-1694,-558,-159,-239,-84,263,157,-283
2,5603032,-3474,-1694,-558,-159,-239,-84,263,157,-283
2,5603038,-3474,-1694,-558,-159,-239,-84,263,157,-283
2,5603043,-3472,-1690,-554,-164,-242,-85,256,166,-286
2,5603049,-3472,-1690,-554,-164,-242,-85,256,166,-286
2,5603056,-3472,-1690,-554,-164,-242,-85,256,166,-286
2,5603062,-3471,-1696,-551,-167,-232,-76,256,166,-286
2,5603068,-3471,-1696,-551,-167,-232,-76,256,166,-286
2,5603074,-3471,-1696,-551,-167,-232,-76,256,166,-286
2,5603080,-3471,-1694,-555,-163,-234,-85,256,166,-286
2,5603085,-3471,-1694,-555,-163,-234,-85,256,166,-286
2,5603091,-3471,-1694,-555,-163,-234,-85,256,166,-286
2,5603096,-3471,-1694,-555,-163,-234,-85,256,166,-286
2,5603102,-3475,-1693,-555,-167,-237,-94,256,166,-286
2,5603108,-3475,-1693,-555,-167,-237,-94,256,166,-286
2,5603113,-3475,-1693,-555,-167,-237,-94,256,166,-286
2,5603120,-3474,-1691,-555,-160,-239,-87,256,166,-286
2,5603128,-3474,-1691,-555,-160,-239,-87,256,166,-286
2,5603132,-3474,-1691,-555,-160,-239,-87,256,166,-286
2,5603139,-3468,-1693,-554,-161,-246,-88,256,166,-286
2,5603145,-3468,-1693,-554,-161,-246,-88,256,166,-286
2,5603150,-3468,-1693,-554,-161,-246,-88,256,166,-286
2,5603158,-3468,-1693,-554,-161,-246,-88,256,166,-286
2,5603164,-3471,-1692,-557,-164,-245,-89,256,166,-286
2,5603172,-3471,-1692,-557,-164,-245,-89,256,166,-286
2,5603178,-3468,-1691,-555,-168,-246,-84,256,166,-286
2,5603185,-3468,-1691,-555,-168,-246,-84,272,166,-286
2,5603192,-3468,-1691,-555,-168,-246,-84,272,166,-286
2,5603200,-3472,-1690,-554,-160,-244,-90,272,166,-286
2,5603207,-3472,-1690,-554,-160,-244,-90,272,166,-286
2,5603213,-3472,-1690,-554,-160,-244,-90,272,166,-286
2,5603220,-3471,-1691,-559,-157,-238,-89,272,166,-286
2,5603227,-3471,-1691,-559,-157,-238,-89,272,166,-286
2,5603233,-3471,-1691,-559,-157,-238,-89,272,166,-286
2,5603240,-3469,-1693,-558,-163,-238,-84,272,166,-286
2,5603249,-3469,-1693,-558,-163,-238,-84,272,166,-286
2,5603256,-3469,-1693,-558,-163,-238,-84,272,166,-286
2,5603262,-3471,-1693,-553,-162,-241,-86,272,166,-286
2,5603267,-3471,-1693,-553,-162,-241,-86,272,166,-286
2,5603273,-3471,-1693,-553,-162,-241,-86,272,166,-286
2,5603280,-3470,-1693,-560,-163,-239,-90,272,166,-286
2,5603289,-3470,-1693,-560,-163,-239,-90,272,166,-286
2,5603296,-3470,-1693,-560,-163,-239,-90,272,166,-286
2,5603304,-3470,-1691,-556,-162,-236,-92,266,166,-290
2,5603310,-3470,-1691,-556,-162,-236,-92,266,166,-290
2,5603315,-3470,-1691,-556,-162,-236,-92,266,166,-290
2,5603322,-3471,-1692,-556,-159,-243,-88,266,166,-290
2,5603331,-3471,-1692,-556,-159,-243,-88,266,166,-290
2,5603339,-3469,-1693,-555,-158,-242,-85,266,166,-290
2,5603347,-3469,-1693,-555,-158,-242,-85,266,166,-290
2,5603354,-3469,-1693,-555,-158,-242,-85,266,166,-290
2,5603359,-3472,-1693,-551,-162,-235,-80,266,166,-290
2,5603364,-3472,-1693,-551,-162,-235,-80,266,166,-290
2,5603369,-3472,-1693,-551,-162,-235,-80,266,166,-290
2,5603377,-3472,-1693,-551,-162,-235,-80,266,166,-290
2,5603383,-3466,-1691,-556,-166,-232,-86,266,166,-290
2,5603391,-3466,-1691,-556,-166,-232,-86,266,166,-290
2,5603398,-3472,-1694,-560,-166,-237,-79,266,166,-290
2,5603407,-3472,-1694,-560,-166,-237,-79,266,166,-290
2,5603412,-3472,-1694,-560,-166,-237,-79,266,166,-290
2,5603427,-3470,-1695,-554,-167,-245,-82,264,158,-286
2,5603438,-3471,-1694,-552,-161,-240,-82,264,158,-286
2,5603450,-3471,-1694,-552,-161,-240,-82,264,158,-286
2,5603464,-3472,-1691,-554,-171,-242,-83,264,158,-286
2,5603477,-3472,-1691,-554,-171,-242,-83,264,158,-286
2,5603488,-3470,-1691,-556,-166,-244,-88,264,158,-286
2,5603501,-3470,-1695,-556,-166,-248,-83,264,158,-286
2,5603512,-3470,-1695,-556,-166,-248,-83,264,158,-286
2,5603521,-3469,-1691,-554,-152,-240,-85,264,158,-286
2,5603531,-3469,-1691,-554,-152,-240,-85,264,158,-286
2,5603539,-3471,-1693,-550,-161,-240,-87,263,157,-291
2,5603548,-3471,-1693,-550,-161,-240,-87,263,157,-291
2,5603557,-3471,-1693,-550,-161,-240,-87,263,157,-291
2,5603567,-3469,-1692,-554,-164,-241,-85,263,157,-291
2,5603581,-3472,-1691,-554,-157,-241,-85,263,157,-291
2,5603594,-3472,-1691,-554,-157,-241,-85,263,157,-291
2,5603606,-3472,-1693,-555,-161,-244,-85,263,157,-291
2,5603618,-3472,-1693,-555,-161,-244,-85,263,157,-291
2,5603630,-3470,-1695,-557,-162,-235,-86,263,157,-291
2,5603643,-3471,-1692,-558,-164,-235,-86,263,157,-291
2,5603655,-3471,-1692,-558,-164,-235,-86,263,157,-291
2,5603667,-3470,-1690,-558,-158,-241,-81,265,161,-287
2,5603681,-3469,-1694,-555,-163,-237,-73,265,161,-287
2,5603695,-3469,-1694,-555,-163,-237,-73,265,161,-287
2,5603708,-3470,-1694,-559,-168,-243,-88,265,161,-287
2,5603719,-3470,-1690,-559,-168,-246,-92,265,161,-287
2,5603732,-3470,-1690,-559,-168,-246,-92,265,161,-287
2,5603744,-3469,-1694,-555,-164,-242,-82,265,161,-287
2,5603758,-3469,-1694,-555,-164,-242,-82,265,161,-287
2,5603769,-3470,-1691,-557,-167,-241,-88,265,161,-287
2,5603780,-3470,-1693,-557,-165,-236,-89,265,161,-287
2,5603790,-3470,-1693,-557,-165,-236,-89,265,161,-287
2,5603801,-3473,-1692,-553,-163,-242,-82,264,160,-288
2,5603814,-3473,-1692,-553,-163,-242,-82,264,160,-288
2,5603821,-3469,-1691,-555,-166,-244,-83,264,160,-288
2,5603829,-3469,-1691,-555,-166,-244,-83,264,160,-288
2,5603838,-3469,-1691,-555,-166,-244,-83,264,160,-288
2,5603847,-3470,-1693,-552,-164,-242,-88,264,160,-288
2,5603855,-3470,-1693,-552,-164,-242,-88,264,160,-288
2,5603863,-3469,-1692,-553,-160,-238,-82,264,160,-288
2,5603870,-3469,-1692,-553,-160,-238,-82,264,160,-288
2,5603879,-3468,-1692,-555,-162,-245,-77,264,160,-288
2,5603888,-3468,-1692,-555,-162,-245,-77,264,160,-288
2,5603897,-3468,-1692,-555,-162,-245,-77,264,160,-288
2,5603905,-3471,-1694,-559,-163,-241,-83,264,160,-288
2,5603913,-3471,-1694,-559,-163,-241,-83,264,160,-288
2,5603921,-3469,-1694,-554,-159,-240,-82,261,161,-287
2,5603929,-3469,-1694,-554,-159,-240,-82,261,161,-287
2,5603937,-3469,-1694,-554,-159,-240,-82,261,161,-287
2,5603945,-3469,-1692,-554,-157,-237,-81,261,161,-287
2,5603953,-3469,-1692,-554,-157,-237,-81,261,161,-287
2,5603960,-3470,-1693,-556,-155,-235,-82,261,161,-287
2,5603968,-3470,-1693,-556,-155,-235,-82,261,161,-287
2,5603975,-3470,-1693,-556,-155,-235,-82,261,161,-287
2,5603984,-3470,-1694,-554,-160,-246,-85,261,161,-287
2,5603990,-3470,-1694,-554,-160,-246,-85,261,161,-287
2,5603999,-3470,-1691,-558,-162,-238,-81,261,161,-287
2,5604006,-3470,-1691,-558,-162,-238,-81,261,161,-287
2,5604016,-3470,-1691,-558,-162,-238,-81,261,161,-287
2,5604025,-3469,-1693,-555,-162,-241,-82,261,161,-287
2,5604034,-3469,-1693,-555,-162,-241,-82,261,161,-287
2,5604044,-3468,-1693,-553,-161,-242,-79,258,166,-286
2,5604052,-3468,-1693,-553,-161,-242,-79,258,166,-286
2,5604061,-3471,-1696,-553,-161,-242,-80,258,166,-286
2,5604069,-3471,-1696,-553,-161,-242,-80,258,166,-286
2,5604077,-3471,-1696,-553,-161,-242,-80,258,166,-286
2,5604086,-3468,-1690,-556,-165,-248,-87,258,166,-286
2,5604101,-3471,-1693,-564,-169,-243,-86,258,166,-286
2,5604115,-3471,-1693,-564,-169,-243,-86,258,166,-286
2,5604124,-3472,-1692,-552,-166,-238,-88,258,166,-286
2,5604135,-3472,-1692,-552,-166,-238,-88,258,166,-286
2,5604149,-3471,-1692,-556,-162,-238,-87,258,166,-286
2,5604161,-3470,-1693,-557,-162,-246,-91,262,156,-282
2,5604171,-3470,-1693,-557,-162,-246,-91,262,156,-282
2,5604185,-3469,-1692,-550,-166,-246,-94,262,156,-282
2,5604199,-3469,-1692,-550,-166,-246,-94,262,156,-282
2,5604212,-3468,-1695,-555,-162,-241,-85,262,156,-282
2,5604221,-3469,-1694,-561,-167,-241,-84,262,156,-282
2,5604235,-3469,-1694,-561,-167,-241,-84,262,156,-282
2,5604246,-3468,-1694,-560,-157,-239,-81,262,156,-282
2,5604259,-3470,-1694,-553,-160,-242,-86,262,156,-282
2,5604271,-3470,-1694,-553,-160,-242,-86,262,156,-282
2,5604284,-3470,-1694,-557,-158,-238,-84,259,161,-289
2,5604296,-3470,-1694,-557,-158,-238,-84,259,161,-289
2,5604308,-3469,-1693,-560,-165,-235,-76,259,161,-289
2,5604322,-3467,-1691,-554,-165,-235,-88,259,161,-289
2,5604335,-3467,-1691,-554,-165,-235,-88,259,161,-289
2,5604347,-3470,-1690,-553,-162,-229,-86,259,161,-289
2,5604359,-3470,-1690,-553,-162,-229,-86,259,161,-289
2,5604372,-3469,-1689,-556,-163,-250,-89,259,161,-289
2,5604385,-3468,-1694,-554,-165,-241,-89,259,161,-289
2,5604398,-3468,-1694,-554,-165,-241,-89,259,161,-289
2,5604409,-3473,-1693,-556,-165,-241,-89,259,161,-289
2,5604421,-3471,-1691,-554,-159,-234,-86,262,160,-290
2,5604428,-3471,-1691,-554,-159,-234,-86,262,160,-290
2,5604435,-3471,-1691,-554,-159,-234,-86,262,160,-290
2,5604444,-3470,-1693,-557,-162,-240,-91,262,160,-290
2,5604451,-3470,-1693,-557,-162,-240,-91,262,160,-290
2,5604457,-3470,-1693,-557,-162,-240,-91,262,160,-290
2,5604464,-3470,-1693,-558,-155,-244,-90,262,160,-290
2,5604471,-3470,-1693,-558,-155,-244,-90,262,160,-290
2,5604478,-3470,-1693,-558,-155,-244,-90,262,160,-290
2,5604487,-3468,-1692,-557,-157,-245,-89,262,160,-290
2,5604495,-3468,-1692,-557,-157,-245,-89,262,160,-290
2,5604502,-3470,-1695,-556,-162,-242,-79,262,160,-290
2,5604508,-3470,-1695,-556,-162,-242,-79,262,160,-290
2,5604516,-3470,-1695,-556,-162,-242,-79,262,160,-290
2,5604524,-3471,-1692,-553,-164,-243,-88,262,160,-290
2,5604531,-3471,-1692,-553,-164,-243,-88,262,160,-290
2,5604536,-3471,-1692,-553,-164,-243,-88,262,160,-290
2,5604540,-3470,-1692,-552,-159,-238,-82,258,160,-288
2,5604545,-3470,-1692,-552,-159,-238,-82,258,160,-288
2,5604550,-3470,-1692,-552,-159,-238,-82,258,160,-288
2,5604556,-3470,-1692,-552,-159,-238,-82,258,160,-288
2,5604562,-3472,-1690,-557,-158,-234,-84,258,160,-288
2,5604571,-3472,-1690,-557,-158,-234,-84,258,160,-288
2,5604579,-3472,-1690,-557,-158,-234,-84,258,160,-288
2,5604586,-3472,-1693,-554,-162,-241,-88,258,160,-288
2,5604592,-3472,-1693,-554,-162,-241,-88,258,160,-288
2,5604598,-3472,-1693,-554,-162,-241,-88,258,160,-288
2,5604606,-3472,-1690,-556,-164,-244,-82,258,160,-288
2,5604613,-3472,-1690,-556,-164,-244,-82,258,160,-288
2,5604619,-3472,-1690,-556,-164,-244,-82,258,160,-288
2,5604624,-3469,-1692,-557,-171,-246,-82,258,160,-288
2,5604632,-3469,-1692,-557,-171,-246,-82,258,160,-288
2,5604639,-3469,-1693,-557,-165,-247,-88,258,160,-288
2,5604646,-3469,-1693,-557,-165,-247,-88,258,160,-288
2,5604654,-3469,-1693,-557,-165,-247,-88,258,160,-288
2,5604661,-3471,-1693,-550,-161,-239,-85,254,162,-288
2,5604667,-3471,-1693,-550,-161,-239,-85,254,162,-288
2,5604673,-3471,-1693,-550,-161,-239,-85,254,162,-288
2,5604680,-3468,-1693,-554,-156,-241,-84,254,162,-288
2,5604687,-3468,-1693,-554,-156,-241,-84,254,162,-288
2,5604696,-3468,-1693,-554,-156,-241,-84,254,162,-288
2,5604703,-3471,-1695,-555,-160,-243,-83,254,162,-288
2,5604710,-3471,-1695,-555,-160,-243,-83,254,162,-288
2,5604715,-3471,-1695,-555,-160,-243,-83,254,162,-288
2,5604720,-3470,-1693,-558,-163,-243,-82,254,162,-288
2,5604725,-3470,-1693,-558,-163,-243,-82,254,162,-288
2,5604733,-3470,-1693,-558,-163,-243,-82,254,162,-288
2,5604742,-3469,-1695,-561,-157,-250,-82,254,162,-288
2,5604748,-3469,-1695,-561,-157,-250,-82,254,162,-288
2,5604756,-3469,-1695,-561,-157,-250,-82,254,162,-288
2,5604762,-3471,-1694,-552,-162,-243,-85,254,162,-288
2,5604769,-3471,-1694,-552,-162,-243,-85,254,162,-288
2,5604775,-3471,-1694,-552,-162,-243,-85,254,162,-288
2,5604784,-3472,-1693,-551,-163,-234,-85,259,159,-287
2,5604790,-3472,-1693,-551,-163,-234,-85,259,159,-287
2,5604798,-3472,-1693,-551,-163,-234,-85,259,159,-287
2,5604804,-3470,-1693,-554,-161,-244,-84,259,159,-287
2,5604812,-3470,-1693,-554,-161,-244,-84,259,159,-287
2,5604817,-3470,-1693,-554,-161,-244,-84,259,159,-287
2,5604822,-3470,-1693,-556,-163,-245,-88,259,159,-287
2,5604828,-3470,-1693,-556,-163,-245,-88,259,159,-287
2,5604833,-3470,-1693,-556,-163,-245,-88,259,159,-287
2,5604837,-3470,-1693,-556,-163,-245,-88,259,159,-287
2,5604843,-3471,-1692,-553,-164,-235,-81,259,159,-287
2,5604850,-3471,-1692,-553,-164,-235,-81,259,159,-287
2,5604858,-3471,-1692,-553,-164,-235,-81,259,159,-287
2,5604866,-3467,-1693,-554,-158,-238,-85,259,159,-287
2,5604873,-3467,-1693,-554,-158,-238,-85,259,159,-287
2,5604880,-3467,-1693,-554,-158,-238,-85,259,159,-287
2,5604886,-3471,-1692,-555,-161,-241,-92,259,159,-287
2,5604893,-3471,-1692,-555,-161,-241,-92,259,159,-287
2,5604900,-3471,-1691,-549,-168,-239,-89,258,158,-287
2,5604909,-3471,-1691,-549,-168,-239,-89,258,158,-282
2,5604915,-3471,-1691,-549,-168,-239,-89,258,158,-282
2,5604922,-3470,-1690,-554,-165,-239,-89,258,158,-282
2,5604929,-3470,-1690,-554,-165,-239,-89,258,158,-282
2,5604938,-3470,-1690,-554,-165,-239,-89,258,158,-282
2,5604943,-3471,-1692,-557,-163,-234,-85,258,158,-282
2,5604951,-3471,-1692,-557,-163,-234,-85,258,158,-282
2,5604959,-3471,-1692,-557,-163,-234,-85,258,158,-282
2,5604965,-3473,-1691,-555,-157,-243,-86,258,158,-282
2,5604971,-3473,-1691,-555,-157,-243,-86,258,158,-282
2,5604976,-3473,-1691,-555,-157,-243,-86,258,158,-282
2,5604983,-3471,-1695,-558,-159,-238,-85,258,158,-282
2,5604989,-3471,-1695,-558,-159,-238,-85,258,158,-282
2,5604997,-3471,-1695,-558,-159,-238,-85,258,158,-282
2,5605004,-3474,-1692,-556,-164,-249,-87,258,158,-282
2,5605010,-3474,-1692,-556,-164,-249,-87,258,158,-282
2,5605017,-3474,-1692,-556,-164,-249,-87,258,158,-282
2,5605025,-3472,-1694,-550,-165,-241,-79,258,158,-282
2,5605032,-3472,-1694,-550,-165,-241,-79,258,158,-282
2,5605040,-3472,-1694,-550,-165,-241,-79,258,158,-282
2,5605047,-3473,-1692,-552,-161,-236,-86,259,165,-297
2,5605053,-3473,-1692,-552,-161,-236,-86,259,165,-297
2,5605060,-3471,-1692,-557,-164,-241,-85,259,165,-297
2,5605068,-3471,-1692,-557,-164,-241,-85,259,165,-297
2,5605074,-3471,-1692,-557,-164,-241,-85,259,165,-297
2,5605082,-3472,-1689,-555,-162,-243,-85,259,165,-297
2,5605090,-3472,-1689,-555,-162,-243,-85,259,165,-297
2,5605097,-3472,-1689,-555,-162,-243,-85,259,165,-297
2,5605103,-3472,-1691,-554,-161,-239,-81,259,165,-297
2,5605110,-3472,-1691,-554,-161,-239,-81,259,165,-297
2,5605117,-3472,-1691,-554,-161,-239,-81,259,165,-297
2,5605125,-3470,-1692,-553,-154,-239,-85,259,165,-297
2,5605131,-3470,-1692,-553,-154,-239,-85,259,165,-297
2,5605138,-3470,-1692,-553,-154,-239,-85,259,165,-297
2,5605144,-3472,-1691,-556,-165,-247,-85,259,165,-297
2,5605152,-3472,-1691,-556,-165,-247,-85,259,165,-297
2,5605157,-3472,-1691,-556,-165,-247,-85,259,165,-297
2,5605166,-3471,-1692,-554,-167,-236,-86,261,165,-287
2,5605174,-3471,-1692,-554,-167,-236,-86,261,165,-287
2,5605181,-3472,-1693,-552,-159,-231,-87,261,165,-287
2,5605188,-3472,-1693,-552,-159,-231,-87,261,165,-287
2,5605195,-3472,-1693,-552,-159,-231,-87,261,165,-287
2,5605202,-3470,-1693,-556,-158,-233,-89,261,165,-287
2,5605208,-3470,-1693,-556,-158,-233,-89,261,165,-287
2,5605216,-3470,-1693,-556,-158,-233,-89,261,165,-287
2,5605224,-3471,-1691,-559,-159,-231,-84,261,165,-287
2,5605230,-3471,-1691,-559,-159,-231,-84,261,165,-287
2,5605238,-3471,-1691,-559,-159,-231,-84,261,165,-287
2,5605245,-3470,-1693,-551,-163,-233,-81,261,165,-287
2,5605252,-3470,-1693,-551,-163,-233,-81,261,165,-287
2,5605259,-3470,-1693,-551,-163,-233,-81,261,165,-287
2,5605265,-3469,-1691,-552,-160,-231,-86,261,165,-287
2,5605270,-3469,-1691,-552,-160,-231,-86,261,165,-287
2,5605275,-3469,-1691,-552,-160,-231,-86,261,165,-287
2,5605283,-3472,-1691,-553,-162,-238,-83,259,161,-285
2,5605291,-3472,-1691,-553,-162,-238,-83,259,161,-285
2,5605299,-3472,-1691,-553,-162,-238,-83,259,161,-285
2,5605306,-3470,-1693,-556,-156,-241,-90,259,161,-285
2,5605312,-3470,-1693,-556,-156,-241,-90,259,161,-285
2,5605319,-3470,-1693,-556,-156,-241,-90,259,161,-285
2,5605325,-3472,-1692,-554,-157,-242,-85,259,161,-285
2,5605334,-3472,-1692,-554,-157,-242,-85,259,161,-285
2,5605341,-3470,-1692,-556,-160,-236,-92,259,161,-285
2,5605348,-3470,-1692,-556,-160,-236,-92,259,161,-285
2,5605354,-3470,-1692,-556,-160,-236,-92,259,161,-285
2,5605360,-3470,-1692,-556,-160,-236,-92,259,161,-285
2,5605368,-3472,-1692,-555,-163,-237,-86,259,161,-285
2,5605376,-3472,-1692,-555,-163,-237,-86,259,161,-285
2,5605383,-3472,-1693,-561,-163,-240,-90,259,161,-285
2,5605389,-3472,-1693,-561,-163,-240,-90,259,161,-285
2,5605396,-3472,-1693,-561,-163,-240,-90,259,161,-285
2,5605401,-3470,-1694,-555,-161,-236,-89,256,160,-278
2,5605408,-3470,-1694,-555,-161,-236,-89,256,160,-278
2,5605416,-3470,-1694,-555,-161,-236,-89,256,160,-278
2,5605425,-3472,-1693,-552,-166,-245,-90,256,160,-278
2,5605437,-3472,-1693,-552,-166,-245,-90,256,160,-278
2,5605449,-3470,-1694,-552,-161,-246,-89,256,160,-278
2,5605462,-3469,-1692,-556,-158,-248,-84,256,160,-278
2,5605476,-3469,-1692,-556,-158,-248,-84,256,160,-278
2,5605487,-3471,-1691,-555,-162,-245,-89,256,160,-278
2,5605499,-3471,-1691,-555,-162,-245,-89,256,160,-278
2,5605513,-3469,-1692,-556,-160,-242,-92,256,160,-278
2,5605526,-3472,-1691,-554,-163,-242,-79,266,160,-284
2,5605534,-3472,-1691,-554,-163,-242,-79,266,160,-284
2,5605542,-3470,-1691,-555,-160,-247,-86,266,160,-284
2,5605550,-3470,-1691,-555,-160,-247,-86,266,160,-284
2,5605558,-3470,-1691,-555,-160,-247,-86,266,160,-284
2,5605567,-3472,-1692,-557,-166,-243,-83,266,160,-284
2,5605579,-3472,-1692,-557,-166,-243,-83,266,160,-284
2,5605588,-3473,-1691,-558,-167,-242,-85,266,160,-284
2,5605597,-3473,-1691,-558,-167,-242,-85,266,160,-284
2,5605607,-3472,-1691,-562,-161,-243,-84,266,160,-284
2,5605616,-3472,-1691,-562,-161,-243,-84,266,160,-284
2,5605624,-3473,-1695,-559,-163,-238,-84,266,160,-284
2,5605637,-3473,-1695,-559,-163,-238,-84,266,160,-284
2,5605646,-3473,-1690,-555,-166,-239,-77,258,156,-282
2,5605658,-3473,-1690,-555,-166,-239,-77,258,156,-282
2,5605671,-3471,-1694,-553,-161,-240,-78,258,156,-282
2,5605684,-3474,-1693,-553,-164,-234,-85,258,156,-282
2,5605696,-3474,-1693,-553,-164,-234,-85,258,156,-282
2,5605709,-3473,-1695,-553,-160,-230,-79,258,156,-282
2,5605722,-3472,-1694,-552,-157,-240,-85,258,156,-282
2,5605734,-3472,-1694,-552,-157,-240,-85,258,156,-282
2,5605747,-3472,-1693,-558,-158,-243,-86,258,156,-282
2,5605761,-3472,-1693,-558,-158,-243,-86,258,156,-282
2,5605772,-3470,-1694,-559,-158,-241,-88,258,156,-282
2,5605784,-3471,-1692,-551,-157,-245,-87,258,160,-286
2,5605796,-3471,-1692,-551,-157,-245,-87,258,160,-286
2,5605810,-3471,-1689,-554,-164,-241,-84,258,160,-286
2,5605817,-3471,-1689,-554,-164,-241,-84,258,160,-286
2,5605825,-3472,-1691,-556,-163,-261,-87,258,160,-286
2,5605834,-3472,-1691,-556,-163,-261,-87,258,160,-286
2,5605843,-3473,-1691,-555,-162,-241,-88,258,160,-286
2,5605852,-3473,-1691,-555,-162,-241,-88,258,160,-286
2,5605859,-3473,-1691,-555,-162,-241,-88,258,160,-286
2,5605868,-3471,-1692,-554,-160,-241,-82,258,160,-286
2,5605878,-3471,-1692,-554,-160,-241,-82,258,160,-286
2,5605888,-3472,-1692,-557,-155,-236,-84,258,160,-286
2,5605896,-3472,-1692,-557,-155,-236,-84,258,160,-286
2,5605904,-3471,-1691,-552,-165,-245,-84,260,162,-280
2,5605912,-3471,-1691,-552,-165,-245,-84,260,162,-280
2,5605920,-3471,-1691,-552,-165,-245,-84,260,162,-280
2,5605928,-3473,-1693,-552,-162,-237,-87,260,162,-280
2,5605936,-3473,-1693,-552,-162,-237,-87,260,162,-280
2,5605944,-3475,-1690,-555,-160,-243,-95,260,162,-280
2,5605951,-3475,-1690,-555,-160,-243,-95,260,162,-280
2,5605959,-3475,-1690,-555,-160,-243,-95,260,162,-280
2,5605968,-3472,-1694,-562,-163,-239,-89,260,162,-280
2,5605977,-3472,-1694,-562,-163,-239,-89,260,162,-280
2,5605986,-3470,-1695,-555,-167,-242,-85,260,162,-280
2,5605995,-3470,-1695,-555,-167,-242,-85,260,162,-280
2,5606004,-3472,-1693,-553,-161,-241,-90,260,162,-280
2,5606013,-3472,-1693,-553,-161,-241,-90,260,162,-280
2,5606023,-3471,-1692,-551,-161,-240,-88,266,164,-288
2,5606032,-3471,-1692,-551,-161,-240,-88,266,164,-288
2,5606040,-3471,-1692,-551,-161,-240,-88,266,164,-288
2,5606053,-3470,-1695,-556,-166,-242,-89,266,164,-288
2,5606065,-3472,-1695,-560,-166,-234,-88,266,164,-288
2,5606077,-3472,-1695,-560,-166,-234,-88,266,164,-288
2,5606089,-3470,-1695,-558,-163,-240,-83,266,164,-288
2,5606102,-3470,-1695,-558,-163,-240,-83,266,164,-288
2,5606112,-3470,-1695,-558,-163,-240,-83,266,164,-288
2,5606125,-3471,-1692,-554,-164,-239,-82,266,164,-288
2,5606133,-3471,-1692,-554,-164,-239,-82,266,164,-288
2,5606146,-3469,-1693,-558,-165,-243,-76,264,162,-292
2,5606159,-3469,-1693,-558,-165,-243,-76,264,162,-292
2,5606172,-3471,-1688,-554,-168,-243,-84,264,162,-292
2,5606182,-3470,-1694,-554,-158,-240,-84,264,162,-292
2,5606194,-3470,-1694,-554,-158,-240,-84,264,162,-292
2,5606208,-3472,-1695,-553,-161,-242,-79,264,162,-292
2,5606220,-3472,-1695,-553,-161,-242,-79,264,162,-292
2,5606232,-3472,-1691,-555,-162,-245,-86,264,162,-292
2,5606245,-3471,-1694,-553,-162,-240,-86,264,162,-292
2,5606259,-3471,-1694,-553,-162,-240,-86,264,162,-292
2,5606272,-3472,-1690,-550,-165,-242,-86,259,161,-289
2,5606283,-3476,-1693,-558,-163,-243,-89,259,161,-289
2,5606296,-3476,-1693,-558,-163,-243,-89,259,161,-289
2,5606308,-3471,-1692,-550,-158,-245,-82,259,161,-289
2,5606321,-3471,-1690,-553,-165,-241,-87,259,161,-289
2,5606332,-3471,-1690,-553,-165,-241,-87,259,161,-289
2,5606345,-3476,-1693,-554,-163,-237,-93,259,161,-289
2,5606356,-3476,-1693,-554,-163,-237,-93,259,161,-289
2,5606367,-3468,-1694,-557,-166,-240,-88,259,161,-289
2,5606378,-3468,-1694,-557,-166,-240,-88,259,161,-289
2,5606390,-3470,-1691,-551,-157,-242,-84,259,161,-289
2,5606401,-3470,-1691,-551,-157,-242,-84,259,161,-289
2,5606413,-3470,-1689,-555,-162,-235,-82,266,156,-284
2,5606426,-3471,-1694,-555,-166,-238,-88,266,156,-284
2,5606437,-3471,-1694,-555,-166,-238,-88,266,156,-284
2,5606444,-3472,-1693,-554,-168,-234,-92,266,156,-284
2,5606449,-3472,-1693,-554,-168,-234,-92,266,156,-284
2,5606454,-3472,-1693,-554,-168,-234,-92,266,156,-284
2,5606460,-3472,-1693,-554,-168,-234,-92,266,156,-284
2,5606465,-3473,-1693,-557,-166,-238,-88,266,156,-284
2,5606473,-3473,-1693,-557,-166,-238,-88,266,156,-284
2,5606480,-3473,-1693,-557,-166,-238,-88,266,156,-284
2,5606488,-3473,-1692,-556,-163,-237,-86,266,156,-284
2,5606493,-3473,-1692,-556,-163,-237,-86,266,156,-284
2,5606499,-3473,-1692,-556,-163,-237,-86,266,156,-284
2,5606506,-3472,-1695,-562,-166,-244,-89,266,156,-284
2,5606514,-3472,-1695,-562,-166,-244,-89,266,156,-284
2,5606521,-3472,-1695,-562,-166,-244,-89,266,156,-284
2,5606529,-3472,-1692,-554,-167,-243,-85,265,161,-285
2,5606534,-3472,-1692,-554,-167,-243,-85,265,161,-285
2,5606539,-3472,-1692,-554,-167,-243,-85,265,161,-285
2,5606544,-3469,-1691,-554,-161,-243,-88,265,161,-285
2,5606549,-3469,-1691,-554,-161,-243,-88,265,161,-285
2,5606555,-3469,-1691,-554,-161,-243,-88,265,161,-285
2,5606562,-3472,-1693,-559,-159,-245,-86,265,161,-285
2,5606567,-3472,-1693,-559,-159,-245,-86,265,161,-285
2,5606575,-3472,-1693,-559,-159,-245,-86,265,161,-285
2,5606581,-3472,-1693,-559,-159,-245,-86,265,161,-285
2,5606589,-3470,-1691,-554,-164,-242,-85,265,161,-285
2,5606594,-3470,-1691,-554,-164,-242,-85,265,161,-285
2,5606599,-3470,-1691,-554,-164,-242,-85,265,161,-285
2,5606607,-3472,-1693,-558,-162,-249,-90,265,161,-285
2,5606616,-3472,-1693,-558,-162,-249,-90,265,161,-285
2,5606624,-3473,-1691,-554,-168,-246,-86,265,161,-285
2,5606630,-3473,-1691,-554,-168,-246,-86,265,161,-285
2,5606637,-3473,-1691,-554,-168,-246,-86,265,161,-285
2,5606644,-3472,-1694,-556,-158,-237,-76,262,160,-286
2,5606649,-3472,-1694,-556,-158,-237,-76,262,160,-286
2,5606658,-3472,-1694,-556,-158,-237,-76,262,160,-286
2,5606664,-3470,-1693,-556,-159,-233,-80,262,160,-286
2,5606672,-3470,-1693,-556,-159,-233,-80,262,160,-286
2,5606680,-3470,-1693,-556,-159,-233,-80,262,160,-286
2,5606686,-3471,-1692,-559,-164,-230,-84,262,160,-286
2,5606693,-3471,-1692,-559,-164,-230,-84,262,160,-286
2,5606702,-3470,-1690,-557,-159,-245,-83,262,160,-286
2,5606708,-3470,-1690,-557,-159,-245,-83,262,160,-286
2,5606715,-3470,-1690,-557,-159,-245,-83,262,160,-286
2,5606723,-3471,-1691,-552,-158,-240,-92,262,160,-286
2,5606730,-3471,-1691,-552,-158,-240,-92,262,160,-286
2,5606736,-3471,-1691,-552,-158,-240,-92,262,160,-286
2,5606743,-3474,-1694,-557,-162,-235,-87,262,160,-286
2,5606750,-3474,-1694,-557,-162,-235,-87,262,160,-286
2,5606758,-3474,-1694,-557,-162,-235,-87,262,160,-286
2,5606765,-3469,-1692,-552,-157,-246,-81,255,163,-281
2,5606773,-3469,-1692,-552,-157,-246,-81,255,163,-281
2,5606780,-3469,-1692,-552,-157,-246,-81,255,163,-281
2,5606787,-3469,-1692,-548,-158,-248,-84,255,163,-281
2,5606793,-3469,-1692,-548,-158,-248,-84,255,163,-281
2,5606800,-3469,-1692,-548,-158,-248,-84,255,163,-281
2,5606807,-3469,-1694,-558,-158,-234,-90,255,163,-281
2,5606813,-3469,-1694,-558,-158,-234,-90,255,163,-281
2,5606818,-3469,-1694,-558,-158,-234,-90,255,163,-281
2,5606824,-3472,-1692,-557,-162,-239,-82,255,163,-281
2,5606830,-3472,-1692,-557,-162,-239,-82,255,163,-281
2,5606835,-3472,-1692,-557,-162,-239,-82,255,163,-281
2,5606840,-3472,-1692,-557,-162,-239,-82,255,163,-281
2,5606846,-3469,-1693,-556,-164,-240,-92,255,163,-281
2,5606853,-3469,-1693,-556,-164,-240,-92,255,163,-281
2,5606860,-3469,-1693,-556,-164,-240,-92,255,163,-281
2,5606866,-3472,-1692,-556,-162,-243,-86,255,163,-281
2,5606875,-3472,-1692,-556,-162,-243,-86,255,163,-281
2,5606882,-3473,-1692,-555,-161,-238,-88,257,159,-289
2,5606890,-3473,-1692,-555,-161,-238,-88,257,159,-289
2,5606897,-3473,-1692,-555,-161,-238,-88,257,159,-289
2,5606902,-3471,-1692,-554,-161,-237,-87,257,159,-289
2,5606909,-3471,-1692,-554,-161,-237,-87,257,159,-289
2,5606916,-3471,-1692,-554,-161,-237,-87,257,159,-289
2,5606923,-3469,-1693,-556,-163,-244,-88,257,159,-289
2,5606929,-3469,-1693,-556,-163,-244,-88,257,159,-289
2,5606935,-3469,-1693,-556,-163,-244,-88,257,159,-289
2,5606942,-3472,-1691,-556,-166,-238,-84,257,159,-289
2,5606949,-3472,-1691,-556,-166,-238,-84,257,159,-289
2,5606956,-3472,-1691,-556,-166,-238,-84,257,159,-289
2,5606963,-3472,-1690,-551,-160,-236,-91,257,159,-289
2,5606970,-3472,-1690,-551,-160,-236,-91,257,159,-289
2,5606977,-3472,-1690,-551,-160,-236,-91,257,159,-289
2,5606984,-3472,-1693,-561,-161,-232,-83,257,159,-289
2,5606990,-3472,-1693,-561,-161,-232,-83,257,159,-289
2,5606995,-3472,-1693,-561,-161,-232,-83,257,159,-289
2,5607001,-3472,-1693,-561,-161,-232,-83,257,159,-289
2,5607008,-3472,-1693,-554,-160,-237,-90,257,159,-289
2,5607015,-3472,-1693,-554,-160,-237,-90,257,159,-289
2,5607021,-3472,-1693,-554,-160,-237,-90,257,159,-289
2,5607028,-3471,-1693,-555,-159,-239,-91,256,158,-288
2,5607034,-3471,-1693,-555,-159,-239,-91,256,158,-288
2,5607042,-3471,-1697,-555,-159,-247,-90,256,158,-288
2,5607050,-3471,-1697,-555,-159,-247,-90,256,158,-288
2,5607057,-3471,-1697,-555,-159,-247,-90,256,158,-288
2,5607064,-3474,-1694,-557,-162,-244,-85,256,158,-288
2,5607070,-3474,-1694,-557,-162,-244,-85,256,158,-288
2,5607076,-3474,-1694,-557,-162,-244,-85,256,158,-288
2,5607085,-3470,-1693,-554,-165,-236,-87,256,158,-288
2,5607093,-3470,-1693,-554,-165,-236,-87,256,158,-288
2,5607100,-3470,-1693,-554,-165,-236,-87,256,158,-288
2,5607107,-3470,-1692,-556,-165,-242,-91,256,158,-288
2,5607114,-3470,-1692,-556,-165,-242,-91,256,158,-288
2,5607120,-3470,-1692,-556,-165,-242,-91,256,158,-288
2,5607128,-3471,-1694,-556,-158,-236,-86,256,158,-288
2,5607134,-3471,-1694,-556,-158,-236,-86,256,158,-288
2,5607142,-3471,-1694,-556,-158,-236,-86,256,158,-288
2,5607148,-3471,-1694,-552,-161,-237,-87,260,164,-284
2,5607155,-3471,-1694,-552,-161,-237,-87,260,164,-284
2,5607162,-3468,-1695,-551,-163,-247,-87,260,164,-284
2,5607169,-3468,-1695,-551,-163,-247,-87,260,164,-284
2,5607176,-3468,-1695,-551,-163,-247,-87,260,164,-284
2,5607184,-3472,-1691,-551,-158,-244,-89,260,164,-284
2,5607191,-3472,-1691,-551,-158,-244,-89,260,164,-284
2,5607197,-3472,-1691,-551,-158,-244,-89,260,164,-284
2,5607203,-3474,-1692,-557,-161,-241,-79,260,164,-284
2,5607211,-3474,-1692,-557,-161,-241,-79,260,164,-284
2,5607217,-3474,-1692,-557,-161,-241,-79,260,164,-284
2,5607224,-3471,-1695,-559,-165,-240,-78,260,164,-284
2,5607230,-3471,-1695,-559,-165,-240,-78,260,164,-284
2,5607235,-3471,-1695,-559,-165,-240,-78,260,164,-284
2,5607243,-3476,-1694,-552,-164,-242,-83,260,164,-284
2,5607251,-3476,-1694,-552,-164,-242,-83,260,164,-284
2,5607260,-3476,-1694,-552,-164,-242,-83,260,164,-284
2,5607268,-3474,-1691,-553,-162,-237,-79,253,155,-297
2,5607276,-3474,-1691,-553,-162,-237,-79,253,155,-297
2,5607283,-3469,-1692,-552,-161,-238,-83,253,155,-297
2,5607291,-3469,-1692,-552,-161,-238,-83,253,155,-297
2,5607299,-3469,-1692,-552,-161,-238,-83,253,155,-297
2,5607306,-3468,-1694,-555,-167,-231,-83,253,155,-297
2,5607313,-3468,-1694,-555,-167,-231,-83,253,155,-297
2,5607321,-3468,-1694,-555,-167,-231,-83,253,155,-297
2,5607328,-3470,-1691,-560,-159,-237,-79,253,155,-297
2,5607334,-3470,-1691,-560,-159,-237,-79,253,155,-297
2,5607342,-3470,-1691,-560,-159,-237,-79,253,155,-297
2,5607349,-3471,-1694,-552,-159,-237,-77,253,155,-297
2,5607356,-3471,-1694,-552,-159,-237,-77,253,155,-297
2,5607362,-3470,-1692,-556,-156,-240,-84,253,155,-297
2,5607369,-3470,-1692,-556,-156,-240,-84,253,155,-297
2,5607377,-3470,-1692,-556,-156,-240,-84,253,155,-297
2,5607385,-3470,-1695,-549,-161,-241,-79,265,161,-281
2,5607392,-3470,-1695,-549,-161,-241,-79,265,161,-281
2,5607399,-3470,-1695,-549,-161,-241,-79,265,161,-281
2,5607406,-3471,-1694,-554,-161,-235,-79,265,161,-281
2,5607413,-3471,-1694,-554,-161,-235,-79,265,161,-281
2,5607419,-3471,-1694,-554,-161,-235,-79,265,161,-281
2,5607428,-3473,-1695,-556,-158,-237,-81,265,161,-281
2,5607435,-3473,-1695,-556,-158,-237,-81,265,161,-281
2,5607444,-3472,-1694,-557,-161,-234,-85,265,161,-281
2,5607455,-3472,-1694,-557,-161,-234,-85,265,161,-281
2,5607469,-3472,-1695,-556,-163,-240,-91,265,161,-281
2,5607481,-3472,-1695,-556,-163,-240,-91,265,161,-281
2,5607494,-3473,-1692,-554,-165,-241,-80,265,161,-281
2,5607504,-3470,-1691,-555,-165,-237,-79,258,160,-282
2,5607518,-3470,-1691,-555,-165,-237,-79,258,160,-282
2,5607530,-3471,-1694,-552,-160,-243,-86,258,160,-282
2,5607538,-3471,-1694,-552,-160,-243,-86,258,160,-282
2,5607546,-3473,-1690,-553,-164,-242,-94,258,160,-282
2,5607555,-3473,-1690,-553,-164,-242,-94,258,160,-282
2,5607565,-3471,-1693,-557,-156,-244,-83,258,160,-282
2,5607574,-3471,-1693,-557,-156,-244,-83,258,160,-282
2,5607582,-3470,-1696,-557,-163,-243,-83,258,160,-282
2,5607592,-3470,-1696,-557,-163,-243,-83,258,160,-282
2,5607602,-3472,-1691,-549,-169,-249,-87,258,160,-282
2,5607611,-3472,-1691,-549,-169,-249,-87,258,160,-282
2,5607620,-3472,-1691,-549,-169,-249,-87,258,160,-282
2,5607632,-3469,-1689,-557,-160,-242,-86,258,160,-282
2,5607644,-3470,-1691,-557,-162,-237,-86,258,168,-288
2,5607656,-3470,-1691,-557,-162,-237,-86,258,168,-288
2,5607669,-3468,-1690,-558,-165,-240,-87,258,168,-288
2,5607682,-3468,-1690,-558,-165,-240,-87,258,168,-288
2,5607694,-3470,-1693,-555,-160,-241,-88,258,168,-288
2,5607705,-3470,-1691,-560,-159,-241,-85,258,168,-288
2,5607719,-3470,-1691,-560,-159,-241,-85,258,168,-288
2,5607732,-3470,-1689,-555,-164,-245,-88,258,168,-288
2,5607741,-3470,-1689,-555,-164,-245,-88,258,168,-288
2,5607753,-3473,-1692,-557,-164,-236,-78,258,168,-288
2,5607767,-3473,-1689,-552,-171,-238,-80,264,162,-284
2,5607779,-3473,-1689,-552,-171,-238,-80,264,162,-284
2,5607790,-3470,-1691,-553,-164,-240,-85,264,162,-284
2,5607800,-3470,-1691,-553,-164,-240,-85,264,162,-284
2,5607813,-3471,-1693,-558,-169,-240,-90,264,162,-284
2,5607821,-3471,-1693,-558,-169,-240,-90,264,162,-284
2,5607828,-3470,-1695,-558,-162,-236,-85,264,162,-284
2,5607836,-3470,-1695,-558,-162,-236,-85,264,162,-284
2,5607844,-3475,-1694,-554,-168,-227,-79,264,162,-284
2,5607853,-3475,-1694,-554,-168,-227,-79,264,162,-284
2,5607862,-3475,-1694,-554,-168,-227,-79,264,162,-284
2,5607869,-3473,-1694,-560,-165,-234,-83,264,162,-284
2,5607877,-3473,-1694,-560,-165,-234,-83,264,162,-284
2,5607885,-3470,-1691,-551,-162,-239,-86,259,159,-277
2,5607894,-3470,-1691,-551,-162,-239,-86,259,159,-277
2,5607902,-3470,-1691,-551,-162,-239,-86,259,159,-277
2,5607910,-3471,-1692,-552,-159,-240,-83,259,159,-277
2,5607922,-3471,-1690,-562,-164,-235,-86,259,159,-277
2,5607936,-3471,-1690,-562,-164,-235,-86,259,159,-277
2,5607946,-3471,-1693,-558,-160,-241,-92,259,159,-277
2,5607956,-3471,-1693,-558,-160,-241,-92,259,159,-277
2,5607968,-3471,-1694,-559,-158,-242,-82,259,159,-277
2,5607981,-3471,-1694,-559,-158,-242,-82,259,159,-277
2,5607993,-3472,-1692,-555,-165,-240,-85,259,159,-277
2,5608006,-3472,-1692,-553,-162,-239,-90,258,158,-288
2,5608017,-3472,-1692,-553,-162,-239,-90,258,158,-288
2,5608031,-3470,-1691,-552,-168,-240,-88,258,158,-288
2,5608044,-3473,-1692,-556,-168,-241,-90,258,158,-288
2,5608056,-3473,-1692,-556,-168,-241,-90,258,158,-288
2,5608068,-3468,-1691,-558,-174,-239,-87,258,158,-288
2,5608080,-3468,-1691,-558,-174,-239,-87,258,158,-288
2,5608093,-3471,-1692,-557,-160,-243,-94,258,158,-288
2,5608105,-3472,-1693,-557,-163,-243,-87,258,158,-288
2,5608119,-3472,-1693,-557,-163,-243,-87,258,158,-288
2,5608131,-3471,-1691,-553,-163,-244,-79,264,164,-290
2,5608143,-3472,-1690,-550,-151,-233,-86,264,164,-290
2,5608157,-3472,-1690,-550,-151,-233,-86,264,164,-290
2,5608169,-3472,-1690,-556,-156,-238,-92,264,164,-290
2,5608178,-3472,-1690,-556,-156,-238,-92,264,164,-290
2,5608189,-3472,-1690,-556,-156,-238,-92,264,164,-290
2,5608203,-3472,-1690,-556,-156,-238,-92,264,164,-290
2,5608211,-3470,-1694,-552,-164,-236,-93,264,164,-290
2,5608219,-3470,-1694,-552,-164,-236,-93,264,164,-290
2,5608227,-3469,-1695,-555,-171,-248,-83,264,164,-290
2,5608236,-3469,-1695,-555,-171,-248,-83,264,164,-290
2,5608248,-3474,-1694,-557,-165,-242,-82,264,164,-290
2,5608261,-3474,-1694,-557,-165,-242,-82,264,164,-290
2,5608274,-3466,-1691,-549,-162,-246,-82,263,159,-285
2,5608286,-3470,-1694,-552,-155,-245,-79,263,159,-285
2,5608296,-3470,-1694,-552,-155,-245,-79,263,159,-285
2,5608309,-3473,-1690,-556,-162,-253,-79,263,159,-285
2,5608324,-3472,-1692,-554,-157,-238,-89,263,159,-285
2,5608337,-3472,-1692,-554,-157,-238,-89,263,159,-285
2,5608349,-3472,-1693,-556,-163,-242,-93,263,159,-285
2,5608363,-3472,-1693,-556,-163,-242,-93,263,159,-285
2,5608376,-3471,-1695,-553,-164,-245,-88,263,159,-285
2,5608388,-3471,-1693,-553,-162,-239,-88,262,166,-284
2,5608397,-3471,-1693,-553,-162,-239,-88,262,166,-284
2,5608408,-3470,-1690,-558,-160,-242,-96,262,166,-284
2,5608420,-3470,-1690,-558,-160,-242,-96,262,166,-284
2,5608433,-3471,-1693,-554,-165,-243,-89,262,166,-284
2,5608443,-3474,-1692,-554,-162,-242,-90,262,166,-284
2,5608453,-3474,-1692,-554,-162,-242,-90,262,166,-284
2,5608459,-3474,-1692,-554,-162,-242,-90,262,166,-284
2,5608466,-3471,-1693,-553,-162,-245,-82,262,166,-284
2,5608474,-3471,-1693,-553,-162,-245,-82,262,166,-284
2,5608481,-3471,-1693,-553,-162,-245,-82,262,166,-284
2,5608488,-3473,-1691,-552,-164,-242,-84,262,166,-284
2,5608496,-3473,-1691,-552,-164,-242,-84,262,166,-284
2,5608503,-3473,-1691,-552,-164,-242,-84,262,166,-284
2,5608509,-3471,-1692,-556,-161,-241,-89,264,168,-284
2,5608517,-3471,-1692,-556,-161,-241,-89,264,168,-284
2,5608523,-3475,-1693,-557,-161,-235,-91,264,168,-284
2,5608530,-3475,-1693,-557,-161,-235,-91,264,168,-284
2,5608536,-3475,-1693,-557,-161,-235,-91,264,168,-284
2,5608541,-3475,-1693,-557,-161,-235,-91,264,168,-284
2,5608546,-3471,-1693,-558,-160,-236,-92,264,168,-284
2,5608551,-3471,-1693,-558,-160,-236,-92,264,168,-284
2,5608556,-3471,-1693,-558,-160,-236,-92,264,168,-284
2,5608561,-3471,-1693,-558,-160,-236,-92,264,168,-284
2,5608568,-3471,-1694,-552,-171,-239,-89,264,168,-284
2,5608576,-3471,-1694,-552,-171,-239,-89,264,168,-284
2,5608584,-3473,-1693,-555,-163,-246,-89,264,168,-284
2,5608592,-3473,-1693,-555,-163,-246,-89,264,168,-284
2,5608598,-3473,-1693,-555,-163,-246,-89,264,168,-284
2,5608605,-3472,-1690,-560,-166,-243,-88,264,168,-284
2,5608610,-3472,-1690,-560,-166,-243,-88,264,168,-284
2,5608617,-3472,-1690,-560,-166,-243,-88,264,168,-284
2,5608624,-3473,-1693,-553,-164,-243,-88,256,160,-282
2,5608630,-3473,-1693,-553,-164,-243,-88,256,160,-282
2,5608637,-3473,-1693,-553,-164,-243,-88,256,160,-282
2,5608645,-3472,-1696,-551,-162,-247,-90,256,160,-282
2,5608651,-3472,-1696,-551,-162,-247,-90,256,160,-282
2,5608658,-3472,-1696,-551,-162,-247,-90,256,160,-282
2,5608667,-3471,-1695,-552,-163,-237,-91,256,160,-282
2,5608673,-3471,-1695,-552,-163,-237,-91,256,160,-282
2,5608680,-3471,-1695,-552,-163,-237,-91,256,160,-282
2,5608687,-3469,-1693,-553,-166,-243,-84,256,160,-282
2,5608695,-3469,-1693,-553,-166,-243,-84,256,160,-282
2,5608702,-3469,-1693,-553,-166,-243,-84,256,160,-282
2,5608709,-3470,-1693,-551,-157,-237,-85,256,160,-282
2,5608716,-3470,-1693,-551,-157,-237,-85,256,160,-282
2,5608722,-3470,-1693,-551,-157,-237,-85,256,160,-282
2,5608727,-3471,-1695,-554,-163,-237,-83,256,160,-282
2,5608733,-3471,-1695,-554,-163,-237,-83,256,160,-282
2,5608737,-3471,-1695,-554,-163,-237,-83,256,160,-282
2,5608743,-3471,-1695,-555,-165,-246,-80,256,160,-282
2,5608751,-3471,-1695,-555,-165,-246,-80,265,159,-287
2,5608758,-3471,-1695,-555,-165,-246,-80,265,159,-287
2,5608765,-3473,-1693,-549,-161,-246,-85,265,159,-287
2,5608772,-3473,-1693,-549,-161,-246,-85,265,159,-287
2,5608779,-3473,-1693,-549,-161,-246,-85,265,159,-287
2,5608786,-3470,-1690,-549,-163,-240,-84,265,159,-287
2,5608793,-3470,-1690,-549,-163,-240,-84,265,159,-287
2,5608800,-3470,-1690,-549,-163,-240,-84,265,159,-287
2,5608808,-3473,-1692,-554,-166,-241,-84,265,159,-287
2,5608813,-3473,-1692,-554,-166,-241,-84,265,159,-287
2,5608818,-3473,-1692,-554,-166,-241,-84,265,159,-287
2,5608823,-3472,-1693,-556,-161,-246,-87,265,159,-287
2,5608828,-3472,-1693,-556,-161,-246,-87,265,159,-287
2,5608835,-3472,-1693,-556,-161,-246,-87,265,159,-287
2,5608840,-3472,-1693,-556,-161,-246,-87,265,159,-287
2,5608845,-3471,-1691,-555,-160,-247,-84,265,159,-287
2,5608851,-3471,-1691,-555,-160,-247,-84,265,159,-287
2,5608857,-3471,-1691,-555,-160,-247,-84,265,159,-287
2,5608864,-3469,-1695,-553,-164,-244,-83,265,159,-287
2,5608870,-3469,-1695,-553,-164,-244,-83,265,159,-287
2,5608878,-3469,-1695,-553,-164,-244,-83,265,159,-287
2,5608885,-3471,-1691,-554,-159,-241,-83,263,169,-291
2,5608893,-3471,-1691,-554,-159,-241,-83,263,169,-291
2,5608900,-3471,-1691,-554,-159,-241,-83,263,169,-291
2,5608908,-3473,-1693,-552,-159,-234,-89,263,169,-291
2,5608913,-3473,-1693,-552,-159,-234,-89,263,169,-291
2,5608920,-3473,-1693,-552,-159,-234,-89,263,169,-291
2,5608927,-3471,-1694,-560,-160,-239,-94,263,169,-291
2,5608934,-3471,-1694,-560,-160,-239,-94,263,169,-291
2,5608940,-3471,-1694,-560,-160,-239,-94,263,169,-291
2,5608947,-3470,-1694,-557,-159,-237,-89,263,169,-291
2,5608955,-3470,-1694,-557,-159,-237,-89,263,169,-291
2,5608962,-3470,-1694,-557,-159,-237,-89,263,169,-291
2,5608970,-3470,-1691,-559,-160,-242,-90,263,169,-291
2,5608976,-3470,-1691,-559,-160,-242,-90,263,169,-291
2,5608981,-3470,-1691,-559,-160,-242,-90,263,169,-291
2,5608988,-3472,-1693,-550,-160,-242,-85,263,169,-291
2,5608996,-3472,-1693,-550,-160,-242,-85,263,169,-291
2,5609001,-3472,-1693,-550,-160,-242,-85,263,169,-291
2,5609009,-3470,-1694,-549,-161,-234,-83,257,161,-287
2,5609015,-3470,-1694,-549,-161,-234,-83,257,161,-287
2,5609023,-3470,-1694,-549,-161,-234,-83,257,161,-287
2,5609031,-3469,-1694,-556,-165,-238,-88,257,161,-287
2,5609038,-3469,-1694,-556,-165,-238,-88,257,161,-287
2,5609046,-3472,-1694,-555,-163,-241,-86,257,161,-287
2,5609053,-3472,-1694,-555,-163,-241,-86,257,161,-287
2,5609060,-3472,-1694,-555,-163,-241,-86,257,161,-287
2,5609066,-3470,-1690,-552,-163,-245,-87,257,161,-287
2,5609073,-3470,-1690,-552,-163,-245,-87,257,161,-287
2,5609080,-3470,-1690,-552,-163,-245,-87,257,161,-287
2,5609088,-3473,-1692,-559,-162,-245,-83,257,161,-287
2,5609095,-3473,-1692,-559,-162,-245,-83,257,161,-287
2,5609103,-3473,-1692,-559,-162,-245,-83,257,161,-287
2,5609111,-3469,-1694,-555,-160,-246,-80,257,161,-287
2,5609119,-3469,-1694,-555,-160,-246,-80,257,161,-287
2,5609127,-3469,-1694,-555,-160,-246,-80,254,158,-282
2,5609135,-3469,-1694,-555,-160,-246,-80,254,158,-282
2,5609142,-3469,-1694,-555,-160,-246,-80,254,158,-282
2,5609148,-3472,-1690,-555,-168,-243,-83,254,158,-282
2,5609155,-3472,-1690,-555,-168,-243,-83,254,158,-282
2,5609161,-3472,-1690,-555,-168,-243,-83,254,158,-282
2,5609169,-3474,-1694,-554,-162,-250,-81,254,158,-282
2,5609176,-3474,-1694,-554,-162,-250,-81,254,158,-282
2,5609182,-3474,-1694,-554,-162,-250,-81,254,158,-282
2,5609190,-3474,-1693,-555,-162,-232,-81,254,158,-282
2,5609198,-3474,-1693,-555,-162,-232,-81,254,158,-282
2,5609205,-3469,-1692,-556,-167,-235,-86,254,158,-282
2,5609211,-3469,-1692,-556,-167,-235,-86,254,158,-282
2,5609219,-3469,-1692,-556,-167,-235,-86,254,158,-282
2,5609225,-3469,-1692,-556,-167,-235,-86,254,158,-282
2,5609232,-3469,-1692,-556,-167,-235,-86,254,158,-282
2,5609238,-3469,-1692,-556,-167,-235,-86,254,158,-282
2,5609242,-3469,-1692,-556,-167,-235,-86,254,158,-282
2,5609249,-3472,-1692,-552,-164,-245,-91,264,162,-292
2,5609257,-3472,-1692,-552,-164,-245,-91,264,162,-292
2,5609265,-3470,-1693,-556,-161,-243,-93,264,162,-292
2,5609272,-3470,-1693,-556,-161,-243,-93,264,162,-292
2,5609279,-3470,-1693,-556,-161,-243,-93,264,162,-292
2,5609287,-3470,-1694,-553,-162,-243,-83,264,162,-292
2,5609295,-3470,-1694,-553,-162,-243,-83,264,162,-292
2,5609304,-3470,-1694,-553,-162,-243,-83,264,162,-292
2,5609310,-3473,-1691,-554,-164,-239,-82,264,162,-292
2,5609316,-3473,-1691,-554,-164,-239,-82,264,162,-292
2,5609324,-3469,-1694,-554,-161,-240,-83,264,162,-292
2,5609330,-3469,-1694,-554,-161,-240,-83,264,162,-292
2,5609337,-3469,-1694,-554,-161,-240,-83,264,162,-292
2,5609346,-3470,-1691,-557,-167,-244,-83,264,162,-292
2,5609353,-3470,-1691,-557,-167,-244,-83,264,162,-292
2,5609360,-3470,-1691,-557,-167,-244,-83,264,162,-292
2,5609368,-3472,-1689,-548,-162,-235,-81,262,162,-282
2,5609375,-3472,-1689,-548,-162,-235,-81,262,162,-282
2,5609380,-3472,-1689,-548,-162,-235,-81,262,162,-282
2,5609389,-3470,-1692,-550,-162,-236,-83,262,162,-282
2,5609396,-3470,-1692,-550,-162,-236,-83,262,162,-282
2,5609403,-3470,-1692,-550,-162,-236,-83,262,162,-282
2,5609410,-3472,-1693,-545,-161,-245,-88,262,162,-282
2,5609416,-3472,-1693,-545,-161,-245,-88,262,162,-282
2,5609424,-3472,-1692,-558,-166,-244,-88,262,162,-282
2,5609431,-3472,-1692,-558,-166,-244,-88,262,162,-282
2,5609439,-3472,-1692,-558,-166,-244,-88,262,162,-282
2,5609446,-3469,-1694,-556,-164,-241,-91,262,162,-282
2,5609454,-3469,-1694,-556,-164,-241,-91,262,162,-282
2,5609466,-3470,-1694,-558,-158,-237,-81,262,162,-282
2,5609480,-3470,-1694,-558,-158,-237,-81,262,162,-282
2,5609492,-3470,-1696,-550,-155,-246,-89,257,157,-291
2,5609501,-3470,-1696,-550,-155,-246,-89,257,157,-291
2,5609512,-3468,-1695,-554,-163,-240,-83,257,157,-291
2,5609526,-3471,-1693,-550,-163,-233,-88,257,157,-291
2,5609534,-3471,-1693,-550,-163,-233,-88,257,157,-291
2,5609542,-3471,-1693,-550,-163,-233,-88,257,157,-291
2,5609550,-3470,-1692,-550,-163,-244,-85,257,157,-291
2,5609559,-3470,-1692,-550,-163,-244,-85,257,157,-291
2,5609568,-3472,-1689,-551,-164,-241,-95,257,157,-291
2,5609580,-3472,-1689,-551,-164,-241,-95,257,157,-291
2,5609593,-3469,-1691,-555,-157,-239,-88,257,157,-291
2,5609606,-3473,-1692,-557,-160,-245,-79,257,157,-291
2,5609617,-3473,-1692,-557,-160,-245,-79,257,157,-291
2,5609630,-3468,-1695,-551,-163,-237,-85,256,166,-282
2,5609644,-3468,-1695,-551,-163,-237,-85,256,166,-282
2,5609657,-3469,-1694,-556,-158,-247,-85,256,166,-282
2,5609667,-3472,-1695,-559,-163,-244,-91,256,166,-282
2,5609679,-3472,-1695,-559,-163,-244,-91,256,166,-282
2,5609694,-3470,-1695,-560,-158,-247,-89,256,166,-282
2,5609706,-3473,-1690,-557,-161,-244,-88,256,166,-282
2,5609717,-3473,-1690,-557,-161,-244,-88,256,166,-282
2,5609731,-3469,-1692,-554,-157,-243,-84,256,166,-282
2,5609743,-3469,-1692,-554,-157,-243,-84,256,166,-282
2,5609756,-3473,-1692,-551,-161,-239,-89,265,165,-289
2,5609765,-3471,-1694,-554,-152,-245,-87,265,165,-289
2,5609779,-3471,-1694,-554,-152,-245,-87,265,165,-289
2,5609791,-3471,-1693,-557,-159,-242,-82,265,165,-289
2,5609803,-3471,-1693,-557,-159,-242,-82,265,165,-289
2,5609816,-3474,-1691,-558,-167,-245,-85,265,165,-289
2,5609824,-3474,-1691,-558,-167,-245,-85,265,165,-289
2,5609832,-3469,-1692,-553,-166,-239,-90,265,165,-289
2,5609840,-3469,-1692,-553,-166,-239,-90,265,165,-289
2,5609848,-3472,-1693,-552,-164,-242,-84,265,165,-289
2,5609857,-3472,-1693,-552,-164,-242,-84,265,165,-289
2,5609864,-3470,-1698,-552,-163,-243,-84,265,165,-289
2,5609872,-3470,-1698,-552,-163,-243,-84,258,152,-284
2,5609880,-3470,-1698,-552,-163,-243,-84,258,152,-284
2,5609888,-3470,-1692,-552,-171,-240,-89,258,152,-284
2,5609896,-3470,-1692,-552,-171,-240,-89,258,152,-284
2,5609905,-3473,-1692,-552,-160,-246,-89,258,152,-284
2,5609912,-3473,-1692,-552,-160,-246,-89,258,152,-284
2,5609920,-3473,-1692,-552,-160,-246,-89,258,152,-284
2,5609928,-3470,-1690,-555,-163,-243,-89,258,152,-284
2,5609936,-3470,-1690,-555,-163,-243,-89,258,152,-284
2,5609945,-3469,-1692,-556,-160,-246,-89,258,152,-284
2,5609954,-3469,-1692,-556,-160,-246,-89,258,152,-284
2,5609964,-3469,-1692,-556,-160,-246,-89,258,152,-284
2,5609972,-3473,-1691,-556,-156,-240,-94,258,152,-284
2,5609981,-3473,-1691,-556,-156,-240,-94,258,152,-284
2,5609991,-3472,-1695,-552,-166,-243,-88,259,159,-287
2,5610002,-3472,-1695,-552,-166,-243,-88,259,159,-287
2,5610015,-3469,-1692,-554,-169,-244,-90,259,159,-287
2,5610029,-3472,-1693,-549,-169,-246,-88,259,159,-287
2,5610042,-3472,-1693,-549,-169,-246,-88,259,159,-287
2,5610052,-3471,-1691,-551,-165,-239,-88,259,159,-287
2,5610064,-3472,-1694,-552,-160,-242,-87,259,159,-287
2,5610076,-3472,-1694,-552,-160,-242,-87,259,159,-287
2,5610089,-3470,-1694,-559,-159,-240,-85,259,159,-287
2,5610101,-3470,-1694,-559,-159,-240,-85,259,159,-287
2,5610113,-3474,-1693,-553,-167,-242,-90,263,163,-289
2,5610125,-3472,-1694,-550,-159,-242,-89,263,163,-289
2,5610139,-3472,-1694,-550,-159,-242,-89,263,163,-289
2,5610151,-3473,-1690,-553,-162,-235,-81,263,163,-289
2,5610163,-3473,-1690,-553,-162,-235,-81,263,163,-289
2,5610176,-3473,-1693,-559,-165,-244,-75,263,163,-289
2,5610188,-3470,-1693,-548,-167,-248,-84,263,163,-289
2,5610201,-3470,-1693,-548,-167,-248,-84,263,163,-289
2,5610214,-3467,-1693,-557,-162,-239,-92,263,163,-289
2,5610227,-3473,-1690,-551,-159,-240,-88,263,163,-289
2,5610241,-3473,-1690,-551,-159,-240,-88,263,163,-289
2,5610253,-3472,-1692,-556,-161,-245,-90,256,158,-294
2,5610265,-3469,-1692,-555,-159,-237,-88,256,158,-294
2,5610276,-3469,-1692,-555,-159,-237,-88,256,158,-294
2,5610290,-3469,-1693,-555,-158,-238,-86,256,158,-294
2,5610302,-3469,-1693,-555,-158,-238,-86,256,158,-294
2,5610314,-3475,-1693,-555,-158,-240,-80,256,158,-294
2,5610324,-3475,-1693,-555,-158,-240,-80,256,158,-294
2,5610335,-3468,-1693,-555,-161,-246,-84,256,158,-294
2,5610348,-3468,-1693,-556,-161,-241,-85,256,158,-294
2,5610362,-3468,-1693,-556,-161,-241,-85,256,158,-294
2,5610372,-3469,-1694,-551,-165,-239,-82,263,163,-285
2,5610383,-3469,-1694,-551,-165,-239,-82,263,163,-285
2,5610397,-3472,-1695,-551,-171,-239,-79,263,163,-285
2,5610409,-3474,-1692,-554,-169,-242,-80,263,163,-285
2,5610422,-3474,-1692,-554,-169,-242,-80,263,163,-285
2,5610434,-3471,-1693,-552,-162,-240,-83,263,163,-285
2,5610447,-3473,-1694,-550,-158,-240,-83,263,163,-285
2,5610460,-3473,-1694,-550,-158,-240,-83,263,163,-285
2,5610467,-3469,-1694,-556,-161,-235,-84,263,163,-285
2,5610474,-3469,-1694,-556,-161,-235,-84,263,163,-285
2,5610479,-3469,-1694,-556,-161,-235,-84,263,163,-285
2,5610484,-3469,-1694,-556,-161,-235,-84,263,163,-285
2,5610492,-3473,-1695,-554,-159,-239,-79,265,157,-281
2,5610499,-3473,-1695,-554,-159,-239,-79,265,157,-281
2,5610506,-3470,-1694,-551,-163,-241,-81,265,157,-281
2,5610513,-3470,-1694,-551,-163,-241,-81,265,157,-281
2,5610521,-3470,-1694,-551,-163,-241,-81,265,157,-281
2,5610527,-3468,-1693,-550,-158,-237,-85,265,157,-281
2,5610532,-3468,-1693,-550,-158,-237,-85,265,157,-281
2,5610537,-3468,-1693,-550,-158,-237,-85,265,157,-281
2,5610543,-3468,-1693,-550,-158,-237,-85,265,157,-281
2,5610548,-3472,-1692,-552,-166,-241,-88,265,157,-281
2,5610553,-3472,-1692,-552,-166,-241,-88,265,157,-281
2,5610561,-3472,-1692,-552,-166,-241,-88,265,157,-281
2,5610569,-3467,-1693,-551,-160,-245,-81,265,157,-281
2,5610576,-3467,-1693,-551,-160,-245,-81,265,157,-281
2,5610584,-3467,-1693,-551,-160,-245,-81,265,157,-281
2,5610591,-3468,-1692,-556,-159,-244,-81,265,157,-281
2,5610596,-3468,-1692,-556,-159,-244,-81,265,157,-281
2,5610602,-3468,-1692,-556,-159,-244,-81,265,157,-281
2,5610610,-3470,-1694,-556,-161,-244,-85,254,156,-278
2,5610617,-3470,-1694,-556,-161,-244,-85,254,156,-278
2,5610624,-3470,-1694,-556,-161,-244,-85,254,156,-278
2,5610631,-3471,-1691,-554,-155,-245,-81,254,156,-278
2,5610640,-3471,-1691,-554,-155,-245,-81,254,156,-278
2,5610646,-3473,-1693,-558,-156,-243,-91,254,156,-278
2,5610653,-3473,-1693,-558,-156,-243,-91,254,156,-278
2,5610659,-3473,-1693,-558,-156,-243,-91,254,156,-278
2,5610667,-3471,-1693,-555,-161,-238,-83,254,156,-278
2,5610674,-3471,-1693,-555,-161,-238,-83,254,156,-278
2,5610682,-3471,-1693,-555,-161,-238,-83,254,156,-278
2,5610690,-3472,-1694,-552,-156,-237,-83,254,156,-278
2,5610696,-3472,-1694,-552,-156,-237,-83,254,156,-278
2,5610702,-3472,-1694,-552,-156,-237,-83,254,156,-278
2,5610711,-3471,-1692,-553,-161,-236,-83,254,156,-278
2,5610718,-3471,-1692,-553,-161,-236,-83,254,156,-278
2,5610725,-3471,-1692,-553,-161,-236,-83,254,156,-278
2,5610732,-3470,-1692,-555,-160,-242,-88,262,158,-288
2,5610739,-3470,-1692,-555,-160,-242,-88,262,158,-288
2,5610746,-3467,-1692,-555,-158,-243,-84,262,158,-288
2,5610754,-3467,-1692,-555,-158,-243,-84,262,158,-288
2,5610762,-3467,-1692,-555,-158,-243,-84,262,158,-288
2,5610768,-3469,-1693,-554,-159,-242,-76,262,158,-288
2,5610775,-3469,-1693,-554,-159,-242,-76,262,158,-288
2,5610782,-3469,-1693,-554,-159,-242,-76,262,158,-288
2,5610789,-3471,-1692,-556,-160,-238,-77,262,158,-288
2,5610797,-3471,-1692,-556,-160,-238,-77,262,158,-288
2,5610804,-3471,-1692,-556,-160,-238,-77,262,158,-288
2,5610811,-3471,-1689,-556,-159,-233,-81,262,158,-288
2,5610816,-3471,-1689,-556,-159,-233,-81,262,158,-288
2,5610821,-3471,-1689,-556,-159,-233,-81,262,158,-288
2,5610827,-3471,-1694,-552,-153,-239,-78,262,158,-288
2,5610832,-3471,-1694,-552,-153,-239,-78,262,158,-288
2,5610839,-3471,-1694,-552,-153,-239,-78,262,158,-288
2,5610844,-3471,-1694,-552,-153,-239,-78,262,158,-288
2,5610849,-3471,-1694,-556,-156,-245,-87,262,158,-288
2,5610855,-3471,-1694,-556,-156,-245,-87,262,158,-288
2,5610862,-3471,-1694,-556,-156,-245,-87,262,158,-288
2,5610869,-3469,-1694,-553,-161,-241,-86,260,166,-286
2,5610876,-3469,-1694,-553,-161,-241,-86,260,166,-286
2,5610884,-3469,-1694,-553,-161,-241,-86,260,166,-286
2,5610889,-3470,-1693,-554,-162,-239,-86,260,166,-286
2,5610896,-3470,-1693,-554,-162,-239,-86,260,166,-286
2,5610904,-3470,-1693,-554,-162,-239,-86,260,166,-286
2,5610911,-3472,-1692,-554,-165,-241,-88,260,166,-286
2,5610918,-3472,-1692,-554,-165,-241,-88,260,166,-286
2,5610925,-3472,-1692,-554,-165,-241,-88,260,166,-286
2,5610932,-3473,-1694,-558,-158,-241,-78,260,166,-286
2,5610938,-3473,-1694,-558,-158,-241,-78,260,166,-286
2,5610945,-3470,-1693,-565,-151,-238,-83,260,166,-286
2,5610953,-3470,-1693,-565,-151,-238,-83,260,166,-286
2,5610960,-3470,-1693,-565,-151,-238,-83,260,166,-286
2,5610968,-3471,-1693,-557,-158,-239,-86,260,166,-286
2,5610975,-3471,-1693,-557,-158,-239,-86,260,166,-286
2,5610982,-3471,-1693,-557,-158,-239,-86,260,166,-286
2,5610988,-3471,-1692,-547,-161,-244,-87,265,165,-281
2,5610996,-3471,-1692,-547,-161,-244,-87,265,165,-281
2,5611004,-3471,-1692,-547,-161,-244,-87,265,165,-281
2,5611011,-3470,-1692,-553,-156,-246,-83,265,165,-281
2,5611018,-3470,-1692,-553,-156,-246,-83,265,165,-281
2,5611025,-3470,-1692,-553,-156,-246,-83,265,165,-281
2,5611032,-3470,-1691,-554,-165,-238,-91,265,165,-281
2,5611039,-3470,-1691,-554,-165,-238,-91,265,165,-281
2,5611044,-3470,-1691,-554,-165,-238,-91,265,165,-281
2,5611049,-3473,-1691,-555,-156,-243,-88,265,165,-281
2,5611055,-3473,-1691,-555,-156,-243,-88,265,165,-281
2,5611062,-3473,-1691,-555,-156,-243,-88,265,165,-281
2,5611070,-3472,-1691,-556,-167,-239,-84,265,165,-281
2,5611076,-3472,-1691,-556,-167,-239,-84,265,165,-281
2,5611082,-3472,-1691,-556,-167,-239,-84,265,165,-281
2,5611090,-3473,-1694,-557,-169,-243,-85,265,165,-281
2,5611098,-3473,-1694,-557,-169,-243,-85,265,165,-281
2,5611105,-3473,-1694,-557,-169,-243,-85,265,165,-281
2,5611112,-3471,-1691,-552,-163,-241,-82,256,160,-282
2,5611119,-3471,-1691,-552,-163,-241,-82,256,160,-282
2,5611126,-3471,-1689,-556,-162,-236,-84,256,160,-282
2,5611133,-3471,-1689,-556,-162,-236,-84,256,160,-282
2,5611141,-3471,-1689,-556,-162,-236,-84,256,160,-282
2,5611148,-3471,-1689,-555,-168,-240,-82,256,160,-282
2,5611155,-3471,-1689,-555,-168,-240,-82,256,160,-282
2,5611163,-3471,-1689,-555,-168,-240,-82,256,160,-282
2,5611170,-3468,-1696,-553,-161,-245,-92,256,160,-282
2,5611175,-3468,-1696,-553,-161,-245,-92,256,160,-282
2,5611183,-3468,-1696,-553,-161,-245,-92,256,160,-282
2,5611190,-3471,-1695,-557,-156,-247,-89,256,160,-282
2,5611197,-3471,-1695,-557,-156,-247,-89,256,160,-282
2,5611205,-3467,-1695,-556,-156,-240,-88,256,160,-282
2,5611213,-3467,-1695,-556,-156,-240,-88,256,160,-282
2,5611222,-3467,-1695,-556,-156,-240,-88,256,160,-282
2,5611228,-3471,-1693,-553,-163,-239,-89,254,158,-286
2,5611235,-3471,-1693,-553,-163,-239,-89,254,158,-286
2,5611242,-3471,-1693,-553,-163,-239,-89,254,158,-286
2,5611249,-3470,-1693,-555,-167,-243,-89,254,158,-286
2,5611255,-3470,-1693,-555,-167,-243,-89,254,158,-286
2,5611264,-3470,-1693,-555,-167,-243,-89,254,158,-286
2,5611272,-3473,-1690,-558,-162,-235,-90,254,158,-286
2,5611278,-3473,-1690,-558,-162,-235,-90,254,158,-286
2,5611284,-3473,-1690,-558,-162,-235,-90,254,158,-286
2,5611292,-3474,-1692,-557,-156,-240,-83,254,158,-286
2,5611299,-3474,-1692,-557,-156,-240,-83,254,158,-286
2,5611305,-3471,-1693,-555,-154,-244,-79,254,158,-286
2,5611313,-3471,-1693,-555,-154,-244,-79,254,158,-286
2,5611320,-3471,-1693,-555,-154,-244,-79,254,158,-286
2,5611326,-3472,-1692,-552,-160,-242,-84,254,158,-286
2,5611333,-3472,-1692,-552,-160,-242,-84,254,158,-286
2,5611340,-3472,-1692,-552,-160,-242,-84,254,158,-286
2,5611346,-3473,-1691,-552,-156,-237,-83,265,161,-291
2,5611354,-3473,-1691,-552,-156,-237,-83,265,161,-291
2,5611362,-3473,-1691,-552,-156,-237,-83,265,161,-291
2,5611368,-3471,-1690,-552,-161,-238,-86,265,161,-291
2,5611374,-3471,-1690,-552,-161,-238,-86,265,161,-291
2,5611381,-3471,-1690,-552,-161,-238,-86,265,161,-291
2,5611389,-3469,-1692,-552,-161,-237,-89,265,161,-291
2,5611397,-3469,-1692,-552,-161,-237,-89,265,161,-291
2,5611404,-3469,-1692,-552,-161,-237,-89,265,161,-291
2,5611410,-3470,-1691,-554,-159,-238,-89,265,161,-291
2,5611418,-3470,-1691,-554,-159,-238,-89,265,161,-291
2,5611424,-3470,-1691,-554,-159,-238,-89,265,161,-291
2,5611432,-3469,-1693,-553,-159,-241,-81,265,161,-291
2,5611440,-3469,-1693,-553,-159,-241,-81,265,161,-291
2,5611447,-3471,-1694,-555,-158,-235,-80,265,161,-291
2,5611455,-3471,-1694,-555,-158,-235,-80,265,161,-291
2,5611461,-3471,-1694,-555,-158,-235,-80,265,161,-291
2,5611468,-3471,-1692,-555,-162,-238,-77,265,161,-291
2,5611478,-3471,-1692,-555,-162,-238,-77,265,161,-291
2,5611490,-3472,-1691,-555,-167,-243,-83,258,162,-280
2,5611504,-3472,-1691,-555,-167,-243,-83,258,162,-280
2,5611513,-3471,-1693,-554,-171,-236,-93,258,162,-280
2,5611522,-3471,-1693,-554,-171,-236,-93,258,162,-280
2,5611530,-3471,-1691,-553,-169,-236,-87,258,162,-280
2,5611538,-3471,-1691,-553,-169,-236,-87,258,162,-280
2,5611546,-3468,-1695,-562,-166,-242,-89,258,162,-280
2,5611554,-3468,-1695,-562,-166,-242,-89,258,162,-280
2,5611564,-3468,-1695,-562,-166,-242,-89,258,162,-280
2,5611574,-3471,-1690,-558,-155,-237,-91,258,162,-280
2,5611583,-3471,-1690,-558,-155,-237,-91,258,162,-280
2,5611592,-3472,-1691,-554,-158,-241,-91,258,162,-280
2,5611602,-3472,-1691,-554,-158,-241,-91,258,162,-280
2,5611612,-3475,-1694,-552,-158,-243,-92,259,161,-291
2,5611623,-3475,-1694,-552,-158,-243,-92,259,161,-291
2,5611636,-3473,-1694,-556,-160,-242,-87,259,161,-291
2,5611648,-3474,-1692,-556,-162,-239,-90,259,161,-291
2,5611659,-3474,-1692,-556,-162,-239,-90,259,161,-291
2,5611673,-3470,-1695,-557,-165,-247,-88,259,161,-291
2,5611685,-3470,-1695,-557,-165,-247,-88,259,161,-291
2,5611696,-3471,-1693,-558,-162,-243,-88,259,161,-291
2,5611708,-3469,-1693,-560,-153,-239,-87,259,161,-291
2,5611720,-3469,-1693,-560,-153,-239,-87,259,161,-291
2,5611728,-3471,-1692,-550,-155,-241,-88,264,158,-282
2,5611741,-3471,-1692,-550,-155,-241,-88,264,158,-282
2,5611754,-3471,-1691,-556,-160,-243,-85,264,158,-282
2,5611766,-3471,-1694,-552,-152,-240,-81,264,158,-282
2,5611779,-3471,-1694,-552,-152,-240,-81,264,158,-282
2,5611792,-3473,-1692,-556,-159,-230,-81,264,158,-282
2,5611804,-3473,-1692,-556,-159,-230,-81,264,158,-282
2,5611813,-3471,-1689,-556,-156,-243,-88,264,158,-282
2,5611822,-3471,-1689,-556,-156,-243,-88,264,158,-282
2,5611830,-3468,-1693,-553,-153,-247,-86,264,158,-282
2,5611837,-3468,-1693,-553,-153,-247,-86,264,158,-282
2,5611846,-3473,-1693,-549,-163,-243,-90,256,156,-290
2,5611854,-3473,-1693,-549,-163,-243,-90,256,156,-290
2,5611863,-3473,-1693,-549,-163,-243,-90,256,156,-290
2,5611871,-3471,-1691,-555,-164,-239,-88,256,156,-290
2,5611879,-3471,-1691,-555,-164,-239,-88,256,156,-290
2,5611887,-3468,-1694,-558,-160,-234,-81,256,156,-290
2,5611895,-3468,-1694,-558,-160,-234,-81,256,156,-290
2,5611905,-3468,-1694,-558,-160,-234,-81,256,156,-290
2,5611913,-3471,-1694,-556,-161,-239,-84,256,156,-290
2,5611921,-3471,-1694,-556,-161,-239,-84,256,156,-290
2,5611931,-3468,-1692,-564,-151,-231,-85,256,156,-290
2,5611941,-3468,-1692,-564,-151,-231,-85,256,156,-290
2,5611950,-3471,-1692,-554,-156,-236,-86,256,156,-290
2,5611960,-3471,-1692,-554,-156,-236,-86,256,156,-290
2,5611968,-3472,-1693,-558,-160,-238,-80,265,151,-287
2,5611978,-3472,-1693,-558,-160,-238,-80,265,151,-287
2,5611987,-3474,-1692,-551,-160,-244,-88,265,151,-287
2,5611996,-3474,-1692,-551,-160,-244,-88,265,151,-287
2,5612006,-3474,-1692,-551,-160,-244,-88,265,151,-287
2,5612015,-3468,-1691,-556,-157,-235,-89,265,151,-287
2,5612025,-3468,-1691,-556,-157,-235,-89,265,151,-287
2,5612035,-3468,-1692,-552,-163,-235,-86,265,151,-287
2,5612043,-3468,-1692,-552,-163,-235,-86,265,151,-287
2,5612052,-3471,-1694,-556,-164,-239,-85,265,151,-287
2,5612062,-3471,-1694,-556,-164,-239,-85,265,151,-287
2,5612071,-3468,-1695,-557,-159,-242,-82,265,151,-287
2,5612082,-3468,-1695,-557,-159,-242,-82,265,151,-287
2,5612091,-3471,-1689,-557,-160,-239,-81,265,151,-287
2,5612100,-3471,-1689,-557,-160,-239,-81,265,151,-287
2,5612110,-3470,-1693,-556,-161,-244,-82,257,163,-287
2,5612120,-3470,-1693,-556,-161,-244,-82,257,163,-287
2,5612130,-3472,-1692,-557,-160,-247,-85,257,163,-287
2,5612138,-3472,-1692,-557,-160,-247,-85,257,163,-287
2,5612147,-3469,-1694,-558,-161,-242,-91,257,163,-287
2,5612154,-3469,-1694,-558,-161,-242,-91,257,163,-287
2,5612164,-3469,-1694,-558,-161,-242,-91,257,163,-287
2,5612172,-3472,-1690,-557,-159,-247,-84,257,163,-287
2,5612183,-3472,-1690,-557,-159,-247,-84,257,163,-287
2,5612195,-3473,-1691,-554,-161,-243,-82,257,163,-287
2,5612209,-3473,-1691,-554,-161,-243,-82,257,163,-287
2,5612220,-3473,-1691,-554,-161,-243,-82,257,163,-287
2,5612231,-3472,-1689,-552,-163,-241,-85,258,158,-284
2,5612244,-3472,-1689,-552,-163,-241,-85,258,158,-284
2,5612259,-3473,-1693,-556,-157,-244,-87,258,158,-284
2,5612268,-3469,-1694,-557,-158,-246,-84,258,158,-284
2,5612278,-3469,-1694,-557,-158,-246,-84,258,158,-284
2,5612292,-3472,-1694,-555,-160,-241,-93,258,158,-284
2,5612304,-3472,-1694,-555,-160,-241,-93,258,158,-284
2,5612315,-3468,-1690,-549,-165,-233,-88,258,158,-284
2,5612325,-3468,-1690,-549,-165,-233,-88,258,158,-284
2,5612335,-3470,-1690,-558,-153,-244,-81,258,158,-284
2,5612346,-3470,-1690,-558,-153,-244,-81,258,158,-284
2,5612358,-3474,-1688,-552,-163,-250,-84,260,168,-286
2,5612370,-3470,-1694,-549,-164,-236,-89,260,168,-286
2,5612381,-3470,-1694,-549,-164,-236,-89,260,168,-286
2,5612394,-3468,-1693,-560,-165,-235,-87,260,168,-286
2,5612406,-3468,-1693,-560,-165,-235,-87,260,168,-286
2,5612419,-3471,-1694,-555,-164,-236,-83,260,168,-286
2,5612431,-3471,-1693,-553,-165,-241,-88,260,168,-286
2,5612442,-3471,-1693,-553,-165,-241,-88,260,168,-286
2,5612456,-3470,-1693,-551,-163,-236,-89,260,168,-286
2,5612469,-3470,-1694,-552,-160,-240,-87,257,157,-285
2,5612480,-3470,-1694,-552,-160,-240,-87,257,157,-285
2,5612488,-3469,-1691,-556,-161,-240,-89,257,157,-285
2,5612495,-3469,-1691,-556,-161,-240,-89,257,157,-285
2,5612504,-3469,-1691,-556,-161,-240,-89,257,157,-285
2,5612512,-3473,-1693,-552,-164,-244,-83,257,157,-285
2,5612519,-3473,-1693,-552,-164,-244,-83,257,157,-285
2,5612526,-3473,-1693,-552,-164,-244,-83,257,157,-285
2,5612532,-3471,-1693,-549,-165,-238,-86,257,157,-285
2,5612537,-3471,-1693,-549,-165,-238,-86,257,157,-285
2,5612542,-3471,-1693,-549,-165,-238,-86,257,157,-285
2,5612548,-3472,-1690,-559,-173,-243,-90,257,157,-285
2,5612552,-3472,-1690,-559,-173,-243,-90,257,157,-285
2,5612557,-3472,-1690,-559,-173,-243,-90,257,157,-285
2,5612563,-3472,-1690,-559,-173,-243,-90,257,157,-285
2,5612572,-3471,-1696,-555,-165,-233,-94,257,157,-285
2,5612578,-3471,-1696,-555,-165,-233,-94,257,157,-285
2,5612588,-3469,-1691,-555,-161,-244,-86,266,164,-284
2,5612596,-3469,-1691,-555,-161,-244,-86,266,164,-284
2,5612603,-3469,-1691,-555,-161,-244,-86,266,164,-284
2,5612610,-3472,-1693,-552,-164,-250,-86,266,164,-284
2,5612617,-3472,-1693,-552,-164,-250,-86,266,164,-284
2,5612624,-3472,-1693,-552,-164,-250,-86,266,164,-284
2,5612631,-3470,-1691,-556,-153,-241,-91,266,164,-284
2,5612639,-3470,-1691,-556,-153,-241,-91,266,164,-284
2,5612647,-3470,-1691,-556,-153,-241,-91,266,164,-284
2,5612654,-3472,-1692,-552,-159,-243,-81,266,164,-284
2,5612659,-3472,-1692,-552,-159,-243,-81,266,164,-284
2,5612664,-3472,-1692,-552,-159,-243,-81,266,164,-284
2,5612669,-3469,-1693,-554,-165,-242,-90,266,164,-284
2,5612677,-3469,-1693,-554,-165,-242,-90,266,164,-284
2,5612682,-3469,-1693,-554,-165,-242,-90,266,164,-284
2,5612690,-3472,-1692,-556,-157,-240,-89,266,164,-284
2,5612697,-3472,-1692,-556,-157,-240,-89,266,164,-284
2,5612706,-3472,-1692,-556,-157,-240,-89,266,164,-284
2,5612713,-3470,-1693,-558,-164,-238,-84,266,164,-284
2,5612722,-3470,-1693,-558,-164,-238,-84,266,164,-284
2,5612728,-3471,-1692,-550,-159,-240,-92,264,158,-284
2,5612735,-3471,-1692,-550,-159,-240,-92,264,158,-284
2,5612742,-3471,-1692,-550,-159,-240,-92,264,158,-284
2,5612747,-3472,-1693,-552,-161,-242,-87,264,158,-284
2,5612756,-3472,-1693,-552,-161,-242,-87,264,158,-284
2,5612763,-3472,-1693,-552,-161,-242,-87,264,158,-284
2,5612769,-3468,-1692,-551,-160,-239,-88,264,158,-284
2,5612776,-3468,-1692,-551,-160,-239,-88,264,158,-284
2,5612781,-3468,-1692,-551,-160,-239,-88,264,158,-284
2,5612789,-3472,-1694,-558,-165,-241,-85,264,158,-284
2,5612797,-3472,-1694,-558,-165,-241,-85,264,158,-284
2,5612806,-3472,-1694,-558,-165,-241,-85,264,158,-284
2,5612813,-3469,-1689,-557,-166,-240,-83,264,158,-284
2,5612818,-3469,-1689,-557,-166,-240,-83,264,158,-284
2,5612823,-3469,-1689,-557,-166,-240,-83,264,158,-284
2,5612828,-3472,-1694,-557,-161,-239,-84,264,158,-284
2,5612833,-3472,-1694,-557,-161,-239,-84,264,158,-284
2,5612839,-3472,-1694,-557,-161,-239,-84,264,158,-284
2,5612845,-3472,-1694,-557,-161,-239,-84,264,158,-284
2,5612850,-3470,-1691,-555,-159,-237,-88,262,162,-282
2,5612855,-3470,-1691,-555,-159,-237,-88,262,162,-282
2,5612862,-3470,-1691,-555,-159,-237,-88,262,162,-282
2,5612869,-3470,-1695,-553,-158,-239,-80,262,162,-282
2,5612877,-3470,-1695,-553,-158,-239,-80,262,162,-282
2,5612884,-3470,-1695,-553,-158,-239,-80,262,162,-282
2,5612892,-3470,-1692,-555,-156,-251,-86,262,162,-282
2,5612899,-3470,-1692,-555,-156,-251,-86,262,162,-282
2,5612908,-3471,-1696,-551,-159,-248,-85,262,162,-282
2,5612914,-3471,-1696,-551,-159,-248,-85,262,162,-282
2,5612921,-3471,-1696,-551,-159,-248,-85,262,162,-282
2,5612929,-3471,-1694,-556,-158,-240,-87,262,162,-282
2,5612937,-3471,-1694,-556,-158,-240,-87,262,162,-282
2,5612943,-3471,-1694,-556,-158,-240,-87,262,162,-282
2,5612951,-3471,-1692,-554,-159,-240,-89,262,162,-282
2,5612957,-3471,-1692,-554,-159,-240,-89,262,162,-282
2,5612964,-3471,-1692,-554,-159,-240,-89,262,162,-282
2,5612973,-3469,-1691,-551,-163,-239,-85,263,163,-277
2,5612980,-3469,-1691,-551,-163,-239,-85,263,163,-277
2,5612985,-3469,-1691,-551,-163,-239,-85,263,163,-277
2,5612992,-3473,-1695,-554,-163,-242,-80,263,163,-277
2,5612999,-3473,-1695,-554,-163,-242,-80,263,163,-277
2,5613005,-3473,-1695,-554,-163,-242,-80,263,163,-277
2,5613012,-3470,-1695,-559,-162,-246,-80,263,163,-277
2,5613020,-3470,-1695,-559,-162,-246,-80,263,163,-277
2,5613027,-3470,-1695,-559,-162,-246,-80,263,163,-277
2,5613034,-3474,-1691,-558,-161,-251,-81,263,163,-277
2,5613041,-3474,-1691,-558,-161,-251,-81,263,163,-277
2,5613048,-3473,-1694,-557,-154,-251,-85,263,163,-277
2,5613054,-3473,-1694,-557,-154,-251,-85,263,163,-277
2,5613062,-3473,-1694,-557,-154,-251,-85,263,163,-277
2,5613068,-3475,-1692,-558,-160,-244,-83,263,163,-277
2,5613075,-3475,-1692,-558,-160,-244,-83,263,163,-277
2,5613082,-3475,-1692,-558,-160,-244,-83,263,163,-277
2,5613089,-3471,-1694,-551,-160,-238,-90,255,171,-283
2,5613096,-3471,-1694,-551,-160,-238,-90,255,171,-283
2,5613103,-3471,-1694,-551,-160,-238,-90,255,171,-283
2,5613110,-3474,-1695,-557,-161,-228,-95,255,171,-283
2,5613117,-3474,-1695,-557,-161,-228,-95,255,171,-283
2,5613124,-3474,-1695,-557,-161,-228,-95,255,171,-283
2,5613132,-3470,-1696,-558,-165,-243,-91,255,171,-283
2,5613142,-3470,-1696,-558,-165,-243,-91,255,171,-283
2,5613148,-3472,-1692,-559,-162,-240,-87,255,171,-283
2,5613154,-3472,-1692,-559,-162,-240,-87,255,171,-283
2,5613159,-3472,-1692,-559,-162,-240,-87,255,171,-283
2,5613164,-3472,-1692,-559,-162,-240,-87,255,171,-283
2,5613169,-3472,-1691,-555,-161,-247,-89,255,171,-283
2,5613176,-3472,-1691,-555,-161,-247,-89,255,171,-283
2,5613182,-3472,-1691,-555,-161,-247,-89,255,171,-283
2,5613191,-3470,-1692,-558,-160,-248,-88,255,171,-283
2,5613197,-3470,-1692,-558,-160,-248,-88,255,171,-283
2,5613204,-3470,-1692,-558,-160,-248,-88,255,171,-283
2,5613210,-3471,-1695,-551,-160,-245,-88,258,158,-286
2,5613216,-3471,-1695,-551,-160,-245,-88,258,158,-286
2,5613223,-3471,-1695,-551,-160,-245,-88,258,158,-286
2,5613231,-3467,-1694,-548,-160,-246,-90,258,158,-286
2,5613236,-3467,-1694,-548,-160,-246,-90,258,158,-286
2,5613243,-3467,-1694,-548,-160,-246,-90,258,158,-286
2,5613251,-3473,-1694,-556,-160,-240,-90,258,158,-286
2,5613258,-3473,-1694,-556,-160,-240,-90,258,158,-286
2,5613264,-3473,-1694,-556,-160,-240,-90,258,158,-286
2,5613273,-3469,-1691,-550,-158,-232,-86,258,158,-286
2,5613279,-3469,-1691,-550,-158,-232,-86,258,158,-286
2,5613285,-3469,-1691,-550,-158,-232,-86,258,158,-286
2,5613292,-3472,-1693,-555,-159,-240,-88,258,158,-286
2,5613300,-3472,-1693,-555,-159,-240,-88,258,158,-286
2,5613307,-3472,-1693,-555,-159,-240,-88,258,158,-286
2,5613315,-3470,-1695,-555,-159,-240,-79,258,158,-286
2,5613322,-3470,-1695,-555,-159,-240,-79,258,158,-286
2,5613329,-3472,-1692,-558,-162,-238,-82,258,158,-286
2,5613334,-3472,-1692,-558,-162,-238,-82,258,158,-286
2,5613342,-3472,-1692,-558,-162,-238,-82,258,158,-286
2,5613349,-3471,-1695,-551,-159,-238,-81,258,158,-286
2,5613357,-3471,-1695,-551,-159,-238,-81,258,158,-286
2,5613364,-3471,-1695,-551,-159,-238,-81,258,158,-286
2,5613371,-3472,-1692,-555,-164,-235,-87,258,158,-286
2,5613377,-3472,-1692,-555,-164,-235,-87,258,158,-286
2,5613384,-3472,-1692,-555,-164,-235,-87,258,158,-286
2,5613391,-3472,-1692,-552,-159,-252,-80,258,158,-286
2,5613400,-3472,-1692,-552,-159,-252,-80,258,158,-286
2,5613406,-3472,-1692,-552,-159,-252,-80,258,158,-286
2,5613414,-3470,-1693,-549,-156,-246,-83,258,158,-286
2,5613422,-3470,-1693,-549,-156,-246,-83,258,158,-286
2,5613428,-3470,-1692,-550,-159,-232,-87,258,158,-286
2,5613436,-3470,-1692,-550,-159,-232,-87,258,158,-286
2,5613443,-3470,-1692,-550,-159,-232,-87,258,158,-286
2,5613450,-3470,-1695,-554,-161,-247,-84,258,158,-286
2,5613455,-3470,-1695,-554,-161,-247,-84,258,158,-286
2,5613462,-3470,-1695,-554,-161,-247,-84,258,158,-286
2,5613470,-3473,-1693,-552,-163,-244,-83,262,162,-284
2,5613476,-3473,-1693,-552,-163,-244,-83,262,162,-284
2,5613484,-3473,-1693,-552,-163,-244,-83,262,162,-284
2,5613496,-3472,-1693,-551,-158,-241,-90,262,162,-284
2,5613505,-3472,-1693,-551,-158,-241,-90,262,162,-284
2,5613517,-3469,-1694,-555,-162,-247,-85,262,162,-284
2,5613531,-3469,-1693,-557,-158,-247,-86,262,162,-284
2,5613539,-3469,-1693,-557,-158,-247,-86,262,162,-284
2,5613547,-3469,-1693,-557,-158,-247,-86,262,162,-284
2,5613556,-3470,-1694,-559,-160,-252,-86,262,162,-284
2,5613565,-3470,-1694,-559,-160,-252,-86,262,162,-284
2,5613578,-3473,-1692,-553,-163,-243,-84,262,162,-284
2,5613592,-3472,-1692,-553,-162,-239,-88,263,165,-283
2,5613604,-3472,-1692,-553,-162,-239,-88,263,165,-283
2,5613616,-3473,-1693,-553,-162,-239,-85,263,165,-283
2,5613630,-3471,-1694,-555,-160,-244,-90,263,165,-283
2,5613642,-3471,-1694,-555,-160,-244,-90,263,165,-283
2,5613655,-3471,-1695,-553,-165,-241,-83,263,165,-283
2,5613668,-3473,-1693,-559,-163,-232,-86,263,165,-283
2,5613681,-3473,-1693,-559,-163,-232,-86,263,165,-283
2,5613689,-3474,-1694,-554,-160,-242,-81,263,165,-283
2,5613702,-3474,-1694,-554,-160,-242,-81,263,165,-283
2,5613715,-3471,-1694,-552,-160,-241,-84,261,167,-285
2,5613727,-3471,-1694,-552,-160,-241,-84,261,167,-285
2,5613737,-3473,-1695,-551,-164,-241,-88,261,167,-285
2,5613745,-3473,-1695,-551,-164,-241,-88,261,167,-285
2,5613754,-3471,-1693,-557,-160,-227,-89,261,167,-285
2,5613762,-3471,-1693,-557,-160,-227,-89,261,167,-285
2,5613770,-3470,-1692,-555,-160,-233,-83,261,167,-285
2,5613785,-3470,-1692,-555,-160,-233,-83,261,167,-285
2,5613798,-3470,-1695,-552,-163,-233,-84,261,167,-285
2,5613806,-3470,-1695,-552,-163,-233,-84,261,167,-285
2,5613815,-3472,-1692,-556,-169,-243,-84,261,167,-285
2,5613824,-3472,-1692,-556,-169,-243,-84,261,167,-285
2,5613832,-3474,-1690,-551,-163,-240,-84,257,165,-289
2,5613841,-3474,-1690,-551,-163,-240,-84,257,165,-289
2,5613848,-3468,-1690,-558,-158,-237,-80,257,165,-289
2,5613857,-3468,-1690,-558,-158,-237,-80,257,165,-289
2,5613864,-3468,-1690,-558,-158,-237,-80,257,165,-289
2,5613874,-3473,-1694,-555,-167,-243,-86,257,165,-289
2,5613881,-3473,-1694,-555,-167,-243,-86,257,165,-289
2,5613890,-3469,-1689,-551,-166,-242,-91,257,165,-289
2,5613898,-3469,-1689,-551,-166,-242,-91,257,165,-289
2,5613906,-3469,-1689,-551,-166,-242,-91,257,165,-289
2,5613920,-3469,-1692,-560,-160,-244,-86,257,165,-289
2,5613932,-3469,-1692,-554,-160,-249,-79,257,165,-289
2,5613944,-3469,-1692,-554,-160,-249,-79,257,165,-289
2,5613956,-3471,-1693,-559,-160,-248,-82,265,155,-289
2,5613969,-3471,-1693,-553,-159,-247,-87,265,155,-289
2,5613981,-3471,-1693,-553,-159,-247,-87,265,155,-289
2,5613990,-3473,-1692,-552,-161,-251,-91,265,155,-289
2,5614004,-3473,-1692,-552,-161,-251,-91,265,155,-289
2,5614016,-3469,-1690,-557,-169,-245,-88,265,155,-289
2,5614028,-3470,-1692,-559,-162,-234,-88,265,155,-289
2,5614041,-3470,-1692,-559,-162,-234,-88,265,155,-289
2,5614051,-3469,-1690,-556,-164,-243,-86,265,155,-289
2,5614063,-3469,-1690,-556,-164,-243,-86,265,155,-289
2,5614076,-3468,-1694,-562,-165,-243,-84,265,155,-289
2,5614090,-3470,-1693,-555,-161,-236,-91,256,160,-290
2,5614103,-3470,-1693,-555,-161,-236,-91,256,160,-290
2,5614117,-3472,-1693,-557,-153,-234,-94,256,160,-290
2,5614131,-3470,-1692,-554,-159,-237,-92,256,160,-290
2,5614141,-3470,-1692,-554,-159,-237,-92,256,160,-290
2,5614154,-3471,-1693,-559,-158,-239,-88,256,160,-290
2,5614167,-3471,-1693,-559,-158,-239,-88,256,160,-290
2,5614180,-3471,-1692,-561,-165,-238,-85,256,160,-290
2,5614190,-3468,-1694,-556,-163,-234,-90,256,160,-290
2,5614202,-3468,-1694,-556,-163,-234,-90,256,160,-290
2,5614215,-3471,-1693,-550,-159,-239,-89,268,166,-286
2,5614227,-3471,-1693,-550,-159,-239,-89,268,166,-286
2,5614239,-3473,-1695,-556,-162,-242,-87,268,166,-286
2,5614253,-3473,-1692,-552,-159,-241,-85,268,166,-286
2,5614262,-3473,-1692,-552,-159,-241,-85,268,166,-286
2,5614272,-3473,-1694,-560,-162,-237,-81,268,166,-286
2,5614285,-3473,-1694,-560,-162,-237,-81,268,166,-286
2,5614300,-3471,-1694,-555,-165,-238,-86,268,166,-286
2,5614309,-3470,-1694,-553,-161,-238,-85,268,166,-286
2,5614319,-3470,-1694,-553,-161,-238,-85,268,166,-286
2,5614333,-3470,-1692,-551,-163,-235,-82,259,163,-287
2,5614345,-3470,-1692,-551,-163,-235,-82,259,163,-287
2,5614357,-3472,-1694,-556,-165,-239,-85,259,163,-287
2,5614369,-3472,-1692,-556,-169,-244,-89,259,163,-287
2,5614377,-3472,-1692,-556,-169,-244,-89,259,163,-287
2,5614386,-3472,-1692,-556,-169,-244,-89,259,163,-287
2,5614394,-3473,-1692,-555,-171,-245,-88,259,163,-287
2,5614402,-3473,-1692,-555,-171,-245,-88,259,163,-287
2,5614410,-3474,-1695,-553,-161,-240,-89,259,163,-287
2,5614423,-3474,-1695,-553,-161,-240,-89,259,163,-287
2,5614435,-3471,-1693,-558,-163,-237,-95,259,163,-287
2,5614447,-3471,-1693,-558,-163,-237,-95,259,163,-287
2,5614458,-3471,-1690,-556,-162,-242,-85,267,165,-289
2,5614473,-3472,-1694,-553,-165,-238,-80,267,165,-289
2,5614485,-3472,-1694,-553,-165,-238,-80,267,165,-289
2,5614493,-3472,-1694,-556,-173,-231,-76,267,165,-289
2,5614501,-3472,-1694,-556,-173,-231,-76,267,165,-289
2,5614509,-3471,-1693,-556,-165,-243,-78,267,165,-289
2,5614516,-3471,-1693,-556,-165,-243,-78,267,165,-289
2,5614522,-3471,-1693,-556,-165,-243,-78,267,165,-289
2,5614529,-3472,-1696,-553,-164,-238,-81,267,165,-289
2,5614534,-3472,-1696,-553,-164,-238,-81,267,165,-289
2,5614539,-3472,-1696,-553,-164,-238,-81,267,165,-289
2,5614544,-3472,-1696,-553,-164,-238,-81,267,165,-289
2,5614551,-3469,-1692,-559,-159,-236,-90,267,165,-289
2,5614556,-3469,-1692,-559,-159,-236,-90,267,165,-289
2,5614563,-3469,-1692,-559,-159,-236,-90,267,165,-289
2,5614570,-3474,-1695,-554,-158,-235,-89,262,166,-296
2,5614577,-3474,-1695,-554,-158,-235,-89,262,166,-296
2,5614583,-3474,-1695,-554,-158,-235,-89,262,166,-296
2,5614590,-3474,-1694,-548,-161,-245,-91,262,166,-296
2,5614599,-3474,-1694,-548,-161,-245,-91,262,166,-296
2,5614606,-3474,-1694,-548,-161,-245,-91,262,166,-296
2,5614613,-3470,-1694,-556,-158,-235,-89,262,166,-296
2,5614620,-3470,-1694,-556,-158,-235,-89,262,166,-296
2,5614625,-3470,-1694,-556,-158,-235,-89,262,166,-296
2,5614632,-3471,-1692,-558,-161,-233,-91,262,166,-296
2,5614641,-3471,-1692,-558,-161,-233,-91,262,166,-296
2,5614649,-3471,-1694,-552,-161,-232,-88,262,166,-296
2,5614656,-3471,-1694,-552,-161,-232,-88,262,166,-296
2,5614663,-3471,-1694,-552,-161,-232,-88,262,166,-296
2,5614670,-3470,-1691,-553,-157,-237,-85,262,166,-296
2,5614678,-3470,-1691,-553,-157,-237,-85,262,166,-296
2,5614684,-3470,-1691,-553,-157,-237,-85,262,166,-296
2,5614691,-3472,-1692,-555,-161,-237,-89,262,166,-296
2,5614699,-3472,-1692,-555,-161,-237,-89,262,166,-296
2,5614707,-3472,-1692,-555,-161,-237,-89,262,166,-296
2,5614714,-3471,-1691,-554,-162,-242,-87,262,166,-282
2,5614723,-3471,-1691,-554,-162,-242,-87,262,166,-282
2,5614729,-3471,-1691,-554,-162,-242,-87,262,166,-282
2,5614736,-3470,-1693,-556,-166,-248,-81,262,166,-282
2,5614743,-3470,-1693,-556,-166,-248,-81,262,166,-282
2,5614751,-3470,-1693,-556,-162,-236,-81,262,166,-282
2,5614758,-3470,-1693,-556,-162,-236,-81,262,166,-282
2,5614766,-3470,-1693,-556,-162,-236,-81,262,166,-282
2,5614773,-3472,-1694,-556,-161,-239,-85,262,166,-282
2,5614778,-3472,-1694,-556,-161,-239,-85,262,166,-282
2,5614786,-3472,-1694,-556,-161,-239,-85,262,166,-282
2,5614794,-3471,-1692,-559,-161,-245,-87,262,166,-282
2,5614801,-3471,-1692,-559,-161,-245,-87,262,166,-282
2,5614809,-3471,-1692,-559,-161,-245,-87,262,166,-282
2,5614814,-3470,-1691,-560,-160,-239,-88,262,166,-282
2,5614819,-3470,-1691,-560,-160,-239,-88,262,166,-282
2,5614824,-3470,-1691,-560,-160,-239,-88,262,166,-282
2,5614829,-3471,-1691,-553,-161,-233,-84,260,164,-284
2,5614834,-3471,-1691,-553,-161,-233,-84,260,164,-284
2,5614839,-3471,-1691,-553,-161,-233,-84,260,164,-284
2,5614844,-3471,-1691,-553,-161,-233,-84,260,164,-284
2,5614851,-3471,-1693,-557,-164,-234,-89,260,164,-284
2,5614858,-3471,-1693,-557,-164,-234,-89,260,164,-284
2,5614863,-3471,-1693,-557,-164,-234,-89,260,164,-284
2,5614870,-3470,-1693,-552,-161,-238,-88,260,164,-284
2,5614876,-3470,-1693,-552,-161,-238,-88,260,164,-284
2,5614883,-3470,-1693,-552,-161,-238,-88,260,164,-284
2,5614892,-3470,-1692,-551,-160,-236,-85,260,164,-284
2,5614899,-3470,-1692,-551,-160,-236,-85,260,164,-284
2,5614906,-3470,-1692,-551,-160,-236,-85,260,164,-284
2,5614913,-3469,-1695,-556,-161,-240,-89,260,164,-284
2,5614918,-3469,-1695,-556,-161,-240,-89,260,164,-284
2,5614923,-3469,-1695,-556,-161,-240,-89,260,164,-284
2,5614930,-3471,-1694,-554,-157,-238,-88,260,164,-284
2,5614938,-3471,-1694,-554,-157,-238,-88,260,164,-284
2,5614945,-3471,-1694,-554,-157,-238,-88,260,164,-284
2,5614951,-3472,-1695,-553,-159,-231,-86,261,163,-283
2,5614957,-3472,-1695,-553,-159,-231,-86,261,163,-283
2,5614963,-3472,-1695,-553,-159,-231,-86,261,163,-283
2,5614968,-3472,-1695,-553,-159,-231,-86,261,163,-283
2,5614976,-3472,-1694,-550,-156,-234,-90,261,163,-283
2,5614984,-3472,-1694,-550,-156,-234,-90,261,163,-283
2,5614991,-3471,-1691,-557,-161,-240,-86,261,163,-283
2,5614997,-3471,-1691,-557,-161,-240,-86,261,163,-283
2,5615005,-3471,-1691,-557,-161,-240,-86,261,163,-283
2,5615012,-3471,-1690,-557,-163,-242,-78,261,163,-283
2,5615019,-3471,-1690,-557,-163,-242,-78,261,163,-283
2,5615026,-3471,-1690,-557,-163,-242,-78,261,163,-283
2,5615033,-3471,-1692,-554,-160,-242,-80,261,163,-283
2,5615040,-3471,-1692,-554,-160,-242,-80,261,163,-283
2,5615047,-3471,-1692,-554,-160,-242,-80,261,163,-283
2,5615054,-3473,-1695,-556,-161,-242,-74,261,163,-283
2,5615062,-3473,-1695,-556,-161,-242,-74,261,163,-283
2,5615069,-3473,-1694,-555,-159,-236,-77,261,163,-283
2,5615076,-3473,-1694,-555,-159,-236,-77,263,163,-289
2,5615083,-3473,-1694,-555,-159,-236,-77,263,163,-289
2,5615090,-3470,-1693,-552,-155,-236,-84,263,163,-289
2,5615097,-3470,-1693,-552,-155,-236,-84,263,163,-289
2,5615105,-3470,-1693,-552,-155,-236,-84,263,163,-289
2,5615112,-3471,-1695,-552,-163,-234,-89,263,163,-289
2,5615119,-3471,-1695,-552,-163,-234,-89,263,163,-289
2,5615126,-3471,-1695,-552,-163,-234,-89,263,163,-289
2,5615134,-3471,-1692,-555,-160,-238,-82,263,163,-289
2,5615141,-3471,-1692,-555,-160,-238,-82,263,163,-289
2,5615149,-3471,-1692,-555,-160,-238,-82,263,163,-289
2,5615155,-3472,-1696,-559,-159,-242,-80,263,163,-289
2,5615163,-3472,-1696,-559,-159,-242,-80,263,163,-289
2,5615169,-3472,-1696,-559,-159,-242,-80,263,163,-289
2,5615176,-3472,-1692,-556,-160,-241,-91,263,163,-289
2,5615183,-3472,-1692,-556,-160,-241,-91,263,163,-289
2,5615191,-3472,-1695,-554,-160,-238,-86,255,161,-287
2,5615198,-3472,-1695,-554,-160,-238,-86,255,161,-287
2,5615205,-3472,-1695,-554,-160,-238,-86,255,161,-287
2,5615211,-3472,-1696,-554,-162,-232,-89,255,161,-287
2,5615219,-3472,-1696,-554,-162,-232,-89,255,161,-287
2,5615226,-3472,-1696,-554,-162,-232,-89,255,161,-287
2,5615233,-3471,-1693,-552,-157,-238,-87,255,161,-287
2,5615239,-3471,-1693,-552,-157,-238,-87,255,161,-287
2,5615247,-3471,-1693,-552,-157,-238,-87,255,161,-287
2,5615253,-3472,-1692,-554,-160,-248,-90,255,161,-287
2,5615259,-3472,-1692,-554,-160,-248,-90,255,161,-287
2,5615266,-3472,-1692,-554,-160,-248,-90,255,161,-287
2,5615273,-3471,-1692,-560,-164,-239,-82,255,161,-287
2,5615281,-3471,-1692,-560,-164,-239,-82,255,161,-287
2,5615288,-3471,-1692,-560,-164,-239,-82,255,161,-287
2,5615294,-3470,-1692,-561,-164,-243,-83,255,161,-287
2,5615301,-3470,-1692,-561,-164,-243,-83,255,161,-287
2,5615308,-3470,-1692,-561,-164,-243,-83,255,161,-287
2,5615314,-3471,-1691,-555,-162,-239,-86,255,161,-287
2,5615323,-3471,-1691,-555,-162,-239,-86,255,161,-287
2,5615330,-3473,-1694,-547,-169,-236,-91,261,171,-293
2,5615337,-3473,-1694,-547,-169,-236,-91,261,171,-293
2,5615344,-3473,-1694,-547,-169,-236,-91,261,171,-293
2,5615349,-3472,-1692,-554,-162,-233,-92,261,171,-293
2,5615357,-3472,-1692,-554,-162,-233,-92,261,171,-293
2,5615363,-3472,-1692,-554,-162,-233,-92,261,171,-293
2,5615370,-3475,-1690,-558,-158,-238,-87,261,171,-293
2,5615378,-3475,-1690,-558,-158,-238,-87,261,171,-293
2,5615385,-3475,-1690,-558,-158,-238,-87,261,171,-293
2,5615392,-3471,-1694,-556,-164,-236,-89,261,171,-293
2,5615399,-3471,-1694,-556,-164,-236,-89,261,171,-293
2,5615407,-3471,-1694,-556,-164,-236,-89,261,171,-293
2,5615413,-3471,-1693,-553,-164,-239,-84,261,171,-293
2,5615420,-3471,-1693,-553,-164,-239,-84,261,171,-293
2,5615428,-3471,-1693,-553,-164,-239,-84,261,171,-293
2,5615436,-3470,-1693,-560,-165,-242,-81,261,171,-293
2,5615444,-3470,-1693,-560,-165,-242,-81,261,171,-293
2,5615451,-3471,-1694,-555,-161,-242,-81,263,163,-287
2,5615456,-3471,-1694,-555,-161,-242,-81,263,163,-287
2,5615461,-3471,-1694,-555,-161,-242,-81,263,163,-287
2,5615466,-3471,-1694,-555,-161,-242,-81,263,163,-287
2,5615473,-3470,-1690,-556,-166,-241,-84,263,163,-287
2,5615479,-3470,-1690,-556,-166,-241,-84,263,163,-287
2,5615488,-3470,-1690,-556,-166,-241,-84,263,163,-287
2,5615495,-3472,-1693,-557,-161,-243,-85,263,163,-287
2,5615505,-3472,-1693,-557,-161,-243,-85,263,163,-287
2,5615516,-3472,-1694,-553,-169,-239,-93,263,163,-287
2,5615529,-3472,-1694,-553,-169,-239,-93,263,163,-287
2,5615537,-3472,-1695,-555,-160,-243,-84,263,163,-287
2,5615545,-3472,-1695,-555,-160,-243,-84,263,163,-287
2,5615553,-3468,-1695,-557,-162,-246,-83,263,163,-287
2,5615562,-3468,-1695,-557,-162,-246,-83,263,163,-287
2,5615576,-3472,-1690,-555,-157,-239,-87,261,163,-285
2,5615586,-3472,-1690,-555,-157,-239,-87,261,163,-285
2,5615597,-3470,-1695,-549,-155,-244,-85,261,163,-285
2,5615609,-3470,-1693,-550,-163,-241,-88,261,163,-285
2,5615623,-3470,-1693,-550,-163,-241,-88,261,163,-285
2,5615637,-3470,-1692,-550,-165,-239,-84,261,163,-285
2,5615648,-3470,-1692,-550,-165,-239,-84,261,163,-285
2,5615661,-3469,-1695,-552,-159,-242,-81,261,163,-285
2,5615674,-3471,-1691,-550,-170,-243,-92,261,163,-285
2,5615687,-3471,-1691,-550,-170,-243,-92,261,163,-285
2,5615698,-3471,-1691,-550,-170,-243,-92,265,161,-285
2,5615712,-3471,-1692,-554,-164,-236,-91,265,161,-285
2,5615725,-3471,-1692,-554,-164,-236,-91,265,161,-285
2,5615738,-3471,-1692,-561,-166,-243,-88,265,161,-285
2,5615751,-3472,-1694,-558,-164,-240,-90,265,161,-285
2,5615763,-3472,-1694,-558,-164,-240,-90,265,161,-285
2,5615776,-3469,-1692,-556,-165,-240,-85,265,161,-285
2,5615789,-3469,-1692,-556,-165,-240,-85,265,161,-285
2,5615800,-3468,-1693,-555,-164,-246,-85,265,161,-285
2,5615810,-3470,-1696,-555,-159,-239,-87,262,166,-284
2,5615818,-3470,-1696,-555,-159,-239,-87,262,166,-284
2,5615826,-3470,-1696,-555,-159,-239,-87,262,166,-284
2,5615835,-3472,-1690,-552,-158,-242,-87,262,166,-284
2,5615844,-3472,-1690,-552,-158,-242,-87,262,166,-284
2,5615852,-3470,-1693,-552,-163,-242,-87,262,166,-284
2,5615860,-3470,-1693,-552,-163,-242,-87,262,166,-284
2,5615868,-3470,-1693,-552,-163,-242,-87,262,166,-284
2,5615877,-3469,-1695,-559,-163,-241,-86,262,166,-284
2,5615885,-3469,-1695,-559,-163,-241,-86,262,166,-284
2,5615893,-3470,-1692,-560,-164,-241,-84,262,166,-284
2,5615901,-3470,-1692,-560,-164,-241,-84,262,166,-284
2,5615909,-3470,-1692,-560,-164,-241,-84,262,166,-284
2,5615918,-3470,-1695,-556,-160,-244,-84,262,166,-284
2,5615927,-3470,-1695,-556,-160,-244,-84,262,166,-284
2,5615935,-3469,-1691,-560,-166,-245,-88,262,166,-284
2,5615944,-3469,-1691,-560,-166,-245,-88,262,166,-284
2,5615953,-3470,-1694,-553,-167,-244,-83,264,160,-284
2,5615962,-3470,-1694,-553,-167,-244,-83,264,160,-284
2,5615972,-3472,-1695,-556,-159,-244,-83,264,160,-284
2,5615981,-3472,-1695,-556,-159,-244,-83,264,160,-284
2,5615993,-3470,-1693,-557,-152,-237,-84,264,160,-284
2,5616007,-3470,-1693,-557,-152,-237,-84,264,160,-284
2,5616015,-3468,-1696,-556,-156,-243,-93,264,160,-284
2,5616028,-3468,-1696,-556,-156,-243,-93,264,160,-284
2,5616037,-3469,-1693,-552,-158,-240,-83,264,160,-284
2,5616049,-3469,-1693,-552,-158,-240,-83,264,160,-284
2,5616061,-3471,-1693,-557,-170,-242,-91,264,160,-284
2,5616069,-3471,-1693,-557,-170,-242,-91,264,160,-284
2,5616078,-3469,-1693,-558,-165,-238,-93,270,168,-288
2,5616087,-3469,-1693,-558,-165,-238,-93,270,168,-288
2,5616095,-3471,-1693,-559,-161,-246,-88,270,168,-288
2,5616108,-3471,-1693,-559,-161,-246,-88,270,168,-288
2,5616120,-3472,-1696,-560,-164,-243,-91,270,168,-288
2,5616133,-3471,-1693,-554,-160,-240,-84,270,168,-288
2,5616145,-3471,-1693,-554,-160,-240,-84,270,168,-288
2,5616157,-3470,-1691,-553,-165,-240,-79,270,168,-288
2,5616168,-3470,-1691,-553,-165,-240,-79,270,168,-288
2,5616182,-3472,-1694,-554,-159,-245,-79,270,168,-288
2,5616194,-3472,-1691,-551,-169,-249,-85,257,163,-291
2,5616204,-3472,-1691,-551,-169,-249,-85,257,163,-291
2,5616217,-3471,-1695,-555,-166,-238,-74,257,163,-291
2,5616230,-3471,-1695,-555,-166,-238,-74,257,163,-291
2,5616243,-3471,-1693,-558,-166,-232,-80,257,163,-291
2,5616252,-3469,-1693,-556,-162,-233,-91,257,163,-291
2,5616265,-3469,-1693,-556,-162,-233,-91,257,163,-291
2,5616279,-3472,-1692,-555,-158,-235,-82,257,163,-291
2,5616292,-3472,-1689,-557,-169,-241,-85,257,163,-291
2,5616303,-3472,-1689,-557,-169,-241,-85,257,163,-291
2,5616315,-3474,-1692,-552,-164,-241,-86,265,157,-289
2,5616327,-3474,-1692,-552,-164,-241,-86,265,157,-289
2,5616340,-3472,-1692,-553,-164,-241,-86,265,157,-289
2,5616353,-3469,-1695,-552,-168,-239,-92,265,157,-289
2,5616366,-3469,-1695,-552,-168,-239,-92,265,157,-289
2,5616378,-3471,-1690,-557,-165,-234,-85,265,157,-289
2,5616391,-3471,-1691,-554,-161,-233,-82,265,157,-289
2,5616404,-3471,-1691,-554,-161,-233,-82,265,157,-289
2,5616416,-3469,-1694,-559,-155,-231,-86,265,157,-289
2,5616429,-3469,-1694,-559,-155,-231,-86,265,157,-289
2,5616441,-3468,-1691,-554,-165,-239,-87,265,159,-287
2,5616453,-3471,-1693,-555,-162,-238,-84,265,159,-287
2,5616465,-3471,-1693,-555,-162,-238,-84,265,159,-287
2,5616478,-3469,-1689,-553,-158,-239,-92,265,159,-287
2,5616492,-3470,-1693,-553,-160,-245,-90,265,159,-287
2,5616503,-3470,-1693,-553,-160,-245,-90,265,159,-287
2,5616512,-3472,-1693,-555,-155,-237,-84,265,159,-287
2,5616518,-3472,-1693,-555,-155,-237,-84,265,159,-287
2,5616526,-3472,-1693,-555,-155,-237,-84,265,159,-287
2,5616532,-3472,-1693,-556,-160,-234,-86,265,159,-287
2,5616537,-3472,-1693,-556,-160,-234,-86,265,159,-287
2,5616542,-3472,-1693,-556,-160,-234,-86,265,159,-287
2,5616547,-3472,-1693,-556,-160,-234,-86,265,159,-287
2,5616552,-3472,-1693,-556,-160,-234,-86,265,159,-287
2,5616558,-3472,-1693,-556,-160,-234,-86,265,159,-287
2,5616563,-3472,-1693,-556,-160,-234,-86,265,159,-287
2,5616571,-3472,-1695,-551,-152,-235,-85,261,159,-285
2,5616578,-3472,-1695,-551,-152,-235,-85,261,159,-285
2,5616584,-3472,-1695,-551,-152,-235,-85,261,159,-285
2,5616592,-3471,-1691,-558,-159,-246,-85,261,159,-285
2,5616600,-3471,-1691,-558,-159,-246,-85,261,159,-285
2,5616605,-3471,-1691,-558,-159,-246,-85,261,159,-285
2,5616613,-3470,-1696,-553,-160,-238,-84,261,159,-285
2,5616621,-3470,-1696,-553,-160,-238,-84,261,159,-285
2,5616628,-3470,-1696,-553,-160,-238,-84,261,159,-285
2,5616634,-3475,-1693,-556,-163,-242,-95,261,159,-285
2,5616642,-3475,-1693,-556,-163,-242,-95,261,159,-285
2,5616648,-3475,-1693,-556,-163,-242,-95,261,159,-285
2,5616654,-3473,-1692,-555,-158,-238,-91,261,159,-285
2,5616659,-3473,-1692,-555,-158,-238,-91,261,159,-285
2,5616664,-3473,-1692,-555,-158,-238,-91,261,159,-285
2,5616669,-3473,-1692,-555,-158,-238,-91,261,159,-285
2,5616676,-3474,-1694,-552,-157,-240,-92,261,159,-285
2,5616684,-3474,-1694,-552,-157,-240,-92,261,159,-285
2,5616689,-3474,-1694,-552,-157,-240,-92,261,159,-285
2,5616696,-3470,-1693,-550,-156,-238,-83,266,170,-282
2,5616702,-3470,-1693,-550,-156,-238,-83,266,170,-282
2,5616709,-3470,-1693,-550,-156,-238,-83,266,170,-282
2,5616717,-3471,-1690,-555,-158,-243,-89,266,170,-282
2,5616724,-3471,-1690,-555,-158,-243,-89,266,170,-282
2,5616731,-3470,-1692,-557,-156,-240,-86,266,170,-282
2,5616736,-3470,-1692,-557,-156,-240,-86,266,170,-282
2,5616744,-3470,-1692,-557,-156,-240,-86,266,170,-282
2,5616752,-3472,-1696,-557,-150,-236,-86,266,170,-282
2,5616759,-3472,-1696,-557,-150,-236,-86,266,170,-282
2,5616768,-3472,-1696,-557,-150,-236,-86,266,170,-282
2,5616773,-3470,-1693,-557,-166,-236,-88,266,170,-282
2,5616779,-3470,-1693,-557,-166,-236,-88,266,170,-282
2,5616786,-3470,-1693,-557,-166,-236,-88,266,170,-282
2,5616794,-3471,-1690,-560,-160,-240,-90,266,170,-282
2,5616802,-3471,-1690,-560,-160,-240,-90,266,170,-282
2,5616811,-3470,-1691,-554,-161,-241,-90,266,170,-282
2,5616816,-3470,-1691,-554,-161,-241,-90,259,159,-285
2,5616821,-3470,-1691,-554,-161,-241,-90,259,159,-285
2,5616826,-3470,-1691,-554,-161,-241,-90,259,159,-285
2,5616831,-3470,-1692,-556,-165,-236,-89,259,159,-285
2,5616836,-3470,-1692,-556,-165,-236,-89,259,159,-285
2,5616841,-3470,-1692,-556,-165,-236,-89,259,159,-285
2,5616848,-3470,-1692,-556,-165,-236,-89,259,159,-285
2,5616855,-3475,-1692,-557,-172,-241,-87,259,159,-285
2,5616863,-3475,-1692,-557,-172,-241,-87,259,159,-285
2,5616870,-3475,-1692,-557,-172,-241,-87,259,159,-285
2,5616878,-3469,-1695,-551,-160,-244,-84,259,159,-285
2,5616885,-3469,-1695,-551,-160,-244,-84,259,159,-285
2,5616893,-3472,-1693,-554,-156,-242,-83,259,159,-285
2,5616901,-3472,-1693,-554,-156,-242,-83,259,159,-285
2,5616908,-3472,-1693,-554,-156,-242,-83,259,159,-285
2,5616915,-3468,-1689,-560,-162,-240,-96,259,159,-285
2,5616920,-3468,-1689,-560,-162,-240,-96,259,159,-285
2,5616928,-3468,-1689,-560,-162,-240,-96,259,159,-285
2,5616935,-3471,-1691,-556,-163,-243,-85,254,156,-284
2,5616944,-3471,-1691,-556,-163,-243,-85,254,156,-284
2,5616951,-3471,-1691,-556,-163,-243,-85,254,156,-284
2,5616958,-3472,-1693,-553,-165,-244,-81,254,156,-284
2,5616965,-3472,-1693,-553,-165,-244,-81,254,156,-284
2,5616970,-3473,-1691,-554,-162,-238,-80,254,156,-284
2,5616978,-3473,-1691,-554,-162,-238,-80,254,156,-284
2,5616986,-3473,-1691,-554,-162,-238,-80,254,156,-284
2,5616994,-3470,-1693,-558,-160,-239,-82,254,156,-284
2,5617001,-3470,-1693,-558,-160,-239,-82,254,156,-284
2,5617007,-3470,-1693,-558,-160,-239,-82,254,156,-284
2,5617014,-3472,-1690,-557,-161,-244,-89,254,156,-284
2,5617020,-3472,-1690,-557,-161,-244,-89,254,156,-284
2,5617029,-3472,-1690,-557,-161,-244,-89,254,156,-284
2,5617036,-3470,-1692,-551,-162,-237,-89,254,156,-284
2,5617043,-3470,-1692,-551,-162,-237,-89,254,156,-284
2,5617049,-3470,-1692,-551,-162,-237,-89,254,156,-284
2,5617056,-3470,-1690,-553,-171,-230,-90,259,155,-293
2,5617064,-3470,-1690,-553,-171,-230,-90,259,155,-293
2,5617071,-3471,-1691,-549,-166,-236,-90,259,155,-293
2,5617077,-3471,-1691,-549,-166,-236,-90,259,155,-293
2,5617084,-3471,-1691,-549,-166,-236,-90,259,155,-293
2,5617089,-3471,-1691,-549,-166,-236,-90,259,155,-293
2,5617096,-3470,-1692,-555,-161,-241,-86,259,155,-293
2,5617105,-3470,-1692,-555,-161,-241,-86,259,155,-293
2,5617112,-3473,-1694,-551,-160,-238,-88,259,155,-293
2,5617118,-3473,-1694,-551,-160,-238,-88,259,155,-293
2,5617124,-3473,-1694,-551,-160,-238,-88,259,155,-293
2,5617131,-3471,-1694,-553,-163,-236,-90,259,155,-293
2,5617138,-3471,-1694,-553,-163,-236,-90,259,155,-293
2,5617143,-3471,-1694,-553,-163,-236,-90,259,155,-293
2,5617148,-3471,-1694,-553,-163,-236,-90,259,155,-293
2,5617155,-3467,-1693,-548,-159,-240,-85,259,155,-293
2,5617161,-3467,-1693,-548,-159,-240,-85,259,155,-293
2,5617168,-3467,-1693,-548,-159,-240,-85,259,155,-293
2,5617175,-3470,-1694,-559,-164,-238,-83,258,164,-284
2,5617181,-3470,-1694,-559,-164,-238,-83,258,164,-284
2,5617188,-3470,-1694,-559,-164,-238,-83,258,164,-284
2,5617197,-3472,-1692,-557,-165,-240,-85,258,164,-284
2,5617205,-3472,-1692,-557,-165,-240,-85,258,164,-284
2,5617212,-3471,-1694,-552,-161,-239,-87,258,164,-284
2,5617218,-3471,-1694,-552,-161,-239,-87,258,164,-284
2,5617225,-3471,-1694,-552,-161,-239,-87,258,164,-284
2,5617232,-3470,-1690,-556,-161,-245,-90,258,164,-284
2,5617239,-3470,-1690,-556,-161,-245,-90,258,164,-284
2,5617247,-3470,-1690,-556,-161,-245,-90,258,164,-284
2,5617253,-3471,-1692,-555,-160,-247,-90,258,164,-284
2,5617259,-3471,-1692,-555,-160,-247,-90,258,164,-284
2,5617264,-3471,-1692,-555,-160,-247,-90,258,164,-284
2,5617272,-3472,-1693,-552,-161,-241,-89,258,164,-284
2,5617280,-3472,-1693,-552,-161,-241,-89,258,164,-284
2,5617287,-3472,-1693,-552,-161,-241,-89,258,164,-284
2,5617293,-3469,-1694,-559,-167,-243,-85,258,164,-284
2,5617300,-3469,-1694,-559,-167,-243,-85,258,164,-284
2,5617306,-3469,-1694,-559,-167,-243,-85,258,164,-284
2,5617313,-3469,-1691,-550,-166,-235,-83,260,162,-288
2,5617320,-3469,-1691,-550,-166,-235,-83,260,162,-288
2,5617326,-3469,-1691,-550,-166,-235,-83,260,162,-288
2,5617332,-3470,-1694,-552,-164,-234,-87,260,162,-288
2,5617338,-3470,-1694,-552,-164,-234,-87,260,162,-288
2,5617345,-3470,-1694,-552,-164,-234,-87,260,162,-288
2,5617352,-3471,-1695,-552,-160,-239,-79,260,162,-288
2,5617358,-3471,-1695,-552,-160,-239,-79,260,162,-288
2,5617368,-3471,-1695,-552,-160,-239,-79,260,162,-288
2,5617375,-3470,-1695,-558,-157,-238,-84,260,162,-288
2,5617382,-3470,-1695,-558,-157,-238,-84,260,162,-288
2,5617388,-3470,-1695,-558,-157,-238,-84,260,162,-288
2,5617395,-3471,-1693,-552,-158,-236,-83,260,162,-288
2,5617402,-3471,-1693,-552,-158,-236,-83,260,162,-288
2,5617409,-3471,-1693,-552,-158,-236,-83,260,162,-288
2,5617416,-3469,-1690,-558,-167,-233,-92,260,162,-288
2,5617423,-3469,-1690,-558,-167,-233,-92,260,162,-288
2,5617430,-3469,-1690,-558,-167,-233,-92,260,162,-288
2,5617436,-3471,-1694,-553,-163,-232,-88,259,161,-287
2,5617443,-3471,-1694,-553,-163,-232,-88,259,161,-287
2,5617451,-3471,-1694,-553,-163,-232,-88,259,161,-287
2,5617457,-3471,-1693,-555,-161,-235,-93,259,161,-287
2,5617464,-3471,-1693,-555,-161,-235,-93,259,161,-287
2,5617472,-3472,-1691,-553,-156,-240,-87,259,161,-287
2,5617479,-3472,-1691,-553,-156,-240,-87,259,161,-287
2,5617487,-3472,-1691,-553,-156,-240,-87,259,161,-287
2,5617492,-3467,-1692,-556,-152,-240,-91,259,161,-287
2,5617502,-3467,-1692,-556,-152,-240,-91,259,161,-287
2,5617507,-3467,-1692,-556,-152,-240,-91,259,161,-287
2,5617517,-3469,-1693,-560,-156,-237,-83,259,161,-287
2,5617530,-3469,-1693,-560,-156,-237,-83,259,161,-287
2,5617539,-3471,-1694,-556,-165,-230,-85,259,161,-287
2,5617547,-3471,-1694,-556,-165,-230,-85,259,161,-287
2,5617554,-3474,-1693,-552,-159,-237,-88,262,168,-286
2,5617563,-3474,-1693,-552,-159,-237,-88,262,168,-286
2,5617576,-3474,-1691,-559,-155,-242,-90,262,168,-286
2,5617585,-3474,-1691,-559,-155,-242,-90,262,168,-286
2,5617593,-3472,-1691,-556,-160,-241,-83,262,168,-286
2,5617602,-3472,-1691,-556,-160,-241,-83,262,168,-286
2,5617612,-3474,-1690,-553,-160,-241,-91,262,168,-286
2,5617620,-3474,-1690,-553,-160,-241,-91,262,168,-286
2,5617631,-3474,-1690,-553,-160,-241,-91,262,168,-286
2,5617642,-3473,-1694,-560,-157,-235,-95,262,168,-286
2,5617654,-3472,-1695,-555,-161,-235,-88,262,168,-286
2,5617668,-3472,-1695,-555,-161,-235,-88,262,168,-286
2,5617677,-3472,-1693,-551,-155,-241,-83,264,162,-286
2,5617688,-3472,-1693,-551,-155,-241,-83,264,162,-286
2,5617700,-3472,-1692,-553,-166,-232,-85,264,162,-286
2,5617714,-3472,-1689,-553,-159,-236,-90,264,162,-286
2,5617722,-3472,-1689,-553,-159,-236,-90,264,162,-286
2,5617731,-3472,-1689,-553,-159,-236,-90,264,162,-286
2,5617739,-3473,-1695,-560,-160,-241,-88,264,162,-286
2,5617746,-3473,-1695,-560,-160,-241,-88,264,162,-286
2,5617757,-3470,-1693,-556,-162,-232,-88,264,162,-286
2,5617772,-3474,-1695,-557,-162,-235,-81,264,162,-286
2,5617783,-3474,-1695,-557,-162,-235,-81,264,162,-286
2,5617796,-3471,-1695,-557,-166,-242,-83,261,161,-285
2,5617809,-3471,-1695,-557,-166,-242,-83,261,161,-285
2,5617817,-3473,-1694,-552,-166,-239,-85,261,161,-285
2,5617825,-3473,-1694,-552,-166,-239,-85,261,161,-285
2,5617833,-3476,-1691,-554,-157,-239,-82,261,161,-285
2,5617842,-3476,-1691,-554,-157,-239,-82,261,161,-285
2,5617850,-3476,-1691,-554,-157,-239,-82,261,161,-285
2,5617858,-3473,-1694,-556,-156,-244,-79,261,161,-285
2,5617866,-3473,-1694,-556,-156,-244,-79,261,161,-285
2,5617874,-3472,-1694,-553,-167,-241,-82,261,161,-285
2,5617883,-3472,-1694,-553,-167,-241,-82,261,161,-285
2,5617891,-3472,-1694,-553,-167,-241,-82,261,161,-285
2,5617899,-3473,-1693,-555,-163,-243,-87,261,161,-285
2,5617907,-3473,-1693,-555,-163,-243,-87,261,161,-285
2,5617915,-3472,-1694,-555,-165,-241,-86,261,161,-285
2,5617926,-3472,-1694,-555,-165,-241,-86,261,161,-285
2,5617939,-3470,-1692,-551,-163,-241,-90,269,165,-291
2,5617950,-3470,-1692,-551,-163,-241,-90,269,165,-291
2,5617963,-3472,-1693,-559,-165,-234,-87,269,165,-291
2,5617976,-3471,-1691,-556,-162,-240,-92,269,165,-291
2,5617989,-3471,-1691,-556,-162,-240,-92,269,165,-291
2,5617999,-3470,-1694,-555,-161,-238,-84,269,165,-291
2,5618013,-3470,-1693,-556,-160,-232,-80,269,165,-291
2,5618025,-3470,-1693,-556,-160,-232,-80,269,165,-291
2,5618039,-3469,-1690,-554,-167,-237,-79,269,165,-291
2,5618050,-3469,-1690,-554,-167,-237,-79,269,165,-291
2,5618059,-3468,-1693,-553,-162,-235,-85,261,159,-295
2,5618073,-3471,-1691,-555,-161,-244,-83,261,159,-295
2,5618085,-3471,-1691,-555,-161,-244,-83,261,159,-295
2,5618097,-3470,-1693,-551,-159,-247,-89,261,159,-295
2,5618109,-3470,-1693,-551,-159,-247,-89,261,159,-295
2,5618122,-3472,-1690,-557,-162,-240,-91,261,159,-295
2,5618135,-3469,-1692,-559,-164,-245,-93,261,159,-295
2,5618145,-3469,-1692,-559,-164,-245,-93,261,159,-295
2,5618158,-3469,-1693,-554,-164,-242,-89,261,159,-295
2,5618168,-3469,-1693,-554,-164,-242,-89,261,159,-295
2,5618180,-3471,-1691,-555,-163,-242,-87,258,158,-284
2,5618193,-3470,-1694,-557,-166,-244,-85,258,158,-284
2,5618206,-3470,-1694,-557,-166,-244,-85,258,158,-284
2,5618216,-3470,-1692,-561,-168,-243,-84,258,158,-284
2,5618227,-3470,-1692,-561,-168,-243,-84,258,158,-284
2,5618241,-3470,-1692,-553,-161,-238,-87,258,158,-284
2,5618254,-3470,-1696,-555,-162,-245,-81,258,158,-284
2,5618264,-3470,-1696,-555,-162,-245,-81,258,158,-284
2,5618276,-3471,-1692,-552,-172,-240,-83,258,158,-284
2,5618289,-3471,-1692,-552,-172,-240,-83,258,158,-284
2,5618302,-3470,-1696,-555,-170,-238,-80,258,166,-286
2,5618313,-3471,-1692,-555,-163,-244,-92,258,166,-286
2,5618324,-3471,-1692,-555,-163,-244,-92,258,166,-286
2,5618333,-3470,-1691,-553,-171,-237,-86,258,166,-286
2,5618340,-3470,-1691,-553,-171,-237,-86,258,166,-286
2,5618349,-3470,-1691,-553,-171,-237,-86,258,166,-286
2,5618360,-3471,-1692,-556,-165,-234,-82,258,166,-286
2,5618372,-3469,-1690,-557,-163,-246,-87,258,166,-286
2,5618381,-3469,-1690,-557,-163,-246,-87,258,166,-286
2,5618393,-3466,-1693,-553,-165,-241,-86,258,166,-286
2,5618406,-3466,-1693,-553,-165,-241,-86,258,166,-286
2,5618417,-3469,-1691,-557,-162,-242,-88,270,166,-294
2,5618428,-3469,-1691,-557,-162,-242,-88,270,166,-294
2,5618441,-3474,-1690,-558,-165,-232,-90,270,166,-294
2,5618453,-3473,-1692,-553,-156,-237,-89,270,166,-294
2,5618466,-3473,-1692,-553,-156,-237,-89,270,166,-294
2,5618479,-3470,-1692,-553,-160,-238,-91,270,166,-294
2,5618490,-3470,-1692,-553,-160,-238,-91,270,166,-294
2,5618503,-3469,-1692,-556,-162,-239,-94,270,166,-294
2,5618514,-3472,-1689,-554,-160,-242,-87,270,166,-294
2,5618524,-3472,-1689,-554,-160,-242,-87,270,166,-294
2,5618529,-3472,-1689,-554,-160,-242,-87,270,166,-294
2,5618535,-3471,-1691,-554,-161,-235,-87,270,166,-294
2,5618540,-3471,-1691,-554,-161,-235,-87,270,166,-294
2,5618545,-3471,-1691,-554,-161,-235,-87,270,166,-294
2,5618550,-3471,-1691,-554,-161,-235,-87,270,166,-294
2,5618555,-3469,-1693,-551,-159,-235,-85,263,159,-291
2,5618562,-3469,-1693,-551,-159,-235,-85,263,159,-291
2,5618569,-3469,-1693,-551,-159,-235,-85,263,159,-291
2,5618576,-3472,-1696,-552,-162,-243,-79,263,159,-291
2,5618580,-3472,-1696,-552,-162,-243,-79,263,159,-291
2,5618588,-3472,-1696,-552,-162,-243,-79,263,159,-291
2,5618595,-3468,-1692,-555,-162,-240,-87,263,159,-291
2,5618603,-3468,-1692,-555,-162,-240,-87,263,159,-291
2,5618610,-3468,-1692,-555,-162,-240,-87,263,159,-291
2,5618615,-3469,-1693,-558,-154,-247,-83,263,159,-291
2,5618622,-3469,-1693,-558,-154,-247,-83,263,159,-291
2,5618629,-3469,-1693,-558,-154,-247,-83,263,159,-291
2,5618636,-3471,-1692,-555,-156,-243,-87,263,159,-291
2,5618644,-3471,-1692,-555,-156,-243,-87,263,159,-291
2,5618651,-3471,-1692,-555,-156,-243,-87,263,159,-291
2,5618659,-3476,-1694,-554,-163,-245,-86,263,159,-291
2,5618667,-3476,-1694,-554,-163,-245,-86,263,159,-291
2,5618674,-3471,-1693,-553,-162,-236,-81,261,165,-287
2,5618679,-3471,-1693,-553,-162,-236,-81,261,165,-287
2,5618688,-3471,-1693,-553,-162,-236,-81,261,165,-287
2,5618696,-3469,-1691,-549,-162,-240,-88,261,165,-287
2,5618704,-3469,-1691,-549,-162,-240,-88,261,165,-287
2,5618711,-3469,-1691,-549,-162,-240,-88,261,165,-287
2,5618718,-3474,-1694,-552,-159,-239,-90,261,165,-287
2,5618725,-3474,-1694,-552,-159,-239,-90,261,165,-287
2,5618733,-3470,-1693,-557,-160,-235,-86,261,165,-287
2,5618739,-3470,-1693,-557,-160,-235,-86,261,165,-287
2,5618746,-3470,-1693,-557,-160,-235,-86,261,165,-287
2,5618753,-3474,-1695,-553,-164,-237,-82,261,165,-287
2,5618759,-3474,-1695,-553,-164,-237,-82,261,165,-287
2,5618768,-3474,-1695,-553,-164,-237,-82,261,165,-287
2,5618776,-3473,-1693,-553,-162,-236,-86,261,165,-287
2,5618783,-3473,-1693,-553,-162,-236,-86,261,165,-287
2,5618789,-3473,-1693,-553,-162,-236,-86,261,165,-287
2,5618796,-3471,-1692,-551,-163,-236,-83,259,159,-285
2,5618804,-3471,-1692,-551,-163,-236,-83,259,159,-285
2,5618812,-3471,-1692,-551,-163,-236,-83,259,159,-285
2,5618818,-3473,-1692,-553,-166,-245,-81,259,159,-285
2,5618822,-3473,-1692,-553,-166,-245,-81,259,159,-285
2,5618827,-3473,-1692,-553,-166,-245,-81,259,159,-285
2,5618832,-3473,-1692,-553,-166,-245,-81,259,159,-285
2,5618837,-3469,-1696,-552,-162,-250,-80,259,159,-285
2,5618845,-3469,-1696,-552,-162,-250,-80,259,159,-285
2,5618854,-3473,-1693,-561,-165,-236,-86,259,159,-285
2,5618862,-3473,-1693,-561,-165,-236,-86,259,159,-285
2,5618869,-3473,-1693,-561,-165,-236,-86,259,159,-285
2,5618876,-3473,-1692,-555,-157,-235,-81,259,159,-285
2,5618881,-3473,-1692,-555,-157,-235,-81,259,159,-285
2,5618886,-3473,-1692,-555,-157,-235,-81,259,159,-285
2,5618893,-3471,-1692,-559,-156,-234,-84,259,159,-285
2,5618900,-3471,-1692,-559,-156,-234,-84,259,159,-285
2,5618909,-3471,-1692,-559,-156,-234,-84,259,159,-285
2,5618914,-3469,-1693,-554,-157,-238,-82,263,159,-293
2,5618921,-3469,-1693,-554,-157,-238,-82,263,159,-293
2,5618928,-3469,-1693,-554,-157,-238,-82,263,159,-293
2,5618933,-3467,-1695,-553,-166,-244,-84,263,159,-293
2,5618939,-3467,-1695,-553,-166,-244,-84,263,159,-293
2,5618946,-3467,-1695,-553,-166,-244,-84,263,159,-293
2,5618951,-3467,-1695,-553,-166,-244,-84,263,159,-293
2,5618958,-3473,-1695,-548,-162,-235,-83,263,159,-293
2,5618964,-3473,-1695,-548,-162,-235,-83,263,159,-293
2,5618972,-3473,-1695,-548,-162,-235,-83,263,159,-293
2,5618979,-3471,-1692,-550,-165,-234,-84,263,159,-293
2,5618987,-3471,-1692,-550,-165,-234,-84,263,159,-293
2,5618995,-3474,-1693,-558,-161,-235,-88,263,159,-293
2,5619002,-3474,-1693,-558,-161,-235,-88,263,159,-293
2,5619010,-3474,-1693,-558,-161,-235,-88,263,159,-293
2,5619015,-3472,-1694,-559,-156,-235,-90,263,159,-293
2,5619023,-3472,-1694,-559,-156,-235,-90,263,159,-293
2,5619032,-3472,-1694,-559,-156,-235,-90,263,159,-293
2,5619039,-3473,-1693,-556,-157,-230,-87,267,163,-293
2,5619045,-3473,-1693,-556,-157,-230,-87,267,163,-293
2,5619051,-3473,-1693,-556,-157,-230,-87,267,163,-293
2,5619059,-3471,-1692,-557,-159,-235,-87,267,163,-293
2,5619065,-3471,-1692,-557,-159,-235,-87,267,163,-293
2,5619073,-3473,-1692,-555,-167,-236,-87,267,163,-293
2,5619081,-3473,-1692,-555,-167,-236,-87,267,163,-293
2,5619088,-3473,-1692,-555,-167,-236,-87,267,163,-293
2,5619095,-3470,-1693,-554,-157,-232,-92,267,163,-293
2,5619100,-3470,-1693,-554,-157,-232,-92,267,163,-293
2,5619106,-3470,-1693,-554,-157,-232,-92,267,163,-293
2,5619113,-3471,-1694,-554,-154,-237,-86,267,163,-293
2,5619122,-3471,-1694,-554,-154,-237,-86,267,163,-293
2,5619128,-3471,-1694,-554,-154,-237,-86,267,163,-293
2,5619134,-3471,-1694,-557,-156,-229,-81,267,163,-293
2,5619142,-3471,-1694,-557,-156,-229,-81,267,163,-293
2,5619150,-3471,-1694,-557,-156,-229,-81,267,163,-293
2,5619158,-3471,-1694,-557,-156,-229,-81,267,163,-293
2,5619165,-3471,-1694,-557,-156,-229,-81,267,163,-293
2,5619172,-3471,-1694,-557,-156,-229,-81,267,163,-293
2,5619179,-3470,-1693,-551,-156,-236,-90,260,162,-288
2,5619186,-3470,-1693,-551,-156,-236,-90,260,162,-288
2,5619193,-3471,-1692,-561,-170,-237,-86,260,162,-288
2,5619200,-3471,-1692,-561,-170,-237,-86,260,162,-288
2,5619208,-3471,-1692,-561,-170,-237,-86,260,162,-288
2,5619216,-3471,-1692,-553,-157,-233,-81,260,162,-288
2,5619223,-3471,-1692,-553,-157,-233,-81,260,162,-288
2,5619230,-3471,-1692,-553,-157,-233,-81,260,162,-288
2,5619235,-3472,-1692,-552,-156,-236,-89,260,162,-288
2,5619243,-3472,-1692,-552,-156,-236,-89,260,162,-288
2,5619250,-3472,-1692,-552,-156,-236,-89,260,162,-288
2,5619257,-3470,-1692,-552,-165,-227,-94,260,162,-288
2,5619265,-3470,-1692,-552,-165,-227,-94,260,162,-288
2,5619272,-3470,-1692,-552,-165,-227,-94,260,162,-288
2,5619278,-3470,-1690,-555,-165,-232,-91,260,162,-288
2,5619286,-3470,-1690,-555,-165,-232,-91,260,162,-288
2,5619293,-3470,-1690,-555,-165,-232,-91,260,162,-288
2,5619299,-3470,-1692,-553,-165,-239,-87,261,163,-287
2,5619307,-3470,-1692,-553,-165,-239,-87,261,163,-287
2,5619313,-3471,-1692,-555,-160,-241,-85,261,163,-287
2,5619320,-3471,-1692,-555,-160,-241,-85,261,163,-287
2,5619328,-3471,-1692,-555,-160,-241,-85,261,163,-287
2,5619333,-3468,-1698,-554,-160,-247,-84,261,163,-287
2,5619341,-3468,-1698,-554,-160,-247,-84,261,163,-287
2,5619348,-3468,-1698,-554,-160,-247,-84,261,163,-287
2,5619356,-3470,-1693,-553,-165,-229,-82,261,163,-287
2,5619363,-3470,-1693,-553,-165,-229,-82,261,163,-287
2,5619371,-3470,-1693,-553,-165,-229,-82,261,163,-287
2,5619376,-3470,-1692,-558,-163,-233,-88,261,163,-287
2,5619381,-3470,-1692,-558,-163,-233,-88,261,163,-287
2,5619386,-3470,-1692,-558,-163,-233,-88,261,163,-287
2,5619392,-3470,-1692,-558,-163,-233,-88,261,163,-287
2,5619398,-3471,-1692,-557,-162,-248,-80,261,163,-287
2,5619406,-3471,-1692,-557,-162,-248,-80,261,163,-287
2,5619414,-3473,-1691,-547,-162,-242,-86,258,160,-292
2,5619420,-3473,-1691,-547,-162,-242,-86,258,160,-292
2,5619427,-3473,-1691,-547,-162,-242,-86,258,160,-292
2,5619435,-3470,-1693,-555,-162,-231,-89,258,160,-292
2,5619440,-3470,-1693,-555,-162,-231,-89,258,160,-292
2,5619447,-3470,-1693,-555,-162,-231,-89,258,160,-292
2,5619454,-3470,-1692,-553,-161,-229,-85,258,160,-292
2,5619462,-3470,-1692,-553,-161,-229,-85,258,160,-292
2,5619467,-3470,-1692,-553,-161,-229,-85,258,160,-292
2,5619475,-3467,-1692,-553,-163,-238,-84,258,160,-292
2,5619482,-3467,-1692,-553,-163,-238,-84,258,160,-292
2,5619489,-3467,-1692,-553,-163,-238,-84,258,160,-292
2,5619495,-3467,-1689,-559,-160,-239,-87,258,160,-292
2,5619502,-3467,-1689,-559,-160,-239,-87,258,160,-292
2,5619509,-3467,-1689,-559,-160,-239,-87,258,160,-292
2,5619517,-3471,-1691,-556,-158,-242,-93,258,160,-292
2,5619525,-3471,-1691,-556,-158,-242,-93,258,160,-292
2,5619534,-3470,-1690,-555,-161,-235,-89,269,165,-287
2,5619543,-3470,-1690,-555,-161,-235,-89,269,165,-287
2,5619551,-3470,-1690,-555,-161,-235,-89,269,165,-287
2,5619558,-3472,-1693,-555,-159,-234,-85,269,165,-287
2,5619567,-3472,-1693,-555,-159,-234,-85,269,165,-287
2,5619580,-3469,-1694,-557,-163,-234,-86,269,165,-287
2,5619594,-3469,-1693,-556,-156,-234,-88,269,165,-287
2,5619603,-3469,-1693,-556,-156,-234,-88,269,165,-287
2,5619615,-3469,-1692,-554,-164,-240,-87,269,165,-287
2,5619630,-3469,-1692,-554,-164,-240,-87,269,165,-287
2,5619643,-3472,-1696,-553,-169,-239,-89,269,165,-287
2,5619653,-3470,-1690,-553,-163,-246,-83,254,166,-286
2,5619665,-3470,-1690,-553,-163,-246,-83,254,166,-286
2,5619680,-3468,-1692,-551,-163,-240,-81,254,166,-286
2,5619691,-3468,-1692,-551,-163,-240,-81,254,166,-286
2,5619703,-3471,-1691,-556,-165,-241,-87,254,166,-286
2,5619717,-3470,-1693,-556,-164,-230,-87,254,166,-286
2,5619731,-3470,-1693,-556,-164,-230,-87,254,166,-286
2,5619743,-3468,-1695,-556,-158,-237,-90,254,166,-286
2,5619753,-3472,-1693,-551,-166,-242,-84,254,166,-286
2,5619766,-3472,-1693,-551,-166,-242,-84,254,166,-286
2,5619778,-3472,-1692,-554,-166,-240,-82,254,166,-286
2,5619790,-3472,-1692,-554,-166,-240,-82,254,166,-286
2,5619801,-3470,-1692,-555,-159,-235,-86,258,158,-284
2,5619814,-3470,-1692,-555,-159,-235,-86,258,158,-284
2,5619822,-3470,-1692,-555,-159,-235,-86,258,158,-284
2,5619829,-3470,-1692,-555,-159,-235,-86,258,158,-284
2,5619837,-3472,-1693,-557,-157,-234,-88,258,158,-284
2,5619846,-3472,-1693,-557,-157,-234,-88,258,158,-284
2,5619854,-3469,-1691,-552,-159,-232,-93,258,158,-284
2,5619862,-3469,-1691,-552,-159,-232,-93,258,158,-284
2,5619870,-3469,-1691,-552,-159,-232,-93,258,158,-284
2,5619878,-3472,-1692,-554,-155,-232,-88,258,158,-284
2,5619887,-3472,-1692,-554,-155,-232,-88,258,158,-284
2,5619896,-3469,-1693,-559,-159,-241,-88,258,158,-284
2,5619904,-3469,-1693,-559,-159,-241,-88,258,158,-284
2,5619911,-3469,-1693,-559,-159,-241,-88,258,158,-284
2,5619919,-3472,-1693,-552,-162,-232,-85,264,162,-288
2,5619933,-3472,-1693,-552,-162,-232,-85,264,162,-288
2,5619945,-3473,-1693,-552,-161,-241,-85,264,162,-288
2,5619958,-3471,-1695,-555,-157,-231,-87,264,162,-288
2,5619971,-3471,-1695,-555,-157,-231,-87,264,162,-288
2,5619983,-3472,-1692,-558,-167,-232,-82,264,162,-288
2,5619994,-3471,-1692,-553,-160,-241,-87,264,162,-288
2,5620005,-3471,-1692,-553,-160,-241,-87,264,162,-288
2,5620018,-3469,-1695,-556,-158,-244,-88,264,162,-288
2,5620026,-3469,-1695,-556,-158,-244,-88,264,162,-288
2,5620034,-3471,-1695,-553,-161,-232,-87,262,154,-278
2,5620042,-3471,-1695,-553,-161,-232,-87,262,154,-278
2,5620049,-3471,-1695,-553,-161,-232,-87,262,154,-278
2,5620063,-3470,-1694,-554,-163,-241,-82,262,154,-278
2,5620076,-3468,-1692,-554,-158,-237,-84,262,154,-278
2,5620087,-3468,-1692,-554,-158,-237,-84,262,154,-278
2,5620100,-3471,-1693,-556,-161,-232,-88,262,154,-278
2,5620112,-3471,-1693,-556,-161,-232,-88,262,154,-278
2,5620125,-3473,-1696,-559,-164,-238,-89,262,154,-278
2,5620137,-3472,-1691,-560,-158,-239,-84,262,154,-278
2,5620151,-3472,-1691,-560,-158,-239,-84,262,154,-278
2,5620163,-3472,-1692,-556,-160,-235,-88,265,159,-285
2,5620175,-3469,-1693,-548,-153,-239,-80,265,159,-285
2,5620189,-3469,-1693,-548,-153,-239,-80,265,159,-285
2,5620201,-3472,-1691,-554,-169,-236,-86,265,159,-285
2,5620212,-3472,-1691,-554,-169,-236,-86,265,159,-285
2,5620225,-3470,-1692,-559,-166,-228,-87,265,159,-285
2,5620238,-3471,-1696,-558,-154,-238,-90,265,159,-285
2,5620250,-3471,-1696,-558,-154,-238,-90,265,159,-285
2,5620258,-3472,-1694,-561,-169,-236,-88,265,159,-285
2,5620271,-3472,-1694,-561,-169,-236,-88,265,159,-285
2,5620283,-3468,-1692,-549,-157,-235,-83,259,161,-283
2,5620295,-3470,-1692,-555,-154,-238,-83,259,161,-283
2,5620306,-3470,-1692,-555,-154,-238,-83,259,161,-283
2,5620319,-3468,-1692,-556,-158,-236,-86,259,161,-283
2,5620332,-3468,-1692,-556,-158,-236,-86,259,161,-283
2,5620344,-3470,-1694,-556,-167,-235,-82,259,161,-283
2,5620357,-3471,-1695,-555,-161,-242,-84,259,161,-283
2,5620370,-3471,-1695,-555,-161,-242,-84,259,161,-283
2,5620383,-3473,-1692,-553,-170,-236,-88,259,161,-283
2,5620395,-3473,-1693,-557,-167,-241,-86,259,161,-283
2,5620407,-3473,-1693,-557,-167,-241,-86,259,161,-283
2,5620420,-3472,-1691,-556,-168,-240,-85,258,166,-290
2,5620434,-3473,-1692,-555,-164,-248,-91,258,166,-290
2,5620447,-3473,-1692,-555,-164,-248,-91,258,166,-290
2,5620457,-3470,-1691,-553,-157,-235,-86,258,166,-290
2,5620469,-3470,-1691,-553,-157,-235,-86,258,166,-290
2,5620482,-3470,-1694,-552,-160,-238,-85,258,166,-290
2,5620494,-3474,-1695,-556,-158,-244,-84,258,166,-290
2,5620506,-3474,-1695,-556,-158,-244,-84,258,166,-290
2,5620519,-3470,-1692,-554,-163,-237,-87,258,166,-290
2,5620532,-3470,-1692,-554,-163,-237,-87,258,166,-290
2,5620537,-3472,-1691,-550,-160,-235,-89,262,164,-290
2,5620542,-3472,-1691,-550,-160,-235,-89,262,164,-290
2,5620547,-3472,-1691,-550,-160,-235,-89,262,164,-290
2,5620552,-3472,-1691,-550,-160,-235,-89,262,164,-290
2,5620557,-3469,-1694,-549,-167,-230,-90,262,164,-290
2,5620563,-3469,-1694,-549,-167,-230,-90,262,164,-290
2,5620569,-3469,-1694,-549,-167,-230,-90,262,164,-290
2,5620575,-3470,-1694,-553,-163,-233,-91,262,164,-290
2,5620580,-3470,-1694,-553,-163,-233,-91,262,164,-290
2,5620585,-3470,-1694,-553,-163,-233,-91,262,164,-290
2,5620590,-3470,-1694,-553,-163,-233,-91,262,164,-290
2,5620597,-3472,-1693,-553,-156,-238,-84,262,164,-290
2,5620603,-3472,-1693,-553,-156,-238,-84,262,164,-290
2,5620610,-3472,-1693,-553,-156,-238,-84,262,164,-290
2,5620615,-3470,-1694,-554,-159,-237,-94,262,164,-290
2,5620620,-3470,-1694,-554,-159,-237,-94,262,164,-290
2,5620626,-3470,-1694,-554,-159,-237,-94,262,164,-290
2,5620632,-3470,-1694,-554,-159,-237,-94,262,164,-290
2,5620638,-3473,-1693,-554,-166,-241,-83,262,164,-290
2,5620643,-3473,-1693,-554,-166,-241,-83,262,164,-290
2,5620648,-3473,-1693,-554,-166,-241,-83,262,164,-290
2,5620655,-3472,-1695,-554,-164,-238,-90,262,156,-288
2,5620661,-3472,-1695,-554,-164,-238,-90,262,156,-288
2,5620667,-3472,-1695,-554,-164,-238,-90,262,156,-288
2,5620673,-3472,-1695,-554,-164,-238,-90,262,156,-288
2,5620679,-3472,-1693,-558,-164,-239,-90,262,156,-288
2,5620684,-3472,-1693,-558,-164,-239,-90,262,156,-288
2,5620690,-3472,-1693,-558,-164,-239,-90,262,156,-288
2,5620697,-3469,-1693,-553,-165,-237,-85,262,156,-288
2,5620702,-3469,-1693,-553,-165,-237,-85,262,156,-288
2,5620707,-3469,-1693,-553,-165,-237,-85,262,156,-288
2,5620713,-3469,-1693,-553,-165,-237,-85,262,156,-288
2,5620719,-3471,-1695,-556,-167,-236,-81,262,156,-288
2,5620724,-3471,-1695,-556,-167,-236,-81,262,156,-288
2,5620730,-3471,-1695,-556,-167,-236,-81,262,156,-288
2,5620736,-3468,-1692,-554,-157,-231,-78,262,156,-288
2,5620742,-3468,-1692,-554,-157,-231,-78,262,156,-288
2,5620747,-3468,-1692,-554,-157,-231,-78,262,156,-288
2,5620752,-3468,-1692,-554,-157,-231,-78,262,156,-288
2,5620758,-3468,-1692,-559,-158,-228,-91,262,156,-288
2,5620763,-3468,-1692,-559,-158,-228,-91,262,156,-288
2,5620768,-3468,-1692,-559,-158,-228,-91,262,156,-288
2,5620773,-3468,-1692,-559,-158,-228,-91,262,156,-288
2,5620780,-3471,-1692,-553,-163,-235,-83,261,169,-287
2,5620785,-3471,-1692,-553,-163,-235,-83,261,169,-287
2,5620791,-3471,-1692,-553,-163,-235,-83,261,169,-287
2,5620796,-3469,-1696,-556,-160,-244,-85,261,169,-287
2,5620802,-3469,-1696,-556,-160,-244,-85,261,169,-287
2,5620808,-3469,-1696,-556,-160,-244,-85,261,169,-287
2,5620813,-3469,-1696,-556,-160,-244,-85,261,169,-287
2,5620818,-3471,-1692,-556,-155,-241,-73,261,169,-287
2,5620824,-3471,-1692,-556,-155,-241,-73,261,169,-287
2,5620829,-3471,-1692,-556,-155,-241,-73,261,169,-287
2,5620834,-3471,-1692,-556,-155,-241,-73,261,169,-287
2,5620839,-3471,-1692,-554,-154,-240,-73,261,169,-287
2,5620844,-3471,-1692,-554,-154,-240,-73,261,169,-287
2,5620849,-3471,-1692,-554,-154,-240,-73,261,169,-287
2,5620855,-3471,-1691,-560,-158,-247,-82,261,169,-287
2,5620859,-3471,-1691,-560,-158,-247,-82,261,169,-287
2,5620865,-3471,-1691,-560,-158,-247,-82,261,169,-287
2,5620871,-3471,-1691,-560,-158,-247,-82,261,169,-287
2,5620877,-3471,-1691,-560,-158,-247,-82,261,169,-287
2,5620882,-3471,-1691,-560,-158,-247,-82,261,169,-287
2,5620888,-3471,-1691,-560,-158,-247,-82,261,169,-287
2,5620893,-3471,-1691,-560,-158,-247,-82,261,169,-287
2,5620899,-3472,-1692,-552,-154,-238,-86,257,159,-283
2,5620905,-3472,-1692,-552,-154,-238,-86,257,159,-283
2,5620911,-3472,-1692,-552,-154,-238,-86,257,159,-283
2,5620916,-3470,-1696,-553,-168,-242,-80,257,159,-283
2,5620922,-3470,-1696,-553,-168,-242,-80,257,159,-283
2,5620927,-3470,-1696,-553,-168,-242,-80,257,159,-283
2,5620933,-3470,-1696,-553,-168,-242,-80,257,159,-283
2,5620939,-3471,-1692,-556,-165,-237,-84,257,159,-283
2,5620944,-3471,-1692,-556,-165,-237,-84,257,159,-283
2,5620951,-3471,-1692,-556,-165,-237,-84,257,159,-283
2,5620957,-3471,-1694,-552,-161,-235,-81,257,159,-283
2,5620961,-3471,-1694,-552,-161,-235,-81,257,159,-283
2,5620967,-3471,-1694,-552,-161,-235,-81,257,159,-283
2,5620972,-3471,-1694,-552,-161,-235,-81,257,159,-283
2,5620978,-3472,-1690,-554,-163,-241,-85,257,159,-283
2,5620984,-3472,-1690,-554,-163,-241,-85,257,159,-283
2,5620989,-3472,-1690,-554,-163,-241,-85,257,159,-283
2,5620997,-3469,-1692,-553,-166,-241,-81,257,159,-283
2,5621002,-3469,-1692,-553,-166,-241,-81,257,159,-283
2,5621007,-3469,-1692,-553,-166,-241,-81,257,159,-283
2,5621013,-3469,-1692,-553,-166,-241,-81,257,159,-283
2,5621019,-3471,-1693,-556,-163,-234,-81,257,159,-283
2,5621025,-3471,-1693,-556,-163,-234,-81,257,159,-283
2,5621030,-3471,-1693,-556,-163,-234,-81,257,159,-283
2,5621037,-3469,-1692,-555,-161,-234,-82,257,159,-283
2,5621043,-3469,-1692,-555,-161,-234,-82,257,159,-283
2,5621048,-3469,-1692,-555,-161,-234,-82,257,159,-283
2,5621053,-3469,-1692,-555,-161,-234,-82,257,159,-283
2,5621059,-3472,-1690,-559,-159,-236,-84,257,159,-283
2,5621064,-3472,-1690,-559,-159,-236,-84,257,159,-283
2,5621070,-3472,-1690,-559,-159,-236,-84,257,159,-283
2,5621075,-3471,-1691,-555,-157,-239,-77,257,159,-283
2,5621082,-3471,-1691,-555,-157,-239,-77,257,159,-283
2,5621087,-3471,-1691,-555,-157,-239,-77,257,159,-283
2,5621092,-3471,-1691,-555,-157,-239,-77,257,159,-283
2,5621097,-3472,-1691,-557,-157,-245,-85,257,159,-283
2,5621103,-3472,-1691,-557,-157,-245,-85,257,159,-283
2,5621108,-3472,-1691,-557,-157,-245,-85,257,159,-283
2,5621114,-3470,-1693,-553,-161,-234,-78,257,159,-283
2,5621121,-3470,-1693,-553,-161,-234,-78,257,159,-283
2,5621127,-3470,-1693,-553,-161,-234,-78,257,159,-283
2,5621132,-3470,-1693,-553,-161,-234,-78,257,159,-283
2,5621138,-3474,-1693,-555,-162,-227,-77,257,159,-283
2,5621143,-3474,-1693,-555,-162,-227,-77,257,159,-283
2,5621149,-3474,-1693,-555,-162,-227,-77,257,159,-283
2,5621156,-3469,-1691,-557,-156,-239,-84,259,163,-285
2,5621161,-3469,-1691,-557,-156,-239,-84,259,163,-285
2,5621167,-3469,-1691,-557,-156,-239,-84,259,163,-285
2,5621172,-3469,-1691,-557,-156,-239,-84,259,163,-285
2,5621178,-3469,-1691,-557,-156,-239,-84,259,163,-285
2,5621183,-3469,-1691,-557,-156,-239,-84,259,163,-285
2,5621189,-3469,-1691,-557,-156,-239,-84,259,163,-285
2,5621194,-3469,-1693,-549,-164,-239,-88,259,163,-285
2,5621200,-3469,-1693,-549,-164,-239,-88,259,163,-285
2,5621207,-3469,-1693,-549,-164,-239,-88,259,163,-285
2,5621213,-3469,-1693,-549,-164,-239,-88,259,163,-285
2,5621219,-3472,-1691,-553,-167,-231,-79,259,163,-285
2,5621225,-3472,-1691,-553,-167,-231,-79,259,163,-285
2,5621230,-3472,-1691,-553,-167,-231,-79,259,163,-285
2,5621236,-3470,-1690,-558,-166,-239,-83,259,163,-285
