imu,time,ax,ay,az,gx,gy,gz,mx,my,mz
0,4941457,202,-1876,-389,-1020,-561,-325,257,143,-443
0,4941468,202,-1876,-389,-1020,-561,-325,257,143,-443
0,4941472,202,-1876,-389,-1020,-561,-325,257,143,-443
0,4941477,199,-1872,-387,-1018,-558,-322,257,143,-443
0,4941484,199,-1872,-387,-1018,-558,-322,257,143,-443
0,4941489,199,-1872,-387,-1018,-558,-322,257,143,-443
0,4941494,199,-1872,-387,-1018,-558,-322,257,143,-443
0,4941499,200,-1873,-384,-1025,-558,-324,257,143,-443
0,4941505,200,-1873,-384,-1025,-558,-324,257,143,-443
0,4941512,200,-1873,-384,-1025,-558,-324,257,143,-443
0,4941517,199,-1872,-384,-1027,-572,-336,257,143,-443
0,4941522,199,-1872,-384,-1027,-572,-336,257,143,-443
0,4941528,199,-1872,-384,-1027,-572,-336,257,143,-443
0,4941533,199,-1872,-384,-1027,-572,-336,257,143,-443
0,4941538,200,-1874,-379,-1030,-572,-331,253,139,-449
0,4941543,200,-1874,-379,-1030,-572,-331,253,139,-449
0,4941548,200,-1874,-379,-1030,-572,-331,253,139,-449
0,4941553,200,-1874,-379,-1030,-572,-331,253,139,-449
0,4941558,199,-1875,-378,-1024,-564,-322,253,139,-449
0,4941564,199,-1875,-378,-1024,-564,-322,253,139,-449
0,4941571,199,-1875,-378,-1024,-564,-322,253,139,-449
0,4941577,199,-1875,-378,-1024,-564,-322,253,139,-449
0,4941582,198,-1875,-383,-1016,-563,-328,253,139,-449
0,4941590,198,-1875,-383,-1016,-563,-328,253,139,-449
0,4941596,198,-1875,-383,-1016,-563,-328,253,139,-449
0,4941603,201,-1874,-382,-1022,-561,-326,253,139,-449
0,4941611,201,-1874,-382,-1022,-561,-326,253,139,-449
0,4941619,198,-1868,-381,-1022,-565,-328,253,139,-449
0,4941626,198,-1868,-381,-1022,-565,-328,253,139,-449
0,4941632,198,-1868,-381,-1022,-565,-328,253,139,-449
0,4941637,198,-1872,-381,-1014,-566,-324,253,139,-449
0,4941642,198,-1872,-381,-1014,-566,-324,253,139,-449
0,4941648,198,-1872,-381,-1014,-566,-324,253,139,-449
0,4941652,198,-1872,-381,-1014,-566,-324,253,139,-449
0,4941660,197,-1873,-377,-1014,-564,-333,260,146,-448
0,4941666,197,-1873,-377,-1014,-564,-333,260,146,-448
0,4941674,197,-1873,-377,-1014,-564,-333,260,146,-448
0,4941681,203,-1876,-378,-1018,-566,-333,260,146,-448
0,4941686,203,-1876,-378,-1018,-566,-333,260,146,-448
0,4941691,203,-1876,-378,-1018,-566,-333,260,146,-448
0,4941697,203,-1876,-378,-1018,-566,-333,260,146,-448
0,4941705,202,-1875,-381,-1028,-566,-326,260,146,-448
0,4941710,202,-1875,-381,-1028,-566,-326,260,146,-448
0,4941715,202,-1875,-381,-1028,-566,-326,260,146,-448
0,4941720,205,-1872,-383,-1033,-564,-327,260,146,-448
0,4941725,205,-1872,-383,-1033,-564,-327,260,146,-448
0,4941730,205,-1872,-383,-1033,-564,-327,260,146,-448
0,4941737,201,-1875,-384,-1032,-562,-324,260,146,-448
0,4941745,201,-1875,-384,-1032,-562,-324,260,146,-448
0,4941753,201,-1875,-384,-1032,-562,-324,260,146,-448
0,4941760,201,-1875,-384,-1030,-561,-318,260,146,-448
0,4941766,201,-1875,-384,-1030,-561,-318,260,146,-448
0,4941773,201,-1875,-384,-1030,-561,-318,260,146,-448
0,4941780,200,-1874,-379,-1025,-562,-327,262,148,-448
0,4941786,200,-1874,-379,-1025,-562,-327,262,148,-448
0,4941794,200,-1874,-379,-1025,-562,-327,262,148,-448
0,4941802,198,-1873,-378,-1024,-566,-333,262,148,-448
0,4941810,198,-1873,-378,-1024,-566,-333,262,148,-448
0,4941816,198,-1873,-378,-1024,-566,-333,262,148,-448
0,4941822,198,-1878,-382,-1023,-564,-324,262,148,-448
0,4941828,198,-1878,-382,-1023,-564,-324,262,148,-448
0,4941837,198,-1878,-382,-1023,-564,-324,262,148,-448
0,4941842,197,-1876,-386,-1019,-564,-332,262,148,-448
0,4941848,197,-1876,-386,-1019,-564,-332,262,148,-448
0,4941855,197,-1876,-386,-1019,-564,-332,262,148,-448
0,4941862,199,-1875,-384,-1021,-566,-330,262,148,-448
0,4941871,199,-1875,-384,-1021,-566,-330,262,148,-448
0,4941877,197,-1875,-381,-1024,-568,-329,262,148,-448
0,4941885,197,-1875,-381,-1024,-568,-329,262,148,-448
0,4941891,197,-1875,-381,-1024,-568,-329,262,148,-448
0,4941897,199,-1875,-382,-1025,-563,-327,262,148,-448
0,4941902,199,-1875,-382,-1025,-563,-327,262,148,-448
0,4941910,199,-1875,-382,-1025,-563,-327,262,148,-448
0,4941918,199,-1875,-383,-1016,-560,-322,262,148,-448
0,4941924,199,-1875,-383,-1016,-560,-322,250,138,-452
0,4941931,199,-1875,-383,-1016,-560,-322,250,138,-452
0,4941936,199,-1875,-383,-1016,-560,-322,250,138,-452
0,4941944,198,-1873,-384,-1022,-565,-327,250,138,-452
0,4941952,198,-1873,-384,-1022,-565,-327,250,138,-452
0,4941960,197,-1873,-380,-1028,-561,-327,250,138,-452
0,4941968,197,-1873,-380,-1028,-561,-327,250,138,-452
0,4941975,197,-1873,-380,-1028,-561,-327,250,138,-452
0,4941983,199,-1874,-382,-1023,-570,-330,250,138,-452
0,4941989,199,-1874,-382,-1023,-570,-330,250,138,-452
0,4941998,201,-1877,-380,-1024,-565,-326,250,138,-452
0,4942004,201,-1877,-380,-1024,-565,-326,250,138,-452
0,4942011,201,-1877,-380,-1024,-565,-326,250,138,-452
0,4942019,200,-1876,-386,-1019,-568,-328,250,138,-452
0,4942025,200,-1876,-386,-1019,-568,-328,250,138,-452
0,4942032,200,-1876,-386,-1019,-568,-328,250,138,-452
0,4942040,200,-1877,-374,-1029,-567,-326,258,144,-444
0,4942047,200,-1877,-374,-1029,-567,-326,258,144,-444
0,4942053,200,-1877,-374,-1029,-567,-326,258,144,-444
0,4942062,199,-1876,-377,-1025,-565,-326,258,144,-444
0,4942069,199,-1876,-377,-1025,-565,-326,258,144,-444
0,4942077,201,-1874,-380,-1022,-570,-324,258,144,-444
0,4942085,201,-1874,-380,-1022,-570,-324,258,144,-444
0,4942090,201,-1874,-380,-1022,-570,-324,258,144,-444
0,4942096,201,-1874,-380,-1022,-570,-324,258,144,-444
0,4942104,200,-1874,-386,-1031,-564,-325,258,144,-444
0,4942111,200,-1874,-386,-1031,-564,-325,258,144,-444
0,4942117,200,-1876,-386,-1021,-569,-325,258,144,-444
0,4942124,200,-1876,-386,-1021,-569,-325,258,144,-444
0,4942129,200,-1876,-386,-1021,-569,-325,258,144,-444
0,4942135,200,-1876,-386,-1021,-569,-325,258,144,-444
0,4942142,199,-1876,-384,-1025,-568,-328,258,144,-444
0,4942148,199,-1876,-384,-1025,-568,-328,258,144,-444
0,4942154,199,-1876,-384,-1025,-568,-328,258,144,-444
0,4942162,200,-1871,-384,-1025,-562,-324,258,144,-444
0,4942170,200,-1871,-384,-1025,-562,-324,258,144,-444
0,4942178,202,-1873,-377,-1026,-566,-321,258,144,-444
0,4942186,202,-1873,-377,-1026,-566,-321,255,139,-447
0,4942193,202,-1873,-377,-1026,-566,-321,255,139,-447
0,4942199,198,-1875,-385,-1018,-571,-320,255,139,-447
0,4942204,198,-1875,-385,-1018,-571,-320,255,139,-447
0,4942213,198,-1875,-385,-1018,-571,-320,255,139,-447
0,4942220,201,-1871,-382,-1019,-566,-320,255,139,-447
0,4942227,201,-1871,-382,-1019,-566,-320,255,139,-447
0,4942234,201,-1871,-382,-1019,-566,-320,255,139,-447
0,4942241,199,-1874,-379,-1019,-570,-323,255,139,-447
0,4942249,199,-1874,-379,-1019,-570,-323,255,139,-447
0,4942257,199,-1874,-379,-1019,-570,-323,255,139,-447
0,4942264,199,-1871,-387,-1022,-566,-321,255,139,-447
0,4942271,199,-1871,-387,-1022,-566,-321,255,139,-447
0,4942279,200,-1876,-379,-1025,-562,-319,255,139,-447
0,4942285,200,-1876,-379,-1025,-562,-319,255,139,-447
0,4942291,200,-1876,-379,-1025,-562,-319,255,139,-447
0,4942300,202,-1871,-380,-1018,-564,-330,262,154,-442
0,4942307,202,-1871,-380,-1018,-564,-330,262,154,-442
0,4942314,202,-1871,-380,-1018,-564,-330,262,154,-442
0,4942322,199,-1872,-381,-1020,-566,-330,262,154,-442
0,4942328,199,-1872,-381,-1020,-566,-330,262,154,-442
0,4942336,199,-1872,-381,-1020,-566,-330,262,154,-442
0,4942341,202,-1873,-385,-1025,-568,-323,262,154,-442
0,4942348,202,-1873,-385,-1025,-568,-323,262,154,-442
0,4942355,202,-1873,-385,-1025,-568,-323,262,154,-442
0,4942362,203,-1876,-381,-1034,-562,-330,262,154,-442
0,4942369,203,-1876,-381,-1034,-562,-330,262,154,-442
0,4942377,203,-1876,-381,-1034,-562,-330,262,154,-442
0,4942385,202,-1871,-382,-1030,-565,-331,262,154,-442
0,4942391,202,-1871,-382,-1030,-565,-331,262,154,-442
0,4942398,198,-1875,-380,-1026,-571,-329,262,154,-442
0,4942404,198,-1875,-380,-1026,-571,-329,262,154,-442
0,4942411,198,-1875,-380,-1026,-571,-329,262,154,-442
0,4942418,199,-1874,-379,-1024,-560,-328,262,154,-442
0,4942425,199,-1874,-379,-1024,-560,-328,262,154,-442
0,4942432,199,-1874,-379,-1024,-560,-328,262,154,-442
0,4942438,198,-1871,-380,-1029,-571,-320,259,149,-441
0,4942446,198,-1871,-380,-1029,-571,-320,259,149,-441
0,4942451,198,-1871,-380,-1029,-571,-320,259,149,-441
0,4942458,200,-1872,-384,-1026,-566,-324,259,149,-441
0,4942467,200,-1872,-384,-1026,-566,-324,259,149,-441
0,4942475,200,-1872,-384,-1026,-566,-324,259,149,-441
0,4942481,197,-1873,-380,-1029,-568,-321,259,149,-441
0,4942486,197,-1873,-380,-1029,-568,-321,259,149,-441
0,4942491,197,-1873,-380,-1029,-568,-321,259,149,-441
0,4942497,197,-1873,-380,-1029,-568,-321,259,149,-441
0,4942502,197,-1873,-380,-1029,-568,-321,259,149,-441
0,4942512,197,-1873,-380,-1029,-568,-321,259,149,-441
0,4942517,197,-1873,-380,-1029,-568,-321,259,149,-441
0,4942522,200,-1874,-388,-1026,-565,-325,259,149,-441
0,4942529,200,-1874,-388,-1026,-565,-325,259,149,-441
0,4942535,200,-1874,-388,-1026,-565,-325,259,149,-441
0,4942542,198,-1872,-381,-1013,-568,-323,259,149,-441
0,4942548,198,-1872,-381,-1013,-568,-323,259,149,-441
0,4942555,198,-1872,-381,-1013,-568,-323,259,149,-441
0,4942561,198,-1872,-378,-1027,-571,-324,263,139,-449
0,4942567,198,-1872,-378,-1027,-571,-324,263,139,-449
0,4942573,198,-1872,-378,-1027,-571,-324,263,139,-449
0,4942578,202,-1873,-384,-1030,-565,-326,263,139,-449
0,4942584,202,-1873,-384,-1030,-565,-326,263,139,-449
0,4942589,202,-1873,-384,-1030,-565,-326,263,139,-449
0,4942596,202,-1873,-384,-1030,-565,-326,263,139,-449
0,4942601,200,-1877,-389,-1033,-571,-323,263,139,-449
0,4942608,200,-1877,-389,-1033,-571,-323,263,139,-449
0,4942614,200,-1877,-389,-1033,-571,-323,263,139,-449
0,4942620,201,-1875,-385,-1031,-571,-324,263,139,-449
0,4942625,201,-1875,-385,-1031,-571,-324,263,139,-449
0,4942630,201,-1875,-385,-1031,-571,-324,263,139,-449
0,4942636,201,-1875,-385,-1031,-571,-324,263,139,-449
0,4942642,198,-1875,-381,-1026,-560,-331,263,139,-449
0,4942647,198,-1875,-381,-1026,-560,-331,263,139,-449
0,4942653,198,-1875,-381,-1026,-560,-331,263,139,-449
0,4942658,198,-1875,-381,-1026,-560,-331,263,139,-449
0,4942664,201,-1872,-384,-1031,-566,-329,263,139,-449
0,4942670,201,-1872,-384,-1031,-566,-329,263,139,-449
0,4942675,201,-1872,-384,-1031,-566,-329,263,139,-449
0,4942681,202,-1874,-385,-1033,-565,-324,253,149,-441
0,4942686,202,-1874,-385,-1033,-565,-324,253,149,-441
0,4942691,202,-1874,-385,-1033,-565,-324,253,149,-441
0,4942696,202,-1874,-385,-1033,-565,-324,253,149,-441
0,4942701,198,-1871,-383,-1030,-566,-332,253,149,-441
0,4942706,198,-1871,-383,-1030,-566,-332,253,149,-441
0,4942711,198,-1871,-383,-1030,-566,-332,253,149,-441
0,4942716,198,-1871,-383,-1030,-566,-332,253,149,-441
0,4942722,199,-1870,-384,-1024,-571,-334,253,149,-441
0,4942727,199,-1870,-384,-1024,-571,-334,253,149,-441
0,4942732,199,-1870,-384,-1024,-571,-334,253,149,-441
0,4942738,200,-1876,-389,-1023,-564,-333,253,149,-441
0,4942744,200,-1876,-389,-1023,-564,-333,253,149,-441
0,4942750,200,-1876,-389,-1023,-564,-333,253,149,-441
0,4942756,200,-1876,-389,-1023,-564,-333,253,149,-441
0,4942761,199,-1873,-387,-1028,-570,-331,253,149,-441
0,4942769,199,-1873,-387,-1028,-570,-331,253,149,-441
0,4942774,199,-1873,-387,-1028,-570,-331,253,149,-441
0,4942779,201,-1874,-386,-1030,-561,-327,253,149,-441
0,4942785,201,-1874,-386,-1030,-561,-327,253,149,-441
0,4942791,201,-1874,-386,-1030,-561,-327,253,149,-441
0,4942798,201,-1874,-386,-1030,-561,-327,253,149,-441
0,4942803,201,-1871,-380,-1035,-565,-330,253,149,-441
0,4942810,201,-1871,-380,-1035,-565,-330,253,149,-441
0,4942816,201,-1871,-380,-1035,-565,-330,253,149,-441
0,4942821,199,-1872,-381,-1028,-567,-325,259,145,-439
0,4942827,199,-1872,-381,-1028,-567,-325,259,145,-439
0,4942833,199,-1872,-381,-1028,-567,-325,259,145,-439
0,4942838,202,-1873,-387,-1024,-566,-326,259,145,-439
0,4942844,202,-1873,-387,-1024,-566,-326,259,145,-439
0,4942853,202,-1873,-387,-1024,-566,-326,259,145,-439
0,4942858,202,-1873,-387,-1024,-566,-326,259,145,-439
0,4942865,198,-1869,-385,-1027,-565,-323,259,145,-439
0,4942873,198,-1869,-385,-1027,-565,-323,259,145,-439
0,4942881,199,-1873,-386,-1027,-562,-320,259,145,-439
0,4942889,199,-1873,-386,-1027,-562,-320,259,145,-439
0,4942896,199,-1873,-386,-1027,-562,-320,259,145,-439
0,4942903,199,-1874,-382,-1029,-561,-322,259,145,-439
0,4942910,199,-1874,-382,-1029,-561,-322,259,145,-439
0,4942916,199,-1874,-382,-1029,-561,-322,259,145,-439
0,4942923,201,-1873,-381,-1030,-560,-323,259,145,-439
0,4942931,201,-1873,-381,-1030,-560,-323,259,145,-439
0,4942939,199,-1870,-381,-1024,-561,-317,252,140,-436
0,4942944,199,-1870,-381,-1024,-561,-317,252,140,-436
0,4942952,199,-1870,-381,-1024,-561,-317,252,140,-436
0,4942959,200,-1872,-378,-1025,-564,-319,252,140,-436
0,4942967,200,-1872,-378,-1025,-564,-319,252,140,-436
0,4942973,200,-1872,-378,-1025,-564,-319,252,140,-436
0,4942981,201,-1875,-379,-1028,-568,-336,252,140,-436
0,4942987,201,-1875,-379,-1028,-568,-336,252,140,-436
0,4942992,201,-1875,-379,-1028,-568,-336,252,140,-436
0,4943000,200,-1876,-382,-1029,-569,-332,252,140,-436
0,4943008,200,-1876,-382,-1029,-569,-332,252,140,-436
0,4943015,200,-1876,-382,-1029,-569,-332,252,140,-436
0,4943024,198,-1875,-379,-1027,-562,-324,252,140,-436
0,4943032,198,-1875,-379,-1027,-562,-324,252,140,-436
0,4943038,198,-1875,-379,-1027,-562,-324,252,140,-436
0,4943045,199,-1876,-386,-1022,-556,-331,252,140,-436
0,4943052,199,-1876,-386,-1022,-556,-331,252,140,-436
0,4943060,196,-1875,-387,-1028,-568,-329,252,140,-436
0,4943068,196,-1875,-387,-1028,-568,-329,252,140,-436
0,4943075,196,-1875,-387,-1028,-568,-329,252,140,-436
0,4943083,198,-1872,-383,-1034,-575,-320,264,148,-444
0,4943090,198,-1872,-383,-1034,-575,-320,264,148,-444
0,4943098,198,-1872,-383,-1034,-575,-320,264,148,-444
0,4943104,198,-1875,-383,-1022,-575,-329,264,148,-444
0,4943111,198,-1875,-383,-1022,-575,-329,264,148,-444
0,4943117,198,-1875,-383,-1022,-575,-329,264,148,-444
0,4943124,198,-1873,-386,-1023,-566,-330,264,148,-444
0,4943131,198,-1873,-386,-1023,-566,-330,264,148,-444
0,4943138,198,-1873,-386,-1023,-566,-330,264,148,-444
0,4943143,200,-1874,-381,-1032,-566,-330,264,148,-444
0,4943152,200,-1874,-381,-1032,-566,-330,264,148,-444
0,4943159,201,-1875,-381,-1030,-564,-329,264,148,-444
0,4943167,201,-1875,-381,-1030,-564,-329,264,148,-444
0,4943175,201,-1875,-381,-1030,-564,-329,264,148,-444
0,4943182,201,-1875,-382,-1026,-560,-328,264,148,-444
0,4943187,201,-1875,-382,-1026,-560,-328,264,148,-444
0,4943196,201,-1875,-382,-1026,-560,-328,264,148,-444
0,4943202,200,-1875,-383,-1030,-565,-331,260,142,-440
0,4943209,200,-1875,-383,-1030,-565,-331,260,142,-440
0,4943217,200,-1875,-383,-1030,-565,-331,260,142,-440
0,4943224,203,-1869,-381,-1034,-573,-332,260,142,-440
0,4943234,203,-1869,-381,-1034,-573,-332,260,142,-440
0,4943241,201,-1875,-386,-1022,-567,-324,260,142,-440
0,4943248,201,-1875,-386,-1022,-567,-324,260,142,-440
0,4943254,201,-1875,-386,-1022,-567,-324,260,142,-440
0,4943261,200,-1872,-383,-1024,-564,-323,260,142,-440
0,4943268,200,-1872,-383,-1024,-564,-323,260,142,-440
0,4943277,200,-1872,-383,-1024,-564,-323,260,142,-440
0,4943284,199,-1875,-384,-1028,-563,-322,260,142,-440
0,4943290,199,-1875,-384,-1028,-563,-322,260,142,-440
0,4943296,199,-1875,-384,-1028,-563,-322,260,142,-440
0,4943302,198,-1875,-387,-1032,-569,-326,260,142,-440
0,4943309,198,-1875,-387,-1032,-569,-326,260,142,-440
0,4943318,198,-1875,-387,-1032,-569,-326,260,142,-440
0,4943325,202,-1874,-383,-1031,-565,-325,258,146,-446
0,4943331,202,-1874,-383,-1031,-565,-325,258,146,-446
0,4943338,202,-1874,-383,-1031,-565,-325,258,146,-446
0,4943345,200,-1873,-384,-1030,-562,-328,258,146,-446
0,4943352,200,-1873,-384,-1030,-562,-328,258,146,-446
0,4943360,200,-1874,-384,-1034,-560,-327,258,146,-446
0,4943368,200,-1874,-384,-1034,-560,-327,258,146,-446
0,4943375,200,-1874,-384,-1034,-560,-327,258,146,-446
0,4943384,200,-1874,-385,-1029,-569,-322,258,146,-446
0,4943391,200,-1874,-385,-1029,-569,-322,258,146,-446
0,4943395,200,-1874,-385,-1029,-569,-322,258,146,-446
0,4943401,202,-1876,-387,-1024,-576,-325,258,146,-446
0,4943407,202,-1876,-387,-1024,-576,-325,258,146,-446
0,4943413,202,-1876,-387,-1024,-576,-325,258,146,-446
0,4943420,200,-1875,-387,-1032,-569,-323,258,146,-446
0,4943427,200,-1875,-387,-1032,-569,-323,258,146,-446
0,4943434,200,-1875,-387,-1032,-569,-323,258,146,-446
0,4943441,199,-1875,-383,-1022,-566,-324,258,146,-446
0,4943448,199,-1875,-383,-1022,-566,-324,258,146,-446
0,4943455,199,-1875,-383,-1022,-566,-324,258,146,-446
0,4943461,200,-1871,-374,-1019,-568,-323,253,141,-451
0,4943468,200,-1871,-374,-1019,-568,-323,253,141,-451
0,4943474,200,-1871,-374,-1019,-568,-323,253,141,-451
0,4943481,198,-1873,-380,-1016,-563,-322,253,141,-451
0,4943486,198,-1873,-380,-1016,-563,-322,253,141,-451
0,4943492,198,-1873,-380,-1016,-563,-322,253,141,-451
0,4943497,198,-1873,-380,-1016,-563,-322,253,141,-451
0,4943502,198,-1873,-379,-1023,-566,-327,253,141,-451
0,4943507,198,-1873,-379,-1023,-566,-327,253,141,-451
0,4943512,198,-1873,-379,-1023,-566,-327,253,141,-451
0,4943519,201,-1873,-383,-1031,-569,-332,253,141,-451
0,4943526,201,-1873,-383,-1031,-569,-332,253,141,-451
0,4943535,201,-1873,-383,-1031,-569,-332,253,141,-451
0,4943541,201,-1876,-384,-1033,-574,-325,253,141,-451
0,4943548,201,-1876,-384,-1033,-574,-325,253,141,-451
0,4943555,201,-1876,-384,-1033,-574,-325,253,141,-451
0,4943562,200,-1876,-390,-1028,-574,-326,253,141,-451
0,4943569,200,-1876,-390,-1028,-574,-326,253,141,-451
0,4943577,200,-1876,-390,-1028,-574,-326,253,141,-451
0,4943585,201,-1872,-379,-1027,-575,-326,258,146,-450
0,4943592,201,-1872,-379,-1027,-575,-326,258,146,-450
0,4943599,200,-1873,-382,-1038,-572,-323,258,146,-450
0,4943605,200,-1873,-382,-1038,-572,-323,258,146,-450
0,4943613,200,-1873,-382,-1038,-572,-323,258,146,-450
0,4943621,201,-1873,-387,-1027,-569,-324,258,146,-450
0,4943628,201,-1873,-387,-1027,-569,-324,258,146,-450
0,4943634,201,-1873,-387,-1027,-569,-324,258,146,-450
0,4943641,201,-1873,-375,-1034,-570,-324,258,146,-450
0,4943647,201,-1873,-375,-1034,-570,-324,258,146,-450
0,4943654,201,-1873,-375,-1034,-570,-324,258,146,-450
0,4943661,200,-1872,-380,-1024,-561,-327,258,146,-450
0,4943669,200,-1872,-380,-1024,-561,-327,258,146,-450
0,4943675,200,-1872,-380,-1024,-561,-327,258,146,-450
0,4943683,200,-1873,-380,-1028,-570,-323,258,146,-450
0,4943687,200,-1873,-380,-1028,-570,-323,258,146,-450
0,4943692,200,-1873,-380,-1028,-570,-323,258,146,-450
0,4943697,200,-1873,-380,-1028,-570,-323,258,146,-450
0,4943703,203,-1875,-386,-1022,-560,-318,258,146,-450
0,4943708,203,-1875,-386,-1022,-560,-318,258,146,-450
0,4943713,203,-1875,-386,-1022,-560,-318,258,146,-450
0,4943719,203,-1875,-386,-1022,-560,-318,258,146,-450
0,4943724,200,-1874,-382,-1024,-567,-323,257,143,-447
0,4943730,200,-1874,-382,-1024,-567,-323,257,143,-447
0,4943737,200,-1874,-382,-1024,-567,-323,257,143,-447
0,4943745,199,-1875,-381,-1030,-566,-329,257,143,-447
0,4943751,199,-1875,-381,-1030,-566,-329,257,143,-447
0,4943758,199,-1875,-381,-1030,-566,-329,257,143,-447
0,4943763,200,-1872,-385,-1019,-570,-322,257,143,-447
0,4943770,200,-1872,-385,-1019,-570,-322,257,143,-447
0,4943778,200,-1872,-385,-1019,-570,-322,257,143,-447
0,4943784,200,-1872,-385,-1019,-570,-322,257,143,-447
0,4943791,200,-1872,-385,-1019,-570,-322,257,143,-447
0,4943796,200,-1872,-385,-1019,-570,-322,257,143,-447
0,4943804,200,-1871,-388,-1031,-567,-326,257,143,-447
0,4943811,200,-1871,-388,-1031,-567,-326,257,143,-447
0,4943819,200,-1871,-388,-1031,-567,-326,257,143,-447
0,4943826,200,-1873,-388,-1024,-563,-325,257,143,-447
0,4943832,200,-1873,-388,-1024,-563,-325,257,143,-447
0,4943840,200,-1873,-388,-1024,-563,-325,257,143,-447
0,4943847,199,-1874,-379,-1023,-568,-328,253,143,-449
0,4943854,199,-1874,-379,-1023,-568,-328,253,143,-449
0,4943860,198,-1872,-385,-1024,-562,-325,253,143,-449
0,4943867,198,-1872,-385,-1024,-562,-325,253,143,-449
0,4943873,198,-1872,-385,-1024,-562,-325,253,143,-449
0,4943878,198,-1872,-385,-1024,-562,-325,253,143,-449
0,4943885,201,-1874,-383,-1030,-572,-320,253,143,-449
0,4943891,201,-1874,-383,-1030,-572,-320,253,143,-449
0,4943898,201,-1874,-383,-1030,-572,-320,253,143,-449
0,4943905,202,-1874,-381,-1036,-571,-323,253,143,-449
0,4943910,202,-1874,-381,-1036,-571,-323,253,143,-449
0,4943918,202,-1874,-381,-1036,-571,-323,253,143,-449
0,4943925,199,-1874,-386,-1025,-574,-322,253,143,-449
0,4943931,199,-1874,-386,-1025,-574,-322,253,143,-449
0,4943939,199,-1874,-386,-1025,-574,-322,253,143,-449
0,4943946,202,-1872,-387,-1028,-566,-320,253,143,-449
0,4943954,202,-1872,-387,-1028,-566,-320,253,143,-449
0,4943962,199,-1874,-384,-1024,-561,-321,253,143,-449
0,4943968,199,-1874,-384,-1024,-561,-321,253,143,-449
0,4943975,199,-1874,-384,-1024,-561,-321,253,143,-449
0,4943980,202,-1871,-377,-1026,-560,-332,256,148,-448
0,4943988,202,-1871,-377,-1026,-560,-332,256,148,-448
0,4943996,202,-1871,-377,-1026,-560,-332,256,148,-448
0,4944004,200,-1873,-382,-1019,-568,-337,256,148,-448
0,4944009,200,-1873,-382,-1019,-568,-337,256,148,-448
0,4944014,200,-1873,-382,-1019,-568,-337,256,148,-448
0,4944022,201,-1875,-387,-1031,-568,-324,256,148,-448
0,4944029,201,-1875,-387,-1031,-568,-324,256,148,-448
0,4944036,201,-1875,-387,-1031,-568,-324,256,148,-448
0,4944044,199,-1873,-388,-1031,-565,-332,256,148,-448
0,4944051,199,-1873,-388,-1031,-565,-332,256,148,-448
0,4944058,199,-1873,-388,-1031,-565,-332,256,148,-448
0,4944064,200,-1874,-385,-1018,-559,-331,256,148,-448
0,4944071,200,-1874,-385,-1018,-559,-331,256,148,-448
0,4944078,200,-1874,-385,-1018,-559,-331,256,148,-448
0,4944087,198,-1874,-387,-1023,-568,-326,256,148,-448
0,4944094,198,-1874,-387,-1023,-568,-326,256,148,-448
0,4944101,203,-1874,-384,-1032,-573,-325,258,140,-448
0,4944108,203,-1874,-384,-1032,-573,-325,258,140,-448
0,4944116,203,-1874,-384,-1032,-573,-325,258,140,-448
0,4944123,202,-1875,-386,-1024,-574,-322,258,140,-448
0,4944131,202,-1875,-386,-1024,-574,-322,258,140,-448
0,4944138,202,-1875,-386,-1024,-574,-322,258,140,-448
0,4944145,200,-1874,-381,-1022,-563,-323,258,140,-448
0,4944150,200,-1874,-381,-1022,-563,-323,258,140,-448
0,4944158,200,-1874,-381,-1022,-563,-323,258,140,-448
0,4944166,200,-1876,-380,-1025,-562,-324,258,140,-448
0,4944173,200,-1876,-380,-1025,-562,-324,258,140,-448
0,4944180,199,-1875,-387,-1030,-569,-320,258,140,-448
0,4944187,199,-1875,-387,-1030,-569,-320,258,140,-448
0,4944194,199,-1875,-387,-1030,-569,-320,258,140,-448
0,4944201,201,-1873,-384,-1023,-562,-319,258,140,-448
0,4944209,201,-1873,-384,-1023,-562,-319,258,140,-448
0,4944217,201,-1873,-384,-1023,-562,-319,258,140,-448
0,4944224,196,-1872,-384,-1023,-566,-326,255,139,-441
0,4944231,196,-1872,-384,-1023,-566,-326,255,139,-441
0,4944238,196,-1872,-384,-1023,-566,-326,255,139,-441
0,4944246,197,-1873,-380,-1026,-568,-327,255,139,-441
0,4944252,197,-1873,-380,-1026,-568,-327,255,139,-441
0,4944260,197,-1873,-380,-1026,-568,-327,255,139,-441
0,4944267,202,-1871,-383,-1025,-577,-329,255,139,-441
0,4944274,202,-1871,-383,-1025,-577,-329,255,139,-441
0,4944280,199,-1875,-386,-1026,-566,-330,255,139,-441
0,4944287,199,-1875,-386,-1026,-566,-330,255,139,-441
0,4944294,199,-1875,-386,-1026,-566,-330,255,139,-441
0,4944302,202,-1871,-384,-1025,-566,-328,255,139,-441
0,4944310,202,-1871,-384,-1025,-566,-328,255,139,-441
0,4944315,202,-1871,-384,-1025,-566,-328,255,139,-441
0,4944324,201,-1873,-385,-1028,-570,-333,255,139,-441
0,4944332,201,-1873,-385,-1028,-570,-333,255,139,-441
0,4944339,201,-1873,-385,-1028,-570,-333,255,139,-441
0,4944345,199,-1873,-380,-1027,-564,-329,255,139,-441
0,4944350,199,-1873,-380,-1027,-564,-329,255,139,-441
0,4944355,199,-1873,-380,-1027,-564,-329,255,139,-441
0,4944362,201,-1872,-379,-1032,-567,-327,256,144,-448
0,4944367,201,-1872,-379,-1032,-567,-327,256,144,-448
0,4944375,201,-1872,-379,-1032,-567,-327,256,144,-448
0,4944382,198,-1869,-384,-1029,-567,-324,256,144,-448
0,4944389,198,-1869,-384,-1029,-567,-324,256,144,-448
0,4944396,198,-1869,-384,-1029,-567,-324,256,144,-448
0,4944404,203,-1873,-380,-1030,-565,-324,256,144,-448
0,4944411,203,-1873,-380,-1030,-565,-324,256,144,-448
0,4944418,203,-1873,-380,-1030,-565,-324,256,144,-448
0,4944424,201,-1876,-385,-1022,-564,-329,256,144,-448
0,4944430,201,-1876,-385,-1022,-564,-329,256,144,-448
0,4944436,201,-1876,-385,-1022,-564,-329,256,144,-448
0,4944443,198,-1877,-385,-1027,-564,-322,256,144,-448
0,4944450,198,-1877,-385,-1027,-564,-322,256,144,-448
0,4944457,198,-1877,-385,-1027,-564,-322,256,144,-448
0,4944464,203,-1875,-387,-1022,-566,-324,256,144,-448
0,4944474,203,-1875,-387,-1022,-566,-324,256,144,-448
0,4944480,203,-1875,-387,-1022,-566,-324,256,144,-448
0,4944485,199,-1874,-386,-1024,-569,-327,259,133,-441
0,4944490,199,-1874,-386,-1024,-569,-327,259,133,-441
0,4944495,199,-1874,-386,-1024,-569,-327,259,133,-441
0,4944500,200,-1875,-381,-1032,-564,-326,259,133,-441
0,4944505,200,-1875,-381,-1032,-564,-326,259,133,-441
0,4944510,200,-1875,-381,-1032,-564,-326,259,133,-441
0,4944516,200,-1875,-381,-1032,-564,-326,259,133,-441
0,4944524,201,-1870,-386,-1030,-560,-319,259,133,-441
0,4944531,201,-1870,-386,-1030,-560,-319,259,133,-441
0,4944536,201,-1870,-386,-1030,-560,-319,259,133,-441
0,4944545,198,-1873,-384,-1022,-561,-321,259,133,-441
0,4944552,198,-1873,-384,-1022,-561,-321,259,133,-441
0,4944559,198,-1873,-384,-1022,-561,-321,259,133,-441
0,4944567,197,-1875,-383,-1026,-569,-336,259,133,-441
0,4944574,197,-1875,-383,-1026,-569,-336,259,133,-441
0,4944581,201,-1873,-386,-1028,-565,-330,259,133,-441
0,4944587,201,-1873,-386,-1028,-565,-330,259,133,-441
0,4944595,201,-1873,-386,-1028,-565,-330,259,133,-441
0,4944601,199,-1875,-381,-1027,-566,-331,259,133,-441
0,4944609,199,-1875,-381,-1027,-566,-331,259,133,-441
0,4944617,199,-1875,-381,-1027,-566,-331,259,133,-441
0,4944624,198,-1871,-378,-1024,-566,-331,261,147,-447
0,4944631,198,-1871,-378,-1024,-566,-331,261,147,-447
0,4944638,198,-1871,-378,-1024,-566,-331,261,147,-447
0,4944645,197,-1872,-382,-1027,-565,-332,261,147,-447
0,4944651,197,-1872,-382,-1027,-565,-332,261,147,-447
0,4944658,197,-1872,-382,-1027,-565,-332,261,147,-447
0,4944665,201,-1874,-385,-1030,-572,-330,261,147,-447
0,4944672,201,-1874,-385,-1030,-572,-330,261,147,-447
0,4944679,201,-1874,-385,-1030,-572,-330,261,147,-447
0,4944685,200,-1875,-382,-1030,-568,-325,261,147,-447
0,4944691,200,-1875,-382,-1030,-568,-325,261,147,-447
0,4944695,200,-1875,-382,-1030,-568,-325,261,147,-447
0,4944701,200,-1875,-386,-1027,-564,-331,261,147,-447
0,4944706,200,-1875,-386,-1027,-564,-331,261,147,-447
0,4944711,200,-1875,-386,-1027,-564,-331,261,147,-447
0,4944716,200,-1875,-386,-1027,-564,-331,261,147,-447
0,4944721,198,-1875,-386,-1023,-564,-332,261,147,-447
0,4944727,198,-1875,-386,-1023,-564,-332,261,147,-447
0,4944733,198,-1875,-386,-1023,-564,-332,261,147,-447
0,4944739,198,-1875,-386,-1023,-564,-332,261,147,-447
0,4944747,199,-1873,-383,-1028,-566,-327,259,143,-447
0,4944754,199,-1873,-383,-1028,-566,-327,259,143,-447
0,4944760,200,-1873,-384,-1028,-564,-328,259,143,-447
0,4944769,200,-1873,-384,-1028,-564,-328,259,143,-447
0,4944775,200,-1873,-384,-1028,-564,-328,259,143,-447
0,4944781,200,-1874,-383,-1030,-567,-324,259,143,-447
0,4944788,200,-1874,-383,-1030,-567,-324,259,143,-447
0,4944795,200,-1874,-383,-1030,-567,-324,259,143,-447
0,4944801,199,-1875,-384,-1033,-569,-324,259,143,-447
0,4944809,199,-1875,-384,-1033,-569,-324,259,143,-447
0,4944817,199,-1875,-384,-1033,-569,-324,259,143,-447
0,4944825,202,-1871,-387,-1022,-565,-325,259,143,-447
0,4944831,202,-1871,-387,-1022,-565,-325,259,143,-447
0,4944838,202,-1871,-387,-1022,-565,-325,259,143,-447
0,4944843,201,-1873,-382,-1022,-568,-325,259,143,-447
0,4944848,201,-1873,-382,-1022,-568,-325,259,143,-447
0,4944854,201,-1873,-382,-1022,-568,-325,259,143,-447
0,4944861,201,-1873,-382,-1022,-568,-325,259,143,-447
0,4944866,201,-1873,-383,-1023,-570,-330,259,143,-447
0,4944873,201,-1873,-383,-1023,-570,-330,259,143,-447
0,4944881,199,-1871,-383,-1020,-574,-325,259,143,-447
0,4944888,199,-1871,-383,-1020,-574,-325,263,139,-447
0,4944894,199,-1871,-383,-1020,-574,-325,263,139,-447
0,4944901,199,-1874,-385,-1029,-572,-324,263,139,-447
0,4944908,199,-1874,-385,-1029,-572,-324,263,139,-447
0,4944915,199,-1874,-385,-1029,-572,-324,263,139,-447
0,4944921,199,-1872,-384,-1025,-569,-328,263,139,-447
0,4944928,199,-1872,-384,-1025,-569,-328,263,139,-447
0,4944935,199,-1872,-384,-1025,-569,-328,263,139,-447
0,4944943,201,-1869,-385,-1016,-566,-329,263,139,-447
0,4944950,201,-1869,-385,-1016,-566,-329,263,139,-447
0,4944959,201,-1869,-385,-1016,-566,-329,263,139,-447
0,4944966,201,-1873,-383,-1030,-558,-328,263,139,-447
0,4944973,201,-1873,-383,-1030,-558,-328,263,139,-447
0,4944980,201,-1873,-383,-1030,-558,-328,263,139,-447
0,4944988,202,-1875,-384,-1032,-563,-323,263,139,-447
0,4944994,202,-1875,-384,-1032,-563,-323,263,139,-447
0,4945000,202,-1875,-384,-1032,-563,-323,263,139,-447
0,4945004,199,-1873,-379,-1028,-567,-325,276,142,-446
0,4945011,199,-1873,-379,-1028,-567,-325,276,142,-446
0,4945017,199,-1873,-379,-1028,-567,-325,276,142,-446
0,4945027,198,-1870,-384,-1029,-568,-329,276,142,-446
0,4945033,198,-1870,-384,-1029,-568,-329,276,142,-446
0,4945039,198,-1870,-384,-1029,-568,-329,276,142,-446
0,4945046,202,-1874,-385,-1015,-567,-327,276,142,-446
0,4945052,202,-1874,-385,-1015,-567,-327,276,142,-446
0,4945058,202,-1874,-385,-1015,-567,-327,276,142,-446
0,4945065,199,-1872,-382,-1026,-563,-327,276,142,-446
0,4945073,199,-1872,-382,-1026,-563,-327,276,142,-446
0,4945080,199,-1872,-382,-1026,-563,-327,276,142,-446
0,4945086,198,-1877,-385,-1035,-572,-323,276,142,-446
0,4945094,198,-1877,-385,-1035,-572,-323,276,142,-446
0,4945101,200,-1876,-386,-1025,-572,-315,276,142,-446
0,4945108,200,-1876,-386,-1025,-572,-315,276,142,-446
0,4945117,200,-1876,-386,-1025,-572,-315,276,142,-446
0,4945124,198,-1874,-378,-1020,-571,-324,256,144,-444
0,4945131,198,-1874,-378,-1020,-571,-324,256,144,-444
0,4945136,198,-1874,-378,-1020,-571,-324,256,144,-444
0,4945143,199,-1877,-378,-1020,-566,-324,256,144,-444
0,4945152,199,-1877,-378,-1020,-566,-324,256,144,-444
0,4945159,199,-1877,-378,-1020,-566,-324,256,144,-444
0,4945166,202,-1871,-378,-1026,-566,-332,256,144,-444
0,4945173,202,-1871,-378,-1026,-566,-332,256,144,-444
0,4945180,202,-1871,-378,-1026,-566,-332,256,144,-444
0,4945186,199,-1872,-381,-1026,-565,-327,256,144,-444
0,4945195,199,-1872,-381,-1026,-565,-327,256,144,-444
0,4945202,196,-1872,-384,-1025,-561,-325,256,144,-444
0,4945209,196,-1872,-384,-1025,-561,-325,256,144,-444
0,4945216,196,-1872,-384,-1025,-561,-325,256,144,-444
0,4945223,199,-1878,-382,-1019,-568,-328,256,144,-444
0,4945230,199,-1878,-382,-1019,-568,-328,256,144,-444
0,4945236,199,-1878,-382,-1019,-568,-328,256,144,-444
0,4945245,201,-1875,-383,-1026,-567,-318,256,144,-444
0,4945252,201,-1875,-383,-1026,-567,-318,256,144,-444
0,4945259,201,-1875,-383,-1026,-567,-318,256,144,-444
0,4945264,200,-1873,-377,-1031,-567,-323,258,132,-442
0,4945270,200,-1873,-377,-1031,-567,-323,258,132,-442
0,4945274,200,-1873,-377,-1031,-567,-323,258,132,-442
0,4945282,202,-1872,-379,-1038,-569,-320,258,132,-442
0,4945288,202,-1872,-379,-1038,-569,-320,258,132,-442
0,4945295,202,-1872,-379,-1038,-569,-320,258,132,-442
0,4945302,200,-1874,-380,-1025,-564,-325,258,132,-442
0,4945310,200,-1874,-380,-1025,-564,-325,258,132,-442
0,4945318,200,-1874,-380,-1025,-564,-325,258,132,-442
0,4945326,198,-1873,-389,-1024,-566,-330,258,132,-442
0,4945332,198,-1873,-389,-1024,-566,-330,258,132,-442
0,4945340,198,-1873,-389,-1024,-566,-330,258,132,-442
0,4945345,202,-1875,-384,-1024,-558,-323,258,132,-442
0,4945352,202,-1875,-384,-1024,-558,-323,258,132,-442
0,4945360,202,-1875,-384,-1024,-558,-323,258,132,-442
0,4945368,197,-1872,-387,-1021,-563,-325,258,132,-442
0,4945373,197,-1872,-387,-1021,-563,-325,258,132,-442
0,4945380,197,-1872,-387,-1021,-563,-325,258,132,-442
0,4945387,199,-1873,-381,-1030,-574,-323,257,143,-447
0,4945396,199,-1873,-381,-1030,-574,-323,257,143,-447
0,4945403,201,-1873,-382,-1029,-569,-332,257,143,-447
0,4945411,201,-1873,-382,-1029,-569,-332,257,143,-447
0,4945418,201,-1873,-382,-1029,-569,-332,257,143,-447
0,4945426,203,-1873,-379,-1032,-562,-330,257,143,-447
0,4945432,203,-1873,-379,-1032,-562,-330,257,143,-447
0,4945437,203,-1873,-379,-1032,-562,-330,257,143,-447
0,4945445,196,-1875,-384,-1029,-565,-323,257,143,-447
0,4945454,196,-1875,-384,-1029,-565,-323,257,143,-447
0,4945462,198,-1872,-385,-1029,-565,-328,257,143,-447
0,4945469,198,-1872,-385,-1029,-565,-328,257,143,-447
0,4945474,198,-1872,-385,-1029,-565,-328,257,143,-447
0,4945481,198,-1872,-385,-1029,-565,-328,257,143,-447
0,4945486,201,-1876,-384,-1018,-564,-324,257,143,-447
0,4945491,201,-1876,-384,-1018,-564,-324,257,143,-447
0,4945497,201,-1876,-384,-1018,-564,-324,257,143,-447
0,4945502,201,-1876,-384,-1018,-564,-324,257,143,-447
0,4945508,200,-1872,-384,-1022,-568,-325,257,143,-447
0,4945513,200,-1872,-384,-1022,-568,-325,257,143,-447
0,4945521,200,-1872,-384,-1022,-568,-325,257,143,-447
0,4945528,200,-1872,-384,-1032,-563,-328,256,138,-446
0,4945534,200,-1872,-384,-1032,-563,-328,256,138,-446
0,4945541,200,-1872,-384,-1032,-563,-328,256,138,-446
0,4945546,200,-1875,-376,-1025,-562,-329,256,138,-446
0,4945551,200,-1875,-376,-1025,-562,-329,256,138,-446
0,4945557,200,-1875,-376,-1025,-562,-329,256,138,-446
0,4945563,198,-1876,-385,-1021,-563,-327,256,138,-446
0,4945569,198,-1876,-385,-1021,-563,-327,256,138,-446
0,4945575,198,-1876,-385,-1021,-563,-327,256,138,-446
0,4945582,198,-1876,-385,-1021,-563,-327,256,138,-446
0,4945587,199,-1873,-381,-1028,-568,-324,256,138,-446
0,4945593,199,-1873,-381,-1028,-568,-324,256,138,-446
0,4945598,199,-1873,-381,-1028,-568,-324,256,138,-446
0,4945604,198,-1873,-387,-1032,-560,-318,256,138,-446
0,4945609,198,-1873,-387,-1032,-560,-318,256,138,-446
0,4945615,198,-1873,-387,-1032,-560,-318,256,138,-446
0,4945622,198,-1873,-387,-1032,-560,-318,256,138,-446
0,4945628,200,-1874,-386,-1017,-562,-322,256,138,-446
0,4945635,200,-1874,-386,-1017,-562,-322,256,138,-446
0,4945642,200,-1871,-382,-1016,-566,-326,253,145,-449
0,4945649,200,-1871,-382,-1016,-566,-326,253,145,-449
0,4945655,200,-1871,-382,-1016,-566,-326,253,145,-449
0,4945664,201,-1871,-380,-1015,-556,-327,253,145,-449
0,4945672,201,-1871,-380,-1015,-556,-327,253,145,-449
0,4945680,201,-1871,-380,-1015,-556,-327,253,145,-449
0,4945685,200,-1872,-382,-1025,-561,-325,253,145,-449
0,4945690,200,-1872,-382,-1025,-561,-325,253,145,-449
0,4945695,200,-1872,-382,-1025,-561,-325,253,145,-449
0,4945700,200,-1872,-382,-1025,-561,-325,253,145,-449
0,4945705,203,-1875,-386,-1031,-558,-325,253,145,-449
0,4945711,203,-1875,-386,-1031,-558,-325,253,145,-449
0,4945716,203,-1875,-386,-1031,-558,-325,253,145,-449
0,4945721,203,-1875,-386,-1031,-558,-325,253,145,-449
0,4945726,201,-1875,-382,-1029,-563,-324,253,145,-449
0,4945734,201,-1875,-382,-1029,-563,-324,253,145,-449
0,4945739,201,-1875,-382,-1029,-563,-324,253,145,-449
0,4945747,200,-1873,-380,-1027,-567,-327,253,145,-449
0,4945755,200,-1873,-380,-1027,-567,-327,253,145,-449
0,4945763,199,-1874,-383,-1019,-567,-330,253,145,-449
0,4945770,199,-1874,-383,-1019,-567,-330,253,145,-449
0,4945777,199,-1874,-383,-1019,-567,-330,253,145,-449
0,4945783,200,-1873,-384,-1018,-562,-318,253,145,-449
0,4945789,200,-1873,-384,-1018,-562,-318,253,145,-449
0,4945795,200,-1873,-384,-1018,-562,-318,253,145,-449
0,4945801,200,-1873,-384,-1018,-562,-318,253,145,-449
0,4945805,200,-1872,-380,-1025,-574,-322,253,145,-449
0,4945815,200,-1872,-380,-1025,-574,-322,253,145,-449
0,4945822,199,-1875,-386,-1032,-573,-321,253,145,-449
0,4945829,199,-1875,-386,-1032,-573,-321,253,145,-449
0,4945837,199,-1875,-386,-1032,-573,-321,253,145,-449
0,4945844,200,-1874,-385,-1023,-565,-330,253,145,-449
0,4945851,200,-1874,-385,-1023,-565,-330,253,145,-449
0,4945859,200,-1874,-385,-1023,-565,-330,253,145,-449
0,4945865,199,-1872,-386,-1020,-567,-321,253,145,-449
0,4945872,199,-1872,-386,-1020,-567,-321,253,145,-449
0,4945881,199,-1872,-386,-1020,-567,-321,253,145,-449
0,4945889,204,-1874,-385,-1024,-565,-328,253,145,-449
0,4945898,204,-1874,-385,-1024,-565,-328,253,145,-449
0,4945905,203,-1872,-386,-1022,-561,-323,261,151,-447
0,4945912,203,-1872,-386,-1022,-561,-323,261,151,-447
0,4945920,203,-1872,-386,-1022,-561,-323,261,151,-447
0,4945927,199,-1878,-377,-1030,-562,-324,261,151,-447
0,4945934,199,-1878,-377,-1030,-562,-324,261,151,-447
0,4945940,199,-1878,-377,-1030,-562,-324,261,151,-447
0,4945948,200,-1872,-383,-1024,-566,-331,261,151,-447
0,4945955,200,-1872,-383,-1024,-566,-331,261,151,-447
0,4945964,200,-1873,-384,-1031,-564,-322,261,151,-447
0,4945970,200,-1873,-384,-1031,-564,-322,261,151,-447
0,4945977,200,-1873,-384,-1031,-564,-322,261,151,-447
0,4945984,198,-1872,-389,-1026,-565,-327,261,151,-447
0,4945992,198,-1872,-389,-1026,-565,-327,261,151,-447
0,4945998,198,-1872,-389,-1026,-565,-327,261,151,-447
0,4946007,200,-1876,-382,-1034,-563,-327,261,151,-447
0,4946015,200,-1876,-382,-1034,-563,-327,261,151,-447
0,4946022,198,-1873,-377,-1032,-566,-326,261,151,-447
0,4946028,198,-1873,-377,-1032,-566,-326,259,145,-441
0,4946036,198,-1873,-377,-1032,-566,-326,259,145,-441
0,4946042,200,-1872,-380,-1021,-564,-330,259,145,-441
0,4946051,200,-1872,-380,-1021,-564,-330,259,145,-441
0,4946057,200,-1872,-380,-1021,-564,-330,259,145,-441
0,4946065,199,-1872,-378,-1017,-557,-322,259,145,-441
0,4946073,199,-1872,-378,-1017,-557,-322,259,145,-441
0,4946079,199,-1872,-378,-1017,-557,-322,259,145,-441
0,4946086,199,-1875,-380,-1023,-561,-322,259,145,-441
0,4946092,199,-1875,-380,-1023,-561,-322,259,145,-441
0,4946099,199,-1875,-380,-1023,-561,-322,259,145,-441
0,4946107,201,-1871,-387,-1030,-560,-323,259,145,-441
0,4946115,201,-1871,-387,-1030,-560,-323,259,145,-441
0,4946121,201,-1871,-387,-1030,-560,-323,259,145,-441
0,4946128,201,-1873,-382,-1024,-568,-328,259,145,-441
0,4946135,201,-1873,-382,-1024,-568,-328,259,145,-441
0,4946142,201,-1873,-382,-1024,-568,-328,259,145,-441
0,4946150,200,-1874,-381,-1026,-561,-328,259,145,-441
0,4946157,200,-1874,-381,-1026,-561,-328,259,145,-441
0,4946165,201,-1875,-374,-1021,-560,-319,255,147,-437
0,4946173,201,-1875,-374,-1021,-560,-319,255,147,-437
0,4946181,201,-1875,-374,-1021,-560,-319,255,147,-437
0,4946187,197,-1874,-380,-1019,-565,-323,255,147,-437
0,4946194,197,-1874,-380,-1019,-565,-323,255,147,-437
0,4946202,197,-1874,-380,-1019,-565,-323,255,147,-437
0,4946208,200,-1874,-388,-1023,-570,-326,255,147,-437
0,4946213,200,-1874,-388,-1023,-570,-326,255,147,-437
0,4946219,200,-1874,-388,-1023,-570,-326,255,147,-437
0,4946224,201,-1878,-386,-1023,-572,-332,255,147,-437
0,4946232,201,-1878,-386,-1023,-572,-332,255,147,-437
0,4946237,201,-1878,-386,-1023,-572,-332,255,147,-437
0,4946244,199,-1874,-382,-1022,-569,-319,255,147,-437
0,4946251,199,-1874,-382,-1022,-569,-319,255,147,-437
0,4946257,199,-1874,-382,-1022,-569,-319,255,147,-437
0,4946265,198,-1874,-383,-1021,-567,-325,255,147,-437
0,4946271,198,-1874,-383,-1021,-567,-325,255,147,-437
0,4946276,198,-1874,-383,-1021,-567,-325,255,147,-437
0,4946283,198,-1878,-379,-1018,-561,-327,257,141,-447
0,4946291,198,-1878,-379,-1018,-561,-327,257,141,-447
0,4946297,198,-1878,-379,-1018,-561,-327,257,141,-447
0,4946306,197,-1872,-383,-1024,-564,-327,257,141,-447
0,4946313,197,-1872,-383,-1024,-564,-327,257,141,-447
0,4946320,197,-1872,-383,-1024,-564,-327,257,141,-447
0,4946325,199,-1872,-383,-1028,-567,-325,257,141,-447
0,4946333,199,-1872,-383,-1028,-567,-325,257,141,-447
0,4946341,199,-1872,-383,-1028,-567,-325,257,141,-447
0,4946349,201,-1873,-382,-1019,-556,-327,257,141,-447
0,4946356,201,-1873,-382,-1019,-556,-327,257,141,-447
0,4946363,199,-1874,-385,-1018,-559,-329,257,141,-447
0,4946371,199,-1874,-385,-1018,-559,-329,257,141,-447
0,4946376,199,-1874,-385,-1018,-559,-329,257,141,-447
0,4946384,200,-1872,-384,-1023,-566,-329,257,141,-447
0,4946392,200,-1872,-384,-1023,-566,-329,257,141,-447
0,4946399,200,-1872,-384,-1023,-566,-329,257,141,-447
0,4946405,205,-1874,-380,-1029,-564,-327,257,141,-447
0,4946412,205,-1874,-380,-1029,-564,-327,257,141,-447
0,4946419,205,-1874,-380,-1029,-564,-327,257,141,-447
0,4946426,203,-1875,-376,-1023,-561,-331,257,135,-445
0,4946434,203,-1875,-376,-1023,-561,-331,257,135,-445
0,4946441,203,-1875,-376,-1023,-561,-331,257,135,-445
0,4946447,202,-1874,-382,-1027,-578,-327,257,135,-445
0,4946454,202,-1874,-382,-1027,-578,-327,257,135,-445
0,4946462,202,-1874,-382,-1027,-578,-327,257,135,-445
0,4946468,201,-1874,-383,-1017,-561,-326,257,135,-445
0,4946475,201,-1874,-383,-1017,-561,-326,257,135,-445
0,4946481,201,-1874,-383,-1017,-561,-326,257,135,-445
0,4946486,198,-1874,-380,-1028,-565,-331,257,135,-445
0,4946490,198,-1874,-380,-1028,-565,-331,257,135,-445
0,4946496,198,-1874,-380,-1028,-565,-331,257,135,-445
0,4946501,198,-1874,-380,-1028,-565,-331,257,135,-445
0,4946506,201,-1873,-383,-1028,-561,-325,257,135,-445
0,4946512,201,-1873,-383,-1028,-561,-325,257,135,-445
0,4946520,201,-1873,-383,-1028,-561,-325,257,135,-445
0,4946526,203,-1872,-380,-1029,-560,-318,257,135,-445
0,4946533,203,-1872,-380,-1029,-560,-318,257,135,-445
0,4946540,203,-1872,-380,-1029,-560,-318,257,135,-445
0,4946547,199,-1874,-380,-1024,-564,-324,259,143,-449
0,4946553,199,-1874,-380,-1024,-564,-324,259,143,-449
0,4946561,199,-1874,-380,-1024,-564,-324,259,143,-449
0,4946567,202,-1875,-380,-1026,-570,-323,259,143,-449
0,4946574,202,-1875,-380,-1026,-570,-323,259,143,-449
0,4946581,202,-1875,-380,-1026,-570,-323,259,143,-449
0,4946589,201,-1875,-384,-1024,-568,-331,259,143,-449
0,4946594,201,-1875,-384,-1024,-568,-331,259,143,-449
0,4946601,201,-1875,-384,-1024,-568,-331,259,143,-449
0,4946610,200,-1873,-387,-1026,-563,-331,259,143,-449
0,4946616,200,-1873,-387,-1026,-563,-331,259,143,-449
0,4946624,198,-1875,-387,-1024,-564,-334,259,143,-449
0,4946630,198,-1875,-387,-1024,-564,-334,259,143,-449
0,4946637,198,-1875,-387,-1024,-564,-334,259,143,-449
0,4946643,201,-1876,-389,-1021,-565,-327,259,143,-449
0,4946651,201,-1876,-389,-1021,-565,-327,259,143,-449
0,4946658,201,-1876,-389,-1021,-565,-327,259,143,-449
0,4946664,200,-1873,-379,-1022,-570,-329,263,143,-441
0,4946671,200,-1873,-379,-1022,-570,-329,263,143,-441
0,4946678,200,-1873,-379,-1022,-570,-329,263,143,-441
0,4946684,199,-1873,-377,-1029,-565,-324,263,143,-441
0,4946691,199,-1873,-377,-1029,-565,-324,263,143,-441
0,4946696,199,-1873,-377,-1029,-565,-324,263,143,-441
0,4946701,199,-1873,-377,-1029,-565,-324,263,143,-441
0,4946706,201,-1875,-382,-1035,-576,-324,263,143,-441
0,4946711,201,-1875,-382,-1035,-576,-324,263,143,-441
0,4946716,201,-1875,-382,-1035,-576,-324,263,143,-441
0,4946722,201,-1875,-382,-1035,-576,-324,263,143,-441
0,4946727,202,-1872,-384,-1030,-568,-327,263,143,-441
0,4946733,202,-1872,-384,-1030,-568,-327,263,143,-441
0,4946740,202,-1872,-384,-1030,-568,-327,263,143,-441
0,4946747,201,-1874,-384,-1018,-569,-321,263,143,-441
0,4946753,201,-1874,-384,-1018,-569,-321,263,143,-441
0,4946759,201,-1874,-384,-1018,-569,-321,263,143,-441
0,4946765,201,-1870,-383,-1029,-568,-333,263,143,-441
0,4946771,201,-1870,-383,-1029,-568,-333,263,143,-441
0,4946778,201,-1870,-383,-1029,-568,-333,263,143,-441
0,4946785,199,-1877,-387,-1027,-566,-320,263,143,-441
0,4946791,199,-1877,-387,-1027,-566,-320,263,143,-441
0,4946798,199,-1877,-387,-1027,-566,-320,263,143,-441
0,4946805,199,-1873,-376,-1022,-558,-331,259,147,-449
0,4946811,199,-1873,-376,-1022,-558,-331,259,147,-449
0,4946820,199,-1873,-376,-1022,-558,-331,259,147,-449
0,4946827,199,-1874,-381,-1029,-562,-326,259,147,-449
0,4946835,199,-1874,-381,-1029,-562,-326,259,147,-449
0,4946842,199,-1874,-381,-1029,-562,-326,259,147,-449
0,4946849,199,-1874,-381,-1029,-562,-326,259,147,-449
0,4946856,199,-1874,-381,-1029,-562,-326,259,147,-449
0,4946862,199,-1874,-381,-1029,-562,-326,259,147,-449
0,4946870,200,-1870,-380,-1030,-569,-331,259,147,-449
0,4946877,200,-1870,-380,-1030,-569,-331,259,147,-449
0,4946884,201,-1873,-386,-1029,-568,-325,259,147,-449
0,4946890,201,-1873,-386,-1029,-568,-325,259,147,-449
0,4946897,201,-1873,-386,-1029,-568,-325,259,147,-449
0,4946905,198,-1874,-383,-1027,-569,-327,259,147,-449
0,4946911,198,-1874,-383,-1027,-569,-327,259,147,-449
0,4946918,198,-1874,-383,-1027,-569,-327,259,147,-449
0,4946925,202,-1872,-380,-1036,-573,-327,261,139,-437
0,4946931,202,-1872,-380,-1036,-573,-327,261,139,-437
0,4946938,202,-1872,-380,-1036,-573,-327,261,139,-437
0,4946945,201,-1874,-377,-1031,-564,-332,261,139,-437
0,4946952,201,-1874,-377,-1031,-564,-332,261,139,-437
0,4946959,201,-1874,-377,-1031,-564,-332,261,139,-437
0,4946966,200,-1872,-384,-1028,-565,-324,261,139,-437
0,4946972,200,-1872,-384,-1028,-565,-324,261,139,-437
0,4946979,200,-1872,-384,-1028,-565,-324,261,139,-437
0,4946988,198,-1869,-383,-1025,-573,-324,261,139,-437
0,4946995,198,-1869,-383,-1025,-573,-324,261,139,-437
0,4947002,198,-1869,-383,-1025,-573,-324,261,139,-437
0,4947008,198,-1874,-383,-1030,-564,-324,261,139,-437
0,4947013,198,-1874,-383,-1030,-564,-324,261,139,-437
0,4947020,198,-1874,-383,-1030,-564,-324,261,139,-437
0,4947028,202,-1873,-387,-1028,-564,-330,261,139,-437
0,4947036,202,-1873,-387,-1028,-564,-330,261,139,-437
0,4947043,202,-1873,-387,-1028,-564,-330,261,139,-437
0,4947050,199,-1874,-387,-1027,-565,-320,261,139,-437
0,4947056,199,-1874,-387,-1027,-565,-320,261,139,-437
0,4947063,199,-1874,-387,-1027,-565,-320,261,139,-437
0,4947070,198,-1872,-380,-1025,-567,-327,259,141,-445
0,4947078,198,-1872,-380,-1025,-567,-327,259,141,-445
0,4947083,198,-1872,-380,-1025,-567,-327,259,141,-445
0,4947091,198,-1872,-380,-1025,-567,-327,259,141,-445
0,4947099,198,-1872,-380,-1025,-567,-327,259,141,-445
0,4947107,201,-1874,-390,-1028,-566,-338,259,141,-445
0,4947113,201,-1874,-390,-1028,-566,-338,259,141,-445
0,4947121,201,-1874,-390,-1028,-566,-338,259,141,-445
0,4947127,202,-1872,-384,-1027,-568,-326,259,141,-445
0,4947134,202,-1872,-384,-1027,-568,-326,259,141,-445
0,4947142,202,-1872,-384,-1027,-568,-326,259,141,-445
0,4947147,202,-1874,-381,-1028,-569,-322,259,141,-445
0,4947155,202,-1874,-381,-1028,-569,-322,259,141,-445
0,4947163,202,-1874,-381,-1028,-569,-322,259,141,-445
0,4947169,198,-1873,-387,-1016,-567,-321,259,141,-445
0,4947174,198,-1873,-387,-1016,-567,-321,259,141,-445
0,4947179,198,-1873,-387,-1016,-567,-321,259,141,-445
0,4947186,199,-1873,-380,-1028,-563,-321,264,144,-444
0,4947192,199,-1873,-380,-1028,-563,-321,264,144,-444
0,4947200,199,-1873,-380,-1028,-563,-321,264,144,-444
0,4947207,199,-1873,-386,-1033,-561,-323,264,144,-444
0,4947215,199,-1873,-386,-1033,-561,-323,264,144,-444
0,4947222,199,-1873,-386,-1033,-561,-323,264,144,-444
0,4947229,201,-1873,-380,-1025,-564,-327,264,144,-444
0,4947237,201,-1873,-380,-1025,-564,-327,264,144,-444
0,4947245,200,-1874,-383,-1026,-567,-327,264,144,-444
0,4947252,200,-1874,-383,-1026,-567,-327,264,144,-444
0,4947259,200,-1874,-383,-1026,-567,-327,264,144,-444
0,4947267,197,-1873,-383,-1030,-565,-333,264,144,-444
0,4947273,197,-1873,-383,-1030,-565,-333,264,144,-444
0,4947280,197,-1873,-383,-1030,-565,-333,264,144,-444
0,4947288,198,-1874,-384,-1022,-562,-332,264,144,-444
0,4947295,198,-1874,-384,-1022,-562,-332,264,144,-444
0,4947302,198,-1874,-384,-1022,-562,-332,264,144,-444
0,4947309,199,-1874,-383,-1022,-561,-328,264,144,-444
0,4947315,199,-1874,-383,-1022,-561,-328,264,144,-444
0,4947322,199,-1874,-383,-1022,-561,-328,264,144,-444
0,4947330,202,-1873,-379,-1026,-560,-321,252,144,-448
0,4947337,202,-1873,-379,-1026,-560,-321,252,144,-448
0,4947344,200,-1876,-383,-1021,-558,-327,252,144,-448
0,4947351,200,-1876,-383,-1021,-558,-327,252,144,-448
0,4947358,200,-1876,-383,-1021,-558,-327,252,144,-448
0,4947364,201,-1873,-382,-1020,-557,-324,252,144,-448
0,4947373,201,-1873,-382,-1020,-557,-324,252,144,-448
0,4947381,201,-1873,-382,-1020,-557,-324,252,144,-448
0,4947388,202,-1874,-382,-1023,-560,-326,252,144,-448
0,4947394,202,-1874,-382,-1023,-560,-326,252,144,-448
0,4947401,202,-1874,-382,-1023,-560,-326,252,144,-448
0,4947408,200,-1875,-386,-1029,-568,-331,252,144,-448
0,4947415,200,-1875,-386,-1029,-568,-331,252,144,-448
0,4947424,200,-1875,-386,-1029,-568,-331,252,144,-448
0,4947432,199,-1874,-386,-1029,-568,-329,252,144,-448
0,4947439,199,-1874,-386,-1029,-568,-329,252,144,-448
0,4947445,199,-1875,-382,-1026,-560,-332,257,147,-445
0,4947452,199,-1875,-382,-1026,-560,-332,257,147,-445
0,4947460,199,-1875,-382,-1026,-560,-332,257,147,-445
0,4947465,202,-1873,-379,-1026,-562,-332,257,147,-445
0,4947473,202,-1873,-379,-1026,-562,-332,257,147,-445
0,4947482,202,-1873,-379,-1026,-562,-332,257,147,-445
0,4947487,203,-1873,-384,-1035,-573,-327,257,147,-445
0,4947491,203,-1873,-384,-1035,-573,-327,257,147,-445
0,4947496,203,-1873,-384,-1035,-573,-327,257,147,-445
0,4947502,203,-1873,-384,-1035,-573,-327,257,147,-445
0,4947507,200,-1876,-385,-1026,-562,-323,257,147,-445
0,4947513,200,-1876,-385,-1026,-562,-323,257,147,-445
0,4947520,200,-1876,-385,-1026,-562,-323,257,147,-445
0,4947528,199,-1874,-383,-1015,-558,-324,257,147,-445
0,4947535,199,-1874,-383,-1015,-558,-324,257,147,-445
0,4947542,199,-1874,-383,-1015,-558,-324,257,147,-445
0,4947549,199,-1872,-383,-1023,-563,-322,257,147,-445
0,4947555,199,-1872,-383,-1023,-563,-322,257,147,-445
0,4947562,199,-1872,-383,-1023,-563,-322,257,147,-445
0,4947568,199,-1872,-383,-1023,-563,-322,257,139,-441
0,4947575,199,-1872,-383,-1023,-563,-322,257,139,-441
0,4947582,199,-1872,-383,-1023,-563,-322,257,139,-441
0,4947591,203,-1872,-384,-1029,-560,-326,257,139,-441
0,4947598,203,-1872,-384,-1029,-560,-326,257,139,-441
0,4947605,201,-1873,-382,-1032,-566,-323,257,139,-441
0,4947612,201,-1873,-382,-1032,-566,-323,257,139,-441
0,4947618,201,-1873,-382,-1032,-566,-323,257,139,-441
0,4947625,200,-1876,-380,-1028,-563,-333,257,139,-441
0,4947633,200,-1876,-380,-1028,-563,-333,257,139,-441
0,4947638,200,-1876,-380,-1028,-563,-333,257,139,-441
0,4947643,200,-1876,-380,-1028,-563,-333,257,139,-441
0,4947648,200,-1875,-383,-1032,-566,-324,257,139,-441
0,4947655,200,-1875,-383,-1032,-566,-324,257,139,-441
0,4947663,200,-1875,-383,-1032,-566,-324,257,139,-441
0,4947671,198,-1874,-382,-1024,-566,-320,257,139,-441
0,4947678,198,-1874,-382,-1024,-566,-320,257,139,-441
0,4947684,198,-1874,-382,-1024,-566,-320,257,139,-441
0,4947689,200,-1873,-383,-1020,-570,-319,257,139,-441
0,4947694,200,-1873,-383,-1020,-570,-319,257,139,-441
0,4947700,200,-1873,-383,-1020,-570,-319,257,139,-441
0,4947704,201,-1873,-384,-1021,-564,-323,261,149,-443
0,4947709,201,-1873,-384,-1021,-564,-323,261,149,-443
0,4947716,201,-1873,-384,-1021,-564,-323,261,149,-443
0,4947722,201,-1873,-384,-1021,-564,-323,261,149,-443
0,4947727,202,-1872,-382,-1024,-561,-326,261,149,-443
0,4947732,202,-1872,-382,-1024,-561,-326,261,149,-443
0,4947740,202,-1872,-382,-1024,-561,-326,261,149,-443
0,4947747,202,-1873,-383,-1028,-562,-323,261,149,-443
0,4947756,202,-1873,-383,-1028,-562,-323,261,149,-443
0,4947762,202,-1873,-383,-1028,-562,-323,261,149,-443
0,4947768,200,-1873,-384,-1023,-571,-329,261,149,-443
0,4947775,200,-1873,-384,-1023,-571,-329,261,149,-443
0,4947782,200,-1873,-384,-1023,-571,-329,261,149,-443
0,4947790,201,-1873,-382,-1028,-568,-331,261,149,-443
0,4947796,201,-1873,-382,-1028,-568,-331,261,149,-443
0,4947804,201,-1873,-382,-1028,-568,-331,261,149,-443
0,4947812,199,-1872,-382,-1026,-567,-328,261,149,-443
0,4947819,199,-1872,-382,-1026,-567,-328,261,149,-443
0,4947826,199,-1875,-385,-1023,-560,-324,261,153,-445
0,4947833,199,-1875,-385,-1023,-560,-324,261,153,-445
0,4947841,199,-1875,-385,-1023,-560,-324,261,153,-445
0,4947848,198,-1875,-385,-1025,-572,-329,261,153,-445
0,4947853,198,-1875,-385,-1025,-572,-329,261,153,-445
0,4947860,198,-1875,-385,-1025,-572,-329,261,153,-445
0,4947868,200,-1877,-384,-1029,-571,-327,261,153,-445
0,4947874,200,-1877,-384,-1029,-571,-327,261,153,-445
0,4947881,200,-1877,-384,-1029,-571,-327,261,153,-445
0,4947890,201,-1873,-384,-1031,-569,-336,261,153,-445
0,4947897,201,-1873,-384,-1031,-569,-336,261,153,-445
0,4947902,201,-1873,-384,-1031,-569,-336,261,153,-445
0,4947909,201,-1873,-379,-1030,-566,-333,261,153,-445
0,4947915,201,-1873,-379,-1030,-566,-333,261,153,-445
0,4947922,201,-1873,-379,-1030,-566,-333,261,153,-445
0,4947929,201,-1877,-381,-1025,-568,-329,261,153,-445
0,4947938,201,-1877,-381,-1025,-568,-329,261,153,-445
0,4947944,201,-1877,-381,-1025,-568,-329,261,153,-445
0,4947950,201,-1874,-386,-1025,-567,-325,261,153,-445
0,4947958,201,-1874,-386,-1025,-567,-325,261,153,-445
0,4947966,199,-1873,-383,-1030,-561,-322,260,138,-450
0,4947974,199,-1873,-383,-1030,-561,-322,260,138,-450
0,4947981,199,-1873,-383,-1030,-561,-322,260,138,-450
0,4947987,201,-1875,-383,-1022,-564,-327,260,138,-450
0,4947994,201,-1875,-383,-1022,-564,-327,260,138,-450
0,4948001,201,-1875,-383,-1022,-564,-327,260,138,-450
0,4948008,202,-1872,-382,-1029,-566,-328,260,138,-450
0,4948016,202,-1872,-382,-1029,-566,-328,260,138,-450
0,4948021,202,-1872,-382,-1029,-566,-328,260,138,-450
0,4948028,201,-1874,-385,-1027,-565,-331,260,138,-450
0,4948036,201,-1874,-385,-1027,-565,-331,260,138,-450
0,4948043,201,-1874,-385,-1027,-565,-331,260,138,-450
0,4948050,198,-1873,-384,-1020,-559,-329,260,138,-450
0,4948059,198,-1873,-384,-1020,-559,-329,260,138,-450
0,4948065,201,-1874,-388,-1026,-569,-323,260,138,-450
0,4948071,201,-1874,-388,-1026,-569,-323,260,138,-450
0,4948079,201,-1874,-388,-1026,-569,-323,260,138,-450
0,4948087,201,-1873,-386,-1026,-568,-323,266,140,-444
0,4948094,201,-1873,-386,-1026,-568,-323,266,140,-444
0,4948102,201,-1873,-386,-1026,-568,-323,266,140,-444
0,4948109,199,-1876,-378,-1025,-562,-324,266,140,-444
0,4948116,199,-1876,-378,-1025,-562,-324,266,140,-444
0,4948122,199,-1876,-378,-1025,-562,-324,266,140,-444
0,4948127,199,-1873,-387,-1023,-569,-325,266,140,-444
0,4948132,199,-1873,-387,-1023,-569,-325,266,140,-444
0,4948139,199,-1873,-387,-1023,-569,-325,266,140,-444
0,4948146,200,-1876,-382,-1034,-569,-324,266,140,-444
0,4948154,200,-1876,-382,-1034,-569,-324,266,140,-444
0,4948160,200,-1876,-382,-1034,-569,-324,266,140,-444
0,4948167,199,-1874,-384,-1034,-568,-322,266,140,-444
0,4948174,199,-1874,-384,-1034,-568,-322,266,140,-444
0,4948182,199,-1874,-384,-1034,-568,-322,266,140,-444
0,4948188,199,-1873,-390,-1034,-570,-326,266,140,-444
0,4948196,199,-1873,-390,-1034,-570,-326,266,140,-444
0,4948202,199,-1873,-390,-1034,-570,-326,266,140,-444
0,4948209,201,-1872,-383,-1027,-564,-323,266,140,-444
0,4948217,201,-1872,-383,-1027,-564,-323,266,140,-444
0,4948226,201,-1872,-383,-1027,-564,-323,252,142,-444
0,4948232,201,-1872,-383,-1027,-564,-323,252,142,-444
0,4948239,201,-1872,-383,-1027,-564,-323,252,142,-444
0,4948245,202,-1874,-383,-1020,-562,-315,252,142,-444
0,4948253,202,-1874,-383,-1020,-562,-315,252,142,-444
0,4948259,202,-1874,-383,-1020,-562,-315,252,142,-444
0,4948267,200,-1874,-384,-1022,-561,-317,252,142,-444
0,4948272,200,-1874,-384,-1022,-561,-317,252,142,-444
0,4948280,200,-1874,-384,-1022,-561,-317,252,142,-444
0,4948286,200,-1875,-381,-1021,-563,-322,252,142,-444
0,4948293,200,-1875,-381,-1021,-563,-322,252,142,-444
0,4948299,200,-1875,-381,-1021,-563,-322,252,142,-444
0,4948306,200,-1875,-381,-1021,-563,-322,252,142,-444
0,4948314,200,-1875,-381,-1021,-563,-322,252,142,-444
0,4948322,200,-1875,-381,-1021,-563,-322,252,142,-444
0,4948328,203,-1875,-383,-1025,-561,-323,252,142,-444
0,4948335,203,-1875,-383,-1025,-561,-323,252,142,-444
0,4948343,203,-1875,-383,-1025,-561,-323,252,142,-444
0,4948350,203,-1876,-382,-1026,-563,-326,253,147,-447
0,4948358,203,-1876,-382,-1026,-563,-326,253,147,-447
0,4948364,203,-1876,-382,-1026,-563,-326,253,147,-447
0,4948371,202,-1875,-380,-1025,-560,-327,253,147,-447
0,4948378,202,-1875,-380,-1025,-560,-327,253,147,-447
0,4948384,202,-1875,-380,-1025,-560,-327,253,147,-447
0,4948390,199,-1876,-386,-1012,-558,-331,253,147,-447
0,4948399,199,-1876,-386,-1012,-558,-331,253,147,-447
0,4948406,202,-1875,-385,-1020,-564,-321,253,147,-447
0,4948412,202,-1875,-385,-1020,-564,-321,253,147,-447
0,4948419,202,-1875,-385,-1020,-564,-321,253,147,-447
0,4948427,202,-1873,-381,-1022,-562,-324,253,147,-447
0,4948433,202,-1873,-381,-1022,-562,-324,253,147,-447
0,4948441,202,-1873,-381,-1022,-562,-324,253,147,-447
0,4948447,203,-1872,-388,-1011,-564,-322,253,147,-447
0,4948456,203,-1872,-388,-1011,-564,-322,253,147,-447
0,4948462,203,-1872,-388,-1011,-564,-322,253,147,-447
0,4948469,197,-1875,-380,-1028,-560,-323,264,146,-446
0,4948475,197,-1875,-380,-1028,-560,-323,264,146,-446
0,4948482,197,-1875,-380,-1028,-560,-323,264,146,-446
0,4948487,200,-1876,-377,-1038,-566,-328,264,146,-446
0,4948492,200,-1876,-377,-1038,-566,-328,264,146,-446
0,4948497,200,-1876,-377,-1038,-566,-328,264,146,-446
0,4948502,200,-1876,-377,-1038,-566,-328,264,146,-446
0,4948507,201,-1877,-382,-1031,-564,-327,264,146,-446
0,4948513,201,-1877,-382,-1031,-564,-327,264,146,-446
0,4948520,201,-1877,-382,-1031,-564,-327,264,146,-446
0,4948528,201,-1873,-382,-1032,-574,-328,264,146,-446
0,4948535,201,-1873,-382,-1032,-574,-328,264,146,-446
0,4948542,201,-1873,-382,-1032,-574,-328,264,146,-446
0,4948548,200,-1874,-385,-1022,-572,-322,264,146,-446
0,4948554,200,-1874,-385,-1022,-572,-322,264,146,-446
0,4948562,200,-1874,-385,-1022,-572,-322,264,146,-446
0,4948570,200,-1876,-383,-1026,-567,-324,264,146,-446
0,4948579,200,-1876,-383,-1026,-567,-324,264,146,-446
0,4948586,201,-1875,-386,-1029,-562,-324,264,146,-446
0,4948594,201,-1875,-386,-1029,-562,-324,264,146,-446
0,4948600,201,-1875,-386,-1029,-562,-324,264,146,-446
0,4948606,200,-1874,-379,-1032,-567,-328,257,155,-445
0,4948612,200,-1874,-379,-1032,-567,-328,257,155,-445
0,4948617,200,-1874,-379,-1032,-567,-328,257,155,-445
0,4948622,200,-1874,-379,-1032,-567,-328,257,155,-445
0,4948629,200,-1875,-384,-1028,-570,-327,257,155,-445
0,4948636,200,-1875,-384,-1028,-570,-327,257,155,-445
0,4948644,200,-1875,-384,-1028,-570,-327,257,155,-445
0,4948652,202,-1875,-386,-1028,-565,-322,257,155,-445
0,4948659,202,-1875,-386,-1028,-565,-322,257,155,-445
0,4948666,197,-1873,-383,-1039,-564,-328,257,155,-445
0,4948673,197,-1873,-383,-1039,-564,-328,257,155,-445
0,4948680,197,-1873,-383,-1039,-564,-328,257,155,-445
0,4948685,197,-1873,-383,-1039,-564,-328,257,155,-445
0,4948690,198,-1873,-385,-1035,-568,-325,257,155,-445
0,4948696,198,-1873,-385,-1035,-568,-325,257,155,-445
0,4948702,198,-1873,-385,-1035,-568,-325,257,155,-445
0,4948706,202,-1874,-383,-1029,-565,-321,257,155,-445
0,4948711,202,-1874,-383,-1029,-565,-321,257,155,-445
0,4948716,202,-1874,-383,-1029,-565,-321,257,155,-445
0,4948721,202,-1874,-383,-1029,-565,-321,257,155,-445
0,4948726,199,-1872,-383,-1032,-568,-324,257,141,-447
0,4948733,199,-1872,-383,-1032,-568,-324,257,141,-447
0,4948741,199,-1872,-383,-1032,-568,-324,257,141,-447
0,4948749,198,-1876,-380,-1030,-566,-330,257,141,-447
0,4948755,198,-1876,-380,-1030,-566,-330,257,141,-447
0,4948761,198,-1876,-380,-1030,-566,-330,257,141,-447
0,4948769,200,-1876,-385,-1029,-566,-324,257,141,-447
0,4948776,200,-1876,-385,-1029,-566,-324,257,141,-447
0,4948784,200,-1876,-385,-1029,-566,-324,257,141,-447
0,4948792,204,-1874,-384,-1036,-566,-325,257,141,-447
0,4948799,204,-1874,-384,-1036,-566,-325,257,141,-447
0,4948807,202,-1875,-384,-1022,-564,-319,257,141,-447
0,4948814,202,-1875,-384,-1022,-564,-319,257,141,-447
0,4948820,202,-1875,-384,-1022,-564,-319,257,141,-447
0,4948829,203,-1871,-387,-1017,-565,-324,257,141,-447
0,4948836,203,-1871,-387,-1017,-565,-324,257,141,-447
0,4948843,203,-1871,-387,-1017,-565,-324,257,141,-447
0,4948850,195,-1873,-383,-1023,-569,-328,257,141,-447
0,4948856,195,-1873,-383,-1023,-569,-328,257,141,-447
0,4948864,195,-1873,-383,-1023,-569,-328,257,141,-447
0,4948872,197,-1872,-374,-1028,-561,-329,252,150,-450
0,4948880,197,-1872,-374,-1028,-561,-329,252,150,-450
0,4948886,202,-1870,-385,-1030,-563,-326,252,150,-450
0,4948893,202,-1870,-385,-1030,-563,-326,252,150,-450
0,4948900,202,-1870,-385,-1030,-563,-326,252,150,-450
0,4948907,201,-1873,-383,-1023,-562,-330,252,150,-450
0,4948914,201,-1873,-383,-1023,-562,-330,252,150,-450
0,4948922,201,-1873,-383,-1023,-562,-330,252,150,-450
0,4948930,202,-1873,-388,-1020,-573,-331,252,150,-450
0,4948938,202,-1873,-388,-1020,-573,-331,252,150,-450
0,4948945,202,-1873,-388,-1020,-573,-331,252,150,-450
0,4948953,198,-1874,-380,-1029,-568,-330,252,150,-450
0,4948960,198,-1874,-380,-1029,-568,-330,252,150,-450
0,4948967,202,-1873,-381,-1033,-566,-328,252,150,-450
0,4948973,202,-1873,-381,-1033,-566,-328,252,150,-450
0,4948981,202,-1873,-381,-1033,-566,-328,252,150,-450
0,4948988,201,-1872,-384,-1030,-563,-324,258,148,-446
0,4948996,201,-1872,-384,-1030,-563,-324,258,148,-446
0,4949004,201,-1872,-384,-1030,-563,-324,258,148,-446
0,4949010,200,-1873,-382,-1030,-570,-325,258,148,-446
0,4949016,200,-1873,-382,-1030,-570,-325,258,148,-446
0,4949022,200,-1873,-382,-1030,-570,-325,258,148,-446
0,4949029,199,-1874,-388,-1023,-562,-325,258,148,-446
0,4949037,199,-1874,-388,-1023,-562,-325,258,148,-446
0,4949044,199,-1874,-388,-1023,-562,-325,258,148,-446
0,4949052,201,-1875,-389,-1024,-564,-334,258,148,-446
0,4949060,201,-1875,-389,-1024,-564,-334,258,148,-446
0,4949066,201,-1875,-389,-1024,-564,-334,258,148,-446
0,4949074,201,-1875,-389,-1024,-564,-334,258,148,-446
0,4949081,201,-1875,-389,-1024,-564,-334,258,148,-446
0,4949088,203,-1876,-382,-1024,-562,-323,258,148,-446
0,4949093,203,-1876,-382,-1024,-562,-323,258,148,-446
0,4949098,203,-1876,-382,-1024,-562,-323,258,148,-446
0,4949103,203,-1876,-382,-1024,-562,-323,258,148,-446
0,4949108,199,-1875,-384,-1029,-574,-321,255,147,-445
0,4949115,199,-1875,-384,-1029,-574,-321,255,147,-445
0,4949124,199,-1875,-384,-1029,-574,-321,255,147,-445
0,4949131,204,-1873,-384,-1026,-565,-322,255,147,-445
0,4949138,204,-1873,-384,-1026,-565,-322,255,147,-445
0,4949144,204,-1873,-384,-1026,-565,-322,255,147,-445
0,4949152,198,-1873,-384,-1029,-562,-322,255,147,-445
0,4949160,198,-1873,-384,-1029,-562,-322,255,147,-445
0,4949167,199,-1876,-383,-1032,-562,-326,255,147,-445
0,4949173,199,-1876,-383,-1032,-562,-326,255,147,-445
0,4949180,199,-1876,-383,-1032,-562,-326,255,147,-445
0,4949187,201,-1873,-384,-1032,-565,-322,255,147,-445
0,4949193,201,-1873,-384,-1032,-565,-322,255,147,-445
0,4949201,201,-1873,-384,-1032,-565,-322,255,147,-445
0,4949208,200,-1873,-383,-1032,-563,-317,255,147,-445
0,4949216,200,-1873,-383,-1032,-563,-317,255,147,-445
0,4949223,200,-1873,-383,-1032,-563,-317,255,147,-445
0,4949229,197,-1873,-382,-1024,-562,-323,255,147,-445
0,4949236,197,-1873,-382,-1024,-562,-323,255,147,-445
0,4949243,197,-1873,-382,-1024,-562,-323,255,147,-445
0,4949251,200,-1873,-375,-1023,-567,-332,265,149,-449
0,4949258,200,-1873,-375,-1023,-567,-332,265,149,-449
0,4949266,200,-1873,-375,-1023,-567,-332,265,149,-449
0,4949273,199,-1872,-378,-1027,-565,-326,265,149,-449
0,4949280,199,-1872,-378,-1027,-565,-326,265,149,-449
0,4949287,199,-1876,-384,-1028,-561,-321,265,149,-449
0,4949295,199,-1876,-384,-1028,-561,-321,265,149,-449
0,4949302,199,-1876,-384,-1028,-561,-321,265,149,-449
0,4949308,199,-1872,-382,-1023,-566,-319,265,149,-449
0,4949316,199,-1872,-382,-1023,-566,-319,265,149,-449
0,4949323,199,-1872,-382,-1023,-566,-319,265,149,-449
0,4949330,200,-1874,-385,-1030,-565,-324,265,149,-449
0,4949338,200,-1874,-385,-1030,-565,-324,265,149,-449
0,4949345,200,-1874,-385,-1030,-565,-324,265,149,-449
0,4949352,201,-1871,-386,-1024,-562,-320,265,149,-449
0,4949358,201,-1871,-386,-1024,-562,-320,265,149,-449
0,4949366,201,-1877,-377,-1023,-565,-328,261,141,-445
0,4949374,201,-1877,-377,-1023,-565,-328,261,141,-445
0,4949382,201,-1877,-377,-1023,-565,-328,261,141,-445
0,4949389,199,-1870,-382,-1019,-569,-324,261,141,-445
0,4949395,199,-1870,-382,-1019,-569,-324,261,141,-445
0,4949402,199,-1870,-382,-1019,-569,-324,261,141,-445
0,4949408,200,-1873,-385,-1030,-563,-323,261,141,-445
0,4949416,200,-1873,-385,-1030,-563,-323,261,141,-445
0,4949424,200,-1873,-385,-1030,-563,-323,261,141,-445
0,4949431,200,-1873,-379,-1024,-567,-323,261,141,-445
0,4949438,200,-1873,-379,-1024,-567,-323,261,141,-445
0,4949445,200,-1873,-379,-1024,-567,-323,261,141,-445
0,4949452,200,-1871,-385,-1029,-561,-329,261,141,-445
0,4949458,200,-1871,-385,-1029,-561,-329,261,141,-445
0,4949468,202,-1874,-389,-1027,-567,-330,261,141,-445
0,4949475,202,-1874,-389,-1027,-567,-330,261,141,-445
0,4949481,202,-1874,-389,-1027,-567,-330,261,141,-445
0,4949486,202,-1874,-389,-1027,-567,-330,261,141,-445
0,4949491,202,-1872,-383,-1028,-563,-327,261,141,-445
0,4949496,202,-1872,-383,-1028,-563,-327,261,141,-445
0,4949500,202,-1872,-383,-1028,-563,-327,261,141,-445
0,4949506,202,-1872,-383,-1028,-563,-327,261,141,-445
0,4949511,200,-1873,-383,-1011,-565,-327,258,148,-440
0,4949518,200,-1873,-383,-1011,-565,-327,258,148,-440
0,4949526,200,-1873,-383,-1011,-565,-327,258,148,-440
0,4949533,202,-1874,-377,-1024,-567,-328,258,148,-440
0,4949540,202,-1874,-377,-1024,-567,-328,258,148,-440
0,4949545,202,-1874,-377,-1024,-567,-328,258,148,-440
0,4949553,203,-1873,-379,-1023,-563,-325,258,148,-440
0,4949560,203,-1873,-379,-1023,-563,-325,258,148,-440
0,4949565,203,-1873,-379,-1023,-563,-325,258,148,-440
0,4949570,202,-1875,-384,-1023,-554,-320,258,148,-440
0,4949575,202,-1875,-384,-1023,-554,-320,258,148,-440
0,4949583,202,-1875,-384,-1023,-554,-320,258,148,-440
0,4949591,199,-1877,-389,-1021,-566,-324,258,148,-440
0,4949596,199,-1877,-389,-1021,-566,-324,258,148,-440
0,4949602,199,-1877,-389,-1021,-566,-324,258,148,-440
0,4949608,201,-1876,-380,-1020,-559,-320,258,148,-440
0,4949615,201,-1876,-380,-1020,-559,-320,258,148,-440
0,4949622,201,-1876,-380,-1020,-559,-320,258,148,-440
0,4949627,201,-1872,-376,-1035,-563,-328,261,145,-437
0,4949636,201,-1872,-376,-1035,-563,-328,261,145,-437
0,4949643,201,-1872,-376,-1035,-563,-328,261,145,-437
0,4949650,200,-1872,-385,-1033,-563,-321,261,145,-437
0,4949657,200,-1872,-385,-1033,-563,-321,261,145,-437
0,4949663,200,-1872,-385,-1033,-563,-321,261,145,-437
0,4949670,201,-1873,-381,-1019,-562,-322,261,145,-437
0,4949679,201,-1873,-381,-1019,-562,-322,261,145,-437
0,4949685,201,-1873,-381,-1019,-562,-322,261,145,-437
0,4949690,202,-1874,-380,-1025,-560,-326,261,145,-437
0,4949695,202,-1874,-380,-1025,-560,-326,261,145,-437
0,4949700,202,-1874,-380,-1025,-560,-326,261,145,-437
0,4949706,202,-1874,-380,-1025,-560,-326,261,145,-437
0,4949711,201,-1873,-386,-1026,-565,-321,261,145,-437
0,4949716,201,-1873,-386,-1026,-565,-321,261,145,-437
0,4949722,201,-1873,-386,-1026,-565,-321,261,145,-437
0,4949727,201,-1871,-386,-1020,-567,-328,261,145,-437
0,4949733,201,-1871,-386,-1020,-567,-328,261,145,-437
0,4949738,201,-1871,-386,-1020,-567,-328,261,145,-437
0,4949744,201,-1871,-386,-1020,-567,-328,261,145,-437
0,4949750,199,-1877,-384,-1026,-569,-327,261,145,-437
0,4949755,199,-1877,-384,-1026,-569,-327,261,145,-437
0,4949761,199,-1877,-384,-1026,-569,-327,261,145,-437
0,4949767,199,-1877,-384,-1026,-569,-327,261,145,-437
0,4949772,200,-1875,-377,-1026,-575,-330,266,142,-448
0,4949778,200,-1875,-377,-1026,-575,-330,266,142,-448
0,4949784,200,-1875,-377,-1026,-575,-330,266,142,-448
0,4949789,200,-1876,-383,-1029,-571,-333,266,142,-448
0,4949794,200,-1876,-383,-1029,-571,-333,266,142,-448
0,4949801,200,-1876,-383,-1029,-571,-333,266,142,-448
0,4949808,201,-1877,-383,-1021,-563,-333,266,142,-448
0,4949814,201,-1877,-383,-1021,-563,-333,266,142,-448
0,4949819,201,-1877,-383,-1021,-563,-333,266,142,-448
0,4949825,201,-1877,-383,-1021,-563,-333,266,142,-448
0,4949831,199,-1876,-385,-1021,-562,-333,266,142,-448
0,4949837,199,-1876,-385,-1021,-562,-333,266,142,-448
0,4949843,199,-1876,-385,-1021,-562,-333,266,142,-448
0,4949850,200,-1875,-384,-1029,-563,-327,266,142,-448
0,4949856,200,-1875,-384,-1029,-563,-327,266,142,-448
0,4949861,200,-1875,-384,-1029,-563,-327,266,142,-448
0,4949867,200,-1873,-389,-1025,-553,-326,266,142,-448
0,4949873,200,-1873,-389,-1025,-553,-326,266,142,-448
0,4949880,200,-1873,-389,-1025,-553,-326,266,142,-448
0,4949889,202,-1873,-386,-1027,-560,-322,259,139,-441
0,4949896,202,-1873,-386,-1027,-560,-322,259,139,-441
0,4949902,202,-1873,-386,-1027,-560,-322,259,139,-441
0,4949909,199,-1873,-387,-1032,-564,-318,259,139,-441
0,4949915,199,-1873,-387,-1032,-564,-318,259,139,-441
0,4949922,199,-1873,-387,-1032,-564,-318,259,139,-441
0,4949928,201,-1874,-382,-1033,-568,-321,259,139,-441
0,4949937,201,-1874,-382,-1033,-568,-321,259,139,-441
0,4949945,201,-1874,-382,-1033,-568,-321,259,139,-441
0,4949952,201,-1875,-385,-1028,-566,-324,259,139,-441
0,4949959,201,-1875,-385,-1028,-566,-324,259,139,-441
0,4949966,201,-1875,-385,-1028,-566,-324,259,139,-441
0,4949972,199,-1875,-388,-1022,-574,-326,259,139,-441
0,4949979,199,-1875,-388,-1022,-574,-326,259,139,-441
0,4949987,199,-1875,-388,-1022,-574,-326,259,139,-441
0,4949994,200,-1871,-386,-1023,-570,-322,259,139,-441
0,4949999,200,-1871,-386,-1023,-570,-322,259,139,-441
0,4950004,200,-1871,-386,-1023,-570,-322,259,139,-441
0,4950011,199,-1872,-384,-1025,-567,-323,266,142,-448
0,4950017,199,-1872,-384,-1025,-567,-323,266,142,-448
0,4950023,199,-1872,-384,-1025,-567,-323,266,142,-448
0,4950028,195,-1875,-384,-1028,-568,-317,266,142,-448
0,4950035,195,-1875,-384,-1028,-568,-317,266,142,-448
0,4950043,195,-1875,-384,-1028,-568,-317,266,142,-448
0,4950049,200,-1877,-385,-1028,-571,-332,266,142,-448
0,4950055,200,-1877,-385,-1028,-571,-332,266,142,-448
0,4950063,200,-1877,-385,-1028,-571,-332,266,142,-448
0,4950071,200,-1877,-390,-1031,-560,-326,266,142,-448
0,4950077,200,-1877,-390,-1031,-560,-326,266,142,-448
0,4950083,200,-1877,-390,-1031,-560,-326,266,142,-448
0,4950090,200,-1872,-382,-1034,-562,-325,266,142,-448
0,4950096,200,-1872,-382,-1034,-562,-325,266,142,-448
0,4950104,200,-1872,-382,-1034,-562,-325,266,142,-448
0,4950111,202,-1873,-382,-1024,-566,-322,266,142,-448
0,4950117,202,-1873,-382,-1024,-566,-322,266,142,-448
0,4950124,202,-1873,-382,-1024,-566,-322,266,142,-448
0,4950129,201,-1872,-385,-1029,-570,-324,266,142,-448
0,4950137,201,-1872,-385,-1029,-570,-324,266,142,-448
0,4950144,201,-1872,-385,-1029,-570,-324,266,142,-448
0,4950149,198,-1873,-382,-1020,-565,-325,258,152,-442
0,4950156,198,-1873,-382,-1020,-565,-325,258,152,-442
0,4950165,198,-1873,-382,-1020,-565,-325,258,152,-442
0,4950172,199,-1872,-377,-1026,-563,-322,258,152,-442
0,4950179,199,-1872,-377,-1026,-563,-322,258,152,-442
0,4950187,199,-1872,-377,-1026,-563,-322,258,152,-442
0,4950194,202,-1874,-383,-1025,-563,-325,258,152,-442
0,4950199,202,-1874,-383,-1025,-563,-325,258,152,-442
0,4950206,202,-1874,-383,-1025,-563,-325,258,152,-442
0,4950212,200,-1873,-389,-1019,-561,-329,258,152,-442
0,4950219,200,-1873,-389,-1019,-561,-329,258,152,-442
0,4950226,200,-1873,-389,-1019,-561,-329,258,152,-442
0,4950232,198,-1873,-385,-1011,-565,-327,258,152,-442
0,4950238,198,-1873,-385,-1011,-565,-327,258,152,-442
0,4950245,198,-1873,-385,-1011,-565,-327,258,152,-442
0,4950252,199,-1872,-384,-1027,-566,-330,258,152,-442
0,4950259,199,-1872,-384,-1027,-566,-330,258,152,-442
0,4950266,199,-1872,-384,-1027,-566,-330,258,152,-442
0,4950273,203,-1871,-380,-1027,-572,-333,261,143,-439
0,4950280,203,-1871,-380,-1027,-572,-333,261,143,-439
0,4950287,203,-1871,-380,-1027,-572,-333,261,143,-439
0,4950294,199,-1872,-381,-1026,-562,-323,261,143,-439
0,4950302,199,-1872,-381,-1026,-562,-323,261,143,-439
0,4950308,201,-1871,-382,-1026,-563,-327,261,143,-439
0,4950316,201,-1871,-382,-1026,-563,-327,261,143,-439
0,4950323,201,-1871,-382,-1026,-563,-327,261,143,-439
0,4950329,202,-1873,-384,-1033,-559,-325,261,143,-439
0,4950336,202,-1873,-384,-1033,-559,-325,261,143,-439
0,4950343,202,-1873,-384,-1033,-559,-325,261,143,-439
0,4950350,201,-1872,-383,-1031,-568,-329,261,143,-439
0,4950358,201,-1872,-383,-1031,-568,-329,261,143,-439
0,4950364,201,-1872,-383,-1031,-568,-329,261,143,-439
0,4950372,200,-1873,-384,-1020,-567,-328,261,143,-439
0,4950380,200,-1873,-384,-1020,-567,-328,261,143,-439
0,4950386,200,-1873,-384,-1020,-567,-328,261,143,-439
0,4950393,201,-1874,-388,-1019,-563,-329,261,143,-439
0,4950401,201,-1874,-388,-1019,-563,-329,261,143,-439
0,4950408,200,-1873,-376,-1022,-557,-323,255,143,-439
0,4950414,200,-1873,-376,-1022,-557,-323,255,143,-439
0,4950422,200,-1873,-376,-1022,-557,-323,255,143,-439
0,4950429,200,-1872,-386,-1025,-566,-327,255,143,-439
0,4950435,200,-1872,-386,-1025,-566,-327,255,143,-439
0,4950444,200,-1872,-386,-1025,-566,-327,255,143,-439
0,4950451,200,-1872,-381,-1027,-563,-322,255,143,-439
0,4950458,200,-1872,-381,-1027,-563,-322,255,143,-439
0,4950464,200,-1872,-381,-1027,-563,-322,255,143,-439
0,4950472,198,-1874,-385,-1025,-565,-325,255,143,-439
0,4950478,198,-1874,-385,-1025,-565,-325,255,143,-439
0,4950484,198,-1874,-385,-1025,-565,-325,255,143,-439
0,4950489,200,-1878,-387,-1027,-569,-330,255,143,-439
0,4950494,200,-1878,-387,-1027,-569,-330,255,143,-439
0,4950500,200,-1878,-387,-1027,-569,-330,255,143,-439
0,4950506,200,-1878,-387,-1027,-569,-330,255,143,-439
0,4950512,203,-1874,-389,-1024,-568,-329,255,143,-439
0,4950517,203,-1874,-389,-1024,-568,-329,255,143,-439
0,4950525,203,-1874,-389,-1024,-568,-329,255,143,-439
0,4950533,199,-1873,-378,-1024,-562,-324,258,148,-448
0,4950540,199,-1873,-378,-1024,-562,-324,258,148,-448
0,4950547,199,-1873,-378,-1024,-562,-324,258,148,-448
0,4950554,203,-1875,-382,-1025,-559,-323,258,148,-448
0,4950560,203,-1875,-382,-1025,-559,-323,258,148,-448
0,4950565,203,-1875,-382,-1025,-559,-323,258,148,-448
0,4950573,198,-1874,-386,-1026,-564,-330,258,148,-448
0,4950579,198,-1874,-386,-1026,-564,-330,258,148,-448
0,4950585,198,-1874,-386,-1026,-564,-330,258,148,-448
0,4950593,201,-1872,-385,-1022,-573,-326,258,148,-448
0,4950600,201,-1872,-385,-1022,-573,-326,258,148,-448
0,4950606,201,-1872,-385,-1022,-573,-326,258,148,-448
0,4950612,200,-1876,-385,-1026,-570,-323,258,148,-448
0,4950618,200,-1876,-385,-1026,-570,-323,258,148,-448
0,4950625,200,-1876,-385,-1026,-570,-323,258,148,-448
0,4950631,204,-1874,-384,-1033,-565,-319,258,148,-448
0,4950640,204,-1874,-384,-1033,-565,-319,258,148,-448
0,4950647,204,-1874,-384,-1033,-565,-319,258,148,-448
0,4950656,199,-1873,-383,-1027,-564,-325,258,148,-448
0,4950662,199,-1873,-383,-1027,-564,-325,258,148,-448
0,4950669,201,-1873,-387,-1035,-569,-330,264,148,-444
0,4950675,201,-1873,-387,-1035,-569,-330,264,148,-444
0,4950682,201,-1873,-387,-1035,-569,-330,264,148,-444
0,4950687,201,-1873,-387,-1035,-569,-330,264,148,-444
0,4950692,201,-1868,-382,-1023,-563,-324,264,148,-444
0,4950697,201,-1868,-382,-1023,-563,-324,264,148,-444
0,4950703,201,-1868,-382,-1023,-563,-324,264,148,-444
0,4950708,198,-1873,-389,-1024,-568,-323,264,148,-444
0,4950714,198,-1873,-389,-1024,-568,-323,264,148,-444
0,4950719,198,-1873,-389,-1024,-568,-323,264,148,-444
0,4950724,198,-1873,-389,-1024,-568,-323,264,148,-444
0,4950731,199,-1872,-384,-1026,-573,-320,264,148,-444
0,4950739,199,-1872,-384,-1026,-573,-320,264,148,-444
0,4950746,199,-1872,-384,-1026,-573,-320,264,148,-444
0,4950752,200,-1874,-379,-1030,-567,-328,264,148,-444
0,4950759,200,-1874,-379,-1030,-567,-328,264,148,-444
0,4950767,200,-1874,-379,-1030,-567,-328,264,148,-444
0,4950774,200,-1876,-385,-1027,-570,-332,264,148,-444
0,4950781,200,-1876,-385,-1027,-570,-332,264,148,-444
0,4950789,203,-1873,-378,-1026,-563,-326,264,148,-440
0,4950796,203,-1873,-378,-1026,-563,-326,264,148,-440
0,4950803,203,-1873,-378,-1026,-563,-326,264,148,-440
0,4950810,202,-1873,-382,-1037,-567,-326,264,148,-440
0,4950816,202,-1873,-382,-1037,-567,-326,264,148,-440
0,4950824,202,-1873,-382,-1037,-567,-326,264,148,-440
0,4950832,201,-1875,-377,-1030,-573,-331,264,148,-440
0,4950839,201,-1875,-377,-1030,-573,-331,264,148,-440
0,4950845,201,-1875,-377,-1030,-573,-331,264,148,-440
0,4950852,200,-1872,-384,-1028,-561,-320,264,148,-440
0,4950857,200,-1872,-384,-1028,-561,-320,264,148,-440
0,4950865,200,-1872,-384,-1028,-561,-320,264,148,-440
0,4950874,198,-1875,-386,-1024,-564,-323,264,148,-440
0,4950882,198,-1875,-386,-1024,-564,-323,264,148,-440
0,4950890,202,-1875,-387,-1027,-563,-322,264,148,-440
0,4950896,202,-1875,-387,-1027,-563,-322,264,148,-440
0,4950903,202,-1875,-387,-1027,-563,-322,264,148,-440
0,4950909,201,-1871,-383,-1017,-562,-326,256,136,-450
0,4950917,201,-1871,-383,-1017,-562,-326,256,136,-450
0,4950924,201,-1871,-383,-1017,-562,-326,256,136,-450
0,4950932,196,-1873,-382,-1016,-559,-330,256,136,-450
0,4950939,196,-1873,-382,-1016,-559,-330,256,136,-450
0,4950945,196,-1873,-382,-1016,-559,-330,256,136,-450
0,4950951,198,-1873,-386,-1023,-561,-335,256,136,-450
0,4950959,198,-1873,-386,-1023,-561,-335,256,136,-450
0,4950966,198,-1873,-386,-1023,-561,-335,256,136,-450
0,4950974,199,-1875,-384,-1021,-567,-333,256,136,-450
0,4950981,199,-1875,-384,-1021,-567,-333,256,136,-450
0,4950988,201,-1872,-390,-1020,-567,-328,256,136,-450
0,4950995,201,-1872,-390,-1020,-567,-328,256,136,-450
0,4951001,201,-1872,-390,-1020,-567,-328,256,136,-450
0,4951007,201,-1872,-390,-1020,-567,-328,256,136,-450
0,4951012,201,-1872,-390,-1020,-567,-328,256,136,-450
0,4951017,201,-1872,-390,-1020,-567,-328,256,136,-450
0,4951025,201,-1872,-390,-1020,-567,-328,256,136,-450
0,4951032,201,-1874,-381,-1028,-562,-332,256,136,-450
0,4951040,201,-1874,-381,-1028,-562,-332,256,136,-450
0,4951047,201,-1874,-381,-1028,-562,-332,256,136,-450
0,4951052,200,-1874,-377,-1028,-565,-333,257,139,-443
0,4951058,200,-1874,-377,-1028,-565,-333,257,139,-443
0,4951065,200,-1874,-377,-1028,-565,-333,257,139,-443
0,4951070,200,-1873,-384,-1030,-567,-331,257,139,-443
0,4951079,200,-1873,-384,-1030,-567,-331,257,139,-443
0,4951085,200,-1873,-384,-1030,-567,-331,257,139,-443
0,4951092,203,-1874,-377,-1031,-570,-331,257,139,-443
0,4951099,203,-1874,-377,-1031,-570,-331,257,139,-443
0,4951106,203,-1874,-377,-1031,-570,-331,257,139,-443
0,4951112,202,-1872,-379,-1021,-570,-323,257,139,-443
0,4951120,202,-1872,-379,-1021,-570,-323,257,139,-443
0,4951127,202,-1872,-379,-1021,-570,-323,257,139,-443
0,4951134,201,-1877,-386,-1026,-563,-328,257,139,-443
0,4951142,201,-1877,-386,-1026,-563,-328,257,139,-443
0,4951149,201,-1874,-382,-1031,-566,-325,257,139,-443
0,4951156,201,-1874,-382,-1031,-566,-325,257,139,-443
0,4951163,201,-1874,-382,-1031,-566,-325,257,139,-443
0,4951171,202,-1876,-380,-1020,-562,-330,262,138,-444
0,4951179,202,-1876,-380,-1020,-562,-330,262,138,-444
0,4951185,202,-1876,-380,-1020,-562,-330,262,138,-444
0,4951192,200,-1874,-384,-1022,-561,-321,262,138,-444
0,4951200,200,-1874,-384,-1022,-561,-321,262,138,-444
0,4951207,200,-1874,-384,-1022,-561,-321,262,138,-444
0,4951214,200,-1875,-381,-1023,-567,-329,262,138,-444
0,4951220,200,-1875,-381,-1023,-567,-329,262,138,-444
0,4951227,200,-1875,-381,-1023,-567,-329,262,138,-444
0,4951235,201,-1873,-380,-1017,-565,-321,262,138,-444
0,4951242,201,-1873,-380,-1017,-565,-321,262,138,-444
0,4951250,199,-1874,-384,-1014,-563,-321,262,138,-444
0,4951258,199,-1874,-384,-1014,-563,-321,262,138,-444
0,4951265,199,-1874,-384,-1014,-563,-321,262,138,-444
0,4951273,200,-1872,-392,-1017,-568,-324,262,138,-444
0,4951279,200,-1872,-392,-1017,-568,-324,262,138,-444
0,4951285,200,-1872,-392,-1017,-568,-324,262,138,-444
0,4951292,197,-1874,-385,-1025,-563,-324,262,138,-444
0,4951300,197,-1874,-385,-1025,-563,-324,262,138,-444
0,4951306,197,-1874,-385,-1025,-563,-324,262,138,-444
0,4951313,201,-1875,-379,-1036,-575,-324,260,142,-446
0,4951321,201,-1875,-379,-1036,-575,-324,260,142,-446
0,4951327,201,-1875,-379,-1036,-575,-324,260,142,-446
0,4951334,198,-1874,-384,-1029,-569,-325,260,142,-446
0,4951342,198,-1874,-384,-1029,-569,-325,260,142,-446
0,4951349,201,-1874,-381,-1026,-567,-332,260,142,-446
0,4951356,201,-1874,-381,-1026,-567,-332,260,142,-446
0,4951363,201,-1874,-381,-1026,-567,-332,260,142,-446
0,4951369,203,-1871,-386,-1035,-569,-330,260,142,-446
0,4951375,203,-1871,-386,-1035,-569,-330,260,142,-446
0,4951383,203,-1871,-386,-1035,-569,-330,260,142,-446
0,4951389,203,-1871,-386,-1035,-569,-330,260,142,-446
0,4951395,201,-1874,-385,-1026,-564,-330,260,142,-446
0,4951401,201,-1874,-385,-1026,-564,-330,260,142,-446
0,4951409,201,-1874,-385,-1026,-564,-330,260,142,-446
0,4951415,200,-1874,-382,-1025,-558,-335,260,142,-446
0,4951422,200,-1874,-382,-1025,-558,-335,260,142,-446
0,4951429,199,-1874,-383,-1029,-562,-326,260,142,-446
0,4951436,199,-1874,-383,-1029,-562,-326,258,146,-444
0,4951444,199,-1874,-383,-1029,-562,-326,258,146,-444
0,4951452,202,-1872,-381,-1021,-559,-327,258,146,-444
0,4951460,202,-1872,-381,-1021,-559,-327,258,146,-444
0,4951469,202,-1872,-381,-1021,-559,-327,258,146,-444
0,4951475,204,-1871,-385,-1031,-566,-331,258,146,-444
0,4951483,204,-1871,-385,-1031,-566,-331,258,146,-444
0,4951488,204,-1871,-385,-1031,-566,-331,258,146,-444
0,4951493,201,-1871,-385,-1025,-563,-325,258,146,-444
0,4951499,201,-1871,-385,-1025,-563,-325,258,146,-444
0,4951504,201,-1871,-385,-1025,-563,-325,258,146,-444
0,4951510,200,-1875,-387,-1019,-559,-324,258,146,-444
0,4951518,200,-1875,-387,-1019,-559,-324,258,146,-444
0,4951525,200,-1875,-387,-1019,-559,-324,258,146,-444
0,4951531,198,-1873,-389,-1024,-565,-326,258,146,-444
0,4951538,198,-1873,-389,-1024,-565,-326,258,146,-444
0,4951545,198,-1873,-389,-1024,-565,-326,258,146,-444
0,4951552,201,-1877,-386,-1020,-568,-322,258,146,-444
0,4951560,201,-1877,-386,-1020,-568,-322,258,146,-444
0,4951566,201,-1877,-386,-1020,-568,-322,258,146,-444
0,4951571,199,-1876,-383,-1026,-572,-327,262,150,-444
0,4951579,199,-1876,-383,-1026,-572,-327,262,150,-444
0,4951586,199,-1876,-383,-1026,-572,-327,262,150,-444
0,4951595,202,-1874,-379,-1028,-557,-332,262,150,-444
0,4951603,202,-1874,-379,-1028,-557,-332,262,150,-444
0,4951610,200,-1873,-387,-1031,-563,-332,262,150,-444
0,4951616,200,-1873,-387,-1031,-563,-332,262,150,-444
0,4951622,200,-1873,-387,-1031,-563,-332,262,150,-444
0,4951629,198,-1872,-385,-1024,-568,-333,262,150,-444
0,4951635,198,-1872,-385,-1024,-568,-333,262,150,-444
0,4951643,198,-1872,-385,-1024,-568,-333,262,150,-444
0,4951650,200,-1875,-381,-1024,-566,-327,262,150,-444
0,4951655,200,-1875,-381,-1024,-566,-327,262,150,-444
0,4951662,200,-1875,-381,-1024,-566,-327,262,150,-444
0,4951670,203,-1874,-384,-1021,-562,-321,262,150,-444
0,4951677,203,-1874,-384,-1021,-562,-321,262,150,-444
0,4951685,203,-1874,-384,-1021,-562,-321,262,150,-444
0,4951690,201,-1876,-384,-1027,-566,-326,253,141,-443
0,4951695,201,-1876,-384,-1027,-566,-326,253,141,-443
0,4951700,201,-1876,-384,-1027,-566,-326,253,141,-443
0,4951705,201,-1876,-384,-1027,-566,-326,253,141,-443
0,4951710,199,-1875,-378,-1035,-569,-321,253,141,-443
0,4951715,199,-1875,-378,-1035,-569,-321,253,141,-443
0,4951720,199,-1875,-378,-1035,-569,-321,253,141,-443
0,4951727,199,-1875,-378,-1035,-569,-321,253,141,-443
0,4951732,201,-1871,-384,-1035,-568,-323,253,141,-443
0,4951740,201,-1871,-384,-1035,-568,-323,253,141,-443
0,4951747,201,-1871,-384,-1035,-568,-323,253,141,-443
0,4951753,199,-1874,-385,-1030,-564,-329,253,141,-443
0,4951760,199,-1874,-385,-1030,-564,-329,253,141,-443
0,4951768,199,-1874,-385,-1030,-564,-329,253,141,-443
0,4951775,200,-1875,-384,-1022,-564,-337,253,141,-443
0,4951782,200,-1875,-384,-1022,-564,-337,253,141,-443
0,4951788,200,-1875,-384,-1022,-564,-337,253,141,-443
0,4951796,199,-1875,-384,-1024,-564,-325,253,141,-443
0,4951803,199,-1875,-384,-1024,-564,-325,253,141,-443
0,4951812,198,-1875,-382,-1026,-566,-320,256,150,-438
0,4951819,198,-1875,-382,-1026,-566,-320,256,150,-438
0,4951824,198,-1875,-382,-1026,-566,-320,256,150,-438
0,4951831,198,-1875,-382,-1026,-566,-320,256,150,-438
0,4951838,198,-1875,-382,-1026,-566,-320,256,150,-438
0,4951845,198,-1875,-382,-1026,-566,-320,256,150,-438
0,4951853,199,-1874,-382,-1022,-562,-325,256,150,-438
0,4951858,199,-1874,-382,-1022,-562,-325,256,150,-438
0,4951865,199,-1874,-382,-1022,-562,-325,256,150,-438
0,4951871,201,-1873,-379,-1026,-563,-327,256,150,-438
0,4951878,201,-1873,-379,-1026,-563,-327,256,150,-438
0,4951886,201,-1873,-379,-1026,-563,-327,256,150,-438
0,4951895,198,-1874,-381,-1027,-565,-328,256,150,-438
0,4951901,198,-1874,-381,-1027,-565,-328,256,150,-438
0,4951909,198,-1874,-381,-1027,-565,-328,256,150,-438
0,4951916,197,-1876,-384,-1030,-567,-324,256,150,-438
0,4951922,197,-1876,-384,-1030,-567,-324,256,150,-438
0,4951927,197,-1876,-384,-1030,-567,-324,256,150,-438
0,4951932,199,-1875,-381,-1024,-563,-334,256,150,-438
0,4951938,199,-1875,-381,-1024,-563,-334,256,150,-438
0,4951946,199,-1875,-381,-1024,-563,-334,256,150,-438
0,4951953,198,-1877,-380,-1019,-560,-331,263,143,-443
0,4951959,198,-1877,-380,-1019,-560,-331,263,143,-443
0,4951965,198,-1877,-380,-1019,-560,-331,263,143,-443
0,4951971,202,-1872,-383,-1026,-568,-326,263,143,-443
0,4951977,202,-1872,-383,-1026,-568,-326,263,143,-443
0,4951984,202,-1872,-383,-1026,-568,-326,263,143,-443
0,4951990,202,-1872,-383,-1026,-568,-326,263,143,-443
0,4951998,202,-1875,-384,-1031,-566,-331,263,143,-443
0,4952004,202,-1875,-384,-1031,-566,-331,263,143,-443
0,4952012,203,-1872,-386,-1028,-571,-329,263,143,-443
0,4952020,203,-1872,-386,-1028,-571,-329,263,143,-443
0,4952028,203,-1872,-386,-1028,-571,-329,263,143,-443
0,4952034,203,-1872,-384,-1016,-570,-331,263,143,-443
0,4952041,203,-1872,-384,-1016,-570,-331,263,143,-443
0,4952048,203,-1872,-384,-1016,-570,-331,263,143,-443
0,4952054,200,-1874,-386,-1021,-563,-333,263,143,-443
0,4952061,200,-1874,-386,-1021,-563,-333,263,143,-443
0,4952070,200,-1874,-386,-1021,-563,-333,263,143,-443
0,4952077,201,-1875,-383,-1025,-560,-328,261,139,-439
0,4952084,201,-1875,-383,-1025,-560,-328,261,139,-439
0,4952091,203,-1877,-385,-1022,-562,-329,261,139,-439
0,4952098,203,-1877,-385,-1022,-562,-329,261,139,-439
0,4952107,203,-1877,-385,-1022,-562,-329,261,139,-439
0,4952114,199,-1873,-382,-1015,-554,-323,261,139,-439
0,4952120,199,-1873,-382,-1015,-554,-323,261,139,-439
0,4952125,199,-1873,-382,-1015,-554,-323,261,139,-439
0,4952132,199,-1875,-385,-1019,-560,-325,261,139,-439
0,4952139,199,-1875,-385,-1019,-560,-325,261,139,-439
0,4952146,199,-1875,-385,-1019,-560,-325,261,139,-439
0,4952154,202,-1872,-386,-1029,-572,-328,261,139,-439
0,4952161,202,-1872,-386,-1029,-572,-328,261,139,-439
0,4952169,202,-1872,-386,-1029,-572,-328,261,139,-439
0,4952176,201,-1874,-381,-1030,-566,-322,261,139,-439
0,4952182,201,-1874,-381,-1030,-566,-322,261,139,-439
0,4952188,201,-1874,-381,-1030,-566,-322,261,139,-439
0,4952196,201,-1875,-383,-1028,-566,-328,261,139,-439
0,4952203,201,-1875,-383,-1028,-566,-328,261,139,-439
0,4952209,201,-1875,-383,-1028,-566,-328,261,139,-439
0,4952217,200,-1874,-383,-1025,-571,-335,256,140,-450
0,4952223,200,-1874,-383,-1025,-571,-335,256,140,-450
0,4952231,199,-1872,-386,-1028,-566,-328,256,140,-450
0,4952238,199,-1872,-386,-1028,-566,-328,256,140,-450
0,4952245,199,-1872,-386,-1028,-566,-328,256,140,-450
0,4952251,201,-1872,-388,-1025,-564,-322,256,140,-450
0,4952259,201,-1872,-388,-1025,-564,-322,256,140,-450
0,4952265,201,-1872,-388,-1025,-564,-322,256,140,-450
0,4952273,200,-1874,-377,-1030,-561,-319,256,140,-450
0,4952279,200,-1874,-377,-1030,-561,-319,256,140,-450
0,4952286,200,-1874,-377,-1030,-561,-319,256,140,-450
0,4952294,202,-1874,-382,-1028,-558,-330,256,140,-450
0,4952300,202,-1874,-382,-1028,-558,-330,256,140,-450
0,4952308,202,-1874,-382,-1028,-558,-330,256,140,-450
0,4952315,201,-1875,-382,-1016,-563,-322,256,140,-450
0,4952323,201,-1875,-382,-1016,-563,-322,256,140,-450
0,4952331,199,-1873,-375,-1030,-560,-319,250,150,-442
0,4952337,199,-1873,-375,-1030,-560,-319,250,150,-442
0,4952344,199,-1873,-375,-1030,-560,-319,250,150,-442
0,4952350,202,-1874,-381,-1039,-568,-324,250,150,-442
0,4952357,202,-1874,-381,-1039,-568,-324,250,150,-442
0,4952366,202,-1874,-381,-1039,-568,-324,250,150,-442
0,4952374,200,-1875,-384,-1035,-567,-335,250,150,-442
0,4952382,200,-1875,-384,-1035,-567,-335,250,150,-442
0,4952390,198,-1874,-380,-1027,-561,-332,250,150,-442
0,4952396,198,-1874,-380,-1027,-561,-332,250,150,-442
0,4952404,198,-1874,-380,-1027,-561,-332,250,150,-442
0,4952412,200,-1875,-383,-1019,-562,-325,250,150,-442
0,4952419,200,-1875,-383,-1019,-562,-325,250,150,-442
0,4952426,200,-1875,-383,-1019,-562,-325,250,150,-442
0,4952431,199,-1876,-387,-1018,-568,-322,250,150,-442
0,4952436,199,-1876,-387,-1018,-568,-322,250,150,-442
0,4952440,199,-1876,-387,-1018,-568,-322,250,150,-442
0,4952450,199,-1876,-387,-1018,-568,-322,250,150,-442
0,4952456,201,-1872,-382,-1024,-568,-327,265,141,-433
0,4952463,201,-1872,-382,-1024,-568,-327,265,141,-433
0,4952470,201,-1872,-382,-1024,-568,-327,265,141,-433
0,4952477,200,-1873,-382,-1031,-560,-322,265,141,-433
0,4952482,200,-1873,-382,-1031,-560,-322,265,141,-433
0,4952487,200,-1873,-382,-1031,-560,-322,265,141,-433
0,4952493,202,-1875,-387,-1031,-566,-319,265,141,-433
0,4952498,202,-1875,-387,-1031,-566,-319,265,141,-433
0,4952503,202,-1875,-387,-1031,-566,-319,265,141,-433
0,4952508,202,-1875,-387,-1031,-566,-319,265,141,-433
0,4952516,198,-1875,-377,-1031,-565,-326,265,141,-433
0,4952522,198,-1875,-377,-1031,-565,-326,265,141,-433
0,4952528,198,-1875,-377,-1031,-565,-326,265,141,-433
0,4952536,199,-1879,-381,-1013,-561,-329,265,141,-433
0,4952542,199,-1879,-381,-1013,-561,-329,265,141,-433
0,4952550,199,-1879,-381,-1013,-561,-329,265,141,-433
0,4952557,200,-1872,-381,-1032,-569,-326,265,141,-433
0,4952564,200,-1872,-381,-1032,-569,-326,265,141,-433
0,4952571,197,-1878,-382,-1030,-563,-324,265,141,-433
0,4952577,197,-1878,-382,-1030,-563,-324,265,141,-433
0,4952585,197,-1878,-382,-1030,-563,-324,265,141,-433
0,4952592,199,-1873,-375,-1030,-562,-321,257,141,-433
0,4952600,199,-1873,-375,-1030,-562,-321,257,141,-433
0,4952608,199,-1873,-375,-1030,-562,-321,257,141,-433
0,4952615,200,-1876,-384,-1023,-572,-327,257,141,-433
0,4952623,200,-1876,-384,-1023,-572,-327,257,141,-433
0,4952629,200,-1876,-384,-1023,-572,-327,257,141,-433
0,4952637,201,-1875,-379,-1024,-572,-326,257,141,-433
0,4952642,201,-1875,-379,-1024,-572,-326,257,141,-433
0,4952650,201,-1875,-379,-1024,-572,-326,257,141,-433
0,4952657,201,-1875,-379,-1024,-572,-326,257,141,-433
0,4952664,201,-1875,-379,-1024,-572,-326,257,141,-433
0,4952672,200,-1874,-385,-1018,-557,-322,257,141,-433
0,4952680,200,-1874,-385,-1018,-557,-322,257,141,-433
0,4952685,200,-1874,-385,-1018,-557,-322,257,141,-433
0,4952690,200,-1874,-385,-1018,-557,-322,257,141,-433
0,4952695,200,-1875,-383,-1024,-562,-333,257,141,-433
0,4952700,200,-1875,-383,-1024,-562,-333,257,141,-433
0,4952706,200,-1875,-383,-1024,-562,-333,257,141,-433
0,4952711,201,-1871,-383,-1024,-566,-327,261,145,-443
0,4952717,201,-1871,-383,-1024,-566,-327,261,145,-443
0,4952722,201,-1871,-383,-1024,-566,-327,261,145,-443
0,4952727,201,-1871,-383,-1024,-566,-327,261,145,-443
0,4952734,201,-1876,-382,-1028,-561,-319,261,145,-443
0,4952741,201,-1876,-382,-1028,-561,-319,261,145,-443
0,4952749,201,-1876,-382,-1028,-561,-319,261,145,-443
0,4952756,202,-1872,-383,-1020,-565,-327,261,145,-443
0,4952762,202,-1872,-383,-1020,-565,-327,261,145,-443
0,4952769,202,-1872,-383,-1020,-565,-327,261,145,-443
0,4952776,199,-1871,-378,-1021,-568,-333,261,145,-443
0,4952782,199,-1871,-378,-1021,-568,-333,261,145,-443
0,4952790,199,-1871,-378,-1021,-568,-333,261,145,-443
0,4952797,198,-1874,-385,-1031,-563,-325,261,145,-443
0,4952805,198,-1874,-385,-1031,-563,-325,261,145,-443
0,4952810,198,-1874,-385,-1031,-563,-325,261,145,-443
0,4952818,201,-1871,-380,-1028,-563,-329,261,145,-443
0,4952826,201,-1871,-380,-1028,-563,-329,261,145,-443
0,4952834,201,-1875,-383,-1019,-567,-334,261,145,-443
0,4952840,201,-1875,-383,-1019,-567,-334,261,145,-443
0,4952846,201,-1875,-383,-1019,-567,-334,261,145,-443
0,4952854,203,-1871,-380,-1029,-566,-328,256,144,-448
0,4952860,203,-1871,-380,-1029,-566,-328,256,144,-448
0,4952868,203,-1871,-380,-1029,-566,-328,256,144,-448
0,4952876,201,-1872,-380,-1018,-559,-326,256,144,-448
0,4952882,201,-1872,-380,-1018,-559,-326,256,144,-448
0,4952888,201,-1872,-380,-1018,-559,-326,256,144,-448
0,4952894,199,-1873,-387,-1021,-562,-331,256,144,-448
0,4952899,199,-1873,-387,-1021,-562,-331,256,144,-448
0,4952906,199,-1873,-387,-1021,-562,-331,256,144,-448
0,4952911,198,-1877,-384,-1021,-561,-329,256,144,-448
0,4952919,198,-1877,-384,-1021,-561,-329,256,144,-448
0,4952927,198,-1877,-384,-1021,-561,-329,256,144,-448
0,4952934,201,-1875,-390,-1032,-567,-337,256,144,-448
0,4952942,201,-1875,-390,-1032,-567,-337,256,144,-448
0,4952949,201,-1875,-390,-1032,-567,-337,256,144,-448
0,4952954,202,-1876,-384,-1025,-563,-328,256,144,-448
0,4952961,202,-1876,-384,-1025,-563,-328,256,144,-448
0,4952967,202,-1876,-384,-1025,-563,-328,256,144,-448
0,4952973,200,-1875,-383,-1023,-561,-319,262,142,-452
0,4952978,200,-1875,-383,-1023,-561,-319,262,142,-452
0,4952985,200,-1875,-383,-1023,-561,-319,262,142,-452
0,4952993,200,-1875,-383,-1023,-561,-319,262,142,-452
0,4953000,200,-1875,-383,-1023,-561,-319,262,142,-452
0,4953007,200,-1875,-383,-1023,-561,-319,262,142,-452
0,4953015,199,-1874,-384,-1026,-569,-324,262,142,-452
0,4953022,199,-1874,-384,-1026,-569,-324,262,142,-452
0,4953028,199,-1874,-384,-1026,-569,-324,262,142,-452
0,4953035,201,-1874,-382,-1031,-571,-325,262,142,-452
0,4953042,201,-1874,-382,-1031,-571,-325,262,142,-452
0,4953049,201,-1874,-382,-1031,-571,-325,262,142,-452
0,4953055,202,-1872,-382,-1017,-570,-327,262,142,-452
0,4953062,202,-1872,-382,-1017,-570,-327,262,142,-452
0,4953070,202,-1872,-382,-1017,-570,-327,262,142,-452
0,4953077,197,-1876,-381,-1026,-565,-332,262,142,-452
0,4953086,197,-1876,-381,-1026,-565,-332,262,142,-452
0,4953095,201,-1871,-385,-1026,-559,-326,262,142,-452
0,4953101,201,-1871,-385,-1026,-559,-326,262,142,-452
0,4953109,201,-1871,-385,-1026,-559,-326,262,142,-452
0,4953115,202,-1872,-382,-1020,-564,-324,259,147,-445
0,4953123,202,-1872,-382,-1020,-564,-324,259,147,-445
0,4953128,202,-1872,-382,-1020,-564,-324,259,147,-445
0,4953137,201,-1875,-381,-1019,-566,-320,259,147,-445
0,4953144,201,-1875,-381,-1019,-566,-320,259,147,-445
0,4953150,201,-1875,-381,-1019,-566,-320,259,147,-445
0,4953157,199,-1871,-380,-1026,-558,-323,259,147,-445
0,4953164,199,-1871,-380,-1026,-558,-323,259,147,-445
0,4953171,202,-1872,-382,-1015,-561,-326,259,147,-445
0,4953180,202,-1872,-382,-1015,-561,-326,259,147,-445
0,4953186,202,-1872,-382,-1015,-561,-326,259,147,-445
0,4953193,199,-1873,-386,-1014,-568,-335,259,147,-445
0,4953198,199,-1873,-386,-1014,-568,-335,259,147,-445
0,4953206,199,-1873,-386,-1014,-568,-335,259,147,-445
0,4953212,199,-1874,-380,-1019,-563,-324,259,147,-445
0,4953220,199,-1874,-380,-1019,-563,-324,259,147,-445
0,4953227,199,-1874,-380,-1019,-563,-324,259,147,-445
0,4953234,200,-1871,-377,-1024,-559,-322,263,141,-451
0,4953240,200,-1871,-377,-1024,-559,-322,263,141,-451
0,4953246,200,-1871,-377,-1024,-559,-322,263,141,-451
0,4953254,198,-1874,-376,-1030,-562,-327,263,141,-451
0,4953262,198,-1874,-376,-1030,-562,-327,263,141,-451
0,4953269,198,-1874,-376,-1030,-562,-327,263,141,-451
0,4953276,200,-1874,-383,-1032,-568,-324,263,141,-451
0,4953283,200,-1874,-383,-1032,-568,-324,263,141,-451
0,4953290,200,-1874,-383,-1032,-568,-324,263,141,-451
0,4953296,199,-1875,-386,-1032,-561,-321,263,141,-451
0,4953304,199,-1875,-386,-1032,-561,-321,263,141,-451
0,4953312,198,-1874,-381,-1019,-555,-327,263,141,-451
0,4953319,198,-1874,-381,-1019,-555,-327,263,141,-451
0,4953325,198,-1874,-381,-1019,-555,-327,263,141,-451
0,4953332,201,-1876,-384,-1031,-565,-323,263,141,-451
0,4953338,201,-1876,-384,-1031,-565,-323,263,141,-451
0,4953344,201,-1876,-384,-1031,-565,-323,263,141,-451
0,4953350,201,-1876,-384,-1031,-565,-323,263,141,-451
0,4953357,200,-1874,-380,-1034,-566,-322,253,143,-447
0,4953364,200,-1874,-380,-1034,-566,-322,253,143,-447
0,4953371,202,-1875,-380,-1028,-565,-329,253,143,-447
0,4953378,202,-1875,-380,-1028,-565,-329,253,143,-447
0,4953384,202,-1875,-380,-1028,-565,-329,253,143,-447
0,4953392,200,-1874,-385,-1022,-562,-326,253,143,-447
0,4953397,200,-1874,-385,-1022,-562,-326,253,143,-447
0,4953405,200,-1874,-385,-1022,-562,-326,253,143,-447
0,4953412,199,-1872,-383,-1025,-567,-327,253,143,-447
0,4953419,199,-1872,-383,-1025,-567,-327,253,143,-447
0,4953427,199,-1872,-383,-1025,-567,-327,253,143,-447
0,4953433,198,-1873,-381,-1025,-571,-323,253,143,-447
0,4953440,198,-1873,-381,-1025,-571,-323,253,143,-447
0,4953447,198,-1873,-381,-1025,-571,-323,253,143,-447
0,4953455,201,-1875,-384,-1017,-566,-329,253,143,-447
0,4953461,201,-1875,-384,-1017,-566,-329,253,143,-447
0,4953467,201,-1875,-384,-1017,-566,-329,253,143,-447
0,4953475,200,-1874,-382,-1018,-563,-326,253,143,-447
0,4953481,200,-1874,-382,-1018,-563,-326,253,143,-447
0,4953486,200,-1874,-382,-1018,-563,-326,253,143,-447
0,4953491,200,-1874,-382,-1018,-563,-326,253,143,-447
0,4953496,200,-1876,-383,-1023,-565,-320,258,144,-446
0,4953501,200,-1876,-383,-1023,-565,-320,258,144,-446
0,4953506,200,-1876,-383,-1023,-565,-320,258,144,-446
0,4953512,201,-1873,-378,-1026,-567,-330,258,144,-446
0,4953522,201,-1873,-378,-1026,-567,-330,258,144,-446
0,4953529,201,-1873,-378,-1026,-567,-330,258,144,-446
0,4953536,199,-1873,-380,-1025,-568,-326,258,144,-446
0,4953542,199,-1873,-380,-1025,-568,-326,258,144,-446
0,4953547,199,-1873,-380,-1025,-568,-326,258,144,-446
0,4953555,198,-1873,-381,-1020,-563,-323,258,144,-446
0,4953563,198,-1873,-381,-1020,-563,-323,258,144,-446
0,4953571,198,-1873,-381,-1020,-563,-323,258,144,-446
0,4953577,201,-1874,-381,-1030,-565,-327,258,144,-446
0,4953584,201,-1874,-381,-1030,-565,-327,258,144,-446
0,4953593,198,-1872,-383,-1019,-562,-329,258,144,-446
0,4953601,198,-1872,-383,-1019,-562,-329,258,144,-446
0,4953608,198,-1872,-383,-1019,-562,-329,258,144,-446
0,4953614,201,-1872,-378,-1018,-569,-331,266,140,-448
0,4953622,201,-1872,-378,-1018,-569,-331,266,140,-448
0,4953630,201,-1872,-378,-1018,-569,-331,266,140,-448
0,4953638,198,-1874,-383,-1020,-569,-330,266,140,-448
0,4953646,198,-1874,-383,-1020,-569,-330,266,140,-448
0,4953653,200,-1873,-385,-1025,-570,-326,266,140,-448
0,4953659,200,-1873,-385,-1025,-570,-326,266,140,-448
0,4953667,200,-1873,-385,-1025,-570,-326,266,140,-448
0,4953673,201,-1870,-386,-1024,-563,-325,266,140,-448
0,4953679,201,-1870,-386,-1024,-563,-325,266,140,-448
0,4953686,201,-1870,-386,-1024,-563,-325,266,140,-448
0,4953691,201,-1870,-386,-1024,-563,-325,266,140,-448
0,4953697,202,-1870,-385,-1028,-570,-328,266,140,-448
0,4953702,202,-1870,-385,-1028,-570,-328,266,140,-448
0,4953707,202,-1870,-385,-1028,-570,-328,266,140,-448
0,4953712,202,-1874,-382,-1029,-570,-323,266,140,-448
0,4953717,202,-1874,-382,-1029,-570,-323,266,140,-448
0,4953722,202,-1874,-382,-1029,-570,-323,266,140,-448
0,4953728,202,-1874,-382,-1029,-570,-323,266,140,-448
0,4953733,200,-1871,-382,-1027,-569,-324,266,140,-448
0,4953741,200,-1871,-382,-1027,-569,-324,266,140,-448
0,4953748,200,-1871,-382,-1027,-569,-324,266,140,-448
0,4953755,200,-1873,-380,-1029,-566,-331,266,138,-438
0,4953762,200,-1873,-380,-1029,-566,-331,266,138,-438
0,4953771,200,-1873,-380,-1029,-566,-331,266,138,-438
0,4953777,200,-1873,-381,-1026,-568,-328,266,138,-438
0,4953784,200,-1873,-381,-1026,-568,-328,266,138,-438
0,4953791,200,-1873,-381,-1026,-568,-328,266,138,-438
0,4953799,201,-1872,-383,-1032,-560,-325,266,138,-438
0,4953806,201,-1872,-383,-1032,-560,-325,266,138,-438
0,4953812,202,-1874,-383,-1021,-569,-327,266,138,-438
0,4953818,202,-1874,-383,-1021,-569,-327,266,138,-438
0,4953825,202,-1874,-383,-1021,-569,-327,266,138,-438
0,4953830,202,-1874,-383,-1021,-569,-327,266,138,-438
0,4953837,201,-1873,-387,-1024,-563,-327,266,138,-438
0,4953842,201,-1873,-387,-1024,-563,-327,266,138,-438
0,4953847,201,-1873,-387,-1024,-563,-327,266,138,-438
0,4953853,200,-1871,-386,-1029,-565,-335,266,138,-438
0,4953861,200,-1871,-386,-1029,-565,-335,266,138,-438
0,4953868,200,-1871,-386,-1029,-565,-335,266,138,-438
0,4953875,200,-1869,-380,-1033,-561,-328,251,143,-443
0,4953881,200,-1869,-380,-1033,-561,-328,251,143,-443
0,4953889,200,-1869,-380,-1033,-561,-328,251,143,-443
0,4953895,203,-1876,-382,-1025,-562,-324,251,143,-443
0,4953903,203,-1876,-382,-1025,-562,-324,251,143,-443
0,4953910,203,-1876,-382,-1025,-562,-324,251,143,-443
0,4953918,202,-1875,-375,-1030,-572,-318,251,143,-443
0,4953924,202,-1875,-375,-1030,-572,-318,251,143,-443
0,4953929,202,-1875,-375,-1030,-572,-318,251,143,-443
0,4953936,203,-1875,-382,-1037,-574,-323,251,143,-443
0,4953943,203,-1875,-382,-1037,-574,-323,251,143,-443
0,4953950,203,-1875,-382,-1037,-574,-323,251,143,-443
0,4953958,201,-1873,-381,-1021,-566,-322,251,143,-443
0,4953965,201,-1873,-381,-1021,-566,-322,251,143,-443
0,4953972,199,-1873,-380,-1025,-564,-321,251,143,-443
0,4953978,199,-1873,-380,-1025,-564,-321,251,143,-443
0,4953986,199,-1873,-380,-1025,-564,-321,251,143,-443
0,4953993,203,-1871,-384,-1026,-570,-319,251,143,-443
0,4953999,203,-1871,-384,-1026,-570,-319,251,143,-443
0,4954007,203,-1871,-384,-1026,-570,-319,251,143,-443
0,4954013,198,-1874,-379,-1021,-563,-326,248,146,-444
0,4954018,198,-1874,-379,-1021,-563,-326,248,146,-444
0,4954025,198,-1874,-379,-1021,-563,-326,248,146,-444
0,4954032,198,-1874,-379,-1021,-563,-326,248,146,-444
0,4954038,200,-1874,-384,-1028,-566,-326,248,146,-444
0,4954045,200,-1874,-384,-1028,-566,-326,248,146,-444
0,4954050,200,-1874,-384,-1028,-566,-326,248,146,-444
0,4954058,200,-1874,-384,-1024,-561,-324,248,146,-444
0,4954065,200,-1874,-384,-1024,-561,-324,248,146,-444
0,4954073,201,-1874,-387,-1025,-567,-327,248,146,-444
0,4954079,201,-1874,-387,-1025,-567,-327,248,146,-444
0,4954086,201,-1874,-387,-1025,-567,-327,248,146,-444
0,4954093,200,-1875,-386,-1030,-566,-321,248,146,-444
0,4954101,200,-1875,-386,-1030,-566,-321,248,146,-444
0,4954108,200,-1875,-386,-1030,-566,-321,248,146,-444
0,4954115,200,-1874,-386,-1024,-571,-320,248,146,-444
0,4954120,200,-1874,-386,-1024,-571,-320,248,146,-444
0,4954128,200,-1874,-386,-1024,-571,-320,248,146,-444
0,4954134,201,-1874,-376,-1037,-567,-328,255,139,-441
0,4954142,201,-1874,-376,-1037,-567,-328,255,139,-441
0,4954149,201,-1874,-376,-1037,-567,-328,255,139,-441
0,4954157,201,-1872,-379,-1031,-571,-324,255,139,-441
0,4954164,201,-1872,-379,-1031,-571,-324,255,139,-441
0,4954171,201,-1872,-379,-1031,-571,-324,255,139,-441
0,4954178,202,-1872,-385,-1030,-577,-324,255,139,-441
0,4954186,202,-1872,-385,-1030,-577,-324,255,139,-441
0,4954193,202,-1875,-388,-1030,-570,-326,255,139,-441
0,4954199,202,-1875,-388,-1030,-570,-326,255,139,-441
0,4954205,202,-1875,-388,-1030,-570,-326,255,139,-441
0,4954212,202,-1875,-388,-1030,-570,-326,255,139,-441
0,4954218,200,-1876,-385,-1021,-566,-331,255,139,-441
0,4954226,200,-1876,-385,-1021,-566,-331,255,139,-441
0,4954233,198,-1876,-379,-1024,-570,-325,255,139,-441
0,4954241,198,-1876,-379,-1024,-570,-325,255,139,-441
0,4954249,198,-1876,-379,-1024,-570,-325,255,139,-441
0,4954256,199,-1872,-384,-1027,-571,-326,258,144,-444
0,4954262,199,-1872,-384,-1027,-571,-326,258,144,-444
0,4954267,199,-1872,-384,-1027,-571,-326,258,144,-444
0,4954275,202,-1872,-380,-1027,-564,-324,258,144,-444
0,4954283,202,-1872,-380,-1027,-564,-324,258,144,-444
0,4954291,202,-1872,-380,-1027,-564,-324,258,144,-444
0,4954297,198,-1874,-380,-1026,-564,-322,258,144,-444
0,4954303,198,-1874,-380,-1026,-564,-322,258,144,-444
0,4954311,198,-1874,-380,-1026,-564,-322,258,144,-444
0,4954317,201,-1874,-388,-1027,-568,-328,258,144,-444
0,4954324,201,-1874,-388,-1027,-568,-328,258,144,-444
0,4954333,202,-1873,-384,-1027,-570,-324,258,144,-444
0,4954338,202,-1873,-384,-1027,-570,-324,258,144,-444
0,4954347,202,-1873,-384,-1027,-570,-324,258,144,-444
0,4954354,198,-1874,-382,-1026,-565,-327,258,144,-444
0,4954361,198,-1874,-382,-1026,-565,-327,258,144,-444
0,4954369,198,-1874,-382,-1026,-565,-327,258,144,-444
0,4954375,201,-1873,-389,-1026,-565,-321,258,144,-444
0,4954381,201,-1873,-389,-1026,-565,-321,258,144,-444
0,4954387,201,-1873,-389,-1026,-565,-321,258,144,-444
0,4954394,198,-1873,-380,-1025,-566,-322,256,140,-444
0,4954401,198,-1873,-380,-1025,-566,-322,256,140,-444
0,4954408,198,-1873,-380,-1025,-566,-322,256,140,-444
0,4954415,200,-1874,-385,-1015,-565,-326,256,140,-444
0,4954422,200,-1874,-385,-1015,-565,-326,256,140,-444
0,4954429,200,-1874,-385,-1015,-565,-326,256,140,-444
0,4954435,200,-1873,-384,-1016,-560,-328,256,140,-444
0,4954443,200,-1873,-384,-1016,-560,-328,256,140,-444
0,4954450,200,-1873,-384,-1016,-560,-328,256,140,-444
0,4954457,199,-1875,-388,-1024,-566,-323,256,140,-444
0,4954463,199,-1875,-388,-1024,-566,-323,256,140,-444
0,4954469,199,-1875,-388,-1024,-566,-323,256,140,-444
0,4954477,201,-1876,-384,-1025,-569,-315,256,140,-444
0,4954482,201,-1876,-384,-1025,-569,-315,256,140,-444
0,4954487,201,-1876,-384,-1025,-569,-315,256,140,-444
0,4954492,201,-1876,-384,-1025,-569,-315,256,140,-444
0,4954498,198,-1874,-382,-1020,-567,-329,256,140,-444
0,4954503,198,-1874,-382,-1020,-567,-329,256,140,-444
0,4954507,198,-1874,-382,-1020,-567,-329,256,140,-444
0,4954513,200,-1873,-383,-1027,-566,-326,256,140,-444
0,4954520,200,-1873,-383,-1027,-566,-326,257,143,-453
0,4954528,200,-1873,-383,-1027,-566,-326,257,143,-453
0,4954535,200,-1876,-380,-1030,-560,-319,257,143,-453
0,4954544,200,-1876,-380,-1030,-560,-319,257,143,-453
0,4954551,200,-1876,-380,-1030,-560,-319,257,143,-453
0,4954557,201,-1872,-385,-1028,-560,-321,257,143,-453
0,4954564,201,-1872,-385,-1028,-560,-321,257,143,-453
0,4954571,201,-1872,-385,-1028,-560,-321,257,143,-453
0,4954578,199,-1875,-386,-1026,-570,-323,257,143,-453
0,4954585,199,-1875,-386,-1026,-570,-323,257,143,-453
0,4954593,199,-1875,-386,-1026,-570,-323,257,143,-453
0,4954599,199,-1876,-388,-1019,-568,-328,257,143,-453
0,4954606,199,-1876,-388,-1019,-568,-328,257,143,-453
0,4954613,203,-1870,-386,-1031,-567,-323,257,143,-453
0,4954621,203,-1870,-386,-1031,-567,-323,257,143,-453
0,4954629,203,-1870,-386,-1031,-567,-323,257,143,-453
0,4954636,199,-1873,-376,-1023,-563,-315,257,143,-453
0,4954643,199,-1873,-376,-1023,-563,-315,257,143,-453
0,4954650,199,-1873,-376,-1023,-563,-315,257,143,-453
0,4954656,201,-1875,-380,-1026,-567,-316,259,145,-441
0,4954664,201,-1875,-380,-1026,-567,-316,259,145,-441
0,4954671,201,-1875,-380,-1026,-567,-316,259,145,-441
0,4954678,199,-1872,-380,-1031,-566,-317,259,145,-441
0,4954685,199,-1872,-380,-1031,-566,-317,259,145,-441
0,4954690,199,-1872,-380,-1031,-566,-317,259,145,-441
0,4954695,200,-1874,-382,-1023,-569,-325,259,145,-441
0,4954701,200,-1874,-382,-1023,-569,-325,259,145,-441
0,4954706,200,-1874,-382,-1023,-569,-325,259,145,-441
0,4954712,200,-1874,-382,-1023,-569,-325,259,145,-441
0,4954718,198,-1872,-383,-1023,-564,-328,259,145,-441
0,4954722,198,-1872,-383,-1023,-564,-328,259,145,-441
0,4954727,198,-1872,-383,-1023,-564,-328,259,145,-441
0,4954732,198,-1872,-383,-1023,-564,-328,259,145,-441
0,4954738,203,-1876,-381,-1023,-563,-334,259,145,-441
0,4954743,203,-1876,-381,-1023,-563,-334,259,145,-441
0,4954749,203,-1876,-381,-1023,-563,-334,259,145,-441
0,4954755,199,-1874,-383,-1029,-562,-331,259,145,-441
0,4954761,199,-1874,-383,-1029,-562,-331,259,145,-441
0,4954766,199,-1874,-383,-1029,-562,-331,259,145,-441
0,4954772,199,-1874,-383,-1029,-562,-331,259,145,-441
0,4954778,201,-1874,-379,-1026,-556,-320,257,149,-449
0,4954783,201,-1874,-379,-1026,-556,-320,257,149,-449
0,4954789,201,-1874,-379,-1026,-556,-320,257,149,-449
0,4954795,202,-1873,-385,-1029,-563,-317,257,149,-449
0,4954800,202,-1873,-385,-1029,-563,-317,257,149,-449
0,4954806,202,-1873,-385,-1029,-563,-317,257,149,-449
0,4954811,202,-1873,-385,-1029,-563,-317,257,149,-449
0,4954816,199,-1873,-387,-1032,-571,-322,257,149,-449
0,4954821,199,-1873,-387,-1032,-571,-322,257,149,-449
0,4954827,199,-1873,-387,-1032,-571,-322,257,149,-449
0,4954833,198,-1875,-385,-1026,-568,-329,257,149,-449
0,4954839,198,-1875,-385,-1026,-568,-329,257,149,-449
0,4954845,198,-1875,-385,-1026,-568,-329,257,149,-449
0,4954850,198,-1875,-385,-1026,-568,-329,257,149,-449
0,4954856,200,-1875,-388,-1019,-566,-323,257,149,-449
0,4954861,200,-1875,-388,-1019,-566,-323,257,149,-449
0,4954867,200,-1875,-388,-1019,-566,-323,257,149,-449
0,4954872,200,-1875,-388,-1019,-566,-323,257,149,-449
0,4954878,197,-1872,-386,-1026,-566,-323,257,149,-449
0,4954885,197,-1872,-386,-1026,-566,-323,257,149,-449
0,4954890,197,-1872,-386,-1026,-566,-323,257,149,-449
0,4954896,200,-1872,-381,-1028,-570,-321,257,149,-449
0,4954901,200,-1872,-381,-1028,-570,-321,257,149,-449
0,4954907,200,-1872,-381,-1028,-570,-321,257,149,-449
0,4954913,200,-1872,-381,-1028,-570,-321,257,149,-449
0,4954918,202,-1873,-375,-1029,-569,-323,257,149,-449
0,4954925,202,-1873,-375,-1029,-569,-323,257,149,-449
0,4954931,202,-1873,-375,-1029,-569,-323,257,149,-449
0,4954936,200,-1875,-383,-1023,-563,-320,257,149,-449
0,4954941,200,-1875,-383,-1023,-563,-320,257,149,-449
0,4954947,200,-1875,-383,-1023,-563,-320,257,149,-449
0,4954953,201,-1875,-384,-1024,-561,-314,257,149,-449
0,4954959,201,-1875,-384,-1024,-561,-314,257,149,-449
0,4954964,201,-1875,-384,-1024,-561,-314,257,149,-449
0,4954970,201,-1875,-384,-1024,-561,-314,257,149,-449
0,4954975,202,-1872,-382,-1026,-567,-329,257,149,-449
0,4954981,202,-1872,-382,-1026,-567,-329,257,149,-449
0,4954987,202,-1872,-382,-1026,-567,-329,257,149,-449
0,4954992,202,-1872,-382,-1026,-567,-329,257,149,-449
0,4954997,201,-1872,-384,-1030,-570,-322,257,149,-449
0,4955003,201,-1872,-384,-1030,-570,-322,257,149,-449
0,4955009,201,-1872,-384,-1030,-570,-322,257,149,-449
0,4955015,203,-1874,-383,-1030,-566,-321,257,149,-449
0,4955020,203,-1874,-383,-1030,-566,-321,257,149,-449
0,4955026,203,-1874,-383,-1030,-566,-321,257,149,-449
0,4955032,203,-1874,-383,-1030,-566,-321,257,149,-449
0,4955037,200,-1871,-378,-1021,-570,-323,260,138,-440
0,4955044,200,-1871,-378,-1021,-570,-323,260,138,-440
0,4955051,200,-1871,-378,-1021,-570,-323,260,138,-440
0,4955058,197,-1872,-382,-1024,-571,-325,260,138,-440
0,4955065,197,-1872,-382,-1024,-571,-325,260,138,-440
0,4955073,197,-1872,-382,-1024,-571,-325,260,138,-440
0,4955079,199,-1873,-382,-1024,-566,-317,260,138,-440
0,4955086,199,-1873,-382,-1024,-566,-317,260,138,-440
0,4955094,199,-1873,-382,-1024,-566,-317,260,138,-440
0,4955101,200,-1872,-379,-1024,-573,-323,260,138,-440
0,4955108,200,-1872,-379,-1024,-573,-323,260,138,-440
0,4955115,198,-1871,-384,-1023,-570,-318,260,138,-440
0,4955121,198,-1871,-384,-1023,-570,-318,260,138,-440
0,4955129,198,-1871,-384,-1023,-570,-318,260,138,-440
0,4955137,202,-1875,-388,-1022,-560,-322,260,138,-440
0,4955143,202,-1875,-388,-1022,-560,-322,260,138,-440
0,4955150,202,-1875,-388,-1022,-560,-322,260,138,-440
0,4955155,199,-1873,-384,-1030,-564,-322,262,140,-450
0,4955161,199,-1873,-384,-1030,-564,-322,262,140,-450
0,4955166,199,-1873,-384,-1030,-564,-322,262,140,-450
0,4955172,199,-1873,-384,-1030,-564,-322,262,140,-450
0,4955181,199,-1873,-382,-1031,-566,-318,262,140,-450
0,4955188,199,-1873,-382,-1031,-566,-318,262,140,-450
0,4955195,200,-1877,-379,-1033,-567,-319,262,140,-450
0,4955201,200,-1877,-379,-1033,-567,-319,262,140,-450
0,4955208,200,-1877,-379,-1033,-567,-319,262,140,-450
0,4955215,199,-1876,-387,-1022,-563,-320,262,140,-450
0,4955222,199,-1876,-387,-1022,-563,-320,262,140,-450
0,4955229,199,-1876,-387,-1022,-563,-320,262,140,-450
0,4955236,202,-1874,-385,-1019,-566,-327,262,140,-450
0,4955241,202,-1874,-385,-1019,-566,-327,262,140,-450
0,4955249,202,-1874,-385,-1019,-566,-327,262,140,-450
0,4955255,202,-1877,-387,-1021,-571,-326,262,140,-450
0,4955264,202,-1877,-387,-1021,-571,-326,262,140,-450
0,4955270,202,-1877,-387,-1021,-571,-326,262,140,-450
0,4955278,202,-1872,-383,-1026,-564,-326,262,140,-450
0,4955283,202,-1872,-383,-1026,-564,-326,262,140,-450
0,4955291,202,-1872,-383,-1026,-564,-326,262,140,-450
0,4955297,200,-1872,-380,-1019,-562,-319,253,143,-445
0,4955305,200,-1872,-380,-1019,-562,-319,253,143,-445
0,4955311,200,-1872,-380,-1019,-562,-319,253,143,-445
0,4955319,201,-1876,-377,-1018,-565,-321,253,143,-445
0,4955326,201,-1876,-377,-1018,-565,-321,253,143,-445
0,4955334,198,-1874,-381,-1026,-569,-321,253,143,-445
0,4955341,198,-1874,-381,-1026,-569,-321,253,143,-445
0,4955348,198,-1874,-381,-1026,-569,-321,253,143,-445
0,4955356,198,-1874,-390,-1039,-569,-318,253,143,-445
0,4955364,198,-1874,-390,-1039,-569,-318,253,143,-445
0,4955370,198,-1874,-390,-1039,-569,-318,253,143,-445
0,4955376,200,-1876,-385,-1027,-565,-316,253,143,-445
0,4955382,200,-1876,-385,-1027,-565,-316,253,143,-445
0,4955389,200,-1876,-385,-1027,-565,-316,253,143,-445
0,4955399,201,-1870,-383,-1014,-562,-320,253,143,-445
0,4955406,201,-1870,-383,-1014,-562,-320,253,143,-445
0,4955413,201,-1870,-383,-1014,-562,-320,253,143,-445
0,4955420,200,-1873,-378,-1016,-567,-318,254,146,-442
0,4955426,200,-1873,-378,-1016,-567,-318,254,146,-442
0,4955433,200,-1873,-378,-1016,-567,-318,254,146,-442
0,4955440,201,-1873,-379,-1023,-563,-324,254,146,-442
0,4955447,201,-1873,-379,-1023,-563,-324,254,146,-442
0,4955452,201,-1873,-379,-1023,-563,-324,254,146,-442
0,4955458,197,-1872,-381,-1031,-560,-330,254,146,-442
0,4955465,197,-1872,-381,-1031,-560,-330,254,146,-442
0,4955472,197,-1872,-381,-1031,-560,-330,254,146,-442
0,4955478,198,-1871,-379,-1035,-564,-333,254,146,-442
0,4955483,198,-1871,-379,-1035,-564,-333,254,146,-442
0,4955488,198,-1871,-379,-1035,-564,-333,254,146,-442
0,4955493,198,-1871,-379,-1035,-564,-333,254,146,-442
0,4955498,200,-1878,-384,-1026,-567,-326,254,146,-442
0,4955503,200,-1878,-384,-1026,-567,-326,254,146,-442
0,4955508,200,-1878,-384,-1026,-567,-326,254,146,-442
0,4955513,200,-1878,-384,-1026,-567,-326,254,146,-442
0,4955521,200,-1876,-389,-1029,-557,-326,254,146,-442
0,4955528,200,-1876,-389,-1029,-557,-326,254,146,-442
0,4955536,202,-1874,-390,-1031,-565,-327,254,146,-442
0,4955543,202,-1874,-390,-1031,-565,-327,254,146,-442
0,4955549,202,-1874,-390,-1031,-565,-327,254,146,-442
0,4955556,202,-1876,-386,-1033,-573,-323,254,146,-452
0,4955561,202,-1876,-386,-1033,-573,-323,254,146,-452
0,4955569,202,-1876,-386,-1033,-573,-323,254,146,-452
0,4955575,203,-1872,-386,-1033,-566,-329,254,146,-452
0,4955583,203,-1872,-386,-1033,-566,-329,254,146,-452
0,4955590,203,-1872,-386,-1033,-566,-329,254,146,-452
0,4955597,201,-1875,-383,-1034,-569,-314,254,146,-452
0,4955604,201,-1875,-383,-1034,-569,-314,254,146,-452
0,4955611,201,-1875,-383,-1034,-569,-314,254,146,-452
0,4955618,201,-1872,-383,-1026,-563,-323,254,146,-452
0,4955624,201,-1872,-383,-1026,-563,-323,254,146,-452
0,4955632,201,-1872,-383,-1026,-563,-323,254,146,-452
0,4955641,202,-1873,-380,-1022,-563,-317,254,146,-452
0,4955649,202,-1873,-380,-1022,-563,-317,254,146,-452
0,4955656,200,-1875,-387,-1023,-559,-323,254,146,-452
0,4955662,200,-1875,-387,-1023,-559,-323,254,146,-452
0,4955670,200,-1875,-387,-1023,-559,-323,254,146,-452
0,4955675,198,-1872,-378,-1024,-562,-325,261,137,-447
0,4955682,198,-1872,-378,-1024,-562,-325,261,137,-447
0,4955687,198,-1872,-378,-1024,-562,-325,261,137,-447
0,4955693,198,-1872,-378,-1024,-562,-325,261,137,-447
0,4955699,199,-1876,-377,-1019,-561,-319,261,137,-447
0,4955704,199,-1876,-377,-1019,-561,-319,261,137,-447
0,4955709,199,-1876,-377,-1019,-561,-319,261,137,-447
0,4955714,203,-1870,-383,-1030,-564,-317,261,137,-447
0,4955719,203,-1870,-383,-1030,-564,-317,261,137,-447
0,4955725,203,-1870,-383,-1030,-564,-317,261,137,-447
0,4955730,203,-1870,-383,-1030,-564,-317,261,137,-447
0,4955736,201,-1874,-384,-1034,-570,-312,261,137,-447
0,4955742,201,-1874,-384,-1034,-570,-312,261,137,-447
0,4955750,201,-1874,-384,-1034,-570,-312,261,137,-447
0,4955756,203,-1872,-382,-1032,-564,-326,261,137,-447
0,4955762,203,-1872,-382,-1032,-564,-326,261,137,-447
0,4955770,203,-1872,-382,-1032,-564,-326,261,137,-447
0,4955778,200,-1871,-380,-1029,-566,-321,261,137,-447
0,4955785,200,-1871,-380,-1029,-566,-321,261,137,-447
0,4955792,200,-1871,-380,-1029,-566,-321,261,137,-447
0,4955800,199,-1873,-384,-1026,-561,-322,260,136,-440
0,4955807,199,-1873,-384,-1026,-561,-322,260,136,-440
0,4955812,199,-1873,-384,-1026,-561,-322,260,136,-440
0,4955819,198,-1875,-378,-1024,-572,-318,260,136,-440
0,4955824,198,-1875,-378,-1024,-572,-318,260,136,-440
0,4955830,198,-1875,-378,-1024,-572,-318,260,136,-440
0,4955837,199,-1873,-383,-1025,-568,-316,260,136,-440
0,4955843,199,-1873,-383,-1025,-568,-316,260,136,-440
0,4955851,199,-1873,-383,-1025,-568,-316,260,136,-440
0,4955858,197,-1875,-387,-1021,-571,-323,260,136,-440
0,4955866,197,-1875,-387,-1021,-571,-323,260,136,-440
0,4955873,197,-1875,-387,-1021,-571,-323,260,136,-440
0,4955880,199,-1876,-382,-1023,-573,-318,260,136,-440
0,4955887,199,-1876,-382,-1023,-573,-318,260,136,-440
0,4955893,199,-1876,-382,-1023,-573,-318,260,136,-440
0,4955900,199,-1877,-383,-1023,-571,-331,260,136,-440
0,4955910,199,-1877,-383,-1023,-571,-331,260,136,-440
0,4955916,199,-1876,-383,-1028,-565,-325,260,136,-440
0,4955923,199,-1876,-383,-1028,-565,-325,260,136,-440
0,4955930,199,-1876,-383,-1028,-565,-325,260,136,-440
0,4955937,202,-1875,-388,-1027,-562,-325,250,144,-446
0,4955943,202,-1875,-388,-1027,-562,-325,250,144,-446
0,4955952,202,-1875,-388,-1027,-562,-325,250,144,-446
0,4955958,200,-1875,-387,-1021,-569,-326,250,144,-446
0,4955964,200,-1875,-387,-1021,-569,-326,250,144,-446
0,4955971,200,-1875,-387,-1021,-569,-326,250,144,-446
0,4955979,199,-1875,-387,-1028,-571,-327,250,144,-446
0,4955985,199,-1875,-387,-1028,-571,-327,250,144,-446
0,4955992,199,-1875,-387,-1028,-571,-327,250,144,-446
0,4956000,202,-1872,-385,-1027,-561,-318,250,144,-446
0,4956006,202,-1872,-385,-1027,-561,-318,250,144,-446
0,4956013,202,-1872,-385,-1027,-561,-318,250,144,-446
0,4956020,197,-1875,-381,-1021,-563,-324,250,144,-446
0,4956027,197,-1875,-381,-1021,-563,-324,250,144,-446
0,4956035,197,-1875,-381,-1021,-563,-324,250,144,-446
0,4956042,202,-1873,-386,-1023,-566,-329,250,144,-446
0,4956048,202,-1873,-386,-1023,-566,-329,250,144,-446
0,4956055,198,-1871,-384,-1030,-573,-326,260,150,-446
0,4956061,198,-1871,-384,-1030,-573,-326,260,150,-446
0,4956068,198,-1871,-384,-1030,-573,-326,260,150,-446
0,4956077,200,-1875,-381,-1034,-563,-323,260,150,-446
0,4956084,200,-1875,-381,-1034,-563,-323,260,150,-446
0,4956091,200,-1875,-381,-1034,-563,-323,260,150,-446
0,4956097,201,-1872,-379,-1036,-567,-328,260,150,-446
0,4956104,201,-1872,-379,-1036,-567,-328,260,150,-446
0,4956111,201,-1872,-379,-1036,-567,-328,260,150,-446
0,4956119,198,-1872,-385,-1026,-571,-332,260,150,-446
0,4956126,198,-1872,-385,-1026,-571,-332,260,150,-446
0,4956132,198,-1872,-385,-1026,-571,-332,260,150,-446
0,4956140,203,-1875,-384,-1027,-569,-324,260,150,-446
0,4956147,203,-1875,-384,-1027,-569,-324,260,150,-446
0,4956154,203,-1875,-384,-1027,-569,-324,260,150,-446
0,4956161,199,-1872,-389,-1026,-566,-329,260,150,-446
0,4956167,199,-1872,-389,-1026,-566,-329,260,150,-446
0,4956172,199,-1872,-389,-1026,-566,-329,260,150,-446
0,4956177,200,-1874,-382,-1027,-572,-323,260,150,-446
0,4956184,200,-1874,-382,-1027,-572,-323,260,150,-446
0,4956191,200,-1874,-382,-1027,-572,-323,260,150,-446
0,4956197,200,-1873,-378,-1026,-562,-324,255,147,-449
0,4956205,200,-1873,-378,-1026,-562,-324,255,147,-449
0,4956213,200,-1873,-378,-1026,-562,-324,255,147,-449
0,4956220,200,-1874,-385,-1028,-559,-326,255,147,-449
0,4956226,200,-1874,-385,-1028,-559,-326,255,147,-449
0,4956233,200,-1874,-385,-1028,-559,-326,255,147,-449
0,4956240,199,-1877,-377,-1022,-570,-326,255,147,-449
0,4956248,199,-1877,-377,-1022,-570,-326,255,147,-449
0,4956255,200,-1875,-382,-1024,-572,-325,255,147,-449
0,4956262,200,-1875,-382,-1024,-572,-325,255,147,-449
0,4956269,200,-1875,-382,-1024,-572,-325,255,147,-449
0,4956276,200,-1874,-382,-1028,-570,-322,255,147,-449
0,4956282,200,-1874,-382,-1028,-570,-322,255,147,-449
0,4956290,200,-1874,-382,-1028,-570,-322,255,147,-449
0,4956297,201,-1875,-383,-1031,-566,-330,255,147,-449
0,4956304,201,-1875,-383,-1031,-566,-330,255,147,-449
0,4956311,201,-1875,-383,-1031,-566,-330,255,147,-449
0,4956318,204,-1874,-381,-1031,-569,-325,264,146,-446
0,4956324,204,-1874,-381,-1031,-569,-325,264,146,-446
0,4956331,204,-1874,-381,-1031,-569,-325,264,146,-446
0,4956338,199,-1873,-380,-1031,-567,-321,264,146,-446
0,4956344,199,-1873,-380,-1031,-567,-321,264,146,-446
0,4956351,199,-1873,-380,-1031,-567,-321,264,146,-446
0,4956359,202,-1874,-379,-1026,-570,-315,264,146,-446
0,4956366,202,-1874,-379,-1026,-570,-315,264,146,-446
0,4956372,202,-1874,-379,-1026,-570,-315,264,146,-446
