imu,time,ax,ay,az,gx,gy,gz,mx,my,mz
0,1419662,2223,327,-400,-1034,-570,-323,161,107,-437
0,1419676,2225,327,-389,-1026,-569,-334,161,107,-437
0,1419691,2225,327,-389,-1026,-569,-334,161,107,-437
0,1419706,2226,326,-388,-1040,-570,-321,161,107,-437
0,1419716,2224,325,-391,-1042,-577,-323,161,107,-437
0,1419729,2224,325,-391,-1042,-577,-323,161,107,-437
0,1419744,2225,323,-393,-1038,-577,-325,161,107,-437
0,1419758,2225,328,-396,-1039,-573,-331,161,107,-437
0,1419773,2225,328,-396,-1039,-573,-331,161,107,-437
0,1419787,2223,327,-392,-1040,-579,-328,161,107,-437
0,1419801,2221,327,-388,-1033,-584,-327,169,115,-431
0,1419812,2221,327,-388,-1033,-584,-327,169,115,-431
0,1419828,2225,323,-394,-1032,-575,-322,169,115,-431
0,1419843,2223,328,-389,-1039,-577,-321,169,115,-431
0,1419858,2224,328,-387,-1033,-576,-316,169,115,-431
0,1419874,2224,328,-387,-1033,-576,-316,169,115,-431
0,1419886,2224,326,-389,-1041,-579,-317,169,115,-431
0,1419901,2227,326,-394,-1040,-569,-323,169,115,-431
0,1419910,2227,326,-394,-1040,-569,-323,169,115,-431
0,1419924,2226,323,-393,-1035,-580,-330,169,111,-437
0,1419936,2226,325,-391,-1034,-577,-325,169,111,-437
0,1419949,2226,325,-391,-1034,-577,-325,169,111,-437
0,1419963,2225,328,-395,-1040,-578,-329,169,111,-437
0,1419978,2225,325,-395,-1032,-577,-326,169,111,-437
0,1419993,2225,325,-395,-1032,-577,-326,169,111,-437
0,1420007,2224,326,-389,-1031,-577,-327,169,111,-437
0,1420020,2223,327,-394,-1039,-578,-332,169,111,-437
0,1420030,2223,327,-394,-1039,-578,-332,169,111,-437
0,1420046,2223,328,-392,-1031,-573,-326,158,110,-438
0,1420061,2222,325,-384,-1026,-574,-325,158,110,-438
0,1420077,2221,326,-393,-1036,-578,-326,158,110,-438
0,1420092,2221,326,-393,-1036,-578,-326,158,110,-438
0,1420105,2223,327,-390,-1028,-574,-327,158,110,-438
0,1420120,2222,324,-391,-1036,-572,-332,158,110,-438
0,1420135,2222,324,-391,-1036,-572,-332,158,110,-438
0,1420150,2224,323,-392,-1032,-581,-325,158,110,-438
0,1420166,2225,324,-398,-1031,-584,-322,158,110,-438
0,1420180,2224,323,-388,-1032,-577,-321,164,106,-434
0,1420194,2224,323,-388,-1032,-577,-321,164,106,-434
0,1420209,2225,323,-394,-1040,-578,-325,164,106,-434
0,1420224,2223,321,-390,-1043,-580,-336,164,106,-434
0,1420237,2221,324,-387,-1036,-570,-334,164,106,-434
0,1420250,2221,324,-387,-1036,-570,-334,164,106,-434
0,1420270,2225,325,-391,-1032,-570,-327,164,106,-434
0,1420280,2223,325,-396,-1033,-571,-329,164,106,-434
0,1420294,2223,325,-396,-1033,-571,-329,164,106,-434
0,1420302,2223,324,-395,-1033,-574,-322,164,102,-436
0,1420310,2223,324,-395,-1033,-574,-322,164,102,-436
0,1420318,2224,327,-393,-1035,-571,-321,164,102,-436
0,1420326,2224,327,-393,-1035,-571,-321,164,102,-436
0,1420335,2224,327,-393,-1035,-571,-321,164,102,-436
0,1420343,2227,324,-393,-1036,-575,-330,164,102,-436
0,1420351,2227,324,-393,-1036,-575,-330,164,102,-436
0,1420359,2226,324,-387,-1026,-574,-336,164,102,-436
0,1420366,2226,324,-387,-1026,-574,-336,164,102,-436
0,1420372,2226,324,-387,-1026,-574,-336,164,102,-436
0,1420379,2225,326,-391,-1028,-574,-329,164,102,-436
0,1420385,2225,326,-391,-1028,-574,-329,164,102,-436
0,1420391,2225,326,-391,-1028,-574,-329,164,102,-436
0,1420396,2225,326,-391,-1028,-574,-329,164,102,-436
0,1420401,2222,325,-391,-1030,-574,-328,164,102,-436
0,1420406,2222,325,-391,-1030,-574,-328,164,102,-436
0,1420410,2222,325,-391,-1030,-574,-328,164,102,-436
0,1420416,2222,325,-391,-1030,-574,-328,164,102,-436
0,1420421,2224,326,-394,-1031,-580,-331,164,102,-436
0,1420426,2224,326,-394,-1031,-580,-331,164,102,-436
0,1420432,2224,326,-394,-1031,-580,-331,164,102,-436
0,1420438,2225,327,-388,-1032,-582,-327,164,104,-432
0,1420443,2225,327,-388,-1032,-582,-327,164,104,-432
0,1420449,2225,327,-388,-1032,-582,-327,164,104,-432
0,1420454,2225,327,-388,-1032,-582,-327,164,104,-432
0,1420461,2223,329,-390,-1043,-572,-319,164,104,-432
0,1420468,2223,329,-390,-1043,-572,-319,164,104,-432
0,1420474,2223,329,-390,-1043,-572,-319,164,104,-432
0,1420479,2226,326,-387,-1040,-575,-323,164,104,-432
0,1420491,2226,326,-387,-1040,-575,-323,164,104,-432
0,1420500,2223,325,-389,-1035,-565,-318,164,104,-432
0,1420514,2223,325,-389,-1035,-565,-318,164,104,-432
0,1420527,2228,324,-390,-1035,-580,-317,164,104,-432
0,1420540,2224,323,-396,-1041,-578,-329,164,104,-432
0,1420553,2224,323,-396,-1041,-578,-329,164,104,-432
0,1420566,2223,325,-394,-1036,-574,-318,170,114,-440
0,1420579,2226,326,-392,-1040,-570,-323,170,114,-440
0,1420591,2226,326,-392,-1040,-570,-323,170,114,-440
0,1420606,2225,321,-398,-1032,-576,-321,170,114,-440
0,1420620,2224,327,-388,-1026,-579,-325,170,114,-440
0,1420627,2224,327,-388,-1026,-579,-325,170,114,-440
0,1420637,2226,323,-390,-1044,-580,-324,170,114,-440
0,1420646,2226,323,-390,-1044,-580,-324,170,114,-440
0,1420654,2226,323,-390,-1044,-580,-324,170,114,-440
0,1420662,2225,324,-391,-1035,-581,-324,170,114,-440
0,1420669,2225,324,-391,-1035,-581,-324,170,114,-440
0,1420678,2223,326,-388,-1039,-573,-326,170,114,-440
0,1420685,2223,326,-388,-1039,-573,-326,170,114,-440
0,1420692,2223,326,-388,-1039,-573,-326,170,114,-440
0,1420701,2229,327,-390,-1038,-571,-331,162,112,-436
0,1420709,2229,327,-390,-1038,-571,-331,162,112,-436
0,1420718,2229,327,-390,-1038,-571,-331,162,112,-436
0,1420724,2229,327,-390,-1038,-571,-331,162,112,-436
0,1420732,2229,327,-390,-1038,-571,-331,162,112,-436
0,1420740,2228,326,-388,-1035,-581,-326,162,112,-436
0,1420748,2228,326,-388,-1035,-581,-326,162,112,-436
0,1420756,2228,326,-388,-1035,-581,-326,162,112,-436
0,1420765,2222,328,-392,-1042,-574,-328,162,112,-436
0,1420773,2222,328,-392,-1042,-574,-328,162,112,-436
0,1420781,2227,326,-389,-1034,-571,-325,162,112,-436
0,1420790,2227,326,-389,-1034,-571,-325,162,112,-436
0,1420800,2228,326,-393,-1029,-563,-325,162,112,-436
0,1420808,2228,326,-393,-1029,-563,-325,162,112,-436
0,1420817,2228,326,-393,-1029,-563,-325,162,112,-436
0,1420825,2225,325,-387,-1037,-570,-325,165,103,-441
0,1420833,2225,325,-387,-1037,-570,-325,165,103,-441
0,1420841,2224,328,-395,-1034,-576,-334,165,103,-441
0,1420850,2224,328,-395,-1034,-576,-334,165,103,-441
0,1420858,2226,328,-398,-1040,-583,-326,165,103,-441
0,1420867,2226,328,-398,-1040,-583,-326,165,103,-441
0,1420874,2226,328,-398,-1040,-583,-326,165,103,-441
0,1420883,2225,325,-393,-1035,-578,-327,165,103,-441
0,1420892,2225,325,-393,-1035,-578,-327,165,103,-441
0,1420900,2225,327,-390,-1046,-577,-327,165,103,-441
0,1420910,2225,327,-390,-1046,-577,-327,165,103,-441
0,1420919,2227,322,-394,-1038,-579,-334,165,103,-441
0,1420925,2227,322,-394,-1038,-579,-334,165,103,-441
0,1420934,2227,322,-394,-1038,-579,-334,165,103,-441
0,1420942,2225,323,-392,-1032,-582,-332,162,108,-432
0,1420951,2225,323,-392,-1032,-582,-332,162,108,-432
0,1420959,2224,328,-392,-1044,-586,-326,162,108,-432
0,1420968,2224,328,-392,-1044,-586,-326,162,108,-432
0,1420977,2224,328,-392,-1044,-586,-326,162,108,-432
0,1420986,2226,325,-393,-1045,-581,-327,162,108,-432
0,1420995,2226,325,-393,-1045,-581,-327,162,108,-432
0,1421003,2225,326,-394,-1037,-578,-324,162,108,-432
0,1421011,2225,326,-394,-1037,-578,-324,162,108,-432
0,1421021,2225,324,-389,-1045,-582,-330,162,108,-432
0,1421028,2225,324,-389,-1045,-582,-330,162,108,-432
0,1421036,2225,324,-389,-1045,-582,-330,162,108,-432
0,1421044,2228,325,-390,-1047,-586,-331,162,108,-432
0,1421053,2228,325,-390,-1047,-586,-331,162,108,-432
0,1421063,2222,326,-393,-1037,-583,-331,162,108,-432
0,1421072,2222,326,-393,-1037,-583,-331,162,108,-432
0,1421080,2223,327,-385,-1033,-575,-322,165,111,-431
0,1421088,2223,327,-385,-1033,-575,-322,165,111,-431
0,1421095,2223,327,-385,-1033,-575,-322,165,111,-431
0,1421105,2225,326,-390,-1032,-578,-326,165,111,-431
0,1421114,2225,326,-390,-1032,-578,-326,165,111,-431
0,1421122,2227,330,-388,-1033,-576,-331,165,111,-431
0,1421131,2227,330,-388,-1033,-576,-331,165,111,-431
0,1421139,2227,329,-398,-1041,-573,-333,165,111,-431
0,1421147,2227,329,-398,-1041,-573,-333,165,111,-431
0,1421156,2227,329,-398,-1041,-573,-333,165,111,-431
0,1421166,2224,326,-397,-1030,-575,-323,165,111,-431
0,1421175,2224,326,-397,-1030,-575,-323,165,111,-431
0,1421184,2225,327,-391,-1036,-581,-321,165,111,-431
0,1421193,2225,327,-391,-1036,-581,-321,165,111,-431
0,1421201,2226,326,-384,-1036,-573,-328,168,106,-436
0,1421209,2226,326,-384,-1036,-573,-328,168,106,-436
0,1421218,2225,325,-383,-1037,-564,-330,168,106,-436
0,1421228,2225,325,-383,-1037,-564,-330,168,106,-436
0,1421237,2225,325,-383,-1037,-564,-330,168,106,-436
0,1421245,2225,327,-390,-1032,-567,-329,168,106,-436
0,1421254,2225,327,-390,-1032,-567,-329,168,106,-436
0,1421262,2226,325,-390,-1035,-576,-328,168,106,-436
0,1421272,2226,325,-390,-1035,-576,-328,168,106,-436
0,1421280,2228,325,-390,-1039,-573,-326,168,106,-436
0,1421289,2228,325,-390,-1039,-573,-326,168,106,-436
0,1421297,2226,325,-392,-1035,-579,-326,168,106,-436
0,1421306,2226,325,-392,-1035,-579,-326,168,106,-436
0,1421317,2226,325,-392,-1035,-579,-326,168,106,-436
0,1421325,2226,325,-391,-1037,-581,-323,168,106,-436
0,1421332,2226,325,-391,-1037,-581,-323,168,106,-436
0,1421340,2225,327,-391,-1036,-578,-321,175,117,-441
0,1421348,2225,327,-391,-1036,-578,-321,175,117,-441
0,1421357,2225,327,-391,-1036,-578,-321,175,117,-441
0,1421365,2224,325,-392,-1034,-574,-325,175,117,-441
0,1421374,2224,325,-392,-1034,-574,-325,175,117,-441
0,1421382,2223,328,-395,-1033,-574,-321,175,117,-441
0,1421393,2223,328,-395,-1033,-574,-321,175,117,-441
0,1421402,2227,327,-396,-1045,-578,-325,175,117,-441
0,1421410,2227,327,-396,-1045,-578,-325,175,117,-441
0,1421418,2223,326,-388,-1039,-583,-328,175,117,-441
0,1421426,2223,326,-388,-1039,-583,-328,175,117,-441
0,1421435,2223,326,-388,-1039,-583,-328,175,117,-441
0,1421444,2224,325,-392,-1050,-581,-327,175,117,-441
0,1421453,2224,325,-392,-1050,-581,-327,175,117,-441
0,1421462,2222,325,-388,-1038,-579,-324,161,109,-431
0,1421472,2222,325,-388,-1038,-579,-324,161,109,-431
0,1421480,2228,323,-386,-1035,-585,-330,161,109,-431
0,1421489,2228,323,-386,-1035,-585,-330,161,109,-431
0,1421498,2228,323,-386,-1035,-585,-330,161,109,-431
0,1421506,2224,325,-394,-1033,-578,-327,161,109,-431
0,1421515,2224,325,-394,-1033,-578,-327,161,109,-431
0,1421524,2224,325,-396,-1040,-577,-330,161,109,-431
0,1421533,2224,325,-396,-1040,-577,-330,161,109,-431
0,1421542,2227,326,-393,-1037,-578,-322,161,109,-431
0,1421550,2227,326,-393,-1037,-578,-322,161,109,-431
0,1421558,2225,327,-391,-1031,-571,-333,161,109,-431
0,1421568,2225,327,-391,-1031,-571,-333,161,109,-431
0,1421577,2225,327,-391,-1031,-571,-333,161,109,-431
0,1421585,2223,326,-389,-1043,-585,-329,161,109,-431
0,1421593,2223,326,-389,-1043,-585,-329,161,109,-431
0,1421601,2226,329,-387,-1034,-580,-327,161,109,-431
0,1421611,2226,329,-387,-1034,-580,-327,161,109,-431
0,1421619,2226,326,-387,-1033,-575,-329,161,109,-431
0,1421627,2226,326,-387,-1033,-575,-329,161,109,-431
0,1421635,2226,326,-387,-1033,-575,-329,161,109,-431
0,1421643,2223,326,-392,-1042,-580,-327,161,109,-431
0,1421651,2223,326,-392,-1042,-580,-327,161,109,-431
0,1421660,2227,326,-397,-1041,-578,-330,161,109,-431
0,1421669,2227,326,-397,-1041,-578,-330,161,109,-431
0,1421678,2226,326,-395,-1031,-584,-323,161,109,-431
0,1421687,2226,326,-395,-1031,-584,-323,161,109,-431
0,1421696,2226,326,-395,-1031,-584,-323,161,109,-431
0,1421704,2226,330,-395,-1034,-579,-320,161,109,-431
0,1421712,2226,330,-395,-1034,-579,-320,161,109,-431
0,1421720,2225,326,-388,-1028,-577,-330,163,111,-439
0,1421729,2225,326,-388,-1028,-577,-330,163,111,-439
0,1421737,2225,326,-388,-1028,-577,-330,163,111,-439
0,1421746,2221,327,-390,-1038,-584,-328,163,111,-439
0,1421755,2221,327,-390,-1038,-584,-328,163,111,-439
0,1421764,2227,326,-392,-1035,-582,-330,163,111,-439
0,1421772,2227,326,-392,-1035,-582,-330,163,111,-439
0,1421780,2225,327,-394,-1033,-583,-324,163,111,-439
0,1421788,2225,327,-394,-1033,-583,-324,163,111,-439
0,1421797,2225,327,-394,-1033,-583,-324,163,111,-439
0,1421805,2226,323,-395,-1042,-582,-329,163,111,-439
0,1421814,2226,323,-395,-1042,-582,-329,163,111,-439
0,1421822,2225,327,-396,-1036,-583,-324,163,111,-439
0,1421831,2225,327,-396,-1036,-583,-324,163,111,-439
0,1421840,2225,325,-399,-1034,-575,-330,159,111,-429
0,1421848,2225,325,-399,-1034,-575,-330,159,111,-429
0,1421855,2225,325,-399,-1034,-575,-330,159,111,-429
0,1421867,2223,326,-386,-1035,-576,-323,159,111,-429
0,1421876,2223,326,-386,-1035,-576,-323,159,111,-429
0,1421884,2225,327,-390,-1035,-576,-324,159,111,-429
0,1421892,2225,327,-390,-1035,-576,-324,159,111,-429
0,1421901,2224,328,-394,-1029,-572,-320,159,111,-429
0,1421911,2224,328,-394,-1029,-572,-320,159,111,-429
0,1421918,2224,328,-394,-1029,-572,-320,159,111,-429
0,1421927,2223,325,-390,-1031,-568,-326,159,111,-429
0,1421935,2223,325,-390,-1031,-568,-326,159,111,-429
0,1421941,2225,323,-391,-1037,-576,-329,159,111,-429
0,1421949,2225,323,-391,-1037,-576,-329,159,111,-429
0,1421958,2225,323,-391,-1037,-576,-329,159,111,-429
0,1421966,2227,324,-387,-1036,-575,-331,159,111,-429
0,1421976,2227,324,-387,-1036,-575,-331,159,111,-429
0,1421984,2228,328,-390,-1024,-583,-327,159,107,-433
0,1421993,2228,328,-390,-1024,-583,-327,159,107,-433
0,1422001,2227,323,-389,-1035,-576,-329,159,107,-433
0,1422010,2227,323,-389,-1035,-576,-329,159,107,-433
0,1422018,2227,323,-389,-1035,-576,-329,159,107,-433
0,1422026,2224,328,-388,-1038,-574,-326,159,107,-433
0,1422034,2224,328,-388,-1038,-574,-326,159,107,-433
0,1422044,2224,326,-395,-1038,-579,-327,159,107,-433
0,1422053,2224,326,-395,-1038,-579,-327,159,107,-433
0,1422061,2226,326,-395,-1041,-579,-324,159,107,-433
0,1422070,2226,326,-395,-1041,-579,-324,159,107,-433
0,1422077,2226,326,-395,-1041,-579,-324,159,107,-433
0,1422087,2228,326,-387,-1041,-582,-329,159,107,-433
0,1422096,2228,326,-387,-1041,-582,-329,159,107,-433
0,1422104,2224,326,-384,-1036,-576,-323,163,115,-433
0,1422112,2224,326,-384,-1036,-576,-323,163,115,-433
0,1422119,2225,326,-391,-1033,-575,-326,163,115,-433
0,1422128,2225,326,-391,-1033,-575,-326,163,115,-433
0,1422135,2225,326,-391,-1033,-575,-326,163,115,-433
0,1422144,2224,325,-396,-1037,-576,-331,163,115,-433
0,1422151,2224,325,-396,-1037,-576,-331,163,115,-433
0,1422160,2224,328,-392,-1024,-576,-331,163,115,-433
0,1422170,2224,328,-392,-1024,-576,-331,163,115,-433
0,1422180,2225,327,-391,-1037,-578,-327,163,115,-433
0,1422189,2225,327,-391,-1037,-578,-327,163,115,-433
0,1422198,2225,327,-391,-1037,-578,-327,163,115,-433
0,1422206,2225,328,-397,-1035,-574,-322,163,115,-433
0,1422215,2225,328,-397,-1035,-574,-322,163,115,-433
0,1422223,2224,329,-390,-1041,-581,-325,163,115,-433
0,1422231,2224,329,-390,-1041,-581,-325,163,115,-433
0,1422240,2225,326,-392,-1038,-583,-327,170,108,-428
0,1422248,2225,326,-392,-1038,-583,-327,170,108,-428
0,1422258,2225,326,-392,-1038,-583,-327,170,108,-428
0,1422267,2225,327,-392,-1039,-575,-329,170,108,-428
0,1422276,2225,327,-392,-1039,-575,-329,170,108,-428
0,1422283,2223,327,-394,-1040,-574,-326,170,108,-428
0,1422291,2223,327,-394,-1040,-574,-326,170,108,-428
0,1422300,2225,324,-391,-1036,-577,-329,170,108,-428
0,1422308,2225,324,-391,-1036,-577,-329,170,108,-428
0,1422317,2225,324,-391,-1036,-577,-329,170,108,-428
0,1422326,2226,327,-394,-1043,-580,-328,170,108,-428
0,1422334,2226,327,-394,-1043,-580,-328,170,108,-428
0,1422345,2224,325,-389,-1045,-577,-334,170,108,-428
0,1422353,2224,325,-389,-1045,-577,-334,170,108,-428
0,1422361,2224,323,-388,-1039,-580,-332,170,116,-430
0,1422371,2224,323,-388,-1039,-580,-332,170,116,-430
0,1422380,2224,326,-382,-1038,-573,-328,170,116,-430
0,1422388,2224,326,-382,-1038,-573,-328,170,116,-430
0,1422396,2224,326,-382,-1038,-573,-328,170,116,-430
0,1422404,2223,323,-390,-1039,-575,-320,170,116,-430
0,1422413,2223,323,-390,-1039,-575,-320,170,116,-430
0,1422422,2224,329,-390,-1033,-576,-320,170,116,-430
0,1422429,2224,329,-390,-1033,-576,-320,170,116,-430
0,1422437,2224,329,-390,-1033,-576,-320,170,116,-430
0,1422446,2224,327,-391,-1039,-575,-318,170,116,-430
0,1422455,2224,327,-391,-1039,-575,-318,170,116,-430
0,1422466,2228,326,-392,-1034,-570,-324,170,116,-430
0,1422473,2228,326,-392,-1034,-570,-324,170,116,-430
0,1422479,2221,328,-389,-1035,-573,-327,162,112,-434
0,1422487,2221,328,-389,-1035,-573,-327,162,112,-434
0,1422496,2221,328,-389,-1035,-573,-327,162,112,-434
0,1422505,2227,327,-386,-1032,-575,-328,162,112,-434
0,1422514,2227,327,-386,-1032,-575,-328,162,112,-434
0,1422523,2225,325,-389,-1035,-572,-328,162,112,-434
0,1422530,2225,325,-389,-1035,-572,-328,162,112,-434
0,1422539,2228,325,-391,-1042,-573,-323,162,112,-434
0,1422547,2228,325,-391,-1042,-573,-323,162,112,-434
0,1422556,2228,325,-391,-1042,-573,-323,162,112,-434
0,1422565,2225,326,-396,-1030,-579,-328,162,112,-434
0,1422573,2225,326,-396,-1030,-579,-328,162,112,-434
0,1422581,2228,326,-389,-1034,-574,-327,162,112,-434
0,1422589,2228,326,-389,-1034,-574,-327,162,112,-434
0,1422599,2228,326,-389,-1034,-574,-327,162,112,-434
0,1422609,2223,325,-383,-1037,-572,-322,162,112,-434
0,1422617,2223,325,-383,-1037,-572,-322,162,112,-434
0,1422626,2222,323,-387,-1032,-578,-333,166,122,-436
0,1422635,2222,323,-387,-1032,-578,-333,166,122,-436
0,1422644,2227,325,-391,-1041,-578,-327,166,122,-436
0,1422651,2227,325,-391,-1041,-578,-327,166,122,-436
0,1422659,2227,325,-391,-1041,-578,-327,166,122,-436
0,1422668,2228,325,-391,-1033,-569,-329,166,122,-436
0,1422676,2228,325,-391,-1033,-569,-329,166,122,-436
0,1422685,2223,328,-389,-1033,-580,-326,166,122,-436
0,1422694,2223,328,-389,-1033,-580,-326,166,122,-436
0,1422703,2223,326,-393,-1033,-577,-332,166,122,-436
0,1422713,2223,326,-393,-1033,-577,-332,166,122,-436
0,1422722,2225,326,-392,-1032,-574,-339,166,122,-436
0,1422731,2225,326,-392,-1032,-574,-339,166,122,-436
0,1422740,2225,327,-390,-1034,-574,-331,168,102,-436
0,1422749,2225,327,-390,-1034,-574,-331,168,102,-438
0,1422758,2225,327,-390,-1034,-574,-331,168,102,-438
0,1422767,2225,327,-390,-1039,-579,-322,168,102,-438
0,1422776,2225,327,-390,-1039,-579,-322,168,102,-438
0,1422784,2226,326,-394,-1032,-581,-324,168,102,-438
0,1422792,2226,326,-394,-1032,-581,-324,168,102,-438
0,1422799,2226,326,-394,-1032,-581,-324,168,102,-438
0,1422807,2223,327,-395,-1035,-579,-324,168,102,-438
0,1422815,2223,327,-395,-1035,-579,-324,168,102,-438
0,1422823,2225,326,-392,-1048,-586,-331,168,102,-438
0,1422831,2225,326,-392,-1048,-586,-331,168,102,-438
0,1422839,2225,326,-392,-1048,-586,-331,168,102,-438
0,1422848,2227,323,-395,-1028,-580,-331,168,102,-438
0,1422856,2227,323,-395,-1028,-580,-331,168,102,-438
0,1422865,2224,325,-400,-1031,-581,-332,168,102,-438
0,1422875,2224,325,-400,-1031,-581,-332,168,102,-438
0,1422883,2226,327,-393,-1032,-582,-334,170,116,-440
0,1422892,2226,327,-393,-1032,-582,-334,170,116,-440
0,1422900,2223,327,-389,-1030,-579,-329,170,116,-440
0,1422908,2223,327,-389,-1030,-579,-329,170,116,-440
0,1422917,2223,327,-389,-1030,-579,-329,170,116,-440
0,1422924,2223,328,-394,-1030,-576,-324,170,116,-440
0,1422934,2223,328,-394,-1030,-576,-324,170,116,-440
0,1422940,2222,325,-394,-1030,-576,-327,170,116,-440
0,1422949,2222,325,-394,-1030,-576,-327,170,116,-440
0,1422958,2222,325,-394,-1030,-576,-327,170,116,-440
0,1422967,2220,327,-398,-1034,-580,-327,170,116,-440
0,1422976,2220,327,-398,-1034,-580,-327,170,116,-440
0,1422985,2221,328,-393,-1038,-577,-327,170,116,-440
0,1422993,2221,328,-393,-1038,-577,-327,170,116,-440
0,1423001,2224,327,-396,-1030,-575,-326,166,108,-434
0,1423010,2224,327,-396,-1030,-575,-326,166,108,-434
0,1423019,2224,327,-396,-1030,-575,-326,166,108,-434
0,1423028,2223,324,-392,-1040,-576,-335,166,108,-434
0,1423036,2223,324,-392,-1040,-576,-335,166,108,-434
0,1423045,2222,329,-391,-1030,-575,-328,166,108,-434
0,1423053,2222,329,-391,-1030,-575,-328,166,108,-434
0,1423062,2224,327,-388,-1040,-585,-324,166,108,-434
0,1423070,2224,327,-388,-1040,-585,-324,166,108,-434
0,1423081,2224,324,-391,-1032,-574,-330,166,108,-434
0,1423088,2224,324,-391,-1032,-574,-330,166,108,-434
0,1423100,2227,325,-391,-1032,-567,-330,166,108,-434
0,1423110,2227,325,-391,-1032,-567,-330,166,108,-434
0,1423119,2227,325,-391,-1032,-567,-330,166,108,-434
0,1423127,2225,326,-391,-1033,-573,-329,166,108,-434
0,1423135,2225,326,-391,-1033,-573,-329,166,108,-434
0,1423145,2225,331,-393,-1045,-578,-324,166,104,-436
0,1423153,2225,331,-393,-1045,-578,-324,166,104,-436
0,1423162,2227,326,-389,-1037,-577,-325,166,104,-436
0,1423171,2227,326,-389,-1037,-577,-325,166,104,-436
0,1423178,2227,326,-389,-1037,-577,-325,166,104,-436
0,1423188,2228,327,-392,-1043,-582,-328,166,104,-436
0,1423199,2228,327,-392,-1043,-582,-328,166,104,-436
0,1423207,2226,329,-396,-1042,-578,-329,166,104,-436
0,1423217,2226,329,-396,-1042,-578,-329,166,104,-436
0,1423225,2225,324,-384,-1033,-575,-325,166,104,-436
0,1423236,2225,324,-384,-1033,-575,-325,166,104,-436
0,1423244,2228,328,-388,-1034,-581,-325,166,104,-436
0,1423252,2228,328,-388,-1034,-581,-325,166,104,-436
0,1423260,2225,330,-390,-1036,-573,-319,168,116,-436
0,1423268,2225,330,-390,-1036,-573,-319,168,116,-436
0,1423277,2225,330,-390,-1036,-573,-319,168,116,-436
0,1423285,2221,325,-387,-1031,-577,-324,168,116,-436
0,1423294,2221,325,-387,-1031,-577,-324,168,116,-436
0,1423304,2221,324,-388,-1029,-574,-330,168,116,-436
0,1423313,2221,324,-388,-1029,-574,-330,168,116,-436
0,1423321,2222,328,-393,-1035,-574,-320,168,116,-436
0,1423330,2222,328,-393,-1035,-574,-320,168,116,-436
0,1423339,2222,328,-393,-1035,-574,-320,168,116,-436
0,1423349,2225,326,-396,-1037,-577,-330,168,116,-436
0,1423357,2225,326,-396,-1037,-577,-330,168,116,-436
0,1423367,2229,326,-393,-1031,-569,-325,168,116,-436
0,1423377,2229,326,-393,-1031,-569,-325,168,116,-436
0,1423386,2224,324,-389,-1037,-574,-321,164,108,-436
0,1423394,2224,324,-389,-1037,-574,-321,164,108,-436
0,1423401,2223,325,-387,-1030,-575,-318,164,108,-436
0,1423411,2223,325,-387,-1030,-575,-318,164,108,-436
0,1423419,2223,325,-387,-1030,-575,-318,164,108,-436
0,1423428,2221,325,-391,-1031,-581,-316,164,108,-436
0,1423434,2221,325,-391,-1031,-581,-316,164,108,-436
0,1423442,2223,323,-387,-1034,-576,-329,164,108,-436
0,1423453,2223,323,-387,-1034,-576,-329,164,108,-436
0,1423461,2223,325,-394,-1035,-579,-324,164,108,-436
0,1423470,2223,325,-394,-1035,-579,-324,164,108,-436
0,1423478,2223,325,-394,-1035,-579,-324,164,108,-436
0,1423488,2226,325,-391,-1043,-582,-325,164,108,-436
0,1423497,2226,325,-391,-1043,-582,-325,164,108,-436
0,1423505,2225,324,-390,-1037,-581,-321,164,108,-436
0,1423514,2225,324,-390,-1037,-581,-321,164,108,-436
0,1423524,2222,325,-391,-1036,-578,-323,165,109,-435
0,1423536,2222,325,-391,-1036,-578,-323,165,109,-435
0,1423544,2223,330,-391,-1039,-570,-321,165,109,-435
0,1423552,2223,330,-391,-1039,-570,-321,165,109,-435
0,1423561,2229,326,-392,-1034,-583,-320,165,109,-435
0,1423569,2229,326,-392,-1034,-583,-320,165,109,-435
0,1423579,2229,326,-392,-1034,-583,-320,165,109,-435
0,1423586,2226,325,-399,-1043,-582,-321,165,109,-435
0,1423594,2226,325,-399,-1043,-582,-321,165,109,-435
0,1423602,2226,324,-397,-1040,-579,-329,165,109,-435
0,1423610,2226,324,-397,-1040,-579,-329,165,109,-435
0,1423619,2226,324,-397,-1040,-579,-329,165,109,-435
0,1423627,2221,327,-393,-1024,-572,-327,165,109,-435
0,1423635,2221,327,-393,-1024,-572,-327,165,109,-435
0,1423643,2225,329,-389,-1032,-574,-328,166,112,-436
0,1423652,2225,329,-389,-1032,-574,-328,166,112,-436
0,1423661,2224,327,-392,-1033,-573,-319,166,112,-436
0,1423669,2224,327,-392,-1033,-573,-319,166,112,-436
0,1423678,2224,327,-392,-1033,-573,-319,166,112,-436
0,1423687,2226,327,-394,-1037,-578,-328,166,112,-436
0,1423695,2226,327,-394,-1037,-578,-328,166,112,-436
0,1423704,2225,323,-388,-1039,-576,-327,166,112,-436
0,1423712,2225,323,-388,-1039,-576,-327,166,112,-436
0,1423721,2223,323,-390,-1035,-578,-322,166,112,-436
0,1423730,2223,323,-390,-1035,-578,-322,166,112,-436
0,1423738,2223,323,-390,-1035,-578,-322,166,112,-436
0,1423747,2225,324,-396,-1041,-577,-324,166,112,-436
0,1423756,2225,324,-396,-1041,-577,-324,166,112,-436
0,1423765,2226,328,-391,-1037,-572,-328,166,112,-436
0,1423774,2226,328,-391,-1037,-572,-328,166,112,-436
0,1423782,2225,327,-390,-1030,-575,-326,165,115,-433
0,1423791,2225,327,-390,-1030,-575,-326,165,115,-433
0,1423799,2225,327,-390,-1030,-575,-326,165,115,-433
0,1423807,2224,327,-391,-1027,-574,-322,165,115,-433
0,1423815,2224,327,-391,-1027,-574,-322,165,115,-433
0,1423822,2225,323,-393,-1029,-573,-323,165,115,-433
0,1423832,2225,323,-393,-1029,-573,-323,165,115,-433
0,1423840,2225,323,-393,-1029,-573,-323,165,115,-433
0,1423848,2228,328,-392,-1031,-576,-323,165,115,-433
0,1423859,2228,328,-392,-1031,-576,-323,165,115,-433
0,1423867,2224,326,-394,-1030,-575,-328,165,115,-433
0,1423877,2224,326,-394,-1030,-575,-328,165,115,-433
0,1423886,2228,322,-394,-1031,-578,-325,165,115,-433
0,1423895,2228,322,-394,-1031,-578,-325,165,115,-433
0,1423903,2227,326,-388,-1038,-580,-333,167,115,-431
0,1423912,2227,326,-388,-1038,-580,-333,167,115,-431
0,1423921,2227,326,-388,-1038,-580,-333,167,115,-431
0,1423930,2224,325,-391,-1029,-580,-330,167,115,-431
0,1423938,2224,325,-391,-1029,-580,-330,167,115,-431
0,1423946,2224,327,-394,-1034,-576,-327,167,115,-431
0,1423955,2224,327,-394,-1034,-576,-327,167,115,-431
0,1423965,2226,325,-393,-1040,-581,-331,167,115,-431
0,1423973,2226,325,-393,-1040,-581,-331,167,115,-431
0,1423983,2224,324,-389,-1028,-571,-330,167,115,-431
0,1423991,2224,324,-389,-1028,-571,-330,167,115,-431
0,1424001,2224,324,-389,-1028,-571,-330,167,115,-431
0,1424009,2224,324,-392,-1033,-571,-326,167,115,-431
0,1424020,2224,324,-392,-1033,-571,-326,167,115,-431
0,1424027,2223,323,-390,-1039,-576,-330,154,112,-434
0,1424037,2223,323,-390,-1039,-576,-330,154,112,-434
0,1424047,2226,326,-389,-1038,-576,-325,154,112,-434
0,1424056,2226,326,-389,-1038,-576,-325,154,112,-434
0,1424065,2225,325,-393,-1036,-580,-327,154,112,-434
0,1424073,2225,325,-393,-1036,-580,-327,154,112,-434
0,1424082,2224,325,-393,-1027,-576,-323,154,112,-434
0,1424094,2224,325,-393,-1027,-576,-323,154,112,-434
0,1424105,2226,325,-390,-1028,-577,-327,154,112,-434
0,1424113,2226,325,-390,-1028,-577,-327,154,112,-434
0,1424121,2223,324,-394,-1029,-576,-325,154,112,-434
0,1424131,2223,324,-394,-1029,-576,-325,154,112,-434
0,1424142,2224,326,-393,-1033,-574,-328,154,112,-434
0,1424149,2224,326,-393,-1033,-574,-328,154,112,-434
0,1424156,2224,326,-393,-1033,-574,-328,154,112,-434
0,1424165,2226,330,-389,-1035,-574,-324,155,113,-441
0,1424174,2226,330,-389,-1035,-574,-324,155,113,-441
0,1424183,2225,327,-398,-1031,-578,-336,155,113,-441
0,1424192,2225,327,-398,-1031,-578,-336,155,113,-441
0,1424201,2225,325,-393,-1034,-576,-324,155,113,-441
0,1424210,2225,325,-393,-1034,-576,-324,155,113,-441
0,1424219,2225,325,-393,-1034,-576,-324,155,113,-441
0,1424228,2228,326,-394,-1046,-576,-324,155,113,-441
0,1424238,2228,326,-394,-1046,-576,-324,155,113,-441
0,1424246,2227,326,-393,-1037,-571,-326,155,113,-441
0,1424257,2227,326,-393,-1037,-571,-326,155,113,-441
0,1424266,2222,325,-396,-1028,-574,-325,155,113,-441
0,1424276,2222,325,-396,-1028,-574,-325,155,113,-441
0,1424285,2227,328,-392,-1036,-573,-324,158,110,-436
0,1424295,2227,328,-392,-1036,-573,-324,158,110,-436
0,1424304,2229,326,-384,-1039,-580,-330,158,110,-436
0,1424313,2229,326,-384,-1039,-580,-330,158,110,-436
0,1424323,2225,326,-390,-1042,-581,-328,158,110,-436
0,1424332,2225,326,-390,-1042,-581,-328,158,110,-436
0,1424345,2224,327,-392,-1045,-578,-325,158,110,-436
0,1424356,2224,327,-392,-1045,-578,-325,158,110,-436
0,1424363,2222,325,-390,-1037,-577,-328,158,110,-436
0,1424372,2222,325,-390,-1037,-577,-328,158,110,-436
0,1424378,2222,325,-390,-1037,-577,-328,158,110,-436
0,1424387,2226,324,-388,-1030,-577,-334,158,110,-436
0,1424397,2226,324,-388,-1030,-577,-334,158,110,-436
0,1424407,2222,326,-391,-1028,-573,-335,158,110,-436
0,1424417,2222,326,-391,-1028,-573,-335,158,110,-436
0,1424428,2224,325,-378,-1033,-579,-332,165,119,-439
0,1424440,2224,325,-378,-1033,-579,-332,165,119,-439
0,1424448,2227,323,-395,-1034,-578,-329,165,119,-439
0,1424458,2227,323,-395,-1034,-578,-329,165,119,-439
0,1424468,2223,323,-390,-1035,-584,-330,165,119,-439
0,1424479,2223,323,-390,-1035,-584,-330,165,119,-439
0,1424488,2226,329,-391,-1036,-576,-319,165,119,-439
0,1424498,2226,329,-391,-1036,-576,-319,165,119,-439
0,1424508,2224,326,-386,-1035,-578,-326,165,119,-439
0,1424519,2224,326,-386,-1035,-578,-326,165,119,-439
0,1424529,2223,324,-396,-1029,-577,-330,165,119,-439
0,1424541,2228,322,-385,-1040,-583,-326,165,119,-439
0,1424551,2228,322,-385,-1040,-583,-326,173,115,-441
0,1424561,2228,322,-385,-1040,-583,-326,173,115,-441
0,1424573,2226,328,-385,-1025,-580,-323,173,115,-441
0,1424583,2224,325,-394,-1035,-581,-324,173,115,-441
0,1424592,2224,325,-394,-1035,-581,-324,173,115,-441
0,1424603,2223,326,-391,-1036,-579,-319,173,115,-441
0,1424614,2223,326,-391,-1036,-579,-319,173,115,-441
0,1424625,2225,323,-394,-1033,-581,-331,173,115,-441
0,1424633,2225,323,-394,-1033,-581,-331,173,115,-441
0,1424644,2227,326,-395,-1030,-576,-329,173,115,-441
0,1424654,2227,326,-395,-1030,-576,-329,173,115,-441
0,1424664,2225,324,-389,-1032,-574,-328,173,115,-441
0,1424676,2225,324,-389,-1032,-574,-328,173,115,-441
0,1424686,2226,323,-390,-1029,-570,-318,159,107,-437
0,1424697,2226,323,-390,-1029,-570,-318,159,107,-437
0,1424708,2226,325,-391,-1026,-570,-322,159,107,-437
0,1424718,2226,325,-391,-1026,-570,-322,159,107,-437
0,1424728,2227,327,-393,-1029,-577,-324,159,107,-437
0,1424738,2227,327,-393,-1029,-577,-324,159,107,-437
0,1424747,2225,325,-392,-1033,-577,-326,159,107,-437
0,1424759,2225,325,-392,-1033,-577,-326,159,107,-437
0,1424768,2224,326,-387,-1031,-580,-327,159,107,-437
0,1424778,2224,326,-387,-1031,-580,-327,159,107,-437
0,1424788,2222,325,-393,-1030,-577,-321,159,107,-437
0,1424797,2222,325,-393,-1030,-577,-321,159,107,-437
0,1424809,2224,327,-383,-1030,-577,-330,166,110,-432
0,1424818,2224,327,-383,-1030,-577,-330,166,110,-432
0,1424829,2227,328,-392,-1034,-576,-328,166,110,-432
0,1424838,2227,328,-392,-1034,-576,-328,166,110,-432
0,1424848,2222,322,-387,-1038,-573,-331,166,110,-432
0,1424859,2222,322,-387,-1038,-573,-331,166,110,-432
0,1424865,2226,326,-390,-1026,-573,-338,166,110,-432
0,1424875,2226,326,-390,-1026,-573,-338,166,110,-432
0,1424885,2225,324,-392,-1034,-568,-332,166,110,-432
0,1424897,2225,324,-392,-1034,-568,-332,166,110,-432
0,1424905,2224,327,-399,-1041,-573,-325,166,110,-432
0,1424916,2224,327,-399,-1041,-573,-325,166,110,-432
0,1424927,2225,328,-392,-1037,-573,-329,163,107,-435
0,1424937,2225,328,-392,-1037,-573,-329,163,107,-435
0,1424948,2222,326,-387,-1042,-574,-325,163,107,-435
0,1424957,2222,326,-387,-1042,-574,-325,163,107,-435
0,1424967,2223,327,-390,-1037,-574,-326,163,107,-435
0,1424977,2223,327,-390,-1037,-574,-326,163,107,-435
0,1424986,2225,325,-395,-1039,-574,-324,163,107,-435
0,1424996,2225,325,-395,-1039,-574,-324,163,107,-435
0,1425007,2226,327,-389,-1036,-575,-328,163,107,-435
0,1425018,2226,327,-389,-1036,-575,-328,163,107,-435
0,1425029,2223,325,-395,-1046,-576,-331,163,107,-435
0,1425041,2223,325,-395,-1046,-576,-331,163,107,-435
0,1425050,2225,321,-390,-1035,-577,-334,163,107,-435
0,1425061,2225,321,-390,-1035,-577,-334,163,107,-435
0,1425069,2222,323,-391,-1040,-581,-335,167,111,-431
0,1425079,2222,323,-391,-1040,-581,-335,167,111,-431
0,1425091,2224,326,-391,-1032,-576,-329,167,111,-431
0,1425102,2224,326,-391,-1032,-576,-329,167,111,-431
0,1425114,2223,325,-390,-1043,-576,-325,167,111,-431
0,1425127,2224,325,-388,-1042,-579,-330,167,111,-431
0,1425136,2224,325,-388,-1042,-579,-330,167,111,-431
0,1425143,2229,325,-395,-1039,-574,-327,167,111,-431
0,1425154,2229,325,-395,-1039,-574,-327,167,111,-431
0,1425164,2225,324,-394,-1037,-579,-330,167,111,-431
0,1425176,2225,324,-394,-1037,-579,-330,167,111,-431
0,1425186,2225,326,-389,-1031,-571,-327,162,108,-430
0,1425197,2225,326,-389,-1031,-571,-327,162,108,-430
0,1425207,2225,326,-389,-1031,-571,-327,162,108,-430
0,1425217,2225,326,-389,-1031,-571,-327,162,108,-430
0,1425229,2223,324,-390,-1030,-580,-335,162,108,-430
0,1425238,2223,324,-390,-1030,-580,-335,162,108,-430
0,1425247,2222,323,-390,-1035,-574,-334,162,108,-430
0,1425257,2222,323,-390,-1035,-574,-334,162,108,-430
0,1425268,2225,326,-391,-1038,-578,-331,162,108,-430
0,1425276,2225,326,-391,-1038,-578,-331,162,108,-430
0,1425289,2224,323,-392,-1034,-577,-326,162,108,-430
0,1425298,2224,323,-392,-1034,-577,-326,162,108,-430
0,1425310,2225,325,-390,-1035,-567,-326,162,108,-430
0,1425321,2225,325,-390,-1035,-567,-326,162,108,-430
0,1425334,2225,325,-392,-1035,-573,-322,165,117,-437
0,1425344,2222,325,-385,-1031,-577,-323,165,117,-437
0,1425353,2222,325,-385,-1031,-577,-323,165,117,-437
0,1425366,2225,326,-396,-1036,-582,-326,165,117,-437
0,1425377,2225,326,-396,-1036,-582,-326,165,117,-437
0,1425387,2226,327,-393,-1028,-577,-328,165,117,-437
0,1425398,2226,327,-393,-1028,-577,-328,165,117,-437
0,1425409,2225,325,-388,-1033,-573,-326,165,117,-437
0,1425419,2225,325,-388,-1033,-573,-326,165,117,-437
0,1425430,2226,325,-391,-1035,-581,-325,165,117,-437
0,1425438,2226,325,-391,-1035,-581,-325,165,117,-437
0,1425448,2225,324,-385,-1040,-577,-328,169,119,-433
0,1425458,2225,324,-385,-1040,-577,-328,169,119,-433
0,1425469,2225,327,-394,-1033,-577,-333,169,119,-433
0,1425481,2225,327,-394,-1033,-577,-333,169,119,-433
0,1425489,2225,323,-390,-1044,-578,-328,169,119,-433
0,1425499,2225,323,-390,-1044,-578,-328,169,119,-433
0,1425511,2224,327,-394,-1033,-576,-325,169,119,-433
0,1425520,2224,327,-394,-1033,-576,-325,169,119,-433
0,1425531,2223,328,-388,-1035,-573,-324,169,119,-433
0,1425540,2223,328,-388,-1035,-573,-324,169,119,-433
0,1425547,2223,325,-396,-1043,-580,-328,169,119,-433
0,1425558,2223,325,-396,-1043,-580,-328,169,119,-433
0,1425570,2223,327,-388,-1032,-572,-333,169,119,-433
0,1425579,2223,327,-388,-1032,-572,-333,169,119,-433
0,1425590,2220,323,-382,-1028,-568,-335,162,102,-434
0,1425604,2224,324,-388,-1033,-574,-332,162,102,-434
0,1425615,2224,324,-388,-1033,-574,-332,162,102,-434
0,1425628,2226,325,-391,-1037,-582,-330,162,102,-434
0,1425642,2226,325,-391,-1037,-582,-330,162,102,-434
0,1425656,2225,326,-390,-1038,-573,-329,162,102,-434
0,1425671,2222,323,-396,-1039,-573,-325,162,102,-434
0,1425685,2226,325,-396,-1034,-573,-324,162,102,-434
0,1425697,2226,325,-396,-1034,-573,-324,162,102,-434
0,1425710,2225,328,-387,-1033,-576,-336,167,103,-437
0,1425725,2222,324,-388,-1047,-577,-329,167,103,-437
0,1425740,2222,324,-388,-1047,-577,-329,167,103,-437
0,1425757,2225,326,-395,-1039,-580,-321,167,103,-437
0,1425772,2228,325,-396,-1046,-583,-323,167,103,-437
0,1425784,2226,324,-393,-1040,-579,-326,167,103,-437
0,1425799,2226,324,-393,-1040,-579,-326,167,103,-437
0,1425814,2225,324,-396,-1038,-578,-329,167,103,-437
0,1425828,2224,328,-389,-1033,-580,-328,166,112,-434
0,1425843,2224,328,-389,-1033,-580,-328,166,112,-434
0,1425857,2226,327,-388,-1046,-574,-326,166,112,-434
0,1425871,2224,327,-394,-1028,-570,-331,166,112,-434
0,1425884,2226,327,-387,-1035,-567,-326,166,112,-434
0,1425901,2226,327,-387,-1035,-567,-326,166,112,-434
0,1425914,2223,323,-395,-1030,-574,-317,166,112,-434
0,1425930,2226,326,-399,-1035,-574,-321,166,112,-434
0,1425944,2224,327,-396,-1035,-578,-326,166,112,-434
0,1425957,2224,327,-396,-1035,-578,-326,166,112,-434
0,1425972,2225,324,-388,-1034,-580,-333,168,106,-432
0,1425986,2222,323,-393,-1030,-580,-328,168,106,-432
0,1426001,2222,323,-393,-1030,-580,-328,168,106,-432
0,1426014,2226,324,-394,-1039,-574,-329,168,106,-432
0,1426028,2223,325,-399,-1037,-579,-325,168,106,-432
0,1426043,2223,325,-399,-1037,-579,-325,168,106,-432
0,1426059,2223,326,-391,-1042,-569,-332,168,106,-432
0,1426074,2224,325,-394,-1042,-574,-330,168,106,-432
0,1426088,2223,326,-389,-1039,-578,-327,154,110,-428
0,1426101,2223,326,-389,-1039,-578,-327,154,110,-428
0,1426114,2223,326,-392,-1038,-580,-326,154,110,-428
0,1426128,2224,325,-397,-1025,-571,-336,154,110,-428
0,1426143,2224,325,-397,-1025,-571,-336,154,110,-428
0,1426157,2225,328,-395,-1032,-573,-332,154,110,-428
0,1426171,2224,327,-394,-1039,-578,-329,154,110,-428
0,1426185,2226,325,-390,-1028,-578,-321,154,110,-428
0,1426195,2226,325,-390,-1028,-578,-321,154,110,-428
0,1426209,2222,325,-389,-1031,-573,-327,154,110,-428
0,1426224,2222,325,-389,-1031,-573,-327,154,110,-428
0,1426235,2223,324,-389,-1037,-580,-320,165,107,-433
0,1426248,2224,327,-390,-1034,-574,-326,165,107,-433
0,1426263,2224,327,-390,-1034,-574,-326,165,107,-433
0,1426277,2224,325,-394,-1036,-576,-331,165,107,-433
0,1426291,2225,324,-397,-1037,-575,-335,165,107,-433
0,1426304,2227,325,-388,-1029,-583,-327,165,107,-433
0,1426318,2227,325,-388,-1029,-583,-327,165,107,-433
0,1426333,2223,325,-392,-1035,-578,-323,165,107,-433
0,1426347,2225,324,-389,-1033,-575,-322,161,115,-435
0,1426361,2225,324,-389,-1033,-575,-322,161,115,-435
0,1426375,2225,324,-385,-1031,-573,-327,161,115,-435
0,1426383,2225,324,-385,-1031,-573,-327,161,115,-435
0,1426392,2225,326,-389,-1037,-578,-328,161,115,-435
0,1426400,2225,326,-389,-1037,-578,-328,161,115,-435
0,1426414,2224,325,-390,-1037,-575,-327,161,115,-435
0,1426428,2225,327,-390,-1029,-580,-331,161,115,-435
0,1426443,2225,327,-390,-1029,-580,-331,161,115,-435
0,1426457,2226,324,-389,-1036,-580,-329,161,115,-435
0,1426471,2226,327,-395,-1030,-577,-324,161,115,-435
0,1426487,2228,328,-389,-1043,-582,-331,161,115,-435
0,1426500,2228,328,-389,-1043,-582,-331,161,115,-435
0,1426513,2226,327,-385,-1038,-580,-326,161,115,-435
0,1426529,2228,326,-392,-1038,-577,-333,161,115,-435
0,1426544,2223,330,-397,-1041,-573,-331,161,115,-435
0,1426560,2223,330,-397,-1041,-573,-331,161,115,-435
0,1426574,2224,326,-392,-1044,-570,-329,161,115,-435
0,1426586,2223,326,-399,-1033,-581,-327,161,115,-435
0,1426600,2223,326,-399,-1033,-581,-327,161,115,-435
0,1426615,2226,328,-386,-1036,-580,-323,163,113,-433
0,1426629,2226,328,-390,-1039,-573,-318,163,113,-433
0,1426643,2226,328,-390,-1039,-573,-318,163,113,-433
0,1426658,2222,326,-395,-1041,-582,-332,163,113,-433
0,1426669,2225,326,-394,-1033,-580,-331,163,113,-433
0,1426681,2225,326,-394,-1033,-580,-331,163,113,-433
0,1426697,2225,328,-396,-1039,-574,-328,163,113,-433
0,1426712,2224,329,-394,-1037,-575,-330,163,113,-433
0,1426725,2226,327,-392,-1034,-575,-332,164,112,-430
0,1426740,2226,327,-392,-1034,-575,-332,164,112,-430
0,1426755,2226,326,-385,-1032,-578,-325,164,112,-430
0,1426769,2225,326,-395,-1035,-580,-325,164,112,-430
0,1426784,2225,326,-395,-1035,-580,-325,164,112,-430
0,1426798,2223,329,-396,-1040,-573,-325,164,112,-430
0,1426811,2227,325,-393,-1035,-580,-325,164,112,-430
0,1426826,2227,325,-393,-1035,-580,-325,164,112,-430
0,1426841,2227,325,-393,-1035,-580,-325,164,112,-430
0,1426852,2227,324,-397,-1035,-574,-323,164,112,-430
0,1426866,2225,327,-389,-1037,-577,-326,166,116,-432
0,1426879,2225,327,-389,-1037,-577,-326,166,116,-432
0,1426893,2222,326,-390,-1041,-577,-322,166,116,-432
0,1426908,2225,330,-394,-1035,-579,-319,166,116,-432
0,1426923,2225,330,-394,-1035,-579,-319,166,116,-432
0,1426938,2226,327,-390,-1026,-576,-322,166,116,-432
0,1426954,2226,326,-383,-1033,-575,-330,166,116,-432
0,1426968,2226,327,-397,-1035,-577,-331,166,116,-432
0,1426982,2226,327,-397,-1035,-577,-331,166,116,-432
0,1426997,2223,327,-393,-1029,-576,-330,162,108,-434
0,1427012,2223,325,-393,-1033,-578,-328,162,108,-434
0,1427025,2224,325,-392,-1030,-575,-327,162,108,-434
0,1427038,2224,325,-392,-1030,-575,-327,162,108,-434
0,1427052,2228,325,-392,-1034,-577,-327,162,108,-434
0,1427066,2224,327,-390,-1033,-577,-320,162,108,-434
0,1427080,2224,327,-390,-1033,-577,-320,162,108,-434
0,1427094,2222,326,-392,-1035,-573,-324,162,108,-434
0,1427107,2225,325,-395,-1029,-586,-326,162,108,-434
0,1427120,2225,325,-395,-1029,-586,-326,162,108,-434
0,1427134,2225,327,-383,-1035,-580,-333,168,110,-444
0,1427148,2225,327,-383,-1035,-580,-333,168,110,-444
0,1427163,2225,327,-383,-1035,-580,-333,168,110,-444
0,1427177,2224,325,-391,-1031,-585,-327,168,110,-444
0,1427191,2223,327,-390,-1030,-575,-328,168,110,-444
0,1427206,2225,325,-396,-1033,-572,-323,168,110,-444
0,1427221,2225,325,-396,-1033,-572,-323,168,110,-444
0,1427235,2226,324,-393,-1032,-570,-326,168,110,-444
0,1427250,2224,326,-391,-1030,-569,-331,160,108,-436
0,1427264,2224,326,-391,-1030,-569,-331,160,108,-436
0,1427279,2224,323,-391,-1029,-570,-329,160,108,-436
0,1427293,2226,326,-392,-1039,-575,-327,160,108,-436
0,1427305,2226,326,-392,-1039,-575,-327,160,108,-436
0,1427319,2224,325,-391,-1038,-577,-324,160,108,-436
0,1427333,2226,328,-392,-1031,-575,-323,160,108,-436
0,1427347,2223,326,-392,-1033,-581,-325,160,108,-436
0,1427361,2223,326,-392,-1033,-581,-325,160,108,-436
0,1427374,2224,326,-396,-1036,-580,-324,161,105,-435
0,1427385,2223,328,-389,-1026,-575,-322,161,105,-435
0,1427400,2223,328,-389,-1026,-575,-322,161,105,-435
0,1427416,2222,324,-387,-1035,-569,-331,161,105,-435
0,1427431,2223,326,-390,-1035,-577,-329,161,105,-435
0,1427444,2223,326,-390,-1035,-577,-329,161,105,-435
0,1427458,2226,326,-393,-1039,-579,-329,161,105,-435
0,1427472,2226,326,-393,-1039,-579,-329,161,105,-435
0,1427486,2224,326,-391,-1029,-582,-329,161,105,-435
0,1427500,2224,326,-391,-1029,-582,-329,161,105,-435
0,1427515,2223,328,-391,-1033,-582,-328,158,116,-434
0,1427527,2224,325,-388,-1028,-577,-328,158,116,-434
0,1427538,2224,325,-388,-1028,-577,-328,158,116,-434
0,1427553,2226,326,-394,-1029,-573,-333,158,116,-434
0,1427567,2224,326,-398,-1041,-579,-328,158,116,-434
0,1427580,2224,326,-398,-1041,-579,-328,158,116,-434
0,1427595,2226,325,-393,-1033,-578,-326,158,116,-434
0,1427607,2224,328,-392,-1035,-569,-318,158,116,-434
0,1427620,2224,328,-392,-1035,-569,-318,158,116,-434
0,1427636,2224,327,-390,-1028,-580,-323,164,108,-436
0,1427651,2222,326,-386,-1030,-572,-325,164,108,-436
0,1427665,2223,323,-394,-1038,-577,-323,164,108,-436
0,1427679,2223,323,-394,-1038,-577,-323,164,108,-436
0,1427692,2224,326,-393,-1032,-570,-326,164,108,-436
0,1427707,2226,323,-390,-1032,-576,-326,164,108,-436
0,1427721,2226,323,-390,-1032,-576,-326,164,108,-436
0,1427735,2223,327,-383,-1035,-571,-331,164,108,-436
0,1427749,2224,326,-391,-1040,-579,-326,164,108,-436
0,1427764,2224,326,-391,-1040,-579,-326,164,108,-436
0,1427779,2223,328,-385,-1038,-583,-329,167,117,-437
0,1427790,2223,327,-394,-1024,-576,-321,167,117,-437
0,1427804,2223,327,-394,-1024,-576,-321,167,117,-437
0,1427818,2224,325,-391,-1027,-572,-325,167,117,-437
0,1427831,2223,325,-393,-1035,-573,-325,167,117,-437
0,1427846,2227,327,-393,-1035,-577,-329,167,117,-437
0,1427862,2227,327,-393,-1035,-577,-329,167,117,-437
0,1427877,2226,327,-397,-1030,-578,-332,167,117,-437
0,1427893,2226,328,-383,-1037,-582,-330,163,113,-435
0,1427908,2226,328,-393,-1041,-562,-326,163,113,-435
0,1427921,2226,328,-393,-1041,-562,-326,163,113,-435
0,1427935,2222,323,-388,-1053,-576,-323,163,113,-435
0,1427950,2224,327,-394,-1042,-577,-324,163,113,-435
0,1427960,2224,327,-394,-1042,-577,-324,163,113,-435
0,1427976,2226,326,-393,-1032,-579,-329,163,113,-435
0,1427989,2225,327,-393,-1034,-578,-322,163,113,-435
0,1428002,2225,327,-393,-1034,-578,-322,163,113,-435
0,1428017,2224,324,-392,-1033,-570,-327,163,113,-435
0,1428031,2223,327,-392,-1035,-579,-333,164,112,-440
0,1428046,2227,326,-392,-1041,-579,-336,164,112,-440
0,1428062,2227,326,-392,-1041,-579,-336,164,112,-440
0,1428076,2225,326,-396,-1037,-580,-326,164,112,-440
0,1428088,2222,328,-393,-1039,-577,-331,164,112,-440
0,1428104,2222,328,-393,-1039,-577,-331,164,112,-440
0,1428119,2223,325,-393,-1033,-577,-338,164,112,-440
0,1428134,2227,326,-392,-1040,-578,-323,164,112,-440
0,1428148,2225,325,-391,-1045,-573,-326,170,112,-436
0,1428161,2225,325,-391,-1045,-573,-326,170,112,-436
0,1428176,2224,325,-390,-1040,-584,-320,170,112,-436
0,1428189,2223,327,-391,-1037,-582,-316,170,112,-436
0,1428203,2223,327,-391,-1037,-582,-316,170,112,-436
0,1428216,2223,327,-395,-1043,-587,-328,170,112,-436
0,1428232,2226,326,-392,-1032,-577,-329,170,112,-436
0,1428246,2226,326,-392,-1032,-577,-329,170,112,-436
0,1428257,2227,322,-390,-1025,-574,-330,170,112,-436
0,1428272,2227,327,-386,-1036,-581,-326,163,109,-435
0,1428287,2224,326,-387,-1038,-575,-323,163,109,-435
0,1428301,2224,326,-387,-1038,-575,-323,163,109,-435
0,1428314,2228,326,-386,-1031,-582,-327,163,109,-435
0,1428328,2228,324,-393,-1036,-572,-335,163,109,-435
0,1428342,2228,324,-393,-1036,-572,-335,163,109,-435
0,1428356,2226,325,-391,-1035,-569,-329,163,109,-435
0,1428369,2226,327,-396,-1034,-578,-321,163,109,-435
0,1428378,2226,327,-396,-1034,-578,-321,163,109,-435
0,1428391,2225,328,-395,-1041,-579,-321,163,109,-435
0,1428406,2225,328,-395,-1041,-579,-321,163,109,-435
0,1428420,2226,324,-389,-1037,-581,-328,165,105,-431
0,1428434,2225,326,-389,-1034,-574,-323,165,105,-431
0,1428450,2225,328,-391,-1036,-576,-320,165,105,-431
0,1428464,2225,328,-391,-1036,-576,-320,165,105,-431
0,1428475,2226,327,-392,-1038,-578,-329,165,105,-431
0,1428490,2226,327,-392,-1038,-578,-329,165,105,-431
0,1428505,2226,327,-392,-1038,-578,-329,165,105,-431
0,1428519,2225,325,-394,-1049,-580,-320,165,105,-431
0,1428532,2225,325,-393,-1038,-573,-323,164,112,-432
0,1428547,2225,323,-385,-1032,-573,-323,164,112,-432
0,1428562,2225,323,-385,-1032,-573,-323,164,112,-432
0,1428578,2225,326,-390,-1031,-572,-331,164,112,-432
0,1428592,2225,325,-394,-1037,-571,-335,164,112,-432
0,1428606,2225,325,-394,-1037,-571,-335,164,112,-432
0,1428615,2224,326,-388,-1037,-578,-321,164,112,-432
0,1428629,2226,324,-395,-1031,-577,-317,164,112,-432
0,1428643,2226,324,-395,-1031,-577,-317,164,112,-432
0,1428658,2224,325,-392,-1039,-580,-322,164,112,-432
0,1428671,2225,325,-387,-1036,-581,-327,167,115,-439
0,1428685,2225,325,-387,-1036,-581,-327,167,115,-439
0,1428701,2224,326,-390,-1027,-584,-332,167,115,-439
0,1428715,2226,329,-393,-1035,-577,-331,167,115,-439
0,1428727,2226,328,-396,-1035,-580,-330,167,115,-439
0,1428742,2226,328,-396,-1035,-580,-330,167,115,-439
0,1428757,2223,324,-389,-1037,-577,-330,167,115,-439
0,1428771,2225,324,-389,-1032,-572,-326,167,115,-439
0,1428785,2225,324,-389,-1032,-572,-326,167,115,-439
0,1428800,2223,327,-392,-1040,-572,-334,168,114,-442
0,1428814,2225,327,-393,-1038,-576,-330,168,114,-442
0,1428830,2226,325,-389,-1039,-579,-325,168,114,-442
0,1428844,2226,325,-389,-1039,-579,-325,168,114,-442
0,1428857,2222,329,-393,-1038,-580,-326,168,114,-442
0,1428871,2227,324,-390,-1042,-571,-323,168,114,-442
0,1428883,2227,324,-390,-1042,-571,-323,168,114,-442
0,1428896,2226,322,-391,-1029,-577,-327,168,114,-442
0,1428912,2224,327,-391,-1031,-581,-330,168,114,-442
0,1428925,2224,327,-391,-1031,-581,-330,168,114,-442
0,1428938,2224,323,-392,-1029,-572,-328,161,115,-435
0,1428953,2222,326,-389,-1038,-579,-331,161,115,-435
0,1428965,2222,326,-389,-1038,-579,-331,161,115,-435
0,1428977,2223,326,-390,-1043,-582,-328,161,115,-435
0,1428993,2227,327,-400,-1034,-574,-331,161,115,-435
0,1429008,2225,324,-390,-1034,-565,-326,161,115,-435
0,1429023,2225,324,-390,-1034,-565,-326,161,115,-435
0,1429038,2224,328,-387,-1043,-570,-320,161,115,-435
0,1429050,2223,323,-389,-1041,-577,-325,156,112,-436
0,1429065,2223,323,-389,-1041,-577,-325,156,112,-436
0,1429080,2225,327,-394,-1036,-577,-319,156,112,-436
0,1429093,2225,326,-392,-1030,-577,-325,156,112,-436
0,1429106,2225,326,-392,-1030,-577,-325,156,112,-436
0,1429117,2226,325,-389,-1035,-573,-328,156,112,-436
0,1429132,2223,323,-391,-1032,-581,-319,156,112,-436
0,1429145,2223,323,-391,-1032,-581,-319,156,112,-436
0,1429159,2222,326,-397,-1033,-578,-320,156,112,-436
0,1429173,2224,323,-391,-1034,-580,-331,158,110,-434
0,1429187,2224,323,-391,-1034,-580,-331,158,110,-434
0,1429198,2223,327,-394,-1044,-582,-327,158,110,-434
0,1429212,2224,323,-388,-1035,-578,-322,158,110,-434
0,1429227,2224,323,-388,-1035,-578,-322,158,110,-434
0,1429240,2223,325,-390,-1036,-584,-332,158,110,-434
0,1429255,2226,325,-390,-1040,-583,-330,158,110,-434
0,1429269,2222,326,-390,-1042,-576,-326,158,110,-434
0,1429284,2222,326,-390,-1042,-576,-326,158,110,-434
0,1429300,2225,325,-388,-1029,-577,-326,158,110,-434
0,1429314,2225,324,-395,-1032,-576,-325,167,119,-439
0,1429328,2225,327,-395,-1035,-575,-318,167,119,-439
0,1429343,2225,327,-395,-1035,-575,-318,167,119,-439
0,1429357,2225,324,-390,-1033,-579,-321,167,119,-439
0,1429368,2220,325,-398,-1033,-579,-325,167,119,-439
0,1429381,2220,325,-398,-1033,-579,-325,167,119,-439
0,1429395,2224,327,-392,-1031,-575,-330,167,119,-439
0,1429408,2224,327,-392,-1040,-575,-331,167,119,-439
0,1429422,2224,327,-392,-1040,-575,-331,167,119,-439
0,1429437,2225,326,-390,-1033,-574,-324,166,114,-436
0,1429448,2222,326,-389,-1042,-574,-327,166,114,-436
0,1429463,2222,326,-389,-1042,-574,-327,166,114,-436
0,1429477,2223,327,-389,-1037,-578,-335,166,114,-436
0,1429491,2226,323,-395,-1035,-575,-327,166,114,-436
0,1429505,2226,323,-395,-1035,-575,-327,166,114,-436
0,1429520,2227,325,-393,-1039,-578,-329,166,114,-436
0,1429531,2226,322,-392,-1037,-581,-325,166,114,-436
0,1429545,2226,322,-392,-1037,-581,-325,166,114,-436
0,1429561,2225,327,-398,-1036,-571,-334,166,114,-436
0,1429576,2224,327,-391,-1036,-577,-334,160,110,-432
0,1429588,2227,327,-392,-1029,-572,-324,160,110,-432
0,1429601,2227,327,-392,-1029,-572,-324,160,110,-432
0,1429614,2227,325,-393,-1030,-575,-329,160,110,-432
0,1429628,2222,326,-391,-1039,-574,-325,160,110,-432
0,1429642,2222,326,-391,-1039,-574,-325,160,110,-432
0,1429655,2228,326,-391,-1037,-579,-324,160,110,-432
0,1429667,2228,326,-391,-1037,-579,-324,160,110,-432
0,1429681,2226,325,-396,-1037,-575,-321,160,110,-432
0,1429694,2225,330,-383,-1038,-580,-331,166,112,-436
0,1429708,2228,325,-385,-1031,-574,-325,166,112,-436
0,1429723,2228,325,-385,-1031,-574,-325,166,112,-436
0,1429738,2223,324,-391,-1034,-572,-325,166,112,-436
0,1429751,2225,327,-397,-1031,-575,-329,166,112,-436
0,1429766,2225,327,-397,-1031,-575,-329,166,112,-436
0,1429780,2224,325,-397,-1029,-577,-328,166,112,-436
0,1429795,2225,322,-396,-1030,-571,-328,166,112,-436
0,1429810,2229,325,-397,-1045,-577,-332,166,112,-436
0,1429822,2229,325,-397,-1045,-577,-332,166,112,-436
0,1429834,2223,326,-392,-1048,-579,-329,166,112,-436
0,1429849,2223,328,-389,-1036,-577,-321,166,112,-436
0,1429862,2223,328,-389,-1036,-577,-321,166,112,-436
0,1429876,2228,326,-396,-1039,-576,-324,166,112,-436
0,1429888,2228,326,-396,-1039,-576,-324,166,112,-436
0,1429902,2225,326,-386,-1033,-571,-332,166,112,-436
0,1429915,2227,329,-391,-1033,-576,-325,166,112,-436
0,1429928,2226,328,-391,-1033,-575,-325,166,112,-436
0,1429943,2226,328,-391,-1033,-575,-325,166,112,-436
0,1429958,2225,328,-383,-1031,-570,-324,169,113,-439
0,1429970,2227,327,-388,-1040,-586,-328,169,113,-439
0,1429983,2227,327,-388,-1040,-586,-328,169,113,-439
0,1429998,2225,326,-392,-1040,-580,-320,169,113,-439
0,1430012,2224,326,-390,-1031,-577,-332,169,113,-439
0,1430027,2224,326,-390,-1031,-577,-332,169,113,-439
0,1430039,2226,327,-393,-1032,-575,-332,169,113,-439
0,1430052,2224,327,-393,-1035,-580,-330,169,113,-439
0,1430066,2224,327,-393,-1035,-580,-330,169,113,-439
0,1430079,2223,327,-394,-1046,-575,-334,163,115,-433
0,1430092,2222,326,-397,-1036,-572,-328,163,115,-433
0,1430106,2222,326,-397,-1036,-572,-328,163,115,-433
0,1430118,2227,327,-394,-1033,-576,-329,163,115,-433
0,1430132,2223,327,-393,-1033,-574,-324,163,115,-433
0,1430146,2223,327,-393,-1033,-574,-324,163,115,-433
0,1430159,2223,325,-395,-1041,-570,-326,163,115,-433
0,1430174,2225,326,-395,-1035,-577,-330,163,115,-433
0,1430189,2225,325,-396,-1029,-574,-330,163,115,-433
0,1430204,2225,325,-396,-1029,-574,-330,163,115,-433
0,1430219,2223,326,-391,-1031,-576,-331,165,109,-439
0,1430233,2223,326,-391,-1031,-576,-331,165,109,-439
0,1430247,2223,326,-391,-1031,-576,-331,165,109,-439
0,1430259,2223,327,-391,-1036,-574,-330,165,109,-439
0,1430273,2225,323,-394,-1032,-571,-332,165,109,-439
0,1430287,2225,323,-394,-1032,-571,-332,165,109,-439
0,1430301,2223,325,-390,-1038,-577,-334,165,109,-439
0,1430315,2222,325,-391,-1042,-574,-335,165,109,-439
0,1430328,2222,325,-391,-1042,-574,-335,165,109,-439
0,1430341,2225,326,-389,-1038,-570,-332,163,107,-433
0,1430351,2223,327,-397,-1034,-572,-321,163,107,-433
0,1430365,2223,327,-397,-1034,-572,-321,163,107,-433
0,1430377,2224,326,-391,-1030,-572,-327,163,107,-433
0,1430392,2226,326,-391,-1038,-579,-325,163,107,-433
0,1430408,2226,326,-391,-1038,-579,-325,163,107,-433
0,1430421,2224,326,-396,-1035,-571,-325,163,107,-433
0,1430434,2224,324,-392,-1029,-574,-329,163,107,-433
0,1430449,2223,324,-389,-1036,-571,-326,163,107,-433
0,1430459,2223,324,-389,-1036,-571,-326,163,107,-433
0,1430473,2224,325,-385,-1034,-575,-322,165,109,-437
0,1430489,2224,325,-383,-1040,-582,-324,165,109,-437
0,1430502,2224,325,-383,-1040,-582,-324,165,109,-437
0,1430515,2223,328,-397,-1029,-580,-327,165,109,-437
0,1430530,2218,326,-395,-1042,-578,-328,165,109,-437
0,1430541,2218,326,-395,-1042,-578,-328,165,109,-437
0,1430555,2226,322,-390,-1037,-575,-332,165,109,-437
0,1430568,2220,326,-396,-1043,-576,-332,165,109,-437
0,1430583,2220,326,-396,-1043,-576,-332,165,109,-437
0,1430596,2225,326,-390,-1036,-583,-331,177,109,-431
0,1430610,2224,327,-388,-1040,-582,-323,177,109,-431
0,1430622,2224,327,-388,-1040,-582,-323,177,109,-431
0,1430635,2223,324,-392,-1037,-577,-325,177,109,-431
0,1430650,2222,324,-394,-1034,-573,-327,177,109,-431
0,1430664,2222,324,-394,-1034,-573,-327,177,109,-431
0,1430679,2223,326,-394,-1033,-582,-331,177,109,-431
0,1430693,2223,325,-389,-1031,-566,-331,177,109,-431
0,1430709,2223,325,-389,-1031,-566,-331,177,109,-431
0,1430724,2222,323,-388,-1034,-578,-323,162,118,-436
0,1430738,2223,328,-385,-1041,-581,-326,162,118,-436
0,1430752,2223,321,-388,-1039,-578,-331,162,118,-436
0,1430765,2223,321,-388,-1039,-578,-331,162,118,-436
0,1430779,2225,324,-392,-1034,-575,-329,162,118,-436
0,1430792,2221,326,-395,-1042,-576,-326,162,118,-436
0,1430806,2221,326,-395,-1042,-576,-326,162,118,-436
0,1430819,2224,325,-395,-1034,-578,-330,162,118,-436
0,1430833,2227,323,-389,-1028,-572,-322,162,118,-436
0,1430847,2227,323,-389,-1028,-572,-322,162,118,-436
0,1430861,2226,326,-388,-1036,-571,-329,160,106,-440
0,1430872,2225,327,-388,-1034,-576,-330,160,106,-440
0,1430886,2225,327,-388,-1034,-576,-330,160,106,-440
0,1430901,2225,327,-388,-1034,-576,-330,160,106,-440
0,1430915,2221,326,-386,-1036,-581,-329,160,106,-440
0,1430928,2221,326,-386,-1036,-581,-329,160,106,-440
0,1430942,2225,326,-395,-1033,-576,-326,160,106,-440
0,1430958,2225,326,-392,-1044,-578,-323,160,106,-440
0,1430971,2226,325,-391,-1043,-571,-324,160,114,-440
0,1430984,2226,325,-391,-1043,-571,-324,160,114,-440
0,1430999,2223,325,-391,-1039,-570,-324,160,114,-440
0,1431010,2224,324,-384,-1043,-579,-324,160,114,-440
0,1431024,2224,324,-384,-1043,-579,-324,160,114,-440
0,1431038,2224,324,-394,-1033,-566,-323,160,114,-440
0,1431052,2225,324,-388,-1036,-570,-328,160,114,-440
0,1431065,2225,324,-388,-1036,-570,-328,160,114,-440
0,1431079,2226,324,-390,-1034,-577,-327,160,114,-440
0,1431094,2221,325,-395,-1039,-584,-330,160,114,-440
0,1431106,2221,325,-395,-1039,-584,-330,160,114,-440
0,1431120,2226,325,-387,-1041,-577,-326,161,111,-443
0,1431136,2229,325,-388,-1040,-584,-330,161,111,-443
0,1431151,2226,322,-395,-1041,-576,-330,161,111,-443
0,1431164,2226,322,-395,-1041,-576,-330,161,111,-443
0,1431176,2226,326,-391,-1044,-577,-331,161,111,-443
0,1431190,2225,325,-394,-1039,-575,-329,161,111,-443
0,1431203,2225,325,-394,-1039,-575,-329,161,111,-443
0,1431218,2224,324,-395,-1032,-577,-327,161,111,-443
0,1431230,2221,325,-391,-1037,-573,-326,164,120,-434
0,1431243,2221,325,-391,-1037,-573,-326,164,120,-434
0,1431257,2227,326,-387,-1034,-577,-325,164,120,-434
0,1431270,2226,327,-392,-1037,-569,-330,164,120,-434
0,1431284,2226,327,-392,-1037,-569,-330,164,120,-434
0,1431298,2223,321,-390,-1042,-580,-329,164,120,-434
0,1431309,2223,321,-390,-1042,-580,-329,164,120,-434
0,1431322,2227,324,-394,-1041,-580,-322,164,120,-434
0,1431335,2225,324,-394,-1036,-571,-326,164,120,-434
0,1431350,2223,323,-392,-1035,-574,-324,164,120,-434
0,1431364,2223,323,-392,-1035,-574,-324,164,120,-434
0,1431379,2225,324,-394,-1037,-578,-332,156,108,-438
0,1431393,2225,326,-388,-1037,-578,-327,156,108,-438
0,1431402,2225,326,-388,-1037,-578,-327,156,108,-438
0,1431414,2225,328,-392,-1043,-571,-326,156,108,-438
0,1431428,2225,328,-392,-1043,-571,-326,156,108,-438
0,1431443,2221,322,-394,-1039,-570,-328,156,108,-438
0,1431456,2224,326,-396,-1035,-572,-331,156,108,-438
0,1431470,2224,326,-396,-1035,-572,-331,156,108,-438
0,1431480,2225,326,-391,-1041,-581,-323,156,108,-438
0,1431495,2222,324,-387,-1040,-576,-323,163,117,-437
0,1431507,2222,324,-387,-1040,-576,-323,163,117,-437
0,1431521,2226,324,-389,-1043,-579,-328,163,117,-437
0,1431534,2228,327,-398,-1045,-581,-322,163,117,-437
0,1431548,2228,327,-398,-1045,-581,-322,163,117,-437
0,1431564,2226,328,-393,-1037,-578,-328,163,117,-437
0,1431577,2225,327,-392,-1032,-578,-330,163,117,-437
0,1431590,2225,327,-392,-1032,-578,-330,163,117,-437
0,1431607,2225,327,-392,-1032,-578,-330,163,117,-437
0,1431621,2229,326,-390,-1036,-581,-329,167,111,-435
0,1431635,2226,326,-394,-1034,-579,-326,167,111,-435
0,1431648,2226,326,-394,-1034,-579,-326,167,111,-435
0,1431661,2225,324,-395,-1039,-578,-326,167,111,-435
0,1431674,2228,323,-393,-1033,-577,-324,167,111,-435
0,1431688,2228,323,-393,-1033,-577,-324,167,111,-435
0,1431702,2226,327,-392,-1043,-578,-328,167,111,-435
0,1431715,2225,326,-393,-1034,-575,-332,167,111,-435
0,1431731,2224,324,-392,-1039,-569,-326,167,111,-435
0,1431745,2224,324,-392,-1039,-569,-326,167,111,-435
0,1431757,2222,323,-389,-1031,-576,-324,167,105,-439
0,1431771,2223,327,-389,-1036,-576,-330,167,105,-439
0,1431786,2223,327,-389,-1036,-576,-330,167,105,-439
0,1431800,2224,325,-387,-1037,-580,-328,167,105,-439
0,1431816,2223,327,-388,-1039,-577,-318,167,105,-439
0,1431830,2223,327,-388,-1039,-577,-318,167,105,-439
0,1431845,2223,327,-387,-1034,-572,-320,167,105,-439
0,1431860,2223,325,-398,-1030,-574,-328,167,105,-439
0,1431873,2222,327,-394,-1033,-574,-327,163,111,-435
0,1431887,2222,327,-394,-1033,-574,-327,163,111,-435
0,1431900,2225,327,-390,-1036,-575,-332,163,111,-435
0,1431912,2223,324,-388,-1036,-576,-328,163,111,-435
0,1431926,2223,324,-388,-1036,-576,-328,163,111,-435
0,1431940,2224,326,-391,-1026,-577,-331,163,111,-435
0,1431954,2225,322,-391,-1029,-574,-329,163,111,-435
0,1431967,2225,322,-391,-1029,-574,-329,163,111,-435
0,1431977,2226,324,-391,-1040,-580,-327,163,111,-435
0,1431991,2228,325,-391,-1033,-571,-332,163,111,-435
0,1432005,2228,325,-391,-1033,-571,-332,163,111,-435
0,1432018,2224,326,-389,-1040,-569,-334,166,110,-434
0,1432031,2224,326,-389,-1040,-569,-334,166,110,-434
0,1432043,2224,323,-388,-1031,-575,-322,166,110,-434
0,1432058,2228,327,-393,-1023,-575,-324,166,110,-434
0,1432074,2224,321,-387,-1036,-580,-328,166,110,-434
0,1432088,2224,321,-387,-1036,-580,-328,166,110,-434
0,1432099,2222,325,-391,-1036,-577,-325,166,110,-434
0,1432113,2226,327,-393,-1034,-578,-328,166,110,-434
0,1432127,2226,327,-393,-1034,-578,-328,166,110,-434
0,1432140,2223,325,-386,-1045,-579,-322,166,106,-434
0,1432155,2224,324,-390,-1039,-577,-329,166,106,-434
0,1432167,2224,324,-390,-1039,-577,-329,166,106,-434
0,1432179,2221,326,-395,-1041,-576,-319,166,106,-434
0,1432193,2224,323,-391,-1035,-580,-326,166,106,-434
0,1432206,2224,323,-391,-1035,-580,-326,166,106,-434
0,1432220,2223,325,-387,-1035,-578,-326,166,106,-434
0,1432233,2225,330,-395,-1038,-577,-324,166,106,-434
0,1432245,2225,330,-395,-1038,-577,-324,166,106,-434
0,1432260,2226,327,-395,-1033,-577,-327,166,106,-434
0,1432275,2225,329,-384,-1043,-582,-330,164,116,-434
0,1432291,2225,329,-384,-1043,-582,-330,164,116,-434
0,1432305,2225,325,-390,-1038,-577,-325,164,116,-434
0,1432316,2224,327,-387,-1039,-582,-323,164,116,-434
0,1432331,2224,327,-387,-1039,-582,-323,164,116,-434
0,1432344,2222,325,-392,-1035,-577,-326,164,116,-434
0,1432358,2224,325,-392,-1033,-579,-334,164,116,-434
0,1432372,2225,323,-394,-1038,-579,-322,164,116,-434
0,1432385,2225,323,-394,-1038,-579,-322,164,116,-434
0,1432399,2223,325,-389,-1029,-573,-330,161,111,-441
0,1432414,2224,324,-393,-1029,-573,-331,161,111,-441
0,1432428,2224,324,-393,-1029,-573,-331,161,111,-441
0,1432441,2226,325,-384,-1032,-570,-325,161,111,-441
0,1432455,2226,324,-391,-1035,-574,-329,161,111,-441
0,1432469,2226,324,-391,-1035,-574,-329,161,111,-441
0,1432483,2223,326,-393,-1041,-580,-332,161,111,-441
0,1432496,2224,324,-391,-1043,-584,-331,161,111,-441
0,1432510,2224,324,-391,-1043,-584,-331,161,111,-441
0,1432525,2224,328,-396,-1037,-577,-322,159,115,-427
0,1432540,2227,324,-385,-1045,-575,-324,159,115,-427
0,1432551,2227,324,-385,-1045,-575,-324,159,115,-427
0,1432566,2221,324,-391,-1045,-581,-326,159,115,-427
0,1432580,2222,325,-391,-1034,-578,-324,159,115,-427
0,1432593,2224,325,-392,-1030,-580,-329,159,115,-427
0,1432607,2224,325,-392,-1030,-580,-329,159,115,-427
0,1432620,2226,327,-392,-1038,-576,-330,159,115,-427
0,1432635,2224,325,-392,-1035,-572,-324,159,115,-427
0,1432647,2224,325,-392,-1035,-572,-324,159,115,-427
0,1432660,2227,328,-387,-1038,-575,-326,161,115,-441
0,1432674,2226,322,-388,-1037,-576,-322,161,115,-441
0,1432688,2226,322,-388,-1037,-576,-322,161,115,-441
0,1432700,2225,326,-393,-1041,-574,-330,161,115,-441
0,1432714,2223,327,-393,-1043,-577,-330,161,115,-441
0,1432729,2223,327,-393,-1043,-577,-330,161,115,-441
0,1432743,2224,324,-393,-1036,-577,-327,161,115,-441
0,1432758,2225,326,-389,-1032,-575,-329,161,115,-441
0,1432771,2225,326,-389,-1032,-575,-329,161,115,-441
0,1432785,2225,331,-390,-1035,-575,-328,169,105,-431
0,1432801,2224,325,-386,-1041,-574,-329,169,105,-431
0,1432815,2224,323,-392,-1041,-573,-330,169,105,-431
0,1432828,2224,323,-392,-1041,-573,-330,169,105,-431
0,1432843,2222,325,-394,-1038,-566,-333,169,105,-431
0,1432854,2226,324,-393,-1037,-580,-326,169,105,-431
0,1432866,2226,324,-393,-1037,-580,-326,169,105,-431
0,1432880,2224,325,-390,-1034,-579,-325,169,105,-431
0,1432894,2223,324,-388,-1035,-576,-324,169,105,-431
0,1432907,2223,324,-388,-1035,-576,-324,169,105,-431
0,1432918,2225,328,-389,-1040,-578,-325,170,118,-432
0,1432931,2225,328,-389,-1040,-578,-325,170,118,-432
0,1432944,2224,325,-388,-1027,-576,-326,170,118,-432
0,1432957,2223,327,-394,-1028,-576,-329,170,118,-432
0,1432972,2225,325,-387,-1030,-570,-322,170,118,-432
0,1432987,2225,325,-387,-1030,-570,-322,170,118,-432
0,1433000,2224,325,-390,-1027,-574,-327,170,118,-432
0,1433014,2225,326,-388,-1028,-571,-325,170,118,-432
0,1433029,2225,326,-388,-1028,-571,-325,170,118,-432
0,1433043,2225,326,-384,-1040,-575,-329,163,121,-435
0,1433055,2225,326,-382,-1034,-574,-327,163,121,-435
0,1433068,2225,326,-382,-1034,-574,-327,163,121,-435
0,1433081,2223,329,-388,-1037,-579,-326,163,121,-435
0,1433095,2226,331,-387,-1027,-569,-328,163,121,-435
0,1433108,2226,331,-387,-1027,-569,-328,163,121,-435
0,1433123,2224,328,-393,-1027,-564,-328,163,121,-435
0,1433135,2225,325,-390,-1032,-579,-325,163,121,-435
0,1433149,2225,325,-390,-1032,-579,-325,163,121,-435
0,1433162,2226,327,-395,-1043,-578,-334,163,121,-435
0,1433176,2226,327,-395,-1043,-578,-334,169,115,-435
0,1433190,2226,327,-395,-1043,-578,-334,169,115,-435
0,1433205,2225,326,-390,-1032,-574,-323,169,115,-435
0,1433221,2224,325,-395,-1031,-572,-319,169,115,-435
0,1433234,2228,328,-395,-1038,-579,-338,169,115,-435
0,1433247,2228,328,-395,-1038,-579,-338,169,115,-435
0,1433263,2226,324,-395,-1035,-574,-330,169,115,-435
0,1433275,2225,327,-394,-1035,-566,-333,169,115,-435
0,1433286,2225,327,-394,-1035,-566,-333,169,115,-435
0,1433300,2227,327,-392,-1033,-574,-326,166,106,-440
0,1433314,2227,329,-396,-1036,-572,-326,166,106,-440
0,1433327,2227,329,-396,-1036,-572,-326,166,106,-440
0,1433341,2223,329,-391,-1034,-572,-327,166,106,-440
0,1433355,2226,325,-390,-1044,-577,-327,166,106,-440
0,1433367,2226,325,-390,-1044,-577,-327,166,106,-440
0,1433380,2225,326,-391,-1035,-572,-330,166,106,-440
0,1433393,2225,323,-393,-1035,-575,-330,166,106,-440
0,1433406,2225,323,-393,-1035,-575,-330,166,106,-440
0,1433417,2223,326,-389,-1041,-576,-326,156,110,-440
0,1433433,2225,327,-390,-1041,-575,-327,156,110,-440
0,1433450,2225,327,-390,-1041,-575,-327,156,110,-440
0,1433465,2223,329,-394,-1035,-569,-320,156,110,-440
0,1433480,2226,325,-393,-1033,-570,-325,156,110,-440
0,1433491,2226,325,-393,-1033,-570,-325,156,110,-440
0,1433503,2223,325,-391,-1035,-581,-327,156,110,-440
0,1433518,2224,325,-393,-1037,-577,-329,156,110,-440
0,1433531,2224,325,-393,-1037,-577,-329,156,110,-440
0,1433544,2222,328,-390,-1040,-578,-326,156,110,-440
0,1433558,2225,327,-390,-1033,-577,-328,161,115,-439
0,1433569,2225,327,-390,-1033,-577,-328,161,115,-439
0,1433582,2227,326,-391,-1037,-575,-324,161,115,-439
0,1433595,2226,325,-388,-1041,-581,-329,161,115,-439
0,1433610,2226,325,-388,-1041,-581,-329,161,115,-439
0,1433621,2226,325,-389,-1037,-579,-327,161,115,-439
0,1433634,2226,324,-395,-1037,-578,-325,161,115,-439
0,1433650,2226,324,-395,-1037,-578,-325,161,115,-439
0,1433662,2225,327,-395,-1030,-577,-330,161,115,-439
0,1433676,2223,326,-389,-1035,-574,-324,170,110,-430
0,1433692,2223,326,-389,-1035,-574,-324,170,110,-430
0,1433707,2227,328,-390,-1042,-570,-328,170,110,-430
0,1433721,2223,327,-389,-1045,-572,-324,170,110,-430
0,1433735,2228,328,-386,-1029,-577,-332,170,110,-430
0,1433748,2228,328,-386,-1029,-577,-332,170,110,-430
0,1433762,2225,326,-392,-1035,-577,-329,170,110,-430
0,1433775,2225,325,-397,-1038,-577,-323,170,110,-430
0,1433791,2225,325,-397,-1038,-577,-323,170,110,-430
0,1433806,2224,325,-393,-1040,-580,-328,170,110,-430
0,1433820,2225,327,-389,-1036,-581,-330,165,107,-433
0,1433833,2223,328,-391,-1035,-581,-329,165,107,-433
0,1433846,2223,328,-391,-1035,-581,-329,165,107,-433
0,1433861,2222,328,-394,-1027,-577,-322,165,107,-433
0,1433873,2224,325,-391,-1027,-573,-323,165,107,-433
0,1433883,2224,325,-391,-1027,-573,-323,165,107,-433
0,1433896,2224,328,-393,-1020,-570,-333,165,107,-433
0,1433912,2224,328,-393,-1020,-570,-333,165,107,-433
0,1433927,2223,327,-386,-1049,-580,-326,165,107,-433
0,1433943,2223,328,-392,-1045,-576,-328,172,106,-442
0,1433959,2223,326,-392,-1042,-575,-318,172,106,-442
0,1433974,2224,324,-394,-1037,-573,-329,172,106,-442
0,1433988,2224,324,-394,-1037,-573,-329,172,106,-442
0,1434000,2225,324,-392,-1035,-574,-328,172,106,-442
0,1434014,2226,330,-393,-1041,-572,-322,172,106,-442
0,1434025,2226,330,-393,-1041,-572,-322,172,106,-442
0,1434041,2226,327,-393,-1048,-581,-324,172,106,-442
0,1434053,2226,327,-393,-1048,-581,-324,172,106,-442
0,1434066,2226,325,-392,-1037,-583,-327,161,113,-433
0,1434080,2222,328,-390,-1032,-575,-333,161,113,-433
0,1434094,2225,326,-390,-1038,-579,-325,161,113,-433
0,1434105,2225,326,-390,-1038,-579,-325,161,113,-433
0,1434121,2225,324,-391,-1034,-579,-327,161,113,-433
0,1434135,2223,328,-392,-1030,-578,-326,161,113,-433
0,1434147,2223,328,-392,-1030,-578,-326,161,113,-433
0,1434161,2223,327,-392,-1041,-582,-329,161,113,-433
0,1434175,2225,328,-386,-1043,-579,-323,161,113,-433
0,1434189,2225,328,-386,-1043,-579,-323,161,113,-433
0,1434201,2225,327,-391,-1048,-581,-323,162,108,-432
0,1434214,2222,325,-391,-1034,-575,-320,162,108,-432
0,1434225,2222,325,-391,-1034,-575,-320,162,108,-432
0,1434240,2224,326,-393,-1035,-574,-322,162,108,-432
0,1434253,2224,326,-393,-1035,-574,-322,162,108,-432
0,1434266,2222,325,-393,-1041,-574,-331,162,108,-432
0,1434279,2222,325,-393,-1041,-574,-331,162,108,-432
0,1434293,2222,325,-393,-1041,-574,-331,162,108,-432
0,1434305,2221,328,-398,-1031,-567,-329,162,108,-432
0,1434318,2223,325,-392,-1032,-570,-329,175,113,-437
0,1434332,2223,325,-392,-1032,-570,-329,175,113,-437
0,1434347,2226,328,-389,-1038,-567,-330,175,113,-437
0,1434362,2225,327,-389,-1036,-572,-333,175,113,-437
0,1434374,2225,327,-389,-1036,-572,-333,175,113,-437
0,1434381,2228,328,-395,-1029,-572,-331,175,113,-437
0,1434395,2224,325,-397,-1037,-578,-328,175,113,-437
0,1434411,2224,325,-397,-1037,-578,-328,175,113,-437
0,1434426,2226,328,-391,-1040,-577,-326,175,113,-437
0,1434439,2224,323,-395,-1040,-579,-324,175,113,-437
0,1434452,2224,323,-395,-1040,-579,-324,175,113,-437
0,1434466,2221,322,-389,-1040,-573,-320,165,107,-433
0,1434478,2225,325,-387,-1039,-579,-325,165,107,-433
0,1434492,2225,325,-387,-1039,-579,-325,165,107,-433
0,1434506,2226,327,-393,-1039,-574,-327,165,107,-433
0,1434519,2224,327,-394,-1039,-582,-328,165,107,-433
0,1434532,2224,327,-394,-1039,-582,-328,165,107,-433
0,1434548,2226,326,-394,-1033,-574,-327,165,107,-433
0,1434562,2224,325,-394,-1028,-575,-333,165,107,-433
0,1434574,2226,327,-388,-1030,-573,-331,168,112,-442
0,1434589,2226,327,-388,-1030,-573,-331,168,112,-442
0,1434605,2224,328,-390,-1041,-574,-323,168,112,-442
0,1434620,2226,327,-394,-1034,-578,-327,168,112,-442
0,1434634,2226,327,-394,-1034,-578,-327,168,112,-442
0,1434646,2223,324,-389,-1030,-578,-323,168,112,-442
0,1434659,2223,324,-389,-1030,-578,-323,168,112,-442
0,1434673,2223,324,-389,-1030,-578,-323,168,112,-442
0,1434687,2224,326,-395,-1034,-576,-324,168,112,-442
0,1434700,2223,325,-390,-1030,-573,-322,168,112,-442
0,1434715,2223,327,-386,-1035,-577,-328,158,104,-438
0,1434726,2223,327,-386,-1035,-577,-328,158,104,-438
0,1434740,2223,328,-390,-1036,-583,-324,158,104,-438
0,1434756,2222,324,-389,-1032,-578,-323,158,104,-438
0,1434772,2222,324,-389,-1032,-578,-323,158,104,-438
0,1434784,2224,324,-395,-1035,-575,-325,158,104,-438
0,1434792,2224,324,-395,-1035,-575,-325,158,104,-438
0,1434800,2225,327,-391,-1034,-576,-328,158,104,-438
0,1434809,2225,327,-391,-1034,-576,-328,158,104,-438
0,1434821,2222,328,-391,-1045,-580,-324,158,104,-438
0,1434836,2221,326,-390,-1038,-570,-327,169,105,-433
0,1434850,2221,326,-390,-1038,-570,-327,169,105,-433
0,1434861,2225,327,-389,-1039,-575,-336,169,105,-433
0,1434875,2226,327,-390,-1033,-581,-325,169,105,-433
0,1434889,2226,327,-390,-1033,-581,-325,169,105,-433
0,1434902,2228,327,-397,-1045,-575,-323,169,105,-433
0,1434916,2227,325,-388,-1040,-579,-328,169,105,-433
0,1434930,2227,325,-388,-1040,-579,-328,169,105,-433
0,1434945,2223,325,-394,-1041,-581,-325,169,105,-433
0,1434958,2223,324,-391,-1034,-575,-325,163,113,-437
0,1434974,2223,324,-391,-1034,-575,-325,163,113,-437
0,1434986,2223,327,-392,-1036,-580,-328,163,113,-437
0,1435000,2223,327,-390,-1024,-580,-328,163,113,-437
0,1435016,2221,325,-390,-1033,-578,-332,163,113,-437
0,1435031,2221,325,-390,-1033,-578,-332,163,113,-437
0,1435046,2225,326,-391,-1041,-584,-327,163,113,-437
0,1435061,2225,325,-390,-1038,-580,-329,163,113,-437
0,1435074,2225,325,-390,-1038,-580,-329,163,113,-437
0,1435083,2221,324,-390,-1037,-579,-329,163,113,-437
0,1435096,2224,325,-392,-1029,-570,-327,162,112,-432
0,1435109,2224,325,-392,-1029,-570,-327,162,112,-432
0,1435123,2223,325,-393,-1038,-579,-327,162,112,-432
0,1435137,2225,326,-395,-1042,-575,-322,162,112,-432
0,1435150,2225,326,-395,-1042,-575,-322,162,112,-432
0,1435164,2224,326,-392,-1048,-579,-323,162,112,-432
0,1435177,2224,326,-392,-1048,-579,-323,162,112,-432
0,1435192,2224,326,-392,-1048,-579,-323,162,112,-432
0,1435205,2223,326,-388,-1036,-576,-326,162,112,-432
0,1435218,2223,327,-388,-1044,-579,-323,158,114,-436
0,1435234,2223,327,-388,-1044,-579,-323,158,114,-436
0,1435246,2225,326,-391,-1042,-576,-324,158,114,-436
0,1435260,2225,328,-393,-1043,-577,-319,158,114,-436
0,1435276,2226,328,-386,-1039,-576,-326,158,114,-436
0,1435287,2226,328,-386,-1039,-576,-326,158,114,-436
0,1435300,2224,328,-391,-1028,-575,-329,158,114,-436
0,1435316,2224,327,-396,-1031,-575,-326,158,114,-436
0,1435330,2224,327,-396,-1031,-575,-326,158,114,-436
0,1435344,2224,327,-390,-1034,-573,-329,158,114,-436
0,1435358,2224,322,-393,-1036,-574,-327,161,105,-433
0,1435372,2224,322,-393,-1036,-574,-327,161,105,-433
0,1435384,2221,327,-387,-1038,-574,-326,161,105,-433
0,1435398,2226,323,-396,-1038,-567,-329,161,105,-433
0,1435411,2226,323,-396,-1038,-567,-329,161,105,-433
0,1435424,2223,326,-389,-1037,-578,-320,161,105,-433
0,1435438,2224,328,-388,-1029,-579,-319,161,105,-433
0,1435452,2224,328,-388,-1029,-579,-319,161,105,-433
0,1435464,2221,327,-389,-1034,-576,-326,161,105,-433
0,1435478,2226,326,-387,-1040,-580,-326,168,112,-436
0,1435492,2226,326,-387,-1040,-580,-326,168,112,-436
0,1435504,2225,325,-385,-1040,-575,-328,168,112,-436
0,1435520,2224,322,-400,-1042,-573,-329,168,112,-436
0,1435535,2224,322,-400,-1042,-573,-329,168,112,-436
0,1435550,2225,326,-388,-1043,-577,-327,168,112,-436
0,1435566,2222,327,-390,-1034,-580,-331,168,112,-436
0,1435579,2222,325,-393,-1029,-567,-326,168,112,-436
0,1435592,2222,325,-393,-1029,-567,-326,168,112,-436
0,1435608,2223,325,-393,-1035,-570,-330,168,112,-436
0,1435619,2225,325,-389,-1038,-571,-328,166,108,-436
0,1435631,2225,325,-389,-1038,-571,-328,166,108,-436
0,1435644,2227,326,-392,-1028,-571,-335,166,108,-436
0,1435658,2224,323,-392,-1031,-578,-327,166,108,-436
0,1435671,2224,323,-392,-1031,-578,-327,166,108,-436
0,1435684,2224,325,-388,-1032,-577,-324,166,108,-436
0,1435696,2224,328,-390,-1036,-583,-329,166,108,-436
0,1435710,2224,328,-390,-1036,-583,-329,166,108,-436
0,1435722,2224,327,-391,-1039,-580,-331,166,108,-436
0,1435738,2223,326,-386,-1040,-573,-331,166,110,-434
0,1435752,2223,326,-386,-1040,-573,-331,166,110,-434
0,1435764,2228,329,-383,-1035,-570,-329,166,110,-434
0,1435779,2226,326,-394,-1029,-576,-327,166,110,-434
0,1435794,2226,326,-394,-1029,-576,-327,166,110,-434
0,1435809,2225,327,-391,-1029,-569,-323,166,110,-434
0,1435823,2224,326,-395,-1035,-573,-325,166,110,-434
0,1435836,2225,327,-394,-1039,-572,-330,166,110,-434
0,1435851,2225,327,-394,-1039,-572,-330,166,110,-434
0,1435866,2224,327,-391,-1033,-583,-326,164,108,-432
0,1435880,2226,328,-387,-1041,-580,-327,164,108,-432
0,1435893,2226,328,-387,-1041,-580,-327,164,108,-432
0,1435907,2223,325,-391,-1035,-578,-329,164,108,-432
0,1435921,2226,326,-391,-1040,-579,-325,164,108,-432
0,1435935,2225,327,-397,-1039,-577,-320,164,108,-432
0,1435948,2225,327,-397,-1039,-577,-320,164,108,-432
0,1435961,2226,326,-395,-1038,-573,-322,164,108,-432
0,1435974,2226,326,-395,-1038,-573,-322,164,108,-432
0,1435988,2223,324,-391,-1037,-577,-326,164,108,-432
0,1436003,2228,324,-386,-1041,-574,-325,163,115,-439
0,1436015,2228,324,-386,-1041,-574,-325,163,115,-439
0,1436029,2224,325,-391,-1038,-579,-325,163,115,-439
0,1436045,2223,324,-390,-1029,-573,-322,163,115,-439
0,1436060,2224,327,-396,-1031,-571,-331,163,115,-439
0,1436075,2224,327,-396,-1031,-571,-331,163,115,-439
0,1436087,2225,323,-394,-1037,-579,-320,163,115,-439
0,1436101,2221,326,-385,-1040,-576,-322,163,115,-439
0,1436114,2221,326,-385,-1040,-576,-322,163,115,-439
0,1436128,2224,326,-385,-1040,-575,-330,169,107,-435
0,1436141,2225,325,-389,-1033,-566,-327,169,107,-435
0,1436153,2225,325,-389,-1033,-566,-327,169,107,-435
0,1436166,2224,324,-393,-1038,-569,-328,169,107,-435
0,1436181,2223,325,-389,-1039,-574,-323,169,107,-435
0,1436196,2223,326,-394,-1047,-581,-324,169,107,-435
0,1436206,2223,326,-394,-1047,-581,-324,169,107,-435
0,1436220,2222,325,-391,-1044,-575,-324,169,107,-435
0,1436231,2222,325,-391,-1044,-575,-324,169,107,-435
0,1436247,2224,326,-394,-1042,-583,-329,169,107,-435
0,1436261,2225,325,-393,-1036,-579,-329,162,102,-430
0,1436275,2225,325,-393,-1036,-579,-329,162,102,-430
0,1436288,2223,324,-392,-1035,-580,-328,162,102,-430
0,1436302,2220,326,-390,-1034,-584,-332,162,102,-430
0,1436315,2220,326,-390,-1034,-584,-332,162,102,-430
0,1436329,2227,323,-386,-1038,-584,-331,162,102,-430
0,1436343,2226,322,-390,-1042,-580,-328,162,102,-430
0,1436356,2226,322,-390,-1042,-580,-328,162,102,-430
0,1436371,2226,324,-390,-1043,-588,-326,162,102,-430
0,1436385,2224,325,-390,-1038,-578,-326,155,113,-431
0,1436399,2221,327,-390,-1031,-576,-327,155,113,-431
0,1436412,2221,327,-390,-1031,-576,-327,155,113,-431
0,1436427,2224,324,-389,-1035,-569,-335,155,113,-431
0,1436441,2221,328,-390,-1031,-575,-335,155,113,-431
0,1436456,2221,328,-390,-1031,-575,-335,155,113,-431
0,1436471,2222,322,-397,-1035,-574,-331,155,113,-431
0,1436485,2224,325,-389,-1039,-581,-328,155,113,-431
0,1436499,2222,323,-391,-1029,-568,-326,155,113,-431
0,1436513,2222,323,-391,-1029,-568,-326,155,113,-431
0,1436525,2222,324,-386,-1046,-572,-328,161,115,-437
0,1436537,2223,325,-391,-1046,-579,-329,161,115,-437
0,1436553,2223,325,-391,-1046,-579,-329,161,115,-437
0,1436566,2227,326,-393,-1034,-573,-325,161,115,-437
0,1436579,2222,324,-382,-1036,-576,-331,161,115,-437
0,1436594,2222,324,-382,-1036,-576,-331,161,115,-437
0,1436607,2226,326,-386,-1032,-573,-329,161,115,-437
0,1436618,2224,323,-393,-1027,-568,-322,161,115,-437
0,1436634,2224,323,-393,-1027,-568,-322,161,115,-437
0,1436647,2224,326,-390,-1036,-573,-324,169,111,-439
0,1436660,2225,326,-396,-1040,-575,-331,169,111,-439
0,1436676,2225,326,-396,-1040,-575,-331,169,111,-439
0,1436691,2225,325,-396,-1022,-568,-327,169,111,-439
0,1436703,2226,322,-392,-1029,-575,-323,169,111,-439
0,1436717,2226,324,-389,-1027,-576,-329,169,111,-439
0,1436732,2226,324,-389,-1027,-576,-329,169,111,-439
0,1436741,2225,326,-390,-1026,-581,-325,169,111,-439
0,1436755,2225,326,-390,-1026,-581,-325,169,111,-439
0,1436770,2223,325,-397,-1029,-580,-332,166,112,-438
0,1436783,2223,325,-388,-1033,-575,-325,166,112,-438
0,1436797,2227,328,-391,-1024,-575,-327,166,112,-438
0,1436811,2227,328,-391,-1024,-575,-327,166,112,-438
0,1436821,2222,324,-388,-1032,-579,-327,166,112,-438
0,1436834,2222,324,-388,-1032,-579,-327,166,112,-438
0,1436848,2225,325,-388,-1036,-584,-328,166,112,-438
0,1436862,2223,324,-395,-1037,-578,-323,166,112,-438
0,1436876,2223,324,-395,-1037,-578,-323,166,112,-438
0,1436891,2223,325,-393,-1036,-576,-324,166,112,-438
0,1436903,2224,326,-390,-1035,-573,-325,165,105,-443
0,1436918,2225,325,-389,-1032,-576,-331,165,105,-443
0,1436933,2225,325,-389,-1032,-576,-331,165,105,-443
0,1436948,2224,325,-392,-1029,-578,-334,165,105,-443
0,1436961,2223,328,-395,-1039,-580,-329,165,105,-443
0,1436974,2223,328,-395,-1039,-580,-329,165,105,-443
0,1436989,2225,328,-396,-1032,-578,-323,165,105,-443
0,1437002,2223,323,-394,-1037,-574,-328,165,105,-443
0,1437016,2223,323,-394,-1037,-574,-328,165,105,-443
0,1437030,2224,324,-392,-1035,-574,-333,168,102,-434
0,1437044,2224,327,-390,-1033,-575,-328,168,102,-434
0,1437058,2224,327,-390,-1033,-575,-328,168,102,-434
0,1437070,2224,327,-390,-1033,-575,-328,168,102,-434
0,1437083,2227,324,-387,-1029,-577,-324,168,102,-434
0,1437097,2226,325,-398,-1024,-569,-333,168,102,-434
0,1437112,2226,325,-398,-1024,-569,-333,168,102,-434
0,1437126,2224,326,-388,-1032,-573,-327,168,102,-434
0,1437138,2224,326,-388,-1032,-573,-327,168,102,-434
0,1437153,2224,326,-388,-1032,-573,-327,168,102,-434
0,1437168,2225,326,-385,-1035,-584,-328,164,112,-436
0,1437184,2222,323,-391,-1033,-585,-334,164,112,-436
0,1437198,2223,324,-386,-1034,-579,-329,164,112,-436
0,1437211,2223,324,-386,-1034,-579,-329,164,112,-436
0,1437227,2223,322,-392,-1030,-568,-329,164,112,-436
0,1437242,2225,328,-393,-1031,-581,-331,164,112,-436
0,1437256,2225,328,-393,-1031,-581,-331,164,112,-436
0,1437270,2225,326,-397,-1040,-577,-334,164,112,-436
0,1437284,2226,323,-387,-1035,-576,-326,173,117,-433
0,1437298,2226,327,-392,-1024,-572,-334,173,117,-433
0,1437310,2226,327,-392,-1024,-572,-334,173,117,-433
0,1437325,2223,327,-392,-1033,-583,-329,173,117,-433
0,1437338,2225,324,-389,-1041,-577,-330,173,117,-433
0,1437351,2225,324,-389,-1041,-577,-330,173,117,-433
0,1437366,2225,327,-393,-1042,-580,-327,173,117,-433
0,1437380,2225,325,-391,-1039,-580,-325,173,117,-433
0,1437392,2225,325,-391,-1039,-580,-325,173,117,-433
0,1437405,2221,326,-395,-1034,-578,-329,167,107,-433
0,1437420,2222,323,-386,-1036,-582,-320,167,107,-433
0,1437435,2222,323,-386,-1036,-582,-320,167,107,-433
0,1437449,2227,326,-390,-1042,-579,-325,167,107,-433
0,1437463,2226,328,-389,-1031,-579,-329,167,107,-433
0,1437471,2226,328,-389,-1031,-579,-329,167,107,-433
0,1437483,2224,323,-389,-1031,-582,-331,167,107,-433
0,1437496,2224,323,-389,-1031,-582,-331,167,107,-433
0,1437509,2225,323,-394,-1033,-579,-329,167,107,-433
0,1437522,2224,324,-392,-1028,-573,-326,167,107,-433
0,1437536,2224,324,-392,-1028,-573,-326,167,107,-433
0,1437549,2225,324,-388,-1028,-577,-333,171,113,-433
0,1437563,2225,327,-389,-1035,-572,-328,171,113,-433
0,1437575,2225,327,-389,-1035,-572,-328,171,113,-433
0,1437589,2227,327,-393,-1036,-573,-326,171,113,-433
0,1437602,2226,323,-396,-1037,-574,-322,171,113,-433
0,1437616,2226,323,-396,-1037,-574,-322,171,113,-433
0,1437630,2224,325,-387,-1044,-575,-331,171,113,-433
0,1437645,2225,326,-385,-1032,-576,-336,171,113,-433
0,1437659,2226,329,-392,-1034,-578,-327,165,119,-439
0,1437672,2226,329,-392,-1034,-578,-327,165,119,-439
0,1437687,2227,326,-385,-1038,-578,-328,165,119,-439
0,1437704,2225,325,-388,-1035,-576,-323,165,119,-439
0,1437719,2226,326,-391,-1037,-577,-325,165,119,-439
0,1437733,2226,326,-391,-1037,-577,-325,165,119,-439
0,1437745,2223,324,-396,-1031,-571,-322,165,119,-439
0,1437758,2224,323,-394,-1038,-582,-324,165,119,-439
0,1437772,2224,323,-394,-1038,-582,-324,165,119,-439
0,1437786,2222,328,-391,-1038,-579,-326,165,119,-439
0,1437800,2224,325,-386,-1041,-576,-328,154,112,-434
0,1437812,2224,325,-386,-1041,-576,-328,154,112,-434
0,1437825,2225,325,-389,-1031,-577,-321,154,112,-434
0,1437839,2224,329,-393,-1025,-572,-324,154,112,-434
0,1437853,2224,329,-393,-1025,-572,-324,154,112,-434
0,1437867,2224,327,-387,-1028,-572,-328,154,112,-434
0,1437882,2225,327,-391,-1029,-576,-329,154,112,-434
0,1437897,2225,327,-391,-1029,-576,-329,154,112,-434
0,1437912,2220,325,-390,-1039,-577,-329,154,112,-434
0,1437925,2226,328,-390,-1035,-576,-334,160,114,-440
0,1437939,2224,327,-393,-1040,-580,-335,160,114,-440
0,1437955,2224,327,-393,-1040,-580,-335,160,114,-440
0,1437969,2226,327,-390,-1034,-581,-332,160,114,-440
0,1437981,2227,327,-388,-1029,-574,-332,160,114,-440
0,1437993,2227,327,-388,-1029,-574,-332,160,114,-440
0,1438008,2225,325,-390,-1032,-576,-328,160,114,-440
0,1438021,2222,326,-394,-1026,-578,-333,160,114,-440
0,1438034,2222,326,-394,-1026,-578,-333,160,114,-440
0,1438048,2226,327,-396,-1039,-580,-326,160,114,-440
0,1438061,2225,328,-390,-1044,-581,-329,157,115,-441
0,1438074,2225,328,-390,-1044,-581,-329,157,115,-441
0,1438088,2223,326,-392,-1039,-572,-334,157,115,-441
0,1438102,2227,326,-394,-1041,-576,-332,157,115,-441
0,1438117,2227,326,-394,-1041,-576,-332,157,115,-441
0,1438130,2222,326,-392,-1037,-575,-324,157,115,-441
0,1438143,2226,328,-390,-1042,-578,-324,157,115,-441
0,1438155,2226,328,-390,-1042,-578,-324,157,115,-441
0,1438171,2226,328,-390,-1042,-578,-324,157,115,-441
0,1438183,2224,325,-387,-1033,-570,-329,162,112,-436
0,1438197,2224,325,-387,-1033,-570,-329,162,112,-436
0,1438213,2225,326,-385,-1034,-570,-332,162,112,-436
0,1438226,2223,327,-397,-1021,-577,-334,162,112,-436
0,1438239,2224,324,-391,-1023,-568,-334,162,112,-436
0,1438254,2224,324,-391,-1023,-568,-334,162,112,-436
0,1438266,2225,328,-391,-1034,-575,-328,162,112,-436
0,1438281,2226,327,-389,-1032,-569,-324,162,112,-436
0,1438294,2226,327,-389,-1032,-569,-324,162,112,-436
0,1438307,2226,326,-388,-1034,-576,-326,168,108,-436
0,1438321,2224,325,-388,-1032,-574,-325,168,108,-436
0,1438334,2224,325,-388,-1032,-574,-325,168,108,-436
0,1438349,2224,322,-389,-1031,-576,-326,168,108,-436
0,1438360,2225,323,-386,-1031,-577,-329,168,108,-436
0,1438375,2225,323,-386,-1031,-577,-329,168,108,-436
0,1438391,2226,328,-390,-1031,-569,-330,168,108,-436
0,1438406,2223,327,-399,-1037,-570,-324,168,108,-436
0,1438422,2226,328,-388,-1032,-569,-325,168,108,-436
0,1438433,2226,328,-388,-1032,-569,-325,168,108,-436
0,1438446,2224,327,-387,-1035,-575,-329,165,111,-433
0,1438460,2222,326,-394,-1039,-581,-329,165,111,-433
0,1438474,2222,326,-394,-1039,-581,-329,165,111,-433
0,1438488,2222,325,-392,-1036,-582,-332,165,111,-433
0,1438502,2224,328,-390,-1033,-580,-330,165,111,-433
0,1438514,2224,328,-390,-1033,-580,-330,165,111,-433
0,1438527,2225,326,-397,-1038,-575,-335,165,111,-433
0,1438540,2225,323,-394,-1038,-567,-338,165,111,-433
0,1438553,2225,323,-394,-1038,-567,-338,165,111,-433
0,1438567,2222,326,-395,-1035,-567,-336,160,112,-428
0,1438578,2222,326,-395,-1035,-567,-336,160,112,-428
0,1438594,2226,324,-388,-1034,-571,-334,160,112,-428
0,1438608,2224,326,-393,-1042,-579,-329,160,112,-428
0,1438623,2224,325,-387,-1043,-585,-327,160,112,-428
0,1438636,2224,325,-387,-1043,-585,-327,160,112,-428
0,1438649,2224,326,-399,-1035,-578,-325,160,112,-428
0,1438664,2222,325,-395,-1031,-580,-324,160,112,-428
0,1438679,2222,325,-395,-1031,-580,-324,160,112,-428
0,1438692,2225,325,-392,-1024,-576,-330,160,112,-428
0,1438705,2225,326,-388,-1045,-576,-327,168,108,-436
0,1438720,2227,324,-390,-1040,-575,-325,168,108,-436
0,1438734,2227,324,-390,-1040,-575,-325,168,108,-436
0,1438748,2224,325,-386,-1036,-571,-327,168,108,-436
0,1438763,2224,323,-390,-1026,-577,-331,168,108,-436
0,1438776,2224,323,-390,-1026,-577,-331,168,108,-436
0,1438789,2223,325,-389,-1026,-566,-333,168,108,-436
0,1438803,2224,326,-396,-1030,-566,-332,168,108,-436
0,1438819,2224,326,-396,-1030,-566,-332,168,108,-436
0,1438832,2224,327,-390,-1030,-569,-326,164,116,-434
0,1438845,2225,328,-386,-1034,-572,-325,164,116,-434
0,1438861,2223,325,-390,-1029,-570,-326,164,116,-434
0,1438875,2223,325,-390,-1029,-570,-326,164,116,-434
0,1438888,2224,325,-389,-1031,-578,-330,164,116,-434
0,1438900,2227,324,-389,-1034,-580,-331,164,116,-434
0,1438914,2227,324,-389,-1034,-580,-331,164,116,-434
0,1438927,2222,325,-386,-1032,-575,-337,164,116,-434
0,1438941,2223,325,-386,-1025,-573,-332,164,116,-434
0,1438955,2223,325,-386,-1025,-573,-332,164,116,-434
0,1438968,2227,328,-384,-1032,-578,-328,170,114,-432
0,1438981,2224,329,-389,-1039,-575,-324,170,114,-432
0,1438994,2224,329,-389,-1039,-575,-324,170,114,-432
0,1439007,2221,327,-391,-1030,-576,-328,170,114,-432
0,1439022,2224,326,-393,-1036,-574,-327,170,114,-432
0,1439036,2224,326,-393,-1036,-574,-327,170,114,-432
0,1439049,2226,329,-387,-1029,-576,-330,170,114,-432
0,1439065,2222,326,-389,-1034,-580,-336,170,114,-432
0,1439080,2224,326,-387,-1036,-577,-329,170,114,-432
0,1439094,2224,326,-387,-1036,-577,-329,169,111,-431
0,1439109,2224,325,-392,-1034,-573,-320,169,111,-431
0,1439122,2224,326,-395,-1034,-570,-316,169,111,-431
0,1439134,2224,326,-395,-1034,-570,-316,169,111,-431
0,1439148,2224,329,-390,-1030,-574,-324,169,111,-431
0,1439162,2225,328,-397,-1036,-579,-322,169,111,-431
0,1439175,2225,328,-397,-1036,-579,-322,169,111,-431
0,1439186,2226,327,-389,-1037,-575,-326,169,111,-431
0,1439199,2226,327,-389,-1037,-575,-326,169,111,-431
0,1439212,2225,324,-393,-1036,-575,-326,161,107,-435
0,1439225,2225,326,-388,-1036,-568,-330,161,107,-435
0,1439240,2225,324,-390,-1037,-577,-328,161,107,-435
0,1439255,2225,324,-390,-1037,-577,-328,161,107,-435
0,1439270,2226,326,-391,-1041,-576,-323,161,107,-435
0,1439285,2223,326,-393,-1034,-575,-336,161,107,-435
0,1439298,2223,326,-393,-1034,-575,-336,161,107,-435
0,1439312,2225,327,-391,-1034,-577,-326,161,107,-435
0,1439328,2226,326,-396,-1029,-574,-329,161,107,-435
0,1439342,2224,327,-389,-1034,-576,-325,165,113,-441
0,1439354,2224,327,-389,-1034,-576,-325,165,113,-441
0,1439368,2226,325,-389,-1032,-578,-319,165,113,-441
0,1439381,2223,325,-396,-1037,-573,-320,165,113,-441
0,1439395,2223,325,-396,-1037,-573,-320,165,113,-441
0,1439410,2223,325,-393,-1034,-585,-321,165,113,-441
0,1439425,2224,326,-385,-1038,-580,-329,165,113,-441
0,1439438,2224,326,-385,-1038,-580,-329,165,113,-441
0,1439450,2225,325,-393,-1040,-575,-333,165,113,-441
0,1439463,2219,324,-390,-1044,-579,-327,170,114,-438
0,1439476,2219,324,-390,-1044,-579,-327,170,114,-438
0,1439491,2224,325,-392,-1042,-584,-326,170,114,-438
0,1439503,2223,327,-386,-1035,-576,-323,170,114,-438
0,1439517,2223,327,-386,-1035,-576,-323,170,114,-438
0,1439532,2225,323,-393,-1036,-581,-327,170,114,-438
0,1439547,2224,328,-393,-1037,-581,-333,170,114,-438
0,1439562,2225,328,-390,-1031,-569,-336,170,114,-438
0,1439577,2225,328,-390,-1031,-569,-336,170,114,-438
0,1439588,2228,325,-391,-1029,-575,-332,170,114,-438
0,1439600,2228,325,-391,-1029,-575,-332,170,114,-438
0,1439613,2225,326,-386,-1025,-564,-326,169,113,-433
0,1439628,2222,324,-388,-1028,-570,-324,169,113,-433
0,1439641,2222,325,-390,-1027,-572,-329,169,113,-433
0,1439654,2222,325,-390,-1027,-572,-329,169,113,-433
0,1439668,2222,326,-391,-1034,-573,-331,169,113,-433
0,1439681,2225,325,-392,-1030,-577,-330,169,113,-433
0,1439695,2225,325,-392,-1030,-577,-330,169,113,-433
0,1439709,2225,324,-386,-1032,-579,-327,169,113,-433
0,1439722,2225,324,-392,-1047,-583,-329,171,113,-439
0,1439734,2225,324,-392,-1047,-583,-329,171,113,-439
0,1439749,2223,324,-395,-1038,-582,-330,171,113,-439
0,1439758,2223,324,-395,-1038,-582,-330,171,113,-439
0,1439773,2222,327,-396,-1035,-581,-330,171,113,-439
0,1439789,2223,330,-392,-1038,-578,-330,171,113,-439
0,1439803,2221,328,-391,-1044,-579,-329,171,113,-439
0,1439817,2221,328,-391,-1044,-579,-329,171,113,-439
0,1439831,2227,328,-392,-1045,-584,-326,171,113,-439
0,1439844,2225,325,-393,-1040,-579,-330,171,113,-439
0,1439858,2225,325,-393,-1040,-579,-330,171,113,-439
0,1439872,2225,325,-389,-1031,-576,-326,167,117,-437
0,1439886,2221,328,-386,-1043,-578,-328,167,117,-437
0,1439899,2221,328,-386,-1043,-578,-328,167,117,-437
0,1439913,2222,326,-385,-1039,-573,-324,167,117,-437
0,1439927,2226,329,-384,-1031,-576,-331,167,117,-437
0,1439939,2226,329,-384,-1031,-576,-331,167,117,-437
0,1439951,2225,327,-389,-1032,-578,-330,167,117,-437
0,1439967,2223,324,-394,-1042,-582,-334,167,117,-437
0,1439981,2226,328,-385,-1042,-584,-335,158,114,-434
0,1439998,2226,328,-385,-1042,-584,-335,158,114,-434
0,1440014,2226,324,-391,-1046,-581,-331,158,114,-434
0,1440022,2223,326,-391,-1032,-575,-336,158,114,-434
0,1440035,2223,326,-391,-1032,-575,-336,158,114,-434
0,1440050,2221,328,-390,-1035,-576,-326,158,114,-434
0,1440064,2224,327,-389,-1033,-581,-334,158,114,-434
0,1440076,2224,327,-389,-1033,-581,-334,158,114,-434
0,1440091,2226,323,-395,-1038,-575,-330,158,114,-434
0,1440103,2224,324,-390,-1034,-574,-320,164,110,-438
0,1440117,2224,324,-390,-1034,-574,-320,164,110,-438
0,1440131,2225,322,-390,-1038,-579,-327,164,110,-438
0,1440144,2224,322,-392,-1033,-577,-330,164,110,-438
0,1440157,2224,322,-392,-1033,-577,-330,164,110,-438
0,1440171,2225,326,-393,-1033,-569,-329,164,110,-438
0,1440185,2226,324,-390,-1028,-584,-321,164,110,-438
0,1440200,2226,324,-390,-1028,-584,-321,164,110,-438
0,1440212,2227,324,-395,-1032,-583,-324,164,110,-438
0,1440225,2228,323,-394,-1025,-574,-327,164,110,-438
0,1440239,2228,323,-394,-1025,-574,-327,164,110,-438
0,1440252,2224,328,-386,-1031,-576,-332,166,110,-438
0,1440267,2228,327,-386,-1044,-579,-329,166,110,-438
0,1440280,2228,327,-386,-1044,-579,-329,166,110,-438
0,1440294,2224,325,-398,-1044,-578,-325,166,110,-438
0,1440307,2226,325,-391,-1038,-574,-331,166,110,-438
0,1440320,2226,325,-391,-1038,-574,-331,166,110,-438
0,1440333,2226,325,-391,-1038,-574,-331,166,110,-438
0,1440348,2227,325,-396,-1032,-576,-332,166,110,-438
0,1440362,2225,327,-393,-1037,-577,-335,161,107,-427
0,1440377,2225,327,-393,-1037,-577,-335,161,107,-427
0,1440392,2225,324,-394,-1045,-578,-334,161,107,-427
0,1440406,2224,327,-390,-1037,-574,-331,161,107,-427
0,1440420,2224,327,-390,-1037,-574,-331,161,107,-427
0,1440435,2225,327,-393,-1045,-580,-325,161,107,-427
0,1440449,2225,326,-395,-1028,-580,-328,161,107,-427
0,1440462,2223,327,-388,-1042,-579,-325,161,107,-427
0,1440474,2223,327,-388,-1042,-579,-325,161,107,-427
0,1440488,2226,324,-395,-1040,-575,-327,161,107,-427
0,1440501,2226,324,-395,-1040,-575,-327,161,107,-427
0,1440515,2224,330,-389,-1031,-577,-331,166,114,-438
0,1440528,2225,327,-384,-1038,-570,-327,166,114,-438
0,1440539,2225,327,-384,-1038,-570,-327,166,114,-438
0,1440552,2225,324,-389,-1030,-566,-330,166,114,-438
0,1440565,2223,326,-387,-1033,-577,-332,166,114,-438
0,1440579,2223,326,-387,-1033,-577,-332,166,114,-438
0,1440594,2225,325,-390,-1041,-574,-328,166,114,-438
0,1440608,2225,326,-395,-1036,-573,-327,166,114,-438
0,1440622,2224,325,-385,-1035,-570,-333,166,114,-434
0,1440636,2224,325,-385,-1035,-570,-333,166,114,-434
0,1440651,2226,323,-390,-1038,-574,-327,166,114,-434
0,1440663,2225,325,-389,-1033,-579,-326,166,114,-434
0,1440676,2225,325,-389,-1033,-579,-326,166,114,-434
0,1440691,2226,325,-392,-1035,-579,-331,166,114,-434
0,1440704,2222,327,-390,-1040,-578,-329,166,114,-434
0,1440718,2222,327,-390,-1040,-578,-329,166,114,-434
0,1440731,2224,324,-392,-1040,-574,-326,166,114,-434
0,1440746,2224,327,-389,-1040,-579,-331,168,100,-426
0,1440758,2224,327,-389,-1040,-579,-331,168,100,-426
0,1440772,2224,325,-391,-1035,-578,-332,168,100,-426
0,1440786,2222,322,-391,-1039,-566,-325,168,100,-426
0,1440799,2222,322,-391,-1039,-566,-325,168,100,-426
0,1440815,2223,326,-392,-1040,-573,-325,168,100,-426
0,1440829,2223,326,-392,-1036,-579,-327,168,100,-426
0,1440842,2225,328,-395,-1040,-576,-331,168,100,-426
0,1440857,2225,328,-395,-1040,-576,-331,168,100,-426
0,1440871,2225,325,-391,-1034,-571,-334,168,100,-426
0,1440886,2228,324,-387,-1039,-582,-328,168,108,-430
0,1440900,2228,324,-387,-1039,-582,-328,168,108,-430
0,1440913,2225,326,-381,-1044,-578,-330,168,108,-430
0,1440926,2223,323,-393,-1040,-579,-328,168,108,-430
0,1440941,2223,323,-393,-1040,-579,-328,168,108,-430
0,1440954,2222,323,-387,-1035,-577,-330,168,108,-430
0,1440967,2224,326,-391,-1038,-570,-335,168,108,-430
0,1440980,2224,326,-391,-1038,-570,-335,168,108,-430
0,1440993,2223,325,-392,-1042,-576,-327,168,108,-430
0,1441006,2219,325,-383,-1044,-582,-325,164,118,-432
0,1441019,2219,325,-383,-1044,-582,-325,164,118,-432
0,1441034,2222,325,-391,-1032,-580,-317,164,118,-432
0,1441048,2227,327,-387,-1033,-580,-334,164,118,-432
0,1441063,2224,324,-389,-1033,-572,-325,164,118,-432
0,1441079,2224,324,-389,-1033,-572,-325,164,118,-432
0,1441092,2227,328,-384,-1028,-574,-329,164,118,-432
0,1441106,2229,325,-391,-1032,-579,-329,164,118,-432
0,1441121,2229,325,-391,-1032,-579,-329,164,118,-432
0,1441135,2226,325,-388,-1029,-571,-329,164,118,-432
0,1441147,2227,328,-385,-1041,-572,-325,163,111,-441
0,1441162,2227,328,-385,-1041,-572,-325,163,111,-441
0,1441175,2226,326,-396,-1037,-570,-324,163,111,-441
0,1441188,2222,331,-394,-1040,-570,-327,163,111,-441
0,1441202,2222,331,-394,-1040,-570,-327,163,111,-441
0,1441216,2222,324,-392,-1041,-562,-331,163,111,-441
0,1441229,2225,327,-393,-1039,-571,-329,163,111,-441
0,1441241,2225,327,-393,-1039,-571,-329,163,111,-441
0,1441254,2227,323,-387,-1034,-572,-328,163,111,-441
0,1441268,2226,324,-389,-1032,-578,-329,158,110,-440
0,1441283,2226,326,-393,-1037,-575,-322,158,110,-440
0,1441295,2226,326,-393,-1037,-575,-322,158,110,-440
0,1441308,2224,325,-397,-1036,-575,-332,158,110,-440
0,1441323,2225,326,-392,-1026,-572,-329,158,110,-440
0,1441336,2225,326,-392,-1026,-572,-329,158,110,-440
0,1441351,2221,322,-391,-1040,-574,-325,158,110,-440
0,1441367,2227,327,-389,-1044,-585,-326,158,110,-440
0,1441381,2227,327,-389,-1044,-585,-326,158,110,-440
0,1441396,2226,324,-393,-1040,-578,-333,158,110,-440
0,1441411,2224,327,-386,-1039,-571,-331,169,105,-439
0,1441424,2228,322,-391,-1036,-570,-334,169,105,-439
0,1441437,2228,322,-391,-1036,-570,-334,169,105,-439
0,1441452,2225,329,-388,-1039,-570,-329,169,105,-439
0,1441465,2225,325,-391,-1044,-583,-331,169,105,-439
0,1441478,2225,325,-391,-1044,-583,-331,169,105,-439
0,1441492,2225,326,-393,-1039,-579,-325,169,105,-439
0,1441506,2223,327,-390,-1047,-576,-320,169,105,-439
0,1441519,2223,327,-390,-1047,-576,-320,169,105,-439
0,1441533,2223,325,-391,-1041,-575,-326,166,124,-436
0,1441544,2223,325,-390,-1031,-577,-327,166,124,-436
0,1441559,2223,325,-390,-1031,-577,-327,166,124,-436
0,1441573,2227,326,-392,-1031,-576,-329,166,124,-436
0,1441587,2226,326,-388,-1034,-583,-329,166,124,-436
0,1441601,2226,326,-388,-1034,-583,-329,166,124,-436
0,1441616,2222,323,-384,-1037,-577,-333,166,124,-436
0,1441632,2228,327,-386,-1036,-574,-325,166,124,-436
0,1441646,2226,325,-387,-1036,-573,-329,158,120,-430
0,1441659,2226,325,-387,-1036,-573,-329,158,120,-430
0,1441673,2223,326,-384,-1030,-572,-330,158,120,-430
0,1441686,2224,325,-387,-1041,-575,-327,158,120,-430
0,1441702,2224,325,-387,-1041,-575,-327,158,120,-430
0,1441714,2226,325,-389,-1035,-578,-329,158,120,-430
0,1441727,2220,327,-386,-1040,-580,-334,158,120,-430
0,1441740,2220,327,-386,-1040,-580,-334,158,120,-430
0,1441754,2226,327,-393,-1032,-574,-334,158,120,-430
0,1441769,2226,325,-390,-1032,-574,-329,158,120,-430
0,1441784,2224,328,-384,-1038,-576,-326,161,115,-437
0,1441799,2224,328,-384,-1038,-576,-326,161,115,-437
0,1441811,2224,324,-391,-1036,-577,-331,161,115,-437
0,1441826,2230,325,-390,-1033,-579,-328,161,115,-437
0,1441842,2230,325,-390,-1033,-579,-328,161,115,-437
0,1441857,2225,328,-390,-1033,-572,-336,161,115,-437
0,1441869,2222,326,-391,-1037,-578,-329,161,115,-437
0,1441881,2222,326,-391,-1037,-578,-329,161,115,-437
0,1441894,2225,327,-391,-1039,-576,-326,161,115,-437
0,1441908,2225,330,-388,-1040,-574,-330,169,121,-431
0,1441923,2225,330,-388,-1040,-574,-330,169,121,-431
0,1441935,2221,326,-389,-1037,-579,-325,169,121,-431
0,1441948,2226,327,-393,-1036,-579,-335,169,121,-431
0,1441966,2225,325,-391,-1043,-583,-320,169,121,-431
0,1441979,2225,325,-391,-1043,-583,-320,169,121,-431
0,1441994,2225,322,-393,-1033,-571,-320,169,121,-431
0,1442007,2221,324,-390,-1032,-575,-333,169,121,-431
0,1442020,2221,324,-390,-1032,-575,-333,169,121,-431
0,1442035,2226,326,-393,-1035,-574,-334,169,121,-431
0,1442051,2224,325,-383,-1028,-572,-325,162,120,-440
0,1442063,2224,325,-383,-1028,-572,-325,162,120,-440
0,1442076,2222,325,-388,-1037,-567,-325,162,120,-440
0,1442091,2225,326,-391,-1032,-570,-335,162,120,-440
0,1442103,2225,326,-391,-1032,-570,-335,162,120,-440
0,1442116,2223,324,-395,-1037,-569,-337,162,120,-440
0,1442129,2222,324,-391,-1042,-573,-320,162,120,-440
0,1442143,2222,324,-391,-1042,-573,-320,162,120,-440
0,1442157,2224,325,-390,-1033,-572,-324,162,120,-440
0,1442169,2224,327,-389,-1034,-575,-328,161,121,-439
0,1442181,2224,327,-389,-1034,-575,-328,161,121,-439
0,1442194,2222,327,-385,-1035,-579,-326,161,121,-439
0,1442207,2225,327,-385,-1037,-577,-327,161,121,-439
0,1442222,2225,327,-385,-1037,-577,-327,161,121,-439
0,1442237,2227,324,-391,-1038,-573,-328,161,121,-439
0,1442250,2227,326,-392,-1035,-570,-332,161,121,-439
0,1442265,2225,327,-392,-1035,-576,-329,161,121,-439
0,1442279,2225,327,-392,-1035,-576,-329,161,121,-439
0,1442294,2225,327,-392,-1035,-576,-329,161,121,-439
0,1442310,2227,328,-389,-1039,-579,-333,163,111,-445
0,1442323,2227,328,-389,-1039,-579,-333,163,111,-445
0,1442334,2224,326,-395,-1047,-578,-327,163,111,-445
0,1442349,2227,324,-396,-1039,-583,-325,163,111,-445
0,1442362,2227,324,-396,-1039,-583,-325,163,111,-445
0,1442375,2227,322,-390,-1036,-572,-322,163,111,-445
0,1442390,2225,324,-394,-1041,-574,-331,163,111,-445
0,1442398,2225,324,-394,-1041,-574,-331,163,111,-445
0,1442411,2225,325,-394,-1040,-576,-327,163,111,-445
0,1442424,2225,326,-390,-1044,-574,-327,166,112,-442
0,1442440,2225,326,-390,-1044,-574,-327,166,112,-442
0,1442454,2223,326,-386,-1040,-569,-333,166,112,-442
0,1442467,2224,327,-391,-1033,-570,-331,166,112,-442
0,1442481,2224,327,-391,-1033,-570,-331,166,112,-442
0,1442495,2223,324,-390,-1043,-580,-333,166,112,-442
0,1442510,2226,327,-396,-1033,-580,-327,166,112,-442
0,1442522,2226,327,-396,-1033,-580,-327,166,112,-442
0,1442536,2225,327,-393,-1028,-577,-328,166,112,-442
0,1442549,2225,328,-392,-1028,-577,-333,164,114,-432
0,1442563,2225,328,-392,-1028,-577,-333,164,114,-432
0,1442577,2225,325,-390,-1040,-573,-327,164,114,-432
0,1442591,2224,325,-392,-1037,-577,-317,164,114,-432
0,1442605,2225,329,-393,-1038,-576,-322,164,114,-432
0,1442617,2225,329,-393,-1038,-576,-322,164,114,-432
0,1442630,2223,324,-396,-1034,-567,-320,164,114,-432
0,1442643,2223,324,-396,-1034,-567,-320,164,114,-432
0,1442658,2226,327,-398,-1037,-573,-325,164,114,-432
0,1442668,2222,325,-396,-1039,-575,-336,164,114,-432
0,1442682,2222,325,-396,-1039,-575,-336,164,114,-432
0,1442697,2224,326,-387,-1033,-570,-326,166,112,-432
0,1442712,2225,327,-388,-1038,-572,-330,166,112,-432
0,1442725,2225,327,-388,-1043,-573,-323,166,112,-432
0,1442739,2225,327,-388,-1043,-573,-323,166,112,-432
0,1442754,2225,327,-388,-1043,-573,-323,166,112,-432
0,1442768,2226,325,-391,-1027,-578,-330,166,112,-432
0,1442782,2226,325,-391,-1027,-578,-330,166,112,-432
0,1442795,2224,324,-389,-1035,-579,-320,166,112,-432
0,1442809,2225,326,-391,-1036,-577,-321,151,109,-435
0,1442824,2225,326,-391,-1036,-577,-321,151,109,-435
0,1442835,2224,323,-382,-1037,-576,-328,151,109,-435
0,1442850,2228,323,-391,-1037,-572,-330,151,109,-435
0,1442864,2228,323,-391,-1037,-572,-330,151,109,-435
0,1442877,2224,323,-394,-1031,-576,-330,151,109,-435
0,1442892,2222,327,-396,-1042,-571,-337,151,109,-435
0,1442908,2221,323,-394,-1033,-566,-331,151,109,-435
0,1442923,2221,323,-394,-1033,-566,-331,151,109,-435
0,1442937,2226,321,-391,-1036,-572,-321,151,109,-435
0,1442951,2225,325,-388,-1043,-582,-326,167,109,-433
0,1442966,2223,322,-391,-1043,-583,-328,167,109,-433
0,1442981,2223,322,-391,-1043,-583,-328,167,109,-433
0,1442997,2223,325,-393,-1034,-579,-331,167,109,-433
0,1443010,2225,327,-399,-1036,-580,-329,167,109,-433
0,1443022,2225,327,-399,-1036,-580,-329,167,109,-433
0,1443037,2223,327,-397,-1037,-577,-330,167,109,-433
0,1443050,2223,321,-392,-1039,-576,-338,167,109,-433
0,1443063,2223,321,-392,-1039,-576,-338,167,109,-433
0,1443077,2224,325,-387,-1031,-572,-327,160,122,-436
0,1443089,2222,325,-387,-1036,-573,-324,160,122,-436
0,1443102,2222,325,-387,-1036,-573,-324,160,122,-436
0,1443116,2226,323,-391,-1034,-574,-325,160,122,-436
0,1443128,2226,324,-395,-1037,-569,-332,160,122,-436
0,1443143,2226,324,-395,-1037,-569,-332,160,122,-436
0,1443158,2222,326,-391,-1033,-576,-330,160,122,-436
0,1443170,2226,325,-394,-1026,-576,-330,160,122,-436
0,1443184,2226,325,-394,-1026,-576,-330,160,122,-436
0,1443193,2226,325,-393,-1032,-576,-330,160,122,-436
0,1443208,2224,327,-387,-1038,-573,-330,154,112,-430
0,1443224,2224,327,-387,-1038,-573,-330,154,112,-430
0,1443238,2226,327,-392,-1037,-571,-331,154,112,-430
0,1443252,2224,325,-396,-1036,-572,-324,154,112,-430
0,1443265,2224,323,-396,-1040,-585,-331,154,112,-430
0,1443279,2224,323,-396,-1040,-585,-331,154,112,-430
0,1443292,2223,325,-398,-1041,-577,-331,154,112,-430
0,1443303,2223,325,-398,-1041,-577,-331,154,112,-430
0,1443316,2225,328,-390,-1044,-569,-330,154,112,-430
0,1443330,2223,329,-383,-1037,-573,-332,169,103,-427
0,1443344,2223,329,-383,-1037,-573,-332,169,103,-427
0,1443356,2226,327,-387,-1041,-577,-332,169,103,-427
0,1443369,2225,324,-395,-1040,-571,-326,169,103,-427
0,1443386,2226,325,-391,-1035,-571,-327,169,103,-427
0,1443401,2226,325,-391,-1035,-571,-327,169,103,-427
0,1443417,2224,324,-390,-1040,-571,-334,169,103,-427
0,1443431,2225,323,-391,-1033,-565,-334,169,103,-427
0,1443443,2225,323,-391,-1033,-565,-334,169,103,-427
0,1443459,2225,324,-385,-1035,-574,-330,165,105,-437
0,1443474,2224,326,-391,-1029,-576,-331,165,105,-437
0,1443487,2222,326,-390,-1028,-576,-328,165,105,-437
0,1443501,2222,326,-390,-1028,-576,-328,165,105,-437
0,1443514,2223,325,-398,-1036,-578,-338,165,105,-437
0,1443525,2223,325,-398,-1036,-578,-338,165,105,-437
0,1443537,2222,323,-391,-1049,-575,-334,165,105,-437
0,1443551,2226,321,-390,-1047,-577,-324,165,105,-437
0,1443564,2226,321,-390,-1047,-577,-324,165,105,-437
0,1443579,2224,326,-392,-1038,-577,-326,165,105,-437
0,1443594,2224,325,-389,-1034,-575,-325,170,108,-436
0,1443606,2224,326,-388,-1028,-570,-322,170,108,-436
0,1443620,2224,326,-388,-1028,-570,-322,170,108,-436
0,1443636,2224,326,-393,-1036,-576,-330,170,108,-436
0,1443652,2226,326,-391,-1037,-578,-322,170,108,-436
0,1443664,2226,326,-391,-1037,-578,-322,170,108,-436
0,1443678,2226,325,-394,-1036,-577,-334,170,108,-436
0,1443691,2225,329,-392,-1042,-575,-325,170,108,-436
0,1443704,2225,329,-392,-1042,-575,-325,170,108,-436
0,1443719,2225,327,-393,-1040,-580,-329,169,115,-439
0,1443732,2224,328,-390,-1029,-572,-330,169,115,-439
0,1443747,2223,325,-396,-1031,-573,-322,169,115,-439
0,1443760,2223,325,-396,-1031,-573,-322,169,115,-439
0,1443772,2226,323,-394,-1035,-575,-324,169,115,-439
0,1443786,2225,323,-389,-1039,-578,-329,169,115,-439
0,1443800,2225,323,-389,-1039,-578,-329,169,115,-439
0,1443815,2224,323,-391,-1040,-581,-319,169,115,-439
0,1443830,2225,324,-397,-1036,-576,-322,169,115,-439
0,1443843,2225,324,-397,-1036,-576,-322,169,115,-439
0,1443856,2224,324,-386,-1034,-578,-331,174,112,-436
0,1443871,2226,323,-392,-1032,-574,-318,174,112,-436
0,1443887,2226,323,-394,-1039,-579,-318,174,112,-436
0,1443901,2226,323,-394,-1039,-579,-318,174,112,-436
0,1443914,2226,323,-394,-1039,-579,-318,174,112,-436
0,1443926,2225,323,-394,-1040,-569,-330,174,112,-436
0,1443940,2225,323,-394,-1040,-569,-330,174,112,-436
0,1443953,2225,323,-394,-1040,-569,-330,174,112,-436
0,1443968,2223,323,-384,-1031,-584,-329,163,115,-445
0,1443981,2223,323,-384,-1031,-584,-329,163,115,-445
0,1443993,2224,324,-394,-1029,-585,-326,163,115,-445
0,1444006,2222,325,-393,-1028,-580,-332,163,115,-445
0,1444020,2222,325,-393,-1028,-580,-332,163,115,-445
0,1444034,2226,326,-391,-1037,-573,-326,163,115,-445
0,1444048,2223,326,-393,-1037,-576,-330,163,115,-445
0,1444063,2223,326,-393,-1037,-576,-330,163,115,-445
0,1444078,2226,329,-391,-1038,-568,-331,163,115,-445
0,1444093,2222,326,-390,-1038,-574,-325,159,115,-435
0,1444108,2224,328,-386,-1035,-569,-321,159,115,-435
0,1444120,2224,328,-386,-1035,-569,-321,159,115,-435
0,1444133,2224,328,-388,-1035,-576,-331,159,115,-435
0,1444145,2224,328,-388,-1035,-576,-331,159,115,-435
0,1444159,2225,325,-395,-1038,-571,-327,159,115,-435
0,1444172,2225,324,-391,-1038,-577,-313,159,115,-435
0,1444187,2226,324,-393,-1032,-569,-321,159,115,-435
0,1444201,2226,324,-393,-1032,-569,-321,159,115,-435
0,1444214,2225,327,-391,-1025,-571,-324,159,115,-435
0,1444228,2228,327,-388,-1035,-573,-326,164,108,-432
0,1444241,2228,327,-388,-1035,-573,-326,164,108,-432
0,1444254,2226,323,-389,-1035,-576,-333,164,108,-432
0,1444268,2224,324,-390,-1036,-582,-329,164,108,-432
0,1444283,2224,324,-390,-1036,-582,-329,164,108,-432
0,1444294,2222,328,-397,-1037,-572,-329,164,108,-432
0,1444307,2225,324,-392,-1034,-579,-328,164,108,-432
0,1444323,2225,324,-392,-1034,-579,-328,164,108,-432
0,1444338,2226,327,-392,-1046,-576,-334,164,108,-432
0,1444354,2224,324,-393,-1041,-576,-334,158,112,-442
0,1444366,2224,324,-393,-1041,-576,-334,158,112,-442
0,1444378,2223,325,-394,-1039,-572,-332,158,112,-442
0,1444391,2224,325,-393,-1040,-576,-333,158,112,-442
0,1444406,2224,325,-393,-1040,-576,-333,158,112,-442
0,1444419,2221,326,-396,-1039,-580,-329,158,112,-442
0,1444433,2224,325,-393,-1037,-577,-335,158,112,-442
0,1444446,2224,325,-393,-1037,-577,-335,158,112,-442
0,1444459,2224,325,-390,-1035,-580,-332,158,112,-442
0,1444473,2225,323,-389,-1032,-579,-326,158,112,-442
0,1444487,2227,327,-387,-1039,-579,-331,175,113,-433
0,1444501,2227,327,-387,-1039,-579,-331,175,113,-433
0,1444514,2227,328,-390,-1046,-573,-325,175,113,-433
0,1444527,2228,321,-396,-1048,-574,-321,175,113,-433
0,1444542,2228,321,-396,-1048,-574,-321,175,113,-433
0,1444557,2223,325,-392,-1037,-574,-328,175,113,-433
0,1444573,2224,327,-391,-1040,-568,-328,175,113,-433
0,1444586,2224,327,-391,-1040,-568,-328,175,113,-433
0,1444597,2225,328,-392,-1035,-570,-329,175,113,-433
0,1444612,2228,326,-390,-1037,-574,-323,164,116,-434
0,1444625,2228,326,-390,-1037,-574,-323,164,116,-434
0,1444639,2228,323,-390,-1035,-578,-325,164,116,-434
0,1444654,2223,328,-394,-1038,-576,-330,164,116,-434
0,1444668,2222,325,-397,-1030,-570,-335,164,116,-434
0,1444682,2222,325,-397,-1030,-570,-335,164,116,-434
0,1444695,2225,326,-395,-1037,-580,-339,164,116,-434
0,1444708,2227,325,-385,-1038,-580,-333,164,116,-434
0,1444721,2227,325,-385,-1038,-580,-333,164,116,-434
0,1444737,2223,324,-392,-1036,-579,-325,164,116,-434
0,1444752,2226,325,-387,-1041,-582,-328,160,118,-438
0,1444767,2221,323,-392,-1050,-573,-333,160,118,-438
0,1444783,2221,323,-392,-1050,-573,-333,160,118,-438
0,1444798,2226,326,-393,-1038,-572,-330,160,118,-438
0,1444811,2225,325,-395,-1040,-582,-329,160,118,-438
0,1444826,2225,325,-395,-1040,-582,-329,160,118,-438
0,1444839,2225,325,-395,-1040,-582,-329,160,118,-438
0,1444848,2223,324,-388,-1029,-580,-330,160,118,-438
0,1444859,2223,324,-388,-1029,-580,-330,160,118,-438
0,1444873,2223,324,-388,-1029,-580,-330,166,112,-430
0,1444885,2223,324,-388,-1029,-580,-330,166,112,-430
0,1444897,2224,326,-388,-1038,-573,-329,166,112,-430
0,1444911,2224,325,-387,-1033,-585,-328,166,112,-430
0,1444924,2224,325,-387,-1033,-585,-328,166,112,-430
0,1444938,2227,327,-393,-1028,-570,-328,166,112,-430
0,1444951,2225,326,-399,-1033,-563,-328,166,112,-430
0,1444963,2225,326,-399,-1033,-563,-328,166,112,-430
0,1444977,2225,324,-393,-1031,-574,-337,166,112,-430
0,1444990,2225,326,-393,-1043,-577,-328,168,112,-436
0,1445004,2225,326,-393,-1043,-577,-328,168,112,-436
0,1445019,2225,326,-395,-1040,-579,-324,168,112,-436
0,1445035,2225,325,-392,-1037,-584,-327,168,112,-436
0,1445047,2225,325,-392,-1037,-584,-327,168,112,-436
0,1445061,2225,328,-392,-1036,-585,-329,168,112,-436
0,1445075,2226,324,-390,-1039,-575,-334,168,112,-436
0,1445091,2225,321,-388,-1039,-574,-329,168,112,-436
0,1445102,2225,321,-388,-1039,-574,-329,168,112,-436
0,1445115,2224,326,-396,-1041,-580,-330,168,112,-436
0,1445129,2223,326,-392,-1041,-580,-329,165,109,-441
0,1445142,2223,326,-392,-1041,-580,-329,165,109,-441
0,1445155,2224,326,-392,-1032,-578,-330,165,109,-441
0,1445170,2228,323,-387,-1030,-570,-328,165,109,-441
0,1445183,2228,323,-387,-1030,-570,-328,165,109,-441
0,1445196,2225,325,-386,-1040,-579,-329,165,109,-441
0,1445210,2226,328,-398,-1029,-570,-337,165,109,-441
0,1445223,2226,328,-398,-1029,-570,-337,165,109,-441
0,1445237,2224,324,-394,-1031,-572,-333,165,109,-441
0,1445253,2226,325,-395,-1032,-577,-334,164,118,-432
0,1445267,2223,325,-389,-1034,-577,-333,164,118,-432
0,1445281,2223,325,-389,-1034,-577,-333,164,118,-432
0,1445296,2224,327,-395,-1039,-579,-330,164,118,-432
0,1445310,2225,324,-396,-1038,-577,-324,164,118,-432
0,1445325,2225,324,-396,-1038,-577,-324,164,118,-432
0,1445337,2225,323,-394,-1038,-568,-324,164,118,-432
0,1445349,2226,323,-389,-1036,-569,-329,164,118,-432
0,1445362,2226,323,-389,-1036,-569,-329,164,118,-432
0,1445377,2225,326,-390,-1040,-573,-334,164,118,-432
0,1445390,2223,326,-389,-1037,-573,-328,162,118,-438
0,1445402,2223,326,-389,-1037,-573,-328,162,118,-438
0,1445413,2227,327,-394,-1041,-578,-324,162,118,-438
0,1445427,2227,327,-394,-1041,-578,-324,162,118,-438
0,1445440,2224,327,-387,-1038,-574,-333,162,118,-438
0,1445455,2221,326,-389,-1040,-578,-323,162,118,-438
0,1445471,2225,324,-391,-1039,-578,-321,162,118,-438
0,1445484,2225,324,-391,-1039,-578,-321,162,118,-438
0,1445497,2224,324,-395,-1041,-573,-331,162,118,-438
0,1445513,2228,326,-391,-1036,-577,-325,168,114,-430
0,1445528,2225,326,-392,-1032,-577,-326,168,114,-430
0,1445543,2225,326,-392,-1032,-577,-326,168,114,-430
0,1445556,2228,327,-392,-1040,-580,-327,168,114,-430
0,1445568,2225,327,-391,-1037,-576,-332,168,114,-430
0,1445583,2225,327,-391,-1037,-576,-332,168,114,-430
0,1445597,2224,326,-398,-1033,-577,-333,168,114,-430
0,1445610,2224,329,-390,-1027,-572,-333,168,114,-430
0,1445624,2224,329,-390,-1027,-572,-333,168,114,-430
0,1445637,2226,327,-392,-1024,-575,-333,168,114,-430
0,1445651,2226,325,-387,-1035,-584,-329,163,105,-433
0,1445665,2226,325,-387,-1035,-584,-329,163,105,-433
0,1445681,2225,326,-391,-1023,-579,-333,163,105,-433
0,1445696,2224,324,-398,-1036,-570,-331,163,105,-433
0,1445712,2226,325,-390,-1035,-574,-331,163,105,-433
0,1445727,2226,325,-390,-1035,-574,-331,163,105,-433
0,1445739,2225,324,-393,-1040,-571,-334,163,105,-433
0,1445753,2223,328,-392,-1036,-578,-333,163,105,-433
0,1445768,2225,323,-388,-1033,-574,-324,163,105,-433
0,1445781,2225,323,-388,-1033,-574,-324,175,111,-435
0,1445794,2223,326,-393,-1030,-571,-327,175,111,-435
0,1445808,2225,321,-390,-1033,-579,-323,175,111,-435
0,1445822,2225,321,-390,-1033,-579,-323,175,111,-435
0,1445837,2228,325,-389,-1033,-579,-325,175,111,-435
0,1445850,2224,327,-395,-1042,-577,-328,175,111,-435
0,1445864,2224,327,-395,-1042,-577,-328,175,111,-435
0,1445877,2226,324,-395,-1040,-581,-321,175,111,-435
0,1445892,2226,326,-388,-1037,-579,-326,171,113,-437
0,1445904,2226,326,-388,-1037,-579,-326,171,113,-437
0,1445917,2227,328,-385,-1033,-571,-321,171,113,-437
0,1445931,2223,324,-389,-1038,-575,-322,171,113,-437
0,1445946,2223,324,-389,-1038,-575,-322,171,113,-437
0,1445959,2226,323,-389,-1042,-578,-322,171,113,-437
0,1445975,2228,322,-399,-1036,-579,-328,171,113,-437
0,1445990,2225,326,-399,-1038,-570,-330,171,113,-437
0,1446005,2225,326,-399,-1038,-570,-330,171,113,-437
0,1446020,2224,328,-394,-1036,-577,-335,171,113,-437
0,1446033,2222,327,-390,-1038,-574,-333,159,115,-435
0,1446046,2222,327,-390,-1038,-574,-333,159,115,-435
0,1446060,2224,324,-391,-1039,-571,-335,159,115,-435
0,1446075,2222,325,-393,-1040,-579,-328,159,115,-435
0,1446086,2222,325,-393,-1040,-579,-328,159,115,-435
0,1446100,2224,326,-394,-1048,-579,-340,159,115,-435
0,1446115,2225,327,-388,-1041,-579,-343,159,115,-435
0,1446128,2225,327,-388,-1041,-579,-343,159,115,-435
0,1446142,2224,327,-390,-1033,-576,-326,159,115,-435
0,1446158,2224,325,-389,-1037,-581,-330,157,117,-439
0,1446172,2224,325,-391,-1042,-567,-331,157,117,-439
0,1446184,2224,325,-391,-1042,-567,-331,157,117,-439
0,1446200,2223,326,-390,-1030,-568,-330,157,117,-439
0,1446214,2227,329,-390,-1031,-578,-334,157,117,-439
0,1446230,2226,327,-389,-1037,-577,-327,157,117,-439
0,1446241,2226,327,-389,-1037,-577,-327,157,117,-439
0,1446255,2225,324,-393,-1033,-578,-329,157,117,-439
0,1446268,2225,324,-393,-1033,-578,-329,157,117,-439
0,1446282,2225,326,-389,-1036,-580,-326,157,117,-439
0,1446296,2224,328,-387,-1038,-571,-329,160,118,-432
0,1446310,2222,326,-386,-1035,-579,-326,160,118,-432
0,1446322,2222,326,-386,-1035,-579,-326,160,118,-432
0,1446335,2223,328,-392,-1039,-577,-321,160,118,-432
0,1446349,2225,324,-391,-1037,-578,-328,160,118,-432
0,1446362,2225,324,-391,-1037,-578,-328,160,118,-432
0,1446377,2225,329,-395,-1035,-572,-330,160,118,-432
0,1446392,2223,327,-391,-1033,-568,-331,160,118,-432
0,1446408,2223,327,-391,-1033,-568,-331,160,118,-432
0,1446424,2224,323,-390,-1027,-566,-328,165,103,-429
0,1446437,2226,327,-393,-1037,-568,-327,165,103,-429
0,1446451,2226,323,-389,-1044,-573,-325,165,103,-429
0,1446465,2226,323,-389,-1044,-573,-325,165,103,-429
0,1446477,2230,320,-392,-1036,-573,-320,165,103,-429
0,1446490,2226,323,-390,-1029,-571,-328,165,103,-429
0,1446504,2226,323,-390,-1029,-571,-328,165,103,-429
0,1446517,2222,326,-396,-1037,-573,-330,165,103,-429
0,1446531,2227,326,-388,-1047,-581,-328,165,103,-429
0,1446545,2227,326,-388,-1047,-581,-328,165,103,-429
0,1446554,2228,326,-390,-1046,-583,-333,167,107,-435
0,1446568,2228,326,-390,-1046,-583,-333,167,107,-435
0,1446583,2226,324,-394,-1030,-572,-336,167,107,-435
0,1446601,2227,325,-391,-1026,-576,-331,167,107,-435
0,1446616,2224,326,-393,-1031,-573,-329,167,107,-435
0,1446628,2224,326,-393,-1031,-573,-329,167,107,-435
0,1446642,2223,324,-392,-1033,-581,-331,167,107,-435
0,1446658,2223,325,-397,-1039,-567,-329,167,107,-435
0,1446671,2226,323,-386,-1041,-563,-332,161,113,-437
0,1446685,2226,323,-386,-1041,-563,-332,161,113,-437
0,1446699,2226,326,-387,-1034,-569,-329,161,113,-437
0,1446711,2225,325,-397,-1036,-570,-330,161,113,-437
0,1446723,2225,325,-397,-1036,-570,-330,161,113,-437
0,1446737,2225,324,-392,-1045,-571,-336,161,113,-437
0,1446751,2226,324,-393,-1036,-583,-325,161,113,-437
0,1446765,2226,324,-393,-1036,-583,-325,161,113,-437
0,1446776,2226,325,-390,-1035,-574,-323,161,113,-437
0,1446789,2226,325,-390,-1035,-574,-323,161,113,-437
0,1446803,2226,325,-390,-1035,-571,-320,165,115,-431
0,1446816,2225,325,-387,-1034,-575,-328,165,115,-431
0,1446831,2226,327,-390,-1045,-583,-330,165,115,-431
0,1446846,2226,327,-390,-1045,-583,-330,165,115,-431
0,1446860,2226,326,-395,-1041,-579,-333,165,115,-431
0,1446876,2224,329,-395,-1031,-576,-332,165,115,-431
0,1446890,2222,326,-391,-1040,-570,-327,165,115,-431
0,1446903,2222,326,-391,-1040,-570,-327,165,115,-431
0,1446919,2224,325,-396,-1039,-573,-336,165,115,-431
0,1446931,2226,324,-386,-1036,-577,-330,168,116,-442
0,1446943,2226,324,-386,-1036,-577,-330,168,116,-442
0,1446957,2224,325,-393,-1033,-575,-327,168,116,-442
0,1446970,2225,324,-390,-1042,-568,-327,168,116,-442
0,1446979,2225,324,-390,-1042,-568,-327,168,116,-442
0,1446989,2228,326,-390,-1037,-572,-331,168,116,-442
0,1447004,2228,326,-390,-1037,-572,-331,168,116,-442
0,1447018,2225,326,-393,-1036,-580,-329,168,116,-442
0,1447031,2227,325,-393,-1038,-580,-334,168,116,-442
0,1447045,2227,325,-393,-1038,-580,-334,168,116,-442
0,1447057,2227,325,-393,-1038,-580,-334,177,111,-441
0,1447071,2224,325,-392,-1036,-574,-332,177,111,-441
0,1447086,2224,325,-392,-1036,-574,-332,177,111,-441
0,1447101,2226,324,-383,-1037,-582,-326,177,111,-441
0,1447113,2225,327,-390,-1026,-571,-333,177,111,-441
0,1447128,2225,327,-390,-1026,-571,-333,177,111,-441
0,1447143,2228,327,-394,-1025,-568,-324,177,111,-441
0,1447156,2226,325,-396,-1037,-578,-323,177,111,-441
0,1447171,2225,325,-390,-1033,-581,-320,177,111,-441
0,1447178,2225,325,-390,-1033,-581,-320,177,111,-441
0,1447191,2226,324,-384,-1032,-572,-332,168,112,-438
0,1447205,2226,324,-384,-1032,-572,-332,168,112,-438
0,1447219,2225,327,-392,-1030,-576,-336,168,112,-438
0,1447233,2221,325,-391,-1035,-569,-326,168,112,-438
0,1447246,2221,325,-391,-1035,-569,-326,168,112,-438
0,1447258,2225,327,-393,-1028,-574,-323,168,112,-438
0,1447272,2226,325,-397,-1040,-574,-321,168,112,-438
0,1447287,2226,325,-397,-1040,-574,-321,168,112,-438
0,1447303,2229,326,-393,-1034,-571,-325,168,112,-438
0,1447314,2224,326,-386,-1035,-570,-328,165,111,-441
0,1447327,2224,326,-386,-1035,-570,-328,165,111,-441
0,1447341,2223,324,-393,-1035,-569,-323,165,111,-441
0,1447354,2224,326,-387,-1034,-574,-322,165,111,-441
0,1447368,2224,326,-387,-1034,-574,-322,165,111,-441
0,1447382,2223,324,-392,-1027,-565,-325,165,111,-441
0,1447393,2222,324,-394,-1025,-575,-323,165,111,-441
0,1447407,2222,324,-394,-1025,-575,-323,165,111,-441
0,1447422,2226,324,-393,-1029,-582,-331,165,111,-441
0,1447436,2224,323,-393,-1035,-578,-338,163,119,-427
0,1447450,2224,323,-393,-1035,-578,-338,163,119,-427
0,1447465,2223,325,-393,-1026,-575,-324,163,119,-427
0,1447481,2224,326,-390,-1032,-574,-330,163,119,-427
0,1447495,2225,325,-393,-1039,-577,-330,163,119,-427
0,1447510,2225,325,-393,-1039,-577,-330,163,119,-427
0,1447524,2224,326,-390,-1037,-577,-329,163,119,-427
0,1447538,2223,326,-394,-1043,-573,-330,163,119,-427
0,1447549,2223,326,-394,-1043,-573,-330,163,119,-427
0,1447562,2228,326,-387,-1033,-572,-329,163,119,-427
0,1447576,2225,328,-385,-1037,-573,-330,166,110,-426
0,1447589,2225,328,-385,-1037,-573,-330,166,110,-426
0,1447604,2225,327,-388,-1043,-573,-333,166,110,-426
0,1447614,2222,325,-390,-1039,-566,-324,166,110,-426
0,1447626,2222,325,-390,-1039,-566,-324,166,110,-426
0,1447641,2222,329,-390,-1037,-578,-323,166,110,-426
0,1447654,2224,323,-390,-1042,-579,-322,166,110,-426
0,1447668,2224,323,-390,-1042,-579,-322,166,110,-426
0,1447684,2225,326,-400,-1034,-571,-330,166,110,-426
0,1447699,2223,328,-394,-1042,-573,-330,170,104,-434
0,1447714,2221,327,-391,-1044,-576,-328,170,104,-434
0,1447730,2221,327,-391,-1044,-576,-328,170,104,-434
0,1447743,2223,324,-392,-1035,-576,-328,170,104,-434
0,1447757,2226,324,-394,-1039,-568,-329,170,104,-434
0,1447771,2224,323,-395,-1037,-574,-336,170,104,-434
0,1447782,2224,323,-395,-1037,-574,-336,170,104,-434
0,1447795,2223,322,-390,-1035,-571,-337,170,104,-434
0,1447809,2223,322,-390,-1035,-571,-337,170,104,-434
0,1447823,2225,326,-389,-1032,-564,-330,170,104,-434
0,1447837,2226,326,-398,-1040,-572,-332,162,116,-442
0,1447851,2226,326,-398,-1040,-572,-332,162,116,-442
0,1447862,2223,326,-392,-1033,-571,-331,162,116,-442
0,1447876,2223,327,-391,-1035,-570,-329,162,116,-442
0,1447890,2223,327,-391,-1035,-570,-329,162,116,-442
0,1447905,2227,322,-391,-1027,-575,-326,162,116,-442
