imu,time,ax,ay,az,gx,gy,gz,mx,my,mz
2,2765222,-1399,527,3169,7230,249,-97,106,-26,-224
2,2765237,-1400,539,3174,7234,247,-87,106,-26,-224
2,2765250,-1400,539,3174,7234,247,-87,106,-26,-224
2,2765261,-1404,522,3173,7233,242,-84,106,-26,-224
2,2765274,-1397,524,3181,7235,249,-87,107,-19,-233
2,2765287,-1397,524,3181,7235,249,-87,107,-19,-233
2,2765300,-1399,513,3175,7240,247,-95,107,-19,-233
2,2765315,-1404,512,3171,7241,249,-92,107,-19,-233
2,2765326,-1404,512,3171,7241,249,-92,107,-19,-233
2,2765337,-1399,505,3171,7244,244,-84,107,-19,-233
2,2765350,-1405,507,3174,7247,249,-89,107,-19,-233
2,2765365,-1405,507,3174,7247,249,-89,107,-19,-233
2,2765380,-1401,511,3168,7243,249,-95,107,-19,-233
2,2765395,-1403,507,3175,7239,248,-94,111,-29,-223
2,2765410,-1403,507,3175,7239,248,-94,111,-29,-223
2,2765424,-1397,527,3182,7238,246,-98,111,-29,-223
2,2765437,-1398,513,3175,7245,246,-94,111,-29,-223
2,2765452,-1399,522,3173,7235,239,-93,111,-29,-223
2,2765461,-1399,522,3173,7235,239,-93,111,-29,-223
2,2765469,-1399,522,3173,7235,239,-93,111,-29,-223
2,2765483,-1402,518,3173,7235,245,-94,111,-29,-223
2,2765496,-1404,525,3172,7238,241,-96,111,-29,-223
2,2765509,-1404,525,3172,7238,241,-96,111,-29,-223
2,2765522,-1401,517,3176,7245,243,-96,117,-13,-215
2,2765537,-1405,508,3173,7241,248,-88,117,-13,-215
2,2765550,-1405,508,3173,7241,248,-88,117,-13,-215
2,2765564,-1402,521,3178,7244,245,-94,117,-13,-215
2,2765577,-1404,503,3177,7242,249,-91,117,-13,-215
2,2765590,-1404,503,3177,7242,249,-91,117,-13,-215
2,2765605,-1401,501,3178,7236,250,-88,117,-13,-215
2,2765622,-1397,495,3180,7243,234,-90,117,-13,-215
2,2765637,-1397,509,3180,7248,236,-80,131,-21,-227
2,2765650,-1398,487,3177,7246,246,-85,131,-21,-227
2,2765663,-1398,487,3177,7246,246,-85,131,-21,-227
2,2765677,-1398,487,3177,7246,246,-85,131,-21,-227
2,2765690,-1398,487,3177,7246,246,-85,131,-21,-227
2,2765704,-1398,493,3172,7244,243,-84,131,-21,-227
2,2765719,-1404,493,3173,7239,246,-86,131,-21,-227
2,2765732,-1404,478,3166,7239,235,-90,131,-21,-227
2,2765746,-1404,478,3166,7239,235,-90,131,-21,-227
2,2765758,-1393,485,3176,7246,241,-95,136,-30,-226
2,2765766,-1393,485,3176,7246,241,-95,136,-30,-226
2,2765774,-1398,488,3174,7234,242,-91,136,-30,-226
2,2765783,-1398,488,3174,7234,242,-91,136,-30,-226
2,2765790,-1398,488,3174,7234,242,-91,136,-30,-226
2,2765798,-1399,501,3167,7239,240,-84,136,-30,-226
2,2765806,-1399,501,3167,7239,240,-84,136,-30,-226
2,2765814,-1399,484,3170,7234,248,-92,136,-30,-226
2,2765821,-1399,484,3170,7234,248,-92,136,-30,-226
2,2765830,-1399,484,3170,7234,248,-92,136,-30,-226
2,2765838,-1397,499,3174,7232,248,-100,136,-30,-226
2,2765846,-1397,499,3174,7232,248,-100,136,-30,-226
2,2765855,-1393,480,3175,7238,243,-89,136,-30,-226
2,2765862,-1393,480,3175,7238,243,-89,136,-30,-226
2,2765871,-1401,488,3160,7234,244,-84,137,-15,-229
2,2765880,-1401,488,3160,7234,244,-84,137,-15,-229
2,2765888,-1401,488,3160,7234,244,-84,137,-15,-229
2,2765896,-1402,486,3175,7237,254,-85,137,-15,-229
2,2765904,-1402,486,3175,7237,254,-85,137,-15,-229
2,2765913,-1399,495,3167,7236,248,-90,137,-15,-229
2,2765920,-1399,495,3167,7236,248,-90,137,-15,-229
2,2765930,-1399,495,3167,7236,248,-90,137,-15,-229
2,2765938,-1397,476,3168,7237,240,-89,137,-15,-229
2,2765946,-1397,476,3168,7237,240,-89,137,-15,-229
2,2765955,-1402,486,3162,7229,249,-87,137,-15,-229
2,2765963,-1402,486,3162,7229,249,-87,137,-15,-229
2,2765970,-1402,486,3162,7229,249,-87,137,-15,-229
2,2765979,-1395,488,3165,7236,258,-91,137,-15,-229
2,2765986,-1395,488,3165,7236,258,-91,137,-15,-229
2,2765996,-1400,496,3162,7225,244,-94,137,-15,-229
2,2766003,-1400,496,3162,7225,244,-94,137,-15,-229
2,2766012,-1398,484,3168,7227,241,-95,143,-9,-223
2,2766021,-1398,484,3168,7227,241,-95,143,-9,-223
2,2766031,-1400,495,3164,7225,249,-85,143,-9,-223
2,2766041,-1400,495,3164,7225,249,-85,143,-9,-223
2,2766051,-1400,495,3164,7225,249,-85,143,-9,-223
2,2766061,-1397,495,3162,7230,243,-81,143,-9,-223
2,2766075,-1400,494,3163,7230,247,-90,143,-9,-223
2,2766089,-1400,494,3163,7230,247,-90,143,-9,-223
2,2766103,-1400,497,3166,7228,244,-86,143,-9,-223
2,2766118,-1401,515,3163,7229,241,-90,143,-9,-223
2,2766127,-1401,515,3163,7229,241,-90,143,-9,-223
2,2766141,-1404,536,3168,7230,242,-88,151,-13,-223
2,2766154,-1404,573,3168,7222,249,-82,151,-13,-223
2,2766170,-1404,573,3168,7222,249,-82,151,-13,-223
2,2766178,-1401,539,3169,7226,245,-92,151,-13,-223
2,2766185,-1401,539,3169,7226,245,-92,151,-13,-223
2,2766195,-1397,544,3170,7231,241,-96,151,-13,-223
2,2766204,-1397,544,3170,7231,241,-96,151,-13,-223
2,2766213,-1394,550,3177,7234,235,-88,151,-13,-223
2,2766221,-1394,550,3177,7234,235,-88,151,-13,-223
2,2766232,-1407,539,3169,7241,244,-84,151,-13,-223
2,2766246,-1407,539,3169,7241,244,-84,151,-13,-223
2,2766260,-1400,529,3180,7251,248,-92,153,-11,-231
2,2766273,-1403,504,3170,7243,242,-95,153,-11,-231
2,2766287,-1403,504,3170,7243,242,-95,153,-11,-231
2,2766303,-1398,514,3175,7243,246,-96,153,-11,-231
2,2766317,-1403,503,3170,7242,247,-87,153,-11,-231
2,2766328,-1403,503,3170,7242,247,-87,153,-11,-231
2,2766342,-1408,531,3171,7235,246,-89,153,-11,-231
2,2766356,-1394,515,3176,7234,246,-95,153,-11,-231
2,2766369,-1394,515,3176,7234,246,-95,153,-11,-231
2,2766383,-1399,530,3176,7229,244,-86,157,-7,-213
2,2766394,-1395,518,3179,7229,238,-89,157,-7,-213
2,2766403,-1395,518,3179,7229,238,-89,157,-7,-213
2,2766417,-1403,542,3176,7233,243,-89,157,-7,-213
2,2766430,-1403,542,3176,7233,243,-89,157,-7,-213
2,2766444,-1402,521,3184,7244,243,-80,157,-7,-213
2,2766459,-1403,516,3172,7248,240,-80,157,-7,-213
2,2766473,-1399,497,3172,7245,248,-91,157,-7,-213
2,2766484,-1399,497,3172,7245,248,-91,157,-7,-213
2,2766492,-1401,513,3176,7248,250,-87,156,0,-214
2,2766505,-1401,513,3176,7248,250,-87,156,0,-214
2,2766519,-1403,494,3183,7242,248,-88,156,0,-214
2,2766531,-1403,494,3183,7242,248,-88,156,0,-214
2,2766544,-1402,505,3178,7245,249,-90,156,0,-214
2,2766559,-1400,487,3176,7245,246,-92,156,0,-214
2,2766571,-1400,487,3176,7245,246,-92,156,0,-214
2,2766584,-1396,522,3173,7237,241,-81,156,0,-214
2,2766597,-1401,447,3177,7241,246,-84,156,0,-214
2,2766610,-1401,447,3177,7241,246,-84,156,0,-214
2,2766623,-1396,512,3169,7236,246,-83,156,0,-214
2,2766638,-1394,467,3183,7239,248,-81,166,-8,-200
2,2766652,-1401,512,3169,7237,239,-80,166,-8,-200
2,2766665,-1401,512,3169,7237,239,-80,166,-8,-200
2,2766680,-1397,460,3177,7243,239,-82,166,-8,-200
2,2766694,-1401,504,3162,7235,244,-90,166,-8,-200
2,2766709,-1401,504,3162,7235,244,-90,166,-8,-200
2,2766726,-1389,475,3175,7234,242,-91,166,-8,-200
2,2766737,-1412,500,3166,7234,233,-89,166,-8,-200
2,2766750,-1412,500,3166,7234,233,-89,166,-8,-200
2,2766764,-1394,480,3176,7235,239,-90,169,-7,-207
2,2766778,-1401,504,3170,7237,245,-91,169,-7,-207
2,2766791,-1401,504,3170,7237,245,-91,169,-7,-207
2,2766806,-1394,486,3169,7230,240,-85,169,-7,-207
2,2766818,-1401,496,3169,7233,238,-92,169,-7,-207
2,2766830,-1401,496,3169,7233,238,-92,169,-7,-207
2,2766844,-1396,490,3165,7242,245,-95,169,-7,-207
2,2766858,-1401,491,3172,7234,243,-85,169,-7,-207
2,2766872,-1395,484,3170,7231,241,-84,162,-4,-196
2,2766886,-1395,484,3170,7231,241,-84,162,-4,-196
2,2766900,-1402,492,3170,7233,247,-93,162,-4,-196
2,2766914,-1396,500,3159,7232,242,-92,162,-4,-196
2,2766928,-1396,500,3159,7232,242,-92,162,-4,-196
2,2766945,-1398,495,3166,7227,240,-83,162,-4,-196
2,2766958,-1402,493,3164,7234,240,-84,162,-4,-196
2,2766970,-1402,493,3164,7234,240,-84,162,-4,-196
2,2766984,-1400,506,3166,7231,244,-89,162,-4,-196
2,2766998,-1398,518,3167,7228,247,-90,159,-9,-193
2,2767012,-1398,537,3171,7229,242,-90,159,-9,-193
2,2767027,-1398,537,3171,7229,242,-90,159,-9,-193
2,2767039,-1405,545,3167,7228,239,-92,159,-9,-193
2,2767053,-1402,540,3170,7232,230,-88,159,-9,-193
2,2767066,-1402,540,3170,7232,230,-88,159,-9,-193
2,2767080,-1401,522,3163,7229,242,-90,159,-9,-193
2,2767093,-1402,544,3172,7232,249,-89,159,-9,-193
2,2767108,-1402,544,3172,7232,249,-89,159,-9,-193
2,2767120,-1410,529,3167,7240,245,-89,169,-5,-181
2,2767132,-1404,532,3179,7240,243,-91,169,-5,-181
2,2767147,-1404,532,3179,7240,243,-91,169,-5,-181
2,2767161,-1399,507,3170,7242,246,-94,169,-5,-181
2,2767176,-1403,523,3179,7239,244,-94,169,-5,-181
2,2767186,-1403,523,3179,7239,244,-94,169,-5,-181
2,2767202,-1400,507,3171,7234,241,-87,169,-5,-181
2,2767215,-1404,513,3177,7240,242,-85,169,-5,-181
2,2767228,-1404,513,3177,7240,242,-85,169,-5,-181
2,2767243,-1394,497,3172,7242,247,-94,169,-5,-181
2,2767257,-1403,507,3180,7239,247,-90,163,-9,-177
2,2767270,-1403,507,3180,7239,247,-90,163,-9,-177
2,2767284,-1395,505,3173,7240,242,-88,163,-9,-177
2,2767299,-1406,510,3170,7237,237,-91,163,-9,-177
2,2767314,-1401,510,3176,7241,243,-93,163,-9,-177
2,2767330,-1401,510,3176,7241,243,-93,163,-9,-177
2,2767343,-1402,509,3169,7237,237,-87,163,-9,-177
2,2767356,-1399,516,3179,7241,242,-89,163,-9,-177
2,2767371,-1399,516,3179,7241,242,-89,163,-9,-177
2,2767386,-1399,523,3177,7242,240,-86,160,-14,-166
2,2767400,-1401,512,3180,7245,246,-84,160,-14,-166
2,2767414,-1398,509,3178,7240,247,-89,160,-14,-166
2,2767428,-1398,509,3178,7240,247,-89,160,-14,-166
2,2767442,-1404,518,3179,7238,240,-91,160,-14,-166
2,2767458,-1400,525,3169,7244,244,-80,160,-14,-166
2,2767468,-1400,525,3169,7244,244,-80,160,-14,-166
2,2767477,-1405,500,3177,7244,245,-91,160,-14,-166
2,2767490,-1405,500,3177,7244,245,-91,160,-14,-166
2,2767503,-1398,495,3169,7254,245,-98,163,-19,-159
2,2767517,-1401,496,3179,7241,241,-92,163,-19,-159
2,2767533,-1400,505,3171,7242,238,-85,163,-19,-159
2,2767547,-1400,505,3171,7242,238,-85,163,-19,-159
2,2767560,-1403,476,3184,7243,239,-86,163,-19,-159
2,2767575,-1399,471,3172,7240,244,-90,163,-19,-159
2,2767590,-1399,471,3172,7240,244,-90,163,-19,-159
2,2767604,-1396,490,3177,7244,247,-84,163,-19,-159
2,2767619,-1401,499,3179,7241,237,-77,153,-13,-155
2,2767633,-1401,499,3179,7241,237,-77,153,-13,-155
2,2767646,-1404,474,3171,7244,239,-82,153,-13,-155
2,2767661,-1392,487,3174,7237,244,-81,153,-13,-155
2,2767672,-1392,487,3174,7237,244,-81,153,-13,-155
2,2767685,-1399,484,3172,7235,249,-83,153,-13,-155
2,2767698,-1405,494,3171,7236,244,-81,153,-13,-155
2,2767712,-1405,494,3171,7236,244,-81,153,-13,-155
2,2767727,-1397,482,3160,7234,236,-93,153,-13,-155
2,2767741,-1408,491,3172,7232,237,-100,140,-10,-150
2,2767753,-1395,480,3166,7229,244,-94,140,-10,-150
2,2767767,-1395,480,3166,7229,244,-94,140,-10,-150
2,2767777,-1407,491,3170,7229,236,-82,140,-10,-150
2,2767791,-1407,491,3170,7229,236,-82,140,-10,-150
2,2767804,-1399,487,3167,7236,246,-87,140,-10,-150
2,2767818,-1396,498,3167,7237,247,-89,140,-10,-150
2,2767833,-1396,498,3167,7237,247,-89,140,-10,-150
2,2767846,-1394,477,3165,7234,238,-95,140,-10,-150
2,2767861,-1401,490,3163,7229,231,-84,140,-10,-150
2,2767875,-1398,492,3163,7229,242,-80,135,-23,-135
2,2767887,-1398,492,3163,7229,242,-80,135,-23,-135
2,2767900,-1399,497,3157,7223,245,-82,135,-23,-135
2,2767913,-1394,480,3162,7228,246,-97,135,-23,-135
2,2767929,-1394,480,3162,7228,246,-97,135,-23,-135
2,2767942,-1398,491,3162,7229,243,-89,135,-23,-135
2,2767953,-1398,502,3159,7235,243,-93,135,-23,-135
2,2767969,-1398,502,3159,7235,243,-93,135,-23,-135
2,2767981,-1402,506,3165,7227,249,-94,135,-23,-135
2,2767995,-1401,509,3165,7221,246,-96,131,-23,-137
2,2768011,-1401,509,3165,7221,246,-96,131,-23,-137
2,2768026,-1401,556,3165,7217,251,-89,131,-23,-137
2,2768041,-1406,559,3157,7225,244,-78,131,-23,-137
2,2768055,-1405,554,3162,7226,243,-85,131,-23,-137
2,2768068,-1405,554,3162,7226,243,-85,131,-23,-137
2,2768082,-1407,530,3158,7227,243,-90,131,-23,-137
2,2768096,-1401,559,3168,7230,254,-82,131,-23,-137
2,2768111,-1401,559,3168,7230,254,-82,131,-23,-137
2,2768124,-1405,536,3178,7244,251,-75,130,-20,-132
2,2768138,-1409,521,3169,7242,244,-79,130,-20,-132
2,2768151,-1409,521,3169,7242,244,-79,130,-20,-132
2,2768165,-1394,516,3178,7242,246,-85,130,-20,-132
2,2768180,-1403,512,3174,7235,245,-86,130,-20,-132
2,2768193,-1403,512,3174,7235,245,-86,130,-20,-132
2,2768205,-1403,506,3176,7236,242,-79,130,-20,-132
2,2768217,-1402,510,3167,7236,243,-93,130,-20,-132
2,2768230,-1402,510,3167,7236,243,-93,130,-20,-132
2,2768245,-1404,514,3174,7234,249,-88,109,-29,-117
2,2768261,-1394,516,3177,7242,243,-90,109,-29,-117
2,2768276,-1405,510,3171,7239,234,-90,109,-29,-117
2,2768289,-1405,510,3171,7239,234,-90,109,-29,-117
2,2768304,-1403,532,3174,7240,242,-97,109,-29,-117
2,2768318,-1403,511,3177,7236,243,-92,109,-29,-117
2,2768331,-1403,511,3177,7236,243,-92,109,-29,-117
2,2768343,-1404,515,3180,7235,248,-90,109,-29,-117
2,2768357,-1399,497,3176,7244,239,-89,107,-25,-117
2,2768371,-1399,497,3176,7244,239,-89,107,-25,-117
2,2768385,-1402,516,3180,7239,240,-85,107,-25,-117
2,2768399,-1397,499,3175,7251,243,-87,107,-25,-117
2,2768410,-1397,499,3175,7251,243,-87,107,-25,-117
2,2768422,-1408,497,3175,7244,242,-80,107,-25,-117
2,2768437,-1396,496,3170,7241,247,-85,107,-25,-117
2,2768453,-1396,496,3170,7241,247,-85,107,-25,-117
2,2768468,-1405,503,3169,7245,245,-93,107,-25,-117
2,2768481,-1402,505,3175,7237,248,-88,107,-25,-117
2,2768494,-1402,490,3183,7236,244,-89,102,-32,-114
2,2768508,-1402,490,3183,7236,244,-89,102,-32,-114
2,2768522,-1398,460,3177,7238,245,-87,102,-32,-114
2,2768536,-1393,500,3174,7238,244,-83,102,-32,-114
2,2768549,-1393,500,3174,7238,244,-83,102,-32,-114
2,2768562,-1403,490,3174,7238,240,-86,102,-32,-114
2,2768574,-1399,488,3175,7239,233,-89,102,-32,-114
2,2768587,-1399,488,3175,7239,233,-89,102,-32,-114
2,2768601,-1394,474,3176,7243,243,-102,102,-32,-114
2,2768615,-1399,487,3176,7235,244,-93,103,-25,-107
2,2768627,-1399,487,3176,7235,244,-93,103,-25,-107
2,2768641,-1397,490,3168,7231,250,-89,103,-25,-107
2,2768656,-1406,489,3167,7228,237,-88,103,-25,-107
2,2768670,-1406,489,3167,7228,237,-88,103,-25,-107
2,2768686,-1398,483,3168,7232,241,-94,103,-25,-107
2,2768698,-1394,481,3170,7235,251,-95,103,-25,-107
2,2768711,-1394,481,3170,7235,251,-95,103,-25,-107
2,2768724,-1399,495,3168,7232,244,-83,103,-25,-107
2,2768739,-1400,493,3175,7239,241,-91,94,-30,-106
2,2768752,-1400,493,3175,7239,241,-91,94,-30,-106
2,2768766,-1400,503,3171,7235,247,-96,94,-30,-106
2,2768778,-1400,503,3171,7235,247,-96,94,-30,-106
2,2768791,-1400,503,3171,7235,247,-96,94,-30,-106
2,2768805,-1400,505,3160,7238,244,-87,94,-30,-106
2,2768819,-1399,500,3160,7236,240,-86,94,-30,-106
2,2768833,-1399,500,3160,7236,240,-86,94,-30,-106
2,2768849,-1401,511,3163,7239,238,-90,94,-30,-106
2,2768864,-1398,494,3169,7226,240,-90,85,-29,-97
2,2768879,-1404,508,3168,7233,241,-88,85,-29,-97
2,2768893,-1401,545,3166,7233,249,-82,85,-29,-97
2,2768908,-1401,545,3166,7233,249,-82,85,-29,-97
2,2768921,-1409,537,3168,7224,239,-85,85,-29,-97
2,2768932,-1409,537,3168,7224,239,-85,85,-29,-97
2,2768943,-1399,536,3168,7225,240,-87,85,-29,-97
2,2768956,-1402,532,3166,7235,243,-85,85,-29,-97
2,2768970,-1402,532,3166,7235,243,-85,85,-29,-97
2,2768982,-1404,542,3172,7240,239,-85,83,-27,-99
2,2768996,-1401,540,3173,7238,240,-87,83,-27,-99
2,2769009,-1401,540,3173,7238,240,-87,83,-27,-99
2,2769024,-1409,516,3171,7241,240,-92,83,-27,-99
2,2769037,-1409,516,3171,7241,240,-92,83,-27,-99
2,2769051,-1409,516,3171,7241,240,-92,83,-27,-99
2,2769061,-1401,512,3175,7240,239,-84,83,-27,-99
2,2769076,-1408,529,3176,7243,237,-86,83,-27,-99
2,2769092,-1408,529,3176,7243,237,-86,83,-27,-99
2,2769107,-1401,497,3183,7246,239,-98,74,-30,-106
2,2769122,-1395,504,3181,7241,238,-91,74,-30,-106
2,2769135,-1398,489,3181,7242,246,-88,74,-30,-106
2,2769148,-1398,489,3181,7242,246,-88,74,-30,-106
2,2769163,-1403,509,3171,7243,239,-89,74,-30,-106
2,2769177,-1399,501,3179,7233,240,-87,74,-30,-106
2,2769190,-1399,501,3179,7233,240,-87,74,-30,-106
2,2769205,-1404,497,3173,7238,245,-85,74,-30,-106
2,2769216,-1396,493,3178,7236,242,-92,74,-30,-106
2,2769228,-1396,493,3178,7236,242,-92,74,-30,-106
2,2769243,-1404,505,3177,7238,242,-90,70,-24,-104
2,2769256,-1406,509,3174,7238,242,-95,70,-24,-104
2,2769266,-1406,509,3174,7238,242,-95,70,-24,-104
2,2769278,-1404,507,3179,7233,248,-96,70,-24,-104
2,2769292,-1404,507,3179,7233,248,-96,70,-24,-104
2,2769302,-1401,507,3174,7235,247,-91,70,-24,-104
2,2769316,-1401,519,3181,7235,251,-91,70,-24,-104
2,2769329,-1401,519,3181,7235,251,-91,70,-24,-104
2,2769343,-1402,512,3171,7242,243,-94,70,-24,-104
2,2769358,-1397,521,3183,7242,239,-90,72,-24,-104
2,2769373,-1397,521,3183,7242,239,-90,72,-24,-104
2,2769385,-1398,493,3172,7239,247,-91,72,-24,-104
2,2769398,-1399,502,3173,7241,242,-85,72,-24,-104
2,2769412,-1399,502,3173,7241,242,-85,72,-24,-104
2,2769425,-1396,490,3182,7250,244,-88,72,-24,-104
2,2769438,-1402,505,3176,7244,244,-90,72,-24,-104
2,2769453,-1402,505,3176,7244,244,-90,72,-24,-104
2,2769465,-1398,447,3180,7245,239,-93,72,-24,-104
2,2769478,-1400,490,3174,7243,241,-91,62,-24,-118
2,2769494,-1400,490,3174,7243,241,-91,62,-24,-118
2,2769507,-1399,479,3182,7241,242,-86,62,-24,-118
2,2769520,-1400,499,3175,7242,241,-90,62,-24,-118
2,2769534,-1399,462,3176,7242,251,-91,62,-24,-118
2,2769545,-1399,462,3176,7242,251,-91,62,-24,-118
2,2769560,-1398,492,3170,7234,248,-87,62,-24,-118
2,2769575,-1395,488,3168,7228,238,-88,62,-24,-118
2,2769590,-1395,488,3168,7228,238,-88,62,-24,-118
2,2769600,-1410,495,3168,7226,231,-85,54,-28,-114
2,2769615,-1396,477,3169,7234,235,-95,54,-28,-114
2,2769629,-1396,477,3169,7234,235,-95,54,-28,-114
2,2769642,-1403,485,3168,7232,239,-89,54,-28,-114
2,2769656,-1396,480,3163,7225,240,-88,54,-28,-114
2,2769672,-1396,480,3163,7225,240,-88,54,-28,-114
2,2769684,-1401,495,3166,7228,242,-83,54,-28,-114
2,2769696,-1398,491,3163,7232,237,-88,54,-28,-114
2,2769710,-1398,491,3163,7232,237,-88,54,-28,-114
2,2769724,-1395,485,3173,7229,248,-83,50,-22,-120
2,2769738,-1400,482,3168,7230,238,-79,50,-22,-120
2,2769748,-1400,482,3168,7230,238,-79,50,-22,-120
2,2769761,-1401,496,3164,7229,242,-82,50,-22,-120
2,2769772,-1401,496,3164,7229,242,-82,50,-22,-120
2,2769787,-1402,498,3163,7230,250,-80,50,-22,-120
2,2769802,-1401,484,3157,7223,242,-84,50,-22,-120
2,2769815,-1401,481,3159,7228,246,-84,50,-22,-120
2,2769829,-1401,481,3159,7228,246,-84,50,-22,-120
2,2769845,-1404,490,3161,7228,247,-82,50,-22,-120
2,2769859,-1401,504,3167,7226,247,-82,51,-25,-119
2,2769873,-1401,504,3167,7226,247,-82,51,-25,-119
2,2769885,-1395,506,3165,7221,246,-88,51,-25,-119
2,2769898,-1401,531,3166,7224,250,-89,51,-25,-119
2,2769912,-1401,531,3166,7224,250,-89,51,-25,-119
2,2769926,-1403,570,3162,7228,243,-84,51,-25,-119
2,2769940,-1408,542,3165,7228,240,-88,51,-25,-119
2,2769953,-1408,542,3165,7228,240,-88,51,-25,-119
2,2769967,-1401,534,3159,7231,241,-98,51,-25,-119
2,2769981,-1402,555,3175,7235,247,-90,51,-17,-123
2,2769994,-1402,555,3175,7235,247,-90,51,-17,-123
2,2770009,-1410,536,3164,7236,243,-80,51,-17,-123
2,2770023,-1400,541,3169,7243,243,-95,51,-17,-123
2,2770038,-1401,500,3173,7240,246,-93,51,-17,-123
2,2770054,-1401,500,3173,7240,246,-93,51,-17,-123
2,2770069,-1395,524,3180,7242,240,-90,51,-17,-123
2,2770083,-1402,499,3177,7244,244,-81,51,-17,-123
2,2770097,-1405,524,3176,7238,251,-82,63,-19,-133
2,2770110,-1405,524,3176,7238,251,-82,63,-19,-133
2,2770120,-1400,495,3178,7240,257,-87,63,-19,-133
2,2770135,-1400,495,3178,7240,257,-87,63,-19,-133
2,2770148,-1402,518,3172,7243,241,-91,63,-19,-133
2,2770162,-1401,498,3181,7244,241,-89,63,-19,-133
2,2770176,-1403,531,3168,7244,243,-91,63,-19,-133
2,2770188,-1403,531,3168,7244,243,-91,63,-19,-133
2,2770201,-1400,515,3176,7240,246,-88,63,-19,-133
2,2770215,-1403,505,3179,7237,243,-89,54,-26,-138
2,2770229,-1403,505,3179,7237,243,-89,54,-26,-138
2,2770241,-1403,505,3179,7237,243,-89,54,-26,-138
2,2770256,-1402,512,3183,7248,239,-89,54,-26,-138
2,2770271,-1402,512,3183,7248,239,-89,54,-26,-138
2,2770283,-1401,506,3175,7247,244,-94,54,-26,-138
2,2770298,-1401,499,3183,7239,242,-92,54,-26,-138
2,2770313,-1401,499,3183,7239,242,-92,54,-26,-138
2,2770328,-1401,488,3173,7238,247,-85,54,-26,-138
2,2770341,-1402,509,3179,7248,249,-84,52,-34,-146
2,2770354,-1402,509,3179,7248,249,-84,52,-34,-146
2,2770368,-1404,498,3173,7244,252,-91,52,-34,-146
2,2770381,-1404,496,3182,7247,245,-88,52,-34,-146
2,2770396,-1399,445,3179,7243,247,-90,52,-34,-146
2,2770410,-1399,445,3179,7243,247,-90,52,-34,-146
2,2770424,-1398,502,3169,7246,246,-94,52,-34,-146
2,2770438,-1401,483,3177,7243,248,-87,52,-34,-146
2,2770450,-1401,483,3177,7243,248,-87,52,-34,-146
2,2770463,-1405,490,3171,7255,246,-98,52,-34,-146
2,2770478,-1393,469,3184,7239,244,-95,56,-26,-152
2,2770492,-1393,469,3184,7239,244,-95,56,-26,-152
2,2770507,-1401,489,3175,7237,245,-90,56,-26,-152
2,2770520,-1396,489,3172,7237,239,-87,56,-26,-152
2,2770534,-1396,489,3172,7237,239,-87,56,-26,-152
2,2770548,-1408,483,3171,7236,245,-92,56,-26,-152
2,2770563,-1400,490,3164,7235,240,-94,56,-26,-152
2,2770576,-1395,479,3170,7232,250,-86,56,-26,-152
2,2770588,-1395,479,3170,7232,250,-86,56,-26,-152
2,2770603,-1400,494,3168,7233,242,-89,55,-25,-165
2,2770616,-1402,484,3176,7231,242,-81,55,-25,-165
2,2770630,-1402,484,3176,7231,242,-81,55,-25,-165
2,2770643,-1397,499,3164,7233,242,-91,55,-25,-165
2,2770656,-1397,481,3173,7232,243,-89,55,-25,-165
2,2770666,-1397,481,3173,7232,243,-89,55,-25,-165
2,2770680,-1400,505,3160,7236,242,-92,55,-25,-165
2,2770694,-1400,505,3160,7236,242,-92,55,-25,-165
2,2770705,-1399,504,3179,7230,245,-91,55,-25,-165
2,2770718,-1398,507,3170,7229,233,-93,56,-26,-176
2,2770734,-1398,507,3170,7229,233,-93,56,-26,-176
2,2770749,-1396,492,3172,7226,235,-92,56,-26,-176
2,2770763,-1402,503,3162,7228,250,-90,56,-26,-176
2,2770777,-1402,513,3166,7236,250,-88,56,-26,-176
2,2770792,-1402,513,3166,7236,250,-88,56,-26,-176
2,2770807,-1404,540,3162,7239,242,-87,56,-26,-176
2,2770823,-1403,526,3167,7235,246,-87,56,-26,-176
2,2770837,-1402,527,3172,7229,241,-91,62,-24,-178
2,2770850,-1402,527,3172,7229,241,-91,62,-24,-178
2,2770865,-1397,532,3171,7229,241,-90,62,-24,-178
2,2770877,-1402,538,3169,7231,241,-89,62,-24,-178
2,2770888,-1402,538,3169,7231,241,-89,62,-24,-178
2,2770903,-1398,536,3171,7235,245,-95,62,-24,-178
2,2770917,-1402,518,3165,7239,250,-96,62,-24,-178
2,2770931,-1402,518,3165,7239,250,-96,62,-24,-178
2,2770945,-1399,526,3177,7242,251,-90,62,-24,-178
2,2770956,-1399,526,3177,7242,251,-90,62,-24,-178
2,2770969,-1403,516,3168,7241,248,-83,53,-21,-185
2,2770984,-1404,517,3179,7243,238,-80,53,-21,-185
2,2770995,-1404,517,3179,7243,238,-80,53,-21,-185
2,2771009,-1395,504,3168,7240,246,-88,53,-21,-185
2,2771024,-1403,499,3177,7241,249,-89,53,-21,-185
2,2771040,-1396,495,3176,7236,243,-84,53,-21,-185
2,2771053,-1396,495,3176,7236,243,-84,53,-21,-185
2,2771067,-1404,507,3177,7239,243,-92,53,-21,-185
2,2771081,-1398,507,3175,7238,253,-95,53,-21,-185
2,2771092,-1398,507,3175,7238,253,-95,53,-21,-185
2,2771106,-1400,502,3178,7234,240,-89,66,-18,-202
2,2771115,-1400,502,3178,7234,240,-89,66,-18,-202
2,2771125,-1400,505,3180,7237,244,-91,66,-18,-202
2,2771139,-1404,512,3169,7240,245,-87,66,-18,-202
2,2771152,-1404,512,3169,7240,245,-87,66,-18,-202
2,2771166,-1405,513,3179,7244,247,-89,66,-18,-202
2,2771180,-1397,519,3171,7239,244,-80,66,-18,-202
2,2771192,-1397,519,3171,7239,244,-80,66,-18,-202
2,2771208,-1404,508,3184,7238,240,-82,66,-18,-202
2,2771220,-1397,523,3178,7247,244,-92,84,-22,-208
2,2771235,-1397,523,3178,7247,244,-92,84,-22,-208
2,2771250,-1401,512,3181,7240,240,-85,84,-22,-208
2,2771263,-1398,523,3178,7242,234,-85,84,-22,-208
2,2771277,-1402,499,3180,7247,238,-91,84,-22,-208
2,2771292,-1402,499,3180,7247,238,-91,84,-22,-208
2,2771305,-1398,503,3174,7245,248,-98,84,-22,-208
2,2771318,-1395,503,3180,7246,244,-94,84,-22,-208
2,2771335,-1395,503,3180,7246,244,-94,84,-22,-208
2,2771348,-1403,505,3179,7247,239,-92,92,-22,-212
2,2771359,-1395,455,3175,7248,250,-93,92,-22,-212
2,2771374,-1395,455,3175,7248,250,-93,92,-22,-212
2,2771388,-1399,492,3174,7245,248,-90,92,-22,-212
2,2771401,-1400,480,3173,7244,247,-92,92,-22,-212
2,2771416,-1400,480,3173,7244,247,-92,92,-22,-212
2,2771430,-1405,495,3181,7245,239,-87,92,-22,-212
2,2771442,-1397,472,3177,7244,244,-87,92,-22,-212
2,2771456,-1397,472,3177,7244,244,-87,92,-22,-212
2,2771470,-1401,492,3179,7243,243,-87,99,-17,-217
2,2771485,-1391,489,3174,7234,242,-83,99,-17,-217
2,2771497,-1408,490,3168,7235,245,-81,99,-17,-217
2,2771512,-1408,490,3168,7235,245,-81,99,-17,-217
2,2771526,-1395,486,3168,7234,241,-91,99,-17,-217
2,2771540,-1394,486,3173,7235,241,-92,99,-17,-217
2,2771555,-1394,486,3173,7235,241,-92,99,-17,-217
2,2771568,-1399,480,3166,7233,248,-86,99,-17,-217
2,2771582,-1400,485,3167,7229,238,-90,114,-18,-216
2,2771597,-1396,492,3173,7230,240,-90,114,-18,-216
2,2771609,-1396,492,3173,7230,240,-90,114,-18,-216
2,2771622,-1394,481,3167,7237,243,-87,114,-18,-216
2,2771636,-1394,481,3167,7237,243,-87,114,-18,-216
2,2771650,-1399,480,3162,7232,238,-91,114,-18,-216
2,2771664,-1399,481,3163,7233,250,-94,114,-18,-216
2,2771676,-1399,481,3163,7233,250,-94,114,-18,-216
2,2771690,-1403,498,3168,7226,249,-86,114,-18,-216
2,2771702,-1399,484,3158,7226,242,-92,114,-18,-216
2,2771714,-1399,484,3158,7226,242,-92,114,-18,-216
2,2771728,-1399,491,3162,7229,241,-91,116,-18,-220
2,2771743,-1400,483,3159,7222,243,-87,116,-18,-220
2,2771757,-1400,490,3162,7220,239,-84,116,-18,-220
2,2771770,-1400,490,3162,7220,239,-84,116,-18,-220
2,2771784,-1401,482,3161,7230,243,-85,116,-18,-220
2,2771798,-1399,503,3158,7229,239,-92,116,-18,-220
2,2771812,-1399,503,3158,7229,239,-92,116,-18,-220
2,2771824,-1401,508,3162,7224,236,-87,116,-18,-220
2,2771837,-1403,534,3166,7223,243,-92,114,-22,-224
2,2771852,-1403,534,3166,7223,243,-92,114,-22,-224
2,2771865,-1403,569,3168,7227,249,-88,114,-22,-224
2,2771878,-1402,554,3166,7222,241,-83,114,-22,-224
2,2771891,-1402,554,3166,7222,241,-83,114,-22,-224
2,2771906,-1401,540,3165,7229,244,-88,114,-22,-224
2,2771921,-1393,554,3167,7233,250,-93,114,-22,-224
2,2771936,-1393,554,3167,7233,250,-93,114,-22,-224
2,2771948,-1408,537,3172,7238,251,-90,114,-22,-224
2,2771962,-1398,539,3171,7243,247,-93,125,-31,-225
2,2771977,-1401,502,3167,7249,249,-85,125,-31,-225
2,2771990,-1401,502,3167,7249,249,-85,125,-31,-225
2,2772004,-1394,527,3172,7243,249,-89,125,-31,-225
2,2772017,-1394,527,3172,7243,249,-89,125,-31,-225
2,2772028,-1397,509,3170,7241,244,-92,125,-31,-225
2,2772041,-1405,534,3175,7237,236,-89,125,-31,-225
2,2772056,-1405,534,3175,7237,236,-89,125,-31,-225
2,2772069,-1396,524,3176,7240,239,-98,125,-31,-225
2,2772081,-1398,531,3177,7239,249,-95,134,-28,-224
2,2772092,-1398,531,3177,7239,249,-95,134,-28,-224
2,2772106,-1396,527,3177,7235,247,-87,134,-28,-224
2,2772120,-1404,538,3177,7243,246,-98,134,-28,-224
2,2772134,-1404,538,3177,7243,246,-98,134,-28,-224
2,2772149,-1399,521,3170,7248,242,-92,134,-28,-224
2,2772160,-1397,528,3177,7244,248,-93,134,-28,-224
2,2772174,-1397,528,3177,7244,248,-93,134,-28,-224
2,2772190,-1400,502,3171,7243,251,-87,134,-28,-224
2,2772205,-1398,524,3189,7247,252,-83,145,-25,-229
2,2772216,-1398,524,3189,7247,252,-83,145,-25,-229
2,2772231,-1399,502,3183,7252,248,-81,145,-25,-229
2,2772247,-1402,512,3185,7250,240,-88,145,-25,-229
2,2772260,-1395,490,3171,7240,236,-89,145,-25,-229
2,2772274,-1395,490,3171,7240,236,-89,145,-25,-229
2,2772287,-1401,521,3186,7240,250,-89,145,-25,-229
2,2772296,-1401,521,3186,7240,250,-89,145,-25,-229
2,2772311,-1397,475,3171,7248,249,-81,145,-25,-229
2,2772324,-1402,486,3178,7239,248,-93,145,-25,-229
2,2772337,-1402,486,3178,7239,248,-93,149,-21,-221
2,2772352,-1402,486,3178,7239,248,-93,149,-21,-221
2,2772363,-1402,486,3178,7239,248,-93,149,-21,-221
2,2772376,-1402,486,3178,7239,248,-93,149,-21,-221
2,2772389,-1401,463,3169,7241,240,-93,149,-21,-221
2,2772403,-1397,494,3175,7237,248,-92,149,-21,-221
2,2772418,-1394,477,3179,7240,240,-94,149,-21,-221
2,2772432,-1394,477,3179,7240,240,-94,149,-21,-221
2,2772448,-1401,498,3175,7239,246,-80,149,-21,-221
2,2772461,-1395,477,3173,7237,246,-88,153,-15,-229
2,2772475,-1395,477,3173,7237,246,-88,153,-15,-229
2,2772490,-1402,505,3174,7235,245,-92,153,-15,-229
2,2772504,-1395,480,3168,7242,247,-89,153,-15,-229
2,2772515,-1395,480,3168,7242,247,-89,153,-15,-229
2,2772529,-1403,496,3171,7232,239,-93,153,-15,-229
2,2772542,-1401,487,3159,7234,243,-94,153,-15,-229
2,2772555,-1401,487,3159,7234,243,-94,153,-15,-229
2,2772570,-1398,505,3169,7237,251,-98,153,-15,-229
2,2772581,-1399,482,3172,7237,253,-87,159,-13,-215
2,2772594,-1399,482,3172,7237,253,-87,159,-13,-215
2,2772608,-1402,492,3172,7233,246,-84,159,-13,-215
2,2772622,-1396,494,3173,7236,246,-91,159,-13,-215
2,2772636,-1396,494,3173,7236,246,-91,159,-13,-215
2,2772647,-1402,497,3171,7238,243,-89,159,-13,-215
2,2772657,-1402,497,3171,7238,243,-89,159,-13,-215
2,2772670,-1398,489,3161,7234,248,-89,159,-13,-215
2,2772685,-1403,498,3166,7239,244,-79,159,-13,-215
2,2772701,-1399,504,3166,7233,237,-86,161,-9,-215
2,2772716,-1399,504,3166,7233,237,-86,161,-9,-215
2,2772729,-1400,513,3167,7233,234,-84,161,-9,-215
2,2772740,-1401,523,3160,7233,239,-87,161,-9,-215
2,2772752,-1401,523,3160,7233,239,-87,161,-9,-215
2,2772765,-1404,556,3169,7233,248,-87,161,-9,-215
2,2772780,-1401,529,3163,7227,241,-87,161,-9,-215
2,2772793,-1401,529,3163,7227,241,-87,161,-9,-215
2,2772806,-1400,536,3166,7230,240,-93,161,-9,-215
2,2772819,-1397,534,3177,7237,245,-91,165,-7,-211
2,2772834,-1397,534,3177,7237,245,-91,165,-7,-211
2,2772845,-1404,548,3175,7236,245,-84,165,-7,-211
2,2772858,-1398,524,3168,7241,244,-89,165,-7,-211
2,2772872,-1398,524,3168,7241,244,-89,165,-7,-211
2,2772887,-1403,524,3175,7241,248,-97,165,-7,-211
2,2772902,-1395,518,3172,7245,251,-96,165,-7,-211
2,2772916,-1395,518,3172,7245,251,-96,165,-7,-211
2,2772929,-1402,509,3178,7247,245,-86,165,-7,-211
2,2772944,-1398,516,3166,7241,241,-91,165,-7,-211
2,2772959,-1395,505,3176,7231,250,-93,165,-7,-211
2,2772971,-1395,505,3176,7231,250,-93,165,-7,-211
2,2772985,-1395,522,3168,7240,246,-90,165,-7,-211
2,2773001,-1400,507,3180,7235,235,-87,165,-7,-211
2,2773014,-1400,507,3180,7235,235,-87,165,-7,-211
2,2773027,-1398,532,3174,7241,243,-83,165,-7,-211
2,2773041,-1398,532,3174,7241,243,-83,165,-7,-211
2,2773056,-1398,532,3174,7241,243,-83,165,-7,-211
2,2773068,-1401,528,3172,7244,242,-88,165,-7,-211
2,2773081,-1397,526,3185,7246,244,-86,166,-4,-202
2,2773094,-1397,526,3185,7246,244,-86,166,-4,-202
2,2773104,-1401,528,3173,7245,259,-88,166,-4,-202
2,2773113,-1401,528,3173,7245,259,-88,166,-4,-202
2,2773129,-1398,527,3175,7244,244,-89,166,-4,-202
2,2773141,-1403,517,3175,7251,245,-96,166,-4,-202
2,2773156,-1403,517,3175,7251,245,-96,166,-4,-202
2,2773172,-1395,526,3178,7245,244,-96,166,-4,-202
2,2773186,-1395,519,3185,7245,256,-90,166,-4,-202
2,2773201,-1399,511,3178,7245,248,-85,171,-5,-197
2,2773215,-1399,511,3178,7245,248,-85,171,-5,-197
2,2773229,-1392,503,3181,7237,241,-84,171,-5,-197
2,2773243,-1399,506,3173,7241,247,-86,171,-5,-197
2,2773257,-1399,506,3173,7241,247,-86,171,-5,-197
2,2773271,-1399,504,3175,7246,251,-88,171,-5,-197
2,2773282,-1402,464,3168,7248,248,-86,171,-5,-197
2,2773299,-1399,502,3165,7241,242,-86,171,-5,-197
2,2773312,-1399,502,3165,7241,242,-86,171,-5,-197
2,2773326,-1399,490,3176,7242,244,-80,158,-12,-192
2,2773341,-1401,486,3177,7238,238,-91,158,-12,-192
2,2773354,-1401,486,3177,7238,238,-91,158,-12,-192
2,2773369,-1391,475,3176,7236,243,-91,158,-12,-192
2,2773383,-1397,497,3172,7239,253,-83,158,-12,-192
2,2773397,-1397,497,3172,7239,253,-83,158,-12,-192
2,2773412,-1394,494,3179,7242,243,-84,158,-12,-192
2,2773426,-1401,496,3165,7234,241,-90,158,-12,-192
2,2773438,-1400,495,3171,7242,249,-90,167,-11,-192
2,2773451,-1400,495,3171,7242,249,-90,167,-11,-181
2,2773465,-1396,484,3166,7241,250,-86,167,-11,-181
2,2773478,-1400,489,3159,7241,244,-75,167,-11,-181
2,2773492,-1400,489,3159,7241,244,-75,167,-11,-181
2,2773507,-1400,485,3171,7232,243,-89,167,-11,-181
2,2773518,-1397,495,3162,7232,256,-88,167,-11,-181
2,2773532,-1397,495,3162,7232,256,-88,167,-11,-181
2,2773549,-1397,480,3178,7240,245,-84,167,-11,-181
2,2773563,-1400,490,3159,7236,247,-82,166,-16,-184
2,2773577,-1400,490,3159,7236,247,-82,166,-16,-184
2,2773590,-1399,493,3174,7232,248,-86,166,-16,-184
2,2773605,-1400,497,3165,7228,248,-85,166,-16,-184
2,2773619,-1399,486,3163,7225,242,-88,166,-16,-184
2,2773634,-1399,486,3163,7225,242,-88,166,-16,-184
2,2773647,-1397,498,3158,7227,249,-95,166,-16,-184
2,2773660,-1398,494,3157,7225,249,-93,166,-16,-184
2,2773672,-1398,494,3157,7225,249,-93,166,-16,-184
2,2773686,-1401,494,3156,7224,248,-92,166,-16,-184
2,2773700,-1399,493,3160,7227,247,-92,158,-8,-170
2,2773713,-1399,493,3160,7227,247,-92,158,-8,-170
2,2773728,-1404,516,3161,7227,249,-91,158,-8,-170
2,2773741,-1399,533,3162,7227,256,-86,158,-8,-170
2,2773754,-1399,533,3162,7227,256,-86,158,-8,-170
2,2773768,-1406,579,3162,7225,249,-83,158,-8,-170
2,2773783,-1400,545,3173,7224,243,-91,158,-8,-170
2,2773798,-1399,546,3158,7229,248,-96,158,-8,-170
2,2773812,-1399,546,3158,7229,248,-96,158,-8,-170
2,2773826,-1397,548,3174,7237,247,-90,161,-11,-163
2,2773841,-1409,544,3162,7239,250,-90,161,-11,-163
2,2773857,-1409,544,3162,7239,250,-90,161,-11,-163
2,2773871,-1402,530,3176,7237,256,-89,161,-11,-163
2,2773885,-1401,504,3165,7236,252,-88,161,-11,-163
2,2773899,-1401,519,3177,7241,247,-88,161,-11,-163
2,2773914,-1401,519,3177,7241,247,-88,161,-11,-163
2,2773927,-1396,514,3166,7242,246,-83,161,-11,-163
2,2773939,-1406,529,3185,7238,247,-87,148,-14,-154
2,2773953,-1406,529,3185,7238,247,-87,148,-14,-154
2,2773966,-1391,522,3176,7239,248,-87,148,-14,-154
2,2773980,-1399,531,3177,7241,244,-85,148,-14,-154
2,2773994,-1399,531,3177,7241,244,-85,148,-14,-154
2,2774005,-1396,535,3177,7247,245,-88,148,-14,-154
2,2774019,-1404,538,3176,7244,243,-82,148,-14,-154
2,2774032,-1404,538,3176,7244,243,-82,148,-14,-154
2,2774046,-1399,521,3175,7242,234,-90,148,-14,-154
2,2774061,-1399,516,3177,7248,240,-85,147,-15,-149
2,2774076,-1399,516,3177,7248,240,-85,147,-15,-149
2,2774090,-1401,507,3176,7245,241,-90,147,-15,-149
2,2774104,-1399,517,3177,7244,243,-90,147,-15,-149
2,2774118,-1399,517,3177,7244,243,-90,147,-15,-149
2,2774134,-1399,502,3180,7249,244,-91,147,-15,-149
2,2774149,-1396,509,3178,7249,250,-93,147,-15,-149
2,2774163,-1393,495,3177,7243,245,-91,147,-15,-149
2,2774174,-1393,495,3177,7243,245,-91,147,-15,-149
2,2774189,-1399,519,3173,7243,240,-98,132,-18,-146
2,2774203,-1395,463,3180,7242,247,-91,132,-18,-146
2,2774217,-1395,463,3180,7242,247,-91,132,-18,-146
2,2774232,-1394,496,3171,7243,247,-93,132,-18,-146
2,2774246,-1398,476,3174,7243,249,-86,132,-18,-146
2,2774260,-1402,515,3169,7238,243,-85,132,-18,-146
2,2774273,-1402,515,3169,7238,243,-85,132,-18,-146
2,2774286,-1400,462,3173,7245,246,-89,132,-18,-146
2,2774297,-1400,462,3173,7245,246,-89,132,-18,-146
2,2774312,-1398,497,3165,7240,243,-86,132,-18,-146
2,2774324,-1392,481,3181,7234,241,-83,133,-19,-137
2,2774337,-1392,481,3181,7234,241,-83,133,-19,-137
2,2774352,-1406,506,3167,7239,238,-85,133,-19,-137
2,2774363,-1391,481,3174,7236,246,-95,133,-19,-137
2,2774379,-1398,505,3170,7237,248,-94,133,-19,-137
2,2774394,-1398,505,3170,7237,248,-94,133,-19,-137
2,2774409,-1393,485,3168,7233,246,-89,133,-19,-137
2,2774424,-1406,502,3159,7234,242,-90,133,-19,-137
2,2774437,-1406,502,3159,7234,242,-90,133,-19,-137
2,2774451,-1406,502,3159,7234,242,-90,127,-23,-129
2,2774465,-1397,502,3165,7239,251,-93,127,-23,-129
2,2774477,-1397,502,3165,7239,251,-93,127,-23,-129
2,2774491,-1400,482,3165,7235,244,-90,127,-23,-129
2,2774504,-1401,494,3167,7238,245,-90,127,-23,-129
2,2774518,-1401,494,3167,7238,245,-90,127,-23,-129
2,2774533,-1394,503,3161,7240,243,-92,127,-23,-129
2,2774546,-1398,497,3160,7241,245,-89,127,-23,-129
2,2774558,-1398,497,3160,7241,245,-89,127,-23,-129
2,2774572,-1400,499,3165,7231,243,-90,123,-23,-117
2,2774587,-1397,512,3167,7230,246,-88,123,-23,-117
2,2774603,-1402,519,3160,7232,249,-91,123,-23,-117
2,2774619,-1402,519,3160,7232,249,-91,123,-23,-117
2,2774633,-1403,540,3161,7227,242,-91,123,-23,-117
2,2774646,-1405,540,3153,7226,240,-90,123,-23,-117
2,2774662,-1403,536,3169,7235,240,-86,123,-23,-117
2,2774676,-1403,536,3169,7235,240,-86,123,-23,-117
2,2774690,-1405,526,3165,7235,244,-87,109,-27,-109
2,2774704,-1399,548,3174,7243,238,-87,109,-27,-109
2,2774717,-1399,548,3174,7243,238,-87,109,-27,-109
2,2774731,-1402,532,3170,7236,243,-91,109,-27,-109
2,2774743,-1404,546,3179,7237,244,-88,109,-27,-109
2,2774756,-1404,546,3179,7237,244,-88,109,-27,-109
2,2774769,-1399,517,3170,7243,251,-93,109,-27,-109
2,2774784,-1403,530,3177,7243,242,-87,109,-27,-109
2,2774796,-1403,530,3177,7243,242,-87,109,-27,-109
2,2774807,-1399,511,3167,7238,242,-84,109,-25,-105
2,2774822,-1403,511,3178,7236,240,-90,109,-25,-105
2,2774836,-1403,511,3178,7236,240,-90,109,-25,-105
2,2774851,-1394,499,3170,7236,258,-101,109,-25,-105
2,2774863,-1402,504,3170,7235,253,-91,109,-25,-105
2,2774878,-1402,504,3170,7235,253,-91,109,-25,-105
2,2774891,-1396,511,3174,7237,257,-85,109,-25,-105
2,2774904,-1400,515,3180,7241,247,-91,109,-25,-105
2,2774919,-1400,515,3180,7241,247,-91,109,-25,-105
2,2774931,-1397,525,3176,7244,247,-89,109,-25,-105
2,2774945,-1400,521,3184,7241,243,-81,101,-33,-105
2,2774958,-1400,521,3184,7241,243,-81,101,-33,-105
2,2774971,-1401,525,3168,7237,250,-81,101,-33,-105
2,2774985,-1401,528,3172,7240,248,-83,101,-33,-105
2,2774999,-1401,528,3172,7240,248,-83,101,-33,-105
2,2775013,-1406,517,3171,7236,244,-88,101,-33,-105
2,2775025,-1401,520,3175,7243,237,-93,101,-33,-105
2,2775040,-1403,515,3179,7254,246,-89,101,-33,-105
2,2775055,-1403,515,3179,7254,246,-89,101,-33,-105
2,2775070,-1404,520,3182,7253,250,-91,87,-27,-111
2,2775086,-1399,504,3183,7250,249,-92,87,-27,-111
2,2775097,-1399,504,3183,7250,249,-92,87,-27,-111
2,2775112,-1400,494,3179,7251,239,-90,87,-27,-111
2,2775126,-1398,501,3179,7254,249,-90,87,-27,-111
2,2775139,-1398,501,3179,7254,249,-90,87,-27,-111
2,2775153,-1398,504,3171,7256,242,-82,87,-27,-111
2,2775169,-1402,494,3173,7248,242,-82,87,-27,-111
2,2775178,-1402,494,3173,7248,242,-82,87,-27,-111
2,2775191,-1400,458,3172,7247,237,-87,88,-34,-106
2,2775204,-1400,501,3172,7243,245,-85,88,-34,-106
2,2775219,-1400,501,3172,7243,245,-85,88,-34,-106
2,2775231,-1399,488,3179,7250,246,-86,88,-34,-106
2,2775243,-1404,484,3172,7248,240,-90,88,-34,-106
2,2775258,-1404,484,3172,7248,240,-90,88,-34,-106
2,2775273,-1387,476,3178,7237,246,-97,88,-34,-106
2,2775286,-1399,491,3175,7232,251,-90,88,-34,-106
2,2775301,-1395,495,3177,7237,247,-85,87,-29,-111
2,2775316,-1395,495,3177,7237,247,-85,87,-29,-111
2,2775327,-1402,494,3170,7234,244,-95,87,-29,-111
2,2775341,-1398,496,3170,7236,240,-98,87,-29,-111
2,2775352,-1398,496,3170,7236,240,-98,87,-29,-111
2,2775365,-1392,478,3169,7239,236,-89,87,-29,-111
2,2775378,-1392,478,3169,7239,236,-89,87,-29,-111
2,2775393,-1404,491,3166,7238,241,-81,87,-29,-111
2,2775406,-1398,493,3164,7243,242,-96,87,-29,-111
2,2775419,-1399,498,3169,7241,253,-100,87,-29,-111
2,2775436,-1399,498,3169,7241,253,-100,74,-30,-108
2,2775445,-1396,480,3170,7235,240,-93,74,-30,-108
2,2775453,-1396,480,3170,7235,240,-93,74,-30,-108
2,2775468,-1397,493,3165,7231,241,-89,74,-30,-108
2,2775480,-1398,490,3166,7235,243,-89,74,-30,-108
2,2775493,-1398,490,3166,7235,243,-89,74,-30,-108
2,2775508,-1400,497,3166,7229,244,-87,74,-30,-108
2,2775525,-1399,478,3159,7226,242,-83,74,-30,-108
2,2775540,-1400,500,3161,7225,244,-81,74,-30,-108
2,2775555,-1400,500,3161,7225,244,-81,74,-30,-108
2,2775567,-1399,500,3166,7232,240,-88,72,-28,-108
2,2775580,-1405,523,3167,7228,243,-88,72,-28,-108
2,2775593,-1405,523,3167,7228,243,-88,72,-28,-108
2,2775607,-1401,533,3166,7233,242,-86,72,-28,-108
2,2775618,-1401,533,3166,7233,242,-86,72,-28,-108
2,2775633,-1403,569,3162,7235,245,-85,72,-28,-108
2,2775646,-1402,534,3163,7234,247,-92,72,-28,-108
2,2775660,-1401,544,3163,7231,250,-96,72,-28,-108
2,2775673,-1401,544,3163,7231,250,-96,72,-28,-108
2,2775688,-1400,551,3177,7235,248,-86,69,-29,-113
2,2775702,-1409,542,3176,7239,241,-79,69,-29,-113
2,2775716,-1409,542,3176,7239,241,-79,69,-29,-113
2,2775729,-1399,533,3174,7248,251,-93,69,-29,-113
2,2775744,-1399,515,3167,7248,254,-100,69,-29,-113
2,2775759,-1399,515,3167,7248,254,-100,69,-29,-113
2,2775775,-1399,523,3177,7245,244,-92,69,-29,-113
2,2775788,-1402,501,3170,7246,239,-84,69,-29,-113
2,2775800,-1406,507,3172,7240,241,-92,65,-23,-105
2,2775814,-1406,507,3172,7240,241,-92,65,-23,-105
2,2775827,-1391,511,3177,7238,249,-93,65,-23,-105
2,2775840,-1401,514,3173,7237,247,-85,65,-23,-105
2,2775855,-1401,514,3173,7237,247,-85,65,-23,-105
2,2775868,-1397,510,3174,7234,242,-89,65,-23,-105
2,2775879,-1397,510,3174,7234,242,-89,65,-23,-105
2,2775895,-1404,520,3175,7241,252,-84,65,-23,-105
2,2775908,-1397,530,3177,7245,249,-84,65,-23,-105
2,2775922,-1406,505,3176,7244,241,-86,59,-23,-115
2,2775938,-1406,505,3176,7244,241,-86,59,-23,-115
2,2775953,-1401,514,3180,7241,237,-87,59,-23,-115
2,2775967,-1403,505,3175,7247,243,-90,59,-23,-115
2,2775983,-1401,503,3180,7244,237,-91,59,-23,-115
2,2775997,-1401,503,3180,7244,237,-91,59,-23,-115
2,2776010,-1398,493,3177,7244,241,-89,59,-23,-115
2,2776025,-1401,499,3178,7241,247,-91,59,-23,-115
2,2776038,-1401,499,3178,7241,247,-91,59,-23,-115
2,2776050,-1396,506,3173,7245,247,-90,56,-22,-114
2,2776064,-1400,497,3184,7246,242,-85,56,-22,-114
2,2776078,-1400,497,3184,7246,242,-85,56,-22,-114
2,2776091,-1395,505,3172,7235,242,-96,56,-22,-114
2,2776105,-1400,455,3177,7244,247,-97,56,-22,-114
2,2776118,-1400,455,3177,7244,247,-97,56,-22,-114
2,2776130,-1393,502,3166,7246,232,-96,56,-22,-114
2,2776143,-1403,473,3175,7233,238,-89,56,-22,-114
2,2776157,-1403,473,3175,7233,238,-89,56,-22,-114
2,2776172,-1401,499,3168,7233,244,-93,56,-22,-114
2,2776187,-1399,463,3178,7233,241,-94,58,-20,-122
2,2776203,-1402,495,3168,7230,242,-83,58,-20,-122
2,2776217,-1402,495,3168,7230,242,-83,58,-20,-122
2,2776230,-1393,481,3170,7230,236,-86,58,-20,-122
2,2776245,-1407,498,3169,7234,249,-85,58,-20,-122
2,2776260,-1407,498,3169,7234,249,-85,58,-20,-122
2,2776273,-1392,486,3165,7238,237,-92,58,-20,-122
2,2776286,-1399,490,3170,7226,242,-87,58,-20,-122
2,2776300,-1399,490,3170,7226,242,-87,58,-20,-122
2,2776314,-1396,484,3169,7233,242,-82,55,-19,-127
2,2776328,-1402,506,3176,7233,245,-82,55,-19,-127
2,2776341,-1396,496,3165,7231,243,-88,55,-19,-127
2,2776354,-1396,496,3165,7231,243,-88,55,-19,-127
2,2776371,-1397,492,3173,7235,243,-94,55,-19,-127
2,2776384,-1398,490,3162,7234,238,-93,55,-19,-127
2,2776398,-1398,490,3162,7234,238,-93,55,-19,-127
2,2776412,-1402,501,3161,7226,239,-88,55,-19,-127
2,2776425,-1397,504,3169,7228,246,-86,50,-20,-130
2,2776438,-1397,504,3169,7228,246,-86,50,-20,-130
2,2776450,-1399,507,3164,7227,239,-87,50,-20,-130
2,2776464,-1403,504,3166,7225,240,-89,50,-20,-130
2,2776478,-1403,504,3166,7225,240,-89,50,-20,-130
2,2776489,-1400,532,3162,7225,241,-94,50,-20,-130
2,2776505,-1403,543,3171,7228,240,-87,50,-20,-130
2,2776520,-1403,543,3171,7228,240,-87,50,-20,-130
2,2776534,-1403,530,3167,7226,239,-85,50,-20,-130
2,2776548,-1404,520,3174,7229,247,-89,52,-18,-144
2,2776561,-1402,544,3169,7229,246,-95,52,-18,-144
2,2776573,-1402,544,3169,7229,246,-95,52,-18,-144
2,2776586,-1406,536,3168,7232,245,-89,52,-18,-144
2,2776600,-1406,536,3168,7232,245,-89,52,-18,-144
2,2776614,-1406,534,3172,7240,249,-93,52,-18,-144
2,2776628,-1402,516,3171,7239,245,-100,52,-18,-144
2,2776641,-1404,531,3177,7240,244,-91,52,-18,-144
2,2776654,-1404,531,3177,7240,244,-91,52,-18,-144
2,2776667,-1400,519,3179,7242,246,-87,57,-21,-145
2,2776680,-1400,519,3179,7242,246,-87,57,-21,-145
2,2776694,-1403,519,3183,7247,247,-88,57,-21,-145
2,2776709,-1395,502,3174,7245,245,-91,57,-21,-145
2,2776722,-1399,497,3180,7243,240,-89,57,-21,-145
2,2776734,-1399,497,3180,7243,240,-89,57,-21,-145
2,2776749,-1398,498,3178,7250,251,-82,57,-21,-145
2,2776764,-1407,509,3180,7244,252,-80,57,-21,-145
2,2776779,-1407,509,3180,7244,252,-80,57,-21,-145
2,2776792,-1397,505,3176,7244,249,-83,57,-21,-145
2,2776805,-1400,495,3177,7244,241,-81,57,-21,-145
2,2776819,-1400,495,3177,7244,241,-81,57,-21,-145
2,2776833,-1403,500,3179,7240,239,-90,57,-21,-145
2,2776846,-1403,511,3173,7243,241,-87,57,-21,-145
2,2776860,-1403,511,3173,7243,241,-87,57,-21,-145
2,2776873,-1403,521,3180,7241,246,-91,57,-21,-145
2,2776890,-1400,510,3172,7239,246,-83,57,-21,-145
2,2776902,-1405,511,3183,7235,241,-94,57,-21,-145
2,2776916,-1405,511,3183,7235,241,-94,57,-21,-145
2,2776931,-1400,526,3178,7238,242,-91,50,-26,-164
2,2776944,-1411,520,3181,7243,243,-91,50,-26,-164
2,2776960,-1411,520,3181,7243,243,-91,50,-26,-164
2,2776974,-1404,518,3174,7244,245,-95,50,-26,-164
2,2776986,-1402,504,3185,7241,247,-89,50,-26,-164
2,2777000,-1402,504,3185,7241,247,-89,50,-26,-164
2,2777018,-1402,507,3175,7246,248,-90,50,-26,-164
2,2777032,-1404,514,3176,7244,247,-93,50,-26,-164
2,2777046,-1402,512,3185,7246,239,-92,47,-29,-169
2,2777058,-1402,512,3185,7246,239,-92,47,-29,-169
2,2777072,-1396,512,3185,7246,242,-98,47,-29,-169
2,2777085,-1403,522,3185,7241,243,-91,47,-29,-169
2,2777099,-1403,522,3185,7241,243,-91,47,-29,-169
2,2777113,-1406,546,3183,7241,245,-90,47,-29,-169
2,2777125,-1407,548,3187,7246,255,-82,47,-29,-169
2,2777139,-1407,548,3187,7246,255,-82,47,-29,-169
2,2777153,-1403,573,3174,7248,251,-90,47,-29,-169
2,2777166,-1404,579,3197,7252,244,-92,55,-15,-173
2,2777180,-1404,579,3197,7252,244,-92,55,-15,-173
2,2777194,-1409,590,3188,7252,240,-90,55,-15,-173
2,2777209,-1410,607,3198,7249,243,-95,55,-15,-173
2,2777223,-1408,613,3198,7260,248,-89,55,-15,-173
2,2777236,-1408,613,3198,7260,248,-89,55,-15,-173
2,2777251,-1407,616,3207,7266,240,-84,55,-15,-173
2,2777263,-1407,633,3208,7276,250,-90,55,-15,-173
2,2777275,-1407,633,3208,7276,250,-90,55,-15,-173
2,2777290,-1416,642,3222,7273,248,-91,61,-25,-187
2,2777304,-1410,656,3226,7274,250,-91,61,-25,-187
2,2777318,-1410,656,3226,7274,250,-91,61,-25,-187
2,2777332,-1413,648,3227,7285,244,-90,61,-25,-187
2,2777346,-1420,668,3231,7296,249,-89,61,-25,-187
2,2777361,-1420,668,3231,7296,249,-89,61,-25,-187
2,2777374,-1413,666,3235,7298,248,-88,61,-25,-187
2,2777387,-1418,689,3243,7309,247,-82,61,-25,-187
2,2777401,-1418,689,3243,7309,247,-82,61,-25,-187
2,2777414,-1414,687,3252,7312,246,-94,65,-21,-197
2,2777430,-1414,711,3263,7311,247,-87,65,-21,-197
2,2777443,-1416,728,3274,7328,244,-86,65,-21,-197
2,2777454,-1416,728,3274,7328,244,-86,65,-21,-197
2,2777469,-1418,742,3279,7339,247,-95,65,-21,-197
2,2777483,-1413,749,3290,7346,255,-86,65,-21,-197
2,2777495,-1413,749,3290,7346,255,-86,65,-21,-197
2,2777509,-1420,770,3298,7351,248,-89,65,-21,-197
2,2777525,-1419,762,3309,7362,250,-90,65,-21,-197
2,2777538,-1419,762,3309,7362,250,-90,65,-21,-197
2,2777551,-1421,775,3324,7377,254,-89,85,-19,-197
2,2777566,-1421,783,3331,7386,263,-86,85,-19,-197
2,2777577,-1421,783,3331,7386,263,-86,85,-19,-197
2,2777592,-1415,797,3342,7398,263,-87,85,-19,-197
2,2777606,-1422,779,3357,7413,252,-92,85,-19,-197
2,2777619,-1422,779,3357,7413,252,-92,85,-19,-197
2,2777632,-1419,797,3368,7423,258,-94,85,-19,-197
2,2777647,-1420,784,3369,7431,254,-91,85,-19,-197
2,2777659,-1420,784,3369,7431,254,-91,85,-19,-197
2,2777672,-1422,793,3397,7447,258,-89,88,-14,-208
2,2777687,-1414,774,3402,7457,266,-88,88,-14,-208
2,2777702,-1422,780,3410,7464,267,-90,88,-14,-208
2,2777713,-1422,780,3410,7464,267,-90,88,-14,-208
2,2777729,-1416,782,3424,7472,260,-87,88,-14,-208
2,2777744,-1423,781,3433,7490,267,-87,88,-14,-208
2,2777758,-1423,781,3433,7490,267,-87,88,-14,-208
2,2777772,-1416,777,3436,7500,259,-89,88,-14,-208
2,2777786,-1417,777,3452,7502,259,-87,96,-14,-214
2,2777799,-1417,777,3452,7502,259,-87,96,-14,-214
2,2777811,-1416,763,3475,7523,264,-94,96,-14,-214
2,2777825,-1415,758,3480,7537,266,-89,96,-14,-214
2,2777839,-1415,758,3480,7537,266,-89,96,-14,-214
2,2777852,-1413,747,3499,7542,262,-86,96,-14,-214
2,2777867,-1411,738,3501,7556,275,-90,96,-14,-214
2,2777880,-1411,738,3501,7556,275,-90,96,-14,-214
2,2777894,-1413,722,3512,7558,268,-87,96,-14,-214
2,2777907,-1412,706,3520,7571,265,-78,111,-25,-219
2,2777915,-1412,706,3520,7571,265,-78,111,-25,-219
2,2777929,-1412,703,3531,7581,265,-88,111,-25,-219
2,2777946,-1414,673,3527,7586,268,-88,111,-25,-219
2,2777961,-1414,673,3527,7586,268,-88,111,-25,-219
2,2777974,-1412,666,3541,7601,271,-85,111,-25,-219
2,2777988,-1410,639,3553,7604,271,-86,111,-25,-219
2,2777998,-1410,639,3553,7604,271,-86,111,-25,-219
2,2778010,-1408,641,3556,7606,276,-93,111,-25,-219
2,2778024,-1406,626,3562,7607,267,-96,104,-20,-218
2,2778038,-1406,626,3562,7607,267,-96,104,-20,-218
2,2778052,-1408,623,3567,7616,258,-93,104,-20,-218
2,2778066,-1402,620,3571,7618,263,-84,104,-20,-218
2,2778078,-1402,620,3571,7618,263,-84,104,-20,-218
2,2778090,-1407,619,3581,7622,274,-85,104,-20,-218
2,2778103,-1405,611,3579,7622,265,-93,104,-20,-218
2,2778118,-1405,611,3579,7622,265,-93,104,-20,-218
2,2778132,-1405,607,3577,7632,262,-93,104,-20,-218
2,2778146,-1406,581,3584,7636,266,-79,104,-20,-218
2,2778159,-1406,581,3584,7636,266,-79,104,-20,-218
2,2778173,-1402,589,3596,7640,266,-84,124,-26,-224
2,2778189,-1406,564,3595,7648,269,-79,124,-26,-224
2,2778203,-1406,564,3595,7648,269,-79,124,-26,-224
2,2778216,-1403,572,3597,7653,271,-82,124,-26,-224
2,2778229,-1403,543,3602,7648,272,-84,124,-26,-224
2,2778245,-1403,534,3610,7654,267,-86,124,-26,-224
2,2778258,-1403,534,3610,7654,267,-86,124,-26,-224
2,2778272,-1396,523,3599,7651,270,-90,124,-26,-224
2,2778286,-1405,511,3610,7655,273,-91,125,-25,-227
2,2778298,-1405,511,3610,7655,273,-91,125,-25,-227
2,2778312,-1401,497,3601,7651,267,-82,125,-25,-227
2,2778327,-1400,495,3602,7650,269,-90,125,-25,-227
2,2778341,-1400,495,3602,7650,269,-90,125,-25,-227
2,2778354,-1399,494,3600,7651,263,-91,125,-25,-227
2,2778369,-1395,497,3607,7653,262,-87,125,-25,-227
2,2778381,-1395,497,3607,7653,262,-87,125,-25,-227
2,2778393,-1400,495,3596,7651,268,-85,125,-25,-227
2,2778407,-1394,497,3607,7652,271,-97,128,-18,-222
2,2778423,-1394,456,3603,7647,269,-91,128,-18,-222
2,2778438,-1394,456,3603,7647,269,-91,128,-18,-222
2,2778451,-1395,491,3610,7655,277,-93,128,-18,-222
2,2778465,-1398,480,3601,7652,270,-88,128,-18,-222
2,2778480,-1398,480,3601,7652,270,-88,128,-18,-222
2,2778493,-1397,490,3601,7651,269,-91,128,-18,-222
2,2778507,-1399,452,3594,7648,273,-93,128,-18,-222
2,2778520,-1399,452,3594,7648,273,-93,128,-18,-222
2,2778534,-1397,475,3596,7639,273,-92,145,-15,-225
2,2778550,-1392,455,3594,7641,268,-88,145,-15,-225
2,2778563,-1400,449,3593,7645,265,-88,145,-15,-225
2,2778576,-1400,449,3593,7645,265,-88,145,-15,-225
2,2778590,-1386,438,3588,7642,272,-100,145,-15,-225
2,2778603,-1387,465,3594,7638,269,-91,145,-15,-225
2,2778617,-1387,465,3594,7638,269,-91,145,-15,-225
2,2778631,-1396,454,3588,7642,268,-87,145,-15,-225
2,2778644,-1396,472,3585,7637,261,-96,144,-18,-232
2,2778659,-1396,472,3585,7637,261,-96,144,-18,-232
2,2778675,-1393,482,3583,7625,261,-99,144,-18,-232
2,2778690,-1392,481,3581,7631,264,-89,144,-18,-232
2,2778701,-1392,481,3581,7631,264,-89,144,-18,-232
2,2778716,-1392,467,3574,7624,273,-90,144,-18,-232
2,2778732,-1400,520,3579,7627,266,-91,144,-18,-232
2,2778747,-1398,479,3583,7622,275,-90,144,-18,-232
2,2778761,-1398,479,3583,7622,275,-90,144,-18,-232
2,2778774,-1393,493,3579,7624,267,-94,144,-18,-232
2,2778788,-1397,483,3577,7623,270,-86,153,-17,-217
2,2778801,-1397,483,3577,7623,270,-86,153,-17,-217
2,2778815,-1399,519,3578,7626,270,-89,153,-17,-217
2,2778828,-1392,511,3581,7620,268,-90,153,-17,-217
2,2778842,-1392,511,3581,7620,268,-90,153,-17,-217
2,2778855,-1404,523,3580,7623,263,-91,153,-17,-217
2,2778870,-1392,537,3579,7620,261,-97,153,-17,-217
2,2778883,-1399,526,3578,7629,276,-82,153,-17,-217
2,2778897,-1399,526,3578,7629,276,-82,153,-17,-217
2,2778911,-1406,525,3574,7632,271,-89,150,2,-220
2,2778926,-1397,533,3580,7625,276,-92,150,2,-220
2,2778938,-1397,533,3580,7625,276,-92,150,2,-220
2,2778953,-1400,541,3580,7630,271,-90,150,2,-220
2,2778969,-1398,537,3591,7631,265,-83,150,2,-220
2,2778984,-1400,542,3583,7640,266,-92,150,2,-220
2,2778999,-1400,542,3583,7640,266,-92,150,2,-220
2,2779013,-1397,540,3598,7642,277,-100,150,2,-220
2,2779026,-1395,540,3588,7634,271,-92,161,-11,-215
2,2779040,-1395,540,3588,7634,271,-92,161,-11,-215
2,2779054,-1401,522,3593,7634,266,-85,161,-11,-215
2,2779065,-1394,541,3589,7641,264,-88,161,-11,-215
2,2779079,-1394,541,3589,7641,264,-88,161,-11,-215
2,2779094,-1397,524,3596,7643,270,-81,161,-11,-215
2,2779107,-1402,526,3582,7650,267,-88,161,-11,-215
2,2779120,-1402,526,3582,7650,267,-88,161,-11,-215
2,2779131,-1396,513,3593,7647,268,-91,161,-11,-215
2,2779146,-1398,518,3598,7645,271,-96,160,-16,-216
2,2779159,-1398,518,3598,7645,271,-96,160,-16,-216
2,2779172,-1395,490,3604,7644,267,-89,160,-16,-216
2,2779188,-1398,492,3592,7642,263,-82,160,-16,-216
2,2779201,-1398,492,3592,7642,263,-82,160,-16,-216
2,2779213,-1393,501,3599,7638,274,-87,160,-16,-216
2,2779229,-1392,505,3591,7642,269,-86,160,-16,-216
2,2779244,-1399,495,3592,7634,262,-84,160,-16,-216
2,2779259,-1399,495,3592,7634,262,-84,160,-16,-216
2,2779273,-1394,503,3587,7638,267,-92,168,6,-202
2,2779285,-1396,507,3595,7631,263,-90,168,6,-202
2,2779298,-1396,507,3595,7631,263,-90,168,6,-202
2,2779312,-1399,501,3597,7639,270,-88,168,6,-202
2,2779326,-1396,502,3587,7639,266,-83,168,6,-202
2,2779337,-1396,502,3587,7639,266,-83,168,6,-202
2,2779352,-1394,506,3594,7640,261,-90,168,6,-202
2,2779366,-1394,517,3594,7641,268,-86,168,6,-202
2,2779379,-1394,517,3594,7641,268,-86,168,6,-202
2,2779393,-1398,509,3594,7639,269,-85,168,6,-202
2,2779407,-1395,521,3595,7633,268,-93,171,-7,-205
2,2779422,-1395,521,3595,7633,268,-93,171,-7,-205
2,2779435,-1393,509,3600,7633,267,-94,171,-7,-205
2,2779448,-1395,498,3591,7645,275,-86,171,-7,-205
2,2779462,-1395,498,3591,7645,275,-86,171,-7,-205
2,2779474,-1397,496,3591,7641,268,-80,171,-7,-205
2,2779487,-1399,501,3586,7646,272,-87,171,-7,-205
2,2779498,-1399,501,3586,7646,272,-87,171,-7,-205
2,2779512,-1393,491,3594,7646,266,-87,171,-7,-205
2,2779528,-1398,486,3588,7642,259,-92,162,-10,-192
2,2779541,-1398,486,3588,7642,259,-92,162,-10,-192
2,2779552,-1398,490,3592,7641,262,-87,162,-10,-192
2,2779567,-1394,497,3581,7640,267,-86,162,-10,-192
2,2779580,-1394,497,3581,7640,267,-86,162,-10,-192
2,2779593,-1397,495,3591,7642,276,-90,162,-10,-192
2,2779607,-1397,501,3586,7636,272,-92,162,-10,-192
2,2779621,-1397,501,3586,7636,272,-92,162,-10,-192
2,2779632,-1396,498,3589,7640,276,-88,162,-10,-192
2,2779645,-1397,499,3590,7641,269,-90,162,-6,-186
2,2779660,-1397,499,3590,7641,269,-90,162,-6,-186
2,2779674,-1399,500,3591,7635,263,-90,162,-6,-186
2,2779689,-1395,506,3590,7632,267,-86,162,-6,-186
2,2779705,-1397,507,3589,7637,269,-83,162,-6,-186
2,2779719,-1397,507,3589,7637,269,-83,162,-6,-186
2,2779732,-1399,506,3586,7637,277,-85,162,-6,-186
2,2779747,-1401,500,3585,7640,268,-88,162,-6,-186
2,2779760,-1401,500,3585,7640,268,-88,162,-6,-186
2,2779771,-1394,499,3590,7636,274,-89,171,-11,-187
2,2779785,-1398,494,3585,7635,262,-86,171,-11,-187
2,2779799,-1398,494,3585,7635,262,-86,171,-11,-187
2,2779813,-1399,497,3587,7632,272,-87,171,-11,-187
2,2779827,-1399,498,3585,7642,273,-93,171,-11,-187
2,2779839,-1399,498,3585,7642,273,-93,171,-11,-187
2,2779850,-1399,493,3588,7632,275,-86,171,-11,-187
2,2779864,-1391,494,3582,7631,266,-90,171,-11,-187
2,2779878,-1391,494,3582,7631,266,-90,171,-11,-187
2,2779892,-1398,500,3585,7634,265,-92,165,-7,-177
2,2779906,-1396,529,3587,7636,267,-88,165,-7,-177
2,2779920,-1396,529,3587,7636,267,-88,165,-7,-177
2,2779933,-1397,527,3591,7635,268,-94,165,-7,-177
2,2779949,-1398,517,3586,7639,269,-93,165,-7,-177
2,2779963,-1398,517,3586,7639,269,-93,165,-7,-177
2,2779976,-1397,529,3586,7635,267,-95,165,-7,-177
2,2779991,-1399,529,3587,7639,262,-88,165,-7,-177
2,2780006,-1399,530,3590,7642,263,-88,165,-7,-177
2,2780021,-1399,530,3590,7642,263,-88,165,-7,-177
2,2780035,-1396,508,3597,7642,270,-92,167,-9,-165
2,2780048,-1394,500,3592,7643,261,-88,167,-9,-165
2,2780062,-1394,500,3592,7643,261,-88,167,-9,-165
2,2780075,-1395,501,3593,7651,268,-83,167,-9,-165
2,2780089,-1401,491,3586,7642,271,-84,167,-9,-165
2,2780102,-1401,491,3586,7642,271,-84,167,-9,-165
2,2780115,-1396,498,3588,7639,275,-87,167,-9,-165
2,2780129,-1394,485,3581,7642,272,-88,167,-9,-165
2,2780143,-1394,485,3581,7642,272,-88,167,-9,-165
2,2780155,-1396,493,3594,7644,269,-87,146,-14,-154
2,2780168,-1395,495,3588,7638,275,-86,146,-14,-154
2,2780183,-1395,495,3588,7638,275,-86,146,-14,-154
2,2780198,-1397,507,3586,7634,276,-97,146,-14,-154
2,2780212,-1391,500,3586,7636,274,-97,146,-14,-154
2,2780225,-1394,505,3587,7635,267,-96,146,-14,-154
2,2780240,-1394,505,3587,7635,267,-96,146,-14,-154
2,2780256,-1398,515,3584,7634,263,-92,146,-14,-154
2,2780269,-1397,513,3589,7639,268,-95,147,-21,-153
2,2780282,-1397,513,3589,7639,268,-95,147,-21,-153
2,2780297,-1389,501,3588,7644,271,-94,147,-21,-153
2,2780309,-1395,504,3588,7646,266,-92,147,-21,-153
2,2780321,-1395,504,3588,7646,266,-92,147,-21,-153
2,2780336,-1396,507,3585,7639,273,-87,147,-21,-153
2,2780350,-1394,500,3585,7643,270,-90,147,-21,-153
2,2780364,-1394,500,3585,7643,270,-90,147,-21,-153
2,2780377,-1398,492,3584,7646,267,-89,147,-21,-153
2,2780389,-1399,496,3596,7643,265,-81,143,-15,-143
2,2780402,-1399,496,3596,7643,265,-81,143,-15,-143
2,2780417,-1395,503,3589,7637,266,-80,143,-15,-143
2,2780430,-1398,500,3584,7640,268,-87,143,-15,-143
2,2780444,-1394,499,3588,7637,268,-98,143,-15,-143
2,2780460,-1394,499,3588,7637,268,-98,143,-15,-143
2,2780472,-1392,496,3586,7634,264,-90,143,-15,-143
2,2780486,-1398,498,3585,7641,277,-82,143,-15,-143
2,2780500,-1398,498,3585,7641,277,-82,143,-15,-143
2,2780515,-1397,516,3580,7637,270,-87,131,-21,-145
2,2780526,-1398,533,3583,7631,274,-88,131,-21,-145
2,2780541,-1398,533,3583,7631,274,-88,131,-21,-145
2,2780557,-1399,517,3582,7633,270,-94,131,-21,-145
2,2780570,-1398,525,3587,7635,264,-94,131,-21,-145
2,2780583,-1398,525,3587,7635,264,-94,131,-21,-145
2,2780598,-1398,526,3588,7634,271,-95,131,-21,-145
2,2780612,-1398,531,3592,7636,278,-94,131,-21,-145
2,2780623,-1398,531,3592,7636,278,-94,131,-21,-145
2,2780637,-1396,513,3585,7643,267,-92,131,-21,-145
2,2780651,-1395,501,3592,7643,273,-88,131,-21,-145
2,2780664,-1394,503,3588,7646,273,-82,131,-21,-145
2,2780674,-1394,503,3588,7646,273,-82,131,-21,-145
2,2780683,-1394,503,3588,7646,273,-82,131,-21,-145
2,2780698,-1399,497,3593,7640,270,-74,131,-21,-145
2,2780713,-1396,503,3588,7634,267,-92,131,-21,-145
2,2780729,-1397,496,3586,7637,273,-84,131,-21,-145
2,2780744,-1397,496,3586,7637,273,-84,131,-21,-145
2,2780756,-1397,499,3589,7637,274,-89,131,-21,-145
2,2780770,-1395,498,3589,7640,274,-85,118,-24,-122
2,2780784,-1395,498,3589,7640,274,-85,118,-24,-122
2,2780798,-1398,514,3589,7642,270,-94,118,-24,-122
2,2780811,-1398,514,3589,7642,270,-94,118,-24,-122
2,2780824,-1398,514,3589,7642,270,-94,118,-24,-122
2,2780837,-1394,511,3592,7643,269,-91,118,-24,-122
2,2780851,-1397,504,3590,7641,269,-81,118,-24,-122
2,2780865,-1397,504,3590,7641,269,-81,118,-24,-122
2,2780877,-1399,514,3588,7641,269,-86,118,-24,-122
2,2780889,-1397,506,3587,7639,266,-89,109,-35,-117
2,2780903,-1397,506,3587,7639,266,-89,109,-35,-117
2,2780915,-1396,506,3589,7649,269,-92,109,-35,-117
2,2780930,-1394,499,3584,7640,275,-92,109,-35,-117
2,2780944,-1394,499,3584,7640,275,-92,109,-35,-117
2,2780956,-1397,504,3591,7639,274,-87,109,-35,-117
2,2780972,-1394,504,3588,7640,271,-85,109,-35,-117
2,2780986,-1395,500,3589,7639,274,-87,109,-35,-117
2,2781001,-1395,500,3589,7639,274,-87,109,-35,-117
2,2781012,-1393,501,3590,7635,266,-92,96,-30,-112
2,2781025,-1393,501,3590,7635,266,-92,96,-30,-112
2,2781038,-1398,502,3585,7639,267,-92,96,-30,-112
2,2781051,-1395,497,3584,7639,266,-90,96,-30,-112
2,2781066,-1394,501,3583,7635,264,-92,96,-30,-112
2,2781077,-1394,501,3583,7635,264,-92,96,-30,-112
2,2781089,-1393,502,3586,7642,263,-91,96,-30,-112
2,2781103,-1393,502,3586,7642,263,-91,96,-30,-112
2,2781115,-1396,510,3582,7636,270,-87,96,-30,-112
2,2781130,-1396,533,3586,7631,270,-84,101,-37,-109
2,2781146,-1397,516,3591,7637,267,-92,101,-37,-109
2,2781159,-1397,516,3591,7637,267,-92,101,-37,-109
2,2781171,-1396,527,3591,7638,267,-93,101,-37,-109
2,2781186,-1396,524,3592,7641,266,-87,101,-37,-109
2,2781199,-1396,524,3592,7641,266,-87,101,-37,-109
2,2781210,-1401,533,3593,7638,266,-78,101,-37,-109
2,2781224,-1401,533,3593,7638,266,-78,101,-37,-109
2,2781238,-1396,515,3593,7641,263,-89,101,-37,-109
2,2781252,-1397,507,3590,7639,272,-88,86,-36,-110
2,2781265,-1396,506,3591,7643,271,-92,86,-36,-110
2,2781279,-1396,506,3591,7643,271,-92,86,-36,-110
2,2781291,-1403,492,3586,7644,271,-84,86,-36,-110
2,2781298,-1403,492,3586,7644,271,-84,86,-36,-110
2,2781306,-1399,509,3588,7643,269,-83,86,-36,-110
2,2781321,-1399,509,3588,7643,269,-83,86,-36,-110
2,2781334,-1396,495,3588,7646,266,-92,86,-36,-110
2,2781349,-1394,500,3585,7641,267,-92,86,-36,-110
2,2781359,-1394,500,3585,7641,267,-92,86,-36,-110
2,2781373,-1393,495,3590,7638,269,-87,86,-36,-110
2,2781387,-1401,515,3591,7644,272,-91,73,-35,-109
2,2781403,-1401,515,3591,7644,272,-91,73,-35,-109
2,2781414,-1393,507,3594,7640,277,-89,73,-35,-109
2,2781428,-1396,522,3583,7637,271,-90,73,-35,-109
2,2781442,-1396,522,3583,7637,271,-90,73,-35,-109
2,2781456,-1395,506,3590,7639,272,-90,73,-35,-109
2,2781469,-1401,518,3583,7641,268,-94,73,-35,-109
2,2781485,-1401,518,3583,7641,268,-94,73,-35,-109
2,2781496,-1394,502,3589,7641,267,-88,73,-35,-109
2,2781508,-1394,502,3589,7641,267,-88,69,-31,-103
2,2781521,-1394,502,3589,7641,267,-88,69,-31,-103
2,2781536,-1395,500,3594,7643,267,-93,69,-31,-103
2,2781550,-1393,508,3594,7646,272,-90,69,-31,-103
2,2781564,-1393,508,3594,7646,272,-90,69,-31,-103
2,2781576,-1393,498,3589,7642,274,-89,69,-31,-103
2,2781591,-1399,501,3591,7641,271,-93,69,-31,-103
2,2781605,-1399,501,3591,7641,271,-93,69,-31,-103
2,2781619,-1391,500,3587,7643,274,-89,69,-31,-103
2,2781632,-1399,496,3582,7639,277,-89,73,-33,-107
2,2781647,-1399,490,3585,7638,273,-90,73,-33,-107
2,2781662,-1399,490,3585,7638,273,-90,73,-33,-107
2,2781676,-1400,495,3585,7633,272,-91,73,-33,-107
2,2781689,-1400,503,3590,7634,274,-86,73,-33,-107
2,2781703,-1400,503,3590,7634,274,-86,73,-33,-107
2,2781715,-1401,503,3587,7631,276,-80,73,-33,-107
2,2781730,-1397,506,3590,7632,279,-86,73,-33,-107
2,2781744,-1397,506,3590,7632,279,-86,73,-33,-107
2,2781758,-1397,520,3595,7630,269,-90,69,-27,-105
2,2781772,-1396,533,3594,7632,268,-93,69,-27,-105
2,2781786,-1399,521,3590,7637,264,-87,69,-27,-105
2,2781800,-1399,521,3590,7637,264,-87,69,-27,-105
2,2781811,-1398,522,3589,7639,272,-89,69,-27,-105
2,2781826,-1399,511,3587,7635,274,-89,69,-27,-105
2,2781842,-1399,511,3587,7635,274,-89,69,-27,-105
2,2781856,-1400,506,3586,7636,273,-84,69,-27,-105
2,2781869,-1395,498,3592,7637,264,-81,66,-28,-118
2,2781882,-1395,498,3592,7637,264,-81,66,-28,-118
2,2781897,-1399,498,3590,7634,263,-95,66,-28,-118
2,2781911,-1394,500,3592,7641,268,-93,66,-28,-118
2,2781924,-1394,500,3592,7641,268,-93,66,-28,-118
2,2781938,-1393,495,3589,7627,268,-87,66,-28,-118
2,2781953,-1395,505,3592,7634,269,-96,66,-28,-118
2,2781964,-1395,505,3592,7634,269,-96,66,-28,-118
2,2781978,-1394,498,3589,7638,268,-91,66,-28,-118
2,2781990,-1398,504,3586,7636,268,-85,66,-28,-118
2,2782004,-1398,504,3586,7636,268,-85,66,-28,-118
2,2782019,-1397,503,3587,7633,266,-82,57,-25,-107
2,2782032,-1397,512,3583,7630,267,-93,57,-25,-107
2,2782045,-1397,512,3583,7630,267,-93,57,-25,-107
2,2782060,-1397,498,3586,7637,276,-88,57,-25,-107
2,2782075,-1396,509,3581,7632,276,-93,57,-25,-107
2,2782090,-1396,504,3588,7637,274,-100,57,-25,-107
2,2782101,-1396,504,3588,7637,274,-100,57,-25,-107
2,2782115,-1396,514,3587,7636,275,-90,57,-25,-107
2,2782130,-1397,507,3588,7637,274,-89,60,-32,-116
2,2782143,-1397,507,3588,7637,274,-89,60,-32,-116
2,2782156,-1394,506,3592,7629,275,-89,60,-32,-116
2,2782171,-1392,503,3592,7629,270,-97,60,-32,-116
2,2782183,-1392,503,3592,7629,270,-97,60,-32,-116
2,2782192,-1400,504,3590,7632,271,-85,60,-32,-116
2,2782205,-1393,502,3586,7636,262,-88,60,-32,-116
2,2782219,-1393,502,3586,7636,262,-88,60,-32,-116
2,2782228,-1394,494,3581,7634,269,-84,60,-32,-116
2,2782242,-1394,494,3581,7634,269,-84,60,-32,-116
2,2782256,-1391,494,3590,7640,274,-87,54,-26,-110
2,2782271,-1397,506,3584,7638,269,-93,54,-26,-110
2,2782286,-1394,506,3588,7642,273,-89,54,-26,-110
2,2782302,-1394,506,3588,7642,273,-89,54,-26,-110
2,2782317,-1394,509,3578,7633,260,-95,54,-26,-110
2,2782330,-1399,533,3584,7633,271,-90,54,-26,-110
2,2782345,-1399,533,3584,7633,271,-90,54,-26,-110
2,2782356,-1396,522,3583,7634,270,-91,54,-26,-110
2,2782368,-1396,526,3591,7636,271,-92,44,-16,-124
2,2782383,-1396,526,3591,7636,271,-92,44,-16,-124
2,2782392,-1397,517,3590,7636,272,-95,44,-16,-124
2,2782403,-1397,517,3590,7636,272,-95,44,-16,-124
2,2782416,-1398,525,3591,7635,273,-85,44,-16,-124
2,2782430,-1398,514,3582,7637,273,-86,44,-16,-124
2,2782443,-1398,514,3582,7637,273,-86,44,-16,-124
2,2782458,-1400,502,3587,7641,271,-90,44,-16,-124
2,2782473,-1393,503,3588,7642,264,-95,44,-16,-124
2,2782487,-1399,491,3585,7642,265,-88,53,-19,-127
2,2782499,-1399,491,3585,7642,265,-88,53,-19,-127
2,2782514,-1395,503,3585,7641,273,-92,53,-19,-127
2,2782530,-1397,501,3590,7639,271,-87,53,-19,-127
2,2782545,-1397,501,3590,7639,271,-87,53,-19,-127
2,2782560,-1396,505,3586,7633,267,-88,53,-19,-127
2,2782573,-1394,500,3588,7629,274,-89,53,-19,-127
2,2782585,-1394,500,3588,7629,274,-89,53,-19,-127
2,2782601,-1400,518,3583,7629,271,-93,53,-19,-127
2,2782614,-1393,526,3586,7637,268,-90,53,-19,-127
2,2782627,-1401,512,3589,7641,267,-91,59,-13,-141
2,2782642,-1401,512,3589,7641,267,-91,59,-13,-141
2,2782658,-1397,503,3587,7638,264,-90,59,-13,-141
2,2782672,-1395,513,3590,7641,267,-89,59,-13,-141
2,2782686,-1395,513,3590,7641,267,-89,59,-13,-141
2,2782698,-1396,509,3590,7641,262,-93,59,-13,-141
2,2782712,-1396,510,3588,7635,264,-85,59,-13,-141
2,2782726,-1396,510,3588,7635,264,-85,59,-13,-141
2,2782740,-1392,501,3584,7640,271,-92,59,-13,-141
2,2782755,-1393,506,3590,7638,270,-87,52,-20,-150
2,2782770,-1397,498,3590,7638,268,-88,52,-20,-150
2,2782785,-1397,498,3590,7638,268,-88,52,-20,-150
2,2782798,-1401,501,3581,7636,263,-85,52,-20,-150
2,2782811,-1394,498,3588,7640,264,-92,52,-20,-150
2,2782824,-1394,498,3588,7640,264,-92,52,-20,-150
2,2782835,-1396,496,3580,7637,264,-83,52,-20,-150
2,2782850,-1400,495,3586,7639,266,-90,52,-20,-150
2,2782863,-1400,495,3586,7639,266,-90,52,-20,-150
2,2782875,-1398,508,3589,7637,267,-97,54,-26,-160
2,2782889,-1397,505,3590,7636,279,-87,54,-26,-160
2,2782904,-1397,505,3590,7636,279,-87,54,-26,-160
2,2782917,-1399,504,3584,7638,272,-89,54,-26,-160
2,2782929,-1397,517,3587,7636,261,-94,54,-26,-160
2,2782944,-1397,517,3587,7636,261,-94,54,-26,-160
2,2782957,-1402,533,3586,7641,264,-79,54,-26,-160
2,2782967,-1399,525,3591,7632,267,-90,54,-26,-160
2,2782983,-1399,525,3591,7632,267,-90,54,-26,-160
2,2782998,-1397,507,3585,7633,263,-96,57,-29,-167
2,2783013,-1392,529,3601,7637,271,-83,57,-29,-167
2,2783030,-1399,517,3596,7638,266,-86,57,-29,-167
2,2783044,-1399,517,3596,7638,266,-86,57,-29,-167
2,2783055,-1397,510,3594,7633,272,-92,57,-29,-167
2,2783069,-1393,494,3592,7642,266,-96,57,-29,-167
2,2783082,-1393,494,3592,7642,266,-96,57,-29,-167
2,2783096,-1395,502,3590,7645,263,-90,57,-29,-167
2,2783110,-1396,505,3596,7634,266,-90,58,-28,-162
2,2783122,-1396,505,3596,7634,266,-90,58,-28,-162
2,2783134,-1400,501,3594,7640,270,-89,58,-28,-162
2,2783148,-1392,499,3585,7637,270,-96,58,-28,-162
2,2783161,-1392,499,3585,7637,270,-96,58,-28,-162
2,2783175,-1392,498,3588,7633,268,-89,58,-28,-162
2,2783187,-1402,503,3583,7638,270,-93,58,-28,-162
2,2783201,-1402,503,3583,7638,270,-93,58,-28,-162
2,2783216,-1396,510,3587,7637,262,-98,58,-28,-162
2,2783228,-1396,508,3587,7638,262,-92,58,-28,-162
2,2783241,-1396,508,3587,7638,262,-92,58,-28,-162
2,2783256,-1395,498,3596,7639,266,-89,55,-25,-175
2,2783270,-1398,508,3588,7644,270,-89,55,-25,-175
2,2783284,-1398,508,3588,7644,270,-89,55,-25,-175
2,2783298,-1399,516,3587,7640,271,-92,55,-25,-175
2,2783311,-1398,520,3588,7634,274,-88,55,-25,-175
2,2783324,-1398,520,3588,7634,274,-88,55,-25,-175
2,2783337,-1398,506,3588,7627,274,-92,55,-25,-175
2,2783350,-1398,506,3590,7639,265,-91,55,-25,-175
2,2783365,-1398,506,3590,7639,265,-91,55,-25,-175
2,2783378,-1398,503,3590,7645,273,-96,60,-24,-182
2,2783390,-1400,502,3587,7639,273,-96,60,-24,-182
2,2783401,-1400,502,3587,7639,273,-96,60,-24,-182
2,2783415,-1396,496,3587,7641,269,-85,60,-24,-182
2,2783429,-1398,494,3585,7642,270,-89,60,-24,-182
2,2783443,-1398,494,3585,7642,270,-89,60,-24,-182
2,2783459,-1394,502,3587,7636,269,-90,60,-24,-182
2,2783473,-1398,501,3583,7637,264,-85,60,-24,-182
2,2783486,-1398,501,3583,7637,264,-85,60,-24,-182
2,2783502,-1398,507,3587,7630,268,-89,69,-17,-195
2,2783516,-1397,505,3582,7633,273,-91,69,-17,-195
2,2783532,-1396,505,3593,7633,268,-92,69,-17,-195
2,2783545,-1396,505,3593,7633,268,-92,69,-17,-195
2,2783557,-1400,515,3587,7631,271,-86,69,-17,-195
2,2783570,-1401,533,3591,7636,273,-92,69,-17,-195
2,2783585,-1401,533,3591,7636,273,-92,69,-17,-195
2,2783598,-1400,505,3586,7644,274,-97,69,-17,-195
2,2783612,-1400,505,3586,7644,274,-97,82,-20,-212
2,2783625,-1400,505,3586,7644,274,-97,82,-20,-212
2,2783636,-1400,514,3585,7645,272,-90,82,-20,-212
2,2783650,-1403,508,3596,7638,266,-84,82,-20,-212
2,2783664,-1403,508,3596,7638,266,-84,82,-20,-212
2,2783678,-1399,500,3581,7646,265,-89,82,-20,-212
2,2783694,-1397,492,3582,7641,273,-94,82,-20,-212
2,2783709,-1395,510,3586,7634,272,-89,82,-20,-212
2,2783723,-1395,510,3586,7634,272,-89,82,-20,-212
2,2783736,-1403,499,3592,7639,263,-88,94,-18,-220
2,2783752,-1403,505,3584,7638,268,-91,94,-18,-220
2,2783765,-1403,505,3584,7638,268,-91,94,-18,-220
2,2783776,-1396,503,3582,7639,264,-100,94,-18,-220
2,2783790,-1398,507,3582,7633,261,-93,94,-18,-220
2,2783803,-1398,507,3582,7633,261,-93,94,-18,-220
2,2783816,-1401,508,3581,7642,269,-86,94,-18,-220
2,2783831,-1400,526,3589,7642,267,-91,94,-18,-220
2,2783842,-1400,526,3589,7642,267,-91,94,-18,-220
2,2783855,-1395,503,3594,7645,279,-94,94,-18,-220
2,2783869,-1398,513,3590,7644,266,-95,105,-27,-219
2,2783883,-1398,513,3590,7644,266,-95,105,-27,-219
2,2783896,-1398,501,3585,7639,261,-90,105,-27,-219
2,2783911,-1399,528,3584,7643,279,-92,105,-27,-219
2,2783928,-1399,528,3584,7643,279,-92,105,-27,-219
2,2783941,-1396,508,3586,7642,277,-86,105,-27,-219
2,2783954,-1398,501,3584,7647,271,-84,105,-27,-219
2,2783969,-1394,486,3589,7645,269,-93,105,-27,-219
2,2783980,-1394,486,3589,7645,269,-93,105,-27,-219
2,2783992,-1400,506,3589,7645,271,-86,106,-24,-224
2,2784006,-1400,506,3589,7645,271,-86,106,-24,-224
2,2784019,-1398,501,3589,7643,272,-85,106,-24,-224
2,2784033,-1398,500,3581,7645,270,-92,106,-24,-224
2,2784047,-1398,500,3581,7645,270,-92,106,-24,-224
2,2784063,-1398,493,3586,7638,269,-89,106,-24,-224
2,2784075,-1401,504,3583,7631,273,-88,106,-24,-224
2,2784089,-1404,506,3594,7634,273,-90,106,-24,-224
2,2784102,-1404,506,3594,7634,273,-90,106,-24,-224
2,2784115,-1398,509,3589,7641,272,-97,121,-21,-223
2,2784130,-1397,506,3592,7642,274,-88,121,-21,-223
2,2784143,-1397,506,3592,7642,274,-88,121,-21,-223
2,2784156,-1400,515,3583,7634,273,-83,121,-21,-223
2,2784168,-1401,527,3584,7633,270,-85,121,-21,-223
2,2784182,-1401,527,3584,7633,270,-85,121,-21,-223
2,2784196,-1399,519,3588,7630,265,-89,121,-21,-223
2,2784211,-1398,522,3587,7635,267,-91,121,-21,-223
2,2784226,-1398,522,3587,7635,267,-91,121,-21,-223
2,2784240,-1399,508,3593,7637,266,-91,123,-21,-219
2,2784253,-1396,511,3598,7640,279,-93,123,-21,-219
2,2784268,-1399,498,3592,7639,275,-87,123,-21,-219
2,2784280,-1399,498,3592,7639,275,-87,123,-21,-219
2,2784292,-1398,498,3585,7642,274,-86,123,-21,-219
2,2784306,-1398,498,3585,7642,274,-86,123,-21,-219
2,2784319,-1399,500,3585,7635,266,-90,123,-21,-219
2,2784333,-1402,498,3585,7646,271,-87,123,-21,-219
2,2784345,-1402,498,3585,7646,271,-87,123,-21,-219
2,2784358,-1397,502,3589,7640,271,-92,129,-21,-219
2,2784371,-1395,503,3583,7639,267,-93,129,-21,-219
2,2784385,-1395,503,3583,7639,267,-93,129,-21,-219
2,2784400,-1397,502,3586,7641,260,-87,129,-21,-219
2,2784415,-1399,502,3589,7644,274,-82,129,-21,-219
2,2784430,-1403,513,3592,7644,273,-88,129,-21,-219
2,2784442,-1403,513,3592,7644,273,-88,129,-21,-219
2,2784452,-1400,509,3591,7640,271,-88,129,-21,-219
2,2784461,-1400,509,3591,7640,271,-88,129,-21,-219
2,2784470,-1399,520,3588,7629,269,-87,129,-21,-219
2,2784478,-1399,520,3588,7629,269,-87,129,-21,-219
2,2784491,-1399,502,3592,7632,270,-89,139,-17,-223
2,2784505,-1399,502,3592,7632,270,-89,139,-17,-223
2,2784520,-1400,518,3589,7641,274,-96,139,-17,-223
2,2784532,-1399,501,3590,7643,267,-92,139,-17,-223
2,2784543,-1399,501,3590,7643,267,-92,139,-17,-223
2,2784558,-1400,512,3588,7643,266,-85,139,-17,-223
2,2784571,-1396,488,3588,7641,272,-96,139,-17,-223
2,2784584,-1396,488,3588,7641,272,-96,139,-17,-223
2,2784596,-1401,502,3584,7644,261,-90,139,-17,-223
2,2784609,-1397,497,3595,7641,269,-92,143,-17,-225
2,2784623,-1397,497,3595,7641,269,-92,143,-17,-225
2,2784636,-1401,506,3585,7640,275,-87,143,-17,-225
2,2784651,-1397,495,3587,7638,266,-86,143,-17,-225
2,2784665,-1397,495,3587,7638,266,-86,143,-17,-225
2,2784679,-1395,502,3583,7634,274,-91,143,-17,-225
2,2784692,-1395,499,3592,7635,275,-98,143,-17,-225
2,2784707,-1395,499,3592,7635,275,-98,143,-17,-225
2,2784722,-1397,512,3588,7641,277,-97,143,-17,-225
2,2784738,-1399,520,3597,7638,278,-91,146,-14,-218
2,2784752,-1396,519,3586,7644,278,-95,146,-14,-218
2,2784764,-1396,519,3586,7644,278,-95,146,-14,-218
2,2784780,-1401,518,3589,7641,271,-92,146,-14,-218
2,2784793,-1397,514,3588,7637,267,-94,146,-14,-218
2,2784807,-1397,514,3588,7637,267,-94,146,-14,-218
2,2784821,-1398,530,3591,7641,271,-92,146,-14,-218
2,2784835,-1399,504,3590,7636,270,-91,146,-14,-218
2,2784849,-1398,510,3595,7641,266,-87,152,2,-230
2,2784863,-1398,510,3595,7641,266,-87,152,2,-230
2,2784876,-1395,493,3594,7642,268,-84,152,2,-230
2,2784890,-1402,504,3593,7643,273,-84,152,2,-230
2,2784904,-1402,504,3593,7643,273,-84,152,2,-230
2,2784918,-1396,499,3590,7648,273,-90,152,2,-230
2,2784932,-1403,506,3590,7636,262,-97,152,2,-230
2,2784947,-1403,506,3590,7636,262,-97,152,2,-230
2,2784960,-1395,495,3589,7636,273,-96,152,2,-230
2,2784974,-1402,503,3584,7635,273,-87,161,-3,-211
2,2784989,-1399,498,3597,7643,268,-90,161,-3,-211
2,2785002,-1399,498,3597,7643,268,-90,161,-3,-211
2,2785015,-1395,507,3589,7635,273,-96,161,-3,-211
2,2785031,-1397,498,3592,7646,278,-90,161,-3,-211
2,2785044,-1397,498,3592,7646,278,-90,161,-3,-211
2,2785057,-1398,508,3586,7645,264,-95,161,-3,-211
2,2785072,-1399,505,3590,7637,265,-87,161,-3,-211
2,2785086,-1399,505,3590,7637,265,-87,161,-3,-211
2,2785095,-1397,510,3591,7631,267,-81,167,-5,-215
2,2785110,-1397,501,3591,7637,272,-92,167,-5,-215
2,2785123,-1397,501,3591,7637,272,-92,167,-5,-215
2,2785136,-1397,501,3585,7638,277,-91,167,-5,-215
2,2785148,-1396,498,3595,7635,267,-93,167,-5,-215
2,2785163,-1396,498,3595,7635,267,-93,167,-5,-215
2,2785177,-1401,499,3584,7639,271,-94,167,-5,-215
2,2785191,-1398,497,3590,7638,265,-95,167,-5,-215
2,2785206,-1398,497,3590,7638,265,-95,167,-5,-215
2,2785220,-1397,496,3588,7638,269,-90,167,-5,-215
2,2785234,-1398,494,3592,7637,271,-90,167,-3,-205
2,2785249,-1398,495,3591,7637,272,-89,167,-3,-205
2,2785262,-1398,495,3591,7637,272,-89,167,-3,-205
2,2785275,-1396,498,3588,7637,270,-89,167,-3,-205
2,2785290,-1396,498,3588,7637,270,-89,167,-3,-205
2,2785304,-1396,498,3588,7637,270,-89,167,-3,-205
2,2785317,-1392,509,3586,7638,269,-90,167,-3,-205
2,2785330,-1396,504,3582,7636,272,-94,167,-3,-205
2,2785344,-1396,504,3582,7636,272,-94,167,-3,-205
2,2785357,-1398,524,3585,7639,268,-93,166,-12,-202
2,2785371,-1398,531,3592,7631,279,-91,166,-12,-202
2,2785385,-1398,531,3592,7631,279,-91,166,-12,-202
2,2785396,-1399,523,3589,7639,269,-92,166,-12,-202
2,2785413,-1399,516,3588,7642,270,-95,166,-12,-202
2,2785425,-1399,516,3588,7642,270,-95,166,-12,-202
2,2785440,-1393,523,3591,7638,275,-87,166,-12,-202
2,2785453,-1398,509,3594,7641,272,-89,166,-12,-202
2,2785467,-1398,509,3594,7641,272,-89,166,-12,-202
2,2785481,-1399,503,3594,7642,270,-95,171,-7,-201
2,2785495,-1399,503,3594,7642,270,-95,171,-7,-201
2,2785508,-1399,503,3594,7642,270,-95,171,-7,-201
2,2785519,-1394,503,3590,7635,273,-90,171,-7,-201
2,2785533,-1405,487,3595,7635,266,-88,171,-7,-201
2,2785548,-1405,487,3595,7635,266,-88,171,-7,-201
2,2785562,-1396,507,3586,7642,268,-87,171,-7,-201
2,2785574,-1396,490,3584,7641,274,-88,171,-7,-201
2,2785589,-1396,490,3584,7641,274,-88,171,-7,-201
2,2785603,-1400,507,3588,7643,271,-87,163,-13,-195
2,2785614,-1394,504,3589,7638,267,-87,163,-13,-195
2,2785630,-1400,530,3588,7634,267,-97,163,-13,-195
2,2785641,-1400,530,3588,7634,267,-97,163,-13,-195
2,2785655,-1397,503,3594,7639,267,-92,163,-13,-195
2,2785668,-1397,503,3594,7639,267,-92,163,-13,-195
2,2785680,-1396,509,3591,7643,273,-94,163,-13,-195
2,2785694,-1397,495,3585,7643,268,-89,163,-13,-195
2,2785709,-1398,519,3590,7636,266,-85,163,-13,-195
2,2785723,-1398,519,3590,7636,266,-85,173,-5,-187
2,2785734,-1397,498,3591,7637,272,-82,173,-5,-187
2,2785748,-1397,498,3591,7637,272,-82,173,-5,-187
2,2785763,-1397,503,3588,7641,278,-86,173,-5,-187
2,2785776,-1397,490,3588,7640,273,-90,173,-5,-187
2,2785789,-1400,503,3590,7640,276,-81,173,-5,-187
2,2785802,-1400,503,3590,7640,276,-81,173,-5,-187
2,2785816,-1393,492,3592,7639,270,-86,173,-5,-187
2,2785830,-1398,495,3589,7633,269,-90,173,-5,-187
2,2785844,-1398,495,3589,7633,269,-90,173,-5,-187
2,2785858,-1388,491,3598,7634,277,-87,159,-5,-177
2,2785873,-1397,496,3595,7636,269,-91,159,-5,-177
2,2785884,-1397,496,3595,7636,269,-91,159,-5,-177
2,2785898,-1398,501,3590,7638,272,-91,159,-5,-177
2,2785912,-1398,501,3590,7638,272,-91,159,-5,-177
2,2785922,-1398,501,3590,7638,272,-91,159,-5,-177
2,2785937,-1396,505,3582,7635,268,-90,159,-5,-177
2,2785952,-1400,523,3589,7641,262,-90,159,-5,-177
2,2785966,-1400,523,3589,7641,262,-90,159,-5,-177
2,2785979,-1399,525,3593,7641,266,-90,157,-7,-159
2,2785992,-1400,515,3590,7640,276,-98,157,-7,-159
2,2786008,-1400,515,3590,7640,276,-98,157,-7,-159
2,2786021,-1393,518,3588,7641,274,-101,157,-7,-159
2,2786034,-1397,514,3593,7644,269,-89,157,-7,-159
2,2786048,-1397,514,3593,7644,269,-89,157,-7,-159
2,2786059,-1395,518,3588,7644,267,-92,157,-7,-159
2,2786071,-1396,502,3592,7646,273,-93,157,-7,-159
2,2786085,-1396,502,3592,7646,273,-93,157,-7,-159
2,2786100,-1397,494,3595,7639,271,-94,140,-20,-170
2,2786115,-1393,497,3587,7638,268,-91,140,-20,-170
2,2786131,-1402,498,3585,7642,262,-85,140,-20,-170
2,2786146,-1402,498,3585,7642,262,-85,140,-20,-170
2,2786160,-1395,498,3590,7642,265,-88,140,-20,-170
2,2786172,-1391,495,3592,7642,276,-92,140,-20,-170
2,2786185,-1391,495,3592,7642,276,-92,140,-20,-170
2,2786199,-1395,495,3587,7641,263,-91,140,-20,-170
2,2786212,-1397,510,3589,7642,270,-92,155,-7,-151
2,2786227,-1397,510,3589,7642,270,-92,155,-7,-151
2,2786238,-1398,517,3597,7639,268,-95,155,-7,-151
2,2786251,-1397,509,3584,7645,272,-90,155,-7,-151
2,2786264,-1397,509,3584,7645,272,-90,155,-7,-151
2,2786277,-1400,505,3593,7642,275,-91,155,-7,-151
2,2786292,-1399,503,3587,7643,271,-85,155,-7,-151
2,2786307,-1399,503,3587,7643,271,-85,155,-7,-151
2,2786318,-1400,509,3586,7642,271,-82,155,-7,-151
2,2786333,-1396,498,3588,7644,268,-83,140,-18,-146
2,2786349,-1396,498,3588,7644,268,-83,140,-18,-146
2,2786364,-1393,496,3594,7634,272,-88,140,-18,-146
2,2786377,-1392,502,3589,7635,271,-87,140,-18,-146
2,2786390,-1398,503,3589,7636,263,-85,140,-18,-146
2,2786403,-1398,503,3589,7636,263,-85,140,-18,-146
2,2786416,-1391,501,3590,7642,269,-93,140,-18,-146
2,2786430,-1396,496,3588,7638,263,-83,140,-18,-146
2,2786444,-1396,496,3588,7638,263,-83,140,-18,-146
2,2786456,-1393,498,3591,7639,269,-93,140,-18,-146
2,2786468,-1393,498,3591,7639,269,-93,140,-18,-146
2,2786477,-1397,501,3588,7638,270,-91,130,-16,-140
2,2786486,-1397,501,3588,7638,270,-91,130,-16,-140
2,2786500,-1396,505,3589,7637,268,-85,130,-16,-140
2,2786513,-1395,501,3582,7640,277,-93,130,-16,-140
2,2786525,-1395,501,3582,7640,277,-93,130,-16,-140
2,2786540,-1398,506,3589,7634,269,-88,130,-16,-140
2,2786552,-1395,526,3582,7633,266,-90,130,-16,-140
2,2786568,-1395,526,3582,7633,266,-90,130,-16,-140
2,2786583,-1402,523,3594,7631,277,-91,130,-16,-140
2,2786598,-1391,517,3587,7637,277,-91,124,-24,-134
2,2786610,-1396,528,3596,7642,271,-89,124,-24,-134
2,2786622,-1396,528,3596,7642,271,-89,124,-24,-134
2,2786635,-1397,519,3591,7647,273,-83,124,-24,-134
2,2786649,-1397,519,3591,7647,273,-83,124,-24,-134
2,2786663,-1397,515,3596,7652,269,-91,124,-24,-134
2,2786677,-1397,501,3589,7646,274,-93,124,-24,-134
2,2786691,-1398,495,3589,7650,272,-88,124,-24,-134
2,2786703,-1398,495,3589,7650,272,-88,124,-24,-134
2,2786717,-1394,499,3592,7644,260,-85,118,-26,-118
2,2786731,-1402,502,3592,7641,269,-87,118,-26,-118
2,2786745,-1402,502,3592,7641,269,-87,118,-26,-118
2,2786760,-1392,502,3591,7639,272,-93,118,-26,-118
2,2786776,-1392,493,3584,7635,268,-89,118,-26,-118
2,2786789,-1392,493,3584,7635,268,-89,118,-26,-118
2,2786803,-1395,501,3591,7643,272,-90,118,-26,-118
2,2786813,-1395,510,3590,7639,272,-96,118,-26,-118
2,2786826,-1395,510,3590,7639,272,-96,118,-26,-118
2,2786842,-1397,512,3591,7640,272,-94,106,-24,-120
2,2786856,-1395,504,3587,7638,274,-85,106,-24,-120
2,2786871,-1399,504,3590,7638,266,-77,106,-24,-120
2,2786884,-1399,504,3590,7638,266,-77,106,-24,-120
2,2786898,-1394,511,3586,7646,268,-88,106,-24,-120
2,2786913,-1397,506,3583,7645,265,-93,106,-24,-120
2,2786925,-1397,506,3583,7645,265,-93,106,-24,-120
2,2786938,-1394,500,3586,7641,271,-88,106,-24,-120
2,2786953,-1394,505,3586,7641,265,-94,106,-30,-120
2,2786966,-1394,505,3586,7641,265,-94,106,-30,-120
2,2786980,-1392,503,3589,7636,274,-90,106,-30,-120
2,2786996,-1397,502,3592,7639,276,-89,106,-30,-120
2,2787011,-1395,500,3592,7636,275,-85,106,-30,-120
2,2787026,-1395,500,3592,7636,275,-85,106,-30,-120
2,2787042,-1397,497,3590,7632,276,-81,106,-30,-120
2,2787055,-1397,497,3585,7643,267,-90,106,-30,-120
2,2787069,-1397,497,3585,7643,267,-90,106,-30,-120
2,2787084,-1399,501,3583,7649,265,-91,106,-30,-120
2,2787098,-1401,503,3586,7637,274,-90,97,-33,-107
2,2787109,-1401,503,3586,7637,274,-90,97,-33,-107
2,2787124,-1398,504,3587,7636,273,-94,97,-33,-107
2,2787137,-1397,523,3590,7632,267,-85,97,-33,-107
2,2787150,-1398,523,3594,7638,266,-84,97,-33,-107
2,2787165,-1398,523,3594,7638,266,-84,97,-33,-107
2,2787176,-1394,523,3590,7639,273,-94,97,-33,-107
2,2787189,-1394,523,3590,7639,273,-94,97,-33,-107
2,2787203,-1395,517,3593,7637,269,-100,97,-33,-107
2,2787216,-1393,541,3600,7640,267,-92,93,-39,-113
2,2787230,-1399,516,3593,7641,270,-87,93,-39,-113
2,2787246,-1399,516,3593,7641,270,-87,93,-39,-113
2,2787257,-1397,522,3591,7647,269,-89,93,-39,-113
2,2787272,-1390,497,3591,7646,269,-96,93,-39,-113
2,2787287,-1390,497,3591,7646,269,-96,93,-39,-113
2,2787301,-1402,499,3593,7649,276,-89,93,-39,-113
2,2787315,-1395,496,3590,7644,269,-88,93,-39,-113
2,2787328,-1395,496,3590,7644,269,-88,93,-39,-113
2,2787340,-1402,504,3596,7641,264,-89,86,-26,-108
2,2787354,-1388,497,3596,7638,269,-91,86,-26,-108
2,2787367,-1388,497,3596,7638,269,-91,86,-26,-108
2,2787380,-1397,494,3596,7641,266,-84,86,-26,-108
2,2787392,-1400,509,3581,7638,264,-82,86,-26,-108
2,2787406,-1400,509,3581,7638,264,-82,86,-26,-108
2,2787418,-1397,512,3590,7638,266,-92,86,-26,-108
2,2787432,-1399,504,3583,7638,261,-95,86,-26,-108
2,2787446,-1399,504,3583,7638,261,-95,86,-26,-108
2,2787458,-1397,509,3590,7638,265,-88,86,-34,-106
2,2787472,-1400,515,3589,7637,267,-82,86,-34,-106
2,2787486,-1400,515,3589,7637,267,-82,86,-34,-106
2,2787499,-1397,516,3591,7641,271,-87,86,-34,-106
2,2787512,-1399,511,3592,7640,274,-95,86,-34,-106
2,2787526,-1399,511,3592,7640,274,-95,86,-34,-106
2,2787539,-1397,506,3588,7639,273,-89,86,-34,-106
2,2787554,-1394,506,3595,7636,275,-83,86,-34,-106
2,2787567,-1394,506,3595,7636,275,-83,86,-34,-106
2,2787581,-1398,501,3586,7640,274,-87,75,-35,-111
2,2787594,-1399,500,3597,7646,265,-87,75,-35,-111
2,2787607,-1399,500,3597,7646,265,-87,75,-35,-111
2,2787621,-1392,499,3593,7646,269,-88,75,-35,-111
2,2787635,-1397,496,3589,7642,267,-90,75,-35,-111
2,2787649,-1397,496,3589,7642,267,-90,75,-35,-111
2,2787664,-1397,492,3585,7639,267,-88,75,-35,-111
2,2787680,-1399,500,3584,7633,273,-87,75,-35,-111
2,2787695,-1398,497,3588,7636,266,-90,75,-35,-111
2,2787708,-1398,497,3588,7636,266,-90,75,-35,-111
2,2787723,-1395,501,3589,7637,273,-85,72,-26,-104
2,2787737,-1398,507,3588,7636,266,-88,72,-26,-104
2,2787749,-1398,507,3588,7636,266,-88,72,-26,-104
2,2787762,-1394,521,3590,7634,269,-92,72,-26,-104
2,2787776,-1391,529,3595,7634,272,-90,72,-26,-104
2,2787789,-1391,529,3595,7634,272,-90,72,-26,-104
2,2787803,-1396,518,3586,7635,274,-84,72,-26,-104
2,2787817,-1398,520,3585,7637,271,-90,72,-26,-104
2,2787828,-1398,520,3585,7637,271,-90,72,-26,-104
2,2787842,-1394,516,3595,7631,269,-90,70,-30,-110
2,2787856,-1397,513,3594,7635,269,-92,70,-30,-110
2,2787870,-1397,513,3594,7635,269,-92,70,-30,-110
2,2787884,-1399,492,3590,7651,272,-90,70,-30,-110
2,2787895,-1396,499,3588,7649,277,-97,70,-30,-110
2,2787909,-1396,499,3588,7649,277,-97,70,-30,-110
2,2787924,-1393,499,3592,7652,266,-87,70,-30,-110
2,2787939,-1398,494,3590,7647,274,-89,70,-30,-110
2,2787954,-1391,496,3598,7641,270,-97,53,-21,-103
2,2787965,-1391,496,3598,7641,270,-97,53,-21,-103
2,2787980,-1393,499,3592,7639,270,-92,53,-21,-103
2,2787993,-1393,502,3591,7642,272,-92,53,-21,-103
2,2788006,-1393,502,3591,7642,272,-92,53,-21,-103
2,2788019,-1395,502,3585,7638,264,-96,53,-21,-103
2,2788034,-1398,509,3589,7641,271,-95,53,-21,-103
2,2788046,-1398,509,3589,7641,271,-95,53,-21,-103
2,2788060,-1394,503,3586,7641,273,-94,53,-21,-103
2,2788073,-1396,510,3590,7643,281,-90,62,-30,-116
2,2788087,-1396,510,3590,7643,281,-90,62,-30,-116
2,2788101,-1398,508,3590,7641,269,-89,62,-30,-116
2,2788116,-1398,514,3589,7644,270,-93,62,-30,-116
2,2788130,-1398,514,3589,7644,270,-93,62,-30,-116
2,2788145,-1397,506,3592,7639,274,-90,62,-30,-116
2,2788158,-1396,504,3591,7633,269,-94,62,-30,-116
2,2788172,-1396,503,3591,7642,272,-87,62,-30,-116
2,2788185,-1396,503,3591,7642,272,-87,62,-30,-116
2,2788195,-1396,503,3593,7641,269,-94,51,-19,-117
2,2788209,-1396,503,3593,7641,269,-94,51,-19,-117
2,2788222,-1395,491,3589,7636,259,-88,51,-19,-117
2,2788237,-1397,496,3585,7640,268,-93,51,-19,-117
2,2788248,-1397,496,3585,7640,268,-93,51,-19,-117
2,2788261,-1394,499,3588,7639,274,-96,51,-19,-117
2,2788275,-1396,501,3584,7641,268,-96,51,-19,-117
2,2788289,-1396,501,3584,7641,268,-96,51,-19,-117
2,2788304,-1397,498,3582,7635,269,-92,51,-19,-117
2,2788319,-1393,504,3578,7637,270,-90,51,-19,-117
2,2788334,-1393,521,3589,7632,268,-90,51,-17,-115
2,2788349,-1393,521,3589,7632,268,-90,51,-17,-115
2,2788363,-1397,527,3588,7631,267,-86,51,-17,-115
2,2788377,-1399,525,3589,7635,269,-86,51,-17,-115
2,2788391,-1395,516,3583,7637,268,-87,51,-17,-115
2,2788406,-1395,516,3583,7637,268,-87,51,-17,-115
2,2788417,-1396,538,3587,7634,270,-89,51,-17,-115
2,2788431,-1396,538,3587,7634,270,-89,51,-17,-115
2,2788445,-1402,516,3584,7642,262,-86,51,-17,-115
2,2788458,-1397,518,3590,7641,263,-85,52,-20,-126
2,2788473,-1396,499,3590,7643,271,-91,52,-20,-126
2,2788488,-1396,499,3590,7643,271,-91,52,-20,-126
2,2788500,-1396,502,3590,7644,267,-83,52,-20,-126
2,2788513,-1394,499,3594,7639,270,-88,52,-20,-126
2,2788527,-1394,499,3594,7639,270,-88,52,-20,-126
2,2788540,-1401,504,3589,7633,272,-89,52,-20,-126
2,2788554,-1385,505,3592,7635,279,-95,52,-20,-126
2,2788570,-1385,505,3592,7635,279,-95,52,-20,-126
2,2788584,-1395,500,3588,7639,275,-89,48,-18,-132
2,2788596,-1395,505,3590,7632,269,-88,48,-18,-132
2,2788611,-1395,505,3590,7632,269,-88,48,-18,-132
2,2788626,-1397,514,3585,7627,270,-88,48,-18,-132
2,2788638,-1395,511,3582,7638,271,-90,48,-18,-132
2,2788652,-1395,511,3582,7638,271,-90,48,-18,-132
2,2788666,-1396,509,3584,7642,271,-93,48,-18,-132
2,2788679,-1396,507,3581,7640,270,-90,48,-18,-132
2,2788694,-1398,509,3588,7637,271,-90,53,-19,-147
2,2788707,-1398,509,3588,7637,271,-90,53,-19,-147
2,2788720,-1394,515,3588,7647,272,-96,53,-19,-147
2,2788731,-1394,515,3588,7647,272,-96,53,-19,-147
2,2788745,-1393,502,3589,7641,261,-91,53,-19,-147
2,2788758,-1392,508,3597,7634,266,-90,53,-19,-147
2,2788772,-1394,504,3590,7636,267,-85,53,-19,-147
2,2788787,-1394,504,3590,7636,267,-85,53,-19,-147
2,2788799,-1396,501,3587,7634,263,-91,53,-19,-147
2,2788813,-1393,493,3586,7631,270,-92,66,-20,-156
2,2788829,-1393,493,3586,7631,270,-92,66,-20,-156
2,2788844,-1402,495,3589,7636,264,-77,66,-20,-156
2,2788857,-1397,502,3590,7639,268,-86,66,-20,-156
2,2788870,-1397,502,3590,7639,268,-86,66,-20,-156
2,2788886,-1400,507,3579,7648,276,-81,66,-20,-156
2,2788900,-1397,500,3585,7638,272,-85,66,-20,-156
2,2788915,-1396,504,3586,7631,268,-83,66,-20,-156
2,2788928,-1396,504,3586,7631,268,-83,66,-20,-156
2,2788941,-1395,522,3591,7637,270,-87,66,-20,-156
2,2788957,-1396,527,3588,7638,262,-89,57,-25,-157
2,2788970,-1396,527,3588,7638,262,-89,57,-25,-157
2,2788982,-1397,519,3593,7640,267,-95,57,-25,-157
2,2788996,-1396,508,3586,7639,272,-97,57,-25,-157
2,2789009,-1396,508,3586,7639,272,-97,57,-25,-157
2,2789023,-1398,545,3592,7642,269,-93,57,-25,-157
2,2789039,-1399,515,3583,7637,272,-84,57,-25,-157
2,2789054,-1397,522,3585,7646,267,-88,57,-25,-157
2,2789068,-1397,522,3585,7646,267,-88,57,-25,-157
2,2789082,-1391,498,3594,7646,276,-86,50,-26,-162
2,2789096,-1396,510,3586,7640,268,-85,50,-26,-162
2,2789107,-1396,510,3586,7640,268,-85,50,-26,-162
2,2789120,-1398,499,3596,7645,264,-87,50,-26,-162
2,2789134,-1400,509,3589,7647,268,-92,50,-26,-162
2,2789148,-1400,509,3589,7647,268,-92,50,-26,-162
2,2789161,-1391,504,3593,7640,266,-93,50,-26,-162
2,2789175,-1393,503,3593,7643,269,-90,50,-26,-162
2,2789190,-1393,503,3593,7643,269,-90,50,-26,-162
2,2789202,-1398,506,3591,7638,270,-94,51,-27,-173
2,2789218,-1399,513,3586,7644,271,-91,51,-27,-173
2,2789232,-1398,509,3587,7641,268,-92,51,-27,-173
2,2789246,-1398,509,3587,7641,268,-92,51,-27,-173
2,2789261,-1402,504,3583,7645,270,-88,51,-27,-173
2,2789275,-1398,513,3585,7642,264,-86,51,-27,-173
2,2789289,-1398,513,3585,7642,264,-86,51,-27,-173
2,2789304,-1397,512,3587,7635,270,-93,51,-27,-173
2,2789318,-1397,510,3598,7638,267,-91,61,-25,-181
2,2789332,-1397,510,3598,7638,267,-91,61,-25,-181
2,2789343,-1397,501,3591,7645,266,-97,61,-25,-181
2,2789355,-1393,513,3593,7645,269,-92,61,-25,-181
2,2789371,-1393,513,3593,7645,269,-92,61,-25,-181
2,2789387,-1392,499,3592,7642,268,-84,61,-25,-181
2,2789400,-1399,506,3594,7637,258,-89,61,-25,-181
2,2789414,-1395,496,3584,7639,262,-98,61,-25,-181
2,2789428,-1395,496,3584,7639,262,-98,61,-25,-181
2,2789441,-1402,502,3587,7637,267,-95,60,-20,-182
2,2789455,-1399,495,3587,7634,266,-91,60,-20,-182
2,2789469,-1399,495,3587,7634,266,-91,60,-20,-182
2,2789484,-1399,501,3590,7637,270,-87,60,-20,-182
2,2789497,-1394,496,3580,7635,270,-89,60,-20,-182
2,2789512,-1394,496,3580,7635,270,-89,60,-20,-182
2,2789526,-1395,505,3586,7630,262,-88,60,-20,-182
2,2789539,-1395,502,3586,7636,273,-86,60,-20,-182
2,2789552,-1395,502,3586,7636,273,-86,60,-20,-182
2,2789567,-1398,520,3586,7632,269,-85,75,-21,-197
2,2789581,-1397,530,3585,7637,282,-93,75,-21,-197
2,2789595,-1399,524,3582,7637,276,-86,75,-21,-197
2,2789608,-1399,524,3582,7637,276,-86,75,-21,-197
2,2789622,-1401,524,3582,7635,264,-92,75,-21,-197
2,2789636,-1400,518,3578,7638,263,-94,75,-21,-197
2,2789649,-1400,518,3578,7638,263,-94,75,-21,-197
2,2789663,-1398,511,3589,7634,268,-88,75,-21,-197
2,2789677,-1394,501,3587,7634,268,-84,75,-21,-197
2,2789691,-1394,501,3587,7634,268,-84,75,-21,-197
2,2789706,-1396,500,3593,7636,271,-83,88,-12,-208
2,2789720,-1392,503,3597,7642,269,-83,88,-12,-208
2,2789733,-1402,499,3594,7642,269,-85,88,-12,-208
2,2789747,-1402,499,3594,7642,269,-85,88,-12,-208
2,2789761,-1394,504,3595,7641,270,-87,88,-12,-208
2,2789776,-1398,501,3584,7635,267,-90,88,-12,-208
2,2789788,-1398,501,3584,7635,267,-90,88,-12,-208
2,2789801,-1399,503,3587,7638,262,-88,88,-12,-208
2,2789817,-1395,505,3585,7640,262,-89,94,-12,-212
2,2789831,-1395,505,3585,7640,262,-89,94,-12,-212
2,2789846,-1398,506,3592,7639,265,-85,94,-12,-212
2,2789859,-1397,502,3585,7648,267,-84,94,-12,-212
2,2789873,-1397,508,3584,7645,262,-89,94,-12,-212
2,2789886,-1397,508,3584,7645,262,-89,94,-12,-212
2,2789895,-1395,508,3582,7638,267,-91,94,-12,-212
2,2789903,-1395,508,3582,7638,267,-91,94,-12,-212
2,2789911,-1395,508,3582,7638,267,-91,94,-12,-212
2,2789922,-1394,511,3597,7640,274,-88,94,-12,-212
2,2789934,-1398,507,3589,7641,270,-84,110,-20,-220
2,2789947,-1398,507,3589,7641,270,-84,110,-20,-220
2,2789961,-1393,502,3591,7649,272,-84,110,-20,-220
2,2789976,-1396,504,3587,7645,267,-87,110,-20,-220
2,2789988,-1396,504,3587,7645,267,-87,110,-20,-220
2,2790000,-1394,498,3585,7642,278,-91,110,-20,-220
2,2790014,-1398,496,3582,7640,268,-88,110,-20,-220
2,2790029,-1398,496,3582,7640,268,-88,110,-20,-220
2,2790044,-1401,496,3582,7635,266,-89,110,-20,-220
2,2790060,-1396,497,3582,7637,265,-93,117,-21,-217
2,2790075,-1396,503,3591,7635,267,-93,117,-21,-217
2,2790088,-1396,503,3591,7635,267,-93,117,-21,-217
2,2790103,-1394,505,3588,7634,262,-89,117,-21,-217
2,2790117,-1394,506,3589,7628,264,-85,117,-21,-217
2,2790128,-1394,506,3589,7628,264,-85,117,-21,-217
2,2790142,-1395,509,3587,7632,268,-84,117,-21,-217
2,2790157,-1396,533,3585,7635,272,-89,117,-21,-217
2,2790170,-1396,533,3585,7635,272,-89,117,-21,-217
2,2790183,-1403,530,3579,7635,264,-96,116,-20,-224
2,2790198,-1398,524,3586,7630,269,-85,116,-20,-224
2,2790212,-1398,524,3586,7630,269,-85,116,-20,-224
2,2790223,-1400,527,3588,7634,268,-96,116,-20,-224
2,2790238,-1395,521,3586,7632,266,-90,116,-20,-224
2,2790251,-1395,521,3586,7632,266,-90,116,-20,-224
2,2790265,-1392,520,3591,7645,268,-83,116,-20,-224
2,2790280,-1398,505,3593,7650,276,-80,116,-20,-224
2,2790295,-1394,501,3588,7639,275,-83,116,-20,-224
2,2790310,-1394,501,3588,7639,275,-83,116,-20,-224
2,2790326,-1392,504,3597,7640,268,-85,125,-23,-223
2,2790339,-1400,505,3590,7643,269,-86,125,-23,-223
2,2790353,-1400,505,3590,7643,269,-86,125,-23,-223
2,2790367,-1393,508,3589,7635,275,-88,125,-23,-223
2,2790379,-1395,501,3583,7638,273,-89,125,-23,-223
2,2790393,-1396,502,3588,7639,269,-90,125,-23,-223
2,2790407,-1396,502,3588,7639,269,-90,125,-23,-223
2,2790421,-1398,515,3585,7635,267,-80,125,-23,-223
2,2790434,-1400,520,3588,7636,269,-86,142,-20,-224
2,2790449,-1400,520,3588,7636,269,-86,142,-20,-224
2,2790462,-1395,521,3593,7638,280,-86,142,-20,-224
2,2790474,-1399,508,3589,7643,273,-90,142,-20,-224
2,2790490,-1399,508,3589,7643,273,-90,142,-20,-224
2,2790504,-1395,515,3584,7643,265,-91,142,-20,-224
2,2790519,-1393,514,3590,7638,263,-91,142,-20,-224
2,2790533,-1393,514,3590,7638,263,-91,142,-20,-224
2,2790545,-1399,517,3588,7642,264,-92,142,-20,-224
2,2790560,-1397,508,3596,7638,276,-96,143,-23,-219
2,2790574,-1399,499,3592,7634,277,-87,143,-23,-219
2,2790587,-1399,499,3592,7634,277,-87,143,-23,-219
2,2790600,-1396,505,3592,7641,262,-87,143,-23,-219
2,2790611,-1396,505,3592,7641,262,-87,143,-23,-219
2,2790626,-1396,505,3592,7641,262,-87,143,-23,-219
2,2790639,-1396,503,3590,7634,267,-92,143,-23,-219
2,2790652,-1396,503,3590,7634,267,-92,143,-23,-219
2,2790667,-1393,501,3595,7640,268,-96,143,-23,-219
2,2790681,-1395,501,3595,7638,270,-91,144,-14,-228
2,2790692,-1395,501,3595,7638,270,-91,144,-14,-228
2,2790707,-1398,508,3593,7635,275,-84,144,-14,-228
2,2790721,-1397,511,3587,7636,269,-92,144,-14,-228
2,2790734,-1396,513,3582,7639,269,-91,144,-14,-228
2,2790749,-1396,513,3582,7639,269,-91,144,-14,-228
2,2790763,-1400,532,3585,7644,262,-91,144,-14,-228
2,2790778,-1402,518,3585,7637,269,-87,144,-14,-228
2,2790792,-1402,518,3585,7637,269,-87,144,-14,-228
2,2790806,-1400,519,3586,7643,269,-92,150,-14,-222
2,2790820,-1396,522,3593,7644,272,-87,150,-14,-222
2,2790832,-1396,522,3593,7644,272,-87,150,-14,-222
2,2790846,-1398,513,3595,7650,273,-81,150,-14,-222
2,2790859,-1398,513,3595,7650,273,-81,150,-14,-222
2,2790874,-1398,513,3595,7650,273,-81,150,-14,-222
2,2790887,-1404,505,3596,7646,273,-91,150,-14,-222
2,2790901,-1395,504,3591,7645,267,-91,150,-14,-222
2,2790915,-1401,500,3590,7645,265,-87,150,-14,-222
2,2790927,-1401,500,3590,7645,265,-87,150,-14,-222
2,2790941,-1399,500,3588,7631,275,-95,158,-12,-222
2,2790957,-1395,495,3594,7639,276,-95,158,-12,-222
2,2790972,-1395,495,3594,7639,276,-95,158,-12,-222
2,2790984,-1395,492,3591,7640,272,-87,158,-12,-222
2,2790996,-1399,497,3588,7645,266,-79,158,-12,-222
2,2791011,-1399,497,3588,7645,266,-79,158,-12,-222
2,2791024,-1397,504,3587,7638,267,-90,158,-12,-222
2,2791038,-1395,507,3591,7629,276,-88,158,-12,-222
2,2791052,-1395,507,3591,7629,276,-88,158,-12,-222
2,2791066,-1393,507,3593,7636,266,-89,156,-10,-208
2,2791081,-1397,510,3591,7645,269,-87,156,-10,-208
2,2791094,-1397,510,3591,7645,269,-87,156,-10,-208
2,2791108,-1398,510,3590,7649,267,-90,156,-10,-208
2,2791121,-1397,510,3590,7640,267,-88,156,-10,-208
2,2791135,-1400,506,3587,7641,270,-90,156,-10,-208
2,2791150,-1400,506,3587,7641,270,-90,156,-10,-208
2,2791164,-1397,505,3583,7644,267,-97,156,-10,-208
2,2791178,-1397,502,3586,7638,269,-93,156,-14,-214
2,2791192,-1397,502,3586,7638,269,-93,156,-14,-214
2,2791206,-1397,496,3588,7645,274,-87,156,-14,-214
2,2791223,-1397,502,3587,7643,260,-94,156,-14,-214
2,2791235,-1397,499,3595,7634,268,-92,156,-14,-214
2,2791248,-1397,499,3595,7634,268,-92,156,-14,-214
2,2791262,-1397,502,3587,7639,275,-83,156,-14,-214
2,2791276,-1396,498,3593,7636,272,-92,156,-14,-214
2,2791289,-1396,498,3593,7636,272,-92,156,-14,-214
2,2791303,-1395,504,3587,7636,261,-90,172,-12,-214
2,2791317,-1399,504,3594,7636,267,-95,172,-12,-214
2,2791329,-1399,504,3594,7636,267,-95,172,-12,-214
2,2791343,-1399,504,3594,7636,267,-95,172,-12,-214
2,2791353,-1399,504,3594,7636,267,-95,172,-12,-214
2,2791365,-1399,533,3593,7638,274,-91,172,-12,-214
2,2791377,-1399,521,3586,7648,268,-95,172,-12,-214
2,2791392,-1399,521,3586,7648,268,-95,172,-12,-214
2,2791405,-1399,518,3590,7638,271,-88,172,-12,-214
2,2791419,-1396,520,3591,7641,267,-90,168,-2,-200
2,2791435,-1399,527,3599,7639,260,-84,168,-2,-200
2,2791449,-1399,527,3599,7639,260,-84,168,-2,-200
2,2791464,-1398,516,3596,7651,265,-95,168,-2,-200
2,2791478,-1403,502,3591,7647,267,-92,168,-2,-200
2,2791492,-1403,502,3591,7647,267,-92,168,-2,-200
2,2791506,-1396,500,3591,7642,273,-87,168,-2,-200
2,2791521,-1394,501,3589,7631,266,-82,168,-2,-200
2,2791532,-1394,501,3589,7631,266,-82,168,-2,-200
2,2791545,-1400,499,3589,7638,268,-85,168,-2,-200
2,2791559,-1394,498,3591,7637,263,-90,159,-5,-197
2,2791573,-1394,498,3591,7637,263,-90,159,-5,-197
2,2791586,-1394,496,3598,7643,272,-88,159,-5,-197
2,2791600,-1396,502,3586,7645,270,-83,159,-5,-197
2,2791612,-1396,502,3586,7645,270,-83,159,-5,-197
2,2791626,-1398,510,3583,7640,267,-86,159,-5,-197
2,2791640,-1397,516,3591,7642,267,-89,159,-5,-197
2,2791654,-1397,516,3591,7642,267,-89,159,-5,-197
2,2791668,-1397,515,3590,7645,268,-86,159,-5,-197
2,2791683,-1397,507,3594,7643,269,-87,164,-8,-186
2,2791696,-1396,511,3595,7641,266,-81,164,-8,-186
2,2791710,-1396,511,3595,7641,266,-81,164,-8,-186
2,2791725,-1396,508,3592,7641,263,-96,164,-8,-186
2,2791739,-1399,505,3593,7638,262,-85,164,-8,-186
2,2791751,-1399,505,3593,7638,262,-85,164,-8,-186
2,2791766,-1399,500,3582,7634,262,-83,164,-8,-186
2,2791779,-1398,501,3587,7637,273,-88,164,-8,-186
2,2791792,-1398,501,3587,7637,273,-88,164,-8,-186
2,2791806,-1398,504,3588,7640,267,-91,169,-7,-185
2,2791821,-1399,494,3592,7644,267,-89,169,-7,-185
2,2791833,-1399,494,3592,7644,267,-89,169,-7,-185
2,2791847,-1399,493,3592,7644,267,-85,169,-7,-185
2,2791861,-1395,496,3590,7643,264,-92,169,-7,-185
2,2791874,-1395,496,3590,7643,264,-92,169,-7,-185
2,2791888,-1398,502,3591,7646,268,-94,169,-7,-185
2,2791904,-1398,502,3587,7633,262,-94,169,-7,-185
2,2791920,-1399,506,3594,7639,277,-91,167,-15,-173
2,2791928,-1399,506,3594,7639,277,-91,167,-15,-173
2,2791941,-1396,504,3586,7637,267,-91,167,-15,-173
2,2791953,-1396,504,3586,7637,267,-91,167,-15,-173
2,2791968,-1400,517,3587,7635,265,-93,167,-15,-173
2,2791983,-1399,524,3591,7635,269,-95,167,-15,-173
2,2791996,-1400,520,3586,7635,265,-84,167,-15,-173
2,2792010,-1400,520,3586,7635,265,-84,167,-15,-173
2,2792025,-1396,516,3592,7633,264,-93,167,-15,-173
2,2792036,-1398,518,3596,7643,263,-98,162,-12,-164
2,2792051,-1398,518,3596,7643,263,-98,162,-12,-164
2,2792066,-1399,521,3597,7640,258,-88,162,-12,-164
2,2792079,-1401,500,3588,7640,269,-96,162,-12,-164
2,2792092,-1401,500,3588,7640,269,-96,162,-12,-164
2,2792107,-1396,499,3590,7641,267,-85,162,-12,-164
2,2792121,-1394,498,3588,7644,275,-77,162,-12,-164
2,2792134,-1394,498,3588,7644,275,-77,162,-12,-164
2,2792148,-1401,499,3590,7641,272,-75,162,-12,-164
2,2792163,-1395,492,3586,7642,270,-91,162,-12,-164
2,2792178,-1393,495,3592,7641,273,-93,150,-16,-168
2,2792193,-1393,495,3592,7641,273,-93,150,-16,-168
2,2792205,-1395,503,3593,7629,272,-85,150,-16,-168
2,2792220,-1398,513,3589,7630,267,-85,150,-16,-168
2,2792235,-1398,513,3589,7630,267,-85,150,-16,-168
2,2792248,-1397,511,3589,7636,267,-94,150,-16,-168
2,2792261,-1395,524,3595,7639,272,-101,150,-16,-168
2,2792275,-1400,504,3587,7643,269,-95,150,-16,-168
2,2792288,-1400,504,3587,7643,269,-95,150,-16,-168
2,2792302,-1403,511,3591,7642,266,-90,142,-10,-148
2,2792316,-1398,508,3590,7641,270,-93,142,-10,-148
2,2792330,-1398,508,3590,7641,270,-93,142,-10,-148
2,2792343,-1398,505,3584,7637,263,-93,142,-10,-148
2,2792357,-1398,501,3591,7635,260,-90,142,-10,-148
2,2792370,-1398,501,3591,7635,260,-90,142,-10,-148
2,2792383,-1401,501,3589,7640,261,-84,142,-10,-148
2,2792397,-1397,501,3588,7640,260,-88,142,-10,-148
2,2792411,-1397,501,3588,7640,260,-88,142,-10,-148
2,2792426,-1395,495,3593,7640,256,-93,134,-24,-134
2,2792441,-1397,498,3597,7642,262,-85,134,-24,-134
2,2792457,-1393,499,3594,7642,270,-78,134,-24,-134
2,2792472,-1393,499,3594,7642,270,-78,134,-24,-134
2,2792487,-1398,503,3592,7641,271,-92,134,-24,-134
2,2792501,-1396,501,3587,7643,266,-84,134,-24,-134
2,2792514,-1396,501,3587,7643,266,-84,134,-24,-134
2,2792529,-1397,504,3584,7639,272,-82,134,-24,-134
2,2792542,-1400,506,3595,7640,275,-83,127,-19,-141
2,2792556,-1400,527,3593,7644,269,-85,127,-19,-141
2,2792570,-1400,527,3593,7644,269,-85,127,-19,-141
2,2792584,-1401,521,3592,7639,269,-88,127,-19,-141
2,2792597,-1396,522,3585,7636,270,-87,127,-19,-141
2,2792611,-1396,522,3585,7636,270,-87,127,-19,-141
2,2792626,-1397,519,3593,7638,266,-93,127,-19,-141
2,2792641,-1401,519,3592,7638,270,-92,127,-19,-141
2,2792655,-1401,519,3592,7638,270,-92,127,-19,-141
2,2792668,-1399,520,3594,7641,273,-88,119,-25,-133
2,2792683,-1400,500,3594,7640,269,-85,119,-25,-133
2,2792699,-1393,497,3594,7642,269,-87,119,-25,-133
2,2792714,-1393,497,3594,7642,269,-87,119,-25,-133
2,2792728,-1393,497,3594,7642,269,-89,119,-25,-133
2,2792740,-1399,502,3590,7645,265,-90,119,-25,-133
2,2792754,-1399,502,3590,7645,265,-90,119,-25,-133
2,2792767,-1398,494,3587,7645,269,-86,119,-25,-133
2,2792780,-1397,496,3587,7642,272,-91,119,-25,-133
2,2792795,-1397,496,3587,7642,272,-91,119,-25,-133
2,2792808,-1396,498,3585,7638,269,-98,114,-22,-126
2,2792819,-1400,508,3597,7638,260,-89,114,-22,-126
2,2792834,-1400,508,3597,7638,260,-89,114,-22,-126
2,2792847,-1398,507,3590,7641,264,-88,114,-22,-126
2,2792861,-1397,505,3594,7643,269,-92,114,-22,-126
2,2792876,-1397,505,3594,7643,269,-92,114,-22,-126
2,2792887,-1398,504,3589,7640,263,-94,114,-22,-126
2,2792902,-1400,508,3591,7643,260,-90,114,-22,-126
2,2792918,-1396,512,3591,7641,264,-98,104,-28,-116
2,2792933,-1396,512,3591,7641,264,-98,104,-28,-116
2,2792949,-1398,502,3590,7642,268,-91,104,-28,-116
2,2792965,-1399,499,3585,7646,269,-88,104,-28,-116
2,2792976,-1398,500,3587,7645,274,-94,104,-28,-116
2,2792989,-1398,500,3587,7645,274,-94,104,-28,-116
2,2793003,-1398,503,3591,7650,268,-94,104,-28,-116
2,2793017,-1396,493,3592,7645,272,-89,104,-28,-116
2,2793030,-1396,493,3592,7645,272,-89,104,-28,-116
2,2793044,-1393,499,3598,7651,271,-89,99,-25,-115
2,2793060,-1392,503,3587,7645,267,-96,99,-25,-115
2,2793072,-1392,503,3587,7645,267,-96,99,-25,-115
2,2793085,-1401,503,3588,7635,272,-85,99,-25,-115
2,2793100,-1401,503,3588,7635,272,-85,99,-25,-115
2,2793113,-1401,503,3588,7635,272,-85,99,-25,-115
2,2793128,-1396,504,3588,7644,279,-96,99,-25,-115
2,2793143,-1396,505,3587,7641,272,-99,99,-25,-115
2,2793157,-1401,531,3588,7640,275,-93,100,-32,-108
2,2793170,-1401,531,3588,7640,275,-93,100,-32,-108
2,2793185,-1399,520,3587,7645,273,-84,100,-32,-108
2,2793201,-1398,521,3594,7639,282,-86,100,-32,-108
2,2793217,-1395,528,3595,7634,272,-85,100,-32,-108
2,2793230,-1395,528,3595,7634,272,-85,100,-32,-108
2,2793242,-1400,524,3587,7651,272,-88,100,-32,-108
2,2793256,-1396,520,3593,7642,266,-91,100,-32,-108
2,2793271,-1396,520,3593,7642,266,-91,100,-32,-108
2,2793284,-1399,496,3590,7648,265,-93,89,-31,-105
2,2793298,-1393,501,3596,7643,266,-103,89,-31,-105
2,2793311,-1393,501,3596,7643,266,-103,89,-31,-105
2,2793322,-1397,492,3589,7640,268,-88,89,-31,-105
2,2793337,-1403,499,3592,7640,268,-90,89,-31,-105
2,2793351,-1403,499,3592,7640,268,-90,89,-31,-105
2,2793364,-1403,499,3592,7640,268,-90,89,-31,-105
2,2793379,-1399,501,3594,7643,271,-86,89,-31,-105
2,2793395,-1399,501,3594,7643,271,-86,89,-31,-105
2,2793410,-1396,497,3596,7644,260,-87,89,-31,-105
2,2793424,-1397,512,3598,7632,260,-90,83,-35,-107
2,2793436,-1397,512,3598,7632,260,-90,83,-35,-107
2,2793451,-1396,504,3599,7643,262,-90,83,-35,-107
2,2793464,-1400,515,3595,7637,269,-91,83,-35,-107
2,2793476,-1400,515,3595,7637,269,-91,83,-35,-107
2,2793489,-1399,504,3587,7635,265,-94,83,-35,-107
2,2793503,-1398,517,3590,7639,271,-85,83,-35,-107
2,2793517,-1400,506,3587,7639,272,-84,83,-35,-107
2,2793531,-1400,506,3587,7639,272,-84,83,-35,-107
2,2793543,-1396,503,3594,7640,264,-80,76,-32,-110
2,2793555,-1396,503,3594,7640,264,-80,76,-32,-110
2,2793570,-1394,501,3597,7641,272,-91,76,-32,-110
2,2793583,-1396,494,3591,7632,272,-93,76,-32,-110
2,2793597,-1398,502,3592,7638,271,-89,76,-32,-110
2,2793613,-1398,502,3592,7638,271,-89,76,-32,-110
2,2793628,-1392,494,3595,7640,277,-90,76,-32,-110
2,2793644,-1394,497,3592,7640,277,-97,76,-32,-110
2,2793657,-1395,495,3593,7636,267,-93,73,-31,-107
2,2793671,-1395,495,3593,7636,267,-93,73,-31,-107
2,2793686,-1399,501,3593,7637,265,-88,73,-31,-107
2,2793699,-1397,493,3591,7643,273,-94,73,-31,-107
2,2793711,-1397,493,3591,7643,273,-94,73,-31,-107
2,2793725,-1395,501,3585,7633,271,-86,73,-31,-107
2,2793734,-1395,501,3585,7633,271,-86,73,-31,-107
2,2793748,-1397,497,3583,7641,271,-86,73,-31,-107
2,2793758,-1397,509,3591,7638,267,-85,73,-31,-107
2,2793772,-1397,509,3591,7638,267,-85,73,-31,-107
2,2793784,-1398,527,3597,7640,275,-86,72,-30,-110
2,2793798,-1401,523,3589,7639,274,-93,72,-30,-110
2,2793812,-1401,523,3589,7639,274,-93,72,-30,-110
2,2793825,-1397,523,3590,7639,271,-95,72,-30,-110
2,2793840,-1397,509,3585,7643,266,-91,72,-30,-110
2,2793856,-1397,509,3585,7643,266,-91,72,-30,-110
2,2793873,-1396,513,3591,7644,271,-83,72,-30,-110
2,2793887,-1397,488,3592,7642,268,-89,72,-30,-110
2,2793902,-1399,497,3598,7654,270,-91,63,-25,-103
2,2793915,-1399,497,3598,7654,270,-91,63,-25,-103
2,2793928,-1393,492,3596,7645,264,-93,63,-25,-103
2,2793943,-1400,492,3591,7640,270,-93,63,-25,-103
2,2793957,-1400,492,3591,7640,270,-93,63,-25,-103
2,2793970,-1395,490,3592,7638,275,-89,63,-25,-103
2,2793985,-1397,499,3594,7636,272,-89,63,-25,-103
2,2793996,-1397,499,3594,7636,272,-89,63,-25,-103
2,2794008,-1394,499,3592,7638,265,-90,63,-25,-103
2,2794021,-1395,504,3591,7641,266,-84,63,-25,-103
2,2794036,-1395,504,3591,7641,266,-84,63,-25,-103
2,2794050,-1397,505,3596,7641,267,-87,63,-25,-103
2,2794065,-1394,508,3589,7640,266,-92,63,-25,-103
2,2794079,-1398,504,3590,7639,268,-86,63,-25,-103
2,2794092,-1398,504,3590,7639,268,-86,63,-25,-103
2,2794107,-1402,510,3582,7640,276,-92,63,-25,-103
2,2794123,-1395,510,3590,7644,270,-90,63,-25,-103
2,2794131,-1395,510,3590,7644,270,-90,63,-25,-103
2,2794143,-1396,501,3592,7645,270,-86,63,-25,-103
2,2794157,-1396,500,3596,7640,263,-88,63,-25,-103
2,2794172,-1396,500,3596,7640,263,-88,51,-33,-117
2,2794184,-1394,492,3597,7640,267,-89,51,-33,-117
2,2794196,-1394,492,3597,7640,267,-89,51,-33,-117
2,2794210,-1393,499,3598,7647,273,-88,51,-33,-117
2,2794224,-1398,495,3587,7645,266,-93,51,-33,-117
2,2794237,-1402,496,3586,7639,267,-87,51,-33,-117
2,2794252,-1402,496,3586,7639,267,-87,51,-33,-117
2,2794261,-1396,491,3583,7644,261,-89,51,-33,-117
2,2794275,-1396,491,3583,7644,261,-89,51,-33,-117
2,2794292,-1400,498,3593,7641,266,-94,54,-24,-116
2,2794306,-1398,494,3588,7644,270,-85,54,-24,-116
2,2794319,-1395,502,3588,7638,267,-82,54,-24,-116
2,2794335,-1395,502,3588,7638,267,-82,54,-24,-116
2,2794350,-1397,507,3594,7642,277,-94,54,-24,-116
2,2794365,-1395,529,3585,7627,265,-92,54,-24,-116
2,2794380,-1402,518,3592,7631,263,-92,54,-24,-116
2,2794394,-1402,518,3592,7631,263,-92,54,-24,-116
2,2794407,-1398,524,3593,7638,266,-92,53,-17,-119
2,2794422,-1399,526,3589,7639,265,-96,53,-17,-119
2,2794434,-1399,526,3589,7639,265,-96,53,-17,-119
2,2794446,-1401,516,3584,7642,268,-91,53,-17,-119
2,2794462,-1396,508,3589,7645,268,-93,53,-17,-119
2,2794476,-1396,508,3589,7645,268,-93,53,-17,-119
2,2794489,-1399,491,3583,7647,268,-97,53,-17,-119
2,2794504,-1393,496,3591,7642,269,-85,53,-17,-119
2,2794517,-1393,496,3591,7642,269,-85,53,-17,-119
2,2794528,-1397,487,3597,7638,269,-80,52,-18,-132
2,2794544,-1397,498,3598,7639,271,-89,52,-18,-132
2,2794559,-1393,499,3592,7637,272,-91,52,-18,-132
2,2794571,-1393,499,3592,7637,272,-91,52,-18,-132
2,2794586,-1396,499,3587,7634,261,-94,52,-18,-132
2,2794601,-1398,498,3590,7638,260,-86,52,-18,-132
2,2794616,-1398,498,3590,7638,260,-86,52,-18,-132
2,2794630,-1398,507,3584,7638,261,-93,52,-18,-132
2,2794643,-1397,506,3584,7643,274,-85,53,-17,-143
2,2794657,-1396,503,3586,7639,262,-88,53,-17,-143
2,2794671,-1396,503,3586,7639,262,-88,53,-17,-143
2,2794684,-1398,499,3591,7636,266,-85,53,-17,-143
2,2794699,-1398,518,3591,7632,263,-89,53,-17,-143
2,2794712,-1398,518,3591,7632,263,-89,53,-17,-143
2,2794726,-1397,506,3588,7637,263,-90,53,-17,-143
2,2794739,-1401,502,3589,7639,273,-84,53,-17,-143
2,2794754,-1401,502,3589,7639,273,-84,53,-17,-143
2,2794768,-1388,507,3587,7637,266,-91,53,-17,-143
2,2794780,-1400,501,3594,7634,264,-88,58,-24,-152
2,2794795,-1400,501,3594,7634,264,-88,58,-24,-152
2,2794810,-1397,493,3587,7633,271,-86,58,-24,-152
2,2794825,-1402,497,3584,7635,279,-91,58,-24,-152
2,2794839,-1396,499,3586,7641,275,-91,58,-24,-152
2,2794851,-1396,499,3586,7641,275,-91,58,-24,-152
2,2794866,-1395,494,3591,7635,264,-89,58,-24,-152
2,2794880,-1400,500,3589,7635,265,-92,58,-24,-152
2,2794894,-1400,500,3589,7635,265,-92,58,-24,-152
2,2794907,-1392,501,3592,7635,271,-97,49,-21,-151
2,2794921,-1391,526,3593,7629,272,-92,49,-21,-151
2,2794938,-1396,526,3583,7631,275,-85,49,-21,-151
2,2794947,-1396,526,3583,7631,275,-85,49,-21,-151
2,2794960,-1403,531,3586,7640,276,-90,49,-21,-151
2,2794975,-1403,531,3586,7640,276,-90,49,-21,-151
2,2794989,-1398,518,3589,7644,275,-85,49,-21,-151
2,2795001,-1400,526,3584,7636,266,-88,49,-21,-151
2,2795014,-1400,526,3584,7636,266,-88,49,-21,-151
2,2795029,-1399,523,3596,7636,266,-86,54,-28,-160
2,2795044,-1401,516,3592,7645,274,-89,54,-28,-160
2,2795060,-1392,510,3600,7646,274,-91,54,-28,-160
2,2795073,-1392,510,3600,7646,274,-91,54,-28,-160
2,2795085,-1398,490,3589,7645,276,-91,54,-28,-160
2,2795100,-1398,502,3593,7648,271,-89,54,-28,-160
2,2795113,-1398,502,3593,7648,271,-89,54,-28,-160
2,2795127,-1394,497,3594,7643,270,-91,54,-28,-160
2,2795141,-1400,501,3586,7640,275,-88,49,-17,-173
2,2795154,-1400,501,3586,7640,275,-88,49,-17,-173
2,2795166,-1396,487,3591,7642,269,-89,49,-17,-173
2,2795180,-1400,491,3590,7636,262,-89,49,-17,-173
2,2795193,-1400,491,3590,7636,262,-89,49,-17,-173
2,2795207,-1393,498,3593,7641,271,-92,49,-17,-173
2,2795220,-1396,501,3591,7640,267,-88,49,-17,-173
2,2795232,-1396,501,3591,7640,267,-88,49,-17,-173
2,2795247,-1398,496,3584,7643,273,-90,49,-17,-173
2,2795264,-1397,502,3587,7643,276,-85,56,-28,-174
2,2795273,-1397,502,3587,7643,276,-85,56,-28,-174
2,2795288,-1396,503,3593,7637,279,-89,56,-28,-174
2,2795303,-1396,503,3591,7636,269,-92,56,-28,-174
2,2795319,-1395,503,3595,7640,270,-88,56,-28,-174
2,2795332,-1395,503,3595,7640,270,-88,56,-28,-174
2,2795345,-1394,502,3580,7638,271,-94,56,-28,-174
2,2795360,-1395,503,3585,7639,263,-90,56,-28,-174
2,2795372,-1395,503,3585,7639,263,-90,56,-28,-174
2,2795386,-1401,495,3585,7637,259,-90,56,-28,-174
2,2795400,-1400,501,3589,7638,263,-103,54,-22,-188
2,2795413,-1400,501,3589,7638,263,-103,54,-22,-188
2,2795426,-1399,498,3581,7640,270,-91,54,-22,-188
2,2795441,-1400,495,3595,7640,275,-84,54,-22,-188
2,2795452,-1400,495,3595,7640,275,-84,54,-22,-188
2,2795466,-1397,499,3590,7642,276,-96,54,-22,-188
2,2795481,-1395,498,3594,7640,275,-93,54,-22,-188
2,2795496,-1395,498,3594,7640,275,-93,54,-22,-188
2,2795509,-1391,499,3589,7640,274,-93,54,-22,-188
2,2795525,-1397,504,3596,7632,268,-94,69,-13,-197
2,2795540,-1396,522,3588,7639,264,-94,69,-13,-197
2,2795554,-1396,522,3588,7639,264,-94,69,-13,-197
2,2795571,-1397,536,3589,7637,271,-88,69,-13,-197
2,2795584,-1398,521,3583,7641,271,-90,69,-13,-197
2,2795597,-1398,521,3583,7641,271,-90,69,-13,-197
2,2795612,-1399,525,3583,7638,270,-94,69,-13,-197
2,2795623,-1399,527,3590,7640,269,-90,69,-13,-197
2,2795639,-1403,517,3593,7639,259,-94,82,-18,-208
2,2795654,-1403,517,3593,7639,259,-94,82,-18,-208
2,2795668,-1395,515,3591,7645,266,-95,82,-18,-208
2,2795681,-1399,492,3595,7651,265,-84,82,-18,-208
2,2795695,-1399,492,3595,7651,265,-84,82,-18,-208
2,2795709,-1393,502,3594,7644,256,-82,82,-18,-208
2,2795721,-1396,494,3590,7638,273,-79,82,-18,-208
2,2795734,-1396,494,3590,7638,273,-79,82,-18,-208
2,2795749,-1403,506,3591,7638,274,-94,82,-18,-208
2,2795764,-1392,497,3599,7645,268,-103,89,-19,-207
2,2795780,-1400,493,3592,7638,270,-90,89,-19,-207
2,2795791,-1400,493,3592,7638,270,-90,89,-19,-207
2,2795805,-1395,499,3591,7642,263,-96,89,-19,-207
2,2795819,-1395,499,3591,7642,263,-96,89,-19,-207
2,2795832,-1398,508,3585,7640,273,-88,89,-19,-207
2,2795846,-1396,506,3593,7640,271,-86,89,-19,-207
2,2795859,-1394,503,3586,7638,267,-84,89,-19,-207
2,2795873,-1394,503,3586,7638,267,-84,89,-19,-207
2,2795885,-1394,503,3586,7638,267,-84,104,-22,-216
2,2795899,-1396,511,3595,7641,272,-91,104,-22,-216
2,2795911,-1396,511,3595,7641,272,-91,104,-22,-216
2,2795926,-1392,505,3593,7634,273,-82,104,-22,-216
2,2795940,-1396,502,3593,7643,270,-92,104,-22,-216
2,2795953,-1396,502,3593,7643,270,-92,104,-22,-216
2,2795967,-1396,500,3586,7640,266,-90,104,-22,-216
2,2795982,-1396,503,3585,7637,269,-89,104,-22,-216
2,2795998,-1396,503,3585,7637,269,-89,104,-22,-216
2,2796010,-1397,500,3593,7639,267,-88,104,-22,-216
2,2796023,-1396,497,3592,7640,269,-88,117,-23,-215
2,2796038,-1396,497,3592,7640,269,-88,117,-23,-215
2,2796051,-1398,494,3590,7635,277,-88,117,-23,-215
2,2796064,-1397,493,3588,7638,271,-87,117,-23,-215
2,2796076,-1397,493,3588,7638,271,-87,117,-23,-215
2,2796090,-1396,500,3590,7632,267,-87,117,-23,-215
2,2796105,-1395,500,3589,7634,269,-88,117,-23,-215
2,2796119,-1398,503,3590,7636,264,-94,117,-23,-215
2,2796132,-1398,503,3590,7636,264,-94,117,-23,-215
2,2796146,-1395,502,3586,7633,263,-87,126,-18,-226
2,2796158,-1395,502,3586,7633,263,-87,126,-18,-226
2,2796172,-1397,510,3591,7635,276,-93,126,-18,-226
2,2796185,-1397,522,3588,7635,266,-83,126,-18,-226
2,2796199,-1398,524,3582,7634,273,-84,126,-18,-226
2,2796214,-1398,524,3582,7634,273,-84,126,-18,-226
2,2796228,-1398,524,3589,7639,277,-84,126,-18,-226
2,2796242,-1400,521,3584,7634,269,-89,126,-18,-226
2,2796258,-1400,521,3584,7634,269,-89,126,-18,-226
2,2796271,-1398,527,3595,7639,279,-93,126,-18,-224
2,2796285,-1402,505,3592,7633,268,-89,126,-18,-224
2,2796300,-1397,506,3590,7630,267,-88,126,-18,-224
2,2796314,-1397,506,3590,7630,267,-88,126,-18,-224
2,2796325,-1395,491,3587,7639,276,-93,126,-18,-224
2,2796339,-1395,491,3587,7639,276,-93,126,-18,-224
2,2796351,-1398,499,3590,7642,272,-92,126,-18,-224
2,2796365,-1395,496,3591,7635,271,-93,126,-18,-224
2,2796379,-1395,496,3591,7635,271,-93,126,-18,-224
2,2796392,-1403,506,3596,7637,267,-96,141,-23,-223
2,2796404,-1395,502,3590,7639,271,-92,141,-23,-223
2,2796419,-1395,502,3590,7639,271,-92,141,-23,-223
2,2796432,-1398,510,3589,7630,274,-89,141,-23,-223
2,2796446,-1398,517,3587,7627,266,-93,141,-23,-223
2,2796454,-1398,517,3587,7627,266,-93,141,-23,-223
2,2796470,-1397,522,3583,7638,266,-89,141,-23,-223
2,2796479,-1397,522,3583,7638,266,-89,141,-23,-223
2,2796492,-1397,507,3587,7644,272,-97,141,-23,-223
2,2796506,-1396,509,3593,7639,280,-85,138,-24,-226
2,2796520,-1399,509,3597,7642,281,-85,138,-24,-226
2,2796533,-1399,509,3597,7642,281,-85,138,-24,-226
2,2796546,-1395,509,3595,7633,275,-88,138,-24,-226
2,2796557,-1395,509,3595,7633,275,-88,138,-24,-226
2,2796571,-1396,507,3596,7641,270,-87,138,-24,-226
2,2796584,-1395,493,3593,7644,269,-97,138,-24,-226
2,2796598,-1395,493,3593,7644,269,-97,138,-24,-226
2,2796610,-1395,504,3594,7638,274,-86,138,-24,-226
2,2796622,-1396,497,3582,7639,271,-85,138,-24,-226
2,2796638,-1396,497,3582,7639,271,-85,138,-24,-226
2,2796654,-1400,500,3590,7639,268,-91,141,-23,-229
2,2796665,-1394,490,3596,7639,268,-94,141,-23,-229
2,2796680,-1397,497,3592,7639,278,-87,141,-23,-229
2,2796695,-1397,497,3592,7639,278,-87,141,-23,-229
2,2796708,-1396,496,3589,7639,269,-92,141,-23,-229
2,2796722,-1397,510,3583,7635,271,-93,141,-23,-229
2,2796736,-1397,510,3583,7635,271,-93,141,-23,-229
2,2796749,-1394,498,3582,7636,274,-87,141,-23,-229
2,2796762,-1398,509,3590,7634,284,-88,145,-13,-213
2,2796776,-1398,509,3590,7634,284,-88,145,-13,-213
2,2796790,-1400,519,3591,7629,271,-80,145,-13,-213
2,2796805,-1398,526,3586,7638,274,-85,145,-13,-213
2,2796819,-1398,526,3586,7638,274,-85,145,-13,-213
2,2796832,-1397,515,3592,7633,266,-92,145,-13,-213
2,2796844,-1396,515,3589,7641,266,-96,145,-13,-213
2,2796857,-1396,515,3589,7641,266,-96,145,-13,-213
2,2796870,-1397,518,3593,7646,269,-81,145,-13,-213
2,2796882,-1399,501,3590,7639,272,-85,153,-17,-213
2,2796898,-1399,501,3590,7639,272,-85,153,-17,-213
2,2796912,-1395,506,3598,7638,271,-90,153,-17,-213
2,2796926,-1396,493,3591,7638,271,-90,153,-17,-213
2,2796940,-1394,497,3589,7642,275,-87,153,-17,-213
2,2796955,-1394,497,3589,7642,275,-87,153,-17,-213
2,2796971,-1393,496,3588,7639,270,-90,153,-17,-213
2,2796986,-1398,499,3586,7639,269,-92,153,-17,-213
2,2796997,-1398,499,3586,7639,269,-92,153,-17,-213
2,2797010,-1393,497,3586,7632,273,-94,156,-2,-224
2,2797024,-1397,504,3580,7638,267,-87,156,-2,-224
2,2797038,-1397,504,3580,7638,267,-87,156,-2,-224
2,2797051,-1398,512,3589,7639,262,-87,156,-2,-224
2,2797066,-1397,511,3587,7635,269,-84,156,-2,-224
2,2797077,-1397,511,3587,7635,269,-84,156,-2,-224
2,2797091,-1395,504,3591,7634,270,-89,156,-2,-224
2,2797105,-1394,504,3588,7639,266,-93,156,-2,-224
2,2797118,-1394,504,3588,7639,266,-93,156,-2,-224
2,2797128,-1395,508,3592,7639,270,-92,163,-1,-211
2,2797137,-1395,508,3592,7639,270,-92,163,-1,-211
2,2797152,-1396,507,3587,7643,269,-90,163,-1,-211
2,2797166,-1395,502,3586,7639,276,-90,163,-1,-211
2,2797181,-1393,503,3586,7634,277,-91,163,-1,-211
2,2797197,-1393,503,3586,7634,277,-91,163,-1,-211
2,2797212,-1396,507,3592,7634,271,-92,163,-1,-211
2,2797227,-1398,493,3584,7631,276,-90,163,-1,-211
2,2797240,-1399,492,3589,7634,275,-91,163,-1,-211
2,2797255,-1399,492,3589,7634,275,-91,163,-1,-211
2,2797267,-1396,494,3588,7634,272,-91,164,-12,-206
2,2797280,-1397,503,3587,7635,277,-93,164,-12,-206
2,2797293,-1397,503,3587,7635,277,-93,164,-12,-206
2,2797306,-1397,506,3580,7633,264,-89,164,-12,-206
2,2797321,-1397,510,3582,7632,268,-84,164,-12,-206
2,2797334,-1397,510,3582,7632,268,-84,164,-12,-206
2,2797346,-1395,506,3585,7635,267,-86,164,-12,-206
2,2797360,-1395,506,3585,7635,267,-86,164,-12,-206
2,2797373,-1397,535,3580,7643,268,-87,164,-12,-206
2,2797387,-1397,524,3591,7632,278,-81,169,-15,-207
2,2797402,-1398,530,3587,7637,267,-87,169,-15,-207
2,2797417,-1398,530,3587,7637,267,-87,169,-15,-207
2,2797431,-1399,517,3594,7637,266,-87,169,-15,-207
2,2797447,-1397,530,3588,7640,274,-88,169,-15,-207
2,2797461,-1402,519,3594,7641,277,-91,169,-15,-207
2,2797474,-1402,519,3594,7641,277,-91,169,-15,-207
