imu,time,ax,ay,az,gx,gy,gz,mx,my,mz
1,2121231,2467,823,-531,-1473,-309,-36,252,222,-186
1,2121239,2467,823,-531,-1473,-309,-36,252,222,-186
1,2121247,2467,823,-531,-1473,-309,-36,252,222,-186
1,2121256,2467,823,-531,-1473,-309,-36,252,222,-186
1,2121264,2466,824,-527,-1482,-305,-38,253,223,-189
1,2121272,2466,824,-527,-1482,-305,-38,253,223,-189
1,2121286,2468,825,-531,-1481,-303,-40,253,223,-189
1,2121300,2472,825,-529,-1476,-301,-42,253,223,-189
1,2121315,2472,825,-529,-1476,-301,-42,253,223,-189
1,2121329,2468,827,-528,-1476,-299,-39,253,223,-189
1,2121345,2464,825,-532,-1479,-306,-34,253,223,-189
1,2121360,2467,822,-529,-1482,-309,-36,253,223,-189
1,2121371,2467,822,-529,-1482,-309,-36,253,223,-189
1,2121385,2466,825,-529,-1485,-308,-45,253,223,-189
1,2121401,2463,825,-528,-1481,-305,-44,253,223,-189
1,2121408,2463,825,-528,-1481,-305,-44,253,223,-189
1,2121420,2466,827,-530,-1486,-309,-37,253,223,-189
1,2121436,2466,827,-530,-1486,-309,-37,253,223,-189
1,2121449,2465,827,-524,-1478,-301,-36,253,223,-189
1,2121462,2466,825,-527,-1472,-306,-38,253,223,-189
1,2121479,2465,827,-535,-1481,-305,-35,253,223,-189
1,2121493,2465,827,-535,-1481,-305,-35,253,223,-189
1,2121508,2465,828,-531,-1489,-305,-38,253,223,-189
1,2121525,2467,827,-524,-1482,-304,-36,254,216,-182
1,2121539,2465,826,-529,-1483,-308,-37,254,216,-182
1,2121553,2465,826,-529,-1483,-308,-37,254,216,-182
1,2121568,2464,824,-534,-1482,-307,-38,254,216,-182
1,2121582,2461,827,-526,-1486,-309,-40,254,216,-182
1,2121593,2461,827,-526,-1486,-309,-40,254,216,-182
1,2121608,2466,821,-525,-1478,-303,-40,254,216,-182
1,2121626,2468,823,-532,-1478,-301,-38,254,216,-182
1,2121639,2468,826,-521,-1481,-302,-42,249,213,-187
1,2121654,2468,826,-521,-1481,-302,-42,249,213,-187
1,2121668,2465,827,-525,-1484,-303,-37,249,213,-187
1,2121682,2463,829,-525,-1478,-303,-37,249,213,-187
1,2121698,2466,830,-526,-1481,-302,-39,249,213,-187
1,2121713,2466,830,-526,-1481,-302,-39,249,213,-187
1,2121726,2466,826,-530,-1475,-302,-39,249,213,-187
1,2121735,2466,826,-530,-1475,-302,-39,249,213,-187
1,2121743,2465,826,-534,-1482,-303,-40,249,213,-187
1,2121751,2465,826,-534,-1482,-303,-40,249,213,-187
1,2121759,2465,822,-527,-1475,-306,-39,251,215,-185
1,2121767,2465,822,-527,-1475,-306,-39,251,215,-185
1,2121776,2465,822,-527,-1475,-306,-39,251,215,-185
1,2121783,2466,824,-528,-1478,-305,-36,251,215,-185
1,2121791,2466,824,-528,-1478,-305,-36,251,215,-185
1,2121799,2464,823,-527,-1477,-304,-35,251,215,-185
1,2121807,2464,823,-527,-1477,-304,-35,251,215,-185
1,2121815,2464,823,-527,-1477,-304,-35,251,215,-185
1,2121821,2465,828,-526,-1477,-305,-38,251,215,-185
1,2121827,2465,828,-526,-1477,-305,-38,251,215,-185
1,2121832,2465,828,-526,-1477,-305,-38,251,215,-185
1,2121838,2469,827,-527,-1477,-307,-45,251,215,-185
1,2121844,2469,827,-527,-1477,-307,-45,251,215,-185
1,2121850,2469,827,-527,-1477,-307,-45,251,215,-185
1,2121857,2469,827,-527,-1477,-307,-45,251,215,-185
1,2121862,2466,827,-529,-1472,-310,-45,251,215,-185
1,2121868,2466,827,-529,-1472,-310,-45,251,215,-185
1,2121874,2466,827,-529,-1472,-310,-45,251,215,-185
1,2121880,2469,827,-526,-1481,-302,-40,252,224,-188
1,2121885,2469,827,-526,-1481,-302,-40,252,224,-188
1,2121891,2469,827,-526,-1481,-302,-40,252,224,-188
1,2121897,2465,828,-527,-1484,-304,-37,252,224,-188
1,2121904,2465,828,-527,-1484,-304,-37,252,224,-188
1,2121911,2465,828,-527,-1484,-304,-37,252,224,-188
1,2121918,2465,829,-528,-1477,-308,-41,252,224,-188
1,2121927,2465,829,-528,-1477,-308,-41,252,224,-188
1,2121935,2465,829,-528,-1477,-308,-41,252,224,-188
1,2121945,2466,825,-525,-1480,-307,-39,252,224,-188
1,2121953,2466,825,-525,-1480,-307,-39,252,224,-188
1,2121961,2467,822,-529,-1477,-305,-41,252,224,-188
1,2121973,2467,822,-529,-1477,-305,-41,252,224,-188
1,2121988,2465,824,-529,-1479,-305,-41,252,224,-188
1,2122002,2465,823,-527,-1485,-303,-40,252,224,-188
1,2122016,2465,823,-527,-1485,-303,-40,252,224,-188
1,2122027,2466,824,-529,-1485,-301,-36,257,221,-185
1,2122040,2470,823,-527,-1480,-304,-44,257,221,-185
1,2122055,2470,823,-527,-1480,-304,-44,257,221,-185
1,2122070,2467,822,-526,-1475,-306,-34,257,221,-185
1,2122082,2466,827,-530,-1479,-305,-42,257,221,-185
1,2122091,2466,827,-530,-1479,-305,-42,257,221,-185
1,2122105,2468,827,-532,-1483,-296,-40,257,221,-185
1,2122121,2465,827,-528,-1481,-302,-38,257,221,-185
1,2122130,2465,827,-528,-1481,-302,-38,257,221,-185
1,2122138,2464,826,-524,-1477,-298,-36,249,215,-179
1,2122148,2464,826,-524,-1477,-298,-36,249,215,-179
1,2122158,2464,827,-527,-1481,-305,-38,249,215,-179
1,2122166,2464,827,-527,-1481,-305,-38,249,215,-179
1,2122178,2468,819,-533,-1483,-306,-37,249,215,-179
1,2122192,2468,819,-533,-1483,-306,-37,249,215,-179
1,2122207,2465,823,-531,-1483,-304,-42,249,215,-179
1,2122220,2466,822,-528,-1481,-299,-36,249,215,-179
1,2122235,2466,822,-528,-1481,-299,-36,249,215,-179
1,2122250,2464,822,-526,-1484,-307,-39,249,215,-179
1,2122258,2468,826,-527,-1478,-296,-38,246,222,-188
1,2122271,2468,826,-527,-1478,-296,-38,246,222,-188
1,2122285,2466,825,-527,-1480,-305,-38,246,222,-188
1,2122300,2465,831,-529,-1484,-302,-39,246,222,-188
1,2122316,2465,831,-529,-1484,-302,-39,246,222,-188
1,2122332,2468,826,-530,-1481,-300,-44,246,222,-188
1,2122347,2469,826,-531,-1483,-298,-39,246,222,-188
1,2122361,2467,827,-528,-1479,-305,-36,246,222,-188
1,2122376,2467,827,-528,-1479,-305,-36,246,222,-188
1,2122390,2466,826,-530,-1481,-310,-45,254,220,-182
1,2122404,2467,827,-527,-1482,-308,-40,254,220,-182
1,2122419,2467,827,-527,-1482,-308,-40,254,220,-182
1,2122428,2467,827,-527,-1482,-308,-40,254,220,-182
1,2122440,2465,824,-529,-1482,-304,-39,254,220,-182
1,2122454,2465,824,-529,-1482,-304,-39,254,220,-182
1,2122469,2466,821,-526,-1481,-300,-32,254,220,-182
1,2122482,2466,826,-535,-1482,-304,-39,254,220,-182
1,2122493,2466,826,-535,-1482,-304,-39,254,220,-182
1,2122509,2466,828,-528,-1478,-307,-38,254,220,-182
1,2122523,2464,829,-528,-1483,-312,-38,252,218,-190
1,2122539,2461,824,-527,-1487,-303,-37,252,218,-190
1,2122551,2461,824,-527,-1487,-303,-37,252,218,-190
1,2122565,2465,826,-531,-1483,-305,-34,252,218,-190
1,2122580,2468,822,-527,-1482,-303,-38,252,218,-190
1,2122595,2468,822,-527,-1482,-303,-38,252,218,-190
1,2122609,2466,824,-528,-1484,-306,-43,252,218,-190
1,2122624,2464,822,-531,-1482,-303,-43,252,218,-190
1,2122638,2466,824,-530,-1484,-306,-45,252,218,-190
1,2122651,2466,824,-530,-1484,-306,-45,258,222,-186
1,2122663,2467,824,-528,-1478,-302,-44,258,222,-186
1,2122677,2467,824,-528,-1478,-302,-44,258,222,-186
1,2122690,2468,828,-526,-1476,-306,-40,258,222,-186
1,2122705,2467,832,-526,-1476,-304,-40,258,222,-186
1,2122720,2469,829,-531,-1477,-306,-39,258,222,-186
1,2122733,2469,829,-531,-1477,-306,-39,258,222,-186
1,2122746,2466,827,-531,-1480,-304,-36,258,222,-186
1,2122761,2465,825,-527,-1479,-297,-37,254,224,-194
1,2122776,2465,825,-527,-1479,-297,-37,254,224,-194
1,2122791,2466,822,-524,-1485,-305,-40,254,224,-194
1,2122806,2467,823,-528,-1481,-305,-32,254,224,-194
1,2122817,2462,823,-525,-1485,-301,-36,254,224,-194
1,2122832,2462,823,-525,-1485,-301,-36,254,224,-194
1,2122848,2464,825,-530,-1481,-303,-44,254,224,-194
1,2122862,2467,828,-527,-1477,-296,-40,254,224,-194
1,2122876,2467,828,-527,-1477,-296,-40,254,224,-194
1,2122890,2467,833,-526,-1482,-300,-42,255,217,-191
1,2122904,2467,830,-530,-1482,-308,-42,255,217,-191
1,2122917,2467,830,-530,-1482,-308,-42,255,217,-191
1,2122929,2468,827,-527,-1475,-304,-46,255,217,-191
1,2122943,2467,823,-530,-1479,-301,-46,255,217,-191
1,2122957,2467,823,-530,-1479,-301,-46,255,217,-191
1,2122972,2467,824,-525,-1480,-307,-39,255,217,-191
1,2122987,2468,826,-532,-1476,-305,-38,255,217,-191
1,2123002,2465,827,-533,-1485,-299,-42,255,217,-191
1,2123018,2465,827,-533,-1485,-299,-42,255,217,-191
1,2123031,2463,824,-519,-1489,-306,-40,254,228,-184
1,2123045,2467,829,-528,-1482,-311,-40,254,228,-184
1,2123061,2467,829,-528,-1482,-311,-40,254,228,-184
1,2123076,2467,829,-528,-1482,-311,-40,254,228,-184
1,2123088,2465,826,-530,-1482,-305,-46,254,228,-184
1,2123101,2466,829,-528,-1489,-304,-40,254,228,-184
1,2123115,2466,829,-528,-1489,-304,-40,254,228,-184
1,2123129,2465,826,-526,-1478,-307,-37,254,228,-184
1,2123144,2469,825,-529,-1474,-309,-35,248,214,-184
1,2123158,2465,828,-522,-1479,-306,-40,248,214,-184
1,2123172,2465,828,-522,-1479,-306,-40,248,214,-184
1,2123185,2464,823,-528,-1475,-300,-42,248,214,-184
1,2123197,2464,823,-528,-1475,-300,-42,248,214,-184
1,2123210,2469,822,-528,-1478,-302,-41,248,214,-184
1,2123226,2467,823,-531,-1476,-310,-40,248,214,-184
1,2123240,2467,823,-530,-1488,-299,-44,248,214,-184
1,2123256,2467,823,-530,-1488,-299,-44,248,214,-184
1,2123272,2468,823,-528,-1480,-305,-34,255,217,-189
1,2123287,2466,827,-527,-1476,-304,-32,255,217,-189
1,2123302,2465,829,-526,-1488,-310,-36,255,217,-189
1,2123317,2465,829,-526,-1488,-310,-36,255,217,-189
1,2123330,2464,828,-529,-1489,-309,-45,255,217,-189
1,2123344,2464,828,-529,-1489,-309,-45,255,217,-189
1,2123360,2468,822,-535,-1485,-303,-32,255,217,-189
1,2123373,2468,822,-535,-1485,-303,-32,255,217,-189
1,2123385,2467,820,-528,-1477,-307,-34,256,206,-192
1,2123401,2466,820,-528,-1484,-302,-40,256,206,-192
1,2123414,2466,820,-528,-1484,-302,-40,256,206,-192
1,2123428,2466,822,-528,-1480,-301,-38,256,206,-192
1,2123443,2467,825,-530,-1479,-301,-39,256,206,-192
1,2123457,2467,825,-530,-1479,-301,-39,256,206,-192
1,2123468,2467,828,-528,-1483,-306,-39,256,206,-192
1,2123481,2468,828,-529,-1478,-308,-41,256,206,-192
1,2123496,2468,828,-529,-1478,-308,-41,256,206,-192
1,2123509,2465,826,-534,-1476,-310,-39,257,223,-183
1,2123524,2464,824,-530,-1479,-303,-40,257,223,-183
1,2123534,2464,824,-530,-1479,-303,-40,257,223,-183
1,2123547,2468,825,-530,-1478,-305,-32,257,223,-183
1,2123563,2465,826,-531,-1479,-306,-40,257,223,-183
1,2123579,2467,820,-530,-1476,-295,-34,257,223,-183
1,2123594,2467,820,-530,-1476,-295,-34,257,223,-183
1,2123607,2466,822,-534,-1479,-300,-37,257,223,-183
1,2123619,2464,824,-526,-1477,-308,-39,257,223,-183
1,2123634,2464,824,-526,-1477,-308,-39,257,223,-183
1,2123649,2467,825,-527,-1476,-311,-35,256,206,-194
1,2123663,2466,823,-523,-1480,-305,-41,256,206,-194
1,2123677,2466,823,-523,-1480,-305,-41,256,206,-194
1,2123692,2468,826,-529,-1480,-301,-45,256,206,-194
1,2123704,2471,827,-536,-1473,-309,-42,256,206,-194
1,2123715,2471,827,-536,-1473,-309,-42,256,206,-194
1,2123730,2463,825,-533,-1476,-298,-40,256,206,-194
1,2123743,2467,825,-528,-1482,-303,-38,256,206,-194
1,2123757,2467,825,-528,-1482,-303,-38,256,206,-194
1,2123772,2467,825,-528,-1484,-311,-44,251,215,-195
1,2123788,2467,819,-530,-1486,-305,-46,251,215,-195
1,2123803,2466,822,-525,-1485,-303,-39,251,215,-195
1,2123817,2466,822,-525,-1485,-303,-39,251,215,-195
1,2123830,2464,822,-524,-1482,-306,-37,251,215,-195
1,2123845,2466,827,-530,-1486,-304,-38,251,215,-195
1,2123857,2466,827,-530,-1486,-304,-38,251,215,-195
1,2123871,2467,827,-533,-1479,-299,-33,251,215,-195
1,2123880,2464,828,-528,-1481,-304,-35,248,220,-192
1,2123890,2464,828,-528,-1481,-304,-35,248,220,-192
1,2123901,2466,826,-527,-1475,-297,-35,248,220,-192
1,2123916,2466,826,-527,-1475,-297,-35,248,220,-192
1,2123930,2465,827,-534,-1478,-302,-42,248,220,-192
1,2123944,2466,826,-528,-1476,-305,-44,248,220,-192
1,2123960,2466,821,-532,-1481,-309,-38,248,220,-192
1,2123975,2466,821,-532,-1481,-309,-38,248,220,-192
1,2123991,2465,823,-530,-1478,-299,-37,248,220,-192
1,2124006,2466,822,-528,-1485,-304,-40,252,214,-182
1,2124021,2462,827,-524,-1484,-307,-39,252,214,-182
1,2124037,2462,827,-524,-1484,-307,-39,252,214,-182
1,2124050,2464,829,-528,-1485,-300,-49,252,214,-182
1,2124064,2465,829,-529,-1481,-301,-40,252,214,-182
1,2124079,2467,829,-524,-1482,-306,-40,252,214,-182
1,2124091,2467,829,-524,-1482,-306,-40,252,214,-182
1,2124107,2464,822,-527,-1483,-304,-42,252,214,-182
1,2124120,2467,823,-531,-1476,-300,-36,252,214,-182
1,2124134,2467,823,-531,-1476,-300,-36,252,214,-182
1,2124146,2466,827,-528,-1479,-305,-41,246,218,-184
1,2124161,2468,827,-525,-1485,-306,-45,246,218,-184
1,2124177,2468,827,-525,-1485,-306,-45,246,218,-184
1,2124191,2465,822,-527,-1486,-302,-37,246,218,-184
1,2124206,2465,827,-529,-1478,-307,-38,246,218,-184
1,2124219,2467,825,-532,-1480,-302,-36,246,218,-184
1,2124234,2467,825,-532,-1480,-302,-36,246,218,-184
1,2124251,2467,826,-530,-1483,-300,-36,246,218,-184
1,2124266,2466,825,-525,-1481,-305,-39,244,212,-188
1,2124282,2467,827,-526,-1482,-308,-43,244,212,-188
1,2124298,2467,827,-526,-1482,-308,-43,244,212,-188
1,2124311,2466,825,-528,-1486,-306,-43,244,212,-188
1,2124322,2466,825,-533,-1483,-313,-36,244,212,-188
1,2124337,2466,825,-533,-1483,-313,-36,244,212,-188
1,2124351,2469,829,-535,-1483,-309,-45,244,212,-188
1,2124365,2465,829,-532,-1479,-307,-44,244,212,-188
1,2124380,2464,824,-530,-1482,-304,-41,254,216,-182
1,2124394,2464,824,-530,-1482,-304,-41,254,216,-182
1,2124406,2466,822,-526,-1482,-311,-46,254,216,-182
1,2124420,2467,825,-530,-1475,-302,-39,254,216,-182
1,2124435,2467,825,-530,-1475,-302,-39,254,216,-182
1,2124450,2470,825,-527,-1480,-305,-38,254,216,-182
1,2124465,2467,827,-529,-1487,-299,-37,254,216,-182
1,2124479,2467,831,-531,-1484,-301,-43,254,216,-182
1,2124494,2467,831,-531,-1484,-301,-43,254,216,-182
1,2124510,2465,829,-530,-1479,-310,-39,251,217,-189
1,2124526,2467,829,-528,-1485,-311,-35,251,217,-189
1,2124541,2467,830,-526,-1480,-308,-37,251,217,-189
1,2124556,2467,830,-526,-1480,-308,-37,251,217,-189
1,2124570,2466,825,-527,-1484,-304,-37,251,217,-189
1,2124584,2469,822,-521,-1481,-302,-40,251,217,-189
1,2124599,2468,820,-530,-1478,-310,-39,251,217,-189
1,2124614,2468,820,-530,-1478,-310,-39,251,217,-189
1,2124626,2466,824,-530,-1476,-310,-35,251,217,-189
1,2124638,2466,824,-530,-1476,-310,-35,251,217,-189
1,2124653,2465,827,-525,-1475,-301,-36,258,216,-184
1,2124667,2466,829,-530,-1487,-304,-36,258,216,-184
1,2124681,2464,832,-529,-1481,-305,-41,258,216,-184
1,2124696,2464,832,-529,-1481,-305,-41,258,216,-184
1,2124711,2465,825,-530,-1480,-301,-42,258,216,-184
1,2124728,2467,825,-533,-1487,-304,-43,258,216,-184
1,2124743,2464,825,-526,-1474,-301,-44,258,216,-184
1,2124760,2466,828,-528,-1478,-301,-34,250,222,-186
1,2124775,2466,828,-528,-1478,-301,-34,250,222,-186
1,2124788,2468,830,-529,-1482,-297,-31,250,222,-186
1,2124803,2467,826,-527,-1482,-305,-40,250,222,-186
1,2124818,2467,826,-527,-1482,-305,-40,250,222,-186
1,2124832,2466,822,-530,-1478,-305,-36,250,222,-186
1,2124846,2466,823,-527,-1474,-304,-35,250,222,-186
1,2124858,2466,823,-527,-1474,-304,-35,250,222,-186
1,2124871,2467,827,-530,-1484,-301,-42,250,222,-186
1,2124886,2468,828,-520,-1472,-298,-40,256,216,-184
1,2124898,2467,827,-523,-1482,-307,-40,256,216,-184
1,2124914,2467,827,-523,-1482,-307,-40,256,216,-184
1,2124930,2467,827,-527,-1479,-306,-38,256,216,-184
1,2124945,2465,828,-525,-1481,-304,-49,256,216,-184
1,2124959,2466,824,-533,-1485,-311,-39,256,216,-184
1,2124973,2466,824,-533,-1485,-311,-39,256,216,-184
1,2124988,2465,821,-535,-1483,-303,-41,256,216,-184
1,2125003,2463,823,-527,-1484,-299,-33,250,220,-190
1,2125019,2466,818,-526,-1483,-304,-42,250,220,-190
1,2125031,2466,818,-526,-1483,-304,-42,250,220,-190
1,2125042,2467,822,-528,-1476,-306,-39,250,220,-190
1,2125058,2467,822,-528,-1476,-306,-39,250,220,-190
1,2125072,2466,825,-530,-1480,-302,-34,250,220,-190
1,2125086,2467,829,-528,-1482,-301,-35,250,220,-190
1,2125101,2467,827,-528,-1477,-305,-44,250,220,-190
1,2125116,2467,827,-528,-1477,-305,-44,250,220,-190
1,2125129,2468,824,-530,-1473,-309,-40,254,218,-198
1,2125144,2467,827,-523,-1480,-307,-36,254,218,-198
1,2125157,2467,827,-523,-1480,-307,-36,254,218,-198
1,2125166,2464,825,-526,-1483,-298,-44,254,218,-198
1,2125181,2466,825,-528,-1482,-305,-41,254,218,-198
1,2125198,2466,825,-528,-1482,-305,-41,254,218,-198
1,2125212,2463,825,-529,-1481,-303,-36,254,218,-198
1,2125227,2465,826,-528,-1476,-310,-45,254,218,-198
1,2125241,2467,827,-527,-1486,-301,-39,254,218,-198
1,2125255,2467,827,-527,-1486,-301,-39,254,218,-198
1,2125270,2466,827,-521,-1484,-303,-35,258,222,-184
1,2125284,2468,829,-528,-1475,-303,-42,258,222,-184
1,2125299,2466,828,-531,-1479,-300,-37,258,222,-184
1,2125313,2466,828,-531,-1479,-300,-37,258,222,-184
1,2125325,2467,824,-531,-1486,-301,-35,258,222,-184
1,2125339,2465,825,-526,-1476,-297,-35,258,222,-184
1,2125350,2465,825,-526,-1476,-297,-35,258,222,-184
1,2125362,2464,821,-529,-1477,-304,-33,258,222,-184
1,2125376,2464,821,-529,-1477,-304,-33,258,222,-184
1,2125387,2463,823,-523,-1482,-306,-39,253,219,-187
1,2125402,2468,824,-526,-1484,-306,-36,253,219,-187
1,2125417,2468,824,-526,-1484,-306,-36,253,219,-187
1,2125431,2467,822,-528,-1485,-307,-32,253,219,-187
1,2125447,2469,824,-528,-1479,-303,-39,253,219,-187
1,2125461,2465,828,-524,-1476,-304,-40,253,219,-187
1,2125475,2465,828,-524,-1476,-304,-40,253,219,-187
1,2125490,2466,827,-524,-1484,-306,-36,253,219,-187
1,2125504,2467,828,-525,-1484,-302,-38,255,217,-187
1,2125516,2467,828,-525,-1484,-302,-38,255,217,-187
1,2125529,2465,826,-527,-1484,-303,-40,255,217,-187
1,2125543,2467,824,-526,-1478,-303,-30,255,217,-187
1,2125557,2467,824,-526,-1478,-303,-30,255,217,-187
1,2125572,2465,824,-530,-1475,-303,-36,255,217,-187
1,2125586,2467,825,-527,-1483,-310,-36,255,217,-187
1,2125599,2465,827,-525,-1482,-312,-40,255,217,-187
1,2125613,2465,827,-525,-1482,-312,-40,255,217,-187
1,2125626,2467,827,-529,-1481,-309,-40,251,217,-187
1,2125641,2468,823,-526,-1479,-304,-38,251,217,-187
1,2125652,2468,823,-526,-1479,-304,-38,251,217,-187
1,2125664,2467,826,-534,-1481,-302,-41,251,217,-187
1,2125679,2470,831,-525,-1479,-304,-36,251,217,-187
1,2125693,2470,831,-525,-1479,-304,-36,251,217,-187
1,2125709,2464,832,-527,-1484,-303,-34,251,217,-187
1,2125723,2466,828,-528,-1478,-305,-38,251,217,-187
1,2125739,2466,828,-528,-1478,-305,-38,251,217,-187
1,2125750,2465,827,-531,-1484,-307,-37,251,217,-187
1,2125762,2466,823,-525,-1479,-307,-42,251,217,-191
1,2125776,2466,823,-525,-1479,-307,-42,251,217,-191
1,2125791,2466,825,-532,-1479,-306,-39,251,217,-191
1,2125805,2468,827,-525,-1484,-302,-49,251,217,-191
1,2125817,2468,827,-525,-1484,-302,-49,251,217,-191
1,2125830,2465,825,-525,-1476,-306,-37,251,217,-191
1,2125843,2465,825,-525,-1476,-306,-37,251,217,-191
1,2125857,2465,825,-525,-1476,-306,-37,251,217,-191
1,2125872,2469,829,-529,-1485,-303,-29,251,217,-191
1,2125886,2470,831,-526,-1484,-303,-38,243,215,-183
1,2125901,2466,828,-528,-1485,-300,-47,243,215,-183
1,2125917,2466,828,-528,-1485,-300,-47,243,215,-183
1,2125932,2466,828,-528,-1485,-300,-47,243,215,-183
1,2125947,2463,825,-531,-1486,-306,-40,243,215,-183
1,2125961,2466,821,-531,-1489,-297,-39,243,215,-183
1,2125976,2466,821,-531,-1489,-297,-39,243,215,-183
1,2125990,2464,825,-530,-1487,-307,-41,243,215,-183
1,2126002,2464,828,-527,-1477,-301,-40,257,223,-191
1,2126015,2464,828,-527,-1477,-301,-40,257,223,-191
1,2126030,2464,825,-521,-1485,-301,-34,257,223,-191
1,2126044,2466,824,-523,-1487,-298,-40,257,223,-191
1,2126059,2466,828,-528,-1482,-299,-40,257,223,-191
1,2126073,2466,828,-528,-1482,-299,-40,257,223,-191
1,2126089,2468,827,-524,-1481,-300,-39,257,223,-191
1,2126100,2467,827,-534,-1479,-309,-33,257,223,-191
1,2126112,2467,827,-534,-1479,-309,-33,257,223,-191
1,2126128,2471,827,-532,-1480,-303,-33,253,219,-193
1,2126143,2471,827,-532,-1480,-303,-33,253,219,-193
1,2126157,2471,827,-532,-1480,-303,-33,253,219,-193
1,2126171,2467,823,-524,-1486,-300,-44,253,219,-193
1,2126186,2465,822,-528,-1487,-311,-42,253,219,-193
1,2126201,2464,825,-530,-1478,-302,-37,253,219,-193
1,2126217,2464,825,-530,-1478,-302,-37,253,219,-193
1,2126231,2466,826,-534,-1481,-300,-37,253,219,-193
1,2126245,2469,823,-529,-1480,-298,-40,253,219,-193
1,2126260,2468,826,-523,-1483,-304,-36,262,210,-190
1,2126274,2468,826,-523,-1483,-304,-36,262,210,-190
1,2126287,2466,831,-534,-1479,-306,-40,262,210,-190
1,2126302,2469,826,-526,-1486,-312,-36,262,210,-190
1,2126317,2469,826,-526,-1486,-312,-36,262,210,-190
1,2126330,2466,828,-529,-1484,-307,-45,262,210,-190
1,2126345,2466,825,-530,-1484,-304,-38,262,210,-190
1,2126359,2466,825,-530,-1484,-304,-38,262,210,-190
1,2126373,2466,825,-530,-1484,-304,-38,262,210,-190
1,2126388,2463,825,-528,-1481,-302,-39,253,215,-183
1,2126400,2464,830,-529,-1483,-306,-43,253,215,-183
1,2126410,2464,830,-529,-1483,-306,-43,253,215,-183
1,2126417,2464,830,-529,-1483,-306,-43,253,215,-183
1,2126428,2467,828,-519,-1476,-301,-52,253,215,-183
1,2126442,2468,827,-532,-1480,-310,-44,253,215,-183
1,2126453,2468,827,-532,-1480,-310,-44,253,215,-183
1,2126469,2467,826,-531,-1481,-300,-44,253,215,-183
1,2126484,2465,826,-530,-1480,-304,-37,253,215,-183
1,2126498,2465,826,-530,-1480,-304,-37,253,215,-183
1,2126513,2467,830,-530,-1486,-307,-39,249,215,-185
1,2126528,2466,827,-523,-1477,-312,-36,249,215,-185
1,2126538,2466,827,-523,-1477,-312,-36,249,215,-185
1,2126545,2467,826,-525,-1478,-306,-35,249,215,-185
1,2126555,2467,826,-525,-1478,-306,-35,249,215,-185
1,2126562,2465,822,-525,-1485,-307,-34,249,215,-185
1,2126570,2465,822,-525,-1485,-307,-34,249,215,-185
1,2126578,2465,822,-525,-1485,-307,-34,249,215,-185
1,2126586,2468,824,-531,-1485,-303,-37,249,215,-185
1,2126595,2468,824,-531,-1485,-303,-37,249,215,-185
1,2126603,2465,828,-529,-1482,-306,-40,249,215,-185
1,2126611,2465,828,-529,-1482,-306,-40,249,215,-185
1,2126617,2465,828,-529,-1482,-306,-40,249,215,-185
1,2126623,2465,824,-526,-1480,-307,-38,252,218,-180
1,2126629,2465,824,-526,-1480,-307,-38,252,218,-180
1,2126636,2465,824,-526,-1480,-307,-38,252,218,-180
1,2126642,2465,828,-527,-1484,-307,-38,252,218,-180
1,2126647,2465,828,-527,-1484,-307,-38,252,218,-180
1,2126652,2465,828,-527,-1484,-307,-38,252,218,-180
1,2126657,2465,828,-527,-1484,-307,-38,252,218,-180
1,2126661,2469,830,-527,-1481,-305,-32,252,218,-180
1,2126666,2469,830,-527,-1481,-305,-32,252,218,-180
1,2126671,2469,830,-527,-1481,-305,-32,252,218,-180
1,2126676,2469,830,-527,-1481,-305,-32,252,218,-180
1,2126682,2469,829,-529,-1478,-305,-37,252,218,-180
1,2126687,2469,829,-529,-1478,-305,-37,252,218,-180
1,2126692,2469,829,-529,-1478,-305,-37,252,218,-180
1,2126698,2469,829,-529,-1478,-305,-37,252,218,-180
1,2126704,2470,826,-533,-1472,-304,-35,252,218,-180
1,2126712,2470,826,-533,-1472,-304,-35,252,218,-180
1,2126717,2470,826,-533,-1472,-304,-35,252,218,-180
1,2126723,2469,826,-531,-1478,-302,-37,252,218,-180
1,2126729,2469,826,-531,-1478,-302,-37,252,218,-180
1,2126736,2469,826,-531,-1478,-302,-37,252,218,-180
1,2126748,2467,829,-533,-1483,-311,-36,252,218,-180
1,2126763,2466,823,-526,-1491,-305,-39,249,223,-183
1,2126773,2466,823,-526,-1491,-305,-39,249,223,-183
1,2126787,2463,824,-530,-1482,-300,-42,249,223,-183
1,2126799,2466,826,-531,-1484,-309,-41,249,223,-183
1,2126813,2466,826,-531,-1484,-309,-41,249,223,-183
1,2126824,2468,825,-527,-1487,-296,-39,249,223,-183
1,2126835,2468,825,-527,-1487,-296,-39,249,223,-183
1,2126849,2464,828,-534,-1485,-304,-41,249,223,-183
1,2126861,2465,827,-532,-1483,-304,-38,249,223,-183
1,2126874,2465,827,-532,-1483,-304,-38,249,223,-183
1,2126886,2468,829,-527,-1482,-306,-35,254,222,-196
1,2126899,2468,829,-527,-1482,-306,-35,254,222,-196
1,2126912,2467,827,-529,-1484,-309,-39,254,222,-196
1,2126925,2468,830,-528,-1482,-306,-38,254,222,-196
1,2126939,2467,826,-528,-1477,-306,-39,254,222,-196
1,2126953,2467,826,-528,-1477,-306,-39,254,222,-196
1,2126965,2466,822,-528,-1484,-306,-45,254,222,-196
1,2126980,2465,822,-533,-1479,-307,-48,254,222,-196
1,2126991,2465,822,-533,-1479,-307,-48,254,222,-196
1,2127004,2467,826,-526,-1485,-300,-37,250,214,-192
1,2127020,2468,825,-528,-1493,-298,-36,250,214,-192
1,2127033,2468,825,-528,-1493,-298,-36,250,214,-192
1,2127047,2468,828,-524,-1484,-300,-41,250,214,-192
1,2127062,2466,826,-524,-1483,-303,-43,250,214,-192
1,2127077,2466,826,-524,-1483,-303,-43,250,214,-192
1,2127089,2466,827,-528,-1478,-304,-40,250,214,-192
1,2127101,2466,828,-528,-1481,-307,-36,250,214,-192
1,2127115,2466,828,-528,-1481,-307,-36,250,214,-192
1,2127126,2467,829,-530,-1481,-304,-41,254,222,-186
1,2127138,2467,829,-530,-1481,-304,-41,254,222,-186
1,2127152,2468,829,-528,-1480,-306,-34,254,222,-186
1,2127167,2466,825,-535,-1478,-300,-34,254,222,-186
1,2127182,2468,821,-529,-1477,-296,-42,254,222,-186
1,2127199,2468,821,-529,-1477,-296,-42,254,222,-186
1,2127214,2468,824,-533,-1481,-299,-42,254,222,-186
1,2127229,2463,825,-530,-1484,-304,-35,254,222,-186
1,2127241,2467,824,-528,-1483,-299,-39,248,218,-192
1,2127254,2467,824,-528,-1483,-299,-39,248,218,-192
1,2127268,2467,827,-527,-1476,-299,-40,248,218,-192
1,2127283,2467,829,-532,-1477,-306,-41,248,218,-192
1,2127296,2467,829,-532,-1477,-306,-41,248,218,-192
1,2127310,2467,829,-528,-1481,-310,-37,248,218,-192
1,2127323,2468,833,-527,-1485,-303,-39,248,218,-192
1,2127335,2468,833,-527,-1485,-303,-39,248,218,-192
1,2127351,2465,828,-528,-1479,-298,-37,248,218,-192
1,2127367,2465,828,-528,-1479,-298,-37,248,218,-192
1,2127382,2464,821,-530,-1481,-302,-38,255,221,-187
1,2127397,2464,821,-530,-1481,-302,-38,255,221,-187
1,2127409,2463,821,-531,-1472,-297,-43,255,221,-187
1,2127419,2463,821,-531,-1472,-297,-43,255,221,-187
1,2127433,2467,823,-527,-1473,-299,-39,255,221,-187
1,2127443,2466,830,-529,-1472,-307,-40,255,221,-187
1,2127457,2466,830,-529,-1472,-307,-40,255,221,-187
1,2127471,2469,828,-529,-1474,-308,-34,255,221,-187
1,2127485,2468,825,-531,-1488,-311,-41,255,221,-187
1,2127499,2467,828,-528,-1489,-304,-42,255,221,-187
1,2127513,2467,828,-528,-1489,-304,-42,254,222,-190
1,2127527,2467,827,-527,-1485,-302,-33,254,222,-190
1,2127541,2467,825,-524,-1486,-300,-30,254,222,-190
1,2127553,2467,825,-524,-1486,-300,-30,254,222,-190
1,2127567,2465,821,-524,-1489,-305,-45,254,222,-190
1,2127578,2465,821,-524,-1489,-305,-45,254,222,-190
1,2127592,2465,824,-528,-1482,-303,-42,254,222,-190
1,2127603,2468,824,-530,-1474,-304,-38,254,222,-190
1,2127619,2468,824,-530,-1474,-304,-38,254,222,-190
1,2127634,2468,823,-524,-1479,-301,-44,248,208,-184
1,2127650,2469,827,-524,-1478,-301,-40,248,208,-184
1,2127666,2466,833,-526,-1477,-303,-41,248,208,-184
1,2127679,2466,833,-526,-1477,-303,-41,248,208,-184
1,2127692,2467,828,-532,-1476,-301,-39,248,208,-184
1,2127707,2466,825,-532,-1478,-301,-39,248,208,-184
1,2127720,2467,826,-529,-1484,-304,-36,248,208,-184
1,2127734,2467,826,-529,-1484,-304,-36,248,208,-184
1,2127749,2465,825,-528,-1478,-302,-36,248,230,-188
1,2127764,2466,822,-523,-1485,-300,-37,248,230,-188
1,2127779,2466,822,-523,-1485,-300,-37,248,230,-188
1,2127794,2466,825,-529,-1482,-302,-35,248,230,-188
1,2127806,2468,823,-527,-1475,-305,-38,248,230,-188
1,2127820,2466,826,-528,-1474,-297,-37,248,230,-188
1,2127834,2466,826,-528,-1474,-297,-37,248,230,-188
1,2127848,2469,829,-530,-1478,-299,-37,248,230,-188
1,2127863,2466,830,-532,-1483,-302,-36,248,230,-188
1,2127879,2466,830,-532,-1483,-302,-36,248,230,-188
1,2127894,2464,828,-525,-1474,-302,-36,249,219,-183
1,2127909,2464,828,-525,-1474,-302,-36,249,219,-183
1,2127925,2464,828,-525,-1486,-298,-43,249,219,-183
1,2127939,2469,825,-525,-1481,-303,-38,249,219,-183
1,2127954,2469,825,-525,-1481,-303,-38,249,219,-183
1,2127969,2463,824,-531,-1488,-302,-26,249,219,-183
1,2127983,2465,829,-526,-1484,-297,-44,249,219,-183
1,2127996,2465,829,-526,-1484,-297,-44,249,219,-183
1,2128012,2462,826,-522,-1481,-309,-47,250,222,-180
1,2128024,2464,828,-525,-1486,-309,-40,250,222,-180
1,2128038,2464,828,-525,-1486,-309,-40,250,222,-180
1,2128053,2465,828,-527,-1477,-301,-32,250,222,-180
1,2128068,2466,828,-529,-1478,-302,-37,250,222,-180
1,2128082,2470,827,-533,-1487,-308,-36,250,222,-180
1,2128098,2470,827,-533,-1487,-308,-36,250,222,-180
1,2128113,2469,823,-533,-1480,-309,-37,250,222,-180
1,2128130,2468,830,-523,-1488,-303,-37,262,214,-190
1,2128144,2465,826,-524,-1485,-306,-40,262,214,-190
1,2128157,2465,826,-524,-1485,-306,-40,262,214,-190
1,2128172,2464,823,-531,-1480,-309,-33,262,214,-190
1,2128187,2469,824,-529,-1481,-301,-37,262,214,-190
1,2128202,2466,826,-534,-1481,-298,-37,262,214,-190
1,2128216,2466,826,-534,-1481,-298,-37,262,214,-190
1,2128228,2466,822,-529,-1478,-302,-33,262,214,-190
1,2128243,2466,824,-527,-1479,-303,-44,252,224,-182
1,2128258,2466,824,-527,-1479,-303,-44,252,224,-182
1,2128273,2464,831,-527,-1480,-305,-40,252,224,-182
1,2128287,2465,829,-527,-1476,-308,-42,252,224,-182
1,2128302,2466,825,-531,-1473,-307,-38,252,224,-182
1,2128316,2466,825,-531,-1473,-307,-38,252,224,-182
1,2128329,2467,829,-527,-1476,-303,-37,252,224,-182
1,2128344,2465,828,-530,-1482,-308,-41,252,224,-182
1,2128357,2465,828,-530,-1482,-308,-41,252,224,-182
1,2128372,2465,825,-523,-1481,-300,-36,252,224,-182
1,2128388,2467,827,-526,-1485,-303,-42,254,224,-186
1,2128403,2466,822,-527,-1485,-307,-38,254,224,-186
1,2128417,2466,822,-527,-1485,-307,-38,254,224,-186
1,2128430,2468,821,-527,-1478,-312,-36,254,224,-186
1,2128444,2465,826,-530,-1484,-305,-35,254,224,-186
1,2128457,2465,826,-530,-1484,-305,-35,254,224,-186
1,2128473,2464,831,-528,-1484,-302,-41,254,224,-186
1,2128487,2469,824,-532,-1481,-299,-35,254,224,-186
1,2128501,2470,830,-522,-1483,-304,-41,246,222,-188
1,2128515,2470,830,-522,-1483,-304,-41,246,222,-188
1,2128528,2469,829,-527,-1489,-304,-43,246,222,-188
1,2128541,2468,825,-523,-1482,-311,-43,246,222,-188
1,2128557,2468,825,-523,-1482,-311,-43,246,222,-188
1,2128573,2465,821,-527,-1481,-307,-42,246,222,-188
1,2128588,2468,823,-524,-1484,-309,-43,246,222,-188
1,2128604,2465,825,-526,-1485,-302,-37,246,222,-188
1,2128616,2465,825,-526,-1485,-302,-37,246,222,-188
1,2128630,2469,826,-524,-1485,-302,-41,243,221,-183
1,2128646,2464,827,-525,-1485,-304,-40,243,221,-183
1,2128660,2468,830,-527,-1479,-304,-35,243,221,-183
1,2128675,2468,830,-527,-1479,-304,-35,243,221,-183
1,2128690,2468,830,-529,-1481,-307,-45,243,221,-183
1,2128704,2467,826,-524,-1483,-310,-44,243,221,-183
1,2128719,2467,826,-524,-1483,-310,-44,243,221,-183
1,2128732,2465,828,-530,-1479,-304,-41,243,221,-183
1,2128743,2467,825,-528,-1473,-306,-38,249,213,-187
1,2128758,2467,825,-528,-1473,-306,-38,249,213,-187
1,2128773,2466,824,-526,-1477,-304,-32,249,213,-187
1,2128787,2466,826,-528,-1476,-298,-42,249,213,-187
1,2128801,2466,827,-527,-1484,-304,-38,249,213,-187
1,2128819,2466,827,-527,-1484,-304,-38,249,213,-187
1,2128834,2464,823,-531,-1482,-301,-38,249,213,-187
1,2128849,2466,824,-528,-1478,-303,-39,249,213,-187
1,2128865,2468,831,-525,-1478,-299,-38,250,218,-184
1,2128880,2467,827,-524,-1479,-302,-45,250,218,-184
1,2128894,2467,827,-524,-1479,-302,-45,250,218,-184
1,2128909,2467,828,-529,-1479,-305,-45,250,218,-184
1,2128923,2468,829,-526,-1476,-302,-40,250,218,-184
1,2128936,2468,829,-526,-1476,-302,-40,250,218,-184
1,2128953,2467,827,-527,-1479,-300,-43,250,218,-184
1,2128967,2466,826,-525,-1474,-298,-29,250,218,-184
1,2128979,2466,826,-525,-1474,-298,-29,250,218,-184
1,2128994,2464,827,-526,-1473,-305,-35,250,218,-184
1,2129007,2467,825,-524,-1477,-303,-37,256,224,-184
1,2129021,2467,824,-524,-1479,-297,-39,256,224,-184
1,2129037,2467,824,-524,-1479,-297,-39,256,224,-184
1,2129052,2468,828,-528,-1481,-300,-32,256,224,-184
1,2129068,2467,832,-523,-1479,-303,-42,256,224,-184
1,2129081,2470,827,-530,-1479,-298,-48,256,224,-184
1,2129094,2470,827,-530,-1479,-298,-48,256,224,-184
1,2129110,2468,825,-526,-1482,-312,-44,256,224,-184
1,2129125,2467,826,-523,-1480,-306,-34,259,217,-193
1,2129139,2467,826,-523,-1480,-306,-34,259,217,-193
1,2129150,2467,822,-520,-1484,-307,-38,259,217,-193
1,2129164,2467,825,-524,-1476,-301,-39,259,217,-193
1,2129178,2467,825,-524,-1476,-301,-39,259,217,-193
1,2129193,2464,829,-528,-1475,-303,-32,259,217,-193
1,2129207,2466,828,-528,-1482,-301,-33,259,217,-193
1,2129222,2467,828,-525,-1479,-309,-39,259,217,-193
1,2129238,2467,828,-525,-1479,-309,-39,259,217,-193
1,2129250,2469,829,-526,-1479,-307,-43,259,217,-189
1,2129262,2466,829,-522,-1482,-301,-43,259,217,-189
1,2129277,2466,829,-522,-1482,-301,-43,259,217,-189
1,2129292,2467,829,-526,-1478,-300,-47,259,217,-189
1,2129305,2467,828,-531,-1487,-307,-35,259,217,-189
1,2129320,2467,828,-532,-1484,-305,-39,259,217,-189
1,2129335,2467,828,-532,-1484,-305,-39,259,217,-189
1,2129350,2466,824,-530,-1484,-303,-39,259,217,-189
1,2129366,2466,822,-529,-1475,-298,-35,251,223,-187
1,2129381,2464,827,-526,-1480,-305,-41,251,223,-187
1,2129394,2464,827,-526,-1480,-305,-41,251,223,-187
1,2129409,2463,826,-530,-1476,-304,-43,251,223,-187
1,2129424,2468,823,-530,-1483,-302,-40,251,223,-187
1,2129439,2468,823,-530,-1483,-302,-40,251,223,-187
1,2129453,2468,824,-526,-1481,-301,-35,251,223,-187
1,2129464,2467,832,-529,-1478,-302,-33,251,223,-187
1,2129479,2467,832,-529,-1478,-302,-33,251,223,-187
1,2129495,2467,829,-532,-1488,-297,-37,251,223,-187
1,2129508,2466,828,-525,-1481,-307,-41,249,221,-181
1,2129522,2468,826,-527,-1483,-303,-43,249,221,-181
1,2129538,2468,826,-527,-1483,-303,-43,249,221,-181
1,2129554,2466,824,-530,-1478,-294,-38,249,221,-181
1,2129569,2465,824,-527,-1478,-303,-37,249,221,-181
1,2129585,2464,825,-527,-1480,-302,-33,249,221,-181
1,2129597,2464,825,-527,-1480,-302,-33,249,221,-181
1,2129611,2467,825,-526,-1482,-303,-33,249,221,-181
1,2129624,2467,828,-524,-1480,-298,-35,238,216,-186
1,2129635,2467,828,-524,-1480,-298,-35,238,216,-186
1,2129649,2468,831,-532,-1478,-299,-38,238,216,-186
1,2129664,2468,828,-527,-1475,-296,-39,238,216,-186
1,2129677,2468,828,-527,-1475,-296,-39,238,216,-186
1,2129692,2465,826,-528,-1479,-299,-39,238,216,-186
1,2129707,2466,830,-529,-1482,-303,-35,238,216,-186
1,2129718,2466,830,-529,-1482,-303,-35,238,216,-186
1,2129730,2468,827,-529,-1477,-310,-40,238,216,-186
1,2129744,2469,824,-526,-1478,-299,-32,258,222,-188
1,2129760,2468,821,-529,-1483,-306,-35,258,222,-188
1,2129775,2468,821,-529,-1483,-306,-35,258,222,-188
1,2129789,2466,827,-522,-1482,-309,-38,258,222,-188
1,2129806,2466,825,-524,-1477,-303,-35,258,222,-188
1,2129821,2469,827,-528,-1481,-305,-40,258,222,-188
1,2129837,2469,827,-528,-1481,-305,-40,258,222,-188
1,2129852,2466,826,-531,-1486,-307,-40,258,222,-188
1,2129866,2469,829,-526,-1478,-307,-39,261,217,-185
1,2129881,2466,827,-524,-1483,-305,-39,261,217,-185
1,2129895,2466,827,-524,-1483,-305,-39,261,217,-185
1,2129908,2469,827,-523,-1482,-305,-37,261,217,-185
1,2129921,2468,826,-530,-1479,-298,-43,261,217,-185
1,2129934,2468,826,-530,-1479,-298,-43,261,217,-185
1,2129949,2465,823,-533,-1476,-301,-42,261,217,-185
1,2129963,2466,822,-527,-1479,-305,-34,261,217,-185
1,2129978,2466,822,-527,-1479,-305,-34,261,217,-185
1,2129991,2465,828,-527,-1478,-308,-41,261,217,-185
1,2130003,2465,828,-524,-1491,-303,-40,256,222,-186
1,2130017,2465,828,-524,-1491,-303,-40,256,222,-186
1,2130032,2465,828,-524,-1491,-303,-40,256,222,-186
1,2130048,2467,826,-528,-1480,-300,-42,256,222,-186
1,2130063,2470,831,-527,-1476,-302,-39,256,222,-186
1,2130076,2470,831,-527,-1476,-302,-39,256,222,-186
1,2130089,2466,833,-527,-1473,-303,-47,256,222,-186
1,2130105,2468,830,-528,-1477,-297,-43,256,222,-186
1,2130117,2468,830,-528,-1477,-297,-43,256,222,-186
1,2130131,2463,829,-523,-1478,-300,-45,250,218,-188
1,2130145,2466,821,-531,-1483,-302,-47,250,218,-188
1,2130160,2464,822,-531,-1484,-302,-41,250,218,-188
1,2130172,2464,822,-531,-1484,-302,-41,250,218,-188
1,2130187,2468,822,-530,-1484,-299,-38,250,218,-188
1,2130202,2466,825,-529,-1483,-307,-33,250,218,-188
1,2130216,2466,825,-529,-1483,-307,-33,250,218,-188
1,2130231,2467,828,-529,-1483,-306,-41,250,218,-188
1,2130245,2466,828,-524,-1476,-303,-44,246,218,-188
1,2130254,2466,828,-524,-1476,-303,-44,246,218,-188
1,2130266,2467,828,-528,-1482,-302,-44,246,218,-188
1,2130281,2469,828,-528,-1478,-298,-44,246,218,-188
1,2130296,2469,828,-528,-1478,-298,-44,246,218,-188
1,2130309,2469,827,-526,-1480,-305,-34,246,218,-188
1,2130324,2465,826,-531,-1478,-305,-37,246,218,-188
1,2130338,2465,826,-531,-1478,-305,-37,246,218,-188
1,2130354,2465,826,-531,-1478,-305,-37,246,218,-188
1,2130368,2464,821,-523,-1480,-304,-39,253,219,-185
1,2130381,2464,824,-527,-1483,-303,-34,253,219,-185
1,2130395,2464,824,-527,-1483,-303,-34,253,219,-185
1,2130407,2464,826,-530,-1485,-302,-34,253,219,-185
1,2130420,2464,826,-530,-1485,-302,-34,253,219,-185
1,2130436,2467,830,-526,-1482,-308,-35,253,219,-185
1,2130450,2468,827,-532,-1482,-306,-42,253,219,-185
1,2130463,2465,827,-528,-1483,-307,-42,253,219,-185
1,2130479,2465,827,-528,-1483,-307,-42,253,219,-185
1,2130494,2468,825,-530,-1484,-302,-37,253,219,-185
1,2130508,2466,829,-528,-1487,-303,-38,248,226,-188
1,2130520,2466,829,-528,-1487,-303,-38,248,226,-188
1,2130535,2466,828,-524,-1485,-301,-37,248,226,-188
1,2130550,2466,826,-529,-1482,-300,-42,248,226,-188
1,2130567,2466,825,-532,-1480,-298,-38,248,226,-188
1,2130582,2465,824,-532,-1479,-304,-47,248,226,-188
1,2130594,2465,824,-532,-1479,-304,-47,248,226,-188
1,2130607,2467,826,-525,-1479,-308,-36,248,226,-188
1,2130622,2464,828,-523,-1479,-304,-38,244,218,-190
1,2130636,2464,828,-523,-1479,-304,-38,244,218,-190
1,2130651,2469,827,-527,-1485,-301,-38,244,218,-190
1,2130665,2470,828,-526,-1476,-302,-44,244,218,-190
1,2130679,2470,828,-526,-1476,-302,-44,244,218,-190
1,2130693,2469,827,-527,-1474,-299,-36,244,218,-190
1,2130704,2466,833,-531,-1483,-309,-31,244,218,-190
1,2130717,2466,833,-531,-1483,-309,-31,244,218,-190
1,2130734,2469,831,-529,-1489,-309,-40,244,218,-190
1,2130747,2468,825,-529,-1476,-302,-47,251,223,-191
1,2130762,2466,821,-528,-1477,-305,-36,251,223,-191
1,2130778,2466,821,-528,-1477,-305,-36,251,223,-191
1,2130793,2465,825,-531,-1489,-310,-36,251,223,-191
1,2130808,2466,826,-528,-1481,-306,-27,251,223,-191
1,2130824,2467,827,-528,-1477,-308,-37,251,223,-191
1,2130838,2467,827,-528,-1477,-308,-37,251,223,-191
1,2130852,2464,832,-522,-1482,-306,-36,251,223,-191
1,2130866,2465,829,-523,-1481,-306,-38,255,223,-185
1,2130881,2466,827,-522,-1481,-302,-45,255,223,-185
1,2130893,2466,827,-522,-1481,-302,-45,255,223,-185
1,2130906,2466,829,-531,-1479,-301,-41,255,223,-185
1,2130920,2466,829,-531,-1479,-301,-41,255,223,-185
1,2130933,2471,827,-525,-1476,-305,-40,255,223,-185
1,2130948,2469,828,-528,-1472,-302,-44,255,223,-185
1,2130963,2467,822,-529,-1482,-301,-46,255,223,-185
1,2130978,2467,822,-529,-1482,-301,-46,255,223,-185
1,2130994,2463,826,-533,-1481,-303,-41,247,221,-185
1,2131009,2468,828,-523,-1480,-298,-39,247,221,-185
1,2131024,2465,826,-529,-1481,-301,-34,247,221,-185
1,2131039,2465,826,-529,-1481,-301,-34,247,221,-185
1,2131053,2467,825,-526,-1490,-302,-44,247,221,-185
1,2131068,2466,827,-530,-1485,-301,-44,247,221,-185
1,2131083,2470,824,-526,-1480,-305,-37,247,221,-185
1,2131093,2470,824,-526,-1480,-305,-37,247,221,-185
1,2131107,2467,827,-531,-1476,-305,-33,247,221,-185
1,2131122,2467,831,-523,-1482,-301,-48,256,216,-186
1,2131136,2467,831,-523,-1482,-301,-48,256,216,-186
1,2131151,2466,826,-524,-1484,-303,-48,256,216,-186
1,2131166,2467,824,-530,-1480,-305,-40,256,216,-186
1,2131179,2467,824,-530,-1480,-305,-40,256,216,-186
1,2131193,2468,820,-529,-1478,-299,-36,256,216,-186
1,2131207,2468,821,-533,-1484,-304,-40,256,216,-186
1,2131220,2468,821,-533,-1484,-304,-40,256,216,-186
1,2131234,2467,825,-521,-1473,-308,-37,256,216,-186
1,2131248,2468,830,-523,-1478,-309,-41,246,218,-190
1,2131263,2468,831,-520,-1480,-303,-47,246,218,-190
1,2131278,2468,831,-520,-1480,-303,-47,246,218,-190
1,2131294,2469,828,-528,-1481,-304,-41,246,218,-190
1,2131309,2467,827,-533,-1483,-303,-47,246,218,-190
1,2131323,2465,831,-526,-1477,-311,-47,246,218,-190
1,2131338,2465,831,-526,-1477,-311,-47,246,218,-190
1,2131352,2465,825,-530,-1477,-307,-42,246,218,-190
1,2131365,2465,824,-526,-1481,-308,-42,256,220,-192
1,2131380,2465,824,-526,-1481,-308,-42,256,220,-192
1,2131391,2466,823,-524,-1485,-308,-44,256,220,-192
1,2131407,2464,825,-529,-1480,-296,-42,256,220,-192
1,2131422,2467,827,-527,-1481,-303,-36,256,220,-192
1,2131436,2467,827,-527,-1481,-303,-36,256,220,-192
1,2131450,2464,828,-531,-1480,-300,-34,256,220,-192
1,2131466,2468,830,-529,-1483,-298,-33,256,220,-192
1,2131481,2468,831,-532,-1484,-304,-39,251,221,-193
1,2131497,2468,831,-532,-1484,-304,-39,251,221,-193
1,2131513,2465,829,-524,-1485,-309,-44,251,221,-193
1,2131528,2465,828,-522,-1480,-306,-42,251,221,-193
1,2131542,2464,829,-527,-1477,-308,-38,251,221,-193
1,2131556,2464,829,-527,-1477,-308,-38,251,221,-193
1,2131570,2465,823,-529,-1481,-301,-41,251,221,-193
1,2131584,2466,825,-529,-1483,-301,-44,251,221,-193
1,2131595,2466,825,-529,-1483,-301,-44,251,221,-193
1,2131609,2465,824,-529,-1483,-305,-48,251,221,-193
1,2131623,2471,829,-526,-1482,-300,-40,249,217,-187
1,2131638,2471,829,-526,-1482,-300,-40,249,217,-187
1,2131652,2469,826,-528,-1482,-304,-37,249,217,-187
1,2131666,2469,828,-528,-1484,-309,-37,249,217,-187
1,2131679,2469,828,-528,-1484,-309,-37,249,217,-187
1,2131693,2471,827,-533,-1487,-305,-36,249,217,-187
1,2131707,2467,825,-526,-1489,-305,-39,249,217,-187
1,2131722,2467,827,-532,-1481,-304,-38,249,217,-187
1,2131736,2467,827,-532,-1481,-304,-38,249,217,-187
1,2131751,2465,829,-525,-1476,-311,-40,249,211,-195
1,2131765,2467,827,-528,-1479,-304,-40,249,211,-195
1,2131779,2467,827,-528,-1479,-304,-40,249,211,-195
1,2131793,2468,822,-527,-1491,-307,-38,249,211,-195
1,2131808,2465,822,-528,-1486,-313,-38,249,211,-195
1,2131822,2466,824,-530,-1483,-307,-41,249,211,-195
1,2131837,2466,824,-530,-1483,-307,-41,249,211,-195
1,2131847,2466,824,-530,-1483,-307,-41,249,211,-195
1,2131861,2468,831,-525,-1489,-305,-38,249,211,-195
1,2131875,2468,831,-525,-1489,-305,-38,247,219,-181
1,2131890,2470,831,-524,-1483,-306,-33,247,219,-181
1,2131904,2468,828,-529,-1474,-304,-44,247,219,-181
1,2131918,2468,828,-529,-1474,-304,-44,247,219,-181
1,2131933,2468,827,-529,-1472,-299,-42,247,219,-181
1,2131944,2465,826,-527,-1475,-298,-35,247,219,-181
1,2131959,2465,826,-527,-1475,-298,-35,247,219,-181
1,2131975,2466,823,-528,-1482,-297,-39,247,219,-181
1,2131987,2466,821,-529,-1479,-300,-37,257,215,-193
1,2131999,2466,821,-529,-1479,-300,-37,257,215,-193
1,2132015,2468,824,-524,-1477,-308,-43,257,215,-193
1,2132030,2464,829,-528,-1483,-301,-40,257,215,-193
1,2132044,2470,828,-530,-1482,-306,-46,257,215,-193
1,2132058,2470,828,-530,-1482,-306,-46,257,215,-193
1,2132072,2466,828,-530,-1486,-298,-46,257,215,-193
1,2132083,2469,828,-528,-1482,-310,-38,257,215,-193
1,2132097,2469,828,-528,-1482,-310,-38,257,215,-193
1,2132112,2467,823,-527,-1483,-304,-32,257,215,-193
1,2132125,2468,825,-526,-1482,-311,-36,246,224,-188
1,2132140,2468,825,-526,-1482,-311,-36,246,224,-188
1,2132155,2470,827,-526,-1480,-303,-38,246,224,-188
1,2132166,2467,824,-531,-1481,-298,-37,246,224,-188
1,2132177,2467,824,-531,-1481,-298,-37,246,224,-188
1,2132192,2464,827,-524,-1487,-301,-31,246,224,-188
1,2132205,2467,826,-530,-1485,-303,-43,246,224,-188
1,2132219,2467,826,-530,-1485,-303,-43,246,224,-188
1,2132235,2468,827,-530,-1484,-305,-34,246,224,-188
1,2132250,2464,828,-530,-1487,-309,-44,248,226,-192
1,2132265,2466,827,-529,-1485,-307,-45,248,226,-192
1,2132279,2466,827,-529,-1485,-307,-45,248,226,-192
1,2132294,2467,828,-527,-1479,-299,-48,248,226,-192
1,2132310,2465,828,-527,-1475,-302,-49,248,226,-192
1,2132325,2469,827,-531,-1484,-307,-39,248,226,-192
1,2132339,2469,827,-531,-1484,-307,-39,248,226,-192
1,2132352,2466,830,-526,-1481,-305,-40,248,226,-192
1,2132364,2466,827,-522,-1486,-297,-38,255,219,-191
1,2132379,2466,827,-522,-1486,-297,-38,255,219,-191
1,2132393,2466,826,-524,-1479,-307,-44,255,219,-191
1,2132408,2469,824,-528,-1480,-308,-44,255,219,-191
1,2132422,2468,827,-527,-1481,-304,-39,255,219,-191
1,2132435,2468,827,-527,-1481,-304,-39,255,219,-191
1,2132447,2465,828,-533,-1483,-304,-37,255,219,-191
1,2132461,2468,829,-530,-1487,-299,-42,255,219,-191
1,2132477,2468,829,-530,-1487,-299,-42,255,219,-191
1,2132493,2468,828,-524,-1479,-303,-40,248,218,-186
1,2132508,2465,829,-526,-1478,-299,-32,248,218,-186
1,2132519,2465,829,-526,-1478,-299,-32,248,218,-186
1,2132534,2467,825,-526,-1487,-305,-32,248,218,-186
1,2132549,2466,827,-527,-1487,-297,-36,248,218,-186
1,2132563,2464,826,-530,-1482,-299,-47,248,218,-186
1,2132578,2464,826,-530,-1482,-299,-47,248,218,-186
1,2132586,2466,827,-528,-1478,-299,-41,248,218,-186
1,2132598,2466,827,-528,-1478,-299,-41,248,218,-186
1,2132613,2466,826,-530,-1483,-304,-39,243,213,-187
1,2132629,2470,831,-524,-1480,-306,-42,243,213,-187
1,2132643,2468,828,-528,-1480,-304,-38,243,213,-187
1,2132658,2468,828,-528,-1480,-304,-38,243,213,-187
1,2132672,2468,828,-528,-1480,-304,-38,243,213,-187
1,2132686,2468,830,-530,-1484,-303,-38,243,213,-187
1,2132699,2468,830,-530,-1484,-303,-38,243,213,-187
1,2132713,2471,824,-522,-1483,-302,-38,243,213,-187
1,2132728,2470,825,-530,-1483,-303,-40,243,213,-187
1,2132744,2466,826,-523,-1477,-311,-38,255,223,-191
1,2132756,2466,826,-523,-1477,-311,-38,255,223,-191
1,2132769,2467,829,-530,-1483,-305,-40,255,223,-191
1,2132784,2466,829,-532,-1478,-305,-42,255,223,-191
1,2132798,2466,829,-532,-1478,-305,-42,255,223,-191
1,2132812,2466,829,-532,-1478,-305,-42,255,223,-191
1,2132827,2470,828,-527,-1483,-308,-45,255,223,-191
1,2132842,2470,826,-528,-1485,-308,-40,255,223,-191
1,2132857,2470,826,-528,-1485,-308,-40,255,223,-191
1,2132869,2466,830,-526,-1475,-309,-40,253,213,-187
1,2132881,2467,831,-526,-1483,-299,-39,253,213,-187
1,2132895,2467,831,-526,-1483,-299,-39,253,213,-187
1,2132910,2470,828,-527,-1491,-301,-35,253,213,-187
1,2132924,2467,826,-526,-1487,-306,-32,253,213,-187
1,2132939,2467,826,-526,-1487,-306,-32,253,213,-187
1,2132955,2469,831,-528,-1484,-312,-42,253,213,-187
1,2132970,2466,824,-531,-1485,-303,-36,253,213,-187
1,2132983,2468,824,-523,-1485,-307,-40,246,214,-184
1,2132998,2468,824,-523,-1485,-307,-40,246,214,-184
1,2133012,2465,823,-524,-1484,-303,-39,246,214,-184
1,2133028,2468,824,-526,-1486,-310,-39,246,214,-184
1,2133039,2468,824,-526,-1486,-310,-39,246,214,-184
1,2133049,2468,825,-534,-1480,-303,-40,246,214,-184
1,2133063,2467,830,-531,-1486,-301,-37,246,214,-184
1,2133074,2467,830,-531,-1486,-301,-37,246,214,-184
1,2133088,2470,833,-528,-1478,-305,-41,246,214,-184
1,2133102,2466,829,-528,-1487,-306,-41,251,221,-185
1,2133115,2466,829,-528,-1487,-306,-41,251,221,-185
1,2133130,2463,827,-524,-1482,-303,-35,251,221,-185
1,2133144,2466,825,-533,-1485,-309,-41,251,221,-185
1,2133159,2466,825,-533,-1485,-309,-41,251,221,-185
1,2133175,2465,824,-526,-1484,-310,-43,251,221,-185
1,2133189,2467,824,-530,-1488,-308,-43,251,221,-185
1,2133200,2467,824,-530,-1488,-308,-43,251,221,-185
1,2133216,2468,824,-530,-1483,-304,-40,251,221,-185
1,2133231,2466,827,-529,-1479,-303,-38,251,221,-185
1,2133246,2466,829,-526,-1476,-303,-36,249,227,-193
1,2133262,2468,830,-524,-1486,-306,-38,249,227,-193
1,2133275,2468,830,-524,-1486,-306,-38,249,227,-193
1,2133287,2469,830,-525,-1482,-306,-39,249,227,-193
1,2133302,2468,830,-530,-1485,-306,-41,249,227,-193
1,2133316,2468,830,-530,-1485,-306,-41,249,227,-193
1,2133330,2468,828,-526,-1483,-307,-38,249,227,-193
1,2133345,2466,825,-527,-1480,-307,-36,249,227,-193
1,2133358,2466,825,-527,-1480,-307,-36,249,227,-193
1,2133369,2469,828,-525,-1482,-302,-40,250,222,-188
1,2133384,2466,827,-524,-1489,-302,-41,250,222,-188
1,2133397,2466,827,-524,-1489,-302,-41,250,222,-188
1,2133412,2467,825,-528,-1494,-306,-43,250,222,-188
1,2133427,2464,827,-525,-1483,-302,-44,250,222,-188
1,2133442,2469,825,-532,-1480,-301,-47,250,222,-188
1,2133455,2469,825,-532,-1480,-301,-47,250,222,-188
1,2133469,2468,829,-527,-1482,-303,-43,250,222,-188
1,2133484,2470,828,-527,-1485,-301,-38,248,222,-176
1,2133499,2470,828,-527,-1485,-301,-38,248,222,-176
1,2133516,2469,829,-530,-1478,-302,-39,248,222,-176
1,2133531,2468,828,-532,-1479,-299,-40,248,222,-176
1,2133543,2468,827,-529,-1478,-294,-38,248,222,-176
1,2133556,2468,827,-529,-1478,-294,-38,248,222,-176
1,2133570,2464,828,-530,-1481,-301,-42,248,222,-176
1,2133584,2463,822,-526,-1479,-300,-43,248,222,-176
1,2133599,2463,822,-526,-1479,-300,-43,248,222,-176
1,2133614,2468,827,-524,-1472,-291,-43,261,211,-181
1,2133628,2467,825,-524,-1477,-296,-44,261,211,-181
1,2133643,2466,826,-528,-1491,-309,-39,261,211,-181
1,2133655,2466,826,-528,-1491,-309,-39,261,211,-181
1,2133669,2468,831,-527,-1478,-301,-33,261,211,-181
1,2133685,2468,833,-530,-1479,-306,-37,261,211,-181
1,2133701,2468,833,-530,-1479,-306,-37,261,211,-181
1,2133716,2468,831,-525,-1480,-308,-43,261,211,-181
1,2133732,2470,825,-529,-1482,-305,-41,261,211,-181
1,2133746,2466,826,-530,-1483,-308,-34,251,221,-181
1,2133758,2466,826,-530,-1483,-308,-34,251,221,-181
1,2133774,2466,824,-530,-1488,-306,-38,251,221,-181
1,2133790,2464,824,-526,-1482,-307,-37,251,221,-181
1,2133806,2468,825,-529,-1482,-305,-33,251,221,-181
1,2133820,2468,825,-529,-1482,-305,-33,251,221,-181
1,2133833,2469,826,-527,-1485,-303,-40,251,221,-181
1,2133849,2466,829,-533,-1487,-301,-37,251,221,-181
1,2133862,2468,827,-520,-1486,-297,-38,246,214,-182
1,2133876,2468,827,-520,-1486,-297,-38,246,214,-182
1,2133889,2466,831,-530,-1480,-302,-37,246,214,-182
1,2133903,2468,824,-527,-1483,-302,-38,246,214,-182
1,2133917,2468,824,-527,-1483,-302,-38,246,214,-182
1,2133932,2470,824,-527,-1482,-303,-46,246,214,-182
1,2133946,2467,820,-528,-1484,-310,-45,246,214,-182
1,2133961,2465,824,-532,-1484,-303,-35,246,214,-182
1,2133978,2465,824,-532,-1484,-303,-35,246,214,-182
1,2133993,2465,828,-525,-1480,-304,-39,252,212,-196
1,2134009,2466,829,-524,-1478,-298,-41,252,212,-196
1,2134025,2466,828,-527,-1479,-308,-41,252,212,-196
1,2134040,2466,828,-527,-1479,-308,-41,252,212,-196
1,2134054,2469,828,-527,-1484,-306,-42,252,212,-196
1,2134069,2469,829,-526,-1490,-305,-45,252,212,-196
1,2134082,2469,827,-531,-1483,-306,-38,252,212,-196
1,2134097,2469,827,-531,-1483,-306,-38,252,212,-196
1,2134107,2465,829,-527,-1481,-307,-43,250,218,-184
1,2134120,2465,829,-527,-1481,-307,-43,250,218,-184
1,2134135,2465,829,-526,-1485,-307,-42,250,218,-184
1,2134150,2464,829,-526,-1485,-304,-48,250,218,-184
1,2134164,2464,825,-532,-1483,-304,-35,250,218,-184
1,2134178,2464,825,-532,-1483,-304,-35,250,218,-184
1,2134193,2464,827,-532,-1469,-302,-33,250,218,-184
1,2134205,2468,830,-528,-1476,-297,-31,250,218,-184
1,2134220,2468,830,-528,-1476,-297,-31,250,218,-184
1,2134236,2467,828,-529,-1481,-296,-33,250,218,-184
1,2134252,2467,827,-524,-1478,-301,-34,249,217,-193
1,2134266,2467,829,-525,-1483,-305,-36,249,217,-193
1,2134279,2467,829,-525,-1483,-305,-36,249,217,-193
1,2134292,2468,827,-528,-1487,-298,-41,249,217,-193
1,2134306,2466,829,-524,-1481,-299,-41,249,217,-193
1,2134321,2466,829,-524,-1481,-299,-41,249,217,-193
1,2134335,2465,829,-526,-1483,-308,-45,249,217,-193
1,2134349,2466,824,-528,-1484,-308,-38,249,217,-193
1,2134364,2466,822,-527,-1479,-303,-32,257,215,-195
1,2134376,2466,822,-527,-1479,-303,-32,257,215,-195
1,2134389,2464,824,-525,-1482,-306,-34,257,215,-195
1,2134405,2467,826,-527,-1483,-306,-40,257,215,-195
1,2134421,2467,826,-527,-1483,-306,-40,257,215,-195
1,2134437,2467,829,-528,-1487,-305,-39,257,215,-195
1,2134453,2466,826,-529,-1487,-302,-39,257,215,-195
1,2134468,2465,827,-529,-1480,-301,-38,257,215,-195
1,2134482,2467,827,-529,-1486,-299,-42,243,205,-185
1,2134494,2467,827,-529,-1486,-299,-42,243,205,-185
1,2134508,2464,827,-520,-1476,-303,-36,243,205,-185
1,2134522,2467,827,-528,-1481,-308,-37,243,205,-185
1,2134537,2467,827,-528,-1481,-308,-37,243,205,-185
1,2134551,2464,826,-529,-1485,-303,-36,243,205,-185
1,2134565,2466,826,-528,-1483,-304,-30,243,205,-185
1,2134579,2466,826,-528,-1483,-304,-30,243,205,-185
1,2134591,2464,827,-524,-1484,-303,-35,243,205,-185
1,2134607,2466,828,-521,-1479,-312,-36,249,217,-189
1,2134622,2467,826,-524,-1483,-306,-40,249,217,-189
1,2134634,2467,826,-524,-1483,-306,-40,249,217,-189
1,2134649,2468,829,-523,-1479,-307,-41,249,217,-189
1,2134667,2470,829,-525,-1479,-301,-42,249,217,-189
1,2134681,2470,829,-525,-1479,-301,-42,249,217,-189
1,2134696,2468,827,-527,-1482,-299,-38,249,217,-189
1,2134712,2467,829,-529,-1487,-300,-44,249,217,-189
1,2134726,2467,828,-526,-1486,-306,-42,243,213,-191
1,2134740,2467,828,-526,-1486,-306,-42,243,213,-191
1,2134755,2464,824,-519,-1482,-301,-39,243,213,-191
1,2134769,2466,822,-528,-1488,-303,-38,243,213,-191
1,2134781,2466,822,-528,-1488,-303,-38,243,213,-191
1,2134794,2467,824,-527,-1487,-299,-37,243,213,-191
1,2134808,2466,826,-530,-1487,-303,-43,243,213,-191
1,2134822,2469,827,-523,-1479,-307,-39,243,213,-191
1,2134836,2469,827,-523,-1479,-307,-39,243,213,-191
1,2134849,2468,829,-529,-1489,-308,-39,243,213,-191
1,2134863,2469,829,-524,-1484,-303,-36,257,221,-187
1,2134876,2469,829,-524,-1484,-303,-36,257,221,-187
1,2134891,2465,825,-529,-1482,-305,-42,257,221,-187
1,2134904,2468,829,-528,-1483,-306,-40,257,221,-187
1,2134917,2468,829,-528,-1483,-306,-40,257,221,-187
1,2134932,2468,828,-527,-1485,-308,-39,257,221,-187
1,2134946,2468,826,-529,-1487,-308,-39,257,221,-187
1,2134961,2468,826,-529,-1487,-308,-39,257,221,-187
1,2134975,2466,822,-524,-1476,-307,-41,257,221,-187
1,2134989,2469,825,-522,-1484,-301,-38,247,221,-179
1,2135005,2465,826,-520,-1481,-307,-39,247,221,-179
1,2135016,2465,826,-520,-1481,-307,-39,247,221,-179
1,2135028,2468,828,-532,-1485,-309,-41,247,221,-179
1,2135043,2468,826,-532,-1485,-310,-35,247,221,-179
1,2135057,2468,826,-532,-1485,-310,-35,247,221,-179
1,2135071,2469,830,-530,-1480,-303,-42,247,221,-179
1,2135086,2469,829,-530,-1481,-306,-42,247,221,-179
1,2135097,2469,829,-530,-1481,-306,-42,247,221,-179
1,2135110,2464,826,-525,-1481,-301,-41,249,223,-185
1,2135126,2467,826,-526,-1484,-303,-42,249,223,-185
1,2135141,2467,826,-526,-1484,-303,-42,249,223,-185
1,2135153,2465,828,-534,-1482,-300,-38,249,223,-185
1,2135161,2465,828,-534,-1482,-300,-38,249,223,-185
1,2135170,2467,823,-528,-1478,-304,-42,249,223,-185
1,2135178,2467,823,-528,-1478,-304,-42,249,223,-185
1,2135191,2465,826,-523,-1481,-293,-38,249,223,-185
1,2135200,2465,826,-523,-1481,-293,-38,249,223,-185
1,2135214,2463,825,-527,-1479,-301,-40,249,223,-185
1,2135228,2465,826,-526,-1479,-311,-38,253,215,-193
1,2135242,2465,826,-526,-1479,-311,-38,253,215,-193
1,2135258,2464,828,-523,-1481,-302,-39,253,215,-193
1,2135272,2466,828,-527,-1477,-301,-34,253,215,-193
1,2135285,2468,825,-526,-1484,-312,-42,253,215,-193
1,2135299,2468,825,-526,-1484,-312,-42,253,215,-193
1,2135311,2467,823,-526,-1481,-312,-42,253,215,-193
1,2135325,2465,831,-530,-1485,-302,-39,253,215,-193
1,2135340,2465,831,-530,-1485,-302,-39,253,215,-193
1,2135354,2465,827,-523,-1477,-304,-43,253,215,-193
1,2135369,2465,827,-522,-1485,-304,-43,253,219,-187
1,2135385,2467,825,-529,-1482,-306,-36,253,219,-187
1,2135400,2467,825,-529,-1482,-306,-36,253,219,-187
1,2135415,2466,827,-527,-1481,-308,-33,253,219,-187
1,2135429,2466,824,-529,-1477,-302,-32,253,219,-187
1,2135443,2468,826,-527,-1483,-304,-39,253,219,-187
1,2135458,2468,826,-527,-1483,-304,-39,253,219,-187
1,2135473,2471,828,-530,-1478,-309,-40,253,219,-187
1,2135484,2467,827,-519,-1484,-305,-36,254,218,-194
1,2135492,2467,827,-519,-1484,-305,-36,254,218,-194
1,2135506,2468,828,-523,-1488,-304,-37,254,218,-194
1,2135521,2468,828,-523,-1488,-304,-37,254,218,-194
1,2135536,2466,828,-523,-1480,-301,-32,254,218,-194
1,2135549,2464,825,-526,-1491,-301,-39,254,218,-194
1,2135563,2468,825,-531,-1481,-305,-35,254,218,-194
1,2135576,2468,825,-531,-1481,-305,-35,254,218,-194
1,2135591,2467,819,-528,-1481,-305,-39,254,218,-194
1,2135607,2467,824,-525,-1492,-313,-41,262,214,-188
1,2135622,2467,824,-525,-1492,-313,-41,262,214,-188
1,2135638,2467,827,-528,-1488,-311,-42,262,214,-188
1,2135653,2465,829,-523,-1485,-308,-39,262,214,-188
1,2135664,2467,832,-525,-1483,-305,-37,262,214,-188
1,2135680,2467,832,-525,-1483,-305,-37,262,214,-188
1,2135694,2466,830,-526,-1480,-303,-44,262,214,-188
1,2135709,2466,827,-526,-1482,-302,-41,262,214,-188
1,2135724,2466,828,-527,-1489,-308,-32,250,220,-190
1,2135736,2466,828,-527,-1489,-308,-32,250,220,-190
1,2135750,2467,825,-522,-1482,-305,-39,250,220,-190
1,2135764,2466,824,-530,-1478,-304,-38,250,220,-190
1,2135778,2466,824,-530,-1478,-304,-38,250,220,-190
1,2135792,2465,825,-527,-1476,-305,-44,250,220,-190
1,2135806,2467,824,-529,-1485,-310,-41,250,220,-190
1,2135818,2467,824,-529,-1485,-310,-41,250,220,-190
1,2135830,2469,825,-524,-1481,-310,-36,250,220,-190
1,2135845,2468,826,-525,-1477,-307,-40,250,220,-190
1,2135862,2468,826,-525,-1477,-307,-40,250,220,-190
1,2135875,2469,832,-519,-1486,-306,-39,246,212,-192
1,2135888,2468,827,-530,-1483,-309,-36,246,212,-192
1,2135903,2468,826,-526,-1485,-303,-44,246,212,-192
1,2135918,2468,826,-526,-1485,-303,-44,246,212,-192
1,2135932,2468,826,-532,-1482,-309,-40,246,212,-192
1,2135947,2467,826,-533,-1478,-305,-42,246,212,-192
1,2135961,2467,826,-533,-1478,-305,-42,246,212,-192
1,2135974,2464,826,-527,-1480,-303,-45,246,212,-192
1,2135988,2469,826,-526,-1476,-302,-39,248,220,-194
1,2136003,2467,825,-530,-1477,-299,-32,248,220,-194
1,2136017,2467,825,-530,-1477,-299,-32,248,220,-194
1,2136031,2465,824,-530,-1480,-306,-36,248,220,-194
1,2136045,2466,827,-529,-1483,-303,-36,248,220,-194
1,2136059,2466,827,-529,-1483,-303,-36,248,220,-194
1,2136074,2470,832,-528,-1480,-298,-34,248,220,-194
1,2136088,2468,829,-530,-1481,-299,-44,248,220,-194
1,2136100,2468,829,-530,-1481,-299,-44,248,220,-194
1,2136114,2467,827,-528,-1484,-307,-39,256,222,-188
1,2136129,2462,827,-528,-1477,-301,-46,256,222,-188
1,2136144,2468,827,-529,-1481,-297,-37,256,222,-188
1,2136158,2468,827,-529,-1481,-297,-37,256,222,-188
1,2136172,2465,826,-527,-1474,-303,-42,256,222,-188
1,2136187,2465,826,-527,-1474,-303,-42,256,222,-188
1,2136202,2466,827,-526,-1489,-306,-38,256,222,-188
1,2136217,2466,827,-526,-1489,-306,-38,256,222,-188
1,2136231,2467,828,-526,-1479,-299,-30,247,217,-181
1,2136245,2467,828,-526,-1477,-304,-34,247,217,-181
1,2136259,2467,828,-526,-1477,-304,-34,247,217,-181
1,2136269,2469,831,-528,-1479,-306,-39,247,217,-181
1,2136283,2468,830,-523,-1485,-298,-36,247,217,-181
1,2136297,2468,830,-523,-1485,-298,-36,247,217,-181
1,2136311,2467,829,-529,-1480,-299,-40,247,217,-181
1,2136327,2466,827,-531,-1481,-308,-41,247,217,-181
1,2136340,2466,827,-531,-1481,-308,-41,247,217,-181
1,2136351,2465,825,-524,-1481,-305,-42,247,217,-181
1,2136366,2465,824,-526,-1491,-301,-38,247,215,-189
1,2136382,2465,824,-526,-1491,-301,-38,247,215,-189
1,2136393,2467,826,-530,-1495,-304,-44,247,215,-189
1,2136408,2466,827,-525,-1481,-297,-43,247,215,-189
1,2136424,2467,829,-530,-1476,-302,-46,247,215,-189
1,2136440,2467,829,-530,-1476,-302,-46,247,215,-189
1,2136456,2469,831,-522,-1475,-306,-38,247,215,-189
1,2136470,2467,832,-525,-1478,-306,-41,247,215,-189
1,2136484,2469,827,-524,-1482,-303,-37,248,216,-184
1,2136499,2469,827,-524,-1482,-303,-37,248,216,-184
1,2136513,2466,829,-528,-1483,-311,-35,248,216,-184
1,2136526,2467,824,-534,-1480,-310,-40,248,216,-184
1,2136542,2467,824,-534,-1480,-310,-40,248,216,-184
1,2136556,2469,824,-530,-1476,-304,-37,248,216,-184
1,2136568,2471,826,-524,-1485,-299,-37,248,216,-184
1,2136583,2466,827,-528,-1480,-302,-34,248,216,-184
1,2136596,2466,827,-528,-1480,-302,-34,248,216,-184
1,2136610,2468,826,-528,-1479,-306,-33,253,217,-193
1,2136627,2469,826,-529,-1480,-299,-45,253,217,-193
1,2136642,2469,826,-529,-1480,-299,-45,253,217,-193
1,2136657,2468,828,-525,-1481,-304,-39,253,217,-193
1,2136674,2470,828,-527,-1480,-314,-46,253,217,-193
1,2136687,2468,829,-531,-1483,-304,-34,253,217,-193
1,2136701,2468,829,-531,-1483,-304,-34,253,217,-193
1,2136716,2467,829,-530,-1479,-305,-42,253,217,-193
1,2136730,2468,826,-528,-1478,-299,-40,257,219,-187
1,2136741,2468,826,-528,-1478,-299,-40,257,219,-187
1,2136755,2467,826,-527,-1484,-303,-42,257,219,-187
1,2136770,2465,824,-527,-1483,-301,-45,257,219,-187
1,2136784,2465,826,-524,-1483,-310,-44,257,219,-187
1,2136799,2465,826,-524,-1483,-310,-44,257,219,-187
1,2136814,2468,826,-524,-1487,-302,-41,257,219,-187
1,2136828,2468,829,-524,-1478,-299,-43,257,219,-187
1,2136844,2471,825,-527,-1479,-305,-40,254,210,-184
1,2136859,2471,825,-527,-1479,-305,-40,254,210,-184
1,2136875,2470,831,-522,-1478,-310,-35,254,210,-184
1,2136889,2471,826,-528,-1479,-309,-47,254,210,-184
1,2136903,2469,827,-528,-1487,-304,-37,254,210,-184
1,2136918,2469,827,-528,-1487,-304,-37,254,210,-184
1,2136933,2471,826,-523,-1484,-304,-37,254,210,-184
1,2136948,2463,825,-527,-1472,-309,-41,254,210,-184
1,2136961,2463,825,-527,-1472,-309,-41,254,210,-184
1,2136974,2465,824,-526,-1486,-309,-45,254,210,-184
1,2136988,2467,826,-525,-1484,-300,-44,253,225,-189
1,2137003,2465,826,-529,-1481,-303,-40,253,225,-189
1,2137017,2465,826,-529,-1481,-303,-40,253,225,-189
1,2137031,2470,826,-524,-1489,-307,-39,253,225,-189
1,2137046,2469,829,-521,-1487,-306,-41,253,225,-189
1,2137058,2469,829,-521,-1487,-306,-41,253,225,-189
1,2137071,2468,832,-531,-1487,-309,-39,253,225,-189
1,2137082,2465,827,-530,-1482,-303,-37,253,225,-189
1,2137096,2465,827,-530,-1482,-303,-37,253,225,-189
1,2137111,2465,827,-518,-1484,-300,-43,255,217,-183
1,2137124,2464,827,-524,-1483,-304,-41,255,217,-183
1,2137139,2464,827,-524,-1483,-304,-41,255,217,-183
1,2137153,2466,822,-531,-1485,-310,-39,255,217,-183
1,2137167,2463,824,-530,-1486,-308,-40,255,217,-183
1,2137183,2464,828,-529,-1486,-307,-42,255,217,-183
1,2137196,2464,828,-529,-1486,-307,-42,255,217,-183
1,2137208,2466,824,-530,-1485,-307,-37,255,217,-183
1,2137224,2467,822,-522,-1477,-299,-36,249,213,-189
1,2137238,2467,822,-522,-1477,-299,-36,249,213,-189
1,2137252,2469,828,-528,-1481,-295,-42,249,213,-189
1,2137267,2471,830,-528,-1478,-297,-38,249,213,-189
1,2137282,2471,830,-528,-1478,-297,-38,249,213,-189
1,2137293,2468,828,-526,-1474,-301,-41,249,213,-189
1,2137308,2466,829,-523,-1481,-307,-37,249,213,-189
1,2137321,2466,829,-523,-1481,-307,-37,249,213,-189
1,2137336,2462,829,-529,-1475,-302,-40,249,213,-189
1,2137352,2464,824,-527,-1481,-294,-38,255,221,-187
1,2137366,2467,825,-530,-1482,-301,-36,255,221,-187
1,2137379,2467,825,-530,-1482,-301,-36,255,221,-187
1,2137396,2465,825,-529,-1482,-298,-39,255,221,-187
1,2137412,2464,827,-528,-1481,-302,-38,255,221,-187
1,2137426,2468,824,-527,-1475,-302,-43,255,221,-187
1,2137442,2468,824,-527,-1475,-302,-43,255,221,-187
1,2137456,2466,825,-527,-1479,-303,-40,255,221,-187
1,2137470,2468,829,-528,-1487,-305,-36,255,221,-187
1,2137485,2467,829,-523,-1483,-300,-39,250,220,-192
1,2137498,2467,829,-523,-1483,-300,-39,250,220,-192
1,2137509,2468,828,-526,-1479,-302,-32,250,220,-192
1,2137526,2466,829,-526,-1481,-301,-47,250,220,-192
1,2137540,2466,829,-526,-1481,-301,-47,250,220,-192
1,2137555,2465,825,-529,-1487,-310,-29,250,220,-192
1,2137568,2471,825,-531,-1479,-308,-33,250,220,-192
1,2137581,2471,825,-531,-1479,-308,-33,250,220,-192
1,2137597,2464,826,-526,-1482,-303,-39,250,220,-192
1,2137612,2465,829,-519,-1486,-305,-41,252,220,-180
1,2137624,2465,828,-524,-1484,-303,-43,252,220,-180
1,2137639,2465,828,-524,-1484,-303,-43,252,220,-180
1,2137655,2469,829,-528,-1479,-303,-42,252,220,-180
1,2137670,2470,829,-529,-1484,-300,-32,252,220,-180
1,2137686,2468,830,-528,-1484,-304,-40,252,220,-180
1,2137697,2468,830,-528,-1484,-304,-40,252,220,-180
1,2137710,2468,829,-526,-1479,-309,-38,252,220,-180
1,2137724,2468,830,-523,-1483,-306,-35,247,225,-195
1,2137739,2468,830,-523,-1483,-306,-35,247,225,-195
1,2137753,2466,824,-519,-1486,-307,-28,247,225,-195
1,2137767,2464,826,-523,-1472,-304,-39,247,225,-195
1,2137781,2464,826,-523,-1472,-304,-39,247,225,-195
1,2137793,2466,827,-526,-1484,-299,-38,247,225,-195
1,2137807,2465,829,-527,-1488,-305,-35,247,225,-195
1,2137823,2470,827,-532,-1481,-301,-33,247,225,-195
1,2137837,2470,827,-532,-1481,-301,-33,247,225,-195
1,2137851,2469,827,-526,-1478,-308,-31,261,215,-193
1,2137864,2466,827,-524,-1480,-308,-38,261,215,-193
1,2137880,2466,827,-524,-1480,-308,-38,261,215,-193
1,2137894,2469,824,-527,-1479,-307,-33,261,215,-193
1,2137911,2467,832,-526,-1482,-301,-42,261,215,-193
1,2137924,2466,832,-534,-1482,-300,-44,261,215,-193
1,2137938,2466,832,-534,-1482,-300,-44,261,215,-193
1,2137953,2465,826,-529,-1487,-306,-33,261,215,-193
1,2137968,2466,825,-529,-1485,-305,-37,261,215,-193
1,2137978,2466,825,-529,-1485,-305,-37,261,215,-193
1,2137992,2467,824,-528,-1483,-303,-41,245,229,-189
1,2138006,2467,827,-526,-1483,-306,-40,245,229,-189
1,2138020,2467,827,-526,-1483,-306,-40,245,229,-189
1,2138035,2469,824,-527,-1477,-306,-45,245,229,-189
1,2138050,2468,828,-529,-1485,-297,-45,245,229,-189
1,2138065,2466,829,-525,-1481,-302,-45,245,229,-189
1,2138081,2466,829,-525,-1481,-302,-45,245,229,-189
1,2138096,2467,825,-525,-1480,-299,-39,245,229,-189
1,2138110,2468,829,-523,-1477,-307,-43,262,220,-188
1,2138125,2465,828,-526,-1486,-309,-35,262,220,-188
1,2138139,2465,828,-526,-1486,-309,-35,262,220,-188
1,2138153,2469,828,-523,-1480,-306,-37,262,220,-188
1,2138165,2466,823,-526,-1483,-305,-39,262,220,-188
1,2138180,2466,823,-526,-1483,-305,-39,262,220,-188
1,2138195,2467,825,-526,-1482,-298,-40,262,220,-188
1,2138209,2466,824,-524,-1484,-296,-35,262,220,-188
1,2138223,2467,828,-524,-1474,-305,-38,255,223,-187
1,2138237,2467,828,-524,-1474,-305,-38,255,223,-187
1,2138253,2466,828,-525,-1475,-298,-32,255,223,-187
1,2138267,2466,831,-525,-1480,-303,-36,255,223,-187
1,2138284,2470,827,-523,-1488,-296,-41,255,223,-187
1,2138298,2470,827,-523,-1488,-296,-41,255,223,-187
1,2138313,2469,825,-530,-1480,-308,-46,255,223,-187
1,2138328,2465,830,-525,-1482,-312,-41,255,223,-187
1,2138341,2465,830,-525,-1482,-312,-41,255,223,-187
1,2138356,2465,825,-522,-1485,-311,-37,256,210,-186
1,2138371,2468,824,-525,-1476,-306,-39,256,210,-186
1,2138382,2468,824,-525,-1476,-306,-39,256,210,-186
1,2138395,2465,827,-530,-1468,-307,-43,256,210,-186
1,2138411,2468,826,-521,-1475,-302,-38,256,210,-186
1,2138424,2469,829,-529,-1480,-301,-40,256,210,-186
1,2138439,2469,829,-529,-1480,-301,-40,256,210,-186
1,2138452,2470,828,-527,-1477,-306,-44,256,210,-186
1,2138465,2468,826,-528,-1473,-301,-43,256,210,-186
1,2138477,2468,826,-528,-1473,-301,-43,256,210,-186
1,2138491,2467,826,-527,-1481,-306,-36,253,223,-179
1,2138506,2468,828,-525,-1483,-310,-37,253,223,-179
1,2138520,2468,828,-525,-1483,-310,-37,253,223,-179
1,2138535,2465,829,-527,-1482,-307,-40,253,223,-179
1,2138551,2463,825,-527,-1478,-308,-37,253,223,-179
1,2138567,2464,824,-527,-1482,-312,-35,253,223,-179
1,2138582,2464,824,-527,-1482,-312,-35,253,223,-179
1,2138596,2467,828,-529,-1481,-311,-39,253,223,-179
1,2138610,2465,826,-522,-1480,-308,-42,263,209,-183
1,2138619,2465,826,-522,-1480,-308,-42,263,209,-183
1,2138632,2466,830,-525,-1478,-310,-36,263,209,-183
1,2138646,2467,830,-528,-1480,-306,-41,263,209,-183
1,2138660,2467,830,-528,-1480,-306,-41,263,209,-183
1,2138675,2469,832,-526,-1481,-308,-42,263,209,-183
1,2138689,2468,829,-534,-1475,-306,-41,263,209,-183
1,2138701,2468,829,-534,-1475,-306,-41,263,209,-183
1,2138714,2467,829,-530,-1479,-306,-41,263,209,-183
1,2138728,2464,828,-522,-1482,-303,-36,254,218,-178
1,2138743,2469,826,-529,-1484,-304,-40,254,218,-178
1,2138757,2469,826,-529,-1484,-304,-40,254,218,-178
1,2138769,2465,826,-523,-1484,-302,-45,254,218,-178
1,2138784,2466,824,-524,-1489,-307,-42,254,218,-178
1,2138800,2466,824,-524,-1489,-307,-42,254,218,-178
1,2138814,2468,829,-530,-1476,-304,-44,254,218,-178
1,2138828,2470,829,-528,-1480,-301,-42,254,218,-178
1,2138844,2466,831,-527,-1475,-298,-42,249,219,-187
1,2138858,2466,831,-527,-1475,-298,-42,249,219,-187
1,2138869,2467,831,-527,-1480,-307,-37,249,219,-187
1,2138884,2467,829,-528,-1476,-309,-33,249,219,-187
1,2138898,2467,829,-528,-1476,-309,-33,249,219,-187
1,2138912,2466,827,-528,-1482,-300,-36,249,219,-187
1,2138927,2466,829,-530,-1483,-305,-38,249,219,-187
1,2138941,2466,829,-530,-1483,-305,-38,249,219,-187
1,2138956,2468,829,-530,-1481,-308,-45,249,219,-187
1,2138971,2466,824,-532,-1475,-305,-38,253,221,-191
1,2138982,2466,824,-532,-1475,-305,-38,253,221,-191
1,2138995,2468,826,-527,-1478,-305,-40,253,221,-191
1,2139012,2469,823,-526,-1483,-300,-34,253,221,-191
1,2139023,2467,825,-529,-1491,-303,-41,253,221,-191
1,2139038,2467,825,-529,-1491,-303,-41,253,221,-191
1,2139054,2471,830,-527,-1485,-305,-35,253,221,-191
1,2139069,2468,828,-528,-1482,-307,-32,253,221,-191
1,2139084,2468,826,-533,-1475,-307,-31,253,221,-191
1,2139100,2468,826,-533,-1475,-307,-31,253,221,-191
1,2139114,2465,830,-528,-1476,-302,-40,250,216,-184
1,2139129,2467,829,-527,-1476,-302,-42,250,216,-184
1,2139144,2464,828,-529,-1479,-301,-36,250,216,-184
1,2139155,2464,828,-529,-1479,-301,-36,250,216,-184
1,2139167,2464,827,-525,-1483,-294,-41,250,216,-184
1,2139182,2464,827,-525,-1483,-294,-41,250,216,-184
1,2139196,2464,827,-535,-1481,-306,-33,250,216,-184
1,2139210,2467,822,-530,-1484,-310,-41,250,216,-184
1,2139226,2465,825,-526,-1483,-306,-46,248,214,-182
1,2139238,2465,825,-526,-1483,-306,-46,248,214,-182
1,2139250,2470,828,-527,-1478,-311,-37,248,214,-182
1,2139265,2468,830,-522,-1484,-308,-35,248,214,-182
1,2139280,2468,830,-522,-1484,-308,-35,248,214,-182
1,2139294,2469,832,-532,-1491,-310,-39,248,214,-182
1,2139308,2467,824,-528,-1490,-308,-34,248,214,-182
1,2139323,2467,824,-528,-1490,-308,-34,248,214,-182
1,2139338,2468,827,-533,-1481,-312,-39,248,214,-182
1,2139355,2468,827,-528,-1483,-306,-38,255,213,-187
1,2139369,2467,826,-525,-1484,-305,-40,255,213,-187
1,2139384,2469,825,-522,-1487,-304,-38,255,213,-187
1,2139399,2469,825,-522,-1487,-304,-38,255,213,-187
1,2139414,2468,827,-530,-1481,-306,-32,255,213,-187
1,2139428,2467,826,-527,-1480,-310,-42,255,213,-187
1,2139444,2466,829,-528,-1479,-305,-41,255,213,-187
1,2139455,2466,829,-528,-1479,-305,-41,255,213,-187
1,2139468,2468,830,-525,-1479,-302,-45,251,219,-183
1,2139483,2468,830,-525,-1479,-302,-45,251,219,-183
1,2139497,2468,827,-525,-1479,-302,-40,251,219,-183
1,2139511,2469,825,-527,-1480,-304,-35,251,219,-183
1,2139526,2467,824,-521,-1480,-312,-36,251,219,-183
1,2139537,2467,824,-521,-1480,-312,-36,251,219,-183
1,2139552,2467,827,-521,-1475,-303,-35,251,219,-183
1,2139567,2466,829,-530,-1479,-299,-31,251,219,-183
1,2139581,2466,829,-530,-1479,-299,-31,251,219,-183
1,2139595,2464,828,-529,-1483,-301,-42,251,219,-183
1,2139611,2465,824,-529,-1475,-303,-40,254,214,-188
1,2139625,2468,831,-529,-1474,-303,-38,254,214,-188
1,2139640,2468,831,-529,-1474,-303,-38,254,214,-188
1,2139655,2467,831,-526,-1485,-306,-42,254,214,-188
1,2139670,2469,831,-526,-1489,-310,-34,254,214,-188
1,2139684,2469,828,-532,-1482,-308,-41,254,214,-188
1,2139699,2469,828,-532,-1482,-308,-41,254,214,-188
1,2139709,2466,827,-529,-1472,-301,-40,254,214,-188
1,2139717,2466,827,-529,-1472,-301,-40,254,214,-188
1,2139725,2467,826,-526,-1478,-304,-38,248,214,-188
1,2139737,2467,826,-526,-1478,-304,-38,248,214,-188
1,2139751,2468,825,-525,-1484,-301,-35,248,214,-188
1,2139766,2466,824,-526,-1477,-301,-33,248,214,-188
1,2139780,2466,824,-526,-1477,-301,-33,248,214,-188
1,2139794,2466,824,-527,-1483,-299,-44,248,214,-188
1,2139809,2469,822,-524,-1478,-302,-41,248,214,-188
1,2139823,2469,822,-524,-1478,-302,-41,248,214,-188
1,2139835,2469,822,-524,-1478,-302,-41,248,214,-188
1,2139849,2471,831,-525,-1482,-303,-30,247,207,-191
1,2139864,2465,831,-529,-1488,-299,-36,247,207,-191
1,2139879,2465,831,-529,-1488,-299,-36,247,207,-191
1,2139893,2465,828,-525,-1481,-302,-40,247,207,-191
1,2139910,2465,828,-529,-1483,-304,-34,247,207,-191
1,2139925,2466,828,-529,-1473,-305,-33,247,207,-191
1,2139940,2466,828,-529,-1473,-305,-33,247,207,-191
1,2139957,2468,827,-530,-1483,-305,-35,247,207,-191
1,2139969,2466,827,-528,-1483,-305,-32,247,213,-183
1,2139983,2469,826,-526,-1488,-308,-40,247,213,-183
1,2139998,2469,826,-526,-1488,-308,-40,247,213,-183
1,2140011,2470,826,-522,-1478,-309,-30,247,213,-183
1,2140023,2470,826,-526,-1483,-306,-41,247,213,-183
1,2140039,2470,826,-526,-1483,-306,-41,247,213,-183
1,2140052,2464,831,-529,-1484,-308,-38,247,213,-183
1,2140066,2470,831,-525,-1481,-303,-39,247,213,-183
1,2140082,2470,831,-525,-1481,-303,-39,247,213,-183
1,2140095,2470,829,-524,-1478,-304,-40,247,213,-183
1,2140111,2467,830,-526,-1483,-303,-42,252,222,-190
1,2140127,2467,825,-527,-1482,-311,-41,252,222,-190
1,2140141,2467,825,-527,-1482,-311,-41,252,222,-190
1,2140152,2466,824,-527,-1480,-306,-36,252,222,-190
1,2140168,2467,826,-528,-1483,-306,-37,252,222,-190
1,2140183,2467,826,-528,-1483,-306,-37,252,222,-190
1,2140198,2464,825,-530,-1481,-300,-36,252,222,-190
1,2140210,2468,828,-529,-1480,-297,-34,252,222,-190
1,2140225,2468,828,-524,-1478,-307,-36,255,221,-189
1,2140240,2468,828,-524,-1478,-307,-36,255,221,-189
1,2140256,2468,830,-526,-1482,-307,-38,255,221,-189
1,2140270,2466,828,-528,-1487,-310,-32,255,221,-189
1,2140284,2471,829,-531,-1484,-309,-42,255,221,-189
1,2140299,2471,829,-531,-1484,-309,-42,255,221,-189
1,2140314,2465,827,-526,-1480,-305,-29,255,221,-189
1,2140328,2466,828,-530,-1482,-304,-42,255,221,-189
1,2140341,2466,828,-530,-1482,-304,-42,255,221,-189
1,2140353,2465,825,-524,-1482,-302,-42,249,217,-189
1,2140369,2465,824,-524,-1480,-302,-37,249,217,-189
1,2140385,2465,826,-527,-1490,-312,-40,249,217,-189
1,2140397,2465,826,-527,-1490,-312,-40,249,217,-189
1,2140410,2468,828,-527,-1485,-302,-43,249,217,-189
1,2140425,2469,825,-522,-1476,-306,-42,249,217,-189
1,2140440,2469,825,-522,-1476,-306,-42,249,217,-189
1,2140455,2465,828,-528,-1483,-308,-37,249,217,-189
1,2140470,2469,828,-518,-1488,-304,-38,257,215,-189
1,2140484,2467,831,-531,-1482,-308,-30,257,215,-189
1,2140502,2467,831,-531,-1482,-308,-30,257,215,-189
1,2140516,2467,829,-529,-1479,-304,-28,257,215,-189
1,2140528,2465,829,-527,-1479,-314,-39,257,215,-189
1,2140542,2465,829,-527,-1479,-314,-39,257,215,-189
1,2140556,2463,825,-523,-1482,-307,-38,257,215,-189
1,2140571,2465,826,-526,-1483,-299,-41,257,215,-189
1,2140587,2463,825,-530,-1478,-304,-43,257,215,-189
1,2140602,2463,825,-530,-1478,-304,-43,257,215,-189
1,2140614,2470,828,-527,-1481,-304,-39,255,213,-187
1,2140630,2467,830,-532,-1482,-308,-38,255,213,-187
1,2140645,2466,830,-526,-1477,-310,-41,255,213,-187
1,2140660,2466,830,-526,-1477,-310,-41,255,213,-187
1,2140675,2466,833,-525,-1485,-304,-38,255,213,-187
1,2140689,2466,828,-527,-1483,-306,-37,255,213,-187
1,2140703,2466,828,-527,-1483,-306,-37,255,213,-187
1,2140718,2464,831,-528,-1484,-308,-35,255,213,-187
1,2140733,2466,828,-524,-1477,-305,-41,242,220,-188
1,2140745,2461,825,-527,-1473,-303,-40,242,220,-188
1,2140759,2461,825,-527,-1473,-303,-40,242,220,-188
1,2140773,2466,825,-527,-1479,-309,-40,242,220,-188
1,2140788,2466,830,-531,-1479,-302,-37,242,220,-188
1,2140802,2466,830,-531,-1479,-302,-37,242,220,-188
1,2140816,2468,828,-529,-1474,-299,-30,242,220,-188
1,2140830,2469,828,-531,-1474,-306,-39,242,220,-188
1,2140846,2468,832,-522,-1483,-297,-51,241,221,-183
1,2140861,2468,832,-522,-1483,-297,-51,241,221,-183
1,2140876,2467,831,-529,-1484,-306,-45,241,221,-183
1,2140891,2466,827,-524,-1492,-307,-39,241,221,-183
1,2140905,2466,829,-525,-1484,-302,-45,241,221,-183
1,2140919,2466,829,-525,-1484,-302,-45,241,221,-183
1,2140934,2466,828,-528,-1480,-305,-42,241,221,-183
1,2140948,2463,827,-527,-1481,-305,-46,241,221,-183
1,2140959,2463,827,-527,-1481,-305,-46,241,221,-183
1,2140974,2468,826,-521,-1476,-306,-44,259,217,-189
1,2140988,2462,827,-527,-1479,-304,-37,259,217,-189
1,2141002,2462,827,-527,-1479,-304,-37,259,217,-189
1,2141017,2467,825,-524,-1485,-309,-43,259,217,-189
1,2141032,2466,830,-528,-1476,-313,-40,259,217,-189
1,2141047,2467,831,-524,-1483,-305,-39,259,217,-189
1,2141064,2467,831,-524,-1483,-305,-39,259,217,-189
1,2141079,2469,834,-525,-1475,-309,-43,259,217,-189
1,2141093,2467,832,-527,-1485,-308,-37,267,219,-191
1,2141108,2464,831,-523,-1482,-309,-40,267,219,-191
1,2141123,2464,831,-523,-1482,-309,-40,267,219,-191
1,2141133,2466,829,-527,-1485,-304,-48,267,219,-191
1,2141146,2467,824,-534,-1488,-306,-33,267,219,-191
1,2141160,2467,824,-534,-1488,-306,-33,267,219,-191
1,2141168,2468,822,-530,-1481,-305,-41,267,219,-191
1,2141184,2468,822,-530,-1481,-305,-41,267,219,-191
1,2141198,2466,825,-526,-1482,-305,-35,267,219,-191
1,2141209,2466,828,-522,-1484,-300,-34,267,219,-191
1,2141223,2466,828,-522,-1484,-300,-34,267,219,-191
1,2141233,2464,830,-526,-1481,-299,-28,252,222,-182
1,2141244,2467,832,-526,-1482,-301,-37,252,222,-182
1,2141258,2467,832,-526,-1482,-301,-37,252,222,-182
1,2141274,2466,830,-526,-1480,-307,-37,252,222,-182
1,2141288,2465,826,-525,-1482,-309,-37,252,222,-182
1,2141301,2465,826,-525,-1482,-309,-37,252,222,-182
1,2141316,2467,828,-528,-1481,-307,-35,252,222,-182
1,2141331,2466,829,-528,-1478,-305,-35,252,222,-182
1,2141346,2466,824,-518,-1480,-307,-38,254,218,-190
1,2141361,2466,824,-518,-1480,-307,-38,254,218,-190
1,2141375,2465,824,-522,-1479,-304,-43,254,218,-190
1,2141389,2465,828,-531,-1487,-306,-44,254,218,-190
1,2141404,2465,828,-531,-1487,-306,-44,254,218,-190
1,2141418,2465,833,-533,-1481,-306,-42,254,218,-190
1,2141432,2466,830,-532,-1483,-312,-37,254,218,-190
1,2141444,2466,830,-532,-1483,-312,-37,254,218,-190
1,2141458,2469,829,-528,-1485,-308,-38,254,218,-190
1,2141472,2469,828,-523,-1483,-310,-34,247,213,-189
1,2141487,2469,828,-525,-1488,-306,-39,247,213,-189
1,2141502,2469,828,-525,-1488,-306,-39,247,213,-189
1,2141518,2467,827,-531,-1490,-307,-38,247,213,-189
1,2141533,2464,832,-525,-1487,-305,-34,247,213,-189
1,2141549,2462,830,-524,-1484,-309,-38,247,213,-189
1,2141562,2462,830,-524,-1484,-309,-38,247,213,-189
1,2141577,2464,827,-527,-1490,-309,-41,247,213,-189
1,2141592,2467,831,-519,-1486,-304,-32,258,220,-184
1,2141606,2469,826,-529,-1481,-300,-28,258,220,-184
1,2141621,2469,826,-529,-1481,-300,-28,258,220,-184
1,2141632,2469,825,-521,-1482,-304,-35,258,220,-184
1,2141646,2470,826,-525,-1476,-306,-37,258,220,-184
1,2141661,2470,826,-525,-1476,-306,-37,258,220,-184
1,2141674,2467,830,-529,-1477,-303,-39,258,220,-184
1,2141688,2466,830,-531,-1480,-298,-42,258,220,-184
1,2141704,2466,830,-531,-1480,-298,-42,258,220,-184
1,2141715,2465,830,-530,-1487,-303,-45,258,220,-184
1,2141727,2464,832,-523,-1480,-308,-46,249,221,-185
1,2141744,2464,832,-523,-1480,-308,-46,249,221,-185
1,2141754,2465,827,-527,-1481,-308,-39,249,221,-185
1,2141769,2466,827,-525,-1482,-307,-36,249,221,-185
1,2141785,2466,827,-525,-1482,-307,-36,249,221,-185
1,2141800,2466,827,-525,-1482,-307,-36,249,221,-185
1,2141815,2468,827,-525,-1480,-302,-43,249,221,-185
1,2141830,2468,830,-527,-1480,-303,-45,249,221,-185
1,2141844,2468,830,-527,-1480,-303,-45,249,221,-185
1,2141858,2466,831,-522,-1484,-306,-47,252,208,-186
1,2141874,2464,830,-524,-1492,-308,-42,252,208,-186
1,2141888,2466,830,-527,-1488,-310,-46,252,208,-186
1,2141902,2466,830,-527,-1488,-310,-46,252,208,-186
1,2141914,2465,828,-531,-1479,-304,-36,252,208,-186
1,2141928,2466,828,-529,-1482,-307,-36,252,208,-186
1,2141942,2466,828,-529,-1482,-307,-36,252,208,-186
1,2141957,2467,828,-530,-1488,-301,-41,252,208,-186
1,2141972,2468,827,-523,-1483,-307,-38,259,217,-187
1,2141987,2467,828,-526,-1481,-303,-45,259,217,-187
1,2142003,2467,828,-526,-1481,-303,-45,259,217,-187
1,2142018,2467,826,-530,-1486,-305,-36,259,217,-187
1,2142034,2465,831,-527,-1487,-312,-38,259,217,-187
1,2142050,2466,834,-529,-1476,-306,-45,259,217,-187
1,2142064,2466,834,-529,-1476,-306,-45,259,217,-187
1,2142078,2466,834,-529,-1476,-306,-45,259,217,-187
1,2142092,2466,830,-526,-1476,-297,-42,249,207,-189
1,2142104,2465,832,-524,-1481,-304,-42,249,207,-189
1,2142118,2465,832,-524,-1481,-304,-42,249,207,-189
1,2142132,2468,831,-523,-1485,-305,-44,249,207,-189
1,2142145,2466,826,-530,-1480,-309,-39,249,207,-189
1,2142159,2466,826,-530,-1480,-309,-39,249,207,-189
1,2142174,2464,825,-530,-1478,-309,-39,249,207,-189
1,2142189,2469,824,-529,-1487,-311,-41,249,207,-189
1,2142203,2469,824,-529,-1487,-311,-41,249,207,-189
1,2142216,2467,827,-531,-1484,-307,-34,249,207,-189
1,2142230,2470,830,-523,-1483,-301,-38,253,217,-187
1,2142245,2467,835,-522,-1478,-303,-36,253,217,-187
1,2142261,2467,835,-522,-1478,-303,-36,253,217,-187
1,2142276,2467,831,-527,-1476,-299,-37,253,217,-187
1,2142287,2467,827,-531,-1475,-305,-41,253,217,-187
1,2142302,2467,827,-531,-1475,-305,-41,253,217,-187
1,2142317,2467,830,-528,-1480,-305,-39,253,217,-187
1,2142331,2467,830,-528,-1483,-307,-39,253,217,-187
1,2142345,2466,826,-527,-1479,-307,-43,254,216,-194
1,2142360,2466,826,-527,-1479,-307,-43,254,216,-194
1,2142374,2466,826,-527,-1479,-307,-43,254,216,-194
1,2142386,2466,827,-526,-1482,-303,-34,254,216,-194
1,2142398,2466,827,-526,-1482,-303,-34,254,216,-194
1,2142413,2465,827,-524,-1485,-303,-35,254,216,-194
1,2142429,2466,832,-530,-1482,-305,-43,254,216,-194
1,2142442,2466,832,-530,-1482,-305,-43,254,216,-194
1,2142456,2464,833,-527,-1484,-299,-42,254,216,-194
1,2142473,2468,832,-523,-1486,-297,-45,248,222,-194
1,2142489,2468,832,-523,-1486,-297,-45,248,222,-194
1,2142504,2468,831,-528,-1488,-300,-40,248,222,-194
1,2142521,2468,831,-528,-1488,-300,-40,248,222,-194
1,2142537,2469,825,-526,-1484,-304,-35,248,222,-194
1,2142553,2467,827,-525,-1482,-307,-41,248,222,-194
1,2142567,2464,828,-532,-1482,-303,-40,248,222,-194
1,2142581,2464,828,-532,-1482,-303,-40,248,222,-194
1,2142596,2467,828,-531,-1480,-307,-41,254,218,-182
1,2142611,2468,825,-529,-1478,-306,-36,254,218,-182
1,2142624,2468,825,-529,-1478,-306,-36,254,218,-182
1,2142636,2470,828,-528,-1480,-303,-42,254,218,-182
1,2142650,2471,834,-528,-1481,-309,-38,254,218,-182
1,2142664,2471,834,-528,-1481,-309,-38,254,218,-182
1,2142679,2467,836,-526,-1479,-305,-36,254,218,-182
1,2142693,2467,832,-525,-1482,-304,-35,254,218,-182
1,2142708,2466,828,-530,-1480,-301,-43,254,218,-182
1,2142724,2466,828,-530,-1480,-301,-43,254,218,-182
1,2142739,2462,831,-528,-1481,-299,-42,256,224,-190
1,2142754,2467,830,-528,-1481,-305,-45,256,224,-190
1,2142769,2462,830,-523,-1486,-307,-43,256,224,-190
1,2142784,2462,830,-523,-1486,-307,-43,256,224,-190
1,2142797,2468,827,-525,-1480,-303,-41,256,224,-190
1,2142813,2470,826,-529,-1483,-302,-38,256,224,-190
1,2142827,2467,827,-530,-1477,-303,-38,256,224,-190
1,2142839,2467,827,-530,-1477,-303,-38,256,224,-190
1,2142852,2468,828,-528,-1478,-308,-44,253,219,-183
1,2142865,2471,832,-522,-1487,-306,-35,253,219,-183
1,2142878,2471,832,-522,-1487,-306,-35,253,219,-183
1,2142894,2468,832,-531,-1478,-302,-38,253,219,-183
1,2142909,2467,829,-530,-1477,-304,-35,253,219,-183
1,2142925,2466,828,-528,-1481,-301,-34,253,219,-183
1,2142941,2466,828,-528,-1481,-301,-34,253,219,-183
1,2142957,2465,825,-528,-1493,-310,-37,253,219,-183
1,2142973,2467,827,-521,-1488,-300,-38,252,212,-190
1,2142989,2470,824,-523,-1482,-304,-44,252,212,-190
1,2143004,2470,824,-523,-1482,-304,-44,252,212,-190
1,2143019,2468,826,-525,-1479,-306,-38,252,212,-190
1,2143033,2468,832,-524,-1477,-307,-41,252,212,-190
1,2143047,2464,833,-530,-1481,-304,-44,252,212,-190
1,2143060,2464,833,-530,-1481,-304,-44,252,212,-190
1,2143074,2467,829,-533,-1482,-306,-35,252,212,-190
1,2143088,2468,829,-530,-1483,-305,-37,253,215,-189
1,2143102,2468,829,-530,-1483,-305,-37,253,215,-189
1,2143118,2464,830,-526,-1481,-301,-36,253,215,-189
1,2143131,2466,827,-532,-1486,-305,-37,253,215,-189
1,2143147,2467,826,-529,-1484,-296,-33,253,215,-189
1,2143161,2467,826,-529,-1484,-296,-33,253,215,-189
1,2143177,2467,827,-528,-1483,-305,-28,253,215,-189
1,2143192,2465,828,-526,-1475,-299,-35,253,215,-189
1,2143207,2468,825,-530,-1475,-294,-35,248,218,-190
1,2143222,2468,825,-530,-1475,-294,-35,248,218,-190
1,2143237,2470,829,-522,-1486,-296,-41,248,218,-190
1,2143251,2467,830,-523,-1489,-304,-39,248,218,-190
1,2143265,2468,833,-526,-1486,-303,-37,248,218,-190
1,2143273,2468,833,-526,-1486,-303,-37,248,218,-190
1,2143289,2464,833,-527,-1484,-309,-39,248,218,-190
1,2143303,2464,833,-527,-1484,-309,-39,248,218,-190
1,2143318,2466,829,-527,-1479,-309,-41,248,218,-190
1,2143332,2465,828,-528,-1479,-305,-39,248,218,-190
1,2143346,2467,826,-527,-1489,-309,-39,250,222,-184
1,2143358,2467,826,-527,-1489,-309,-39,250,222,-184
1,2143371,2466,829,-523,-1484,-302,-28,250,222,-184
1,2143386,2468,827,-529,-1480,-303,-29,250,222,-184
1,2143401,2468,827,-529,-1480,-303,-29,250,222,-184
1,2143417,2465,828,-530,-1483,-299,-38,250,222,-184
1,2143431,2468,828,-529,-1480,-304,-40,250,222,-184
1,2143444,2468,828,-529,-1480,-304,-40,250,222,-184
1,2143459,2469,831,-526,-1473,-299,-39,250,222,-184
1,2143474,2465,833,-529,-1484,-308,-38,253,217,-189
1,2143490,2464,832,-527,-1483,-307,-36,253,217,-189
1,2143504,2464,832,-527,-1483,-307,-36,253,217,-189
1,2143519,2467,826,-530,-1485,-306,-40,253,217,-189
1,2143534,2467,830,-528,-1487,-306,-43,253,217,-189
1,2143548,2464,823,-531,-1480,-304,-42,253,217,-189
1,2143562,2464,823,-531,-1480,-304,-42,253,217,-189
1,2143575,2466,826,-531,-1476,-303,-47,253,217,-189
1,2143588,2469,827,-522,-1478,-304,-34,246,222,-188
1,2143603,2469,827,-522,-1478,-304,-34,246,222,-188
1,2143617,2465,825,-527,-1473,-307,-37,246,222,-188
1,2143632,2468,831,-525,-1485,-312,-37,246,222,-188
1,2143647,2469,832,-525,-1480,-307,-46,246,222,-188
1,2143663,2469,832,-525,-1480,-307,-46,246,222,-188
1,2143678,2466,830,-527,-1479,-306,-37,246,222,-188
1,2143693,2468,830,-527,-1484,-302,-45,246,222,-188
1,2143710,2469,829,-531,-1484,-303,-37,254,218,-192
1,2143725,2466,827,-526,-1476,-300,-43,254,218,-192
1,2143738,2466,827,-526,-1476,-300,-43,254,218,-192
1,2143753,2463,824,-526,-1479,-301,-35,254,218,-192
1,2143766,2467,828,-523,-1476,-297,-46,254,218,-192
1,2143778,2467,828,-523,-1476,-297,-46,254,218,-192
1,2143792,2465,832,-528,-1485,-306,-45,254,218,-192
1,2143806,2466,830,-528,-1485,-306,-38,254,218,-192
1,2143819,2466,830,-528,-1485,-306,-38,254,218,-192
1,2143835,2467,828,-525,-1486,-301,-38,254,218,-192
1,2143849,2471,830,-530,-1486,-300,-38,259,221,-187
1,2143862,2471,830,-530,-1486,-300,-38,259,221,-187
1,2143875,2468,829,-526,-1479,-300,-42,259,221,-187
1,2143889,2465,830,-526,-1477,-304,-40,259,221,-187
1,2143904,2465,830,-526,-1477,-304,-40,259,221,-187
1,2143920,2463,831,-527,-1480,-301,-43,259,221,-187
1,2143935,2465,829,-530,-1484,-298,-39,259,221,-187
1,2143948,2466,827,-532,-1487,-303,-43,259,221,-187
1,2143964,2466,827,-532,-1487,-303,-43,259,221,-187
1,2143979,2466,827,-532,-1480,-302,-38,254,224,-190
1,2143995,2466,826,-527,-1484,-309,-42,254,224,-190
1,2144011,2469,828,-525,-1483,-301,-41,254,224,-190
1,2144025,2469,824,-530,-1479,-306,-34,254,224,-190
1,2144038,2469,824,-530,-1479,-306,-34,254,224,-190
1,2144053,2470,830,-527,-1481,-305,-35,254,224,-190
1,2144067,2471,830,-533,-1484,-307,-37,254,224,-190
1,2144081,2471,830,-533,-1484,-307,-37,254,224,-190
1,2144095,2466,833,-525,-1483,-306,-33,245,207,-191
1,2144109,2467,829,-531,-1480,-306,-35,245,207,-191
1,2144123,2467,829,-531,-1480,-306,-35,245,207,-191
1,2144138,2467,826,-531,-1485,-311,-39,245,207,-191
1,2144152,2466,825,-524,-1483,-306,-40,245,207,-191
1,2144166,2464,824,-528,-1479,-307,-41,245,207,-191
1,2144181,2464,824,-528,-1479,-307,-41,245,207,-191
1,2144195,2465,830,-525,-1483,-301,-36,245,207,-191
1,2144211,2465,828,-525,-1478,-307,-38,252,220,-188
1,2144226,2468,829,-526,-1484,-310,-46,252,220,-188
1,2144239,2468,829,-526,-1484,-310,-46,252,220,-188
1,2144253,2467,833,-530,-1492,-305,-45,252,220,-188
1,2144268,2468,829,-529,-1491,-305,-41,252,220,-188
1,2144283,2468,829,-529,-1491,-305,-41,252,220,-188
1,2144294,2465,831,-531,-1485,-300,-36,252,220,-188
1,2144309,2465,828,-526,-1480,-308,-35,252,220,-188
1,2144322,2465,828,-526,-1480,-308,-35,252,220,-188
1,2144336,2464,826,-527,-1482,-305,-46,252,220,-188
1,2144351,2463,823,-525,-1485,-309,-36,260,222,-194
1,2144365,2463,823,-525,-1485,-309,-36,260,222,-194
1,2144379,2464,827,-526,-1480,-305,-35,260,222,-194
1,2144393,2467,831,-528,-1480,-312,-39,260,222,-194
1,2144408,2469,828,-527,-1480,-301,-41,260,222,-194
1,2144422,2469,828,-527,-1480,-301,-41,260,222,-194
1,2144437,2468,828,-525,-1481,-302,-34,260,222,-194
1,2144451,2470,832,-524,-1479,-300,-34,260,222,-194
1,2144465,2469,832,-523,-1482,-310,-35,247,215,-189
1,2144482,2469,832,-523,-1482,-310,-35,247,215,-189
1,2144497,2469,832,-527,-1492,-299,-36,247,215,-189
1,2144512,2467,833,-533,-1485,-302,-32,247,215,-189
1,2144526,2463,828,-532,-1483,-303,-40,247,215,-189
1,2144540,2463,828,-532,-1483,-303,-40,247,215,-189
1,2144555,2463,824,-529,-1483,-306,-40,247,215,-189
1,2144569,2466,824,-527,-1491,-297,-33,247,215,-189
1,2144581,2466,824,-527,-1491,-297,-33,247,215,-189
1,2144594,2468,829,-527,-1478,-299,-38,252,210,-188
1,2144609,2469,829,-526,-1480,-296,-34,252,210,-188
1,2144625,2469,829,-526,-1480,-296,-34,252,210,-188
1,2144637,2468,833,-527,-1484,-304,-39,252,210,-188
1,2144649,2467,830,-526,-1486,-305,-35,252,210,-188
1,2144664,2467,830,-526,-1486,-305,-35,252,210,-188
1,2144678,2468,828,-526,-1481,-302,-34,252,210,-188
1,2144688,2469,832,-528,-1493,-309,-35,252,210,-188
1,2144700,2469,832,-528,-1493,-309,-35,252,210,-188
1,2144713,2468,830,-525,-1487,-305,-33,250,220,-184
1,2144728,2463,829,-522,-1482,-309,-36,250,220,-184
1,2144741,2463,829,-522,-1482,-309,-36,250,220,-184
1,2144756,2467,826,-527,-1482,-312,-37,250,220,-184
1,2144770,2463,827,-526,-1476,-302,-38,250,220,-184
1,2144783,2463,827,-526,-1476,-302,-38,250,220,-184
1,2144796,2463,827,-527,-1485,-310,-34,250,220,-184
1,2144812,2469,827,-532,-1484,-304,-36,250,220,-184
1,2144825,2467,830,-530,-1487,-303,-49,250,220,-184
1,2144839,2467,830,-530,-1487,-303,-49,250,220,-184
1,2144854,2470,832,-523,-1476,-303,-39,249,217,-193
1,2144865,2470,832,-523,-1476,-303,-39,249,217,-193
1,2144879,2466,830,-526,-1488,-304,-30,249,217,-193
1,2144894,2467,830,-527,-1478,-306,-41,249,217,-193
1,2144910,2465,828,-529,-1479,-301,-40,249,217,-193
1,2144925,2464,829,-525,-1480,-301,-40,249,217,-193
1,2144941,2464,829,-525,-1480,-301,-40,249,217,-193
1,2144954,2465,827,-533,-1480,-303,-38,249,217,-193
1,2144967,2466,826,-528,-1488,-305,-44,254,210,-190
1,2144983,2466,826,-528,-1488,-305,-44,254,210,-190
1,2144997,2465,828,-529,-1477,-307,-40,254,210,-190
1,2145011,2464,830,-534,-1474,-309,-35,254,210,-190
1,2145026,2468,828,-532,-1476,-301,-38,254,210,-190
1,2145040,2468,828,-532,-1476,-301,-38,254,210,-190
1,2145053,2467,831,-531,-1483,-301,-39,254,210,-190
1,2145068,2467,827,-533,-1483,-301,-37,254,210,-190
1,2145081,2467,827,-533,-1483,-301,-37,254,210,-190
1,2145095,2468,828,-526,-1481,-301,-37,260,220,-190
1,2145110,2465,831,-529,-1478,-306,-36,260,220,-190
1,2145124,2465,831,-529,-1478,-306,-36,260,220,-190
1,2145138,2463,830,-529,-1486,-311,-38,260,220,-190
1,2145146,2464,828,-530,-1483,-306,-46,260,220,-190
1,2145155,2464,828,-530,-1483,-306,-46,260,220,-190
1,2145164,2464,828,-530,-1483,-306,-46,260,220,-190
1,2145178,2465,826,-530,-1489,-306,-40,260,220,-190
1,2145193,2465,826,-530,-1489,-307,-38,260,220,-190
1,2145207,2466,828,-528,-1479,-306,-41,254,220,-188
1,2145222,2466,828,-528,-1479,-306,-41,254,220,-188
1,2145235,2467,830,-522,-1479,-303,-40,254,220,-188
1,2145251,2469,831,-526,-1485,-300,-42,254,220,-188
1,2145264,2469,831,-526,-1485,-300,-42,254,220,-188
1,2145277,2465,830,-528,-1478,-306,-41,254,220,-188
1,2145293,2469,828,-528,-1478,-307,-37,254,220,-188
1,2145306,2467,828,-529,-1481,-308,-38,254,220,-188
1,2145319,2467,828,-529,-1481,-308,-38,254,220,-188
1,2145335,2466,825,-530,-1478,-303,-38,253,219,-193
1,2145349,2465,827,-527,-1482,-306,-39,253,219,-193
1,2145363,2465,827,-527,-1482,-306,-39,253,219,-193
1,2145377,2464,823,-531,-1483,-304,-39,253,219,-193
1,2145391,2466,824,-525,-1480,-312,-36,253,219,-193
1,2145408,2468,827,-528,-1481,-305,-30,253,219,-193
1,2145423,2468,827,-528,-1481,-305,-30,253,219,-193
1,2145438,2469,830,-529,-1477,-297,-37,253,219,-193
1,2145454,2466,830,-528,-1479,-298,-42,253,219,-193
1,2145470,2465,827,-524,-1483,-300,-42,255,215,-191
1,2145485,2465,827,-524,-1483,-300,-42,255,215,-191
1,2145500,2465,827,-527,-1490,-304,-32,255,215,-191
1,2145514,2466,829,-531,-1482,-304,-42,255,215,-191
1,2145528,2465,829,-530,-1473,-303,-41,255,215,-191
1,2145543,2465,829,-530,-1473,-303,-41,255,215,-191
1,2145555,2465,825,-530,-1489,-303,-42,255,215,-191
1,2145570,2465,825,-528,-1485,-303,-44,255,215,-191
1,2145584,2465,825,-528,-1485,-303,-44,255,215,-191
1,2145598,2464,826,-528,-1485,-305,-40,252,218,-192
1,2145611,2466,827,-530,-1481,-304,-39,252,218,-192
1,2145626,2466,824,-528,-1490,-312,-32,252,218,-192
1,2145641,2466,824,-528,-1490,-312,-32,252,218,-192
1,2145656,2467,830,-530,-1484,-306,-37,252,218,-192
1,2145665,2467,830,-530,-1484,-306,-37,252,218,-192
1,2145678,2467,830,-529,-1488,-309,-40,252,218,-192
1,2145691,2467,828,-532,-1484,-307,-42,252,218,-192
1,2145707,2465,830,-534,-1482,-300,-42,256,208,-196
1,2145722,2465,830,-534,-1482,-300,-42,256,208,-196
1,2145737,2466,830,-524,-1486,-299,-34,256,208,-196
1,2145752,2465,824,-527,-1473,-306,-35,256,208,-196
1,2145766,2466,827,-529,-1478,-305,-39,256,208,-196
1,2145780,2466,827,-529,-1478,-305,-39,256,208,-196
1,2145795,2468,825,-528,-1479,-296,-37,256,208,-196
1,2145808,2465,825,-528,-1484,-303,-38,256,208,-196
1,2145822,2465,825,-528,-1484,-303,-38,256,208,-196
1,2145833,2467,828,-528,-1485,-306,-39,263,215,-189
1,2145848,2467,828,-523,-1480,-311,-44,263,215,-189
1,2145860,2467,828,-523,-1480,-311,-44,263,215,-189
1,2145875,2469,830,-528,-1477,-303,-42,263,215,-189
1,2145891,2467,824,-533,-1488,-310,-39,263,215,-189
1,2145906,2467,826,-530,-1482,-304,-45,263,215,-189
1,2145922,2467,826,-530,-1482,-304,-45,263,215,-189
1,2145937,2466,829,-526,-1482,-307,-37,263,215,-189
1,2145951,2464,826,-537,-1480,-302,-34,263,215,-189
1,2145966,2464,826,-537,-1480,-302,-34,263,215,-189
1,2145980,2465,824,-531,-1479,-312,-35,256,220,-190
1,2145994,2464,825,-532,-1478,-307,-41,256,220,-190
1,2146008,2465,827,-525,-1482,-305,-35,256,220,-190
1,2146022,2465,827,-525,-1482,-305,-35,256,220,-190
1,2146037,2465,826,-528,-1482,-305,-38,256,220,-190
1,2146051,2462,832,-528,-1486,-303,-36,256,220,-190
1,2146065,2462,832,-528,-1486,-303,-36,256,220,-190
1,2146079,2465,830,-527,-1484,-301,-38,256,220,-190
1,2146094,2464,831,-527,-1483,-305,-35,251,221,-191
1,2146109,2465,825,-525,-1480,-305,-42,251,221,-191
1,2146123,2465,825,-525,-1480,-305,-42,251,221,-191
1,2146136,2463,829,-530,-1487,-303,-42,251,221,-191
1,2146151,2463,828,-530,-1493,-308,-40,251,221,-191
1,2146165,2465,823,-527,-1484,-301,-37,251,221,-191
1,2146181,2465,823,-527,-1484,-301,-37,251,221,-191
1,2146191,2463,826,-529,-1481,-304,-38,251,221,-191
1,2146205,2463,826,-529,-1481,-304,-38,251,221,-191
1,2146219,2463,824,-525,-1481,-305,-40,250,214,-182
1,2146233,2467,824,-528,-1484,-301,-41,250,214,-182
1,2146247,2464,829,-529,-1486,-304,-40,250,214,-182
1,2146262,2464,829,-529,-1486,-304,-40,250,214,-182
1,2146272,2468,828,-524,-1481,-304,-42,250,214,-182
1,2146285,2468,828,-524,-1481,-304,-42,250,214,-182
1,2146299,2467,828,-529,-1486,-303,-40,250,214,-182
1,2146313,2467,824,-532,-1483,-296,-35,250,214,-182
1,2146328,2466,825,-526,-1483,-303,-33,249,217,-189
1,2146341,2466,825,-526,-1483,-303,-33,249,217,-189
1,2146353,2466,828,-525,-1483,-304,-33,249,217,-189
1,2146368,2466,826,-523,-1478,-309,-39,249,217,-189
1,2146385,2466,826,-523,-1478,-309,-39,249,217,-189
1,2146401,2465,827,-526,-1484,-302,-39,249,217,-189
1,2146417,2468,824,-533,-1480,-301,-38,249,217,-189
1,2146432,2467,827,-527,-1475,-304,-36,249,217,-189
1,2146447,2467,828,-533,-1479,-306,-46,249,217,-189
1,2146459,2467,828,-533,-1479,-306,-46,249,217,-189
1,2146471,2467,833,-526,-1484,-300,-35,250,220,-194
1,2146486,2465,829,-532,-1482,-300,-37,250,220,-194
1,2146500,2465,829,-532,-1482,-300,-37,250,220,-194
1,2146514,2463,825,-530,-1477,-305,-34,250,220,-194
1,2146528,2464,825,-527,-1485,-307,-37,250,220,-194
1,2146543,2464,825,-527,-1485,-307,-37,250,220,-194
1,2146554,2461,826,-529,-1481,-308,-40,250,220,-194
1,2146570,2466,827,-530,-1480,-307,-36,250,220,-194
1,2146585,2466,827,-530,-1480,-307,-36,250,220,-194
1,2146600,2466,825,-525,-1490,-305,-40,257,219,-191
1,2146616,2464,826,-528,-1488,-300,-33,257,219,-191
1,2146629,2465,826,-530,-1488,-304,-40,257,219,-191
1,2146642,2465,826,-530,-1488,-304,-40,257,219,-191
1,2146657,2465,829,-528,-1490,-308,-39,257,219,-191
1,2146671,2468,832,-530,-1486,-308,-38,257,219,-191
1,2146685,2467,829,-530,-1482,-302,-40,257,219,-191
1,2146700,2467,829,-530,-1482,-302,-40,257,219,-191
1,2146715,2466,827,-527,-1485,-302,-28,253,217,-191
1,2146728,2465,826,-527,-1477,-303,-38,253,217,-191
1,2146741,2465,826,-527,-1477,-303,-38,253,217,-191
1,2146754,2468,826,-526,-1476,-304,-39,253,217,-191
1,2146766,2465,826,-526,-1478,-302,-44,253,217,-191
1,2146782,2465,826,-526,-1478,-302,-44,253,217,-191
1,2146796,2467,827,-531,-1482,-308,-38,253,217,-191
1,2146811,2465,826,-532,-1483,-307,-35,253,217,-191
1,2146827,2466,825,-528,-1486,-311,-34,244,220,-182
1,2146842,2466,825,-528,-1486,-311,-34,244,220,-182
1,2146857,2466,828,-525,-1487,-303,-37,244,220,-182
1,2146873,2464,832,-525,-1490,-308,-37,244,220,-182
1,2146887,2466,829,-526,-1481,-308,-38,244,220,-182
1,2146902,2466,829,-526,-1481,-308,-38,244,220,-182
1,2146915,2464,829,-527,-1474,-300,-40,244,220,-182
1,2146925,2464,829,-527,-1474,-300,-40,244,220,-182
1,2146939,2465,827,-532,-1477,-308,-37,244,220,-182
1,2146954,2463,825,-530,-1482,-302,-29,260,218,-188
1,2146967,2465,825,-529,-1484,-305,-35,260,218,-188
1,2146981,2465,825,-529,-1484,-305,-35,260,218,-188
1,2146994,2463,824,-531,-1491,-305,-40,260,218,-188
1,2147007,2466,828,-526,-1486,-310,-34,260,218,-188
1,2147021,2466,828,-526,-1486,-310,-34,260,218,-188
1,2147031,2466,822,-526,-1493,-304,-42,260,218,-188
1,2147045,2466,822,-526,-1493,-304,-42,260,218,-188
1,2147061,2467,825,-531,-1479,-303,-39,260,218,-188
1,2147075,2466,832,-529,-1484,-302,-32,260,218,-188
1,2147090,2465,828,-527,-1483,-303,-37,247,219,-187
1,2147104,2465,828,-527,-1483,-303,-37,247,219,-187
1,2147119,2463,827,-526,-1478,-306,-35,247,219,-187
1,2147132,2465,825,-530,-1478,-304,-40,247,219,-187
1,2147144,2465,825,-530,-1478,-304,-40,247,219,-187
1,2147159,2465,826,-530,-1480,-307,-36,247,219,-187
1,2147173,2464,824,-532,-1485,-305,-40,247,219,-187
1,2147186,2465,826,-531,-1485,-310,-35,247,219,-187
1,2147202,2465,826,-531,-1485,-310,-35,247,219,-187
1,2147210,2463,828,-522,-1481,-307,-43,253,217,-191
1,2147223,2463,828,-522,-1481,-307,-43,253,217,-191
1,2147237,2466,828,-527,-1478,-305,-48,253,217,-191
1,2147252,2464,826,-526,-1483,-309,-41,253,217,-191
1,2147266,2465,832,-532,-1483,-306,-38,253,217,-191
1,2147282,2465,832,-532,-1483,-306,-38,253,217,-191
1,2147297,2466,832,-528,-1487,-306,-39,253,217,-191
1,2147313,2466,830,-530,-1484,-307,-42,253,217,-191
1,2147329,2465,829,-531,-1477,-309,-39,256,214,-184
1,2147344,2465,829,-531,-1477,-309,-39,256,214,-184
1,2147358,2463,826,-533,-1476,-301,-38,256,214,-184
1,2147373,2465,824,-526,-1478,-308,-39,256,214,-184
1,2147387,2467,826,-530,-1478,-305,-35,256,214,-184
1,2147401,2467,826,-530,-1478,-305,-35,256,214,-184
1,2147415,2465,829,-531,-1480,-307,-36,256,214,-184
1,2147430,2465,829,-531,-1480,-307,-36,256,214,-184
1,2147443,2465,829,-531,-1480,-307,-36,256,214,-184
1,2147458,2466,826,-531,-1484,-302,-40,248,218,-184
1,2147472,2465,831,-525,-1481,-308,-40,248,218,-184
1,2147487,2468,825,-531,-1485,-308,-36,248,218,-184
1,2147502,2468,825,-531,-1485,-308,-36,248,218,-184
1,2147517,2463,827,-529,-1491,-306,-36,248,218,-184
1,2147532,2464,826,-534,-1490,-307,-39,248,218,-184
1,2147548,2463,825,-530,-1485,-307,-42,248,218,-184
1,2147564,2463,825,-530,-1485,-307,-42,248,218,-184
1,2147578,2464,828,-531,-1494,-306,-45,248,218,-184
1,2147593,2465,830,-523,-1485,-307,-42,259,219,-187
1,2147607,2467,827,-530,-1475,-303,-38,259,219,-187
1,2147621,2467,827,-530,-1475,-303,-38,259,219,-187
1,2147637,2467,824,-529,-1478,-299,-37,259,219,-187
1,2147649,2468,827,-526,-1477,-305,-40,259,219,-187
1,2147662,2468,827,-526,-1477,-305,-40,259,219,-187
1,2147677,2465,825,-533,-1484,-309,-35,259,219,-187
1,2147692,2463,828,-534,-1484,-309,-38,259,219,-187
1,2147704,2463,828,-534,-1484,-309,-38,259,219,-187
1,2147716,2464,831,-528,-1485,-299,-37,252,216,-190
1,2147730,2468,831,-530,-1488,-302,-46,252,216,-190
1,2147743,2468,831,-530,-1488,-302,-46,252,216,-190
1,2147759,2462,826,-532,-1489,-310,-41,252,216,-190
1,2147774,2466,823,-532,-1485,-307,-36,252,216,-190
1,2147789,2464,823,-530,-1480,-305,-32,252,216,-190
1,2147802,2464,823,-530,-1480,-305,-32,252,216,-190
1,2147816,2469,826,-531,-1483,-311,-37,252,216,-190
1,2147831,2466,824,-532,-1482,-304,-36,249,219,-183
1,2147847,2465,826,-531,-1481,-303,-40,249,219,-183
1,2147861,2465,826,-531,-1481,-303,-40,249,219,-183
1,2147875,2465,830,-535,-1480,-302,-41,249,219,-183
1,2147890,2465,833,-530,-1479,-301,-38,249,219,-183
1,2147905,2465,833,-530,-1479,-301,-38,249,219,-183
1,2147918,2465,830,-531,-1483,-299,-43,249,219,-183
1,2147933,2465,828,-534,-1488,-300,-44,249,219,-183
1,2147945,2465,828,-534,-1488,-300,-44,249,219,-183
1,2147960,2465,825,-526,-1483,-307,-35,254,212,-192
1,2147976,2464,820,-529,-1473,-303,-37,254,212,-192
1,2147987,2463,822,-532,-1478,-302,-37,254,212,-192
1,2148001,2463,822,-532,-1478,-302,-37,254,212,-192
1,2148018,2467,826,-528,-1481,-306,-29,254,212,-192
1,2148033,2466,826,-532,-1479,-304,-37,254,212,-192
1,2148048,2464,829,-538,-1479,-305,-38,254,212,-192
1,2148063,2464,829,-538,-1479,-305,-38,254,212,-192
1,2148076,2465,828,-527,-1476,-301,-37,254,212,-192
1,2148090,2467,827,-529,-1478,-304,-42,255,213,-193
1,2148105,2467,827,-529,-1478,-304,-42,255,213,-193
1,2148119,2465,826,-529,-1484,-304,-38,255,213,-193
1,2148130,2466,827,-531,-1479,-304,-41,255,213,-193
1,2148146,2466,827,-531,-1479,-304,-41,255,213,-193
1,2148161,2462,823,-528,-1485,-304,-42,255,213,-193
1,2148176,2467,823,-532,-1480,-305,-46,255,213,-193
1,2148188,2463,825,-529,-1484,-310,-44,255,213,-193
1,2148199,2463,825,-529,-1484,-310,-44,255,213,-193
1,2148213,2464,827,-527,-1485,-307,-46,251,211,-197
1,2148228,2467,826,-532,-1486,-306,-41,251,211,-197
1,2148242,2467,826,-532,-1486,-306,-41,251,211,-197
1,2148256,2466,824,-532,-1490,-301,-40,251,211,-197
1,2148270,2462,823,-530,-1489,-305,-45,251,211,-197
1,2148282,2462,823,-530,-1489,-305,-45,251,211,-197
1,2148297,2462,829,-533,-1483,-309,-39,251,211,-197
1,2148312,2462,827,-531,-1482,-307,-45,251,211,-197
1,2148327,2464,829,-525,-1481,-303,-35,251,211,-197
1,2148341,2464,829,-525,-1481,-303,-35,252,220,-194
1,2148355,2462,825,-526,-1486,-306,-37,252,220,-194
1,2148366,2462,825,-526,-1486,-306,-37,252,220,-194
1,2148379,2462,821,-529,-1483,-304,-40,252,220,-194
1,2148395,2463,823,-535,-1485,-304,-44,252,220,-194
1,2148408,2465,823,-531,-1481,-311,-45,252,220,-194
1,2148422,2465,823,-531,-1481,-311,-45,252,220,-194
1,2148438,2466,825,-529,-1482,-312,-49,252,220,-194
1,2148453,2466,826,-530,-1486,-306,-36,241,227,-185
1,2148468,2467,830,-526,-1483,-308,-37,241,227,-185
1,2148484,2467,830,-526,-1483,-308,-37,241,227,-185
1,2148498,2468,832,-529,-1483,-306,-38,241,227,-185
1,2148512,2463,829,-535,-1480,-306,-36,241,227,-185
1,2148527,2463,829,-535,-1480,-306,-36,241,227,-185
1,2148538,2463,831,-530,-1485,-306,-37,241,227,-185
1,2148551,2468,825,-533,-1481,-299,-41,241,227,-185
1,2148566,2468,825,-533,-1481,-299,-41,241,227,-185
1,2148580,2465,821,-527,-1482,-303,-42,241,227,-185
1,2148595,2462,825,-528,-1487,-302,-45,244,218,-186
1,2148610,2465,830,-531,-1488,-307,-40,244,218,-186
1,2148623,2465,830,-531,-1488,-307,-40,244,218,-186
1,2148635,2465,826,-532,-1482,-304,-30,244,218,-186
1,2148648,2468,825,-532,-1479,-300,-36,244,218,-186
1,2148663,2468,825,-532,-1479,-300,-36,244,218,-186
1,2148678,2463,827,-534,-1474,-305,-41,244,218,-186
1,2148694,2466,824,-530,-1478,-312,-42,244,218,-186
1,2148707,2464,826,-526,-1479,-304,-41,244,218,-186
1,2148721,2464,826,-526,-1479,-304,-41,251,221,-199
1,2148737,2464,829,-530,-1482,-306,-41,251,221,-199
1,2148752,2464,828,-525,-1480,-303,-41,251,221,-199
1,2148766,2464,828,-525,-1480,-303,-41,251,221,-199
1,2148781,2465,823,-532,-1485,-310,-38,251,221,-199
1,2148795,2463,824,-529,-1485,-310,-36,251,221,-199
1,2148809,2466,822,-532,-1483,-314,-43,251,221,-199
1,2148819,2466,822,-532,-1483,-314,-43,251,221,-199
1,2148833,2464,825,-527,-1480,-307,-37,264,218,-190
1,2148847,2468,826,-529,-1479,-300,-44,264,218,-190
1,2148860,2468,826,-529,-1479,-300,-44,264,218,-190
1,2148876,2466,825,-533,-1479,-302,-42,264,218,-190
1,2148887,2468,827,-524,-1483,-299,-42,264,218,-190
1,2148900,2468,827,-524,-1483,-299,-42,264,218,-190
1,2148915,2465,830,-531,-1485,-299,-47,264,218,-190
1,2148930,2464,831,-530,-1481,-299,-40,264,218,-190
1,2148945,2464,831,-530,-1481,-299,-40,264,218,-190
1,2148958,2464,825,-529,-1474,-308,-41,249,215,-183
1,2148973,2465,822,-525,-1482,-308,-42,249,215,-183
1,2148988,2467,821,-532,-1484,-312,-41,249,215,-183
1,2149004,2467,821,-532,-1484,-312,-41,249,215,-183
1,2149019,2464,822,-529,-1490,-304,-38,249,215,-183
1,2149033,2466,826,-529,-1481,-301,-38,249,215,-183
1,2149048,2466,829,-533,-1485,-300,-40,249,215,-183
1,2149062,2466,829,-533,-1485,-300,-40,249,215,-183
1,2149076,2464,829,-529,-1482,-307,-47,246,220,-188
1,2149090,2467,827,-528,-1481,-309,-40,246,220,-188
1,2149101,2467,827,-528,-1481,-309,-40,246,220,-188
1,2149116,2466,826,-533,-1478,-303,-38,246,220,-188
1,2149132,2468,827,-527,-1480,-295,-39,246,220,-188
1,2149147,2464,825,-528,-1480,-300,-42,246,220,-188
1,2149160,2464,825,-528,-1480,-300,-42,246,220,-188
1,2149176,2465,819,-532,-1480,-304,-43,246,220,-188
1,2149191,2463,825,-528,-1482,-306,-35,246,220,-188
1,2149207,2464,824,-522,-1486,-300,-43,246,220,-188
1,2149221,2464,824,-522,-1486,-300,-43,256,214,-194
1,2149236,2466,823,-530,-1481,-304,-42,256,214,-194
1,2149253,2466,828,-530,-1481,-303,-44,256,214,-194
1,2149267,2463,828,-531,-1482,-308,-32,256,214,-194
1,2149281,2463,828,-531,-1482,-308,-32,256,214,-194
1,2149297,2465,822,-536,-1480,-307,-31,256,214,-194
1,2149311,2463,826,-532,-1484,-304,-38,256,214,-194
1,2149323,2463,826,-532,-1484,-304,-38,256,214,-194
1,2149336,2468,826,-528,-1487,-306,-41,243,223,-191
1,2149351,2467,826,-524,-1484,-301,-43,243,223,-191
1,2149366,2467,826,-524,-1484,-301,-43,243,223,-191
1,2149382,2467,824,-533,-1481,-301,-42,243,223,-191
1,2149396,2466,823,-537,-1480,-307,-40,243,223,-191
1,2149410,2465,826,-528,-1480,-303,-34,243,223,-191
1,2149425,2465,826,-528,-1480,-303,-34,243,223,-191
1,2149439,2465,827,-534,-1476,-304,-43,243,223,-191
1,2149453,2463,827,-528,-1480,-303,-37,257,219,-185
1,2149467,2467,824,-530,-1488,-301,-43,257,219,-185
1,2149481,2467,824,-530,-1488,-301,-43,257,219,-185
1,2149494,2466,825,-531,-1479,-299,-45,257,219,-185
1,2149510,2465,826,-530,-1483,-308,-43,257,219,-185
1,2149524,2465,826,-530,-1483,-308,-43,257,219,-185
1,2149539,2464,827,-531,-1487,-302,-40,257,219,-185
1,2149553,2462,828,-527,-1482,-301,-37,257,219,-185
1,2149567,2462,828,-527,-1482,-301,-37,257,219,-185
1,2149581,2462,821,-528,-1488,-303,-37,257,219,-181
1,2149596,2466,819,-529,-1479,-307,-36,257,219,-181
1,2149612,2466,824,-529,-1475,-302,-35,257,219,-181
1,2149626,2466,824,-529,-1475,-302,-35,257,219,-181
1,2149641,2465,824,-531,-1483,-301,-31,257,219,-181
1,2149655,2467,827,-528,-1482,-307,-30,257,219,-181
1,2149669,2465,834,-534,-1485,-299,-37,257,219,-181
1,2149684,2465,834,-534,-1485,-299,-37,257,219,-181
1,2149697,2467,828,-532,-1488,-300,-34,257,219,-181
1,2149708,2462,826,-528,-1483,-304,-31,259,219,-187
1,2149724,2462,826,-528,-1483,-304,-31,259,219,-187
1,2149739,2463,824,-535,-1474,-307,-41,259,219,-187
1,2149753,2465,821,-533,-1473,-306,-43,259,219,-187
1,2149767,2465,821,-533,-1473,-306,-43,259,219,-187
1,2149781,2466,822,-530,-1483,-302,-38,259,219,-187
1,2149796,2462,826,-530,-1481,-301,-37,259,219,-187
1,2149810,2464,827,-525,-1488,-295,-43,259,219,-187
1,2149822,2464,827,-525,-1488,-295,-43,259,219,-187
1,2149836,2464,826,-532,-1478,-300,-42,253,219,-189
1,2149851,2468,828,-530,-1490,-302,-42,253,219,-189
1,2149864,2468,828,-530,-1490,-302,-42,253,219,-189
1,2149879,2464,826,-530,-1484,-307,-37,253,219,-189
1,2149895,2466,824,-531,-1487,-303,-35,253,219,-189
1,2149910,2466,825,-534,-1483,-303,-40,253,219,-189
1,2149925,2466,825,-534,-1483,-303,-40,253,219,-189
1,2149941,2466,826,-533,-1485,-300,-46,253,219,-189
1,2149955,2464,826,-526,-1485,-309,-47,254,208,-190
1,2149969,2461,826,-532,-1479,-304,-42,254,208,-190
1,2149984,2461,826,-532,-1479,-304,-42,254,208,-190
1,2149998,2465,826,-527,-1488,-303,-45,254,208,-190
1,2150011,2464,824,-528,-1484,-309,-34,254,208,-190
1,2150024,2464,824,-528,-1484,-309,-34,254,208,-190
1,2150038,2466,823,-531,-1481,-307,-38,254,208,-190
1,2150052,2465,825,-526,-1483,-310,-38,254,208,-190
1,2150067,2465,825,-526,-1483,-310,-38,254,208,-190
1,2150082,2468,826,-531,-1477,-304,-38,248,230,-176
1,2150096,2468,825,-528,-1478,-302,-33,248,230,-176
1,2150113,2464,824,-536,-1481,-305,-33,248,230,-176
1,2150127,2463,827,-535,-1481,-312,-33,248,230,-176
1,2150144,2463,827,-535,-1481,-312,-33,248,230,-176
1,2150159,2465,824,-536,-1477,-306,-46,248,230,-176
1,2150173,2464,824,-535,-1480,-302,-43,248,230,-176
1,2150188,2466,822,-529,-1486,-307,-41,248,230,-176
1,2150202,2466,822,-529,-1486,-307,-41,248,230,-176
1,2150215,2466,821,-529,-1487,-303,-39,254,216,-180
1,2150227,2469,819,-530,-1488,-303,-35,254,216,-180
1,2150241,2469,819,-530,-1488,-303,-35,254,216,-180
1,2150256,2465,827,-525,-1484,-306,-37,254,216,-180
1,2150270,2465,829,-532,-1485,-306,-29,254,216,-180
1,2150280,2465,829,-532,-1485,-306,-29,254,216,-180
1,2150291,2468,824,-528,-1489,-301,-41,254,216,-180
1,2150306,2468,824,-528,-1489,-301,-41,254,216,-180
1,2150321,2465,825,-532,-1485,-303,-38,254,216,-180
1,2150335,2465,826,-529,-1479,-309,-37,253,215,-191
1,2150349,2465,823,-527,-1484,-306,-32,253,215,-191
1,2150365,2465,823,-527,-1484,-306,-32,253,215,-191
1,2150380,2463,824,-531,-1493,-304,-36,253,215,-191
1,2150395,2466,825,-531,-1491,-308,-35,253,215,-191
1,2150410,2465,825,-534,-1487,-302,-41,253,215,-191
1,2150424,2465,825,-534,-1487,-302,-41,253,215,-191
1,2150438,2467,819,-532,-1484,-301,-43,253,215,-191
1,2150451,2466,827,-529,-1482,-305,-36,260,224,-186
1,2150462,2466,827,-529,-1482,-305,-36,260,224,-186
1,2150477,2466,831,-527,-1485,-307,-42,260,224,-186
1,2150492,2467,826,-527,-1476,-306,-32,260,224,-186
1,2150505,2467,826,-527,-1476,-306,-32,260,224,-186
1,2150519,2463,824,-527,-1476,-305,-36,260,224,-186
1,2150534,2462,826,-534,-1478,-303,-35,260,224,-186
1,2150549,2464,824,-531,-1481,-304,-35,260,224,-186
1,2150561,2464,824,-531,-1481,-304,-35,260,224,-186
1,2150575,2464,823,-530,-1487,-303,-42,256,218,-186
1,2150590,2465,824,-532,-1479,-303,-38,256,218,-186
1,2150604,2465,824,-532,-1479,-303,-38,256,218,-186
1,2150618,2465,822,-531,-1485,-307,-34,256,218,-186
1,2150632,2467,819,-528,-1481,-306,-33,256,218,-186
1,2150647,2467,819,-528,-1481,-306,-33,256,218,-186
1,2150662,2460,825,-530,-1471,-305,-44,256,218,-186
1,2150676,2464,828,-531,-1487,-303,-42,256,218,-186
1,2150689,2463,828,-534,-1487,-309,-41,256,218,-186
1,2150704,2463,828,-534,-1487,-309,-41,256,218,-186
1,2150713,2464,826,-532,-1486,-308,-36,245,217,-189
1,2150727,2464,826,-532,-1486,-308,-36,245,217,-189
1,2150740,2463,825,-526,-1482,-301,-32,245,217,-189
1,2150756,2466,821,-527,-1486,-294,-38,245,217,-189
1,2150770,2464,817,-532,-1480,-299,-38,245,217,-189
1,2150782,2464,817,-532,-1480,-299,-38,245,217,-189
1,2150797,2462,822,-534,-1479,-305,-41,245,217,-189
1,2150810,2466,822,-530,-1479,-301,-39,245,217,-189
1,2150825,2466,822,-530,-1479,-301,-39,245,217,-189
1,2150840,2467,827,-526,-1483,-303,-34,258,220,-186
1,2150854,2466,829,-530,-1484,-302,-36,258,220,-186
1,2150868,2464,829,-536,-1482,-306,-35,258,220,-186
1,2150883,2464,829,-536,-1482,-306,-35,258,220,-186
1,2150898,2466,825,-537,-1485,-305,-39,258,220,-186
1,2150914,2464,824,-535,-1479,-305,-37,258,220,-186
1,2150928,2464,823,-537,-1488,-305,-39,258,220,-186
1,2150942,2464,823,-537,-1488,-305,-39,258,220,-186
1,2150957,2465,819,-534,-1483,-304,-40,249,215,-189
1,2150971,2465,823,-528,-1486,-305,-38,249,215,-189
1,2150986,2465,823,-528,-1486,-305,-38,249,215,-189
1,2151001,2466,824,-529,-1483,-307,-31,249,215,-189
1,2151012,2463,826,-530,-1477,-302,-36,249,215,-189
1,2151025,2463,826,-530,-1477,-302,-36,249,215,-189
1,2151040,2462,826,-531,-1484,-305,-38,249,215,-189
1,2151053,2466,824,-532,-1487,-303,-41,249,215,-189
1,2151067,2466,824,-526,-1480,-302,-38,269,207,-189
1,2151081,2466,824,-526,-1480,-302,-38,269,207,-189
1,2151095,2469,824,-531,-1474,-304,-38,269,207,-189
1,2151110,2465,830,-525,-1483,-299,-34,269,207,-189
1,2151126,2465,830,-525,-1483,-299,-34,269,207,-189
1,2151141,2463,825,-528,-1485,-302,-36,269,207,-189
1,2151153,2464,824,-533,-1481,-302,-33,269,207,-189
1,2151164,2464,824,-533,-1481,-302,-33,269,207,-189
1,2151180,2465,828,-528,-1487,-300,-40,269,207,-189
1,2151194,2465,828,-528,-1487,-300,-40,254,216,-184
1,2151208,2463,822,-530,-1482,-306,-45,254,216,-184
1,2151222,2463,822,-530,-1482,-306,-45,254,216,-184
1,2151237,2466,821,-529,-1475,-301,-41,254,216,-184
1,2151249,2468,822,-532,-1475,-304,-39,254,216,-184
1,2151262,2468,822,-532,-1475,-304,-39,254,216,-184
1,2151278,2469,827,-533,-1472,-301,-36,254,216,-184
1,2151289,2467,826,-528,-1478,-301,-39,254,216,-184
1,2151303,2467,826,-528,-1478,-301,-39,254,216,-184
1,2151318,2467,823,-529,-1481,-301,-38,254,216,-184
1,2151333,2461,824,-528,-1482,-303,-40,249,215,-183
1,2151349,2465,823,-532,-1486,-307,-35,249,215,-183
1,2151363,2465,823,-532,-1486,-307,-35,249,215,-183
1,2151377,2465,819,-532,-1485,-299,-38,249,215,-183
1,2151392,2464,822,-531,-1484,-298,-33,249,215,-183
1,2151406,2464,822,-531,-1484,-298,-33,249,215,-183
1,2151419,2465,820,-529,-1485,-301,-27,249,215,-183
1,2151433,2466,830,-535,-1489,-304,-35,249,215,-183
1,2151446,2466,830,-535,-1489,-304,-35,249,215,-183
1,2151460,2465,827,-527,-1484,-298,-42,255,215,-191
1,2151475,2466,830,-531,-1486,-305,-44,255,215,-191
1,2151489,2462,827,-529,-1481,-308,-36,255,215,-191
1,2151504,2462,827,-529,-1481,-308,-36,255,215,-191
1,2151520,2463,827,-529,-1483,-308,-40,255,215,-191
1,2151536,2464,829,-530,-1489,-302,-42,255,215,-191
1,2151552,2464,823,-532,-1483,-302,-39,255,215,-191
1,2151566,2464,823,-532,-1483,-302,-39,255,215,-191
1,2151580,2467,821,-529,-1485,-299,-38,244,222,-188
1,2151595,2466,821,-525,-1485,-301,-39,244,222,-188
1,2151609,2464,823,-529,-1484,-305,-32,244,222,-188
1,2151620,2464,823,-529,-1484,-305,-32,244,222,-188
1,2151632,2467,828,-533,-1491,-305,-36,244,222,-188
1,2151647,2467,828,-533,-1491,-305,-36,244,222,-188
1,2151661,2467,828,-532,-1488,-305,-35,244,222,-188
1,2151675,2469,827,-528,-1484,-311,-30,244,222,-188
1,2151690,2466,825,-530,-1479,-305,-40,253,219,-191
1,2151700,2466,825,-530,-1479,-305,-40,253,219,-191
1,2151714,2466,825,-525,-1478,-300,-40,253,219,-191
1,2151729,2463,825,-535,-1477,-308,-35,253,219,-191
1,2151744,2463,825,-535,-1477,-308,-35,253,219,-191
1,2151757,2465,824,-531,-1478,-303,-34,253,219,-191
1,2151773,2467,822,-535,-1483,-298,-33,253,219,-191
1,2151788,2468,823,-535,-1480,-300,-36,253,219,-191
1,2151803,2468,823,-535,-1480,-300,-36,253,219,-191
1,2151818,2467,826,-531,-1484,-303,-45,253,219,-191
1,2151832,2468,821,-529,-1486,-308,-41,261,223,-181
1,2151845,2468,821,-529,-1486,-308,-41,261,223,-181
1,2151861,2465,824,-526,-1480,-302,-32,261,223,-181
1,2151874,2465,824,-532,-1481,-306,-32,261,223,-181
1,2151886,2465,824,-532,-1481,-306,-32,261,223,-181
1,2151900,2467,827,-536,-1470,-309,-36,261,223,-181
1,2151915,2465,826,-530,-1480,-304,-40,261,223,-181
1,2151929,2466,828,-530,-1483,-303,-35,261,223,-181
1,2151944,2466,828,-530,-1483,-303,-35,261,223,-181
1,2151958,2464,824,-528,-1487,-298,-30,256,218,-190
1,2151970,2465,819,-528,-1490,-293,-36,256,218,-190
1,2151983,2465,819,-528,-1490,-293,-36,256,218,-190
1,2151998,2464,820,-537,-1479,-298,-39,256,218,-190
1,2152013,2464,819,-527,-1476,-305,-37,256,218,-190
1,2152027,2464,819,-527,-1476,-305,-37,256,218,-190
1,2152041,2464,822,-530,-1480,-311,-33,256,218,-190
1,2152057,2464,822,-530,-1480,-311,-33,256,218,-190
1,2152073,2466,832,-526,-1480,-302,-37,258,210,-182
1,2152088,2468,826,-526,-1481,-311,-42,258,210,-182
1,2152102,2468,826,-526,-1481,-311,-42,258,210,-182
1,2152116,2465,825,-530,-1483,-305,-45,258,210,-182
1,2152130,2466,824,-531,-1479,-306,-41,258,210,-182
1,2152144,2466,824,-531,-1479,-306,-41,258,210,-182
1,2152159,2466,821,-534,-1485,-306,-39,258,210,-182
1,2152174,2465,823,-529,-1485,-309,-32,258,210,-182
1,2152186,2465,823,-529,-1485,-309,-32,258,210,-182
1,2152200,2463,822,-531,-1480,-303,-36,251,213,-191
1,2152214,2463,825,-527,-1481,-304,-36,251,213,-191
1,2152229,2461,821,-533,-1487,-299,-37,251,213,-191
1,2152245,2461,821,-533,-1487,-299,-37,251,213,-191
1,2152259,2464,824,-529,-1485,-306,-37,251,213,-191
1,2152275,2465,829,-531,-1479,-306,-36,251,213,-191
1,2152291,2468,823,-527,-1479,-306,-32,251,213,-191
1,2152306,2468,823,-527,-1479,-306,-32,251,213,-191
1,2152322,2467,824,-525,-1485,-306,-36,251,213,-191
1,2152336,2462,828,-526,-1480,-303,-38,255,207,-191
1,2152350,2466,826,-531,-1474,-307,-41,255,207,-191
1,2152365,2466,826,-531,-1474,-307,-41,255,207,-191
1,2152379,2464,824,-530,-1483,-311,-38,255,207,-191
1,2152391,2464,824,-526,-1484,-305,-35,255,207,-191
1,2152407,2464,824,-526,-1484,-305,-35,255,207,-191
1,2152419,2467,823,-531,-1478,-302,-36,255,207,-191
1,2152432,2467,820,-527,-1477,-305,-38,255,207,-191
1,2152446,2467,820,-527,-1477,-305,-38,255,207,-191
1,2152461,2465,823,-524,-1481,-304,-41,251,227,-193
1,2152475,2467,825,-523,-1485,-306,-41,251,227,-193
1,2152486,2467,825,-523,-1485,-306,-41,251,227,-193
1,2152501,2467,826,-532,-1481,-301,-36,251,227,-193
1,2152514,2463,825,-532,-1481,-300,-46,251,227,-193
1,2152527,2463,825,-532,-1481,-300,-46,251,227,-193
1,2152541,2466,828,-531,-1479,-308,-45,251,227,-193
1,2152556,2465,826,-528,-1481,-304,-31,251,227,-193
1,2152571,2467,821,-531,-1489,-309,-41,254,218,-184
1,2152586,2467,821,-531,-1489,-309,-41,254,218,-184
1,2152600,2463,821,-527,-1484,-304,-35,254,218,-184
1,2152614,2466,822,-528,-1480,-305,-35,254,218,-184
1,2152629,2469,822,-529,-1481,-315,-38,254,218,-184
1,2152643,2469,822,-529,-1481,-315,-38,254,218,-184
1,2152654,2467,825,-530,-1490,-302,-41,254,218,-184
1,2152669,2469,828,-532,-1481,-297,-33,254,218,-184
1,2152683,2469,828,-532,-1481,-297,-33,254,218,-184
1,2152697,2466,826,-529,-1481,-305,-32,252,216,-188
1,2152712,2466,826,-528,-1484,-304,-37,252,216,-188
1,2152727,2466,826,-528,-1484,-304,-37,252,216,-188
1,2152741,2464,827,-526,-1478,-300,-38,252,216,-188
1,2152754,2463,824,-530,-1477,-304,-39,252,216,-188
1,2152769,2466,821,-533,-1481,-304,-33,252,216,-188
1,2152777,2466,821,-533,-1481,-304,-33,252,216,-188
1,2152785,2466,821,-533,-1481,-304,-33,252,216,-188
1,2152794,2467,820,-534,-1483,-302,-39,252,216,-188
1,2152809,2466,824,-524,-1482,-300,-31,252,216,-188
1,2152823,2466,824,-524,-1482,-300,-31,252,216,-188
1,2152838,2464,824,-526,-1483,-300,-42,248,218,-190
1,2152852,2468,827,-527,-1478,-303,-40,248,218,-190
1,2152860,2468,827,-527,-1478,-303,-40,248,218,-190
1,2152868,2467,827,-525,-1483,-302,-33,248,218,-190
1,2152876,2467,827,-525,-1483,-302,-33,248,218,-190
1,2152889,2467,825,-526,-1481,-301,-31,248,218,-190
1,2152903,2467,825,-526,-1481,-301,-31,248,218,-190
1,2152918,2464,824,-527,-1482,-301,-33,248,218,-190
1,2152932,2467,827,-531,-1483,-304,-36,248,218,-190
1,2152946,2467,827,-531,-1483,-304,-36,248,218,-190
1,2152963,2468,826,-527,-1482,-307,-40,255,223,-191
1,2152978,2466,827,-529,-1488,-306,-39,255,223,-191
1,2152994,2465,825,-527,-1484,-302,-42,255,223,-191
1,2153010,2467,822,-533,-1480,-302,-44,255,223,-191
1,2153025,2467,822,-533,-1480,-302,-44,255,223,-191
1,2153040,2466,827,-529,-1487,-306,-42,255,223,-191
1,2153055,2463,825,-532,-1486,-300,-38,255,223,-191
1,2153069,2467,830,-524,-1482,-305,-39,249,217,-189
1,2153083,2467,830,-524,-1482,-305,-39,249,217,-189
1,2153097,2465,826,-533,-1487,-304,-41,249,217,-189
1,2153110,2467,827,-527,-1483,-300,-45,249,217,-189
1,2153123,2467,827,-527,-1483,-300,-45,249,217,-189
1,2153138,2463,830,-529,-1484,-301,-46,249,217,-189
1,2153155,2466,829,-532,-1487,-303,-37,249,217,-189
1,2153170,2466,823,-532,-1482,-307,-42,249,217,-189
1,2153187,2466,823,-532,-1482,-307,-42,249,217,-189
1,2153202,2467,822,-527,-1484,-308,-41,256,220,-180
1,2153218,2469,821,-526,-1477,-303,-31,256,220,-180
1,2153230,2467,824,-524,-1486,-300,-35,256,220,-180
1,2153243,2467,824,-524,-1486,-300,-35,256,220,-180
1,2153257,2468,827,-530,-1477,-307,-39,256,220,-180
1,2153272,2465,832,-529,-1477,-307,-38,256,220,-180
