imu,time,ax,ay,az,gx,gy,gz,mx,my,mz
1,1019409,2466,821,-529,-1478,-299,-37,248,272,-228
1,1019416,2466,821,-529,-1478,-299,-37,248,272,-228
1,1019422,2468,823,-524,-1481,-298,-35,248,272,-228
1,1019429,2468,823,-524,-1481,-298,-35,248,272,-228
1,1019435,2468,823,-524,-1481,-298,-35,248,272,-228
1,1019442,2468,823,-528,-1481,-302,-35,248,272,-228
1,1019449,2468,823,-528,-1481,-302,-35,248,272,-228
1,1019455,2468,823,-528,-1481,-302,-35,248,272,-228
1,1019460,2466,823,-529,-1477,-300,-33,248,272,-228
1,1019466,2466,823,-529,-1477,-300,-33,248,272,-228
1,1019473,2466,823,-529,-1477,-300,-33,248,272,-228
1,1019481,2465,822,-537,-1474,-299,-39,248,272,-228
1,1019488,2465,822,-537,-1474,-299,-39,248,272,-228
1,1019495,2465,822,-537,-1474,-299,-39,248,272,-228
1,1019501,2465,823,-533,-1480,-298,-34,248,272,-228
1,1019507,2465,823,-533,-1480,-298,-34,248,272,-228
1,1019513,2465,823,-533,-1480,-298,-34,248,272,-228
1,1019520,2465,823,-533,-1480,-298,-34,248,272,-228
1,1019526,2468,824,-527,-1475,-302,-37,248,272,-228
1,1019532,2468,824,-527,-1475,-302,-37,248,272,-228
1,1019539,2468,824,-527,-1475,-302,-37,248,272,-228
1,1019545,2467,825,-529,-1481,-300,-45,248,268,-236
1,1019552,2467,825,-529,-1481,-300,-45,248,268,-236
1,1019558,2467,825,-529,-1481,-300,-45,248,268,-236
1,1019566,2465,824,-528,-1483,-300,-39,248,268,-236
1,1019572,2465,824,-528,-1483,-300,-39,248,268,-236
1,1019579,2465,824,-528,-1483,-300,-39,248,268,-236
1,1019584,2466,824,-524,-1486,-304,-46,248,268,-236
1,1019591,2466,824,-524,-1486,-304,-46,248,268,-236
1,1019597,2466,824,-524,-1486,-304,-46,248,268,-236
1,1019606,2465,822,-529,-1481,-301,-41,248,268,-236
1,1019613,2465,822,-529,-1481,-301,-41,248,268,-236
1,1019621,2463,825,-530,-1469,-299,-39,248,268,-236
1,1019627,2463,825,-530,-1469,-299,-39,248,268,-236
1,1019634,2463,825,-530,-1469,-299,-39,248,268,-236
1,1019639,2463,825,-530,-1469,-299,-39,248,268,-236
1,1019645,2466,821,-532,-1481,-302,-34,248,268,-236
1,1019651,2466,821,-532,-1481,-302,-34,248,268,-236
1,1019658,2466,821,-532,-1481,-302,-34,248,268,-236
1,1019665,2465,822,-522,-1479,-298,-37,252,270,-232
1,1019672,2465,822,-522,-1479,-298,-37,252,270,-232
1,1019679,2465,822,-522,-1479,-298,-37,252,270,-232
1,1019685,2470,825,-528,-1478,-302,-33,252,270,-232
1,1019693,2470,825,-528,-1478,-302,-33,252,270,-232
1,1019699,2470,825,-528,-1478,-302,-33,252,270,-232
1,1019705,2466,824,-525,-1477,-305,-40,252,270,-232
1,1019712,2466,824,-525,-1477,-305,-40,252,270,-232
1,1019718,2466,824,-525,-1477,-305,-40,252,270,-232
1,1019724,2464,825,-531,-1475,-301,-44,252,270,-232
1,1019731,2464,825,-531,-1475,-301,-44,252,270,-232
1,1019739,2464,825,-531,-1475,-301,-44,252,270,-232
1,1019746,2467,824,-527,-1473,-302,-39,252,270,-232
1,1019751,2467,824,-527,-1473,-302,-39,252,270,-232
1,1019758,2467,824,-527,-1473,-302,-39,252,270,-232
1,1019764,2467,822,-531,-1480,-298,-37,252,270,-232
1,1019772,2467,822,-531,-1480,-298,-37,252,270,-232
1,1019778,2467,822,-531,-1480,-298,-37,252,270,-232
1,1019785,2468,824,-522,-1483,-302,-32,251,269,-231
1,1019790,2468,824,-522,-1483,-302,-32,251,269,-231
1,1019796,2468,824,-522,-1483,-302,-32,251,269,-231
1,1019802,2470,822,-529,-1487,-298,-36,251,269,-231
1,1019807,2470,822,-529,-1487,-298,-36,251,269,-231
1,1019815,2470,822,-529,-1487,-298,-36,251,269,-231
1,1019823,2467,822,-529,-1475,-294,-42,251,269,-231
1,1019829,2467,822,-529,-1475,-294,-42,251,269,-231
1,1019835,2467,822,-529,-1475,-294,-42,251,269,-231
1,1019840,2467,823,-531,-1477,-299,-42,251,269,-231
1,1019847,2467,823,-531,-1477,-299,-42,251,269,-231
1,1019853,2467,823,-531,-1477,-299,-42,251,269,-231
1,1019862,2466,824,-529,-1478,-302,-41,251,269,-231
1,1019868,2466,824,-529,-1478,-302,-41,251,269,-231
1,1019873,2466,824,-529,-1478,-302,-41,251,269,-231
1,1019880,2466,824,-529,-1478,-302,-41,251,269,-231
1,1019885,2467,826,-527,-1483,-304,-44,251,269,-231
1,1019893,2467,826,-527,-1483,-304,-44,251,269,-231
1,1019899,2465,824,-528,-1479,-301,-42,251,269,-231
1,1019906,2465,824,-528,-1479,-301,-42,250,272,-234
1,1019913,2465,824,-528,-1479,-301,-42,250,272,-234
1,1019919,2465,824,-528,-1479,-301,-42,250,272,-234
1,1019926,2466,824,-525,-1475,-307,-32,250,272,-234
1,1019931,2466,824,-525,-1475,-307,-32,250,272,-234
1,1019938,2466,824,-525,-1475,-307,-32,250,272,-234
1,1019945,2466,823,-527,-1473,-308,-36,250,272,-234
1,1019952,2466,823,-527,-1473,-308,-36,250,272,-234
1,1019958,2466,823,-527,-1473,-308,-36,250,272,-234
1,1019964,2469,823,-526,-1472,-299,-33,250,272,-234
1,1019969,2469,823,-526,-1472,-299,-33,250,272,-234
1,1019974,2469,823,-526,-1472,-299,-33,250,272,-234
1,1019979,2469,823,-526,-1472,-299,-33,250,272,-234
1,1019984,2467,825,-529,-1470,-300,-38,250,272,-234
1,1019990,2467,825,-529,-1470,-300,-38,250,272,-234
1,1019995,2467,825,-529,-1470,-300,-38,250,272,-234
1,1020000,2467,825,-529,-1470,-300,-38,250,272,-234
1,1020005,2466,822,-532,-1475,-295,-39,250,272,-234
1,1020010,2466,822,-532,-1475,-295,-39,250,272,-234
1,1020014,2466,822,-532,-1475,-295,-39,250,272,-234
1,1020019,2466,822,-532,-1475,-295,-39,250,272,-234
1,1020024,2467,823,-531,-1478,-298,-43,250,272,-234
1,1020029,2467,823,-531,-1478,-298,-43,250,272,-234
1,1020035,2467,823,-531,-1478,-298,-43,250,272,-234
1,1020040,2468,823,-526,-1477,-298,-40,250,272,-234
1,1020045,2468,823,-526,-1477,-298,-40,252,268,-238
1,1020050,2468,823,-526,-1477,-298,-40,252,268,-238
1,1020056,2468,823,-526,-1477,-298,-40,252,268,-238
1,1020063,2469,823,-527,-1479,-298,-41,252,268,-238
1,1020069,2469,823,-527,-1479,-298,-41,252,268,-238
1,1020078,2469,823,-527,-1479,-298,-41,252,268,-238
1,1020084,2467,825,-529,-1484,-297,-44,252,268,-238
1,1020091,2467,825,-529,-1484,-297,-44,252,268,-238
1,1020098,2467,825,-529,-1484,-297,-44,252,268,-238
1,1020105,2466,824,-529,-1474,-297,-39,252,268,-238
1,1020111,2466,824,-529,-1474,-297,-39,252,268,-238
1,1020119,2466,824,-529,-1474,-297,-39,252,268,-238
1,1020126,2466,825,-537,-1480,-300,-39,252,268,-238
1,1020132,2466,825,-537,-1480,-300,-39,252,268,-238
1,1020138,2466,825,-537,-1480,-300,-39,252,268,-238
1,1020145,2468,825,-532,-1481,-301,-44,252,268,-238
1,1020151,2468,825,-532,-1481,-301,-44,252,268,-238
1,1020158,2468,825,-532,-1481,-301,-44,252,268,-238
1,1020166,2466,826,-525,-1477,-301,-46,244,268,-240
1,1020172,2466,826,-525,-1477,-301,-46,244,268,-240
1,1020179,2466,826,-525,-1477,-301,-46,244,268,-240
1,1020184,2468,822,-528,-1476,-292,-38,244,268,-240
1,1020192,2468,822,-528,-1476,-292,-38,244,268,-240
1,1020198,2468,822,-528,-1476,-292,-38,244,268,-240
1,1020206,2468,825,-529,-1480,-292,-41,244,268,-240
1,1020213,2468,825,-529,-1480,-292,-41,244,268,-240
1,1020219,2468,825,-529,-1480,-292,-41,244,268,-240
1,1020225,2468,823,-524,-1480,-297,-34,244,268,-240
1,1020231,2468,823,-524,-1480,-297,-34,244,268,-240
1,1020237,2468,823,-524,-1480,-297,-34,244,268,-240
1,1020243,2467,821,-530,-1479,-301,-44,244,268,-240
1,1020251,2467,821,-530,-1479,-301,-44,244,268,-240
1,1020258,2467,821,-530,-1479,-301,-44,244,268,-240
1,1020264,2468,823,-529,-1474,-302,-39,244,268,-240
1,1020270,2468,823,-529,-1474,-302,-39,244,268,-240
1,1020276,2468,823,-529,-1474,-302,-39,244,268,-240
1,1020282,2465,822,-530,-1474,-302,-38,249,265,-237
1,1020289,2465,822,-530,-1474,-302,-38,249,265,-237
1,1020296,2465,822,-530,-1474,-302,-38,249,265,-237
1,1020302,2469,825,-526,-1474,-302,-40,249,265,-237
1,1020309,2469,825,-526,-1474,-302,-40,249,265,-237
1,1020314,2469,825,-526,-1474,-302,-40,249,265,-237
1,1020320,2465,825,-527,-1475,-296,-42,249,265,-237
1,1020326,2465,825,-527,-1475,-296,-42,249,265,-237
1,1020334,2465,825,-527,-1475,-296,-42,249,265,-237
1,1020339,2465,825,-527,-1475,-296,-42,249,265,-237
1,1020346,2465,824,-527,-1467,-298,-32,249,265,-237
1,1020353,2465,824,-527,-1467,-298,-32,249,265,-237
1,1020360,2465,824,-527,-1467,-298,-32,249,265,-237
1,1020366,2468,824,-530,-1479,-302,-31,249,265,-237
1,1020372,2468,824,-530,-1479,-302,-31,249,265,-237
1,1020380,2468,824,-530,-1479,-302,-31,249,265,-237
1,1020387,2468,822,-526,-1479,-300,-38,249,265,-237
1,1020393,2468,822,-526,-1479,-300,-38,249,265,-237
1,1020399,2468,822,-526,-1479,-300,-38,249,265,-237
1,1020404,2467,824,-530,-1473,-299,-39,254,268,-234
1,1020411,2467,824,-530,-1473,-299,-39,254,268,-234
1,1020418,2467,824,-530,-1473,-299,-39,254,268,-234
1,1020424,2468,822,-523,-1478,-300,-40,254,268,-234
1,1020429,2468,822,-523,-1478,-300,-40,254,268,-234
1,1020436,2468,822,-523,-1478,-300,-40,254,268,-234
1,1020442,2469,823,-526,-1484,-296,-42,254,268,-234
1,1020449,2469,823,-526,-1484,-296,-42,254,268,-234
1,1020455,2469,823,-526,-1484,-296,-42,254,268,-234
1,1020462,2467,824,-531,-1481,-304,-39,254,268,-234
1,1020468,2467,824,-531,-1481,-304,-39,254,268,-234
1,1020474,2467,824,-531,-1481,-304,-39,254,268,-234
1,1020481,2468,821,-526,-1469,-303,-37,254,268,-234
1,1020487,2468,821,-526,-1469,-303,-37,254,268,-234
1,1020494,2468,821,-526,-1469,-303,-37,254,268,-234
1,1020500,2468,824,-529,-1478,-302,-35,254,268,-234
1,1020507,2468,824,-529,-1478,-302,-35,254,268,-234
1,1020514,2468,824,-529,-1478,-302,-35,254,268,-234
1,1020521,2466,822,-530,-1475,-299,-43,254,268,-234
1,1020527,2466,822,-530,-1475,-299,-43,254,268,-234
1,1020534,2466,822,-530,-1475,-299,-43,254,268,-234
1,1020540,2466,820,-527,-1478,-297,-40,245,275,-233
1,1020548,2466,820,-527,-1478,-297,-40,245,275,-233
1,1020554,2466,820,-527,-1478,-297,-40,245,275,-233
1,1020561,2467,824,-528,-1476,-303,-39,245,275,-233
1,1020568,2467,824,-528,-1476,-303,-39,245,275,-233
1,1020573,2467,824,-528,-1476,-303,-39,245,275,-233
1,1020580,2470,821,-530,-1471,-299,-38,245,275,-233
1,1020587,2470,821,-530,-1471,-299,-38,245,275,-233
1,1020594,2470,821,-530,-1471,-299,-38,245,275,-233
1,1020600,2470,821,-530,-1471,-299,-38,245,275,-233
1,1020606,2467,823,-531,-1482,-299,-47,245,275,-233
1,1020611,2467,823,-531,-1482,-299,-47,245,275,-233
1,1020617,2467,823,-531,-1482,-299,-47,245,275,-233
1,1020623,2467,822,-527,-1481,-303,-43,245,275,-233
1,1020631,2467,822,-527,-1481,-303,-43,245,275,-233
1,1020636,2467,822,-527,-1481,-303,-43,245,275,-233
1,1020643,2463,824,-526,-1479,-303,-42,245,275,-233
1,1020650,2463,824,-526,-1479,-303,-42,245,275,-233
1,1020655,2463,824,-526,-1479,-303,-42,245,275,-233
1,1020660,2463,824,-526,-1479,-303,-42,250,274,-234
1,1020667,2463,824,-526,-1479,-303,-42,250,274,-234
1,1020674,2463,824,-526,-1479,-303,-42,250,274,-234
1,1020680,2463,824,-526,-1479,-303,-42,250,274,-234
1,1020686,2467,825,-529,-1478,-299,-35,250,274,-234
1,1020692,2467,825,-529,-1478,-299,-35,250,274,-234
1,1020699,2467,825,-529,-1478,-299,-35,250,274,-234
1,1020705,2466,826,-529,-1478,-301,-30,250,274,-234
1,1020710,2466,826,-529,-1478,-301,-30,250,274,-234
1,1020717,2466,826,-529,-1478,-301,-30,250,274,-234
1,1020724,2466,826,-529,-1478,-301,-30,250,274,-234
1,1020730,2466,826,-529,-1478,-301,-30,250,274,-234
1,1020737,2466,826,-529,-1478,-301,-30,250,274,-234
1,1020744,2465,827,-532,-1476,-305,-45,250,274,-234
1,1020750,2465,827,-532,-1476,-305,-45,250,274,-234
1,1020758,2465,827,-532,-1476,-305,-45,250,274,-234
1,1020765,2467,825,-532,-1486,-305,-42,250,274,-234
1,1020772,2467,825,-532,-1486,-305,-42,250,274,-234
1,1020778,2467,825,-532,-1486,-305,-42,250,274,-234
1,1020784,2468,824,-529,-1486,-300,-43,250,258,-232
1,1020790,2468,824,-529,-1486,-300,-43,250,258,-232
1,1020797,2468,824,-529,-1486,-300,-43,250,258,-232
1,1020804,2465,825,-526,-1482,-301,-42,250,258,-232
1,1020811,2465,825,-526,-1482,-301,-42,250,258,-232
1,1020819,2465,825,-526,-1482,-301,-42,250,258,-232
1,1020825,2463,823,-526,-1478,-298,-40,250,258,-232
1,1020832,2463,823,-526,-1478,-298,-40,250,258,-232
1,1020839,2463,823,-526,-1478,-298,-40,250,258,-232
1,1020847,2463,823,-526,-1478,-298,-40,250,258,-232
1,1020852,2463,823,-526,-1478,-298,-40,250,258,-232
1,1020859,2463,823,-526,-1478,-298,-40,250,258,-232
1,1020866,2462,821,-526,-1481,-298,-43,250,258,-232
1,1020872,2462,821,-526,-1481,-298,-43,250,258,-232
1,1020878,2462,821,-526,-1481,-298,-43,250,258,-232
1,1020886,2468,823,-530,-1477,-300,-38,250,258,-232
1,1020892,2468,823,-530,-1477,-300,-38,250,258,-232
1,1020898,2468,823,-530,-1477,-300,-38,250,258,-232
1,1020904,2467,823,-530,-1478,-300,-42,249,267,-231
1,1020910,2467,823,-530,-1478,-300,-42,249,267,-231
1,1020917,2467,823,-530,-1478,-300,-42,249,267,-231
1,1020923,2467,824,-519,-1478,-300,-40,249,267,-231
1,1020929,2467,824,-519,-1478,-300,-40,249,267,-231
1,1020935,2467,824,-519,-1478,-300,-40,249,267,-231
1,1020941,2465,823,-531,-1482,-304,-40,249,267,-231
1,1020946,2465,823,-531,-1482,-304,-40,249,267,-231
1,1020952,2465,823,-531,-1482,-304,-40,249,267,-231
1,1020959,2465,823,-531,-1482,-304,-40,249,267,-231
1,1020966,2468,824,-529,-1480,-301,-39,249,267,-231
1,1020974,2468,824,-529,-1480,-301,-39,249,267,-231
1,1020980,2468,824,-529,-1480,-301,-39,249,267,-231
1,1020986,2468,826,-528,-1475,-296,-33,249,267,-231
1,1020992,2468,826,-528,-1475,-296,-33,249,267,-231
1,1020998,2468,826,-528,-1475,-296,-33,249,267,-231
1,1021004,2465,823,-527,-1479,-301,-40,249,267,-231
1,1021010,2465,823,-527,-1479,-301,-40,249,267,-231
1,1021017,2465,823,-527,-1479,-301,-40,249,267,-231
1,1021023,2467,824,-530,-1484,-297,-39,249,267,-231
1,1021030,2467,824,-530,-1484,-297,-39,249,267,-231
1,1021036,2467,824,-530,-1484,-297,-39,249,267,-231
1,1021042,2467,826,-520,-1486,-301,-34,252,266,-244
1,1021049,2467,826,-520,-1486,-301,-34,252,266,-244
1,1021058,2467,826,-520,-1486,-301,-34,252,266,-244
1,1021063,2466,826,-529,-1477,-299,-39,252,266,-244
1,1021069,2466,826,-529,-1477,-299,-39,252,266,-244
1,1021074,2466,826,-529,-1477,-299,-39,252,266,-244
1,1021080,2468,823,-527,-1472,-296,-38,252,266,-244
1,1021087,2468,823,-527,-1472,-296,-38,252,266,-244
1,1021093,2468,823,-527,-1472,-296,-38,252,266,-244
1,1021101,2468,824,-530,-1473,-293,-40,252,266,-244
1,1021106,2468,824,-530,-1473,-293,-40,252,266,-244
1,1021113,2468,824,-530,-1473,-293,-40,252,266,-244
1,1021120,2468,824,-530,-1473,-293,-40,252,266,-244
1,1021126,2466,822,-528,-1476,-300,-39,252,266,-244
1,1021133,2466,822,-528,-1476,-300,-39,252,266,-244
1,1021138,2466,822,-528,-1476,-300,-39,252,266,-244
1,1021147,2462,825,-537,-1480,-301,-41,252,266,-244
1,1021153,2462,825,-537,-1480,-301,-41,252,266,-244
1,1021158,2462,825,-537,-1480,-301,-41,252,266,-244
1,1021165,2468,824,-522,-1477,-301,-43,247,275,-235
1,1021171,2468,824,-522,-1477,-301,-43,247,275,-235
1,1021178,2468,824,-522,-1477,-301,-43,247,275,-235
1,1021185,2468,824,-524,-1478,-297,-42,247,275,-235
1,1021191,2468,824,-524,-1478,-297,-42,247,275,-235
1,1021197,2468,824,-524,-1478,-297,-42,247,275,-235
1,1021203,2467,823,-530,-1476,-303,-38,247,275,-235
1,1021209,2467,823,-530,-1476,-303,-38,247,275,-235
1,1021216,2467,823,-530,-1476,-303,-38,247,275,-235
1,1021223,2465,819,-533,-1477,-300,-38,247,275,-235
1,1021231,2465,819,-533,-1477,-300,-38,247,275,-235
1,1021237,2465,819,-533,-1477,-300,-38,247,275,-235
1,1021243,2469,824,-534,-1478,-296,-39,247,275,-235
1,1021248,2469,824,-534,-1478,-296,-39,247,275,-235
1,1021256,2469,824,-534,-1478,-296,-39,247,275,-235
1,1021262,2467,822,-534,-1477,-300,-43,247,275,-235
1,1021268,2467,822,-534,-1477,-300,-43,247,275,-235
1,1021276,2467,822,-534,-1477,-300,-43,247,275,-235
1,1021281,2464,823,-525,-1476,-298,-31,250,270,-230
1,1021287,2464,823,-525,-1476,-298,-31,250,270,-230
1,1021293,2464,823,-525,-1476,-298,-31,250,270,-230
1,1021298,2464,823,-525,-1476,-298,-31,250,270,-230
1,1021304,2467,821,-528,-1482,-301,-36,250,270,-230
1,1021312,2467,821,-528,-1482,-301,-36,250,270,-230
1,1021319,2467,821,-528,-1482,-301,-36,250,270,-230
1,1021325,2466,825,-524,-1481,-302,-38,250,270,-230
1,1021333,2466,825,-524,-1481,-302,-38,250,270,-230
1,1021339,2466,825,-524,-1481,-302,-38,250,270,-230
1,1021346,2467,826,-532,-1476,-301,-43,250,270,-230
1,1021352,2467,826,-532,-1476,-301,-43,250,270,-230
1,1021358,2467,826,-532,-1476,-301,-43,250,270,-230
1,1021365,2465,821,-528,-1477,-300,-33,250,270,-230
1,1021371,2465,821,-528,-1477,-300,-33,250,270,-230
1,1021377,2465,821,-528,-1477,-300,-33,250,270,-230
1,1021384,2465,821,-527,-1479,-301,-36,250,270,-230
1,1021390,2465,821,-527,-1479,-301,-36,250,270,-230
1,1021398,2465,821,-527,-1479,-301,-36,250,270,-230
1,1021404,2466,825,-528,-1476,-306,-37,240,268,-228
1,1021410,2466,825,-528,-1476,-306,-37,240,268,-228
1,1021415,2466,825,-528,-1476,-306,-37,240,268,-228
1,1021421,2469,824,-530,-1486,-299,-34,240,268,-228
1,1021428,2469,824,-530,-1486,-299,-34,240,268,-228
1,1021434,2469,824,-530,-1486,-299,-34,240,268,-228
1,1021442,2466,825,-524,-1479,-298,-43,240,268,-228
1,1021448,2466,825,-524,-1479,-298,-43,240,268,-228
1,1021454,2466,825,-524,-1479,-298,-43,240,268,-228
1,1021460,2466,825,-524,-1479,-298,-43,240,268,-228
1,1021465,2468,822,-525,-1486,-300,-35,240,268,-228
1,1021471,2468,822,-525,-1486,-300,-35,240,268,-228
1,1021477,2468,822,-525,-1486,-300,-35,240,268,-228
1,1021485,2467,821,-532,-1478,-297,-34,240,268,-228
1,1021492,2467,821,-532,-1478,-297,-34,240,268,-228
1,1021499,2467,821,-532,-1478,-297,-34,240,268,-228
1,1021506,2467,827,-533,-1477,-303,-38,240,268,-228
1,1021512,2467,827,-533,-1477,-303,-38,240,268,-228
1,1021519,2467,827,-533,-1477,-303,-38,240,268,-228
1,1021527,2469,823,-528,-1474,-298,-42,240,268,-228
1,1021532,2469,823,-528,-1474,-298,-42,240,268,-228
1,1021538,2469,823,-528,-1474,-298,-42,240,268,-228
1,1021544,2467,826,-528,-1481,-301,-40,243,267,-235
1,1021551,2467,826,-528,-1481,-301,-40,243,267,-235
1,1021557,2467,826,-528,-1481,-301,-40,243,267,-235
1,1021565,2467,825,-525,-1479,-300,-44,243,267,-235
1,1021572,2467,825,-525,-1479,-300,-44,243,267,-235
1,1021579,2467,825,-525,-1479,-300,-44,243,267,-235
1,1021584,2469,822,-530,-1483,-297,-51,243,267,-235
1,1021590,2469,822,-530,-1483,-297,-51,243,267,-235
1,1021596,2469,822,-530,-1483,-297,-51,243,267,-235
1,1021603,2467,821,-530,-1484,-304,-33,243,267,-235
1,1021609,2467,821,-530,-1484,-304,-33,243,267,-235
1,1021617,2467,821,-530,-1484,-304,-33,243,267,-235
1,1021623,2467,823,-534,-1482,-307,-35,243,267,-235
1,1021630,2467,823,-534,-1482,-307,-35,243,267,-235
1,1021637,2467,823,-534,-1482,-307,-35,243,267,-235
1,1021643,2468,828,-525,-1473,-299,-35,243,267,-235
1,1021650,2468,828,-525,-1473,-299,-35,243,267,-235
1,1021657,2468,828,-525,-1473,-299,-35,243,267,-235
1,1021664,2468,824,-522,-1477,-299,-33,245,269,-235
1,1021670,2468,824,-522,-1477,-299,-33,245,269,-235
1,1021676,2468,824,-522,-1477,-299,-33,245,269,-235
1,1021683,2467,826,-530,-1474,-297,-34,245,269,-235
1,1021688,2467,826,-530,-1474,-297,-34,245,269,-235
1,1021696,2467,826,-530,-1474,-297,-34,245,269,-235
1,1021702,2466,828,-533,-1475,-299,-35,245,269,-235
1,1021710,2466,828,-533,-1475,-299,-35,245,269,-235
1,1021717,2466,828,-533,-1475,-299,-35,245,269,-235
1,1021725,2468,821,-526,-1483,-302,-32,245,269,-235
1,1021732,2468,821,-526,-1483,-302,-32,245,269,-235
1,1021739,2468,821,-526,-1483,-302,-32,245,269,-235
1,1021745,2468,826,-532,-1475,-297,-35,245,269,-235
1,1021752,2468,826,-532,-1475,-297,-35,245,269,-235
1,1021759,2468,826,-532,-1475,-297,-35,245,269,-235
1,1021767,2468,823,-527,-1473,-305,-32,245,269,-235
1,1021773,2468,823,-527,-1473,-305,-32,245,269,-235
1,1021779,2468,823,-527,-1473,-305,-32,245,269,-235
1,1021788,2466,821,-526,-1471,-301,-32,239,261,-229
1,1021794,2466,821,-526,-1471,-301,-32,239,261,-229
1,1021800,2466,821,-526,-1471,-301,-32,239,261,-229
1,1021807,2466,824,-519,-1479,-300,-39,239,261,-229
1,1021813,2466,824,-519,-1479,-300,-39,239,261,-229
1,1021819,2466,824,-519,-1479,-300,-39,239,261,-229
1,1021827,2465,823,-526,-1475,-298,-33,239,261,-229
1,1021835,2465,823,-526,-1475,-298,-33,239,261,-229
1,1021840,2465,823,-526,-1475,-298,-33,239,261,-229
1,1021846,2465,822,-527,-1474,-302,-31,239,261,-229
1,1021851,2465,822,-527,-1474,-302,-31,239,261,-229
1,1021858,2465,822,-527,-1474,-302,-31,239,261,-229
1,1021864,2467,825,-529,-1479,-297,-40,239,261,-229
1,1021871,2467,825,-529,-1479,-297,-40,239,261,-229
1,1021878,2467,825,-529,-1479,-297,-40,239,261,-229
1,1021884,2469,827,-534,-1476,-303,-34,239,261,-229
1,1021891,2469,827,-534,-1476,-303,-34,239,261,-229
1,1021896,2469,827,-534,-1476,-303,-34,239,261,-229
1,1021901,2464,823,-524,-1473,-304,-29,249,273,-235
1,1021908,2464,823,-524,-1473,-304,-29,249,273,-235
1,1021915,2464,823,-524,-1473,-304,-29,249,273,-235
1,1021921,2464,823,-524,-1473,-304,-29,249,273,-235
1,1021927,2464,823,-524,-1473,-304,-29,249,273,-235
1,1021934,2464,823,-524,-1473,-304,-29,249,273,-235
1,1021940,2464,823,-524,-1473,-304,-29,249,273,-235
1,1021946,2468,825,-531,-1477,-308,-39,249,273,-235
1,1021953,2468,825,-531,-1477,-308,-39,249,273,-235
1,1021958,2468,825,-531,-1477,-308,-39,249,273,-235
1,1021964,2467,823,-527,-1474,-301,-40,249,273,-235
1,1021971,2467,823,-527,-1474,-301,-40,249,273,-235
1,1021977,2467,823,-527,-1474,-301,-40,249,273,-235
1,1021985,2467,825,-530,-1470,-306,-36,249,273,-235
1,1021991,2467,825,-530,-1470,-306,-36,249,273,-235
1,1021999,2467,825,-530,-1470,-306,-36,249,273,-235
1,1022005,2466,824,-529,-1474,-308,-39,249,273,-235
1,1022012,2466,824,-529,-1474,-308,-39,249,273,-235
1,1022019,2466,824,-529,-1474,-308,-39,249,273,-235
1,1022025,2466,821,-532,-1481,-294,-44,245,267,-231
1,1022032,2466,821,-532,-1481,-294,-44,245,267,-231
1,1022039,2466,821,-532,-1481,-294,-44,245,267,-231
1,1022045,2468,825,-525,-1483,-298,-36,245,267,-231
1,1022052,2468,825,-525,-1483,-298,-36,245,267,-231
1,1022058,2468,825,-525,-1483,-298,-36,245,267,-231
1,1022065,2466,821,-525,-1481,-300,-31,245,267,-231
1,1022072,2466,821,-525,-1481,-300,-31,245,267,-231
1,1022080,2466,821,-525,-1481,-300,-31,245,267,-231
1,1022087,2470,826,-529,-1476,-304,-33,245,267,-231
1,1022093,2470,826,-529,-1476,-304,-33,245,267,-231
1,1022099,2470,826,-529,-1476,-304,-33,245,267,-231
1,1022105,2468,826,-534,-1484,-300,-32,245,267,-231
1,1022111,2468,826,-534,-1484,-300,-32,245,267,-231
1,1022118,2468,826,-534,-1484,-300,-32,245,267,-231
1,1022125,2467,824,-524,-1481,-308,-46,245,267,-231
1,1022132,2467,824,-524,-1481,-308,-46,245,267,-231
1,1022138,2467,824,-524,-1481,-308,-46,245,267,-231
1,1022144,2466,824,-534,-1483,-303,-43,245,267,-231
1,1022151,2466,824,-534,-1483,-303,-43,245,267,-231
1,1022158,2466,824,-534,-1483,-303,-43,245,267,-231
1,1022164,2468,825,-528,-1484,-304,-36,257,267,-235
1,1022173,2468,825,-528,-1484,-304,-36,257,267,-235
1,1022178,2468,825,-528,-1484,-304,-36,257,267,-235
1,1022186,2468,824,-526,-1481,-303,-37,257,267,-235
1,1022193,2468,824,-526,-1481,-303,-37,257,267,-235
1,1022202,2468,822,-529,-1481,-303,-39,257,267,-235
1,1022209,2468,822,-529,-1481,-303,-39,257,267,-235
1,1022216,2468,822,-529,-1481,-303,-39,257,267,-235
1,1022223,2467,825,-530,-1477,-303,-33,257,267,-235
1,1022229,2467,825,-530,-1477,-303,-33,257,267,-235
1,1022237,2467,825,-530,-1477,-303,-33,257,267,-235
1,1022243,2468,822,-527,-1472,-303,-32,257,267,-235
1,1022249,2468,822,-527,-1472,-303,-32,257,267,-235
1,1022257,2468,822,-527,-1472,-303,-32,257,267,-235
1,1022263,2464,821,-531,-1485,-305,-31,257,267,-235
1,1022269,2464,821,-531,-1485,-305,-31,257,267,-235
1,1022275,2464,821,-531,-1485,-305,-31,257,267,-235
1,1022281,2466,825,-527,-1480,-300,-33,246,272,-230
1,1022288,2466,825,-527,-1480,-300,-33,246,272,-230
1,1022295,2466,825,-527,-1480,-300,-33,246,272,-230
1,1022303,2467,826,-523,-1479,-297,-36,246,272,-230
1,1022310,2467,826,-523,-1479,-297,-36,246,272,-230
1,1022317,2467,826,-523,-1479,-297,-36,246,272,-230
1,1022325,2467,824,-528,-1474,-292,-39,246,272,-230
1,1022331,2467,824,-528,-1474,-292,-39,246,272,-230
1,1022339,2467,824,-528,-1474,-292,-39,246,272,-230
1,1022345,2467,825,-531,-1482,-296,-40,246,272,-230
1,1022353,2467,825,-531,-1482,-296,-40,246,272,-230
1,1022359,2467,825,-531,-1482,-296,-40,246,272,-230
1,1022365,2467,825,-528,-1484,-298,-35,246,272,-230
1,1022370,2467,825,-528,-1484,-298,-35,246,272,-230
1,1022376,2467,825,-528,-1484,-298,-35,246,272,-230
1,1022384,2466,825,-532,-1478,-303,-42,246,272,-230
1,1022391,2466,825,-532,-1478,-303,-42,246,272,-230
1,1022398,2466,825,-532,-1478,-303,-42,246,272,-230
1,1022403,2467,823,-529,-1482,-300,-40,262,268,-238
1,1022410,2467,823,-529,-1482,-300,-40,262,268,-238
1,1022416,2467,823,-529,-1482,-300,-40,262,268,-238
1,1022424,2468,824,-527,-1482,-302,-39,262,268,-238
1,1022431,2468,824,-527,-1482,-302,-39,262,268,-238
1,1022438,2468,824,-527,-1482,-302,-39,262,268,-238
1,1022445,2470,823,-524,-1476,-307,-35,262,268,-238
1,1022452,2470,823,-524,-1476,-307,-35,262,268,-238
1,1022458,2470,823,-524,-1476,-307,-35,262,268,-238
1,1022464,2466,825,-530,-1483,-307,-34,262,268,-238
1,1022472,2466,825,-530,-1483,-307,-34,262,268,-238
1,1022479,2466,825,-530,-1483,-307,-34,262,268,-238
1,1022486,2467,823,-528,-1476,-299,-28,262,268,-238
1,1022493,2467,823,-528,-1476,-299,-28,262,268,-238
1,1022500,2467,823,-528,-1476,-299,-28,262,268,-238
1,1022508,2468,826,-528,-1472,-305,-31,262,268,-238
1,1022514,2468,826,-528,-1472,-305,-31,262,268,-238
1,1022521,2469,822,-526,-1475,-297,-39,252,272,-240
1,1022527,2469,822,-526,-1475,-297,-39,252,272,-240
1,1022534,2469,822,-526,-1475,-297,-39,252,272,-240
1,1022541,2465,822,-526,-1480,-306,-36,252,272,-240
1,1022547,2465,822,-526,-1480,-306,-36,252,272,-240
1,1022555,2465,822,-526,-1480,-306,-36,252,272,-240
1,1022560,2465,822,-526,-1480,-306,-36,252,272,-240
1,1022567,2468,820,-527,-1481,-303,-45,252,272,-240
1,1022573,2468,820,-527,-1481,-303,-45,252,272,-240
1,1022579,2468,820,-527,-1481,-303,-45,252,272,-240
1,1022587,2465,825,-528,-1476,-302,-38,252,272,-240
1,1022594,2465,825,-528,-1476,-302,-38,252,272,-240
1,1022601,2465,825,-528,-1476,-302,-38,252,272,-240
1,1022608,2464,821,-529,-1482,-303,-43,252,272,-240
1,1022616,2464,821,-529,-1482,-303,-43,252,272,-240
1,1022622,2466,823,-535,-1480,-303,-35,252,272,-240
1,1022628,2466,823,-535,-1480,-303,-35,252,272,-240
1,1022635,2466,823,-535,-1480,-303,-35,252,272,-240
1,1022642,2467,822,-535,-1478,-297,-39,252,272,-240
1,1022648,2467,822,-535,-1478,-297,-39,252,272,-240
1,1022654,2467,822,-535,-1478,-297,-39,252,272,-240
1,1022660,2467,822,-535,-1478,-297,-39,252,272,-240
1,1022667,2467,822,-535,-1478,-297,-39,248,268,-232
1,1022672,2467,822,-535,-1478,-297,-39,248,268,-232
1,1022679,2467,822,-535,-1478,-297,-39,248,268,-232
1,1022685,2469,820,-526,-1478,-300,-36,248,268,-232
1,1022693,2469,820,-526,-1478,-300,-36,248,268,-232
1,1022700,2469,820,-526,-1478,-300,-36,248,268,-232
1,1022707,2468,827,-529,-1476,-298,-41,248,268,-232
1,1022714,2468,827,-529,-1476,-298,-41,248,268,-232
1,1022722,2464,823,-528,-1478,-296,-35,248,268,-232
1,1022729,2464,823,-528,-1478,-296,-35,248,268,-232
1,1022734,2464,823,-528,-1478,-296,-35,248,268,-232
1,1022740,2464,823,-528,-1478,-296,-35,248,268,-232
1,1022746,2467,822,-530,-1479,-296,-37,248,268,-232
1,1022752,2467,822,-530,-1479,-296,-37,248,268,-232
1,1022759,2467,822,-530,-1479,-296,-37,248,268,-232
1,1022765,2467,827,-530,-1474,-306,-41,248,268,-232
1,1022773,2467,827,-530,-1474,-306,-41,248,268,-232
1,1022778,2467,827,-530,-1474,-306,-41,248,268,-232
1,1022785,2467,822,-526,-1473,-303,-36,252,272,-242
1,1022790,2467,822,-526,-1473,-303,-36,252,272,-242
1,1022796,2467,822,-526,-1473,-303,-36,252,272,-242
1,1022802,2467,823,-533,-1481,-305,-38,252,272,-242
1,1022809,2467,823,-533,-1481,-305,-38,252,272,-242
1,1022815,2467,823,-533,-1481,-305,-38,252,272,-242
1,1022823,2471,825,-528,-1480,-309,-37,252,272,-242
1,1022829,2471,825,-528,-1480,-309,-37,252,272,-242
1,1022836,2471,825,-528,-1480,-309,-37,252,272,-242
1,1022842,2465,822,-531,-1481,-309,-33,252,272,-242
1,1022850,2465,822,-531,-1481,-309,-33,252,272,-242
1,1022856,2465,822,-531,-1481,-309,-33,252,272,-242
1,1022862,2469,824,-526,-1479,-299,-42,252,272,-242
1,1022870,2469,824,-526,-1479,-299,-42,252,272,-242
1,1022876,2469,824,-526,-1479,-299,-42,252,272,-242
1,1022882,2468,825,-533,-1477,-295,-38,252,272,-242
1,1022889,2468,825,-533,-1477,-295,-38,252,272,-242
1,1022898,2468,825,-533,-1477,-295,-38,252,272,-242
1,1022903,2469,822,-525,-1472,-305,-46,256,268,-242
1,1022911,2469,822,-525,-1472,-305,-46,256,268,-242
1,1022917,2469,822,-525,-1472,-305,-46,256,268,-242
1,1022923,2466,825,-532,-1479,-298,-51,256,268,-242
1,1022928,2466,825,-532,-1479,-298,-51,256,268,-242
1,1022935,2466,825,-532,-1479,-298,-51,256,268,-242
1,1022942,2468,823,-529,-1478,-298,-40,256,268,-242
1,1022948,2468,823,-529,-1478,-298,-40,256,268,-242
1,1022956,2468,823,-529,-1478,-298,-40,256,268,-242
1,1022963,2467,826,-533,-1483,-301,-39,256,268,-242
1,1022969,2467,826,-533,-1483,-301,-39,256,268,-242
1,1022977,2467,826,-533,-1483,-301,-39,256,268,-242
1,1022983,2466,824,-533,-1487,-305,-45,256,268,-242
1,1022988,2466,824,-533,-1487,-305,-45,256,268,-242
1,1022995,2466,824,-533,-1487,-305,-45,256,268,-242
1,1023001,2465,828,-531,-1478,-303,-47,256,268,-242
1,1023007,2465,828,-531,-1478,-303,-47,256,268,-242
1,1023013,2465,828,-531,-1478,-303,-47,256,268,-242
1,1023020,2465,828,-531,-1478,-303,-47,256,268,-242
1,1023027,2466,826,-528,-1475,-308,-37,254,262,-226
1,1023033,2466,826,-528,-1475,-308,-37,254,262,-226
1,1023040,2466,826,-528,-1475,-308,-37,254,262,-226
1,1023046,2467,825,-530,-1477,-301,-40,254,262,-226
1,1023053,2467,825,-530,-1477,-301,-40,254,262,-226
1,1023060,2467,825,-530,-1477,-301,-40,254,262,-226
1,1023068,2469,824,-529,-1482,-298,-37,254,262,-226
1,1023074,2469,824,-529,-1482,-298,-37,254,262,-226
1,1023080,2469,824,-529,-1482,-298,-37,254,262,-226
1,1023086,2468,823,-528,-1482,-305,-41,254,262,-226
1,1023091,2468,823,-528,-1482,-305,-41,254,262,-226
1,1023097,2468,823,-528,-1482,-305,-41,254,262,-226
1,1023105,2466,824,-526,-1482,-300,-37,254,262,-226
1,1023111,2466,824,-526,-1482,-300,-37,254,262,-226
1,1023117,2466,824,-526,-1482,-300,-37,254,262,-226
1,1023124,2466,825,-531,-1482,-300,-35,254,262,-226
1,1023131,2466,825,-531,-1482,-300,-35,254,262,-226
1,1023139,2466,825,-531,-1482,-300,-35,254,262,-226
1,1023148,2468,825,-529,-1480,-300,-43,254,262,-226
1,1023153,2468,825,-529,-1480,-300,-43,254,262,-226
1,1023159,2468,825,-529,-1480,-300,-43,254,262,-226
1,1023165,2467,823,-527,-1470,-307,-47,253,271,-233
1,1023171,2467,823,-527,-1470,-307,-47,253,271,-233
1,1023177,2467,823,-527,-1470,-307,-47,253,271,-233
1,1023183,2464,824,-528,-1475,-305,-41,253,271,-233
1,1023192,2464,824,-528,-1475,-305,-41,253,271,-233
1,1023198,2464,824,-528,-1475,-305,-41,253,271,-233
1,1023204,2465,825,-528,-1475,-304,-36,253,271,-233
1,1023209,2465,825,-528,-1475,-304,-36,253,271,-233
1,1023215,2465,825,-528,-1475,-304,-36,253,271,-233
1,1023222,2465,824,-527,-1478,-303,-43,253,271,-233
1,1023229,2465,824,-527,-1478,-303,-43,253,271,-233
1,1023236,2465,824,-527,-1478,-303,-43,253,271,-233
1,1023244,2466,824,-530,-1482,-307,-37,253,271,-233
1,1023250,2466,824,-530,-1482,-307,-37,253,271,-233
1,1023257,2466,824,-530,-1482,-307,-37,253,271,-233
1,1023264,2465,825,-527,-1482,-307,-39,253,271,-233
1,1023271,2465,825,-527,-1482,-307,-39,253,271,-233
1,1023278,2465,825,-527,-1482,-307,-39,253,271,-233
1,1023284,2467,820,-523,-1477,-298,-34,250,262,-232
1,1023292,2467,820,-523,-1477,-298,-34,250,262,-232
1,1023299,2467,820,-523,-1477,-298,-34,250,262,-232
1,1023305,2468,821,-530,-1483,-302,-40,250,262,-232
1,1023312,2468,821,-530,-1483,-302,-40,250,262,-232
1,1023320,2468,821,-530,-1483,-302,-40,250,262,-232
1,1023325,2464,823,-528,-1480,-302,-44,250,262,-232
1,1023331,2464,823,-528,-1480,-302,-44,250,262,-232
1,1023337,2464,823,-528,-1480,-302,-44,250,262,-232
1,1023344,2465,825,-529,-1477,-302,-37,250,262,-232
1,1023351,2465,825,-529,-1477,-302,-37,250,262,-232
1,1023358,2465,825,-529,-1477,-302,-37,250,262,-232
1,1023367,2467,826,-532,-1477,-302,-41,250,262,-232
1,1023375,2467,826,-532,-1477,-302,-41,250,262,-232
1,1023382,2464,824,-527,-1478,-305,-40,250,262,-232
1,1023388,2464,824,-527,-1478,-305,-40,250,262,-232
1,1023396,2464,824,-527,-1478,-305,-40,250,262,-232
1,1023404,2465,825,-519,-1477,-311,-44,252,264,-224
1,1023411,2465,825,-519,-1477,-311,-44,252,264,-224
1,1023417,2465,825,-519,-1477,-311,-44,252,264,-224
1,1023425,2464,827,-527,-1482,-298,-32,252,264,-224
1,1023432,2464,827,-527,-1482,-298,-32,252,264,-224
1,1023438,2464,827,-527,-1482,-298,-32,252,264,-224
1,1023446,2469,822,-527,-1480,-302,-47,252,264,-224
1,1023452,2469,822,-527,-1480,-302,-47,252,264,-224
1,1023460,2469,822,-527,-1480,-302,-47,252,264,-224
1,1023466,2468,824,-524,-1479,-302,-39,252,264,-224
1,1023472,2468,824,-524,-1479,-302,-39,252,264,-224
1,1023480,2468,824,-524,-1479,-302,-39,252,264,-224
1,1023486,2467,826,-528,-1481,-308,-36,252,264,-224
1,1023493,2467,826,-528,-1481,-308,-36,252,264,-224
1,1023499,2467,826,-528,-1481,-308,-36,252,264,-224
1,1023506,2468,825,-533,-1482,-298,-45,252,264,-224
1,1023513,2468,825,-533,-1482,-298,-45,252,264,-224
1,1023520,2468,825,-533,-1482,-298,-45,252,264,-224
1,1023527,2467,823,-523,-1473,-307,-41,242,272,-234
1,1023534,2467,823,-523,-1473,-307,-41,242,272,-234
1,1023541,2467,823,-523,-1473,-307,-41,242,272,-234
1,1023548,2466,826,-526,-1478,-304,-33,242,272,-234
1,1023554,2466,826,-526,-1478,-304,-33,242,272,-234
1,1023559,2466,826,-526,-1478,-304,-33,242,272,-234
1,1023565,2468,820,-524,-1474,-307,-44,242,272,-234
1,1023571,2468,820,-524,-1474,-307,-44,242,272,-234
1,1023579,2468,820,-524,-1474,-307,-44,242,272,-234
1,1023585,2469,822,-529,-1480,-302,-43,242,272,-234
1,1023593,2469,822,-529,-1480,-302,-43,242,272,-234
1,1023600,2469,822,-529,-1480,-302,-43,242,272,-234
1,1023606,2463,825,-527,-1478,-306,-39,242,272,-234
1,1023613,2463,825,-527,-1478,-306,-39,242,272,-234
1,1023621,2463,825,-527,-1478,-306,-39,242,272,-234
1,1023627,2467,822,-531,-1478,-304,-36,242,272,-234
1,1023634,2467,822,-531,-1478,-304,-36,242,272,-234
1,1023640,2467,822,-531,-1478,-304,-36,242,272,-234
1,1023648,2467,824,-531,-1483,-300,-44,242,272,-234
1,1023654,2467,824,-531,-1483,-300,-44,242,272,-234
1,1023661,2467,824,-531,-1483,-300,-44,242,272,-234
1,1023668,2466,825,-525,-1487,-299,-45,250,266,-238
1,1023674,2466,825,-525,-1487,-299,-45,250,266,-238
1,1023681,2466,825,-525,-1487,-299,-45,250,266,-238
1,1023687,2467,821,-528,-1477,-297,-32,250,266,-238
1,1023695,2467,821,-528,-1477,-297,-32,250,266,-238
1,1023700,2467,821,-528,-1477,-297,-32,250,266,-238
1,1023707,2466,824,-528,-1484,-296,-36,250,266,-238
1,1023714,2466,824,-528,-1484,-296,-36,250,266,-238
1,1023720,2466,824,-528,-1484,-296,-36,250,266,-238
1,1023727,2465,825,-530,-1478,-299,-42,250,266,-238
1,1023733,2465,825,-530,-1478,-299,-42,250,266,-238
1,1023741,2465,825,-530,-1478,-299,-42,250,266,-238
1,1023748,2464,827,-528,-1485,-304,-40,250,266,-238
1,1023754,2464,827,-528,-1485,-304,-40,250,266,-238
1,1023762,2468,825,-529,-1479,-294,-37,250,266,-238
1,1023768,2468,825,-529,-1479,-294,-37,250,266,-238
1,1023774,2468,825,-529,-1479,-294,-37,250,266,-238
1,1023781,2465,824,-528,-1479,-302,-36,250,266,-238
1,1023789,2465,824,-528,-1479,-302,-36,251,271,-241
1,1023795,2465,824,-528,-1479,-302,-36,251,271,-241
1,1023802,2468,824,-528,-1481,-304,-34,251,271,-241
1,1023809,2468,824,-528,-1481,-304,-34,251,271,-241
1,1023815,2468,824,-528,-1481,-304,-34,251,271,-241
1,1023822,2469,824,-534,-1476,-303,-35,251,271,-241
1,1023830,2469,824,-534,-1476,-303,-35,251,271,-241
1,1023835,2469,824,-534,-1476,-303,-35,251,271,-241
1,1023841,2469,824,-534,-1476,-303,-35,251,271,-241
1,1023848,2466,822,-531,-1477,-303,-38,251,271,-241
1,1023854,2466,822,-531,-1477,-303,-38,251,271,-241
1,1023861,2469,823,-529,-1485,-299,-37,251,271,-241
1,1023868,2469,823,-529,-1485,-299,-37,251,271,-241
1,1023876,2469,823,-529,-1485,-299,-37,251,271,-241
1,1023882,2469,822,-530,-1480,-300,-39,251,271,-241
1,1023889,2469,822,-530,-1480,-300,-39,251,271,-241
1,1023895,2469,822,-530,-1480,-300,-39,251,271,-241
1,1023901,2469,822,-530,-1480,-300,-39,251,271,-241
1,1023907,2469,822,-530,-1480,-300,-39,257,267,-231
1,1023915,2469,822,-530,-1480,-300,-39,257,267,-231
1,1023922,2469,822,-530,-1480,-300,-39,257,267,-231
1,1023929,2466,825,-526,-1470,-309,-32,257,267,-231
1,1023936,2466,825,-526,-1470,-309,-32,257,267,-231
1,1023943,2467,824,-529,-1478,-306,-37,257,267,-231
1,1023950,2467,824,-529,-1478,-306,-37,257,267,-231
1,1023959,2467,824,-529,-1478,-306,-37,257,267,-231
1,1023965,2465,824,-527,-1482,-294,-46,257,267,-231
1,1023973,2465,824,-527,-1482,-294,-46,257,267,-231
1,1023979,2465,824,-527,-1482,-294,-46,257,267,-231
1,1023985,2464,825,-532,-1479,-292,-43,257,267,-231
1,1023992,2464,825,-532,-1479,-292,-43,257,267,-231
1,1024000,2464,825,-532,-1479,-292,-43,257,267,-231
1,1024008,2467,822,-532,-1470,-294,-46,257,267,-231
1,1024014,2467,822,-532,-1470,-294,-46,257,267,-231
1,1024021,2465,824,-527,-1477,-300,-34,257,267,-231
1,1024029,2465,824,-527,-1477,-300,-34,244,274,-234
1,1024036,2465,824,-527,-1477,-300,-34,244,274,-234
1,1024041,2467,824,-529,-1479,-305,-34,244,274,-234
1,1024049,2467,824,-529,-1479,-305,-34,244,274,-234
1,1024056,2467,824,-529,-1479,-305,-34,244,274,-234
1,1024063,2470,823,-526,-1471,-305,-33,244,274,-234
1,1024070,2470,823,-526,-1471,-305,-33,244,274,-234
1,1024077,2470,823,-526,-1471,-305,-33,244,274,-234
1,1024084,2465,824,-528,-1472,-303,-32,244,274,-234
1,1024092,2465,824,-528,-1472,-303,-32,244,274,-234
1,1024097,2465,824,-528,-1472,-303,-32,244,274,-234
1,1024104,2467,823,-528,-1480,-297,-34,244,274,-234
1,1024110,2467,823,-528,-1480,-297,-34,244,274,-234
1,1024117,2467,823,-528,-1480,-297,-34,244,274,-234
1,1024123,2467,825,-526,-1484,-307,-41,244,274,-234
1,1024131,2467,825,-526,-1484,-307,-41,244,274,-234
1,1024138,2467,825,-526,-1484,-307,-41,244,274,-234
1,1024145,2468,822,-531,-1481,-304,-36,245,273,-227
1,1024152,2468,822,-531,-1481,-304,-36,245,273,-227
1,1024158,2468,822,-531,-1481,-304,-36,245,273,-227
1,1024163,2469,824,-530,-1482,-308,-36,245,273,-227
1,1024169,2469,824,-530,-1482,-308,-36,245,273,-227
1,1024176,2469,824,-530,-1482,-308,-36,245,273,-227
1,1024184,2467,823,-527,-1474,-300,-38,245,273,-227
1,1024190,2467,823,-527,-1474,-300,-38,245,273,-227
1,1024196,2467,823,-527,-1474,-300,-38,245,273,-227
1,1024203,2467,825,-522,-1479,-301,-42,245,273,-227
1,1024210,2467,825,-522,-1479,-301,-42,245,273,-227
1,1024218,2467,825,-522,-1479,-301,-42,245,273,-227
1,1024226,2467,827,-526,-1478,-299,-36,245,273,-227
1,1024233,2467,827,-526,-1478,-299,-36,245,273,-227
1,1024241,2468,823,-529,-1476,-304,-39,245,273,-227
1,1024247,2468,823,-529,-1476,-304,-39,245,273,-227
1,1024254,2468,823,-529,-1476,-304,-39,245,273,-227
1,1024263,2470,822,-528,-1485,-306,-34,245,273,-227
1,1024269,2470,822,-528,-1485,-306,-34,245,273,-227
1,1024277,2470,822,-528,-1485,-306,-34,245,273,-227
1,1024283,2466,826,-525,-1478,-300,-34,252,270,-232
1,1024290,2466,826,-525,-1478,-300,-34,252,270,-232
1,1024296,2466,826,-525,-1478,-300,-34,252,270,-232
1,1024304,2470,825,-525,-1480,-298,-31,252,270,-232
1,1024309,2470,825,-525,-1480,-298,-31,252,270,-232
1,1024316,2470,825,-525,-1480,-298,-31,252,270,-232
1,1024322,2469,826,-528,-1476,-299,-36,252,270,-232
1,1024329,2469,826,-528,-1476,-299,-36,252,270,-232
1,1024336,2469,826,-528,-1476,-299,-36,252,270,-232
1,1024343,2469,824,-528,-1476,-301,-33,252,270,-232
1,1024349,2469,824,-528,-1476,-301,-33,252,270,-232
1,1024355,2469,824,-528,-1476,-301,-33,252,270,-232
1,1024363,2467,823,-528,-1479,-300,-30,252,270,-232
1,1024369,2467,823,-528,-1479,-300,-30,252,270,-232
1,1024375,2467,823,-528,-1479,-300,-30,252,270,-232
1,1024384,2468,823,-526,-1480,-298,-37,252,270,-232
1,1024390,2468,823,-526,-1480,-298,-37,252,270,-232
1,1024396,2468,823,-526,-1480,-298,-37,252,270,-232
1,1024403,2467,825,-527,-1472,-299,-36,249,265,-231
1,1024410,2467,825,-527,-1472,-299,-36,249,265,-231
1,1024417,2467,825,-527,-1472,-299,-36,249,265,-231
1,1024424,2465,824,-527,-1479,-302,-44,249,265,-231
1,1024431,2465,824,-527,-1479,-302,-44,249,265,-231
1,1024437,2465,824,-527,-1479,-302,-44,249,265,-231
1,1024444,2468,823,-528,-1481,-293,-36,249,265,-231
1,1024451,2468,823,-528,-1481,-293,-36,249,265,-231
1,1024457,2468,823,-528,-1481,-293,-36,249,265,-231
1,1024464,2466,823,-528,-1483,-294,-31,249,265,-231
1,1024471,2466,823,-528,-1483,-294,-31,249,265,-231
1,1024477,2466,823,-528,-1483,-294,-31,249,265,-231
1,1024483,2467,824,-531,-1485,-298,-38,249,265,-231
1,1024489,2467,824,-531,-1485,-298,-38,249,265,-231
1,1024497,2467,824,-531,-1485,-298,-38,249,265,-231
1,1024503,2467,827,-531,-1481,-301,-36,249,265,-231
1,1024510,2467,827,-531,-1481,-301,-36,249,265,-231
1,1024518,2467,827,-531,-1481,-301,-36,249,265,-231
1,1024525,2467,822,-527,-1478,-304,-42,244,274,-238
1,1024532,2467,822,-527,-1478,-304,-42,244,274,-238
1,1024537,2467,822,-527,-1478,-304,-42,244,274,-238
1,1024544,2468,826,-527,-1483,-312,-45,244,274,-238
1,1024549,2468,826,-527,-1483,-312,-45,244,274,-238
1,1024558,2468,826,-527,-1483,-312,-45,244,274,-238
1,1024566,2466,821,-525,-1472,-297,-46,244,274,-238
1,1024572,2466,821,-525,-1472,-297,-46,244,274,-238
1,1024580,2466,821,-525,-1472,-297,-46,244,274,-238
1,1024586,2467,824,-525,-1476,-303,-44,244,274,-238
1,1024592,2467,824,-525,-1476,-303,-44,244,274,-238
1,1024601,2467,824,-525,-1476,-303,-44,244,274,-238
1,1024607,2468,825,-524,-1481,-304,-33,244,274,-238
1,1024615,2468,825,-524,-1481,-304,-33,244,274,-238
1,1024622,2468,823,-528,-1477,-304,-43,244,274,-238
1,1024628,2468,823,-528,-1477,-304,-43,244,274,-238
1,1024635,2468,823,-528,-1477,-304,-43,244,274,-238
1,1024643,2467,821,-528,-1480,-297,-41,250,268,-230
1,1024650,2467,821,-528,-1480,-297,-41,250,268,-230
1,1024657,2467,821,-528,-1480,-297,-41,250,268,-230
1,1024663,2467,825,-528,-1479,-300,-38,250,268,-230
1,1024669,2467,825,-528,-1479,-300,-38,250,268,-230
1,1024675,2467,825,-528,-1479,-300,-38,250,268,-230
1,1024683,2465,822,-527,-1482,-300,-41,250,268,-230
1,1024690,2465,822,-527,-1482,-300,-41,250,268,-230
1,1024698,2465,822,-527,-1482,-300,-41,250,268,-230
1,1024705,2467,824,-530,-1483,-309,-42,250,268,-230
1,1024711,2467,824,-530,-1483,-309,-42,250,268,-230
1,1024716,2467,824,-530,-1483,-309,-42,250,268,-230
1,1024722,2469,825,-527,-1472,-301,-45,250,268,-230
1,1024729,2469,825,-527,-1472,-301,-45,250,268,-230
1,1024736,2469,825,-527,-1472,-301,-45,250,268,-230
1,1024742,2469,823,-532,-1472,-305,-39,250,268,-230
1,1024750,2469,823,-532,-1472,-305,-39,250,268,-230
1,1024755,2469,823,-532,-1472,-305,-39,250,268,-230
1,1024763,2466,824,-529,-1481,-301,-40,250,268,-230
1,1024770,2466,824,-529,-1481,-301,-40,250,268,-230
1,1024775,2466,824,-529,-1481,-301,-40,250,268,-230
1,1024780,2466,824,-529,-1481,-301,-40,250,268,-230
1,1024788,2466,821,-526,-1474,-302,-40,253,261,-231
1,1024793,2466,821,-526,-1474,-302,-40,253,261,-231
1,1024799,2466,821,-526,-1474,-302,-40,253,261,-231
1,1024806,2463,822,-526,-1475,-295,-41,253,261,-231
1,1024813,2463,822,-526,-1475,-295,-41,253,261,-231
1,1024820,2463,822,-526,-1475,-295,-41,253,261,-231
1,1024827,2467,824,-526,-1477,-301,-49,253,261,-231
1,1024834,2467,824,-526,-1477,-301,-49,253,261,-231
1,1024841,2467,824,-526,-1477,-301,-49,253,261,-231
1,1024847,2467,823,-529,-1470,-306,-39,253,261,-231
1,1024856,2467,823,-529,-1470,-306,-39,253,261,-231
1,1024862,2467,824,-529,-1473,-306,-37,253,261,-231
1,1024870,2467,824,-529,-1473,-306,-37,253,261,-231
1,1024875,2467,824,-529,-1473,-306,-37,253,261,-231
1,1024883,2469,825,-525,-1477,-310,-29,253,261,-231
1,1024890,2469,825,-525,-1477,-310,-29,253,261,-231
1,1024899,2469,825,-525,-1477,-310,-29,253,261,-231
1,1024906,2465,824,-525,-1477,-300,-30,246,262,-220
1,1024911,2465,824,-525,-1477,-300,-30,246,262,-220
1,1024918,2465,824,-525,-1477,-300,-30,246,262,-220
1,1024924,2466,822,-527,-1481,-306,-36,246,262,-220
1,1024933,2466,822,-527,-1481,-306,-36,246,262,-220
1,1024940,2466,822,-527,-1481,-306,-36,246,262,-220
1,1024948,2465,821,-526,-1482,-302,-36,246,262,-220
1,1024955,2465,821,-526,-1482,-302,-36,246,262,-220
1,1024962,2469,820,-530,-1479,-297,-38,246,262,-220
1,1024967,2469,820,-530,-1479,-297,-38,246,262,-220
1,1024975,2469,820,-530,-1479,-297,-38,246,262,-220
1,1024984,2468,821,-527,-1484,-299,-38,246,262,-220
1,1024992,2468,821,-527,-1484,-299,-38,246,262,-220
1,1024999,2468,821,-527,-1484,-299,-38,246,262,-220
1,1025006,2467,824,-527,-1480,-301,-37,246,262,-220
1,1025013,2467,824,-527,-1480,-301,-37,246,262,-220
1,1025020,2467,824,-527,-1480,-301,-37,246,262,-220
1,1025028,2469,825,-523,-1477,-303,-37,249,269,-239
1,1025034,2469,825,-523,-1477,-303,-37,249,269,-239
1,1025040,2469,825,-523,-1477,-303,-37,249,269,-239
1,1025046,2468,822,-526,-1480,-303,-37,249,269,-239
1,1025051,2468,822,-526,-1480,-303,-37,249,269,-239
1,1025058,2468,822,-526,-1480,-303,-37,249,269,-239
1,1025068,2468,823,-529,-1477,-306,-39,249,269,-239
1,1025075,2468,823,-529,-1477,-306,-39,249,269,-239
1,1025082,2463,822,-527,-1480,-302,-44,249,269,-239
1,1025088,2463,822,-527,-1480,-302,-44,249,269,-239
1,1025094,2463,822,-527,-1480,-302,-44,249,269,-239
1,1025102,2467,823,-531,-1478,-304,-36,249,269,-239
1,1025108,2467,823,-531,-1478,-304,-36,249,269,-239
1,1025115,2467,823,-531,-1478,-304,-36,249,269,-239
1,1025122,2466,821,-529,-1486,-298,-36,249,269,-239
1,1025128,2466,821,-529,-1486,-298,-36,249,269,-239
1,1025135,2466,821,-529,-1486,-298,-36,249,269,-239
1,1025142,2464,822,-528,-1477,-305,-38,249,269,-239
1,1025148,2464,822,-528,-1477,-305,-38,248,270,-238
1,1025157,2464,822,-528,-1477,-305,-38,248,270,-238
1,1025164,2465,825,-531,-1475,-300,-26,248,270,-238
1,1025169,2465,825,-531,-1475,-300,-26,248,270,-238
1,1025175,2465,825,-531,-1475,-300,-26,248,270,-238
1,1025182,2468,823,-530,-1473,-295,-36,248,270,-238
1,1025188,2468,823,-530,-1473,-295,-36,248,270,-238
1,1025197,2468,823,-530,-1473,-295,-36,248,270,-238
1,1025204,2465,824,-527,-1470,-304,-31,248,270,-238
1,1025210,2465,824,-527,-1470,-304,-31,248,270,-238
1,1025218,2465,824,-527,-1470,-304,-31,248,270,-238
1,1025225,2468,823,-529,-1469,-298,-36,248,270,-238
1,1025231,2468,823,-529,-1469,-298,-36,248,270,-238
1,1025239,2468,823,-529,-1469,-298,-36,248,270,-238
1,1025246,2467,821,-531,-1476,-303,-34,248,270,-238
1,1025253,2467,821,-531,-1476,-303,-34,248,270,-238
1,1025260,2467,821,-531,-1476,-303,-34,248,270,-238
1,1025268,2468,827,-528,-1478,-298,-31,248,270,-238
1,1025275,2468,827,-528,-1478,-298,-31,248,270,-238
1,1025283,2467,824,-528,-1477,-296,-35,256,268,-228
1,1025289,2467,824,-528,-1477,-296,-35,256,268,-228
1,1025296,2467,824,-528,-1477,-296,-35,256,268,-228
1,1025304,2465,822,-529,-1479,-295,-38,256,268,-228
1,1025311,2465,822,-529,-1479,-295,-38,256,268,-228
1,1025317,2465,822,-529,-1479,-295,-38,256,268,-228
1,1025325,2466,821,-526,-1480,-303,-44,256,268,-228
1,1025332,2466,821,-526,-1480,-303,-44,256,268,-228
1,1025339,2466,821,-526,-1480,-303,-44,256,268,-228
1,1025346,2468,823,-527,-1474,-300,-44,256,268,-228
1,1025354,2468,823,-527,-1474,-300,-44,256,268,-228
1,1025360,2468,823,-527,-1474,-300,-44,256,268,-228
1,1025369,2467,823,-531,-1479,-308,-39,256,268,-228
1,1025376,2467,823,-531,-1479,-308,-39,256,268,-228
1,1025381,2467,823,-531,-1479,-308,-39,256,268,-228
1,1025388,2467,824,-528,-1479,-300,-33,256,268,-228
1,1025394,2467,824,-528,-1479,-300,-33,256,268,-228
1,1025400,2467,824,-528,-1479,-300,-33,256,268,-228
1,1025406,2469,823,-524,-1477,-306,-40,247,267,-237
1,1025415,2469,823,-524,-1477,-306,-40,247,267,-237
1,1025420,2469,823,-524,-1477,-306,-40,247,267,-237
1,1025427,2468,823,-527,-1475,-303,-35,247,267,-237
1,1025433,2468,823,-527,-1475,-303,-35,247,267,-237
1,1025440,2468,823,-527,-1475,-303,-35,247,267,-237
1,1025447,2466,826,-525,-1478,-301,-35,247,267,-237
1,1025454,2466,826,-525,-1478,-301,-35,247,267,-237
1,1025462,2466,826,-525,-1478,-301,-35,247,267,-237
1,1025470,2469,823,-529,-1487,-308,-30,247,267,-237
1,1025475,2469,823,-529,-1487,-308,-30,247,267,-237
1,1025482,2469,824,-533,-1481,-305,-33,247,267,-237
1,1025487,2469,824,-533,-1481,-305,-33,247,267,-237
1,1025496,2469,824,-533,-1481,-305,-33,247,267,-237
1,1025503,2467,821,-532,-1481,-303,-40,247,267,-237
1,1025511,2467,821,-532,-1481,-303,-40,247,267,-237
1,1025517,2467,821,-532,-1481,-303,-40,247,267,-237
1,1025524,2463,824,-523,-1480,-303,-41,252,278,-236
1,1025530,2463,824,-523,-1480,-303,-41,252,278,-236
1,1025538,2463,824,-523,-1480,-303,-41,252,278,-236
1,1025545,2466,820,-526,-1480,-301,-41,252,278,-236
1,1025552,2466,820,-526,-1480,-301,-41,252,278,-236
1,1025559,2466,820,-526,-1480,-301,-41,252,278,-236
1,1025565,2466,826,-532,-1479,-296,-42,252,278,-236
1,1025573,2466,826,-532,-1479,-296,-42,252,278,-236
1,1025580,2466,826,-532,-1479,-296,-42,252,278,-236
1,1025588,2468,824,-528,-1480,-300,-41,252,278,-236
1,1025596,2468,824,-528,-1480,-300,-41,252,278,-236
1,1025604,2468,827,-528,-1475,-298,-39,252,278,-236
1,1025611,2468,827,-528,-1475,-298,-39,252,278,-236
1,1025619,2468,827,-528,-1475,-298,-39,252,278,-236
1,1025626,2467,823,-529,-1482,-297,-40,252,278,-236
1,1025632,2467,823,-529,-1482,-297,-40,252,278,-236
1,1025638,2467,823,-529,-1482,-297,-40,252,278,-236
1,1025644,2467,821,-530,-1478,-300,-49,249,269,-235
1,1025651,2467,821,-530,-1478,-300,-49,249,269,-235
1,1025658,2467,821,-530,-1478,-300,-49,249,269,-235
1,1025666,2465,826,-528,-1483,-298,-46,249,269,-235
1,1025673,2465,826,-528,-1483,-298,-46,249,269,-235
1,1025679,2465,826,-528,-1483,-298,-46,249,269,-235
1,1025687,2465,825,-527,-1480,-298,-43,249,269,-235
1,1025693,2465,825,-527,-1480,-298,-43,249,269,-235
1,1025700,2465,825,-527,-1480,-298,-43,249,269,-235
1,1025705,2466,822,-530,-1482,-303,-43,249,269,-235
1,1025713,2466,822,-530,-1482,-303,-43,249,269,-235
1,1025721,2466,822,-530,-1482,-303,-43,249,269,-235
1,1025728,2466,822,-530,-1482,-303,-43,249,269,-235
1,1025736,2466,822,-530,-1482,-303,-43,249,269,-235
1,1025744,2466,823,-533,-1489,-304,-36,249,269,-235
1,1025753,2466,823,-533,-1489,-304,-36,249,269,-235
1,1025760,2466,823,-533,-1489,-304,-36,249,269,-235
1,1025766,2466,826,-536,-1480,-300,-37,249,269,-235
1,1025771,2466,826,-536,-1480,-300,-37,249,269,-235
1,1025778,2466,826,-536,-1480,-300,-37,249,269,-235
1,1025784,2466,827,-529,-1480,-302,-29,253,267,-231
1,1025792,2466,827,-529,-1480,-302,-29,253,267,-231
1,1025798,2466,827,-529,-1480,-302,-29,253,267,-231
1,1025806,2468,823,-528,-1487,-295,-36,253,267,-231
1,1025812,2468,823,-528,-1487,-295,-36,253,267,-231
1,1025819,2468,823,-528,-1487,-295,-36,253,267,-231
1,1025826,2469,822,-530,-1479,-300,-33,253,267,-231
1,1025835,2469,822,-530,-1479,-300,-33,253,267,-231
1,1025842,2469,822,-530,-1479,-300,-33,253,267,-231
1,1025848,2468,822,-532,-1479,-301,-35,253,267,-231
1,1025856,2468,822,-532,-1479,-301,-35,253,267,-231
1,1025862,2470,823,-525,-1485,-298,-39,253,267,-231
1,1025868,2470,823,-525,-1485,-298,-39,253,267,-231
1,1025874,2470,823,-525,-1485,-298,-39,253,267,-231
1,1025882,2468,825,-533,-1478,-303,-33,253,267,-231
1,1025890,2468,825,-533,-1478,-303,-33,253,267,-231
1,1025897,2468,825,-533,-1478,-303,-33,253,267,-231
1,1025905,2471,826,-524,-1483,-303,-32,247,267,-237
1,1025912,2471,826,-524,-1483,-303,-32,247,267,-237
1,1025918,2471,826,-524,-1483,-303,-32,247,267,-237
1,1025927,2466,824,-529,-1484,-300,-36,247,267,-237
1,1025934,2466,824,-529,-1484,-300,-36,247,267,-237
1,1025943,2465,826,-527,-1482,-294,-37,247,267,-237
1,1025950,2465,826,-527,-1482,-294,-37,247,267,-237
1,1025958,2465,826,-527,-1482,-294,-37,247,267,-237
1,1025964,2464,822,-532,-1478,-298,-38,247,267,-237
1,1025973,2464,822,-532,-1478,-298,-38,247,267,-237
1,1025980,2464,822,-532,-1478,-298,-38,247,267,-237
1,1025986,2467,823,-529,-1473,-299,-43,247,267,-237
1,1025994,2467,823,-529,-1473,-299,-43,247,267,-237
1,1026001,2467,823,-529,-1473,-299,-43,247,267,-237
1,1026007,2465,823,-532,-1474,-298,-39,247,267,-237
1,1026013,2465,823,-532,-1474,-298,-39,247,267,-237
1,1026019,2465,823,-532,-1474,-298,-39,247,267,-237
1,1026026,2467,822,-524,-1472,-292,-41,249,267,-237
1,1026034,2467,822,-524,-1472,-292,-41,249,267,-237
1,1026041,2467,822,-524,-1472,-292,-41,249,267,-237
1,1026050,2464,823,-527,-1478,-300,-39,249,267,-237
1,1026057,2464,823,-527,-1478,-300,-39,249,267,-237
1,1026065,2469,824,-527,-1474,-302,-38,249,267,-237
1,1026073,2469,824,-527,-1474,-302,-38,249,267,-237
1,1026080,2469,824,-527,-1474,-302,-38,249,267,-237
1,1026086,2465,824,-530,-1482,-299,-37,249,267,-237
1,1026093,2465,824,-530,-1482,-299,-37,249,267,-237
1,1026101,2465,824,-530,-1482,-299,-37,249,267,-237
1,1026106,2467,824,-527,-1479,-303,-35,249,267,-237
1,1026111,2467,824,-527,-1479,-303,-35,249,267,-237
1,1026116,2467,824,-527,-1479,-303,-35,249,267,-237
1,1026123,2466,822,-530,-1475,-305,-35,249,267,-237
1,1026129,2466,822,-530,-1475,-305,-35,249,267,-237
1,1026136,2466,822,-530,-1475,-305,-35,249,267,-237
1,1026142,2466,822,-530,-1475,-305,-35,249,267,-237
1,1026148,2468,823,-527,-1473,-299,-38,246,262,-240
1,1026154,2468,823,-527,-1473,-299,-38,246,262,-240
1,1026160,2468,823,-527,-1473,-299,-38,246,262,-240
1,1026166,2465,824,-528,-1472,-294,-39,246,262,-240
1,1026173,2465,824,-528,-1472,-294,-39,246,262,-240
1,1026180,2465,824,-528,-1472,-294,-39,246,262,-240
1,1026186,2467,822,-529,-1473,-303,-40,246,262,-240
1,1026191,2467,822,-529,-1473,-303,-40,246,262,-240
1,1026198,2467,822,-529,-1473,-303,-40,246,262,-240
1,1026204,2468,825,-525,-1473,-296,-37,246,262,-240
1,1026210,2468,825,-525,-1473,-296,-37,246,262,-240
1,1026216,2468,825,-525,-1473,-296,-37,246,262,-240
1,1026224,2467,826,-531,-1478,-297,-39,246,262,-240
1,1026231,2467,826,-531,-1478,-297,-39,246,262,-240
1,1026237,2467,826,-531,-1478,-297,-39,246,262,-240
1,1026244,2466,823,-532,-1477,-294,-35,246,262,-240
1,1026250,2466,823,-532,-1477,-294,-35,246,262,-240
1,1026257,2466,823,-532,-1477,-294,-35,246,262,-240
1,1026263,2462,821,-530,-1483,-304,-38,246,262,-240
1,1026269,2462,821,-530,-1483,-304,-38,246,262,-240
1,1026274,2462,821,-530,-1483,-304,-38,246,262,-240
1,1026280,2462,821,-530,-1483,-304,-38,246,262,-240
1,1026286,2466,824,-524,-1480,-311,-38,249,263,-233
1,1026292,2466,824,-524,-1480,-311,-38,249,263,-233
1,1026299,2466,824,-524,-1480,-311,-38,249,263,-233
1,1026308,2469,825,-526,-1479,-305,-32,249,263,-233
1,1026313,2469,825,-526,-1479,-305,-32,249,263,-233
1,1026319,2469,825,-526,-1479,-305,-32,249,263,-233
1,1026324,2466,822,-530,-1469,-309,-41,249,263,-233
1,1026331,2466,822,-530,-1469,-309,-41,249,263,-233
1,1026337,2466,822,-530,-1469,-309,-41,249,263,-233
1,1026342,2465,821,-529,-1477,-306,-47,249,263,-233
1,1026349,2465,821,-529,-1477,-306,-47,249,263,-233
1,1026355,2465,821,-529,-1477,-306,-47,249,263,-233
1,1026362,2467,823,-526,-1476,-296,-41,249,263,-233
1,1026368,2467,823,-526,-1476,-296,-41,249,263,-233
1,1026375,2467,823,-526,-1476,-296,-41,249,263,-233
1,1026381,2467,823,-526,-1476,-296,-41,249,263,-233
1,1026387,2467,824,-531,-1478,-303,-41,249,263,-233
1,1026395,2467,824,-531,-1478,-303,-41,249,263,-233
1,1026402,2467,824,-531,-1478,-303,-41,249,263,-233
1,1026409,2467,824,-531,-1478,-303,-41,256,278,-228
1,1026415,2467,824,-531,-1478,-303,-41,256,278,-228
1,1026421,2467,824,-531,-1478,-303,-41,256,278,-228
1,1026427,2465,822,-524,-1479,-301,-37,256,278,-228
1,1026434,2465,822,-524,-1479,-301,-37,256,278,-228
1,1026441,2465,822,-524,-1479,-301,-37,256,278,-228
1,1026447,2465,822,-524,-1479,-301,-37,256,278,-228
1,1026453,2465,822,-524,-1479,-301,-37,256,278,-228
1,1026459,2465,822,-524,-1479,-301,-37,256,278,-228
1,1026465,2466,825,-525,-1475,-301,-37,256,278,-228
1,1026470,2466,825,-525,-1475,-301,-37,256,278,-228
1,1026477,2466,825,-525,-1475,-301,-37,256,278,-228
1,1026483,2466,823,-528,-1471,-294,-39,256,278,-228
1,1026491,2466,823,-528,-1471,-294,-39,256,278,-228
1,1026498,2466,823,-528,-1471,-294,-39,256,278,-228
1,1026504,2467,824,-530,-1474,-294,-39,256,278,-228
1,1026510,2467,824,-530,-1474,-294,-39,256,278,-228
1,1026516,2467,824,-530,-1474,-294,-39,256,278,-228
1,1026525,2467,824,-526,-1476,-297,-44,251,273,-233
1,1026531,2467,824,-526,-1476,-297,-44,251,273,-233
1,1026537,2467,824,-526,-1476,-297,-44,251,273,-233
1,1026543,2465,822,-527,-1477,-301,-40,251,273,-233
1,1026551,2465,822,-527,-1477,-301,-40,251,273,-233
1,1026557,2465,822,-527,-1477,-301,-40,251,273,-233
1,1026565,2469,824,-528,-1477,-297,-42,251,273,-233
1,1026571,2469,824,-528,-1477,-297,-42,251,273,-233
1,1026577,2469,824,-528,-1477,-297,-42,251,273,-233
1,1026583,2466,821,-531,-1481,-308,-42,251,273,-233
1,1026589,2466,821,-531,-1481,-308,-42,251,273,-233
1,1026595,2466,821,-531,-1481,-308,-42,251,273,-233
1,1026601,2466,821,-531,-1481,-308,-42,251,273,-233
1,1026609,2468,824,-529,-1475,-306,-43,251,273,-233
1,1026615,2468,824,-529,-1475,-306,-43,251,273,-233
1,1026621,2468,824,-529,-1475,-306,-43,251,273,-233
1,1026627,2464,822,-527,-1481,-305,-42,251,273,-233
1,1026633,2464,822,-527,-1481,-305,-42,251,273,-233
1,1026639,2464,822,-527,-1481,-305,-42,251,273,-233
1,1026647,2468,825,-525,-1478,-300,-35,250,260,-240
1,1026653,2468,825,-525,-1478,-300,-35,250,260,-240
1,1026660,2468,825,-525,-1478,-300,-35,250,260,-240
1,1026665,2467,824,-528,-1482,-299,-33,250,260,-240
1,1026671,2467,824,-528,-1482,-299,-33,250,260,-240
1,1026678,2467,824,-528,-1482,-299,-33,250,260,-240
1,1026685,2467,823,-529,-1478,-302,-34,250,260,-240
1,1026692,2467,823,-529,-1478,-302,-34,250,260,-240
1,1026700,2467,823,-529,-1478,-302,-34,250,260,-240
1,1026706,2466,823,-527,-1473,-302,-42,250,260,-240
1,1026712,2466,823,-527,-1473,-302,-42,250,260,-240
1,1026719,2466,823,-527,-1473,-302,-42,250,260,-240
1,1026726,2465,821,-531,-1480,-300,-41,250,260,-240
1,1026733,2465,821,-531,-1480,-300,-41,250,260,-240
1,1026740,2465,821,-531,-1480,-300,-41,250,260,-240
1,1026747,2465,823,-526,-1470,-300,-43,250,260,-240
1,1026753,2465,823,-526,-1470,-300,-43,250,260,-240
1,1026759,2465,823,-526,-1470,-300,-43,250,260,-240
1,1026765,2468,823,-525,-1471,-302,-39,244,276,-230
1,1026771,2468,823,-525,-1471,-302,-39,244,276,-230
1,1026778,2468,823,-525,-1471,-302,-39,244,276,-230
1,1026784,2470,821,-528,-1477,-309,-40,244,276,-230
1,1026790,2470,821,-528,-1477,-309,-40,244,276,-230
1,1026797,2470,821,-528,-1477,-309,-40,244,276,-230
1,1026803,2467,823,-528,-1481,-306,-42,244,276,-230
1,1026810,2467,823,-528,-1481,-306,-42,244,276,-230
1,1026817,2467,823,-528,-1481,-306,-42,244,276,-230
1,1026822,2467,823,-528,-1481,-306,-42,244,276,-230
1,1026829,2465,827,-531,-1477,-300,-40,244,276,-230
1,1026835,2465,827,-531,-1477,-300,-40,244,276,-230
1,1026840,2465,827,-531,-1477,-300,-40,244,276,-230
1,1026847,2467,823,-526,-1473,-309,-39,244,276,-230
1,1026854,2467,823,-526,-1473,-309,-39,244,276,-230
1,1026861,2467,823,-526,-1473,-309,-39,244,276,-230
1,1026867,2466,824,-530,-1480,-302,-42,244,276,-230
1,1026872,2466,824,-530,-1480,-302,-42,244,276,-230
1,1026878,2466,824,-530,-1480,-302,-42,244,276,-230
1,1026884,2468,825,-528,-1477,-298,-38,244,276,-230
1,1026890,2468,825,-528,-1477,-298,-38,244,276,-230
1,1026897,2468,825,-528,-1477,-298,-38,244,276,-230
1,1026904,2465,825,-524,-1475,-303,-42,240,266,-234
1,1026910,2465,825,-524,-1475,-303,-42,240,266,-234
1,1026916,2465,825,-524,-1475,-303,-42,240,266,-234
1,1026923,2466,824,-528,-1479,-297,-35,240,266,-234
1,1026929,2466,824,-528,-1479,-297,-35,240,266,-234
1,1026936,2466,824,-528,-1479,-297,-35,240,266,-234
1,1026944,2467,822,-526,-1480,-296,-34,240,266,-234
1,1026951,2467,822,-526,-1480,-296,-34,240,266,-234
1,1026956,2467,822,-526,-1480,-296,-34,240,266,-234
1,1026963,2467,826,-533,-1477,-304,-36,240,266,-234
1,1026969,2467,826,-533,-1477,-304,-36,240,266,-234
1,1026976,2467,826,-533,-1477,-304,-36,240,266,-234
1,1026982,2471,825,-531,-1479,-301,-35,240,266,-234
1,1026989,2471,825,-531,-1479,-301,-35,240,266,-234
1,1026995,2471,825,-531,-1479,-301,-35,240,266,-234
1,1027001,2471,825,-531,-1479,-301,-35,240,266,-234
1,1027008,2467,825,-530,-1484,-299,-30,240,266,-234
1,1027015,2467,825,-530,-1484,-299,-30,240,266,-234
1,1027021,2467,825,-530,-1484,-299,-30,240,266,-234
1,1027028,2465,823,-523,-1485,-304,-38,245,263,-229
1,1027035,2465,823,-523,-1485,-304,-38,245,263,-229
1,1027041,2465,823,-523,-1485,-304,-38,245,263,-229
1,1027048,2468,823,-530,-1481,-304,-39,245,263,-229
1,1027054,2468,823,-530,-1481,-304,-39,245,263,-229
1,1027061,2468,823,-530,-1481,-304,-39,245,263,-229
1,1027066,2466,827,-527,-1480,-303,-37,245,263,-229
1,1027073,2466,827,-527,-1480,-303,-37,245,263,-229
1,1027079,2466,827,-527,-1480,-303,-37,245,263,-229
1,1027086,2468,822,-530,-1484,-296,-45,245,263,-229
1,1027092,2468,822,-530,-1484,-296,-45,245,263,-229
1,1027098,2468,822,-530,-1484,-296,-45,245,263,-229
1,1027105,2465,826,-532,-1487,-295,-39,245,263,-229
1,1027112,2465,826,-532,-1487,-295,-39,245,263,-229
1,1027119,2465,826,-532,-1487,-295,-39,245,263,-229
1,1027126,2466,824,-528,-1485,-302,-38,245,263,-229
1,1027132,2466,824,-528,-1485,-302,-38,245,263,-229
1,1027139,2466,824,-528,-1485,-302,-38,245,263,-229
1,1027146,2466,823,-527,-1487,-297,-34,254,272,-226
1,1027152,2466,823,-527,-1487,-297,-34,254,272,-226
1,1027160,2466,823,-527,-1487,-297,-34,254,272,-226
1,1027166,2468,821,-526,-1477,-297,-39,254,272,-226
1,1027172,2468,821,-526,-1477,-297,-39,254,272,-226
1,1027179,2468,821,-526,-1477,-297,-39,254,272,-226
1,1027185,2465,824,-529,-1477,-298,-39,254,272,-226
1,1027191,2465,824,-529,-1477,-298,-39,254,272,-226
1,1027198,2465,824,-529,-1477,-298,-39,254,272,-226
1,1027204,2468,825,-529,-1484,-299,-34,254,272,-226
1,1027210,2468,825,-529,-1484,-299,-34,254,272,-226
1,1027216,2468,825,-529,-1484,-299,-34,254,272,-226
1,1027223,2465,824,-533,-1475,-300,-36,254,272,-226
1,1027229,2465,824,-533,-1475,-300,-36,254,272,-226
1,1027235,2465,824,-533,-1475,-300,-36,254,272,-226
1,1027240,2465,824,-533,-1475,-300,-36,254,272,-226
1,1027247,2467,821,-529,-1476,-300,-40,254,272,-226
1,1027252,2467,821,-529,-1476,-300,-40,254,272,-226
1,1027259,2467,821,-529,-1476,-300,-40,254,272,-226
1,1027264,2466,824,-528,-1472,-301,-36,247,275,-227
1,1027271,2466,824,-528,-1472,-301,-36,247,275,-227
1,1027276,2466,824,-528,-1472,-301,-36,247,275,-227
1,1027282,2469,827,-527,-1476,-299,-38,247,275,-227
1,1027289,2469,827,-527,-1476,-299,-38,247,275,-227
1,1027296,2469,827,-527,-1476,-299,-38,247,275,-227
1,1027304,2467,825,-530,-1479,-294,-39,247,275,-227
1,1027310,2467,825,-530,-1479,-294,-39,247,275,-227
1,1027316,2467,825,-530,-1479,-294,-39,247,275,-227
1,1027322,2467,826,-529,-1473,-305,-41,247,275,-227
1,1027331,2467,826,-529,-1473,-305,-41,247,275,-227
1,1027338,2467,826,-529,-1473,-305,-41,247,275,-227
1,1027346,2464,825,-527,-1476,-301,-41,247,275,-227
1,1027352,2464,825,-527,-1476,-301,-41,247,275,-227
1,1027358,2464,825,-527,-1476,-301,-41,247,275,-227
1,1027363,2469,825,-527,-1474,-307,-37,247,275,-227
1,1027369,2469,825,-527,-1474,-307,-37,247,275,-227
1,1027376,2469,825,-527,-1474,-307,-37,247,275,-227
1,1027381,2469,825,-527,-1474,-307,-37,247,275,-227
1,1027387,2469,825,-527,-1474,-307,-37,247,275,-227
1,1027393,2469,825,-527,-1474,-307,-37,247,275,-227
1,1027399,2469,825,-527,-1474,-307,-37,247,275,-227
1,1027405,2464,825,-523,-1473,-293,-38,245,271,-225
1,1027414,2464,825,-523,-1473,-293,-38,245,271,-225
1,1027420,2464,825,-523,-1473,-293,-38,245,271,-225
1,1027426,2466,825,-524,-1477,-293,-38,245,271,-225
1,1027433,2466,825,-524,-1477,-293,-38,245,271,-225
1,1027438,2466,825,-524,-1477,-293,-38,245,271,-225
1,1027444,2465,823,-531,-1483,-295,-35,245,271,-225
1,1027450,2465,823,-531,-1483,-295,-35,245,271,-225
1,1027458,2465,823,-531,-1483,-295,-35,245,271,-225
1,1027464,2469,824,-534,-1478,-302,-31,245,271,-225
1,1027470,2469,824,-534,-1478,-302,-31,245,271,-225
1,1027477,2469,824,-534,-1478,-302,-31,245,271,-225
1,1027484,2469,822,-531,-1474,-301,-38,245,271,-225
1,1027491,2469,822,-531,-1474,-301,-38,245,271,-225
1,1027497,2469,822,-531,-1474,-301,-38,245,271,-225
1,1027504,2464,823,-527,-1476,-298,-39,245,271,-225
1,1027510,2464,823,-527,-1476,-298,-39,245,271,-225
1,1027515,2464,823,-527,-1476,-298,-39,245,271,-225
1,1027521,2464,823,-527,-1476,-298,-39,245,271,-225
1,1027527,2465,826,-529,-1483,-301,-35,250,272,-226
1,1027534,2465,826,-529,-1483,-301,-35,250,272,-226
1,1027540,2465,826,-529,-1483,-301,-35,250,272,-226
1,1027548,2468,826,-528,-1476,-300,-36,250,272,-226
1,1027554,2468,826,-528,-1476,-300,-36,250,272,-226
1,1027560,2468,826,-528,-1476,-300,-36,250,272,-226
1,1027566,2467,824,-526,-1477,-301,-37,250,272,-226
1,1027572,2467,824,-526,-1477,-301,-37,250,272,-226
1,1027580,2467,824,-526,-1477,-301,-37,250,272,-226
1,1027588,2468,825,-528,-1479,-298,-33,250,272,-226
1,1027595,2468,825,-528,-1479,-298,-33,250,272,-226
1,1027602,2468,825,-528,-1479,-298,-33,250,272,-226
1,1027608,2465,826,-526,-1487,-298,-41,250,272,-226
1,1027614,2465,826,-526,-1487,-298,-41,250,272,-226
1,1027620,2465,826,-526,-1487,-298,-41,250,272,-226
1,1027627,2466,822,-531,-1489,-306,-37,250,272,-226
1,1027633,2466,822,-531,-1489,-306,-37,250,272,-226
1,1027639,2466,822,-531,-1489,-306,-37,250,272,-226
1,1027646,2465,823,-520,-1480,-306,-38,254,276,-234
1,1027653,2465,823,-520,-1480,-306,-38,254,276,-234
1,1027658,2465,823,-520,-1480,-306,-38,254,276,-234
1,1027665,2463,823,-526,-1478,-302,-33,254,276,-234
1,1027672,2463,823,-526,-1478,-302,-33,254,276,-234
1,1027679,2463,823,-526,-1478,-302,-33,254,276,-234
1,1027685,2467,823,-529,-1480,-297,-29,254,276,-234
1,1027691,2467,823,-529,-1480,-297,-29,254,276,-234
1,1027698,2467,823,-529,-1480,-297,-29,254,276,-234
1,1027704,2464,824,-532,-1477,-304,-43,254,276,-234
1,1027710,2464,824,-532,-1477,-304,-43,254,276,-234
1,1027717,2464,824,-532,-1477,-304,-43,254,276,-234
1,1027723,2464,824,-532,-1477,-304,-43,254,276,-234
1,1027729,2467,826,-531,-1481,-308,-32,254,276,-234
1,1027736,2467,826,-531,-1481,-308,-32,254,276,-234
1,1027742,2467,826,-531,-1481,-308,-32,254,276,-234
1,1027748,2466,821,-527,-1483,-302,-41,254,276,-234
1,1027755,2466,821,-527,-1483,-302,-41,254,276,-234
1,1027762,2466,821,-527,-1483,-302,-41,254,276,-234
1,1027768,2466,823,-526,-1475,-305,-36,254,268,-230
1,1027774,2466,823,-526,-1475,-305,-36,254,268,-230
1,1027782,2466,823,-526,-1475,-305,-36,254,268,-230
1,1027788,2467,826,-527,-1479,-296,-36,254,268,-230
1,1027794,2467,826,-527,-1479,-296,-36,254,268,-230
1,1027800,2467,826,-527,-1479,-296,-36,254,268,-230
1,1027807,2466,827,-531,-1479,-300,-41,254,268,-230
1,1027813,2466,827,-531,-1479,-300,-41,254,268,-230
1,1027820,2466,827,-531,-1479,-300,-41,254,268,-230
1,1027826,2465,823,-530,-1480,-305,-36,254,268,-230
1,1027832,2465,823,-530,-1480,-305,-36,254,268,-230
1,1027838,2465,823,-530,-1480,-305,-36,254,268,-230
1,1027845,2467,821,-530,-1479,-304,-38,254,268,-230
1,1027850,2467,821,-530,-1479,-304,-38,254,268,-230
1,1027855,2467,821,-530,-1479,-304,-38,254,268,-230
1,1027861,2467,821,-530,-1479,-304,-38,254,268,-230
1,1027867,2467,823,-530,-1477,-305,-35,254,268,-230
1,1027873,2467,823,-530,-1477,-305,-35,254,268,-230
1,1027879,2467,823,-530,-1477,-305,-35,254,268,-230
1,1027887,2467,824,-530,-1479,-301,-37,254,268,-230
1,1027893,2467,824,-530,-1479,-301,-37,254,268,-230
1,1027900,2467,824,-530,-1479,-301,-37,254,268,-230
1,1027906,2466,823,-526,-1477,-298,-31,255,275,-235
1,1027912,2466,823,-526,-1477,-298,-31,255,275,-235
1,1027919,2466,823,-526,-1477,-298,-31,255,275,-235
1,1027927,2468,824,-530,-1476,-299,-40,255,275,-235
1,1027934,2468,824,-530,-1476,-299,-40,255,275,-235
1,1027940,2468,824,-530,-1476,-299,-40,255,275,-235
1,1027946,2465,823,-531,-1476,-306,-37,255,275,-235
1,1027953,2465,823,-531,-1476,-306,-37,255,275,-235
1,1027959,2465,823,-531,-1476,-306,-37,255,275,-235
1,1027966,2468,824,-531,-1477,-303,-38,255,275,-235
1,1027973,2468,824,-531,-1477,-303,-38,255,275,-235
1,1027979,2468,824,-531,-1477,-303,-38,255,275,-235
1,1027986,2466,823,-525,-1480,-305,-38,255,275,-235
1,1027992,2466,823,-525,-1480,-305,-38,255,275,-235
1,1027999,2466,823,-525,-1480,-305,-38,255,275,-235
1,1028006,2466,825,-531,-1482,-305,-48,255,275,-235
1,1028013,2466,825,-531,-1482,-305,-48,255,275,-235
1,1028020,2466,825,-531,-1482,-305,-48,255,275,-235
1,1028027,2468,821,-523,-1485,-304,-35,247,265,-233
1,1028033,2468,821,-523,-1485,-304,-35,247,265,-233
1,1028039,2468,821,-523,-1485,-304,-35,247,265,-233
1,1028045,2467,823,-530,-1483,-290,-28,247,265,-233
1,1028052,2467,823,-530,-1483,-290,-28,247,265,-233
1,1028059,2467,823,-530,-1483,-290,-28,247,265,-233
1,1028066,2468,825,-526,-1481,-296,-36,247,265,-233
1,1028072,2468,825,-526,-1481,-296,-36,247,265,-233
1,1028078,2468,825,-526,-1481,-296,-36,247,265,-233
1,1028083,2467,822,-532,-1472,-300,-40,247,265,-233
1,1028089,2467,822,-532,-1472,-300,-40,247,265,-233
1,1028096,2467,822,-532,-1472,-300,-40,247,265,-233
1,1028102,2467,822,-532,-1472,-300,-40,247,265,-233
1,1028108,2467,820,-531,-1473,-301,-38,247,265,-233
1,1028114,2467,820,-531,-1473,-301,-38,247,265,-233
1,1028120,2467,820,-531,-1473,-301,-38,247,265,-233
1,1028126,2467,825,-528,-1476,-300,-38,247,265,-233
1,1028133,2467,825,-528,-1476,-300,-38,247,265,-233
1,1028141,2467,825,-528,-1476,-300,-38,247,265,-233
1,1028147,2468,825,-525,-1476,-300,-32,245,273,-237
1,1028153,2468,825,-525,-1476,-300,-32,245,273,-237
1,1028159,2468,825,-525,-1476,-300,-32,245,273,-237
1,1028167,2468,825,-525,-1477,-305,-29,245,273,-237
1,1028173,2468,825,-525,-1477,-305,-29,245,273,-237
1,1028179,2468,825,-525,-1477,-305,-29,245,273,-237
1,1028185,2466,822,-527,-1476,-295,-36,245,273,-237
1,1028191,2466,822,-527,-1476,-295,-36,245,273,-237
1,1028198,2466,822,-527,-1476,-295,-36,245,273,-237
1,1028204,2468,823,-526,-1483,-292,-33,245,273,-237
1,1028210,2468,823,-526,-1483,-292,-33,245,273,-237
1,1028217,2468,823,-526,-1483,-292,-33,245,273,-237
1,1028225,2467,824,-525,-1477,-300,-31,245,273,-237
1,1028230,2467,824,-525,-1477,-300,-31,245,273,-237
1,1028237,2467,824,-525,-1477,-300,-31,245,273,-237
1,1028244,2466,823,-531,-1480,-306,-35,245,273,-237
1,1028250,2466,823,-531,-1480,-306,-35,245,273,-237
1,1028256,2466,823,-531,-1480,-306,-35,245,273,-237
1,1028262,2466,823,-531,-1480,-306,-35,245,273,-237
1,1028270,2465,825,-533,-1478,-304,-38,243,273,-229
1,1028277,2465,825,-533,-1478,-304,-38,243,273,-229
1,1028284,2466,824,-526,-1480,-299,-40,243,273,-229
1,1028291,2466,824,-526,-1480,-299,-40,243,273,-229
1,1028297,2466,824,-526,-1480,-299,-40,243,273,-229
1,1028303,2467,821,-530,-1474,-303,-36,243,273,-229
1,1028310,2467,821,-530,-1474,-303,-36,243,273,-229
1,1028317,2467,821,-530,-1474,-303,-36,243,273,-229
1,1028323,2467,821,-530,-1474,-303,-36,243,273,-229
1,1028329,2466,826,-523,-1473,-303,-29,243,273,-229
1,1028337,2466,826,-523,-1473,-303,-29,243,273,-229
1,1028343,2469,826,-528,-1475,-300,-37,243,273,-229
1,1028350,2469,826,-528,-1475,-300,-37,243,273,-229
1,1028357,2469,826,-528,-1475,-300,-37,243,273,-229
1,1028362,2469,826,-528,-1475,-300,-37,243,273,-229
1,1028369,2464,818,-529,-1477,-291,-37,243,273,-229
1,1028374,2464,818,-529,-1477,-291,-37,243,273,-229
1,1028381,2464,818,-529,-1477,-291,-37,243,273,-229
1,1028388,2466,825,-530,-1479,-300,-42,243,273,-229
1,1028395,2466,825,-530,-1479,-300,-42,243,273,-229
1,1028402,2466,825,-530,-1479,-300,-42,243,273,-229
1,1028408,2467,824,-521,-1474,-303,-40,243,273,-233
1,1028415,2467,824,-521,-1474,-303,-40,243,273,-233
1,1028422,2467,824,-521,-1474,-303,-40,243,273,-233
1,1028428,2466,822,-528,-1481,-303,-34,243,273,-233
1,1028435,2466,822,-528,-1481,-303,-34,243,273,-233
1,1028442,2466,822,-528,-1481,-303,-34,243,273,-233
1,1028448,2468,824,-525,-1480,-306,-32,243,273,-233
1,1028453,2468,824,-525,-1480,-306,-32,243,273,-233
1,1028459,2468,824,-525,-1480,-306,-32,243,273,-233
1,1028466,2466,824,-526,-1486,-301,-37,243,273,-233
1,1028472,2466,824,-526,-1486,-301,-37,243,273,-233
1,1028480,2466,824,-526,-1486,-301,-37,243,273,-233
1,1028487,2465,823,-534,-1482,-301,-34,243,273,-233
1,1028494,2465,823,-534,-1482,-301,-34,243,273,-233
1,1028501,2465,823,-534,-1482,-301,-34,243,273,-233
1,1028509,2469,821,-529,-1480,-297,-40,243,273,-233
1,1028515,2469,821,-529,-1480,-297,-40,243,273,-233
1,1028523,2469,821,-529,-1480,-297,-40,243,273,-233
1,1028529,2469,825,-528,-1484,-298,-37,244,270,-240
1,1028536,2469,825,-528,-1484,-298,-37,244,270,-240
1,1028542,2469,825,-528,-1484,-298,-37,244,270,-240
1,1028548,2467,821,-528,-1482,-302,-41,244,270,-240
1,1028556,2467,821,-528,-1482,-302,-41,244,270,-240
1,1028562,2467,821,-528,-1482,-302,-41,244,270,-240
1,1028570,2468,824,-529,-1478,-297,-36,244,270,-240
1,1028576,2468,824,-529,-1478,-297,-36,244,270,-240
1,1028582,2468,824,-529,-1478,-297,-36,244,270,-240
1,1028587,2464,822,-533,-1473,-301,-35,244,270,-240
1,1028593,2464,822,-533,-1473,-301,-35,244,270,-240
1,1028598,2464,822,-533,-1473,-301,-35,244,270,-240
1,1028605,2466,822,-528,-1472,-301,-32,244,270,-240
1,1028612,2466,822,-528,-1472,-301,-32,244,270,-240
1,1028617,2466,822,-528,-1472,-301,-32,244,270,-240
1,1028623,2468,825,-529,-1471,-301,-40,244,270,-240
1,1028629,2468,825,-529,-1471,-301,-40,244,270,-240
1,1028637,2468,825,-529,-1471,-301,-40,244,270,-240
1,1028642,2468,825,-529,-1471,-301,-40,244,270,-240
1,1028649,2467,821,-525,-1476,-299,-38,247,269,-239
1,1028654,2467,821,-525,-1476,-299,-38,247,269,-239
1,1028660,2467,821,-525,-1476,-299,-38,247,269,-239
1,1028666,2465,826,-522,-1482,-299,-42,247,269,-239
1,1028673,2465,826,-522,-1482,-299,-42,247,269,-239
1,1028681,2465,826,-522,-1482,-299,-42,247,269,-239
1,1028686,2468,824,-521,-1486,-300,-35,247,269,-239
1,1028692,2468,824,-521,-1486,-300,-35,247,269,-239
1,1028699,2468,824,-521,-1486,-300,-35,247,269,-239
1,1028706,2466,824,-529,-1483,-304,-43,247,269,-239
1,1028713,2466,824,-529,-1483,-304,-43,247,269,-239
1,1028720,2466,824,-529,-1483,-304,-43,247,269,-239
1,1028727,2465,822,-529,-1474,-305,-30,247,269,-239
1,1028733,2465,822,-529,-1474,-305,-30,247,269,-239
1,1028741,2465,822,-529,-1474,-305,-30,247,269,-239
1,1028747,2466,822,-528,-1475,-305,-39,247,269,-239
1,1028754,2466,822,-528,-1475,-305,-39,247,269,-239
1,1028761,2466,822,-528,-1475,-305,-39,247,269,-239
1,1028766,2468,826,-528,-1486,-304,-43,248,274,-234
1,1028771,2468,826,-528,-1486,-304,-43,248,274,-234
1,1028777,2468,826,-528,-1486,-304,-43,248,274,-234
1,1028785,2465,823,-531,-1482,-300,-41,248,274,-234
1,1028792,2465,823,-531,-1482,-300,-41,248,274,-234
1,1028798,2465,823,-531,-1482,-300,-41,248,274,-234
1,1028805,2466,823,-529,-1482,-300,-41,248,274,-234
1,1028811,2466,823,-529,-1482,-300,-41,248,274,-234
1,1028818,2466,823,-529,-1482,-300,-41,248,274,-234
1,1028825,2466,824,-525,-1475,-305,-38,248,274,-234
1,1028831,2466,824,-525,-1475,-305,-38,248,274,-234
1,1028837,2466,824,-525,-1475,-305,-38,248,274,-234
1,1028844,2466,827,-527,-1473,-307,-43,248,274,-234
1,1028851,2466,827,-527,-1473,-307,-43,248,274,-234
1,1028857,2466,827,-527,-1473,-307,-43,248,274,-234
1,1028864,2468,826,-531,-1479,-304,-41,248,274,-234
1,1028871,2468,826,-531,-1479,-304,-41,248,274,-234
1,1028877,2468,826,-531,-1479,-304,-41,248,274,-234
1,1028883,2468,826,-531,-1479,-304,-41,248,274,-234
1,1028888,2465,823,-530,-1479,-300,-35,240,266,-230
1,1028894,2465,823,-530,-1479,-300,-35,240,266,-230
1,1028901,2465,823,-530,-1479,-300,-35,240,266,-230
1,1028910,2463,825,-523,-1479,-306,-44,240,266,-230
1,1028918,2463,825,-523,-1479,-306,-44,240,266,-230
1,1028925,2465,824,-531,-1479,-303,-43,240,266,-230
1,1028933,2465,824,-531,-1479,-303,-43,240,266,-230
1,1028938,2465,824,-531,-1479,-303,-43,240,266,-230
1,1028944,2464,824,-532,-1483,-298,-36,240,266,-230
1,1028951,2464,824,-532,-1483,-298,-36,240,266,-230
1,1028956,2464,824,-532,-1483,-298,-36,240,266,-230
1,1028963,2464,824,-532,-1483,-298,-36,240,266,-230
1,1028970,2465,825,-528,-1478,-300,-39,240,266,-230
1,1028976,2465,825,-528,-1478,-300,-39,240,266,-230
1,1028982,2465,825,-528,-1478,-300,-39,240,266,-230
1,1028988,2466,823,-529,-1485,-304,-36,240,266,-230
1,1028997,2466,823,-529,-1485,-304,-36,240,266,-230
1,1029004,2468,826,-529,-1486,-301,-34,240,266,-230
1,1029011,2468,826,-529,-1486,-301,-34,240,266,-230
1,1029017,2468,826,-529,-1486,-301,-34,240,266,-230
1,1029023,2467,825,-525,-1479,-296,-37,250,270,-244
1,1029029,2467,825,-525,-1479,-296,-37,250,270,-244
1,1029036,2467,825,-525,-1479,-296,-37,250,270,-244
1,1029043,2468,823,-529,-1480,-304,-37,250,270,-244
1,1029049,2468,823,-529,-1480,-304,-37,250,270,-244
1,1029056,2468,823,-529,-1480,-304,-37,250,270,-244
1,1029061,2468,823,-529,-1480,-304,-37,250,270,-244
1,1029067,2467,825,-527,-1485,-300,-39,250,270,-244
1,1029073,2467,825,-527,-1485,-300,-39,250,270,-244
1,1029079,2467,825,-527,-1485,-300,-39,250,270,-244
1,1029085,2467,826,-528,-1487,-302,-39,250,270,-244
1,1029091,2467,826,-528,-1487,-302,-39,250,270,-244
1,1029097,2467,826,-528,-1487,-302,-39,250,270,-244
1,1029105,2464,823,-527,-1482,-305,-36,250,270,-244
1,1029111,2464,823,-527,-1482,-305,-36,250,270,-244
1,1029117,2464,823,-527,-1482,-305,-36,250,270,-244
1,1029123,2464,823,-527,-1482,-305,-36,250,270,-244
1,1029129,2465,824,-528,-1476,-295,-32,250,270,-244
1,1029136,2465,824,-528,-1476,-295,-32,250,270,-244
1,1029143,2465,824,-528,-1476,-295,-32,250,270,-244
1,1029150,2465,823,-525,-1480,-294,-28,247,263,-239
1,1029157,2465,823,-525,-1480,-294,-28,247,263,-239
1,1029163,2465,823,-525,-1480,-294,-28,247,263,-239
1,1029169,2468,822,-531,-1481,-302,-30,247,263,-239
1,1029176,2468,822,-531,-1481,-302,-30,247,263,-239
1,1029183,2468,822,-531,-1481,-302,-30,247,263,-239
1,1029190,2468,822,-531,-1481,-302,-30,247,263,-239
1,1029195,2468,822,-531,-1481,-302,-30,247,263,-239
1,1029202,2468,822,-531,-1481,-302,-30,247,263,-239
1,1029208,2465,821,-528,-1478,-300,-36,247,263,-239
1,1029215,2465,821,-528,-1478,-300,-36,247,263,-239
1,1029221,2465,821,-528,-1478,-300,-36,247,263,-239
1,1029227,2467,823,-530,-1475,-304,-35,247,263,-239
1,1029233,2467,823,-530,-1475,-304,-35,247,263,-239
1,1029239,2467,823,-530,-1475,-304,-35,247,263,-239
1,1029245,2467,825,-530,-1480,-303,-39,247,263,-239
1,1029251,2467,825,-530,-1480,-303,-39,247,263,-239
1,1029257,2467,825,-530,-1480,-303,-39,247,263,-239
1,1029264,2467,825,-528,-1476,-306,-37,249,271,-233
1,1029271,2467,825,-528,-1476,-306,-37,249,271,-233
1,1029277,2467,825,-528,-1476,-306,-37,249,271,-233
1,1029283,2462,823,-527,-1471,-302,-32,249,271,-233
1,1029289,2462,823,-527,-1471,-302,-32,249,271,-233
1,1029296,2462,823,-527,-1471,-302,-32,249,271,-233
1,1029302,2462,823,-527,-1471,-302,-32,249,271,-233
1,1029309,2463,824,-529,-1477,-293,-28,249,271,-233
1,1029315,2463,824,-529,-1477,-293,-28,249,271,-233
1,1029320,2463,824,-529,-1477,-293,-28,249,271,-233
1,1029328,2464,822,-529,-1478,-302,-38,249,271,-233
1,1029334,2464,822,-529,-1478,-302,-38,249,271,-233
1,1029341,2464,822,-529,-1478,-302,-38,249,271,-233
1,1029346,2466,826,-528,-1483,-305,-39,249,271,-233
1,1029351,2466,826,-528,-1483,-305,-39,249,271,-233
1,1029356,2466,826,-528,-1483,-305,-39,249,271,-233
1,1029362,2466,826,-528,-1483,-305,-39,249,271,-233
1,1029368,2467,824,-527,-1483,-302,-36,249,271,-233
1,1029374,2467,824,-527,-1483,-302,-36,249,271,-233
1,1029380,2467,824,-527,-1483,-302,-36,249,271,-233
1,1029387,2466,823,-527,-1483,-302,-40,248,268,-236
1,1029392,2466,823,-527,-1483,-302,-40,248,268,-236
1,1029398,2466,823,-527,-1483,-302,-40,248,268,-236
1,1029404,2467,827,-528,-1483,-299,-37,248,268,-236
1,1029411,2467,827,-528,-1483,-299,-37,248,268,-236
1,1029417,2467,827,-528,-1483,-299,-37,248,268,-236
1,1029423,2467,827,-528,-1483,-299,-37,248,268,-236
1,1029429,2468,826,-530,-1477,-293,-34,248,268,-236
1,1029435,2468,826,-530,-1477,-293,-34,248,268,-236
1,1029442,2468,826,-530,-1477,-293,-34,248,268,-236
1,1029449,2470,823,-532,-1475,-300,-36,248,268,-236
1,1029456,2470,823,-532,-1475,-300,-36,248,268,-236
1,1029464,2466,827,-532,-1476,-300,-33,248,268,-236
1,1029470,2466,827,-532,-1476,-300,-33,248,268,-236
1,1029475,2466,827,-532,-1476,-300,-33,248,268,-236
1,1029481,2466,827,-532,-1476,-300,-33,248,268,-236
1,1029487,2469,824,-530,-1477,-306,-41,248,268,-236
1,1029492,2469,824,-530,-1477,-306,-41,248,268,-236
1,1029498,2469,824,-530,-1477,-306,-41,248,268,-236
1,1029504,2468,824,-529,-1481,-307,-39,248,268,-236
1,1029512,2468,824,-529,-1481,-307,-39,248,268,-236
1,1029518,2468,824,-529,-1481,-307,-39,248,268,-236
1,1029524,2466,826,-526,-1482,-304,-42,259,273,-235
1,1029531,2466,826,-526,-1482,-304,-42,259,273,-235
1,1029537,2466,826,-526,-1482,-304,-42,259,273,-235
1,1029544,2464,825,-528,-1478,-301,-32,259,273,-235
1,1029550,2464,825,-528,-1478,-301,-32,259,273,-235
1,1029557,2464,825,-528,-1478,-301,-32,259,273,-235
1,1029563,2464,825,-528,-1478,-301,-32,259,273,-235
1,1029569,2468,821,-527,-1483,-301,-39,259,273,-235
1,1029574,2468,821,-527,-1483,-301,-39,259,273,-235
1,1029580,2468,821,-527,-1483,-301,-39,259,273,-235
1,1029586,2466,826,-532,-1480,-298,-36,259,273,-235
1,1029593,2466,826,-532,-1480,-298,-36,259,273,-235
1,1029599,2466,826,-532,-1480,-298,-36,259,273,-235
1,1029605,2466,823,-530,-1475,-305,-42,259,273,-235
1,1029611,2466,823,-530,-1475,-305,-42,259,273,-235
1,1029619,2466,823,-530,-1475,-305,-42,259,273,-235
1,1029625,2467,826,-534,-1480,-299,-34,259,273,-235
1,1029632,2467,826,-534,-1480,-299,-34,259,273,-235
1,1029639,2467,826,-534,-1480,-299,-34,259,273,-235
1,1029645,2464,821,-526,-1475,-299,-39,241,275,-243
1,1029651,2464,821,-526,-1475,-299,-39,241,275,-243
1,1029658,2464,821,-526,-1475,-299,-39,241,275,-243
1,1029665,2466,822,-525,-1475,-300,-42,241,275,-243
1,1029675,2466,822,-525,-1475,-300,-42,241,275,-243
1,1029681,2466,822,-525,-1475,-300,-42,241,275,-243
1,1029688,2466,824,-525,-1481,-296,-39,241,275,-243
1,1029694,2466,824,-525,-1481,-296,-39,241,275,-243
1,1029700,2466,824,-525,-1481,-296,-39,241,275,-243
1,1029708,2467,827,-529,-1481,-296,-40,241,275,-243
1,1029714,2467,827,-529,-1481,-296,-40,241,275,-243
1,1029721,2467,827,-529,-1481,-296,-40,241,275,-243
1,1029727,2467,826,-530,-1479,-297,-43,241,275,-243
1,1029732,2467,826,-530,-1479,-297,-43,241,275,-243
1,1029738,2467,826,-530,-1479,-297,-43,241,275,-243
1,1029744,2467,818,-529,-1480,-287,-38,241,275,-243
1,1029750,2467,818,-529,-1480,-287,-38,241,275,-243
1,1029757,2467,818,-529,-1480,-287,-38,241,275,-243
1,1029764,2468,824,-528,-1481,-291,-45,256,268,-234
1,1029771,2468,824,-528,-1481,-291,-45,256,268,-234
1,1029777,2468,824,-528,-1481,-291,-45,256,268,-234
1,1029783,2468,824,-528,-1481,-291,-45,256,268,-234
1,1029789,2466,826,-525,-1474,-296,-41,256,268,-234
1,1029795,2466,826,-525,-1474,-296,-41,256,268,-234
1,1029801,2466,826,-525,-1474,-296,-41,256,268,-234
1,1029810,2465,823,-531,-1478,-297,-35,256,268,-234
1,1029815,2465,823,-531,-1478,-297,-35,256,268,-234
1,1029823,2465,823,-531,-1478,-297,-35,256,268,-234
1,1029829,2465,825,-529,-1486,-291,-35,256,268,-234
1,1029834,2465,825,-529,-1486,-291,-35,256,268,-234
1,1029842,2465,825,-529,-1486,-291,-35,256,268,-234
1,1029848,2468,822,-532,-1477,-288,-34,256,268,-234
1,1029854,2468,822,-532,-1477,-288,-34,256,268,-234
1,1029860,2468,822,-532,-1477,-288,-34,256,268,-234
1,1029868,2465,824,-529,-1479,-292,-37,256,268,-234
1,1029874,2465,824,-529,-1479,-292,-37,256,268,-234
1,1029879,2465,824,-529,-1479,-292,-37,256,268,-234
1,1029885,2468,820,-526,-1484,-284,-32,250,278,-240
1,1029893,2468,820,-526,-1484,-284,-32,250,278,-240
1,1029900,2468,820,-526,-1484,-284,-32,250,278,-240
1,1029907,2468,824,-524,-1486,-291,-33,250,278,-240
1,1029914,2468,824,-524,-1486,-291,-33,250,278,-240
1,1029920,2468,824,-524,-1486,-291,-33,250,278,-240
1,1029927,2469,822,-526,-1479,-301,-36,250,278,-240
1,1029934,2469,822,-526,-1479,-301,-36,250,278,-240
1,1029940,2469,822,-526,-1479,-301,-36,250,278,-240
1,1029947,2467,826,-533,-1479,-302,-48,250,278,-240
1,1029952,2467,826,-533,-1479,-302,-48,250,278,-240
1,1029959,2467,826,-533,-1479,-302,-48,250,278,-240
1,1029965,2467,821,-535,-1485,-298,-44,250,278,-240
1,1029971,2467,821,-535,-1485,-298,-44,250,278,-240
1,1029978,2467,821,-535,-1485,-298,-44,250,278,-240
1,1029984,2469,824,-529,-1482,-302,-35,250,278,-240
1,1029989,2469,824,-529,-1482,-302,-35,250,278,-240
1,1029996,2469,824,-529,-1482,-302,-35,250,278,-240
1,1030003,2469,823,-528,-1473,-303,-42,250,278,-240
1,1030010,2469,823,-528,-1473,-303,-42,250,278,-240
1,1030017,2469,823,-528,-1473,-303,-42,250,278,-240
1,1030024,2465,822,-524,-1474,-300,-35,250,278,-240
1,1030030,2465,822,-524,-1474,-300,-35,252,260,-242
1,1030036,2465,822,-524,-1474,-300,-35,252,260,-242
1,1030044,2466,824,-527,-1475,-303,-34,252,260,-242
1,1030050,2466,824,-527,-1475,-303,-34,252,260,-242
1,1030057,2466,824,-527,-1475,-303,-34,252,260,-242
1,1030065,2468,824,-529,-1479,-305,-31,252,260,-242
1,1030072,2468,824,-529,-1479,-305,-31,252,260,-242
1,1030078,2468,824,-529,-1479,-305,-31,252,260,-242
1,1030085,2466,824,-528,-1477,-317,-43,252,260,-242
1,1030091,2466,824,-528,-1477,-317,-43,252,260,-242
1,1030097,2466,824,-528,-1477,-317,-43,252,260,-242
1,1030104,2467,823,-529,-1477,-303,-36,252,260,-242
1,1030111,2467,823,-529,-1477,-303,-36,252,260,-242
1,1030117,2467,823,-529,-1477,-303,-36,252,260,-242
1,1030124,2469,824,-530,-1468,-302,-39,252,260,-242
1,1030131,2469,824,-530,-1468,-302,-39,252,260,-242
1,1030137,2469,824,-530,-1468,-302,-39,252,260,-242
1,1030145,2468,822,-526,-1476,-305,-39,240,272,-240
1,1030151,2468,822,-526,-1476,-305,-39,240,272,-240
1,1030157,2468,822,-526,-1476,-305,-39,240,272,-240
1,1030165,2466,823,-528,-1478,-305,-34,240,272,-240
1,1030171,2466,823,-528,-1478,-305,-34,240,272,-240
1,1030178,2466,823,-528,-1478,-305,-34,240,272,-240
1,1030184,2466,822,-526,-1483,-303,-32,240,272,-240
1,1030192,2466,822,-526,-1483,-303,-32,240,272,-240
1,1030199,2466,822,-526,-1483,-303,-32,240,272,-240
1,1030206,2466,825,-527,-1469,-307,-29,240,272,-240
1,1030211,2466,825,-527,-1469,-307,-29,240,272,-240
1,1030218,2466,825,-527,-1469,-307,-29,240,272,-240
1,1030225,2466,827,-526,-1480,-294,-33,240,272,-240
1,1030232,2466,827,-526,-1480,-294,-33,240,272,-240
1,1030239,2466,827,-526,-1480,-294,-33,240,272,-240
1,1030246,2468,825,-528,-1488,-283,-43,240,272,-240
1,1030252,2468,825,-528,-1488,-283,-43,240,272,-240
1,1030260,2468,825,-528,-1488,-283,-43,240,272,-240
1,1030267,2469,823,-525,-1489,-292,-39,252,272,-234
1,1030274,2469,823,-525,-1489,-292,-39,252,272,-234
1,1030281,2469,823,-525,-1489,-292,-39,252,272,-234
1,1030288,2466,826,-525,-1472,-287,-43,252,272,-234
1,1030296,2466,826,-525,-1472,-287,-43,252,272,-234
1,1030302,2466,826,-525,-1472,-287,-43,252,272,-234
1,1030310,2467,827,-525,-1476,-294,-33,252,272,-234
1,1030319,2467,827,-525,-1476,-294,-33,252,272,-234
1,1030325,2468,826,-526,-1467,-317,-31,252,272,-234
1,1030330,2468,826,-526,-1467,-317,-31,252,272,-234
1,1030335,2468,826,-526,-1467,-317,-31,252,272,-234
1,1030342,2468,826,-526,-1467,-317,-31,252,272,-234
1,1030350,2463,828,-527,-1466,-316,-36,252,272,-234
1,1030356,2463,828,-527,-1466,-316,-36,252,272,-234
1,1030363,2463,828,-527,-1466,-316,-36,252,272,-234
1,1030370,2466,825,-525,-1471,-305,-32,252,272,-234
1,1030378,2466,825,-525,-1471,-305,-32,252,272,-234
1,1030384,2467,826,-526,-1481,-300,-37,243,263,-235
1,1030391,2467,826,-526,-1481,-300,-37,243,263,-235
1,1030398,2467,826,-526,-1481,-300,-37,243,263,-235
1,1030405,2466,824,-527,-1483,-301,-32,243,263,-235
1,1030413,2466,824,-527,-1483,-301,-32,243,263,-235
1,1030420,2466,824,-527,-1483,-301,-32,243,263,-235
1,1030426,2464,821,-528,-1481,-299,-27,243,263,-235
1,1030433,2464,821,-528,-1481,-299,-27,243,263,-235
1,1030440,2464,821,-528,-1481,-299,-27,243,263,-235
1,1030450,2464,821,-528,-1481,-299,-27,243,263,-235
1,1030456,2464,821,-528,-1481,-299,-27,243,263,-235
1,1030463,2464,821,-528,-1481,-299,-27,243,263,-235
1,1030469,2467,824,-529,-1476,-299,-30,243,263,-235
1,1030477,2467,824,-529,-1476,-299,-30,243,263,-235
1,1030484,2466,826,-531,-1478,-298,-35,243,263,-235
1,1030491,2466,826,-531,-1478,-298,-35,243,263,-235
1,1030497,2466,826,-531,-1478,-298,-35,243,263,-235
1,1030503,2466,826,-531,-1478,-298,-35,243,263,-235
1,1030510,2467,825,-532,-1484,-301,-31,243,263,-235
1,1030517,2467,825,-532,-1484,-301,-31,243,263,-235
1,1030523,2467,823,-524,-1477,-297,-29,243,263,-235
1,1030531,2467,823,-524,-1477,-297,-29,249,257,-239
1,1030537,2467,823,-524,-1477,-297,-29,249,257,-239
1,1030544,2467,822,-529,-1483,-301,-38,249,257,-239
1,1030551,2467,822,-529,-1483,-301,-38,249,257,-239
1,1030558,2467,822,-529,-1483,-301,-38,249,257,-239
1,1030563,2467,822,-529,-1483,-301,-38,249,257,-239
1,1030569,2467,822,-528,-1480,-302,-35,249,257,-239
1,1030577,2467,822,-528,-1480,-302,-35,249,257,-239
1,1030585,2468,823,-528,-1481,-301,-39,249,257,-239
1,1030591,2468,823,-528,-1481,-301,-39,249,257,-239
1,1030597,2468,823,-528,-1481,-301,-39,249,257,-239
1,1030604,2468,825,-529,-1476,-301,-39,249,257,-239
1,1030611,2468,825,-529,-1476,-301,-39,249,257,-239
1,1030619,2468,825,-529,-1476,-301,-39,249,257,-239
1,1030626,2467,824,-533,-1479,-297,-40,249,257,-239
1,1030631,2467,824,-533,-1479,-297,-40,249,257,-239
1,1030638,2467,824,-533,-1479,-297,-40,249,257,-239
1,1030646,2468,823,-526,-1483,-298,-36,244,270,-238
1,1030653,2468,823,-526,-1483,-298,-36,244,270,-238
1,1030661,2468,823,-526,-1483,-298,-36,244,270,-238
1,1030668,2465,824,-527,-1473,-307,-33,244,270,-238
1,1030675,2465,824,-527,-1473,-307,-33,244,270,-238
1,1030682,2465,824,-527,-1473,-307,-33,244,270,-238
1,1030688,2467,827,-528,-1479,-301,-31,244,270,-238
1,1030696,2467,827,-528,-1479,-301,-31,244,270,-238
1,1030704,2467,827,-528,-1479,-301,-31,244,270,-238
1,1030712,2462,825,-527,-1479,-305,-35,244,270,-238
1,1030719,2462,825,-527,-1479,-305,-35,244,270,-238
1,1030727,2464,825,-528,-1477,-301,-32,244,270,-238
1,1030734,2464,825,-528,-1477,-301,-32,244,270,-238
1,1030742,2464,825,-528,-1477,-301,-32,244,270,-238
1,1030749,2467,825,-526,-1482,-303,-34,244,270,-238
1,1030755,2467,825,-526,-1482,-303,-34,244,270,-238
1,1030764,2465,824,-526,-1478,-306,-28,244,270,-238
1,1030771,2465,824,-526,-1478,-306,-28,249,269,-229
1,1030777,2465,824,-526,-1478,-306,-28,249,269,-229
1,1030782,2465,824,-526,-1478,-306,-28,249,269,-229
1,1030789,2468,823,-524,-1477,-309,-27,249,269,-229
1,1030796,2468,823,-524,-1477,-309,-27,249,269,-229
1,1030803,2468,823,-524,-1477,-309,-27,249,269,-229
1,1030809,2468,823,-530,-1472,-299,-39,249,269,-229
1,1030814,2468,823,-530,-1472,-299,-39,249,269,-229
1,1030821,2468,823,-530,-1472,-299,-39,249,269,-229
1,1030830,2466,826,-528,-1477,-298,-36,249,269,-229
1,1030836,2466,826,-528,-1477,-298,-36,249,269,-229
1,1030842,2466,826,-528,-1477,-298,-36,249,269,-229
1,1030850,2469,821,-526,-1480,-303,-36,249,269,-229
1,1030857,2469,821,-526,-1480,-303,-36,249,269,-229
1,1030865,2468,820,-527,-1478,-305,-33,249,269,-229
1,1030873,2468,820,-527,-1478,-305,-33,249,269,-229
1,1030881,2468,820,-527,-1478,-305,-33,249,269,-229
1,1030888,2469,820,-527,-1481,-304,-39,261,267,-233
1,1030895,2469,820,-527,-1481,-304,-39,261,267,-233
1,1030902,2469,820,-527,-1481,-304,-39,261,267,-233
1,1030909,2467,824,-526,-1479,-299,-40,261,267,-233
1,1030916,2467,824,-526,-1479,-299,-40,261,267,-233
1,1030922,2467,824,-526,-1479,-299,-40,261,267,-233
1,1030929,2469,822,-524,-1486,-303,-40,261,267,-233
1,1030936,2469,822,-524,-1486,-303,-40,261,267,-233
1,1030942,2469,822,-524,-1486,-303,-40,261,267,-233
1,1030950,2466,824,-529,-1480,-304,-36,261,267,-233
1,1030957,2466,824,-529,-1480,-304,-36,261,267,-233
1,1030966,2465,822,-528,-1479,-297,-36,261,267,-233
1,1030973,2465,822,-528,-1479,-297,-36,261,267,-233
1,1030980,2465,822,-528,-1479,-297,-36,261,267,-233
1,1030986,2467,823,-527,-1475,-302,-41,261,267,-233
1,1030993,2467,823,-527,-1475,-302,-41,261,267,-233
1,1031001,2467,823,-527,-1475,-302,-41,261,267,-233
1,1031008,2466,822,-529,-1477,-298,-37,261,267,-233
1,1031016,2466,822,-529,-1477,-298,-37,261,267,-233
1,1031022,2466,822,-529,-1477,-298,-37,261,267,-233
1,1031030,2463,822,-526,-1485,-302,-37,249,265,-229
1,1031038,2463,822,-526,-1485,-302,-37,249,265,-229
1,1031045,2467,824,-532,-1474,-300,-39,249,265,-229
1,1031049,2467,824,-532,-1474,-300,-39,249,265,-229
1,1031055,2467,824,-532,-1474,-300,-39,249,265,-229
1,1031062,2467,824,-532,-1474,-300,-39,249,265,-229
1,1031067,2466,822,-532,-1477,-294,-39,249,265,-229
1,1031074,2466,822,-532,-1477,-294,-39,249,265,-229
1,1031081,2466,822,-532,-1477,-294,-39,249,265,-229
1,1031090,2466,824,-532,-1483,-298,-37,249,265,-229
1,1031096,2466,824,-532,-1483,-298,-37,249,265,-229
1,1031104,2466,824,-526,-1480,-298,-36,249,265,-229
1,1031110,2466,824,-526,-1480,-298,-36,249,265,-229
1,1031117,2466,824,-526,-1480,-298,-36,249,265,-229
1,1031123,2465,822,-529,-1477,-294,-42,249,265,-229
1,1031131,2465,822,-529,-1477,-294,-42,249,265,-229
1,1031139,2465,822,-529,-1477,-294,-42,249,265,-229
1,1031145,2465,823,-523,-1477,-290,-43,248,270,-236
1,1031151,2465,823,-523,-1477,-290,-43,248,270,-236
1,1031158,2465,823,-523,-1477,-290,-43,248,270,-236
1,1031165,2467,823,-522,-1476,-291,-33,248,270,-236
1,1031172,2467,823,-522,-1476,-291,-33,248,270,-236
1,1031178,2467,823,-522,-1476,-291,-33,248,270,-236
1,1031183,2467,823,-522,-1476,-291,-33,248,270,-236
1,1031190,2468,824,-530,-1477,-297,-38,248,270,-236
1,1031198,2468,824,-530,-1477,-297,-38,248,270,-236
1,1031204,2466,821,-529,-1475,-300,-40,248,270,-236
1,1031212,2466,821,-529,-1475,-300,-40,248,270,-236
1,1031217,2466,821,-529,-1475,-300,-40,248,270,-236
1,1031225,2467,821,-527,-1487,-294,-35,248,270,-236
1,1031233,2467,821,-527,-1487,-294,-35,248,270,-236
1,1031241,2467,821,-527,-1487,-294,-35,248,270,-236
1,1031248,2467,823,-526,-1480,-286,-39,248,270,-236
1,1031256,2467,823,-526,-1480,-286,-39,248,270,-236
1,1031263,2467,823,-526,-1480,-286,-39,248,270,-236
1,1031268,2469,823,-526,-1481,-292,-31,245,265,-229
1,1031274,2469,823,-526,-1481,-292,-31,245,265,-229
1,1031281,2469,823,-526,-1481,-292,-31,245,265,-229
1,1031288,2467,823,-524,-1482,-301,-32,245,265,-229
1,1031294,2467,823,-524,-1482,-301,-32,245,265,-229
1,1031303,2467,823,-524,-1482,-301,-32,245,265,-229
1,1031310,2466,824,-531,-1484,-297,-30,245,265,-229
1,1031317,2466,824,-531,-1484,-297,-30,245,265,-229
1,1031325,2468,825,-530,-1476,-291,-33,245,265,-229
1,1031331,2468,825,-530,-1476,-291,-33,245,265,-229
1,1031339,2468,825,-530,-1476,-291,-33,245,265,-229
1,1031345,2466,824,-526,-1480,-289,-40,245,265,-229
1,1031352,2466,824,-526,-1480,-289,-40,245,265,-229
1,1031358,2466,824,-526,-1480,-289,-40,245,265,-229
1,1031366,2469,825,-531,-1475,-295,-40,245,265,-229
1,1031372,2469,825,-531,-1475,-295,-40,245,265,-229
1,1031382,2469,825,-531,-1475,-295,-40,245,265,-229
1,1031389,2466,824,-526,-1477,-304,-35,253,265,-231
1,1031397,2466,824,-526,-1477,-304,-35,253,265,-231
1,1031402,2466,824,-526,-1477,-304,-35,253,265,-231
1,1031407,2464,823,-527,-1482,-303,-38,253,265,-231
1,1031415,2464,823,-527,-1482,-303,-38,253,265,-231
1,1031422,2464,823,-527,-1482,-303,-38,253,265,-231
1,1031429,2465,823,-523,-1478,-292,-39,253,265,-231
1,1031436,2465,823,-523,-1478,-292,-39,253,265,-231
1,1031444,2465,823,-523,-1478,-292,-39,253,265,-231
1,1031452,2463,822,-526,-1481,-297,-37,253,265,-231
1,1031459,2463,822,-526,-1481,-297,-37,253,265,-231
1,1031465,2465,822,-529,-1482,-299,-34,253,265,-231
1,1031474,2465,822,-529,-1482,-299,-34,253,265,-231
1,1031481,2465,822,-529,-1482,-299,-34,253,265,-231
1,1031488,2463,823,-528,-1482,-291,-34,253,265,-231
1,1031494,2463,823,-528,-1482,-291,-34,253,265,-231
1,1031502,2463,823,-528,-1482,-291,-34,253,265,-231
1,1031510,2465,826,-526,-1481,-292,-33,255,271,-231
1,1031516,2465,826,-526,-1481,-292,-33,255,271,-231
1,1031523,2465,826,-526,-1481,-292,-33,255,271,-231
1,1031529,2463,824,-528,-1484,-297,-25,255,271,-231
1,1031535,2463,824,-528,-1484,-297,-25,255,271,-231
1,1031543,2463,824,-528,-1484,-297,-25,255,271,-231
1,1031549,2465,822,-525,-1482,-300,-30,255,271,-231
1,1031557,2465,822,-525,-1482,-300,-30,255,271,-231
1,1031564,2465,822,-525,-1482,-300,-30,255,271,-231
1,1031570,2468,825,-526,-1478,-290,-37,255,271,-231
1,1031578,2468,825,-526,-1478,-290,-37,255,271,-231
1,1031586,2466,826,-533,-1481,-294,-40,255,271,-231
1,1031592,2466,826,-533,-1481,-294,-40,255,271,-231
1,1031602,2466,826,-533,-1481,-294,-40,255,271,-231
1,1031608,2468,822,-526,-1486,-299,-37,255,271,-231
1,1031613,2468,822,-526,-1486,-299,-37,255,271,-231
1,1031619,2468,822,-526,-1486,-299,-37,255,271,-231
1,1031625,2466,822,-526,-1483,-294,-37,255,271,-231
1,1031632,2466,822,-526,-1483,-294,-37,255,271,-231
1,1031639,2466,822,-526,-1483,-294,-37,255,271,-231
1,1031646,2464,825,-521,-1487,-299,-38,244,264,-234
1,1031654,2464,825,-521,-1487,-299,-38,244,264,-234
1,1031660,2464,825,-521,-1487,-299,-38,244,264,-234
1,1031669,2466,823,-522,-1486,-296,-31,244,264,-234
1,1031675,2466,823,-522,-1486,-296,-31,244,264,-234
1,1031683,2466,823,-522,-1486,-296,-31,244,264,-234
1,1031690,2468,824,-528,-1480,-294,-26,244,264,-234
1,1031697,2468,824,-528,-1480,-294,-26,244,264,-234
1,1031705,2467,823,-530,-1477,-296,-26,244,264,-234
1,1031711,2467,823,-530,-1477,-296,-26,244,264,-234
1,1031719,2467,823,-530,-1477,-296,-26,244,264,-234
1,1031726,2470,827,-529,-1476,-293,-31,244,264,-234
1,1031733,2470,827,-529,-1476,-293,-31,244,264,-234
1,1031741,2470,827,-529,-1476,-293,-31,244,264,-234
1,1031748,2464,825,-525,-1482,-297,-31,244,264,-234
1,1031753,2464,825,-525,-1482,-297,-31,244,264,-234
1,1031758,2464,825,-525,-1482,-297,-31,244,264,-234
1,1031766,2466,824,-523,-1479,-303,-39,251,273,-231
1,1031771,2466,824,-523,-1479,-303,-39,251,273,-231
1,1031778,2466,824,-523,-1479,-303,-39,251,273,-231
1,1031785,2464,825,-528,-1483,-298,-32,251,273,-231
1,1031792,2464,825,-528,-1483,-298,-32,251,273,-231
1,1031799,2464,825,-528,-1483,-298,-32,251,273,-231
1,1031804,2468,823,-530,-1486,-296,-36,251,273,-231
1,1031811,2468,823,-530,-1486,-296,-36,251,273,-231
1,1031818,2468,823,-530,-1486,-296,-36,251,273,-231
1,1031825,2467,824,-531,-1484,-299,-41,251,273,-231
1,1031832,2467,824,-531,-1484,-299,-41,251,273,-231
1,1031839,2467,824,-531,-1484,-299,-41,251,273,-231
1,1031846,2468,821,-528,-1482,-299,-31,251,273,-231
1,1031855,2468,821,-528,-1482,-299,-31,251,273,-231
1,1031862,2468,821,-528,-1482,-299,-31,251,273,-231
1,1031868,2464,823,-529,-1477,-294,-38,251,273,-231
1,1031874,2464,823,-529,-1477,-294,-38,251,273,-231
1,1031881,2464,823,-529,-1477,-294,-38,251,273,-231
1,1031887,2463,823,-524,-1474,-303,-43,249,269,-227
1,1031895,2463,823,-524,-1474,-303,-43,249,269,-227
1,1031901,2463,823,-524,-1474,-303,-43,249,269,-227
1,1031909,2469,823,-520,-1479,-295,-39,249,269,-227
1,1031916,2469,823,-520,-1479,-295,-39,249,269,-227
1,1031921,2469,823,-520,-1479,-295,-39,249,269,-227
1,1031929,2467,825,-528,-1473,-294,-34,249,269,-227
1,1031938,2467,825,-528,-1473,-294,-34,249,269,-227
1,1031944,2467,825,-528,-1473,-294,-34,249,269,-227
1,1031950,2469,824,-528,-1479,-291,-38,249,269,-227
1,1031956,2469,824,-528,-1479,-291,-38,249,269,-227
1,1031963,2469,824,-528,-1479,-291,-38,249,269,-227
1,1031971,2467,824,-528,-1491,-297,-30,249,269,-227
1,1031977,2467,824,-528,-1491,-297,-30,249,269,-227
1,1031985,2465,822,-528,-1482,-301,-34,249,269,-227
1,1031992,2465,822,-528,-1482,-301,-34,249,269,-227
1,1031998,2465,822,-528,-1482,-301,-34,249,269,-227
1,1032006,2468,822,-527,-1481,-306,-38,258,270,-228
1,1032013,2468,822,-527,-1481,-306,-38,258,270,-228
1,1032020,2468,822,-527,-1481,-306,-38,258,270,-228
1,1032029,2466,822,-526,-1475,-306,-31,258,270,-228
1,1032035,2466,822,-526,-1475,-306,-31,258,270,-228
1,1032043,2466,822,-526,-1475,-306,-31,258,270,-228
1,1032049,2466,822,-523,-1476,-302,-32,258,270,-228
1,1032054,2466,822,-523,-1476,-302,-32,258,270,-228
1,1032062,2466,822,-523,-1476,-302,-32,258,270,-228
1,1032071,2464,823,-529,-1473,-294,-39,258,270,-228
1,1032078,2464,823,-529,-1473,-294,-39,258,270,-228
1,1032085,2465,822,-522,-1481,-301,-40,258,270,-228
1,1032092,2465,822,-522,-1481,-301,-40,258,270,-228
1,1032100,2465,822,-522,-1481,-301,-40,258,270,-228
1,1032105,2467,822,-529,-1489,-300,-41,258,270,-228
1,1032113,2467,822,-529,-1489,-300,-41,258,270,-228
1,1032119,2467,822,-529,-1489,-300,-41,258,270,-228
1,1032125,2469,820,-531,-1481,-295,-31,258,270,-228
1,1032132,2469,820,-531,-1481,-295,-31,258,270,-228
1,1032139,2469,820,-531,-1481,-295,-31,258,270,-228
1,1032146,2464,823,-523,-1476,-301,-33,243,269,-229
1,1032156,2464,823,-523,-1476,-301,-33,243,269,-229
1,1032163,2464,823,-523,-1476,-301,-33,243,269,-229
1,1032169,2466,823,-531,-1471,-318,-39,243,269,-229
1,1032176,2466,823,-531,-1471,-318,-39,243,269,-229
1,1032183,2466,823,-531,-1471,-318,-39,243,269,-229
1,1032190,2464,825,-529,-1473,-315,-36,243,269,-229
1,1032197,2464,825,-529,-1473,-315,-36,243,269,-229
1,1032205,2468,821,-527,-1478,-319,-37,243,269,-229
1,1032211,2468,821,-527,-1478,-319,-37,243,269,-229
1,1032217,2468,821,-527,-1478,-319,-37,243,269,-229
1,1032222,2468,821,-527,-1478,-319,-37,243,269,-229
1,1032228,2467,822,-532,-1477,-320,-34,243,269,-229
1,1032235,2467,822,-532,-1477,-320,-34,243,269,-229
1,1032242,2467,822,-532,-1477,-320,-34,243,269,-229
1,1032248,2467,822,-527,-1477,-308,-36,243,269,-229
1,1032255,2467,822,-527,-1477,-308,-36,243,269,-229
1,1032261,2467,822,-527,-1477,-308,-36,243,269,-229
1,1032267,2468,823,-526,-1475,-299,-39,247,265,-227
1,1032273,2468,823,-526,-1475,-299,-39,247,265,-227
1,1032281,2468,823,-526,-1475,-299,-39,247,265,-227
1,1032288,2467,824,-525,-1481,-299,-47,247,265,-227
1,1032294,2467,824,-525,-1481,-299,-47,247,265,-227
1,1032301,2467,824,-525,-1481,-299,-47,247,265,-227
1,1032306,2466,821,-530,-1473,-300,-39,247,265,-227
1,1032312,2466,821,-530,-1473,-300,-39,247,265,-227
1,1032317,2466,821,-530,-1473,-300,-39,247,265,-227
1,1032326,2464,822,-533,-1474,-292,-34,247,265,-227
1,1032332,2464,822,-533,-1474,-292,-34,247,265,-227
1,1032339,2464,822,-533,-1474,-292,-34,247,265,-227
1,1032345,2465,821,-533,-1480,-292,-36,247,265,-227
1,1032351,2465,821,-533,-1480,-292,-36,247,265,-227
1,1032356,2465,821,-533,-1480,-292,-36,247,265,-227
1,1032364,2465,821,-533,-1480,-292,-36,247,265,-227
1,1032370,2466,822,-532,-1481,-294,-41,247,265,-227
1,1032377,2466,822,-532,-1481,-294,-41,247,265,-227
1,1032383,2466,822,-532,-1481,-294,-41,247,265,-227
1,1032390,2467,823,-524,-1483,-293,-40,252,278,-230
1,1032397,2467,823,-524,-1483,-293,-40,252,278,-230
1,1032403,2467,823,-524,-1483,-293,-40,252,278,-230
1,1032410,2464,823,-528,-1480,-292,-30,252,278,-230
1,1032417,2464,823,-528,-1480,-292,-30,252,278,-230
1,1032423,2464,823,-528,-1480,-292,-30,252,278,-230
1,1032430,2465,823,-531,-1484,-289,-35,252,278,-230
1,1032436,2465,823,-531,-1484,-289,-35,252,278,-230
1,1032443,2465,823,-531,-1484,-289,-35,252,278,-230
1,1032450,2466,822,-525,-1472,-299,-46,252,278,-230
1,1032458,2466,822,-525,-1472,-299,-46,252,278,-230
1,1032464,2466,824,-531,-1471,-300,-40,252,278,-230
1,1032472,2466,824,-531,-1471,-300,-40,252,278,-230
1,1032478,2466,824,-531,-1471,-300,-40,252,278,-230
1,1032484,2466,827,-528,-1479,-296,-38,252,278,-230
1,1032489,2466,827,-528,-1479,-296,-38,252,278,-230
1,1032496,2466,827,-528,-1479,-296,-38,252,278,-230
1,1032504,2466,827,-528,-1479,-296,-38,252,278,-230
1,1032510,2466,822,-530,-1482,-294,-33,249,269,-239
1,1032516,2466,822,-530,-1482,-294,-33,249,269,-239
1,1032524,2466,822,-530,-1482,-294,-33,249,269,-239
1,1032530,2465,825,-527,-1484,-287,-37,249,269,-239
1,1032538,2465,825,-527,-1484,-287,-37,249,269,-239
1,1032544,2465,825,-527,-1484,-287,-37,249,269,-239
1,1032551,2464,825,-528,-1482,-290,-36,249,269,-239
1,1032557,2464,825,-528,-1482,-290,-36,249,269,-239
1,1032564,2464,825,-528,-1482,-290,-36,249,269,-239
1,1032570,2462,825,-531,-1483,-288,-34,249,269,-239
1,1032578,2462,825,-531,-1483,-288,-34,249,269,-239
1,1032583,2462,825,-531,-1483,-288,-34,249,269,-239
1,1032591,2467,824,-525,-1537,-304,-38,249,269,-239
1,1032598,2467,824,-525,-1537,-304,-38,249,269,-239
1,1032604,2465,823,-530,-1487,-306,-38,249,269,-239
1,1032612,2465,823,-530,-1487,-306,-38,249,269,-239
1,1032619,2465,823,-530,-1487,-306,-38,249,269,-239
1,1032626,2467,822,-530,-1480,-308,-36,249,269,-239
1,1032632,2467,822,-530,-1480,-308,-36,249,269,-239
1,1032639,2467,822,-530,-1480,-308,-36,249,269,-239
1,1032645,2466,824,-525,-1469,-302,-33,252,268,-246
1,1032651,2466,824,-525,-1469,-302,-33,252,268,-246
1,1032658,2466,824,-525,-1469,-302,-33,252,268,-246
1,1032666,2466,824,-527,-1473,-296,-28,252,268,-246
1,1032672,2466,824,-527,-1473,-296,-28,252,268,-246
1,1032678,2466,824,-527,-1473,-296,-28,252,268,-246
1,1032684,2466,824,-527,-1473,-296,-28,252,268,-246
1,1032692,2462,824,-525,-1479,-290,-31,252,268,-246
1,1032698,2462,824,-525,-1479,-290,-31,252,268,-246
1,1032705,2467,818,-534,-1477,-298,-32,252,268,-246
1,1032712,2467,818,-534,-1477,-298,-32,252,268,-246
1,1032718,2467,818,-534,-1477,-298,-32,252,268,-246
1,1032725,2467,821,-532,-1482,-304,-33,252,268,-246
1,1032731,2467,821,-532,-1482,-304,-33,252,268,-246
1,1032738,2467,821,-532,-1482,-304,-33,252,268,-246
1,1032745,2468,822,-529,-1477,-312,-33,252,268,-246
1,1032753,2468,822,-529,-1477,-312,-33,252,268,-246
1,1032759,2468,822,-529,-1477,-312,-33,252,268,-246
1,1032764,2467,821,-524,-1471,-299,-38,252,268,-246
1,1032771,2467,821,-524,-1471,-299,-38,256,274,-234
1,1032776,2467,821,-524,-1471,-299,-38,256,274,-234
1,1032782,2467,821,-524,-1471,-299,-38,256,274,-234
1,1032790,2466,825,-525,-1485,-273,-30,256,274,-234
1,1032796,2466,825,-525,-1485,-273,-30,256,274,-234
1,1032803,2466,825,-525,-1485,-273,-30,256,274,-234
1,1032809,2465,825,-531,-1480,-275,-32,256,274,-234
1,1032816,2465,825,-531,-1480,-275,-32,256,274,-234
1,1032824,2466,821,-528,-1491,-264,2,256,274,-234
1,1032832,2466,821,-528,-1491,-264,2,256,274,-234
1,1032838,2466,821,-528,-1491,-264,2,256,274,-234
1,1032843,2466,821,-528,-1491,-264,2,256,274,-234
1,1032849,2469,823,-524,-1488,-259,21,256,274,-234
1,1032856,2469,823,-524,-1488,-259,21,256,274,-234
1,1032863,2469,823,-524,-1488,-259,21,256,274,-234
1,1032869,2466,821,-527,-1487,-291,0,256,274,-234
1,1032876,2466,821,-527,-1487,-291,0,256,274,-234
1,1032882,2466,821,-527,-1487,-291,0,256,274,-234
1,1032888,2466,823,-521,-1481,-316,-20,253,269,-237
1,1032893,2466,823,-521,-1481,-316,-20,253,269,-237
1,1032900,2466,823,-521,-1481,-316,-20,253,269,-237
1,1032906,2466,827,-524,-1475,-325,-36,253,269,-237
1,1032913,2466,827,-524,-1475,-325,-36,253,269,-237
1,1032920,2466,827,-524,-1475,-325,-36,253,269,-237
1,1032928,2469,823,-525,-1463,-355,-46,253,269,-237
1,1032935,2469,823,-525,-1463,-355,-46,253,269,-237
1,1032942,2469,823,-525,-1463,-355,-46,253,269,-237
1,1032949,2467,822,-531,-1470,-347,-40,253,269,-237
1,1032956,2467,822,-531,-1470,-347,-40,253,269,-237
1,1032964,2467,822,-531,-1470,-347,-40,253,269,-237
1,1032972,2464,825,-528,-1470,-337,-44,253,269,-237
1,1032977,2464,825,-528,-1470,-337,-44,253,269,-237
1,1032984,2467,822,-531,-1472,-321,-46,253,269,-237
1,1032992,2467,822,-531,-1472,-321,-46,253,269,-237
1,1032998,2467,822,-531,-1472,-321,-46,253,269,-237
1,1033005,2469,819,-526,-1476,-300,-39,257,277,-235
1,1033010,2469,819,-526,-1476,-300,-39,257,277,-235
1,1033018,2469,819,-526,-1476,-300,-39,257,277,-235
1,1033025,2466,824,-528,-1478,-301,-51,257,277,-235
1,1033032,2466,824,-528,-1478,-301,-51,257,277,-235
1,1033039,2466,824,-528,-1478,-301,-51,257,277,-235
1,1033044,2466,824,-528,-1489,-278,-44,257,277,-235
1,1033052,2466,824,-528,-1489,-278,-44,257,277,-235
1,1033060,2466,824,-528,-1489,-278,-44,257,277,-235
1,1033066,2465,823,-533,-1482,-281,-34,257,277,-235
1,1033073,2465,823,-533,-1482,-281,-34,257,277,-235
1,1033080,2465,823,-533,-1482,-281,-34,257,277,-235
1,1033086,2470,822,-531,-1480,-289,-36,257,277,-235
1,1033095,2470,822,-531,-1480,-289,-36,257,277,-235
1,1033100,2470,822,-531,-1480,-289,-36,257,277,-235
1,1033106,2467,822,-530,-1481,-299,-38,257,277,-235
1,1033114,2467,822,-530,-1481,-299,-38,257,277,-235
1,1033120,2467,822,-530,-1481,-299,-38,257,277,-235
1,1033127,2468,823,-534,-1480,-303,-40,257,277,-235
1,1033134,2468,823,-534,-1480,-303,-40,257,277,-235
1,1033141,2468,823,-534,-1480,-303,-40,257,277,-235
1,1033148,2467,824,-529,-1478,-306,-37,246,272,-226
1,1033155,2467,824,-529,-1478,-306,-37,246,272,-226
1,1033162,2467,824,-529,-1478,-306,-37,246,272,-226
1,1033168,2466,821,-526,-1481,-300,-30,246,272,-226
1,1033177,2466,821,-526,-1481,-300,-30,246,272,-226
1,1033183,2466,821,-526,-1481,-300,-30,246,272,-226
1,1033190,2469,823,-530,-1487,-302,-30,246,272,-226
1,1033195,2469,823,-530,-1487,-302,-30,246,272,-226
1,1033202,2469,823,-530,-1487,-302,-30,246,272,-226
1,1033211,2469,821,-531,-1479,-305,-32,246,272,-226
1,1033218,2469,821,-531,-1479,-305,-32,246,272,-226
1,1033224,2469,821,-531,-1479,-305,-32,246,272,-226
1,1033229,2467,822,-530,-1475,-297,-37,246,272,-226
1,1033236,2467,822,-530,-1475,-297,-37,246,272,-226
1,1033242,2467,822,-530,-1475,-297,-37,246,272,-226
1,1033250,2465,824,-530,-1476,-300,-29,246,272,-226
1,1033257,2465,824,-530,-1476,-300,-29,246,272,-226
1,1033265,2467,823,-524,-1473,-301,-36,255,272,-226
1,1033270,2467,823,-524,-1473,-301,-36,255,271,-237
1,1033278,2467,823,-524,-1473,-301,-36,255,271,-237
1,1033285,2465,823,-528,-1476,-297,-32,255,271,-237
1,1033291,2465,823,-528,-1476,-297,-32,255,271,-237
1,1033298,2465,823,-528,-1476,-297,-32,255,271,-237
1,1033305,2465,824,-524,-1473,-297,-31,255,271,-237
1,1033313,2465,824,-524,-1473,-297,-31,255,271,-237
1,1033319,2465,824,-524,-1473,-297,-31,255,271,-237
1,1033326,2467,825,-524,-1482,-298,-40,255,271,-237
1,1033333,2467,825,-524,-1482,-298,-40,255,271,-237
1,1033340,2467,825,-524,-1482,-298,-40,255,271,-237
1,1033348,2466,823,-530,-1488,-303,-36,255,271,-237
1,1033355,2466,823,-530,-1488,-303,-36,255,271,-237
1,1033362,2466,823,-530,-1488,-303,-36,255,271,-237
1,1033367,2466,821,-528,-1483,-307,-34,255,271,-237
1,1033374,2466,821,-528,-1483,-307,-34,255,271,-237
1,1033379,2466,821,-528,-1483,-307,-34,255,271,-237
1,1033385,2467,826,-534,-1480,-308,-35,249,277,-229
1,1033393,2467,826,-534,-1480,-308,-35,249,277,-229
1,1033400,2467,826,-534,-1480,-308,-35,249,277,-229
1,1033406,2466,823,-527,-1479,-306,-36,249,277,-229
1,1033413,2466,823,-527,-1479,-306,-36,249,277,-229
1,1033420,2466,823,-527,-1479,-306,-36,249,277,-229
1,1033428,2466,821,-526,-1478,-300,-32,249,277,-229
1,1033435,2466,821,-526,-1478,-300,-32,249,277,-229
1,1033441,2466,821,-526,-1478,-300,-32,249,277,-229
1,1033447,2468,823,-528,-1478,-300,-33,249,277,-229
1,1033454,2468,823,-528,-1478,-300,-33,249,277,-229
1,1033461,2468,823,-528,-1478,-300,-33,249,277,-229
1,1033467,2466,825,-529,-1476,-300,-36,249,277,-229
1,1033474,2466,825,-529,-1476,-300,-36,249,277,-229
1,1033481,2466,825,-529,-1476,-300,-36,249,277,-229
1,1033488,2465,824,-530,-1485,-305,-41,249,277,-229
1,1033496,2465,824,-530,-1485,-305,-41,249,277,-229
1,1033502,2465,824,-530,-1485,-305,-41,249,277,-229
1,1033508,2469,822,-529,-1486,-297,-37,255,259,-237
1,1033517,2469,822,-529,-1486,-297,-37,255,259,-237
1,1033524,2469,822,-529,-1486,-297,-37,255,259,-237
1,1033530,2466,826,-527,-1481,-298,-33,255,259,-237
1,1033536,2466,826,-527,-1481,-298,-33,255,259,-237
1,1033545,2462,819,-530,-1484,-292,-37,255,259,-237
1,1033551,2462,819,-530,-1484,-292,-37,255,259,-237
1,1033558,2462,819,-530,-1484,-292,-37,255,259,-237
1,1033565,2463,819,-526,-1487,-295,-36,255,259,-237
1,1033572,2463,819,-526,-1487,-295,-36,255,259,-237
1,1033578,2463,819,-526,-1487,-295,-36,255,259,-237
1,1033585,2466,825,-526,-1482,-295,-34,255,259,-237
1,1033591,2466,825,-526,-1482,-295,-34,255,259,-237
1,1033598,2466,825,-526,-1482,-295,-34,255,259,-237
1,1033605,2468,822,-527,-1480,-294,-37,255,259,-237
1,1033612,2468,822,-527,-1480,-294,-37,255,259,-237
1,1033619,2468,822,-527,-1480,-294,-37,255,259,-237
1,1033626,2465,824,-525,-1486,-299,-36,253,273,-227
1,1033633,2465,824,-525,-1486,-299,-36,253,273,-227
1,1033639,2465,824,-525,-1486,-299,-36,253,273,-227
1,1033647,2464,824,-527,-1484,-302,-30,253,273,-227
1,1033654,2464,824,-527,-1484,-302,-30,253,273,-227
1,1033661,2464,824,-527,-1484,-302,-30,253,273,-227
1,1033668,2464,823,-528,-1480,-298,-32,253,273,-227
1,1033674,2464,823,-528,-1480,-298,-32,253,273,-227
1,1033681,2464,823,-528,-1480,-298,-32,253,273,-227
1,1033689,2467,822,-531,-1480,-308,-32,253,273,-227
1,1033695,2467,822,-531,-1480,-308,-32,253,273,-227
1,1033701,2467,822,-531,-1480,-308,-32,253,273,-227
1,1033708,2465,822,-528,-1484,-301,-37,253,273,-227
1,1033714,2465,822,-528,-1484,-301,-37,253,273,-227
1,1033721,2465,822,-528,-1484,-301,-37,253,273,-227
1,1033730,2467,822,-531,-1481,-299,-38,253,273,-227
1,1033736,2467,822,-531,-1481,-299,-38,253,273,-227
1,1033743,2467,822,-531,-1481,-299,-38,253,273,-227
1,1033750,2471,822,-526,-1482,-303,-38,253,273,-227
1,1033756,2471,822,-526,-1482,-303,-38,253,273,-227
1,1033763,2471,822,-526,-1482,-303,-38,253,273,-227
1,1033769,2466,821,-527,-1473,-308,-42,249,277,-229
1,1033777,2466,821,-527,-1473,-308,-42,249,277,-229
1,1033782,2466,821,-527,-1473,-308,-42,249,277,-229
1,1033788,2468,820,-526,-1478,-307,-39,249,277,-229
1,1033795,2468,820,-526,-1478,-307,-39,249,277,-229
1,1033802,2468,820,-526,-1478,-307,-39,249,277,-229
1,1033808,2465,820,-531,-1484,-309,-29,249,277,-229
1,1033815,2465,820,-531,-1484,-309,-29,249,277,-229
1,1033821,2465,820,-531,-1484,-309,-29,249,277,-229
1,1033828,2466,821,-529,-1475,-301,-36,249,277,-229
1,1033835,2466,821,-529,-1475,-301,-36,249,277,-229
1,1033843,2466,821,-529,-1475,-301,-36,249,277,-229
1,1033848,2468,820,-532,-1484,-293,-39,249,277,-229
1,1033854,2468,820,-532,-1484,-293,-39,249,277,-229
1,1033861,2468,820,-532,-1484,-293,-39,249,277,-229
1,1033868,2467,822,-526,-1492,-282,-35,249,277,-229
1,1033875,2467,822,-526,-1492,-282,-35,249,277,-229
1,1033881,2467,822,-526,-1492,-282,-35,249,277,-229
1,1033889,2465,823,-521,-1482,-289,-32,252,264,-238
1,1033897,2465,823,-521,-1482,-289,-32,252,264,-238
1,1033905,2467,821,-524,-1480,-298,-40,252,264,-238
1,1033912,2467,821,-524,-1480,-298,-40,252,264,-238
1,1033919,2467,821,-524,-1480,-298,-40,252,264,-238
1,1033926,2466,819,-526,-1477,-301,-34,252,264,-238
1,1033934,2466,819,-526,-1477,-301,-34,252,264,-238
1,1033942,2466,819,-526,-1477,-301,-34,252,264,-238
1,1033949,2470,819,-532,-1475,-302,-38,252,264,-238
1,1033956,2470,819,-532,-1475,-302,-38,252,264,-238
1,1033963,2470,819,-532,-1475,-302,-38,252,264,-238
1,1033969,2464,822,-528,-1476,-300,-41,252,264,-238
1,1033976,2464,822,-528,-1476,-300,-41,252,264,-238
1,1033981,2464,822,-528,-1476,-300,-41,252,264,-238
1,1033989,2467,821,-530,-1478,-297,-38,252,264,-238
1,1033995,2467,821,-530,-1478,-297,-38,252,264,-238
1,1034002,2467,821,-530,-1478,-297,-38,252,264,-238
1,1034008,2465,824,-528,-1477,-303,-37,247,267,-243
1,1034015,2465,824,-528,-1477,-303,-37,247,267,-243
1,1034022,2465,824,-528,-1477,-303,-37,247,267,-243
1,1034029,2466,820,-530,-1485,-304,-34,247,267,-243
1,1034035,2466,820,-530,-1485,-304,-34,247,267,-243
1,1034041,2466,820,-530,-1485,-304,-34,247,267,-243
1,1034049,2467,824,-531,-1488,-306,-32,247,267,-243
1,1034055,2467,824,-531,-1488,-306,-32,247,267,-243
1,1034060,2467,824,-531,-1488,-306,-32,247,267,-243
1,1034067,2468,822,-529,-1477,-303,-38,247,267,-243
1,1034073,2468,822,-529,-1477,-303,-38,247,267,-243
1,1034081,2468,822,-529,-1477,-303,-38,247,267,-243
1,1034087,2469,822,-526,-1481,-300,-36,247,267,-243
1,1034093,2469,822,-526,-1481,-300,-36,247,267,-243
1,1034098,2469,822,-526,-1481,-300,-36,247,267,-243
1,1034105,2466,824,-529,-1487,-305,-39,247,267,-243
1,1034114,2466,824,-529,-1487,-305,-39,247,267,-243
1,1034120,2466,824,-529,-1487,-305,-39,247,267,-243
1,1034126,2465,823,-527,-1489,-303,-44,252,262,-230
1,1034134,2465,823,-527,-1489,-303,-44,252,262,-230
1,1034140,2465,823,-527,-1489,-303,-44,252,262,-230
1,1034149,2468,825,-523,-1487,-300,-32,252,262,-230
1,1034156,2468,825,-523,-1487,-300,-32,252,262,-230
1,1034162,2468,825,-523,-1487,-300,-32,252,262,-230
1,1034167,2468,826,-526,-1479,-308,-31,252,262,-230
1,1034174,2468,826,-526,-1479,-308,-31,252,262,-230
1,1034182,2468,826,-526,-1479,-308,-31,252,262,-230
1,1034187,2466,822,-528,-1482,-299,-40,252,262,-230
1,1034193,2466,822,-528,-1482,-299,-40,252,262,-230
1,1034200,2466,822,-528,-1482,-299,-40,252,262,-230
1,1034206,2467,819,-532,-1479,-298,-41,252,262,-230
1,1034211,2467,819,-532,-1479,-298,-41,252,262,-230
1,1034217,2467,819,-532,-1479,-298,-41,252,262,-230
1,1034223,2467,819,-532,-1479,-298,-41,252,262,-230
1,1034229,2464,821,-528,-1480,-307,-41,252,262,-230
1,1034236,2464,821,-528,-1480,-307,-41,252,262,-230
1,1034244,2464,821,-528,-1480,-307,-41,252,262,-230
1,1034251,2468,824,-529,-1478,-303,-34,252,262,-230
1,1034257,2468,824,-529,-1478,-303,-34,252,262,-230
1,1034265,2468,824,-529,-1478,-303,-34,252,262,-230
1,1034271,2468,822,-527,-1480,-306,-35,245,273,-231
1,1034277,2468,822,-527,-1480,-306,-35,245,273,-231
1,1034285,2468,822,-527,-1480,-306,-35,245,273,-231
1,1034292,2466,821,-535,-1482,-292,-35,245,273,-231
1,1034298,2466,821,-535,-1482,-292,-35,245,273,-231
1,1034305,2465,825,-534,-1478,-296,-34,245,273,-231
1,1034312,2465,825,-534,-1478,-296,-34,245,273,-231
1,1034319,2465,825,-534,-1478,-296,-34,245,273,-231
1,1034326,2466,822,-533,-1476,-294,-40,245,273,-231
1,1034334,2466,822,-533,-1476,-294,-40,245,273,-231
1,1034341,2466,822,-533,-1476,-294,-40,245,273,-231
1,1034349,2465,821,-528,-1480,-303,-41,245,273,-231
1,1034355,2465,821,-528,-1480,-303,-41,245,273,-231
1,1034362,2465,821,-528,-1480,-303,-41,245,273,-231
1,1034370,2464,824,-532,-1481,-306,-40,245,273,-231
1,1034378,2464,824,-532,-1481,-306,-40,245,273,-231
1,1034384,2464,824,-532,-1481,-306,-40,245,273,-231
1,1034391,2468,824,-524,-1480,-305,-41,249,265,-231
1,1034398,2468,824,-524,-1480,-305,-41,249,265,-231
1,1034405,2464,825,-522,-1482,-306,-44,249,265,-231
1,1034412,2464,825,-522,-1482,-306,-44,249,265,-231
1,1034419,2464,825,-522,-1482,-306,-44,249,265,-231
1,1034426,2463,822,-526,-1476,-316,-39,249,265,-231
1,1034433,2463,822,-526,-1476,-316,-39,249,265,-231
1,1034440,2463,822,-526,-1476,-316,-39,249,265,-231
1,1034445,2467,822,-524,-1468,-314,-35,249,265,-231
1,1034451,2467,822,-524,-1468,-314,-35,249,265,-231
1,1034459,2467,822,-524,-1468,-314,-35,249,265,-231
1,1034464,2467,822,-524,-1468,-314,-35,249,265,-231
1,1034472,2465,824,-532,-1479,-308,-37,249,265,-231
1,1034478,2465,824,-532,-1479,-308,-37,249,265,-231
1,1034484,2465,824,-532,-1479,-308,-37,249,265,-231
1,1034489,2469,825,-531,-1477,-305,-31,249,265,-231
1,1034496,2469,825,-531,-1477,-305,-31,249,265,-231
1,1034501,2469,825,-531,-1477,-305,-31,249,265,-231
1,1034508,2465,824,-527,-1489,-297,-37,240,274,-230
1,1034514,2465,824,-527,-1489,-297,-37,240,274,-230
1,1034521,2465,824,-527,-1489,-297,-37,240,274,-230
1,1034527,2466,821,-524,-1490,-302,-41,240,274,-230
1,1034534,2466,821,-524,-1490,-302,-41,240,274,-230
1,1034542,2466,821,-524,-1490,-302,-41,240,274,-230
1,1034549,2464,821,-531,-1482,-306,-45,240,274,-230
1,1034556,2464,821,-531,-1482,-306,-45,240,274,-230
1,1034562,2464,821,-531,-1482,-306,-45,240,274,-230
1,1034568,2464,824,-531,-1478,-300,-45,240,274,-230
1,1034575,2464,824,-531,-1478,-300,-45,240,274,-230
1,1034583,2464,824,-531,-1478,-300,-45,240,274,-230
1,1034590,2466,821,-530,-1485,-311,-40,240,274,-230
1,1034596,2466,821,-530,-1485,-311,-40,240,274,-230
1,1034603,2466,821,-530,-1485,-311,-40,240,274,-230
1,1034610,2468,823,-530,-1477,-312,-34,240,274,-230
1,1034619,2468,823,-530,-1477,-312,-34,240,274,-230
1,1034627,2467,821,-530,-1465,-308,-36,248,266,-234
1,1034636,2467,821,-530,-1465,-308,-36,248,266,-234
1,1034643,2467,821,-530,-1465,-308,-36,248,266,-234
1,1034651,2466,823,-524,-1471,-306,-37,248,266,-234
1,1034658,2466,823,-524,-1471,-306,-37,248,266,-234
1,1034664,2466,823,-524,-1471,-306,-37,248,266,-234
1,1034670,2465,820,-526,-1475,-307,-37,248,266,-234
1,1034677,2465,820,-526,-1475,-307,-37,248,266,-234
1,1034683,2465,820,-526,-1475,-307,-37,248,266,-234
1,1034689,2467,821,-525,-1478,-304,-36,248,266,-234
1,1034696,2467,821,-525,-1478,-304,-36,248,266,-234
1,1034702,2467,821,-525,-1478,-304,-36,248,266,-234
1,1034710,2469,822,-530,-1481,-299,-40,248,266,-234
1,1034715,2469,822,-530,-1481,-299,-40,248,266,-234
1,1034723,2469,822,-530,-1481,-299,-40,248,266,-234
1,1034730,2467,824,-529,-1479,-294,-32,248,266,-234
1,1034735,2467,824,-529,-1479,-294,-32,248,266,-234
1,1034743,2467,824,-529,-1479,-294,-32,248,266,-234
1,1034750,2467,823,-527,-1479,-296,-35,248,266,-234
1,1034758,2467,823,-527,-1479,-296,-35,248,266,-234
