imu,time,ax,ay,az,gx,gy,gz,mx,my,mz
0,2235293,2221,330,-387,-1035,-575,-319,167,69,-397
0,2235302,2221,330,-387,-1035,-575,-319,167,69,-397
0,2235312,2222,328,-389,-1036,-574,-323,167,69,-397
0,2235325,2222,328,-389,-1036,-574,-323,167,69,-397
0,2235340,2225,326,-393,-1042,-572,-329,167,69,-397
0,2235353,2226,325,-398,-1033,-572,-326,167,69,-397
0,2235367,2226,325,-398,-1033,-572,-326,167,69,-397
0,2235380,2226,328,-393,-1031,-576,-322,167,69,-397
0,2235394,2226,326,-396,-1034,-574,-322,167,69,-397
0,2235408,2225,328,-390,-1032,-574,-331,167,69,-397
0,2235423,2225,328,-390,-1032,-574,-331,170,56,-392
0,2235437,2223,327,-393,-1033,-575,-325,170,56,-392
0,2235449,2225,326,-395,-1034,-578,-324,170,56,-392
0,2235464,2225,326,-395,-1034,-578,-324,170,56,-392
0,2235478,2227,327,-395,-1039,-577,-331,170,56,-392
0,2235491,2228,330,-392,-1032,-576,-327,170,56,-392
0,2235504,2228,330,-392,-1032,-576,-327,170,56,-392
0,2235518,2226,327,-396,-1034,-575,-331,170,56,-392
0,2235528,2226,327,-396,-1034,-575,-331,170,56,-392
0,2235537,2224,328,-389,-1041,-581,-331,167,63,-391
0,2235550,2227,328,-386,-1040,-586,-328,167,63,-391
0,2235559,2227,328,-386,-1040,-586,-328,167,63,-391
0,2235568,2227,328,-386,-1040,-586,-328,167,63,-391
0,2235577,2227,326,-396,-1033,-574,-334,167,63,-391
0,2235584,2227,326,-396,-1033,-574,-334,167,63,-391
0,2235592,2227,326,-396,-1033,-574,-334,167,63,-391
0,2235600,2227,326,-396,-1033,-574,-334,167,63,-391
0,2235609,2223,329,-393,-1037,-574,-332,167,63,-391
0,2235615,2223,329,-393,-1037,-574,-332,167,63,-391
0,2235621,2223,329,-393,-1037,-574,-332,167,63,-391
0,2235627,2223,329,-393,-1037,-574,-332,167,63,-391
0,2235633,2227,327,-395,-1028,-579,-330,167,63,-391
0,2235639,2227,327,-395,-1028,-579,-330,167,63,-391
0,2235645,2227,327,-395,-1028,-579,-330,167,63,-391
0,2235654,2225,326,-392,-1030,-580,-330,167,63,-391
0,2235660,2225,326,-392,-1030,-580,-330,167,63,-391
0,2235666,2225,326,-392,-1030,-580,-330,167,63,-391
0,2235672,2223,327,-388,-1023,-573,-331,165,53,-399
0,2235678,2223,327,-388,-1023,-573,-331,165,53,-399
0,2235684,2223,327,-388,-1023,-573,-331,165,53,-399
0,2235691,2226,325,-390,-1030,-567,-320,165,53,-399
0,2235696,2226,325,-390,-1030,-567,-320,165,53,-399
0,2235702,2226,325,-390,-1030,-567,-320,165,53,-399
0,2235708,2226,325,-390,-1030,-567,-320,165,53,-399
0,2235714,2226,327,-393,-1033,-566,-326,165,53,-399
0,2235720,2226,327,-393,-1033,-566,-326,165,53,-399
0,2235726,2226,327,-393,-1033,-566,-326,165,53,-399
0,2235736,2227,330,-392,-1028,-570,-330,165,53,-399
0,2235745,2227,330,-392,-1028,-570,-330,165,53,-399
0,2235753,2227,330,-396,-1030,-575,-326,165,53,-399
0,2235763,2227,330,-396,-1030,-575,-326,165,53,-399
0,2235770,2227,326,-393,-1034,-579,-326,165,53,-399
0,2235781,2227,326,-393,-1034,-579,-326,165,53,-399
0,2235790,2225,331,-393,-1035,-584,-333,171,49,-395
0,2235798,2225,331,-393,-1035,-584,-333,171,49,-395
0,2235806,2225,331,-393,-1035,-584,-333,171,49,-395
0,2235814,2227,327,-386,-1029,-575,-330,171,49,-395
0,2235824,2227,327,-386,-1029,-575,-330,171,49,-395
0,2235832,2225,329,-386,-1032,-571,-329,171,49,-395
0,2235839,2225,329,-386,-1032,-571,-329,171,49,-395
0,2235848,2225,329,-386,-1032,-571,-329,171,49,-395
0,2235856,2222,322,-392,-1028,-576,-323,171,49,-395
0,2235865,2222,322,-392,-1028,-576,-323,171,49,-395
0,2235872,2224,324,-387,-1028,-576,-324,171,49,-395
0,2235881,2224,324,-387,-1028,-576,-324,171,49,-395
0,2235889,2222,325,-394,-1037,-572,-330,171,49,-395
0,2235898,2222,325,-394,-1037,-572,-330,171,49,-395
0,2235909,2222,325,-394,-1037,-572,-330,171,49,-395
0,2235917,2226,324,-395,-1030,-577,-327,171,49,-395
0,2235926,2226,324,-395,-1030,-577,-327,171,49,-395
0,2235935,2228,328,-385,-1033,-575,-322,170,60,-392
0,2235943,2228,328,-385,-1033,-575,-322,170,60,-392
0,2235953,2228,331,-388,-1032,-573,-324,170,60,-392
0,2235961,2228,331,-388,-1032,-573,-324,170,60,-392
0,2235970,2222,327,-391,-1037,-577,-324,170,60,-392
0,2235978,2222,327,-391,-1037,-577,-324,170,60,-392
0,2235986,2222,327,-391,-1037,-577,-324,170,60,-392
0,2235995,2223,325,-389,-1040,-581,-327,170,60,-392
0,2236003,2223,325,-389,-1040,-581,-327,170,60,-392
0,2236011,2224,331,-393,-1032,-580,-326,170,60,-392
0,2236019,2224,331,-393,-1032,-580,-326,170,60,-392
0,2236027,2224,331,-393,-1032,-580,-326,170,60,-392
0,2236037,2224,326,-391,-1034,-575,-333,170,60,-392
0,2236045,2224,326,-391,-1034,-575,-333,170,60,-392
0,2236054,2226,323,-388,-1040,-584,-322,168,56,-388
0,2236062,2226,323,-388,-1040,-584,-322,168,56,-388
0,2236071,2223,326,-388,-1043,-577,-326,168,56,-388
0,2236081,2223,326,-388,-1043,-577,-326,168,56,-388
0,2236089,2222,329,-395,-1036,-576,-334,168,56,-388
0,2236098,2222,329,-395,-1036,-576,-334,168,56,-388
0,2236106,2222,329,-395,-1036,-576,-334,168,56,-388
0,2236115,2228,328,-397,-1025,-576,-331,168,56,-388
0,2236123,2228,328,-397,-1025,-576,-331,168,56,-388
0,2236131,2225,327,-394,-1034,-575,-329,168,56,-388
0,2236139,2225,327,-394,-1034,-575,-329,168,56,-388
0,2236149,2224,324,-395,-1029,-581,-323,168,56,-388
0,2236157,2224,324,-395,-1029,-581,-323,168,56,-388
0,2236167,2224,324,-395,-1029,-581,-323,168,56,-388
0,2236176,2225,326,-391,-1038,-575,-323,168,56,-388
0,2236183,2225,326,-391,-1038,-575,-323,168,56,-388
0,2236192,2225,326,-391,-1034,-573,-333,171,53,-397
0,2236201,2225,326,-391,-1034,-573,-333,171,53,-397
0,2236208,2225,326,-391,-1034,-573,-333,171,53,-397
0,2236217,2226,327,-392,-1038,-572,-333,171,53,-397
0,2236226,2226,327,-392,-1038,-572,-333,171,53,-397
0,2236234,2224,326,-392,-1035,-570,-328,171,53,-397
0,2236242,2224,326,-392,-1035,-570,-328,171,53,-397
0,2236252,2227,325,-393,-1036,-578,-330,171,53,-397
0,2236258,2227,325,-393,-1036,-578,-330,171,53,-397
0,2236266,2227,325,-393,-1036,-578,-330,171,53,-397
0,2236272,2225,324,-393,-1029,-578,-333,171,53,-397
0,2236280,2225,324,-393,-1029,-578,-333,171,53,-397
0,2236289,2225,324,-393,-1029,-578,-333,171,53,-397
0,2236298,2225,325,-385,-1027,-578,-327,171,53,-397
0,2236306,2225,325,-385,-1027,-578,-327,171,53,-397
0,2236315,2224,329,-394,-1032,-577,-320,166,56,-390
0,2236323,2224,329,-394,-1032,-577,-320,166,56,-390
0,2236333,2224,327,-395,-1026,-580,-334,166,56,-390
0,2236342,2224,327,-395,-1026,-580,-334,166,56,-390
0,2236350,2227,327,-391,-1043,-576,-328,166,56,-390
0,2236359,2227,327,-391,-1043,-576,-328,166,56,-390
0,2236368,2227,327,-391,-1043,-576,-328,166,56,-390
0,2236377,2222,322,-392,-1035,-570,-328,166,56,-390
0,2236386,2222,322,-392,-1035,-570,-328,166,56,-390
0,2236394,2224,325,-394,-1023,-574,-329,166,56,-390
0,2236403,2224,325,-394,-1023,-574,-329,166,56,-390
0,2236411,2229,330,-390,-1037,-577,-334,166,56,-390
0,2236419,2229,330,-390,-1037,-577,-334,166,56,-390
0,2236429,2229,330,-390,-1037,-577,-334,166,56,-390
0,2236436,2226,329,-395,-1042,-580,-329,167,57,-397
0,2236445,2226,329,-395,-1042,-580,-329,167,57,-397
0,2236453,2224,328,-387,-1043,-581,-329,167,57,-397
0,2236463,2224,328,-387,-1043,-581,-329,167,57,-397
0,2236470,2225,324,-390,-1034,-574,-323,167,57,-397
0,2236479,2225,324,-390,-1034,-574,-323,167,57,-397
0,2236487,2225,324,-390,-1034,-574,-323,167,57,-397
0,2236496,2226,324,-400,-1036,-580,-325,167,57,-397
0,2236505,2226,324,-400,-1036,-580,-325,167,57,-397
0,2236513,2224,324,-391,-1038,-577,-321,167,57,-397
0,2236523,2224,324,-391,-1038,-577,-321,167,57,-397
0,2236528,2224,324,-391,-1038,-577,-321,167,57,-397
0,2236538,2227,327,-392,-1031,-575,-338,167,57,-397
0,2236545,2227,327,-392,-1031,-575,-338,167,57,-397
0,2236553,2226,327,-392,-1042,-580,-330,167,57,-397
0,2236561,2226,327,-392,-1042,-580,-330,167,57,-397
0,2236570,2222,325,-391,-1033,-575,-330,163,57,-395
0,2236578,2222,325,-391,-1033,-575,-330,163,57,-395
0,2236588,2222,325,-391,-1033,-575,-330,163,57,-395
0,2236596,2222,326,-393,-1041,-577,-324,163,57,-395
0,2236604,2222,326,-393,-1041,-577,-324,163,57,-395
0,2236612,2224,327,-396,-1039,-567,-321,163,57,-395
0,2236620,2224,327,-396,-1039,-567,-321,163,57,-395
0,2236630,2224,327,-396,-1039,-567,-321,163,57,-395
0,2236638,2224,326,-392,-1038,-578,-328,163,57,-395
0,2236647,2224,326,-392,-1038,-578,-328,163,57,-395
0,2236656,2222,325,-398,-1031,-575,-326,163,57,-395
0,2236664,2222,325,-398,-1031,-575,-326,163,57,-395
0,2236674,2221,322,-391,-1035,-571,-330,163,57,-395
0,2236682,2221,322,-391,-1035,-571,-330,163,57,-395
0,2236690,2224,326,-394,-1040,-579,-320,168,54,-388
0,2236698,2224,326,-394,-1040,-579,-320,168,54,-388
0,2236707,2224,326,-394,-1040,-579,-320,168,54,-388
0,2236716,2224,325,-392,-1035,-582,-328,168,54,-388
0,2236726,2224,325,-392,-1035,-582,-328,168,54,-388
0,2236735,2225,324,-388,-1032,-574,-329,168,54,-388
0,2236743,2225,324,-388,-1032,-574,-329,168,54,-388
0,2236752,2228,328,-388,-1036,-576,-319,168,54,-388
0,2236761,2228,328,-388,-1036,-576,-319,168,54,-388
0,2236770,2228,328,-388,-1036,-576,-319,168,54,-388
0,2236779,2226,327,-392,-1043,-573,-324,168,54,-388
0,2236788,2226,327,-392,-1043,-573,-324,168,54,-388
0,2236796,2223,327,-390,-1038,-578,-320,168,54,-388
0,2236806,2223,327,-390,-1038,-578,-320,168,54,-388
0,2236814,2220,326,-395,-1031,-579,-317,168,54,-388
0,2236823,2220,326,-395,-1031,-579,-317,168,54,-388
0,2236831,2223,325,-393,-1032,-577,-328,170,60,-386
0,2236838,2223,325,-393,-1032,-577,-328,170,60,-386
0,2236847,2223,325,-393,-1032,-577,-328,170,60,-386
0,2236856,2223,328,-396,-1035,-581,-323,170,60,-386
0,2236864,2223,328,-396,-1035,-581,-323,170,60,-386
0,2236872,2224,323,-395,-1025,-570,-322,170,60,-386
0,2236880,2224,323,-395,-1025,-570,-322,170,60,-386
0,2236889,2224,323,-395,-1025,-570,-322,170,60,-386
0,2236899,2224,325,-396,-1027,-574,-327,170,60,-386
0,2236907,2224,325,-396,-1027,-574,-327,170,60,-386
0,2236916,2228,326,-396,-1023,-571,-320,170,60,-386
0,2236924,2228,326,-396,-1023,-571,-320,170,60,-386
0,2236934,2224,325,-392,-1031,-573,-319,170,60,-386
0,2236942,2224,325,-392,-1031,-573,-319,170,60,-386
0,2236950,2223,330,-393,-1036,-583,-329,165,57,-395
0,2236959,2223,330,-393,-1036,-583,-329,165,57,-395
0,2236967,2223,330,-393,-1036,-583,-329,165,57,-395
0,2236976,2224,328,-389,-1028,-581,-334,165,57,-395
0,2236984,2224,328,-389,-1028,-581,-334,165,57,-395
0,2236994,2222,326,-390,-1032,-574,-336,165,57,-395
0,2237003,2222,326,-390,-1032,-574,-336,165,57,-395
0,2237010,2225,327,-395,-1032,-581,-334,165,57,-395
0,2237021,2225,327,-395,-1032,-581,-334,165,57,-395
0,2237029,2225,327,-395,-1032,-581,-334,165,57,-395
0,2237038,2223,328,-395,-1035,-580,-332,165,57,-395
0,2237046,2223,328,-395,-1035,-580,-332,165,57,-395
0,2237056,2224,327,-392,-1032,-571,-323,165,57,-395
0,2237065,2224,327,-392,-1032,-571,-323,165,57,-395
0,2237074,2222,324,-396,-1028,-574,-324,165,57,-393
0,2237082,2222,324,-396,-1028,-574,-324,165,57,-393
0,2237090,2226,324,-390,-1036,-575,-331,165,57,-393
0,2237100,2226,324,-390,-1036,-575,-331,165,57,-393
0,2237106,2226,324,-390,-1036,-575,-331,165,57,-393
0,2237115,2226,326,-389,-1035,-579,-333,165,57,-393
0,2237122,2226,326,-389,-1035,-579,-333,165,57,-393
0,2237131,2226,328,-392,-1027,-573,-322,165,57,-393
0,2237138,2226,328,-392,-1027,-573,-322,165,57,-393
0,2237147,2226,328,-392,-1027,-573,-322,165,57,-393
0,2237155,2225,333,-398,-1029,-575,-329,165,57,-393
0,2237163,2225,333,-398,-1029,-575,-329,165,57,-393
0,2237172,2224,326,-392,-1031,-577,-334,165,57,-393
0,2237180,2224,326,-392,-1031,-577,-334,165,57,-393
0,2237189,2224,326,-392,-1031,-577,-334,165,57,-393
0,2237198,2227,325,-396,-1022,-579,-329,165,57,-393
0,2237208,2227,325,-396,-1022,-579,-329,165,57,-393
0,2237215,2223,325,-388,-1030,-577,-315,175,59,-393
0,2237222,2223,325,-388,-1030,-577,-315,175,59,-393
0,2237231,2223,324,-389,-1035,-578,-326,175,59,-393
0,2237239,2223,324,-389,-1035,-578,-326,175,59,-393
0,2237248,2223,324,-389,-1035,-578,-326,175,59,-393
0,2237256,2223,328,-394,-1038,-578,-327,175,59,-393
0,2237265,2223,328,-394,-1038,-578,-327,175,59,-393
0,2237275,2226,325,-392,-1037,-578,-325,175,59,-393
0,2237283,2226,325,-392,-1037,-578,-325,175,59,-393
0,2237292,2227,325,-393,-1035,-572,-324,175,59,-393
0,2237300,2227,325,-393,-1035,-572,-324,175,59,-393
0,2237308,2227,325,-393,-1035,-572,-324,175,59,-393
0,2237316,2225,322,-392,-1037,-572,-325,175,59,-393
0,2237324,2225,322,-392,-1037,-572,-325,175,59,-393
0,2237333,2223,324,-391,-1033,-574,-324,162,58,-394
0,2237342,2223,324,-391,-1033,-574,-324,162,58,-394
0,2237350,2223,330,-393,-1024,-569,-326,162,58,-394
0,2237360,2223,330,-393,-1024,-569,-326,162,58,-394
0,2237368,2223,330,-393,-1024,-569,-326,162,58,-394
0,2237377,2220,328,-393,-1028,-571,-328,162,58,-394
0,2237386,2220,328,-393,-1028,-571,-328,162,58,-394
0,2237394,2220,324,-389,-1038,-574,-318,162,58,-394
0,2237404,2220,324,-389,-1038,-574,-318,162,58,-394
0,2237412,2219,321,-390,-1039,-575,-327,162,58,-394
0,2237421,2219,321,-390,-1039,-575,-327,162,58,-394
0,2237430,2219,321,-390,-1039,-575,-327,162,58,-394
0,2237440,2222,322,-395,-1036,-576,-330,162,58,-394
0,2237449,2222,322,-395,-1036,-576,-330,162,58,-394
0,2237457,2224,323,-395,-1027,-577,-329,162,58,-394
0,2237465,2224,323,-395,-1027,-577,-329,162,58,-394
0,2237473,2223,324,-388,-1023,-580,-334,171,59,-395
0,2237483,2223,324,-388,-1023,-580,-334,171,59,-395
0,2237492,2222,328,-389,-1030,-576,-336,171,59,-395
0,2237500,2222,328,-389,-1030,-576,-336,171,59,-395
0,2237509,2222,328,-389,-1030,-576,-336,171,59,-395
0,2237517,2226,323,-392,-1041,-574,-330,171,59,-395
0,2237528,2226,323,-392,-1041,-574,-330,171,59,-395
0,2237535,2226,326,-398,-1037,-581,-334,171,59,-395
0,2237543,2226,326,-398,-1037,-581,-334,171,59,-395
0,2237551,2224,326,-393,-1037,-572,-333,171,59,-395
0,2237560,2224,326,-393,-1037,-572,-333,171,59,-395
0,2237569,2224,326,-393,-1037,-572,-333,171,59,-395
0,2237575,2226,324,-395,-1036,-572,-324,171,59,-395
0,2237583,2226,324,-395,-1036,-572,-324,171,59,-395
0,2237591,2224,325,-392,-1037,-581,-326,169,57,-393
0,2237600,2224,325,-392,-1037,-581,-326,169,57,-393
0,2237608,2224,325,-392,-1037,-581,-326,169,57,-393
0,2237618,2224,326,-394,-1034,-579,-329,169,57,-393
0,2237626,2224,326,-394,-1034,-579,-329,169,57,-393
0,2237635,2227,325,-393,-1030,-573,-332,169,57,-393
0,2237643,2227,325,-393,-1030,-573,-332,169,57,-393
0,2237652,2222,324,-397,-1034,-573,-334,169,57,-393
0,2237662,2222,324,-397,-1034,-573,-334,169,57,-393
0,2237670,2222,324,-397,-1034,-573,-334,169,57,-393
0,2237677,2223,326,-397,-1031,-574,-337,169,57,-393
0,2237685,2223,326,-397,-1031,-574,-337,169,57,-393
0,2237693,2222,325,-397,-1036,-567,-332,169,57,-393
0,2237703,2222,325,-397,-1036,-567,-332,169,57,-393
0,2237710,2222,325,-397,-1036,-567,-332,169,57,-393
0,2237717,2223,323,-385,-1032,-571,-333,169,57,-393
0,2237726,2223,323,-385,-1032,-571,-333,169,57,-393
0,2237733,2224,323,-388,-1030,-575,-336,168,60,-398
0,2237743,2224,323,-388,-1030,-575,-336,168,60,-398
0,2237751,2224,323,-388,-1030,-575,-336,168,60,-398
0,2237760,2222,328,-390,-1031,-571,-326,168,60,-398
0,2237769,2222,328,-390,-1031,-571,-326,168,60,-398
0,2237776,2226,327,-396,-1024,-581,-333,168,60,-398
0,2237786,2226,327,-396,-1024,-581,-333,168,60,-398
0,2237794,2224,327,-398,-1021,-573,-329,168,60,-398
0,2237803,2224,327,-398,-1021,-573,-329,168,60,-398
0,2237811,2221,327,-398,-1030,-572,-325,168,60,-398
0,2237820,2221,327,-398,-1030,-572,-325,168,60,-398
0,2237829,2221,327,-398,-1030,-572,-325,168,60,-398
0,2237838,2224,324,-398,-1032,-579,-328,168,60,-398
0,2237846,2224,324,-398,-1032,-579,-328,168,60,-398
0,2237855,2223,325,-389,-1038,-572,-331,167,59,-393
0,2237863,2223,325,-389,-1038,-572,-331,167,59,-393
0,2237872,2224,322,-393,-1039,-573,-329,167,59,-393
0,2237880,2224,322,-393,-1039,-573,-329,167,59,-393
0,2237888,2224,322,-393,-1039,-573,-329,167,59,-393
0,2237897,2225,321,-391,-1030,-572,-328,167,59,-393
0,2237905,2225,321,-391,-1030,-572,-328,167,59,-393
0,2237914,2227,328,-396,-1037,-575,-322,167,59,-393
0,2237922,2227,328,-396,-1037,-575,-322,167,59,-393
0,2237932,2224,323,-390,-1029,-574,-322,167,59,-393
0,2237941,2224,323,-390,-1029,-574,-322,167,59,-393
0,2237949,2224,323,-390,-1029,-574,-322,167,59,-393
0,2237959,2224,325,-389,-1027,-570,-325,167,59,-393
0,2237968,2224,325,-389,-1027,-570,-325,167,59,-393
0,2237976,2222,322,-391,-1033,-571,-331,165,57,-383
0,2237983,2222,322,-391,-1033,-571,-331,165,57,-383
0,2237992,2225,326,-393,-1033,-576,-334,165,57,-383
0,2238001,2225,326,-393,-1033,-576,-334,165,57,-383
0,2238010,2225,326,-393,-1033,-576,-334,165,57,-383
0,2238019,2219,324,-394,-1031,-579,-329,165,57,-383
0,2238027,2219,324,-394,-1031,-579,-329,165,57,-383
0,2238036,2221,323,-396,-1032,-576,-334,165,57,-383
0,2238044,2221,323,-396,-1032,-576,-334,165,57,-383
0,2238052,2220,325,-396,-1027,-570,-328,165,57,-383
0,2238060,2220,325,-396,-1027,-570,-328,165,57,-383
0,2238068,2220,325,-396,-1027,-570,-328,165,57,-383
0,2238077,2222,325,-396,-1033,-567,-325,165,57,-383
0,2238086,2222,325,-396,-1033,-567,-325,165,57,-383
0,2238094,2224,326,-395,-1042,-577,-330,165,57,-383
0,2238103,2224,326,-395,-1042,-577,-330,165,57,-383
0,2238111,2225,325,-389,-1036,-573,-335,163,63,-393
0,2238121,2225,325,-389,-1036,-573,-335,163,63,-393
0,2238130,2225,325,-389,-1036,-573,-335,163,63,-393
0,2238139,2225,327,-391,-1034,-569,-331,163,63,-393
0,2238147,2225,327,-391,-1034,-569,-331,163,63,-393
0,2238153,2220,324,-392,-1037,-582,-331,163,63,-393
0,2238162,2220,324,-392,-1037,-582,-331,163,63,-393
0,2238171,2220,324,-392,-1037,-582,-331,163,63,-393
0,2238178,2225,325,-394,-1038,-577,-329,163,63,-393
0,2238187,2225,325,-394,-1038,-577,-329,163,63,-393
0,2238194,2222,327,-391,-1032,-577,-333,163,63,-393
0,2238201,2222,327,-391,-1032,-577,-333,163,63,-393
0,2238211,2222,327,-391,-1032,-577,-333,163,63,-393
0,2238218,2221,326,-393,-1038,-578,-329,163,63,-393
0,2238227,2221,326,-393,-1038,-578,-329,163,63,-393
0,2238234,2222,322,-396,-1042,-577,-327,172,62,-392
0,2238242,2222,322,-396,-1042,-577,-327,172,62,-392
0,2238252,2221,325,-388,-1044,-578,-332,172,62,-392
0,2238262,2221,325,-388,-1044,-578,-332,172,62,-392
0,2238271,2221,325,-388,-1044,-578,-332,172,62,-392
0,2238279,2223,325,-393,-1035,-573,-333,172,62,-392
0,2238286,2223,325,-393,-1035,-573,-333,172,62,-392
0,2238295,2225,326,-392,-1039,-577,-331,172,62,-392
0,2238303,2225,326,-392,-1039,-577,-331,172,62,-392
0,2238311,2223,324,-396,-1038,-571,-325,172,62,-392
0,2238320,2223,324,-396,-1038,-571,-325,172,62,-392
0,2238329,2223,324,-396,-1038,-571,-325,172,62,-392
0,2238338,2226,323,-389,-1035,-577,-327,172,62,-392
0,2238346,2226,323,-389,-1035,-577,-327,172,62,-392
0,2238354,2222,321,-397,-1038,-585,-324,172,62,-392
0,2238362,2222,321,-397,-1038,-585,-324,172,62,-392
0,2238371,2222,321,-397,-1038,-585,-324,172,62,-392
0,2238380,2221,321,-389,-1038,-573,-335,172,48,-382
0,2238387,2221,321,-389,-1038,-573,-335,172,48,-382
0,2238395,2226,326,-395,-1038,-584,-336,172,48,-382
0,2238404,2226,326,-395,-1038,-584,-336,172,48,-382
0,2238412,2221,326,-387,-1030,-581,-324,172,48,-382
0,2238420,2221,326,-387,-1030,-581,-324,172,48,-382
0,2238429,2221,326,-387,-1030,-581,-324,172,48,-382
0,2238438,2224,322,-392,-1030,-572,-322,172,48,-382
0,2238446,2224,322,-392,-1030,-572,-322,172,48,-382
0,2238454,2223,324,-394,-1036,-578,-326,172,48,-382
0,2238462,2223,324,-394,-1036,-578,-326,172,48,-382
0,2238471,2223,324,-394,-1036,-578,-326,172,48,-382
0,2238480,2221,322,-394,-1041,-582,-329,172,48,-382
0,2238489,2221,322,-394,-1041,-582,-329,172,48,-382
0,2238498,2223,326,-384,-1039,-576,-333,170,62,-388
0,2238505,2223,326,-384,-1039,-576,-333,170,62,-388
0,2238515,2223,325,-391,-1031,-578,-335,170,62,-388
0,2238523,2223,325,-391,-1031,-578,-335,170,62,-388
0,2238530,2223,325,-391,-1031,-578,-335,170,62,-388
0,2238538,2224,327,-389,-1029,-568,-327,170,62,-388
0,2238546,2224,327,-389,-1029,-568,-327,170,62,-388
0,2238555,2225,325,-393,-1032,-575,-333,170,62,-388
0,2238563,2225,325,-393,-1032,-575,-333,170,62,-388
0,2238571,2225,325,-393,-1032,-575,-333,170,62,-388
0,2238580,2219,325,-390,-1035,-574,-329,170,62,-388
0,2238588,2219,325,-390,-1035,-574,-329,170,62,-388
0,2238598,2225,327,-396,-1033,-578,-323,170,62,-388
0,2238607,2225,327,-396,-1033,-578,-323,170,62,-388
0,2238614,2223,325,-391,-1029,-572,-336,170,62,-388
0,2238623,2223,325,-391,-1029,-572,-336,170,62,-388
0,2238631,2223,325,-391,-1029,-572,-336,170,62,-388
0,2238641,2224,320,-392,-1030,-578,-332,162,58,-388
0,2238649,2224,320,-392,-1030,-578,-332,162,58,-388
0,2238658,2223,322,-388,-1028,-577,-322,162,58,-388
0,2238666,2223,322,-388,-1028,-577,-322,162,58,-388
0,2238674,2226,326,-392,-1041,-579,-332,162,58,-388
0,2238684,2226,326,-392,-1041,-579,-332,162,58,-388
0,2238692,2221,325,-393,-1036,-577,-332,162,58,-388
0,2238701,2221,325,-393,-1036,-577,-332,162,58,-388
0,2238709,2221,325,-393,-1036,-577,-332,162,58,-388
0,2238717,2222,326,-387,-1033,-574,-331,162,58,-388
0,2238727,2222,326,-387,-1033,-574,-331,162,58,-388
0,2238735,2223,326,-393,-1037,-580,-333,162,58,-388
0,2238744,2223,326,-393,-1037,-580,-333,162,58,-388
0,2238752,2223,323,-387,-1033,-574,-332,162,58,-388
0,2238760,2223,323,-387,-1033,-574,-332,175,63,-389
0,2238769,2223,323,-387,-1033,-574,-332,175,63,-389
0,2238779,2224,320,-389,-1032,-574,-324,175,63,-389
0,2238787,2224,320,-389,-1032,-574,-324,175,63,-389
0,2238795,2222,323,-389,-1028,-575,-332,175,63,-389
0,2238803,2222,323,-389,-1028,-575,-332,175,63,-389
0,2238814,2219,327,-398,-1030,-578,-330,175,63,-389
0,2238821,2219,327,-398,-1030,-578,-330,175,63,-389
0,2238830,2219,327,-398,-1030,-578,-330,175,63,-389
0,2238838,2223,325,-393,-1039,-573,-326,175,63,-389
0,2238848,2223,325,-393,-1039,-573,-326,175,63,-389
0,2238857,2223,322,-397,-1039,-576,-332,175,63,-389
0,2238866,2223,322,-397,-1039,-576,-332,175,63,-389
0,2238874,2221,322,-391,-1031,-572,-328,170,62,-392
0,2238882,2221,322,-391,-1031,-572,-328,170,62,-392
0,2238888,2221,322,-391,-1031,-572,-328,170,62,-392
0,2238898,2224,324,-388,-1038,-575,-329,170,62,-392
0,2238907,2224,324,-388,-1038,-575,-329,170,62,-392
0,2238915,2223,323,-396,-1033,-573,-327,170,62,-392
0,2238922,2223,323,-396,-1033,-573,-327,170,62,-392
0,2238931,2223,323,-396,-1033,-573,-327,170,62,-392
0,2238941,2224,326,-395,-1031,-572,-322,170,62,-392
0,2238950,2224,326,-395,-1031,-572,-322,170,62,-392
0,2238958,2224,324,-389,-1027,-573,-325,170,62,-392
0,2238965,2224,324,-389,-1027,-573,-325,170,62,-392
0,2238972,2224,321,-390,-1025,-586,-322,170,62,-392
0,2238982,2224,321,-390,-1025,-586,-322,170,62,-392
0,2238990,2224,321,-390,-1025,-586,-322,170,62,-392
0,2238998,2225,324,-396,-1025,-575,-326,170,62,-392
0,2239007,2225,324,-396,-1025,-575,-326,170,62,-392
0,2239016,2223,326,-391,-1034,-574,-330,173,53,-401
0,2239025,2223,326,-391,-1034,-574,-330,173,53,-401
0,2239034,2222,326,-389,-1033,-582,-327,173,53,-401
0,2239044,2222,326,-389,-1033,-582,-327,173,53,-401
0,2239051,2222,326,-389,-1033,-582,-327,173,53,-401
0,2239060,2225,322,-392,-1024,-585,-330,173,53,-401
0,2239069,2225,322,-392,-1024,-585,-330,173,53,-401
0,2239077,2222,322,-388,-1031,-580,-333,173,53,-401
0,2239085,2222,322,-388,-1031,-580,-333,173,53,-401
0,2239094,2224,325,-392,-1039,-586,-332,173,53,-401
0,2239102,2224,325,-392,-1039,-586,-332,173,53,-401
0,2239112,2224,325,-392,-1039,-586,-332,173,53,-401
0,2239120,2224,325,-391,-1039,-580,-326,173,53,-401
0,2239127,2224,325,-391,-1039,-580,-326,173,53,-401
0,2239136,2222,324,-391,-1031,-580,-332,168,60,-388
0,2239144,2222,324,-391,-1031,-580,-332,168,60,-388
0,2239155,2222,319,-392,-1032,-580,-340,168,60,-388
0,2239165,2222,319,-392,-1032,-580,-340,168,60,-388
0,2239173,2223,323,-394,-1041,-578,-333,168,60,-388
0,2239182,2223,323,-394,-1041,-578,-333,168,60,-388
0,2239191,2223,323,-394,-1041,-578,-333,168,60,-388
0,2239199,2222,322,-395,-1038,-575,-334,168,60,-388
0,2239208,2222,322,-395,-1038,-575,-334,168,60,-388
0,2239216,2221,323,-395,-1027,-571,-326,168,60,-388
0,2239224,2221,323,-395,-1027,-571,-326,168,60,-388
0,2239233,2221,323,-395,-1027,-571,-326,168,60,-388
0,2239241,2223,325,-394,-1034,-576,-327,168,60,-388
0,2239250,2223,325,-394,-1034,-576,-327,168,60,-388
0,2239259,2226,322,-388,-1033,-580,-333,168,60,-388
0,2239267,2226,322,-388,-1033,-580,-333,168,60,-388
0,2239276,2222,322,-388,-1031,-575,-331,171,63,-393
0,2239284,2222,322,-388,-1031,-575,-331,171,63,-393
0,2239292,2222,322,-388,-1031,-575,-331,171,63,-393
0,2239301,2225,322,-390,-1034,-574,-327,171,63,-393
0,2239310,2225,322,-390,-1034,-574,-327,171,63,-393
0,2239316,2226,326,-390,-1035,-577,-327,171,63,-393
0,2239326,2226,326,-390,-1035,-577,-327,171,63,-393
0,2239334,2227,328,-390,-1030,-578,-327,171,63,-393
0,2239342,2227,328,-390,-1030,-578,-327,171,63,-393
0,2239351,2227,328,-390,-1030,-578,-327,171,63,-393
0,2239360,2225,323,-393,-1027,-579,-329,171,63,-393
0,2239368,2225,323,-393,-1027,-579,-329,171,63,-393
0,2239375,2224,326,-393,-1030,-581,-332,171,63,-393
0,2239383,2224,326,-393,-1030,-581,-332,171,63,-393
0,2239392,2224,326,-393,-1030,-581,-332,171,63,-393
0,2239400,2224,325,-391,-1035,-575,-327,165,61,-401
0,2239410,2224,325,-391,-1035,-575,-327,165,61,-401
0,2239419,2223,324,-391,-1022,-577,-327,165,61,-401
0,2239427,2223,324,-391,-1022,-577,-327,165,61,-401
0,2239435,2222,324,-391,-1029,-566,-329,165,61,-401
0,2239444,2222,324,-391,-1029,-566,-329,165,61,-401
0,2239453,2225,326,-390,-1034,-572,-331,165,61,-401
0,2239461,2225,326,-390,-1034,-572,-331,165,61,-401
0,2239469,2225,326,-390,-1034,-572,-331,165,61,-401
0,2239478,2223,323,-390,-1032,-573,-327,165,61,-401
0,2239486,2223,323,-390,-1032,-573,-327,165,61,-401
0,2239496,2226,319,-389,-1035,-577,-328,165,61,-401
0,2239505,2226,319,-389,-1035,-577,-328,165,61,-401
0,2239514,2227,324,-391,-1039,-567,-332,165,61,-401
0,2239522,2227,324,-391,-1039,-567,-332,165,61,-401
0,2239531,2227,324,-391,-1039,-567,-332,165,61,-401
0,2239539,2221,322,-389,-1042,-575,-337,162,60,-388
0,2239548,2221,322,-389,-1042,-575,-337,162,60,-388
0,2239557,2223,321,-392,-1036,-579,-330,162,60,-388
0,2239566,2223,321,-392,-1036,-579,-330,162,60,-388
0,2239575,2224,324,-391,-1037,-580,-326,162,60,-388
0,2239585,2224,324,-391,-1037,-580,-326,162,60,-388
0,2239593,2224,324,-391,-1037,-580,-326,162,60,-388
0,2239601,2223,322,-391,-1032,-576,-323,162,60,-388
0,2239610,2223,322,-391,-1032,-576,-323,162,60,-388
0,2239618,2222,324,-393,-1035,-580,-319,162,60,-388
0,2239626,2222,324,-393,-1035,-580,-319,162,60,-388
0,2239635,2223,325,-390,-1028,-577,-328,162,60,-388
0,2239644,2223,325,-390,-1028,-577,-328,162,60,-388
0,2239653,2225,324,-392,-1035,-576,-323,171,59,-393
0,2239662,2225,324,-392,-1035,-576,-323,171,59,-393
0,2239671,2225,324,-392,-1035,-576,-323,171,59,-393
0,2239680,2226,321,-391,-1036,-580,-326,171,59,-393
0,2239688,2226,321,-391,-1036,-580,-326,171,59,-393
0,2239697,2224,320,-395,-1033,-569,-324,171,59,-393
0,2239706,2224,320,-395,-1033,-569,-324,171,59,-393
0,2239714,2224,324,-398,-1031,-570,-323,171,59,-393
0,2239722,2224,324,-398,-1031,-570,-323,171,59,-393
0,2239731,2224,324,-398,-1031,-570,-323,171,59,-393
0,2239739,2223,324,-390,-1030,-572,-325,171,59,-393
0,2239750,2223,324,-390,-1030,-572,-325,171,59,-393
0,2239757,2222,325,-393,-1029,-570,-333,171,59,-393
0,2239765,2222,325,-393,-1029,-570,-333,171,59,-393
0,2239774,2224,325,-387,-1038,-574,-327,170,58,-396
0,2239782,2224,325,-387,-1038,-574,-327,170,58,-396
0,2239791,2224,325,-387,-1038,-574,-327,170,58,-396
0,2239799,2221,321,-392,-1036,-572,-328,170,58,-396
0,2239807,2221,321,-392,-1036,-572,-328,170,58,-396
0,2239815,2223,318,-392,-1029,-573,-331,170,58,-396
0,2239823,2223,318,-392,-1029,-573,-331,170,58,-396
0,2239832,2223,318,-392,-1029,-573,-331,170,58,-396
0,2239841,2224,324,-394,-1038,-572,-332,170,58,-396
0,2239849,2224,324,-394,-1038,-572,-332,170,58,-396
0,2239859,2224,323,-395,-1028,-578,-329,170,58,-396
0,2239868,2224,323,-395,-1028,-578,-329,170,58,-396
0,2239877,2225,321,-394,-1035,-576,-337,170,58,-396
0,2239886,2225,321,-394,-1035,-576,-337,170,58,-396
0,2239894,2227,320,-392,-1028,-572,-333,170,58,-396
0,2239903,2227,320,-392,-1028,-572,-333,170,58,-396
0,2239911,2227,320,-392,-1028,-572,-333,170,58,-396
0,2239921,2225,325,-386,-1024,-576,-330,170,60,-394
0,2239930,2225,325,-386,-1024,-576,-330,170,60,-394
0,2239938,2224,327,-386,-1029,-573,-324,170,60,-394
0,2239946,2224,327,-386,-1029,-573,-324,170,60,-394
0,2239955,2224,322,-390,-1038,-578,-328,170,60,-394
0,2239963,2224,322,-390,-1038,-578,-328,170,60,-394
0,2239971,2224,322,-390,-1038,-578,-328,170,60,-394
0,2239979,2226,324,-393,-1040,-580,-320,170,60,-394
0,2239987,2226,324,-393,-1040,-580,-320,170,60,-394
0,2239995,2226,324,-393,-1040,-580,-320,170,60,-394
0,2240004,2226,324,-393,-1040,-580,-320,170,60,-394
0,2240013,2226,324,-393,-1040,-580,-320,170,60,-394
0,2240021,2223,322,-395,-1033,-576,-324,170,60,-394
0,2240030,2223,322,-395,-1033,-576,-324,170,60,-394
0,2240039,2226,323,-391,-1029,-568,-322,165,61,-399
0,2240048,2226,323,-391,-1029,-568,-322,165,61,-399
0,2240055,2224,325,-393,-1037,-573,-326,165,61,-399
0,2240063,2224,325,-393,-1037,-573,-326,165,61,-399
0,2240071,2224,325,-393,-1037,-573,-326,165,61,-399
0,2240079,2225,325,-390,-1028,-569,-328,165,61,-399
0,2240089,2225,325,-390,-1028,-569,-328,165,61,-399
0,2240097,2223,323,-393,-1032,-572,-331,165,61,-399
0,2240106,2223,323,-393,-1032,-572,-331,165,61,-399
0,2240114,2226,322,-390,-1036,-583,-329,165,61,-399
0,2240123,2226,322,-390,-1036,-583,-329,165,61,-399
0,2240132,2226,322,-390,-1036,-583,-329,165,61,-399
0,2240142,2224,327,-392,-1028,-581,-330,165,61,-399
0,2240150,2224,327,-392,-1028,-581,-330,165,61,-399
0,2240158,2225,328,-392,-1032,-575,-327,165,61,-399
0,2240166,2225,328,-392,-1032,-575,-327,165,61,-399
0,2240176,2225,329,-390,-1039,-572,-325,179,51,-391
0,2240184,2225,329,-390,-1039,-572,-325,179,51,-391
0,2240193,2225,329,-390,-1039,-572,-325,179,51,-391
0,2240201,2226,324,-391,-1030,-572,-326,179,51,-391
0,2240209,2226,324,-391,-1030,-572,-326,179,51,-391
0,2240219,2226,322,-392,-1036,-574,-324,179,51,-391
0,2240227,2226,322,-392,-1036,-574,-324,179,51,-391
0,2240237,2225,324,-397,-1042,-577,-324,179,51,-391
0,2240246,2225,324,-397,-1042,-577,-324,179,51,-391
0,2240254,2224,324,-398,-1040,-578,-324,179,51,-391
0,2240264,2224,324,-398,-1040,-578,-324,179,51,-391
0,2240273,2224,324,-398,-1040,-578,-324,179,51,-391
0,2240282,2225,323,-396,-1036,-579,-325,179,51,-391
0,2240290,2225,323,-396,-1036,-579,-325,179,51,-391
0,2240300,2223,322,-388,-1032,-576,-332,176,58,-390
0,2240308,2223,322,-388,-1032,-576,-332,176,58,-390
0,2240317,2226,326,-384,-1028,-570,-329,176,58,-390
0,2240326,2226,326,-384,-1028,-570,-329,176,58,-390
0,2240334,2225,325,-386,-1032,-568,-324,176,58,-390
0,2240344,2225,325,-386,-1032,-568,-324,176,58,-390
0,2240351,2225,325,-386,-1032,-568,-324,176,58,-390
0,2240362,2227,327,-388,-1031,-569,-329,176,58,-390
0,2240371,2227,327,-388,-1031,-569,-329,176,58,-390
0,2240379,2224,326,-394,-1034,-576,-334,176,58,-390
0,2240389,2224,326,-394,-1034,-576,-334,176,58,-390
0,2240398,2227,322,-389,-1030,-568,-329,176,58,-390
0,2240408,2227,322,-389,-1030,-568,-329,176,58,-390
0,2240416,2224,324,-398,-1028,-572,-327,176,58,-390
0,2240424,2224,324,-398,-1028,-572,-327,176,58,-390
0,2240433,2224,324,-398,-1028,-572,-327,176,58,-390
0,2240442,2224,323,-384,-1024,-569,-332,166,58,-394
0,2240450,2224,323,-384,-1024,-569,-332,166,58,-394
0,2240458,2222,323,-385,-1032,-576,-327,166,58,-394
0,2240466,2222,323,-385,-1032,-576,-327,166,58,-394
0,2240475,2221,325,-391,-1031,-574,-327,166,58,-394
0,2240483,2221,325,-391,-1031,-574,-327,166,58,-394
0,2240492,2221,325,-391,-1031,-574,-327,166,58,-394
0,2240501,2227,325,-395,-1031,-570,-327,166,58,-394
0,2240509,2227,325,-395,-1031,-570,-327,166,58,-394
0,2240519,2225,325,-391,-1024,-566,-324,166,58,-394
0,2240528,2225,325,-391,-1024,-566,-324,166,58,-394
0,2240536,2222,324,-392,-1024,-572,-329,166,58,-394
0,2240545,2222,324,-392,-1024,-572,-329,166,58,-394
0,2240553,2222,324,-392,-1024,-572,-329,166,58,-394
0,2240562,2225,323,-391,-1031,-572,-331,167,63,-389
0,2240572,2225,323,-391,-1031,-572,-331,167,63,-389
0,2240581,2223,327,-395,-1033,-578,-338,167,63,-389
0,2240590,2223,327,-395,-1033,-578,-338,167,63,-389
0,2240599,2228,324,-396,-1042,-581,-325,167,63,-389
0,2240607,2228,324,-396,-1042,-581,-325,167,63,-389
0,2240616,2227,321,-393,-1040,-575,-334,167,63,-389
0,2240624,2227,321,-393,-1040,-575,-334,167,63,-389
0,2240632,2227,321,-393,-1040,-575,-334,167,63,-389
0,2240642,2222,319,-394,-1037,-577,-328,167,63,-389
0,2240650,2222,319,-394,-1037,-577,-328,167,63,-389
0,2240659,2227,325,-387,-1035,-582,-326,167,63,-389
0,2240667,2227,325,-387,-1035,-582,-326,167,63,-389
0,2240675,2225,327,-392,-1033,-572,-326,166,44,-388
0,2240684,2225,327,-392,-1033,-572,-326,166,44,-388
0,2240692,2225,327,-392,-1033,-572,-326,166,44,-388
0,2240699,2226,324,-384,-1029,-576,-325,166,44,-388
0,2240706,2226,324,-384,-1029,-576,-325,166,44,-388
0,2240713,2226,324,-384,-1029,-576,-325,166,44,-388
0,2240722,2228,321,-395,-1033,-578,-329,166,44,-388
0,2240730,2228,321,-395,-1033,-578,-329,166,44,-388
0,2240738,2229,325,-395,-1034,-576,-330,166,44,-388
0,2240747,2229,325,-395,-1034,-576,-330,166,44,-388
0,2240756,2226,324,-393,-1035,-571,-334,166,44,-388
0,2240764,2226,324,-393,-1035,-571,-334,166,44,-388
0,2240774,2226,324,-393,-1035,-571,-334,166,44,-388
0,2240783,2226,324,-393,-1035,-571,-334,166,44,-388
0,2240791,2226,324,-393,-1035,-571,-334,166,44,-388
0,2240800,2226,327,-391,-1038,-580,-324,166,44,-388
0,2240807,2226,327,-391,-1038,-580,-324,166,44,-388
0,2240816,2223,324,-391,-1035,-583,-326,166,62,-398
0,2240825,2223,324,-391,-1035,-583,-326,166,62,-398
0,2240833,2223,324,-391,-1035,-583,-326,166,62,-398
0,2240841,2225,322,-392,-1034,-580,-330,166,62,-398
0,2240850,2225,322,-392,-1034,-580,-330,166,62,-398
0,2240860,2223,325,-388,-1034,-579,-328,166,62,-398
0,2240867,2223,325,-388,-1034,-579,-328,166,62,-398
0,2240876,2227,330,-385,-1029,-574,-329,166,62,-398
0,2240884,2227,330,-385,-1029,-574,-329,166,62,-398
0,2240892,2227,330,-385,-1029,-574,-329,166,62,-398
0,2240901,2227,326,-388,-1034,-573,-332,166,62,-398
0,2240909,2227,326,-388,-1034,-573,-332,166,62,-398
0,2240917,2224,321,-397,-1031,-572,-327,166,62,-398
0,2240925,2224,321,-397,-1031,-572,-327,166,62,-398
0,2240934,2224,321,-397,-1031,-572,-327,166,62,-398
0,2240943,2223,324,-388,-1036,-574,-330,171,57,-393
0,2240951,2223,324,-388,-1036,-574,-330,171,57,-393
0,2240960,2225,323,-390,-1029,-570,-328,171,57,-393
0,2240969,2225,323,-390,-1029,-570,-328,171,57,-393
0,2240976,2224,329,-391,-1023,-576,-335,171,57,-393
0,2240986,2224,329,-391,-1023,-576,-335,171,57,-393
0,2240993,2224,329,-391,-1023,-576,-335,171,57,-393
0,2241001,2225,327,-392,-1028,-570,-325,171,57,-393
0,2241009,2225,327,-392,-1028,-570,-325,171,57,-393
0,2241017,2223,323,-395,-1020,-579,-326,171,57,-393
0,2241026,2223,323,-395,-1020,-579,-326,171,57,-393
0,2241035,2223,323,-395,-1020,-579,-326,171,57,-393
0,2241043,2226,323,-387,-1032,-576,-324,171,57,-393
0,2241051,2226,323,-387,-1032,-576,-324,171,57,-393
0,2241059,2227,323,-390,-1027,-575,-328,171,57,-393
0,2241065,2227,323,-390,-1027,-575,-328,171,57,-393
0,2241074,2227,323,-390,-1027,-575,-328,171,57,-393
0,2241082,2224,325,-381,-1033,-578,-334,168,50,-392
0,2241091,2224,325,-381,-1033,-578,-334,168,50,-392
0,2241099,2226,327,-388,-1034,-580,-333,168,50,-392
0,2241107,2226,327,-388,-1034,-580,-333,168,50,-392
0,2241116,2223,326,-388,-1035,-574,-327,168,50,-392
0,2241126,2223,326,-388,-1035,-574,-327,168,50,-392
0,2241134,2223,326,-388,-1035,-574,-327,168,50,-392
0,2241142,2224,325,-385,-1026,-578,-328,168,50,-392
0,2241152,2224,325,-385,-1026,-578,-328,168,50,-392
0,2241160,2227,325,-391,-1035,-578,-326,168,50,-392
0,2241169,2227,325,-391,-1035,-578,-326,168,50,-392
0,2241177,2228,325,-390,-1043,-576,-330,168,50,-392
0,2241187,2228,325,-390,-1043,-576,-330,168,50,-392
0,2241196,2224,325,-390,-1028,-574,-336,170,64,-396
0,2241204,2224,325,-390,-1028,-574,-336,170,64,-396
0,2241211,2224,325,-390,-1028,-574,-336,170,64,-396
0,2241220,2220,324,-389,-1030,-578,-333,170,64,-396
0,2241228,2220,324,-389,-1030,-578,-333,170,64,-396
0,2241236,2221,323,-394,-1028,-577,-326,170,64,-396
0,2241244,2221,323,-394,-1028,-577,-326,170,64,-396
0,2241253,2221,323,-394,-1028,-577,-326,170,64,-396
0,2241262,2221,323,-391,-1030,-575,-326,170,64,-396
0,2241270,2221,323,-391,-1030,-575,-326,170,64,-396
0,2241278,2224,324,-390,-1025,-569,-327,170,64,-396
0,2241287,2224,324,-390,-1025,-569,-327,170,64,-396
0,2241296,2225,325,-388,-1030,-572,-328,170,64,-396
0,2241305,2225,325,-388,-1030,-572,-328,170,64,-396
0,2241314,2225,325,-388,-1030,-572,-328,170,64,-396
0,2241321,2225,328,-393,-1034,-576,-325,172,58,-390
0,2241329,2225,328,-393,-1034,-576,-325,172,58,-390
0,2241338,2228,326,-387,-1030,-574,-332,172,58,-390
0,2241347,2228,326,-387,-1030,-574,-332,172,58,-390
0,2241355,2228,326,-387,-1030,-574,-332,172,58,-390
0,2241363,2227,322,-389,-1027,-575,-332,172,58,-390
0,2241373,2227,322,-389,-1027,-575,-332,172,58,-390
0,2241380,2225,327,-391,-1030,-572,-323,172,58,-390
0,2241389,2225,327,-391,-1030,-572,-323,172,58,-390
0,2241398,2223,329,-390,-1037,-580,-327,172,58,-390
0,2241406,2223,329,-390,-1037,-580,-327,172,58,-390
0,2241415,2223,329,-390,-1037,-580,-327,172,58,-390
0,2241424,2226,326,-392,-1031,-576,-322,172,58,-390
0,2241432,2226,326,-392,-1031,-576,-322,172,58,-390
0,2241440,2227,325,-387,-1036,-574,-327,172,58,-390
0,2241449,2227,325,-387,-1036,-574,-327,172,58,-390
0,2241458,2225,325,-385,-1030,-575,-327,172,58,-392
0,2241465,2225,325,-385,-1030,-575,-327,172,58,-392
0,2241474,2225,325,-385,-1030,-575,-327,172,58,-392
0,2241482,2226,326,-387,-1027,-572,-325,172,58,-392
0,2241491,2226,326,-387,-1027,-572,-325,172,58,-392
0,2241501,2226,324,-385,-1028,-573,-327,172,58,-392
0,2241510,2226,324,-385,-1028,-573,-327,172,58,-392
0,2241518,2227,329,-394,-1028,-576,-328,172,58,-392
0,2241526,2227,329,-394,-1028,-576,-328,172,58,-392
0,2241536,2227,329,-394,-1028,-576,-328,172,58,-392
0,2241546,2229,322,-388,-1040,-578,-333,172,58,-392
0,2241554,2229,322,-388,-1040,-578,-333,172,58,-392
0,2241563,2225,327,-385,-1029,-573,-334,172,58,-392
0,2241571,2225,327,-385,-1029,-573,-334,172,58,-392
0,2241579,2225,328,-391,-1029,-574,-337,165,61,-391
0,2241587,2225,328,-391,-1029,-574,-337,165,61,-391
0,2241596,2224,326,-391,-1032,-579,-333,165,61,-391
0,2241603,2224,326,-391,-1032,-579,-333,165,61,-391
0,2241612,2224,326,-391,-1032,-579,-333,165,61,-391
0,2241620,2225,327,-392,-1027,-569,-318,165,61,-391
0,2241630,2225,327,-392,-1027,-569,-318,165,61,-391
0,2241639,2225,326,-390,-1033,-573,-328,165,61,-391
0,2241647,2225,326,-390,-1033,-573,-328,165,61,-391
0,2241656,2220,322,-388,-1026,-572,-324,165,61,-391
0,2241662,2220,322,-388,-1026,-572,-324,165,61,-391
0,2241672,2220,322,-388,-1026,-572,-324,165,61,-391
0,2241680,2224,325,-390,-1032,-570,-321,165,61,-391
0,2241688,2224,325,-390,-1032,-570,-321,165,61,-391
0,2241697,2225,328,-397,-1043,-570,-322,165,61,-391
0,2241703,2225,328,-397,-1043,-570,-322,165,61,-391
0,2241713,2225,328,-397,-1043,-570,-322,165,61,-391
0,2241722,2224,327,-384,-1039,-574,-330,167,59,-385
0,2241733,2224,327,-384,-1039,-574,-330,167,59,-385
0,2241741,2225,322,-389,-1037,-579,-326,167,59,-385
0,2241750,2225,322,-389,-1037,-579,-326,167,59,-385
0,2241759,2224,326,-392,-1030,-579,-329,167,59,-385
0,2241768,2224,326,-392,-1030,-579,-329,167,59,-385
0,2241776,2227,325,-395,-1030,-584,-333,167,59,-385
0,2241784,2227,325,-395,-1030,-584,-333,167,59,-385
0,2241795,2227,325,-395,-1030,-584,-333,167,59,-385
0,2241804,2225,327,-394,-1035,-583,-327,167,59,-385
0,2241812,2225,327,-394,-1035,-583,-327,167,59,-385
0,2241820,2224,326,-390,-1033,-580,-325,167,59,-385
0,2241830,2224,326,-390,-1033,-580,-325,167,59,-385
0,2241838,2222,326,-392,-1032,-575,-327,165,57,-401
0,2241847,2222,326,-392,-1032,-575,-327,165,57,-401
0,2241857,2228,327,-390,-1037,-574,-331,165,57,-401
0,2241866,2228,327,-390,-1037,-574,-331,165,57,-401
0,2241874,2228,327,-390,-1037,-574,-331,165,57,-401
0,2241882,2226,328,-390,-1034,-573,-325,165,57,-401
0,2241891,2226,328,-390,-1034,-573,-325,165,57,-401
0,2241898,2224,325,-393,-1034,-575,-323,165,57,-401
0,2241905,2224,325,-393,-1034,-575,-323,165,57,-401
0,2241914,2224,325,-393,-1034,-575,-323,165,57,-401
0,2241922,2227,330,-393,-1033,-583,-330,165,57,-401
0,2241931,2227,330,-393,-1033,-583,-330,165,57,-401
0,2241939,2226,328,-389,-1034,-577,-327,165,57,-401
0,2241948,2226,328,-389,-1034,-577,-327,165,57,-401
0,2241955,2226,328,-389,-1034,-577,-327,165,57,-401
0,2241965,2225,327,-389,-1036,-580,-324,165,57,-401
0,2241974,2225,327,-389,-1036,-580,-324,165,57,-401
0,2241983,2226,327,-384,-1034,-577,-330,162,62,-388
0,2241990,2226,327,-384,-1034,-577,-330,162,62,-388
0,2241999,2224,329,-394,-1035,-577,-334,162,62,-388
0,2242009,2224,329,-394,-1035,-577,-334,162,62,-388
0,2242015,2224,329,-394,-1035,-577,-334,162,62,-388
0,2242024,2224,327,-392,-1025,-571,-333,162,62,-388
0,2242032,2224,327,-392,-1025,-571,-333,162,62,-388
0,2242040,2224,324,-390,-1029,-575,-327,162,62,-388
0,2242050,2224,324,-390,-1029,-575,-327,162,62,-388
0,2242059,2228,328,-387,-1029,-579,-324,162,62,-388
0,2242067,2228,328,-387,-1029,-579,-324,162,62,-388
0,2242074,2228,328,-387,-1029,-579,-324,162,62,-388
0,2242083,2226,323,-389,-1035,-576,-327,162,62,-388
0,2242093,2226,323,-389,-1035,-576,-327,162,62,-388
0,2242099,2229,328,-379,-1035,-577,-333,163,47,-395
0,2242108,2229,328,-379,-1035,-577,-333,163,47,-395
0,2242116,2228,326,-386,-1040,-575,-326,163,47,-395
0,2242126,2228,326,-386,-1040,-575,-326,163,47,-395
0,2242134,2228,326,-386,-1040,-575,-326,163,47,-395
0,2242143,2225,329,-387,-1039,-578,-330,163,47,-395
0,2242151,2225,329,-387,-1039,-578,-330,163,47,-395
0,2242159,2225,330,-389,-1031,-578,-336,163,47,-395
0,2242167,2225,330,-389,-1031,-578,-336,163,47,-395
0,2242177,2222,326,-389,-1032,-570,-333,163,47,-395
0,2242184,2222,326,-389,-1032,-570,-333,163,47,-395
0,2242193,2222,326,-389,-1032,-570,-333,163,47,-395
0,2242200,2226,325,-396,-1029,-573,-332,163,47,-395
0,2242208,2226,325,-396,-1029,-573,-332,163,47,-395
0,2242215,2226,325,-396,-1029,-573,-332,163,47,-395
0,2242225,2221,324,-387,-1034,-573,-317,172,50,-394
0,2242233,2221,324,-387,-1034,-573,-317,172,50,-394
0,2242242,2228,323,-388,-1036,-571,-325,172,50,-394
0,2242251,2228,323,-388,-1036,-571,-325,172,50,-394
0,2242259,2225,322,-388,-1036,-578,-336,172,50,-394
0,2242267,2225,322,-388,-1036,-578,-336,172,50,-394
0,2242276,2225,322,-388,-1036,-578,-336,172,50,-394
0,2242284,2226,324,-391,-1030,-575,-330,172,50,-394
0,2242292,2226,324,-391,-1030,-575,-330,172,50,-394
0,2242301,2224,330,-392,-1024,-567,-333,172,50,-394
0,2242309,2224,330,-392,-1024,-567,-333,172,50,-394
0,2242317,2225,330,-386,-1026,-574,-328,172,50,-394
0,2242326,2225,330,-386,-1026,-574,-328,172,50,-394
0,2242333,2225,330,-386,-1026,-574,-328,172,50,-394
0,2242341,2226,326,-389,-1035,-566,-324,172,50,-394
0,2242351,2226,326,-389,-1035,-566,-324,172,50,-394
0,2242361,2223,325,-382,-1037,-571,-325,173,61,-389
0,2242369,2223,325,-382,-1037,-571,-325,173,61,-389
0,2242377,2225,326,-387,-1033,-570,-330,173,61,-389
0,2242383,2225,326,-387,-1033,-570,-330,173,61,-389
0,2242393,2225,326,-387,-1033,-570,-330,173,61,-389
0,2242401,2224,325,-392,-1038,-578,-332,173,61,-389
0,2242409,2224,325,-392,-1038,-578,-332,173,61,-389
0,2242417,2223,330,-389,-1027,-581,-328,173,61,-389
0,2242425,2223,330,-389,-1027,-581,-328,173,61,-389
0,2242436,2223,330,-389,-1027,-581,-328,173,61,-389
0,2242443,2225,329,-385,-1020,-571,-329,173,61,-389
0,2242454,2225,329,-385,-1020,-571,-329,173,61,-389
0,2242462,2223,330,-391,-1031,-579,-334,173,61,-389
0,2242471,2223,330,-391,-1031,-579,-334,173,61,-389
0,2242480,2226,325,-382,-1030,-574,-321,176,56,-394
0,2242488,2226,325,-382,-1030,-574,-321,176,56,-394
0,2242495,2226,325,-382,-1030,-574,-321,176,56,-394
0,2242504,2228,328,-385,-1037,-578,-331,176,56,-394
0,2242512,2228,328,-385,-1037,-578,-331,176,56,-394
0,2242522,2228,328,-382,-1024,-581,-324,176,56,-394
0,2242528,2228,328,-382,-1024,-581,-324,176,56,-394
0,2242536,2228,328,-382,-1024,-581,-324,176,56,-394
0,2242543,2225,324,-391,-1025,-576,-325,176,56,-394
0,2242551,2225,324,-391,-1025,-576,-325,176,56,-394
0,2242561,2226,329,-390,-1034,-570,-329,176,56,-394
0,2242568,2226,329,-390,-1034,-570,-329,176,56,-394
0,2242577,2228,325,-393,-1027,-580,-326,176,56,-394
0,2242587,2228,325,-393,-1027,-580,-326,176,56,-394
0,2242595,2228,325,-393,-1027,-580,-326,176,56,-394
0,2242606,2227,323,-393,-1028,-576,-325,176,56,-394
0,2242614,2227,323,-393,-1028,-576,-325,176,56,-394
0,2242622,2226,327,-388,-1034,-578,-326,177,61,-393
0,2242631,2226,327,-388,-1034,-578,-326,177,61,-393
0,2242639,2224,331,-386,-1031,-582,-324,177,61,-393
0,2242649,2224,331,-386,-1031,-582,-324,177,61,-393
0,2242657,2224,331,-386,-1031,-582,-324,177,61,-393
0,2242667,2226,328,-391,-1028,-574,-329,177,61,-393
0,2242675,2226,328,-391,-1028,-574,-329,177,61,-393
0,2242684,2227,326,-385,-1030,-575,-328,177,61,-393
0,2242694,2227,326,-385,-1030,-575,-328,177,61,-393
0,2242702,2227,324,-394,-1027,-576,-330,177,61,-393
0,2242710,2227,324,-394,-1027,-576,-330,177,61,-393
0,2242719,2226,328,-393,-1036,-581,-321,177,61,-393
0,2242727,2226,328,-393,-1036,-581,-321,177,61,-393
0,2242736,2226,328,-393,-1036,-581,-321,177,61,-393
0,2242745,2226,325,-391,-1036,-571,-324,173,59,-397
0,2242756,2226,325,-391,-1036,-571,-324,173,59,-397
0,2242764,2224,328,-387,-1039,-575,-328,173,59,-397
0,2242774,2224,328,-387,-1039,-575,-328,173,59,-397
0,2242783,2225,326,-387,-1033,-572,-327,173,59,-397
0,2242793,2225,326,-387,-1033,-572,-327,173,59,-397
0,2242801,2226,328,-391,-1032,-579,-325,173,59,-397
0,2242809,2226,328,-391,-1032,-579,-325,173,59,-397
0,2242820,2224,331,-391,-1035,-578,-333,173,59,-397
0,2242827,2224,331,-391,-1035,-578,-333,173,59,-397
0,2242835,2224,331,-391,-1035,-578,-333,173,59,-397
0,2242844,2226,330,-393,-1033,-574,-326,173,59,-397
0,2242853,2226,330,-393,-1033,-574,-326,173,59,-397
0,2242862,2226,331,-387,-1027,-579,-327,173,59,-397
0,2242870,2226,331,-387,-1027,-579,-327,173,59,-397
0,2242881,2228,327,-388,-1036,-575,-324,169,53,-393
0,2242890,2228,327,-388,-1036,-575,-324,169,53,-393
0,2242898,2227,327,-389,-1041,-580,-332,169,53,-393
0,2242908,2227,327,-389,-1041,-580,-332,169,53,-393
0,2242918,2227,325,-388,-1040,-575,-334,169,53,-393
0,2242927,2227,325,-388,-1040,-575,-334,169,53,-393
0,2242936,2227,325,-388,-1040,-575,-334,169,53,-393
0,2242945,2227,328,-394,-1043,-577,-326,169,53,-393
0,2242954,2227,328,-394,-1043,-577,-326,169,53,-393
0,2242963,2224,329,-395,-1032,-577,-320,169,53,-393
0,2242971,2224,329,-395,-1032,-577,-320,169,53,-393
0,2242979,2223,326,-384,-1040,-582,-329,169,53,-393
0,2242988,2223,326,-384,-1040,-582,-329,169,53,-393
0,2242996,2223,326,-384,-1040,-582,-329,169,53,-393
0,2243006,2228,328,-381,-1037,-585,-336,162,52,-394
0,2243013,2228,328,-381,-1037,-585,-336,162,52,-394
0,2243022,2224,326,-384,-1040,-576,-330,162,52,-394
0,2243031,2224,326,-384,-1040,-576,-330,162,52,-394
0,2243038,2226,326,-389,-1036,-575,-326,162,52,-394
0,2243047,2226,326,-389,-1036,-575,-326,162,52,-394
0,2243054,2226,326,-389,-1036,-575,-326,162,52,-394
0,2243063,2226,324,-386,-1032,-570,-329,162,52,-394
0,2243073,2226,324,-386,-1032,-570,-329,162,52,-394
0,2243081,2226,325,-385,-1027,-573,-327,162,52,-394
0,2243090,2226,325,-385,-1027,-573,-327,162,52,-394
0,2243099,2228,330,-392,-1034,-569,-331,162,52,-394
0,2243107,2228,330,-392,-1034,-569,-331,162,52,-394
0,2243117,2228,330,-392,-1034,-569,-331,162,52,-394
0,2243126,2226,330,-388,-1031,-578,-335,172,60,-400
0,2243134,2226,330,-388,-1031,-578,-335,172,60,-400
0,2243142,2223,328,-387,-1032,-575,-330,172,60,-400
0,2243152,2223,328,-387,-1032,-575,-330,172,60,-400
0,2243161,2227,330,-389,-1030,-574,-324,172,60,-400
0,2243170,2227,330,-389,-1030,-574,-324,172,60,-400
0,2243182,2226,329,-392,-1033,-578,-324,172,60,-400
0,2243189,2226,329,-392,-1033,-578,-324,172,60,-400
0,2243197,2226,329,-392,-1033,-578,-324,172,60,-400
0,2243206,2223,325,-384,-1033,-580,-334,172,60,-400
0,2243214,2223,325,-384,-1033,-580,-334,172,60,-400
0,2243222,2226,326,-390,-1044,-580,-333,172,60,-400
0,2243232,2226,326,-390,-1044,-580,-333,172,60,-400
0,2243243,2226,328,-391,-1037,-567,-331,172,60,-400
0,2243253,2226,328,-391,-1037,-567,-331,172,60,-400
0,2243262,2229,329,-386,-1041,-574,-326,166,58,-394
0,2243273,2229,329,-386,-1041,-574,-326,166,58,-394
0,2243282,2229,328,-388,-1033,-582,-328,166,58,-394
0,2243291,2229,328,-388,-1033,-582,-328,166,58,-394
0,2243301,2226,328,-393,-1024,-577,-330,166,58,-394
0,2243309,2226,328,-393,-1024,-577,-330,166,58,-394
0,2243318,2230,325,-393,-1034,-574,-325,166,58,-394
0,2243328,2230,325,-393,-1034,-574,-325,166,58,-394
0,2243336,2230,325,-393,-1034,-574,-325,166,58,-394
0,2243343,2227,328,-388,-1032,-576,-323,166,58,-394
0,2243351,2227,328,-388,-1032,-576,-323,166,58,-394
0,2243360,2227,331,-390,-1028,-577,-324,166,58,-394
0,2243369,2227,331,-390,-1028,-577,-324,166,58,-394
0,2243377,2227,331,-390,-1028,-577,-324,166,58,-394
0,2243387,2224,328,-394,-1033,-576,-327,167,63,-393
0,2243395,2224,328,-394,-1033,-576,-327,167,63,-393
0,2243405,2226,328,-389,-1029,-573,-334,167,63,-393
0,2243414,2226,328,-389,-1029,-573,-334,167,63,-393
0,2243424,2228,327,-395,-1035,-575,-327,167,63,-393
0,2243432,2228,327,-395,-1035,-575,-327,167,63,-393
0,2243441,2222,328,-393,-1037,-577,-327,167,63,-393
0,2243450,2222,328,-393,-1037,-577,-327,167,63,-393
0,2243462,2225,329,-388,-1046,-580,-334,167,63,-393
0,2243470,2225,329,-388,-1046,-580,-334,167,63,-393
0,2243479,2227,329,-391,-1039,-573,-328,167,63,-393
0,2243488,2227,329,-391,-1039,-573,-328,167,63,-393
0,2243499,2228,328,-393,-1034,-573,-326,167,63,-393
0,2243509,2228,328,-393,-1034,-573,-326,167,63,-393
0,2243517,2228,328,-393,-1034,-573,-326,167,63,-393
0,2243527,2228,323,-385,-1028,-578,-331,172,58,-394
0,2243535,2228,323,-385,-1028,-578,-331,172,58,-394
0,2243544,2224,330,-387,-1034,-571,-328,172,58,-394
0,2243553,2224,330,-387,-1034,-571,-328,172,58,-394
0,2243562,2227,329,-389,-1029,-572,-332,172,58,-394
0,2243570,2227,329,-389,-1029,-572,-332,172,58,-394
0,2243579,2226,326,-387,-1026,-577,-320,172,58,-394
0,2243589,2226,326,-387,-1026,-577,-320,172,58,-394
0,2243601,2224,326,-391,-1021,-578,-329,172,58,-394
0,2243608,2224,326,-391,-1021,-578,-329,172,58,-394
0,2243617,2224,326,-391,-1021,-578,-329,172,58,-394
0,2243627,2225,324,-389,-1024,-573,-335,172,58,-394
0,2243636,2225,324,-389,-1024,-573,-335,172,58,-394
0,2243646,2225,325,-392,-1019,-575,-342,163,55,-397
0,2243654,2225,325,-392,-1019,-575,-342,163,55,-397
0,2243664,2227,329,-389,-1017,-575,-330,163,55,-397
0,2243675,2227,329,-389,-1017,-575,-330,163,55,-397
0,2243685,2227,331,-391,-1026,-582,-325,163,55,-397
0,2243695,2227,331,-391,-1026,-582,-325,163,55,-397
0,2243706,2230,332,-394,-1035,-576,-329,163,55,-397
0,2243716,2230,332,-394,-1035,-576,-329,163,55,-397
0,2243724,2229,328,-391,-1031,-577,-325,163,55,-397
0,2243733,2229,328,-391,-1031,-577,-325,163,55,-397
0,2243742,2226,327,-391,-1027,-582,-328,163,55,-397
0,2243751,2226,327,-391,-1027,-582,-328,163,55,-397
0,2243760,2225,330,-387,-1035,-577,-332,163,55,-397
0,2243769,2225,330,-387,-1035,-577,-332,163,55,-397
0,2243778,2224,327,-387,-1037,-577,-328,166,62,-402
0,2243788,2224,327,-387,-1037,-577,-328,166,62,-402
0,2243798,2224,327,-387,-1037,-577,-328,166,62,-402
0,2243806,2226,329,-391,-1034,-574,-327,166,62,-402
0,2243815,2226,329,-391,-1034,-574,-327,166,62,-402
0,2243824,2223,326,-390,-1039,-579,-327,166,62,-402
0,2243832,2223,326,-390,-1039,-579,-327,166,62,-402
0,2243841,2225,326,-400,-1027,-588,-330,166,62,-402
0,2243849,2225,326,-400,-1027,-588,-330,166,62,-402
0,2243857,2225,326,-400,-1027,-588,-330,166,62,-402
0,2243864,2226,326,-395,-1030,-582,-336,166,62,-402
0,2243871,2226,326,-395,-1030,-582,-336,166,62,-402
0,2243878,2226,330,-395,-1036,-580,-328,166,62,-402
0,2243888,2226,330,-395,-1036,-580,-328,166,62,-402
0,2243897,2226,330,-395,-1036,-580,-328,166,62,-402
0,2243907,2226,330,-395,-1036,-580,-328,161,57,-391
0,2243917,2226,330,-395,-1036,-580,-328,161,57,-391
0,2243926,2226,324,-384,-1036,-572,-327,161,57,-391
0,2243935,2226,324,-384,-1036,-572,-327,161,57,-391
0,2243944,2225,326,-393,-1034,-573,-334,161,57,-391
0,2243952,2225,326,-393,-1034,-573,-334,161,57,-391
0,2243959,2226,329,-391,-1026,-576,-332,161,57,-391
0,2243968,2226,329,-391,-1026,-576,-332,161,57,-391
0,2243978,2226,329,-391,-1026,-576,-332,161,57,-391
0,2243986,2225,330,-392,-1033,-578,-334,161,57,-391
0,2243995,2225,330,-392,-1033,-578,-334,161,57,-391
0,2244003,2224,330,-394,-1033,-580,-332,161,57,-391
0,2244012,2224,330,-394,-1033,-580,-332,161,57,-391
0,2244021,2225,328,-389,-1038,-578,-323,169,59,-389
0,2244030,2225,328,-389,-1038,-578,-323,169,59,-389
0,2244041,2226,327,-396,-1038,-570,-329,169,59,-389
0,2244049,2226,327,-396,-1038,-570,-329,169,59,-389
0,2244058,2226,327,-396,-1038,-570,-329,169,59,-389
0,2244067,2228,327,-393,-1032,-578,-325,169,59,-389
0,2244077,2228,327,-393,-1032,-578,-325,169,59,-389
0,2244087,2228,329,-391,-1028,-578,-332,169,59,-389
0,2244098,2228,329,-391,-1028,-578,-332,169,59,-389
0,2244108,2228,330,-386,-1027,-576,-328,169,59,-389
0,2244117,2228,330,-386,-1027,-576,-328,169,59,-389
0,2244127,2228,327,-391,-1035,-575,-336,169,59,-389
0,2244135,2228,327,-391,-1035,-575,-336,169,59,-389
0,2244144,2225,329,-391,-1038,-579,-334,169,59,-389
0,2244150,2225,329,-391,-1038,-579,-334,169,59,-389
0,2244156,2225,329,-391,-1038,-579,-334,169,59,-389
0,2244166,2223,329,-389,-1034,-576,-329,170,50,-388
0,2244176,2223,329,-389,-1034,-576,-329,170,50,-388
0,2244186,2226,328,-389,-1034,-578,-333,170,50,-388
0,2244196,2226,328,-389,-1034,-578,-333,170,50,-388
0,2244205,2224,327,-393,-1027,-575,-327,170,50,-388
0,2244213,2224,327,-393,-1027,-575,-327,170,50,-388
0,2244222,2225,329,-388,-1030,-567,-333,170,50,-388
0,2244232,2225,329,-388,-1030,-567,-333,170,50,-388
0,2244242,2229,328,-397,-1033,-572,-328,170,50,-388
0,2244250,2229,328,-397,-1033,-572,-328,170,50,-388
0,2244259,2226,325,-395,-1028,-576,-329,170,50,-388
0,2244268,2226,325,-395,-1028,-576,-329,170,50,-388
0,2244277,2226,325,-395,-1028,-576,-329,170,50,-388
0,2244285,2229,331,-387,-1027,-570,-327,162,60,-400
0,2244293,2229,331,-387,-1027,-570,-327,162,60,-400
0,2244302,2227,330,-385,-1036,-574,-318,162,60,-400
0,2244311,2227,330,-385,-1036,-574,-318,162,60,-400
0,2244320,2228,325,-390,-1030,-575,-333,162,60,-400
0,2244328,2228,325,-390,-1030,-575,-333,162,60,-400
0,2244338,2228,325,-390,-1030,-575,-333,162,60,-400
0,2244346,2223,327,-390,-1039,-572,-336,162,60,-400
0,2244355,2223,327,-390,-1039,-572,-336,162,60,-400
0,2244362,2225,328,-390,-1045,-583,-331,162,60,-400
0,2244370,2225,328,-390,-1045,-583,-331,162,60,-400
0,2244378,2225,328,-390,-1045,-583,-331,162,60,-400
0,2244386,2224,325,-389,-1030,-572,-334,162,60,-400
0,2244396,2224,325,-389,-1030,-572,-334,162,60,-400
0,2244404,2224,330,-390,-1031,-570,-341,162,60,-400
0,2244413,2224,330,-390,-1031,-570,-341,162,60,-400
0,2244421,2221,327,-384,-1040,-584,-340,167,61,-395
0,2244431,2221,327,-384,-1040,-584,-340,167,61,-395
0,2244440,2226,327,-390,-1046,-574,-332,167,61,-395
0,2244448,2226,327,-390,-1046,-574,-332,167,61,-395
0,2244456,2226,327,-390,-1046,-574,-332,167,61,-395
0,2244465,2226,329,-388,-1035,-571,-329,167,61,-395
0,2244473,2226,329,-388,-1035,-571,-329,167,61,-395
0,2244483,2225,331,-395,-1033,-573,-323,167,61,-395
0,2244492,2225,331,-395,-1033,-573,-323,167,61,-395
0,2244500,2227,330,-394,-1025,-578,-325,167,61,-395
0,2244509,2227,330,-394,-1025,-578,-325,167,61,-395
0,2244518,2227,330,-394,-1025,-578,-325,167,61,-395
0,2244527,2227,329,-390,-1030,-574,-325,167,61,-395
0,2244536,2227,329,-390,-1030,-574,-325,167,61,-395
0,2244544,2228,331,-387,-1037,-574,-330,167,53,-389
0,2244553,2228,331,-387,-1037,-574,-330,167,53,-389
0,2244562,2224,327,-391,-1035,-573,-328,167,53,-389
0,2244573,2224,327,-391,-1035,-573,-328,167,53,-389
0,2244581,2226,326,-391,-1031,-579,-325,167,53,-389
0,2244589,2226,326,-391,-1031,-579,-325,167,53,-389
0,2244597,2226,326,-391,-1031,-579,-325,167,53,-389
0,2244604,2225,330,-393,-1037,-573,-327,167,53,-389
0,2244614,2225,330,-393,-1037,-573,-327,167,53,-389
0,2244623,2225,330,-393,-1035,-571,-331,167,53,-389
0,2244633,2225,330,-393,-1035,-571,-331,167,53,-389
0,2244642,2226,326,-389,-1029,-575,-329,167,53,-389
0,2244651,2226,326,-389,-1029,-575,-329,167,53,-389
0,2244661,2229,326,-386,-1026,-580,-325,167,53,-389
0,2244669,2229,326,-386,-1026,-580,-325,167,53,-389
0,2244677,2229,326,-386,-1026,-580,-325,167,53,-389
0,2244686,2227,327,-389,-1038,-579,-327,173,57,-395
0,2244696,2227,327,-389,-1038,-579,-327,173,57,-395
0,2244702,2230,328,-389,-1029,-576,-329,173,57,-395
0,2244711,2230,328,-389,-1029,-576,-329,173,57,-395
0,2244719,2230,328,-389,-1029,-576,-329,173,57,-395
0,2244728,2225,326,-386,-1031,-580,-323,173,57,-395
0,2244737,2225,326,-386,-1031,-580,-323,173,57,-395
0,2244746,2223,328,-392,-1035,-578,-325,173,57,-395
0,2244756,2223,328,-392,-1035,-578,-325,173,57,-395
0,2244765,2222,331,-398,-1027,-577,-333,173,57,-395
0,2244773,2222,331,-398,-1027,-577,-333,173,57,-395
0,2244783,2226,327,-391,-1027,-575,-332,173,57,-395
0,2244792,2226,327,-391,-1027,-575,-332,173,57,-395
0,2244803,2227,330,-384,-1031,-573,-325,164,58,-396
0,2244813,2227,330,-384,-1031,-573,-325,164,58,-396
0,2244823,2229,328,-391,-1031,-577,-330,164,58,-396
0,2244831,2229,328,-391,-1031,-577,-330,164,58,-396
0,2244839,2229,328,-391,-1031,-577,-330,164,58,-396
0,2244849,2226,325,-386,-1033,-573,-327,164,58,-396
0,2244857,2226,325,-386,-1033,-573,-327,164,58,-396
0,2244867,2228,324,-387,-1032,-580,-319,164,58,-396
0,2244875,2228,324,-387,-1032,-580,-319,164,58,-396
0,2244884,2224,331,-391,-1029,-584,-326,164,58,-396
0,2244892,2224,331,-391,-1029,-584,-326,164,58,-396
0,2244901,2229,329,-394,-1027,-585,-320,164,58,-396
0,2244909,2229,329,-394,-1027,-585,-320,164,58,-396
0,2244917,2229,329,-394,-1027,-585,-320,164,58,-396
0,2244926,2227,331,-396,-1041,-579,-324,162,52,-390
0,2244934,2227,331,-396,-1041,-579,-324,162,52,-390
0,2244943,2226,329,-390,-1031,-570,-331,162,52,-390
0,2244952,2226,329,-390,-1031,-570,-331,162,52,-390
0,2244960,2224,323,-389,-1025,-575,-324,162,52,-390
0,2244969,2224,323,-389,-1025,-575,-324,162,52,-390
0,2244978,2224,323,-389,-1025,-575,-324,162,52,-390
0,2244986,2224,325,-393,-1028,-575,-333,162,52,-390
0,2244997,2224,325,-393,-1028,-575,-333,162,52,-390
0,2245007,2225,327,-395,-1039,-578,-331,162,52,-390
0,2245016,2225,327,-395,-1039,-578,-331,162,52,-390
0,2245024,2226,331,-393,-1033,-576,-335,162,52,-390
0,2245031,2226,331,-393,-1033,-576,-335,162,52,-390
0,2245040,2224,326,-394,-1030,-579,-334,162,52,-390
0,2245048,2224,326,-394,-1030,-579,-334,162,52,-390
0,2245057,2224,326,-394,-1030,-579,-334,162,52,-390
0,2245066,2224,329,-387,-1039,-581,-333,167,51,-391
0,2245076,2224,329,-387,-1039,-581,-333,167,51,-391
0,2245084,2226,327,-383,-1028,-580,-329,167,51,-391
0,2245092,2226,327,-383,-1028,-580,-329,167,51,-391
0,2245099,2226,327,-383,-1028,-580,-329,167,51,-391
0,2245107,2223,326,-387,-1025,-578,-321,167,51,-391
0,2245117,2223,326,-387,-1025,-578,-321,167,51,-391
0,2245126,2224,327,-392,-1026,-578,-333,167,51,-391
0,2245135,2224,327,-392,-1026,-578,-333,167,51,-391
0,2245144,2224,330,-389,-1041,-580,-331,167,51,-391
0,2245153,2224,330,-389,-1041,-580,-331,167,51,-391
0,2245163,2225,328,-391,-1034,-575,-337,167,51,-391
0,2245172,2225,328,-391,-1034,-575,-337,167,51,-391
0,2245182,2223,326,-392,-1035,-578,-331,178,66,-402
0,2245193,2223,326,-392,-1035,-578,-331,178,66,-402
0,2245202,2224,331,-390,-1032,-577,-329,178,66,-402
0,2245214,2224,331,-390,-1032,-577,-329,178,66,-402
0,2245222,2224,328,-391,-1030,-576,-331,178,66,-402
0,2245232,2224,328,-391,-1030,-576,-331,178,66,-402
0,2245239,2224,328,-391,-1030,-576,-331,178,66,-402
0,2245248,2225,327,-392,-1023,-575,-333,178,66,-402
0,2245257,2225,327,-392,-1023,-575,-333,178,66,-402
0,2245266,2227,326,-392,-1029,-576,-331,178,66,-402
0,2245277,2227,326,-392,-1029,-576,-331,178,66,-402
0,2245287,2227,324,-398,-1032,-582,-328,178,66,-402
0,2245298,2227,324,-398,-1032,-582,-328,178,66,-402
0,2245306,2223,325,-395,-1030,-568,-326,178,66,-402
0,2245316,2223,325,-395,-1030,-568,-326,178,66,-402
0,2245325,2225,326,-395,-1031,-574,-334,162,58,-386
0,2245335,2225,326,-395,-1031,-574,-334,162,58,-386
0,2245343,2226,325,-388,-1035,-576,-338,162,58,-386
0,2245354,2226,325,-388,-1035,-576,-338,162,58,-386
0,2245364,2225,326,-392,-1040,-577,-337,162,58,-386
0,2245373,2225,326,-392,-1040,-577,-337,162,58,-386
0,2245384,2223,327,-389,-1029,-571,-329,162,58,-386
0,2245392,2223,327,-389,-1029,-571,-329,162,58,-386
0,2245400,2222,328,-388,-1039,-575,-329,162,58,-386
0,2245410,2222,328,-388,-1039,-575,-329,162,58,-386
0,2245420,2222,328,-388,-1039,-575,-329,162,58,-386
0,2245428,2226,327,-393,-1033,-577,-324,162,58,-386
0,2245436,2226,327,-393,-1033,-577,-324,162,58,-386
0,2245445,2227,327,-384,-1029,-576,-327,164,62,-388
0,2245454,2227,327,-384,-1029,-576,-327,164,62,-388
0,2245464,2225,323,-388,-1031,-580,-335,164,62,-388
0,2245472,2225,323,-388,-1031,-580,-335,164,62,-388
0,2245482,2227,329,-388,-1031,-574,-332,164,62,-388
0,2245491,2227,329,-388,-1031,-574,-332,164,62,-388
0,2245502,2227,327,-394,-1027,-572,-332,164,62,-388
0,2245511,2227,327,-394,-1027,-572,-332,164,62,-388
0,2245520,2227,327,-394,-1027,-572,-332,164,62,-388
0,2245528,2225,329,-393,-1032,-574,-335,164,62,-388
0,2245536,2225,329,-393,-1032,-574,-335,164,62,-388
0,2245547,2222,328,-389,-1034,-577,-332,164,62,-388
0,2245556,2222,328,-389,-1034,-577,-332,164,62,-388
0,2245566,2227,322,-393,-1033,-575,-329,170,60,-392
0,2245574,2227,322,-393,-1033,-575,-329,170,60,-392
0,2245584,2227,325,-389,-1036,-574,-324,170,60,-392
0,2245594,2227,325,-389,-1036,-574,-324,170,60,-392
0,2245603,2225,325,-395,-1034,-574,-333,170,60,-392
0,2245612,2225,325,-395,-1034,-574,-333,170,60,-392
0,2245621,2224,326,-393,-1024,-572,-335,170,60,-392
0,2245629,2224,326,-393,-1024,-572,-335,170,60,-392
0,2245640,2224,326,-393,-1024,-572,-335,170,60,-392
0,2245650,2225,326,-384,-1027,-578,-336,170,60,-392
0,2245660,2225,326,-384,-1027,-578,-336,170,60,-392
0,2245668,2224,327,-392,-1031,-569,-330,170,60,-392
0,2245677,2224,327,-392,-1031,-569,-330,170,60,-392
0,2245686,2222,328,-389,-1033,-571,-328,170,60,-392
0,2245694,2222,328,-389,-1033,-571,-328,170,60,-392
0,2245701,2225,327,-386,-1031,-571,-318,173,51,-393
0,2245709,2225,327,-386,-1031,-571,-318,173,51,-393
0,2245719,2225,327,-386,-1031,-571,-318,173,51,-393
0,2245727,2221,328,-394,-1030,-571,-327,173,51,-393
0,2245735,2221,328,-394,-1030,-571,-327,173,51,-393
0,2245743,2223,329,-394,-1029,-569,-335,173,51,-393
0,2245751,2223,329,-394,-1029,-569,-335,173,51,-393
0,2245760,2223,329,-394,-1029,-569,-335,173,51,-393
0,2245768,2221,325,-394,-1035,-580,-320,173,51,-393
0,2245776,2221,325,-394,-1035,-580,-320,173,51,-393
0,2245786,2223,323,-396,-1034,-579,-323,173,51,-393
0,2245794,2223,323,-396,-1034,-579,-323,173,51,-393
0,2245803,2223,323,-396,-1034,-579,-323,173,51,-393
0,2245813,2223,323,-396,-1034,-579,-323,173,51,-393
0,2245822,2223,328,-390,-1039,-573,-326,175,67,-385
0,2245832,2223,328,-390,-1039,-573,-326,175,67,-385
0,2245841,2227,328,-392,-1036,-581,-338,175,67,-385
0,2245850,2227,328,-392,-1036,-581,-338,175,67,-385
0,2245859,2227,328,-392,-1036,-581,-338,175,67,-385
0,2245869,2224,326,-388,-1024,-572,-333,175,67,-385
0,2245878,2224,326,-388,-1024,-572,-333,175,67,-385
0,2245886,2225,329,-393,-1029,-574,-324,175,67,-385
0,2245897,2225,329,-393,-1029,-574,-324,175,67,-385
0,2245907,2227,326,-390,-1031,-573,-331,175,67,-385
0,2245918,2227,326,-390,-1031,-573,-331,175,67,-385
0,2245926,2227,326,-390,-1031,-573,-331,175,67,-385
0,2245937,2227,326,-390,-1031,-573,-331,175,67,-385
0,2245947,2222,328,-397,-1024,-577,-325,175,67,-385
0,2245956,2222,328,-397,-1024,-577,-325,175,67,-385
0,2245965,2223,321,-388,-1025,-580,-329,162,56,-394
0,2245977,2223,321,-388,-1025,-580,-329,162,56,-394
0,2245987,2223,323,-386,-1026,-568,-328,162,56,-394
0,2245995,2223,323,-386,-1026,-568,-328,162,56,-394
0,2246006,2224,324,-389,-1032,-571,-329,162,56,-394
0,2246013,2224,324,-389,-1032,-571,-329,162,56,-394
0,2246024,2226,325,-391,-1040,-565,-320,162,56,-394
0,2246033,2226,325,-391,-1040,-565,-320,162,56,-394
0,2246041,2225,326,-399,-1037,-573,-324,162,56,-394
0,2246051,2225,326,-399,-1037,-573,-324,162,56,-394
0,2246060,2225,326,-399,-1037,-573,-324,162,56,-394
0,2246070,2227,327,-395,-1034,-577,-328,162,56,-394
0,2246078,2227,327,-395,-1034,-577,-328,162,56,-394
0,2246086,2225,331,-390,-1031,-570,-330,168,62,-390
0,2246096,2225,331,-390,-1031,-570,-330,168,62,-390
0,2246106,2223,327,-394,-1034,-573,-333,168,62,-390
0,2246116,2223,327,-394,-1034,-573,-333,168,62,-390
0,2246125,2224,329,-396,-1037,-579,-323,168,62,-390
0,2246137,2224,329,-396,-1037,-579,-323,168,62,-390
0,2246147,2225,327,-388,-1033,-578,-328,168,62,-390
0,2246155,2225,327,-388,-1033,-578,-328,168,62,-390
0,2246165,2223,321,-390,-1037,-576,-334,168,62,-390
0,2246175,2223,321,-390,-1037,-576,-334,168,62,-390
0,2246187,2222,323,-393,-1037,-581,-327,168,62,-390
0,2246197,2222,323,-393,-1037,-581,-327,168,62,-390
0,2246205,2222,324,-389,-1022,-576,-335,168,62,-390
0,2246215,2222,324,-389,-1022,-576,-335,168,62,-390
0,2246225,2223,330,-391,-1027,-575,-331,171,61,-391
0,2246235,2223,330,-391,-1027,-575,-331,171,61,-391
0,2246243,2226,329,-394,-1036,-577,-326,171,61,-391
0,2246253,2226,329,-394,-1036,-577,-326,171,61,-391
0,2246262,2222,327,-390,-1030,-575,-325,171,61,-391
0,2246273,2222,327,-390,-1030,-575,-325,171,61,-391
0,2246283,2227,329,-392,-1036,-574,-330,171,61,-391
0,2246291,2227,329,-392,-1036,-574,-330,171,61,-391
0,2246300,2227,329,-392,-1036,-574,-330,171,61,-391
0,2246308,2227,324,-389,-1026,-572,-337,171,61,-391
0,2246320,2227,324,-389,-1026,-572,-337,171,61,-391
0,2246329,2224,325,-392,-1028,-572,-327,171,61,-391
0,2246337,2224,325,-392,-1028,-572,-327,171,61,-391
0,2246346,2226,323,-383,-1025,-572,-319,170,58,-390
0,2246354,2226,323,-383,-1025,-572,-319,170,58,-390
0,2246364,2224,326,-389,-1029,-579,-323,170,58,-390
0,2246373,2224,326,-389,-1029,-579,-323,170,58,-390
0,2246381,2224,326,-389,-1029,-579,-323,170,58,-390
0,2246390,2223,327,-396,-1037,-577,-329,170,58,-390
0,2246400,2223,327,-396,-1037,-577,-329,170,58,-390
0,2246409,2221,327,-389,-1031,-576,-334,170,58,-390
0,2246418,2221,327,-389,-1031,-576,-334,170,58,-390
0,2246426,2222,323,-396,-1042,-568,-333,170,58,-390
0,2246438,2222,323,-396,-1042,-568,-333,170,58,-390
0,2246448,2228,328,-388,-1042,-573,-331,170,58,-390
0,2246457,2228,328,-388,-1042,-573,-331,170,58,-390
0,2246465,2226,326,-394,-1034,-568,-328,166,66,-396
0,2246473,2226,326,-394,-1034,-568,-328,166,66,-396
0,2246481,2226,326,-394,-1034,-568,-328,166,66,-396
0,2246489,2224,323,-392,-1031,-576,-324,166,66,-396
0,2246497,2224,323,-392,-1031,-576,-324,166,66,-396
0,2246506,2223,322,-391,-1035,-579,-327,166,66,-396
0,2246515,2223,322,-391,-1035,-579,-327,166,66,-396
0,2246524,2226,326,-391,-1035,-576,-332,166,66,-396
0,2246532,2226,326,-391,-1035,-576,-332,166,66,-396
0,2246539,2226,326,-391,-1035,-576,-332,166,66,-396
0,2246548,2222,326,-392,-1038,-574,-324,166,66,-396
0,2246557,2222,326,-392,-1038,-574,-324,166,66,-396
0,2246566,2224,324,-397,-1036,-579,-333,166,66,-396
0,2246575,2224,324,-397,-1036,-579,-333,166,66,-396
0,2246583,2224,324,-397,-1036,-579,-333,166,66,-396
0,2246592,2224,324,-397,-1036,-579,-333,166,66,-396
0,2246600,2224,324,-397,-1036,-579,-333,166,66,-396
0,2246608,2225,326,-387,-1036,-573,-332,174,58,-388
0,2246619,2225,326,-387,-1036,-573,-332,174,58,-388
0,2246627,2223,324,-395,-1032,-568,-327,174,58,-388
0,2246636,2223,324,-395,-1032,-568,-327,174,58,-388
0,2246644,2226,323,-389,-1028,-572,-330,174,58,-388
0,2246653,2226,323,-389,-1028,-572,-330,174,58,-388
0,2246663,2227,329,-394,-1029,-577,-328,174,58,-388
0,2246672,2227,329,-394,-1029,-577,-328,174,58,-388
0,2246681,2227,329,-394,-1029,-577,-328,174,58,-388
0,2246689,2227,328,-395,-1028,-573,-328,174,58,-388
0,2246701,2227,328,-395,-1028,-573,-328,174,58,-388
0,2246709,2221,325,-394,-1036,-577,-329,174,58,-388
0,2246717,2221,325,-394,-1036,-577,-329,174,58,-388
0,2246725,2223,330,-393,-1038,-579,-325,164,52,-390
0,2246733,2223,330,-393,-1038,-579,-325,164,52,-390
0,2246744,2223,325,-395,-1036,-570,-326,164,52,-390
0,2246752,2223,325,-395,-1036,-570,-326,164,52,-390
0,2246761,2223,325,-395,-1036,-570,-326,164,52,-390
0,2246770,2221,328,-397,-1038,-574,-322,164,52,-390
0,2246778,2221,328,-397,-1038,-574,-322,164,52,-390
0,2246788,2224,325,-390,-1039,-576,-325,164,52,-390
0,2246797,2224,325,-390,-1039,-576,-325,164,52,-390
0,2246805,2223,323,-389,-1040,-577,-328,164,52,-390
0,2246814,2223,323,-389,-1040,-577,-328,164,52,-390
0,2246823,2226,324,-398,-1035,-578,-331,164,52,-390
0,2246831,2226,324,-398,-1035,-578,-331,164,52,-390
0,2246840,2226,324,-398,-1035,-578,-331,164,52,-390
0,2246848,2227,325,-398,-1039,-573,-331,164,52,-390
0,2246856,2227,325,-398,-1039,-573,-331,164,52,-390
0,2246864,2222,330,-393,-1037,-573,-330,171,59,-389
0,2246874,2222,330,-393,-1037,-573,-330,171,59,-389
0,2246881,2222,330,-393,-1037,-573,-330,171,59,-389
0,2246890,2226,325,-387,-1033,-573,-331,171,59,-389
0,2246899,2226,325,-387,-1033,-573,-331,171,59,-389
0,2246908,2225,322,-393,-1026,-577,-330,171,59,-389
0,2246918,2225,322,-393,-1026,-577,-330,171,59,-389
0,2246927,2223,323,-394,-1027,-574,-329,171,59,-389
0,2246935,2223,323,-394,-1027,-574,-329,171,59,-389
0,2246944,2227,322,-397,-1026,-576,-328,171,59,-389
0,2246952,2227,322,-397,-1026,-576,-328,171,59,-389
0,2246962,2227,322,-397,-1026,-576,-328,171,59,-389
0,2246971,2221,324,-394,-1031,-574,-331,171,59,-389
0,2246979,2221,324,-394,-1031,-574,-331,171,59,-389
0,2246989,2222,324,-393,-1041,-578,-328,168,60,-390
0,2246999,2222,324,-393,-1041,-578,-328,168,60,-390
0,2247008,2225,323,-396,-1038,-578,-338,168,60,-390
0,2247017,2225,323,-396,-1038,-578,-338,168,60,-390
0,2247026,2225,324,-391,-1038,-577,-331,168,60,-390
0,2247034,2225,324,-391,-1038,-577,-331,168,60,-390
0,2247045,2225,328,-391,-1038,-577,-335,168,60,-390
0,2247053,2225,328,-391,-1038,-577,-335,168,60,-390
0,2247061,2225,328,-391,-1038,-577,-335,168,60,-390
0,2247070,2227,330,-387,-1035,-581,-329,168,60,-390
0,2247078,2227,330,-387,-1035,-581,-329,168,60,-390
0,2247087,2226,326,-388,-1032,-579,-324,168,60,-390
0,2247096,2226,326,-388,-1032,-579,-324,168,60,-390
0,2247104,2226,326,-388,-1032,-579,-324,168,60,-390
0,2247113,2226,326,-388,-1032,-579,-324,168,60,-390
0,2247121,2226,326,-388,-1032,-579,-324,168,60,-390
0,2247131,2225,322,-392,-1036,-584,-333,169,59,-391
0,2247139,2225,322,-392,-1036,-584,-333,169,59,-391
0,2247147,2224,323,-392,-1028,-575,-329,169,59,-391
0,2247157,2224,323,-392,-1028,-575,-329,169,59,-391
0,2247165,2222,322,-388,-1033,-577,-327,169,59,-391
0,2247175,2222,322,-388,-1033,-577,-327,169,59,-391
0,2247183,2224,325,-392,-1038,-586,-324,169,59,-391
0,2247192,2224,325,-392,-1038,-586,-324,169,59,-391
0,2247201,2224,325,-392,-1038,-586,-324,169,59,-391
0,2247211,2221,326,-389,-1041,-585,-326,169,59,-391
0,2247219,2221,326,-389,-1041,-585,-326,169,59,-391
0,2247228,2223,323,-392,-1042,-579,-329,169,59,-391
0,2247237,2223,323,-392,-1042,-579,-329,169,59,-391
0,2247245,2225,324,-389,-1040,-581,-331,168,58,-392
0,2247254,2225,324,-389,-1040,-581,-331,168,58,-392
0,2247264,2225,328,-394,-1026,-579,-334,168,58,-392
0,2247274,2225,328,-394,-1026,-579,-334,168,58,-392
0,2247281,2225,328,-394,-1026,-579,-334,168,58,-392
0,2247291,2223,326,-395,-1037,-577,-336,168,58,-392
0,2247300,2223,326,-395,-1037,-577,-336,168,58,-392
0,2247308,2223,322,-389,-1039,-580,-336,168,58,-392
0,2247317,2223,322,-389,-1039,-580,-336,168,58,-392
0,2247325,2222,324,-396,-1041,-580,-328,168,58,-392
0,2247334,2222,324,-396,-1041,-580,-328,168,58,-392
0,2247343,2223,323,-390,-1033,-579,-333,168,58,-392
0,2247351,2223,323,-390,-1033,-579,-333,168,58,-392
0,2247359,2223,323,-390,-1033,-579,-333,168,58,-392
0,2247367,2224,322,-390,-1029,-573,-334,169,55,-391
0,2247376,2224,322,-390,-1029,-573,-334,169,55,-391
0,2247384,2223,320,-392,-1035,-575,-324,169,55,-391
0,2247393,2223,320,-392,-1035,-575,-324,169,55,-391
0,2247402,2223,320,-392,-1035,-575,-324,169,55,-391
0,2247410,2223,323,-396,-1035,-576,-325,169,55,-391
0,2247419,2223,323,-396,-1035,-576,-325,169,55,-391
0,2247428,2225,323,-390,-1030,-574,-335,169,55,-391
0,2247436,2225,323,-390,-1030,-574,-335,169,55,-391
0,2247444,2224,329,-394,-1042,-574,-331,169,55,-391
0,2247455,2224,329,-394,-1042,-574,-331,169,55,-391
0,2247463,2223,327,-400,-1036,-581,-333,169,55,-391
0,2247473,2223,327,-400,-1036,-581,-333,169,55,-391
0,2247482,2223,327,-400,-1036,-581,-333,169,55,-391
0,2247490,2224,327,-394,-1031,-576,-331,169,55,-391
0,2247499,2224,327,-394,-1031,-576,-331,169,55,-391
0,2247508,2224,323,-385,-1033,-572,-336,175,65,-391
0,2247517,2224,323,-385,-1033,-572,-336,175,65,-391
0,2247527,2223,321,-391,-1028,-575,-329,175,65,-391
0,2247535,2223,321,-391,-1028,-575,-329,175,65,-391
0,2247543,2225,322,-394,-1031,-574,-329,175,65,-391
0,2247553,2225,322,-394,-1031,-574,-329,175,65,-391
0,2247561,2225,322,-394,-1031,-574,-329,175,65,-391
0,2247569,2220,325,-392,-1032,-575,-323,175,65,-391
0,2247578,2220,325,-392,-1032,-575,-323,175,65,-391
0,2247587,2222,327,-392,-1028,-571,-324,175,65,-391
0,2247598,2222,327,-392,-1028,-571,-324,175,65,-391
0,2247606,2223,329,-394,-1039,-575,-320,175,65,-391
0,2247614,2223,329,-394,-1039,-575,-320,175,65,-391
0,2247623,2224,325,-387,-1028,-574,-325,175,65,-391
0,2247632,2224,325,-387,-1028,-574,-325,172,56,-394
0,2247642,2224,325,-387,-1028,-574,-325,172,56,-394
0,2247650,2224,322,-388,-1031,-573,-330,172,56,-394
0,2247659,2224,322,-388,-1031,-573,-330,172,56,-394
0,2247667,2224,325,-392,-1035,-580,-330,172,56,-394
0,2247677,2224,325,-392,-1035,-580,-330,172,56,-394
0,2247686,2222,322,-396,-1034,-573,-325,172,56,-394
0,2247693,2222,322,-396,-1034,-573,-325,172,56,-394
0,2247702,2222,322,-396,-1034,-573,-325,172,56,-394
0,2247711,2223,324,-393,-1038,-573,-327,172,56,-394
0,2247720,2223,324,-393,-1038,-573,-327,172,56,-394
0,2247729,2222,324,-396,-1032,-575,-323,172,56,-394
0,2247738,2222,324,-396,-1032,-575,-323,172,56,-394
0,2247747,2224,323,-396,-1033,-571,-329,172,56,-394
0,2247755,2224,323,-396,-1033,-571,-329,172,56,-394
0,2247764,2224,325,-393,-1036,-571,-333,169,51,-399
0,2247774,2224,325,-393,-1036,-571,-333,169,51,-399
0,2247782,2224,325,-393,-1036,-571,-333,169,51,-399
0,2247791,2225,324,-391,-1030,-568,-337,169,51,-399
0,2247800,2225,324,-391,-1030,-568,-337,169,51,-399
0,2247809,2221,326,-393,-1033,-576,-334,169,51,-399
0,2247817,2221,326,-393,-1033,-576,-334,169,51,-399
0,2247826,2221,323,-395,-1031,-575,-331,169,51,-399
0,2247833,2221,323,-395,-1031,-575,-331,169,51,-399
0,2247841,2221,323,-395,-1031,-575,-331,169,51,-399
0,2247849,2223,325,-393,-1038,-579,-330,169,51,-399
0,2247858,2223,325,-393,-1038,-579,-330,169,51,-399
0,2247867,2225,326,-390,-1031,-577,-332,169,51,-399
0,2247877,2225,326,-390,-1031,-577,-332,169,51,-399
0,2247885,2224,323,-393,-1035,-575,-323,174,60,-394
0,2247895,2224,323,-393,-1035,-575,-323,174,60,-394
0,2247903,2224,323,-393,-1035,-575,-323,174,60,-394
0,2247912,2222,328,-393,-1029,-569,-330,174,60,-394
0,2247919,2222,328,-393,-1029,-569,-330,174,60,-394
0,2247929,2225,324,-392,-1027,-574,-328,174,60,-394
0,2247937,2225,324,-392,-1027,-574,-328,174,60,-394
0,2247946,2223,322,-395,-1025,-575,-326,174,60,-394
0,2247955,2223,322,-395,-1025,-575,-326,174,60,-394
0,2247963,2223,322,-395,-1025,-575,-326,174,60,-394
0,2247972,2225,323,-400,-1039,-581,-324,174,60,-394
0,2247981,2225,323,-400,-1039,-581,-324,174,60,-394
0,2247990,2222,323,-393,-1027,-578,-334,174,60,-394
0,2247998,2222,323,-393,-1027,-578,-334,174,60,-394
0,2248006,2224,326,-401,-1040,-578,-328,174,60,-394
0,2248014,2224,326,-401,-1040,-578,-328,174,60,-394
0,2248024,2224,326,-401,-1040,-578,-328,174,60,-394
0,2248032,2226,323,-391,-1032,-582,-326,180,56,-394
0,2248039,2226,323,-391,-1032,-582,-326,180,56,-394
0,2248046,2223,323,-390,-1040,-579,-323,180,56,-394
0,2248054,2223,323,-390,-1040,-579,-323,180,56,-394
0,2248065,2223,325,-392,-1035,-581,-326,180,56,-394
0,2248073,2223,325,-392,-1035,-581,-326,180,56,-394
0,2248082,2223,325,-392,-1035,-581,-326,180,56,-394
0,2248090,2225,325,-389,-1034,-580,-327,180,56,-394
0,2248098,2225,325,-389,-1034,-580,-327,180,56,-394
0,2248108,2221,324,-390,-1032,-574,-327,180,56,-394
0,2248117,2221,324,-390,-1032,-574,-327,180,56,-394
0,2248124,2222,321,-394,-1036,-574,-326,180,56,-394
0,2248131,2222,321,-394,-1036,-574,-326,180,56,-394
0,2248139,2222,321,-394,-1036,-574,-326,180,56,-394
0,2248147,2222,320,-385,-1042,-574,-337,161,59,-393
0,2248154,2222,320,-385,-1042,-574,-337,161,59,-393
0,2248163,2222,320,-385,-1042,-574,-337,161,59,-393
0,2248171,2223,319,-394,-1036,-574,-336,161,59,-393
0,2248181,2223,319,-394,-1036,-574,-336,161,59,-393
0,2248190,2219,326,-392,-1032,-578,-330,161,59,-393
0,2248199,2219,326,-392,-1032,-578,-330,161,59,-393
0,2248208,2220,326,-394,-1036,-582,-331,161,59,-393
0,2248215,2220,326,-394,-1036,-582,-331,161,59,-393
0,2248224,2222,325,-392,-1037,-573,-328,161,59,-393
0,2248232,2222,325,-392,-1037,-573,-328,161,59,-393
0,2248241,2222,325,-392,-1037,-573,-328,161,59,-393
0,2248249,2226,324,-398,-1042,-576,-325,161,59,-393
0,2248258,2226,324,-398,-1042,-576,-325,161,59,-393
0,2248265,2224,320,-397,-1039,-577,-320,171,61,-393
0,2248273,2224,320,-397,-1039,-577,-320,171,61,-393
0,2248283,2224,320,-397,-1039,-577,-320,171,61,-393
0,2248291,2224,320,-397,-1039,-577,-320,171,61,-393
0,2248300,2224,320,-397,-1039,-577,-320,171,61,-393
0,2248308,2223,324,-389,-1038,-575,-328,171,61,-393
0,2248318,2223,324,-389,-1038,-575,-328,171,61,-393
0,2248327,2224,325,-395,-1038,-570,-325,171,61,-393
0,2248336,2224,325,-395,-1038,-570,-325,171,61,-393
0,2248344,2220,325,-394,-1026,-569,-334,171,61,-393
0,2248353,2220,325,-394,-1026,-569,-334,171,61,-393
0,2248361,2220,325,-394,-1026,-569,-334,171,61,-393
0,2248370,2223,321,-397,-1027,-567,-338,171,61,-393
0,2248379,2223,321,-397,-1027,-567,-338,171,61,-393
0,2248387,2224,327,-390,-1035,-579,-337,171,61,-393
0,2248397,2224,327,-390,-1035,-579,-337,171,61,-393
0,2248407,2224,324,-389,-1034,-582,-333,166,58,-386
0,2248416,2224,324,-389,-1034,-582,-333,166,58,-386
0,2248425,2220,322,-388,-1030,-584,-328,166,58,-386
0,2248433,2220,322,-388,-1030,-584,-328,166,58,-386
0,2248442,2220,322,-388,-1030,-584,-328,166,58,-386
0,2248451,2224,321,-393,-1026,-578,-330,166,58,-386
0,2248460,2224,321,-393,-1026,-578,-330,166,58,-386
0,2248469,2226,323,-391,-1027,-575,-327,166,58,-386
0,2248477,2226,323,-391,-1027,-575,-327,166,58,-386
0,2248485,2225,326,-396,-1030,-568,-328,166,58,-386
0,2248494,2225,326,-396,-1030,-568,-328,166,58,-386
0,2248503,2225,326,-396,-1030,-568,-328,166,58,-386
0,2248511,2225,327,-397,-1028,-573,-334,166,58,-386
0,2248519,2225,327,-397,-1028,-573,-334,166,58,-386
0,2248526,2222,327,-390,-1032,-574,-330,167,59,-397
0,2248535,2222,327,-390,-1032,-574,-330,167,59,-397
0,2248543,2222,327,-390,-1032,-574,-330,167,59,-397
0,2248551,2222,327,-392,-1031,-575,-333,167,59,-397
0,2248560,2222,327,-392,-1031,-575,-333,167,59,-397
0,2248568,2225,317,-390,-1029,-573,-330,167,59,-397
0,2248577,2225,317,-390,-1029,-573,-330,167,59,-397
0,2248585,2225,320,-395,-1029,-574,-329,167,59,-397
0,2248592,2225,320,-395,-1029,-574,-329,167,59,-397
0,2248600,2225,320,-395,-1029,-574,-329,167,59,-397
0,2248609,2224,324,-390,-1029,-574,-329,167,59,-397
0,2248620,2224,324,-390,-1029,-574,-329,167,59,-397
0,2248628,2225,326,-398,-1033,-572,-336,167,59,-397
0,2248637,2225,326,-398,-1033,-572,-336,167,59,-397
0,2248645,2225,325,-398,-1035,-575,-328,167,59,-397
0,2248654,2225,325,-398,-1035,-575,-328,167,59,-397
0,2248663,2225,325,-398,-1035,-575,-328,167,59,-397
0,2248671,2223,327,-389,-1035,-575,-322,168,60,-390
0,2248681,2223,327,-389,-1035,-575,-322,168,60,-390
0,2248689,2223,322,-389,-1037,-580,-328,168,60,-390
0,2248698,2223,322,-389,-1037,-580,-328,168,60,-390
0,2248707,2224,323,-389,-1023,-582,-327,168,60,-390
0,2248716,2224,323,-389,-1023,-582,-327,168,60,-390
0,2248725,2224,325,-397,-1031,-577,-327,168,60,-390
0,2248733,2224,325,-397,-1031,-577,-327,168,60,-390
0,2248740,2224,325,-397,-1031,-577,-327,168,60,-390
0,2248750,2226,325,-395,-1028,-574,-330,168,60,-390
0,2248759,2226,325,-395,-1028,-574,-330,168,60,-390
0,2248767,2222,320,-390,-1034,-582,-330,168,60,-390
0,2248776,2222,320,-390,-1034,-582,-330,168,60,-390
0,2248783,2222,320,-390,-1034,-582,-330,168,60,-390
0,2248793,2223,324,-388,-1031,-577,-333,175,61,-395
0,2248800,2223,324,-388,-1031,-577,-333,175,61,-395
0,2248809,2222,325,-389,-1033,-576,-326,175,61,-395
0,2248816,2222,325,-389,-1033,-576,-326,175,61,-395
0,2248824,2223,328,-391,-1041,-579,-331,175,61,-395
0,2248834,2223,328,-391,-1041,-579,-331,175,61,-395
0,2248843,2223,328,-391,-1041,-579,-331,175,61,-395
0,2248851,2222,328,-395,-1029,-570,-330,175,61,-395
0,2248860,2222,328,-395,-1029,-570,-330,175,61,-395
0,2248868,2226,324,-391,-1024,-574,-329,175,61,-395
0,2248877,2226,324,-391,-1024,-574,-329,175,61,-395
0,2248885,2223,322,-391,-1024,-565,-336,175,61,-395
0,2248893,2223,322,-391,-1024,-565,-336,175,61,-395
0,2248902,2223,322,-391,-1024,-565,-336,175,61,-395
0,2248909,2221,322,-397,-1034,-570,-333,175,59,-397
0,2248919,2221,322,-397,-1034,-570,-333,175,59,-397
0,2248927,2223,325,-387,-1039,-578,-328,175,59,-397
0,2248935,2223,325,-387,-1039,-578,-328,175,59,-397
0,2248944,2223,325,-387,-1039,-578,-328,175,59,-397
0,2248952,2223,326,-393,-1037,-576,-341,175,59,-397
0,2248962,2223,326,-393,-1037,-576,-341,175,59,-397
0,2248970,2225,323,-394,-1036,-574,-334,175,59,-397
0,2248979,2225,323,-394,-1036,-574,-334,175,59,-397
0,2248986,2224,321,-392,-1038,-568,-325,175,59,-397
0,2248995,2224,321,-392,-1038,-568,-325,175,59,-397
0,2249004,2224,321,-392,-1038,-568,-325,175,59,-397
0,2249013,2225,324,-389,-1037,-572,-328,175,59,-397
0,2249020,2225,324,-389,-1037,-572,-328,175,59,-397
0,2249028,2227,325,-391,-1051,-582,-331,175,59,-397
0,2249035,2227,325,-391,-1051,-582,-331,175,59,-397
0,2249042,2227,325,-391,-1051,-582,-331,175,59,-397
0,2249052,2227,329,-391,-1049,-579,-336,168,58,-398
0,2249060,2227,329,-391,-1049,-579,-336,168,58,-398
0,2249068,2226,325,-386,-1041,-580,-331,168,58,-398
0,2249077,2226,325,-386,-1041,-580,-331,168,58,-398
0,2249085,2227,322,-396,-1035,-576,-330,168,58,-398
0,2249095,2227,322,-396,-1035,-576,-330,168,58,-398
0,2249104,2227,322,-396,-1035,-576,-330,168,58,-398
0,2249112,2227,323,-388,-1028,-573,-330,168,58,-398
0,2249120,2227,323,-388,-1028,-573,-330,168,58,-398
0,2249128,2224,326,-399,-1031,-575,-330,168,58,-398
0,2249137,2224,326,-399,-1031,-575,-330,168,58,-398
0,2249146,2224,321,-393,-1033,-575,-332,168,58,-398
0,2249154,2224,321,-393,-1033,-575,-332,168,58,-398
0,2249163,2224,321,-393,-1033,-575,-332,168,58,-398
0,2249172,2223,323,-392,-1042,-579,-331,171,63,-393
0,2249182,2223,323,-392,-1042,-579,-331,171,63,-393
0,2249190,2224,324,-389,-1032,-580,-332,171,63,-393
0,2249198,2224,324,-389,-1032,-580,-332,171,63,-393
0,2249206,2226,322,-389,-1029,-581,-325,171,63,-393
0,2249213,2226,322,-389,-1029,-581,-325,171,63,-393
0,2249221,2226,322,-389,-1029,-581,-325,171,63,-393
0,2249229,2227,321,-393,-1037,-575,-325,171,63,-393
0,2249237,2227,321,-393,-1037,-575,-325,171,63,-393
0,2249246,2227,325,-390,-1042,-574,-336,171,63,-393
0,2249254,2227,325,-390,-1042,-574,-336,171,63,-393
0,2249263,2227,325,-390,-1042,-574,-336,171,63,-393
0,2249270,2224,325,-394,-1035,-577,-335,171,63,-393
0,2249278,2224,325,-394,-1035,-577,-335,171,63,-393
0,2249287,2224,326,-392,-1027,-576,-329,171,63,-393
0,2249295,2224,326,-392,-1027,-576,-329,171,63,-393
0,2249305,2224,326,-392,-1027,-576,-329,171,63,-393
0,2249313,2224,320,-392,-1039,-572,-327,169,57,-397
0,2249322,2224,320,-392,-1039,-572,-327,169,57,-397
0,2249331,2223,321,-392,-1038,-571,-325,169,57,-397
0,2249340,2223,321,-392,-1038,-571,-325,169,57,-397
0,2249349,2222,322,-391,-1034,-574,-327,169,57,-397
0,2249357,2222,322,-391,-1034,-574,-327,169,57,-397
0,2249366,2223,320,-391,-1032,-573,-322,169,57,-397
0,2249374,2223,320,-391,-1032,-573,-322,169,57,-397
0,2249381,2223,320,-391,-1032,-573,-322,169,57,-397
0,2249391,2223,320,-391,-1035,-578,-328,169,57,-397
0,2249400,2223,320,-391,-1035,-578,-328,169,57,-397
0,2249408,2226,325,-394,-1037,-571,-328,169,57,-397
0,2249417,2226,325,-394,-1037,-571,-328,169,57,-397
0,2249425,2222,326,-390,-1030,-572,-328,166,52,-392
0,2249436,2222,326,-390,-1030,-572,-328,166,52,-392
0,2249444,2222,326,-390,-1030,-572,-328,166,52,-392
0,2249453,2224,321,-390,-1024,-571,-326,166,52,-392
0,2249462,2224,321,-390,-1024,-571,-326,166,52,-392
0,2249472,2222,322,-391,-1032,-571,-322,166,52,-392
0,2249481,2222,322,-391,-1032,-571,-322,166,52,-392
0,2249489,2225,321,-384,-1032,-573,-327,166,52,-392
0,2249498,2225,321,-384,-1032,-573,-327,166,52,-392
0,2249506,2226,323,-389,-1027,-577,-317,166,52,-392
0,2249513,2226,323,-389,-1027,-577,-317,166,52,-392
0,2249523,2226,323,-389,-1027,-577,-317,166,52,-392
0,2249531,2222,322,-392,-1033,-575,-325,166,52,-392
0,2249540,2222,322,-392,-1033,-575,-325,166,52,-392
0,2249548,2222,322,-390,-1028,-573,-328,166,52,-392
0,2249556,2222,322,-390,-1028,-573,-328,166,52,-392
0,2249565,2222,322,-390,-1028,-573,-328,166,52,-392
0,2249572,2222,322,-393,-1033,-572,-329,169,59,-395
0,2249581,2222,322,-393,-1033,-572,-329,169,59,-395
0,2249590,2223,322,-389,-1040,-569,-336,169,59,-395
0,2249598,2223,322,-389,-1040,-569,-336,169,59,-395
0,2249607,2223,321,-385,-1034,-572,-329,169,59,-395
0,2249616,2223,321,-385,-1034,-572,-329,169,59,-395
0,2249622,2223,321,-385,-1034,-572,-329,169,59,-395
0,2249631,2223,320,-394,-1041,-573,-331,169,59,-395
0,2249639,2223,320,-394,-1041,-573,-331,169,59,-395
0,2249648,2225,323,-391,-1045,-568,-331,169,59,-395
0,2249657,2225,323,-391,-1045,-568,-331,169,59,-395
0,2249665,2225,323,-391,-1045,-568,-331,169,59,-395
0,2249673,2227,325,-392,-1051,-574,-336,169,59,-395
0,2249681,2227,325,-392,-1051,-574,-336,169,59,-395
0,2249691,2225,322,-387,-1032,-567,-333,169,59,-395
0,2249699,2225,322,-387,-1032,-567,-333,169,59,-395
0,2249706,2221,323,-388,-1044,-579,-327,169,59,-395
0,2249715,2221,323,-388,-1044,-579,-327,169,59,-395
0,2249724,2221,323,-388,-1044,-579,-327,169,59,-395
0,2249733,2220,327,-397,-1038,-578,-323,169,59,-395
0,2249741,2220,327,-397,-1038,-578,-323,169,59,-395
0,2249748,2224,325,-391,-1027,-572,-329,169,59,-395
0,2249755,2224,325,-391,-1027,-572,-329,169,59,-395
0,2249763,2224,325,-391,-1027,-572,-329,169,59,-395
0,2249772,2223,320,-396,-1033,-571,-324,169,59,-395
0,2249781,2223,320,-396,-1033,-571,-324,169,59,-395
0,2249790,2223,321,-397,-1034,-576,-325,169,59,-395
0,2249798,2223,321,-397,-1034,-576,-325,169,59,-395
0,2249807,2225,322,-394,-1039,-573,-326,163,59,-397
0,2249816,2225,322,-394,-1039,-573,-326,163,59,-397
0,2249823,2225,322,-394,-1039,-573,-326,163,59,-397
0,2249832,2227,323,-394,-1041,-577,-329,163,59,-397
0,2249840,2227,323,-394,-1041,-577,-329,163,59,-397
0,2249848,2224,325,-391,-1036,-579,-326,163,59,-397
0,2249857,2224,325,-391,-1036,-579,-326,163,59,-397
0,2249866,2224,325,-391,-1036,-579,-326,163,59,-397
0,2249873,2223,328,-391,-1039,-581,-329,163,59,-397
0,2249882,2223,328,-391,-1039,-581,-329,163,59,-397
0,2249889,2223,323,-390,-1034,-579,-331,163,59,-397
0,2249896,2223,323,-390,-1034,-579,-331,163,59,-397
0,2249907,2225,322,-394,-1026,-578,-324,163,59,-397
0,2249915,2225,322,-394,-1026,-578,-324,163,59,-397
0,2249923,2225,322,-394,-1026,-578,-324,163,59,-397
0,2249933,2226,318,-392,-1038,-579,-331,163,59,-397
0,2249940,2226,318,-392,-1038,-579,-331,163,59,-397
0,2249950,2225,322,-386,-1040,-575,-329,175,63,-387
0,2249957,2225,322,-386,-1040,-575,-329,175,63,-387
0,2249965,2225,322,-386,-1040,-575,-329,175,63,-387
0,2249974,2224,325,-392,-1032,-575,-332,175,63,-387
0,2249984,2224,325,-392,-1032,-575,-332,175,63,-387
0,2249992,2226,324,-389,-1033,-575,-335,175,63,-387
0,2250001,2226,324,-389,-1033,-575,-335,175,63,-387
0,2250008,2224,322,-398,-1033,-574,-333,175,63,-387
0,2250017,2224,322,-398,-1033,-574,-333,175,63,-387
0,2250027,2227,324,-395,-1030,-575,-331,175,63,-387
0,2250036,2227,324,-395,-1030,-575,-331,175,63,-387
0,2250044,2227,324,-395,-1030,-575,-331,175,63,-387
0,2250052,2227,325,-401,-1038,-569,-323,175,63,-387
0,2250058,2227,325,-401,-1038,-569,-323,175,63,-387
0,2250064,2227,325,-401,-1038,-569,-323,175,63,-387
0,2250072,2224,320,-391,-1037,-577,-326,163,63,-393
0,2250081,2224,320,-391,-1037,-577,-326,163,63,-393
0,2250090,2224,322,-390,-1033,-571,-328,163,63,-393
0,2250097,2224,322,-390,-1033,-571,-328,163,63,-393
0,2250107,2225,320,-393,-1032,-575,-329,163,63,-393
0,2250115,2225,320,-393,-1032,-575,-329,163,63,-393
0,2250124,2225,320,-393,-1032,-575,-329,163,63,-393
0,2250132,2225,323,-396,-1037,-576,-327,163,63,-393
0,2250140,2225,323,-396,-1037,-576,-327,163,63,-393
0,2250148,2223,325,-391,-1030,-574,-331,163,63,-393
0,2250158,2223,325,-391,-1030,-574,-331,163,63,-393
0,2250166,2223,325,-391,-1030,-574,-331,163,63,-393
0,2250174,2223,327,-390,-1035,-572,-334,163,63,-393
0,2250182,2223,327,-390,-1035,-572,-334,163,63,-393
0,2250191,2221,330,-394,-1041,-581,-333,163,63,-393
0,2250201,2221,330,-394,-1041,-581,-333,163,63,-393
0,2250209,2221,330,-394,-1041,-581,-333,167,55,-399
0,2250217,2221,330,-394,-1041,-581,-333,167,55,-399
0,2250224,2221,330,-394,-1041,-581,-333,167,55,-399
0,2250233,2223,323,-394,-1031,-575,-327,167,55,-399
0,2250241,2223,323,-394,-1031,-575,-327,167,55,-399
0,2250249,2224,325,-392,-1027,-577,-330,167,55,-399
0,2250258,2224,325,-392,-1027,-577,-330,167,55,-399
0,2250266,2224,325,-387,-1026,-575,-326,167,55,-399
0,2250275,2224,325,-387,-1026,-575,-326,167,55,-399
0,2250285,2224,325,-387,-1026,-575,-326,167,55,-399
0,2250294,2222,323,-391,-1028,-578,-326,167,55,-399
0,2250302,2222,323,-391,-1028,-578,-326,167,55,-399
0,2250311,2224,324,-394,-1026,-583,-333,167,55,-399
0,2250319,2224,324,-394,-1026,-583,-333,167,55,-399
0,2250328,2222,327,-385,-1022,-585,-335,177,55,-391
0,2250337,2222,327,-385,-1022,-585,-335,177,55,-391
0,2250345,2222,327,-385,-1022,-585,-335,177,55,-391
0,2250354,2224,324,-390,-1029,-584,-331,177,55,-391
0,2250362,2224,324,-390,-1029,-584,-331,177,55,-391
0,2250372,2223,323,-389,-1038,-575,-340,177,55,-391
0,2250379,2223,323,-389,-1038,-575,-340,177,55,-391
0,2250387,2223,325,-394,-1035,-572,-327,177,55,-391
0,2250396,2223,325,-394,-1035,-572,-327,177,55,-391
0,2250403,2223,325,-394,-1035,-572,-327,177,55,-391
0,2250413,2225,322,-391,-1030,-578,-336,177,55,-391
0,2250421,2225,322,-391,-1030,-578,-336,177,55,-391
0,2250430,2224,323,-390,-1028,-575,-327,177,55,-391
0,2250438,2224,323,-390,-1028,-575,-327,177,55,-391
0,2250447,2222,326,-395,-1027,-572,-323,177,55,-391
0,2250457,2222,326,-395,-1027,-572,-323,177,55,-391
0,2250466,2222,326,-395,-1027,-572,-323,177,55,-391
0,2250477,2226,327,-391,-1029,-578,-326,170,58,-390
0,2250485,2226,327,-391,-1029,-578,-326,170,58,-390
0,2250496,2223,324,-390,-1037,-573,-326,170,58,-390
0,2250504,2223,324,-390,-1037,-573,-326,170,58,-390
0,2250512,2225,325,-390,-1036,-582,-331,170,58,-390
0,2250521,2225,325,-390,-1036,-582,-331,170,58,-390
0,2250529,2221,321,-391,-1036,-581,-327,170,58,-390
0,2250539,2221,321,-391,-1036,-581,-327,170,58,-390
0,2250547,2227,324,-392,-1035,-576,-328,170,58,-390
0,2250559,2227,324,-392,-1035,-576,-328,170,58,-390
0,2250565,2227,324,-392,-1035,-576,-328,170,58,-390
0,2250573,2223,326,-393,-1034,-577,-328,170,58,-390
0,2250583,2223,326,-393,-1034,-577,-328,170,58,-390
0,2250591,2223,327,-387,-1039,-574,-328,161,61,-399
0,2250598,2223,327,-387,-1039,-574,-328,161,61,-399
0,2250607,2224,324,-388,-1037,-571,-329,161,61,-399
0,2250615,2224,324,-388,-1037,-571,-329,161,61,-399
0,2250626,2224,324,-388,-1037,-571,-329,161,61,-399
0,2250634,2226,325,-389,-1027,-575,-325,161,61,-399
0,2250643,2226,325,-389,-1027,-575,-325,161,61,-399
0,2250652,2225,323,-391,-1029,-580,-324,161,61,-399
0,2250661,2225,323,-391,-1029,-580,-324,161,61,-399
0,2250670,2226,329,-391,-1031,-580,-326,161,61,-399
0,2250679,2226,329,-391,-1031,-580,-326,161,61,-399
0,2250688,2228,325,-387,-1024,-575,-328,161,61,-399
0,2250696,2228,325,-387,-1024,-575,-328,161,61,-399
0,2250704,2228,325,-387,-1024,-575,-328,161,61,-399
0,2250712,2226,324,-391,-1033,-573,-323,171,51,-395
0,2250719,2226,324,-391,-1033,-573,-323,171,51,-395
0,2250729,2221,321,-387,-1038,-576,-314,171,51,-395
0,2250737,2221,321,-387,-1038,-576,-314,171,51,-395
0,2250746,2221,321,-387,-1038,-576,-314,171,51,-395
0,2250754,2222,324,-397,-1034,-571,-327,171,51,-395
0,2250763,2222,324,-397,-1034,-571,-327,171,51,-395
0,2250771,2223,324,-395,-1038,-578,-331,171,51,-395
0,2250780,2223,324,-395,-1038,-578,-331,171,51,-395
0,2250788,2222,329,-394,-1031,-576,-320,171,51,-395
0,2250798,2222,329,-394,-1031,-576,-320,171,51,-395
0,2250805,2222,329,-394,-1031,-576,-320,171,51,-395
0,2250813,2224,326,-385,-1032,-575,-328,171,51,-395
0,2250822,2224,326,-385,-1032,-575,-328,171,51,-395
0,2250829,2225,323,-391,-1040,-575,-324,171,51,-395
0,2250838,2225,323,-391,-1040,-575,-324,171,51,-395
0,2250847,2225,323,-391,-1040,-575,-324,171,51,-395
0,2250857,2224,323,-382,-1030,-579,-325,167,53,-399
0,2250865,2224,323,-382,-1030,-579,-325,167,53,-399
0,2250874,2227,326,-384,-1038,-582,-333,167,53,-399
0,2250882,2227,326,-384,-1038,-582,-333,167,53,-399
0,2250890,2222,321,-394,-1035,-574,-338,167,53,-399
0,2250898,2222,321,-394,-1035,-574,-338,167,53,-399
0,2250907,2223,328,-397,-1033,-575,-338,167,53,-399
0,2250916,2223,328,-397,-1033,-575,-338,167,53,-399
0,2250925,2223,328,-397,-1033,-575,-338,167,53,-399
0,2250935,2220,324,-389,-1028,-576,-322,167,53,-399
0,2250945,2220,324,-389,-1028,-576,-322,167,53,-399
0,2250953,2223,322,-386,-1029,-576,-323,167,53,-399
0,2250962,2223,322,-386,-1029,-576,-323,167,53,-399
0,2250971,2226,327,-390,-1039,-576,-327,170,60,-396
0,2250980,2226,327,-390,-1039,-576,-327,170,60,-396
0,2250988,2226,324,-390,-1035,-579,-325,170,60,-396
0,2250997,2226,324,-390,-1035,-579,-325,170,60,-396
0,2251005,2226,324,-390,-1035,-579,-325,170,60,-396
0,2251015,2225,323,-392,-1028,-579,-327,170,60,-396
0,2251023,2225,323,-392,-1028,-579,-327,170,60,-396
0,2251031,2223,322,-387,-1034,-575,-333,170,60,-396
0,2251039,2223,322,-387,-1034,-575,-333,170,60,-396
0,2251048,2225,324,-388,-1032,-577,-331,170,60,-396
0,2251057,2225,324,-388,-1032,-577,-331,170,60,-396
0,2251066,2225,324,-388,-1032,-577,-331,170,60,-396
0,2251075,2225,324,-388,-1032,-577,-331,170,60,-396
0,2251083,2225,324,-388,-1032,-577,-331,170,60,-396
0,2251091,2223,329,-392,-1031,-572,-329,170,60,-396
0,2251100,2223,329,-392,-1031,-572,-329,170,60,-396
0,2251108,2223,326,-384,-1033,-574,-325,171,59,-385
0,2251117,2223,326,-384,-1033,-574,-325,171,59,-385
0,2251125,2223,326,-384,-1033,-574,-325,171,59,-385
0,2251133,2223,324,-387,-1030,-576,-334,171,59,-385
0,2251143,2223,324,-387,-1030,-576,-334,171,59,-385
0,2251151,2227,327,-388,-1037,-576,-328,171,59,-385
0,2251160,2227,327,-388,-1037,-576,-328,171,59,-385
0,2251167,2227,327,-388,-1037,-576,-328,171,59,-385
0,2251176,2226,326,-400,-1032,-572,-323,171,59,-385
0,2251186,2226,326,-400,-1032,-572,-323,171,59,-385
0,2251195,2222,327,-391,-1027,-571,-337,171,59,-385
0,2251203,2222,327,-391,-1027,-571,-337,171,59,-385
0,2251213,2226,327,-391,-1032,-572,-328,171,59,-385
0,2251223,2226,327,-391,-1032,-572,-328,171,59,-385
0,2251232,2225,325,-386,-1033,-572,-325,175,57,-395
0,2251241,2225,325,-386,-1033,-572,-325,175,57,-395
0,2251251,2228,326,-392,-1031,-572,-331,175,57,-395
0,2251260,2228,326,-392,-1031,-572,-331,175,57,-395
0,2251268,2225,325,-396,-1033,-568,-337,175,57,-395
0,2251279,2225,325,-396,-1033,-568,-337,175,57,-395
0,2251286,2225,325,-396,-1033,-568,-337,175,57,-395
0,2251295,2227,322,-394,-1027,-574,-327,175,57,-395
0,2251304,2227,322,-394,-1027,-574,-327,175,57,-395
0,2251314,2222,327,-393,-1030,-576,-328,175,57,-395
0,2251322,2222,327,-393,-1030,-576,-328,175,57,-395
0,2251332,2225,325,-393,-1028,-582,-336,175,57,-395
0,2251340,2225,325,-393,-1028,-582,-336,175,57,-395
0,2251350,2223,323,-391,-1029,-577,-330,175,57,-395
0,2251360,2223,323,-391,-1029,-577,-330,175,57,-395
0,2251368,2223,323,-387,-1038,-577,-327,176,54,-398
0,2251379,2223,323,-387,-1038,-577,-327,176,54,-398
0,2251388,2225,327,-394,-1040,-586,-329,176,54,-398
0,2251398,2225,327,-394,-1040,-586,-329,176,54,-398
0,2251409,2226,326,-394,-1037,-582,-323,176,54,-398
0,2251417,2226,326,-394,-1037,-582,-323,176,54,-398
0,2251425,2226,326,-394,-1037,-582,-323,176,54,-398
0,2251432,2225,322,-390,-1037,-570,-322,176,54,-398
0,2251441,2225,322,-390,-1037,-570,-322,176,54,-398
0,2251450,2224,325,-389,-1027,-572,-326,176,54,-398
0,2251458,2224,325,-389,-1027,-572,-326,176,54,-398
0,2251466,2224,325,-389,-1027,-572,-326,176,54,-398
0,2251474,2226,323,-391,-1039,-571,-336,176,54,-398
0,2251482,2226,323,-391,-1039,-571,-336,176,54,-398
0,2251491,2226,329,-393,-1044,-568,-325,171,61,-397
0,2251497,2226,329,-393,-1044,-568,-325,171,61,-397
0,2251506,2226,329,-393,-1044,-568,-325,171,61,-397
0,2251514,2226,329,-393,-1044,-568,-325,171,61,-397
0,2251524,2226,329,-393,-1044,-568,-325,171,61,-397
0,2251533,2225,326,-390,-1030,-571,-326,171,61,-397
0,2251542,2225,326,-390,-1030,-571,-326,171,61,-397
0,2251550,2228,323,-392,-1041,-578,-326,171,61,-397
0,2251558,2228,323,-392,-1041,-578,-326,171,61,-397
0,2251566,2228,323,-392,-1041,-578,-326,171,61,-397
0,2251574,2225,323,-390,-1034,-576,-328,171,61,-397
0,2251583,2225,323,-390,-1034,-576,-328,171,61,-397
0,2251590,2225,327,-392,-1035,-576,-325,171,61,-397
0,2251600,2225,327,-392,-1035,-576,-325,171,61,-397
0,2251610,2224,325,-392,-1031,-578,-325,181,61,-397
0,2251617,2224,325,-392,-1031,-578,-325,181,61,-397
0,2251627,2224,325,-392,-1031,-578,-325,181,61,-397
0,2251636,2228,327,-390,-1033,-572,-327,181,61,-397
0,2251644,2228,327,-390,-1033,-572,-327,181,61,-397
0,2251653,2227,326,-387,-1033,-574,-325,181,61,-397
0,2251661,2227,326,-387,-1033,-574,-325,181,61,-397
0,2251670,2226,324,-387,-1034,-577,-328,181,61,-397
0,2251678,2226,324,-387,-1034,-577,-328,181,61,-397
0,2251687,2226,324,-387,-1034,-577,-328,181,61,-397
0,2251696,2226,329,-390,-1032,-576,-322,181,61,-397
0,2251705,2226,329,-390,-1032,-576,-322,181,61,-397
0,2251714,2226,329,-390,-1032,-576,-322,181,61,-397
0,2251721,2226,329,-390,-1032,-576,-322,181,61,-397
0,2251731,2224,325,-390,-1030,-573,-324,181,61,-397
0,2251742,2224,325,-390,-1030,-573,-324,181,61,-397
0,2251750,2226,325,-392,-1030,-577,-325,168,62,-398
0,2251759,2226,325,-392,-1030,-577,-325,168,62,-398
0,2251768,2225,325,-382,-1027,-581,-331,168,62,-398
0,2251778,2225,325,-382,-1027,-581,-331,168,62,-398
0,2251787,2225,325,-382,-1027,-581,-331,168,62,-398
0,2251796,2225,325,-388,-1028,-580,-327,168,62,-398
0,2251804,2225,325,-388,-1028,-580,-327,168,62,-398
0,2251814,2225,326,-394,-1036,-584,-326,168,62,-398
0,2251825,2225,326,-394,-1036,-584,-326,168,62,-398
0,2251834,2223,329,-389,-1028,-577,-328,168,62,-398
0,2251843,2223,329,-389,-1028,-577,-328,168,62,-398
0,2251851,2227,327,-393,-1032,-573,-328,168,62,-398
0,2251862,2227,327,-393,-1032,-573,-328,168,62,-398
0,2251870,2225,325,-392,-1039,-579,-328,174,62,-384
0,2251879,2225,325,-392,-1039,-579,-328,174,62,-384
0,2251889,2225,327,-385,-1041,-573,-327,174,62,-384
0,2251901,2225,327,-385,-1041,-573,-327,174,62,-384
0,2251910,2222,326,-387,-1030,-581,-333,174,62,-384
0,2251919,2222,326,-387,-1030,-581,-333,174,62,-384
0,2251928,2222,326,-387,-1030,-581,-333,174,62,-384
0,2251936,2222,328,-389,-1037,-575,-323,174,62,-384
0,2251944,2222,328,-389,-1037,-575,-323,174,62,-384
0,2251954,2221,326,-397,-1037,-570,-330,174,62,-384
0,2251966,2221,326,-397,-1037,-570,-330,174,62,-384
0,2251975,2223,323,-393,-1036,-578,-329,174,62,-384
0,2251985,2223,323,-393,-1036,-578,-329,174,62,-384
0,2251994,2224,323,-401,-1035,-578,-320,174,62,-384
0,2252003,2224,323,-401,-1035,-578,-320,174,62,-384
0,2252012,2226,325,-389,-1034,-580,-325,178,50,-392
0,2252020,2226,325,-389,-1034,-580,-325,178,50,-392
0,2252029,2228,323,-387,-1036,-579,-329,178,50,-392
0,2252039,2228,323,-387,-1036,-579,-329,178,50,-392
0,2252050,2224,326,-389,-1031,-573,-328,178,50,-392
0,2252059,2224,326,-389,-1031,-573,-328,178,50,-392
0,2252067,2224,326,-389,-1031,-573,-328,178,50,-392
0,2252077,2225,321,-393,-1031,-578,-330,178,50,-392
0,2252086,2225,321,-393,-1031,-578,-330,178,50,-392
0,2252097,2225,323,-389,-1033,-575,-327,178,50,-392
0,2252106,2225,323,-389,-1033,-575,-327,178,50,-392
0,2252118,2222,332,-391,-1031,-576,-328,178,50,-392
0,2252127,2222,332,-391,-1031,-576,-328,178,50,-392
0,2252135,2220,330,-390,-1036,-581,-323,170,54,-390
0,2252144,2220,330,-390,-1036,-581,-323,170,54,-390
0,2252153,2223,323,-388,-1034,-578,-327,170,54,-390
0,2252162,2223,323,-388,-1034,-578,-327,170,54,-390
0,2252173,2227,327,-397,-1037,-577,-329,170,54,-390
0,2252182,2227,327,-397,-1037,-577,-329,170,54,-390
0,2252191,2226,324,-389,-1029,-576,-325,170,54,-390
0,2252200,2226,324,-389,-1029,-576,-325,170,54,-390
0,2252211,2225,324,-387,-1039,-581,-330,170,54,-390
0,2252219,2225,324,-387,-1039,-581,-330,170,54,-390
0,2252227,2225,324,-387,-1039,-581,-330,170,54,-390
0,2252235,2228,326,-386,-1035,-578,-330,170,54,-390
0,2252243,2228,326,-386,-1035,-578,-330,170,54,-390
0,2252253,2226,326,-396,-1033,-581,-327,168,52,-392
0,2252261,2226,326,-396,-1033,-581,-327,168,52,-392
0,2252270,2221,325,-386,-1038,-576,-327,168,52,-392
0,2252281,2221,325,-386,-1038,-576,-327,168,52,-392
0,2252291,2227,329,-389,-1029,-574,-328,168,52,-392
0,2252302,2227,329,-389,-1029,-574,-328,168,52,-392
0,2252313,2226,327,-398,-1031,-569,-325,168,52,-392
0,2252322,2226,327,-398,-1031,-569,-325,168,52,-392
0,2252331,2226,331,-398,-1037,-580,-325,168,52,-392
0,2252340,2226,331,-398,-1037,-580,-325,168,52,-392
0,2252351,2225,325,-398,-1035,-576,-328,168,52,-392
0,2252359,2225,325,-398,-1035,-576,-328,168,52,-392
0,2252369,2228,324,-395,-1030,-577,-318,168,52,-392
0,2252380,2228,324,-395,-1030,-577,-318,168,52,-392
0,2252388,2228,324,-395,-1030,-577,-318,168,52,-392
0,2252398,2227,326,-387,-1025,-580,-325,172,56,-396
0,2252407,2227,326,-387,-1025,-580,-325,172,56,-396
0,2252418,2227,326,-386,-1029,-574,-331,172,56,-396
0,2252428,2227,326,-386,-1029,-574,-331,172,56,-396
0,2252436,2228,328,-393,-1036,-574,-321,172,56,-396
0,2252446,2228,328,-393,-1036,-574,-321,172,56,-396
0,2252456,2227,334,-393,-1033,-581,-324,172,56,-396
0,2252466,2227,334,-393,-1033,-581,-324,172,56,-396
0,2252477,2226,330,-390,-1026,-577,-322,172,56,-396
0,2252486,2226,330,-390,-1026,-577,-322,172,56,-396
0,2252494,2226,326,-391,-1029,-569,-326,172,56,-396
0,2252505,2226,326,-391,-1029,-569,-326,172,56,-396
0,2252514,2222,328,-387,-1025,-566,-326,170,56,-396
0,2252523,2222,328,-387,-1025,-566,-326,170,56,-396
0,2252530,2223,325,-397,-1024,-579,-325,170,56,-396
0,2252539,2223,325,-397,-1024,-579,-325,170,56,-396
0,2252548,2223,325,-397,-1024,-579,-325,170,56,-396
0,2252557,2222,326,-392,-1025,-571,-327,170,56,-396
0,2252566,2222,326,-392,-1025,-571,-327,170,56,-396
0,2252577,2223,326,-395,-1031,-574,-332,170,56,-396
0,2252588,2223,326,-395,-1031,-574,-332,170,56,-396
0,2252599,2226,328,-390,-1025,-576,-332,170,56,-396
0,2252608,2226,328,-390,-1025,-576,-332,170,56,-396
0,2252618,2225,326,-388,-1029,-577,-329,170,56,-396
0,2252625,2225,326,-388,-1029,-577,-329,170,56,-396
0,2252637,2225,325,-386,-1028,-578,-331,170,56,-396
0,2252644,2225,325,-386,-1028,-578,-331,170,56,-396
0,2252654,2226,328,-382,-1026,-576,-333,170,58,-392
0,2252664,2226,328,-382,-1026,-576,-333,170,58,-392
0,2252677,2225,325,-386,-1034,-578,-336,170,58,-392
0,2252686,2225,325,-386,-1034,-578,-336,170,58,-392
0,2252695,2226,326,-392,-1045,-578,-329,170,58,-392
0,2252705,2226,326,-392,-1045,-578,-329,170,58,-392
0,2252713,2224,329,-392,-1040,-577,-331,170,58,-392
0,2252722,2224,329,-392,-1040,-577,-331,170,58,-392
0,2252731,2223,326,-393,-1030,-576,-327,170,58,-392
0,2252741,2223,326,-393,-1030,-576,-327,170,58,-392
0,2252750,2226,329,-388,-1033,-576,-322,170,58,-392
0,2252759,2226,329,-388,-1033,-576,-322,170,58,-392
0,2252768,2226,329,-388,-1033,-576,-322,170,58,-392
0,2252776,2226,330,-383,-1038,-583,-331,162,62,-398
0,2252784,2226,330,-383,-1038,-583,-331,162,62,-398
0,2252793,2226,326,-390,-1038,-577,-337,162,62,-398
0,2252805,2226,326,-390,-1038,-577,-337,162,62,-398
0,2252814,2223,322,-391,-1033,-575,-334,162,62,-398
0,2252823,2223,322,-391,-1033,-575,-334,162,62,-398
0,2252830,2225,329,-388,-1042,-569,-329,162,62,-398
0,2252839,2225,329,-388,-1042,-569,-329,162,62,-398
0,2252849,2225,329,-388,-1042,-569,-329,162,62,-398
0,2252857,2225,328,-392,-1035,-571,-333,162,62,-398
0,2252866,2225,328,-392,-1035,-571,-333,162,62,-398
0,2252873,2224,325,-386,-1033,-576,-328,162,62,-398
0,2252881,2224,325,-386,-1033,-576,-328,162,62,-398
0,2252891,2223,327,-390,-1030,-570,-319,162,62,-398
0,2252899,2223,327,-390,-1030,-570,-319,162,62,-398
0,2252906,2223,327,-390,-1030,-570,-319,162,62,-398
0,2252914,2225,326,-385,-1030,-572,-323,167,61,-391
0,2252923,2225,326,-385,-1030,-572,-323,167,61,-391
0,2252933,2225,329,-392,-1032,-574,-325,167,61,-391
0,2252941,2225,329,-392,-1032,-574,-325,167,61,-391
0,2252950,2226,330,-388,-1027,-568,-327,167,61,-391
0,2252958,2226,330,-388,-1027,-568,-327,167,61,-391
0,2252967,2226,330,-388,-1027,-568,-327,167,61,-391
0,2252975,2224,324,-394,-1035,-578,-325,167,61,-391
0,2252984,2224,324,-394,-1035,-578,-325,167,61,-391
0,2252992,2224,324,-394,-1035,-578,-325,167,61,-391
0,2253001,2224,324,-394,-1035,-578,-325,167,61,-391
0,2253010,2228,322,-389,-1026,-569,-326,167,61,-391
0,2253020,2228,322,-389,-1026,-569,-326,167,61,-391
0,2253028,2228,322,-389,-1026,-569,-326,167,61,-391
0,2253036,2225,327,-385,-1041,-573,-322,161,59,-387
0,2253044,2225,327,-385,-1041,-573,-322,161,59,-387
0,2253053,2227,328,-388,-1041,-582,-325,161,59,-387
0,2253062,2227,328,-388,-1041,-582,-325,161,59,-387
0,2253073,2227,330,-391,-1035,-577,-319,161,59,-387
0,2253080,2227,330,-391,-1035,-577,-319,161,59,-387
0,2253089,2227,330,-391,-1035,-577,-319,161,59,-387
0,2253097,2225,328,-395,-1028,-578,-320,161,59,-387
0,2253107,2225,328,-395,-1028,-578,-320,161,59,-387
0,2253115,2225,329,-394,-1034,-573,-321,161,59,-387
0,2253124,2225,329,-394,-1034,-573,-321,161,59,-387
0,2253131,2228,330,-390,-1034,-577,-327,161,59,-387
0,2253140,2228,330,-390,-1034,-577,-327,161,59,-387
0,2253149,2228,330,-390,-1034,-577,-327,161,59,-387
0,2253158,2224,328,-395,-1033,-579,-331,160,58,-394
0,2253167,2224,328,-395,-1033,-579,-331,160,58,-394
0,2253175,2227,330,-388,-1024,-567,-330,160,58,-394
0,2253185,2227,330,-388,-1024,-567,-330,160,58,-394
0,2253193,2225,325,-388,-1031,-579,-329,160,58,-394
0,2253202,2225,325,-388,-1031,-579,-329,160,58,-394
0,2253209,2225,325,-388,-1031,-579,-329,160,58,-394
0,2253217,2225,325,-388,-1031,-579,-329,160,58,-394
0,2253227,2225,325,-388,-1031,-579,-329,160,58,-394
0,2253236,2226,325,-387,-1029,-571,-328,160,58,-394
0,2253246,2226,325,-387,-1029,-571,-328,160,58,-394
0,2253253,2225,326,-389,-1031,-575,-330,160,58,-394
0,2253261,2225,326,-389,-1031,-575,-330,160,58,-394
0,2253270,2225,326,-389,-1031,-575,-330,160,58,-394
0,2253279,2228,328,-387,-1043,-575,-328,160,58,-394
0,2253287,2228,328,-387,-1043,-575,-328,160,58,-394
0,2253296,2226,324,-380,-1033,-585,-324,167,61,-387
0,2253305,2226,324,-380,-1033,-585,-324,167,61,-387
0,2253312,2225,330,-391,-1034,-575,-335,167,61,-387
0,2253320,2225,330,-391,-1034,-575,-335,167,61,-387
0,2253330,2225,330,-391,-1034,-575,-335,167,61,-387
0,2253338,2227,329,-393,-1030,-577,-337,167,61,-387
0,2253347,2227,329,-393,-1030,-577,-337,167,61,-387
0,2253357,2224,327,-388,-1032,-575,-324,167,61,-387
0,2253365,2224,327,-388,-1032,-575,-324,167,61,-387
0,2253375,2226,329,-392,-1028,-573,-327,167,61,-387
0,2253384,2226,329,-392,-1028,-573,-327,167,61,-387
0,2253393,2225,329,-394,-1021,-572,-324,167,61,-387
0,2253401,2225,329,-394,-1021,-572,-324,167,61,-387
0,2253411,2226,328,-385,-1035,-579,-324,166,66,-394
0,2253418,2226,328,-385,-1035,-579,-324,166,66,-394
0,2253427,2226,328,-385,-1035,-579,-324,166,66,-394
0,2253436,2225,327,-388,-1035,-577,-326,166,66,-394
0,2253445,2225,327,-388,-1035,-577,-326,166,66,-394
0,2253454,2223,326,-392,-1035,-574,-323,166,66,-394
0,2253463,2223,326,-392,-1035,-574,-323,166,66,-394
0,2253471,2225,331,-394,-1032,-577,-323,166,66,-394
0,2253479,2225,331,-394,-1032,-577,-323,166,66,-394
0,2253489,2225,331,-394,-1032,-577,-323,166,66,-394
0,2253497,2226,326,-397,-1034,-571,-326,166,66,-394
0,2253505,2226,326,-397,-1034,-571,-326,166,66,-394
0,2253513,2226,328,-390,-1041,-577,-326,166,66,-394
0,2253521,2226,328,-390,-1041,-577,-326,166,66,-394
0,2253530,2226,328,-390,-1041,-577,-326,166,66,-394
0,2253538,2224,331,-393,-1040,-577,-322,166,66,-394
0,2253546,2224,331,-393,-1040,-577,-322,166,66,-394
0,2253553,2227,327,-385,-1037,-571,-327,177,61,-387
0,2253561,2227,327,-385,-1037,-571,-327,177,61,-387
0,2253570,2227,327,-385,-1037,-571,-327,177,61,-387
0,2253577,2225,327,-389,-1029,-572,-332,177,61,-387
0,2253584,2225,327,-389,-1029,-572,-332,177,61,-387
0,2253593,2228,326,-389,-1027,-566,-320,177,61,-387
0,2253601,2228,326,-389,-1027,-566,-320,177,61,-387
0,2253609,2228,326,-389,-1027,-566,-320,177,61,-387
0,2253619,2229,327,-396,-1037,-576,-320,177,61,-387
0,2253627,2229,327,-396,-1037,-576,-320,177,61,-387
0,2253636,2227,326,-392,-1033,-574,-326,177,61,-387
0,2253647,2227,326,-392,-1033,-574,-326,177,61,-387
0,2253655,2228,327,-388,-1033,-568,-329,177,61,-387
0,2253664,2228,327,-388,-1033,-568,-329,177,61,-387
0,2253674,2225,328,-388,-1032,-574,-328,169,59,-393
0,2253682,2225,328,-388,-1032,-574,-328,169,59,-393
0,2253692,2224,326,-384,-1034,-578,-330,169,59,-393
0,2253700,2224,326,-384,-1034,-578,-330,169,59,-393
0,2253709,2224,326,-384,-1034,-578,-330,169,59,-393
0,2253718,2225,331,-385,-1036,-575,-335,169,59,-393
0,2253727,2225,331,-385,-1036,-575,-335,169,59,-393
0,2253735,2223,329,-394,-1037,-577,-333,169,59,-393
0,2253744,2223,329,-394,-1037,-577,-333,169,59,-393
0,2253752,2224,325,-391,-1028,-578,-325,169,59,-393
0,2253760,2224,325,-391,-1028,-578,-325,169,59,-393
0,2253770,2224,325,-391,-1028,-578,-325,169,59,-393
0,2253779,2224,330,-387,-1033,-579,-327,169,59,-393
0,2253788,2224,330,-387,-1033,-579,-327,169,59,-393
0,2253795,2230,328,-391,-1038,-571,-331,169,59,-393
0,2253803,2230,328,-391,-1038,-571,-331,169,59,-393
0,2253812,2230,328,-391,-1038,-571,-331,174,52,-394
0,2253820,2230,328,-391,-1038,-571,-331,174,52,-394
0,2253827,2230,328,-391,-1038,-571,-331,174,52,-394
0,2253836,2224,327,-385,-1037,-574,-324,174,52,-394
0,2253845,2224,327,-385,-1037,-574,-324,174,52,-394
0,2253854,2227,332,-393,-1040,-573,-330,174,52,-394
0,2253861,2227,332,-393,-1040,-573,-330,174,52,-394
0,2253870,2227,332,-393,-1040,-573,-330,174,52,-394
0,2253880,2224,330,-397,-1032,-579,-330,174,52,-394
0,2253889,2224,330,-397,-1032,-579,-330,174,52,-394
0,2253898,2226,329,-388,-1039,-583,-329,174,52,-394
0,2253906,2226,329,-388,-1039,-583,-329,174,52,-394
0,2253916,2228,327,-391,-1029,-576,-327,174,52,-394
0,2253924,2228,327,-391,-1029,-576,-327,174,52,-394
0,2253933,2224,330,-392,-1031,-573,-333,169,57,-393
0,2253943,2224,330,-392,-1031,-573,-333,169,57,-393
0,2253950,2223,325,-388,-1037,-579,-328,169,57,-393
0,2253960,2223,325,-388,-1037,-579,-328,169,57,-393
0,2253968,2223,325,-388,-1037,-579,-328,169,57,-393
0,2253977,2227,326,-395,-1037,-576,-330,169,57,-393
0,2253986,2227,326,-395,-1037,-576,-330,169,57,-393
0,2253996,2225,328,-394,-1032,-570,-333,169,57,-393
0,2254004,2225,328,-394,-1032,-570,-333,169,57,-393
0,2254010,2225,328,-394,-1032,-570,-333,169,57,-393
0,2254016,2226,330,-387,-1035,-576,-331,169,57,-393
0,2254025,2226,330,-387,-1035,-576,-331,169,57,-393
0,2254034,2229,324,-389,-1029,-577,-327,169,57,-393
0,2254045,2229,324,-389,-1029,-577,-327,169,57,-393
0,2254054,2227,328,-393,-1038,-580,-323,166,56,-394
0,2254063,2227,328,-393,-1038,-580,-323,166,56,-394
0,2254071,2226,328,-384,-1033,-573,-322,166,56,-394
0,2254078,2226,328,-384,-1033,-573,-322,166,56,-394
0,2254087,2226,328,-384,-1033,-573,-322,166,56,-394
0,2254096,2225,328,-393,-1033,-586,-325,166,56,-394
0,2254104,2225,328,-393,-1033,-586,-325,166,56,-394
0,2254112,2224,329,-391,-1038,-581,-325,166,56,-394
0,2254120,2224,329,-391,-1038,-581,-325,166,56,-394
0,2254130,2224,329,-391,-1038,-581,-325,166,56,-394
0,2254139,2223,328,-392,-1034,-576,-333,166,56,-394
0,2254148,2223,328,-392,-1034,-576,-333,166,56,-394
0,2254157,2226,328,-395,-1035,-577,-332,166,56,-394
0,2254164,2226,328,-395,-1035,-577,-332,166,56,-394
0,2254175,2227,326,-399,-1042,-573,-331,166,56,-394
0,2254184,2227,326,-399,-1042,-573,-331,166,56,-394
0,2254193,2227,326,-391,-1041,-574,-330,164,52,-392
0,2254201,2227,326,-391,-1041,-574,-330,164,52,-392
0,2254212,2226,323,-393,-1038,-578,-332,164,52,-392
0,2254221,2226,323,-393,-1038,-578,-332,164,52,-392
0,2254230,2226,323,-393,-1038,-578,-332,164,52,-392
0,2254239,2225,322,-392,-1035,-579,-331,164,52,-392
0,2254246,2225,322,-392,-1035,-579,-331,164,52,-392
0,2254256,2227,329,-390,-1027,-573,-326,164,52,-392
0,2254263,2227,329,-390,-1027,-573,-326,164,52,-392
0,2254271,2228,329,-390,-1029,-582,-331,164,52,-392
0,2254280,2228,329,-390,-1029,-582,-331,164,52,-392
0,2254289,2228,329,-390,-1029,-582,-331,164,52,-392
0,2254298,2226,329,-385,-1038,-585,-324,164,52,-392
0,2254307,2226,329,-385,-1038,-585,-324,164,52,-392
0,2254317,2227,331,-389,-1032,-574,-321,175,47,-395
0,2254326,2227,331,-389,-1032,-574,-321,175,47,-395
0,2254337,2224,330,-392,-1036,-573,-324,175,47,-395
0,2254345,2224,330,-392,-1036,-573,-324,175,47,-395
0,2254353,2223,326,-389,-1036,-576,-330,175,47,-395
0,2254364,2223,326,-389,-1036,-576,-330,175,47,-395
0,2254373,2225,326,-391,-1044,-578,-329,175,47,-395
0,2254382,2225,326,-391,-1044,-578,-329,175,47,-395
0,2254391,2225,326,-391,-1044,-578,-329,175,47,-395
0,2254400,2223,324,-388,-1034,-569,-332,175,47,-395
0,2254407,2223,324,-388,-1034,-569,-332,175,47,-395
0,2254416,2224,328,-395,-1032,-587,-328,175,47,-395
0,2254425,2224,328,-395,-1032,-587,-328,175,47,-395
0,2254435,2226,323,-392,-1043,-579,-324,175,47,-395
0,2254443,2226,323,-392,-1043,-579,-324,175,47,-395
0,2254452,2226,327,-392,-1035,-575,-324,171,65,-399
0,2254461,2226,327,-392,-1035,-575,-324,171,65,-399
0,2254469,2226,327,-392,-1035,-575,-324,171,65,-399
0,2254477,2227,328,-391,-1034,-571,-330,171,65,-399
0,2254486,2227,328,-391,-1034,-571,-330,171,65,-399
0,2254497,2223,327,-394,-1034,-579,-330,171,65,-399
0,2254507,2223,327,-394,-1034,-579,-330,171,65,-399
0,2254515,2225,328,-392,-1034,-575,-326,171,65,-399
0,2254525,2225,328,-392,-1034,-575,-326,171,65,-399
0,2254533,2225,328,-395,-1030,-572,-328,171,65,-399
0,2254541,2225,328,-395,-1030,-572,-328,171,65,-399
0,2254550,2225,328,-395,-1030,-572,-328,171,65,-399
0,2254557,2225,328,-387,-1033,-576,-330,171,65,-399
0,2254565,2225,328,-387,-1033,-576,-330,171,65,-399
0,2254574,2222,328,-386,-1033,-575,-327,166,58,-396
0,2254584,2222,328,-386,-1033,-575,-327,166,58,-396
0,2254594,2226,329,-395,-1031,-572,-327,166,58,-396
0,2254603,2226,329,-395,-1031,-572,-327,166,58,-396
0,2254612,2227,328,-392,-1029,-572,-324,166,58,-396
0,2254621,2227,328,-392,-1029,-572,-324,166,58,-396
0,2254629,2227,328,-392,-1029,-572,-324,166,58,-396
0,2254639,2226,323,-395,-1036,-573,-322,166,58,-396
0,2254648,2226,323,-395,-1036,-573,-322,166,58,-396
0,2254655,2232,329,-389,-1041,-574,-328,166,58,-396
0,2254664,2232,329,-389,-1041,-574,-328,166,58,-396
0,2254671,2226,329,-396,-1032,-575,-321,166,58,-396
0,2254682,2226,329,-396,-1032,-575,-321,166,58,-396
0,2254689,2226,329,-396,-1032,-575,-321,166,58,-396
0,2254699,2226,329,-393,-1038,-577,-328,166,58,-396
0,2254707,2226,329,-393,-1038,-577,-328,166,58,-396
0,2254715,2225,331,-386,-1034,-568,-331,162,50,-396
0,2254725,2225,331,-386,-1034,-568,-331,162,50,-396
0,2254735,2224,328,-393,-1033,-567,-327,162,50,-396
0,2254743,2224,328,-393,-1033,-567,-327,162,50,-396
0,2254749,2224,328,-393,-1033,-567,-327,162,50,-396
0,2254758,2225,326,-392,-1038,-571,-330,162,50,-396
0,2254767,2225,326,-392,-1038,-571,-330,162,50,-396
0,2254776,2223,325,-389,-1032,-575,-333,162,50,-396
0,2254783,2223,325,-389,-1032,-575,-333,162,50,-396
0,2254792,2223,329,-393,-1033,-573,-324,162,50,-396
0,2254802,2223,329,-393,-1033,-573,-324,162,50,-396
0,2254812,2223,329,-393,-1033,-573,-324,162,50,-396
0,2254821,2224,325,-394,-1030,-574,-328,162,50,-396
0,2254827,2224,325,-394,-1030,-574,-328,162,50,-396
0,2254836,2229,324,-384,-1031,-579,-330,163,53,-397
0,2254844,2229,324,-384,-1031,-579,-330,163,53,-397
0,2254854,2226,327,-392,-1039,-576,-334,163,53,-397
0,2254862,2226,327,-392,-1039,-576,-334,163,53,-397
0,2254871,2226,327,-392,-1039,-576,-334,163,53,-397
0,2254880,2226,332,-392,-1044,-577,-329,163,53,-397
0,2254889,2226,332,-392,-1044,-577,-329,163,53,-397
0,2254898,2226,328,-387,-1044,-572,-335,163,53,-397
0,2254906,2226,328,-387,-1044,-572,-335,163,53,-397
0,2254916,2226,329,-398,-1039,-567,-331,163,53,-397
0,2254925,2226,329,-398,-1039,-567,-331,163,53,-397
0,2254934,2223,327,-385,-1043,-570,-329,163,53,-397
0,2254943,2223,327,-385,-1043,-570,-329,163,53,-397
0,2254949,2223,327,-385,-1043,-570,-329,163,53,-397
0,2254960,2223,324,-387,-1028,-572,-325,167,53,-391
0,2254967,2223,324,-387,-1028,-572,-325,167,53,-391
0,2254974,2225,321,-394,-1036,-570,-328,167,53,-391
0,2254984,2225,321,-394,-1036,-570,-328,167,53,-391
0,2254992,2225,321,-394,-1036,-570,-328,167,53,-391
0,2255001,2222,327,-393,-1037,-572,-321,167,53,-391
0,2255009,2222,327,-393,-1037,-572,-321,167,53,-391
0,2255019,2224,326,-388,-1033,-571,-327,167,53,-391
0,2255026,2224,326,-388,-1033,-571,-327,167,53,-391
0,2255036,2226,328,-387,-1037,-569,-321,167,53,-391
0,2255043,2226,328,-387,-1037,-569,-321,167,53,-391
0,2255053,2225,327,-392,-1040,-570,-330,167,53,-391
0,2255062,2225,327,-392,-1040,-570,-330,167,53,-391
0,2255072,2225,327,-392,-1040,-570,-330,167,53,-391
0,2255082,2224,328,-394,-1037,-583,-330,167,53,-391
0,2255089,2224,328,-394,-1037,-583,-330,167,53,-391
0,2255098,2224,326,-386,-1037,-575,-325,167,57,-391
0,2255107,2224,326,-386,-1037,-575,-325,167,57,-391
0,2255117,2227,326,-396,-1038,-572,-322,167,57,-391
0,2255126,2227,326,-396,-1038,-572,-322,167,57,-391
0,2255136,2223,330,-389,-1033,-583,-332,167,57,-391
0,2255147,2223,330,-389,-1033,-583,-332,167,57,-391
0,2255155,2224,322,-388,-1042,-573,-330,167,57,-391
0,2255166,2224,322,-388,-1042,-573,-330,167,57,-391
0,2255175,2223,327,-390,-1038,-575,-328,167,57,-391
0,2255184,2223,327,-390,-1038,-575,-328,167,57,-391
0,2255193,2225,331,-394,-1034,-578,-322,167,57,-391
0,2255202,2225,331,-394,-1034,-578,-322,167,57,-391
0,2255211,2225,331,-394,-1034,-578,-322,167,57,-391
0,2255220,2224,323,-393,-1040,-576,-318,171,53,-389
0,2255229,2224,323,-393,-1040,-576,-318,171,53,-389
0,2255239,2221,327,-388,-1028,-576,-327,171,53,-389
0,2255247,2221,327,-388,-1028,-576,-327,171,53,-389
0,2255256,2226,326,-392,-1030,-583,-329,171,53,-389
0,2255264,2226,326,-392,-1030,-583,-329,171,53,-389
0,2255273,2227,324,-390,-1019,-572,-328,171,53,-389
0,2255284,2227,324,-390,-1019,-572,-328,171,53,-389
0,2255293,2224,327,-392,-1031,-579,-325,171,53,-389
0,2255302,2224,327,-392,-1031,-579,-325,171,53,-389
0,2255309,2224,327,-392,-1031,-579,-325,171,53,-389
0,2255319,2227,330,-390,-1031,-578,-324,171,53,-389
0,2255327,2227,330,-390,-1031,-578,-324,171,53,-389
0,2255336,2221,324,-394,-1031,-580,-327,171,53,-389
0,2255345,2221,324,-394,-1031,-580,-327,171,53,-389
0,2255354,2224,328,-387,-1032,-582,-328,168,56,-398
0,2255363,2224,328,-387,-1032,-582,-328,168,56,-398
0,2255370,2224,328,-387,-1032,-582,-328,168,56,-398
0,2255378,2224,328,-389,-1034,-581,-333,168,56,-398
0,2255386,2224,328,-389,-1034,-581,-333,168,56,-398
0,2255392,2225,327,-390,-1031,-581,-333,168,56,-398
0,2255403,2225,327,-390,-1031,-581,-333,168,56,-398
0,2255411,2225,327,-390,-1031,-581,-333,168,56,-398
0,2255421,2225,326,-396,-1029,-573,-323,168,56,-398
0,2255430,2225,326,-396,-1029,-573,-323,168,56,-398
0,2255440,2225,329,-396,-1037,-572,-323,168,56,-398
