imu,time,ax,ay,az,gx,gy,gz,mx,my,mz
1,5770072,406,667,-2588,-1490,-304,-36,291,291,-299
1,5770085,402,668,-2594,-1489,-300,-35,291,291,-299
1,5770099,404,671,-2600,-1491,-298,-38,291,291,-299
1,5770114,404,671,-2600,-1491,-298,-38,291,291,-299
1,5770126,405,667,-2589,-1492,-302,-37,291,291,-299
1,5770141,406,673,-2593,-1487,-310,-36,291,291,-299
1,5770157,404,671,-2598,-1489,-299,-35,291,291,-299
1,5770171,404,671,-2598,-1489,-299,-35,291,291,-299
1,5770183,407,673,-2596,-1491,-304,-37,291,291,-299
1,5770196,401,668,-2591,-1493,-304,-31,293,307,-293
1,5770210,401,668,-2591,-1493,-304,-31,293,307,-293
1,5770223,408,664,-2593,-1496,-307,-32,293,307,-293
1,5770237,405,660,-2597,-1489,-312,-41,293,307,-293
1,5770247,405,660,-2597,-1489,-312,-41,293,307,-293
1,5770260,407,663,-2591,-1486,-306,-44,293,307,-293
1,5770273,407,663,-2591,-1486,-306,-44,293,307,-293
1,5770287,396,650,-2601,-1483,-301,-49,293,307,-293
1,5770302,397,640,-2594,-1492,-298,-72,293,307,-293
1,5770312,397,640,-2594,-1492,-298,-72,293,307,-293
1,5770327,401,648,-2587,-1490,-299,-111,300,304,-300
1,5770341,400,650,-2589,-1481,-301,-140,300,304,-300
1,5770354,400,650,-2589,-1481,-301,-140,300,304,-300
1,5770368,399,644,-2590,-1485,-316,-161,300,304,-300
1,5770383,397,645,-2593,-1483,-317,-183,300,304,-300
1,5770398,403,661,-2592,-1491,-316,-198,300,304,-300
1,5770412,403,661,-2592,-1491,-316,-198,300,304,-300
1,5770425,403,666,-2591,-1496,-314,-205,300,304,-300
1,5770439,401,660,-2588,-1493,-314,-202,302,294,-294
1,5770455,401,660,-2588,-1493,-314,-202,302,294,-294
1,5770467,400,657,-2594,-1492,-314,-206,302,294,-294
1,5770482,398,663,-2598,-1490,-309,-225,302,294,-294
1,5770496,398,663,-2598,-1490,-309,-225,302,294,-294
1,5770509,388,655,-2597,-1488,-305,-254,302,294,-294
1,5770523,394,657,-2590,-1491,-304,-287,302,294,-294
1,5770537,411,676,-2594,-1488,-317,-306,302,294,-294
1,5770551,411,676,-2594,-1488,-317,-306,302,294,-294
1,5770564,406,675,-2591,-1492,-328,-308,297,297,-293
1,5770577,402,668,-2593,-1484,-315,-306,297,297,-293
1,5770594,402,668,-2593,-1484,-315,-306,297,297,-293
1,5770608,410,664,-2598,-1493,-310,-300,297,297,-293
1,5770624,400,664,-2596,-1495,-301,-301,297,297,-293
1,5770636,400,664,-2596,-1495,-301,-301,297,297,-293
1,5770650,403,661,-2590,-1497,-298,-310,297,297,-293
1,5770664,407,659,-2585,-1495,-303,-315,297,297,-293
1,5770678,405,660,-2593,-1496,-313,-310,290,290,-294
1,5770691,405,660,-2593,-1496,-313,-310,290,290,-294
1,5770705,407,663,-2592,-1494,-315,-317,290,290,-294
1,5770721,406,657,-2592,-1483,-308,-309,290,290,-294
1,5770734,406,657,-2592,-1483,-308,-309,290,290,-294
1,5770746,408,660,-2592,-1489,-304,-299,290,290,-294
1,5770760,406,663,-2598,-1499,-300,-299,290,290,-294
1,5770773,406,663,-2598,-1499,-300,-299,290,290,-294
1,5770788,405,657,-2593,-1498,-304,-293,290,290,-294
1,5770799,403,660,-2595,-1492,-313,-297,290,290,-294
1,5770810,403,660,-2595,-1492,-313,-297,290,290,-294
1,5770817,399,664,-2588,-1492,-317,-311,291,295,-301
1,5770826,399,664,-2588,-1492,-317,-311,291,295,-301
1,5770834,399,664,-2588,-1492,-317,-311,291,295,-301
1,5770843,404,665,-2597,-1489,-310,-314,291,295,-301
1,5770849,404,665,-2597,-1489,-310,-314,291,295,-301
1,5770855,404,665,-2597,-1489,-310,-314,291,295,-301
1,5770861,405,667,-2591,-1492,-309,-309,291,295,-301
1,5770866,405,667,-2591,-1492,-309,-309,291,295,-301
1,5770872,405,667,-2591,-1492,-309,-309,291,295,-301
1,5770878,406,670,-2593,-1492,-307,-311,291,295,-301
1,5770885,406,670,-2593,-1492,-307,-311,291,295,-301
1,5770890,406,670,-2593,-1492,-307,-311,291,295,-301
1,5770896,407,671,-2592,-1486,-310,-308,291,295,-301
1,5770902,407,671,-2592,-1486,-310,-308,291,295,-301
1,5770907,407,671,-2592,-1486,-310,-308,291,295,-301
1,5770912,407,671,-2592,-1486,-310,-308,291,295,-301
1,5770917,407,668,-2592,-1490,-306,-303,291,295,-301
1,5770923,407,668,-2592,-1490,-306,-303,291,295,-301
1,5770927,407,668,-2592,-1490,-306,-303,291,295,-301
1,5770932,407,668,-2592,-1490,-306,-303,291,295,-301
1,5770937,403,668,-2590,-1479,-313,-294,297,295,-303
1,5770943,403,668,-2590,-1479,-313,-294,297,295,-303
1,5770948,403,668,-2590,-1479,-313,-294,297,295,-303
1,5770954,403,668,-2590,-1479,-313,-294,297,295,-303
1,5770959,407,670,-2591,-1486,-311,-290,297,295,-303
1,5770966,407,670,-2591,-1486,-311,-290,297,295,-303
1,5770973,407,670,-2591,-1486,-311,-290,297,295,-303
1,5770979,404,669,-2593,-1488,-317,-289,297,295,-303
1,5770984,404,669,-2593,-1488,-317,-289,297,295,-303
1,5770990,404,669,-2593,-1488,-317,-289,297,295,-303
1,5770998,409,667,-2594,-1493,-310,-278,297,295,-303
1,5771005,409,667,-2594,-1493,-310,-278,297,295,-303
1,5771020,404,663,-2597,-1490,-314,-272,297,295,-303
1,5771032,404,663,-2597,-1490,-314,-272,297,295,-303
1,5771044,400,657,-2598,-1488,-310,-278,297,295,-303
1,5771053,400,657,-2598,-1488,-310,-278,297,295,-303
1,5771061,400,648,-2592,-1489,-306,-284,294,298,-300
1,5771068,400,648,-2592,-1489,-306,-284,294,298,-300
1,5771076,403,655,-2591,-1495,-306,-292,294,298,-300
1,5771088,403,655,-2591,-1495,-306,-292,294,298,-300
1,5771100,405,664,-2590,-1489,-309,-306,294,298,-300
1,5771113,405,664,-2590,-1489,-309,-306,294,298,-300
1,5771122,405,660,-2591,-1485,-309,-316,294,298,-300
1,5771134,405,660,-2591,-1485,-309,-316,294,298,-300
1,5771146,405,659,-2598,-1497,-317,-309,294,298,-300
1,5771160,405,660,-2601,-1491,-315,-313,294,298,-300
1,5771171,405,660,-2601,-1491,-315,-313,294,298,-300
1,5771185,401,659,-2595,-1496,-308,-314,290,290,-292
1,5771197,401,660,-2595,-1497,-304,-323,290,290,-292
1,5771209,401,660,-2595,-1497,-304,-323,290,290,-292
1,5771220,399,654,-2595,-1488,-308,-340,290,290,-292
1,5771232,399,654,-2595,-1488,-308,-340,290,290,-292
1,5771244,399,653,-2592,-1491,-308,-361,290,290,-292
1,5771256,403,660,-2599,-1489,-312,-391,290,290,-292
1,5771272,403,660,-2599,-1489,-312,-391,290,290,-292
1,5771283,399,663,-2597,-1483,-317,-418,290,290,-292
1,5771296,404,663,-2592,-1488,-319,-428,290,290,-292
1,5771310,404,663,-2592,-1488,-319,-428,290,290,-292
1,5771324,404,663,-2587,-1485,-316,-434,300,294,-304
1,5771333,404,663,-2587,-1485,-316,-434,300,294,-304
1,5771345,404,669,-2592,-1483,-326,-429,300,294,-304
1,5771360,404,660,-2596,-1492,-315,-435,300,294,-304
1,5771374,404,660,-2596,-1492,-315,-435,300,294,-304
1,5771389,397,653,-2595,-1492,-304,-444,300,294,-304
1,5771405,401,651,-2593,-1489,-304,-465,300,294,-304
1,5771418,404,663,-2596,-1497,-317,-485,300,294,-304
1,5771431,404,663,-2596,-1497,-317,-485,300,294,-304
1,5771447,406,663,-2587,-1494,-320,-488,287,293,-301
1,5771462,404,661,-2594,-1500,-322,-487,287,293,-301
1,5771473,404,661,-2594,-1500,-322,-487,287,293,-301
1,5771487,404,660,-2596,-1491,-313,-489,287,293,-301
1,5771500,403,655,-2602,-1489,-307,-486,287,293,-301
1,5771513,403,655,-2602,-1489,-307,-486,287,293,-301
1,5771528,395,654,-2594,-1492,-292,-503,287,293,-301
1,5771542,404,659,-2588,-1488,-303,-520,287,293,-301
1,5771553,404,659,-2588,-1488,-303,-520,287,293,-301
1,5771567,407,665,-2588,-1493,-317,-523,285,293,-303
1,5771581,399,668,-2592,-1481,-321,-523,285,293,-303
1,5771594,399,668,-2592,-1481,-321,-523,285,293,-303
1,5771609,405,668,-2601,-1492,-315,-508,285,293,-303
1,5771623,405,670,-2598,-1487,-310,-513,285,293,-303
1,5771638,402,668,-2595,-1483,-305,-509,285,293,-303
1,5771652,402,668,-2595,-1483,-305,-509,285,293,-303
1,5771667,408,669,-2590,-1490,-302,-509,285,293,-303
1,5771681,402,665,-2590,-1492,-308,-509,285,295,-301
1,5771694,402,665,-2590,-1492,-308,-509,285,295,-301
1,5771708,406,663,-2593,-1488,-313,-511,285,295,-301
1,5771721,404,663,-2592,-1490,-317,-509,285,295,-301
1,5771735,404,663,-2592,-1490,-317,-509,285,295,-301
1,5771748,403,664,-2593,-1495,-316,-518,285,295,-301
1,5771762,408,664,-2598,-1496,-309,-517,285,295,-301
1,5771777,405,660,-2598,-1493,-313,-519,285,295,-301
1,5771792,405,660,-2598,-1493,-313,-519,285,295,-301
1,5771805,401,662,-2592,-1491,-311,-511,285,295,-301
1,5771819,404,663,-2590,-1494,-311,-516,297,289,-301
1,5771832,404,663,-2590,-1494,-311,-516,297,289,-301
1,5771846,403,661,-2596,-1488,-311,-513,297,289,-301
1,5771860,404,660,-2594,-1479,-311,-522,297,289,-301
1,5771874,404,660,-2594,-1479,-311,-522,297,289,-301
1,5771886,404,661,-2592,-1487,-323,-518,297,289,-301
1,5771901,401,666,-2590,-1493,-314,-530,297,289,-301
1,5771916,401,666,-2590,-1493,-314,-530,297,289,-301
1,5771929,402,660,-2597,-1492,-311,-538,297,289,-301
1,5771943,402,658,-2588,-1490,-309,-551,293,295,-303
1,5771957,404,660,-2592,-1492,-314,-561,293,295,-303
1,5771970,404,660,-2592,-1492,-314,-561,293,295,-303
1,5771983,399,662,-2597,-1494,-314,-561,293,295,-303
1,5771998,403,661,-2593,-1496,-318,-571,293,295,-303
1,5772013,403,661,-2593,-1496,-318,-571,293,295,-303
1,5772027,408,663,-2599,-1488,-319,-579,293,295,-303
1,5772038,404,667,-2594,-1490,-317,-582,293,295,-303
1,5772052,404,667,-2594,-1490,-317,-582,293,295,-303
1,5772066,402,667,-2593,-1489,-313,-591,288,304,-296
1,5772080,402,662,-2590,-1492,-313,-599,288,304,-296
1,5772094,402,662,-2590,-1492,-313,-599,288,304,-296
1,5772109,400,657,-2593,-1492,-306,-616,288,304,-296
1,5772123,401,659,-2591,-1493,-314,-620,288,304,-296
1,5772136,401,657,-2596,-1487,-312,-620,288,304,-296
1,5772151,401,657,-2596,-1487,-312,-620,288,304,-296
1,5772166,400,658,-2593,-1488,-314,-631,288,304,-296
1,5772179,403,660,-2596,-1489,-312,-644,283,297,-301
1,5772191,403,660,-2596,-1489,-312,-644,283,297,-301
1,5772205,401,657,-2593,-1493,-314,-657,283,297,-301
1,5772219,404,657,-2593,-1493,-312,-666,283,297,-301
1,5772232,404,657,-2593,-1493,-312,-666,283,297,-301
1,5772247,402,653,-2590,-1487,-311,-676,283,297,-301
1,5772261,402,653,-2595,-1488,-311,-692,283,297,-301
1,5772273,402,653,-2595,-1488,-311,-692,283,297,-301
1,5772288,406,657,-2588,-1486,-313,-700,283,297,-301
1,5772302,401,662,-2586,-1485,-319,-706,283,295,-297
1,5772315,401,662,-2586,-1485,-319,-706,283,295,-297
1,5772329,403,665,-2584,-1492,-323,-707,283,295,-297
1,5772341,402,668,-2596,-1488,-314,-699,283,295,-297
1,5772350,402,668,-2596,-1488,-314,-699,283,295,-297
1,5772362,405,665,-2595,-1483,-311,-694,283,295,-297
1,5772378,405,661,-2598,-1486,-308,-697,283,295,-297
1,5772394,405,661,-2598,-1486,-308,-697,283,295,-297
1,5772408,399,666,-2591,-1495,-302,-707,283,295,-297
1,5772423,404,666,-2595,-1498,-311,-718,283,295,-297
1,5772436,404,666,-2595,-1498,-311,-718,283,295,-297
1,5772450,404,666,-2595,-1498,-311,-718,280,288,-306
1,5772462,402,663,-2594,-1482,-320,-722,280,288,-306
1,5772475,402,663,-2594,-1482,-320,-722,280,288,-306
1,5772489,406,660,-2595,-1483,-320,-723,280,288,-306
1,5772504,403,663,-2590,-1489,-308,-711,280,288,-306
1,5772517,402,663,-2597,-1492,-311,-716,280,288,-306
1,5772531,402,663,-2597,-1492,-311,-716,280,288,-306
1,5772544,402,662,-2593,-1495,-311,-715,280,288,-306
1,5772556,402,662,-2593,-1495,-311,-715,280,288,-306
1,5772571,403,658,-2589,-1493,-313,-715,282,294,-302
1,5772587,403,658,-2589,-1493,-313,-715,282,294,-302
1,5772601,405,659,-2591,-1493,-317,-739,282,294,-302
1,5772613,405,659,-2591,-1493,-317,-739,282,294,-302
1,5772628,407,659,-2592,-1488,-318,-741,282,294,-302
1,5772644,405,667,-2591,-1491,-317,-745,282,294,-302
1,5772659,400,657,-2593,-1489,-318,-740,282,294,-302
1,5772673,400,657,-2593,-1489,-318,-740,282,294,-302
1,5772687,398,654,-2596,-1489,-312,-748,283,291,-303
1,5772697,400,660,-2588,-1493,-310,-768,283,291,-303
1,5772709,400,660,-2588,-1493,-310,-768,283,291,-303
1,5772724,404,665,-2595,-1495,-313,-771,283,291,-303
1,5772737,401,664,-2602,-1483,-324,-770,283,291,-303
1,5772751,401,664,-2602,-1483,-324,-770,283,291,-303
1,5772765,403,667,-2602,-1492,-324,-775,283,291,-303
1,5772779,402,665,-2601,-1495,-320,-780,283,291,-303
1,5772791,402,665,-2601,-1495,-320,-780,283,291,-303
1,5772805,399,662,-2592,-1487,-314,-787,273,293,-299
1,5772818,401,663,-2593,-1488,-311,-794,273,293,-299
1,5772832,401,663,-2593,-1488,-311,-794,273,293,-299
1,5772848,404,661,-2586,-1497,-319,-802,273,293,-299
1,5772863,401,662,-2590,-1490,-313,-813,273,293,-299
1,5772878,404,661,-2594,-1489,-317,-833,273,293,-299
1,5772893,404,661,-2594,-1489,-317,-833,273,293,-299
1,5772906,402,660,-2598,-1496,-318,-835,273,293,-299
1,5772920,401,662,-2600,-1496,-319,-840,273,293,-299
1,5772937,400,657,-2592,-1496,-315,-844,273,293,-299
1,5772947,400,657,-2592,-1496,-315,-844,274,300,-304
1,5772962,401,658,-2598,-1492,-319,-853,274,300,-304
1,5772976,401,658,-2598,-1492,-319,-853,274,300,-304
1,5772989,403,660,-2592,-1491,-315,-866,274,300,-304
1,5773002,402,665,-2590,-1490,-316,-876,274,300,-304
1,5773017,405,662,-2596,-1488,-322,-875,274,300,-304
1,5773030,405,662,-2596,-1488,-322,-875,274,300,-304
1,5773042,402,663,-2594,-1493,-321,-874,274,300,-304
1,5773057,399,658,-2588,-1490,-314,-878,274,300,-304
1,5773071,399,658,-2588,-1490,-314,-878,266,296,-300
1,5773086,402,655,-2583,-1492,-309,-883,266,296,-300
1,5773099,406,657,-2593,-1491,-311,-896,266,296,-300
1,5773113,406,657,-2593,-1491,-311,-896,266,296,-300
1,5773128,405,662,-2592,-1497,-320,-896,266,296,-300
1,5773142,403,662,-2595,-1491,-321,-893,266,296,-300
1,5773155,403,662,-2595,-1491,-321,-893,266,296,-300
1,5773169,404,667,-2591,-1489,-319,-896,266,296,-300
1,5773184,403,663,-2588,-1492,-322,-898,270,290,-312
1,5773197,403,661,-2588,-1497,-316,-905,270,290,-312
1,5773209,403,661,-2588,-1497,-316,-905,270,290,-312
1,5773222,404,665,-2590,-1489,-316,-919,270,290,-312
1,5773237,400,663,-2596,-1482,-317,-915,270,290,-312
1,5773251,400,663,-2596,-1482,-317,-915,270,290,-312
1,5773265,403,660,-2594,-1490,-318,-915,270,290,-312
1,5773277,405,660,-2596,-1486,-325,-917,270,290,-312
1,5773292,405,660,-2596,-1486,-325,-917,270,290,-312
1,5773307,405,658,-2592,-1488,-320,-931,261,291,-303
1,5773323,407,664,-2595,-1489,-319,-935,261,291,-303
1,5773336,407,664,-2595,-1489,-319,-935,261,291,-303
1,5773348,401,662,-2598,-1489,-317,-937,261,291,-303
1,5773363,405,658,-2590,-1488,-312,-943,261,291,-303
1,5773376,405,658,-2590,-1488,-312,-943,261,291,-303
1,5773389,404,663,-2589,-1490,-318,-945,261,291,-303
1,5773403,398,663,-2591,-1493,-320,-943,261,291,-303
1,5773414,398,663,-2591,-1493,-320,-943,261,291,-303
1,5773423,402,660,-2588,-1491,-313,-948,261,291,-303
1,5773436,403,658,-2588,-1488,-311,-962,265,291,-303
1,5773450,403,658,-2588,-1488,-311,-962,265,291,-301
1,5773461,404,662,-2585,-1494,-320,-972,265,291,-301
1,5773476,404,662,-2585,-1494,-320,-972,265,291,-301
1,5773490,404,660,-2591,-1494,-319,-980,265,291,-301
1,5773503,402,665,-2592,-1487,-328,-971,265,291,-301
1,5773517,400,666,-2600,-1492,-322,-975,265,291,-301
1,5773532,400,666,-2600,-1492,-322,-975,265,291,-301
1,5773545,397,662,-2592,-1489,-319,-989,265,291,-301
1,5773558,402,662,-2591,-1491,-316,-997,261,291,-299
1,5773572,402,662,-2591,-1491,-316,-997,261,291,-299
1,5773586,406,662,-2588,-1496,-323,-999,261,291,-299
1,5773597,399,661,-2588,-1495,-324,-1009,261,291,-299
1,5773611,399,661,-2588,-1495,-324,-1009,261,291,-299
1,5773624,405,662,-2591,-1485,-327,-1008,261,291,-299
1,5773638,404,659,-2596,-1497,-322,-1011,261,291,-299
1,5773650,404,659,-2596,-1497,-322,-1011,261,291,-299
1,5773664,403,660,-2604,-1501,-318,-1022,261,291,-299
1,5773678,406,661,-2588,-1502,-317,-1033,260,298,-308
1,5773692,406,661,-2588,-1502,-317,-1033,260,298,-308
1,5773704,403,661,-2592,-1490,-324,-1046,260,298,-308
1,5773719,403,661,-2595,-1487,-324,-1037,260,298,-308
1,5773732,403,661,-2595,-1487,-324,-1037,260,298,-308
1,5773746,404,661,-2597,-1495,-326,-1045,260,298,-308
1,5773760,402,660,-2595,-1492,-315,-1056,260,298,-308
1,5773775,402,660,-2595,-1492,-315,-1056,260,298,-308
1,5773790,404,659,-2593,-1498,-323,-1066,260,298,-308
1,5773802,407,662,-2588,-1488,-317,-1071,257,293,-305
1,5773814,407,662,-2588,-1488,-317,-1071,257,293,-305
1,5773828,404,666,-2592,-1487,-325,-1075,257,293,-305
1,5773841,403,659,-2593,-1496,-318,-1077,257,293,-305
1,5773856,403,659,-2593,-1496,-318,-1077,257,293,-305
1,5773864,402,662,-2591,-1495,-326,-1083,257,293,-305
1,5773876,402,662,-2591,-1495,-326,-1083,257,293,-305
1,5773889,400,661,-2592,-1492,-322,-1085,257,293,-305
1,5773903,404,663,-2594,-1486,-323,-1100,257,293,-305
1,5773919,404,666,-2593,-1490,-320,-1101,255,295,-297
1,5773934,404,666,-2593,-1490,-320,-1101,255,295,-297
1,5773946,403,668,-2587,-1493,-328,-1103,255,295,-297
1,5773961,403,665,-2596,-1497,-329,-1108,255,295,-297
1,5773975,403,665,-2596,-1497,-329,-1108,255,295,-297
1,5773989,400,666,-2598,-1492,-319,-1113,255,295,-297
1,5774003,401,662,-2593,-1496,-317,-1115,255,295,-297
1,5774017,405,665,-2587,-1488,-316,-1121,255,295,-297
1,5774030,405,665,-2587,-1488,-316,-1121,255,295,-297
1,5774044,406,661,-2594,-1502,-325,-1121,255,295,-297
1,5774058,405,666,-2587,-1499,-328,-1129,252,286,-304
1,5774070,405,666,-2587,-1499,-328,-1129,252,286,-304
1,5774087,405,664,-2596,-1489,-329,-1138,252,286,-304
1,5774100,403,663,-2595,-1484,-316,-1139,252,286,-304
1,5774113,403,663,-2595,-1484,-316,-1139,252,286,-304
1,5774128,403,663,-2595,-1484,-316,-1139,252,286,-304
1,5774141,404,660,-2593,-1496,-321,-1144,252,286,-304
1,5774155,404,660,-2593,-1496,-321,-1144,252,286,-304
1,5774169,403,660,-2592,-1492,-319,-1155,252,286,-304
1,5774182,404,660,-2590,-1496,-325,-1162,246,298,-304
1,5774196,404,660,-2590,-1496,-325,-1162,246,298,-304
1,5774212,403,662,-2594,-1492,-332,-1165,246,298,-304
1,5774226,404,660,-2602,-1488,-323,-1177,246,298,-304
1,5774238,403,663,-2590,-1493,-323,-1183,246,298,-304
1,5774253,403,663,-2590,-1493,-323,-1183,246,298,-304
1,5774267,404,664,-2595,-1495,-323,-1191,246,298,-304
1,5774280,404,662,-2599,-1499,-320,-1197,246,298,-304
1,5774294,404,662,-2599,-1499,-320,-1197,246,298,-304
1,5774307,403,661,-2589,-1491,-324,-1207,247,299,-311
1,5774319,402,664,-2590,-1492,-323,-1202,247,299,-311
1,5774332,402,664,-2590,-1492,-323,-1202,247,299,-311
1,5774346,403,664,-2593,-1492,-325,-1211,247,299,-311
1,5774360,407,664,-2598,-1497,-321,-1220,247,299,-311
1,5774373,407,664,-2598,-1497,-321,-1220,247,299,-311
1,5774389,403,663,-2589,-1482,-322,-1222,247,299,-311
1,5774403,403,663,-2593,-1491,-313,-1224,247,299,-311
1,5774416,403,663,-2593,-1491,-313,-1224,247,299,-311
1,5774431,401,661,-2593,-1492,-325,-1229,249,299,-301
1,5774444,403,660,-2595,-1490,-320,-1234,249,299,-301
1,5774458,404,663,-2590,-1494,-321,-1246,249,299,-301
1,5774471,404,663,-2590,-1494,-321,-1246,249,299,-301
1,5774486,405,662,-2587,-1497,-319,-1249,249,299,-301
1,5774499,405,665,-2596,-1492,-329,-1249,249,299,-301
1,5774514,405,665,-2596,-1492,-329,-1249,249,299,-301
1,5774527,402,669,-2593,-1490,-323,-1250,249,299,-301
1,5774538,404,666,-2595,-1490,-323,-1253,249,299,-301
1,5774553,404,666,-2595,-1490,-323,-1253,249,299,-301
1,5774566,404,661,-2588,-1495,-323,-1257,245,293,-295
1,5774579,405,661,-2588,-1499,-319,-1269,245,293,-295
1,5774594,405,661,-2588,-1499,-319,-1269,245,293,-295
1,5774606,402,665,-2594,-1495,-324,-1268,245,293,-295
1,5774617,398,662,-2597,-1499,-323,-1272,245,293,-295
1,5774632,398,662,-2597,-1499,-323,-1272,245,293,-295
1,5774646,403,661,-2594,-1487,-324,-1279,245,293,-295
1,5774660,402,662,-2595,-1490,-333,-1289,245,293,-295
1,5774675,402,662,-2595,-1490,-333,-1289,245,293,-295
1,5774690,400,668,-2590,-1489,-327,-1292,243,295,-303
1,5774705,404,664,-2585,-1495,-320,-1298,243,295,-303
1,5774720,401,659,-2589,-1489,-323,-1304,243,295,-303
1,5774734,401,659,-2589,-1489,-323,-1304,243,295,-303
1,5774747,400,661,-2591,-1492,-321,-1303,243,295,-303
1,5774761,402,667,-2588,-1495,-323,-1321,243,295,-303
1,5774773,402,667,-2588,-1495,-323,-1321,243,295,-303
1,5774788,403,664,-2593,-1495,-324,-1320,243,295,-303
1,5774801,403,661,-2593,-1491,-324,-1319,239,293,-301
1,5774815,403,661,-2593,-1491,-324,-1319,239,293,-301
1,5774829,402,662,-2593,-1495,-330,-1330,239,293,-301
1,5774842,404,660,-2588,-1495,-329,-1342,239,293,-301
1,5774858,407,663,-2590,-1491,-325,-1342,239,293,-301
1,5774872,407,663,-2590,-1491,-325,-1342,239,293,-301
1,5774886,404,670,-2592,-1499,-329,-1350,239,293,-301
1,5774901,405,664,-2594,-1499,-329,-1350,239,293,-301
1,5774915,405,664,-2594,-1499,-329,-1350,239,293,-301
1,5774928,406,669,-2592,-1483,-329,-1340,230,306,-302
1,5774942,407,665,-2591,-1494,-322,-1344,230,306,-302
1,5774955,407,665,-2591,-1494,-322,-1344,230,306,-302
1,5774968,402,659,-2592,-1494,-315,-1342,230,306,-302
1,5774982,399,658,-2597,-1492,-317,-1358,230,306,-302
1,5774995,399,658,-2597,-1492,-317,-1358,230,306,-302
1,5775009,402,657,-2599,-1493,-319,-1372,230,306,-302
1,5775021,403,659,-2600,-1496,-333,-1376,230,306,-302
1,5775035,403,659,-2600,-1496,-333,-1376,230,306,-302
1,5775048,400,664,-2588,-1492,-331,-1377,230,306,-302
1,5775063,407,666,-2587,-1491,-328,-1381,225,299,-297
1,5775077,407,666,-2587,-1491,-328,-1381,225,299,-297
1,5775092,407,666,-2587,-1491,-328,-1381,225,299,-297
1,5775108,403,665,-2595,-1502,-321,-1383,225,299,-297
1,5775122,405,661,-2596,-1487,-327,-1384,225,299,-297
1,5775136,405,661,-2596,-1487,-327,-1384,225,299,-297
1,5775150,406,661,-2594,-1498,-329,-1383,225,299,-297
1,5775163,404,662,-2593,-1495,-326,-1384,225,299,-297
1,5775175,404,662,-2593,-1495,-326,-1384,225,299,-297
1,5775188,406,659,-2594,-1489,-327,-1385,223,299,-305
1,5775203,407,661,-2592,-1493,-329,-1398,223,299,-305
1,5775216,407,661,-2592,-1493,-329,-1398,223,299,-305
1,5775229,407,662,-2600,-1495,-324,-1389,223,299,-305
1,5775243,408,661,-2598,-1489,-323,-1386,223,299,-305
1,5775254,408,661,-2598,-1489,-323,-1386,223,299,-305
1,5775269,403,665,-2592,-1495,-323,-1382,223,299,-305
1,5775283,406,663,-2591,-1494,-323,-1377,223,299,-305
1,5775297,406,663,-2591,-1494,-323,-1377,223,299,-305
1,5775311,406,664,-2593,-1493,-328,-1373,217,297,-305
1,5775326,403,666,-2594,-1492,-322,-1375,217,297,-305
1,5775342,408,664,-2593,-1493,-320,-1366,217,297,-305
1,5775356,408,664,-2593,-1493,-320,-1366,217,297,-305
1,5775368,408,667,-2598,-1495,-320,-1369,217,297,-305
1,5775383,406,668,-2600,-1494,-320,-1369,217,297,-305
1,5775394,406,668,-2600,-1494,-320,-1369,217,297,-305
1,5775409,408,665,-2597,-1496,-324,-1361,217,297,-305
1,5775422,411,671,-2591,-1497,-325,-1351,222,300,-298
1,5775437,411,671,-2591,-1497,-325,-1351,222,300,-298
1,5775444,408,665,-2592,-1489,-319,-1342,222,300,-298
1,5775458,404,661,-2592,-1490,-314,-1325,222,300,-298
1,5775473,404,661,-2592,-1490,-314,-1325,222,300,-298
1,5775486,405,661,-2589,-1490,-315,-1326,222,300,-298
1,5775500,409,668,-2584,-1488,-319,-1334,222,300,-298
1,5775514,409,668,-2584,-1488,-319,-1334,222,300,-298
1,5775528,406,666,-2597,-1492,-323,-1330,222,300,-298
1,5775544,408,663,-2592,-1499,-328,-1324,224,298,-306
1,5775559,407,663,-2591,-1502,-327,-1312,224,298,-306
1,5775575,407,663,-2591,-1502,-327,-1312,224,298,-306
1,5775588,408,663,-2595,-1494,-315,-1313,224,298,-306
1,5775602,403,662,-2590,-1497,-317,-1308,224,298,-306
1,5775617,403,662,-2590,-1497,-317,-1308,224,298,-306
1,5775629,406,663,-2590,-1494,-321,-1312,224,298,-306
1,5775641,404,658,-2584,-1507,-323,-1312,224,298,-306
1,5775654,404,658,-2584,-1507,-323,-1312,224,298,-306
1,5775668,407,665,-2589,-1503,-324,-1321,224,298,-306
1,5775682,405,665,-2585,-1494,-329,-1314,220,300,-300
1,5775693,405,665,-2585,-1494,-329,-1314,220,300,-300
1,5775707,404,667,-2592,-1499,-326,-1310,220,300,-300
1,5775720,403,659,-2595,-1499,-320,-1308,220,300,-300
1,5775733,403,659,-2595,-1499,-320,-1308,220,300,-300
1,5775748,399,658,-2595,-1484,-323,-1325,220,300,-300
1,5775762,402,659,-2591,-1493,-323,-1335,220,300,-300
1,5775774,402,659,-2591,-1493,-323,-1335,220,300,-300
1,5775785,401,661,-2596,-1487,-330,-1344,220,300,-300
1,5775799,404,664,-2591,-1494,-331,-1350,214,308,-304
1,5775813,404,664,-2591,-1494,-331,-1350,214,308,-304
1,5775827,405,662,-2594,-1500,-326,-1362,214,308,-304
1,5775842,403,664,-2588,-1496,-321,-1364,214,308,-304
1,5775856,403,664,-2588,-1496,-321,-1364,214,308,-304
1,5775869,401,658,-2589,-1495,-327,-1372,214,308,-304
1,5775883,406,662,-2596,-1500,-328,-1387,214,308,-304
1,5775896,406,662,-2596,-1500,-328,-1387,214,308,-304
1,5775909,404,662,-2593,-1492,-327,-1393,214,308,-304
1,5775923,403,661,-2595,-1496,-333,-1389,213,305,-309
1,5775936,403,661,-2595,-1496,-333,-1389,213,305,-309
1,5775949,405,663,-2593,-1497,-325,-1385,213,305,-309
1,5775964,405,660,-2596,-1496,-324,-1383,213,305,-309
1,5775975,405,660,-2596,-1496,-324,-1383,213,305,-309
1,5775989,405,660,-2596,-1496,-324,-1383,213,305,-309
1,5776005,405,667,-2591,-1497,-323,-1375,213,305,-309
1,5776018,407,666,-2593,-1499,-328,-1380,213,305,-309
1,5776031,407,666,-2593,-1499,-328,-1380,213,305,-309
1,5776047,400,667,-2590,-1495,-332,-1387,207,307,-309
1,5776062,398,661,-2591,-1500,-331,-1378,207,307,-309
1,5776075,398,661,-2591,-1500,-331,-1378,207,307,-309
1,5776088,403,658,-2592,-1491,-326,-1388,207,307,-309
1,5776102,412,666,-2589,-1492,-325,-1395,207,307,-309
1,5776112,412,666,-2589,-1492,-325,-1395,207,307,-309
1,5776125,402,665,-2599,-1498,-327,-1392,207,307,-309
1,5776139,408,668,-2598,-1499,-330,-1387,207,307,-309
1,5776152,408,668,-2598,-1499,-330,-1387,207,307,-309
1,5776166,411,669,-2595,-1502,-328,-1376,207,307,-309
1,5776178,406,670,-2589,-1498,-329,-1365,207,311,-303
1,5776191,406,670,-2589,-1498,-329,-1365,207,311,-303
1,5776207,408,672,-2596,-1492,-323,-1343,207,311,-303
1,5776223,406,668,-2589,-1493,-319,-1340,207,311,-303
1,5776237,406,668,-2589,-1493,-319,-1340,207,311,-303
1,5776250,406,667,-2593,-1497,-318,-1333,207,311,-303
1,5776265,407,665,-2599,-1493,-325,-1330,207,311,-303
1,5776279,407,664,-2598,-1496,-329,-1329,207,311,-303
1,5776292,407,664,-2598,-1496,-329,-1329,207,311,-303
1,5776305,407,667,-2590,-1490,-324,-1315,206,306,-298
1,5776318,408,666,-2593,-1493,-328,-1316,206,306,-298
1,5776330,408,666,-2593,-1493,-328,-1316,206,306,-298
1,5776344,408,668,-2592,-1492,-322,-1290,206,306,-298
1,5776357,408,668,-2592,-1492,-322,-1290,206,306,-298
1,5776370,404,665,-2597,-1498,-315,-1288,206,306,-298
1,5776385,405,663,-2597,-1500,-319,-1289,206,306,-298
1,5776395,405,663,-2597,-1500,-319,-1289,206,306,-298
1,5776409,397,659,-2588,-1494,-324,-1303,206,306,-298
1,5776424,401,660,-2585,-1490,-325,-1309,191,317,-295
1,5776438,401,660,-2585,-1490,-325,-1309,191,317,-295
1,5776451,402,659,-2592,-1492,-324,-1324,191,317,-295
1,5776464,403,662,-2589,-1489,-327,-1326,191,317,-295
1,5776478,409,664,-2593,-1491,-328,-1326,191,317,-295
1,5776492,409,664,-2593,-1491,-328,-1326,191,317,-295
1,5776505,405,657,-2597,-1489,-327,-1333,191,317,-295
1,5776517,405,657,-2597,-1489,-327,-1333,191,317,-295
1,5776530,407,662,-2598,-1496,-319,-1337,191,317,-295
1,5776544,401,661,-2589,-1496,-321,-1330,201,311,-307
1,5776558,401,657,-2586,-1495,-323,-1348,201,311,-307
1,5776571,401,657,-2586,-1495,-323,-1348,201,311,-307
1,5776585,404,660,-2588,-1495,-318,-1362,201,311,-307
1,5776599,403,664,-2591,-1495,-320,-1384,201,311,-307
1,5776612,403,664,-2591,-1495,-320,-1384,201,311,-307
1,5776624,404,669,-2596,-1493,-332,-1383,201,311,-307
1,5776637,407,659,-2600,-1488,-335,-1380,201,311,-307
1,5776652,407,659,-2600,-1488,-335,-1380,201,311,-307
1,5776666,407,662,-2598,-1493,-330,-1376,201,311,-307
1,5776677,407,664,-2591,-1495,-321,-1372,201,311,-307
1,5776693,407,664,-2591,-1495,-321,-1372,200,314,-304
1,5776708,409,662,-2591,-1500,-321,-1374,200,314,-304
1,5776723,408,661,-2589,-1494,-321,-1372,200,314,-304
1,5776737,408,661,-2589,-1494,-321,-1372,200,314,-304
1,5776749,403,665,-2595,-1494,-323,-1365,200,314,-304
1,5776762,399,665,-2595,-1496,-328,-1375,200,314,-304
1,5776776,399,665,-2595,-1496,-328,-1375,200,314,-304
1,5776784,401,664,-2588,-1493,-319,-1387,200,314,-304
1,5776794,401,664,-2588,-1493,-319,-1387,200,314,-304
1,5776807,401,663,-2585,-1491,-318,-1390,188,318,-298
1,5776821,401,664,-2591,-1491,-325,-1393,188,318,-298
1,5776833,401,664,-2591,-1491,-325,-1393,188,318,-298
1,5776845,409,662,-2594,-1489,-325,-1397,188,318,-298
1,5776860,407,665,-2591,-1489,-326,-1397,188,318,-298
1,5776873,407,665,-2591,-1489,-326,-1397,188,318,-298
1,5776885,405,666,-2594,-1492,-322,-1396,188,318,-298
1,5776901,408,663,-2594,-1495,-322,-1383,188,318,-298
1,5776914,408,663,-2594,-1495,-322,-1383,188,318,-298
1,5776928,409,668,-2593,-1492,-319,-1379,180,320,-302
1,5776943,407,664,-2589,-1489,-325,-1375,180,320,-302
1,5776958,406,668,-2591,-1494,-318,-1358,180,320,-302
1,5776971,406,668,-2591,-1494,-318,-1358,180,320,-302
1,5776983,405,663,-2594,-1493,-321,-1361,180,320,-302
1,5776997,405,663,-2594,-1493,-321,-1361,180,320,-302
1,5777010,407,666,-2595,-1489,-321,-1361,180,320,-302
1,5777024,404,666,-2596,-1492,-329,-1361,180,320,-302
1,5777036,404,666,-2596,-1492,-329,-1361,180,320,-302
1,5777047,409,660,-2584,-1491,-333,-1360,189,331,-303
1,5777062,406,664,-2592,-1493,-329,-1351,189,331,-303
1,5777076,406,664,-2592,-1493,-329,-1351,189,331,-303
1,5777090,408,664,-2593,-1493,-329,-1349,189,331,-303
1,5777103,408,669,-2592,-1494,-323,-1339,189,331,-303
1,5777117,408,669,-2592,-1494,-323,-1339,189,331,-303
1,5777130,407,673,-2598,-1489,-324,-1327,189,331,-303
1,5777144,405,668,-2598,-1491,-323,-1315,189,331,-303
1,5777160,401,662,-2595,-1496,-316,-1311,183,323,-299
1,5777173,401,662,-2595,-1496,-316,-1311,183,323,-299
1,5777185,404,664,-2584,-1500,-322,-1321,183,323,-299
1,5777201,403,662,-2586,-1491,-327,-1325,183,323,-299
1,5777215,403,662,-2586,-1491,-327,-1325,183,323,-299
1,5777228,406,663,-2592,-1487,-331,-1326,183,323,-299
1,5777242,408,665,-2600,-1500,-329,-1336,183,323,-299
1,5777256,408,665,-2600,-1500,-329,-1336,183,323,-299
1,5777270,411,662,-2596,-1492,-325,-1327,183,323,-299
1,5777285,409,664,-2590,-1494,-320,-1320,183,323,-299
1,5777298,409,664,-2590,-1494,-320,-1320,183,323,-299
1,5777311,408,666,-2588,-1497,-318,-1314,188,324,-302
1,5777325,403,661,-2588,-1500,-322,-1317,188,324,-302
1,5777339,404,661,-2592,-1497,-322,-1325,188,324,-302
1,5777351,404,661,-2592,-1497,-322,-1325,188,324,-302
1,5777364,409,665,-2593,-1495,-326,-1328,188,324,-302
1,5777380,406,661,-2591,-1496,-328,-1335,188,324,-302
1,5777394,406,661,-2591,-1496,-328,-1335,188,324,-302
1,5777409,410,662,-2590,-1494,-326,-1337,188,324,-302
1,5777421,407,659,-2591,-1491,-329,-1338,180,328,-310
1,5777436,407,659,-2591,-1491,-329,-1338,180,328,-310
1,5777451,406,656,-2595,-1491,-326,-1338,180,328,-310
1,5777465,397,662,-2592,-1481,-323,-1340,180,328,-310
1,5777478,403,659,-2596,-1486,-323,-1352,180,328,-310
1,5777492,403,659,-2596,-1486,-323,-1352,180,328,-310
1,5777505,408,666,-2599,-1496,-330,-1356,180,328,-310
1,5777520,403,670,-2592,-1494,-333,-1364,180,328,-310
1,5777534,403,670,-2592,-1494,-333,-1364,180,328,-310
1,5777548,403,672,-2594,-1491,-332,-1364,177,321,-301
1,5777560,406,667,-2592,-1489,-326,-1358,177,321,-301
1,5777573,406,667,-2592,-1489,-326,-1358,177,321,-301
1,5777586,407,666,-2589,-1493,-321,-1353,177,321,-301
1,5777599,405,660,-2595,-1498,-321,-1356,177,321,-301
1,5777613,405,660,-2595,-1498,-321,-1356,177,321,-301
1,5777629,400,658,-2595,-1498,-317,-1353,177,321,-301
1,5777637,400,658,-2595,-1498,-317,-1353,177,321,-301
1,5777655,408,664,-2590,-1490,-319,-1364,177,321,-301
1,5777668,407,662,-2589,-1492,-324,-1364,171,333,-297
1,5777681,404,669,-2593,-1497,-331,-1363,171,333,-297
1,5777694,404,669,-2593,-1497,-331,-1363,171,333,-297
1,5777705,405,664,-2589,-1495,-325,-1363,171,333,-297
1,5777720,409,666,-2598,-1501,-325,-1362,171,333,-297
1,5777734,409,666,-2598,-1501,-325,-1362,171,333,-297
1,5777747,407,664,-2596,-1488,-323,-1364,171,333,-297
1,5777761,399,663,-2594,-1495,-318,-1360,171,333,-297
1,5777773,399,663,-2594,-1495,-318,-1360,171,333,-297
1,5777786,406,659,-2591,-1497,-321,-1366,171,333,-297
1,5777800,410,661,-2592,-1489,-319,-1374,169,331,-297
1,5777814,410,661,-2592,-1489,-319,-1374,169,331,-297
1,5777827,408,661,-2591,-1496,-324,-1375,169,331,-297
1,5777842,404,666,-2596,-1504,-323,-1370,169,331,-297
1,5777856,404,666,-2596,-1504,-323,-1370,169,331,-297
1,5777868,408,664,-2591,-1499,-321,-1367,169,331,-297
1,5777882,408,663,-2586,-1497,-326,-1352,169,331,-297
1,5777898,408,663,-2586,-1497,-326,-1352,169,331,-297
1,5777908,405,667,-2593,-1491,-323,-1361,169,331,-297
1,5777923,406,666,-2587,-1492,-325,-1360,169,337,-301
1,5777938,406,666,-2587,-1492,-325,-1360,169,337,-301
1,5777951,411,664,-2589,-1506,-327,-1357,169,337,-301
1,5777964,407,667,-2596,-1495,-327,-1365,169,337,-301
1,5777977,407,667,-2596,-1495,-327,-1365,169,337,-301
1,5777990,410,665,-2594,-1492,-328,-1359,169,337,-301
1,5778004,409,666,-2589,-1497,-324,-1352,169,337,-301
1,5778018,409,666,-2589,-1497,-324,-1352,169,337,-301
1,5778032,410,664,-2592,-1490,-325,-1356,169,337,-301
1,5778045,407,662,-2589,-1495,-327,-1351,178,338,-304
1,5778060,401,663,-2593,-1491,-324,-1362,178,338,-304
1,5778075,401,663,-2593,-1491,-324,-1362,178,338,-304
1,5778091,411,666,-2590,-1488,-321,-1358,178,338,-304
1,5778099,411,666,-2583,-1495,-323,-1353,178,338,-304
1,5778113,411,666,-2583,-1495,-323,-1353,178,338,-304
1,5778124,412,672,-2595,-1497,-333,-1347,178,338,-304
1,5778138,404,668,-2596,-1496,-335,-1335,178,338,-304
1,5778152,404,668,-2596,-1496,-335,-1335,178,338,-304
1,5778165,404,661,-2591,-1499,-322,-1337,164,340,-302
1,5778180,407,658,-2591,-1491,-316,-1344,164,340,-302
1,5778194,407,658,-2591,-1491,-316,-1344,164,340,-302
1,5778208,407,664,-2579,-1497,-325,-1353,164,340,-302
1,5778225,405,664,-2594,-1492,-325,-1347,164,340,-302
1,5778237,405,664,-2594,-1492,-325,-1347,164,340,-302
1,5778250,411,668,-2594,-1493,-332,-1348,164,340,-302
1,5778264,407,665,-2599,-1501,-330,-1342,164,340,-302
1,5778278,407,665,-2599,-1501,-330,-1342,164,340,-302
1,5778292,404,669,-2588,-1494,-323,-1337,164,340,-302
1,5778307,406,668,-2588,-1489,-322,-1335,161,345,-303
1,5778320,410,666,-2591,-1498,-320,-1339,161,345,-303
1,5778335,410,666,-2591,-1498,-320,-1339,161,345,-303
1,5778347,408,666,-2592,-1494,-326,-1338,161,345,-303
1,5778360,405,666,-2591,-1491,-328,-1335,161,345,-303
1,5778373,405,666,-2591,-1491,-328,-1335,161,345,-303
1,5778387,405,665,-2597,-1493,-330,-1337,161,345,-303
1,5778401,406,660,-2590,-1493,-328,-1335,161,345,-303
1,5778414,406,660,-2590,-1493,-328,-1335,161,345,-303
1,5778428,407,663,-2591,-1486,-322,-1336,161,335,-305
1,5778443,407,665,-2591,-1493,-321,-1350,161,335,-305
1,5778458,410,668,-2596,-1487,-327,-1353,161,335,-305
1,5778471,410,668,-2596,-1487,-327,-1353,161,335,-305
1,5778485,410,667,-2591,-1494,-333,-1362,161,335,-305
1,5778499,408,671,-2593,-1499,-331,-1357,161,335,-305
1,5778512,408,671,-2593,-1499,-331,-1357,161,335,-305
1,5778527,408,662,-2594,-1502,-325,-1352,161,335,-305
1,5778540,410,665,-2589,-1493,-321,-1349,153,347,-301
1,5778553,410,665,-2589,-1493,-321,-1349,153,347,-301
1,5778570,410,665,-2589,-1493,-321,-1349,153,347,-301
1,5778585,410,665,-2589,-1493,-321,-1349,153,347,-301
1,5778598,405,659,-2590,-1494,-330,-1353,153,347,-301
1,5778612,405,659,-2590,-1494,-330,-1353,153,347,-301
1,5778620,406,662,-2588,-1495,-332,-1361,153,347,-301
1,5778634,406,662,-2588,-1495,-332,-1361,153,347,-301
1,5778647,408,665,-2593,-1491,-325,-1368,153,347,-301
1,5778657,408,665,-2593,-1491,-325,-1368,153,347,-301
1,5778669,404,662,-2591,-1494,-322,-1376,162,352,-300
1,5778683,405,665,-2593,-1494,-323,-1374,162,352,-300
1,5778698,405,665,-2593,-1494,-323,-1374,162,352,-300
1,5778710,407,665,-2589,-1494,-322,-1362,162,352,-300
1,5778724,408,669,-2596,-1497,-315,-1371,162,352,-300
1,5778739,408,668,-2591,-1493,-317,-1371,162,352,-300
1,5778752,408,668,-2591,-1493,-317,-1371,162,352,-300
1,5778765,410,664,-2590,-1498,-320,-1361,162,352,-300
1,5778779,407,667,-2593,-1495,-322,-1358,162,352,-300
1,5778789,407,667,-2593,-1495,-322,-1358,160,352,-298
1,5778803,406,662,-2588,-1497,-322,-1349,160,352,-298
1,5778817,406,662,-2588,-1497,-322,-1349,160,352,-298
1,5778831,406,662,-2585,-1495,-322,-1354,160,352,-298
1,5778846,408,668,-2594,-1490,-322,-1361,160,352,-298
1,5778862,408,665,-2588,-1491,-330,-1357,160,352,-298
1,5778877,408,665,-2588,-1491,-330,-1357,160,352,-298
1,5778892,408,669,-2593,-1492,-329,-1354,160,352,-298
1,5778906,408,667,-2593,-1497,-328,-1347,160,352,-298
1,5778920,408,664,-2588,-1497,-329,-1336,167,353,-303
1,5778933,408,664,-2588,-1497,-329,-1336,167,353,-303
1,5778945,405,664,-2593,-1495,-327,-1336,167,353,-303
1,5778960,408,663,-2592,-1498,-326,-1333,167,353,-303
1,5778974,408,663,-2592,-1498,-326,-1333,167,353,-303
1,5778988,405,664,-2593,-1493,-324,-1337,167,353,-303
1,5779002,408,668,-2590,-1492,-326,-1337,167,353,-303
1,5779015,408,668,-2590,-1492,-326,-1337,167,353,-303
1,5779027,407,664,-2592,-1496,-325,-1335,167,353,-303
1,5779040,407,669,-2583,-1498,-327,-1337,158,352,-298
1,5779054,407,669,-2583,-1498,-327,-1337,158,352,-298
1,5779064,404,671,-2588,-1496,-325,-1333,158,352,-298
1,5779080,404,668,-2590,-1495,-320,-1335,158,352,-298
1,5779093,404,668,-2590,-1495,-320,-1335,158,352,-298
1,5779106,402,664,-2589,-1498,-318,-1340,158,352,-298
1,5779122,406,660,-2591,-1494,-315,-1336,158,352,-298
1,5779136,406,660,-2591,-1494,-315,-1336,158,352,-298
1,5779149,409,662,-2589,-1497,-325,-1341,158,352,-298
1,5779164,407,666,-2590,-1489,-328,-1346,145,363,-305
1,5779177,407,666,-2590,-1489,-328,-1346,145,363,-305
1,5779190,403,666,-2588,-1493,-330,-1347,145,363,-305
1,5779204,406,664,-2583,-1491,-325,-1345,145,363,-305
1,5779217,406,664,-2583,-1491,-325,-1345,145,363,-305
1,5779231,410,666,-2593,-1496,-323,-1355,145,363,-305
1,5779244,409,666,-2596,-1500,-322,-1347,145,363,-305
1,5779258,409,666,-2596,-1500,-322,-1347,145,363,-305
1,5779273,409,665,-2591,-1494,-327,-1355,145,363,-305
1,5779284,408,669,-2585,-1498,-329,-1357,145,363,-303
1,5779299,407,665,-2592,-1489,-322,-1358,145,363,-303
1,5779314,407,665,-2592,-1489,-322,-1358,145,363,-303
1,5779331,405,662,-2594,-1483,-322,-1355,145,363,-303
1,5779346,404,659,-2596,-1493,-322,-1355,145,363,-303
1,5779361,406,664,-2590,-1494,-319,-1363,145,363,-303
1,5779375,406,664,-2590,-1494,-319,-1363,145,363,-303
1,5779388,407,664,-2589,-1489,-327,-1374,145,363,-303
1,5779401,405,667,-2589,-1493,-325,-1371,145,363,-303
1,5779414,405,667,-2589,-1493,-325,-1371,145,363,-303
1,5779428,406,668,-2588,-1492,-326,-1373,149,361,-305
1,5779441,412,665,-2590,-1495,-329,-1370,149,361,-305
1,5779454,412,665,-2590,-1495,-329,-1370,149,361,-305
1,5779469,410,670,-2588,-1486,-326,-1362,149,361,-305
1,5779483,410,667,-2587,-1499,-322,-1355,149,361,-305
1,5779501,407,664,-2590,-1497,-325,-1352,149,361,-305
1,5779516,407,664,-2590,-1497,-325,-1352,149,361,-305
1,5779531,405,664,-2594,-1491,-326,-1361,149,361,-305
1,5779547,409,662,-2589,-1490,-323,-1366,140,360,-304
1,5779561,408,665,-2593,-1497,-330,-1368,140,360,-304
1,5779574,408,665,-2593,-1497,-330,-1368,140,360,-304
1,5779588,409,669,-2593,-1490,-321,-1365,140,360,-304
1,5779599,414,669,-2595,-1501,-330,-1360,140,360,-304
1,5779613,414,669,-2595,-1501,-330,-1360,140,360,-304
1,5779627,409,669,-2593,-1499,-330,-1360,140,360,-304
1,5779640,409,671,-2591,-1490,-331,-1356,140,360,-304
1,5779654,409,671,-2591,-1490,-331,-1356,140,360,-304
1,5779668,411,668,-2588,-1496,-325,-1352,144,376,-298
1,5779680,405,669,-2593,-1494,-321,-1340,144,376,-298
1,5779694,405,669,-2593,-1494,-321,-1340,144,376,-298
1,5779709,404,664,-2593,-1498,-320,-1335,144,376,-298
1,5779725,406,662,-2593,-1499,-326,-1338,144,376,-298
1,5779740,410,660,-2599,-1495,-323,-1349,144,376,-298
1,5779755,410,660,-2599,-1495,-323,-1349,144,376,-298
1,5779767,405,669,-2593,-1490,-328,-1361,144,376,-298
1,5779782,408,670,-2584,-1496,-339,-1356,145,373,-305
1,5779798,408,670,-2584,-1496,-339,-1356,145,373,-305
1,5779811,407,674,-2593,-1493,-328,-1342,145,373,-305
1,5779824,411,669,-2594,-1490,-326,-1333,145,373,-305
1,5779837,411,669,-2594,-1490,-326,-1333,145,373,-305
1,5779852,411,664,-2590,-1495,-317,-1336,145,373,-305
1,5779867,403,663,-2590,-1497,-322,-1330,145,373,-305
1,5779880,409,661,-2590,-1495,-326,-1340,145,373,-305
1,5779895,409,661,-2590,-1495,-326,-1340,145,373,-305
1,5779908,408,664,-2593,-1499,-328,-1346,145,373,-305
1,5779921,412,665,-2587,-1495,-326,-1340,145,369,-301
1,5779936,412,665,-2587,-1495,-326,-1340,145,369,-301
1,5779951,407,666,-2593,-1493,-321,-1340,145,369,-301
1,5779964,411,663,-2595,-1484,-309,-1335,145,369,-301
1,5779979,411,663,-2595,-1484,-309,-1335,145,369,-301
1,5779994,408,665,-2595,-1497,-320,-1341,145,369,-301
1,5780008,408,668,-2594,-1499,-328,-1347,145,369,-301
1,5780025,405,668,-2595,-1502,-326,-1345,145,369,-301
1,5780037,405,668,-2595,-1502,-326,-1345,145,369,-301
1,5780049,407,663,-2591,-1492,-322,-1347,140,372,-308
1,5780063,409,665,-2594,-1492,-325,-1354,140,372,-308
1,5780076,409,665,-2594,-1492,-325,-1354,140,372,-308
1,5780089,409,667,-2594,-1501,-327,-1361,140,372,-308
1,5780104,409,666,-2591,-1497,-322,-1366,140,372,-308
1,5780116,409,666,-2591,-1497,-322,-1366,140,372,-308
1,5780128,414,665,-2593,-1495,-325,-1360,140,372,-308
1,5780136,414,665,-2593,-1495,-325,-1360,140,372,-308
1,5780146,410,667,-2595,-1489,-329,-1363,140,372,-308
1,5780156,410,667,-2595,-1489,-329,-1363,140,372,-308
1,5780170,408,664,-2591,-1496,-323,-1364,141,387,-305
1,5780185,406,665,-2584,-1494,-325,-1354,141,387,-305
1,5780199,406,665,-2584,-1494,-325,-1354,141,387,-305
1,5780213,407,667,-2587,-1493,-317,-1360,141,387,-305
1,5780228,407,664,-2598,-1501,-321,-1364,141,387,-305
1,5780242,408,666,-2590,-1493,-320,-1368,141,387,-305
1,5780255,408,666,-2590,-1493,-320,-1368,141,387,-305
1,5780268,412,666,-2595,-1501,-323,-1366,141,387,-305
1,5780282,410,665,-2589,-1490,-329,-1363,143,387,-313
1,5780295,410,665,-2589,-1490,-329,-1363,143,387,-313
1,5780308,406,666,-2593,-1497,-329,-1357,143,387,-313
1,5780323,412,666,-2592,-1493,-327,-1355,143,387,-313
1,5780337,412,666,-2592,-1493,-327,-1355,143,387,-313
1,5780350,409,665,-2592,-1498,-324,-1353,143,387,-313
1,5780364,411,668,-2592,-1499,-322,-1353,143,387,-313
1,5780379,411,668,-2592,-1499,-322,-1353,143,387,-313
1,5780391,411,667,-2595,-1495,-326,-1346,143,387,-313
1,5780407,405,665,-2591,-1488,-321,-1348,141,383,-305
1,5780421,405,662,-2586,-1494,-322,-1359,141,383,-305
1,5780436,405,662,-2586,-1494,-322,-1359,141,383,-305
1,5780452,409,667,-2593,-1496,-326,-1374,141,383,-305
1,5780467,411,666,-2594,-1502,-331,-1376,141,383,-305
1,5780481,408,666,-2598,-1497,-327,-1363,141,383,-305
1,5780495,408,666,-2598,-1497,-327,-1363,141,383,-305
1,5780509,413,667,-2592,-1497,-328,-1361,141,383,-305
1,5780521,411,669,-2601,-1491,-324,-1357,141,383,-305
1,5780534,411,669,-2601,-1491,-324,-1357,141,383,-305
1,5780547,408,668,-2591,-1500,-325,-1351,134,386,-306
1,5780561,407,663,-2587,-1498,-320,-1344,134,386,-306
1,5780575,407,663,-2587,-1498,-320,-1344,134,386,-306
1,5780588,408,667,-2599,-1495,-320,-1347,134,386,-306
1,5780600,403,663,-2594,-1497,-332,-1353,134,386,-306
1,5780615,403,663,-2594,-1497,-332,-1353,134,386,-306
1,5780630,407,665,-2592,-1494,-321,-1352,134,386,-306
1,5780640,416,669,-2594,-1494,-322,-1361,134,386,-306
1,5780655,416,669,-2594,-1494,-322,-1361,134,386,-306
1,5780670,410,668,-2587,-1497,-327,-1366,135,397,-309
1,5780684,407,663,-2588,-1495,-324,-1354,135,397,-309
1,5780699,407,663,-2588,-1495,-324,-1354,135,397,-309
1,5780713,410,672,-2589,-1491,-329,-1351,135,397,-309
1,5780727,408,672,-2597,-1493,-323,-1342,135,397,-309
1,5780740,411,663,-2587,-1502,-315,-1341,135,397,-309
1,5780752,411,663,-2587,-1502,-315,-1341,135,397,-309
1,5780766,403,659,-2600,-1492,-325,-1348,135,397,-309
1,5780780,407,662,-2590,-1504,-331,-1355,138,398,-300
1,5780793,407,662,-2590,-1504,-331,-1355,138,398,-300
1,5780806,409,670,-2588,-1498,-320,-1365,138,398,-300
1,5780818,409,670,-2588,-1498,-320,-1365,138,398,-300
1,5780832,410,667,-2594,-1496,-330,-1370,138,398,-300
1,5780845,409,664,-2596,-1491,-325,-1353,138,398,-300
1,5780859,413,666,-2600,-1499,-326,-1357,138,398,-300
1,5780875,413,666,-2600,-1499,-326,-1357,138,398,-300
1,5780890,411,669,-2595,-1493,-330,-1349,138,398,-300
1,5780904,411,665,-2592,-1486,-324,-1342,133,397,-301
1,5780918,411,665,-2592,-1486,-324,-1342,133,397,-301
1,5780932,406,669,-2585,-1496,-319,-1341,133,397,-301
1,5780943,411,669,-2590,-1491,-321,-1341,133,397,-301
1,5780958,411,669,-2590,-1491,-321,-1341,133,397,-301
1,5780971,404,664,-2595,-1492,-327,-1351,133,397,-301
1,5780984,407,665,-2595,-1498,-326,-1347,133,397,-301
1,5780999,407,665,-2595,-1498,-326,-1347,133,397,-301
1,5781012,407,667,-2595,-1498,-332,-1346,133,397,-301
1,5781025,409,662,-2591,-1490,-326,-1352,133,397,-301
1,5781040,408,665,-2589,-1499,-319,-1357,139,399,-311
1,5781052,408,665,-2589,-1499,-319,-1357,139,399,-311
1,5781066,408,669,-2587,-1495,-322,-1354,139,399,-311
1,5781080,409,667,-2585,-1499,-322,-1356,139,399,-311
1,5781094,409,667,-2585,-1499,-322,-1356,139,399,-311
1,5781108,410,667,-2588,-1496,-318,-1348,139,399,-311
1,5781124,409,666,-2593,-1492,-320,-1350,139,399,-311
1,5781139,409,666,-2593,-1492,-320,-1350,139,399,-311
1,5781153,409,667,-2593,-1494,-331,-1351,139,399,-311
1,5781166,409,669,-2592,-1491,-331,-1357,130,402,-300
1,5781180,411,662,-2593,-1494,-321,-1353,130,402,-300
1,5781193,411,662,-2593,-1494,-321,-1353,130,402,-300
1,5781204,404,661,-2595,-1495,-327,-1363,130,402,-300
1,5781219,404,661,-2595,-1495,-327,-1363,130,402,-300
1,5781232,410,664,-2590,-1494,-325,-1365,130,402,-300
1,5781246,410,667,-2591,-1496,-322,-1361,130,402,-300
1,5781260,409,667,-2592,-1489,-324,-1364,130,402,-300
1,5781271,409,667,-2592,-1489,-324,-1364,130,402,-300
1,5781285,412,666,-2588,-1491,-327,-1360,133,409,-305
1,5781300,411,670,-2590,-1492,-328,-1354,133,409,-305
1,5781312,411,670,-2590,-1492,-328,-1354,133,409,-305
1,5781327,408,667,-2590,-1492,-324,-1353,133,409,-305
1,5781343,412,668,-2593,-1495,-321,-1349,133,409,-305
1,5781357,412,668,-2593,-1495,-321,-1349,133,409,-305
1,5781372,406,669,-2595,-1497,-325,-1350,133,409,-305
1,5781387,408,663,-2587,-1493,-327,-1345,133,409,-305
1,5781400,406,668,-2596,-1501,-333,-1354,133,407,-309
1,5781411,406,668,-2596,-1501,-333,-1354,133,407,-309
1,5781426,410,665,-2590,-1499,-324,-1356,133,407,-309
1,5781438,410,665,-2590,-1499,-324,-1356,133,407,-309
1,5781452,405,665,-2595,-1501,-322,-1360,133,407,-309
1,5781467,408,665,-2594,-1494,-332,-1351,133,407,-309
1,5781483,409,665,-2596,-1487,-321,-1357,133,407,-309
1,5781496,409,665,-2596,-1487,-321,-1357,133,407,-309
1,5781512,407,668,-2586,-1495,-325,-1357,133,407,-309
1,5781526,409,666,-2592,-1495,-324,-1368,133,407,-309
1,5781539,415,668,-2588,-1496,-322,-1366,133,413,-305
1,5781554,415,668,-2588,-1496,-322,-1366,133,413,-305
1,5781568,411,670,-2588,-1496,-317,-1351,133,413,-305
1,5781583,415,666,-2594,-1498,-325,-1358,133,413,-305
1,5781598,415,666,-2594,-1498,-325,-1358,133,413,-305
1,5781609,408,668,-2597,-1495,-325,-1352,133,413,-305
1,5781623,410,665,-2594,-1491,-321,-1351,133,413,-305
1,5781637,410,665,-2594,-1491,-321,-1351,133,413,-305
1,5781650,410,666,-2591,-1488,-320,-1353,133,413,-305
1,5781664,405,664,-2591,-1488,-320,-1345,136,414,-304
1,5781678,405,664,-2591,-1488,-320,-1345,136,414,-304
1,5781691,406,667,-2590,-1496,-325,-1352,136,414,-304
1,5781704,408,667,-2588,-1487,-322,-1358,136,414,-304
1,5781718,408,667,-2588,-1487,-322,-1358,136,414,-304
1,5781731,411,670,-2596,-1497,-322,-1362,136,414,-304
1,5781746,408,668,-2592,-1494,-329,-1358,136,414,-304
1,5781758,408,668,-2592,-1494,-329,-1358,136,414,-304
1,5781769,410,667,-2593,-1498,-329,-1356,136,414,-304
1,5781782,410,669,-2586,-1493,-327,-1351,136,414,-314
1,5781796,410,669,-2586,-1493,-327,-1351,136,414,-314
1,5781812,410,665,-2594,-1496,-327,-1360,136,414,-314
1,5781828,411,666,-2588,-1504,-323,-1354,136,414,-314
1,5781843,407,669,-2594,-1494,-325,-1354,136,414,-314
1,5781858,407,669,-2594,-1494,-325,-1354,136,414,-314
1,5781871,409,671,-2592,-1491,-322,-1354,136,414,-314
1,5781884,410,670,-2593,-1497,-322,-1356,136,414,-314
1,5781900,408,664,-2593,-1490,-325,-1353,136,414,-314
1,5781911,408,664,-2593,-1490,-325,-1353,128,424,-306
1,5781924,411,668,-2590,-1491,-326,-1362,128,424,-306
1,5781939,411,668,-2590,-1491,-326,-1362,128,424,-306
1,5781953,409,665,-2591,-1492,-328,-1369,128,424,-306
1,5781966,411,667,-2591,-1496,-326,-1361,128,424,-306
1,5781981,409,670,-2596,-1501,-326,-1357,128,424,-306
1,5781991,409,670,-2596,-1501,-326,-1357,128,424,-306
1,5782005,410,669,-2596,-1498,-325,-1354,128,424,-306
1,5782020,410,669,-2596,-1498,-325,-1354,128,424,-306
1,5782033,408,668,-2589,-1487,-323,-1354,134,424,-308
1,5782047,411,665,-2587,-1490,-323,-1352,134,424,-308
1,5782063,405,667,-2587,-1497,-323,-1352,134,424,-308
1,5782077,405,667,-2587,-1497,-323,-1352,134,424,-308
1,5782089,408,667,-2584,-1491,-324,-1353,134,424,-308
1,5782105,405,668,-2595,-1489,-329,-1353,134,424,-308
1,5782120,409,666,-2595,-1495,-324,-1354,134,424,-308
1,5782134,409,666,-2595,-1495,-324,-1354,134,424,-308
1,5782147,412,667,-2593,-1497,-334,-1354,134,424,-308
1,5782161,412,666,-2589,-1495,-328,-1354,134,432,-304
1,5782174,412,666,-2589,-1495,-328,-1354,134,432,-304
1,5782188,408,664,-2593,-1496,-328,-1353,134,432,-304
1,5782202,409,665,-2592,-1488,-326,-1356,134,432,-304
1,5782214,409,665,-2592,-1488,-326,-1356,134,432,-304
1,5782228,410,668,-2589,-1484,-326,-1360,134,432,-304
1,5782243,409,666,-2586,-1490,-323,-1358,134,432,-304
1,5782256,409,666,-2586,-1490,-323,-1358,134,432,-304
1,5782270,409,671,-2587,-1498,-323,-1355,134,432,-304
1,5782284,411,669,-2587,-1493,-327,-1361,130,436,-310
1,5782297,411,669,-2587,-1493,-327,-1361,130,436,-310
1,5782308,410,668,-2586,-1492,-326,-1363,130,436,-310
1,5782324,411,669,-2594,-1499,-319,-1353,130,436,-310
1,5782337,411,669,-2594,-1499,-319,-1353,130,436,-310
1,5782351,411,668,-2594,-1499,-324,-1358,130,436,-310
1,5782366,412,661,-2588,-1490,-325,-1354,130,436,-310
1,5782381,411,670,-2587,-1494,-326,-1359,130,436,-310
1,5782397,411,670,-2587,-1494,-326,-1359,130,436,-310
1,5782412,407,670,-2590,-1498,-330,-1350,138,426,-306
1,5782425,411,671,-2587,-1495,-326,-1354,138,426,-306
1,5782438,411,671,-2587,-1495,-326,-1354,138,426,-306
1,5782453,409,669,-2588,-1494,-323,-1358,138,426,-306
1,5782461,410,670,-2591,-1492,-324,-1357,138,426,-306
1,5782474,410,670,-2591,-1492,-324,-1357,138,426,-306
1,5782489,408,671,-2590,-1493,-325,-1354,138,426,-306
1,5782502,414,670,-2588,-1495,-324,-1352,138,426,-306
1,5782516,414,670,-2588,-1495,-324,-1352,138,426,-306
1,5782528,412,672,-2587,-1491,-323,-1351,133,443,-301
1,5782541,407,667,-2587,-1486,-320,-1349,133,443,-301
1,5782554,407,667,-2587,-1486,-320,-1349,133,443,-301
1,5782568,405,667,-2594,-1490,-323,-1348,133,443,-301
1,5782584,408,668,-2589,-1495,-318,-1355,133,443,-301
1,5782598,408,668,-2589,-1495,-318,-1355,133,443,-301
1,5782615,412,665,-2587,-1501,-319,-1361,133,443,-301
1,5782630,411,672,-2586,-1500,-324,-1364,133,443,-301
1,5782644,408,671,-2590,-1492,-329,-1365,133,443,-301
1,5782658,408,671,-2590,-1492,-329,-1365,133,443,-301
1,5782666,414,671,-2587,-1495,-328,-1357,138,444,-300
1,5782676,414,671,-2587,-1495,-328,-1357,138,444,-300
1,5782689,413,671,-2593,-1501,-325,-1354,138,444,-300
1,5782704,410,669,-2593,-1498,-326,-1353,138,444,-300
1,5782718,410,669,-2593,-1498,-326,-1353,138,444,-300
1,5782729,406,668,-2593,-1494,-325,-1358,138,444,-300
1,5782743,409,663,-2592,-1490,-327,-1358,138,444,-300
1,5782757,409,663,-2592,-1490,-327,-1358,138,444,-300
1,5782770,406,662,-2593,-1498,-325,-1370,138,444,-300
1,5782785,406,668,-2591,-1493,-328,-1374,133,449,-307
1,5782800,409,668,-2583,-1495,-326,-1370,133,449,-307
1,5782813,409,668,-2583,-1495,-326,-1370,133,449,-307
1,5782827,410,674,-2599,-1491,-326,-1366,133,449,-307
1,5782842,410,672,-2593,-1498,-328,-1367,133,449,-307
1,5782857,410,672,-2593,-1498,-328,-1367,133,449,-307
1,5782873,405,670,-2590,-1493,-323,-1365,133,449,-307
1,5782884,413,671,-2590,-1488,-329,-1359,133,449,-307
1,5782896,413,671,-2590,-1488,-329,-1359,133,449,-307
1,5782910,408,669,-2588,-1491,-327,-1347,144,452,-302
1,5782923,405,665,-2587,-1493,-322,-1352,144,452,-302
1,5782937,405,665,-2587,-1493,-322,-1352,144,452,-302
1,5782949,409,667,-2589,-1496,-324,-1354,144,452,-302
1,5782963,409,671,-2594,-1494,-320,-1350,144,452,-302
1,5782977,409,671,-2594,-1494,-320,-1350,144,452,-302
1,5782990,408,667,-2594,-1494,-315,-1346,144,452,-302
1,5783004,409,671,-2591,-1492,-324,-1350,144,452,-302
1,5783019,409,671,-2591,-1492,-324,-1350,144,452,-302
1,5783034,412,673,-2589,-1495,-318,-1349,133,453,-305
1,5783048,410,666,-2588,-1496,-323,-1349,133,453,-305
1,5783061,413,667,-2594,-1495,-325,-1349,133,453,-305
1,5783075,413,667,-2594,-1495,-325,-1349,133,453,-305
1,5783091,410,668,-2592,-1494,-330,-1346,133,453,-305
1,5783104,411,665,-2591,-1486,-320,-1341,133,453,-305
1,5783117,411,665,-2591,-1486,-320,-1341,133,453,-305
1,5783133,412,670,-2592,-1493,-322,-1340,133,453,-305
1,5783146,408,667,-2592,-1496,-326,-1341,133,453,-305
1,5783159,408,667,-2592,-1496,-326,-1341,133,453,-305
1,5783174,409,668,-2590,-1488,-325,-1342,133,463,-309
1,5783185,410,668,-2587,-1491,-321,-1344,133,463,-309
1,5783199,410,668,-2587,-1491,-321,-1344,133,463,-309
1,5783214,411,671,-2598,-1494,-327,-1342,133,463,-309
1,5783227,405,670,-2592,-1498,-323,-1341,133,463,-309
1,5783241,405,670,-2591,-1497,-320,-1344,133,463,-309
1,5783255,405,670,-2591,-1497,-320,-1344,133,463,-309
1,5783269,405,665,-2595,-1491,-324,-1350,133,463,-309
1,5783281,409,663,-2590,-1497,-322,-1359,142,460,-304
1,5783296,409,663,-2590,-1497,-322,-1359,142,460,-304
1,5783310,407,669,-2586,-1505,-327,-1364,142,460,-304
1,5783325,409,668,-2589,-1496,-335,-1367,142,460,-304
1,5783341,407,666,-2592,-1501,-322,-1371,142,460,-304
1,5783352,407,666,-2592,-1501,-322,-1371,142,460,-304
1,5783367,412,668,-2589,-1491,-328,-1367,142,460,-304
1,5783383,406,670,-2587,-1488,-320,-1372,142,460,-304
1,5783396,406,670,-2587,-1488,-320,-1372,142,460,-304
1,5783409,410,670,-2585,-1488,-315,-1368,138,458,-302
1,5783424,413,673,-2588,-1495,-321,-1364,138,458,-302
1,5783439,413,673,-2588,-1495,-321,-1364,138,458,-302
1,5783450,413,671,-2593,-1493,-324,-1373,138,458,-302
1,5783463,409,666,-2590,-1493,-335,-1380,138,458,-302
1,5783477,409,666,-2590,-1493,-335,-1380,138,458,-302
1,5783489,410,666,-2590,-1490,-323,-1377,138,458,-302
1,5783504,414,668,-2596,-1494,-326,-1382,138,458,-302
1,5783520,414,668,-2596,-1494,-326,-1382,138,458,-302
1,5783532,409,672,-2594,-1492,-323,-1380,147,469,-301
1,5783546,408,672,-2585,-1499,-328,-1381,147,469,-301
1,5783562,411,673,-2589,-1495,-324,-1378,147,469,-301
1,5783576,411,673,-2589,-1495,-324,-1378,147,469,-301
1,5783589,409,673,-2592,-1492,-331,-1370,147,469,-301
1,5783603,405,671,-2598,-1493,-324,-1362,147,469,-301
1,5783618,405,671,-2598,-1493,-324,-1362,147,469,-301
1,5783632,411,670,-2594,-1491,-322,-1347,147,469,-301
1,5783646,407,671,-2595,-1493,-322,-1355,141,469,-305
1,5783659,407,671,-2595,-1493,-322,-1355,141,469,-305
1,5783673,410,669,-2590,-1495,-325,-1347,141,469,-305
1,5783686,406,670,-2589,-1498,-326,-1353,141,469,-305
1,5783699,406,670,-2589,-1498,-326,-1353,141,469,-305
1,5783712,415,673,-2590,-1496,-332,-1351,141,469,-305
1,5783725,413,675,-2592,-1482,-325,-1341,141,469,-305
1,5783739,413,675,-2592,-1482,-325,-1341,141,469,-305
1,5783754,408,673,-2592,-1488,-329,-1342,141,469,-305
1,5783770,408,673,-2592,-1488,-329,-1342,141,469,-305
1,5783784,411,671,-2594,-1492,-328,-1325,138,468,-310
1,5783797,411,671,-2594,-1492,-328,-1325,138,468,-310
1,5783808,414,667,-2594,-1491,-327,-1332,138,468,-310
1,5783821,408,665,-2589,-1499,-330,-1319,138,468,-310
1,5783836,408,665,-2589,-1499,-330,-1319,138,468,-310
1,5783849,409,668,-2592,-1490,-331,-1324,138,468,-310
1,5783863,409,670,-2592,-1496,-326,-1329,138,468,-310
1,5783876,409,670,-2592,-1496,-326,-1329,138,468,-310
1,5783888,411,671,-2596,-1489,-323,-1332,138,468,-310
1,5783901,412,671,-2585,-1496,-321,-1337,144,480,-302
1,5783915,412,671,-2585,-1496,-321,-1337,144,480,-302
1,5783928,411,673,-2589,-1502,-324,-1321,144,480,-302
1,5783943,411,669,-2592,-1497,-325,-1327,144,480,-302
1,5783954,411,669,-2592,-1497,-325,-1327,144,480,-302
1,5783967,405,670,-2588,-1498,-320,-1324,144,480,-302
1,5783981,407,667,-2589,-1491,-327,-1326,144,480,-302
1,5783993,407,667,-2589,-1491,-327,-1326,144,480,-302
1,5784007,407,664,-2587,-1500,-321,-1336,144,480,-302
1,5784023,410,666,-2588,-1497,-314,-1339,142,484,-304
1,5784034,410,666,-2588,-1497,-314,-1339,142,484,-304
1,5784049,408,669,-2585,-1486,-326,-1342,142,484,-304
1,5784060,409,664,-2588,-1492,-332,-1344,142,484,-304
1,5784074,409,664,-2588,-1492,-332,-1344,142,484,-304
1,5784088,408,664,-2590,-1494,-325,-1350,142,484,-304
1,5784102,410,664,-2593,-1495,-321,-1369,142,484,-304
1,5784117,410,664,-2593,-1495,-321,-1369,142,484,-304
1,5784130,410,670,-2594,-1496,-322,-1376,142,484,-304
1,5784144,410,675,-2588,-1498,-326,-1387,154,482,-302
1,5784160,410,675,-2588,-1498,-326,-1387,154,482,-302
1,5784171,411,673,-2586,-1493,-329,-1384,154,482,-302
1,5784184,412,674,-2591,-1489,-328,-1381,154,482,-302
1,5784198,412,674,-2591,-1489,-328,-1381,154,482,-302
1,5784211,410,668,-2596,-1493,-322,-1374,154,482,-302
1,5784225,411,666,-2591,-1491,-323,-1378,154,482,-302
1,5784241,409,665,-2592,-1495,-319,-1375,154,482,-302
1,5784252,409,665,-2592,-1495,-319,-1375,154,482,-302
1,5784267,410,668,-2588,-1503,-322,-1370,154,482,-302
1,5784281,406,671,-2585,-1489,-323,-1382,148,478,-306
1,5784296,406,671,-2585,-1489,-323,-1382,148,478,-306
1,5784308,411,670,-2594,-1485,-330,-1379,148,478,-306
1,5784323,408,671,-2590,-1495,-325,-1383,148,478,-306
1,5784337,408,671,-2590,-1495,-325,-1383,148,478,-306
1,5784350,409,675,-2589,-1491,-328,-1384,148,478,-306
1,5784364,412,667,-2594,-1489,-334,-1380,148,478,-306
1,5784373,412,667,-2594,-1489,-334,-1380,148,478,-306
1,5784386,408,666,-2592,-1491,-329,-1375,148,478,-306
1,5784399,408,666,-2592,-1491,-329,-1375,148,478,-306
1,5784413,409,670,-2585,-1493,-335,-1368,145,487,-303
1,5784422,411,670,-2586,-1495,-324,-1371,145,487,-303
1,5784435,411,670,-2586,-1495,-324,-1371,145,487,-303
1,5784449,409,670,-2595,-1494,-324,-1368,145,487,-303
1,5784462,413,675,-2592,-1492,-323,-1368,145,487,-303
1,5784477,413,675,-2592,-1492,-323,-1368,145,487,-303
1,5784492,413,675,-2586,-1496,-326,-1360,145,487,-303
1,5784506,410,677,-2588,-1502,-326,-1356,145,487,-303
1,5784519,410,677,-2588,-1502,-326,-1356,145,487,-303
1,5784534,409,672,-2588,-1503,-329,-1352,154,488,-298
1,5784549,404,671,-2586,-1497,-328,-1347,154,488,-298
1,5784563,415,667,-2589,-1489,-321,-1353,154,488,-298
1,5784574,415,667,-2589,-1489,-321,-1353,154,488,-298
1,5784590,412,678,-2586,-1485,-327,-1341,154,488,-298
1,5784603,412,671,-2591,-1488,-328,-1341,154,488,-298
1,5784616,412,671,-2591,-1488,-328,-1341,154,488,-298
1,5784630,409,673,-2591,-1490,-328,-1331,154,488,-298
1,5784644,415,674,-2589,-1495,-323,-1328,151,493,-307
1,5784654,415,674,-2589,-1495,-323,-1328,151,493,-307
1,5784663,406,675,-2591,-1496,-316,-1322,151,493,-307
1,5784675,406,675,-2591,-1496,-316,-1322,151,493,-307
1,5784687,408,670,-2589,-1485,-320,-1319,151,493,-307
1,5784702,409,667,-2589,-1499,-322,-1316,151,493,-307
1,5784718,409,667,-2589,-1499,-322,-1316,151,493,-307
1,5784731,410,667,-2588,-1494,-319,-1325,151,493,-307
1,5784745,410,672,-2587,-1495,-317,-1328,151,493,-307
1,5784761,407,668,-2592,-1488,-317,-1341,151,493,-307
1,5784776,407,668,-2592,-1488,-317,-1341,151,493,-307
1,5784793,411,669,-2586,-1493,-323,-1346,156,484,-302
1,5784807,413,672,-2589,-1492,-332,-1333,156,484,-302
1,5784821,413,668,-2594,-1492,-329,-1339,156,484,-302
1,5784835,413,668,-2594,-1492,-329,-1339,156,484,-302
1,5784849,413,668,-2597,-1498,-323,-1337,156,484,-302
1,5784859,413,668,-2597,-1498,-323,-1337,156,484,-302
1,5784872,413,672,-2593,-1492,-316,-1336,156,484,-302
1,5784887,416,669,-2592,-1495,-313,-1339,156,484,-302
1,5784900,416,669,-2592,-1495,-313,-1339,156,484,-302
1,5784913,411,671,-2589,-1490,-318,-1348,149,501,-301
1,5784925,410,668,-2586,-1489,-328,-1353,149,501,-301
1,5784938,410,668,-2586,-1489,-328,-1353,149,501,-301
1,5784951,413,672,-2594,-1495,-325,-1355,149,501,-301
1,5784966,411,672,-2594,-1499,-328,-1343,149,501,-301
1,5784980,411,672,-2594,-1499,-328,-1343,149,501,-301
1,5784993,410,667,-2592,-1496,-321,-1345,149,501,-301
1,5785006,408,667,-2589,-1493,-323,-1354,149,501,-301
1,5785021,409,666,-2582,-1495,-326,-1353,162,508,-301
1,5785036,409,666,-2582,-1495,-326,-1353,162,508,-304
1,5785052,404,670,-2583,-1496,-322,-1371,162,508,-304
1,5785065,409,664,-2585,-1494,-322,-1373,162,508,-304
1,5785077,409,664,-2585,-1494,-322,-1373,162,508,-304
1,5785091,406,673,-2588,-1497,-330,-1379,162,508,-304
1,5785104,410,670,-2594,-1496,-326,-1388,162,508,-304
1,5785118,410,670,-2594,-1496,-326,-1388,162,508,-304
1,5785133,413,668,-2590,-1487,-325,-1382,162,508,-304
1,5785146,410,671,-2586,-1495,-323,-1384,158,510,-304
1,5785159,410,671,-2586,-1495,-323,-1384,158,510,-304
1,5785172,409,671,-2592,-1495,-327,-1375,158,510,-304
1,5785188,414,669,-2591,-1493,-321,-1374,158,510,-304
1,5785201,414,672,-2590,-1493,-325,-1374,158,510,-304
1,5785216,414,672,-2590,-1493,-325,-1374,158,510,-304
1,5785230,412,675,-2591,-1490,-319,-1374,158,510,-304
1,5785246,409,673,-2593,-1495,-323,-1373,158,510,-304
1,5785262,412,670,-2588,-1498,-319,-1368,161,501,-301
1,5785276,412,670,-2588,-1498,-319,-1368,161,501,-301
1,5785289,414,671,-2586,-1501,-325,-1380,161,501,-301
1,5785303,409,672,-2592,-1496,-321,-1369,161,501,-301
1,5785317,409,672,-2592,-1496,-321,-1369,161,501,-301
1,5785330,415,675,-2594,-1494,-321,-1363,161,501,-301
1,5785342,416,678,-2586,-1491,-319,-1359,161,501,-301
1,5785356,416,678,-2586,-1491,-319,-1359,161,501,-301
1,5785369,413,673,-2591,-1493,-325,-1340,161,501,-301
1,5785383,412,670,-2591,-1493,-316,-1335,161,501,-301
1,5785396,412,670,-2591,-1493,-316,-1335,161,501,-301
1,5785408,408,672,-2589,-1495,-318,-1333,167,515,-301
1,5785422,409,672,-2590,-1494,-315,-1339,167,515,-301
1,5785438,409,672,-2590,-1494,-315,-1339,167,515,-301
1,5785451,409,675,-2585,-1490,-318,-1343,167,515,-301
1,5785465,408,678,-2589,-1493,-323,-1343,167,515,-301
1,5785481,414,670,-2598,-1491,-329,-1336,167,515,-301
1,5785496,414,670,-2598,-1491,-329,-1336,167,515,-301
1,5785510,410,674,-2595,-1493,-321,-1327,167,515,-301
1,5785524,409,672,-2588,-1492,-324,-1330,160,512,-304
1,5785538,409,672,-2588,-1492,-324,-1330,160,512,-304
1,5785552,414,671,-2589,-1490,-320,-1330,160,512,-304
1,5785565,412,672,-2586,-1489,-320,-1328,160,512,-304
1,5785577,412,672,-2586,-1489,-320,-1328,160,512,-304
1,5785590,412,675,-2589,-1501,-321,-1318,160,512,-304
1,5785604,410,670,-2592,-1499,-326,-1320,160,512,-304
1,5785618,410,670,-2592,-1499,-326,-1320,160,512,-304
1,5785627,406,668,-2600,-1499,-323,-1324,160,512,-304
1,5785641,409,673,-2589,-1494,-322,-1333,167,513,-311
1,5785656,409,673,-2589,-1494,-322,-1333,167,513,-311
1,5785669,414,666,-2589,-1500,-324,-1336,167,513,-311
1,5785684,407,669,-2591,-1489,-328,-1342,167,513,-311
1,5785700,407,669,-2591,-1489,-328,-1342,167,513,-311
1,5785714,410,666,-2594,-1490,-328,-1350,167,513,-311
1,5785730,410,668,-2594,-1495,-327,-1356,167,513,-311
1,5785744,410,669,-2593,-1490,-319,-1366,167,513,-311
1,5785757,410,669,-2593,-1490,-319,-1366,167,513,-311
1,5785771,410,670,-2588,-1492,-319,-1372,168,510,-296
1,5785782,409,671,-2586,-1494,-320,-1367,168,510,-296
1,5785794,409,671,-2586,-1494,-320,-1367,168,510,-296
1,5785808,411,676,-2593,-1496,-324,-1373,168,510,-296
1,5785822,407,671,-2589,-1494,-324,-1363,168,510,-296
1,5785835,407,671,-2589,-1494,-324,-1363,168,510,-296
1,5785848,406,665,-2593,-1484,-328,-1362,168,510,-296
1,5785860,406,665,-2593,-1484,-328,-1362,168,510,-296
1,5785871,406,667,-2589,-1491,-328,-1373,168,510,-296
1,5785884,411,668,-2591,-1489,-322,-1389,168,510,-296
1,5785895,411,668,-2591,-1489,-322,-1389,168,510,-296
1,5785905,411,672,-2590,-1492,-328,-1387,169,523,-307
1,5785919,411,672,-2590,-1492,-328,-1387,169,523,-307
1,5785933,411,670,-2594,-1493,-327,-1389,169,523,-307
1,5785943,411,675,-2593,-1498,-320,-1383,169,523,-307
1,5785958,411,675,-2593,-1498,-320,-1383,169,523,-307
1,5785974,415,675,-2586,-1494,-317,-1379,169,523,-307
1,5785990,411,676,-2591,-1491,-321,-1369,169,523,-307
1,5786002,411,675,-2591,-1498,-327,-1370,169,523,-307
1,5786013,411,675,-2591,-1498,-327,-1370,169,523,-307
1,5786027,410,675,-2592,-1495,-327,-1363,175,521,-301
1,5786042,413,676,-2590,-1499,-333,-1360,175,521,-301
1,5786056,413,676,-2590,-1499,-333,-1360,175,521,-301
1,5786071,410,676,-2594,-1498,-325,-1344,175,521,-301
1,5786082,409,675,-2593,-1496,-324,-1338,175,521,-301
1,5786094,409,675,-2593,-1496,-324,-1338,175,521,-301
1,5786107,410,671,-2592,-1495,-323,-1332,175,521,-301
1,5786120,410,671,-2592,-1495,-323,-1332,175,521,-301
1,5786134,412,674,-2592,-1496,-316,-1319,175,521,-301
1,5786149,405,671,-2587,-1494,-321,-1322,172,522,-304
1,5786163,406,670,-2590,-1495,-320,-1326,172,522,-304
1,5786177,406,670,-2590,-1495,-320,-1326,172,522,-304
1,5786190,412,679,-2583,-1488,-321,-1329,172,522,-304
1,5786203,413,675,-2590,-1490,-328,-1327,172,522,-304
1,5786216,413,675,-2590,-1490,-328,-1327,172,522,-304
1,5786230,407,670,-2596,-1486,-324,-1321,172,522,-304
1,5786245,410,669,-2593,-1487,-323,-1324,172,522,-304
1,5786258,410,669,-2593,-1487,-323,-1324,172,522,-304
1,5786271,412,672,-2591,-1495,-320,-1323,175,531,-305
1,5786287,412,670,-2594,-1489,-318,-1329,175,531,-305
1,5786300,412,670,-2594,-1489,-318,-1329,175,531,-305
1,5786312,409,669,-2594,-1496,-322,-1337,175,531,-305
1,5786326,410,675,-2591,-1495,-323,-1344,175,531,-305
1,5786339,410,675,-2591,-1495,-323,-1344,175,531,-305
1,5786354,408,673,-2593,-1492,-322,-1339,175,531,-305
1,5786370,408,673,-2586,-1500,-326,-1336,175,531,-305
1,5786383,409,672,-2592,-1491,-324,-1335,175,531,-305
1,5786396,409,672,-2592,-1491,-324,-1335,175,531,-305
1,5786411,409,667,-2592,-1494,-319,-1337,182,526,-302
1,5786426,407,669,-2590,-1494,-318,-1342,182,526,-302
1,5786441,407,669,-2586,-1502,-316,-1364,182,526,-302
1,5786450,407,669,-2586,-1502,-316,-1364,182,526,-302
1,5786465,409,672,-2588,-1502,-330,-1377,182,526,-302
1,5786479,409,672,-2588,-1502,-330,-1377,182,526,-302
1,5786492,408,673,-2592,-1499,-327,-1366,182,526,-302
1,5786506,412,671,-2595,-1500,-334,-1368,182,526,-302
1,5786517,412,671,-2595,-1500,-334,-1368,182,526,-302
1,5786530,410,675,-2589,-1501,-324,-1369,178,542,-308
1,5786544,410,673,-2585,-1497,-321,-1360,178,542,-308
1,5786557,410,673,-2585,-1497,-321,-1360,178,542,-308
1,5786571,414,675,-2586,-1504,-320,-1358,178,542,-308
1,5786586,410,680,-2590,-1499,-320,-1352,178,542,-308
1,5786597,410,680,-2590,-1499,-320,-1352,178,542,-308
1,5786612,409,674,-2593,-1503,-322,-1350,178,542,-308
1,5786628,406,667,-2593,-1496,-321,-1351,178,542,-308
1,5786642,409,673,-2590,-1489,-326,-1357,194,540,-298
1,5786655,409,673,-2590,-1489,-326,-1357,194,540,-298
1,5786670,410,672,-2591,-1490,-321,-1358,194,540,-298
1,5786685,407,670,-2589,-1500,-324,-1365,194,540,-298
1,5786698,407,670,-2589,-1500,-324,-1365,194,540,-298
1,5786711,413,675,-2590,-1496,-327,-1370,194,540,-298
1,5786725,412,680,-2596,-1492,-317,-1363,194,540,-298
1,5786738,412,680,-2596,-1492,-317,-1363,194,540,-298
1,5786753,409,676,-2588,-1485,-326,-1354,194,540,-298
1,5786765,410,674,-2585,-1491,-324,-1355,186,542,-304
1,5786778,410,674,-2585,-1491,-324,-1355,186,542,-304
1,5786791,413,676,-2589,-1493,-327,-1358,186,542,-304
1,5786803,413,678,-2590,-1496,-323,-1352,186,542,-304
1,5786813,413,678,-2590,-1496,-323,-1352,186,542,-304
1,5786821,413,678,-2590,-1496,-323,-1352,186,542,-304
1,5786832,408,671,-2590,-1492,-324,-1356,186,542,-304
1,5786847,413,674,-2591,-1489,-320,-1354,186,542,-304
1,5786858,413,674,-2591,-1489,-320,-1354,186,542,-304
1,5786873,412,671,-2594,-1490,-322,-1343,186,542,-304
1,5786889,410,676,-2594,-1493,-322,-1342,188,540,-302
1,5786904,410,671,-2589,-1493,-321,-1346,188,540,-302
1,5786918,410,671,-2589,-1493,-321,-1346,188,540,-302
1,5786932,406,673,-2584,-1502,-326,-1346,188,540,-302
1,5786945,404,672,-2589,-1501,-319,-1348,188,540,-302
1,5786960,404,672,-2589,-1501,-319,-1348,188,540,-302
1,5786971,410,675,-2589,-1495,-320,-1344,188,540,-302
1,5786987,410,675,-2589,-1495,-320,-1344,188,540,-302
1,5787000,410,675,-2589,-1495,-320,-1344,188,540,-302
1,5787014,411,672,-2591,-1498,-329,-1348,188,540,-302
1,5787028,411,673,-2588,-1493,-329,-1337,195,539,-295
1,5787041,409,674,-2593,-1497,-320,-1335,195,539,-295
1,5787053,409,674,-2593,-1497,-320,-1335,195,539,-295
1,5787066,409,674,-2589,-1493,-320,-1343,195,539,-295
1,5787079,409,674,-2589,-1493,-320,-1343,195,539,-295
1,5787092,411,675,-2590,-1493,-321,-1340,195,539,-295
1,5787108,409,676,-2588,-1496,-322,-1345,195,539,-295
1,5787121,409,676,-2588,-1496,-322,-1345,195,539,-295
1,5787136,411,677,-2592,-1489,-326,-1343,195,539,-295
1,5787149,409,673,-2593,-1491,-325,-1342,198,546,-298
1,5787162,407,671,-2588,-1483,-317,-1345,198,546,-298
1,5787173,407,671,-2588,-1483,-317,-1345,198,546,-298
1,5787187,411,672,-2587,-1485,-325,-1348,198,546,-298
1,5787200,411,672,-2587,-1485,-325,-1348,198,546,-298
1,5787213,410,673,-2588,-1488,-326,-1349,198,546,-298
1,5787228,411,672,-2595,-1494,-328,-1360,198,546,-298
1,5787241,411,672,-2595,-1494,-328,-1360,198,546,-298
1,5787256,411,674,-2594,-1495,-332,-1362,198,546,-298
1,5787269,411,672,-2590,-1495,-331,-1361,201,535,-295
1,5787282,411,674,-2590,-1490,-328,-1356,201,535,-295
1,5787296,411,674,-2590,-1490,-328,-1356,201,535,-295
1,5787310,408,676,-2590,-1489,-320,-1357,201,535,-295
1,5787324,410,673,-2591,-1481,-318,-1355,201,535,-295
1,5787336,410,673,-2591,-1481,-318,-1355,201,535,-295
1,5787350,407,670,-2592,-1488,-324,-1360,201,535,-295
1,5787365,408,671,-2594,-1491,-337,-1360,201,535,-295
1,5787378,408,671,-2594,-1491,-337,-1360,201,535,-295
1,5787392,411,673,-2595,-1493,-329,-1361,201,545,-297
1,5787407,411,667,-2590,-1484,-327,-1363,201,545,-297
1,5787423,410,676,-2592,-1489,-328,-1358,201,545,-297
1,5787438,410,676,-2592,-1489,-328,-1358,201,545,-297
1,5787452,409,671,-2592,-1500,-330,-1359,201,545,-297
1,5787461,407,673,-2593,-1495,-327,-1363,201,545,-297
1,5787472,407,673,-2593,-1495,-327,-1363,201,545,-297
1,5787486,412,675,-2596,-1487,-324,-1368,201,545,-297
1,5787500,412,675,-2596,-1487,-324,-1368,201,545,-297
1,5787513,415,675,-2592,-1489,-321,-1368,201,545,-297
1,5787528,412,679,-2588,-1499,-327,-1369,198,546,-300
1,5787539,412,679,-2588,-1499,-327,-1369,198,546,-300
1,5787550,411,678,-2589,-1501,-329,-1365,198,546,-300
1,5787564,412,675,-2590,-1490,-328,-1359,198,546,-300
1,5787578,412,675,-2590,-1490,-328,-1359,198,546,-300
1,5787592,410,674,-2587,-1493,-320,-1357,198,546,-300
1,5787608,411,672,-2595,-1497,-322,-1357,198,546,-300
1,5787623,410,671,-2596,-1496,-323,-1352,198,546,-300
1,5787636,410,671,-2596,-1496,-323,-1352,198,546,-300
1,5787651,410,669,-2586,-1489,-325,-1354,199,563,-307
1,5787665,410,679,-2589,-1498,-324,-1353,199,563,-307
1,5787678,410,679,-2589,-1498,-324,-1353,199,563,-307
1,5787693,411,676,-2590,-1495,-328,-1352,199,563,-307
1,5787706,412,675,-2594,-1493,-319,-1353,199,563,-307
1,5787720,412,675,-2594,-1493,-319,-1353,199,563,-307
1,5787734,413,675,-2589,-1490,-324,-1354,199,563,-307
1,5787747,411,672,-2592,-1498,-323,-1348,199,563,-307
1,5787761,411,672,-2592,-1498,-323,-1348,199,563,-307
1,5787774,405,665,-2584,-1494,-318,-1342,210,556,-298
1,5787787,405,671,-2585,-1492,-323,-1347,210,556,-298
1,5787802,411,673,-2588,-1493,-321,-1357,210,556,-298
1,5787817,411,673,-2588,-1493,-321,-1357,210,556,-298
1,5787834,407,677,-2582,-1496,-326,-1351,210,556,-298
1,5787848,408,675,-2593,-1496,-328,-1353,210,556,-298
1,5787860,408,675,-2593,-1496,-328,-1353,210,556,-298
1,5787875,409,681,-2591,-1489,-331,-1350,210,556,-298
1,5787889,410,676,-2586,-1491,-321,-1346,222,554,-304
1,5787902,413,675,-2590,-1490,-321,-1350,222,554,-304
1,5787917,413,675,-2590,-1490,-321,-1350,222,554,-304
1,5787931,409,674,-2590,-1491,-323,-1349,222,554,-304
1,5787944,412,673,-2591,-1489,-317,-1349,222,554,-304
1,5787958,412,673,-2591,-1489,-317,-1349,222,554,-304
1,5787971,412,672,-2588,-1489,-326,-1356,222,554,-304
1,5787986,411,672,-2594,-1493,-330,-1345,222,554,-304
1,5788002,412,673,-2587,-1487,-327,-1342,222,554,-304
1,5788017,412,673,-2587,-1487,-327,-1342,222,554,-304
1,5788032,408,677,-2591,-1489,-320,-1334,222,554,-304
1,5788045,412,674,-2590,-1489,-327,-1331,222,554,-304
1,5788059,412,674,-2590,-1489,-327,-1331,222,554,-304
1,5788075,406,675,-2591,-1498,-325,-1331,222,554,-304
1,5788088,412,678,-2591,-1488,-325,-1327,222,554,-304
1,5788102,412,676,-2595,-1492,-325,-1319,222,554,-304
1,5788116,412,676,-2595,-1492,-325,-1319,222,554,-304
1,5788130,405,673,-2589,-1491,-320,-1319,222,554,-304
1,5788144,409,673,-2589,-1480,-322,-1321,217,555,-293
1,5788156,409,673,-2589,-1480,-322,-1321,217,555,-293
1,5788171,411,683,-2586,-1488,-321,-1324,217,555,-293
1,5788179,411,683,-2586,-1488,-321,-1324,217,555,-293
1,5788191,416,681,-2586,-1497,-326,-1297,217,555,-293
1,5788205,412,683,-2599,-1499,-328,-1277,217,555,-293
1,5788220,412,683,-2599,-1499,-328,-1277,217,555,-293
1,5788235,411,683,-2588,-1492,-325,-1262,217,555,-293
1,5788251,409,680,-2590,-1488,-318,-1252,217,555,-293
1,5788264,410,682,-2579,-1495,-321,-1247,225,561,-305
1,5788277,410,682,-2579,-1495,-321,-1247,225,561,-305
1,5788292,410,680,-2585,-1489,-318,-1245,225,561,-305
1,5788305,410,677,-2593,-1486,-322,-1234,225,561,-305
1,5788318,410,677,-2593,-1486,-322,-1234,225,561,-305
1,5788333,412,676,-2593,-1492,-323,-1220,225,561,-305
1,5788345,413,677,-2594,-1491,-325,-1219,225,561,-305
1,5788357,413,677,-2594,-1491,-325,-1219,225,561,-305
1,5788371,409,677,-2597,-1503,-318,-1202,225,561,-305
1,5788380,409,677,-2597,-1503,-318,-1202,225,561,-305
1,5788392,411,678,-2587,-1495,-314,-1195,227,555,-295
1,5788406,416,682,-2588,-1489,-322,-1184,227,555,-295
1,5788422,416,682,-2588,-1489,-322,-1184,227,555,-295
1,5788437,410,680,-2594,-1488,-326,-1166,227,555,-295
1,5788452,410,677,-2592,-1495,-322,-1161,227,555,-295
1,5788466,409,676,-2589,-1491,-318,-1152,227,555,-295
1,5788480,409,676,-2589,-1491,-318,-1152,227,555,-295
1,5788495,408,678,-2587,-1490,-313,-1148,227,555,-295
1,5788508,410,670,-2588,-1493,-321,-1142,229,563,-299
1,5788521,410,670,-2588,-1493,-321,-1142,229,563,-299
1,5788535,403,666,-2594,-1489,-322,-1150,229,563,-299
1,5788549,402,667,-2594,-1490,-319,-1168,229,563,-299
1,5788564,415,678,-2587,-1493,-321,-1185,229,563,-299
1,5788578,415,678,-2587,-1493,-321,-1185,229,563,-299
1,5788592,412,682,-2592,-1493,-331,-1169,229,563,-299
1,5788605,408,677,-2593,-1489,-332,-1159,229,563,-299
1,5788619,408,677,-2593,-1489,-332,-1159,229,563,-299
1,5788633,408,670,-2597,-1494,-321,-1162,229,563,-299
1,5788645,402,668,-2590,-1492,-309,-1178,224,560,-304
1,5788658,402,668,-2590,-1492,-309,-1178,224,560,-304
1,5788674,413,671,-2579,-1490,-309,-1189,224,560,-304
1,5788689,413,677,-2582,-1492,-325,-1196,224,560,-304
1,5788704,412,683,-2593,-1494,-330,-1185,224,560,-304
1,5788719,412,683,-2593,-1494,-330,-1185,224,560,-304
1,5788730,416,679,-2598,-1490,-336,-1168,224,560,-304
1,5788744,410,677,-2601,-1493,-327,-1149,224,560,-304
1,5788758,410,677,-2601,-1493,-327,-1149,224,560,-304
1,5788772,407,673,-2592,-1492,-308,-1147,225,567,-293
1,5788785,411,677,-2587,-1494,-304,-1144,225,567,-293
1,5788800,411,677,-2587,-1494,-304,-1144,225,567,-293
1,5788813,407,673,-2582,-1494,-311,-1136,225,567,-293
1,5788826,407,673,-2582,-1494,-311,-1136,225,567,-293
1,5788841,407,673,-2582,-1494,-311,-1136,225,567,-293
1,5788857,407,673,-2582,-1494,-311,-1136,225,567,-293
1,5788872,409,678,-2593,-1487,-325,-1124,225,567,-293
1,5788889,414,673,-2589,-1493,-313,-1127,228,564,-298
1,5788901,414,673,-2589,-1493,-313,-1127,228,564,-298
1,5788911,410,671,-2596,-1490,-317,-1122,228,564,-298
1,5788920,410,671,-2596,-1490,-317,-1122,228,564,-298
1,5788932,414,680,-2586,-1481,-314,-1108,228,564,-298
1,5788945,421,686,-2585,-1488,-318,-1096,228,564,-298
1,5788958,421,686,-2585,-1488,-318,-1096,228,564,-298
1,5788972,418,690,-2588,-1485,-324,-1079,228,564,-298
1,5788986,410,688,-2599,-1493,-332,-1052,228,564,-298
1,5788997,410,688,-2599,-1493,-332,-1052,228,564,-298
1,5789010,412,679,-2595,-1491,-318,-1035,236,570,-306
1,5789024,410,678,-2586,-1494,-313,-1027,236,570,-306
1,5789037,410,678,-2586,-1494,-313,-1027,236,570,-306
1,5789051,410,673,-2589,-1491,-312,-1017,236,570,-306
1,5789066,410,673,-2587,-1487,-315,-1012,236,570,-306
1,5789077,410,673,-2587,-1487,-315,-1012,236,570,-306
1,5789090,407,674,-2591,-1486,-323,-1014,236,570,-306
1,5789106,411,673,-2592,-1493,-326,-1012,236,570,-306
1,5789120,411,673,-2592,-1493,-326,-1012,236,570,-306
1,5789133,412,675,-2593,-1491,-321,-1013,236,570,-306
1,5789149,407,677,-2591,-1489,-315,-1004,242,564,-302
1,5789163,412,681,-2586,-1492,-313,-1000,242,564,-302
1,5789176,412,681,-2586,-1492,-313,-1000,242,564,-302
1,5789191,411,676,-2589,-1491,-307,-998,242,564,-302
1,5789204,410,677,-2587,-1493,-319,-993,242,564,-302
1,5789218,410,677,-2587,-1493,-319,-993,242,564,-302
1,5789234,407,671,-2594,-1491,-323,-986,242,564,-302
1,5789246,409,666,-2590,-1493,-316,-980,242,564,-302
1,5789259,409,666,-2590,-1493,-316,-980,242,564,-302
1,5789274,412,676,-2586,-1494,-315,-978,242,576,-304
1,5789288,415,676,-2589,-1494,-316,-982,242,576,-304
1,5789301,415,676,-2589,-1494,-316,-982,242,576,-304
1,5789317,412,676,-2594,-1494,-318,-988,242,576,-304
1,5789329,414,678,-2595,-1493,-317,-984,242,576,-304
1,5789343,413,679,-2591,-1490,-317,-972,242,576,-304
1,5789359,413,679,-2591,-1490,-317,-972,242,576,-304
1,5789374,410,678,-2589,-1491,-309,-969,242,576,-304
1,5789387,411,677,-2587,-1500,-319,-974,248,566,-300
1,5789401,411,677,-2587,-1500,-319,-974,248,566,-300
1,5789415,410,681,-2586,-1492,-321,-964,248,566,-300
1,5789429,411,677,-2588,-1492,-318,-963,248,566,-300
1,5789442,411,677,-2588,-1492,-318,-963,248,566,-300
1,5789455,411,673,-2588,-1485,-313,-956,248,566,-300
1,5789471,410,675,-2587,-1492,-317,-960,248,566,-300
1,5789483,411,675,-2592,-1488,-316,-954,248,566,-300
1,5789496,411,675,-2592,-1488,-316,-954,248,566,-300
1,5789510,413,677,-2588,-1491,-319,-944,249,573,-299
1,5789519,413,677,-2588,-1491,-319,-944,249,573,-299
1,5789532,410,679,-2585,-1491,-317,-940,249,573,-299
1,5789546,412,679,-2586,-1488,-318,-924,249,573,-299
1,5789561,412,679,-2586,-1488,-318,-924,249,573,-299
1,5789577,411,679,-2588,-1494,-316,-914,249,573,-299
1,5789589,410,675,-2590,-1487,-310,-907,249,573,-299
1,5789599,410,675,-2590,-1487,-310,-907,249,573,-299
1,5789613,414,675,-2593,-1497,-315,-902,249,573,-299
1,5789627,413,672,-2590,-1492,-313,-900,247,575,-297
1,5789641,413,672,-2590,-1492,-313,-900,247,575,-297
1,5789654,410,677,-2586,-1487,-316,-892,247,575,-297
1,5789666,412,679,-2586,-1482,-316,-890,247,575,-297
1,5789680,412,679,-2586,-1482,-316,-890,247,575,-297
1,5789693,410,675,-2591,-1485,-311,-878,247,575,-297
1,5789707,407,678,-2592,-1486,-315,-876,247,575,-297
1,5789720,407,678,-2592,-1486,-315,-876,247,575,-297
1,5789733,407,680,-2589,-1486,-313,-887,247,575,-297
1,5789747,407,679,-2583,-1489,-308,-893,247,575,-297
1,5789761,407,679,-2583,-1489,-308,-893,247,575,-297
1,5789774,414,685,-2588,-1490,-315,-884,249,577,-299
1,5789787,416,686,-2589,-1490,-324,-874,249,577,-299
1,5789802,411,683,-2593,-1492,-318,-857,249,577,-299
1,5789818,411,683,-2593,-1492,-318,-857,249,577,-299
1,5789833,414,681,-2592,-1490,-312,-845,249,577,-299
1,5789847,411,679,-2588,-1501,-304,-838,249,577,-299
1,5789860,411,679,-2588,-1501,-304,-838,249,577,-299
1,5789875,412,677,-2590,-1498,-311,-830,249,577,-299
1,5789888,412,680,-2588,-1488,-315,-822,249,569,-303
1,5789904,413,679,-2587,-1497,-320,-813,249,569,-303
1,5789918,413,679,-2587,-1497,-320,-813,249,569,-303
1,5789931,412,679,-2593,-1500,-322,-809,249,569,-303
1,5789944,410,676,-2596,-1498,-313,-797,249,569,-303
1,5789958,410,676,-2596,-1498,-313,-797,249,569,-303
1,5789972,412,677,-2586,-1494,-309,-787,249,569,-303
1,5789983,413,675,-2593,-1495,-317,-776,249,569,-303
1,5789998,413,675,-2593,-1495,-317,-776,249,569,-303
1,5790013,411,677,-2589,-1496,-317,-771,247,579,-307
1,5790028,413,673,-2595,-1490,-304,-763,247,579,-307
1,5790044,413,674,-2588,-1492,-317,-756,247,579,-307
1,5790055,413,674,-2588,-1492,-317,-756,247,579,-307
1,5790070,412,678,-2585,-1492,-312,-746,247,579,-307
1,5790085,412,679,-2598,-1487,-311,-744,247,579,-307
1,5790098,412,679,-2598,-1487,-311,-744,247,579,-307
1,5790112,413,680,-2598,-1484,-311,-735,247,579,-307
1,5790127,410,675,-2587,-1483,-316,-731,252,570,-298
1,5790139,410,675,-2587,-1483,-316,-731,252,570,-298
1,5790151,411,680,-2587,-1489,-315,-724,252,570,-298
1,5790166,408,668,-2591,-1488,-312,-730,252,570,-298
1,5790179,408,668,-2591,-1488,-312,-730,252,570,-298
1,5790193,404,670,-2595,-1484,-305,-746,252,570,-298
1,5790206,412,672,-2589,-1495,-305,-760,252,570,-298
1,5790219,412,672,-2589,-1495,-305,-760,252,570,-298
1,5790232,412,678,-2592,-1502,-318,-760,252,570,-298
1,5790247,411,675,-2592,-1495,-324,-768,252,570,-298
1,5790260,411,675,-2592,-1495,-324,-768,252,570,-298
1,5790274,411,675,-2592,-1495,-324,-768,252,574,-296
1,5790290,408,682,-2591,-1491,-312,-758,252,574,-296
1,5790306,410,677,-2594,-1489,-306,-761,252,574,-296
1,5790321,410,677,-2594,-1489,-306,-761,252,574,-296
1,5790334,412,676,-2590,-1489,-308,-755,252,574,-296
1,5790348,411,674,-2588,-1487,-311,-751,252,574,-296
1,5790361,411,674,-2588,-1487,-311,-751,252,574,-296
1,5790374,411,675,-2591,-1492,-317,-741,252,574,-296
1,5790390,410,673,-2588,-1493,-315,-739,254,564,-302
1,5790403,411,671,-2587,-1499,-315,-741,254,564,-302
1,5790416,411,671,-2587,-1499,-315,-741,254,564,-302
1,5790430,410,677,-2587,-1491,-316,-734,254,564,-302
1,5790443,410,677,-2587,-1491,-316,-734,254,564,-302
1,5790457,410,677,-2587,-1491,-316,-734,254,564,-302
1,5790469,412,680,-2591,-1490,-313,-731,254,564,-302
1,5790480,412,680,-2591,-1490,-313,-731,254,564,-302
1,5790495,416,690,-2591,-1489,-318,-711,254,564,-302
1,5790509,411,684,-2585,-1488,-322,-690,257,573,-301
1,5790523,410,685,-2590,-1495,-313,-673,257,573,-301
1,5790538,410,685,-2590,-1495,-313,-673,257,573,-301
1,5790552,412,680,-2588,-1487,-301,-655,257,573,-301
1,5790565,416,676,-2589,-1493,-299,-651,257,573,-301
1,5790579,416,676,-2589,-1493,-299,-651,257,573,-301
1,5790593,410,682,-2586,-1491,-307,-642,257,573,-301
1,5790609,415,683,-2593,-1496,-313,-631,257,573,-301
1,5790622,415,683,-2593,-1496,-313,-631,257,573,-301
1,5790635,412,680,-2582,-1492,-319,-617,261,583,-297
1,5790649,413,677,-2598,-1483,-319,-601,261,583,-297
1,5790661,413,677,-2598,-1483,-319,-601,261,583,-297
1,5790675,413,679,-2595,-1484,-312,-597,261,583,-297
1,5790691,417,678,-2587,-1492,-312,-590,261,583,-297
1,5790703,414,674,-2580,-1491,-313,-584,261,583,-297
1,5790717,414,674,-2580,-1491,-313,-584,261,583,-297
1,5790733,415,678,-2588,-1495,-322,-575,261,583,-297
1,5790748,414,677,-2590,-1493,-320,-565,261,583,-297
1,5790761,414,677,-2590,-1493,-320,-565,261,583,-297
1,5790774,412,673,-2583,-1495,-311,-557,266,578,-296
1,5790787,411,674,-2591,-1487,-314,-552,266,578,-296
1,5790800,411,674,-2591,-1487,-314,-552,266,578,-296
1,5790817,411,679,-2592,-1491,-313,-551,266,578,-296
1,5790830,412,681,-2587,-1493,-307,-543,266,578,-296
1,5790844,412,678,-2589,-1492,-310,-546,266,578,-296
1,5790856,412,678,-2589,-1492,-310,-546,266,578,-296
1,5790869,410,679,-2586,-1493,-311,-545,266,578,-296
1,5790885,412,677,-2585,-1486,-306,-550,259,577,-299
1,5790901,412,677,-2585,-1486,-306,-550,259,577,-299
1,5790915,408,673,-2592,-1489,-311,-556,259,577,-299
1,5790930,409,675,-2593,-1496,-318,-554,259,577,-299
1,5790945,410,676,-2595,-1493,-313,-552,259,577,-299
1,5790957,410,676,-2595,-1493,-313,-552,259,577,-299
1,5790970,411,670,-2592,-1492,-307,-549,259,577,-299
1,5790984,407,671,-2591,-1488,-310,-558,259,577,-299
1,5790998,407,671,-2591,-1488,-310,-558,259,577,-299
1,5791012,408,674,-2585,-1495,-307,-574,261,579,-293
1,5791026,414,679,-2585,-1494,-315,-577,261,579,-293
1,5791040,414,679,-2585,-1494,-315,-577,261,579,-293
1,5791052,408,674,-2586,-1495,-322,-576,261,579,-293
1,5791066,408,678,-2593,-1492,-318,-574,261,579,-293
1,5791080,408,678,-2593,-1492,-318,-574,261,579,-293
1,5791087,414,684,-2587,-1488,-315,-572,261,579,-293
1,5791101,414,684,-2587,-1488,-315,-572,261,579,-293
1,5791114,408,675,-2582,-1488,-308,-570,261,579,-293
1,5791128,414,685,-2578,-1483,-306,-564,263,575,-297
1,5791143,416,685,-2588,-1483,-316,-550,263,575,-297
1,5791158,416,685,-2588,-1483,-316,-550,263,575,-297
1,5791171,419,685,-2594,-1491,-316,-528,263,575,-297
1,5791185,413,681,-2591,-1493,-315,-507,263,575,-297
1,5791199,413,681,-2591,-1493,-315,-507,263,575,-297
1,5791210,411,675,-2588,-1494,-307,-495,263,575,-297
1,5791223,412,677,-2589,-1485,-308,-496,263,575,-297
1,5791237,412,677,-2589,-1485,-308,-496,263,575,-297
1,5791251,412,677,-2587,-1484,-303,-489,263,575,-297
1,5791264,410,683,-2583,-1495,-309,-480,263,575,-297
1,5791277,410,683,-2583,-1495,-309,-480,263,575,-297
1,5791290,416,684,-2583,-1489,-316,-470,263,575,-297
1,5791304,410,678,-2587,-1491,-316,-454,263,575,-297
1,5791319,410,678,-2587,-1491,-316,-454,263,575,-297
1,5791334,414,680,-2590,-1493,-313,-449,263,575,-297
1,5791347,416,681,-2590,-1490,-307,-436,263,575,-297
1,5791363,416,681,-2590,-1490,-307,-436,263,575,-297
1,5791377,413,680,-2593,-1485,-306,-434,263,575,-297
1,5791392,414,681,-2584,-1482,-307,-423,271,579,-301
1,5791407,413,680,-2587,-1501,-317,-407,271,579,-301
1,5791420,413,680,-2587,-1501,-317,-407,271,579,-301
1,5791434,413,677,-2591,-1490,-314,-391,271,579,-301
1,5791448,410,679,-2586,-1489,-307,-383,271,579,-301
1,5791463,412,679,-2587,-1490,-307,-387,271,579,-301
1,5791477,412,679,-2587,-1490,-307,-387,271,579,-301
1,5791490,414,678,-2586,-1487,-313,-378,271,579,-301
1,5791504,414,674,-2592,-1493,-310,-378,268,582,-294
1,5791517,414,674,-2592,-1493,-310,-378,268,582,-294
1,5791532,416,677,-2591,-1497,-315,-372,268,582,-294
1,5791546,412,687,-2592,-1490,-310,-369,268,582,-294
1,5791561,412,687,-2592,-1490,-310,-369,268,582,-294
1,5791576,414,684,-2590,-1484,-312,-361,268,582,-294
1,5791588,410,676,-2590,-1490,-306,-347,268,582,-294
1,5791602,410,676,-2590,-1490,-306,-347,268,582,-294
1,5791616,408,682,-2588,-1494,-298,-346,268,582,-294
1,5791628,408,678,-2587,-1496,-304,-341,278,578,-298
1,5791642,408,678,-2587,-1496,-304,-341,278,578,-298
1,5791655,411,672,-2587,-1488,-298,-342,278,578,-298
1,5791669,408,660,-2594,-1485,-294,-342,278,578,-298
1,5791682,408,660,-2594,-1485,-294,-342,278,578,-298
1,5791694,396,672,-2592,-1496,-288,-363,278,578,-298
1,5791707,407,676,-2590,-1496,-276,-382,278,578,-298
1,5791720,407,676,-2590,-1496,-276,-382,278,578,-298
1,5791734,420,673,-2594,-1491,-264,-386,278,578,-298
1,5791749,374,673,-2614,-1491,-250,-385,269,575,-295
1,5791762,374,673,-2614,-1491,-250,-385,269,575,-295
1,5791775,423,684,-2614,-1498,-203,-389,269,575,-295
1,5791790,441,680,-2609,-1500,-150,-375,269,575,-295
1,5791805,380,674,-2601,-1508,-109,-380,269,575,-295
1,5791819,380,674,-2601,-1508,-109,-380,269,575,-295
1,5791832,397,669,-2595,-1507,-93,-377,269,575,-295
1,5791846,435,681,-2588,-1503,-79,-369,269,575,-295
1,5791859,435,681,-2588,-1503,-79,-369,269,575,-295
1,5791873,418,676,-2593,-1502,-79,-360,269,575,-295
1,5791887,404,678,-2593,-1501,-72,-355,266,590,-296
1,5791899,404,678,-2593,-1501,-72,-355,266,590,-296
1,5791912,430,684,-2588,-1503,-70,-352,266,590,-296
1,5791925,437,683,-2594,-1505,-72,-334,266,590,-296
1,5791939,437,683,-2594,-1505,-72,-334,266,590,-296
1,5791952,417,679,-2596,-1509,-65,-319,266,590,-296
1,5791967,418,670,-2594,-1504,-55,-301,266,590,-296
1,5791982,418,670,-2594,-1504,-55,-301,266,590,-296
1,5791991,431,679,-2600,-1503,-46,-313,266,590,-296
1,5792004,430,682,-2592,-1504,-46,-304,282,592,-296
1,5792017,430,682,-2592,-1504,-46,-304,282,592,-296
1,5792032,423,676,-2580,-1512,-36,-299,282,592,-296
1,5792048,438,685,-2578,-1505,-46,-296,282,592,-296
1,5792062,438,685,-2578,-1505,-46,-296,282,592,-296
1,5792076,448,678,-2582,-1503,-78,-276,282,592,-296
1,5792089,434,685,-2587,-1499,-103,-269,282,592,-296
1,5792103,434,685,-2587,-1499,-103,-269,282,592,-296
1,5792117,434,685,-2587,-1499,-103,-269,282,592,-296
1,5792132,451,681,-2594,-1499,-87,-252,279,595,-309
1,5792145,435,673,-2593,-1500,-67,-242,279,595,-309
1,5792158,435,673,-2593,-1500,-67,-242,279,595,-309
1,5792173,434,680,-2586,-1502,-68,-239,279,595,-309
1,5792186,441,682,-2585,-1497,-75,-240,279,595,-309
1,5792201,441,682,-2585,-1497,-75,-240,279,595,-309
1,5792217,444,679,-2592,-1499,-90,-236,279,595,-309
1,5792230,435,671,-2596,-1501,-87,-223,279,595,-309
1,5792243,442,685,-2605,-1503,-74,-213,270,588,-296
1,5792259,442,685,-2605,-1503,-74,-213,270,588,-296
1,5792274,454,680,-2598,-1505,-44,-199,270,588,-296
1,5792288,440,678,-2590,-1505,-24,-192,270,588,-296
1,5792301,440,678,-2590,-1505,-24,-192,270,588,-296
1,5792313,445,686,-2596,-1503,-13,-179,270,588,-296
1,5792327,458,683,-2593,-1506,-12,-162,270,588,-296
1,5792340,458,683,-2593,-1506,-12,-162,270,588,-296
1,5792355,456,678,-2594,-1508,-7,-153,270,588,-296
1,5792369,443,678,-2594,-1504,0,-150,270,588,-296
1,5792382,443,678,-2594,-1504,0,-150,270,588,-296
1,5792395,457,677,-2584,-1506,-7,-141,272,588,-286
1,5792408,460,680,-2592,-1502,9,-136,272,588,-286
1,5792421,460,680,-2592,-1502,9,-136,272,588,-286
1,5792436,448,678,-2598,-1506,16,-138,272,588,-286
1,5792450,465,681,-2597,-1505,26,-133,272,588,-286
1,5792463,469,681,-2591,-1515,34,-138,272,588,-286
1,5792478,469,681,-2591,-1515,34,-138,272,588,-286
1,5792494,453,685,-2586,-1511,46,-119,272,588,-286
1,5792508,469,687,-2586,-1512,39,-112,278,598,-304
1,5792523,472,680,-2591,-1514,35,-97,278,598,-304
1,5792535,472,680,-2591,-1514,35,-97,278,598,-304
1,5792549,459,681,-2593,-1510,27,-103,278,598,-304
1,5792563,479,679,-2592,-1505,26,-92,278,598,-304
1,5792576,479,679,-2592,-1505,26,-92,278,598,-304
1,5792590,479,680,-2585,-1504,32,-84,278,598,-304
1,5792601,479,680,-2585,-1504,32,-84,278,598,-304
1,5792616,469,678,-2595,-1506,31,-87,278,598,-304
1,5792629,480,681,-2589,-1508,36,-81,270,586,-308
1,5792645,479,675,-2589,-1514,43,-86,270,586,-308
1,5792657,479,675,-2589,-1514,43,-86,270,586,-308
1,5792673,472,673,-2592,-1517,42,-86,270,586,-308
1,5792688,486,688,-2599,-1514,45,-86,270,586,-308
1,5792703,489,681,-2595,-1512,69,-82,270,586,-308
1,5792718,489,681,-2595,-1512,69,-82,270,586,-308
1,5792734,481,677,-2595,-1518,86,-80,270,586,-308
1,5792748,482,676,-2594,-1516,95,-71,274,586,-300
1,5792761,482,676,-2594,-1516,95,-71,274,586,-300
1,5792776,487,679,-2589,-1518,103,-79,274,586,-300
1,5792788,498,678,-2583,-1514,101,-86,274,586,-300
1,5792801,498,678,-2583,-1514,101,-86,274,586,-300
1,5792815,498,679,-2586,-1513,114,-88,274,586,-300
1,5792829,490,681,-2593,-1511,117,-80,274,586,-300
1,5792842,490,681,-2593,-1511,117,-80,274,586,-300
1,5792857,501,682,-2590,-1517,125,-86,274,586,-300
1,5792868,505,690,-2589,-1520,120,-74,274,586,-300
1,5792880,505,690,-2589,-1520,120,-74,274,586,-300
1,5792893,507,687,-2584,-1523,133,-64,277,591,-297
1,5792907,513,689,-2592,-1521,136,-53,277,591,-297
1,5792922,513,689,-2592,-1521,136,-53,277,591,-297
1,5792936,508,683,-2591,-1518,145,-38,277,591,-297
1,5792950,508,677,-2589,-1517,147,-30,277,591,-297
1,5792964,515,680,-2586,-1520,150,-37,277,591,-297
1,5792978,515,680,-2586,-1520,150,-37,277,591,-297
1,5792993,523,683,-2587,-1523,138,-34,277,591,-297
1,5793004,514,680,-2587,-1520,134,-30,281,581,-297
1,5793016,514,680,-2587,-1520,134,-30,281,581,-297
1,5793030,526,682,-2587,-1518,138,-37,281,581,-297
1,5793043,529,675,-2592,-1520,156,-33,281,581,-297
1,5793057,529,675,-2592,-1520,156,-33,281,581,-297
1,5793070,523,678,-2590,-1522,172,-36,281,581,-297
1,5793082,523,678,-2590,-1522,172,-36,281,581,-297
1,5793097,535,679,-2586,-1515,171,-45,281,581,-297
1,5793113,525,683,-2590,-1517,165,-49,281,581,-297
1,5793128,531,681,-2582,-1516,164,-58,279,585,-309
1,5793141,531,681,-2582,-1516,164,-58,279,585,-309
1,5793156,546,686,-2593,-1520,167,-61,279,585,-309
1,5793171,536,678,-2602,-1522,184,-52,279,585,-309
1,5793185,537,684,-2584,-1527,190,-52,279,585,-309
1,5793199,537,684,-2584,-1527,190,-52,279,585,-309
1,5793212,546,688,-2585,-1521,198,-47,279,585,-309
1,5793226,548,690,-2592,-1520,210,-51,279,585,-309
1,5793239,548,690,-2592,-1520,210,-51,279,585,-309
1,5793254,552,683,-2586,-1522,218,-49,273,585,-313
1,5793266,555,686,-2585,-1524,219,-50,273,585,-313
1,5793274,555,686,-2585,-1524,219,-50,273,585,-313
1,5793285,559,689,-2595,-1524,227,-53,273,585,-313
1,5793299,559,689,-2595,-1524,227,-53,273,585,-313
1,5793312,558,685,-2592,-1523,228,-48,273,585,-313
1,5793326,559,685,-2590,-1518,240,-43,273,585,-313
1,5793341,559,685,-2590,-1518,240,-43,273,585,-313
1,5793356,565,677,-2588,-1516,254,-39,273,585,-313
1,5793370,571,682,-2577,-1525,259,-42,275,581,-315
1,5793383,571,682,-2577,-1525,259,-42,275,581,-315
1,5793397,574,683,-2579,-1527,258,-44,275,581,-315
1,5793410,576,687,-2588,-1522,264,-45,275,581,-315
1,5793421,576,687,-2588,-1522,264,-45,275,581,-315
1,5793435,582,681,-2584,-1518,254,-46,275,581,-315
1,5793449,582,688,-2583,-1530,242,-42,275,581,-315
1,5793463,582,688,-2583,-1530,242,-42,275,581,-315
1,5793476,573,681,-2594,-1527,234,-50,275,581,-315
1,5793491,590,680,-2594,-1516,252,-53,275,581,-315
1,5793503,590,680,-2594,-1516,252,-53,275,581,-315
1,5793516,600,688,-2588,-1523,270,-55,267,575,-307
1,5793529,595,695,-2587,-1528,291,-50,267,575,-307
1,5793544,599,695,-2574,-1531,295,-52,267,575,-307
1,5793558,599,695,-2574,-1531,295,-52,267,575,-307
1,5793569,604,704,-2579,-1528,288,-53,267,575,-307
1,5793584,606,700,-2587,-1526,290,-55,267,575,-307
1,5793598,606,700,-2587,-1526,290,-55,267,575,-307
1,5793611,616,703,-2579,-1532,300,-51,267,575,-307
1,5793625,612,697,-2571,-1537,321,-58,272,568,-302
1,5793640,612,697,-2571,-1537,321,-58,272,568,-302
1,5793655,606,694,-2577,-1530,342,-55,272,568,-302
1,5793669,615,683,-2584,-1528,344,-50,272,568,-302
1,5793682,615,683,-2584,-1528,344,-50,272,568,-302
1,5793696,627,678,-2595,-1533,347,-53,272,568,-302
1,5793709,626,685,-2606,-1527,351,-46,272,568,-302
1,5793725,627,685,-2606,-1533,346,-44,272,568,-302
1,5793739,627,685,-2606,-1533,346,-44,272,568,-302
1,5793753,636,688,-2570,-1534,340,-50,267,575,-309
1,5793766,636,691,-2538,-1532,353,-51,267,575,-309
1,5793779,636,691,-2538,-1532,353,-51,267,575,-309
1,5793794,633,689,-2559,-1538,356,-54,267,575,-309
1,5793808,646,687,-2625,-1529,361,-51,267,575,-309
1,5793819,646,687,-2625,-1529,361,-51,267,575,-309
1,5793835,653,686,-2613,-1525,364,-50,267,575,-309
1,5793849,648,693,-2541,-1531,373,-54,267,575,-309
1,5793864,655,697,-2538,-1535,377,-50,267,569,-301
1,5793878,655,697,-2538,-1535,377,-50,267,569,-301
1,5793891,661,690,-2606,-1528,372,-56,267,569,-301
1,5793906,662,687,-2602,-1532,370,-54,267,569,-301
1,5793920,662,687,-2602,-1532,370,-54,267,569,-301
1,5793933,667,705,-2547,-1538,371,-55,267,569,-301
1,5793947,670,696,-2563,-1530,381,-63,267,569,-301
1,5793960,670,696,-2563,-1530,381,-63,267,569,-301
1,5793975,670,684,-2606,-1532,387,-55,267,569,-301
1,5793986,679,694,-2573,-1538,386,-57,267,569,-301
1,5793999,679,694,-2573,-1538,386,-57,267,569,-301
1,5794014,683,698,-2554,-1537,399,-58,271,565,-305
1,5794028,682,692,-2591,-1527,421,-59,271,565,-305
1,5794042,682,692,-2591,-1527,421,-59,271,565,-305
1,5794054,691,688,-2575,-1542,425,-57,271,565,-305
1,5794069,693,699,-2560,-1542,428,-59,271,565,-305
1,5794082,693,699,-2560,-1542,428,-59,271,565,-305
1,5794096,696,686,-2578,-1534,440,-53,271,565,-305
1,5794109,698,698,-2572,-1546,439,-55,271,565,-305
1,5794124,711,683,-2561,-1536,444,-57,277,557,-307
1,5794138,711,683,-2561,-1536,444,-57,277,557,-307
1,5794151,706,705,-2568,-1542,451,-60,277,557,-307
1,5794164,717,677,-2576,-1532,454,-59,277,557,-307
1,5794177,717,677,-2576,-1532,454,-59,277,557,-307
1,5794190,723,703,-2576,-1537,454,-59,277,557,-307
1,5794203,723,703,-2576,-1537,454,-59,277,557,-307
1,5794216,725,686,-2568,-1546,464,-52,277,557,-307
1,5794231,723,695,-2579,-1539,476,-58,277,557,-307
1,5794242,723,695,-2579,-1539,476,-58,277,557,-307
1,5794254,733,705,-2564,-1536,476,-60,274,558,-310
1,5794269,739,685,-2565,-1540,482,-57,274,558,-310
1,5794284,733,702,-2563,-1547,489,-56,274,558,-310
1,5794297,733,702,-2563,-1547,489,-56,274,558,-310
1,5794311,741,708,-2563,-1538,492,-47,274,558,-310
1,5794325,755,689,-2556,-1542,486,-60,274,558,-310
1,5794339,755,689,-2556,-1542,486,-60,274,558,-310
1,5794353,752,704,-2564,-1549,484,-64,274,558,-310
1,5794366,756,707,-2567,-1546,492,-62,263,551,-315
1,5794378,756,707,-2567,-1546,492,-62,263,551,-315
1,5794391,765,698,-2566,-1540,505,-64,263,551,-315
1,5794404,769,704,-2566,-1535,507,-57,263,551,-315
1,5794418,769,704,-2566,-1535,507,-57,263,551,-315
1,5794432,771,694,-2557,-1535,509,-57,263,551,-315
1,5794445,775,690,-2563,-1541,508,-52,263,551,-315
1,5794457,775,690,-2563,-1541,508,-52,263,551,-315
1,5794469,780,698,-2569,-1547,515,-59,263,551,-315
1,5794483,780,698,-2569,-1547,515,-59,263,551,-315
1,5794497,786,702,-2559,-1546,533,-54,263,551,-315
1,5794509,780,707,-2550,-1550,548,-54,264,546,-320
1,5794519,780,707,-2550,-1550,548,-54,264,546,-320
1,5794533,785,692,-2557,-1543,550,-55,264,546,-320
1,5794546,806,695,-2558,-1543,550,-58,264,546,-320
1,5794561,806,695,-2558,-1543,550,-58,264,546,-320
1,5794574,805,691,-2557,-1543,556,-61,264,546,-320
1,5794587,806,694,-2555,-1549,571,-63,264,546,-320
1,5794600,806,694,-2555,-1549,571,-63,264,546,-320
1,5794613,820,690,-2557,-1545,584,-64,264,546,-320
1,5794627,820,694,-2553,-1545,593,-62,260,546,-316
1,5794640,820,694,-2553,-1545,593,-62,260,546,-316
1,5794654,824,700,-2547,-1546,603,-62,260,546,-316
1,5794668,832,702,-2549,-1548,604,-56,260,546,-316
1,5794681,832,702,-2549,-1548,604,-56,260,546,-316
1,5794694,836,695,-2548,-1543,604,-58,260,546,-316
1,5794706,840,694,-2546,-1544,606,-53,260,546,-316
1,5794720,840,694,-2546,-1544,606,-53,260,546,-316
1,5794735,847,701,-2547,-1536,609,-58,260,546,-316
1,5794748,858,692,-2536,-1542,594,-64,265,549,-323
1,5794759,858,692,-2536,-1542,594,-64,265,549,-323
1,5794774,858,695,-2536,-1551,587,-63,265,549,-323
1,5794787,850,695,-2558,-1544,579,-60,265,549,-323
1,5794800,850,695,-2558,-1544,579,-60,265,549,-323
1,5794812,868,692,-2557,-1543,586,-62,265,549,-323
1,5794827,878,696,-2545,-1545,605,-63,265,549,-323
1,5794840,878,696,-2545,-1545,605,-63,265,549,-323
1,5794853,861,698,-2549,-1553,611,-56,265,549,-323
1,5794865,883,705,-2531,-1549,615,-59,264,536,-316
1,5794877,883,705,-2531,-1549,615,-59,264,536,-316
1,5794890,892,711,-2525,-1553,614,-59,264,536,-316
1,5794904,892,711,-2525,-1553,614,-59,264,536,-316
1,5794917,876,710,-2537,-1550,612,-68,264,536,-316
1,5794931,876,710,-2537,-1550,612,-68,264,536,-316
1,5794942,876,710,-2537,-1550,612,-68,264,536,-316
1,5794957,900,710,-2534,-1551,633,-62,264,536,-316
1,5794972,897,707,-2534,-1548,644,-54,264,536,-316
1,5794988,907,708,-2528,-1544,661,-56,264,536,-320
1,5795001,907,708,-2528,-1544,661,-56,264,536,-320
1,5795013,914,708,-2530,-1552,667,-64,264,536,-320
1,5795028,915,702,-2530,-1551,675,-60,264,536,-320
1,5795043,915,702,-2530,-1551,675,-60,264,536,-320
1,5795056,927,699,-2537,-1560,685,-62,264,536,-320
1,5795069,934,714,-2524,-1564,689,-67,264,536,-320
1,5795083,934,714,-2524,-1564,689,-67,264,536,-320
1,5795098,929,720,-2517,-1561,696,-63,264,536,-320
1,5795111,942,706,-2531,-1559,710,-64,264,536,-320
1,5795125,952,718,-2516,-1556,716,-66,266,524,-328
1,5795139,952,718,-2516,-1556,716,-66,266,524,-328
1,5795152,947,710,-2514,-1555,718,-63,266,524,-328
1,5795167,958,710,-2515,-1561,720,-64,266,524,-328
1,5795181,958,710,-2515,-1561,720,-64,266,524,-328
1,5795193,966,715,-2511,-1556,714,-56,266,524,-328
1,5795209,966,703,-2518,-1550,706,-59,266,524,-328
1,5795223,966,703,-2518,-1550,706,-59,266,524,-328
1,5795238,966,712,-2513,-1561,704,-60,266,524,-328
1,5795251,984,704,-2515,-1559,712,-62,266,526,-320
1,5795263,984,704,-2515,-1559,712,-62,266,526,-320
1,5795276,984,711,-2514,-1552,715,-64,266,526,-320
1,5795291,986,708,-2511,-1552,728,-59,266,526,-320
1,5795304,986,708,-2511,-1552,728,-59,266,526,-320
1,5795318,986,708,-2511,-1552,728,-59,266,526,-320
1,5795331,992,710,-2513,-1554,731,-58,266,526,-320
1,5795343,992,710,-2513,-1554,731,-58,266,526,-320
1,5795357,1000,709,-2514,-1560,731,-55,266,526,-320
1,5795371,1017,717,-2503,-1561,760,-66,266,514,-324
1,5795385,1014,716,-2497,-1556,770,-68,266,514,-324
1,5795397,1014,716,-2497,-1556,770,-68,266,514,-324
1,5795410,1011,710,-2498,-1560,780,-65,266,514,-324
1,5795426,1028,723,-2494,-1557,786,-57,266,514,-324
1,5795440,1028,723,-2494,-1557,786,-57,266,514,-324
1,5795456,1047,708,-2505,-1552,781,-52,266,514,-324
1,5795467,1031,716,-2484,-1562,786,-53,266,514,-324
1,5795481,1031,716,-2484,-1562,786,-53,266,514,-324
1,5795494,1037,723,-2481,-1566,793,-61,262,518,-326
1,5795508,1056,709,-2504,-1554,791,-60,262,518,-326
1,5795522,1056,709,-2504,-1554,791,-60,262,518,-326
1,5795535,1054,718,-2490,-1553,805,-59,262,518,-326
1,5795552,1060,725,-2478,-1561,810,-69,262,518,-326
1,5795563,1060,725,-2478,-1561,810,-69,262,518,-326
1,5795577,1072,721,-2486,-1564,814,-65,262,518,-326
1,5795593,1073,714,-2489,-1558,824,-64,262,518,-326
1,5795607,1077,718,-2487,-1568,828,-66,262,518,-326
1,5795621,1077,718,-2487,-1568,828,-66,262,518,-326
1,5795634,1089,715,-2479,-1564,827,-61,260,506,-324
1,5795649,1090,721,-2464,-1558,821,-59,260,506,-324
1,5795662,1090,721,-2464,-1558,821,-59,260,506,-324
1,5795676,1100,719,-2469,-1563,820,-62,260,506,-324
1,5795689,1110,719,-2489,-1552,830,-63,260,506,-324
1,5795702,1110,719,-2489,-1552,830,-63,260,506,-324
1,5795716,1108,717,-2480,-1562,840,-64,260,506,-324
1,5795730,1112,724,-2460,-1566,845,-60,260,506,-324
1,5795743,1112,724,-2460,-1566,845,-60,260,506,-324
1,5795757,1123,720,-2454,-1563,842,-63,253,499,-335
1,5795771,1127,719,-2463,-1558,852,-57,253,499,-335
1,5795785,1135,724,-2460,-1561,865,-65,253,499,-335
1,5795796,1135,724,-2460,-1561,865,-65,253,499,-335
1,5795812,1135,727,-2462,-1560,869,-61,253,499,-335
1,5795826,1145,728,-2465,-1566,873,-62,253,499,-335
1,5795840,1145,728,-2465,-1566,873,-62,253,499,-335
1,5795853,1159,724,-2455,-1569,879,-66,253,499,-335
1,5795868,1162,723,-2449,-1567,894,-62,267,499,-325
1,5795884,1162,723,-2449,-1567,894,-62,267,499,-325
1,5795899,1160,726,-2450,-1565,889,-62,267,499,-325
1,5795912,1173,726,-2456,-1571,895,-64,267,499,-325
1,5795926,1187,726,-2444,-1570,913,-67,267,499,-325
1,5795939,1187,726,-2444,-1570,913,-67,267,499,-325
1,5795951,1174,722,-2442,-1574,922,-69,267,499,-325
1,5795964,1187,723,-2437,-1572,928,-65,267,499,-325
1,5795978,1187,723,-2437,-1572,928,-65,267,499,-325
1,5795991,1208,723,-2431,-1564,929,-62,266,486,-328
1,5796004,1208,723,-2431,-1564,929,-62,266,486,-328
1,5796019,1208,723,-2431,-1564,929,-62,266,486,-328
1,5796031,1207,727,-2424,-1570,920,-67,266,486,-328
1,5796045,1222,729,-2425,-1571,928,-69,266,486,-328
1,5796058,1222,729,-2425,-1571,928,-69,266,486,-328
1,5796069,1217,732,-2429,-1568,931,-70,266,486,-328
1,5796082,1217,732,-2429,-1568,931,-70,266,486,-328
1,5796097,1231,731,-2428,-1570,949,-67,266,486,-328
1,5796111,1236,730,-2422,-1575,960,-60,266,486,-328
1,5796125,1234,724,-2419,-1571,955,-63,257,483,-329
1,5796137,1234,724,-2419,-1571,955,-63,257,483,-329
1,5796152,1245,729,-2409,-1568,954,-66,257,483,-329
1,5796166,1258,736,-2401,-1569,960,-71,257,483,-329
1,5796179,1258,736,-2401,-1569,960,-71,257,483,-329
1,5796193,1256,736,-2413,-1571,968,-63,257,483,-329
1,5796205,1263,735,-2408,-1571,978,-51,257,483,-329
1,5796218,1263,735,-2408,-1571,978,-51,257,483,-329
1,5796233,1274,732,-2403,-1574,979,-65,257,483,-329
1,5796246,1280,733,-2396,-1572,979,-72,266,478,-330
1,5796260,1280,733,-2396,-1572,979,-72,266,478,-330
1,5796274,1285,732,-2400,-1574,993,-69,266,478,-330
1,5796288,1298,737,-2392,-1576,995,-66,266,478,-330
1,5796299,1298,737,-2392,-1576,995,-66,266,478,-330
1,5796315,1296,731,-2388,-1570,998,-75,266,478,-330
1,5796325,1307,737,-2382,-1568,1004,-71,266,478,-330
1,5796335,1307,737,-2382,-1568,1004,-71,266,478,-330
1,5796347,1314,738,-2370,-1571,995,-66,266,478,-330
1,5796362,1314,738,-2370,-1571,995,-66,266,478,-330
1,5796375,1319,732,-2369,-1572,994,-69,264,472,-336
1,5796387,1328,733,-2373,-1580,990,-68,264,472,-336
1,5796403,1328,733,-2373,-1580,990,-68,264,472,-336
1,5796416,1336,731,-2361,-1571,988,-59,264,472,-336
1,5796429,1340,736,-2372,-1569,985,-61,264,472,-336
1,5796444,1340,736,-2372,-1569,985,-61,264,472,-336
1,5796457,1351,747,-2362,-1572,987,-67,264,472,-336
1,5796471,1356,734,-2361,-1569,986,-76,264,472,-336
1,5796484,1356,734,-2361,-1569,986,-76,264,472,-336
1,5796497,1357,743,-2364,-1574,974,-70,251,469,-329
1,5796510,1365,740,-2353,-1578,965,-65,251,469,-329
1,5796523,1365,740,-2353,-1578,965,-65,251,469,-329
1,5796533,1369,741,-2345,-1579,957,-64,251,469,-329
1,5796547,1372,741,-2338,-1573,961,-66,251,469,-329
1,5796561,1372,741,-2338,-1573,961,-66,251,469,-329
1,5796574,1383,739,-2351,-1574,963,-63,251,469,-329
1,5796589,1386,741,-2353,-1578,969,-71,251,469,-329
1,5796605,1395,737,-2337,-1569,978,-68,261,463,-335
1,5796622,1395,737,-2337,-1569,978,-68,261,463,-335
1,5796636,1398,741,-2337,-1569,991,-61,261,463,-335
1,5796651,1406,746,-2337,-1575,993,-65,261,463,-335
1,5796664,1406,746,-2337,-1575,993,-65,261,463,-335
1,5796677,1424,741,-2326,-1571,1006,-69,261,463,-335
1,5796690,1420,738,-2331,-1572,1018,-72,261,463,-335
1,5796705,1425,744,-2317,-1584,1016,-76,261,463,-335
1,5796718,1425,744,-2317,-1584,1016,-76,261,463,-335
1,5796730,1439,742,-2305,-1576,1006,-73,261,463,-335
1,5796745,1439,742,-2305,-1576,1006,-73,261,463,-335
1,5796759,1441,739,-2313,-1578,1003,-69,266,452,-338
1,5796772,1443,744,-2314,-1573,1000,-67,266,452,-338
1,5796785,1443,744,-2314,-1573,1000,-67,266,452,-338
1,5796799,1459,735,-2298,-1570,991,-62,266,452,-338
1,5796808,1463,748,-2300,-1562,977,-67,266,452,-338
1,5796824,1463,748,-2300,-1562,977,-67,266,452,-338
1,5796839,1462,742,-2298,-1570,972,-72,266,452,-338
1,5796852,1470,742,-2305,-1568,976,-68,266,452,-338
1,5796866,1483,746,-2295,-1565,979,-66,260,448,-342
1,5796879,1483,746,-2295,-1565,979,-66,260,448,-342
1,5796890,1477,749,-2286,-1584,982,-69,260,448,-342
1,5796905,1493,744,-2277,-1572,987,-71,260,448,-342
1,5796919,1493,744,-2277,-1572,987,-71,260,448,-342
1,5796933,1504,752,-2281,-1574,975,-65,260,448,-342
1,5796946,1501,749,-2281,-1571,963,-69,260,448,-342
1,5796960,1501,749,-2281,-1571,963,-69,260,448,-342
1,5796973,1505,747,-2268,-1571,959,-69,260,448,-342
1,5796985,1513,745,-2262,-1570,960,-65,267,435,-337
1,5797001,1513,745,-2262,-1570,960,-65,267,435,-337
1,5797016,1517,750,-2273,-1573,967,-73,267,435,-337
1,5797031,1529,748,-2264,-1575,973,-70,267,435,-337
1,5797042,1529,748,-2264,-1575,973,-70,267,435,-337
1,5797056,1533,754,-2259,-1566,973,-74,267,435,-337
1,5797070,1538,746,-2248,-1561,973,-67,267,435,-337
1,5797084,1538,746,-2248,-1561,973,-67,267,435,-337
1,5797097,1543,750,-2242,-1568,975,-69,267,435,-337
1,5797109,1543,750,-2242,-1568,975,-69,264,428,-332
1,5797125,1543,750,-2242,-1568,975,-69,264,428,-332
1,5797140,1551,756,-2237,-1570,977,-62,264,428,-332
1,5797155,1569,747,-2234,-1568,986,-65,264,428,-332
1,5797170,1559,747,-2244,-1576,991,-68,264,428,-332
1,5797183,1559,747,-2244,-1576,991,-68,264,428,-332
1,5797197,1570,749,-2229,-1573,995,-70,264,428,-332
1,5797212,1587,751,-2221,-1572,1013,-66,264,428,-332
1,5797223,1587,751,-2221,-1572,1013,-66,264,428,-332
1,5797237,1580,755,-2228,-1576,1009,-69,264,428,-332
1,5797252,1586,752,-2214,-1574,1013,-67,262,420,-338
1,5797267,1604,760,-2204,-1572,1001,-64,262,420,-338
1,5797283,1604,760,-2204,-1572,1001,-64,262,420,-338
1,5797293,1602,753,-2203,-1577,994,-67,262,420,-338
1,5797307,1607,754,-2206,-1566,994,-65,262,420,-338
1,5797320,1607,754,-2206,-1566,994,-65,262,420,-338
1,5797334,1621,755,-2199,-1566,990,-67,262,420,-338
1,5797348,1617,749,-2198,-1576,997,-65,262,420,-338
1,5797362,1617,749,-2198,-1576,997,-65,262,420,-338
1,5797373,1629,765,-2191,-1582,995,-68,264,426,-336
1,5797388,1635,759,-2177,-1575,998,-64,264,426,-336
1,5797401,1635,759,-2177,-1575,998,-64,264,426,-336
1,5797414,1634,757,-2190,-1572,1000,-61,264,426,-336
1,5797430,1647,761,-2175,-1573,1001,-65,264,426,-336
1,5797443,1647,761,-2175,-1573,1001,-65,264,426,-336
1,5797456,1647,758,-2168,-1571,997,-63,264,426,-336
1,5797471,1652,755,-2173,-1572,995,-68,264,426,-336
1,5797486,1670,764,-2162,-1576,1003,-72,251,409,-339
1,5797501,1670,764,-2162,-1576,1003,-72,251,409,-339
1,5797516,1667,759,-2159,-1567,999,-72,251,409,-339
1,5797532,1671,764,-2156,-1575,1000,-70,251,409,-339
1,5797543,1671,764,-2156,-1575,1000,-70,251,409,-339
1,5797556,1684,765,-2147,-1570,998,-62,251,409,-339
1,5797569,1681,762,-2149,-1570,999,-67,251,409,-339
1,5797583,1681,762,-2149,-1570,999,-67,251,409,-339
1,5797598,1688,761,-2142,-1575,998,-62,251,409,-339
1,5797610,1699,762,-2126,-1573,994,-65,263,413,-335
1,5797622,1699,762,-2126,-1573,994,-65,263,413,-335
1,5797637,1701,761,-2125,-1574,984,-64,263,413,-335
1,5797648,1704,763,-2129,-1570,983,-63,263,413,-335
1,5797661,1704,763,-2129,-1570,983,-63,263,413,-335
1,5797673,1715,764,-2116,-1569,980,-65,263,413,-335
1,5797688,1721,760,-2110,-1574,975,-66,263,413,-335
1,5797704,1721,760,-2110,-1574,975,-66,263,413,-335
1,5797720,1718,762,-2122,-1575,963,-66,263,413,-335
1,5797734,1731,763,-2115,-1572,966,-71,263,413,-335
1,5797746,1739,767,-2100,-1566,971,-72,254,396,-336
1,5797761,1739,767,-2100,-1566,971,-72,254,396,-336
1,5797775,1739,762,-2106,-1570,968,-65,254,396,-336
1,5797788,1747,763,-2094,-1567,964,-67,254,396,-336
1,5797803,1747,763,-2094,-1567,964,-67,254,396,-336
1,5797817,1756,767,-2079,-1569,950,-71,254,396,-336
1,5797829,1757,766,-2082,-1572,942,-65,254,396,-336
1,5797844,1757,766,-2082,-1572,942,-65,254,396,-336
1,5797857,1755,766,-2093,-1576,943,-57,254,396,-336
1,5797871,1766,767,-2086,-1567,957,-67,258,390,-336
1,5797884,1766,767,-2086,-1567,957,-67,258,390,-336
1,5797899,1773,763,-2070,-1573,962,-64,258,390,-336
1,5797912,1775,771,-2063,-1570,970,-66,258,390,-336
1,5797924,1775,771,-2063,-1570,970,-66,258,390,-336
1,5797940,1778,768,-2063,-1575,974,-62,258,390,-336
1,5797955,1786,767,-2067,-1574,979,-72,258,390,-336
1,5797968,1796,769,-2062,-1564,987,-60,258,390,-336
1,5797980,1796,769,-2062,-1564,987,-60,258,390,-336
1,5797994,1793,766,-2044,-1570,1002,-68,253,385,-333
1,5798008,1803,770,-2045,-1568,1005,-74,253,385,-333
1,5798022,1803,770,-2045,-1568,1005,-74,253,385,-333
1,5798036,1812,772,-2037,-1575,1003,-66,253,385,-333
1,5798047,1810,770,-2034,-1580,1010,-64,253,385,-333
1,5798061,1810,770,-2034,-1580,1010,-64,253,385,-333
1,5798075,1818,774,-2028,-1578,1010,-67,253,385,-333
1,5798088,1824,768,-2019,-1576,1005,-69,253,385,-333
1,5798103,1824,768,-2019,-1576,1005,-69,253,385,-333
1,5798117,1827,767,-2020,-1577,1010,-61,257,375,-335
1,5798127,1837,776,-2022,-1574,1018,-63,257,375,-335
1,5798141,1837,776,-2022,-1574,1018,-63,257,375,-335
1,5798157,1842,771,-2004,-1579,1026,-77,257,375,-335
1,5798172,1843,777,-2007,-1574,1027,-65,257,375,-335
1,5798188,1854,771,-2000,-1577,1025,-70,257,375,-335
1,5798202,1854,771,-2000,-1577,1025,-70,257,375,-335
1,5798214,1865,760,-1988,-1580,1008,-68,257,375,-335
1,5798226,1869,775,-1988,-1572,998,-70,257,375,-335
1,5798241,1869,775,-1988,-1572,998,-70,257,375,-335
1,5798254,1867,773,-1974,-1571,977,-67,267,375,-335
1,5798268,1873,775,-1966,-1572,964,-67,267,375,-335
1,5798281,1873,775,-1966,-1572,964,-67,267,375,-335
1,5798295,1877,777,-1976,-1568,947,-68,267,375,-335
1,5798308,1879,773,-1973,-1567,946,-63,267,375,-335
1,5798325,1879,773,-1973,-1567,946,-63,267,375,-335
1,5798340,1880,777,-1967,-1563,951,-63,267,375,-335
1,5798355,1900,778,-1955,-1569,958,-60,267,375,-335
1,5798370,1895,779,-1946,-1570,966,-56,259,363,-329
1,5798381,1895,779,-1946,-1570,966,-56,259,363,-329
1,5798396,1896,780,-1952,-1565,975,-56,259,363,-329
1,5798410,1909,776,-1939,-1563,972,-61,259,363,-329
1,5798422,1909,776,-1939,-1563,972,-61,259,363,-329
1,5798438,1908,776,-1939,-1574,962,-67,259,363,-329
1,5798452,1909,787,-1932,-1579,966,-68,259,363,-329
1,5798463,1909,787,-1932,-1579,966,-68,259,363,-329
1,5798476,1925,784,-1921,-1571,977,-71,259,363,-329
1,5798491,1925,781,-1923,-1565,991,-65,249,365,-331
1,5798504,1925,781,-1923,-1565,991,-65,249,365,-331
1,5798518,1929,779,-1917,-1574,984,-71,249,365,-331
1,5798534,1942,781,-1900,-1573,988,-69,249,365,-331
1,5798548,1941,782,-1896,-1568,979,-63,249,365,-331
1,5798555,1941,782,-1896,-1568,979,-63,249,365,-331
1,5798568,1944,780,-1892,-1568,966,-65,249,365,-331
1,5798584,1944,780,-1892,-1568,966,-65,249,365,-331
1,5798599,1951,781,-1892,-1569,957,-68,249,365,-331
1,5798615,1952,781,-1900,-1571,961,-69,260,348,-336
1,5798631,1962,781,-1882,-1576,975,-70,260,348,-336
1,5798644,1962,781,-1882,-1576,975,-70,260,348,-336
1,5798659,1967,785,-1864,-1572,989,-71,260,348,-336
1,5798672,1964,783,-1874,-1572,996,-71,260,348,-336
1,5798686,1972,781,-1870,-1572,990,-71,260,348,-336
1,5798700,1972,781,-1870,-1572,990,-71,260,348,-336
1,5798712,1981,777,-1861,-1569,987,-62,260,348,-336
1,5798725,1981,777,-1861,-1569,987,-62,260,348,-336
1,5798736,1984,783,-1846,-1567,977,-63,258,348,-328
1,5798752,1985,784,-1848,-1567,970,-62,258,348,-328
1,5798765,1985,784,-1848,-1567,970,-62,258,348,-328
1,5798778,1990,791,-1849,-1565,965,-62,258,348,-328
1,5798794,1987,785,-1845,-1565,966,-64,258,348,-328
1,5798808,2003,782,-1827,-1565,982,-70,258,348,-328
1,5798823,2003,782,-1827,-1565,982,-70,258,348,-328
1,5798837,2002,786,-1835,-1568,988,-67,258,348,-328
1,5798849,2002,785,-1824,-1565,993,-69,258,348,-328
1,5798863,2002,785,-1824,-1565,993,-69,258,348,-328
1,5798877,2019,785,-1811,-1569,990,-68,251,341,-321
1,5798890,2022,785,-1806,-1577,985,-65,251,341,-321
1,5798904,2022,785,-1806,-1577,985,-65,251,341,-321
1,5798919,2021,785,-1805,-1575,979,-65,251,341,-321
1,5798931,2027,782,-1801,-1569,980,-62,251,341,-321
1,5798944,2027,782,-1801,-1569,980,-62,251,341,-321
1,5798960,2038,796,-1799,-1567,980,-73,251,341,-321
1,5798975,2033,788,-1790,-1567,987,-66,251,341,-321
1,5798989,2039,786,-1773,-1571,996,-68,258,334,-322
1,5799003,2039,786,-1773,-1571,996,-68,258,334,-322
1,5799017,2047,785,-1770,-1578,989,-74,258,334,-322
1,5799032,2047,783,-1761,-1569,983,-69,258,334,-322
1,5799046,2056,789,-1752,-1571,983,-66,258,334,-322
1,5799060,2056,789,-1752,-1571,983,-66,258,334,-322
1,5799073,2060,789,-1762,-1577,969,-72,258,334,-322
1,5799087,2063,785,-1755,-1566,971,-66,258,334,-322
1,5799097,2063,785,-1755,-1566,971,-66,258,334,-322
1,5799110,2069,789,-1740,-1560,963,-76,254,334,-316
1,5799124,2069,789,-1740,-1560,963,-76,254,334,-316
1,5799139,2070,793,-1745,-1568,959,-72,254,334,-316
1,5799154,2075,789,-1735,-1571,965,-65,254,334,-316
1,5799166,2075,789,-1735,-1571,965,-65,254,334,-316
1,5799181,2075,789,-1735,-1571,965,-65,254,334,-316
1,5799193,2081,795,-1727,-1567,975,-67,254,334,-316
1,5799207,2086,789,-1714,-1571,974,-71,254,334,-316
1,5799221,2086,789,-1714,-1571,974,-71,254,334,-316
1,5799236,2089,796,-1706,-1570,969,-72,254,326,-316
1,5799250,2094,792,-1700,-1571,974,-65,254,326,-316
1,5799265,2094,792,-1700,-1571,974,-65,254,326,-316
1,5799278,2105,791,-1696,-1569,983,-73,254,326,-316
1,5799292,2104,796,-1700,-1566,989,-66,254,326,-316
1,5799305,2104,796,-1700,-1566,989,-66,254,326,-316
1,5799317,2105,791,-1691,-1570,985,-68,254,326,-316
1,5799330,2116,791,-1673,-1572,981,-63,254,326,-316
1,5799345,2116,791,-1673,-1572,981,-63,254,326,-316
1,5799358,2117,794,-1688,-1571,977,-62,254,326,-316
1,5799370,2113,799,-1672,-1572,975,-65,263,325,-319
1,5799383,2113,799,-1672,-1572,975,-65,263,325,-319
1,5799397,2125,793,-1650,-1568,978,-67,263,325,-319
1,5799410,2133,800,-1659,-1567,985,-71,263,325,-319
1,5799425,2133,800,-1659,-1567,985,-71,263,325,-319
1,5799440,2124,795,-1659,-1565,985,-71,263,325,-319
1,5799451,2138,788,-1636,-1576,989,-73,263,325,-319
1,5799465,2138,788,-1636,-1576,989,-73,263,325,-319
1,5799480,2145,797,-1648,-1576,988,-74,263,325,-319
1,5799494,2141,796,-1637,-1572,988,-73,250,322,-316
1,5799507,2148,793,-1621,-1577,997,-72,250,322,-316
1,5799520,2148,793,-1621,-1577,997,-72,250,322,-316
1,5799533,2153,805,-1633,-1575,998,-73,250,322,-316
1,5799547,2152,800,-1619,-1574,989,-70,250,322,-316
1,5799559,2152,800,-1619,-1574,989,-70,250,322,-316
1,5799573,2159,795,-1611,-1569,994,-71,250,322,-316
1,5799584,2159,795,-1611,-1569,994,-71,250,322,-316
1,5799599,2165,805,-1613,-1563,1001,-72,250,322,-316
1,5799612,2166,799,-1584,-1567,1000,-70,255,313,-309
1,5799626,2170,793,-1582,-1574,991,-74,255,313,-309
1,5799641,2170,793,-1582,-1574,991,-74,255,313,-309
1,5799656,2179,802,-1598,-1575,987,-66,255,313,-309
1,5799668,2178,800,-1577,-1575,979,-72,255,313,-309
1,5799683,2178,800,-1577,-1575,979,-72,255,313,-309
1,5799698,2180,799,-1564,-1576,976,-67,255,313,-309
1,5799712,2185,805,-1573,-1576,974,-67,255,313,-309
1,5799727,2188,803,-1556,-1569,985,-65,249,307,-299
1,5799739,2188,803,-1556,-1569,985,-65,249,307,-299
1,5799752,2186,790,-1554,-1565,983,-65,249,307,-299
1,5799766,2197,803,-1551,-1568,984,-67,249,307,-299
1,5799779,2197,803,-1551,-1568,984,-67,249,307,-299
1,5799793,2197,799,-1534,-1564,983,-66,249,307,-299
1,5799805,2197,799,-1534,-1564,983,-66,249,307,-299
1,5799818,2200,803,-1533,-1568,982,-63,249,307,-299
1,5799831,2210,801,-1526,-1574,982,-66,249,307,-299
1,5799845,2210,801,-1526,-1574,982,-66,249,307,-299
1,5799860,2209,802,-1534,-1573,986,-68,249,307,-299
1,5799874,2211,798,-1508,-1576,976,-72,259,303,-303
1,5799887,2217,803,-1506,-1570,977,-67,259,303,-303
1,5799901,2217,803,-1506,-1570,977,-67,259,303,-303
1,5799915,2221,808,-1515,-1582,978,-71,259,303,-303
1,5799930,2219,806,-1504,-1567,979,-66,259,303,-303
1,5799943,2219,806,-1504,-1567,979,-66,259,303,-303
1,5799955,2225,799,-1478,-1569,973,-69,259,303,-303
1,5799970,2231,805,-1490,-1573,975,-64,259,303,-303
1,5799984,2231,805,-1490,-1573,975,-64,259,303,-303
1,5799997,2230,808,-1479,-1566,975,-68,252,300,-300
1,5800010,2237,802,-1462,-1570,975,-63,252,300,-300
1,5800022,2237,802,-1462,-1570,975,-63,252,300,-300
1,5800035,2241,803,-1467,-1570,974,-73,252,300,-300
1,5800048,2244,807,-1462,-1576,969,-71,252,300,-300
1,5800062,2244,807,-1462,-1576,969,-71,252,300,-300
1,5800077,2246,802,-1450,-1569,970,-62,252,300,-300
1,5800090,2249,802,-1447,-1566,968,-65,252,300,-300
1,5800102,2249,802,-1447,-1566,968,-65,252,300,-300
1,5800118,2251,806,-1448,-1568,971,-62,251,297,-299
1,5800132,2250,807,-1430,-1571,978,-62,251,297,-299
1,5800147,2256,798,-1422,-1567,988,-70,251,297,-299
1,5800161,2256,798,-1422,-1567,988,-70,251,297,-299
1,5800174,2258,804,-1415,-1571,982,-62,251,297,-299
1,5800190,2267,806,-1410,-1568,980,-66,251,297,-299
1,5800205,2267,806,-1410,-1568,980,-66,251,297,-299
1,5800219,2272,807,-1402,-1567,963,-68,251,297,-299
1,5800232,2269,803,-1393,-1572,958,-69,241,285,-293
1,5800247,2276,808,-1402,-1564,956,-63,241,285,-293
1,5800258,2276,808,-1402,-1564,956,-63,241,285,-293
1,5800271,2278,811,-1391,-1566,961,-65,241,285,-293
1,5800285,2278,811,-1391,-1566,961,-65,241,285,-293
1,5800300,2275,808,-1378,-1563,972,-68,241,285,-293
1,5800313,2284,810,-1371,-1566,983,-65,241,285,-293
1,5800328,2283,806,-1376,-1570,978,-62,241,285,-293
1,5800340,2283,806,-1376,-1570,978,-62,241,285,-293
1,5800354,2286,809,-1365,-1576,979,-67,256,288,-290
1,5800369,2296,806,-1341,-1576,975,-63,256,288,-290
1,5800383,2296,806,-1341,-1576,975,-63,256,288,-290
1,5800396,2299,811,-1341,-1571,965,-65,256,288,-290
1,5800411,2301,807,-1349,-1563,958,-66,256,288,-290
1,5800426,2302,814,-1336,-1568,950,-65,256,288,-290
1,5800440,2302,814,-1336,-1568,950,-65,256,288,-290
1,5800455,2303,806,-1331,-1564,944,-64,256,288,-290
1,5800463,2303,806,-1331,-1564,944,-64,256,288,-290
1,5800471,2305,805,-1315,-1568,946,-72,256,288,-290
1,5800484,2305,805,-1315,-1568,946,-72,256,288,-290
1,5800498,2310,812,-1301,-1567,949,-63,243,279,-287
1,5800507,2312,810,-1307,-1569,950,-64,243,279,-287
1,5800515,2312,810,-1307,-1569,950,-64,243,279,-287
1,5800524,2312,810,-1307,-1569,950,-64,243,279,-287
1,5800537,2315,811,-1289,-1570,935,-61,243,279,-287
1,5800551,2323,809,-1286,-1569,921,-63,243,279,-287
1,5800564,2323,809,-1286,-1569,921,-63,243,279,-287
1,5800579,2322,811,-1288,-1569,902,-61,243,279,-287
1,5800592,2325,812,-1289,-1569,876,-56,243,279,-287
1,5800605,2325,812,-1289,-1569,876,-56,243,279,-287
