imu,time,ax,ay,az,gx,gy,gz,mx,my,mz
1,2492678,2469,893,1140,3420,18,-43,219,227,-75
1,2492686,2457,897,1142,3419,19,-50,219,227,-75
1,2492695,2457,897,1142,3419,19,-50,219,227,-75
1,2492704,2457,897,1142,3419,19,-50,219,227,-75
1,2492712,2477,884,1138,3421,25,-51,219,227,-75
1,2492722,2477,884,1138,3421,25,-51,219,227,-75
1,2492733,2461,875,1147,3438,23,-56,219,227,-75
1,2492741,2461,875,1147,3438,23,-56,219,227,-75
1,2492750,2471,878,1143,3440,23,-50,227,229,-81
1,2492759,2471,878,1143,3440,23,-50,227,229,-81
1,2492773,2461,868,1149,3450,14,-46,227,229,-81
1,2492786,2471,866,1141,3445,20,-43,227,229,-81
1,2492801,2471,866,1141,3445,20,-43,227,229,-81
1,2492814,2467,846,1152,3444,25,-42,227,229,-81
1,2492828,2471,854,1150,3440,26,-50,227,229,-81
1,2492841,2471,854,1150,3440,26,-50,227,229,-81
1,2492856,2471,842,1146,3440,25,-52,227,229,-81
1,2492869,2471,849,1146,3441,25,-52,231,225,-91
1,2492884,2471,849,1146,3441,25,-52,231,225,-91
1,2492900,2472,842,1143,3445,22,-54,231,225,-91
1,2492914,2466,842,1149,3438,20,-47,231,225,-91
1,2492922,2466,842,1149,3438,20,-47,231,225,-91
1,2492934,2472,842,1145,3437,24,-54,231,225,-91
1,2492941,2472,842,1145,3437,24,-54,231,225,-91
1,2492949,2464,848,1147,3437,29,-55,231,225,-91
1,2492957,2464,848,1147,3437,29,-55,231,225,-91
1,2492965,2470,848,1146,3445,23,-48,231,225,-91
1,2492974,2470,848,1146,3445,23,-48,231,225,-91
1,2492982,2470,848,1146,3445,23,-48,231,225,-91
1,2492990,2466,844,1155,3444,23,-52,227,229,-103
1,2492998,2466,844,1155,3444,23,-52,227,229,-103
1,2493004,2466,844,1155,3444,23,-52,227,229,-103
1,2493010,2473,840,1149,3436,17,-50,227,229,-103
1,2493017,2473,840,1149,3436,17,-50,227,229,-103
1,2493022,2473,840,1149,3436,17,-50,227,229,-103
1,2493029,2469,851,1149,3435,16,-49,227,229,-103
1,2493035,2469,851,1149,3435,16,-49,227,229,-103
1,2493040,2469,851,1149,3435,16,-49,227,229,-103
1,2493046,2476,846,1149,3442,16,-41,227,229,-103
1,2493052,2476,846,1149,3442,16,-41,227,229,-103
1,2493059,2476,846,1149,3442,16,-41,227,229,-103
1,2493065,2470,845,1149,3437,17,-39,227,229,-103
1,2493071,2470,845,1149,3437,17,-39,227,229,-103
1,2493077,2470,845,1149,3437,17,-39,227,229,-103
1,2493083,2470,845,1149,3437,17,-39,227,229,-103
1,2493088,2471,844,1151,3432,14,-43,227,229,-103
1,2493094,2471,844,1151,3432,14,-43,227,229,-103
1,2493101,2471,844,1151,3432,14,-43,227,229,-103
1,2493109,2471,849,1146,3445,21,-59,230,226,-106
1,2493117,2471,849,1146,3445,21,-59,230,226,-106
1,2493123,2471,849,1146,3445,21,-59,230,226,-106
1,2493130,2468,844,1148,3440,15,-51,230,226,-106
1,2493137,2468,844,1148,3440,15,-51,230,226,-106
1,2493147,2466,849,1144,3443,16,-47,230,226,-106
1,2493156,2466,849,1144,3443,16,-47,230,226,-106
1,2493164,2466,849,1144,3443,16,-47,230,226,-106
1,2493173,2468,844,1150,3439,20,-38,230,226,-106
1,2493181,2468,844,1150,3439,20,-38,230,226,-106
1,2493195,2472,844,1149,3438,27,-39,230,226,-106
1,2493210,2471,840,1149,3435,20,-42,230,226,-106
1,2493225,2470,844,1144,3439,27,-42,230,226,-106
1,2493241,2470,844,1144,3439,27,-42,230,226,-106
1,2493254,2473,835,1152,3440,24,-43,226,226,-106
1,2493265,2471,826,1149,3448,23,-42,226,226,-106
1,2493279,2471,826,1149,3448,23,-42,226,226,-106
1,2493292,2472,828,1145,3443,15,-48,226,226,-106
1,2493306,2469,830,1142,3446,22,-45,226,226,-106
1,2493321,2469,830,1142,3446,22,-45,226,226,-106
1,2493332,2474,832,1147,3442,26,-46,226,226,-106
1,2493345,2467,815,1153,3439,21,-53,226,226,-106
1,2493359,2467,815,1153,3439,21,-53,226,226,-106
1,2493373,2473,825,1142,3440,24,-48,226,216,-104
1,2493387,2471,814,1152,3432,25,-42,226,216,-104
1,2493400,2471,814,1152,3432,25,-42,226,216,-104
1,2493413,2471,814,1152,3432,25,-42,226,216,-104
1,2493428,2469,814,1144,3434,19,-40,226,216,-104
1,2493444,2469,814,1144,3434,19,-40,226,216,-104
1,2493458,2470,833,1140,3437,25,-52,226,216,-104
1,2493470,2477,822,1145,3431,22,-42,226,216,-104
1,2493484,2477,822,1145,3431,22,-42,226,216,-104
1,2493499,2470,832,1144,3430,15,-55,220,218,-112
1,2493512,2475,829,1142,3433,21,-48,220,218,-112
1,2493527,2467,852,1143,3432,21,-48,220,218,-112
1,2493540,2467,852,1143,3432,21,-48,220,218,-112
1,2493553,2473,826,1142,3429,21,-45,220,218,-112
1,2493565,2466,836,1139,3428,20,-47,220,218,-112
1,2493580,2466,836,1139,3428,20,-47,220,218,-112
1,2493593,2474,839,1136,3418,20,-57,220,218,-112
1,2493602,2474,839,1136,3418,20,-57,220,218,-112
1,2493614,2466,836,1147,3430,13,-52,223,217,-125
1,2493629,2471,833,1140,3431,15,-49,223,217,-125
1,2493642,2471,833,1140,3431,15,-49,223,217,-125
1,2493651,2469,836,1135,3430,13,-50,223,217,-125
1,2493660,2469,836,1135,3430,13,-50,223,217,-125
1,2493669,2472,846,1144,3431,19,-48,223,217,-125
1,2493677,2472,846,1144,3431,19,-48,223,217,-125
1,2493690,2469,840,1147,3435,14,-45,223,217,-125
1,2493703,2469,840,1147,3435,14,-45,223,217,-125
1,2493717,2467,855,1136,3428,21,-49,223,217,-125
1,2493730,2470,848,1139,3424,29,-48,223,217,-125
1,2493745,2470,848,1139,3424,29,-48,223,217,-125
1,2493759,2469,857,1147,3424,29,-50,230,220,-128
1,2493770,2468,863,1142,3427,16,-54,230,220,-128
1,2493784,2468,863,1142,3427,16,-54,230,220,-128
1,2493798,2460,864,1142,3425,21,-46,230,220,-128
1,2493811,2472,846,1141,3425,21,-53,230,220,-128
1,2493826,2469,851,1143,3424,20,-51,230,220,-128
1,2493840,2469,851,1143,3424,20,-51,230,220,-128
1,2493854,2472,857,1138,3431,21,-51,230,220,-128
1,2493865,2466,860,1147,3435,23,-46,227,213,-135
1,2493880,2466,860,1147,3435,23,-46,227,213,-135
1,2493892,2468,866,1147,3430,19,-42,227,213,-135
1,2493906,2468,869,1143,3429,16,-44,227,213,-135
1,2493920,2468,869,1143,3429,16,-44,227,213,-135
1,2493933,2467,874,1145,3434,14,-52,227,213,-135
1,2493941,2467,874,1145,3434,14,-52,227,213,-135
1,2493949,2465,880,1145,3427,17,-48,227,213,-135
1,2493964,2465,880,1145,3427,17,-48,227,213,-135
1,2493978,2467,868,1149,3430,24,-56,227,213,-135
1,2493991,2472,866,1149,3434,25,-51,238,220,-144
1,2494004,2472,866,1149,3434,25,-51,238,220,-144
1,2494018,2469,850,1154,3435,21,-41,238,220,-144
1,2494031,2472,860,1146,3443,24,-42,238,220,-144
1,2494046,2470,864,1155,3438,22,-48,238,220,-144
1,2494060,2470,864,1155,3438,22,-48,238,220,-144
1,2494075,2472,857,1150,3440,21,-52,238,220,-144
1,2494090,2466,855,1149,3439,17,-51,238,220,-144
1,2494104,2466,855,1149,3439,17,-51,238,220,-144
1,2494117,2470,857,1153,3445,18,-45,248,226,-150
1,2494132,2467,850,1150,3443,24,-46,248,226,-150
1,2494145,2469,853,1145,3444,17,-55,248,226,-150
1,2494159,2469,853,1145,3444,17,-55,248,226,-150
1,2494172,2471,839,1153,3442,17,-51,248,226,-150
1,2494184,2471,839,1153,3442,17,-51,248,226,-150
1,2494199,2471,839,1153,3442,17,-51,248,226,-150
1,2494214,2471,837,1148,3448,24,-47,248,226,-150
1,2494228,2472,805,1152,3450,17,-53,256,218,-156
1,2494240,2472,805,1152,3450,17,-53,256,218,-156
1,2494255,2477,840,1154,3441,25,-48,256,218,-156
1,2494270,2471,827,1151,3446,28,-44,256,218,-156
1,2494283,2471,827,1151,3446,28,-44,256,218,-156
1,2494297,2468,818,1152,3445,21,-50,256,218,-156
1,2494311,2477,808,1146,3443,10,-53,256,218,-156
1,2494325,2477,808,1146,3443,10,-53,256,218,-156
1,2494340,2473,813,1152,3439,23,-52,256,218,-156
1,2494352,2477,806,1143,3438,26,-51,256,218,-156
1,2494365,2471,807,1153,3434,19,-55,274,218,-158
1,2494380,2471,807,1153,3434,19,-55,274,218,-158
1,2494394,2475,814,1141,3435,22,-52,274,218,-158
1,2494407,2473,829,1151,3431,25,-52,274,218,-158
1,2494417,2473,829,1151,3431,25,-52,274,218,-158
1,2494433,2472,816,1147,3438,14,-47,274,218,-158
1,2494447,2468,822,1140,3429,11,-58,274,218,-158
1,2494461,2468,822,1140,3429,11,-58,274,218,-158
1,2494474,2474,821,1138,3427,21,-53,274,218,-158
1,2494488,2471,824,1146,3425,27,-47,265,217,-157
1,2494503,2471,824,1146,3425,27,-47,265,217,-157
1,2494518,2466,820,1142,3428,20,-57,265,217,-157
1,2494532,2470,829,1131,3424,21,-52,265,217,-157
1,2494545,2473,828,1138,3427,26,-53,265,217,-157
1,2494560,2473,828,1138,3427,26,-53,265,217,-157
1,2494571,2470,834,1141,3429,22,-56,265,217,-157
1,2494584,2470,834,1141,3429,22,-56,265,217,-157
1,2494599,2467,846,1141,3424,19,-49,265,217,-157
1,2494612,2470,835,1139,3424,17,-43,274,216,-152
1,2494627,2472,831,1143,3420,19,-53,274,216,-152
1,2494638,2472,831,1143,3420,19,-53,274,216,-152
1,2494653,2475,844,1142,3425,18,-52,274,216,-152
1,2494666,2463,844,1135,3423,20,-51,274,216,-152
1,2494681,2463,844,1135,3423,20,-51,274,216,-152
1,2494692,2474,849,1133,3428,20,-36,274,216,-152
1,2494705,2474,849,1133,3428,20,-36,274,216,-152
1,2494718,2474,849,1133,3428,20,-36,274,216,-152
1,2494733,2470,853,1139,3428,17,-47,283,221,-161
1,2494747,2470,864,1137,3424,19,-45,283,221,-161
1,2494761,2470,864,1137,3424,19,-45,283,221,-161
1,2494774,2466,875,1142,3421,13,-49,283,221,-161
1,2494787,2474,869,1140,3420,17,-54,283,221,-161
1,2494800,2474,869,1140,3420,17,-54,283,221,-161
1,2494813,2466,858,1145,3431,20,-53,283,221,-161
1,2494828,2473,879,1135,3426,15,-54,283,221,-161
1,2494842,2473,879,1135,3426,15,-54,283,221,-161
1,2494856,2466,887,1144,3419,14,-51,283,221,-161
1,2494869,2474,881,1142,3429,11,-52,287,217,-163
1,2494885,2465,876,1142,3430,13,-55,287,217,-163
1,2494900,2465,876,1142,3430,13,-55,287,217,-163
1,2494913,2469,879,1145,3437,22,-51,287,217,-163
1,2494924,2469,879,1145,3437,22,-51,287,217,-163
1,2494938,2467,886,1148,3438,23,-42,287,217,-163
1,2494952,2468,871,1146,3438,22,-46,287,217,-163
1,2494965,2471,862,1142,3441,21,-45,287,217,-163
1,2494982,2471,862,1142,3441,21,-45,287,217,-163
1,2494995,2470,869,1149,3446,22,-46,288,214,-158
1,2495005,2469,864,1150,3449,19,-47,288,214,-158
1,2495020,2469,864,1150,3449,19,-47,288,214,-158
1,2495034,2471,868,1150,3444,18,-46,288,214,-158
1,2495047,2473,867,1152,3444,20,-52,288,214,-158
1,2495063,2473,867,1152,3444,20,-52,288,214,-158
1,2495077,2469,854,1148,3440,20,-48,288,214,-158
1,2495092,2467,856,1145,3446,18,-45,288,214,-158
1,2495105,2467,856,1145,3446,18,-45,288,214,-158
1,2495120,2467,855,1153,3452,23,-46,289,221,-161
1,2495134,2471,845,1152,3444,31,-49,289,221,-161
1,2495149,2472,843,1157,3440,29,-47,289,221,-161
1,2495161,2472,843,1157,3440,29,-47,289,221,-161
1,2495174,2474,817,1155,3444,19,-51,289,221,-161
1,2495188,2472,830,1152,3443,29,-58,289,221,-161
1,2495202,2472,830,1152,3443,29,-58,289,221,-161
1,2495216,2471,827,1143,3446,22,-52,289,221,-161
1,2495229,2471,842,1157,3442,19,-45,299,215,-159
1,2495242,2471,842,1157,3442,19,-45,299,215,-159
1,2495255,2467,806,1152,3442,21,-51,299,215,-159
1,2495268,2474,821,1149,3439,21,-55,299,215,-159
1,2495283,2474,821,1149,3439,21,-55,299,215,-159
1,2495297,2474,807,1149,3446,18,-42,299,215,-159
1,2495311,2470,828,1147,3441,19,-47,299,215,-159
1,2495324,2470,828,1147,3441,19,-47,299,215,-159
1,2495338,2473,797,1142,3436,17,-55,299,215,-159
1,2495352,2473,823,1145,3438,20,-56,299,215,-159
1,2495368,2477,813,1150,3438,28,-47,292,208,-164
1,2495380,2477,813,1150,3438,28,-47,292,208,-164
1,2495394,2467,822,1148,3433,22,-44,292,208,-164
1,2495410,2472,818,1139,3435,17,-49,292,208,-164
1,2495421,2472,818,1139,3435,17,-49,292,208,-164
1,2495432,2471,830,1144,3435,25,-51,292,208,-164
1,2495443,2471,830,1144,3435,25,-51,292,208,-164
1,2495457,2474,814,1142,3433,20,-48,292,208,-164
1,2495471,2466,827,1141,3434,6,-51,292,208,-164
1,2495484,2466,827,1141,3434,6,-51,292,208,-164
1,2495499,2470,827,1140,3429,15,-49,305,221,-163
1,2495508,2476,832,1141,3422,23,-47,305,221,-163
1,2495522,2476,832,1141,3422,23,-47,305,221,-163
1,2495536,2469,845,1139,3426,18,-43,305,221,-163
1,2495550,2469,830,1140,3421,13,-53,305,221,-163
1,2495565,2471,837,1138,3428,27,-58,305,221,-163
1,2495581,2471,837,1138,3428,27,-58,305,221,-163
1,2495594,2476,836,1138,3426,26,-51,305,221,-163
1,2495605,2466,842,1143,3423,13,-50,305,221,-163
1,2495622,2466,842,1143,3423,13,-50,317,221,-149
1,2495637,2469,844,1133,3431,12,-52,317,221,-149
1,2495651,2466,845,1142,3424,18,-52,317,221,-149
1,2495665,2466,845,1142,3424,18,-52,317,221,-149
1,2495678,2474,857,1141,3425,15,-50,317,221,-149
1,2495691,2467,843,1135,3426,16,-49,317,221,-149
1,2495706,2470,863,1138,3427,19,-51,317,221,-149
1,2495720,2470,863,1138,3427,19,-51,317,221,-149
1,2495733,2472,873,1142,3422,17,-52,308,224,-154
1,2495748,2470,864,1148,3428,17,-45,308,224,-154
1,2495760,2470,864,1148,3428,17,-45,308,224,-154
1,2495773,2467,871,1140,3435,16,-57,308,224,-154
1,2495784,2467,871,1140,3435,16,-57,308,224,-154
1,2495797,2466,887,1146,3435,14,-51,308,224,-154
1,2495809,2470,891,1136,3430,21,-49,308,224,-154
1,2495824,2470,891,1136,3430,21,-49,308,224,-154
1,2495837,2465,886,1138,3434,18,-51,308,224,-154
1,2495850,2466,884,1144,3436,18,-52,308,224,-154
1,2495865,2467,874,1152,3436,22,-46,308,224,-154
1,2495880,2467,874,1152,3436,22,-46,320,224,-160
1,2495895,2470,873,1145,3438,20,-48,320,224,-160
1,2495908,2467,866,1152,3443,14,-46,320,224,-160
1,2495924,2467,866,1152,3443,14,-46,320,224,-160
1,2495933,2471,875,1148,3442,16,-51,320,224,-160
1,2495945,2467,871,1154,3438,26,-52,320,224,-160
1,2495960,2467,871,1154,3438,26,-52,320,224,-160
1,2495973,2467,863,1150,3435,26,-47,320,224,-160
1,2495986,2469,874,1150,3437,16,-54,314,234,-146
1,2496000,2469,874,1150,3437,16,-54,314,234,-146
1,2496013,2467,862,1156,3445,29,-56,314,234,-146
1,2496026,2474,855,1146,3443,21,-57,314,234,-146
1,2496040,2474,855,1146,3443,21,-57,314,234,-146
1,2496054,2470,855,1147,3444,23,-47,314,234,-146
1,2496068,2469,849,1144,3443,20,-43,314,234,-146
1,2496082,2469,849,1144,3443,20,-43,314,234,-146
1,2496097,2469,848,1157,3450,22,-47,314,234,-146
1,2496111,2471,835,1154,3447,22,-47,323,239,-143
1,2496125,2471,835,1154,3447,22,-47,323,239,-143
1,2496140,2473,811,1153,3450,17,-51,323,239,-143
1,2496153,2479,843,1149,3444,25,-55,323,239,-143
1,2496165,2479,843,1149,3444,25,-55,323,239,-143
1,2496179,2471,827,1152,3442,20,-45,323,239,-143
1,2496193,2470,817,1150,3443,17,-54,323,239,-143
1,2496206,2475,810,1146,3440,18,-69,323,239,-143
1,2496220,2475,810,1146,3440,18,-69,323,239,-143
1,2496235,2472,816,1150,3437,26,-55,325,241,-145
1,2496246,2476,806,1147,3444,19,-45,325,241,-145
1,2496261,2476,806,1147,3444,19,-45,325,241,-145
1,2496274,2468,799,1153,3443,17,-52,325,241,-145
1,2496287,2476,817,1141,3441,24,-55,325,241,-145
1,2496303,2476,817,1141,3441,24,-55,325,241,-145
1,2496318,2475,822,1148,3434,18,-51,325,241,-145
1,2496332,2470,819,1147,3437,22,-53,325,241,-145
1,2496346,2470,819,1147,3437,22,-53,325,241,-145
1,2496360,2467,820,1145,3443,15,-49,336,240,-138
1,2496375,2473,826,1143,3437,23,-56,336,240,-138
1,2496391,2477,823,1141,3427,25,-51,336,240,-138
1,2496404,2477,823,1141,3427,25,-51,336,240,-138
1,2496414,2465,820,1136,3426,15,-55,336,240,-138
1,2496429,2470,826,1137,3433,17,-57,336,240,-138
1,2496442,2470,826,1137,3433,17,-57,336,240,-138
1,2496456,2469,830,1139,3430,23,-49,336,240,-138
1,2496471,2475,834,1136,3429,18,-47,336,240,-138
1,2496483,2475,834,1136,3429,18,-47,336,240,-138
1,2496495,2468,840,1139,3429,11,-46,329,245,-135
1,2496510,2471,839,1139,3421,16,-52,329,245,-135
1,2496527,2474,830,1142,3421,25,-49,329,245,-135
1,2496542,2474,830,1142,3421,25,-49,329,245,-135
1,2496558,2477,847,1141,3419,21,-48,329,245,-135
1,2496570,2464,843,1141,3426,10,-46,329,245,-135
1,2496584,2464,843,1141,3426,10,-46,329,245,-135
1,2496600,2473,851,1136,3430,19,-47,329,245,-135
1,2496614,2474,839,1141,3430,22,-48,338,244,-132
1,2496628,2468,858,1139,3425,16,-51,338,244,-132
1,2496643,2468,858,1139,3425,16,-51,338,244,-132
1,2496654,2469,854,1137,3428,10,-48,338,244,-132
1,2496668,2468,868,1141,3428,22,-47,338,244,-132
1,2496684,2468,868,1141,3428,22,-47,338,244,-132
1,2496696,2473,869,1141,3422,24,-51,338,244,-132
1,2496710,2469,865,1142,3424,19,-55,338,244,-132
1,2496724,2469,865,1142,3424,19,-55,338,244,-132
1,2496739,2473,883,1141,3432,12,-42,337,241,-127
1,2496751,2464,887,1153,3435,19,-55,337,241,-127
1,2496763,2464,887,1153,3435,19,-55,337,241,-127
1,2496779,2470,889,1143,3431,17,-53,337,241,-127
1,2496794,2461,883,1145,3434,21,-50,337,241,-127
1,2496807,2467,880,1146,3424,22,-44,337,241,-127
1,2496822,2467,880,1146,3424,22,-44,337,241,-127
1,2496833,2472,883,1148,3437,29,-49,337,241,-127
1,2496847,2468,870,1155,3445,17,-48,334,242,-124
1,2496863,2468,870,1155,3445,17,-48,334,242,-124
1,2496877,2473,867,1155,3440,22,-49,334,242,-124
1,2496892,2471,872,1148,3437,25,-50,334,242,-124
1,2496906,2471,872,1148,3437,25,-50,334,242,-124
1,2496918,2469,873,1149,3436,21,-44,334,242,-124
1,2496932,2467,871,1149,3434,18,-51,334,242,-124
1,2496946,2466,875,1146,3445,20,-45,334,242,-124
1,2496960,2466,875,1146,3445,20,-45,334,242,-124
1,2496974,2468,857,1155,3445,25,-48,334,242,-124
1,2496989,2471,858,1152,3442,21,-42,329,243,-127
1,2497000,2471,858,1152,3442,21,-42,329,243,-127
1,2497014,2469,852,1153,3446,28,-41,329,243,-127
1,2497030,2470,847,1155,3448,17,-44,329,243,-127
1,2497045,2470,847,1155,3448,17,-44,329,243,-127
1,2497060,2473,844,1157,3450,18,-48,329,243,-127
1,2497074,2473,828,1154,3440,16,-49,329,243,-127
1,2497087,2472,822,1152,3446,17,-56,329,243,-127
1,2497102,2472,822,1152,3446,17,-56,329,243,-127
1,2497117,2470,841,1147,3440,20,-56,332,242,-110
1,2497131,2472,845,1153,3439,21,-54,332,242,-110
1,2497145,2472,845,1153,3439,21,-54,332,242,-110
1,2497159,2468,807,1151,3444,18,-50,332,242,-110
1,2497172,2477,817,1148,3441,22,-57,332,242,-110
1,2497186,2471,811,1144,3441,23,-53,332,242,-110
1,2497199,2471,811,1144,3441,23,-53,332,242,-110
1,2497213,2472,824,1145,3442,14,-43,332,242,-110
1,2497227,2471,797,1150,3441,16,-55,335,245,-111
1,2497242,2471,797,1150,3441,16,-55,335,245,-111
1,2497254,2470,828,1145,3442,26,-56,335,245,-111
1,2497268,2475,819,1152,3433,21,-53,335,245,-111
1,2497283,2475,819,1152,3433,21,-53,335,245,-111
1,2497298,2471,828,1148,3429,16,-46,335,245,-111
1,2497313,2476,818,1142,3437,17,-56,335,245,-111
1,2497329,2471,826,1144,3436,19,-52,335,245,-111
1,2497341,2471,826,1144,3436,19,-52,335,245,-111
1,2497353,2479,817,1144,3430,21,-48,331,251,-105
1,2497367,2466,824,1140,3433,12,-47,331,251,-105
1,2497381,2466,824,1140,3433,12,-47,331,251,-105
1,2497394,2468,826,1136,3427,9,-52,331,251,-105
1,2497409,2470,829,1141,3416,25,-52,331,251,-105
1,2497419,2470,829,1141,3416,25,-52,331,251,-105
1,2497433,2470,851,1144,3424,24,-44,331,251,-105
1,2497446,2470,834,1144,3432,23,-47,331,251,-105
1,2497461,2470,834,1144,3432,23,-47,331,251,-105
1,2497469,2474,841,1144,3424,24,-54,331,251,-105
1,2497483,2474,841,1144,3424,24,-54,331,251,-105
1,2497499,2476,826,1143,3426,23,-50,324,246,-92
1,2497512,2471,848,1142,3418,20,-46,324,246,-92
1,2497524,2471,848,1142,3418,20,-46,324,246,-92
1,2497539,2469,840,1137,3424,18,-43,324,246,-92
1,2497553,2468,845,1134,3429,25,-42,324,246,-92
1,2497567,2477,841,1139,3434,28,-53,324,246,-92
1,2497582,2477,841,1139,3434,28,-53,324,246,-92
1,2497596,2465,848,1140,3426,20,-44,324,246,-92
1,2497610,2471,851,1142,3428,14,-51,332,248,-86
1,2497623,2471,851,1142,3428,14,-51,332,248,-86
1,2497635,2471,862,1138,3423,20,-53,332,248,-86
1,2497650,2469,872,1144,3421,16,-57,332,248,-86
1,2497664,2469,872,1144,3421,16,-57,332,248,-86
1,2497678,2465,873,1141,3425,15,-49,332,248,-86
1,2497693,2467,884,1142,3428,15,-51,332,248,-86
1,2497709,2466,891,1139,3425,15,-55,332,248,-86
1,2497725,2466,891,1139,3425,15,-55,332,248,-86
1,2497739,2469,890,1148,3429,23,-47,329,251,-83
1,2497756,2465,881,1141,3436,19,-42,329,251,-83
1,2497771,2469,876,1143,3437,13,-34,329,251,-83
1,2497784,2469,876,1143,3437,13,-34,329,251,-83
1,2497800,2473,883,1144,3437,26,-45,329,251,-83
1,2497811,2471,866,1154,3438,21,-47,329,251,-83
1,2497823,2471,866,1154,3438,21,-47,329,251,-83
1,2497837,2473,878,1145,3439,18,-47,329,251,-83
1,2497851,2469,877,1151,3442,24,-52,318,240,-76
1,2497864,2469,877,1151,3442,24,-52,318,240,-76
1,2497879,2473,873,1153,3436,22,-42,318,240,-76
1,2497890,2464,876,1149,3432,16,-49,318,240,-76
1,2497903,2464,876,1149,3432,16,-49,318,240,-76
1,2497918,2470,868,1150,3437,23,-52,318,240,-76
1,2497933,2468,867,1152,3440,27,-47,318,240,-76
1,2497947,2470,862,1152,3434,22,-48,318,240,-76
1,2497960,2470,862,1152,3434,22,-48,318,240,-76
1,2497975,2476,843,1146,3446,24,-49,318,240,-76
1,2497991,2472,846,1154,3445,22,-49,311,245,-73
1,2498004,2472,846,1154,3445,22,-49,311,245,-73
1,2498019,2475,854,1157,3448,19,-50,311,245,-73
1,2498034,2476,801,1157,3451,20,-49,311,245,-73
1,2498050,2476,848,1148,3443,22,-51,311,245,-73
1,2498063,2476,848,1148,3443,22,-51,311,245,-73
1,2498076,2472,827,1149,3446,21,-41,311,245,-73
1,2498091,2471,843,1149,3446,27,-43,311,245,-73
1,2498104,2471,843,1149,3446,27,-43,311,245,-73
1,2498118,2476,811,1150,3445,25,-51,312,242,-70
1,2498132,2467,820,1150,3443,26,-52,312,242,-70
1,2498147,2477,815,1145,3448,24,-46,312,242,-70
1,2498161,2477,815,1145,3448,24,-46,312,242,-70
1,2498173,2471,815,1152,3439,20,-51,312,242,-70
1,2498187,2475,807,1147,3440,17,-56,312,242,-70
1,2498203,2475,807,1147,3440,17,-56,312,242,-70
1,2498217,2475,823,1149,3431,19,-48,312,242,-70
1,2498233,2475,823,1144,3435,21,-45,305,243,-59
1,2498246,2470,822,1147,3432,12,-43,305,243,-59
1,2498258,2470,822,1147,3432,12,-43,305,243,-59
1,2498274,2472,823,1135,3428,13,-50,305,243,-59
1,2498287,2473,820,1141,3435,15,-47,305,243,-59
1,2498302,2473,820,1141,3435,15,-47,305,243,-59
1,2498317,2473,821,1142,3432,22,-47,305,243,-59
1,2498331,2468,825,1143,3424,16,-50,305,243,-59
1,2498344,2468,825,1143,3424,16,-50,305,243,-59
1,2498356,2470,830,1138,3426,22,-45,304,244,-50
1,2498371,2472,842,1149,3429,20,-50,304,244,-50
1,2498386,2471,839,1144,3429,17,-51,304,244,-50
1,2498402,2471,839,1144,3429,17,-51,304,244,-50
1,2498416,2472,842,1139,3429,14,-50,304,244,-50
1,2498429,2469,832,1140,3427,19,-45,304,244,-50
1,2498445,2469,832,1140,3427,19,-45,304,244,-50
1,2498460,2476,853,1141,3424,25,-46,304,244,-50
1,2498476,2468,835,1145,3426,17,-46,293,239,-55
1,2498490,2469,850,1134,3432,23,-54,293,239,-55
1,2498504,2469,850,1134,3432,23,-54,293,239,-55
1,2498516,2469,842,1139,3431,20,-51,293,239,-55
1,2498532,2470,857,1136,3418,16,-53,293,239,-55
1,2498544,2470,857,1136,3418,16,-53,293,239,-55
1,2498556,2472,846,1137,3420,18,-49,293,239,-55
1,2498572,2466,870,1139,3424,18,-51,293,239,-55
1,2498586,2466,870,1139,3424,18,-51,293,239,-55
1,2498600,2473,879,1138,3426,22,-46,293,239,-55
1,2498615,2468,870,1148,3427,20,-49,287,239,-45
1,2498630,2470,885,1139,3431,16,-48,287,239,-45
1,2498646,2470,885,1139,3431,16,-48,287,239,-45
1,2498661,2466,887,1144,3428,27,-46,287,239,-45
1,2498676,2470,894,1141,3425,20,-45,287,239,-45
1,2498690,2467,889,1144,3428,23,-52,287,239,-45
1,2498704,2467,889,1144,3428,23,-52,287,239,-45
1,2498715,2471,878,1139,3430,16,-51,287,239,-45
1,2498728,2471,887,1149,3429,16,-48,295,241,-47
1,2498742,2471,887,1149,3429,16,-48,295,241,-47
1,2498755,2472,867,1148,3436,16,-50,295,241,-47
1,2498769,2469,872,1147,3436,24,-44,295,241,-47
1,2498784,2469,872,1147,3436,24,-44,295,241,-47
1,2498799,2471,875,1150,3442,22,-49,295,241,-47
1,2498814,2472,876,1148,3439,20,-44,295,241,-47
1,2498830,2471,877,1151,3440,18,-51,295,241,-47
1,2498842,2471,877,1151,3440,18,-51,295,241,-47
1,2498856,2470,880,1151,3440,21,-53,290,230,-42
1,2498872,2471,862,1155,3444,19,-48,290,230,-42
1,2498889,2470,866,1148,3445,22,-49,290,230,-42
1,2498899,2470,866,1148,3445,22,-49,290,230,-42
1,2498913,2470,850,1155,3451,25,-47,290,230,-42
1,2498928,2475,852,1148,3447,20,-42,290,230,-42
1,2498942,2475,852,1148,3447,20,-42,290,230,-42
1,2498956,2472,846,1155,3446,22,-42,290,230,-42
1,2498970,2478,822,1159,3446,21,-47,292,240,-26
1,2498983,2478,822,1159,3446,21,-47,292,240,-26
1,2498997,2475,835,1157,3444,21,-57,292,240,-26
1,2499009,2468,835,1150,3435,19,-44,292,240,-26
1,2499023,2468,835,1150,3435,19,-44,292,240,-26
1,2499038,2477,845,1151,3442,23,-53,292,240,-26
1,2499051,2466,806,1148,3441,22,-55,292,240,-26
1,2499067,2476,823,1147,3445,20,-48,292,240,-26
1,2499083,2476,823,1147,3445,20,-48,292,240,-26
1,2499098,2474,817,1154,3435,24,-51,292,240,-26
1,2499115,2472,819,1149,3434,21,-46,278,240,-22
1,2499130,2475,805,1152,3438,19,-57,278,240,-22
1,2499145,2475,805,1152,3438,19,-57,278,240,-22
1,2499160,2471,826,1140,3437,23,-55,278,240,-22
1,2499173,2475,818,1147,3436,22,-56,278,240,-22
1,2499187,2467,821,1147,3430,19,-50,278,240,-22
1,2499200,2467,821,1147,3430,19,-50,278,240,-22
1,2499213,2474,824,1143,3436,14,-55,278,240,-22
1,2499227,2473,830,1141,3434,24,-57,278,240,-22
1,2499241,2473,830,1141,3434,24,-57,274,240,-22
1,2499255,2474,822,1140,3427,26,-42,274,240,-22
1,2499269,2465,832,1141,3423,20,-46,274,240,-22
1,2499280,2465,832,1141,3423,20,-46,274,240,-22
1,2499294,2473,824,1133,3429,19,-46,274,240,-22
1,2499309,2475,835,1145,3429,20,-44,274,240,-22
1,2499322,2475,835,1145,3429,20,-44,274,240,-22
1,2499337,2476,844,1133,3418,19,-51,274,240,-22
1,2499351,2472,829,1140,3418,13,-48,272,232,-26
1,2499366,2472,839,1139,3426,27,-53,272,232,-26
1,2499383,2472,839,1139,3426,27,-53,272,232,-26
1,2499398,2475,846,1142,3425,21,-49,272,232,-26
1,2499411,2469,848,1139,3422,15,-47,272,232,-26
1,2499426,2469,848,1139,3422,15,-47,272,232,-26
1,2499440,2470,847,1131,3420,7,-44,272,232,-26
1,2499453,2464,847,1141,3421,20,-46,272,232,-26
1,2499465,2464,847,1141,3421,20,-46,272,232,-26
1,2499478,2478,855,1140,3420,15,-50,267,235,-23
1,2499492,2466,857,1149,3425,9,-42,267,235,-23
1,2499506,2466,857,1149,3425,9,-42,267,235,-23
1,2499520,2471,879,1140,3428,13,-48,267,235,-23
1,2499531,2469,866,1144,3429,20,-54,267,235,-23
1,2499545,2469,866,1144,3429,20,-54,267,235,-23
1,2499559,2473,862,1143,3427,23,-48,267,235,-23
1,2499573,2471,884,1138,3426,19,-45,267,235,-23
1,2499587,2466,894,1143,3428,23,-45,267,235,-23
1,2499602,2466,894,1143,3428,23,-45,267,235,-23
1,2499618,2473,889,1147,3431,19,-56,259,233,-21
1,2499633,2464,884,1147,3436,22,-56,259,233,-21
1,2499645,2464,884,1147,3436,22,-56,259,233,-21
1,2499660,2474,880,1141,3429,18,-49,259,233,-21
1,2499675,2469,888,1149,3437,25,-50,259,233,-21
1,2499689,2472,886,1143,3438,17,-51,259,233,-21
1,2499700,2472,886,1143,3438,17,-51,259,233,-21
1,2499714,2470,869,1150,3440,9,-56,259,233,-21
1,2499728,2471,869,1151,3438,20,-51,251,225,-23
1,2499743,2471,869,1151,3438,20,-51,251,225,-23
1,2499757,2472,874,1155,3439,17,-52,251,225,-23
1,2499772,2469,871,1154,3445,15,-53,251,225,-23
1,2499784,2469,871,1154,3445,15,-53,251,225,-23
1,2499799,2473,875,1149,3438,24,-59,251,225,-23
1,2499814,2471,863,1156,3438,23,-51,251,225,-23
1,2499828,2476,860,1147,3441,17,-49,251,225,-23
1,2499843,2476,860,1147,3441,17,-49,251,225,-23
1,2499856,2469,864,1155,3440,16,-58,256,226,-16
1,2499870,2471,852,1150,3444,19,-55,256,226,-16
1,2499886,2471,852,1150,3444,19,-55,256,226,-16
1,2499901,2473,847,1158,3453,25,-53,256,226,-16
1,2499915,2472,842,1147,3446,21,-46,256,226,-16
1,2499930,2471,809,1153,3449,15,-53,256,226,-16
1,2499944,2471,809,1153,3449,15,-53,256,226,-16
1,2499952,2478,847,1151,3446,26,-49,256,226,-16
1,2499965,2478,847,1151,3446,26,-49,256,226,-16
1,2499981,2472,831,1151,3445,19,-49,248,230,-20
1,2499994,2471,826,1152,3436,23,-50,248,230,-20
1,2500008,2475,816,1147,3439,25,-52,248,230,-20
1,2500023,2475,816,1147,3439,25,-52,248,230,-20
1,2500037,2472,818,1149,3438,26,-50,248,230,-20
1,2500048,2477,819,1142,3435,16,-45,248,230,-20
1,2500064,2477,819,1142,3435,16,-45,248,230,-20
1,2500079,2467,803,1146,3434,19,-55,248,230,-20
1,2500094,2477,819,1137,3430,17,-52,248,230,-20
1,2500110,2473,819,1152,3437,33,-48,247,227,-27
1,2500123,2473,819,1152,3437,33,-48,247,227,-27
1,2500135,2475,823,1145,3439,17,-52,247,227,-27
1,2500148,2473,818,1149,3436,18,-48,247,227,-27
1,2500162,2473,818,1149,3436,18,-48,247,227,-27
1,2500176,2472,830,1142,3433,27,-56,247,227,-27
1,2500186,2472,830,1142,3433,27,-56,247,227,-27
1,2500193,2476,825,1144,3433,25,-41,247,227,-27
1,2500202,2476,825,1144,3433,25,-41,247,227,-27
1,2500215,2467,827,1140,3422,17,-46,247,227,-27
1,2500229,2475,826,1137,3427,20,-55,243,239,-19
1,2500242,2475,826,1137,3427,20,-55,243,239,-19
1,2500251,2469,836,1143,3426,17,-56,243,239,-19
1,2500264,2469,836,1143,3426,17,-56,243,239,-19
1,2500280,2474,846,1142,3431,18,-47,243,239,-19
1,2500294,2466,832,1144,3429,18,-49,243,239,-19
1,2500307,2469,832,1135,3424,19,-54,243,239,-19
1,2500322,2469,832,1135,3424,19,-54,243,239,-19
1,2500337,2477,849,1145,3428,24,-52,243,239,-19
1,2500353,2472,842,1145,3426,18,-46,242,232,-18
1,2500366,2472,842,1145,3426,18,-46,242,232,-18
1,2500380,2470,848,1136,3427,17,-45,242,232,-18
1,2500395,2472,850,1140,3417,24,-52,242,232,-18
1,2500408,2472,859,1140,3417,20,-51,242,232,-18
1,2500419,2472,859,1140,3417,20,-51,242,232,-18
1,2500432,2467,847,1142,3426,12,-49,242,232,-18
1,2500447,2468,873,1132,3422,15,-51,242,232,-18
1,2500461,2468,873,1132,3422,15,-51,242,232,-18
1,2500475,2469,870,1143,3427,20,-47,238,232,-22
1,2500491,2473,869,1143,3420,17,-50,238,232,-22
1,2500503,2473,869,1143,3420,17,-50,238,232,-22
1,2500516,2471,863,1138,3429,16,-48,238,232,-22
1,2500532,2470,895,1141,3429,15,-51,238,232,-22
1,2500547,2470,895,1141,3429,15,-51,238,232,-22
1,2500558,2472,887,1142,3430,28,-48,238,232,-22
1,2500572,2468,895,1144,3430,14,-57,238,232,-22
1,2500587,2468,895,1144,3430,14,-57,238,232,-22
1,2500600,2468,884,1141,3428,17,-53,240,234,-32
1,2500614,2471,883,1150,3436,22,-54,240,234,-32
1,2500628,2474,880,1148,3444,18,-54,240,234,-32
1,2500641,2474,880,1148,3444,18,-54,240,234,-32
1,2500654,2469,871,1150,3442,21,-43,240,234,-32
1,2500668,2474,872,1149,3441,19,-46,240,234,-32
1,2500681,2474,872,1149,3441,19,-46,240,234,-32
1,2500695,2467,877,1157,3437,24,-58,240,234,-32
1,2500710,2472,870,1144,3439,25,-46,240,234,-32
1,2500725,2472,870,1144,3439,25,-46,240,234,-32
1,2500740,2470,875,1153,3443,24,-46,235,241,-23
1,2500753,2474,870,1147,3437,25,-47,235,241,-23
1,2500767,2476,857,1152,3441,28,-44,235,241,-23
1,2500782,2476,857,1152,3441,28,-44,235,241,-23
1,2500797,2471,855,1146,3442,19,-48,235,241,-23
1,2500809,2473,850,1149,3445,16,-52,235,241,-23
1,2500825,2473,850,1149,3445,16,-52,235,241,-23
1,2500839,2470,850,1151,3446,24,-47,235,241,-23
1,2500855,2474,846,1155,3446,13,-41,232,238,-34
1,2500869,2474,809,1161,3451,16,-43,232,238,-34
1,2500883,2474,809,1161,3451,16,-43,232,238,-34
1,2500897,2472,849,1155,3444,15,-47,232,238,-34
1,2500910,2474,829,1152,3440,19,-38,232,238,-34
1,2500922,2474,829,1152,3440,19,-38,232,238,-34
1,2500936,2472,828,1143,3442,20,-47,232,238,-34
1,2500950,2478,808,1148,3442,17,-49,232,238,-34
1,2500964,2478,808,1148,3442,17,-49,232,238,-34
1,2500978,2471,823,1154,3435,21,-51,235,241,-39
1,2500990,2478,811,1152,3431,15,-49,235,241,-39
1,2501003,2478,811,1152,3431,15,-49,235,241,-39
1,2501018,2470,806,1147,3434,11,-53,235,241,-39
1,2501032,2472,811,1134,3432,20,-51,235,241,-39
1,2501046,2472,811,1134,3432,20,-51,235,241,-39
1,2501061,2472,828,1151,3435,20,-55,235,241,-39
1,2501075,2476,819,1139,3432,19,-47,235,241,-39
1,2501091,2469,817,1147,3434,8,-47,224,236,-36
1,2501106,2469,817,1147,3434,8,-47,224,236,-36
1,2501121,2476,820,1142,3431,20,-47,224,236,-36
1,2501134,2473,825,1145,3426,19,-53,224,236,-36
1,2501148,2473,823,1141,3423,20,-46,224,236,-36
1,2501160,2473,823,1141,3423,20,-46,224,236,-36
1,2501174,2465,832,1136,3425,15,-56,224,236,-36
1,2501187,2470,827,1141,3425,21,-54,224,236,-36
1,2501201,2470,827,1141,3425,21,-54,224,236,-36
1,2501215,2474,850,1137,3423,18,-48,224,236,-36
1,2501229,2468,827,1141,3426,13,-51,230,242,-36
1,2501241,2468,827,1141,3426,13,-51,230,242,-36
1,2501255,2473,843,1136,3425,20,-52,230,242,-36
1,2501268,2471,829,1142,3425,30,-55,230,242,-36
1,2501281,2471,829,1142,3425,30,-55,230,242,-36
1,2501296,2473,852,1141,3427,25,-47,230,242,-36
1,2501311,2466,841,1139,3428,25,-41,230,242,-36
1,2501326,2466,841,1139,3428,25,-41,230,242,-36
1,2501343,2469,855,1140,3428,23,-52,230,242,-36
1,2501357,2473,849,1143,3428,23,-53,226,246,-48
1,2501371,2466,853,1141,3423,20,-50,226,246,-48
1,2501383,2466,853,1141,3423,20,-50,226,246,-48
1,2501394,2469,863,1138,3426,12,-45,226,246,-48
1,2501406,2469,863,1138,3426,12,-45,226,246,-48
1,2501421,2464,868,1137,3422,20,-55,226,246,-48
1,2501434,2473,870,1135,3429,25,-50,226,246,-48
1,2501448,2470,860,1142,3429,23,-49,226,246,-48
1,2501457,2470,860,1142,3429,23,-49,226,246,-48
1,2501472,2473,889,1137,3428,18,-45,221,243,-47
1,2501485,2473,889,1137,3428,18,-45,221,243,-47
1,2501499,2471,888,1148,3435,19,-46,221,243,-47
1,2501514,2471,883,1144,3431,13,-51,221,243,-47
1,2501529,2468,888,1145,3431,23,-53,221,243,-47
1,2501543,2468,888,1145,3431,23,-53,221,243,-47
1,2501557,2471,885,1139,3439,22,-51,221,243,-47
1,2501570,2470,885,1144,3446,22,-56,221,243,-47
1,2501584,2470,885,1144,3446,22,-56,221,243,-47
1,2501598,2467,879,1147,3438,19,-53,217,239,-49
1,2501610,2471,869,1148,3437,25,-55,217,239,-49
1,2501624,2471,869,1148,3437,25,-55,217,239,-49
1,2501638,2476,876,1150,3440,26,-54,217,239,-49
1,2501651,2473,874,1153,3442,24,-51,217,239,-49
1,2501666,2473,874,1153,3442,24,-51,217,239,-49
1,2501679,2472,877,1150,3452,21,-53,217,239,-49
1,2501690,2477,874,1143,3442,19,-51,217,239,-49
1,2501705,2477,874,1143,3442,19,-51,217,239,-49
1,2501719,2473,861,1150,3446,19,-51,217,239,-49
1,2501732,2473,868,1147,3445,18,-54,220,242,-56
1,2501747,2473,868,1147,3445,18,-54,220,242,-56
1,2501763,2467,867,1148,3439,19,-46,220,242,-56
1,2501778,2473,848,1148,3448,20,-49,220,242,-56
1,2501791,2472,844,1150,3450,14,-51,220,242,-56
1,2501805,2472,844,1150,3450,14,-51,220,242,-56
1,2501819,2476,822,1156,3441,17,-46,220,242,-56
1,2501831,2474,826,1150,3446,15,-50,220,242,-56
1,2501843,2474,826,1150,3446,15,-50,220,242,-56
1,2501858,2471,836,1154,3444,24,-39,224,242,-64
1,2501872,2472,846,1153,3450,23,-46,224,242,-64
1,2501885,2472,846,1153,3450,23,-46,224,242,-64
1,2501899,2470,812,1151,3448,19,-50,224,242,-64
1,2501910,2479,827,1138,3437,22,-59,224,242,-64
1,2501924,2479,827,1138,3437,22,-59,224,242,-64
1,2501940,2472,814,1148,3438,21,-53,224,242,-64
1,2501955,2469,823,1142,3445,16,-46,224,242,-64
1,2501969,2476,798,1149,3443,12,-50,214,228,-68
1,2501982,2476,798,1149,3443,12,-50,214,228,-68
1,2501996,2472,820,1146,3435,15,-55,214,228,-68
1,2502011,2478,819,1147,3436,19,-48,214,228,-68
1,2502026,2478,819,1147,3436,19,-48,214,228,-68
1,2502039,2465,825,1143,3436,22,-51,214,228,-68
1,2502052,2476,821,1139,3433,27,-53,214,228,-68
1,2502066,2476,821,1139,3433,27,-53,214,228,-68
1,2502079,2471,828,1147,3424,21,-53,214,228,-68
1,2502093,2476,820,1142,3435,20,-52,228,224,-70
1,2502108,2476,820,1142,3435,20,-52,228,224,-70
1,2502121,2465,825,1146,3433,18,-53,228,224,-70
1,2502135,2475,828,1140,3428,16,-52,228,224,-70
1,2502150,2471,831,1140,3426,25,-52,228,224,-70
1,2502164,2471,831,1140,3426,25,-52,228,224,-70
1,2502176,2471,855,1137,3422,21,-42,228,224,-70
1,2502191,2465,830,1141,3431,14,-44,228,224,-70
1,2502202,2465,830,1141,3431,14,-44,228,224,-70
1,2502213,2476,844,1141,3423,18,-51,228,224,-70
1,2502227,2476,844,1141,3423,18,-51,228,224,-70
1,2502241,2474,829,1143,3423,21,-48,224,232,-82
1,2502255,2471,850,1140,3427,16,-42,224,232,-82
1,2502267,2474,837,1140,3428,18,-47,224,232,-82
1,2502281,2474,837,1140,3428,18,-47,224,232,-82
1,2502288,2466,850,1140,3427,17,-50,224,232,-82
1,2502297,2466,850,1140,3427,17,-50,224,232,-82
1,2502310,2478,848,1135,3423,25,-48,224,232,-82
1,2502325,2478,848,1135,3423,25,-48,224,232,-82
1,2502333,2464,854,1136,3425,19,-56,224,232,-82
1,2502340,2464,854,1136,3425,19,-56,224,232,-82
1,2502354,2472,862,1134,3422,20,-47,229,225,-87
1,2502368,2465,866,1142,3429,23,-49,229,225,-87
1,2502380,2465,866,1142,3429,23,-49,229,225,-87
1,2502393,2475,870,1144,3422,24,-50,229,225,-87
1,2502408,2466,871,1143,3427,19,-49,229,225,-87
1,2502423,2466,871,1143,3427,19,-49,229,225,-87
1,2502437,2472,886,1136,3423,22,-45,229,225,-87
1,2502451,2470,899,1143,3432,21,-52,229,225,-87
1,2502465,2470,899,1143,3432,21,-52,229,225,-87
1,2502480,2467,889,1145,3435,18,-52,215,219,-89
1,2502495,2475,892,1141,3435,15,-51,215,219,-89
1,2502508,2470,879,1143,3435,17,-52,215,219,-89
1,2502522,2470,879,1143,3435,17,-52,215,219,-89
1,2502534,2471,889,1140,3434,23,-59,215,219,-89
1,2502549,2471,872,1149,3442,19,-49,215,219,-89
1,2502562,2471,872,1149,3442,19,-49,215,219,-89
1,2502576,2473,876,1148,3440,21,-48,215,219,-89
1,2502589,2476,877,1158,3442,26,-49,224,224,-96
1,2502603,2476,877,1158,3442,26,-49,224,224,-96
1,2502618,2474,874,1154,3443,19,-43,224,224,-96
1,2502629,2476,880,1154,3439,24,-47,224,224,-96
1,2502643,2476,880,1154,3439,24,-47,224,224,-96
1,2502658,2474,877,1153,3445,24,-47,224,224,-96
1,2502673,2477,860,1150,3443,22,-54,224,224,-96
1,2502685,2477,860,1150,3443,22,-54,224,224,-96
1,2502700,2477,860,1152,3447,19,-48,224,224,-96
1,2502715,2468,854,1152,3442,19,-44,224,224,-96
1,2502728,2472,856,1154,3440,18,-47,221,223,-111
1,2502742,2472,856,1154,3440,18,-47,221,223,-111
1,2502756,2475,847,1156,3453,16,-50,221,223,-111
1,2502768,2474,804,1159,3444,14,-51,221,223,-111
1,2502784,2474,804,1159,3444,14,-51,221,223,-111
1,2502799,2478,850,1143,3442,24,-49,221,223,-111
1,2502812,2473,830,1155,3448,19,-51,221,223,-111
1,2502827,2473,830,1155,3448,19,-51,221,223,-111
1,2502840,2474,836,1148,3439,13,-53,221,223,-111
1,2502854,2478,807,1156,3439,24,-57,220,220,-104
1,2502868,2473,825,1149,3433,19,-53,220,220,-104
1,2502881,2473,825,1149,3433,19,-53,220,220,-104
1,2502895,2480,808,1146,3438,20,-44,220,220,-104
1,2502910,2466,804,1147,3440,18,-49,220,220,-104
1,2502926,2466,804,1147,3440,18,-49,220,220,-104
1,2502938,2478,807,1142,3440,14,-49,220,220,-104
1,2502952,2473,823,1148,3438,18,-50,220,220,-104
1,2502968,2473,823,1148,3438,18,-50,220,220,-104
1,2502982,2478,808,1143,3433,18,-45,215,223,-111
1,2502996,2470,817,1146,3438,16,-50,215,223,-111
1,2503010,2473,822,1143,3432,24,-62,215,223,-111
1,2503023,2473,822,1143,3432,24,-62,215,223,-111
1,2503038,2474,832,1143,3426,26,-55,215,223,-111
1,2503054,2470,821,1142,3430,13,-47,215,223,-111
1,2503066,2470,821,1142,3430,13,-47,215,223,-111
1,2503079,2470,832,1143,3426,21,-51,215,223,-111
1,2503093,2473,825,1145,3421,17,-45,231,225,-117
1,2503107,2473,825,1145,3421,17,-45,231,225,-117
1,2503121,2473,842,1145,3425,16,-46,231,225,-117
1,2503137,2471,840,1138,3431,18,-45,231,225,-117
1,2503150,2469,839,1139,3424,23,-50,231,225,-117
1,2503163,2469,839,1139,3424,23,-50,231,225,-117
1,2503178,2475,832,1139,3422,16,-46,231,225,-117
1,2503193,2475,855,1142,3425,16,-46,231,225,-117
1,2503206,2475,855,1142,3425,16,-46,231,225,-117
1,2503218,2471,844,1140,3424,16,-50,226,216,-136
1,2503231,2471,858,1139,3424,14,-51,226,216,-136
1,2503244,2471,858,1139,3424,14,-51,226,216,-136
1,2503259,2472,841,1139,3426,21,-49,226,216,-136
1,2503273,2467,856,1141,3422,22,-48,226,216,-136
1,2503285,2467,856,1141,3422,22,-48,226,216,-136
1,2503299,2470,847,1141,3427,20,-46,226,216,-136
1,2503314,2463,880,1141,3422,19,-47,226,216,-136
1,2503327,2463,880,1141,3422,19,-47,226,216,-136
1,2503342,2472,872,1143,3427,20,-46,226,216,-136
1,2503356,2469,867,1147,3420,19,-44,226,220,-138
1,2503371,2475,879,1137,3424,15,-52,226,220,-138
1,2503387,2475,879,1137,3424,15,-52,226,220,-138
1,2503401,2469,894,1144,3428,19,-48,226,220,-138
1,2503415,2475,888,1139,3426,25,-56,226,220,-138
1,2503430,2463,890,1149,3433,18,-50,226,220,-138
1,2503444,2463,890,1149,3433,18,-50,226,220,-138
1,2503455,2470,885,1143,3434,21,-52,226,220,-138
1,2503468,2470,885,1143,3434,21,-52,226,220,-138
1,2503482,2471,884,1150,3439,31,-51,233,227,-143
1,2503495,2470,871,1146,3441,22,-52,233,227,-143
1,2503508,2471,867,1146,3432,17,-53,233,227,-143
1,2503522,2471,867,1146,3432,17,-53,233,227,-143
1,2503532,2474,873,1149,3434,15,-47,233,227,-143
1,2503546,2474,873,1149,3434,15,-47,233,227,-143
1,2503559,2474,873,1151,3440,20,-49,233,227,-143
1,2503574,2471,870,1147,3450,19,-51,233,227,-143
1,2503588,2474,875,1152,3447,14,-53,245,221,-147
1,2503602,2474,875,1152,3447,14,-53,245,221,-147
1,2503616,2471,863,1160,3443,23,-48,245,221,-147
1,2503630,2472,862,1152,3438,21,-44,245,221,-147
1,2503646,2472,862,1152,3438,21,-44,245,221,-147
1,2503659,2471,856,1150,3443,21,-47,245,221,-147
1,2503671,2474,850,1151,3435,20,-48,245,221,-147
1,2503685,2474,850,1151,3435,20,-48,245,221,-147
1,2503698,2475,851,1152,3442,20,-49,245,221,-147
1,2503712,2476,807,1154,3441,16,-52,264,222,-148
1,2503727,2476,807,1154,3441,16,-52,264,222,-148
1,2503741,2473,850,1149,3450,19,-50,264,222,-148
1,2503752,2472,827,1151,3453,28,-43,264,222,-148
1,2503766,2472,827,1151,3453,28,-43,264,222,-148
1,2503780,2469,834,1150,3447,21,-45,264,222,-148
1,2503793,2475,807,1149,3440,21,-53,264,222,-148
1,2503809,2472,823,1152,3443,29,-51,264,222,-148
1,2503823,2472,823,1152,3443,29,-51,264,222,-148
1,2503836,2478,791,1150,3443,24,-47,264,222,-148
1,2503851,2467,811,1153,3440,11,-49,270,218,-158
1,2503864,2467,811,1153,3440,11,-49,270,218,-158
1,2503879,2474,800,1146,3438,18,-56,270,218,-158
1,2503890,2475,831,1150,3435,24,-49,270,218,-158
1,2503905,2475,831,1150,3435,24,-49,270,218,-158
1,2503918,2474,807,1146,3433,15,-41,270,218,-158
1,2503926,2474,807,1146,3433,15,-41,270,218,-158
1,2503938,2470,824,1142,3438,28,-55,270,218,-158
1,2503952,2480,819,1145,3436,27,-55,270,218,-158
1,2503965,2480,819,1145,3436,27,-55,270,218,-158
1,2503979,2473,833,1149,3431,21,-53,274,214,-154
1,2503992,2477,814,1139,3424,17,-50,274,214,-154
1,2504004,2477,814,1139,3424,17,-50,274,214,-154
1,2504018,2467,836,1138,3416,17,-52,274,214,-154
1,2504033,2476,827,1140,3425,15,-53,274,214,-154
1,2504044,2476,827,1140,3425,15,-53,274,214,-154
1,2504059,2473,823,1139,3428,18,-51,274,214,-154
1,2504075,2471,852,1138,3422,19,-51,274,214,-154
1,2504090,2470,828,1142,3433,26,-50,279,223,-153
1,2504105,2470,828,1142,3433,26,-50,279,223,-153
1,2504119,2474,838,1142,3422,18,-48,279,223,-153
1,2504133,2475,836,1139,3425,15,-45,279,223,-153
1,2504146,2475,836,1139,3425,15,-45,279,223,-153
1,2504159,2466,856,1140,3427,20,-48,279,223,-153
1,2504171,2472,845,1136,3428,16,-45,279,223,-153
1,2504185,2472,845,1136,3428,16,-45,279,223,-153
1,2504199,2469,850,1139,3429,17,-46,279,223,-153
1,2504212,2476,857,1135,3425,17,-47,280,220,-162
1,2504224,2476,857,1135,3425,17,-47,280,220,-162
1,2504236,2469,855,1145,3429,20,-46,280,220,-162
1,2504250,2471,854,1142,3428,16,-52,280,220,-162
1,2504264,2471,854,1142,3428,16,-52,280,220,-162
1,2504279,2474,871,1143,3420,19,-53,280,220,-162
1,2504294,2473,864,1142,3418,23,-47,280,220,-162
1,2504309,2468,878,1145,3428,19,-49,280,220,-162
1,2504323,2468,878,1145,3428,19,-49,280,220,-162
1,2504337,2467,889,1141,3428,13,-42,280,220,-162
1,2504352,2473,889,1138,3433,17,-42,288,230,-160
1,2504367,2473,889,1138,3433,17,-42,288,230,-160
1,2504380,2468,884,1147,3432,19,-46,288,230,-160
1,2504391,2472,890,1141,3432,19,-45,288,230,-160
1,2504404,2472,890,1141,3432,19,-45,288,230,-160
1,2504418,2465,877,1146,3433,19,-50,288,230,-160
1,2504432,2473,882,1148,3437,20,-53,288,230,-160
1,2504446,2473,882,1148,3437,20,-53,288,230,-160
1,2504459,2469,865,1144,3440,21,-49,288,230,-160
1,2504471,2472,876,1150,3444,20,-47,291,211,-169
1,2504484,2472,876,1150,3444,20,-47,291,211,-169
1,2504493,2474,878,1149,3441,17,-45,291,211,-169
1,2504505,2474,878,1149,3441,17,-45,291,211,-169
1,2504520,2473,869,1154,3436,26,-45,291,211,-169
1,2504531,2472,874,1147,3441,20,-45,291,211,-169
1,2504545,2472,874,1147,3441,20,-45,291,211,-169
1,2504561,2470,866,1152,3433,24,-42,291,211,-169
1,2504576,2475,863,1148,3439,22,-46,291,211,-169
1,2504591,2468,862,1156,3447,14,-52,292,216,-162
1,2504604,2468,862,1156,3447,14,-52,292,216,-162
1,2504619,2474,849,1152,3445,20,-57,292,216,-162
1,2504633,2471,854,1155,3454,20,-51,292,216,-162
1,2504643,2471,854,1155,3454,20,-51,292,216,-162
1,2504656,2470,849,1152,3453,23,-46,292,216,-162
1,2504671,2477,804,1150,3450,25,-53,292,216,-162
1,2504685,2477,804,1150,3450,25,-53,292,216,-162
1,2504698,2473,844,1145,3445,19,-50,292,216,-162
1,2504712,2474,826,1151,3449,30,-46,307,221,-161
1,2504724,2474,826,1151,3449,30,-46,307,221,-161
1,2504737,2468,835,1157,3440,22,-48,307,221,-161
1,2504751,2477,811,1154,3444,18,-52,307,221,-161
1,2504765,2477,811,1154,3444,18,-52,307,221,-161
1,2504780,2472,824,1149,3444,24,-55,307,221,-161
1,2504794,2477,811,1147,3437,27,-44,307,221,-161
1,2504806,2477,811,1147,3437,27,-44,307,221,-161
1,2504820,2470,809,1153,3437,17,-45,307,221,-161
1,2504835,2475,808,1144,3439,22,-53,307,221,-161
1,2504847,2475,808,1144,3439,22,-53,307,221,-161
1,2504861,2472,825,1154,3436,23,-51,301,209,-157
1,2504876,2474,811,1145,3439,23,-49,301,209,-157
1,2504890,2465,819,1138,3434,20,-54,301,209,-157
1,2504904,2465,819,1138,3434,20,-54,301,209,-157
1,2504916,2475,825,1144,3433,21,-63,301,209,-157
1,2504931,2471,827,1143,3423,19,-56,301,209,-157
1,2504946,2471,827,1143,3423,19,-56,301,209,-157
1,2504958,2473,818,1147,3433,20,-46,301,209,-157
1,2504972,2471,827,1141,3426,14,-55,308,214,-152
1,2504980,2471,827,1141,3426,14,-55,308,214,-152
1,2504992,2472,825,1150,3420,21,-50,308,214,-152
1,2505007,2472,825,1150,3420,21,-50,308,214,-152
1,2505022,2469,831,1141,3424,22,-46,308,214,-152
1,2505037,2469,843,1137,3433,19,-47,308,214,-152
1,2505054,2471,834,1138,3426,17,-50,308,214,-152
1,2505068,2471,834,1138,3426,17,-50,308,214,-152
1,2505081,2471,834,1138,3436,21,-48,308,214,-152
1,2505097,2479,847,1147,3436,20,-50,306,218,-152
1,2505111,2467,842,1142,3425,18,-50,306,218,-152
1,2505124,2467,842,1142,3425,18,-50,306,218,-152
1,2505138,2474,850,1139,3428,22,-50,306,218,-152
1,2505152,2475,849,1145,3426,20,-48,306,218,-152
1,2505166,2475,849,1145,3426,20,-48,306,218,-152
1,2505182,2470,856,1140,3426,21,-47,306,218,-152
1,2505197,2469,863,1135,3425,16,-53,306,218,-152
1,2505210,2465,877,1144,3427,19,-51,314,222,-158
1,2505224,2465,877,1144,3427,19,-51,314,222,-158
1,2505237,2471,865,1140,3427,22,-51,314,222,-158
1,2505251,2466,860,1145,3424,17,-47,314,222,-158
1,2505266,2466,860,1145,3424,17,-47,314,222,-158
1,2505279,2472,878,1138,3431,11,-46,314,222,-158
1,2505291,2469,887,1146,3430,17,-40,314,222,-158
1,2505305,2469,887,1146,3430,17,-40,314,222,-158
1,2505318,2474,887,1145,3427,17,-52,314,222,-158
1,2505327,2474,887,1145,3427,17,-52,314,222,-158
1,2505335,2468,893,1154,3428,20,-55,321,223,-147
1,2505344,2468,893,1154,3428,20,-55,321,223,-147
1,2505358,2471,880,1149,3445,22,-53,321,223,-147
1,2505373,2473,887,1149,3447,20,-45,321,223,-147
1,2505385,2473,887,1149,3447,20,-45,321,223,-147
1,2505398,2475,871,1150,3441,12,-45,321,223,-147
1,2505412,2471,873,1145,3437,16,-48,321,223,-147
1,2505425,2471,873,1145,3437,16,-48,321,223,-147
1,2505439,2470,872,1152,3445,17,-54,321,223,-147
1,2505453,2472,867,1148,3443,18,-47,321,223,-147
1,2505469,2469,868,1154,3450,14,-46,309,219,-155
1,2505483,2469,868,1154,3450,14,-46,309,219,-155
1,2505495,2473,875,1154,3448,15,-54,309,219,-155
1,2505509,2469,860,1152,3444,19,-52,309,219,-155
1,2505524,2469,860,1152,3444,19,-52,309,219,-155
1,2505536,2476,861,1150,3447,23,-47,309,219,-155
1,2505551,2474,851,1156,3448,23,-50,309,219,-155
1,2505567,2474,851,1156,3448,23,-50,309,219,-155
1,2505580,2471,851,1154,3455,23,-42,309,219,-155
1,2505594,2475,849,1156,3451,22,-46,329,235,-141
1,2505609,2472,813,1151,3437,13,-48,329,235,-141
1,2505624,2472,813,1151,3437,13,-48,329,235,-141
1,2505639,2474,841,1151,3444,22,-43,329,235,-141
1,2505653,2469,825,1151,3444,25,-41,329,235,-141
1,2505665,2469,825,1151,3444,25,-41,329,235,-141
1,2505679,2473,840,1151,3441,15,-47,329,235,-141
1,2505694,2471,808,1147,3442,19,-51,329,235,-141
1,2505707,2471,808,1147,3442,19,-51,329,235,-141
1,2505721,2475,824,1155,3443,21,-54,330,242,-142
1,2505737,2481,808,1154,3444,12,-52,330,242,-142
1,2505751,2468,810,1152,3441,13,-46,330,242,-142
1,2505762,2468,810,1152,3441,13,-46,330,242,-142
1,2505778,2476,801,1142,3445,14,-50,330,242,-142
1,2505791,2472,820,1143,3434,24,-50,330,242,-142
1,2505804,2472,820,1143,3434,24,-50,330,242,-142
1,2505819,2474,821,1145,3441,21,-46,330,242,-142
1,2505834,2467,813,1145,3438,18,-44,332,242,-140
1,2505846,2467,813,1145,3438,18,-44,332,242,-140
1,2505861,2476,821,1147,3434,17,-52,332,242,-140
1,2505876,2478,827,1145,3430,30,-47,332,242,-140
1,2505889,2473,822,1149,3432,20,-43,332,242,-140
1,2505902,2473,822,1149,3432,20,-43,332,242,-140
1,2505915,2470,827,1136,3430,18,-42,332,242,-140
1,2505928,2470,827,1136,3430,18,-42,332,242,-140
1,2505942,2470,825,1142,3431,25,-52,332,242,-140
1,2505955,2474,823,1141,3435,17,-45,332,242,-140
1,2505968,2474,823,1141,3435,17,-45,332,242,-140
1,2505979,2468,844,1147,3429,12,-40,324,252,-132
1,2505994,2466,839,1142,3429,22,-49,324,252,-132
1,2506004,2466,839,1142,3429,22,-49,324,252,-132
1,2506012,2472,841,1144,3425,21,-50,324,252,-132
1,2506027,2472,841,1144,3425,21,-50,324,252,-132
1,2506040,2469,822,1136,3428,16,-46,324,252,-132
1,2506054,2473,853,1140,3427,20,-44,324,252,-132
1,2506067,2473,853,1140,3427,20,-44,324,252,-132
1,2506079,2471,838,1139,3425,19,-46,324,252,-132
1,2506094,2469,851,1145,3427,24,-55,328,242,-132
1,2506109,2477,837,1143,3423,19,-57,328,242,-132
1,2506123,2477,837,1143,3423,19,-57,328,242,-132
1,2506135,2469,856,1144,3425,23,-47,328,242,-132
1,2506149,2470,845,1139,3426,17,-49,328,242,-132
1,2506164,2470,845,1139,3426,17,-49,328,242,-132
1,2506177,2467,872,1140,3430,20,-46,328,242,-132
1,2506191,2473,866,1141,3430,19,-47,328,242,-132
1,2506204,2473,866,1141,3430,19,-47,328,242,-132
1,2506218,2464,875,1144,3436,15,-49,336,242,-126
1,2506230,2468,875,1147,3441,21,-47,336,242,-126
1,2506246,2468,875,1147,3441,21,-47,336,242,-126
1,2506262,2471,889,1147,3437,18,-47,336,242,-126
1,2506277,2470,888,1148,3428,19,-45,336,242,-126
1,2506293,2474,881,1145,3434,19,-47,336,242,-126
1,2506307,2474,881,1145,3434,19,-47,336,242,-126
1,2506316,2471,877,1146,3442,16,-56,336,242,-126
1,2506331,2472,885,1142,3442,22,-56,330,246,-128
1,2506344,2472,885,1142,3442,22,-56,330,246,-128
1,2506358,2467,862,1148,3439,17,-56,330,246,-128
1,2506373,2469,872,1147,3445,25,-53,330,246,-128
1,2506387,2469,872,1147,3445,25,-53,330,246,-128
1,2506398,2470,871,1147,3451,30,-49,330,246,-128
1,2506413,2470,867,1153,3444,22,-43,330,246,-128
1,2506426,2470,867,1153,3444,22,-43,330,246,-128
1,2506439,2474,871,1154,3433,18,-49,330,246,-128
1,2506454,2474,867,1158,3438,16,-49,330,246,-128
1,2506466,2474,867,1158,3438,16,-49,330,246,-128
1,2506480,2473,865,1150,3445,24,-51,330,242,-116
1,2506497,2472,862,1152,3442,22,-50,330,242,-116
1,2506512,2474,845,1152,3446,20,-46,330,242,-116
1,2506526,2474,845,1152,3446,20,-46,330,242,-116
1,2506539,2469,846,1153,3453,25,-49,330,242,-116
1,2506554,2475,843,1146,3450,24,-55,330,242,-116
1,2506569,2475,843,1146,3450,24,-55,330,242,-116
1,2506584,2473,798,1152,3448,25,-53,330,242,-116
1,2506597,2476,845,1155,3447,15,-48,337,253,-111
1,2506611,2470,826,1157,3440,17,-50,337,253,-111
1,2506625,2470,826,1157,3440,17,-50,337,253,-111
1,2506637,2469,833,1156,3449,22,-53,337,253,-111
1,2506651,2480,812,1149,3446,16,-53,337,253,-111
1,2506664,2480,812,1149,3446,16,-53,337,253,-111
1,2506679,2469,820,1148,3443,10,-49,337,253,-111
1,2506693,2477,818,1150,3443,12,-45,337,253,-111
1,2506707,2477,818,1150,3443,12,-45,337,253,-111
1,2506721,2468,801,1152,3432,7,-51,327,243,-107
1,2506733,2478,808,1142,3441,15,-56,327,243,-107
1,2506748,2478,808,1142,3441,15,-56,327,243,-107
1,2506764,2471,819,1149,3433,26,-56,327,243,-107
1,2506779,2471,821,1147,3431,20,-49,327,243,-107
1,2506792,2470,813,1147,3436,17,-41,327,243,-107
1,2506806,2470,813,1147,3436,17,-41,327,243,-107
1,2506820,2473,821,1144,3435,25,-47,327,243,-107
1,2506834,2479,819,1152,3433,19,-47,336,252,-102
1,2506847,2479,819,1152,3433,19,-47,336,252,-102
1,2506861,2474,823,1143,3435,13,-47,336,252,-102
1,2506875,2471,823,1137,3430,12,-56,336,252,-102
1,2506888,2471,823,1137,3430,12,-56,336,252,-102
1,2506897,2472,828,1145,3427,17,-53,336,252,-102
1,2506910,2474,832,1137,3428,25,-49,336,252,-102
1,2506919,2474,832,1137,3428,25,-49,336,252,-102
1,2506931,2468,842,1132,3425,20,-48,336,252,-102
1,2506944,2468,842,1132,3425,20,-48,336,252,-102
1,2506959,2471,834,1133,3428,24,-50,336,252,-102
1,2506975,2472,829,1142,3427,25,-52,326,240,-98
1,2506989,2472,829,1142,3427,25,-52,326,240,-98
1,2507002,2478,846,1145,3428,20,-50,326,240,-98
1,2507017,2471,837,1149,3438,14,-49,326,240,-98
1,2507032,2473,847,1145,3424,16,-53,326,240,-98
1,2507044,2473,847,1145,3424,16,-53,326,240,-98
1,2507057,2471,834,1137,3420,27,-53,326,240,-98
1,2507070,2470,854,1136,3429,21,-48,326,240,-98
1,2507084,2470,854,1136,3429,21,-48,326,240,-98
1,2507098,2470,849,1142,3431,16,-41,329,247,-89
1,2507112,2468,866,1137,3429,16,-58,329,247,-89
1,2507124,2468,866,1137,3429,16,-58,329,247,-89
1,2507137,2475,864,1137,3427,24,-59,329,247,-89
1,2507151,2471,861,1144,3429,24,-52,329,247,-89
1,2507166,2471,861,1144,3429,24,-52,329,247,-89
1,2507179,2473,876,1137,3428,20,-51,329,247,-89
1,2507192,2468,886,1146,3426,22,-48,329,247,-89
1,2507207,2468,886,1146,3426,22,-48,329,247,-89
1,2507224,2474,891,1145,3425,18,-49,326,242,-78
1,2507239,2472,884,1145,3435,14,-57,326,242,-78
1,2507252,2470,883,1146,3431,13,-55,326,242,-78
1,2507267,2470,883,1146,3431,13,-55,326,242,-78
1,2507281,2474,887,1143,3437,26,-44,326,242,-78
1,2507292,2467,867,1149,3437,17,-48,326,242,-78
1,2507307,2467,867,1149,3437,17,-48,326,242,-78
1,2507320,2473,868,1149,3442,16,-44,326,242,-78
1,2507334,2470,867,1152,3439,22,-45,315,247,-81
1,2507347,2470,867,1152,3439,22,-45,315,247,-81
1,2507361,2474,868,1149,3442,24,-49,315,247,-81
1,2507373,2469,868,1150,3434,20,-47,315,247,-81
1,2507386,2469,868,1150,3434,20,-47,315,247,-81
1,2507401,2471,870,1154,3441,21,-46,315,247,-81
1,2507413,2475,855,1152,3443,23,-49,315,247,-81
1,2507428,2475,855,1152,3443,23,-49,315,247,-81
1,2507443,2474,858,1148,3444,20,-47,315,247,-81
1,2507458,2473,855,1154,3446,14,-52,316,246,-80
1,2507470,2474,846,1157,3445,20,-45,316,246,-80
1,2507486,2474,846,1157,3445,20,-45,316,246,-80
1,2507501,2469,842,1148,3439,20,-46,316,246,-80
1,2507516,2474,830,1150,3445,18,-48,316,246,-80
1,2507527,2474,830,1150,3445,18,-48,316,246,-80
1,2507540,2473,809,1146,3447,23,-52,316,246,-80
1,2507553,2473,826,1153,3445,23,-43,316,246,-80
1,2507568,2473,826,1153,3445,23,-43,316,246,-80
1,2507581,2479,830,1158,3450,23,-44,316,246,-80
1,2507596,2471,805,1156,3448,25,-51,314,240,-74
1,2507609,2471,805,1156,3448,25,-51,314,240,-74
1,2507622,2478,813,1150,3441,16,-53,314,240,-74
1,2507637,2470,815,1152,3441,15,-43,314,240,-74
1,2507652,2473,825,1145,3443,16,-49,314,240,-74
1,2507666,2473,825,1145,3443,16,-49,314,240,-74
1,2507679,2469,799,1149,3449,18,-46,314,240,-74
1,2507694,2474,823,1135,3438,20,-51,314,240,-74
1,2507709,2474,823,1135,3438,20,-51,314,240,-74
1,2507722,2476,803,1152,3431,22,-52,305,245,-59
1,2507737,2471,817,1152,3433,12,-53,305,245,-59
1,2507750,2474,812,1146,3433,11,-51,305,245,-59
1,2507763,2474,812,1146,3433,11,-51,305,245,-59
1,2507779,2469,827,1140,3436,15,-52,305,245,-59
1,2507791,2479,820,1141,3429,18,-52,305,245,-59
1,2507805,2479,820,1141,3429,18,-52,305,245,-59
1,2507821,2466,826,1143,3426,14,-51,305,245,-59
1,2507834,2476,824,1144,3433,12,-44,308,248,-62
1,2507847,2476,824,1144,3433,12,-44,308,248,-62
1,2507863,2469,834,1146,3422,21,-50,308,248,-62
1,2507878,2472,837,1139,3425,16,-46,308,248,-62
1,2507893,2469,830,1137,3423,13,-48,308,248,-62
1,2507907,2469,830,1137,3423,13,-48,308,248,-62
1,2507919,2468,832,1136,3428,21,-50,308,248,-62
1,2507933,2474,848,1142,3420,24,-48,308,248,-62
1,2507944,2474,848,1142,3420,24,-48,308,248,-62
1,2507958,2469,836,1143,3424,23,-47,306,244,-52
1,2507972,2471,846,1140,3418,15,-54,306,244,-52
1,2507985,2471,846,1140,3418,15,-54,306,244,-52
1,2507999,2472,842,1138,3416,18,-53,306,244,-52
1,2508011,2470,854,1139,3422,19,-49,306,244,-52
1,2508024,2470,854,1139,3422,19,-49,306,244,-52
1,2508040,2472,850,1143,3427,19,-45,306,244,-52
1,2508055,2468,877,1133,3429,19,-51,306,244,-52
1,2508070,2473,861,1142,3427,26,-51,306,244,-52
1,2508084,2473,861,1142,3427,26,-51,306,244,-52
1,2508097,2472,856,1144,3429,17,-49,298,242,-52
1,2508112,2473,869,1141,3424,17,-54,298,242,-52
1,2508128,2473,869,1141,3424,17,-54,298,242,-52
1,2508141,2469,887,1144,3428,28,-46,298,242,-52
1,2508155,2475,879,1144,3435,25,-54,298,242,-52
1,2508169,2475,879,1144,3435,25,-54,298,242,-52
1,2508183,2469,885,1149,3426,20,-56,298,242,-52
1,2508197,2475,882,1145,3437,18,-52,298,242,-52
1,2508212,2468,886,1151,3433,20,-50,293,241,-41
1,2508225,2468,886,1151,3433,20,-50,293,241,-41
1,2508238,2474,878,1147,3438,22,-52,293,241,-41
1,2508254,2468,865,1146,3437,22,-53,293,241,-41
1,2508267,2468,865,1146,3437,22,-53,293,241,-41
1,2508282,2475,866,1144,3437,29,-56,293,241,-41
1,2508298,2471,861,1151,3444,25,-52,293,241,-41
1,2508313,2473,862,1149,3439,15,-51,293,241,-41
1,2508327,2473,862,1149,3439,15,-51,293,241,-41
1,2508341,2473,871,1153,3447,25,-51,281,233,-37
1,2508354,2472,859,1151,3453,23,-52,281,233,-37
1,2508367,2472,859,1151,3453,23,-52,281,233,-37
1,2508381,2475,857,1157,3445,20,-46,281,233,-37
1,2508394,2469,855,1154,3441,18,-54,281,233,-37
1,2508408,2469,855,1154,3441,18,-54,281,233,-37
1,2508422,2475,844,1151,3440,23,-55,281,233,-37
1,2508435,2473,839,1154,3439,26,-55,281,233,-37
1,2508448,2473,839,1154,3439,26,-55,281,233,-37
1,2508461,2472,832,1154,3437,29,-47,286,244,-32
1,2508475,2473,804,1154,3447,19,-56,286,244,-32
1,2508488,2473,804,1154,3447,19,-56,286,244,-32
1,2508502,2473,836,1150,3442,22,-53,286,244,-32
1,2508517,2473,830,1157,3436,19,-50,286,244,-32
1,2508531,2470,816,1151,3439,19,-43,286,244,-32
1,2508544,2470,816,1151,3439,19,-43,286,244,-32
1,2508558,2480,817,1150,3444,19,-52,286,244,-32
1,2508573,2475,812,1151,3437,21,-50,286,244,-32
1,2508590,2475,812,1151,3437,21,-50,286,244,-32
1,2508604,2476,814,1151,3438,21,-49,282,232,-30
1,2508615,2470,797,1150,3435,25,-51,282,232,-30
1,2508631,2472,817,1143,3437,20,-59,282,232,-30
1,2508644,2472,817,1143,3437,20,-59,282,232,-30
1,2508657,2474,813,1149,3433,20,-50,282,232,-30
1,2508670,2475,816,1141,3437,18,-46,282,232,-30
1,2508685,2475,816,1141,3437,18,-46,282,232,-30
1,2508699,2474,810,1138,3426,18,-47,282,232,-30
1,2508712,2478,825,1149,3425,28,-54,269,235,-25
1,2508726,2478,825,1149,3425,28,-54,269,235,-25
1,2508738,2477,817,1145,3426,23,-52,269,235,-25
1,2508752,2471,825,1144,3432,11,-44,269,235,-25
1,2508767,2471,825,1144,3432,11,-44,269,235,-25
1,2508778,2472,821,1142,3426,13,-50,269,235,-25
1,2508793,2472,822,1142,3425,22,-53,269,235,-25
1,2508809,2472,822,1142,3425,22,-53,269,235,-25
1,2508824,2474,848,1139,3428,18,-50,269,235,-25
1,2508838,2467,820,1145,3430,18,-47,272,234,-26
1,2508851,2475,839,1143,3426,21,-49,272,234,-26
1,2508865,2475,839,1143,3426,21,-49,272,234,-26
1,2508878,2479,824,1146,3426,25,-49,272,234,-26
1,2508892,2473,842,1138,3425,23,-48,272,234,-26
1,2508905,2473,842,1138,3425,23,-48,272,234,-26
1,2508920,2471,839,1142,3433,20,-46,272,234,-26
1,2508935,2466,849,1139,3427,24,-53,272,234,-26
1,2508948,2466,849,1139,3427,24,-53,272,234,-26
1,2508961,2477,852,1141,3422,31,-62,265,229,-23
1,2508975,2462,848,1146,3427,17,-56,265,229,-23
1,2508989,2462,848,1146,3427,17,-56,265,229,-23
1,2509004,2470,864,1136,3430,14,-46,265,229,-23
1,2509019,2467,867,1139,3422,31,-51,265,229,-23
1,2509033,2475,860,1145,3430,21,-53,265,229,-23
1,2509044,2475,860,1145,3430,21,-53,265,229,-23
1,2509059,2471,860,1143,3432,21,-50,265,229,-23
1,2509073,2470,889,1142,3429,12,-49,265,229,-23
1,2509085,2470,889,1142,3429,12,-49,265,229,-23
1,2509101,2467,882,1143,3429,22,-51,268,228,-16
1,2509114,2471,884,1148,3439,28,-54,268,228,-16
1,2509127,2471,884,1148,3439,28,-54,268,228,-16
1,2509142,2471,877,1145,3443,19,-55,268,228,-16
1,2509156,2471,878,1143,3442,19,-48,268,228,-16
1,2509167,2471,878,1143,3442,19,-48,268,228,-16
1,2509177,2471,876,1145,3451,23,-50,268,228,-16
1,2509191,2469,865,1148,3441,16,-54,268,228,-16
1,2509205,2469,865,1148,3441,16,-54,268,228,-16
1,2509214,2472,861,1147,3442,20,-45,259,235,-13
1,2509222,2472,861,1147,3442,20,-45,259,235,-13
1,2509231,2474,864,1155,3451,23,-44,259,235,-13
1,2509239,2474,864,1155,3451,23,-44,259,235,-13
1,2509252,2476,861,1147,3446,15,-47,259,235,-13
1,2509264,2476,861,1147,3446,15,-47,259,235,-13
1,2509279,2465,870,1156,3449,14,-54,259,235,-13
1,2509294,2476,864,1147,3440,20,-49,259,235,-13
1,2509309,2476,864,1147,3440,20,-49,259,235,-13
1,2509326,2472,850,1152,3447,24,-50,259,235,-13
1,2509339,2471,856,1150,3455,20,-50,257,231,-19
1,2509352,2470,849,1154,3452,20,-55,257,231,-19
1,2509368,2470,849,1154,3452,20,-55,257,231,-19
1,2509381,2475,837,1152,3445,24,-49,257,231,-19
1,2509395,2473,840,1150,3452,16,-54,257,231,-19
1,2509410,2473,840,1150,3452,16,-54,257,231,-19
1,2509423,2471,797,1153,3445,15,-53,257,231,-19
1,2509435,2475,834,1150,3449,20,-55,257,231,-19
1,2509449,2475,834,1150,3449,20,-55,257,231,-19
1,2509462,2469,811,1154,3447,26,-41,254,230,-24
1,2509476,2476,835,1156,3443,21,-52,254,230,-24
1,2509489,2476,835,1156,3443,21,-52,254,230,-24
1,2509504,2472,803,1155,3442,25,-49,254,230,-24
1,2509515,2471,823,1146,3440,16,-49,254,230,-24
1,2509530,2471,823,1146,3440,16,-49,254,230,-24
1,2509543,2478,812,1149,3442,18,-44,254,230,-24
1,2509557,2466,819,1148,3443,17,-51,254,230,-24
1,2509573,2478,798,1138,3433,18,-50,254,230,-24
1,2509588,2478,798,1138,3433,18,-50,254,230,-24
1,2509601,2472,814,1153,3433,18,-54,254,230,-24
1,2509615,2479,808,1147,3436,18,-44,254,230,-24
1,2509629,2479,808,1147,3436,18,-44,254,230,-24
1,2509643,2464,818,1146,3427,11,-47,254,230,-24
1,2509654,2474,818,1137,3430,23,-51,254,230,-24
1,2509667,2474,818,1137,3430,23,-51,254,230,-24
1,2509680,2471,821,1148,3433,23,-45,254,230,-24
1,2509693,2475,820,1143,3434,15,-50,254,230,-24
1,2509708,2475,820,1143,3434,15,-50,254,230,-24
1,2509721,2468,822,1143,3431,13,-43,244,236,-22
1,2509733,2475,822,1143,3419,19,-57,244,236,-22
1,2509747,2475,822,1143,3419,19,-57,244,236,-22
1,2509761,2475,837,1142,3422,18,-46,244,236,-22
1,2509775,2470,828,1143,3430,13,-48,244,236,-22
1,2509790,2470,828,1143,3430,13,-48,244,236,-22
1,2509805,2469,835,1140,3434,11,-51,244,236,-22
1,2509820,2471,828,1137,3427,18,-49,244,236,-22
1,2509835,2474,849,1139,3431,21,-50,244,234,-14
1,2509848,2474,849,1139,3431,21,-50,244,234,-14
1,2509863,2469,835,1141,3429,12,-43,244,234,-14
1,2509878,2473,846,1141,3428,12,-49,244,234,-14
1,2509892,2471,843,1137,3429,24,-49,244,234,-14
1,2509904,2471,843,1137,3429,24,-49,244,234,-14
1,2509918,2470,853,1137,3423,17,-49,244,234,-14
1,2509932,2469,848,1140,3424,15,-42,244,234,-14
1,2509946,2469,848,1140,3424,15,-42,244,234,-14
1,2509959,2469,870,1140,3425,18,-62,240,240,-26
1,2509969,2469,870,1140,3425,18,-62,240,240,-26
1,2509983,2477,864,1139,3425,28,-48,240,240,-26
1,2510000,2468,852,1143,3426,16,-52,240,240,-26
1,2510013,2474,873,1135,3430,14,-46,240,240,-26
1,2510027,2474,873,1135,3430,14,-46,240,240,-26
1,2510041,2466,880,1144,3434,28,-43,240,240,-26
1,2510049,2466,880,1144,3434,28,-43,240,240,-26
1,2510061,2476,880,1141,3435,22,-46,240,240,-26
1,2510074,2466,883,1151,3434,15,-50,237,241,-35
1,2510090,2466,883,1151,3434,15,-50,237,241,-35
1,2510105,2473,882,1141,3436,20,-50,237,241,-35
1,2510120,2470,878,1147,3444,22,-52,237,241,-35
1,2510135,2470,867,1144,3446,22,-46,237,241,-35
1,2510147,2470,867,1144,3446,22,-46,237,241,-35
1,2510160,2467,860,1148,3451,19,-54,237,241,-35
1,2510172,2470,861,1148,3439,17,-48,237,241,-35
1,2510186,2470,861,1148,3439,17,-48,237,241,-35
1,2510199,2472,855,1154,3444,21,-53,237,241,-35
1,2510213,2470,858,1155,3439,18,-50,236,240,-20
1,2510227,2470,858,1155,3439,18,-50,236,240,-20
1,2510240,2468,866,1150,3443,18,-49,236,240,-20
1,2510255,2471,855,1154,3445,27,-47,236,240,-20
1,2510268,2471,855,1154,3445,27,-47,236,240,-20
1,2510282,2470,853,1142,3444,25,-50,236,240,-20
1,2510298,2469,849,1151,3446,19,-53,236,240,-20
1,2510310,2469,849,1151,3446,19,-53,236,240,-20
1,2510324,2473,843,1145,3443,12,-45,236,240,-20
1,2510340,2469,839,1158,3448,21,-47,242,240,-28
1,2510355,2475,811,1149,3449,23,-43,242,240,-28
1,2510368,2475,811,1149,3449,23,-43,242,240,-28
1,2510382,2469,820,1148,3447,27,-48,242,240,-28
1,2510395,2472,826,1154,3447,27,-45,242,240,-28
1,2510407,2472,826,1154,3447,27,-45,242,240,-28
1,2510420,2470,839,1153,3445,15,-48,242,240,-28
1,2510434,2471,800,1149,3447,16,-52,242,240,-28
1,2510448,2471,800,1149,3447,16,-52,242,240,-28
1,2510461,2480,815,1145,3440,15,-56,228,236,-28
1,2510474,2472,805,1154,3443,22,-52,228,236,-28
1,2510486,2472,805,1154,3443,22,-52,228,236,-28
1,2510501,2473,808,1144,3446,17,-48,228,236,-28
1,2510514,2471,798,1143,3438,16,-51,228,236,-28
1,2510528,2471,798,1143,3438,16,-51,228,236,-28
1,2510543,2473,820,1147,3436,20,-49,228,236,-28
1,2510558,2473,817,1149,3439,20,-48,228,236,-28
1,2510573,2472,815,1145,3434,12,-46,225,243,-33
1,2510587,2472,815,1145,3434,12,-46,225,243,-33
1,2510601,2477,816,1140,3426,15,-52,225,243,-33
1,2510615,2473,820,1145,3433,25,-47,225,243,-33
1,2510625,2473,820,1145,3433,25,-47,225,243,-33
1,2510639,2479,815,1140,3430,17,-41,225,243,-33
1,2510652,2468,819,1136,3434,24,-44,225,243,-33
1,2510665,2468,819,1136,3434,24,-44,225,243,-33
1,2510680,2472,826,1138,3430,17,-51,225,243,-33
1,2510691,2476,828,1147,3425,20,-48,225,243,-33
1,2510704,2476,828,1147,3425,20,-48,225,243,-33
1,2510718,2471,851,1136,3426,12,-46,227,237,-29
1,2510732,2470,826,1143,3421,19,-53,227,237,-29
1,2510746,2470,826,1143,3421,19,-53,227,237,-29
1,2510760,2473,833,1137,3432,24,-48,227,237,-29
1,2510776,2480,830,1139,3427,24,-52,227,237,-29
1,2510790,2480,830,1139,3427,24,-52,227,237,-29
1,2510803,2470,842,1135,3423,18,-51,227,237,-29
1,2510819,2471,846,1135,3423,17,-53,227,237,-29
1,2510834,2470,840,1151,3422,20,-46,226,240,-42
1,2510848,2470,840,1151,3422,20,-46,226,240,-42
1,2510859,2476,844,1137,3424,20,-47,226,240,-42
1,2510872,2469,842,1140,3430,23,-42,226,240,-42
1,2510886,2469,842,1140,3430,23,-42,226,240,-42
1,2510900,2474,855,1130,3436,18,-47,226,240,-42
1,2510913,2470,861,1144,3434,22,-51,226,240,-42
1,2510924,2470,861,1144,3434,22,-51,226,240,-42
1,2510938,2470,861,1144,3434,22,-51,226,240,-42
1,2510952,2467,859,1146,3422,19,-45,222,242,-48
1,2510965,2467,859,1146,3422,19,-45,222,242,-48
1,2510980,2468,879,1136,3427,18,-45,222,242,-48
1,2510988,2468,879,1136,3427,18,-45,222,242,-48
1,2510996,2473,880,1147,3427,30,-46,222,242,-48
1,2511005,2473,880,1147,3427,30,-46,222,242,-48
1,2511014,2467,881,1152,3442,22,-47,222,242,-48
1,2511029,2467,881,1152,3442,22,-47,222,242,-48
1,2511044,2476,874,1142,3435,17,-42,222,242,-48
1,2511059,2469,870,1151,3431,22,-49,222,242,-48
1,2511074,2475,879,1144,3439,14,-45,215,241,-47
1,2511086,2475,879,1144,3439,14,-45,215,241,-47
1,2511101,2466,860,1154,3442,12,-51,215,241,-47
1,2511114,2469,864,1137,3439,14,-50,215,241,-47
1,2511127,2469,864,1137,3439,14,-50,215,241,-47
1,2511141,2468,864,1152,3442,17,-50,215,241,-47
1,2511156,2470,856,1146,3434,23,-46,215,241,-47
1,2511169,2470,856,1146,3434,23,-46,215,241,-47
1,2511183,2470,857,1149,3439,14,-55,215,241,-47
1,2511197,2470,854,1153,3442,16,-52,215,241,-47
1,2511209,2470,854,1153,3442,16,-52,215,241,-47
1,2511223,2476,851,1155,3445,20,-48,222,246,-60
1,2511239,2468,849,1152,3440,20,-41,222,246,-60
1,2511250,2468,849,1152,3440,20,-41,222,246,-60
1,2511264,2471,844,1144,3442,16,-54,222,246,-60
1,2511279,2472,844,1153,3448,20,-47,222,246,-60
1,2511294,2471,838,1151,3444,12,-49,222,246,-60
1,2511302,2471,838,1151,3444,12,-49,222,246,-60
1,2511313,2472,797,1153,3443,16,-46,222,246,-60
1,2511326,2472,797,1153,3443,16,-46,222,246,-60
1,2511339,2475,835,1152,3444,27,-50,224,238,-62
1,2511352,2472,817,1157,3444,21,-43,224,238,-62
1,2511367,2472,817,1157,3444,21,-43,224,238,-62
1,2511379,2467,822,1150,3445,21,-53,224,238,-62
1,2511391,2473,806,1146,3444,21,-53,224,238,-62
1,2511405,2473,806,1146,3444,21,-53,224,238,-62
1,2511418,2472,816,1143,3444,27,-41,224,238,-62
1,2511433,2472,812,1143,3441,20,-44,224,238,-62
1,2511449,2472,812,1143,3441,20,-44,224,238,-62
1,2511464,2463,800,1152,3439,18,-50,215,233,-67
1,2511479,2474,800,1139,3446,18,-48,215,233,-67
1,2511494,2472,815,1146,3444,26,-49,215,233,-67
1,2511507,2472,815,1146,3444,26,-49,215,233,-67
1,2511517,2474,820,1140,3436,15,-39,215,233,-67
1,2511529,2474,820,1140,3436,15,-39,215,233,-67
1,2511545,2465,806,1144,3434,13,-44,215,233,-67
1,2511558,2474,818,1139,3427,18,-53,215,233,-67
1,2511572,2474,816,1147,3424,20,-49,219,237,-73
1,2511586,2474,816,1147,3424,20,-49,219,237,-73
1,2511600,2475,820,1146,3429,17,-49,219,237,-73
1,2511616,2473,821,1140,3424,21,-50,219,237,-73
1,2511628,2473,821,1140,3424,21,-50,219,237,-73
1,2511641,2473,824,1136,3428,21,-43,219,237,-73
1,2511655,2483,830,1140,3420,24,-50,219,237,-73
1,2511669,2483,830,1140,3420,24,-50,219,237,-73
1,2511684,2465,843,1136,3429,13,-41,219,237,-73
1,2511698,2471,834,1132,3428,10,-53,219,237,-73
1,2511712,2468,827,1142,3426,19,-55,225,231,-77
1,2511726,2468,827,1142,3426,19,-55,225,231,-77
1,2511741,2477,837,1141,3431,17,-49,225,231,-77
1,2511757,2464,833,1143,3437,11,-37,225,231,-77
1,2511772,2472,842,1138,3432,15,-58,225,231,-77
1,2511784,2472,842,1138,3432,15,-58,225,231,-77
1,2511799,2475,839,1147,3430,20,-61,225,231,-77
1,2511811,2471,853,1142,3423,21,-47,225,231,-77
1,2511825,2471,853,1142,3423,21,-47,225,231,-77
1,2511840,2473,842,1140,3421,14,-52,226,224,-86
1,2511853,2468,864,1137,3415,19,-44,226,224,-86
1,2511865,2468,864,1137,3415,19,-44,226,224,-86
1,2511878,2470,869,1143,3419,20,-47,226,224,-86
1,2511892,2471,857,1143,3424,20,-45,226,224,-86
1,2511905,2471,857,1143,3424,20,-45,226,224,-86
1,2511920,2471,867,1134,3429,10,-46,226,224,-86
1,2511935,2466,880,1143,3428,21,-50,226,224,-86
1,2511950,2466,880,1143,3428,21,-50,226,224,-86
1,2511966,2471,887,1148,3429,21,-52,225,229,-89
1,2511981,2467,881,1148,3433,25,-49,225,229,-89
1,2511994,2472,875,1138,3434,18,-48,225,229,-89
1,2512008,2472,875,1138,3434,18,-48,225,229,-89
1,2512022,2467,878,1149,3438,19,-48,225,229,-89
1,2512035,2473,865,1149,3437,16,-48,225,229,-89
1,2512049,2473,865,1149,3437,16,-48,225,229,-89
1,2512064,2469,856,1145,3440,14,-47,225,229,-89
1,2512079,2470,859,1150,3440,22,-55,231,225,-91
1,2512093,2471,861,1149,3438,25,-46,231,225,-91
1,2512106,2471,861,1149,3438,25,-46,231,225,-91
1,2512120,2469,860,1146,3441,15,-48,231,225,-91
1,2512133,2469,868,1146,3446,13,-51,231,225,-91
1,2512145,2469,868,1146,3446,13,-51,231,225,-91
1,2512160,2470,847,1151,3441,22,-52,231,225,-91
1,2512174,2473,847,1148,3445,17,-52,231,225,-91
1,2512182,2473,847,1148,3445,17,-52,231,225,-91
1,2512190,2473,847,1148,3445,17,-52,231,225,-91
1,2512202,2470,841,1154,3447,18,-43,220,224,-102
1,2512218,2470,846,1150,3449,19,-46,220,224,-102
1,2512232,2470,837,1148,3453,23,-47,220,224,-102
1,2512246,2470,837,1148,3453,23,-47,220,224,-102
1,2512260,2471,792,1149,3448,21,-48,220,224,-102
1,2512273,2473,831,1145,3447,15,-48,220,224,-102
1,2512284,2473,831,1145,3447,15,-48,220,224,-102
1,2512297,2467,819,1144,3443,21,-45,220,224,-102
1,2512311,2473,834,1150,3449,20,-50,220,224,-102
1,2512325,2473,834,1150,3449,20,-50,220,224,-102
1,2512333,2471,793,1151,3442,15,-52,217,225,-109
1,2512345,2471,793,1151,3442,15,-52,217,225,-109
1,2512358,2473,816,1150,3438,23,-50,217,225,-109
1,2512371,2476,810,1146,3445,23,-39,217,225,-109
1,2512386,2476,810,1146,3445,23,-39,217,225,-109
1,2512397,2466,810,1146,3439,16,-50,217,225,-109
1,2512405,2466,810,1146,3439,16,-50,217,225,-109
1,2512413,2475,800,1142,3432,23,-53,217,225,-109
1,2512422,2475,800,1142,3432,23,-53,217,225,-109
1,2512431,2472,818,1142,3434,20,-52,217,225,-109
1,2512440,2472,818,1142,3434,20,-52,217,225,-109
1,2512449,2472,818,1142,3434,20,-52,217,225,-109
1,2512457,2470,819,1148,3439,22,-44,223,215,-109
1,2512466,2470,819,1148,3439,22,-44,223,215,-109
1,2512475,2467,807,1149,3440,19,-53,223,215,-109
1,2512484,2467,807,1149,3440,19,-53,223,215,-109
1,2512492,2473,815,1141,3438,22,-53,223,215,-109
1,2512500,2473,815,1141,3438,22,-53,223,215,-109
1,2512508,2473,815,1141,3438,22,-53,223,215,-109
1,2512517,2476,820,1147,3435,31,-48,223,215,-109
1,2512526,2476,820,1147,3435,31,-48,223,215,-109
1,2512534,2472,819,1143,3436,18,-42,223,215,-109
1,2512542,2472,819,1143,3436,18,-42,223,215,-109
1,2512550,2472,819,1143,3436,18,-42,223,215,-109
1,2512559,2469,818,1140,3431,14,-54,223,215,-109
1,2512568,2469,818,1140,3431,14,-54,223,215,-109
1,2512576,2468,822,1142,3427,19,-54,223,213,-119
1,2512584,2468,822,1142,3427,19,-54,223,213,-119
1,2512592,2474,821,1147,3425,18,-49,223,213,-119
1,2512602,2474,821,1147,3425,18,-49,223,213,-119
1,2512610,2474,821,1147,3425,18,-49,223,213,-119
1,2512619,2472,850,1138,3432,12,-49,223,213,-119
1,2512626,2472,850,1138,3432,12,-49,223,213,-119
1,2512635,2464,824,1139,3435,15,-53,223,213,-119
1,2512645,2464,824,1139,3435,15,-53,223,213,-119
1,2512655,2473,838,1141,3427,27,-55,223,213,-119
1,2512665,2473,838,1141,3427,27,-55,223,213,-119
1,2512674,2474,820,1142,3424,25,-54,223,213,-119
1,2512684,2474,820,1142,3424,25,-54,223,213,-119
1,2512697,2468,848,1144,3430,18,-48,222,218,-134
1,2512712,2473,841,1138,3430,21,-45,222,218,-134
1,2512728,2473,841,1138,3430,21,-45,222,218,-134
1,2512739,2468,849,1142,3428,21,-50,222,218,-134
1,2512752,2480,841,1141,3433,25,-50,222,218,-134
1,2512765,2480,841,1141,3433,25,-50,222,218,-134
1,2512779,2464,850,1145,3432,15,-42,222,218,-134
1,2512795,2469,852,1135,3430,22,-48,222,218,-134
1,2512807,2469,852,1135,3430,22,-48,222,218,-134
1,2512818,2466,870,1140,3433,29,-53,222,218,-134
1,2512832,2468,854,1145,3422,20,-47,233,223,-133
1,2512847,2468,854,1145,3422,20,-47,233,223,-133
1,2512862,2468,861,1139,3428,13,-57,233,223,-133
1,2512875,2469,879,1140,3429,14,-51,233,223,-133
1,2512890,2469,879,1140,3429,14,-51,233,223,-133
1,2512906,2469,884,1146,3432,15,-44,233,223,-133
1,2512921,2473,878,1147,3442,16,-55,233,223,-133
1,2512935,2472,876,1139,3442,19,-52,233,223,-133
1,2512950,2472,876,1139,3442,19,-52,233,223,-133
1,2512957,2470,870,1146,3433,20,-49,234,218,-144
1,2512970,2470,870,1146,3433,20,-49,234,218,-144
1,2512985,2469,879,1145,3433,18,-46,234,218,-144
1,2512999,2467,860,1148,3441,16,-46,234,218,-144
1,2513012,2469,857,1144,3445,19,-41,234,218,-144
1,2513027,2469,857,1144,3445,19,-41,234,218,-144
1,2513039,2469,855,1147,3444,20,-48,234,218,-144
1,2513054,2471,852,1152,3445,17,-44,234,218,-144
1,2513067,2471,852,1152,3445,17,-44,234,218,-144
1,2513081,2471,858,1150,3443,19,-48,250,222,-158
1,2513095,2471,854,1155,3442,19,-50,250,222,-158
1,2513108,2471,854,1155,3442,19,-50,250,222,-158
1,2513123,2472,845,1155,3442,19,-51,250,222,-158
1,2513134,2465,852,1151,3448,10,-46,250,222,-158
1,2513148,2465,852,1151,3448,10,-46,250,222,-158
1,2513163,2469,842,1149,3447,18,-47,250,222,-158
1,2513176,2469,843,1146,3448,28,-53,250,222,-158
1,2513190,2469,843,1146,3448,28,-53,250,222,-158
1,2513206,2471,817,1147,3441,30,-48,253,225,-157
1,2513221,2472,801,1155,3448,14,-53,253,225,-157
1,2513234,2473,830,1146,3446,27,-45,253,225,-157
1,2513249,2473,830,1146,3446,27,-45,253,225,-157
1,2513262,2469,826,1157,3447,23,-40,253,225,-157
1,2513275,2466,808,1150,3444,17,-49,253,225,-157
1,2513290,2466,808,1150,3444,17,-49,253,225,-157
1,2513304,2477,813,1150,3449,23,-54,253,225,-157
1,2513317,2472,809,1149,3448,21,-52,253,225,-157
1,2513332,2478,790,1152,3446,19,-44,265,223,-157
1,2513346,2478,790,1152,3446,19,-44,265,223,-157
1,2513360,2471,798,1145,3445,18,-44,265,223,-157
1,2513370,2471,798,1145,3445,18,-44,265,223,-157
1,2513384,2475,812,1141,3439,18,-54,265,223,-157
1,2513398,2471,818,1152,3436,29,-51,265,223,-157
1,2513414,2466,810,1145,3438,19,-43,265,223,-157
1,2513425,2466,810,1145,3438,19,-43,265,223,-157
1,2513439,2466,819,1139,3430,18,-45,265,223,-157
1,2513454,2474,821,1145,3422,26,-43,276,220,-166
1,2513468,2474,821,1145,3422,26,-43,276,220,-166
1,2513481,2476,818,1144,3423,16,-48,276,220,-166
1,2513496,2470,812,1141,3433,14,-47,276,220,-166
1,2513509,2470,812,1141,3433,14,-47,276,220,-166
1,2513522,2473,821,1137,3436,16,-56,276,220,-166
1,2513536,2477,824,1141,3420,23,-45,276,220,-166
1,2513549,2477,824,1141,3420,23,-45,276,220,-166
1,2513562,2469,818,1135,3425,22,-48,276,220,-166
1,2513577,2468,859,1137,3420,22,-50,283,223,-161
1,2513588,2468,859,1137,3420,22,-50,283,223,-161
1,2513602,2465,822,1139,3426,19,-45,283,223,-161
1,2513617,2472,836,1142,3425,23,-47,283,223,-161
1,2513633,2475,825,1134,3417,21,-50,283,223,-161
1,2513645,2475,825,1134,3417,21,-50,283,223,-161
1,2513658,2467,851,1138,3416,17,-50,283,223,-161
1,2513673,2477,834,1143,3420,24,-47,283,223,-161
1,2513687,2477,834,1143,3420,24,-47,283,223,-161
1,2513700,2470,844,1142,3420,17,-53,290,222,-158
1,2513712,2477,853,1138,3423,23,-46,290,222,-158
1,2513726,2477,853,1138,3423,23,-46,290,222,-158
1,2513739,2468,851,1140,3423,24,-40,290,222,-158
1,2513753,2473,860,1137,3430,19,-40,290,222,-158
1,2513767,2473,860,1137,3430,19,-40,290,222,-158
1,2513781,2468,866,1139,3434,22,-48,290,222,-158
1,2513796,2469,853,1142,3436,21,-42,290,222,-158
1,2513809,2469,853,1142,3436,21,-42,290,222,-158
1,2513820,2475,866,1143,3433,18,-42,290,222,-158
1,2513836,2466,873,1146,3426,13,-48,284,214,-156
1,2513846,2466,873,1146,3426,13,-48,284,214,-156
1,2513861,2469,883,1144,3425,20,-41,284,214,-156
1,2513876,2469,876,1146,3428,22,-49,284,214,-156
1,2513891,2469,876,1146,3428,22,-49,284,214,-156
1,2513905,2470,872,1151,3441,31,-44,284,214,-156
1,2513918,2469,873,1144,3440,20,-51,284,214,-156
1,2513933,2465,861,1147,3445,14,-41,284,214,-156
1,2513944,2465,861,1147,3445,14,-41,284,214,-156
1,2513958,2465,861,1147,3445,14,-41,297,215,-169
1,2513972,2465,858,1141,3433,22,-51,297,215,-169
1,2513986,2465,858,1141,3433,22,-51,297,215,-169
1,2513999,2471,855,1144,3440,23,-48,297,215,-169
1,2514014,2468,855,1147,3442,20,-48,297,215,-169
1,2514028,2468,855,1147,3442,20,-48,297,215,-169
1,2514039,2470,861,1148,3445,17,-46,297,215,-169
1,2514054,2473,849,1152,3444,22,-46,297,215,-169
1,2514069,2473,849,1152,3444,22,-46,297,215,-169
1,2514084,2469,850,1153,3439,20,-44,296,216,-164
1,2514098,2468,840,1150,3446,17,-43,296,216,-164
1,2514111,2468,840,1150,3446,17,-43,296,216,-164
1,2514125,2469,837,1149,3444,24,-50,296,216,-164
1,2514140,2466,834,1152,3444,24,-44,296,216,-164
1,2514152,2467,803,1150,3441,19,-41,296,216,-164
1,2514162,2467,803,1150,3441,19,-41,296,216,-164
1,2514174,2469,825,1150,3442,20,-48,296,216,-164
1,2514188,2469,825,1150,3442,20,-48,296,216,-164
1,2514201,2471,818,1150,3447,26,-42,295,209,-167
1,2514215,2472,830,1155,3450,19,-46,295,209,-167
1,2514228,2472,830,1155,3450,19,-46,295,209,-167
1,2514240,2470,802,1150,3450,18,-44,295,209,-167
1,2514254,2473,820,1151,3442,24,-51,295,209,-167
1,2514268,2473,820,1151,3442,24,-51,295,209,-167
1,2514281,2473,808,1145,3438,19,-54,295,209,-167
1,2514295,2468,818,1146,3443,18,-46,295,209,-167
1,2514310,2468,818,1146,3443,18,-46,295,209,-167
1,2514323,2473,797,1142,3441,26,-54,299,219,-161
1,2514338,2471,816,1149,3434,20,-54,299,219,-161
1,2514354,2476,809,1145,3433,19,-51,299,219,-161
1,2514367,2476,809,1145,3433,19,-51,299,219,-161
1,2514380,2468,814,1145,3434,21,-50,299,219,-161
1,2514393,2475,817,1138,3433,22,-58,299,219,-161
1,2514407,2475,817,1138,3433,22,-58,299,219,-161
1,2514420,2473,822,1145,3428,24,-48,299,219,-161
1,2514435,2478,818,1142,3427,21,-44,299,219,-161
1,2514450,2478,818,1142,3427,21,-44,299,219,-161
1,2514461,2469,824,1141,3431,17,-47,299,213,-161
1,2514475,2473,824,1142,3429,20,-48,299,213,-161
1,2514490,2473,824,1142,3429,20,-48,299,213,-161
1,2514503,2477,827,1146,3429,26,-58,299,213,-161
1,2514519,2470,838,1139,3429,12,-42,299,213,-161
1,2514533,2473,825,1136,3430,13,-44,299,213,-161
1,2514548,2473,825,1136,3430,13,-44,299,213,-161
1,2514563,2468,828,1138,3432,25,-55,299,213,-161
1,2514578,2477,838,1141,3430,27,-53,301,213,-159
1,2514591,2477,838,1141,3430,27,-53,301,213,-159
1,2514606,2466,838,1140,3431,13,-43,301,213,-159
1,2514620,2474,839,1129,3425,18,-50,301,213,-159
1,2514634,2473,840,1137,3427,21,-45,301,213,-159
1,2514648,2473,840,1137,3427,21,-45,301,213,-159
1,2514662,2472,850,1144,3428,22,-45,301,213,-159
1,2514675,2472,850,1144,3428,22,-45,301,213,-159
1,2514689,2472,850,1144,3428,22,-45,301,213,-159
1,2514703,2468,868,1144,3431,21,-46,312,224,-156
1,2514717,2472,864,1141,3428,24,-46,312,224,-156
1,2514729,2472,864,1141,3428,24,-46,312,224,-156
1,2514742,2470,858,1142,3428,17,-49,312,224,-156
1,2514757,2466,864,1142,3432,16,-46,312,224,-156
1,2514774,2470,882,1147,3436,30,-51,312,224,-156
1,2514789,2470,882,1147,3436,30,-51,312,224,-156
1,2514802,2471,867,1139,3430,21,-48,312,224,-156
1,2514814,2466,875,1151,3428,23,-53,313,227,-155
1,2514830,2466,875,1151,3428,23,-53,313,227,-155
1,2514843,2471,872,1143,3439,21,-50,313,227,-155
1,2514856,2464,872,1149,3439,22,-53,313,227,-155
1,2514866,2464,872,1149,3439,22,-53,313,227,-155
1,2514873,2469,862,1140,3439,17,-48,313,227,-155
1,2514882,2469,862,1140,3439,17,-48,313,227,-155
1,2514889,2469,862,1140,3439,17,-48,313,227,-155
1,2514904,2461,852,1144,3441,21,-47,313,227,-155
1,2514913,2468,852,1144,3443,23,-48,313,227,-155
1,2514921,2468,852,1144,3443,23,-48,313,227,-155
1,2514931,2468,852,1144,3443,23,-48,313,227,-155
1,2514940,2470,857,1152,3440,17,-43,313,227,-155
1,2514949,2470,857,1152,3440,17,-43,313,227,-155
1,2514959,2470,848,1154,3445,13,-51,313,233,-151
1,2514972,2471,862,1150,3440,15,-50,313,233,-151
1,2514987,2471,862,1150,3440,15,-50,313,233,-151
1,2515002,2471,851,1155,3440,21,-44,313,233,-151
1,2515017,2472,851,1153,3445,22,-51,313,233,-151
1,2515033,2468,844,1147,3448,16,-53,313,233,-151
1,2515048,2468,844,1147,3448,16,-53,313,233,-151
1,2515062,2470,839,1146,3449,20,-42,313,233,-151
1,2515073,2468,829,1158,3448,20,-45,320,232,-140
1,2515086,2468,829,1158,3448,20,-45,320,232,-140
1,2515097,2468,820,1149,3453,24,-49,320,232,-140
1,2515111,2468,820,1149,3453,24,-49,320,232,-140
1,2515125,2469,804,1147,3449,21,-54,320,232,-140
1,2515138,2469,831,1148,3436,27,-50,320,232,-140
1,2515150,2469,831,1148,3436,27,-50,320,232,-140
1,2515162,2473,828,1155,3441,20,-49,320,232,-140
1,2515176,2465,811,1150,3437,18,-49,320,232,-140
1,2515186,2465,811,1150,3437,18,-49,320,232,-140
1,2515201,2474,812,1145,3446,21,-54,316,236,-146
1,2515213,2473,810,1150,3442,18,-45,316,236,-146
1,2515227,2473,810,1150,3442,18,-45,316,236,-146
1,2515243,2472,801,1147,3438,15,-45,316,236,-146
1,2515259,2471,800,1155,3435,18,-60,316,236,-146
1,2515273,2470,813,1140,3436,20,-55,316,236,-146
1,2515284,2470,813,1140,3436,20,-55,316,236,-146
1,2515298,2473,816,1146,3439,26,-43,316,236,-146
1,2515311,2473,816,1146,3439,26,-43,316,236,-146
1,2515325,2471,813,1141,3432,11,-45,333,241,-139
1,2515340,2469,818,1141,3430,15,-50,333,241,-139
1,2515354,2475,820,1144,3433,25,-44,333,241,-139
1,2515367,2475,820,1144,3433,25,-44,333,241,-139
1,2515382,2473,814,1144,3431,22,-46,333,241,-139
1,2515395,2474,826,1144,3425,17,-44,333,241,-139
1,2515408,2474,826,1144,3425,17,-44,333,241,-139
1,2515423,2474,821,1141,3429,19,-46,333,241,-139
1,2515438,2470,829,1138,3427,28,-45,333,241,-139
1,2515453,2471,838,1143,3431,18,-45,328,246,-128
1,2515468,2471,838,1143,3431,18,-45,328,246,-128
1,2515482,2464,840,1135,3428,12,-50,328,246,-128
1,2515496,2475,828,1141,3429,20,-52,328,246,-128
1,2515505,2475,828,1141,3429,20,-52,328,246,-128
1,2515518,2472,822,1137,3425,21,-49,328,246,-128
1,2515532,2477,841,1142,3427,15,-50,328,246,-128
1,2515547,2477,841,1142,3427,15,-50,328,246,-128
1,2515560,2468,839,1142,3427,20,-49,328,246,-128
1,2515574,2470,847,1149,3432,17,-50,330,244,-128
1,2515589,2470,847,1149,3432,17,-50,330,244,-128
1,2515601,2473,842,1140,3423,28,-49,330,244,-128
1,2515613,2462,855,1135,3429,21,-51,330,244,-128
1,2515628,2462,855,1135,3429,21,-51,330,244,-128
1,2515644,2468,850,1135,3426,13,-46,330,244,-128
1,2515657,2463,863,1133,3426,24,-49,330,244,-128
1,2515672,2463,863,1133,3426,24,-49,330,244,-128
1,2515687,2471,856,1137,3429,22,-45,330,244,-128
1,2515701,2471,855,1145,3427,28,-44,328,242,-134
1,2515715,2467,871,1135,3428,20,-46,328,242,-134
1,2515729,2467,871,1135,3428,20,-46,328,242,-134
1,2515744,2466,881,1142,3430,18,-46,328,242,-134
1,2515760,2467,881,1142,3435,19,-50,328,242,-134
1,2515769,2467,881,1142,3435,19,-50,328,242,-134
1,2515783,2465,877,1144,3438,19,-45,328,242,-134
1,2515796,2470,868,1149,3438,25,-47,328,242,-134
1,2515811,2470,868,1149,3438,25,-47,328,242,-134
1,2515825,2468,877,1146,3439,24,-53,324,242,-132
1,2515838,2471,852,1151,3434,16,-57,324,242,-132
1,2515851,2471,852,1151,3434,16,-57,324,242,-132
1,2515864,2468,855,1147,3433,20,-50,324,242,-132
1,2515878,2468,858,1150,3441,20,-52,324,242,-132
1,2515892,2468,858,1150,3441,20,-52,324,242,-132
1,2515906,2467,858,1146,3441,18,-53,324,242,-132
1,2515918,2466,857,1150,3441,20,-51,324,242,-132
1,2515932,2466,857,1150,3441,20,-51,324,242,-132
1,2515946,2471,865,1146,3438,18,-52,324,242,-132
1,2515961,2467,842,1157,3441,20,-43,337,249,-115
1,2515976,2471,852,1149,3438,22,-46,337,249,-115
1,2515989,2471,852,1149,3438,22,-46,337,249,-115
1,2516004,2469,840,1150,3448,17,-55,337,249,-115
1,2516020,2468,844,1147,3452,24,-49,337,249,-115
1,2516034,2473,832,1150,3449,22,-41,337,249,-115
1,2516048,2473,832,1150,3449,22,-41,337,249,-115
1,2516063,2468,805,1147,3451,12,-45,337,249,-115
1,2516076,2477,820,1151,3452,21,-56,336,242,-112
1,2516091,2477,820,1151,3452,21,-56,336,242,-112
1,2516104,2469,819,1155,3447,26,-49,336,242,-112
1,2516116,2474,840,1153,3447,21,-45,336,242,-112
1,2516131,2474,840,1153,3447,21,-45,336,242,-112
1,2516145,2466,802,1155,3444,14,-54,336,242,-112
1,2516159,2475,815,1147,3448,25,-48,336,242,-112
1,2516174,2474,809,1151,3443,26,-44,336,242,-112
1,2516190,2474,809,1151,3443,26,-44,336,242,-112
1,2516205,2465,813,1148,3443,17,-47,322,240,-100
1,2516220,2473,790,1145,3441,17,-48,322,240,-100
1,2516234,2471,821,1137,3436,23,-43,322,240,-100
1,2516247,2471,821,1137,3436,23,-43,322,240,-100
1,2516261,2476,809,1146,3434,20,-45,322,240,-100
1,2516274,2473,817,1151,3437,15,-51,322,240,-100
1,2516287,2473,817,1151,3437,15,-51,322,240,-100
1,2516300,2474,815,1141,3432,22,-49,322,240,-100
1,2516315,2472,824,1149,3433,23,-52,329,251,-103
1,2516328,2472,824,1149,3433,23,-52,329,251,-103
1,2516342,2475,819,1146,3438,23,-48,329,251,-103
1,2516355,2470,822,1142,3434,16,-47,329,251,-103
1,2516368,2470,822,1142,3434,16,-47,329,251,-103
1,2516383,2476,821,1139,3427,22,-54,329,251,-103
1,2516399,2473,818,1143,3420,28,-53,329,251,-103
1,2516414,2472,849,1139,3429,17,-45,329,251,-103
1,2516426,2472,849,1139,3429,17,-45,329,251,-103
1,2516441,2467,824,1143,3430,18,-46,328,246,-94
1,2516457,2469,836,1139,3427,25,-48,328,246,-94
1,2516472,2469,836,1139,3427,25,-48,328,246,-94
1,2516487,2469,836,1139,3427,25,-48,328,246,-94
1,2516501,2467,842,1141,3424,19,-50,328,246,-94
1,2516514,2474,839,1139,3430,11,-54,328,246,-94
1,2516529,2474,839,1139,3430,11,-54,328,246,-94
1,2516544,2467,838,1141,3436,15,-51,328,246,-94
1,2516556,2477,845,1140,3428,12,-49,328,246,-94
1,2516569,2477,845,1140,3428,12,-49,328,246,-94
1,2516584,2467,848,1145,3428,11,-49,329,245,-93
1,2516598,2470,853,1131,3431,10,-47,329,245,-93
1,2516613,2470,853,1131,3431,10,-47,329,245,-93
1,2516625,2466,862,1140,3423,23,-51,329,245,-93
1,2516639,2472,862,1137,3425,25,-48,329,245,-93
1,2516653,2470,862,1141,3422,16,-42,329,245,-93
1,2516668,2470,862,1141,3422,16,-42,329,245,-93
1,2516683,2465,873,1142,3423,18,-47,329,245,-93
1,2516699,2471,881,1143,3429,23,-45,322,256,-88
1,2516713,2464,878,1148,3438,17,-48,322,256,-88
1,2516725,2464,878,1148,3438,17,-48,322,256,-88
1,2516739,2468,875,1133,3441,13,-48,322,256,-88
1,2516753,2467,872,1143,3434,18,-44,322,256,-88
1,2516767,2467,872,1143,3434,18,-44,322,256,-88
1,2516781,2472,874,1143,3441,21,-49,322,256,-88
1,2516795,2468,854,1153,3439,18,-49,322,256,-88
1,2516811,2468,854,1153,3439,18,-49,322,256,-88
1,2516824,2470,858,1151,3441,17,-50,329,251,-81
1,2516837,2471,854,1152,3445,21,-46,329,251,-81
1,2516850,2471,854,1152,3445,21,-46,329,251,-81
1,2516865,2467,857,1152,3437,22,-48,329,251,-81
1,2516879,2466,863,1147,3441,21,-49,329,251,-81
1,2516893,2467,858,1154,3441,19,-41,329,251,-81
1,2516909,2467,858,1154,3441,19,-41,329,251,-81
1,2516921,2469,852,1152,3445,24,-48,329,251,-81
1,2516936,2471,849,1153,3448,22,-50,318,240,-78
1,2516952,2471,849,1153,3448,22,-50,318,240,-78
1,2516967,2473,836,1153,3450,21,-53,318,240,-78
1,2516980,2471,837,1153,3445,19,-50,318,240,-78
1,2516993,2471,837,1153,3445,19,-50,318,240,-78
1,2517005,2473,825,1151,3438,18,-51,318,240,-78
1,2517019,2464,804,1149,3447,16,-48,318,240,-78
1,2517032,2464,804,1149,3447,16,-48,318,240,-78
1,2517047,2469,830,1141,3444,15,-50,318,240,-78
1,2517059,2466,829,1148,3441,19,-50,318,240,-78
1,2517071,2466,829,1148,3441,19,-50,318,240,-78
1,2517085,2468,808,1149,3442,19,-53,314,248,-74
1,2517099,2473,810,1151,3443,22,-49,314,248,-74
1,2517113,2468,807,1149,3442,18,-43,314,248,-74
1,2517129,2468,807,1149,3442,18,-43,314,248,-74
1,2517142,2475,805,1145,3440,14,-45,314,248,-74
1,2517156,2469,798,1147,3439,16,-41,314,248,-74
1,2517171,2469,798,1147,3439,16,-41,314,248,-74
1,2517186,2471,820,1139,3442,22,-48,314,248,-74
1,2517201,2473,820,1148,3434,34,-42,311,239,-61
1,2517216,2472,816,1139,3432,22,-45,311,239,-61
1,2517228,2472,816,1139,3432,22,-45,311,239,-61
1,2517240,2471,815,1145,3430,23,-47,311,239,-61
1,2517255,2473,821,1141,3423,29,-51,311,239,-61
1,2517268,2473,821,1141,3423,29,-51,311,239,-61
1,2517282,2477,819,1145,3426,25,-42,311,239,-61
1,2517295,2468,820,1142,3437,23,-46,311,239,-61
1,2517307,2468,820,1142,3437,23,-46,311,239,-61
1,2517321,2471,826,1139,3427,18,-56,303,251,-51
1,2517338,2476,823,1140,3428,24,-49,303,251,-51
1,2517352,2476,823,1140,3428,24,-49,303,251,-51
1,2517365,2473,848,1140,3422,15,-45,303,251,-51
1,2517381,2473,829,1139,3432,5,-41,303,251,-51
1,2517396,2470,836,1135,3429,17,-49,303,251,-51
1,2517411,2470,836,1135,3429,17,-49,303,251,-51
1,2517427,2474,819,1135,3430,20,-50,303,251,-51
1,2517440,2477,847,1141,3429,13,-51,297,241,-55
1,2517453,2470,838,1141,3429,15,-45,297,241,-55
1,2517468,2470,838,1141,3429,15,-45,297,241,-55
1,2517483,2466,849,1139,3421,20,-47,297,241,-55
1,2517498,2475,836,1138,3421,28,-47,297,241,-55
1,2517510,2475,836,1138,3421,28,-47,297,241,-55
1,2517523,2472,852,1140,3429,23,-46,297,241,-55
1,2517539,2472,848,1139,3425,19,-51,297,241,-55
1,2517554,2467,858,1140,3423,16,-46,297,241,-55
1,2517568,2467,858,1140,3423,16,-46,297,241,-55
1,2517582,2477,869,1135,3426,20,-47,301,243,-49
1,2517598,2466,859,1142,3428,18,-42,301,243,-49
1,2517613,2466,859,1142,3428,18,-42,301,243,-49
1,2517627,2469,879,1134,3428,12,-50,301,243,-49
1,2517641,2465,879,1142,3426,20,-55,301,243,-49
1,2517655,2468,887,1140,3435,19,-48,301,243,-49
1,2517668,2468,887,1140,3435,19,-48,301,243,-49
1,2517680,2472,873,1139,3435,20,-46,301,243,-49
1,2517694,2465,874,1152,3434,20,-52,293,237,-45
1,2517707,2465,874,1152,3434,20,-52,293,237,-45
1,2517721,2473,876,1142,3438,22,-50,293,237,-45
1,2517734,2467,861,1144,3449,21,-45,293,237,-45
1,2517749,2467,861,1144,3449,21,-45,293,237,-45
1,2517763,2468,861,1141,3444,14,-48,293,237,-45
1,2517775,2466,867,1147,3442,21,-48,293,237,-45
1,2517789,2466,867,1147,3442,21,-48,293,237,-45
1,2517803,2474,852,1140,3435,20,-52,293,237,-45
1,2517817,2468,857,1154,3443,18,-58,295,241,-29
1,2517829,2468,857,1154,3443,18,-58,295,241,-29
1,2517842,2469,858,1150,3434,19,-47,295,241,-29
1,2517858,2475,852,1156,3436,23,-45,295,241,-29
1,2517871,2475,852,1156,3436,23,-45,295,241,-29
1,2517883,2468,853,1149,3441,21,-42,295,241,-29
1,2517898,2470,844,1147,3451,20,-48,295,241,-29
1,2517912,2470,844,1147,3451,20,-48,295,241,-29
1,2517925,2470,844,1147,3451,20,-48,295,241,-29
1,2517940,2470,846,1151,3451,21,-42,285,239,-37
1,2517953,2473,795,1157,3452,12,-39,285,239,-37
1,2517968,2473,795,1157,3452,12,-39,285,239,-37
1,2517982,2469,832,1148,3439,16,-50,285,239,-37
1,2517994,2470,812,1152,3445,24,-46,285,239,-37
1,2518007,2470,812,1152,3445,24,-46,285,239,-37
1,2518020,2470,833,1149,3447,21,-52,285,239,-37
1,2518035,2471,800,1148,3445,17,-58,285,239,-37
1,2518049,2471,800,1148,3445,17,-58,285,239,-37
1,2518062,2475,826,1150,3443,11,-52,285,239,-37
1,2518075,2477,795,1149,3440,17,-44,274,238,-22
1,2518091,2477,795,1149,3440,17,-44,274,238,-22
1,2518107,2472,814,1151,3430,15,-48,274,238,-22
1,2518122,2473,799,1138,3435,18,-58,274,238,-22
1,2518132,2473,799,1138,3435,18,-58,274,238,-22
1,2518146,2474,834,1143,3433,20,-47,274,238,-22
1,2518160,2472,804,1142,3430,19,-48,274,238,-22
1,2518174,2464,822,1138,3434,16,-54,274,238,-22
1,2518189,2464,822,1138,3434,16,-54,274,238,-22
1,2518203,2475,815,1138,3437,27,-49,281,239,-25
1,2518215,2468,829,1140,3423,27,-48,281,239,-25
1,2518227,2468,829,1140,3423,27,-48,281,239,-25
1,2518242,2468,829,1140,3423,27,-48,281,239,-25
1,2518255,2466,829,1139,3430,12,-55,281,239,-25
1,2518269,2466,829,1139,3430,12,-55,281,239,-25
1,2518286,2480,822,1137,3429,22,-42,281,239,-25
1,2518301,2476,830,1142,3429,23,-49,281,239,-25
1,2518317,2467,846,1137,3430,18,-48,272,238,-26
1,2518332,2467,846,1137,3430,18,-48,272,238,-26
1,2518347,2466,831,1137,3426,12,-58,272,238,-26
1,2518361,2471,831,1140,3430,16,-57,272,238,-26
1,2518375,2475,838,1136,3429,19,-49,272,238,-26
1,2518389,2475,838,1136,3429,19,-49,272,238,-26
1,2518402,2465,840,1142,3427,15,-48,272,238,-26
1,2518417,2474,842,1135,3431,19,-52,272,238,-26
1,2518430,2474,842,1135,3431,19,-52,272,238,-26
1,2518445,2474,842,1148,3427,23,-49,263,237,-21
1,2518459,2475,852,1134,3427,13,-43,263,237,-21
1,2518472,2475,852,1134,3427,13,-43,263,237,-21
1,2518489,2472,854,1135,3421,19,-45,263,237,-21
1,2518503,2468,867,1131,3423,20,-51,263,237,-21
1,2518519,2472,861,1138,3432,19,-44,263,237,-21
1,2518535,2471,856,1144,3425,21,-54,263,237,-21
1,2518549,2471,856,1144,3425,21,-54,263,237,-21
1,2518562,2467,866,1138,3425,21,-48,263,237,-21
1,2518578,2466,884,1146,3435,23,-53,259,241,-25
1,2518593,2465,880,1143,3434,21,-48,259,241,-25
1,2518607,2465,880,1143,3434,21,-48,259,241,-25
1,2518620,2467,878,1147,3426,18,-57,259,241,-25
1,2518632,2467,878,1147,3426,18,-57,259,241,-25
1,2518645,2468,876,1146,3432,24,-44,259,241,-25
1,2518660,2465,881,1143,3440,18,-51,259,241,-25
1,2518674,2469,869,1143,3438,21,-56,259,241,-25
1,2518687,2469,869,1143,3438,21,-56,259,241,-25
1,2518700,2466,857,1144,3435,17,-50,266,232,-26
1,2518713,2466,857,1144,3435,17,-50,266,232,-26
1,2518728,2474,862,1146,3432,17,-44,266,232,-26
1,2518740,2466,860,1146,3437,14,-39,266,232,-26
1,2518755,2462,860,1144,3446,15,-47,266,232,-26
1,2518770,2462,860,1144,3446,15,-47,266,232,-26
1,2518786,2468,862,1146,3443,13,-47,266,232,-26
1,2518800,2466,845,1154,3436,19,-49,266,232,-26
1,2518813,2466,845,1154,3436,19,-49,266,232,-26
1,2518828,2474,851,1152,3439,19,-46,250,228,-18
1,2518843,2468,849,1150,3437,21,-37,250,228,-18
1,2518857,2471,845,1148,3442,24,-39,250,228,-18
1,2518867,2471,845,1148,3442,24,-39,250,228,-18
1,2518883,2468,840,1152,3444,19,-41,250,228,-18
1,2518896,2469,824,1147,3446,15,-49,250,228,-18
1,2518910,2469,824,1147,3446,15,-49,250,228,-18
1,2518925,2469,813,1150,3445,22,-43,250,228,-18
1,2518938,2467,831,1145,3450,19,-35,257,235,-19
1,2518950,2467,831,1145,3450,19,-35,257,235,-19
1,2518965,2475,829,1148,3441,19,-45,257,235,-19
1,2518978,2468,806,1146,3439,16,-51,257,235,-19
1,2518992,2468,806,1146,3439,16,-51,257,235,-19
1,2519007,2479,810,1148,3450,17,-51,257,235,-19
1,2519022,2471,816,1152,3443,18,-52,257,235,-19
1,2519037,2469,822,1143,3435,12,-52,257,235,-19
1,2519052,2469,822,1143,3435,12,-52,257,235,-19
1,2519065,2475,803,1146,3442,10,-52,250,230,-26
1,2519079,2469,825,1142,3435,20,-51,250,230,-26
1,2519095,2475,817,1142,3440,25,-47,250,230,-26
1,2519107,2475,817,1142,3440,25,-47,250,230,-26
1,2519120,2471,820,1146,3437,15,-48,250,230,-26
1,2519135,2472,809,1138,3435,20,-48,250,230,-26
1,2519149,2472,809,1138,3435,20,-48,250,230,-26
1,2519162,2472,824,1149,3432,21,-52,250,230,-26
1,2519177,2480,813,1148,3427,19,-45,250,230,-26
1,2519191,2480,813,1148,3427,19,-45,250,230,-26
1,2519203,2471,827,1148,3437,21,-48,242,236,-20
1,2519216,2473,827,1137,3428,21,-48,242,236,-20
1,2519230,2473,827,1137,3428,21,-48,242,236,-20
1,2519243,2472,829,1142,3428,28,-47,242,236,-20
1,2519258,2472,849,1138,3427,21,-41,242,236,-20
1,2519272,2472,849,1138,3427,21,-41,242,236,-20
1,2519286,2464,827,1135,3420,17,-51,242,236,-20
1,2519300,2475,837,1139,3427,24,-53,242,236,-20
1,2519315,2473,831,1138,3427,20,-50,246,234,-16
1,2519330,2473,831,1138,3427,20,-50,246,234,-16
1,2519346,2470,842,1141,3427,24,-40,246,234,-16
1,2519359,2472,840,1136,3435,17,-51,246,234,-16
1,2519371,2472,840,1136,3435,17,-51,246,234,-16
1,2519387,2466,847,1137,3427,17,-53,246,234,-16
1,2519401,2480,848,1139,3429,22,-58,246,234,-16
1,2519409,2480,848,1139,3429,22,-58,246,234,-16
1,2519424,2467,844,1142,3434,10,-48,246,234,-16
1,2519436,2473,857,1140,3431,15,-50,233,235,-27
1,2519450,2473,857,1140,3431,15,-50,233,235,-27
1,2519463,2466,872,1142,3430,26,-53,233,235,-27
1,2519478,2471,862,1131,3423,18,-44,233,235,-27
1,2519491,2471,862,1131,3423,18,-44,233,235,-27
1,2519506,2469,861,1138,3423,17,-43,233,235,-27
1,2519519,2463,876,1137,3433,16,-46,233,235,-27
1,2519533,2463,876,1137,3433,16,-46,233,235,-27
1,2519548,2471,884,1140,3435,19,-47,233,235,-27
1,2519564,2467,875,1145,3440,21,-40,230,236,-28
1,2519576,2471,878,1143,3440,14,-40,230,236,-28
1,2519588,2471,878,1143,3440,14,-40,230,236,-28
1,2519604,2468,873,1148,3441,20,-44,230,236,-28
1,2519617,2464,878,1140,3443,19,-50,230,236,-28
1,2519630,2464,878,1140,3443,19,-50,230,236,-28
1,2519645,2465,861,1146,3442,14,-50,230,236,-28
1,2519655,2465,867,1139,3442,17,-51,230,236,-28
1,2519668,2465,867,1139,3442,17,-51,230,236,-28
1,2519681,2468,861,1151,3449,16,-49,230,236,-28
1,2519695,2467,852,1148,3447,16,-42,234,238,-22
1,2519709,2467,852,1148,3447,16,-42,234,238,-22
1,2519723,2467,861,1150,3442,23,-44,234,238,-22
1,2519736,2472,864,1154,3439,16,-46,234,238,-22
1,2519751,2472,864,1154,3439,16,-46,234,238,-22
1,2519767,2466,847,1153,3439,20,-48,234,238,-22
1,2519782,2473,853,1153,3449,19,-51,234,238,-22
1,2519794,2468,845,1149,3450,18,-42,234,238,-22
1,2519806,2468,845,1149,3450,18,-42,234,238,-22
1,2519820,2467,845,1154,3446,19,-49,224,244,-22
1,2519834,2470,832,1150,3453,30,-39,224,244,-22
1,2519847,2470,832,1150,3453,30,-39,224,244,-22
1,2519860,2466,802,1146,3449,23,-41,224,244,-22
1,2519873,2466,802,1146,3449,23,-41,224,244,-22
1,2519886,2475,836,1149,3446,25,-53,224,244,-22
1,2519900,2466,827,1151,3450,28,-48,224,244,-22
1,2519914,2474,815,1151,3444,19,-56,224,244,-22
1,2519928,2474,815,1151,3444,19,-56,224,244,-22
1,2519942,2478,812,1149,3436,22,-61,224,242,-36
1,2519953,2478,812,1149,3436,22,-61,224,242,-36
1,2519968,2473,816,1152,3443,20,-52,224,242,-36
1,2519977,2478,810,1142,3438,20,-47,224,242,-36
1,2519994,2468,803,1147,3438,17,-47,224,242,-36
1,2520009,2468,803,1147,3438,17,-47,224,242,-36
1,2520025,2475,816,1136,3437,20,-56,224,242,-36
1,2520038,2473,822,1146,3438,27,-48,224,242,-36
1,2520051,2473,822,1146,3438,27,-48,224,242,-36
1,2520066,2473,822,1146,3438,27,-48,220,240,-40
1,2520078,2472,819,1142,3436,17,-52,220,240,-40
1,2520090,2472,819,1142,3436,17,-52,220,240,-40
1,2520099,2471,820,1140,3429,23,-50,220,240,-40
1,2520113,2471,820,1140,3429,23,-50,220,240,-40
1,2520125,2479,821,1147,3433,19,-47,220,240,-40
1,2520138,2472,819,1138,3430,17,-44,220,240,-40
1,2520152,2472,819,1138,3430,17,-44,220,240,-40
1,2520166,2475,829,1141,3427,20,-50,220,240,-40
1,2520180,2468,824,1139,3433,24,-49,220,240,-40
1,2520196,2469,846,1141,3432,21,-47,223,239,-33
1,2520209,2469,846,1141,3432,21,-47,223,239,-33
1,2520222,2470,829,1139,3431,15,-48,223,239,-33
1,2520237,2467,840,1136,3425,26,-55,223,239,-33
1,2520252,2467,840,1136,3425,26,-55,223,239,-33
1,2520267,2476,824,1138,3428,29,-47,223,239,-33
1,2520281,2474,841,1138,3422,21,-50,223,239,-33
1,2520291,2474,841,1138,3422,21,-50,223,239,-33
1,2520305,2469,832,1136,3422,18,-52,223,239,-33
1,2520318,2473,851,1146,3431,15,-56,218,238,-36
1,2520333,2473,851,1146,3431,15,-56,218,238,-36
1,2520347,2475,848,1142,3424,18,-51,218,238,-36
1,2520360,2468,857,1139,3426,17,-48,218,238,-36
1,2520373,2468,857,1139,3426,17,-48,218,238,-36
1,2520386,2469,859,1134,3423,15,-51,218,238,-36
1,2520400,2467,871,1139,3430,18,-49,218,238,-36
1,2520415,2474,863,1139,3426,20,-46,218,238,-36
1,2520430,2474,863,1139,3426,20,-46,218,238,-36
1,2520444,2466,852,1143,3421,14,-49,220,236,-46
1,2520460,2471,873,1141,3425,16,-51,220,236,-46
1,2520473,2471,873,1141,3425,16,-51,220,236,-46
1,2520488,2464,880,1140,3429,20,-51,220,236,-46
1,2520503,2471,882,1143,3445,22,-49,220,236,-46
1,2520517,2469,885,1141,3436,13,-51,220,236,-46
1,2520529,2469,885,1141,3436,13,-51,220,236,-46
1,2520543,2465,884,1143,3437,15,-49,220,236,-46
1,2520557,2471,877,1146,3439,21,-46,216,240,-52
1,2520570,2471,877,1146,3439,21,-46,216,240,-52
1,2520584,2467,865,1147,3437,19,-50,216,240,-52
1,2520599,2468,855,1145,3440,19,-44,216,240,-52
1,2520613,2468,855,1145,3440,19,-44,216,240,-52
1,2520625,2467,863,1148,3433,23,-48,216,240,-52
1,2520639,2470,858,1145,3441,15,-46,216,240,-52
1,2520652,2470,858,1145,3441,15,-46,216,240,-52
1,2520668,2466,860,1150,3444,21,-46,216,240,-52
1,2520682,2467,863,1147,3439,15,-49,216,240,-52
1,2520697,2471,853,1155,3444,23,-49,221,239,-53
1,2520713,2471,853,1155,3444,23,-49,221,239,-53
1,2520725,2473,856,1149,3440,20,-40,221,239,-53
1,2520740,2471,856,1153,3445,17,-46,221,239,-53
1,2520755,2468,841,1152,3442,13,-52,221,239,-53
1,2520769,2468,841,1152,3442,13,-52,221,239,-53
1,2520783,2469,838,1150,3440,14,-45,221,239,-53
1,2520795,2471,809,1148,3445,20,-46,221,239,-53
1,2520808,2471,809,1148,3445,20,-46,221,239,-53
1,2520822,2469,831,1151,3443,21,-51,218,226,-58
1,2520836,2471,824,1151,3449,24,-46,218,226,-58
1,2520850,2471,824,1151,3449,24,-46,218,226,-58
1,2520863,2469,842,1148,3445,23,-44,218,226,-58
1,2520878,2469,800,1149,3445,17,-52,218,226,-58
1,2520891,2469,800,1149,3445,17,-52,218,226,-58
1,2520904,2477,821,1149,3452,22,-50,218,226,-58
1,2520919,2475,811,1148,3444,26,-43,218,226,-58
1,2520933,2475,811,1148,3444,26,-43,218,226,-58
1,2520948,2468,821,1146,3440,18,-44,220,226,-76
1,2520963,2471,802,1144,3444,16,-49,220,226,-76
1,2520977,2474,826,1145,3440,23,-49,220,226,-76
1,2520991,2474,826,1145,3440,23,-49,220,226,-76
1,2521005,2473,816,1146,3430,21,-46,220,226,-76
1,2521019,2468,816,1148,3426,11,-49,220,226,-76
1,2521033,2468,816,1148,3426,11,-49,220,226,-76
1,2521044,2475,818,1138,3426,13,-51,220,226,-76
1,2521058,2470,824,1143,3426,18,-49,222,226,-72
1,2521071,2470,824,1143,3426,18,-49,222,226,-72
1,2521085,2478,819,1148,3428,19,-44,222,226,-72
1,2521100,2468,824,1144,3428,15,-50,222,226,-72
1,2521111,2468,824,1144,3428,15,-50,222,226,-72
1,2521125,2474,828,1135,3427,17,-47,222,226,-72
1,2521139,2475,825,1142,3425,20,-44,222,226,-72
1,2521153,2475,825,1142,3425,20,-44,222,226,-72
1,2521163,2470,848,1138,3425,8,-48,222,226,-72
1,2521177,2469,827,1131,3426,13,-53,226,228,-76
1,2521191,2469,827,1131,3426,13,-53,226,228,-76
1,2521205,2472,839,1139,3422,25,-52,226,228,-76
1,2521219,2478,825,1138,3431,25,-50,226,228,-76
1,2521233,2478,825,1138,3431,25,-50,226,228,-76
1,2521247,2469,846,1139,3429,18,-45,226,228,-76
1,2521262,2471,839,1130,3422,20,-51,226,228,-76
1,2521275,2471,839,1130,3422,20,-51,226,228,-76
1,2521288,2471,839,1130,3422,20,-51,226,228,-76
1,2521297,2477,845,1136,3429,18,-55,226,228,-76
1,2521310,2477,845,1136,3429,18,-55,226,228,-76
1,2521325,2472,855,1141,3421,16,-45,218,222,-84
1,2521338,2470,854,1131,3423,18,-52,218,222,-84
1,2521352,2470,854,1131,3423,18,-52,218,222,-84
1,2521363,2467,872,1140,3423,17,-52,218,222,-84
1,2521377,2469,858,1136,3426,22,-54,218,222,-84
1,2521391,2469,858,1136,3426,22,-54,218,222,-84
1,2521405,2468,864,1138,3431,19,-46,218,222,-84
1,2521418,2470,878,1139,3427,15,-52,218,222,-84
1,2521432,2470,878,1139,3427,15,-52,218,222,-84
1,2521444,2467,883,1140,3432,23,-48,219,223,-91
1,2521459,2470,884,1143,3431,21,-41,219,223,-91
1,2521475,2469,881,1146,3437,17,-42,219,223,-91
1,2521487,2469,881,1146,3437,17,-42,219,223,-91
1,2521499,2466,877,1148,3441,19,-45,219,223,-91
1,2521513,2466,877,1148,3441,19,-45,219,223,-91
1,2521527,2470,882,1142,3444,24,-44,219,223,-91
1,2521541,2460,867,1147,3439,20,-54,219,223,-91
1,2521554,2467,861,1150,3444,23,-50,227,221,-93
1,2521567,2467,861,1150,3444,23,-50,227,221,-93
1,2521581,2467,859,1148,3447,25,-51,227,221,-93
1,2521594,2469,857,1150,3443,13,-48,227,221,-93
1,2521608,2469,857,1150,3443,13,-48,227,221,-93
1,2521622,2468,869,1147,3448,18,-51,227,221,-93
1,2521637,2469,858,1150,3439,26,-55,227,221,-93
1,2521649,2469,858,1150,3439,26,-55,227,221,-93
1,2521662,2472,850,1145,3442,27,-54,227,221,-93
1,2521677,2468,854,1153,3448,24,-46,217,219,-107
1,2521693,2468,854,1153,3448,24,-46,217,219,-107
1,2521708,2469,847,1153,3446,17,-47,217,219,-107
1,2521721,2468,844,1152,3444,17,-45,217,219,-107
1,2521733,2468,844,1152,3444,17,-45,217,219,-107
1,2521746,2471,829,1144,3456,21,-51,217,219,-107
1,2521759,2473,802,1154,3455,22,-42,217,219,-107
1,2521774,2473,802,1154,3455,22,-42,217,219,-107
1,2521787,2472,846,1144,3438,20,-45,217,219,-107
1,2521802,2475,834,1150,3442,23,-49,217,219,-107
1,2521814,2475,834,1150,3442,23,-49,217,219,-107
1,2521827,2468,824,1151,3443,19,-49,227,219,-117
1,2521840,2477,812,1143,3441,20,-54,227,219,-117
1,2521856,2473,818,1144,3443,22,-47,227,219,-117
1,2521870,2473,818,1144,3443,22,-47,227,219,-117
1,2521878,2480,812,1145,3444,23,-42,227,219,-117
1,2521886,2480,812,1145,3444,23,-42,227,219,-117
1,2521894,2480,812,1145,3444,23,-42,227,219,-117
1,2521908,2472,798,1148,3436,20,-49,227,219,-117
1,2521921,2470,816,1138,3439,18,-48,227,219,-117
1,2521934,2470,816,1138,3439,18,-48,227,219,-117
1,2521948,2473,822,1147,3436,21,-46,225,221,-113
1,2521961,2470,817,1142,3436,15,-40,225,221,-113
1,2521975,2470,814,1138,3435,12,-47,225,221,-113
1,2521989,2470,814,1138,3435,12,-47,225,221,-113
1,2522003,2476,822,1137,3428,24,-43,225,221,-113
1,2522014,2474,826,1144,3425,17,-47,225,221,-113
1,2522029,2474,826,1144,3425,17,-47,225,221,-113
1,2522042,2473,824,1142,3427,11,-47,225,221,-113
1,2522056,2468,829,1141,3428,20,-50,219,215,-113
1,2522072,2468,829,1141,3428,20,-50,219,215,-113
1,2522087,2470,826,1140,3423,23,-50,219,215,-113
1,2522101,2474,852,1141,3420,23,-48,219,215,-113
1,2522115,2469,834,1136,3420,20,-36,219,215,-113
1,2522129,2469,834,1136,3420,20,-36,219,215,-113
1,2522141,2468,841,1131,3418,28,-45,219,215,-113
1,2522152,2468,841,1131,3418,28,-45,219,215,-113
1,2522166,2475,819,1134,3425,30,-49,219,215,-113
1,2522180,2472,847,1138,3422,21,-51,223,219,-133
1,2522193,2472,847,1138,3422,21,-51,223,219,-133
1,2522207,2467,837,1138,3421,12,-42,223,219,-133
1,2522218,2469,852,1140,3423,16,-47,223,219,-133
1,2522231,2469,852,1140,3423,16,-47,223,219,-133
1,2522247,2475,843,1134,3428,20,-51,223,219,-133
1,2522261,2466,857,1143,3424,15,-47,223,219,-133
1,2522275,2473,850,1133,3423,25,-50,223,219,-133
1,2522291,2473,850,1133,3423,25,-50,223,219,-133
1,2522305,2465,871,1141,3431,19,-56,223,219,-133
1,2522320,2474,866,1143,3430,22,-51,230,222,-136
1,2522335,2469,856,1146,3425,11,-44,230,222,-136
1,2522348,2469,856,1146,3425,11,-44,230,222,-136
1,2522361,2470,874,1137,3428,16,-52,230,222,-136
1,2522376,2465,884,1139,3426,26,-46,230,222,-136
1,2522391,2465,884,1139,3426,26,-46,230,222,-136
1,2522403,2467,884,1141,3434,17,-43,230,222,-136
1,2522415,2467,884,1141,3434,17,-43,230,222,-136
1,2522428,2467,883,1141,3439,18,-51,230,222,-136
1,2522441,2464,874,1151,3437,21,-56,239,221,-135
1,2522455,2466,880,1144,3440,27,-58,239,221,-135
1,2522469,2466,880,1144,3440,27,-58,239,221,-135
1,2522483,2466,880,1144,3440,27,-58,239,221,-135
1,2522498,2465,863,1145,3445,17,-52,239,221,-135
1,2522512,2465,863,1145,3445,17,-52,239,221,-135
1,2522525,2466,871,1144,3443,20,-44,239,221,-135
1,2522539,2469,865,1146,3438,23,-46,239,221,-135
1,2522552,2469,865,1146,3438,23,-46,239,221,-135
1,2522565,2467,864,1154,3437,17,-46,246,216,-152
1,2522578,2470,866,1152,3436,21,-48,246,216,-152
1,2522591,2470,866,1152,3436,21,-48,246,216,-152
1,2522606,2471,850,1154,3440,22,-54,246,216,-152
1,2522617,2469,857,1153,3448,15,-46,246,216,-152
1,2522631,2469,857,1153,3448,15,-46,246,216,-152
1,2522645,2468,853,1145,3450,14,-49,246,216,-152
1,2522659,2468,848,1151,3448,22,-43,246,216,-152
1,2522669,2468,848,1151,3448,22,-43,246,216,-152
1,2522683,2468,848,1154,3445,21,-56,256,220,-150
1,2522692,2468,848,1154,3445,21,-56,256,220,-150
1,2522707,2472,802,1153,3450,21,-50,256,220,-150
1,2522719,2470,842,1146,3444,25,-52,256,220,-150
1,2522733,2470,842,1146,3444,25,-52,256,220,-150
1,2522748,2469,817,1152,3445,20,-46,256,220,-150
1,2522764,2475,835,1152,3449,16,-51,256,220,-150
1,2522777,2475,812,1143,3446,16,-52,256,220,-150
1,2522790,2475,812,1143,3446,16,-52,256,220,-150
1,2522805,2474,827,1147,3445,18,-49,256,220,-150
1,2522818,2481,806,1153,3442,27,-46,269,221,-159
1,2522832,2481,806,1153,3442,27,-46,269,221,-159
1,2522847,2466,810,1149,3440,16,-48,269,221,-159
1,2522857,2478,805,1137,3431,20,-54,269,221,-159
1,2522870,2478,805,1137,3431,20,-54,269,221,-159
1,2522884,2476,824,1144,3441,27,-49,269,221,-159
1,2522898,2475,806,1144,3440,20,-43,269,221,-159
1,2522905,2475,806,1144,3440,20,-43,269,221,-159
1,2522918,2471,821,1144,3438,23,-52,269,221,-159
1,2522933,2471,821,1144,3438,23,-52,269,221,-159
1,2522947,2473,818,1146,3437,23,-59,270,216,-154
1,2522961,2473,831,1144,3431,22,-45,270,216,-154
1,2522977,2472,816,1142,3433,16,-49,270,216,-154
1,2522990,2472,816,1142,3433,16,-49,270,216,-154
1,2523003,2470,832,1140,3427,16,-58,270,216,-154
1,2523018,2474,820,1142,3427,17,-51,270,216,-154
1,2523032,2474,820,1142,3427,17,-51,270,216,-154
1,2523045,2476,822,1139,3428,22,-46,270,216,-154
1,2523059,2475,829,1140,3429,13,-50,277,209,-163
1,2523074,2475,829,1140,3429,13,-50,277,209,-163
1,2523087,2466,854,1136,3432,19,-50,277,209,-163
1,2523101,2475,833,1137,3428,20,-50,277,209,-163
1,2523115,2465,833,1131,3428,19,-50,277,209,-163
1,2523128,2465,833,1131,3428,19,-50,277,209,-163
1,2523144,2474,850,1132,3427,16,-55,277,209,-163
1,2523158,2467,845,1141,3426,19,-46,277,209,-163
1,2523170,2467,845,1141,3426,19,-46,277,209,-163
1,2523184,2474,847,1138,3419,21,-52,280,216,-162
1,2523199,2474,844,1136,3423,25,-48,280,216,-162
1,2523212,2474,844,1136,3423,25,-48,280,216,-162
1,2523226,2469,859,1134,3422,23,-46,280,216,-162
1,2523241,2471,846,1137,3420,21,-45,280,216,-162
1,2523250,2471,846,1137,3420,21,-45,280,216,-162
1,2523261,2466,868,1142,3422,13,-52,280,216,-162
1,2523276,2468,869,1137,3436,20,-52,280,216,-162
1,2523292,2468,869,1137,3436,20,-52,280,216,-162
1,2523303,2467,878,1140,3429,18,-57,289,217,-171
1,2523318,2467,871,1146,3424,15,-55,289,217,-171
1,2523331,2467,871,1146,3424,15,-55,289,217,-171
1,2523345,2467,871,1146,3424,15,-55,289,217,-171
1,2523357,2463,889,1139,3435,18,-51,289,217,-171
1,2523371,2463,889,1139,3435,18,-51,289,217,-171
1,2523378,2467,883,1147,3429,20,-52,289,217,-171
1,2523386,2467,883,1147,3429,20,-52,289,217,-171
1,2523395,2467,883,1147,3429,20,-52,289,217,-171
1,2523403,2466,877,1142,3440,19,-52,289,217,-171
1,2523416,2467,882,1148,3432,16,-55,289,217,-171
1,2523430,2467,882,1148,3432,16,-55,289,217,-171
1,2523440,2469,857,1151,3446,16,-52,298,212,-166
1,2523448,2469,857,1151,3446,16,-52,298,212,-166
1,2523460,2468,867,1150,3445,18,-52,298,212,-166
1,2523474,2468,867,1150,3445,18,-52,298,212,-166
1,2523488,2470,863,1148,3450,21,-51,298,212,-166
1,2523503,2467,866,1151,3440,26,-49,298,212,-166
1,2523515,2471,863,1141,3445,29,-46,298,212,-166
1,2523529,2471,863,1141,3445,29,-46,298,212,-166
1,2523544,2467,866,1153,3448,13,-54,298,212,-166
1,2523559,2468,856,1147,3443,19,-50,295,213,-157
1,2523573,2468,856,1147,3443,19,-50,295,213,-157
1,2523586,2471,862,1155,3441,21,-51,295,213,-157
1,2523600,2470,840,1157,3445,19,-45,295,213,-157
1,2523612,2470,840,1157,3445,19,-45,295,213,-157
1,2523626,2470,840,1157,3445,19,-45,295,213,-157
1,2523640,2471,835,1148,3445,22,-52,295,213,-157
1,2523654,2471,835,1148,3445,22,-52,295,213,-157
1,2523667,2468,807,1148,3444,20,-51,295,213,-157
1,2523680,2475,839,1149,3448,17,-52,300,216,-164
1,2523693,2475,839,1149,3448,17,-52,300,216,-164
1,2523706,2471,835,1151,3443,24,-44,300,216,-164
1,2523720,2469,820,1147,3447,15,-53,300,216,-164
1,2523734,2469,820,1147,3447,15,-53,300,216,-164
1,2523748,2479,814,1149,3447,26,-63,300,216,-164
1,2523763,2475,811,1144,3439,22,-52,300,216,-164
1,2523779,2478,825,1149,3438,16,-47,300,216,-164
1,2523791,2478,825,1149,3438,16,-47,300,216,-164
1,2523804,2469,805,1145,3438,18,-44,304,218,-164
1,2523819,2472,829,1145,3437,18,-56,304,218,-164
1,2523831,2472,829,1145,3437,18,-56,304,218,-164
1,2523843,2477,821,1140,3435,21,-49,304,218,-164
1,2523856,2470,817,1142,3436,13,-47,304,218,-164
1,2523870,2470,817,1142,3436,13,-47,304,218,-164
1,2523883,2477,813,1138,3439,12,-53,304,218,-164
1,2523897,2471,829,1146,3437,20,-52,304,218,-164
1,2523908,2471,829,1146,3437,20,-52,304,218,-164
1,2523921,2481,822,1140,3428,22,-41,304,218,-164
1,2523935,2481,822,1140,3428,22,-41,304,218,-164
1,2523949,2469,822,1147,3429,24,-46,311,213,-163
1,2523965,2475,828,1135,3427,24,-52,311,213,-163
1,2523980,2471,836,1145,3424,23,-46,311,213,-163
1,2523995,2471,836,1145,3424,23,-46,311,213,-163
1,2524008,2471,836,1142,3432,22,-56,311,213,-163
1,2524022,2471,844,1139,3430,13,-52,311,213,-163
1,2524037,2470,831,1135,3434,17,-54,311,213,-163
1,2524049,2470,831,1135,3434,17,-54,311,213,-163
1,2524063,2476,832,1137,3430,23,-53,303,215,-155
1,2524078,2474,845,1137,3427,22,-58,303,215,-155
1,2524091,2474,845,1137,3427,22,-58,303,215,-155
1,2524105,2469,845,1139,3428,12,-50,303,215,-155
1,2524120,2472,850,1139,3428,13,-49,303,215,-155
1,2524133,2472,850,1139,3428,13,-49,303,215,-155
1,2524144,2472,843,1139,3431,13,-61,303,215,-155
1,2524158,2471,862,1139,3428,19,-50,303,215,-155
1,2524172,2471,862,1139,3428,19,-50,303,215,-155
1,2524186,2470,850,1142,3422,22,-43,313,221,-159
1,2524198,2473,867,1141,3431,15,-49,313,221,-159
1,2524212,2473,867,1141,3431,15,-49,313,221,-159
1,2524226,2471,867,1143,3426,13,-47,313,221,-159
1,2524240,2470,865,1141,3423,15,-49,313,221,-159
1,2524255,2473,882,1138,3420,17,-53,313,221,-159
1,2524269,2473,882,1138,3420,17,-53,313,221,-159
1,2524281,2467,880,1143,3425,16,-53,313,221,-159
1,2524296,2471,883,1143,3429,18,-43,311,223,-153
1,2524309,2471,883,1143,3429,18,-43,311,223,-153
1,2524323,2467,885,1147,3435,14,-46,311,223,-153
1,2524338,2472,874,1151,3439,24,-56,311,223,-153
1,2524352,2472,874,1151,3439,24,-56,311,223,-153
1,2524364,2470,887,1147,3436,24,-55,311,223,-153
1,2524378,2467,862,1150,3440,21,-45,311,223,-153
1,2524391,2467,862,1150,3440,21,-45,311,223,-153
1,2524401,2469,876,1142,3441,19,-53,311,223,-153
1,2524414,2469,876,1142,3441,19,-53,311,223,-153
1,2524428,2467,867,1148,3444,17,-52,311,223,-153
1,2524442,2468,862,1152,3440,18,-47,313,235,-151
1,2524456,2468,860,1156,3443,17,-52,313,235,-151
1,2524470,2468,860,1156,3443,17,-52,313,235,-151
1,2524484,2465,869,1150,3445,16,-50,313,235,-151
1,2524498,2474,856,1150,3441,21,-47,313,235,-151
1,2524514,2474,856,1150,3441,21,-47,313,235,-151
1,2524527,2472,857,1149,3439,31,-45,313,235,-151
1,2524541,2473,850,1145,3453,20,-37,313,235,-151
1,2524555,2473,850,1145,3453,20,-37,313,235,-151
1,2524568,2468,855,1152,3449,17,-46,318,238,-144
1,2524583,2469,841,1151,3449,24,-47,318,238,-144
1,2524597,2471,809,1151,3443,20,-50,318,238,-144
1,2524609,2471,809,1151,3443,20,-50,318,238,-144
1,2524622,2473,840,1148,3450,13,-53,318,238,-144
1,2524637,2471,831,1153,3449,15,-44,318,238,-144
1,2524650,2471,831,1153,3449,15,-44,318,238,-144
1,2524662,2467,829,1146,3442,21,-53,318,238,-144
1,2524674,2467,829,1146,3442,21,-53,318,238,-144
1,2524682,2477,815,1148,3452,20,-54,321,245,-147
1,2524695,2477,815,1148,3452,20,-54,321,245,-147
1,2524710,2473,818,1152,3450,23,-45,321,245,-147
1,2524725,2476,810,1153,3440,22,-44,321,245,-147
1,2524740,2474,799,1149,3440,16,-50,321,245,-147
1,2524751,2474,799,1149,3440,16,-50,321,245,-147
1,2524765,2478,814,1141,3441,23,-60,321,245,-147
1,2524779,2477,829,1144,3437,21,-50,321,245,-147
1,2524792,2477,829,1144,3437,21,-50,321,245,-147
1,2524806,2471,815,1141,3430,21,-41,341,243,-141
1,2524820,2470,817,1138,3435,17,-42,341,243,-141
1,2524834,2470,817,1138,3435,17,-42,341,243,-141
1,2524847,2475,821,1139,3431,24,-43,341,243,-141
1,2524860,2474,826,1142,3426,21,-45,341,243,-141
1,2524873,2474,826,1142,3426,21,-45,341,243,-141
1,2524888,2473,821,1143,3427,14,-46,341,243,-141
1,2524903,2474,827,1140,3431,14,-50,341,243,-141
1,2524917,2473,825,1144,3427,20,-50,341,243,-141
1,2524925,2473,825,1144,3427,20,-50,341,243,-141
1,2524934,2473,825,1144,3427,20,-50,341,243,-141
1,2524942,2474,823,1146,3427,24,-51,330,236,-138
1,2524954,2474,823,1146,3427,24,-51,330,236,-138
1,2524967,2467,857,1138,3435,12,-52,330,236,-138
1,2524981,2465,838,1135,3429,21,-54,330,236,-138
1,2524995,2465,838,1135,3429,21,-54,330,236,-138
1,2525008,2474,844,1135,3428,19,-50,330,236,-138
1,2525022,2472,825,1134,3433,16,-45,330,236,-138
1,2525036,2468,849,1140,3429,16,-48,330,236,-138
1,2525049,2468,849,1140,3429,16,-48,330,236,-138
1,2525063,2473,837,1142,3432,21,-51,326,242,-128
1,2525077,2471,845,1143,3421,22,-48,326,242,-128
1,2525090,2471,845,1143,3421,22,-48,326,242,-128
1,2525105,2474,847,1138,3419,19,-46,326,242,-128
1,2525117,2470,862,1138,3423,14,-34,326,242,-128
1,2525129,2470,862,1138,3423,14,-34,326,242,-128
1,2525139,2470,857,1137,3427,26,-43,326,242,-128
1,2525155,2470,857,1137,3427,26,-43,326,242,-128
1,2525170,2467,859,1139,3422,25,-56,326,242,-128
1,2525186,2475,870,1141,3430,28,-52,330,250,-124
1,2525199,2467,870,1142,3422,15,-40,330,250,-124
1,2525213,2467,870,1142,3422,15,-40,330,250,-124
1,2525228,2470,878,1139,3425,17,-46,330,250,-124
1,2525242,2468,882,1146,3423,19,-48,330,250,-124
1,2525255,2468,882,1146,3423,19,-48,330,250,-124
1,2525271,2465,894,1143,3431,19,-53,330,250,-124
1,2525285,2470,888,1141,3435,11,-49,330,250,-124
1,2525298,2467,887,1146,3445,20,-50,329,247,-127
1,2525312,2467,887,1146,3445,20,-50,329,247,-127
1,2525326,2471,877,1148,3440,17,-53,329,247,-127
1,2525340,2470,862,1148,3446,20,-40,329,247,-127
1,2525356,2473,868,1153,3442,18,-46,329,247,-127
1,2525371,2473,868,1153,3442,18,-46,329,247,-127
1,2525382,2468,873,1143,3439,22,-47,329,247,-127
1,2525399,2470,864,1146,3441,21,-59,329,247,-127
1,2525414,2470,864,1146,3441,21,-59,329,247,-127
1,2525429,2471,872,1146,3442,15,-51,329,247,-127
1,2525445,2468,858,1156,3443,18,-40,329,247,-127
1,2525458,2472,869,1148,3435,22,-44,329,247,-127
1,2525471,2472,869,1148,3435,22,-44,329,247,-127
1,2525486,2472,858,1155,3443,23,-47,329,247,-127
1,2525499,2474,846,1155,3448,17,-48,329,247,-127
1,2525513,2474,846,1155,3448,17,-48,329,247,-127
1,2525528,2473,848,1148,3446,15,-50,329,247,-127
1,2525542,2471,825,1151,3449,32,-50,329,247,-127
1,2525556,2471,823,1154,3450,25,-53,333,243,-119
1,2525569,2471,823,1154,3450,25,-53,333,243,-119
1,2525582,2471,834,1149,3444,21,-51,333,243,-119
1,2525596,2471,837,1152,3442,23,-50,333,243,-119
1,2525609,2471,837,1152,3442,23,-50,333,243,-119
1,2525623,2471,810,1151,3441,14,-51,333,243,-119
1,2525635,2471,810,1151,3441,14,-51,333,243,-119
1,2525649,2476,818,1149,3442,15,-55,333,243,-119
1,2525665,2478,816,1149,3444,17,-44,333,243,-119
1,2525678,2472,817,1151,3437,19,-47,332,248,-112
1,2525691,2472,817,1151,3437,19,-47,332,248,-112
1,2525706,2478,803,1149,3439,24,-39,332,248,-112
1,2525721,2470,825,1143,3438,25,-53,332,248,-112
1,2525735,2470,825,1143,3438,25,-53,332,248,-112
1,2525748,2476,817,1141,3432,20,-50,332,248,-112
1,2525761,2470,819,1138,3435,18,-50,332,248,-112
1,2525773,2470,819,1138,3435,18,-50,332,248,-112
1,2525788,2469,820,1137,3435,19,-53,332,248,-112
1,2525803,2470,824,1144,3431,16,-50,336,248,-102
1,2525816,2476,816,1145,3428,19,-48,336,248,-102
1,2525830,2476,816,1145,3428,19,-48,336,248,-102
1,2525843,2472,824,1143,3421,13,-44,336,248,-102
1,2525857,2471,826,1144,3420,19,-48,336,248,-102
1,2525869,2471,826,1144,3420,19,-48,336,248,-102
1,2525883,2477,832,1142,3428,20,-47,336,248,-102
1,2525896,2471,846,1141,3423,21,-43,336,248,-102
1,2525907,2471,846,1141,3423,21,-43,336,248,-102
1,2525924,2470,836,1141,3425,15,-45,329,247,-103
1,2525939,2473,840,1143,3428,17,-52,329,247,-103
1,2525954,2473,840,1143,3428,17,-52,329,247,-103
1,2525968,2473,823,1143,3419,23,-50,329,247,-103
1,2525982,2472,854,1134,3424,18,-52,329,247,-103
1,2525997,2468,842,1135,3427,18,-45,329,247,-103
1,2526009,2468,842,1135,3427,18,-45,329,247,-103
1,2526022,2469,848,1140,3433,23,-53,329,247,-103
