imu,time,ax,ay,az,gx,gy,gz,mx,my,mz
2,5240430,-3495,357,-2629,-164,-242,-86,141,79,-351
2,5240444,-3494,359,-2634,-162,-242,-83,141,79,-351
2,5240461,-3494,358,-2635,-164,-248,-81,141,79,-351
2,5240475,-3494,358,-2635,-164,-248,-81,141,79,-351
2,5240488,-3492,360,-2635,-163,-240,-92,141,79,-351
2,5240503,-3494,359,-2634,-164,-239,-93,134,84,-352
2,5240518,-3497,359,-2630,-164,-240,-86,134,84,-352
2,5240531,-3497,359,-2630,-164,-240,-86,134,84,-352
2,5240545,-3497,359,-2631,-169,-252,-93,134,84,-352
2,5240559,-3496,360,-2631,-168,-242,-87,134,84,-352
2,5240571,-3496,360,-2631,-168,-242,-87,134,84,-352
2,5240585,-3492,359,-2632,-163,-240,-86,134,84,-352
2,5240598,-3494,361,-2631,-162,-241,-87,134,84,-352
2,5240611,-3494,361,-2631,-162,-241,-87,134,84,-352
2,5240629,-3494,358,-2632,-162,-239,-83,140,84,-356
2,5240643,-3492,360,-2635,-166,-235,-76,140,84,-356
2,5240657,-3493,361,-2635,-167,-245,-81,140,84,-356
2,5240667,-3493,361,-2635,-167,-245,-81,140,84,-356
2,5240679,-3493,360,-2635,-165,-242,-84,140,84,-356
2,5240693,-3493,360,-2635,-165,-242,-84,140,84,-356
2,5240707,-3496,360,-2627,-163,-241,-81,140,84,-356
2,5240723,-3497,361,-2629,-166,-238,-82,140,84,-356
2,5240737,-3495,359,-2626,-167,-237,-83,144,82,-356
2,5240753,-3495,359,-2626,-167,-237,-83,144,82,-356
2,5240766,-3495,362,-2632,-165,-232,-91,144,82,-356
2,5240780,-3494,358,-2631,-166,-233,-86,144,82,-356
2,5240794,-3494,358,-2631,-166,-233,-86,144,82,-356
2,5240806,-3494,360,-2632,-168,-237,-81,144,82,-356
2,5240819,-3494,361,-2632,-161,-234,-81,144,82,-356
2,5240833,-3494,361,-2632,-161,-234,-81,144,82,-356
2,5240847,-3495,361,-2633,-162,-247,-83,144,82,-356
2,5240859,-3493,363,-2632,-168,-244,-86,139,85,-361
2,5240871,-3493,363,-2632,-168,-244,-86,139,85,-361
2,5240884,-3494,359,-2631,-166,-242,-87,139,85,-361
2,5240897,-3497,361,-2629,-158,-242,-90,139,85,-361
2,5240909,-3497,361,-2629,-158,-242,-90,139,85,-361
2,5240925,-3495,358,-2631,-168,-246,-84,139,85,-361
2,5240939,-3494,360,-2627,-163,-239,-84,139,85,-361
2,5240951,-3494,360,-2627,-163,-239,-84,139,85,-361
2,5240966,-3495,359,-2637,-166,-238,-89,139,85,-361
2,5240981,-3496,360,-2638,-169,-240,-87,141,83,-357
2,5240996,-3496,360,-2638,-169,-240,-87,141,83,-357
2,5241006,-3495,358,-2632,-163,-244,-87,141,83,-357
2,5241021,-3494,359,-2629,-166,-237,-82,141,83,-357
2,5241028,-3494,359,-2629,-166,-237,-82,141,83,-357
2,5241036,-3493,361,-2634,-171,-232,-88,141,83,-357
2,5241044,-3493,361,-2634,-171,-232,-88,141,83,-357
2,5241054,-3493,361,-2634,-171,-232,-88,141,83,-357
2,5241062,-3493,361,-2638,-159,-236,-82,141,83,-357
2,5241070,-3493,361,-2638,-159,-236,-82,141,83,-357
2,5241078,-3494,360,-2635,-162,-240,-84,141,83,-357
2,5241088,-3494,360,-2635,-162,-240,-84,141,83,-357
2,5241096,-3494,360,-2635,-162,-240,-84,141,83,-357
2,5241104,-3498,360,-2627,-162,-238,-86,141,83,-357
2,5241111,-3498,360,-2627,-162,-238,-86,141,83,-357
2,5241120,-3493,362,-2631,-169,-238,-87,140,84,-354
2,5241128,-3493,362,-2631,-169,-238,-87,140,84,-354
2,5241137,-3493,362,-2631,-169,-238,-87,140,84,-354
2,5241145,-3493,361,-2631,-161,-228,-88,140,84,-354
2,5241153,-3493,361,-2631,-161,-228,-88,140,84,-354
2,5241160,-3492,363,-2631,-164,-239,-89,140,84,-354
2,5241169,-3492,363,-2631,-164,-239,-89,140,84,-354
2,5241178,-3494,358,-2631,-163,-240,-93,140,84,-354
2,5241186,-3494,358,-2631,-163,-240,-93,140,84,-354
2,5241194,-3494,358,-2631,-163,-240,-93,140,84,-354
2,5241202,-3492,360,-2634,-170,-246,-91,140,84,-354
2,5241210,-3492,360,-2634,-170,-246,-91,140,84,-354
2,5241219,-3493,359,-2638,-159,-236,-84,140,84,-354
2,5241227,-3493,359,-2638,-159,-236,-84,140,84,-354
2,5241235,-3493,359,-2638,-159,-236,-84,140,84,-354
2,5241242,-3496,359,-2632,-164,-245,-83,143,79,-363
2,5241250,-3496,359,-2632,-164,-245,-83,143,79,-363
2,5241259,-3494,362,-2630,-168,-234,-90,143,79,-363
2,5241267,-3494,362,-2630,-168,-234,-90,143,79,-363
2,5241274,-3494,362,-2630,-168,-234,-90,143,79,-363
2,5241281,-3495,360,-2631,-173,-236,-84,143,79,-363
2,5241289,-3495,360,-2631,-173,-236,-84,143,79,-363
2,5241295,-3495,360,-2631,-173,-236,-84,143,79,-363
2,5241305,-3493,359,-2630,-169,-232,-85,143,79,-363
2,5241313,-3493,359,-2630,-169,-232,-85,143,79,-363
2,5241320,-3492,363,-2632,-168,-232,-85,143,79,-363
2,5241327,-3492,363,-2632,-168,-232,-85,143,79,-363
2,5241338,-3495,360,-2630,-158,-239,-87,143,79,-363
2,5241353,-3495,360,-2630,-158,-239,-87,143,79,-363
2,5241361,-3493,362,-2628,-160,-224,-88,138,86,-354
2,5241371,-3493,362,-2628,-160,-224,-88,138,86,-354
2,5241385,-3496,360,-2627,-157,-235,-83,138,86,-354
2,5241399,-3494,363,-2636,-158,-238,-86,138,86,-354
2,5241407,-3494,363,-2636,-158,-238,-86,138,86,-354
2,5241416,-3494,363,-2636,-158,-238,-86,138,86,-354
2,5241423,-3494,364,-2635,-163,-248,-90,138,86,-354
2,5241431,-3494,364,-2635,-163,-248,-90,138,86,-354
2,5241440,-3495,361,-2634,-167,-244,-85,138,86,-354
2,5241448,-3495,361,-2634,-167,-244,-85,138,86,-354
2,5241456,-3495,361,-2634,-167,-244,-85,138,86,-354
2,5241464,-3495,359,-2629,-167,-238,-83,138,86,-354
2,5241474,-3495,359,-2629,-167,-238,-83,138,86,-354
2,5241483,-3495,360,-2625,-169,-240,-81,146,90,-350
2,5241492,-3495,360,-2625,-169,-240,-81,146,90,-350
2,5241500,-3491,361,-2632,-168,-244,-77,146,90,-350
2,5241508,-3491,361,-2632,-168,-244,-77,146,90,-350
2,5241518,-3495,359,-2632,-164,-239,-88,146,90,-350
2,5241525,-3495,359,-2632,-164,-239,-88,146,90,-350
2,5241534,-3495,359,-2632,-164,-239,-88,146,90,-350
2,5241544,-3494,360,-2635,-162,-232,-88,146,90,-350
2,5241553,-3494,360,-2635,-162,-232,-88,146,90,-350
2,5241563,-3492,360,-2634,-159,-243,-87,146,90,-350
2,5241573,-3492,360,-2634,-159,-243,-87,146,90,-350
2,5241582,-3496,361,-2634,-169,-238,-83,146,90,-350
2,5241595,-3496,361,-2634,-169,-238,-83,146,90,-350
2,5241608,-3493,362,-2635,-166,-247,-95,147,81,-357
2,5241621,-3494,359,-2629,-169,-245,-88,147,81,-357
2,5241635,-3494,359,-2629,-169,-245,-88,147,81,-357
2,5241649,-3490,361,-2628,-168,-245,-84,147,81,-357
2,5241662,-3495,361,-2630,-170,-231,-85,147,81,-357
2,5241673,-3495,361,-2630,-170,-231,-85,147,81,-357
2,5241686,-3493,360,-2638,-160,-233,-89,147,81,-357
2,5241693,-3493,360,-2638,-160,-233,-89,147,81,-357
2,5241705,-3493,361,-2633,-165,-238,-88,147,81,-357
2,5241719,-3495,364,-2641,-168,-239,-85,147,81,-357
2,5241736,-3495,364,-2641,-168,-239,-85,147,81,-357
2,5241750,-3492,360,-2632,-167,-235,-82,140,82,-358
2,5241765,-3493,360,-2641,-165,-233,-78,140,82,-358
2,5241778,-3493,360,-2641,-165,-233,-78,140,82,-358
2,5241791,-3496,365,-2636,-168,-238,-72,140,82,-358
2,5241805,-3493,361,-2633,-161,-240,-82,140,82,-358
2,5241819,-3492,361,-2632,-165,-229,-84,140,82,-358
2,5241832,-3492,361,-2632,-165,-229,-84,140,82,-358
2,5241847,-3496,361,-2630,-160,-229,-88,140,82,-358
2,5241860,-3495,363,-2622,-171,-236,-83,141,79,-355
2,5241871,-3495,363,-2622,-171,-236,-83,141,79,-355
2,5241879,-3494,360,-2631,-166,-241,-85,141,79,-355
2,5241890,-3494,360,-2631,-166,-241,-85,141,79,-355
2,5241905,-3494,358,-2626,-167,-241,-92,141,79,-355
2,5241920,-3499,364,-2632,-159,-237,-91,141,79,-355
2,5241936,-3499,364,-2632,-159,-237,-91,141,79,-355
2,5241952,-3496,361,-2629,-164,-239,-83,141,79,-355
2,5241965,-3494,361,-2637,-163,-246,-81,141,79,-355
2,5241977,-3494,361,-2637,-163,-246,-81,141,79,-355
2,5241992,-3493,360,-2625,-169,-243,-80,142,86,-358
2,5242005,-3491,358,-2630,-161,-244,-82,142,86,-358
2,5242019,-3495,362,-2635,-164,-243,-92,142,86,-358
2,5242033,-3495,362,-2635,-164,-243,-92,142,86,-358
2,5242045,-3493,361,-2629,-165,-242,-85,142,86,-358
2,5242060,-3493,363,-2628,-168,-244,-90,142,86,-358
2,5242075,-3493,363,-2628,-168,-244,-90,142,86,-358
2,5242089,-3495,358,-2625,-162,-247,-90,142,86,-358
2,5242102,-3493,359,-2625,-165,-234,-87,132,84,-352
2,5242117,-3493,359,-2625,-165,-234,-87,132,84,-352
2,5242132,-3495,361,-2628,-168,-236,-87,132,84,-352
2,5242147,-3497,360,-2637,-167,-236,-88,132,84,-352
2,5242163,-3490,360,-2633,-162,-245,-80,132,84,-352
2,5242178,-3492,361,-2630,-167,-236,-90,132,84,-352
2,5242192,-3492,361,-2630,-167,-236,-90,132,84,-352
2,5242207,-3492,364,-2632,-163,-238,-88,132,84,-352
2,5242221,-3493,363,-2626,-161,-241,-83,143,83,-353
2,5242234,-3493,363,-2626,-161,-241,-83,143,83,-353
2,5242247,-3493,362,-2626,-168,-238,-85,143,83,-353
2,5242259,-3496,359,-2628,-163,-244,-76,143,83,-353
2,5242272,-3496,359,-2628,-163,-244,-76,143,83,-353
2,5242286,-3494,360,-2631,-170,-249,-83,143,83,-353
2,5242299,-3492,362,-2633,-166,-246,-80,143,83,-353
2,5242311,-3492,362,-2633,-166,-246,-80,143,83,-353
2,5242323,-3493,361,-2633,-160,-243,-84,143,83,-353
2,5242338,-3493,361,-2633,-160,-243,-84,143,83,-353
2,5242349,-3491,363,-2635,-163,-244,-84,143,83,-353
2,5242364,-3493,365,-2631,-168,-238,-83,140,80,-356
2,5242378,-3493,365,-2631,-168,-238,-83,140,80,-356
2,5242387,-3496,361,-2631,-167,-241,-87,140,80,-356
2,5242395,-3496,361,-2631,-167,-241,-87,140,80,-356
2,5242407,-3491,361,-2624,-165,-247,-82,140,80,-356
2,5242422,-3495,363,-2625,-165,-241,-88,140,80,-356
2,5242437,-3495,363,-2625,-165,-241,-88,140,80,-356
2,5242450,-3497,362,-2631,-162,-239,-84,140,80,-356
2,5242463,-3494,361,-2630,-158,-243,-84,140,80,-356
2,5242478,-3497,362,-2632,-164,-238,-88,142,80,-356
2,5242491,-3497,362,-2632,-164,-238,-88,142,84,-360
2,5242506,-3495,362,-2634,-168,-236,-83,142,84,-360
2,5242519,-3494,362,-2631,-164,-241,-83,142,84,-360
2,5242534,-3494,362,-2631,-164,-241,-83,142,84,-360
2,5242548,-3494,360,-2641,-164,-243,-82,142,84,-360
2,5242561,-3495,361,-2633,-166,-244,-79,142,84,-360
2,5242574,-3495,361,-2633,-166,-244,-79,142,84,-360
2,5242589,-3490,360,-2632,-165,-238,-76,142,84,-360
2,5242602,-3496,363,-2622,-160,-240,-81,139,89,-365
2,5242616,-3496,363,-2622,-160,-240,-81,139,89,-365
2,5242630,-3496,361,-2626,-164,-245,-85,139,89,-365
2,5242642,-3493,359,-2624,-171,-240,-85,139,89,-365
2,5242658,-3493,359,-2624,-171,-240,-85,139,89,-365
2,5242673,-3494,360,-2629,-170,-236,-82,139,89,-365
2,5242688,-3495,363,-2632,-166,-241,-75,139,89,-365
2,5242702,-3495,359,-2634,-173,-238,-81,139,89,-365
2,5242714,-3495,359,-2634,-173,-238,-81,139,89,-365
2,5242728,-3494,363,-2630,-166,-235,-82,141,81,-357
2,5242740,-3497,360,-2627,-168,-245,-83,141,81,-357
2,5242754,-3497,360,-2627,-168,-245,-83,141,81,-357
2,5242767,-3494,362,-2632,-170,-244,-76,141,81,-357
2,5242780,-3493,363,-2627,-164,-240,-78,141,81,-357
2,5242793,-3493,363,-2627,-164,-240,-78,141,81,-357
2,5242809,-3493,362,-2628,-174,-247,-85,141,81,-357
2,5242822,-3494,362,-2630,-168,-243,-86,141,81,-357
2,5242835,-3494,362,-2630,-168,-243,-86,141,81,-357
2,5242847,-3493,362,-2629,-169,-238,-79,141,83,-361
2,5242859,-3493,362,-2626,-169,-235,-84,141,83,-361
2,5242875,-3493,362,-2626,-169,-235,-84,141,83,-361
2,5242886,-3491,362,-2635,-171,-244,-85,141,83,-361
2,5242899,-3494,358,-2636,-168,-240,-86,141,83,-361
2,5242914,-3494,358,-2636,-168,-240,-86,141,83,-361
2,5242928,-3494,362,-2632,-162,-236,-83,141,83,-361
2,5242941,-3494,363,-2630,-163,-240,-94,141,83,-361
2,5242954,-3494,363,-2630,-163,-240,-94,141,83,-361
2,5242970,-3495,363,-2629,-165,-238,-97,141,83,-361
2,5242984,-3491,361,-2627,-167,-243,-83,147,85,-361
2,5242997,-3491,361,-2627,-167,-243,-83,147,85,-361
2,5243011,-3493,365,-2627,-166,-241,-77,147,85,-361
2,5243026,-3492,360,-2629,-163,-243,-90,147,85,-361
2,5243039,-3495,362,-2632,-168,-237,-83,147,85,-361
2,5243053,-3495,362,-2632,-168,-237,-83,147,85,-361
2,5243068,-3496,360,-2634,-160,-236,-85,147,85,-361
2,5243083,-3495,359,-2626,-159,-239,-87,147,85,-361
2,5243098,-3495,359,-2626,-159,-239,-87,147,85,-361
2,5243111,-3494,361,-2631,-164,-245,-89,141,89,-357
2,5243125,-3495,361,-2630,-165,-236,-87,141,89,-357
2,5243141,-3493,363,-2632,-169,-243,-90,141,89,-357
2,5243153,-3493,363,-2632,-169,-243,-90,141,89,-357
2,5243165,-3494,362,-2630,-166,-240,-83,141,89,-357
2,5243180,-3493,363,-2628,-164,-237,-89,141,89,-357
2,5243193,-3493,363,-2628,-164,-237,-89,141,89,-357
2,5243206,-3493,363,-2623,-164,-240,-87,141,89,-357
2,5243220,-3494,365,-2622,-166,-245,-89,134,80,-362
2,5243237,-3494,365,-2622,-166,-245,-89,134,80,-362
2,5243250,-3491,364,-2626,-168,-242,-87,134,80,-362
2,5243262,-3493,363,-2634,-160,-239,-88,134,80,-362
2,5243276,-3493,363,-2634,-160,-239,-88,134,80,-362
2,5243289,-3495,360,-2634,-165,-241,-88,134,80,-362
2,5243303,-3493,360,-2634,-170,-239,-85,134,80,-362
2,5243317,-3493,360,-2634,-170,-239,-85,134,80,-362
2,5243329,-3492,360,-2634,-163,-234,-86,134,80,-362
2,5243344,-3496,362,-2624,-161,-235,-85,133,89,-357
2,5243360,-3495,362,-2623,-166,-246,-83,133,89,-357
2,5243374,-3495,362,-2623,-166,-246,-83,133,89,-357
2,5243386,-3495,365,-2630,-165,-229,-91,133,89,-357
2,5243400,-3494,364,-2630,-165,-231,-88,133,89,-357
2,5243413,-3494,364,-2630,-165,-231,-88,133,89,-357
2,5243427,-3494,362,-2627,-161,-235,-87,133,89,-357
2,5243441,-3494,360,-2632,-161,-237,-81,133,89,-357
2,5243453,-3494,360,-2632,-161,-237,-81,133,89,-357
2,5243466,-3496,364,-2633,-160,-248,-83,137,75,-355
2,5243480,-3495,362,-2626,-167,-246,-83,137,75,-355
2,5243493,-3495,362,-2626,-167,-246,-83,137,75,-355
2,5243506,-3491,360,-2628,-161,-241,-88,137,75,-355
2,5243521,-3495,365,-2633,-159,-239,-89,137,75,-355
2,5243532,-3495,365,-2633,-159,-239,-89,137,75,-355
2,5243545,-3493,362,-2629,-166,-229,-86,137,75,-355
2,5243558,-3493,362,-2629,-166,-229,-86,137,75,-355
2,5243572,-3492,361,-2629,-162,-241,-88,137,75,-355
2,5243587,-3493,362,-2630,-160,-239,-88,137,75,-355
2,5243601,-3493,361,-2622,-162,-237,-88,140,82,-360
2,5243616,-3493,361,-2622,-162,-237,-88,140,82,-360
2,5243630,-3495,363,-2629,-163,-235,-85,140,82,-360
2,5243644,-3493,364,-2636,-167,-240,-83,140,82,-360
2,5243660,-3491,358,-2633,-166,-238,-83,140,82,-360
2,5243671,-3491,358,-2633,-166,-238,-83,140,82,-360
2,5243684,-3495,363,-2632,-162,-232,-81,140,82,-360
2,5243699,-3495,363,-2632,-162,-232,-81,140,82,-360
2,5243712,-3491,361,-2630,-162,-236,-91,140,82,-360
2,5243725,-3493,360,-2630,-168,-238,-96,135,79,-359
2,5243740,-3491,363,-2627,-164,-232,-90,135,79,-359
2,5243754,-3491,363,-2627,-164,-232,-90,135,79,-359
2,5243766,-3493,363,-2626,-164,-230,-91,135,79,-359
2,5243780,-3493,364,-2626,-165,-243,-83,135,79,-359
2,5243793,-3493,364,-2626,-165,-243,-83,135,79,-359
2,5243807,-3494,368,-2626,-164,-240,-93,135,79,-359
2,5243820,-3496,361,-2627,-165,-230,-91,135,79,-359
2,5243832,-3496,361,-2627,-165,-230,-91,135,79,-359
2,5243846,-3493,362,-2633,-165,-233,-88,148,84,-360
2,5243859,-3490,362,-2632,-158,-232,-89,148,84,-360
2,5243873,-3490,362,-2632,-158,-232,-89,148,84,-360
2,5243887,-3494,365,-2634,-169,-236,-84,148,84,-360
2,5243900,-3494,362,-2634,-174,-241,-83,148,84,-360
2,5243914,-3494,362,-2634,-174,-241,-83,148,84,-360
2,5243929,-3495,362,-2631,-170,-249,-83,148,84,-360
2,5243942,-3493,361,-2629,-166,-237,-89,148,84,-360
2,5243956,-3493,361,-2629,-166,-237,-89,148,84,-360
2,5243971,-3493,363,-2631,-169,-247,-85,137,83,-355
2,5243984,-3493,363,-2624,-163,-238,-79,137,83,-355
2,5243998,-3493,363,-2624,-163,-238,-79,137,83,-355
2,5244011,-3494,363,-2628,-165,-234,-85,137,83,-355
2,5244024,-3494,364,-2631,-164,-244,-93,137,83,-355
2,5244040,-3498,364,-2632,-167,-240,-80,137,83,-355
2,5244055,-3498,364,-2632,-167,-240,-80,137,83,-355
2,5244067,-3492,365,-2635,-166,-246,-80,137,83,-355
2,5244078,-3492,365,-2635,-166,-246,-80,137,83,-355
2,5244086,-3494,362,-2627,-165,-248,-79,141,87,-363
2,5244099,-3494,362,-2627,-165,-248,-79,141,87,-363
2,5244114,-3491,361,-2628,-165,-241,-85,141,87,-363
2,5244129,-3495,361,-2626,-161,-235,-77,141,87,-363
2,5244143,-3495,361,-2626,-161,-235,-77,141,87,-363
2,5244155,-3495,361,-2626,-161,-235,-77,141,87,-363
2,5244168,-3496,364,-2628,-161,-247,-89,141,87,-363
2,5244181,-3494,362,-2632,-159,-243,-87,141,87,-363
2,5244194,-3494,362,-2632,-159,-243,-87,141,87,-363
2,5244209,-3496,363,-2631,-164,-237,-84,137,75,-361
2,5244220,-3496,361,-2627,-163,-242,-88,137,75,-361
2,5244233,-3496,361,-2627,-163,-242,-88,137,75,-361
2,5244249,-3495,360,-2633,-161,-244,-92,137,75,-361
2,5244263,-3492,363,-2629,-156,-239,-85,137,75,-361
2,5244276,-3492,363,-2629,-156,-239,-85,137,75,-361
2,5244292,-3494,361,-2632,-163,-238,-88,137,75,-361
2,5244307,-3495,361,-2627,-166,-244,-84,137,75,-361
2,5244321,-3493,357,-2632,-162,-240,-84,137,75,-361
2,5244335,-3493,357,-2632,-162,-240,-84,137,75,-361
2,5244348,-3495,360,-2631,-167,-245,-90,142,82,-366
2,5244362,-3490,363,-2627,-171,-237,-86,142,82,-366
2,5244377,-3490,363,-2627,-171,-237,-86,142,82,-366
2,5244386,-3492,362,-2632,-165,-242,-73,142,82,-366
2,5244400,-3492,362,-2632,-165,-242,-73,142,82,-366
2,5244407,-3493,364,-2633,-165,-233,-81,142,82,-366
2,5244419,-3493,364,-2633,-165,-233,-81,142,82,-366
2,5244432,-3492,361,-2634,-169,-236,-83,142,82,-366
2,5244445,-3492,360,-2633,-160,-241,-89,142,82,-366
2,5244453,-3492,360,-2633,-160,-241,-89,142,82,-366
2,5244462,-3495,364,-2631,-162,-234,-86,141,85,-359
2,5244471,-3495,364,-2631,-162,-234,-86,141,85,-359
2,5244485,-3495,363,-2636,-164,-238,-83,141,85,-359
2,5244500,-3493,366,-2629,-162,-237,-87,141,85,-359
2,5244515,-3493,366,-2629,-162,-237,-87,141,85,-359
2,5244529,-3496,362,-2627,-160,-239,-88,141,85,-359
2,5244540,-3491,363,-2626,-158,-239,-83,141,85,-359
2,5244555,-3491,363,-2626,-158,-239,-83,141,85,-359
2,5244568,-3492,363,-2632,-163,-242,-84,141,85,-359
2,5244582,-3497,365,-2625,-162,-239,-85,146,82,-360
2,5244596,-3497,365,-2625,-162,-239,-85,146,82,-360
2,5244608,-3491,362,-2630,-171,-244,-84,146,82,-360
2,5244620,-3493,362,-2630,-168,-245,-84,146,82,-360
2,5244635,-3493,362,-2630,-168,-245,-84,146,82,-360
2,5244648,-3495,361,-2630,-164,-247,-84,146,82,-360
2,5244661,-3495,362,-2635,-162,-239,-85,146,82,-360
2,5244673,-3495,362,-2635,-162,-239,-85,146,82,-360
2,5244686,-3491,364,-2633,-164,-234,-81,146,82,-360
2,5244700,-3491,364,-2633,-164,-234,-81,146,82,-360
2,5244713,-3495,362,-2630,-166,-248,-86,131,85,-363
2,5244728,-3494,366,-2632,-166,-244,-86,131,85,-363
2,5244743,-3496,363,-2629,-168,-244,-80,131,85,-363
2,5244759,-3496,363,-2629,-168,-244,-80,131,85,-363
2,5244772,-3493,363,-2631,-165,-245,-83,131,85,-363
2,5244786,-3491,363,-2637,-161,-241,-82,131,85,-363
2,5244801,-3495,364,-2630,-168,-247,-86,131,85,-363
2,5244814,-3495,364,-2630,-168,-247,-86,131,85,-363
2,5244826,-3496,366,-2631,-165,-240,-87,146,78,-358
2,5244841,-3490,361,-2630,-166,-238,-86,146,78,-358
2,5244855,-3490,361,-2630,-166,-238,-86,146,78,-358
2,5244869,-3493,360,-2632,-168,-243,-81,146,78,-358
2,5244882,-3496,363,-2630,-164,-236,-92,146,78,-358
2,5244896,-3496,363,-2630,-164,-236,-92,146,78,-358
2,5244907,-3495,362,-2630,-166,-233,-96,146,78,-358
2,5244920,-3497,366,-2634,-166,-232,-87,146,78,-358
2,5244934,-3497,366,-2634,-166,-232,-87,146,78,-358
2,5244948,-3494,361,-2629,-167,-243,-84,146,78,-358
2,5244963,-3496,363,-2633,-164,-243,-82,134,86,-358
2,5244978,-3496,363,-2633,-164,-243,-82,134,86,-358
2,5244993,-3494,362,-2628,-167,-241,-78,134,86,-358
2,5245008,-3493,360,-2633,-165,-243,-88,134,86,-358
2,5245023,-3496,362,-2634,-162,-244,-89,134,86,-358
2,5245036,-3496,362,-2634,-162,-244,-89,134,86,-358
2,5245049,-3494,363,-2632,-164,-242,-86,134,86,-358
2,5245062,-3494,360,-2632,-163,-249,-92,134,86,-358
2,5245074,-3494,360,-2632,-163,-249,-92,134,86,-358
2,5245087,-3493,363,-2630,-168,-241,-87,142,88,-360
2,5245101,-3496,363,-2626,-167,-237,-84,142,88,-360
2,5245115,-3496,363,-2626,-167,-237,-84,142,88,-360
2,5245129,-3494,364,-2633,-160,-245,-80,142,88,-360
2,5245140,-3495,362,-2631,-161,-242,-84,142,88,-360
2,5245155,-3495,362,-2631,-161,-242,-84,142,88,-360
2,5245170,-3493,359,-2635,-166,-238,-85,142,88,-360
2,5245184,-3495,361,-2634,-165,-237,-88,142,88,-360
2,5245197,-3495,361,-2634,-165,-237,-88,142,88,-360
2,5245212,-3496,359,-2631,-168,-239,-88,145,85,-361
2,5245228,-3497,359,-2632,-164,-234,-83,145,85,-361
2,5245243,-3494,361,-2629,-164,-242,-85,145,85,-361
2,5245256,-3494,361,-2629,-164,-242,-85,145,85,-361
2,5245271,-3494,366,-2631,-158,-249,-90,145,85,-361
2,5245284,-3494,360,-2632,-160,-239,-89,145,85,-361
2,5245296,-3494,360,-2632,-160,-239,-89,145,85,-361
2,5245309,-3495,359,-2628,-166,-243,-88,145,85,-361
2,5245323,-3494,362,-2629,-164,-243,-87,139,91,-361
2,5245336,-3494,362,-2629,-164,-243,-87,139,91,-361
2,5245350,-3491,362,-2631,-168,-245,-92,139,91,-361
2,5245361,-3491,362,-2631,-168,-245,-92,139,91,-361
2,5245374,-3494,360,-2630,-162,-252,-87,139,91,-361
2,5245387,-3497,363,-2633,-163,-243,-78,139,91,-361
2,5245400,-3497,363,-2633,-163,-243,-78,139,91,-361
2,5245415,-3496,364,-2633,-160,-234,-80,139,91,-361
2,5245430,-3495,361,-2639,-170,-239,-84,139,91,-361
2,5245446,-3496,363,-2632,-162,-236,-83,139,79,-355
2,5245459,-3496,363,-2632,-162,-236,-83,139,79,-355
2,5245473,-3495,359,-2628,-160,-238,-84,139,79,-355
2,5245488,-3494,357,-2631,-164,-241,-79,139,79,-355
2,5245502,-3495,358,-2632,-173,-248,-93,139,79,-355
2,5245513,-3495,358,-2632,-173,-248,-93,139,79,-355
2,5245527,-3499,361,-2631,-165,-248,-88,139,79,-355
2,5245541,-3499,361,-2631,-165,-248,-88,139,79,-355
2,5245554,-3494,363,-2631,-162,-248,-85,139,79,-355
2,5245569,-3491,362,-2630,-162,-244,-81,139,79,-355
2,5245582,-3492,364,-2634,-165,-235,-80,143,87,-351
2,5245595,-3492,364,-2634,-165,-235,-80,143,87,-351
2,5245609,-3497,359,-2632,-163,-246,-83,143,87,-351
2,5245624,-3494,360,-2627,-162,-241,-88,143,87,-351
2,5245638,-3494,360,-2627,-162,-241,-88,143,87,-351
2,5245652,-3493,363,-2628,-162,-242,-79,143,87,-351
2,5245667,-3495,358,-2631,-159,-237,-86,143,87,-351
2,5245678,-3495,358,-2631,-159,-237,-86,143,87,-351
2,5245691,-3496,360,-2630,-166,-235,-84,143,87,-351
2,5245707,-3494,361,-2623,-165,-242,-91,131,81,-357
2,5245722,-3493,362,-2626,-168,-240,-90,131,81,-357
2,5245735,-3493,362,-2626,-168,-240,-90,131,81,-357
2,5245748,-3496,359,-2630,-163,-240,-86,131,81,-357
2,5245761,-3496,359,-2630,-163,-240,-86,131,81,-357
2,5245776,-3494,361,-2632,-162,-243,-88,131,81,-357
2,5245790,-3495,357,-2631,-162,-249,-87,131,81,-357
2,5245804,-3495,360,-2632,-169,-248,-87,131,81,-357
2,5245817,-3495,360,-2632,-169,-248,-87,131,81,-357
2,5245830,-3496,361,-2625,-166,-241,-88,135,85,-357
2,5245843,-3495,360,-2628,-170,-237,-91,135,85,-357
2,5245857,-3495,360,-2628,-170,-237,-91,135,85,-357
2,5245871,-3494,362,-2631,-163,-241,-85,135,85,-357
2,5245885,-3493,361,-2635,-157,-237,-89,135,85,-357
2,5245896,-3493,361,-2635,-157,-237,-89,135,85,-357
2,5245910,-3498,361,-2627,-156,-233,-91,135,85,-357
2,5245920,-3498,361,-2627,-156,-233,-91,135,85,-357
2,5245933,-3494,360,-2630,-158,-235,-96,135,85,-357
2,5245948,-3495,361,-2626,-165,-235,-88,135,87,-359
2,5245963,-3493,361,-2631,-164,-239,-87,135,87,-359
2,5245977,-3493,361,-2631,-164,-239,-87,135,87,-359
2,5245990,-3494,358,-2628,-160,-237,-85,135,87,-359
2,5246005,-3497,360,-2632,-161,-239,-92,135,87,-359
2,5246018,-3497,360,-2632,-161,-239,-92,135,87,-359
2,5246031,-3494,359,-2635,-158,-243,-91,135,87,-359
2,5246049,-3496,360,-2631,-158,-236,-87,135,87,-359
2,5246063,-3495,358,-2627,-160,-237,-88,137,77,-359
2,5246076,-3495,358,-2627,-160,-237,-88,137,77,-359
2,5246091,-3494,362,-2627,-165,-252,-84,137,77,-359
2,5246104,-3499,359,-2631,-171,-247,-81,137,77,-359
2,5246119,-3499,359,-2631,-171,-247,-81,137,77,-359
2,5246134,-3498,359,-2636,-163,-243,-84,137,77,-359
2,5246149,-3495,359,-2634,-172,-245,-85,137,77,-359
2,5246162,-3497,360,-2631,-165,-241,-82,137,77,-359
2,5246177,-3497,360,-2631,-165,-241,-82,137,77,-359
2,5246190,-3493,361,-2634,-172,-246,-82,137,77,-359
2,5246202,-3494,360,-2630,-172,-246,-88,138,86,-356
2,5246216,-3494,360,-2630,-172,-246,-88,138,86,-356
2,5246230,-3491,360,-2628,-160,-248,-87,138,86,-356
2,5246244,-3494,361,-2630,-165,-244,-86,138,86,-356
2,5246258,-3494,361,-2630,-165,-244,-86,138,86,-356
2,5246271,-3493,361,-2631,-162,-238,-81,138,86,-356
2,5246283,-3494,362,-2628,-169,-238,-85,138,86,-356
2,5246292,-3494,362,-2628,-169,-238,-85,138,86,-356
2,5246308,-3492,359,-2637,-168,-249,-89,138,86,-356
2,5246321,-3492,359,-2637,-168,-249,-89,138,86,-356
2,5246336,-3494,359,-2629,-166,-242,-86,141,91,-363
2,5246350,-3493,357,-2633,-162,-241,-84,141,91,-363
2,5246362,-3493,362,-2632,-162,-243,-83,141,91,-363
2,5246376,-3493,362,-2632,-162,-243,-83,141,91,-363
2,5246387,-3494,361,-2629,-163,-241,-81,141,91,-363
2,5246402,-3495,355,-2632,-165,-251,-83,141,91,-363
2,5246417,-3495,355,-2632,-165,-251,-83,141,91,-363
2,5246432,-3497,360,-2628,-170,-246,-86,141,91,-363
2,5246445,-3493,362,-2627,-164,-240,-86,133,91,-365
2,5246459,-3493,362,-2627,-164,-240,-86,133,91,-365
2,5246473,-3492,360,-2628,-168,-234,-89,133,91,-365
2,5246484,-3493,359,-2633,-157,-238,-88,133,91,-365
2,5246498,-3493,359,-2633,-157,-238,-88,133,91,-365
2,5246512,-3497,359,-2636,-164,-237,-87,133,91,-365
2,5246525,-3495,361,-2632,-161,-245,-85,133,91,-365
2,5246539,-3495,361,-2632,-161,-245,-85,133,91,-365
2,5246551,-3496,360,-2628,-162,-252,-86,133,91,-365
2,5246565,-3494,361,-2626,-168,-242,-84,136,76,-358
2,5246577,-3494,361,-2626,-168,-242,-84,136,76,-358
2,5246585,-3496,361,-2629,-161,-243,-88,136,76,-358
2,5246597,-3496,361,-2629,-161,-243,-88,136,76,-358
2,5246611,-3493,359,-2627,-157,-245,-85,136,76,-358
2,5246624,-3494,358,-2627,-160,-239,-87,136,76,-358
2,5246639,-3494,358,-2627,-160,-239,-87,136,76,-358
2,5246653,-3496,361,-2632,-167,-243,-82,136,76,-358
2,5246668,-3497,357,-2632,-166,-246,-89,136,76,-358
2,5246684,-3492,360,-2636,-166,-244,-85,138,84,-358
2,5246697,-3492,360,-2636,-166,-244,-85,138,84,-358
2,5246710,-3497,360,-2633,-164,-238,-86,138,84,-358
2,5246724,-3493,361,-2630,-161,-237,-86,138,84,-358
2,5246739,-3493,361,-2630,-161,-237,-86,138,84,-358
2,5246750,-3494,363,-2624,-165,-234,-85,138,84,-358
2,5246764,-3495,359,-2635,-162,-240,-85,138,84,-358
2,5246778,-3495,359,-2635,-162,-240,-85,138,84,-358
2,5246791,-3496,356,-2630,-162,-240,-85,138,84,-358
2,5246806,-3492,360,-2633,-162,-238,-96,138,84,-358
2,5246821,-3492,360,-2633,-162,-238,-96,138,84,-358
2,5246834,-3494,361,-2627,-165,-241,-79,142,82,-356
2,5246848,-3498,361,-2633,-169,-239,-85,142,82,-356
2,5246862,-3498,361,-2633,-169,-239,-85,142,82,-356
2,5246873,-3493,361,-2632,-161,-242,-86,142,82,-356
2,5246887,-3497,359,-2631,-159,-244,-91,142,82,-356
2,5246902,-3497,359,-2631,-159,-244,-91,142,82,-356
2,5246915,-3494,358,-2634,-160,-243,-87,142,82,-356
2,5246928,-3495,361,-2637,-164,-230,-88,142,82,-356
2,5246943,-3495,359,-2629,-166,-241,-88,134,90,-358
2,5246954,-3495,359,-2629,-166,-241,-88,134,90,-358
2,5246968,-3496,356,-2634,-162,-233,-87,134,90,-358
2,5246983,-3493,358,-2633,-161,-244,-86,134,90,-358
2,5246996,-3493,358,-2633,-161,-244,-86,134,90,-358
2,5247010,-3493,358,-2630,-162,-247,-84,134,90,-358
2,5247025,-3495,359,-2630,-162,-243,-81,134,90,-358
2,5247036,-3495,359,-2630,-162,-243,-81,134,90,-358
2,5247048,-3496,359,-2631,-159,-242,-80,134,90,-358
2,5247063,-3494,360,-2633,-157,-236,-82,145,83,-359
2,5247077,-3494,360,-2633,-157,-236,-82,145,83,-359
2,5247091,-3493,360,-2627,-162,-241,-88,145,83,-359
2,5247106,-3496,358,-2635,-158,-240,-88,145,83,-359
2,5247121,-3496,358,-2635,-158,-240,-88,145,83,-359
2,5247136,-3494,358,-2632,-160,-234,-86,145,83,-359
2,5247151,-3495,361,-2632,-166,-232,-87,145,83,-359
2,5247165,-3491,359,-2633,-162,-237,-79,145,83,-359
2,5247179,-3491,359,-2633,-162,-237,-79,145,83,-359
2,5247193,-3495,361,-2630,-164,-238,-75,140,82,-360
2,5247203,-3496,358,-2627,-158,-245,-78,140,82,-360
2,5247216,-3496,358,-2627,-158,-245,-78,140,82,-360
2,5247230,-3493,359,-2634,-160,-237,-84,140,82,-360
2,5247244,-3496,360,-2632,-162,-239,-91,140,82,-360
2,5247257,-3496,360,-2632,-162,-239,-91,140,82,-360
2,5247269,-3498,359,-2639,-161,-246,-90,140,82,-360
2,5247283,-3492,358,-2635,-160,-238,-84,140,82,-360
2,5247297,-3492,358,-2635,-160,-238,-84,140,82,-360
2,5247310,-3496,357,-2630,-161,-243,-90,143,75,-359
2,5247325,-3496,359,-2627,-154,-251,-83,143,75,-359
2,5247340,-3496,359,-2627,-154,-251,-83,143,75,-359
2,5247354,-3496,360,-2636,-155,-245,-93,143,75,-359
2,5247368,-3492,363,-2635,-160,-240,-85,143,75,-359
2,5247381,-3492,363,-2635,-160,-240,-85,143,75,-359
2,5247395,-3495,358,-2634,-156,-236,-89,143,75,-359
2,5247406,-3494,356,-2628,-169,-238,-86,143,75,-359
2,5247420,-3494,356,-2628,-169,-238,-86,143,75,-359
2,5247435,-3497,361,-2633,-163,-243,-84,143,75,-359
2,5247450,-3495,360,-2625,-162,-242,-86,143,75,-359
2,5247463,-3495,360,-2625,-162,-242,-86,143,75,-359
2,5247476,-3496,357,-2629,-163,-241,-97,143,75,-359
2,5247490,-3497,359,-2630,-156,-240,-90,143,75,-359
2,5247502,-3497,359,-2630,-156,-240,-90,143,75,-359
2,5247516,-3495,357,-2629,-161,-239,-84,143,75,-359
2,5247528,-3492,359,-2634,-160,-240,-89,143,75,-359
2,5247543,-3494,358,-2635,-158,-237,-91,143,75,-359
2,5247558,-3494,358,-2635,-158,-237,-91,143,75,-359
2,5247574,-3495,359,-2632,-157,-241,-92,140,78,-362
2,5247589,-3492,362,-2633,-160,-236,-86,140,78,-362
2,5247602,-3492,362,-2633,-160,-236,-86,140,78,-362
2,5247617,-3494,360,-2633,-163,-238,-84,140,78,-362
2,5247632,-3496,358,-2634,-165,-234,-87,140,78,-362
2,5247644,-3495,359,-2635,-167,-243,-92,140,78,-362
2,5247656,-3495,359,-2635,-167,-243,-92,140,78,-362
2,5247672,-3494,359,-2632,-164,-238,-84,140,78,-362
2,5247685,-3494,360,-2633,-162,-239,-85,139,79,-359
2,5247699,-3494,360,-2633,-162,-239,-85,139,79,-359
2,5247713,-3496,360,-2637,-157,-235,-90,139,79,-359
2,5247727,-3496,357,-2630,-166,-242,-91,139,79,-359
2,5247739,-3496,357,-2630,-166,-242,-91,139,79,-359
2,5247753,-3493,359,-2631,-161,-237,-87,139,79,-359
2,5247766,-3494,359,-2632,-156,-241,-88,139,79,-359
2,5247780,-3494,359,-2632,-156,-241,-88,139,79,-359
2,5247795,-3495,359,-2633,-158,-246,-85,139,79,-359
2,5247809,-3494,358,-2626,-163,-246,-87,132,80,-360
2,5247820,-3494,358,-2626,-163,-246,-87,132,80,-360
2,5247836,-3494,357,-2633,-154,-247,-93,132,80,-360
2,5247850,-3496,355,-2637,-163,-236,-86,132,80,-360
2,5247864,-3497,358,-2634,-166,-240,-92,132,80,-360
2,5247877,-3497,358,-2634,-166,-240,-92,132,80,-360
2,5247890,-3494,361,-2629,-170,-242,-86,132,80,-360
2,5247904,-3494,360,-2630,-163,-237,-87,132,80,-360
2,5247918,-3494,360,-2630,-163,-237,-87,132,80,-360
2,5247932,-3495,356,-2626,-160,-238,-91,141,83,-363
2,5247945,-3494,357,-2632,-165,-239,-81,141,83,-363
2,5247959,-3494,357,-2632,-165,-239,-81,141,83,-363
2,5247971,-3494,360,-2629,-165,-236,-89,141,83,-363
2,5247985,-3492,361,-2632,-165,-242,-87,141,83,-363
2,5248000,-3492,361,-2632,-165,-242,-87,141,83,-363
2,5248014,-3494,359,-2635,-163,-242,-86,141,83,-363
2,5248028,-3492,356,-2634,-165,-239,-88,141,83,-363
2,5248044,-3494,358,-2631,-168,-241,-85,141,83,-363
2,5248059,-3494,358,-2631,-168,-241,-85,138,80,-352
2,5248074,-3494,358,-2631,-168,-241,-86,138,80,-352
2,5248081,-3494,358,-2631,-168,-241,-86,138,80,-352
2,5248095,-3492,358,-2633,-166,-235,-84,138,80,-352
2,5248108,-3495,357,-2634,-165,-240,-84,138,80,-352
2,5248121,-3495,357,-2634,-165,-240,-84,138,80,-352
2,5248135,-3492,358,-2632,-161,-237,-91,138,80,-352
2,5248149,-3493,362,-2638,-166,-244,-84,138,80,-352
2,5248163,-3493,362,-2638,-166,-244,-84,138,80,-352
2,5248174,-3496,361,-2636,-160,-236,-85,138,80,-352
2,5248188,-3493,359,-2630,-164,-245,-90,146,78,-354
2,5248202,-3493,359,-2630,-164,-245,-90,146,78,-354
2,5248216,-3492,361,-2625,-161,-243,-86,146,78,-354
2,5248230,-3491,358,-2631,-158,-242,-94,146,78,-354
2,5248243,-3491,358,-2631,-158,-242,-94,146,78,-354
2,5248257,-3493,361,-2637,-159,-240,-85,146,78,-354
2,5248270,-3496,361,-2636,-156,-242,-89,146,78,-354
2,5248285,-3496,361,-2631,-163,-243,-92,146,78,-354
2,5248300,-3496,361,-2631,-163,-243,-92,146,78,-354
2,5248311,-3494,358,-2632,-167,-241,-90,138,80,-358
2,5248324,-3492,357,-2631,-159,-245,-89,138,80,-358
2,5248337,-3492,357,-2631,-159,-245,-89,138,80,-358
2,5248351,-3495,359,-2633,-168,-238,-89,138,80,-358
2,5248365,-3495,360,-2635,-166,-240,-90,138,80,-358
2,5248376,-3495,360,-2635,-166,-240,-90,138,80,-358
2,5248390,-3494,360,-2633,-162,-239,-83,138,80,-358
2,5248404,-3496,359,-2633,-163,-238,-77,138,80,-358
2,5248420,-3496,359,-2633,-163,-238,-77,138,80,-358
2,5248435,-3495,363,-2633,-167,-245,-79,139,85,-359
2,5248447,-3493,357,-2633,-164,-239,-80,139,85,-359
2,5248462,-3493,357,-2633,-164,-239,-80,139,85,-359
2,5248478,-3494,359,-2632,-164,-237,-83,139,85,-359
2,5248492,-3498,360,-2629,-161,-237,-81,139,85,-359
2,5248505,-3495,356,-2631,-166,-232,-83,139,85,-359
2,5248520,-3495,356,-2631,-166,-232,-83,139,85,-359
2,5248532,-3494,357,-2638,-166,-237,-91,139,85,-359
2,5248543,-3494,357,-2638,-166,-237,-91,139,85,-359
2,5248557,-3493,358,-2628,-163,-236,-86,138,86,-354
2,5248571,-3497,360,-2632,-162,-233,-82,138,86,-354
2,5248584,-3497,360,-2635,-164,-236,-88,138,86,-354
2,5248599,-3497,360,-2635,-164,-236,-88,138,86,-354
2,5248611,-3498,357,-2632,-159,-236,-95,138,86,-354
2,5248624,-3498,357,-2632,-159,-236,-95,138,86,-354
2,5248637,-3497,356,-2636,-157,-246,-89,138,86,-354
2,5248653,-3494,360,-2633,-158,-241,-89,138,86,-354
2,5248667,-3498,362,-2628,-166,-236,-84,136,80,-350
2,5248681,-3498,362,-2628,-166,-236,-84,136,80,-350
2,5248697,-3496,361,-2630,-164,-241,-83,136,80,-350
2,5248713,-3493,357,-2639,-163,-244,-83,136,80,-350
2,5248729,-3496,360,-2634,-163,-245,-86,136,80,-350
2,5248742,-3496,360,-2634,-163,-245,-86,136,80,-350
2,5248755,-3495,356,-2634,-160,-241,-84,136,80,-350
2,5248770,-3497,357,-2636,-157,-233,-89,136,80,-350
2,5248781,-3497,357,-2636,-157,-233,-89,136,80,-350
2,5248795,-3495,356,-2631,-168,-243,-80,136,80,-350
2,5248808,-3495,361,-2629,-159,-239,-84,134,76,-356
2,5248822,-3495,361,-2629,-159,-239,-84,134,76,-356
2,5248836,-3491,358,-2634,-157,-235,-81,134,76,-356
2,5248850,-3493,361,-2635,-167,-238,-78,134,76,-356
2,5248861,-3493,361,-2635,-167,-238,-78,134,76,-356
2,5248875,-3496,358,-2639,-164,-232,-86,134,76,-356
2,5248889,-3494,359,-2635,-164,-240,-90,134,76,-356
2,5248904,-3494,359,-2635,-164,-240,-90,134,76,-356
2,5248917,-3494,361,-2626,-165,-231,-86,134,76,-356
2,5248931,-3494,360,-2628,-171,-240,-84,134,80,-354
2,5248947,-3492,360,-2632,-170,-237,-84,134,80,-354
2,5248961,-3492,360,-2632,-170,-237,-84,134,80,-354
2,5248974,-3494,358,-2635,-166,-241,-80,134,80,-354
2,5248988,-3493,364,-2634,-168,-243,-79,134,80,-354
2,5249000,-3493,364,-2634,-168,-243,-79,134,80,-354
2,5249013,-3495,359,-2633,-156,-245,-91,134,80,-354
2,5249027,-3493,358,-2633,-166,-238,-82,134,80,-354
2,5249040,-3493,358,-2633,-166,-238,-82,134,80,-354
2,5249053,-3495,358,-2631,-164,-241,-88,138,80,-366
2,5249068,-3493,359,-2632,-160,-237,-90,138,80,-366
2,5249082,-3493,359,-2632,-160,-237,-90,138,80,-366
2,5249094,-3494,361,-2630,-159,-239,-92,138,80,-366
2,5249108,-3493,357,-2627,-160,-241,-99,138,80,-366
2,5249123,-3493,357,-2627,-160,-241,-99,138,80,-366
2,5249136,-3492,356,-2633,-159,-238,-87,138,80,-366
2,5249149,-3496,360,-2637,-161,-237,-90,138,80,-366
2,5249165,-3494,360,-2635,-166,-233,-93,138,80,-366
2,5249178,-3494,360,-2635,-166,-233,-93,142,82,-354
2,5249189,-3492,360,-2629,-158,-243,-87,142,82,-354
2,5249203,-3492,360,-2629,-158,-243,-87,142,82,-354
2,5249214,-3492,362,-2633,-171,-246,-83,142,82,-354
2,5249228,-3493,362,-2634,-161,-236,-89,142,82,-354
2,5249242,-3493,362,-2634,-161,-236,-89,142,82,-354
2,5249255,-3494,360,-2630,-166,-240,-85,142,82,-354
2,5249267,-3493,361,-2637,-166,-246,-90,142,82,-354
2,5249282,-3493,361,-2637,-166,-246,-90,142,82,-354
2,5249294,-3497,362,-2637,-161,-242,-93,141,83,-361
2,5249309,-3494,361,-2633,-161,-233,-85,141,83,-361
2,5249325,-3494,361,-2633,-161,-233,-85,141,83,-361
2,5249338,-3496,359,-2629,-161,-239,-79,141,83,-361
2,5249351,-3495,359,-2632,-171,-241,-82,141,83,-361
2,5249366,-3494,359,-2633,-165,-244,-86,141,83,-361
2,5249379,-3494,359,-2633,-165,-244,-86,141,83,-361
2,5249392,-3494,361,-2628,-166,-250,-85,141,83,-361
2,5249406,-3493,358,-2634,-165,-243,-86,141,83,-361
2,5249419,-3493,358,-2634,-165,-243,-86,141,83,-361
2,5249433,-3495,356,-2625,-159,-252,-85,143,81,-357
2,5249447,-3493,356,-2631,-166,-242,-88,143,81,-357
2,5249461,-3493,356,-2631,-166,-242,-88,143,81,-357
2,5249476,-3495,360,-2628,-167,-237,-92,143,81,-357
2,5249489,-3497,363,-2630,-170,-242,-89,143,81,-357
2,5249504,-3497,363,-2630,-170,-242,-89,143,81,-357
2,5249513,-3497,362,-2630,-160,-243,-88,143,81,-357
2,5249522,-3497,362,-2630,-160,-243,-88,143,81,-357
2,5249537,-3494,361,-2636,-162,-241,-85,143,81,-357
2,5249552,-3490,360,-2630,-165,-236,-81,141,87,-353
2,5249565,-3496,360,-2631,-161,-236,-86,141,87,-353
2,5249580,-3496,360,-2631,-161,-236,-86,141,87,-353
2,5249595,-3496,363,-2636,-166,-244,-85,141,87,-353
2,5249610,-3496,360,-2632,-168,-246,-85,141,87,-353
2,5249626,-3495,359,-2628,-167,-239,-89,141,87,-353
2,5249638,-3495,359,-2628,-167,-239,-89,141,87,-353
2,5249649,-3494,360,-2635,-164,-238,-88,141,87,-353
2,5249664,-3494,360,-2635,-164,-238,-88,141,87,-353
2,5249677,-3494,358,-2630,-162,-239,-89,138,88,-362
2,5249691,-3494,360,-2631,-161,-238,-84,138,88,-362
2,5249704,-3494,360,-2631,-161,-238,-84,138,88,-362
2,5249716,-3494,356,-2627,-170,-242,-79,138,88,-362
2,5249729,-3493,359,-2629,-160,-228,-89,138,88,-362
2,5249744,-3494,360,-2633,-163,-238,-86,138,88,-362
2,5249757,-3494,360,-2633,-163,-238,-86,138,88,-362
2,5249771,-3495,359,-2636,-162,-241,-85,138,88,-362
2,5249786,-3496,361,-2630,-162,-237,-84,141,81,-359
2,5249802,-3496,361,-2630,-162,-237,-84,141,81,-359
2,5249817,-3494,362,-2628,-161,-239,-88,141,81,-359
2,5249830,-3493,360,-2629,-160,-240,-83,141,81,-359
2,5249844,-3493,360,-2629,-160,-240,-83,141,81,-359
2,5249857,-3492,360,-2629,-168,-242,-88,141,81,-359
2,5249869,-3495,359,-2632,-165,-235,-84,141,81,-359
2,5249883,-3495,359,-2632,-165,-235,-84,141,81,-359
2,5249896,-3494,362,-2631,-154,-230,-89,141,81,-359
2,5249909,-3494,362,-2629,-155,-231,-87,135,83,-363
2,5249922,-3494,362,-2629,-155,-231,-87,135,83,-363
2,5249934,-3494,359,-2632,-158,-240,-86,135,83,-363
2,5249948,-3494,362,-2638,-158,-238,-83,135,83,-363
2,5249963,-3494,362,-2638,-158,-238,-83,135,83,-363
2,5249977,-3494,356,-2636,-158,-235,-80,135,83,-363
2,5249990,-3496,360,-2633,-160,-231,-82,135,83,-363
2,5250006,-3496,360,-2634,-164,-240,-85,135,83,-363
2,5250021,-3496,360,-2634,-164,-240,-85,135,83,-363
2,5250034,-3489,360,-2630,-156,-236,-84,135,83,-363
2,5250048,-3495,362,-2631,-167,-235,-89,145,81,-359
2,5250062,-3495,362,-2631,-167,-235,-89,145,81,-359
2,5250076,-3497,364,-2628,-169,-237,-89,145,81,-359
2,5250087,-3494,361,-2631,-159,-239,-93,145,81,-359
2,5250101,-3494,361,-2631,-159,-239,-93,145,81,-359
2,5250115,-3495,361,-2633,-162,-240,-89,145,81,-359
2,5250128,-3501,358,-2637,-155,-238,-88,145,81,-359
2,5250143,-3501,358,-2637,-155,-238,-88,145,81,-359
2,5250156,-3494,358,-2633,-159,-236,-90,145,81,-359
2,5250168,-3493,359,-2628,-164,-239,-89,140,86,-362
2,5250182,-3493,359,-2628,-164,-239,-89,140,86,-362
2,5250197,-3495,363,-2632,-167,-246,-84,140,86,-362
2,5250212,-3495,364,-2635,-167,-238,-88,140,86,-362
2,5250227,-3493,359,-2634,-166,-237,-86,140,86,-362
2,5250239,-3493,359,-2634,-166,-237,-86,140,86,-362
2,5250254,-3494,360,-2633,-164,-239,-87,140,86,-362
2,5250269,-3495,357,-2633,-166,-242,-78,140,86,-362
2,5250282,-3495,357,-2633,-166,-242,-78,140,86,-362
2,5250296,-3496,358,-2632,-168,-231,-84,132,80,-362
2,5250310,-3494,360,-2629,-167,-236,-88,132,80,-362
2,5250321,-3494,360,-2629,-167,-236,-88,132,80,-362
2,5250334,-3493,360,-2633,-167,-242,-86,132,80,-362
2,5250349,-3496,361,-2633,-170,-238,-85,132,80,-362
2,5250362,-3496,361,-2633,-170,-238,-85,132,80,-362
2,5250375,-3493,358,-2636,-165,-238,-82,132,80,-362
2,5250387,-3491,361,-2636,-164,-246,-88,132,80,-362
2,5250400,-3491,361,-2636,-164,-246,-88,132,80,-362
2,5250415,-3493,359,-2627,-166,-242,-92,137,79,-359
2,5250432,-3495,361,-2631,-163,-240,-85,137,79,-359
2,5250444,-3495,361,-2631,-163,-240,-85,137,79,-359
2,5250458,-3489,361,-2632,-163,-242,-79,137,79,-359
2,5250473,-3493,361,-2633,-163,-242,-79,137,79,-359
2,5250488,-3496,359,-2635,-161,-243,-83,137,79,-359
2,5250502,-3496,359,-2635,-161,-243,-83,137,79,-359
2,5250518,-3495,360,-2633,-160,-248,-83,137,79,-359
2,5250531,-3498,359,-2634,-152,-237,-84,142,84,-354
2,5250545,-3498,359,-2634,-152,-237,-84,142,84,-354
2,5250557,-3493,361,-2628,-157,-247,-83,142,84,-354
2,5250571,-3494,359,-2632,-160,-243,-84,142,84,-354
2,5250586,-3492,362,-2630,-158,-242,-90,142,84,-354
2,5250599,-3492,362,-2630,-158,-242,-90,142,84,-354
2,5250614,-3493,364,-2628,-162,-246,-94,142,84,-354
2,5250627,-3492,360,-2631,-163,-241,-91,142,84,-354
2,5250639,-3492,360,-2631,-163,-241,-91,142,84,-354
2,5250652,-3493,363,-2632,-164,-241,-90,142,84,-354
2,5250667,-3493,362,-2625,-164,-241,-86,140,78,-358
2,5250682,-3493,362,-2625,-164,-241,-86,140,78,-358
2,5250698,-3496,363,-2631,-162,-248,-85,140,78,-358
2,5250710,-3495,363,-2632,-166,-254,-91,140,78,-358
2,5250724,-3495,363,-2632,-166,-254,-91,140,78,-358
2,5250739,-3490,358,-2632,-157,-244,-91,140,78,-358
2,5250753,-3495,360,-2635,-166,-245,-85,140,78,-358
2,5250766,-3494,357,-2634,-165,-241,-86,140,78,-358
2,5250780,-3494,357,-2634,-165,-241,-86,140,78,-358
2,5250792,-3496,360,-2631,-169,-248,-83,140,92,-368
2,5250806,-3495,361,-2633,-165,-248,-85,140,92,-368
2,5250820,-3495,361,-2633,-165,-248,-85,140,92,-368
2,5250833,-3494,362,-2631,-166,-245,-85,140,92,-368
2,5250846,-3492,363,-2630,-171,-243,-92,140,92,-368
2,5250861,-3492,363,-2630,-171,-243,-92,140,92,-368
2,5250872,-3495,362,-2636,-163,-249,-84,140,92,-368
2,5250882,-3495,362,-2636,-163,-249,-84,140,92,-368
2,5250895,-3493,359,-2634,-166,-248,-84,140,92,-368
2,5250906,-3493,359,-2634,-166,-248,-84,140,92,-368
2,5250914,-3493,359,-2634,-166,-248,-84,155,89,-355
2,5250922,-3493,359,-2634,-166,-248,-84,155,89,-355
2,5250933,-3497,361,-2632,-159,-235,-80,155,89,-355
2,5250948,-3494,361,-2639,-167,-239,-78,155,89,-355
2,5250959,-3494,361,-2639,-167,-239,-78,155,89,-355
2,5250972,-3493,359,-2631,-162,-241,-86,155,89,-355
2,5250987,-3493,359,-2631,-162,-241,-86,155,89,-355
2,5251000,-3493,359,-2631,-162,-241,-86,155,89,-355
2,5251013,-3492,364,-2631,-157,-241,-87,155,89,-355
2,5251028,-3498,362,-2630,-157,-242,-91,137,89,-367
2,5251042,-3498,362,-2630,-157,-242,-91,137,89,-367
2,5251056,-3491,358,-2628,-159,-236,-83,137,89,-367
2,5251069,-3490,361,-2629,-161,-237,-88,137,89,-367
2,5251084,-3490,361,-2629,-161,-237,-88,137,89,-367
2,5251095,-3495,362,-2637,-163,-246,-90,137,89,-367
2,5251109,-3494,360,-2632,-166,-245,-91,137,89,-367
2,5251122,-3494,360,-2632,-166,-245,-91,137,89,-367
2,5251137,-3494,363,-2634,-160,-245,-81,137,89,-367
2,5251152,-3493,363,-2629,-164,-242,-84,141,83,-361
2,5251167,-3493,361,-2629,-165,-232,-88,141,83,-361
2,5251182,-3493,361,-2629,-165,-232,-88,141,83,-361
2,5251194,-3493,363,-2631,-166,-236,-78,141,83,-361
2,5251207,-3494,364,-2629,-171,-235,-81,141,83,-361
2,5251220,-3494,364,-2629,-171,-235,-81,141,83,-361
2,5251233,-3494,368,-2630,-167,-242,-91,141,83,-361
2,5251247,-3495,359,-2633,-163,-242,-87,141,83,-361
2,5251259,-3495,359,-2633,-163,-242,-87,141,83,-361
2,5251271,-3496,361,-2630,-158,-240,-86,140,80,-364
2,5251284,-3496,361,-2630,-158,-240,-86,140,80,-364
2,5251299,-3492,361,-2633,-156,-240,-83,140,80,-364
2,5251313,-3494,361,-2630,-164,-236,-86,140,80,-364
2,5251326,-3496,362,-2632,-169,-243,-88,140,80,-364
2,5251339,-3496,362,-2632,-169,-243,-88,140,80,-364
2,5251354,-3496,362,-2631,-169,-240,-88,140,80,-364
2,5251369,-3492,361,-2630,-174,-239,-79,140,80,-364
2,5251384,-3492,361,-2630,-174,-239,-79,140,80,-364
2,5251396,-3493,360,-2631,-173,-240,-90,140,80,-364
2,5251409,-3496,362,-2627,-174,-241,-86,133,81,-359
2,5251423,-3496,362,-2627,-174,-241,-86,133,81,-359
2,5251436,-3492,361,-2628,-172,-238,-89,133,81,-359
2,5251450,-3496,363,-2634,-164,-235,-84,133,81,-359
2,5251465,-3496,363,-2634,-164,-235,-84,133,81,-359
2,5251479,-3495,358,-2635,-169,-244,-87,133,81,-359
2,5251491,-3494,361,-2635,-163,-250,-81,133,81,-359
2,5251506,-3494,361,-2635,-163,-250,-81,133,81,-359
2,5251518,-3494,362,-2635,-167,-244,-87,133,81,-359
2,5251532,-3494,365,-2629,-165,-243,-94,142,84,-354
2,5251546,-3494,365,-2629,-165,-243,-94,142,84,-354
2,5251559,-3494,364,-2632,-165,-245,-89,142,84,-354
2,5251572,-3495,358,-2629,-160,-241,-82,142,84,-354
2,5251588,-3491,361,-2635,-167,-235,-85,142,84,-354
2,5251603,-3491,361,-2635,-167,-235,-85,142,84,-354
2,5251618,-3492,361,-2631,-159,-240,-80,142,84,-354
2,5251631,-3495,358,-2633,-175,-236,-91,142,84,-354
2,5251644,-3495,358,-2633,-175,-236,-91,142,84,-354
2,5251657,-3495,363,-2629,-163,-239,-91,140,78,-354
2,5251671,-3495,362,-2628,-171,-236,-90,140,78,-354
2,5251684,-3495,362,-2628,-171,-236,-90,140,78,-354
2,5251697,-3494,361,-2633,-170,-239,-86,140,78,-354
2,5251710,-3491,363,-2634,-165,-243,-80,140,78,-354
2,5251725,-3491,363,-2634,-165,-243,-80,140,78,-354
2,5251739,-3494,362,-2630,-164,-241,-89,140,78,-354
2,5251753,-3493,363,-2629,-166,-236,-81,140,78,-354
2,5251768,-3491,362,-2630,-164,-239,-83,138,86,-364
2,5251782,-3491,362,-2630,-164,-239,-83,138,86,-364
2,5251796,-3489,363,-2632,-159,-240,-80,138,86,-364
2,5251811,-3492,358,-2631,-163,-246,-85,138,86,-364
2,5251824,-3492,358,-2631,-163,-246,-85,138,86,-364
2,5251840,-3493,363,-2631,-164,-244,-85,138,86,-364
2,5251848,-3496,360,-2628,-163,-245,-89,138,86,-364
2,5251862,-3496,360,-2628,-163,-245,-89,138,86,-364
2,5251875,-3493,362,-2634,-167,-234,-86,138,86,-364
2,5251888,-3491,362,-2631,-159,-239,-89,139,77,-359
2,5251901,-3491,362,-2631,-159,-239,-89,139,77,-359
2,5251913,-3495,365,-2629,-166,-240,-92,139,77,-359
2,5251929,-3495,362,-2634,-166,-242,-86,139,77,-359
2,5251943,-3495,362,-2634,-166,-242,-86,139,77,-359
2,5251956,-3496,363,-2630,-169,-234,-88,139,77,-359
2,5251970,-3494,367,-2630,-170,-247,-80,139,77,-359
2,5251981,-3494,367,-2630,-170,-247,-80,139,77,-359
2,5251993,-3493,360,-2628,-168,-245,-84,139,77,-359
2,5252007,-3495,364,-2624,-170,-243,-75,139,77,-359
2,5252024,-3495,364,-2624,-170,-243,-75,139,77,-359
2,5252033,-3493,363,-2625,-165,-243,-85,137,83,-357
2,5252048,-3495,360,-2633,-162,-251,-78,137,83,-357
2,5252064,-3495,360,-2633,-162,-251,-78,137,83,-357
2,5252079,-3494,361,-2629,-169,-246,-91,137,83,-357
2,5252092,-3494,361,-2629,-169,-246,-91,137,83,-357
2,5252106,-3494,361,-2629,-169,-246,-91,137,83,-357
2,5252119,-3494,363,-2629,-164,-242,-84,137,83,-357
2,5252132,-3493,363,-2626,-161,-240,-87,137,83,-357
2,5252145,-3493,363,-2626,-161,-240,-87,137,83,-357
2,5252159,-3491,364,-2622,-161,-243,-84,139,85,-367
2,5252172,-3492,362,-2626,-162,-238,-80,139,85,-367
2,5252186,-3492,362,-2626,-162,-238,-80,139,85,-367
2,5252201,-3493,361,-2630,-163,-244,-89,139,85,-367
2,5252213,-3492,363,-2635,-162,-236,-86,139,85,-367
2,5252227,-3492,363,-2635,-162,-236,-86,139,85,-367
2,5252242,-3492,362,-2635,-164,-236,-82,139,85,-367
2,5252258,-3495,364,-2627,-161,-240,-86,139,85,-367
2,5252274,-3493,362,-2630,-159,-236,-91,143,87,-351
2,5252289,-3495,363,-2631,-164,-236,-88,143,87,-351
2,5252301,-3495,363,-2631,-164,-236,-88,143,87,-351
2,5252315,-3494,363,-2632,-161,-244,-86,143,87,-351
2,5252328,-3495,363,-2631,-159,-247,-88,143,87,-351
2,5252341,-3495,363,-2631,-159,-247,-88,143,87,-351
2,5252356,-3494,360,-2628,-167,-238,-93,143,87,-351
2,5252369,-3492,360,-2628,-164,-237,-88,143,87,-351
2,5252384,-3492,360,-2628,-164,-237,-88,143,87,-351
2,5252397,-3494,363,-2627,-163,-238,-87,139,79,-359
2,5252411,-3494,363,-2632,-158,-241,-92,139,79,-359
2,5252425,-3494,363,-2632,-158,-241,-92,139,79,-359
2,5252436,-3494,363,-2632,-161,-245,-87,139,79,-359
2,5252453,-3491,363,-2636,-162,-245,-78,139,79,-359
2,5252467,-3492,365,-2634,-162,-245,-88,139,79,-359
2,5252483,-3492,365,-2634,-162,-245,-88,139,79,-359
2,5252497,-3493,363,-2636,-163,-247,-95,139,79,-359
2,5252510,-3493,363,-2625,-162,-239,-89,135,85,-359
2,5252525,-3493,363,-2625,-162,-239,-89,135,85,-359
2,5252539,-3491,368,-2628,-162,-232,-86,135,85,-359
2,5252551,-3494,364,-2633,-158,-239,-82,135,85,-359
2,5252563,-3494,364,-2633,-158,-239,-82,135,85,-359
2,5252577,-3496,364,-2629,-166,-233,-86,135,85,-359
2,5252590,-3493,360,-2635,-163,-236,-81,135,85,-359
2,5252604,-3493,360,-2635,-163,-236,-81,135,85,-359
2,5252617,-3493,361,-2628,-164,-235,-78,135,85,-359
2,5252629,-3493,362,-2632,-163,-236,-75,135,85,-359
2,5252642,-3493,362,-2632,-163,-236,-75,135,85,-359
2,5252656,-3493,364,-2629,-173,-235,-86,138,86,-360
2,5252670,-3493,365,-2626,-169,-245,-85,138,86,-360
2,5252685,-3493,365,-2626,-169,-245,-85,138,86,-360
2,5252697,-3491,363,-2634,-170,-238,-85,138,86,-360
2,5252711,-3494,360,-2634,-162,-241,-80,138,86,-360
2,5252726,-3494,360,-2634,-162,-241,-80,138,86,-360
2,5252742,-3493,361,-2627,-159,-249,-83,138,86,-360
2,5252755,-3496,363,-2627,-158,-250,-88,138,86,-360
2,5252767,-3494,360,-2632,-167,-242,-76,138,86,-360
2,5252782,-3494,360,-2632,-167,-242,-76,138,88,-354
2,5252795,-3493,362,-2634,-167,-240,-72,138,88,-354
2,5252808,-3496,361,-2633,-165,-246,-88,138,88,-354
2,5252823,-3496,361,-2633,-165,-246,-88,138,88,-354
2,5252837,-3493,361,-2635,-161,-244,-89,138,88,-354
2,5252850,-3496,363,-2632,-159,-241,-89,138,88,-354
2,5252864,-3496,363,-2632,-159,-241,-89,138,88,-354
2,5252876,-3493,362,-2631,-167,-237,-80,138,88,-354
2,5252890,-3492,363,-2624,-166,-244,-80,147,79,-363
2,5252904,-3492,363,-2624,-166,-244,-80,147,79,-363
2,5252920,-3491,362,-2628,-168,-249,-88,147,79,-363
2,5252935,-3496,366,-2630,-172,-249,-92,147,79,-363
2,5252948,-3493,364,-2631,-169,-241,-86,147,79,-363
2,5252962,-3493,364,-2631,-169,-241,-86,147,79,-363
2,5252977,-3494,364,-2630,-160,-240,-86,147,79,-363
2,5252990,-3492,362,-2628,-160,-245,-84,147,79,-363
2,5253002,-3492,362,-2628,-160,-245,-84,147,79,-363
2,5253016,-3492,363,-2629,-164,-254,-84,137,81,-361
2,5253029,-3496,364,-2630,-162,-248,-88,137,81,-361
2,5253043,-3496,364,-2630,-162,-248,-88,137,81,-361
2,5253056,-3493,366,-2632,-165,-247,-85,137,81,-361
2,5253068,-3495,361,-2632,-159,-241,-82,137,81,-361
2,5253079,-3495,361,-2632,-159,-241,-82,137,81,-361
2,5253092,-3493,361,-2627,-168,-250,-81,137,81,-361
2,5253106,-3493,361,-2627,-168,-250,-81,137,81,-361
2,5253122,-3493,361,-2632,-170,-240,-86,137,81,-361
2,5253137,-3492,363,-2632,-168,-239,-86,142,80,-354
2,5253151,-3493,362,-2626,-167,-247,-85,142,80,-354
2,5253166,-3493,362,-2626,-167,-247,-85,142,80,-354
2,5253179,-3496,363,-2632,-156,-244,-80,142,80,-354
2,5253193,-3492,360,-2634,-165,-247,-83,142,80,-354
2,5253209,-3495,363,-2631,-166,-240,-79,142,80,-354
2,5253220,-3495,363,-2631,-166,-240,-79,142,80,-354
2,5253233,-3492,364,-2628,-163,-240,-87,142,80,-354
2,5253246,-3492,364,-2628,-163,-240,-87,142,80,-354
2,5253260,-3494,363,-2629,-167,-236,-87,142,80,-354
2,5253274,-3493,363,-2627,-158,-240,-85,141,81,-355
2,5253287,-3493,363,-2627,-158,-240,-85,141,81,-355
2,5253300,-3495,364,-2631,-167,-236,-86,141,81,-355
2,5253314,-3493,365,-2635,-166,-245,-81,141,81,-355
2,5253325,-3493,365,-2635,-166,-245,-81,141,81,-355
2,5253341,-3493,366,-2631,-161,-242,-80,141,81,-355
2,5253355,-3492,365,-2636,-163,-244,-87,141,81,-355
2,5253372,-3496,361,-2634,-167,-246,-90,141,81,-355
2,5253385,-3496,361,-2634,-167,-246,-90,141,81,-355
2,5253398,-3491,360,-2627,-160,-237,-83,133,83,-361
2,5253412,-3491,360,-2627,-160,-237,-83,133,83,-361
2,5253426,-3491,360,-2627,-160,-237,-83,133,83,-361
2,5253437,-3493,362,-2632,-165,-239,-80,133,83,-361
2,5253450,-3493,363,-2636,-161,-237,-88,133,83,-361
2,5253465,-3493,363,-2636,-161,-237,-88,133,83,-361
2,5253478,-3496,365,-2632,-164,-234,-83,133,83,-361
2,5253488,-3495,363,-2625,-164,-241,-77,133,83,-361
2,5253502,-3495,363,-2625,-164,-241,-77,133,83,-361
2,5253516,-3495,366,-2624,-168,-239,-77,146,80,-360
2,5253531,-3494,364,-2633,-163,-247,-82,146,80,-360
2,5253545,-3494,364,-2633,-163,-247,-82,146,80,-360
2,5253559,-3493,361,-2635,-165,-241,-86,146,80,-360
2,5253573,-3495,360,-2632,-163,-245,-88,146,80,-360
2,5253588,-3495,360,-2632,-163,-245,-88,146,80,-360
2,5253601,-3489,362,-2631,-159,-237,-93,146,80,-360
2,5253615,-3491,364,-2634,-161,-245,-90,146,80,-360
2,5253628,-3491,364,-2634,-161,-245,-90,146,80,-360
2,5253641,-3491,364,-2631,-168,-253,-87,138,86,-356
2,5253654,-3490,366,-2628,-164,-236,-91,138,86,-356
2,5253667,-3490,366,-2628,-164,-236,-91,138,86,-356
2,5253681,-3496,366,-2629,-158,-244,-85,138,86,-356
2,5253695,-3494,366,-2629,-161,-244,-91,138,86,-356
2,5253709,-3492,364,-2629,-164,-237,-87,138,86,-356
2,5253722,-3492,364,-2629,-164,-237,-87,138,86,-356
2,5253735,-3495,360,-2634,-156,-242,-82,138,86,-356
2,5253750,-3495,363,-2626,-159,-241,-87,138,84,-352
2,5253765,-3495,363,-2626,-159,-241,-87,138,84,-352
2,5253778,-3494,364,-2628,-165,-243,-93,138,84,-352
2,5253791,-3494,363,-2628,-173,-242,-81,138,84,-352
2,5253806,-3494,363,-2628,-173,-242,-81,138,84,-352
2,5253820,-3494,362,-2627,-172,-240,-83,138,84,-352
2,5253834,-3492,364,-2630,-163,-236,-85,138,84,-352
2,5253848,-3492,364,-2630,-163,-236,-85,138,84,-352
2,5253861,-3496,367,-2630,-167,-239,-91,138,84,-352
2,5253873,-3494,363,-2628,-168,-238,-87,138,84,-352
2,5253888,-3494,363,-2628,-168,-238,-87,138,84,-352
2,5253901,-3494,362,-2629,-166,-234,-84,134,76,-358
2,5253915,-3496,363,-2626,-164,-240,-76,134,76,-358
2,5253928,-3496,363,-2626,-164,-240,-76,134,76,-358
2,5253943,-3492,364,-2629,-166,-243,-84,134,76,-358
2,5253955,-3494,361,-2634,-165,-244,-85,134,76,-358
2,5253968,-3494,362,-2631,-167,-251,-88,134,76,-358
2,5253984,-3494,362,-2631,-167,-251,-88,134,76,-358
2,5254000,-3493,360,-2631,-166,-246,-84,134,76,-358
2,5254014,-3497,363,-2629,-163,-246,-92,145,85,-361
2,5254028,-3497,363,-2629,-163,-246,-92,145,85,-361
2,5254042,-3496,366,-2632,-171,-236,-82,145,85,-361
2,5254056,-3496,365,-2631,-165,-238,-93,145,85,-361
2,5254070,-3497,362,-2630,-159,-244,-86,145,85,-361
2,5254083,-3497,362,-2630,-159,-244,-86,145,85,-361
2,5254097,-3498,364,-2630,-164,-241,-84,145,85,-361
2,5254112,-3494,360,-2632,-165,-245,-94,145,85,-361
2,5254125,-3494,360,-2632,-165,-245,-94,145,85,-361
2,5254137,-3495,363,-2628,-170,-242,-93,141,81,-365
2,5254151,-3494,363,-2628,-167,-241,-86,141,81,-365
2,5254162,-3494,363,-2628,-167,-241,-86,141,81,-365
2,5254176,-3493,364,-2626,-157,-234,-82,141,81,-365
2,5254189,-3493,364,-2626,-157,-234,-82,141,81,-365
2,5254203,-3493,361,-2632,-156,-238,-86,141,81,-365
2,5254218,-3493,363,-2632,-165,-249,-81,141,81,-365
2,5254234,-3492,362,-2635,-160,-248,-84,141,81,-365
2,5254249,-3492,362,-2635,-160,-248,-84,141,81,-365
2,5254261,-3496,361,-2628,-162,-245,-91,138,84,-358
2,5254276,-3497,362,-2630,-165,-238,-84,138,84,-358
2,5254291,-3497,363,-2632,-163,-228,-85,138,84,-358
2,5254306,-3497,363,-2632,-163,-228,-85,138,84,-358
2,5254321,-3495,361,-2628,-173,-231,-85,138,84,-358
2,5254334,-3495,359,-2636,-167,-234,-89,138,84,-358
2,5254347,-3495,359,-2636,-167,-234,-89,138,84,-358
2,5254361,-3494,360,-2629,-168,-243,-88,138,84,-358
2,5254373,-3492,364,-2630,-162,-241,-87,138,86,-354
2,5254387,-3492,364,-2630,-162,-241,-87,138,86,-354
2,5254401,-3494,362,-2628,-167,-239,-93,138,86,-354
2,5254414,-3494,361,-2629,-163,-240,-89,138,86,-354
2,5254429,-3494,361,-2629,-163,-240,-89,138,86,-354
2,5254444,-3495,363,-2629,-157,-238,-84,138,86,-354
2,5254456,-3499,359,-2630,-166,-234,-87,138,86,-354
2,5254471,-3496,362,-2629,-165,-240,-85,138,86,-354
2,5254487,-3496,362,-2629,-165,-240,-85,138,86,-354
2,5254501,-3495,360,-2630,-165,-240,-86,138,86,-354
2,5254514,-3492,361,-2626,-168,-241,-87,144,80,-358
2,5254526,-3492,361,-2626,-168,-241,-87,144,80,-358
2,5254540,-3496,360,-2636,-165,-240,-89,144,80,-358
2,5254553,-3494,362,-2631,-162,-237,-92,144,80,-358
2,5254566,-3494,362,-2631,-162,-237,-92,144,80,-358
2,5254582,-3495,359,-2632,-166,-239,-85,144,80,-358
2,5254594,-3493,359,-2629,-162,-240,-87,144,80,-358
2,5254604,-3493,359,-2629,-162,-240,-87,144,80,-358
2,5254619,-3493,362,-2631,-167,-242,-85,144,80,-358
2,5254632,-3492,364,-2626,-165,-239,-87,135,83,-361
2,5254646,-3492,364,-2626,-165,-239,-87,135,83,-361
2,5254658,-3496,361,-2623,-163,-242,-84,135,83,-361
2,5254672,-3492,360,-2627,-161,-239,-83,135,83,-361
2,5254687,-3492,360,-2627,-161,-239,-83,135,83,-361
2,5254704,-3495,360,-2630,-164,-238,-83,135,83,-361
2,5254718,-3494,362,-2635,-171,-244,-82,135,83,-361
2,5254730,-3495,362,-2636,-171,-238,-88,135,83,-361
2,5254743,-3495,362,-2636,-171,-238,-88,135,83,-361
2,5254757,-3493,362,-2631,-165,-239,-84,136,80,-358
2,5254770,-3497,363,-2631,-158,-240,-82,136,80,-358
2,5254784,-3497,363,-2631,-158,-240,-82,136,80,-358
2,5254797,-3496,359,-2631,-163,-248,-82,136,80,-358
2,5254809,-3496,364,-2625,-160,-242,-85,136,80,-358
2,5254821,-3496,364,-2625,-160,-242,-85,136,80,-358
2,5254836,-3495,363,-2634,-163,-245,-90,136,80,-358
2,5254849,-3495,363,-2634,-163,-245,-90,136,80,-358
2,5254864,-3497,359,-2633,-159,-237,-79,136,80,-358
2,5254879,-3495,360,-2622,-162,-245,-89,139,89,-355
2,5254891,-3494,361,-2629,-163,-235,-87,139,89,-355
2,5254905,-3494,361,-2629,-163,-235,-87,139,89,-355
2,5254921,-3494,361,-2626,-158,-236,-85,139,89,-355
2,5254937,-3495,362,-2632,-155,-244,-82,139,89,-355
2,5254950,-3497,363,-2627,-160,-239,-84,139,89,-355
2,5254963,-3497,363,-2627,-160,-239,-84,139,89,-355
2,5254977,-3493,363,-2633,-161,-240,-92,139,89,-355
2,5254990,-3495,359,-2625,-166,-239,-89,135,83,-371
2,5255004,-3495,359,-2625,-166,-239,-89,135,83,-371
2,5255017,-3497,363,-2627,-163,-238,-90,135,83,-371
2,5255032,-3497,358,-2629,-163,-233,-81,135,83,-371
2,5255044,-3497,358,-2629,-163,-233,-81,135,83,-371
2,5255057,-3496,363,-2636,-165,-239,-81,135,83,-371
2,5255070,-3495,357,-2637,-168,-249,-84,135,83,-371
2,5255085,-3495,357,-2637,-168,-249,-84,135,83,-371
2,5255100,-3498,358,-2632,-167,-239,-82,135,83,-371
2,5255113,-3494,359,-2631,-169,-238,-95,135,83,-371
2,5255127,-3494,359,-2631,-169,-238,-95,135,83,-371
2,5255141,-3494,361,-2630,-164,-242,-96,132,86,-354
2,5255151,-3493,359,-2628,-169,-227,-91,132,86,-354
2,5255164,-3493,359,-2628,-169,-227,-91,132,86,-354
2,5255179,-3495,358,-2633,-166,-237,-88,132,86,-354
2,5255192,-3493,363,-2630,-167,-241,-85,132,86,-354
2,5255206,-3493,363,-2630,-167,-241,-85,132,86,-354
2,5255221,-3495,360,-2632,-159,-240,-77,132,86,-354
2,5255234,-3494,359,-2630,-163,-240,-83,132,86,-354
2,5255247,-3494,359,-2630,-163,-240,-83,132,86,-354
2,5255261,-3493,358,-2631,-163,-239,-89,139,83,-365
2,5255274,-3496,358,-2631,-163,-244,-84,139,83,-365
2,5255288,-3496,358,-2631,-163,-244,-84,139,83,-365
2,5255303,-3496,358,-2629,-166,-244,-81,139,83,-365
2,5255317,-3496,361,-2630,-171,-243,-83,139,83,-365
2,5255331,-3495,363,-2628,-173,-238,-83,139,83,-365
2,5255344,-3495,363,-2628,-173,-238,-83,139,83,-365
2,5255359,-3495,360,-2633,-165,-252,-82,139,83,-365
2,5255373,-3496,357,-2629,-163,-243,-89,140,88,-364
2,5255388,-3496,357,-2629,-163,-243,-89,140,88,-364
2,5255400,-3498,358,-2632,-162,-239,-85,140,88,-364
2,5255414,-3496,360,-2632,-169,-242,-84,140,88,-364
2,5255428,-3496,360,-2632,-169,-242,-84,140,88,-364
2,5255442,-3494,357,-2634,-166,-238,-90,140,88,-364
2,5255455,-3492,358,-2633,-165,-240,-88,140,88,-364
2,5255468,-3492,358,-2633,-165,-240,-88,140,88,-364
2,5255482,-3494,358,-2630,-162,-238,-81,140,88,-364
2,5255495,-3495,360,-2623,-167,-240,-86,138,86,-364
2,5255508,-3495,360,-2623,-167,-240,-86,138,86,-364
2,5255520,-3495,360,-2634,-157,-240,-82,138,86,-364
2,5255534,-3490,361,-2631,-162,-233,-86,138,86,-364
2,5255546,-3490,361,-2631,-162,-233,-86,138,86,-364
2,5255561,-3494,359,-2634,-161,-233,-84,138,86,-364
2,5255575,-3494,360,-2630,-165,-234,-86,138,86,-364
2,5255590,-3494,360,-2630,-165,-234,-86,138,86,-364
2,5255604,-3494,361,-2635,-169,-235,-88,138,86,-364
2,5255618,-3494,359,-2634,-164,-232,-87,135,91,-355
2,5255633,-3496,356,-2632,-164,-228,-88,135,91,-355
2,5255648,-3496,356,-2632,-164,-228,-88,135,91,-355
2,5255662,-3495,361,-2634,-164,-234,-89,135,91,-355
2,5255675,-3496,362,-2632,-159,-238,-85,135,91,-355
2,5255690,-3496,362,-2632,-159,-238,-85,135,91,-355
2,5255702,-3494,361,-2632,-165,-236,-85,135,91,-355
2,5255715,-3494,363,-2633,-159,-236,-87,135,91,-355
2,5255729,-3494,363,-2633,-159,-236,-87,135,91,-355
2,5255743,-3493,362,-2631,-162,-239,-90,140,80,-356
2,5255756,-3493,364,-2628,-162,-236,-90,140,80,-356
2,5255771,-3493,364,-2628,-162,-236,-90,140,80,-356
2,5255781,-3493,361,-2632,-160,-233,-87,140,80,-356
2,5255795,-3498,360,-2629,-164,-243,-88,140,80,-356
2,5255811,-3494,365,-2630,-165,-240,-85,140,80,-356
2,5255827,-3494,365,-2630,-165,-240,-85,140,80,-356
2,5255841,-3492,358,-2640,-160,-233,-83,140,80,-356
2,5255855,-3494,361,-2631,-170,-241,-87,140,80,-356
2,5255868,-3494,361,-2631,-170,-241,-87,140,80,-356
2,5255882,-3493,362,-2629,-167,-235,-85,134,80,-352
2,5255896,-3495,358,-2630,-160,-243,-82,134,80,-352
2,5255910,-3495,358,-2630,-160,-243,-82,134,80,-352
2,5255923,-3494,359,-2630,-168,-244,-85,134,80,-352
2,5255938,-3493,361,-2631,-173,-234,-86,134,80,-352
2,5255950,-3493,361,-2631,-173,-234,-86,134,80,-352
2,5255963,-3492,359,-2632,-167,-236,-80,134,80,-352
2,5255976,-3496,360,-2631,-164,-243,-82,134,80,-352
2,5255990,-3496,360,-2631,-164,-243,-82,134,80,-352
2,5256004,-3494,359,-2631,-168,-246,-84,139,87,-355
2,5256016,-3492,357,-2629,-160,-234,-80,139,87,-355
2,5256030,-3492,357,-2629,-160,-234,-80,139,87,-355
2,5256045,-3497,357,-2635,-167,-240,-87,139,87,-355
2,5256057,-3496,357,-2632,-164,-237,-93,139,87,-355
2,5256070,-3496,357,-2632,-164,-237,-93,139,87,-355
2,5256083,-3493,357,-2634,-166,-235,-93,139,87,-355
2,5256097,-3492,362,-2637,-162,-243,-82,139,87,-355
2,5256111,-3492,362,-2637,-162,-243,-82,139,87,-355
2,5256125,-3496,362,-2627,-166,-241,-82,137,87,-367
2,5256139,-3493,362,-2630,-163,-241,-86,137,87,-367
2,5256153,-3494,360,-2633,-160,-237,-86,137,87,-367
2,5256164,-3494,360,-2633,-160,-237,-86,137,87,-367
2,5256177,-3496,359,-2630,-167,-236,-78,137,87,-367
2,5256192,-3494,360,-2626,-166,-241,-90,137,87,-367
2,5256206,-3494,360,-2626,-166,-241,-90,137,87,-367
2,5256220,-3495,359,-2631,-161,-238,-93,137,87,-367
2,5256233,-3494,361,-2631,-163,-241,-85,135,89,-359
2,5256248,-3494,361,-2631,-163,-241,-85,135,89,-359
2,5256262,-3495,359,-2627,-165,-235,-88,135,89,-359
2,5256271,-3495,360,-2639,-170,-241,-87,135,89,-359
2,5256285,-3495,360,-2639,-170,-241,-87,135,89,-359
2,5256298,-3497,362,-2635,-164,-237,-85,135,89,-359
2,5256312,-3497,363,-2634,-167,-241,-83,135,89,-359
2,5256327,-3497,363,-2634,-167,-241,-83,135,89,-359
2,5256338,-3494,363,-2634,-174,-240,-91,135,89,-359
2,5256351,-3493,362,-2629,-169,-238,-90,134,88,-359
2,5256365,-3493,362,-2629,-169,-238,-90,134,88,-358
2,5256378,-3496,360,-2631,-167,-240,-87,134,88,-358
2,5256392,-3494,358,-2632,-169,-242,-90,134,88,-358
2,5256407,-3494,358,-2632,-169,-242,-90,134,88,-358
2,5256419,-3494,357,-2633,-163,-236,-86,134,88,-358
2,5256432,-3493,360,-2632,-163,-244,-83,134,88,-358
2,5256448,-3493,360,-2632,-163,-244,-83,134,88,-358
2,5256460,-3493,361,-2638,-169,-247,-83,134,88,-358
2,5256472,-3491,362,-2637,-164,-241,-96,134,88,-358
2,5256488,-3491,362,-2637,-164,-241,-96,134,88,-358
2,5256504,-3496,360,-2627,-161,-241,-90,139,79,-359
2,5256518,-3495,360,-2625,-161,-239,-86,139,79,-359
2,5256532,-3495,360,-2631,-167,-232,-83,139,79,-359
2,5256546,-3495,360,-2631,-167,-232,-83,139,79,-359
2,5256559,-3493,362,-2633,-165,-235,-85,139,79,-359
2,5256574,-3495,358,-2635,-160,-234,-88,139,79,-359
2,5256586,-3495,358,-2635,-160,-234,-88,139,79,-359
2,5256599,-3496,359,-2638,-167,-242,-90,139,79,-359
2,5256612,-3497,361,-2633,-167,-244,-90,136,92,-352
2,5256627,-3497,361,-2633,-167,-244,-90,136,92,-352
2,5256641,-3496,361,-2632,-159,-246,-90,136,92,-352
2,5256656,-3493,362,-2633,-161,-249,-81,136,92,-352
2,5256671,-3493,362,-2633,-161,-249,-81,136,92,-352
2,5256685,-3495,359,-2633,-161,-238,-82,136,92,-352
2,5256699,-3495,356,-2632,-158,-238,-89,136,92,-352
2,5256715,-3496,362,-2634,-162,-239,-88,136,92,-352
2,5256730,-3496,362,-2634,-162,-239,-88,136,92,-352
2,5256744,-3494,360,-2630,-161,-239,-85,138,84,-360
2,5256757,-3495,356,-2629,-169,-233,-82,138,84,-360
2,5256771,-3495,356,-2629,-169,-233,-82,138,84,-360
2,5256784,-3497,358,-2632,-168,-242,-81,138,84,-360
2,5256798,-3493,358,-2629,-159,-246,-78,138,84,-360
2,5256811,-3493,360,-2637,-165,-245,-84,138,84,-360
2,5256825,-3493,360,-2637,-165,-245,-84,138,84,-360
2,5256839,-3496,361,-2638,-169,-240,-78,138,84,-360
2,5256851,-3493,360,-2628,-171,-245,-84,138,84,-360
2,5256864,-3493,360,-2628,-171,-245,-84,136,84,-362
2,5256880,-3492,359,-2623,-159,-246,-81,136,84,-362
2,5256893,-3494,359,-2629,-163,-240,-83,136,84,-362
2,5256907,-3494,359,-2629,-163,-240,-83,136,84,-362
2,5256920,-3494,359,-2634,-156,-241,-87,136,84,-362
2,5256934,-3495,356,-2632,-162,-246,-83,136,84,-362
2,5256948,-3495,356,-2632,-162,-246,-83,136,84,-362
2,5256962,-3497,358,-2630,-170,-243,-84,136,84,-362
2,5256974,-3496,358,-2635,-167,-238,-79,141,87,-361
2,5256987,-3496,358,-2635,-167,-238,-79,141,87,-361
2,5257000,-3492,359,-2630,-167,-237,-86,141,87,-361
2,5257014,-3495,360,-2631,-163,-234,-79,141,87,-361
2,5257028,-3495,360,-2631,-163,-234,-79,141,87,-361
2,5257043,-3496,361,-2638,-165,-231,-85,141,87,-361
2,5257054,-3494,359,-2635,-160,-239,-81,141,87,-361
2,5257068,-3494,359,-2635,-160,-239,-81,141,87,-361
2,5257081,-3493,359,-2633,-159,-245,-80,141,87,-361
2,5257096,-3491,354,-2636,-168,-238,-86,141,87,-361
2,5257110,-3491,354,-2636,-168,-238,-86,141,87,-361
2,5257125,-3495,359,-2635,-165,-235,-83,136,86,-360
2,5257141,-3496,359,-2629,-163,-243,-81,136,86,-360
2,5257156,-3497,361,-2632,-164,-240,-83,136,86,-360
2,5257169,-3497,361,-2632,-164,-240,-83,136,86,-360
2,5257183,-3495,358,-2634,-167,-239,-85,136,86,-360
2,5257200,-3495,361,-2638,-169,-243,-88,136,86,-360
2,5257214,-3495,357,-2633,-163,-241,-87,136,86,-360
2,5257226,-3495,357,-2633,-163,-241,-87,136,86,-360
2,5257238,-3493,359,-2630,-169,-236,-90,142,86,-356
2,5257252,-3495,360,-2633,-165,-242,-83,142,86,-356
2,5257266,-3495,360,-2633,-165,-242,-83,142,86,-356
2,5257280,-3496,356,-2631,-165,-233,-86,142,86,-356
2,5257291,-3496,356,-2631,-165,-233,-86,142,86,-356
2,5257304,-3490,356,-2630,-163,-233,-89,142,86,-356
2,5257318,-3497,358,-2638,-165,-238,-96,142,86,-356
2,5257329,-3497,358,-2638,-165,-238,-96,142,86,-356
2,5257345,-3493,358,-2636,-168,-244,-91,142,86,-356
2,5257359,-3494,362,-2627,-167,-244,-83,139,81,-357
2,5257370,-3494,362,-2627,-167,-244,-83,139,81,-357
2,5257385,-3494,362,-2635,-162,-242,-84,139,81,-357
2,5257401,-3493,359,-2637,-160,-240,-87,139,81,-357
2,5257413,-3494,358,-2634,-165,-238,-84,139,81,-357
2,5257426,-3494,358,-2634,-165,-238,-84,139,81,-357
2,5257440,-3493,361,-2631,-167,-233,-81,139,81,-357
2,5257454,-3494,362,-2635,-164,-238,-78,139,81,-357
2,5257467,-3494,362,-2635,-164,-238,-78,139,81,-357
2,5257482,-3494,358,-2630,-158,-244,-85,138,80,-356
2,5257495,-3496,355,-2630,-162,-247,-82,138,80,-356
2,5257507,-3496,355,-2630,-162,-247,-82,138,80,-356
2,5257522,-3495,357,-2628,-165,-238,-84,138,80,-356
2,5257534,-3496,359,-2631,-167,-235,-88,138,80,-356
2,5257548,-3496,359,-2631,-167,-235,-88,138,80,-356
2,5257563,-3493,361,-2637,-170,-236,-88,138,80,-356
2,5257578,-3494,362,-2637,-163,-235,-86,138,80,-356
2,5257592,-3493,359,-2630,-163,-237,-92,138,76,-366
2,5257605,-3493,359,-2630,-163,-237,-92,138,76,-366
2,5257620,-3495,360,-2633,-164,-242,-86,138,76,-366
2,5257635,-3495,360,-2634,-165,-243,-82,138,76,-366
2,5257650,-3495,360,-2634,-165,-243,-82,138,76,-366
2,5257660,-3497,362,-2631,-171,-244,-88,138,76,-366
2,5257674,-3494,358,-2631,-169,-244,-88,138,76,-366
2,5257689,-3494,358,-2631,-169,-244,-88,138,76,-366
2,5257703,-3493,359,-2636,-165,-244,-84,138,76,-366
2,5257716,-3497,361,-2636,-168,-238,-77,138,76,-366
2,5257731,-3497,361,-2636,-168,-238,-77,138,76,-366
2,5257743,-3495,358,-2632,-167,-233,-76,137,77,-363
2,5257757,-3494,358,-2630,-168,-235,-88,137,77,-363
2,5257771,-3494,358,-2630,-168,-235,-88,137,77,-363
2,5257784,-3493,360,-2634,-168,-242,-81,137,77,-363
2,5257798,-3491,361,-2629,-157,-236,-76,137,77,-363
2,5257812,-3491,361,-2629,-157,-236,-76,137,77,-363
2,5257824,-3495,360,-2635,-171,-237,-81,137,77,-363
2,5257838,-3496,361,-2630,-171,-244,-77,137,77,-363
2,5257853,-3492,360,-2626,-161,-241,-86,130,86,-352
2,5257868,-3492,360,-2626,-161,-241,-86,130,86,-352
2,5257880,-3494,360,-2630,-167,-241,-84,130,86,-352
2,5257894,-3493,359,-2631,-164,-241,-92,130,86,-352
2,5257907,-3493,359,-2631,-164,-241,-92,130,86,-352
2,5257921,-3494,359,-2635,-162,-231,-90,130,86,-352
2,5257934,-3495,356,-2633,-158,-230,-92,130,86,-352
2,5257947,-3495,356,-2633,-158,-230,-92,130,86,-352
2,5257960,-3495,358,-2632,-162,-239,-81,130,86,-352
2,5257973,-3492,360,-2627,-162,-236,-96,134,88,-358
2,5257988,-3492,360,-2627,-162,-236,-96,134,88,-358
2,5258001,-3491,364,-2630,-160,-239,-90,134,88,-358
2,5258015,-3493,364,-2631,-169,-245,-88,134,88,-358
2,5258024,-3493,364,-2631,-169,-245,-88,134,88,-358
2,5258040,-3491,360,-2630,-164,-242,-79,134,88,-358
2,5258053,-3494,358,-2636,-163,-236,-79,134,88,-358
2,5258066,-3494,358,-2636,-163,-236,-79,134,88,-358
2,5258082,-3494,362,-2634,-162,-238,-79,134,88,-358
2,5258097,-3493,357,-2629,-158,-232,-86,144,90,-360
2,5258112,-3493,357,-2629,-158,-232,-86,144,90,-360
2,5258127,-3493,358,-2626,-159,-230,-83,144,90,-360
2,5258140,-3494,357,-2640,-165,-244,-82,144,90,-360
2,5258153,-3496,362,-2637,-167,-232,-89,144,90,-360
2,5258168,-3496,362,-2637,-167,-232,-89,144,90,-360
2,5258180,-3492,362,-2634,-169,-242,-91,144,90,-360
2,5258193,-3493,357,-2636,-164,-247,-83,144,90,-360
2,5258208,-3493,357,-2636,-164,-247,-83,144,90,-360
2,5258221,-3492,361,-2631,-167,-242,-85,141,87,-361
2,5258234,-3496,360,-2631,-165,-245,-86,141,87,-361
2,5258247,-3496,360,-2631,-165,-245,-86,141,87,-361
2,5258259,-3493,363,-2635,-163,-237,-91,141,87,-361
2,5258273,-3497,361,-2639,-162,-240,-79,141,87,-361
2,5258288,-3497,361,-2639,-162,-240,-79,141,87,-361
2,5258301,-3496,357,-2633,-161,-240,-81,141,87,-361
2,5258313,-3493,361,-2632,-157,-240,-81,141,87,-361
2,5258326,-3493,361,-2632,-157,-240,-81,141,87,-361
2,5258341,-3495,361,-2629,-161,-244,-78,141,87,-361
2,5258356,-3497,364,-2631,-159,-248,-82,140,84,-366
2,5258371,-3497,364,-2631,-159,-248,-82,140,84,-366
2,5258382,-3490,362,-2631,-159,-236,-83,140,84,-366
2,5258394,-3492,362,-2633,-164,-226,-82,140,84,-366
2,5258408,-3492,362,-2633,-164,-226,-82,140,84,-366
2,5258422,-3495,359,-2633,-166,-241,-89,140,84,-366
2,5258436,-3494,361,-2632,-162,-238,-86,140,84,-366
2,5258444,-3494,361,-2632,-162,-238,-86,140,84,-366
2,5258459,-3494,363,-2637,-165,-233,-82,140,84,-366
2,5258472,-3494,363,-2637,-165,-233,-82,140,84,-366
2,5258486,-3496,362,-2625,-162,-247,-87,141,79,-363
2,5258501,-3492,364,-2631,-164,-241,-85,141,79,-363
2,5258515,-3492,361,-2630,-164,-233,-84,141,79,-363
2,5258527,-3492,361,-2630,-164,-233,-84,141,79,-363
2,5258543,-3494,361,-2635,-160,-248,-82,141,79,-363
2,5258557,-3493,365,-2634,-156,-244,-90,141,79,-363
2,5258571,-3493,365,-2634,-156,-244,-90,141,79,-363
2,5258584,-3493,360,-2634,-162,-238,-94,141,79,-363
2,5258599,-3493,360,-2624,-162,-246,-78,145,85,-359
2,5258614,-3493,359,-2632,-164,-248,-87,145,85,-359
2,5258629,-3493,359,-2632,-164,-248,-87,145,85,-359
2,5258642,-3494,357,-2633,-174,-249,-90,145,85,-359
2,5258655,-3496,360,-2629,-168,-245,-85,145,85,-359
2,5258667,-3496,360,-2629,-168,-245,-85,145,85,-359
2,5258679,-3494,357,-2628,-166,-238,-87,145,85,-359
2,5258693,-3493,356,-2637,-158,-240,-88,145,85,-359
2,5258706,-3493,356,-2637,-158,-240,-88,145,85,-359
2,5258721,-3495,361,-2627,-163,-242,-88,143,87,-357
2,5258734,-3497,363,-2631,-165,-241,-78,143,87,-357
2,5258745,-3497,363,-2631,-165,-241,-78,143,87,-357
2,5258760,-3494,364,-2630,-168,-240,-83,143,87,-357
2,5258769,-3494,364,-2630,-168,-240,-83,143,87,-357
2,5258782,-3498,360,-2632,-160,-243,-87,143,87,-357
2,5258796,-3498,360,-2632,-160,-243,-87,143,87,-357
2,5258804,-3498,360,-2632,-160,-243,-87,143,87,-357
2,5258819,-3494,361,-2631,-171,-237,-87,143,87,-357
2,5258834,-3494,358,-2635,-168,-237,-84,134,90,-358
2,5258850,-3494,358,-2635,-168,-237,-84,134,90,-358
2,5258865,-3496,360,-2623,-161,-238,-85,134,90,-358
2,5258878,-3495,361,-2629,-158,-238,-85,134,90,-358
2,5258892,-3495,361,-2629,-158,-238,-85,134,90,-358
2,5258904,-3492,360,-2635,-159,-237,-89,134,90,-358
2,5258916,-3491,361,-2638,-160,-242,-94,134,90,-358
2,5258930,-3491,361,-2638,-160,-242,-94,134,90,-358
2,5258944,-3492,364,-2632,-164,-239,-89,134,90,-358
2,5258957,-3495,366,-2630,-164,-241,-85,134,90,-358
2,5258971,-3495,366,-2630,-164,-241,-85,134,90,-358
2,5258982,-3495,362,-2626,-163,-241,-85,136,84,-356
2,5258996,-3496,358,-2634,-164,-249,-86,136,84,-356
2,5259010,-3496,358,-2634,-164,-249,-86,136,84,-356
2,5259027,-3496,361,-2632,-166,-245,-89,136,84,-356
2,5259037,-3496,361,-2632,-166,-245,-89,136,84,-356
2,5259051,-3496,361,-2632,-166,-245,-89,136,84,-356
2,5259064,-3492,359,-2634,-165,-236,-86,136,84,-356
2,5259078,-3494,358,-2639,-165,-246,-89,136,84,-356
2,5259091,-3494,358,-2639,-165,-246,-89,136,84,-356
2,5259106,-3496,361,-2632,-161,-253,-85,135,85,-365
2,5259118,-3489,363,-2628,-167,-242,-81,135,85,-365
2,5259133,-3495,362,-2628,-163,-238,-88,135,85,-365
2,5259149,-3495,362,-2628,-163,-238,-88,135,85,-365
2,5259162,-3493,363,-2633,-162,-238,-84,135,85,-365
2,5259177,-3493,360,-2634,-163,-236,-91,135,85,-365
2,5259190,-3493,360,-2634,-163,-236,-91,135,85,-365
2,5259205,-3497,360,-2632,-161,-239,-88,135,85,-365
2,5259219,-3496,358,-2627,-164,-240,-84,142,78,-358
2,5259233,-3496,358,-2627,-164,-240,-84,142,78,-358
2,5259247,-3495,358,-2630,-168,-233,-80,142,78,-358
2,5259261,-3493,358,-2631,-167,-241,-76,142,78,-358
2,5259274,-3494,363,-2635,-162,-239,-88,142,78,-358
2,5259285,-3494,363,-2635,-162,-239,-88,142,78,-358
2,5259299,-3495,360,-2629,-163,-240,-83,142,78,-358
2,5259314,-3495,360,-2629,-163,-240,-83,142,78,-358
2,5259327,-3491,360,-2629,-164,-239,-89,142,78,-358
2,5259341,-3494,364,-2621,-173,-236,-84,139,79,-361
2,5259354,-3494,364,-2621,-173,-236,-84,139,79,-361
2,5259364,-3495,363,-2625,-163,-236,-83,139,79,-361
2,5259377,-3493,363,-2631,-164,-230,-86,139,79,-361
2,5259392,-3493,363,-2631,-164,-230,-86,139,79,-361
2,5259406,-3494,358,-2629,-165,-239,-86,139,79,-361
2,5259419,-3496,359,-2629,-161,-247,-86,139,79,-361
2,5259431,-3496,359,-2629,-161,-247,-86,139,79,-361
2,5259447,-3495,365,-2631,-167,-244,-83,139,79,-361
2,5259463,-3491,364,-2632,-161,-238,-85,133,81,-359
2,5259479,-3492,360,-2635,-162,-240,-83,133,81,-359
2,5259493,-3492,360,-2635,-162,-240,-83,133,81,-359
2,5259505,-3493,364,-2633,-171,-241,-85,133,81,-359
2,5259518,-3492,363,-2634,-162,-236,-89,133,81,-359
2,5259532,-3492,363,-2634,-162,-236,-89,133,81,-359
2,5259544,-3493,361,-2634,-156,-241,-91,133,81,-359
2,5259558,-3495,364,-2627,-161,-240,-86,133,81,-359
2,5259573,-3495,364,-2627,-161,-240,-86,133,81,-359
2,5259586,-3493,362,-2634,-155,-236,-86,133,81,-359
2,5259599,-3491,364,-2627,-158,-244,-89,133,81,-359
2,5259615,-3493,363,-2630,-161,-246,-84,133,81,-359
2,5259629,-3493,363,-2630,-161,-246,-84,133,81,-359
2,5259643,-3494,361,-2630,-158,-239,-82,133,81,-359
2,5259657,-3496,363,-2637,-161,-241,-82,133,81,-359
2,5259671,-3496,363,-2637,-161,-241,-82,133,81,-359
2,5259686,-3494,365,-2635,-162,-240,-87,133,81,-359
2,5259701,-3493,363,-2634,-163,-236,-86,133,81,-359
2,5259716,-3494,361,-2625,-160,-237,-93,133,83,-365
2,5259729,-3494,361,-2625,-160,-237,-93,133,83,-365
2,5259743,-3495,361,-2628,-162,-233,-90,133,83,-365
2,5259758,-3494,363,-2631,-162,-244,-77,133,83,-365
2,5259770,-3494,363,-2631,-162,-244,-77,133,83,-365
2,5259784,-3493,360,-2628,-165,-243,-84,133,83,-365
2,5259799,-3495,359,-2628,-159,-241,-88,133,83,-365
2,5259814,-3494,357,-2628,-166,-240,-81,133,83,-365
2,5259830,-3494,357,-2628,-166,-240,-81,133,83,-365
2,5259844,-3495,360,-2630,-165,-247,-79,144,86,-364
2,5259856,-3492,361,-2630,-167,-249,-86,144,86,-364
2,5259870,-3492,361,-2630,-167,-249,-86,144,86,-364
2,5259883,-3497,363,-2629,-170,-253,-83,144,86,-364
2,5259896,-3497,364,-2633,-172,-240,-82,144,86,-364
2,5259911,-3497,364,-2633,-172,-240,-82,144,86,-364
2,5259922,-3495,364,-2629,-164,-245,-81,144,86,-364
2,5259932,-3495,364,-2629,-164,-245,-81,144,86,-364
2,5259947,-3494,363,-2628,-166,-247,-89,144,86,-364
2,5259960,-3493,361,-2628,-166,-247,-88,140,80,-360
2,5259972,-3493,361,-2628,-166,-247,-88,140,80,-360
2,5259984,-3496,358,-2635,-166,-230,-81,140,80,-360
2,5260000,-3495,364,-2628,-159,-244,-86,140,80,-360
2,5260015,-3493,363,-2635,-163,-248,-89,140,80,-360
2,5260032,-3493,363,-2635,-163,-248,-89,140,80,-360
2,5260045,-3493,365,-2634,-164,-236,-84,140,80,-360
2,5260058,-3495,364,-2634,-163,-236,-87,140,80,-360
2,5260073,-3495,364,-2634,-163,-236,-87,140,80,-360
2,5260089,-3499,364,-2626,-158,-242,-84,140,94,-366
2,5260102,-3496,365,-2630,-165,-238,-91,140,94,-366
2,5260115,-3495,361,-2632,-159,-240,-86,140,94,-366
2,5260130,-3495,361,-2632,-159,-240,-86,140,94,-366
2,5260145,-3495,365,-2632,-168,-240,-84,140,94,-366
2,5260156,-3495,360,-2630,-172,-238,-79,140,94,-366
2,5260169,-3495,360,-2630,-172,-238,-79,140,94,-366
2,5260183,-3495,361,-2633,-166,-242,-76,140,94,-366
2,5260196,-3494,358,-2634,-160,-246,-82,143,81,-357
2,5260211,-3494,358,-2634,-160,-246,-82,143,81,-357
2,5260226,-3494,364,-2626,-166,-240,-81,143,81,-357
2,5260240,-3492,364,-2628,-164,-239,-79,143,81,-357
2,5260253,-3492,364,-2628,-164,-239,-79,143,81,-357
2,5260268,-3496,365,-2636,-167,-241,-73,143,81,-357
2,5260282,-3493,361,-2634,-169,-238,-81,143,81,-357
2,5260298,-3494,366,-2630,-162,-238,-80,143,81,-357
2,5260311,-3494,366,-2630,-162,-238,-80,143,81,-357
2,5260322,-3496,363,-2633,-163,-238,-84,143,81,-357
2,5260337,-3497,364,-2627,-158,-240,-88,135,81,-357
2,5260350,-3497,364,-2627,-158,-240,-88,135,81,-357
2,5260364,-3494,365,-2634,-165,-246,-83,135,81,-357
2,5260378,-3493,365,-2632,-169,-230,-86,135,81,-357
2,5260390,-3493,365,-2632,-169,-230,-86,135,81,-357
2,5260403,-3493,362,-2628,-159,-237,-87,135,81,-357
2,5260417,-3495,363,-2632,-164,-233,-92,135,81,-357
2,5260425,-3495,363,-2632,-164,-233,-92,135,81,-357
2,5260437,-3494,365,-2631,-166,-239,-83,135,81,-357
2,5260451,-3494,365,-2631,-166,-239,-83,135,81,-357
2,5260465,-3493,363,-2632,-161,-243,-86,138,78,-356
2,5260479,-3495,360,-2631,-161,-241,-90,138,78,-356
2,5260490,-3495,360,-2631,-161,-241,-90,138,78,-356
2,5260504,-3495,362,-2626,-164,-237,-89,138,78,-356
2,5260518,-3492,361,-2627,-162,-230,-78,138,78,-356
2,5260533,-3492,361,-2627,-162,-230,-78,138,78,-356
2,5260548,-3493,362,-2630,-163,-229,-82,138,78,-356
2,5260561,-3493,361,-2633,-165,-238,-92,138,78,-356
2,5260575,-3492,362,-2629,-164,-238,-92,138,90,-362
2,5260591,-3492,362,-2629,-164,-238,-92,138,90,-362
2,5260604,-3493,359,-2632,-162,-231,-84,138,90,-362
2,5260617,-3491,362,-2629,-165,-237,-91,138,90,-362
2,5260632,-3491,362,-2629,-165,-237,-91,138,90,-362
2,5260643,-3495,362,-2633,-163,-236,-90,138,90,-362
2,5260658,-3495,365,-2634,-165,-243,-88,138,90,-362
2,5260672,-3495,365,-2634,-165,-243,-88,138,90,-362
2,5260686,-3493,364,-2633,-158,-239,-87,138,90,-362
2,5260699,-3494,364,-2626,-162,-242,-87,139,87,-357
2,5260713,-3494,364,-2626,-162,-242,-87,139,87,-357
2,5260727,-3495,360,-2624,-156,-237,-85,139,87,-357
2,5260739,-3492,360,-2627,-156,-243,-87,139,87,-357
2,5260752,-3492,360,-2627,-156,-243,-87,139,87,-357
2,5260763,-3490,362,-2631,-165,-247,-89,139,87,-357
2,5260779,-3490,362,-2631,-165,-247,-89,139,87,-357
2,5260793,-3490,362,-2631,-165,-247,-89,139,87,-357
2,5260809,-3495,361,-2632,-159,-241,-84,139,87,-357
2,5260823,-3490,364,-2631,-159,-242,-88,136,84,-362
2,5260836,-3492,361,-2629,-161,-242,-91,136,84,-362
2,5260851,-3492,361,-2629,-161,-242,-91,136,84,-362
2,5260863,-3493,364,-2629,-160,-235,-85,136,84,-362
2,5260875,-3492,367,-2634,-160,-237,-88,136,84,-362
2,5260890,-3492,367,-2634,-160,-237,-88,136,84,-362
2,5260903,-3495,365,-2632,-162,-240,-86,136,84,-362
2,5260916,-3497,361,-2632,-167,-245,-85,136,84,-362
2,5260931,-3497,361,-2632,-167,-245,-85,136,84,-362
2,5260945,-3491,363,-2632,-164,-232,-87,136,84,-362
2,5260956,-3494,367,-2629,-161,-222,-83,138,86,-360
2,5260971,-3494,367,-2629,-161,-222,-83,138,86,-360
2,5260986,-3492,364,-2631,-164,-235,-83,138,86,-360
2,5261001,-3494,363,-2635,-161,-248,-85,138,86,-360
2,5261014,-3494,363,-2635,-161,-248,-85,138,86,-360
2,5261028,-3495,364,-2631,-159,-239,-84,138,86,-360
2,5261036,-3493,363,-2629,-167,-239,-84,138,86,-360
2,5261046,-3493,363,-2629,-167,-239,-84,138,86,-360
2,5261060,-3493,363,-2634,-164,-250,-92,138,86,-360
2,5261073,-3493,363,-2634,-164,-250,-92,138,86,-360
2,5261086,-3493,363,-2628,-171,-249,-91,138,84,-356
2,5261100,-3496,363,-2624,-159,-247,-83,138,84,-356
2,5261114,-3496,363,-2624,-159,-247,-83,138,84,-356
2,5261125,-3495,363,-2629,-160,-241,-85,138,84,-356
2,5261139,-3495,361,-2625,-155,-238,-86,138,84,-356
2,5261153,-3495,361,-2625,-155,-238,-86,138,84,-356
2,5261168,-3492,362,-2631,-161,-236,-89,138,84,-356
2,5261184,-3494,364,-2633,-160,-241,-93,138,84,-356
2,5261199,-3495,361,-2628,-159,-243,-83,139,75,-357
2,5261215,-3495,361,-2628,-159,-243,-83,139,75,-357
2,5261231,-3493,366,-2624,-162,-244,-85,139,75,-357
2,5261245,-3496,363,-2629,-161,-239,-90,139,75,-357
2,5261260,-3493,362,-2625,-156,-235,-86,139,75,-357
2,5261274,-3493,362,-2625,-156,-235,-86,139,75,-357
2,5261287,-3493,362,-2625,-156,-235,-86,139,75,-357
2,5261300,-3496,362,-2629,-158,-244,-83,139,75,-357
2,5261315,-3496,362,-2629,-158,-244,-83,139,75,-357
2,5261329,-3494,360,-2625,-158,-240,-85,144,82,-358
2,5261341,-3490,361,-2629,-163,-229,-87,144,82,-358
2,5261356,-3490,361,-2629,-163,-229,-87,144,82,-358
2,5261369,-3495,363,-2629,-158,-242,-86,144,82,-358
2,5261383,-3495,362,-2634,-156,-238,-91,144,82,-358
2,5261398,-3495,361,-2633,-160,-229,-97,144,82,-358
2,5261410,-3495,361,-2633,-160,-229,-97,144,82,-358
2,5261424,-3492,364,-2636,-160,-238,-88,144,82,-358
2,5261441,-3493,364,-2628,-160,-238,-92,135,89,-361
2,5261456,-3493,364,-2628,-160,-238,-92,135,89,-361
2,5261470,-3494,365,-2623,-170,-242,-79,135,89,-361
2,5261483,-3493,363,-2629,-167,-245,-89,135,89,-361
2,5261496,-3496,362,-2626,-161,-245,-85,135,89,-361
2,5261510,-3496,362,-2626,-161,-245,-85,135,89,-361
2,5261523,-3495,363,-2631,-162,-243,-83,135,89,-361
2,5261537,-3494,364,-2634,-161,-240,-83,135,89,-361
2,5261551,-3494,364,-2634,-161,-240,-83,135,89,-361
2,5261564,-3494,360,-2633,-164,-240,-83,135,89,-361
2,5261577,-3492,365,-2631,-175,-240,-77,134,90,-358
2,5261590,-3492,365,-2631,-175,-240,-77,134,90,-358
2,5261602,-3494,361,-2630,-167,-245,-76,134,90,-358
2,5261618,-3493,363,-2629,-163,-246,-84,134,90,-358
2,5261631,-3493,363,-2629,-163,-246,-84,134,90,-358
2,5261644,-3493,364,-2630,-159,-246,-88,134,90,-358
2,5261659,-3497,365,-2632,-166,-242,-84,134,90,-358
2,5261674,-3497,365,-2632,-166,-242,-84,134,90,-358
2,5261689,-3497,361,-2628,-162,-239,-84,134,90,-358
2,5261703,-3497,361,-2628,-162,-239,-84,136,86,-358
2,5261715,-3497,361,-2628,-162,-239,-84,136,86,-358
2,5261730,-3496,361,-2631,-164,-243,-93,136,86,-358
2,5261744,-3494,362,-2628,-164,-244,-87,136,86,-358
2,5261758,-3495,362,-2634,-169,-240,-83,136,86,-358
2,5261772,-3495,362,-2634,-169,-240,-83,136,86,-358
2,5261786,-3492,365,-2633,-169,-249,-80,136,86,-358
2,5261798,-3496,364,-2626,-166,-246,-84,136,86,-358
2,5261811,-3496,364,-2626,-166,-246,-84,136,86,-358
2,5261825,-3496,363,-2629,-164,-243,-89,135,85,-361
2,5261837,-3495,363,-2631,-162,-240,-84,135,85,-361
2,5261852,-3495,363,-2631,-162,-240,-84,135,85,-361
2,5261865,-3494,362,-2629,-159,-242,-83,135,85,-361
2,5261878,-3493,359,-2629,-160,-238,-80,135,85,-361
2,5261893,-3493,359,-2629,-160,-238,-80,135,85,-361
2,5261908,-3491,362,-2634,-159,-237,-90,135,85,-361
2,5261924,-3492,359,-2636,-162,-240,-87,135,85,-361
2,5261938,-3493,363,-2629,-162,-241,-92,136,86,-362
2,5261950,-3493,363,-2629,-162,-241,-92,136,86,-362
2,5261965,-3494,363,-2629,-160,-239,-85,136,86,-362
2,5261979,-3494,363,-2634,-166,-246,-82,136,86,-362
2,5261992,-3494,363,-2634,-166,-246,-82,136,86,-362
2,5262006,-3495,365,-2628,-167,-241,-88,136,86,-362
2,5262018,-3499,363,-2633,-161,-236,-91,136,86,-362
2,5262032,-3499,363,-2633,-161,-236,-91,136,86,-362
2,5262045,-3497,362,-2630,-163,-235,-93,136,86,-362
2,5262059,-3493,359,-2630,-163,-234,-85,137,87,-351
2,5262072,-3493,359,-2630,-163,-234,-85,137,87,-351
2,5262087,-3493,364,-2624,-167,-243,-89,137,87,-351
2,5262098,-3496,360,-2630,-166,-243,-82,137,87,-351
2,5262112,-3496,360,-2630,-166,-243,-82,137,87,-351
2,5262128,-3492,362,-2630,-164,-232,-86,137,87,-351
2,5262143,-3494,360,-2630,-165,-223,-88,137,87,-351
2,5262158,-3497,360,-2629,-164,-230,-83,137,87,-351
2,5262171,-3497,360,-2629,-164,-230,-83,137,87,-351
2,5262184,-3493,361,-2631,-167,-238,-87,137,87,-351
2,5262199,-3495,367,-2626,-166,-239,-83,139,83,-361
2,5262213,-3495,367,-2626,-166,-239,-83,139,83,-361
2,5262226,-3493,367,-2624,-163,-238,-86,139,83,-361
2,5262240,-3494,362,-2632,-170,-242,-83,139,83,-361
2,5262254,-3494,362,-2632,-170,-242,-83,139,83,-361
2,5262268,-3494,359,-2632,-165,-240,-83,139,83,-361
2,5262280,-3492,355,-2631,-167,-243,-82,139,83,-361
2,5262294,-3492,355,-2631,-167,-243,-82,139,83,-361
2,5262307,-3491,361,-2627,-169,-238,-82,139,83,-361
2,5262321,-3491,362,-2626,-173,-240,-82,144,88,-352
2,5262337,-3494,365,-2632,-165,-238,-86,144,88,-352
2,5262353,-3494,365,-2632,-165,-238,-86,144,88,-352
2,5262368,-3494,363,-2636,-161,-235,-91,144,88,-352
2,5262383,-3496,361,-2637,-159,-239,-84,144,88,-352
2,5262396,-3496,361,-2637,-159,-239,-84,144,88,-352
2,5262410,-3493,365,-2628,-166,-246,-85,144,88,-352
2,5262425,-3494,366,-2631,-165,-238,-80,144,88,-352
2,5262436,-3494,366,-2631,-165,-238,-80,144,88,-352
2,5262449,-3492,361,-2630,-166,-237,-77,138,78,-360
2,5262462,-3494,361,-2627,-170,-233,-80,138,78,-360
2,5262477,-3494,361,-2627,-170,-233,-80,138,78,-360
2,5262490,-3495,360,-2629,-168,-235,-81,138,78,-360
2,5262502,-3494,359,-2639,-172,-245,-86,138,78,-360
2,5262516,-3494,359,-2639,-172,-245,-86,138,78,-360
2,5262530,-3493,364,-2634,-164,-241,-83,138,78,-360
2,5262544,-3495,363,-2635,-170,-242,-84,138,78,-360
2,5262557,-3495,361,-2631,-168,-244,-89,138,78,-360
2,5262572,-3495,361,-2631,-168,-244,-89,136,78,-354
2,5262586,-3496,361,-2630,-161,-248,-88,136,78,-354
2,5262602,-3495,362,-2628,-158,-242,-97,136,78,-354
2,5262615,-3495,362,-2628,-158,-242,-97,136,78,-354
2,5262629,-3493,362,-2635,-164,-241,-92,136,78,-354
2,5262645,-3493,362,-2635,-164,-241,-92,136,78,-354
2,5262659,-3494,360,-2634,-162,-241,-89,136,78,-354
2,5262670,-3494,360,-2634,-162,-241,-89,136,78,-354
2,5262684,-3494,362,-2630,-171,-239,-89,141,79,-359
2,5262697,-3494,362,-2630,-167,-244,-81,141,79,-359
2,5262710,-3494,362,-2630,-167,-244,-81,141,79,-359
2,5262725,-3495,362,-2633,-167,-231,-88,141,79,-359
2,5262739,-3492,366,-2629,-166,-238,-84,141,79,-359
2,5262751,-3492,366,-2629,-166,-238,-84,141,79,-359
2,5262765,-3495,362,-2632,-161,-239,-77,141,79,-359
2,5262779,-3497,362,-2635,-162,-233,-88,141,79,-359
2,5262793,-3497,362,-2635,-162,-233,-88,141,79,-359
2,5262808,-3494,359,-2631,-160,-236,-91,141,79,-359
2,5262823,-3494,363,-2629,-166,-239,-83,133,77,-359
2,5262836,-3494,363,-2629,-166,-239,-83,133,77,-359
2,5262850,-3492,362,-2627,-160,-238,-81,133,77,-359
2,5262864,-3492,361,-2631,-158,-237,-82,133,77,-359
2,5262878,-3494,359,-2635,-159,-248,-89,133,77,-359
2,5262891,-3494,359,-2635,-159,-248,-89,133,77,-359
2,5262906,-3492,362,-2636,-157,-242,-85,133,77,-359
2,5262921,-3494,362,-2635,-160,-241,-88,133,77,-359
2,5262934,-3494,362,-2635,-160,-241,-88,133,77,-359
2,5262947,-3495,363,-2629,-165,-237,-86,140,86,-348
2,5262961,-3495,362,-2627,-167,-245,-81,140,86,-348
2,5262972,-3495,362,-2627,-167,-245,-81,140,86,-348
2,5262986,-3494,362,-2626,-167,-243,-87,140,86,-348
2,5262999,-3496,363,-2627,-163,-237,-80,140,86,-348
2,5263013,-3496,363,-2627,-163,-237,-80,140,86,-348
2,5263027,-3499,359,-2627,-162,-238,-80,140,86,-348
2,5263039,-3495,358,-2628,-158,-233,-81,140,86,-348
2,5263051,-3495,358,-2628,-158,-233,-81,140,86,-348
2,5263066,-3494,359,-2633,-158,-241,-88,143,79,-355
2,5263080,-3494,360,-2635,-166,-239,-85,143,79,-355
2,5263093,-3494,360,-2635,-166,-239,-85,143,79,-355
2,5263109,-3492,365,-2633,-162,-233,-84,143,79,-355
2,5263124,-3495,363,-2637,-153,-236,-86,143,79,-355
2,5263139,-3492,362,-2632,-157,-242,-83,143,79,-355
2,5263152,-3492,362,-2632,-157,-242,-83,143,79,-355
2,5263166,-3492,361,-2633,-161,-242,-83,143,79,-355
2,5263181,-3497,360,-2634,-163,-243,-85,135,83,-365
2,5263196,-3497,360,-2634,-163,-243,-85,135,83,-365
2,5263207,-3498,363,-2629,-165,-242,-83,135,83,-365
2,5263220,-3497,360,-2630,-166,-241,-87,135,83,-365
2,5263234,-3497,360,-2630,-166,-241,-87,135,83,-365
2,5263248,-3496,360,-2627,-163,-240,-87,135,83,-365
2,5263261,-3496,361,-2632,-164,-235,-86,135,83,-365
2,5263275,-3496,361,-2632,-164,-235,-86,135,83,-365
2,5263286,-3493,360,-2631,-159,-242,-87,135,83,-365
2,5263300,-3492,361,-2631,-171,-242,-88,143,79,-359
2,5263311,-3492,361,-2631,-171,-242,-88,143,79,-359
2,5263327,-3494,364,-2634,-176,-244,-85,143,79,-359
2,5263341,-3495,361,-2633,-166,-241,-89,143,79,-359
2,5263355,-3495,361,-2633,-166,-241,-89,143,79,-359
2,5263369,-3495,358,-2637,-162,-239,-100,143,79,-359
2,5263383,-3495,361,-2634,-168,-235,-93,143,79,-359
2,5263397,-3494,367,-2634,-162,-242,-88,143,79,-359
2,5263411,-3494,367,-2634,-162,-242,-88,143,79,-359
2,5263422,-3496,360,-2636,-163,-239,-89,143,79,-359
2,5263436,-3496,360,-2636,-163,-239,-89,143,79,-359
2,5263451,-3492,360,-2622,-162,-243,-87,138,82,-362
2,5263464,-3496,360,-2630,-164,-243,-80,138,82,-362
2,5263472,-3496,360,-2630,-164,-243,-80,138,82,-362
2,5263485,-3495,360,-2629,-163,-243,-80,138,82,-362
2,5263499,-3494,363,-2635,-166,-245,-87,138,82,-362
2,5263512,-3494,363,-2635,-166,-245,-87,138,82,-362
2,5263526,-3490,364,-2630,-166,-244,-79,138,82,-362
2,5263538,-3496,363,-2633,-168,-245,-78,138,82,-362
2,5263552,-3496,363,-2633,-168,-245,-78,138,82,-362
2,5263566,-3494,363,-2625,-159,-239,-89,138,86,-358
2,5263582,-3492,362,-2631,-168,-238,-86,138,86,-358
2,5263595,-3492,362,-2631,-168,-238,-86,138,86,-358
2,5263608,-3493,359,-2633,-168,-244,-82,138,86,-358
2,5263623,-3494,360,-2634,-161,-242,-84,138,86,-358
2,5263636,-3494,360,-2634,-161,-242,-84,138,86,-358
2,5263649,-3492,360,-2629,-156,-235,-89,138,86,-358
2,5263664,-3494,358,-2633,-163,-245,-91,138,86,-358
2,5263678,-3494,358,-2633,-163,-245,-91,144,78,-354
2,5263692,-3494,358,-2633,-163,-245,-91,144,78,-354
2,5263705,-3491,360,-2633,-162,-243,-82,144,78,-354
2,5263718,-3493,359,-2630,-161,-242,-93,144,78,-354
2,5263731,-3493,359,-2630,-161,-242,-93,144,78,-354
2,5263746,-3498,360,-2629,-165,-240,-82,144,78,-354
2,5263759,-3494,362,-2635,-173,-245,-82,144,78,-354
2,5263771,-3494,362,-2635,-173,-245,-82,144,78,-354
2,5263787,-3489,360,-2629,-161,-235,-83,144,78,-354
2,5263802,-3493,358,-2623,-161,-239,-87,134,88,-352
2,5263818,-3498,356,-2630,-162,-239,-81,134,88,-352
2,5263833,-3498,356,-2630,-162,-239,-81,134,88,-352
2,5263846,-3497,363,-2629,-162,-237,-80,134,88,-352
2,5263860,-3489,359,-2633,-159,-232,-81,134,88,-352
2,5263876,-3489,359,-2633,-159,-232,-81,134,88,-352
2,5263889,-3491,361,-2626,-167,-237,-75,134,88,-352
2,5263901,-3497,360,-2630,-157,-236,-86,134,88,-352
2,5263915,-3497,360,-2630,-157,-236,-86,134,88,-352
2,5263929,-3497,362,-2625,-158,-232,-86,134,86,-358
2,5263943,-3491,365,-2621,-161,-239,-89,134,86,-358
2,5263955,-3491,365,-2621,-161,-239,-89,134,86,-358
2,5263970,-3496,360,-2630,-169,-243,-89,134,86,-358
2,5263983,-3498,360,-2631,-172,-247,-77,134,86,-358
2,5263997,-3498,360,-2631,-172,-247,-77,134,86,-358
2,5264010,-3494,359,-2632,-156,-242,-80,134,86,-358
2,5264023,-3494,359,-2632,-156,-242,-80,134,86,-358
2,5264038,-3494,359,-2632,-156,-242,-80,137,83,-357
2,5264053,-3494,359,-2632,-156,-242,-80,137,83,-357
2,5264065,-3494,359,-2632,-156,-242,-80,137,83,-357
2,5264078,-3495,363,-2637,-165,-235,-77,137,83,-357
2,5264094,-3495,363,-2637,-165,-235,-77,137,83,-357
2,5264109,-3493,363,-2627,-166,-230,-89,137,83,-357
2,5264122,-3496,363,-2632,-164,-242,-90,137,83,-357
2,5264136,-3496,363,-2632,-164,-242,-90,137,83,-357
2,5264149,-3497,356,-2631,-160,-245,-80,137,83,-357
2,5264162,-3494,360,-2629,-162,-240,-78,137,83,-357
2,5264178,-3494,360,-2629,-162,-240,-78,137,83,-357
2,5264190,-3492,363,-2629,-167,-244,-83,138,82,-356
2,5264203,-3496,357,-2630,-161,-248,-88,138,82,-356
2,5264218,-3496,357,-2630,-161,-248,-88,138,82,-356
2,5264232,-3495,358,-2632,-162,-245,-91,138,82,-356
2,5264246,-3491,357,-2630,-159,-240,-84,138,82,-356
2,5264260,-3492,361,-2633,-172,-235,-81,138,82,-356
2,5264274,-3492,361,-2633,-172,-235,-81,138,82,-356
2,5264288,-3489,358,-2632,-172,-238,-82,138,82,-356
2,5264301,-3493,355,-2625,-165,-243,-88,139,81,-359
2,5264312,-3493,355,-2625,-165,-243,-88,139,81,-359
2,5264326,-3498,362,-2628,-163,-236,-84,139,81,-359
2,5264339,-3492,363,-2628,-166,-244,-88,139,81,-359
2,5264354,-3492,363,-2628,-166,-244,-88,139,81,-359
2,5264367,-3491,361,-2629,-169,-243,-85,139,81,-359
2,5264382,-3494,360,-2638,-169,-242,-90,139,81,-359
2,5264397,-3494,360,-2638,-169,-242,-90,139,81,-359
2,5264408,-3495,361,-2636,-165,-247,-86,139,81,-359
2,5264421,-3493,360,-2628,-166,-247,-87,132,82,-358
2,5264436,-3493,360,-2628,-166,-247,-87,132,82,-358
2,5264450,-3492,358,-2628,-170,-245,-86,132,82,-358
2,5264464,-3493,357,-2632,-166,-239,-86,132,82,-358
2,5264478,-3493,357,-2632,-166,-239,-86,132,82,-358
2,5264491,-3495,360,-2628,-160,-236,-85,132,82,-358
2,5264505,-3495,361,-2632,-165,-237,-80,132,82,-358
2,5264520,-3495,361,-2628,-160,-238,-85,132,82,-358
2,5264534,-3495,361,-2628,-160,-238,-85,132,82,-358
2,5264546,-3496,360,-2628,-163,-238,-85,134,88,-360
2,5264560,-3494,359,-2631,-159,-236,-81,134,88,-360
2,5264573,-3494,359,-2631,-159,-236,-81,134,88,-360
2,5264587,-3495,357,-2632,-163,-239,-84,134,88,-360
2,5264601,-3493,357,-2635,-164,-236,-82,134,88,-360
2,5264614,-3493,357,-2635,-164,-236,-82,134,88,-360
2,5264622,-3498,355,-2633,-164,-236,-80,134,88,-360
2,5264636,-3498,355,-2633,-164,-236,-80,134,88,-360
2,5264650,-3498,361,-2631,-163,-234,-84,134,88,-360
2,5264662,-3491,362,-2635,-163,-236,-85,144,90,-362
2,5264675,-3491,362,-2635,-163,-236,-85,144,90,-362
2,5264690,-3495,361,-2633,-165,-234,-88,144,90,-362
2,5264703,-3497,359,-2633,-167,-243,-83,144,90,-362
2,5264718,-3497,359,-2633,-167,-243,-83,144,90,-362
2,5264734,-3493,360,-2633,-169,-234,-84,144,90,-362
2,5264749,-3492,360,-2630,-162,-234,-87,144,90,-362
2,5264764,-3492,358,-2633,-165,-238,-86,144,90,-362
2,5264778,-3492,358,-2633,-165,-238,-86,144,90,-362
2,5264792,-3496,359,-2635,-160,-234,-92,144,90,-362
2,5264805,-3495,360,-2632,-157,-230,-83,141,87,-367
2,5264818,-3495,360,-2632,-157,-230,-83,141,87,-367
2,5264830,-3496,358,-2634,-159,-233,-81,141,87,-367
2,5264844,-3491,361,-2631,-161,-238,-84,141,87,-367
2,5264858,-3491,361,-2631,-161,-238,-84,141,87,-367
2,5264869,-3497,361,-2627,-165,-245,-86,141,87,-367
2,5264883,-3496,360,-2632,-162,-237,-86,141,87,-367
2,5264894,-3496,360,-2632,-162,-237,-86,141,87,-367
2,5264908,-3493,358,-2637,-158,-234,-88,141,87,-367
2,5264921,-3498,364,-2634,-156,-237,-92,144,84,-354
2,5264935,-3498,364,-2634,-156,-237,-92,144,84,-354
2,5264949,-3497,358,-2629,-164,-241,-80,144,84,-354
2,5264961,-3500,359,-2636,-167,-241,-82,144,84,-354
2,5264975,-3500,359,-2636,-167,-241,-82,144,84,-354
2,5264991,-3495,358,-2630,-160,-232,-91,144,84,-354
2,5265005,-3493,361,-2632,-158,-234,-91,144,84,-354
2,5265018,-3493,361,-2632,-158,-234,-91,144,84,-354
2,5265034,-3495,356,-2632,-163,-241,-88,144,84,-354
2,5265049,-3496,358,-2630,-162,-236,-86,140,86,-362
2,5265062,-3493,358,-2630,-158,-237,-83,140,86,-362
2,5265076,-3493,358,-2630,-158,-237,-83,140,86,-362
2,5265090,-3494,362,-2631,-165,-239,-81,140,86,-362
2,5265102,-3497,359,-2628,-165,-243,-77,140,86,-362
2,5265115,-3497,359,-2628,-165,-243,-77,140,86,-362
2,5265129,-3497,358,-2632,-164,-235,-85,140,86,-362
2,5265142,-3495,360,-2634,-173,-234,-87,140,86,-362
2,5265156,-3495,360,-2634,-173,-234,-87,140,86,-362
2,5265168,-3494,363,-2636,-163,-240,-85,136,80,-362
2,5265181,-3496,360,-2633,-168,-240,-82,136,80,-362
2,5265196,-3496,360,-2633,-168,-240,-82,136,80,-362
2,5265211,-3495,358,-2636,-168,-234,-89,136,80,-362
2,5265224,-3492,357,-2633,-161,-234,-87,136,80,-362
2,5265235,-3492,357,-2633,-161,-234,-87,136,80,-362
2,5265250,-3493,362,-2631,-158,-238,-89,136,80,-362
2,5265264,-3496,359,-2633,-156,-237,-83,136,80,-362
2,5265278,-3496,359,-2633,-156,-237,-83,136,80,-362
2,5265292,-3497,360,-2633,-164,-246,-84,144,76,-356
2,5265304,-3495,362,-2628,-158,-247,-90,144,76,-356
2,5265317,-3495,362,-2628,-158,-247,-90,144,76,-356
2,5265332,-3495,363,-2638,-155,-239,-93,144,76,-356
2,5265346,-3496,363,-2638,-163,-242,-83,144,76,-356
2,5265359,-3494,359,-2634,-164,-240,-79,144,76,-356
2,5265373,-3494,359,-2634,-164,-240,-79,144,76,-356
2,5265388,-3491,358,-2635,-168,-242,-77,144,76,-356
2,5265402,-3496,360,-2636,-171,-241,-85,144,76,-356
2,5265414,-3496,360,-2636,-171,-241,-85,144,76,-356
2,5265428,-3496,360,-2629,-168,-240,-83,131,85,-363
2,5265444,-3499,361,-2627,-168,-239,-83,131,85,-363
2,5265460,-3494,358,-2634,-170,-243,-82,131,85,-363
2,5265472,-3494,358,-2634,-170,-243,-82,131,85,-363
2,5265484,-3495,362,-2639,-159,-243,-83,131,85,-363
2,5265499,-3495,362,-2639,-159,-243,-83,131,85,-363
2,5265513,-3495,361,-2632,-159,-249,-81,131,85,-363
2,5265526,-3494,361,-2637,-167,-246,-82,131,85,-363
2,5265540,-3494,359,-2631,-174,-245,-83,141,75,-357
2,5265553,-3494,359,-2631,-174,-245,-83,141,75,-357
2,5265567,-3496,360,-2634,-164,-230,-87,141,75,-357
2,5265581,-3497,362,-2634,-160,-238,-82,141,75,-357
2,5265594,-3497,362,-2634,-160,-238,-82,141,75,-357
2,5265608,-3496,359,-2636,-167,-232,-80,141,75,-357
2,5265623,-3495,362,-2631,-161,-227,-90,141,75,-357
2,5265637,-3495,362,-2631,-161,-227,-90,141,75,-357
2,5265648,-3495,360,-2626,-161,-232,-92,141,75,-357
2,5265664,-3494,362,-2628,-160,-235,-91,142,92,-346
2,5265678,-3494,362,-2628,-160,-235,-91,142,92,-346
2,5265692,-3499,360,-2634,-162,-237,-89,142,92,-346
2,5265703,-3494,358,-2636,-156,-237,-86,142,92,-346
2,5265718,-3494,358,-2636,-156,-237,-86,142,92,-346
2,5265731,-3492,360,-2633,-157,-232,-88,142,92,-346
2,5265744,-3494,363,-2638,-161,-234,-92,142,92,-346
2,5265759,-3494,363,-2638,-161,-234,-92,142,92,-346
2,5265773,-3494,355,-2636,-163,-234,-84,142,92,-346
2,5265783,-3498,358,-2633,-167,-235,-89,135,81,-359
2,5265797,-3498,358,-2633,-167,-235,-89,135,81,-359
2,5265810,-3493,362,-2632,-158,-228,-91,135,81,-359
2,5265824,-3495,363,-2630,-163,-234,-86,135,81,-359
2,5265840,-3494,360,-2631,-160,-239,-90,135,81,-359
2,5265854,-3494,360,-2631,-160,-239,-90,135,81,-359
2,5265868,-3495,362,-2630,-166,-246,-89,135,81,-359
2,5265882,-3493,362,-2633,-160,-248,-91,135,81,-359
2,5265896,-3493,362,-2633,-160,-248,-91,135,81,-359
2,5265910,-3493,362,-2632,-166,-246,-83,136,84,-364
2,5265922,-3491,357,-2633,-169,-236,-85,136,84,-364
2,5265936,-3491,357,-2633,-169,-236,-85,136,84,-364
2,5265950,-3494,359,-2630,-169,-239,-84,136,84,-364
2,5265960,-3493,359,-2633,-156,-238,-80,136,84,-364
2,5265972,-3493,359,-2633,-156,-238,-80,136,84,-364
2,5265987,-3491,357,-2632,-165,-241,-84,136,84,-364
2,5266000,-3495,359,-2637,-164,-240,-85,136,84,-364
2,5266014,-3495,359,-2637,-164,-240,-85,136,84,-364
2,5266027,-3494,356,-2636,-161,-241,-84,136,84,-364
2,5266041,-3496,361,-2634,-161,-230,-84,139,81,-351
2,5266054,-3496,361,-2634,-161,-230,-84,139,81,-351
2,5266068,-3496,359,-2635,-168,-236,-77,139,81,-351
2,5266082,-3495,362,-2636,-157,-241,-82,139,81,-351
2,5266098,-3495,362,-2636,-157,-241,-82,139,81,-351
2,5266109,-3495,364,-2633,-157,-237,-86,139,81,-351
2,5266121,-3495,361,-2636,-167,-245,-89,139,81,-351
2,5266137,-3495,361,-2636,-167,-245,-89,139,81,-351
2,5266150,-3492,358,-2631,-168,-249,-87,139,81,-351
2,5266164,-3495,357,-2626,-170,-244,-79,141,85,-353
2,5266178,-3495,357,-2626,-170,-244,-79,141,85,-353
2,5266191,-3496,358,-2626,-166,-233,-84,141,85,-353
2,5266204,-3494,360,-2632,-170,-239,-88,141,85,-353
2,5266219,-3494,360,-2632,-170,-239,-88,141,85,-353
2,5266232,-3491,359,-2634,-161,-241,-89,141,85,-353
2,5266245,-3491,359,-2634,-161,-241,-89,141,85,-353
2,5266259,-3491,359,-2634,-161,-241,-89,141,85,-353
2,5266274,-3492,360,-2637,-170,-246,-88,141,85,-353
2,5266285,-3492,362,-2627,-167,-247,-90,133,85,-363
2,5266298,-3492,362,-2627,-167,-247,-90,133,85,-363
2,5266313,-3494,360,-2632,-163,-237,-82,133,85,-363
2,5266326,-3494,356,-2634,-163,-236,-85,133,85,-363
2,5266339,-3494,356,-2634,-163,-236,-85,133,85,-363
2,5266354,-3495,359,-2628,-166,-233,-88,133,85,-363
2,5266368,-3493,358,-2630,-161,-230,-84,133,85,-363
2,5266379,-3493,358,-2630,-161,-230,-84,133,85,-363
2,5266394,-3494,360,-2636,-167,-233,-85,133,85,-363
2,5266405,-3495,360,-2632,-160,-236,-80,136,92,-360
2,5266418,-3495,360,-2632,-160,-236,-80,136,92,-360
2,5266426,-3494,362,-2627,-160,-238,-78,136,92,-360
2,5266442,-3492,358,-2627,-162,-243,-85,136,92,-360
2,5266456,-3492,358,-2627,-162,-243,-85,136,92,-360
2,5266469,-3494,362,-2633,-164,-241,-83,136,92,-360
2,5266483,-3494,358,-2633,-166,-238,-89,136,92,-360
2,5266496,-3494,358,-2633,-166,-238,-89,136,92,-360
2,5266510,-3496,361,-2635,-155,-238,-82,136,92,-360
2,5266526,-3494,363,-2633,-163,-233,-85,144,76,-360
2,5266540,-3494,363,-2633,-163,-233,-85,144,76,-360
2,5266552,-3493,358,-2634,-156,-229,-84,144,76,-360
2,5266564,-3496,355,-2630,-168,-232,-83,144,76,-360
2,5266572,-3496,355,-2630,-168,-232,-83,144,76,-360
2,5266586,-3493,348,-2629,-163,-244,-84,144,76,-360
2,5266600,-3493,240,-2628,-170,-244,-86,144,76,-360
2,5266615,-3493,240,-2628,-170,-244,-86,144,76,-360
2,5266629,-3477,177,-2639,-172,-248,-81,144,76,-360
2,5266641,-3479,233,-2641,-161,-245,-85,144,76,-360
2,5266655,-3479,233,-2641,-161,-245,-85,144,76,-360
2,5266668,-3496,307,-2636,-156,-234,-96,135,83,-357
2,5266681,-3502,208,-2613,-161,-229,-113,135,83,-357
2,5266695,-3502,208,-2613,-161,-229,-113,135,83,-357
2,5266707,-3480,199,-2618,-169,-237,-121,135,83,-357
2,5266720,-3480,199,-2618,-169,-237,-121,135,83,-357
2,5266734,-3485,170,-2636,-167,-248,-113,135,83,-357
2,5266746,-3493,286,-2628,-161,-248,-118,135,83,-357
2,5266761,-3484,233,-2628,-160,-249,-123,135,83,-357
2,5266777,-3484,233,-2628,-160,-249,-123,135,83,-357
2,5266791,-3489,214,-2626,-167,-227,-134,135,83,-363
2,5266803,-3491,184,-2625,-172,-239,-130,135,83,-363
2,5266818,-3491,184,-2625,-172,-239,-130,135,83,-363
2,5266832,-3485,254,-2642,-165,-245,-138,135,83,-363
2,5266845,-3486,238,-2642,-159,-243,-144,135,83,-363
2,5266859,-3486,238,-2642,-159,-243,-144,135,83,-363
2,5266872,-3492,238,-2632,-161,-242,-157,135,83,-363
2,5266885,-3481,196,-2627,-170,-240,-168,135,83,-363
2,5266898,-3481,196,-2627,-170,-240,-168,135,83,-363
2,5266913,-3487,229,-2629,-169,-243,-168,140,82,-358
2,5266923,-3494,227,-2630,-160,-241,-169,140,82,-358
2,5266937,-3494,227,-2630,-160,-241,-169,140,82,-358
2,5266951,-3479,224,-2625,-160,-240,-172,140,82,-358
2,5266965,-3488,208,-2627,-168,-242,-175,140,82,-358
2,5266979,-3488,208,-2627,-168,-242,-175,140,82,-358
2,5266993,-3491,197,-2632,-163,-241,-192,140,82,-358
2,5267007,-3491,226,-2625,-161,-227,-201,140,82,-358
2,5267020,-3491,226,-2625,-161,-227,-201,140,82,-358
2,5267036,-3491,223,-2624,-162,-244,-201,134,86,-350
2,5267049,-3486,226,-2629,-165,-249,-210,134,86,-350
2,5267062,-3486,226,-2629,-165,-249,-210,134,86,-350
2,5267077,-3486,226,-2629,-165,-249,-210,134,86,-350
2,5267092,-3492,221,-2627,-165,-239,-209,134,86,-350
2,5267104,-3492,224,-2633,-169,-236,-211,134,86,-350
2,5267119,-3492,224,-2633,-169,-236,-211,134,86,-350
2,5267133,-3485,243,-2631,-167,-235,-218,134,86,-350
2,5267144,-3489,200,-2637,-172,-246,-227,131,89,-359
2,5267156,-3489,200,-2637,-172,-246,-227,131,89,-359
2,5267170,-3492,215,-2627,-169,-241,-241,131,89,-359
2,5267184,-3494,221,-2629,-167,-237,-245,131,89,-359
2,5267197,-3494,221,-2629,-167,-237,-245,131,89,-359
2,5267209,-3490,239,-2629,-166,-242,-250,131,89,-359
2,5267223,-3486,212,-2630,-170,-237,-259,131,89,-359
2,5267237,-3486,212,-2630,-170,-237,-259,131,89,-359
2,5267251,-3486,210,-2636,-164,-239,-256,131,89,-359
2,5267265,-3491,212,-2636,-161,-242,-253,131,89,-359
2,5267281,-3488,228,-2622,-164,-238,-261,131,89,-359
2,5267296,-3488,228,-2622,-164,-238,-261,130,88,-358
2,5267311,-3488,222,-2625,-168,-237,-275,130,88,-358
2,5267326,-3490,208,-2632,-170,-239,-281,130,88,-358
2,5267340,-3490,208,-2632,-170,-239,-281,130,88,-358
2,5267353,-3493,217,-2631,-168,-239,-290,130,88,-358
2,5267366,-3485,225,-2637,-165,-241,-289,130,88,-358
2,5267382,-3492,232,-2639,-168,-245,-290,130,88,-358
2,5267395,-3492,232,-2639,-168,-245,-290,130,88,-358
2,5267407,-3494,216,-2633,-166,-243,-291,145,73,-357
2,5267421,-3494,216,-2633,-166,-243,-291,145,73,-357
2,5267434,-3494,219,-2630,-168,-238,-304,145,73,-357
2,5267449,-3488,215,-2630,-165,-240,-307,145,73,-357
2,5267465,-3492,229,-2629,-167,-245,-317,145,73,-357
2,5267480,-3492,229,-2629,-167,-245,-317,145,73,-357
2,5267495,-3492,219,-2627,-176,-244,-326,145,73,-357
2,5267510,-3497,219,-2628,-169,-237,-325,145,73,-357
2,5267523,-3489,215,-2623,-167,-243,-327,140,96,-360
2,5267537,-3489,215,-2623,-167,-243,-327,140,96,-360
2,5267550,-3489,224,-2631,-165,-243,-338,140,96,-360
2,5267561,-3489,224,-2631,-165,-243,-338,140,96,-360
2,5267574,-3494,227,-2631,-171,-242,-341,140,96,-360
2,5267588,-3496,217,-2637,-168,-243,-352,140,96,-360
2,5267602,-3492,218,-2637,-164,-244,-353,140,96,-360
2,5267615,-3492,218,-2637,-164,-244,-353,140,96,-360
2,5267627,-3491,223,-2634,-165,-244,-363,140,96,-360
2,5267641,-3491,223,-2634,-165,-244,-363,140,96,-360
2,5267656,-3493,226,-2626,-172,-240,-365,129,79,-361
2,5267671,-3494,225,-2626,-170,-241,-373,129,79,-361
2,5267683,-3496,218,-2629,-170,-236,-381,129,79,-361
2,5267698,-3496,218,-2629,-170,-236,-381,129,79,-361
2,5267713,-3491,215,-2630,-167,-239,-381,129,79,-361
2,5267727,-3491,224,-2629,-166,-242,-391,129,79,-361
2,5267740,-3491,224,-2629,-166,-242,-391,129,79,-361
2,5267753,-3496,225,-2632,-166,-239,-396,129,79,-361
2,5267766,-3493,224,-2627,-165,-241,-394,137,79,-361
2,5267782,-3493,214,-2626,-160,-233,-408,137,79,-361
2,5267793,-3493,214,-2626,-160,-233,-408,137,79,-361
2,5267808,-3492,219,-2625,-165,-237,-414,137,79,-361
2,5267816,-3492,219,-2625,-165,-237,-414,137,79,-361
2,5267827,-3497,224,-2627,-166,-235,-410,137,79,-361
2,5267836,-3497,224,-2627,-166,-235,-410,137,79,-361
2,5267851,-3496,225,-2625,-158,-240,-418,137,79,-361
2,5267866,-3492,217,-2631,-168,-243,-422,137,79,-361
2,5267881,-3494,220,-2627,-166,-235,-429,137,79,-361
2,5267897,-3494,220,-2627,-166,-235,-429,137,79,-361
2,5267910,-3495,228,-2628,-173,-247,-429,134,80,-358
2,5267924,-3500,228,-2628,-172,-244,-443,134,80,-358
2,5267939,-3500,228,-2628,-172,-244,-443,134,80,-358
2,5267952,-3497,218,-2632,-167,-247,-446,134,80,-358
2,5267963,-3495,217,-2635,-166,-246,-455,134,80,-358
2,5267977,-3495,217,-2635,-166,-246,-455,134,80,-358
2,5267990,-3502,228,-2631,-173,-252,-458,134,80,-358
2,5268003,-3501,229,-2627,-172,-244,-459,134,80,-358
2,5268017,-3501,229,-2627,-172,-244,-459,134,80,-358
2,5268029,-3496,221,-2625,-168,-238,-472,138,82,-364
2,5268042,-3499,211,-2631,-172,-234,-479,138,82,-364
2,5268056,-3499,211,-2631,-172,-234,-479,138,82,-364
2,5268068,-3499,223,-2633,-171,-240,-483,138,82,-364
2,5268082,-3501,228,-2628,-162,-243,-484,138,82,-364
2,5268094,-3501,228,-2628,-162,-243,-484,138,82,-364
2,5268110,-3499,225,-2632,-167,-244,-491,138,82,-364
2,5268124,-3496,221,-2631,-166,-243,-494,138,82,-364
2,5268139,-3496,221,-2631,-166,-243,-494,138,82,-364
2,5268150,-3500,221,-2627,-169,-235,-504,138,82,-354
2,5268164,-3503,227,-2624,-164,-237,-503,138,82,-354
2,5268177,-3503,227,-2624,-164,-237,-503,138,82,-354
2,5268192,-3500,227,-2627,-168,-250,-513,138,82,-354
2,5268205,-3501,219,-2622,-169,-237,-510,138,82,-354
2,5268219,-3501,219,-2622,-169,-237,-510,138,82,-354
2,5268233,-3499,219,-2627,-165,-233,-530,138,82,-354
2,5268245,-3501,222,-2631,-166,-239,-524,138,82,-354
2,5268260,-3501,222,-2631,-166,-239,-524,138,82,-354
2,5268274,-3500,230,-2629,-169,-245,-528,137,77,-357
2,5268288,-3501,225,-2628,-164,-241,-538,137,77,-357
2,5268302,-3503,217,-2626,-165,-256,-536,137,77,-357
2,5268318,-3503,217,-2626,-165,-256,-536,137,77,-357
2,5268333,-3502,222,-2632,-176,-242,-546,137,77,-357
2,5268347,-3503,230,-2627,-174,-241,-552,137,77,-357
2,5268361,-3503,230,-2627,-174,-241,-552,137,77,-357
2,5268375,-3505,230,-2623,-165,-245,-564,137,77,-357
2,5268386,-3503,220,-2630,-166,-250,-573,133,83,-359
2,5268399,-3503,220,-2630,-166,-250,-573,133,83,-359
2,5268414,-3504,219,-2626,-162,-240,-571,133,83,-359
2,5268427,-3504,226,-2625,-162,-236,-561,133,83,-359
2,5268441,-3504,226,-2625,-162,-236,-561,133,83,-359
2,5268455,-3505,231,-2628,-167,-236,-576,133,83,-359
2,5268465,-3504,222,-2630,-172,-242,-585,133,83,-359
2,5268478,-3504,222,-2630,-172,-242,-585,133,83,-359
2,5268493,-3508,217,-2633,-177,-253,-582,133,83,-359
2,5268506,-3507,223,-2634,-170,-247,-596,127,81,-355
2,5268521,-3507,223,-2634,-170,-247,-596,127,81,-355
2,5268536,-3511,233,-2630,-171,-241,-605,127,81,-355
2,5268550,-3506,226,-2627,-166,-245,-605,127,81,-355
2,5268563,-3505,216,-2622,-171,-242,-616,127,81,-355
2,5268578,-3505,216,-2622,-171,-242,-616,127,81,-355
2,5268592,-3505,216,-2622,-171,-242,-616,127,81,-355
2,5268605,-3509,230,-2630,-165,-238,-625,127,81,-355
2,5268620,-3509,230,-2630,-165,-238,-625,127,81,-355
2,5268635,-3508,227,-2628,-171,-241,-629,127,81,-355
2,5268649,-3506,218,-2623,-171,-249,-633,131,83,-355
2,5268663,-3508,222,-2633,-171,-244,-638,131,83,-355
2,5268677,-3508,222,-2633,-171,-244,-638,131,83,-355
2,5268690,-3505,229,-2630,-173,-243,-648,131,83,-355
2,5268704,-3506,227,-2628,-170,-239,-653,131,83,-355
2,5268718,-3506,227,-2628,-170,-239,-653,131,83,-355
2,5268731,-3507,223,-2630,-167,-243,-647,131,83,-355
2,5268746,-3508,217,-2631,-162,-245,-663,131,83,-355
2,5268759,-3508,217,-2631,-162,-245,-663,131,83,-355
2,5268773,-3509,225,-2626,-163,-242,-669,125,87,-353
2,5268786,-3513,229,-2627,-164,-236,-673,125,87,-353
2,5268799,-3513,229,-2627,-164,-236,-673,125,87,-353
2,5268813,-3508,225,-2633,-165,-245,-679,125,87,-353
2,5268828,-3511,216,-2632,-170,-250,-683,125,87,-353
2,5268842,-3511,216,-2632,-170,-250,-683,125,87,-353
2,5268854,-3513,221,-2628,-162,-250,-691,125,87,-353
2,5268869,-3514,228,-2628,-168,-247,-693,125,87,-353
2,5268884,-3514,228,-2627,-164,-247,-697,114,92,-356
2,5268897,-3514,228,-2627,-164,-247,-697,114,92,-356
2,5268911,-3514,220,-2630,-165,-244,-705,114,92,-356
2,5268925,-3513,223,-2631,-169,-244,-710,114,92,-356
2,5268937,-3513,223,-2631,-169,-244,-710,114,92,-356
2,5268952,-3513,226,-2626,-171,-243,-715,114,92,-356
2,5268966,-3514,223,-2630,-172,-245,-730,114,92,-356
2,5268980,-3514,223,-2630,-172,-245,-730,114,92,-356
2,5268994,-3514,222,-2627,-165,-246,-727,114,92,-356
2,5269008,-3513,222,-2629,-172,-247,-726,128,86,-364
2,5269020,-3513,222,-2629,-172,-247,-726,128,86,-364
2,5269033,-3517,225,-2628,-170,-247,-744,128,86,-364
2,5269046,-3518,222,-2627,-168,-252,-750,128,86,-364
2,5269061,-3518,222,-2627,-168,-252,-750,128,86,-364
2,5269074,-3518,224,-2632,-167,-252,-753,128,86,-364
2,5269088,-3518,225,-2631,-166,-246,-757,128,86,-364
2,5269103,-3516,225,-2626,-171,-242,-756,128,86,-364
2,5269116,-3516,225,-2626,-171,-242,-756,128,86,-364
2,5269130,-3521,223,-2631,-166,-245,-758,125,83,-357
2,5269144,-3520,228,-2632,-164,-250,-764,125,83,-357
2,5269158,-3520,228,-2632,-164,-250,-764,125,83,-357
2,5269175,-3517,226,-2630,-177,-248,-778,125,83,-357
2,5269189,-3517,222,-2629,-177,-249,-777,125,83,-357
2,5269203,-3520,222,-2629,-172,-244,-783,125,83,-357
2,5269217,-3520,222,-2629,-172,-244,-783,125,83,-357
2,5269230,-3521,225,-2632,-170,-240,-796,125,83,-357
2,5269243,-3524,225,-2629,-173,-243,-796,125,83,-357
2,5269258,-3524,225,-2629,-173,-243,-796,125,83,-357
2,5269269,-3523,220,-2627,-167,-246,-799,126,84,-352
2,5269283,-3522,228,-2629,-176,-244,-805,126,84,-352
2,5269299,-3522,228,-2629,-176,-244,-805,126,84,-352
2,5269314,-3525,229,-2628,-172,-242,-811,126,84,-352
2,5269329,-3522,225,-2622,-173,-247,-822,126,84,-352
2,5269342,-3522,225,-2622,-173,-247,-822,126,84,-352
2,5269355,-3521,217,-2622,-173,-251,-825,126,84,-352
2,5269368,-3527,222,-2627,-174,-242,-830,126,84,-352
2,5269382,-3527,222,-2627,-174,-242,-830,126,84,-352
2,5269396,-3527,222,-2622,-167,-238,-832,127,93,-355
2,5269408,-3526,230,-2628,-170,-246,-847,127,93,-355
2,5269420,-3526,230,-2628,-170,-246,-847,127,93,-355
2,5269435,-3525,224,-2628,-173,-242,-848,127,93,-355
2,5269448,-3523,222,-2630,-177,-246,-852,127,93,-355
2,5269462,-3523,222,-2630,-177,-246,-852,127,93,-355
2,5269475,-3528,224,-2627,-179,-246,-850,127,93,-355
2,5269488,-3528,228,-2630,-176,-252,-860,127,93,-355
2,5269501,-3528,228,-2630,-176,-252,-860,127,93,-355
2,5269517,-3528,228,-2630,-176,-252,-860,120,86,-358
2,5269532,-3529,220,-2628,-174,-255,-875,120,86,-358
2,5269545,-3528,223,-2626,-175,-252,-883,120,86,-358
2,5269559,-3528,223,-2626,-175,-252,-883,120,86,-358
2,5269574,-3529,226,-2627,-173,-244,-889,120,86,-358
2,5269590,-3530,225,-2629,-172,-249,-889,120,86,-358
2,5269603,-3530,225,-2629,-172,-249,-889,120,86,-358
2,5269616,-3535,224,-2626,-172,-245,-896,120,86,-358
2,5269630,-3535,226,-2617,-174,-250,-895,121,89,-349
2,5269643,-3533,226,-2630,-168,-242,-905,121,89,-349
2,5269655,-3533,226,-2630,-168,-242,-905,121,89,-349
2,5269669,-3529,228,-2625,-170,-246,-913,121,89,-349
2,5269683,-3529,228,-2625,-170,-246,-913,121,89,-349
2,5269697,-3534,224,-2623,-176,-249,-924,121,89,-349
2,5269710,-3535,225,-2622,-167,-252,-923,121,89,-349
2,5269723,-3535,225,-2622,-167,-252,-923,121,89,-349
2,5269736,-3535,223,-2630,-166,-242,-928,121,89,-349
2,5269749,-3533,220,-2625,-168,-246,-936,118,96,-364
2,5269762,-3533,220,-2625,-168,-246,-936,118,96,-364
2,5269776,-3536,223,-2629,-162,-247,-936,118,96,-364
2,5269791,-3538,224,-2632,-171,-244,-944,118,96,-364
2,5269805,-3539,226,-2628,-169,-246,-950,118,96,-364
2,5269819,-3539,226,-2628,-169,-246,-950,118,96,-364
2,5269833,-3536,227,-2631,-169,-246,-957,118,96,-364
2,5269847,-3540,224,-2627,-168,-247,-960,118,96,-364
2,5269860,-3540,224,-2627,-168,-247,-960,118,96,-364
2,5269875,-3538,224,-2627,-168,-245,-958,118,96,-364
2,5269890,-3541,225,-2626,-165,-248,-966,121,97,-355
2,5269903,-3541,225,-2626,-165,-248,-966,121,97,-355
2,5269916,-3542,222,-2625,-168,-246,-971,121,97,-355
2,5269929,-3542,224,-2624,-168,-250,-983,121,97,-355
2,5269944,-3543,227,-2626,-173,-257,-985,121,97,-355
2,5269955,-3543,227,-2626,-173,-257,-985,121,97,-355
2,5269969,-3543,226,-2631,-170,-247,-990,121,97,-355
2,5269985,-3541,226,-2625,-171,-247,-995,121,97,-355
2,5269998,-3541,226,-2625,-171,-247,-995,121,97,-355
2,5270012,-3544,226,-2622,-171,-250,-999,128,92,-358
2,5270028,-3546,226,-2625,-177,-245,-1004,128,92,-358
2,5270043,-3546,226,-2625,-177,-245,-1004,128,92,-358
2,5270059,-3546,226,-2630,-177,-248,-1015,128,92,-358
2,5270072,-3545,223,-2626,-176,-250,-1021,128,92,-358
2,5270086,-3546,225,-2633,-169,-252,-1025,128,92,-358
2,5270097,-3546,225,-2633,-169,-252,-1025,128,92,-358
2,5270109,-3550,226,-2629,-175,-247,-1031,128,92,-358
2,5270123,-3550,226,-2629,-175,-247,-1031,128,92,-358
2,5270135,-3550,222,-2620,-171,-251,-1038,120,86,-358
2,5270150,-3547,224,-2625,-172,-246,-1043,120,86,-358
2,5270163,-3547,224,-2625,-172,-246,-1043,120,86,-358
2,5270176,-3550,224,-2633,-175,-250,-1049,120,86,-358
2,5270189,-3553,225,-2633,-179,-246,-1054,120,86,-358
2,5270205,-3554,228,-2630,-173,-252,-1059,120,86,-358
2,5270220,-3554,228,-2630,-173,-252,-1059,120,86,-358
2,5270236,-3554,223,-2626,-175,-251,-1064,120,86,-358
2,5270250,-3552,220,-2626,-178,-243,-1064,118,92,-360
2,5270261,-3552,220,-2626,-178,-243,-1064,118,92,-360
2,5270277,-3551,222,-2626,-174,-243,-1067,118,92,-360
2,5270290,-3556,225,-2628,-174,-247,-1073,118,92,-360
2,5270303,-3555,225,-2628,-174,-241,-1084,118,92,-360
2,5270318,-3555,225,-2628,-174,-241,-1084,118,92,-360
2,5270331,-3554,227,-2629,-175,-245,-1086,118,92,-360
2,5270343,-3554,227,-2629,-175,-245,-1086,118,92,-360
2,5270356,-3556,226,-2627,-170,-246,-1093,118,92,-360
2,5270372,-3554,227,-2628,-168,-247,-1102,115,93,-359
2,5270386,-3558,225,-2625,-179,-249,-1111,115,93,-359
2,5270400,-3558,225,-2625,-179,-249,-1111,115,93,-359
2,5270415,-3557,224,-2626,-178,-255,-1116,115,93,-359
2,5270429,-3559,225,-2626,-181,-248,-1121,115,93,-359
2,5270441,-3559,225,-2626,-181,-248,-1121,115,93,-359
2,5270456,-3560,225,-2622,-179,-249,-1124,115,93,-359
2,5270471,-3562,221,-2631,-184,-253,-1125,115,93,-359
2,5270487,-3564,222,-2629,-165,-245,-1144,115,93,-359
2,5270501,-3564,222,-2629,-165,-245,-1144,115,93,-359
2,5270514,-3564,221,-2625,-171,-252,-1147,122,94,-362
2,5270528,-3562,225,-2628,-174,-248,-1154,122,94,-362
2,5270541,-3562,225,-2628,-174,-248,-1154,122,94,-362
2,5270554,-3562,222,-2629,-177,-240,-1149,122,94,-362
2,5270567,-3567,224,-2624,-175,-242,-1152,122,94,-362
2,5270582,-3567,224,-2624,-175,-242,-1152,122,94,-362
2,5270596,-3565,223,-2625,-168,-248,-1161,122,94,-362
2,5270608,-3566,223,-2631,-167,-252,-1165,122,94,-362
2,5270622,-3566,223,-2631,-167,-252,-1165,122,94,-362
2,5270631,-3569,226,-2627,-174,-244,-1166,115,91,-359
2,5270643,-3569,226,-2627,-174,-244,-1166,115,91,-359
2,5270658,-3568,222,-2624,-166,-239,-1177,115,91,-359
2,5270673,-3570,220,-2628,-173,-246,-1178,115,91,-359
2,5270688,-3572,224,-2635,-177,-250,-1183,115,91,-359
2,5270705,-3572,225,-2627,-172,-251,-1185,115,91,-359
2,5270718,-3572,225,-2627,-172,-251,-1185,115,91,-359
2,5270730,-3571,224,-2628,-169,-250,-1196,115,91,-359
2,5270745,-3576,222,-2625,-171,-248,-1200,115,91,-359
2,5270758,-3576,222,-2625,-171,-248,-1200,114,92,-362
2,5270771,-3574,224,-2626,-169,-244,-1202,114,92,-362
2,5270786,-3574,221,-2625,-168,-251,-1213,114,92,-362
2,5270801,-3574,221,-2625,-168,-251,-1213,114,92,-362
2,5270816,-3577,224,-2631,-173,-249,-1218,114,92,-362
2,5270829,-3577,219,-2628,-174,-254,-1224,114,92,-362
2,5270841,-3577,219,-2628,-174,-254,-1224,114,92,-362
2,5270854,-3575,221,-2626,-173,-245,-1237,114,92,-362
2,5270868,-3576,219,-2622,-174,-251,-1233,107,97,-355
2,5270883,-3576,219,-2622,-174,-251,-1233,107,97,-355
2,5270898,-3580,222,-2628,-175,-239,-1244,107,97,-355
2,5270912,-3584,224,-2631,-177,-246,-1247,107,97,-355
2,5270925,-3583,222,-2629,-178,-241,-1249,107,97,-355
2,5270940,-3583,222,-2629,-178,-241,-1249,107,97,-355
2,5270956,-3579,222,-2630,-171,-240,-1254,107,97,-355
2,5270971,-3584,223,-2629,-173,-253,-1262,107,97,-355
2,5270983,-3584,223,-2629,-173,-253,-1262,107,97,-355
2,5270994,-3583,221,-2625,-170,-247,-1263,102,96,-358
2,5271009,-3581,219,-2630,-178,-249,-1278,102,96,-358
2,5271022,-3581,219,-2630,-178,-249,-1278,102,96,-358
2,5271035,-3586,215,-2631,-168,-240,-1277,102,96,-358
2,5271048,-3590,218,-2629,-170,-242,-1281,102,96,-358
2,5271060,-3590,218,-2629,-170,-242,-1281,102,96,-358
2,5271075,-3589,218,-2629,-168,-249,-1290,102,96,-358
2,5271083,-3589,218,-2629,-168,-249,-1290,102,96,-358
2,5271098,-3586,222,-2635,-169,-241,-1295,102,96,-358
2,5271111,-3587,220,-2630,-176,-254,-1298,102,96,-358
2,5271126,-3589,222,-2629,-178,-259,-1307,104,98,-362
2,5271141,-3589,222,-2629,-178,-259,-1307,104,98,-362
2,5271155,-3592,220,-2626,-180,-257,-1309,104,98,-362
2,5271169,-3592,219,-2629,-179,-253,-1322,104,98,-362
2,5271180,-3592,219,-2629,-179,-253,-1322,104,98,-362
2,5271195,-3591,219,-2631,-179,-249,-1329,104,98,-362
2,5271209,-3595,221,-2624,-170,-244,-1332,104,98,-362
2,5271221,-3595,221,-2624,-170,-244,-1332,104,98,-362
2,5271234,-3594,220,-2628,-171,-246,-1335,104,98,-362
2,5271247,-3594,218,-2626,-169,-256,-1336,98,100,-366
2,5271261,-3594,218,-2626,-169,-256,-1336,98,100,-366
2,5271275,-3596,219,-2631,-174,-253,-1345,98,100,-366
2,5271289,-3593,218,-2631,-171,-249,-1355,98,100,-366
2,5271303,-3593,218,-2631,-171,-249,-1355,98,100,-366
2,5271318,-3598,220,-2632,-175,-248,-1359,98,100,-366
2,5271331,-3597,219,-2631,-167,-255,-1362,98,100,-366
2,5271345,-3597,219,-2631,-167,-255,-1362,98,100,-366
2,5271360,-3598,221,-2630,-171,-246,-1374,98,100,-366
2,5271375,-3602,220,-2622,-173,-244,-1375,102,100,-360
2,5271390,-3603,217,-2624,-172,-253,-1378,102,100,-360
2,5271402,-3603,217,-2624,-172,-253,-1378,102,100,-360
2,5271415,-3601,219,-2629,-172,-250,-1380,102,100,-360
2,5271430,-3601,220,-2625,-174,-248,-1386,102,100,-360
2,5271441,-3601,220,-2625,-174,-248,-1386,102,100,-360
2,5271454,-3604,217,-2629,-175,-252,-1387,102,100,-360
