imu,time,ax,ay,az,gx,gy,gz,mx,my,mz
0,2353757,2222,308,28,1439,-395,-316,163,51,-221
0,2353765,2222,308,28,1439,-395,-316,163,51,-221
0,2353772,2222,308,28,1439,-395,-316,163,51,-221
0,2353779,2227,298,24,1438,-400,-308,163,51,-221
0,2353787,2227,298,24,1438,-400,-308,163,51,-221
0,2353797,2227,312,23,1439,-399,-317,163,51,-221
0,2353805,2227,312,23,1439,-399,-317,163,51,-221
0,2353814,2227,312,23,1439,-399,-317,163,51,-221
0,2353825,2230,309,27,1431,-394,-320,163,51,-221
0,2353839,2230,307,25,1433,-393,-319,163,51,-221
0,2353851,2230,307,25,1433,-393,-319,163,51,-221
0,2353865,2229,309,32,1438,-394,-313,164,54,-234
0,2353879,2229,309,32,1438,-394,-313,164,54,-234
0,2353892,2229,309,32,1438,-394,-313,164,54,-234
0,2353904,2221,318,22,1426,-397,-321,164,54,-234
0,2353918,2225,351,31,1426,-401,-327,164,54,-234
0,2353933,2225,351,31,1426,-401,-327,164,54,-234
0,2353945,2225,307,25,1433,-398,-317,164,54,-234
0,2353959,2223,323,21,1422,-399,-319,164,54,-234
0,2353972,2223,323,21,1422,-399,-319,164,54,-234
0,2353987,2231,318,25,1431,-394,-314,162,56,-224
0,2354000,2224,335,29,1433,-396,-305,162,56,-224
0,2354009,2224,335,29,1433,-396,-305,162,56,-224
0,2354022,2228,324,27,1424,-407,-315,162,56,-224
0,2354036,2225,327,16,1432,-400,-314,162,56,-224
0,2354049,2225,327,16,1432,-400,-314,162,56,-224
0,2354061,2227,335,24,1427,-400,-307,162,56,-224
0,2354077,2224,335,22,1425,-402,-310,162,56,-224
0,2354084,2224,335,22,1425,-402,-310,162,56,-224
0,2354098,2222,348,24,1421,-402,-315,162,56,-224
0,2354109,2222,348,24,1421,-402,-315,162,56,-224
0,2354117,2225,338,21,1427,-397,-311,161,49,-235
0,2354126,2225,338,21,1427,-397,-311,161,49,-235
0,2354134,2225,338,21,1427,-397,-311,161,49,-235
0,2354143,2223,339,30,1426,-391,-307,161,49,-235
0,2354151,2223,339,30,1426,-391,-307,161,49,-235
0,2354159,2224,346,27,1433,-398,-311,161,49,-235
0,2354167,2224,346,27,1433,-398,-311,161,49,-235
0,2354177,2222,366,31,1423,-403,-315,161,49,-235
0,2354184,2222,366,31,1423,-403,-315,161,49,-235
0,2354193,2222,366,31,1423,-403,-315,161,49,-235
0,2354200,2224,349,24,1429,-396,-315,161,49,-235
0,2354209,2224,349,24,1429,-396,-315,161,49,-235
0,2354216,2223,348,25,1433,-402,-314,161,49,-235
0,2354225,2223,348,25,1433,-402,-314,161,49,-235
0,2354233,2223,348,25,1433,-402,-314,161,49,-235
0,2354241,2228,356,34,1437,-396,-303,159,57,-245
0,2354249,2228,356,34,1437,-396,-303,159,57,-245
0,2354257,2220,361,29,1432,-402,-312,159,57,-245
0,2354265,2220,361,29,1432,-402,-312,159,57,-245
0,2354272,2220,361,29,1432,-402,-312,159,57,-245
0,2354280,2227,349,25,1444,-397,-317,159,57,-245
0,2354288,2227,349,25,1444,-397,-317,159,57,-245
0,2354295,2225,344,26,1446,-390,-318,159,57,-245
0,2354304,2225,344,26,1446,-390,-318,159,57,-245
0,2354312,2225,344,26,1446,-390,-318,159,57,-245
0,2354320,2225,344,26,1446,-390,-318,159,57,-245
0,2354332,2225,344,26,1446,-390,-318,159,57,-245
0,2354340,2224,346,30,1431,-397,-314,159,57,-245
0,2354354,2224,346,30,1431,-397,-314,159,57,-245
0,2354368,2224,339,20,1440,-399,-312,160,52,-238
0,2354380,2228,336,33,1446,-394,-320,160,52,-238
0,2354394,2228,336,33,1446,-394,-320,160,52,-238
0,2354408,2228,335,25,1438,-388,-316,160,52,-238
0,2354421,2226,344,28,1435,-395,-321,160,52,-238
0,2354436,2226,344,28,1435,-395,-321,160,52,-238
0,2354450,2225,345,27,1445,-392,-325,160,52,-238
0,2354464,2226,337,32,1438,-401,-320,160,52,-238
0,2354476,2227,328,36,1441,-397,-325,160,52,-238
0,2354489,2227,328,36,1441,-397,-325,160,52,-238
0,2354499,2224,333,28,1438,-398,-320,156,66,-236
0,2354511,2224,333,28,1438,-398,-320,156,66,-236
0,2354525,2223,333,27,1446,-400,-322,156,66,-236
0,2354539,2229,328,31,1449,-397,-317,156,66,-236
0,2354554,2229,328,31,1449,-397,-317,156,66,-236
0,2354567,2226,318,33,1444,-396,-321,156,66,-236
0,2354581,2230,305,26,1442,-400,-322,156,66,-236
0,2354593,2230,305,26,1442,-400,-322,156,66,-236
0,2354607,2227,327,31,1441,-405,-321,156,66,-236
0,2354621,2231,323,31,1440,-397,-315,161,53,-235
0,2354634,2231,323,31,1440,-397,-315,161,53,-235
0,2354646,2222,315,27,1448,-394,-320,161,53,-235
0,2354660,2229,311,29,1441,-397,-322,161,53,-235
0,2354674,2229,311,29,1441,-397,-322,161,53,-235
0,2354689,2222,321,24,1446,-404,-317,161,53,-235
0,2354697,2226,315,28,1451,-398,-325,161,53,-235
0,2354709,2226,315,28,1451,-398,-325,161,53,-235
0,2354723,2224,313,33,1440,-401,-322,161,53,-235
0,2354737,2227,311,31,1436,-398,-317,161,53,-235
0,2354746,2227,311,31,1436,-398,-317,161,53,-235
0,2354754,2227,311,31,1436,-398,-317,161,53,-235
0,2354764,2222,314,28,1438,-397,-313,152,62,-234
0,2354774,2222,314,28,1438,-397,-313,152,62,-234
0,2354788,2226,318,32,1445,-400,-311,152,62,-234
0,2354800,2225,318,28,1437,-400,-320,152,62,-234
0,2354814,2225,318,28,1437,-400,-320,152,62,-234
0,2354829,2227,315,30,1435,-403,-321,152,62,-234
0,2354842,2229,309,33,1433,-400,-318,152,62,-234
0,2354857,2228,313,28,1437,-395,-319,152,62,-234
0,2354871,2228,313,28,1437,-395,-319,152,62,-234
0,2354883,2228,317,28,1441,-395,-317,156,66,-242
0,2354895,2228,317,28,1441,-395,-317,156,66,-242
0,2354910,2227,315,32,1431,-398,-322,156,66,-242
0,2354923,2220,310,26,1432,-391,-319,156,66,-242
0,2354937,2223,316,27,1434,-400,-321,156,66,-242
0,2354950,2223,316,27,1434,-400,-321,156,66,-242
0,2354961,2226,315,22,1439,-402,-326,156,66,-242
0,2354976,2229,311,28,1434,-402,-320,156,66,-242
0,2354991,2229,311,28,1434,-402,-320,156,66,-242
0,2355004,2230,308,32,1434,-402,-315,156,66,-242
0,2355019,2227,320,27,1439,-404,-317,151,59,-237
0,2355027,2227,320,27,1439,-404,-317,151,59,-237
0,2355042,2226,314,23,1436,-405,-310,151,59,-237
0,2355058,2224,316,28,1430,-396,-318,151,59,-237
0,2355066,2224,316,28,1430,-396,-318,151,59,-237
0,2355082,2224,316,28,1430,-396,-318,151,59,-237
0,2355097,2221,341,23,1430,-403,-316,151,59,-237
0,2355111,2221,341,23,1430,-403,-316,151,59,-237
0,2355125,2226,314,26,1429,-400,-321,151,59,-237
0,2355139,2227,322,26,1425,-396,-321,150,64,-250
0,2355150,2227,322,26,1425,-396,-321,150,64,-250
0,2355164,2232,322,29,1426,-401,-313,150,64,-250
0,2355177,2225,332,28,1433,-400,-315,150,64,-250
0,2355191,2225,332,28,1433,-400,-315,150,64,-250
0,2355209,2227,334,21,1429,-397,-320,150,64,-250
0,2355222,2224,339,31,1436,-398,-320,150,64,-250
0,2355234,2224,339,31,1436,-398,-320,150,64,-250
0,2355246,2225,343,26,1425,-403,-316,150,64,-250
0,2355259,2222,336,25,1415,-400,-311,147,55,-257
0,2355268,2222,336,25,1415,-400,-311,147,55,-257
0,2355279,2223,350,24,1426,-400,-318,147,55,-257
0,2355295,2223,350,24,1426,-400,-318,147,55,-257
0,2355307,2223,353,25,1430,-400,-317,147,55,-257
0,2355321,2223,346,31,1430,-394,-313,147,55,-257
0,2355336,2223,346,31,1430,-394,-313,147,55,-257
0,2355350,2224,338,28,1422,-405,-314,147,55,-257
0,2355365,2224,354,24,1431,-403,-314,147,55,-257
0,2355380,2227,351,22,1427,-407,-314,147,55,-257
0,2355393,2227,351,22,1427,-407,-314,147,55,-257
0,2355407,2223,345,32,1426,-400,-317,146,62,-236
0,2355420,2231,339,25,1429,-400,-319,146,62,-236
0,2355432,2231,339,25,1429,-400,-319,146,62,-236
0,2355446,2226,339,23,1433,-396,-316,146,62,-236
0,2355460,2222,334,26,1437,-399,-315,146,62,-236
0,2355474,2222,334,26,1437,-399,-315,146,62,-236
0,2355488,2223,334,24,1444,-395,-319,146,62,-236
0,2355501,2224,331,24,1447,-393,-316,146,62,-236
0,2355514,2224,331,24,1447,-393,-316,146,62,-236
0,2355526,2224,340,24,1448,-400,-312,152,66,-248
0,2355540,2225,333,29,1440,-400,-312,152,66,-248
0,2355556,2225,333,29,1440,-400,-312,152,66,-248
0,2355570,2226,336,33,1445,-392,-319,152,66,-248
0,2355586,2223,331,34,1444,-404,-316,152,66,-248
0,2355601,2225,334,30,1441,-398,-314,152,66,-248
0,2355615,2225,334,30,1441,-398,-314,152,66,-248
0,2355630,2224,328,26,1445,-397,-313,152,66,-248
0,2355645,2222,335,25,1435,-397,-319,152,66,-248
0,2355660,2224,327,29,1441,-397,-314,134,58,-248
0,2355674,2224,327,29,1441,-397,-314,134,58,-248
0,2355685,2220,325,25,1449,-396,-314,134,58,-248
0,2355701,2224,327,28,1437,-401,-320,134,58,-248
0,2355716,2224,327,28,1437,-401,-320,134,58,-248
0,2355730,2227,330,29,1436,-397,-315,134,58,-248
0,2355744,2225,327,32,1438,-398,-312,134,58,-248
0,2355759,2226,329,28,1438,-401,-318,134,58,-248
0,2355774,2226,329,28,1438,-401,-318,134,58,-248
0,2355789,2226,330,34,1432,-400,-321,153,69,-245
0,2355805,2223,340,35,1431,-406,-315,153,69,-245
0,2355819,2226,331,29,1438,-402,-317,153,69,-245
0,2355832,2226,331,29,1438,-402,-317,153,69,-245
0,2355848,2226,335,29,1443,-403,-316,153,69,-245
0,2355861,2224,329,19,1433,-400,-317,153,69,-245
0,2355876,2224,329,19,1433,-400,-317,153,69,-245
0,2355889,2224,328,24,1435,-396,-324,153,69,-245
0,2355902,2225,326,21,1451,-399,-318,153,69,-245
0,2355916,2225,326,21,1451,-399,-318,153,69,-245
0,2355932,2224,328,32,1444,-402,-313,143,61,-253
0,2355946,2224,326,27,1440,-400,-321,143,61,-253
0,2355960,2222,329,29,1437,-397,-320,143,61,-253
0,2355974,2222,329,29,1437,-397,-320,143,61,-253
0,2355985,2226,322,24,1441,-398,-316,143,61,-253
0,2355998,2226,322,29,1447,-394,-314,143,61,-253
0,2356013,2226,322,29,1447,-394,-314,143,61,-253
0,2356027,2224,320,32,1442,-400,-315,143,61,-253
0,2356040,2228,324,31,1448,-393,-312,138,60,-264
0,2356056,2228,324,31,1448,-393,-312,138,60,-264
0,2356070,2223,321,33,1446,-399,-318,138,60,-264
0,2356085,2223,321,26,1440,-399,-316,138,60,-264
0,2356101,2219,323,26,1441,-401,-319,138,60,-264
0,2356114,2219,323,26,1441,-401,-319,138,60,-264
0,2356129,2227,323,30,1437,-398,-318,138,60,-264
0,2356145,2221,321,26,1432,-400,-323,138,60,-264
0,2356159,2228,321,27,1435,-400,-315,135,57,-269
0,2356171,2228,321,27,1435,-400,-315,135,57,-269
0,2356184,2225,322,31,1451,-403,-311,135,57,-269
0,2356197,2225,322,31,1451,-403,-311,135,57,-269
0,2356211,2225,321,25,1445,-398,-313,135,57,-269
0,2356226,2225,325,28,1442,-394,-319,135,57,-269
0,2356240,2225,325,28,1442,-394,-319,135,57,-269
0,2356253,2225,325,28,1442,-394,-319,135,57,-269
0,2356267,2230,323,31,1444,-404,-313,135,57,-269
0,2356277,2230,323,31,1444,-404,-313,135,57,-269
0,2356290,2223,320,31,1436,-398,-314,135,57,-269
0,2356306,2225,319,31,1441,-401,-315,145,61,-261
0,2356322,2225,322,33,1444,-399,-315,145,61,-261
0,2356337,2225,322,33,1444,-399,-315,145,61,-261
0,2356352,2222,319,34,1437,-403,-313,145,61,-261
0,2356365,2226,319,33,1432,-395,-322,145,61,-261
0,2356379,2225,324,28,1430,-400,-319,145,61,-261
0,2356393,2225,324,28,1430,-400,-319,145,61,-261
0,2356409,2224,326,27,1433,-401,-317,145,61,-261
0,2356421,2220,324,22,1443,-396,-314,132,62,-258
0,2356434,2220,324,22,1443,-396,-314,132,62,-258
0,2356450,2223,321,29,1442,-390,-317,132,62,-258
0,2356465,2227,319,24,1437,-397,-324,132,62,-258
0,2356480,2228,321,22,1437,-403,-319,132,62,-258
0,2356494,2228,321,22,1437,-403,-319,132,62,-258
0,2356509,2225,316,26,1437,-397,-318,132,62,-258
0,2356525,2229,316,23,1437,-391,-314,132,62,-258
0,2356540,2227,320,26,1438,-396,-315,132,62,-258
0,2356555,2227,320,26,1438,-396,-315,132,62,-258
0,2356570,2225,326,37,1442,-399,-319,140,58,-272
0,2356584,2225,318,27,1439,-395,-313,140,58,-272
0,2356597,2225,318,27,1439,-395,-313,140,58,-272
0,2356613,2225,319,27,1443,-400,-315,140,58,-272
0,2356628,2222,317,21,1442,-395,-319,140,58,-272
0,2356639,2222,322,24,1434,-406,-320,140,58,-272
0,2356651,2222,322,24,1434,-406,-320,140,58,-272
0,2356665,2224,315,26,1432,-405,-326,140,58,-272
0,2356679,2227,322,31,1431,-398,-319,131,65,-273
0,2356695,2227,322,31,1431,-398,-319,131,65,-273
0,2356710,2227,317,27,1430,-390,-310,131,65,-273
0,2356722,2224,321,27,1434,-393,-315,131,65,-273
0,2356730,2224,321,27,1434,-393,-315,131,65,-273
0,2356743,2224,316,26,1438,-399,-316,131,65,-273
0,2356757,2224,316,26,1438,-399,-316,131,65,-273
0,2356772,2224,316,26,1438,-399,-316,131,65,-273
0,2356787,2224,314,23,1434,-402,-316,131,65,-273
0,2356801,2223,321,26,1438,-406,-315,131,65,-273
0,2356814,2223,321,26,1438,-406,-315,131,65,-273
0,2356828,2221,320,28,1440,-399,-318,135,61,-275
0,2356843,2220,322,30,1439,-388,-309,135,61,-275
0,2356856,2220,322,30,1439,-388,-309,135,61,-275
0,2356871,2222,317,30,1437,-394,-319,135,61,-275
0,2356885,2226,323,24,1434,-400,-310,135,61,-275
0,2356899,2227,314,28,1435,-394,-317,135,61,-275
0,2356914,2227,314,28,1435,-394,-317,135,61,-275
0,2356928,2225,324,24,1432,-394,-314,135,61,-275
0,2356943,2225,326,27,1436,-403,-314,137,65,-277
0,2356959,2223,331,21,1437,-397,-312,137,65,-277
0,2356974,2223,331,21,1437,-397,-312,137,65,-277
0,2356988,2223,331,21,1437,-397,-312,137,65,-277
0,2357001,2223,330,26,1427,-394,-316,137,65,-277
0,2357015,2223,330,26,1427,-394,-316,137,65,-277
0,2357028,2223,334,22,1425,-395,-318,137,65,-277
0,2357041,2223,336,20,1428,-403,-316,137,65,-277
0,2357053,2223,336,20,1428,-403,-316,137,65,-277
0,2357067,2223,339,26,1440,-398,-310,140,60,-286
0,2357082,2222,353,34,1429,-392,-303,140,60,-286
0,2357096,2222,353,34,1429,-392,-303,140,60,-286
0,2357110,2223,349,25,1440,-397,-316,140,60,-286
0,2357123,2225,342,27,1440,-395,-327,140,60,-286
0,2357137,2225,342,27,1440,-395,-327,140,60,-286
0,2357152,2225,338,22,1441,-399,-323,140,60,-286
0,2357168,2224,344,29,1442,-395,-309,140,60,-286
0,2357179,2224,344,29,1442,-395,-309,140,60,-286
0,2357193,2224,344,29,1442,-395,-309,140,60,-286
0,2357209,2224,336,30,1445,-395,-314,139,67,-291
0,2357223,2226,329,26,1448,-400,-313,139,67,-291
0,2357236,2226,329,26,1448,-400,-313,139,67,-291
0,2357251,2222,332,27,1444,-392,-316,139,67,-291
0,2357261,2221,333,28,1442,-405,-310,139,67,-291
0,2357274,2221,333,28,1442,-405,-310,139,67,-291
0,2357288,2221,334,31,1443,-399,-313,139,67,-291
0,2357303,2227,331,26,1439,-400,-320,139,67,-291
0,2357317,2227,331,26,1439,-400,-320,139,67,-291
0,2357331,2224,328,33,1434,-398,-316,136,62,-290
0,2357348,2223,331,33,1442,-399,-317,136,62,-290
0,2357361,2222,330,28,1436,-398,-318,136,62,-290
0,2357373,2222,330,28,1436,-398,-318,136,62,-290
0,2357389,2226,323,32,1440,-395,-321,136,62,-290
0,2357403,2226,320,32,1436,-397,-314,136,62,-290
0,2357419,2226,320,32,1436,-397,-314,136,62,-290
0,2357430,2223,323,23,1441,-398,-319,136,62,-290
0,2357444,2222,308,20,1431,-401,-325,136,62,-290
0,2357459,2222,308,20,1431,-401,-325,136,62,-290
0,2357473,2224,320,30,1430,-399,-314,132,58,-288
0,2357487,2226,312,29,1439,-403,-312,132,58,-288
0,2357501,2223,324,30,1438,-398,-315,132,58,-288
0,2357516,2223,324,30,1438,-398,-315,132,58,-288
0,2357530,2227,310,29,1440,-400,-311,132,58,-288
0,2357543,2227,310,29,1440,-400,-311,132,58,-288
0,2357558,2227,310,29,1440,-400,-311,132,58,-288
0,2357572,2223,317,30,1446,-404,-310,132,58,-288
0,2357585,2221,318,26,1441,-402,-315,142,58,-294
0,2357600,2225,313,32,1446,-400,-317,142,58,-294
0,2357614,2225,313,32,1446,-400,-317,142,58,-294
0,2357630,2225,316,31,1430,-407,-316,142,58,-294
0,2357646,2226,308,27,1430,-400,-319,142,58,-294
0,2357661,2224,315,32,1434,-406,-320,142,58,-294
0,2357676,2224,315,32,1434,-406,-320,142,58,-294
0,2357690,2223,317,22,1443,-401,-319,142,58,-294
0,2357704,2226,314,32,1438,-396,-316,149,61,-301
0,2357719,2226,314,32,1438,-396,-316,149,61,-301
0,2357732,2226,310,33,1435,-408,-325,149,61,-301
0,2357745,2223,317,29,1441,-401,-321,149,61,-301
0,2357758,2223,317,29,1441,-401,-321,149,61,-301
0,2357773,2226,317,30,1434,-404,-314,149,61,-301
0,2357786,2226,310,28,1434,-398,-310,149,61,-301
0,2357798,2226,310,28,1434,-398,-310,149,61,-301
0,2357812,2228,311,23,1436,-399,-305,149,61,-301
0,2357825,2225,311,22,1435,-402,-320,149,61,-301
0,2357840,2227,317,34,1428,-396,-317,149,61,-301
0,2357854,2227,317,34,1428,-396,-317,140,52,-300
0,2357865,2224,311,26,1442,-399,-315,140,52,-300
0,2357880,2225,308,29,1429,-401,-309,140,52,-300
0,2357895,2225,308,29,1429,-401,-309,140,52,-300
0,2357909,2226,309,29,1433,-396,-314,140,52,-300
0,2357923,2224,312,28,1430,-399,-315,140,52,-300
0,2357937,2224,312,28,1430,-399,-315,140,52,-300
0,2357950,2225,316,24,1432,-407,-316,140,52,-300
0,2357961,2224,315,29,1428,-402,-312,129,57,-303
0,2357976,2224,315,29,1428,-402,-312,129,57,-303
0,2357990,2224,315,29,1428,-402,-312,129,57,-303
0,2358004,2225,339,29,1423,-395,-317,129,57,-303
0,2358019,2225,339,29,1423,-395,-317,129,57,-303
0,2358032,2227,314,22,1422,-397,-316,129,57,-303
0,2358044,2225,324,25,1428,-399,-321,129,57,-303
0,2358060,2225,324,25,1428,-399,-321,129,57,-303
0,2358076,2229,314,28,1430,-400,-317,129,57,-303
0,2358091,2223,331,28,1427,-399,-316,129,57,-303
0,2358107,2226,327,32,1431,-395,-309,143,59,-319
0,2358119,2226,327,32,1431,-395,-309,143,59,-319
0,2358132,2225,328,34,1428,-403,-319,143,59,-319
0,2358147,2227,327,28,1434,-401,-313,143,59,-319
0,2358161,2224,337,29,1428,-394,-315,143,59,-319
0,2358174,2224,337,29,1428,-394,-315,143,59,-319
0,2358189,2225,337,29,1424,-402,-322,143,59,-319
0,2358203,2227,332,24,1431,-397,-312,143,59,-319
0,2358215,2227,332,24,1431,-397,-312,143,59,-319
0,2358227,2229,333,26,1427,-398,-320,140,54,-308
0,2358244,2224,348,28,1424,-404,-310,140,54,-308
0,2358258,2224,348,28,1424,-404,-310,140,54,-308
0,2358274,2222,350,29,1443,-395,-314,140,54,-308
0,2358288,2223,345,33,1432,-392,-312,140,54,-308
0,2358303,2225,336,30,1445,-396,-313,140,54,-308
0,2358319,2225,336,30,1445,-396,-313,140,54,-308
0,2358334,2225,340,29,1435,-397,-314,140,54,-308
0,2358349,2222,345,29,1437,-401,-321,140,54,-308
0,2358363,2223,340,37,1428,-401,-315,141,49,-319
0,2358377,2223,340,37,1428,-401,-315,141,49,-319
0,2358392,2227,330,27,1432,-395,-324,141,49,-319
0,2358407,2224,332,33,1433,-398,-319,141,49,-319
0,2358419,2224,332,33,1433,-398,-319,141,49,-319
0,2358431,2220,337,35,1435,-401,-321,141,49,-319
0,2358446,2223,338,34,1431,-398,-319,141,49,-319
0,2358460,2223,338,34,1431,-398,-319,141,49,-319
0,2358474,2223,334,29,1442,-396,-315,141,49,-319
0,2358488,2227,330,35,1443,-402,-313,143,47,-325
0,2358500,2227,330,35,1443,-402,-313,143,47,-325
0,2358513,2224,335,33,1444,-404,-314,143,47,-325
0,2358529,2223,339,25,1443,-392,-314,143,47,-325
0,2358544,2224,334,26,1444,-393,-314,143,47,-325
0,2358559,2224,334,26,1444,-393,-314,143,47,-325
0,2358574,2225,337,24,1438,-392,-306,143,47,-325
0,2358587,2223,340,31,1441,-396,-314,143,47,-325
0,2358602,2224,338,32,1440,-407,-309,141,45,-321
0,2358618,2224,338,32,1440,-407,-309,141,45,-321
0,2358633,2224,338,32,1440,-407,-309,141,45,-321
0,2358647,2226,333,28,1445,-394,-321,141,45,-321
0,2358662,2225,332,32,1437,-401,-311,141,45,-321
0,2358675,2225,332,32,1437,-401,-311,141,45,-321
0,2358689,2223,339,35,1442,-396,-316,141,45,-321
0,2358700,2223,339,35,1442,-396,-316,141,45,-321
0,2358713,2223,333,32,1436,-395,-314,141,45,-321
0,2358727,2224,330,32,1436,-400,-316,141,45,-321
0,2358742,2225,329,37,1436,-403,-319,131,47,-325
0,2358756,2225,329,37,1436,-403,-319,131,47,-325
0,2358771,2225,330,35,1449,-397,-316,131,47,-325
0,2358786,2228,323,33,1450,-392,-312,131,47,-325
0,2358800,2228,323,33,1450,-392,-312,131,47,-325
0,2358813,2226,319,33,1444,-397,-315,131,47,-325
0,2358829,2227,319,28,1442,-395,-320,131,47,-325
0,2358845,2226,323,31,1438,-396,-318,131,47,-325
0,2358859,2226,323,31,1438,-396,-318,131,47,-325
0,2358872,2227,328,33,1444,-393,-313,142,44,-330
0,2358884,2227,326,36,1448,-395,-315,142,44,-330
0,2358897,2227,326,36,1448,-395,-315,142,44,-330
0,2358912,2229,321,34,1442,-395,-313,142,44,-330
0,2358926,2228,321,32,1445,-395,-315,142,44,-330
0,2358940,2228,321,32,1445,-395,-315,142,44,-330
0,2358953,2224,322,32,1443,-403,-311,142,44,-330
0,2358966,2226,320,25,1438,-407,-312,142,44,-330
0,2358981,2226,320,25,1438,-407,-312,142,44,-330
0,2358999,2226,322,28,1433,-398,-313,142,44,-330
0,2359013,2226,314,34,1439,-393,-315,132,50,-336
0,2359029,2224,319,32,1439,-394,-311,132,50,-336
0,2359045,2223,322,30,1440,-393,-320,132,50,-336
0,2359057,2223,322,30,1440,-393,-320,132,50,-336
0,2359071,2227,322,27,1440,-388,-310,132,50,-336
0,2359086,2226,314,30,1440,-398,-319,132,50,-336
0,2359100,2226,314,30,1440,-398,-319,132,50,-336
0,2359114,2226,321,33,1444,-391,-320,132,50,-336
0,2359129,2229,321,38,1445,-395,-320,143,47,-339
0,2359143,2226,324,31,1441,-394,-319,143,47,-339
0,2359155,2226,324,31,1441,-394,-319,143,47,-339
0,2359166,2228,313,31,1436,-391,-326,143,47,-339
0,2359181,2228,313,31,1436,-391,-326,143,47,-339
0,2359191,2226,320,26,1439,-392,-315,143,47,-339
0,2359204,2227,315,33,1443,-394,-321,143,47,-339
0,2359218,2227,315,33,1443,-394,-321,143,47,-339
0,2359232,2227,312,33,1440,-398,-318,143,47,-339
0,2359247,2228,302,24,1446,-401,-321,143,47,-339
0,2359264,2224,310,29,1443,-395,-318,140,48,-338
0,2359278,2224,310,29,1443,-395,-318,140,48,-338
0,2359291,2229,303,34,1444,-401,-316,140,48,-338
0,2359306,2230,308,30,1445,-398,-314,140,48,-338
0,2359318,2230,308,30,1445,-398,-314,140,48,-338
0,2359331,2227,302,30,1435,-399,-316,140,48,-338
0,2359348,2227,301,30,1442,-393,-317,140,48,-338
0,2359362,2226,302,30,1441,-392,-317,140,48,-338
0,2359374,2226,302,30,1441,-392,-317,140,48,-338
0,2359383,2230,300,28,1422,-397,-312,134,46,-342
0,2359396,2230,300,28,1422,-397,-312,134,46,-342
0,2359410,2227,300,27,1429,-395,-321,134,46,-342
0,2359425,2226,301,31,1429,-392,-315,134,46,-342
0,2359437,2226,301,31,1429,-392,-315,134,46,-342
0,2359450,2228,306,30,1431,-396,-314,134,46,-342
0,2359464,2228,307,33,1425,-394,-313,134,46,-342
0,2359478,2228,307,33,1425,-394,-313,134,46,-342
0,2359493,2227,308,28,1425,-394,-313,134,46,-342
0,2359508,2228,311,29,1427,-391,-316,140,54,-344
0,2359523,2224,314,33,1427,-397,-316,140,54,-344
0,2359536,2224,314,33,1427,-397,-316,140,54,-344
0,2359550,2224,345,28,1422,-391,-315,140,54,-344
0,2359566,2226,311,26,1428,-400,-318,140,54,-344
0,2359581,2226,311,26,1428,-400,-318,140,54,-344
0,2359596,2227,323,27,1439,-395,-330,140,54,-344
0,2359608,2228,329,28,1433,-398,-321,140,54,-344
0,2359621,2228,329,28,1433,-398,-321,140,54,-344
0,2359635,2220,331,28,1424,-396,-313,140,54,-344
0,2359650,2227,330,27,1425,-396,-317,133,55,-345
0,2359664,2230,329,31,1424,-401,-310,133,55,-345
0,2359678,2230,329,31,1424,-401,-310,133,55,-345
0,2359692,2228,347,33,1428,-402,-313,133,55,-345
0,2359704,2225,334,27,1429,-403,-313,133,55,-345
0,2359718,2225,334,27,1429,-403,-313,133,55,-345
0,2359731,2224,353,29,1430,-404,-316,133,55,-345
0,2359745,2229,353,30,1427,-400,-319,133,55,-345
0,2359759,2229,353,30,1427,-400,-319,133,55,-345
0,2359775,2222,357,29,1431,-398,-314,133,41,-353
0,2359790,2225,345,36,1432,-397,-316,133,41,-353
0,2359806,2222,357,28,1430,-398,-314,133,41,-353
0,2359821,2222,357,28,1430,-398,-314,133,41,-353
0,2359835,2226,344,28,1431,-399,-316,133,41,-353
0,2359849,2225,346,28,1426,-399,-325,133,41,-353
0,2359864,2228,341,25,1432,-400,-319,133,41,-353
0,2359878,2228,341,25,1432,-400,-319,133,41,-353
0,2359889,2222,357,23,1438,-394,-319,133,41,-353
0,2359903,2222,347,36,1439,-395,-315,140,48,-348
0,2359917,2222,347,36,1439,-395,-315,140,48,-348
0,2359929,2224,349,30,1438,-396,-317,140,48,-348
0,2359946,2226,342,26,1437,-394,-324,140,48,-348
0,2359960,2226,342,26,1437,-394,-324,140,48,-348
0,2359976,2224,351,30,1446,-392,-313,140,48,-348
0,2359991,2224,335,27,1448,-394,-318,140,48,-348
0,2360006,2226,339,29,1442,-396,-317,140,48,-348
0,2360019,2226,339,29,1442,-396,-317,140,48,-348
0,2360035,2228,335,35,1447,-397,-315,142,54,-350
0,2360050,2224,339,43,1441,-400,-321,142,54,-350
0,2360066,2225,331,35,1434,-400,-319,142,54,-350
0,2360077,2225,331,35,1434,-400,-319,142,54,-350
0,2360090,2220,342,29,1446,-400,-312,142,54,-350
0,2360103,2226,326,36,1445,-396,-315,142,54,-350
0,2360118,2226,326,36,1445,-396,-315,142,54,-350
0,2360132,2226,325,28,1440,-395,-319,142,54,-350
0,2360144,2229,326,37,1437,-401,-319,142,54,-350
0,2360156,2229,326,37,1437,-401,-319,142,54,-350
0,2360171,2225,323,35,1438,-400,-315,143,61,-361
0,2360186,2225,323,35,1438,-400,-315,143,61,-361
0,2360200,2225,323,35,1438,-400,-315,143,61,-361
0,2360213,2226,319,28,1452,-392,-314,143,61,-361
0,2360228,2229,324,29,1447,-403,-312,143,61,-361
0,2360244,2226,311,31,1436,-402,-317,143,61,-361
0,2360259,2226,311,31,1436,-402,-317,143,61,-361
0,2360272,2230,317,33,1440,-400,-326,143,61,-361
0,2360286,2228,312,35,1438,-396,-314,153,53,-365
0,2360300,2228,312,35,1438,-396,-314,153,53,-365
0,2360313,2227,322,28,1440,-398,-314,153,53,-365
0,2360326,2225,305,26,1439,-399,-316,153,53,-365
0,2360339,2225,305,26,1439,-399,-316,153,53,-365
0,2360353,2229,310,26,1430,-399,-320,153,53,-365
0,2360367,2229,300,26,1443,-400,-321,153,53,-365
0,2360381,2229,300,26,1443,-400,-321,153,53,-365
0,2360393,2228,313,29,1445,-396,-312,153,53,-365
0,2360407,2226,302,33,1441,-389,-315,153,59,-375
0,2360422,2226,302,33,1441,-389,-315,153,59,-375
0,2360437,2233,307,39,1439,-391,-318,153,59,-375
0,2360453,2232,302,26,1436,-399,-317,153,59,-375
0,2360467,2228,316,32,1436,-405,-313,153,59,-375
0,2360479,2228,316,32,1436,-405,-313,153,59,-375
0,2360494,2227,311,31,1436,-399,-315,153,59,-375
0,2360508,2230,313,26,1432,-398,-321,153,59,-375
0,2360521,2230,313,26,1432,-398,-321,153,59,-375
0,2360536,2228,310,30,1442,-394,-317,153,59,-375
0,2360549,2232,312,31,1442,-397,-315,160,50,-366
0,2360562,2232,312,31,1442,-397,-315,160,50,-366
0,2360577,2224,315,30,1437,-399,-317,160,50,-366
0,2360590,2229,317,31,1433,-395,-319,160,50,-366
0,2360605,2228,309,24,1436,-403,-322,160,50,-366
0,2360617,2228,309,24,1436,-403,-322,160,50,-366
0,2360630,2226,315,29,1435,-398,-320,160,50,-366
0,2360645,2227,319,32,1428,-396,-320,160,50,-366
0,2360659,2227,319,32,1428,-396,-320,160,50,-366
0,2360674,2227,319,32,1428,-396,-320,165,63,-375
0,2360688,2228,317,29,1427,-404,-312,165,63,-375
0,2360701,2228,317,29,1427,-404,-312,165,63,-375
0,2360714,2229,328,27,1427,-404,-315,165,63,-375
0,2360726,2226,330,30,1430,-395,-313,165,63,-375
0,2360740,2226,330,30,1430,-395,-313,165,63,-375
0,2360755,2227,324,24,1431,-395,-317,165,63,-375
0,2360769,2225,321,26,1430,-397,-319,165,63,-375
0,2360782,2225,321,26,1430,-397,-319,165,63,-375
0,2360796,2228,334,29,1427,-394,-314,165,63,-375
0,2360808,2224,333,31,1430,-395,-314,174,60,-378
0,2360821,2224,333,31,1430,-395,-314,174,60,-378
0,2360836,2228,335,33,1428,-397,-319,174,60,-378
0,2360850,2227,341,25,1422,-399,-318,174,60,-378
0,2360863,2227,341,25,1422,-399,-318,174,60,-378
0,2360877,2228,353,26,1425,-397,-314,174,60,-378
0,2360891,2223,376,27,1429,-394,-318,174,60,-378
0,2360907,2225,359,31,1426,-396,-315,174,60,-378
0,2360923,2225,359,31,1426,-396,-315,174,60,-378
0,2360938,2226,348,33,1425,-401,-320,167,61,-385
0,2360951,2227,352,28,1438,-403,-312,167,61,-385
0,2360963,2227,352,28,1438,-403,-312,167,61,-385
0,2360977,2224,357,27,1447,-398,-306,167,61,-385
0,2360991,2225,355,29,1438,-395,-316,167,61,-385
0,2361006,2228,345,31,1438,-393,-322,167,61,-385
0,2361020,2228,345,31,1438,-393,-322,167,61,-385
0,2361033,2227,344,29,1442,-401,-318,167,61,-385
0,2361047,2228,345,31,1433,-394,-314,171,53,-375
0,2361059,2228,345,31,1433,-394,-314,171,53,-375
0,2361073,2224,355,29,1436,-405,-312,171,53,-375
0,2361088,2226,341,31,1435,-398,-312,171,53,-375
0,2361102,2226,341,31,1435,-398,-312,171,53,-375
0,2361110,2227,338,33,1430,-400,-318,171,53,-375
0,2361118,2227,338,33,1430,-400,-318,171,53,-375
0,2361134,2230,341,33,1434,-404,-305,171,53,-375
0,2361149,2221,346,28,1434,-398,-305,171,53,-375
0,2361164,2226,334,33,1440,-392,-312,171,53,-375
0,2361179,2226,334,33,1440,-392,-312,171,53,-375
0,2361193,2228,333,28,1436,-398,-315,188,62,-388
0,2361207,2227,331,35,1438,-391,-312,188,62,-388
0,2361222,2227,331,35,1438,-391,-312,188,62,-388
0,2361234,2226,336,28,1443,-395,-317,188,62,-388
0,2361248,2229,331,31,1446,-396,-317,188,62,-388
0,2361264,2229,331,31,1446,-396,-317,188,62,-388
0,2361277,2226,331,25,1444,-400,-315,188,62,-388
0,2361291,2226,329,34,1438,-404,-316,188,62,-388
0,2361305,2227,335,35,1446,-395,-321,195,51,-381
0,2361320,2227,335,35,1446,-395,-321,195,51,-381
0,2361335,2225,326,34,1441,-393,-321,195,51,-381
0,2361351,2227,323,33,1439,-399,-323,195,51,-381
0,2361366,2224,325,28,1436,-398,-319,195,51,-381
0,2361378,2224,325,28,1436,-398,-319,195,51,-381
0,2361393,2223,332,28,1442,-401,-309,195,51,-381
0,2361408,2232,327,32,1452,-398,-312,195,51,-381
0,2361421,2232,327,32,1452,-398,-312,195,51,-381
0,2361434,2225,325,32,1448,-402,-314,195,51,-381
0,2361447,2227,322,33,1439,-403,-312,193,55,-391
0,2361460,2227,322,33,1439,-403,-312,193,55,-391
0,2361475,2228,333,31,1441,-400,-308,193,55,-391
0,2361489,2230,331,30,1439,-402,-309,193,55,-391
0,2361503,2230,331,30,1439,-402,-309,193,55,-391
0,2361515,2223,327,32,1445,-394,-315,193,55,-391
0,2361528,2229,324,33,1448,-393,-317,193,55,-391
0,2361542,2229,324,33,1448,-393,-317,193,55,-391
0,2361556,2222,328,27,1439,-399,-313,193,55,-391
0,2361571,2229,329,34,1441,-397,-317,199,51,-385
0,2361582,2229,329,34,1441,-397,-317,199,51,-385
0,2361595,2229,328,31,1438,-394,-323,199,51,-385
0,2361612,2230,327,28,1441,-398,-316,199,51,-385
0,2361627,2225,329,29,1443,-397,-318,199,51,-385
0,2361643,2225,329,29,1443,-397,-318,199,51,-385
0,2361658,2229,329,30,1442,-398,-321,199,51,-385
0,2361668,2224,327,31,1439,-404,-318,199,51,-385
0,2361682,2224,327,31,1439,-404,-318,199,51,-385
0,2361696,2227,330,31,1442,-399,-314,199,51,-385
0,2361709,2227,327,32,1444,-398,-313,193,53,-385
0,2361723,2227,327,32,1444,-398,-313,193,53,-385
0,2361737,2228,327,33,1447,-393,-312,193,53,-385
0,2361749,2225,321,30,1436,-393,-316,193,53,-385
0,2361762,2225,321,30,1436,-393,-316,193,53,-385
0,2361778,2227,324,35,1446,-396,-315,193,53,-385
0,2361791,2232,333,32,1448,-400,-313,193,53,-385
0,2361805,2230,331,30,1445,-392,-315,193,53,-385
0,2361822,2230,331,30,1445,-392,-315,193,53,-385
0,2361837,2225,328,35,1442,-400,-313,199,53,-387
0,2361852,2228,326,39,1446,-395,-313,199,53,-387
0,2361869,2226,331,31,1433,-390,-318,199,53,-387
0,2361883,2226,331,31,1433,-390,-318,199,53,-387
0,2361897,2227,331,29,1429,-397,-315,199,53,-387
0,2361912,2227,328,26,1433,-396,-307,199,53,-387
0,2361926,2228,321,29,1430,-399,-317,199,53,-387
0,2361939,2228,321,29,1430,-399,-317,199,53,-387
0,2361952,2225,327,29,1444,-395,-316,198,54,-382
0,2361966,2226,333,33,1436,-394,-321,198,54,-382
0,2361979,2226,333,33,1436,-394,-321,198,54,-382
0,2361994,2225,330,35,1438,-400,-311,198,54,-382
0,2362008,2225,331,31,1436,-398,-322,198,54,-382
0,2362021,2225,331,31,1436,-398,-322,198,54,-382
0,2362034,2228,327,34,1431,-396,-319,198,54,-382
0,2362047,2226,324,32,1439,-400,-320,198,54,-382
0,2362062,2226,324,32,1439,-400,-320,198,54,-382
0,2362077,2227,325,28,1441,-393,-324,198,54,-382
0,2362091,2226,325,39,1438,-404,-310,199,53,-377
0,2362106,2225,327,33,1442,-400,-308,199,53,-377
0,2362121,2225,327,33,1442,-400,-308,199,53,-377
0,2362136,2227,326,26,1434,-407,-318,199,53,-377
0,2362151,2225,326,29,1434,-397,-320,199,53,-377
0,2362165,2225,326,29,1434,-397,-320,199,53,-377
0,2362179,2226,326,36,1433,-397,-311,199,53,-377
0,2362192,2227,329,26,1429,-399,-308,199,53,-377
0,2362208,2228,329,29,1434,-398,-314,208,58,-376
0,2362222,2228,329,29,1434,-398,-314,208,58,-376
0,2362234,2230,327,35,1438,-393,-314,208,58,-376
0,2362249,2227,326,33,1443,-403,-320,208,58,-376
0,2362262,2227,326,33,1443,-403,-320,208,58,-376
0,2362276,2224,325,31,1442,-398,-321,208,58,-376
0,2362291,2225,325,27,1426,-401,-319,208,58,-376
0,2362305,2225,325,27,1426,-401,-319,208,58,-376
0,2362317,2229,326,23,1435,-401,-308,208,58,-376
0,2362329,2227,322,28,1435,-400,-314,208,58,-376
0,2362343,2227,322,28,1435,-400,-314,208,58,-376
0,2362357,2228,324,38,1428,-405,-314,212,46,-376
0,2362373,2227,329,29,1434,-400,-315,212,46,-376
0,2362388,2225,335,27,1438,-397,-316,212,46,-376
0,2362404,2225,335,27,1438,-397,-316,212,46,-376
0,2362419,2228,334,25,1435,-400,-317,212,46,-376
0,2362433,2225,338,31,1439,-399,-318,212,46,-376
0,2362446,2223,341,28,1435,-399,-317,212,46,-376
0,2362461,2223,341,28,1435,-399,-317,212,46,-376
0,2362474,2222,337,37,1437,-396,-319,205,51,-381
0,2362488,2224,340,31,1436,-396,-318,205,51,-381
0,2362505,2224,340,31,1436,-396,-318,205,51,-381
0,2362517,2227,335,26,1433,-394,-312,205,51,-381
0,2362531,2227,335,28,1445,-394,-315,205,51,-381
0,2362545,2227,335,28,1445,-394,-315,205,51,-381
0,2362560,2224,339,29,1441,-397,-318,205,51,-381
0,2362575,2227,339,26,1448,-394,-318,205,51,-381
0,2362590,2227,335,25,1441,-393,-323,205,51,-381
0,2362601,2227,335,25,1441,-393,-323,205,51,-381
0,2362612,2227,339,33,1436,-400,-310,208,56,-370
0,2362627,2226,340,29,1436,-399,-320,208,56,-370
0,2362640,2226,340,29,1436,-399,-320,208,56,-370
0,2362656,2229,340,30,1446,-400,-312,208,56,-370
0,2362672,2229,340,30,1446,-400,-312,208,56,-370
0,2362686,2227,339,30,1449,-399,-313,208,56,-370
0,2362700,2227,339,30,1449,-399,-313,208,56,-370
0,2362715,2225,340,28,1442,-393,-314,208,56,-370
0,2362729,2223,338,36,1443,-390,-318,208,48,-370
0,2362743,2223,338,36,1443,-390,-318,208,48,-370
0,2362753,2222,336,34,1438,-390,-321,208,48,-370
0,2362761,2222,336,34,1438,-390,-321,208,48,-370
0,2362774,2224,339,28,1438,-398,-317,208,48,-370
0,2362785,2224,339,28,1438,-398,-317,208,48,-370
0,2362801,2227,345,30,1445,-394,-318,208,48,-370
0,2362816,2226,339,31,1445,-394,-319,208,48,-370
0,2362831,2226,335,31,1446,-393,-311,208,48,-370
0,2362843,2226,335,31,1446,-393,-311,208,48,-370
0,2362858,2226,333,33,1458,-394,-315,217,43,-373
0,2362873,2225,327,32,1449,-406,-319,217,43,-373
0,2362888,2227,327,33,1441,-403,-324,217,43,-373
0,2362901,2227,327,33,1441,-403,-324,217,43,-373
0,2362915,2227,328,29,1441,-407,-318,217,43,-373
0,2362928,2226,319,28,1444,-395,-316,217,43,-373
0,2362943,2226,319,28,1444,-395,-316,217,43,-373
0,2362958,2229,317,29,1439,-396,-310,217,43,-373
0,2362973,2227,328,26,1448,-401,-315,217,43,-373
0,2362986,2227,328,26,1448,-401,-315,217,43,-373
0,2363000,2225,332,36,1446,-391,-314,220,50,-374
0,2363013,2227,314,28,1445,-402,-317,220,50,-374
0,2363028,2225,325,32,1445,-399,-326,220,50,-374
0,2363044,2225,325,32,1445,-399,-326,220,50,-374
0,2363060,2226,314,32,1454,-403,-317,220,50,-374
0,2363075,2224,318,30,1440,-394,-319,220,50,-374
0,2363091,2229,308,22,1446,-398,-314,220,50,-374
0,2363107,2228,311,25,1447,-399,-327,220,50,-374
0,2363121,2228,311,25,1447,-399,-327,214,50,-370
0,2363134,2229,302,32,1446,-386,-315,214,50,-370
0,2363149,2224,312,31,1436,-400,-310,214,50,-370
0,2363164,2224,312,31,1436,-400,-310,214,50,-370
0,2363175,2228,309,30,1439,-401,-320,214,50,-370
0,2363190,2227,310,31,1435,-397,-314,214,50,-370
0,2363204,2227,310,31,1435,-397,-314,214,50,-370
0,2363218,2228,299,26,1441,-403,-314,214,50,-370
0,2363232,2226,306,22,1447,-393,-313,214,50,-370
0,2363246,2230,307,29,1446,-394,-313,222,50,-370
0,2363257,2230,307,29,1446,-394,-313,222,50,-366
0,2363272,2224,304,26,1432,-397,-314,222,50,-366
0,2363286,2224,304,26,1432,-397,-314,222,50,-366
0,2363300,2228,303,26,1434,-392,-316,222,50,-366
0,2363315,2227,312,22,1433,-385,-315,222,50,-366
0,2363329,2226,313,24,1430,-401,-317,222,50,-366
0,2363344,2226,313,24,1430,-401,-317,222,50,-366
0,2363361,2229,319,27,1427,-397,-317,222,50,-366
0,2363376,2222,344,30,1434,-401,-324,219,57,-355
0,2363392,2229,316,32,1423,-401,-317,219,57,-355
0,2363406,2229,316,32,1423,-401,-317,219,57,-355
0,2363420,2226,322,30,1422,-403,-313,219,57,-355
0,2363435,2229,335,25,1426,-398,-321,219,57,-355
0,2363448,2229,335,25,1426,-398,-321,219,57,-355
0,2363462,2229,335,25,1426,-398,-321,219,57,-355
0,2363476,2229,324,23,1436,-396,-313,219,57,-355
0,2363489,2230,323,25,1432,-397,-323,219,57,-355
0,2363503,2230,323,25,1432,-397,-323,219,57,-355
0,2363515,2225,340,29,1422,-404,-317,216,42,-366
0,2363530,2228,333,32,1428,-397,-312,216,42,-366
0,2363545,2228,333,32,1428,-397,-312,216,42,-366
0,2363558,2223,350,30,1429,-398,-317,216,42,-366
0,2363574,2228,337,27,1434,-392,-315,216,42,-366
0,2363589,2222,344,29,1433,-397,-314,216,42,-366
0,2363603,2222,344,29,1433,-397,-314,216,42,-366
0,2363619,2223,352,26,1436,-402,-320,216,42,-366
0,2363633,2221,368,26,1434,-394,-321,226,50,-368
0,2363644,2221,368,26,1434,-394,-321,226,50,-368
0,2363660,2226,346,32,1438,-391,-322,226,50,-368
0,2363674,2224,346,27,1432,-392,-312,226,50,-368
0,2363688,2224,352,26,1433,-396,-320,226,50,-368
0,2363703,2224,352,26,1433,-396,-320,226,50,-368
0,2363716,2222,362,30,1433,-402,-310,226,50,-368
0,2363727,2223,352,29,1433,-395,-322,226,50,-368
0,2363742,2223,352,29,1433,-395,-322,226,50,-368
0,2363755,2225,347,26,1440,-396,-322,243,51,-361
0,2363765,2225,347,26,1440,-396,-322,243,51,-361
0,2363778,2225,344,34,1438,-403,-314,243,51,-361
0,2363791,2222,352,31,1442,-396,-313,243,51,-361
0,2363806,2222,352,31,1442,-396,-313,243,51,-361
0,2363821,2222,352,31,1442,-396,-313,243,51,-361
0,2363834,2227,335,31,1441,-391,-320,243,51,-361
0,2363848,2224,328,35,1443,-401,-317,243,51,-361
0,2363865,2224,328,35,1443,-401,-317,243,51,-361
0,2363880,2222,339,28,1448,-394,-317,243,51,-361
0,2363888,2225,338,32,1444,-398,-318,230,46,-362
0,2363897,2225,338,32,1444,-398,-318,230,46,-362
0,2363905,2225,338,32,1444,-398,-318,230,46,-362
0,2363913,2225,334,36,1442,-400,-321,230,46,-362
0,2363927,2225,334,36,1442,-400,-321,230,46,-362
0,2363940,2225,328,30,1444,-391,-318,230,46,-362
0,2363955,2224,331,30,1443,-397,-320,230,46,-362
0,2363969,2225,328,30,1445,-400,-321,230,46,-362
0,2363984,2225,328,30,1445,-400,-321,230,46,-362
0,2363997,2226,329,29,1448,-400,-320,230,46,-362
0,2364009,2225,310,29,1446,-399,-318,230,56,-354
0,2364024,2225,310,29,1446,-399,-318,230,56,-354
0,2364039,2230,318,31,1450,-402,-314,230,56,-354
0,2364053,2221,321,31,1457,-397,-314,230,56,-354
0,2364067,2224,324,24,1450,-394,-311,230,56,-354
0,2364083,2224,324,24,1450,-394,-311,230,56,-354
0,2364098,2225,303,26,1436,-399,-318,230,56,-354
0,2364112,2227,319,23,1434,-404,-325,230,56,-354
0,2364128,2227,319,23,1434,-404,-325,230,56,-354
0,2364142,2229,316,32,1440,-397,-316,230,56,-354
0,2364156,2219,329,35,1436,-394,-313,232,60,-362
0,2364170,2226,305,28,1441,-388,-314,232,60,-362
0,2364185,2226,305,28,1441,-388,-314,232,60,-362
0,2364198,2227,314,33,1439,-394,-321,232,60,-362
0,2364211,2229,305,25,1446,-393,-321,232,60,-362
0,2364225,2229,305,25,1446,-393,-321,232,60,-362
0,2364240,2223,311,29,1438,-394,-314,232,60,-362
0,2364254,2224,306,26,1439,-398,-317,232,60,-362
0,2364268,2222,310,33,1441,-396,-315,230,64,-352
0,2364283,2222,310,33,1441,-396,-315,230,64,-352
0,2364299,2225,305,29,1442,-394,-315,230,64,-352
0,2364315,2225,325,28,1438,-408,-312,230,64,-352
0,2364329,2226,322,25,1432,-402,-322,230,64,-352
0,2364344,2226,322,25,1432,-402,-322,230,64,-352
0,2364358,2229,312,23,1435,-396,-321,230,64,-352
0,2364374,2226,305,21,1437,-399,-327,230,64,-352
0,2364388,2226,305,21,1437,-399,-327,230,64,-352
0,2364402,2224,317,24,1432,-399,-318,229,61,-361
0,2364418,2224,316,28,1425,-396,-317,229,61,-361
0,2364429,2225,305,24,1428,-392,-317,229,61,-361
0,2364444,2225,305,24,1428,-392,-317,229,61,-361
0,2364456,2227,314,25,1425,-404,-315,229,61,-361
0,2364471,2225,312,27,1432,-402,-313,229,61,-361
0,2364486,2225,312,27,1432,-402,-313,229,61,-361
0,2364496,2224,317,22,1436,-407,-316,229,61,-361
0,2364511,2227,313,23,1429,-403,-314,229,61,-361
0,2364526,2227,313,23,1429,-403,-314,229,61,-361
0,2364541,2229,336,29,1430,-403,-313,243,61,-349
0,2364556,2226,321,27,1433,-403,-320,243,61,-349
0,2364568,2226,321,27,1433,-403,-320,243,61,-349
0,2364576,2226,325,22,1422,-394,-326,243,61,-349
0,2364584,2226,325,22,1422,-394,-326,243,61,-349
0,2364600,2225,316,24,1432,-393,-329,243,61,-349
0,2364614,2222,339,28,1429,-398,-315,243,61,-349
0,2364628,2224,320,19,1432,-399,-313,243,61,-349
0,2364642,2224,320,19,1432,-399,-313,243,61,-349
0,2364651,2224,335,27,1422,-398,-317,239,75,-347
0,2364664,2224,335,27,1422,-398,-317,239,75,-347
0,2364679,2225,331,31,1430,-403,-327,239,75,-347
0,2364692,2217,339,30,1432,-410,-321,239,75,-347
0,2364706,2217,339,30,1432,-410,-321,239,75,-347
0,2364721,2225,347,22,1433,-408,-318,239,75,-347
0,2364734,2221,368,23,1431,-397,-324,239,75,-347
0,2364746,2221,368,23,1431,-397,-324,239,75,-347
0,2364762,2224,350,26,1435,-395,-322,239,75,-347
0,2364779,2224,342,25,1441,-394,-314,239,75,-347
0,2364793,2225,352,30,1439,-399,-313,244,68,-350
0,2364809,2225,352,30,1439,-399,-313,244,68,-350
0,2364821,2225,350,28,1440,-410,-314,244,68,-350
0,2364835,2223,341,35,1442,-397,-328,244,68,-350
0,2364850,2225,336,28,1438,-396,-316,244,68,-350
0,2364864,2225,336,28,1438,-396,-316,244,68,-350
0,2364877,2224,340,22,1434,-394,-316,244,68,-350
0,2364892,2223,336,29,1442,-402,-316,244,68,-350
0,2364906,2223,336,29,1442,-402,-316,244,68,-350
0,2364918,2224,342,31,1449,-395,-316,235,73,-345
0,2364931,2225,337,37,1442,-402,-316,235,73,-345
0,2364945,2225,337,37,1442,-402,-316,235,73,-345
0,2364959,2226,334,28,1441,-400,-320,235,73,-345
0,2364974,2224,332,27,1443,-398,-320,235,73,-345
0,2364988,2224,332,27,1443,-398,-320,235,73,-345
0,2365003,2222,337,33,1437,-402,-321,235,73,-345
0,2365019,2223,331,23,1444,-396,-315,235,73,-345
0,2365035,2222,328,28,1447,-392,-318,235,73,-345
0,2365050,2222,324,35,1458,-398,-315,247,75,-345
0,2365064,2222,324,35,1458,-398,-315,247,75,-345
0,2365078,2223,327,26,1439,-394,-320,247,75,-345
0,2365092,2224,324,26,1438,-397,-311,247,75,-345
0,2365106,2224,324,26,1438,-397,-311,247,75,-345
0,2365120,2224,325,27,1435,-402,-316,247,75,-345
0,2365131,2227,324,26,1438,-399,-319,247,75,-345
0,2365146,2227,324,26,1438,-399,-319,247,75,-345
0,2365158,2225,328,33,1444,-402,-317,247,75,-345
0,2365171,2223,326,29,1442,-401,-319,256,76,-340
0,2365182,2223,326,29,1442,-401,-319,256,76,-340
0,2365198,2218,327,33,1446,-403,-313,256,76,-340
0,2365212,2225,327,29,1441,-396,-318,256,76,-340
0,2365228,2225,327,29,1441,-396,-318,256,76,-340
0,2365241,2225,330,24,1431,-397,-321,256,76,-340
0,2365253,2223,326,36,1438,-401,-322,256,76,-340
0,2365270,2227,328,32,1435,-397,-325,256,76,-340
0,2365282,2227,328,32,1435,-397,-325,256,76,-340
0,2365296,2225,326,31,1444,-393,-323,252,74,-342
0,2365310,2225,332,36,1440,-401,-318,252,74,-342
0,2365322,2225,332,36,1440,-401,-318,252,74,-342
0,2365334,2224,326,31,1440,-394,-320,252,74,-342
0,2365348,2224,326,31,1440,-394,-320,252,74,-342
0,2365363,2224,327,33,1448,-396,-321,252,74,-342
0,2365378,2227,326,25,1439,-398,-320,252,74,-342
0,2365392,2226,320,31,1439,-397,-315,252,74,-342
0,2365407,2226,320,31,1439,-397,-315,252,74,-342
0,2365420,2223,325,32,1440,-395,-312,252,74,-342
0,2365432,2224,325,37,1447,-392,-319,248,78,-330
0,2365448,2224,325,37,1447,-392,-319,248,78,-330
0,2365463,2224,324,26,1442,-393,-315,248,78,-330
0,2365477,2221,322,31,1444,-394,-310,248,78,-330
0,2365491,2226,326,26,1440,-396,-313,248,78,-330
0,2365503,2226,326,26,1440,-396,-313,248,78,-330
0,2365517,2222,324,32,1430,-394,-320,248,78,-330
0,2365531,2228,319,31,1426,-398,-321,248,78,-330
0,2365545,2228,319,31,1426,-398,-321,248,78,-330
0,2365559,2226,322,32,1433,-394,-315,246,80,-336
0,2365574,2225,322,35,1440,-395,-319,246,80,-336
0,2365586,2225,322,35,1440,-395,-319,246,80,-336
0,2365599,2225,318,28,1442,-392,-313,246,80,-336
0,2365614,2227,324,26,1443,-394,-320,246,80,-336
0,2365628,2227,324,26,1443,-394,-320,246,80,-336
0,2365642,2223,324,26,1443,-399,-321,246,80,-336
0,2365657,2224,322,25,1436,-398,-326,246,80,-336
0,2365670,2227,322,31,1443,-399,-311,246,80,-336
0,2365683,2227,322,31,1443,-399,-311,246,80,-336
0,2365696,2229,324,36,1437,-395,-312,251,73,-331
0,2365710,2226,320,29,1434,-400,-310,251,73,-331
0,2365723,2226,320,29,1434,-400,-310,251,73,-331
0,2365737,2226,320,34,1443,-394,-312,251,73,-331
0,2365753,2224,323,26,1441,-395,-310,251,73,-331
0,2365765,2224,323,26,1441,-395,-310,251,73,-331
0,2365779,2224,320,27,1443,-402,-311,251,73,-331
0,2365792,2221,316,25,1444,-395,-317,251,73,-331
0,2365805,2221,316,25,1444,-395,-317,251,73,-331
0,2365820,2224,322,24,1442,-398,-320,245,73,-325
0,2365834,2224,323,29,1440,-397,-326,245,73,-325
0,2365848,2224,323,29,1440,-397,-326,245,73,-325
0,2365862,2226,318,32,1430,-398,-321,245,73,-325
0,2365877,2226,316,28,1437,-398,-314,245,73,-325
0,2365891,2225,317,26,1445,-400,-318,245,73,-325
0,2365902,2225,317,26,1445,-400,-318,245,73,-325
0,2365918,2222,320,26,1437,-398,-320,245,73,-325
0,2365932,2222,323,34,1435,-403,-312,245,73,-325
0,2365947,2222,323,34,1435,-403,-312,245,73,-325
0,2365961,2224,322,32,1438,-399,-322,251,85,-331
0,2365973,2224,322,32,1438,-399,-322,251,85,-331
0,2365988,2224,322,32,1438,-399,-322,251,85,-331
0,2366002,2224,317,26,1433,-396,-312,251,85,-331
0,2366016,2224,322,28,1437,-403,-312,251,85,-331
0,2366030,2223,319,35,1428,-397,-318,251,85,-331
0,2366044,2223,319,35,1428,-397,-318,251,85,-331
0,2366056,2226,321,29,1437,-389,-322,251,85,-331
0,2366070,2227,321,32,1436,-402,-321,251,85,-331
0,2366085,2227,321,32,1436,-402,-321,246,74,-316
0,2366099,2229,319,32,1440,-395,-317,246,74,-316
0,2366113,2226,321,33,1437,-401,-317,246,74,-316
0,2366128,2226,321,33,1437,-401,-317,246,74,-316
0,2366140,2226,323,32,1442,-393,-320,246,74,-316
0,2366153,2226,320,24,1443,-392,-309,246,74,-316
0,2366169,2226,320,24,1443,-392,-309,246,74,-316
0,2366183,2226,320,24,1443,-392,-309,246,74,-316
0,2366196,2221,320,24,1439,-398,-316,252,78,-326
0,2366209,2221,320,24,1439,-398,-316,252,78,-326
0,2366223,2221,320,24,1439,-398,-316,252,78,-326
0,2366236,2223,325,29,1435,-399,-324,252,78,-326
0,2366251,2227,328,25,1436,-395,-317,252,78,-326
0,2366265,2227,328,25,1436,-395,-317,252,78,-326
0,2366278,2224,327,27,1438,-393,-323,252,78,-326
0,2366290,2224,327,27,1438,-393,-323,252,78,-326
0,2366304,2228,326,31,1435,-397,-316,252,78,-326
0,2366317,2226,333,27,1423,-394,-322,252,78,-326
0,2366331,2225,335,34,1440,-401,-320,246,82,-318
0,2366346,2225,335,34,1440,-401,-320,246,82,-318
0,2366362,2221,332,31,1430,-400,-315,246,82,-318
0,2366377,2223,330,25,1427,-400,-320,246,82,-318
0,2366393,2226,332,30,1434,-400,-317,246,82,-318
0,2366407,2226,332,30,1434,-400,-317,246,82,-318
0,2366422,2222,332,29,1430,-399,-321,246,82,-318
0,2366436,2224,332,30,1430,-399,-324,246,82,-318
0,2366451,2225,335,30,1440,-396,-322,251,69,-321
0,2366466,2225,335,30,1440,-396,-322,251,69,-321
0,2366477,2225,341,34,1439,-395,-322,251,69,-321
0,2366491,2223,340,29,1435,-402,-324,251,69,-321
0,2366505,2223,340,29,1435,-402,-324,251,69,-321
0,2366520,2222,347,33,1438,-400,-318,251,69,-321
0,2366535,2224,342,29,1445,-398,-313,251,69,-321
0,2366550,2224,342,29,1445,-398,-313,251,69,-321
0,2366564,2221,337,30,1442,-399,-316,251,69,-321
0,2366579,2224,335,31,1443,-395,-324,251,69,-321
0,2366594,2223,334,33,1458,-395,-324,247,75,-311
0,2366606,2223,334,33,1458,-395,-324,247,75,-311
0,2366621,2223,329,32,1440,-401,-324,247,75,-311
0,2366637,2222,330,33,1438,-390,-323,247,75,-311
0,2366652,2225,332,37,1445,-398,-320,247,75,-311
0,2366665,2225,332,37,1445,-398,-320,247,75,-311
0,2366676,2223,328,32,1448,-392,-313,247,75,-311
0,2366688,2223,328,32,1448,-392,-313,247,75,-311
0,2366702,2224,325,41,1448,-401,-316,247,75,-311
0,2366715,2227,324,35,1439,-395,-316,257,69,-313
0,2366729,2227,324,35,1439,-395,-316,257,69,-313
0,2366743,2226,324,35,1439,-405,-314,257,69,-313
0,2366756,2223,322,38,1445,-398,-312,257,69,-313
0,2366770,2223,322,38,1445,-398,-312,257,69,-313
0,2366784,2226,304,31,1447,-394,-319,257,69,-313
0,2366798,2223,323,26,1441,-398,-322,257,69,-313
0,2366814,2230,320,30,1447,-395,-313,257,69,-313
0,2366829,2230,320,30,1447,-395,-313,257,69,-313
0,2366842,2225,312,34,1439,-400,-318,257,69,-313
0,2366856,2228,318,33,1442,-398,-320,250,70,-316
0,2366868,2228,318,33,1442,-398,-320,250,70,-316
0,2366881,2230,318,32,1439,-399,-316,250,70,-316
0,2366896,2226,314,31,1434,-400,-314,250,70,-316
0,2366912,2225,311,29,1441,-408,-320,250,70,-316
0,2366926,2225,311,29,1441,-408,-320,250,70,-316
0,2366942,2228,320,27,1439,-406,-320,250,70,-316
0,2366956,2225,296,34,1445,-396,-314,250,70,-316
0,2366970,2225,296,34,1445,-396,-314,250,70,-316
0,2366984,2223,302,31,1439,-396,-312,251,73,-301
0,2366997,2226,300,31,1436,-404,-318,251,73,-301
0,2367011,2225,304,29,1429,-403,-322,251,73,-301
0,2367026,2225,304,29,1429,-403,-322,251,73,-301
0,2367040,2228,297,27,1430,-405,-325,251,73,-301
0,2367054,2227,308,31,1426,-396,-323,251,73,-301
0,2367069,2227,308,31,1426,-396,-323,251,73,-301
0,2367084,2227,311,29,1426,-391,-319,251,73,-301
0,2367099,2225,310,32,1431,-390,-312,246,70,-304
0,2367115,2230,302,31,1431,-394,-317,246,70,-304
0,2367128,2230,302,31,1431,-394,-317,246,70,-304
0,2367141,2225,312,28,1427,-399,-320,246,70,-304
0,2367157,2225,312,26,1429,-401,-316,246,70,-304
0,2367166,2225,312,26,1429,-401,-316,246,70,-304
0,2367178,2225,324,37,1428,-404,-316,246,70,-304
0,2367194,2224,322,29,1422,-402,-315,246,70,-304
0,2367205,2224,322,29,1422,-402,-315,246,70,-304
0,2367220,2228,317,26,1426,-397,-324,246,70,-304
0,2367235,2227,312,32,1426,-397,-311,246,76,-300
0,2367248,2227,312,32,1426,-397,-311,246,76,-300
0,2367260,2227,339,29,1414,-399,-315,246,76,-300
0,2367275,2223,320,32,1420,-395,-317,246,76,-300
0,2367287,2223,320,32,1420,-395,-317,246,76,-300
0,2367301,2224,326,22,1421,-395,-319,246,76,-300
0,2367314,2229,313,22,1425,-400,-322,246,76,-300
0,2367327,2229,313,22,1425,-400,-322,246,76,-300
0,2367342,2223,334,24,1426,-401,-326,246,76,-300
0,2367358,2226,322,33,1439,-398,-318,250,64,-290
0,2367373,2221,342,28,1419,-405,-325,250,64,-290
0,2367385,2221,342,28,1419,-405,-325,250,64,-290
0,2367393,2226,327,33,1423,-405,-323,250,64,-290
0,2367409,2226,327,33,1423,-405,-323,250,64,-290
0,2367423,2222,338,31,1438,-394,-314,250,64,-290
0,2367437,2228,348,25,1424,-397,-321,250,64,-290
0,2367449,2228,348,25,1424,-397,-321,250,64,-290
0,2367463,2221,366,31,1425,-401,-314,250,64,-290
0,2367477,2226,345,22,1431,-403,-316,250,64,-290
0,2367492,2226,345,22,1431,-403,-316,250,64,-290
0,2367506,2225,345,31,1436,-394,-319,236,76,-288
0,2367520,2223,356,28,1433,-399,-321,236,76,-288
0,2367533,2219,355,32,1434,-394,-316,236,76,-288
0,2367543,2219,355,32,1434,-394,-316,236,76,-288
0,2367557,2221,340,33,1442,-392,-321,236,76,-288
0,2367571,2221,340,33,1442,-392,-321,236,76,-288
0,2367587,2224,336,30,1448,-392,-327,236,76,-288
0,2367601,2224,336,30,1448,-396,-319,236,76,-288
0,2367616,2222,338,36,1444,-398,-314,244,68,-288
0,2367628,2222,338,36,1444,-398,-314,244,68,-288
0,2367644,2225,338,30,1445,-397,-327,244,68,-288
0,2367660,2228,337,30,1439,-405,-325,244,68,-288
0,2367675,2227,332,36,1430,-404,-319,244,68,-288
0,2367691,2227,332,36,1430,-404,-319,244,68,-288
0,2367706,2222,336,31,1440,-398,-318,244,68,-288
0,2367720,2224,335,29,1440,-397,-316,244,68,-288
0,2367732,2224,328,31,1446,-401,-318,244,68,-288
0,2367747,2224,328,31,1446,-401,-318,244,64,-286
0,2367761,2224,320,36,1446,-397,-323,244,64,-286
0,2367775,2224,327,35,1445,-399,-321,244,64,-286
0,2367790,2224,327,35,1445,-399,-321,244,64,-286
0,2367804,2225,330,33,1436,-401,-322,244,64,-286
0,2367817,2225,323,34,1427,-403,-324,244,64,-286
0,2367830,2225,323,34,1427,-403,-324,244,64,-286
0,2367845,2228,324,29,1437,-390,-319,244,64,-286
0,2367859,2229,303,26,1439,-398,-314,244,64,-286
0,2367873,2224,327,29,1437,-401,-308,244,66,-290
0,2367887,2224,327,29,1437,-401,-308,244,66,-290
0,2367900,2225,313,33,1438,-402,-316,244,66,-290
0,2367915,2228,318,29,1440,-404,-324,244,66,-290
0,2367929,2228,318,29,1440,-404,-324,244,66,-290
0,2367943,2227,309,32,1436,-403,-319,244,66,-290
0,2367959,2223,323,36,1435,-398,-321,244,66,-290
0,2367971,2223,323,36,1435,-398,-321,244,66,-290
0,2367984,2227,315,32,1431,-406,-315,244,66,-290
0,2367998,2225,318,34,1428,-411,-316,250,60,-290
0,2368014,2225,318,34,1428,-411,-316,250,60,-290
0,2368027,2225,318,34,1428,-411,-316,250,60,-290
0,2368041,2229,321,35,1435,-394,-318,250,60,-290
0,2368056,2226,315,26,1440,-400,-315,250,60,-290
0,2368066,2226,315,26,1440,-400,-315,250,60,-290
0,2368079,2225,316,27,1430,-401,-317,250,60,-290
0,2368095,2227,317,25,1433,-398,-318,250,60,-290
0,2368111,2227,317,25,1433,-398,-318,250,60,-290
0,2368126,2227,314,31,1432,-395,-318,250,60,-290
0,2368143,2227,314,34,1439,-399,-320,241,69,-279
0,2368156,2226,317,30,1436,-397,-315,241,69,-279
0,2368168,2226,317,30,1436,-397,-315,241,69,-279
0,2368184,2226,315,30,1440,-395,-315,241,69,-279
0,2368197,2230,313,25,1430,-405,-320,241,69,-279
0,2368211,2230,313,25,1430,-405,-320,241,69,-279
0,2368226,2228,316,31,1430,-409,-328,241,69,-279
0,2368240,2226,322,26,1429,-402,-321,241,69,-279
0,2368256,2226,316,34,1435,-402,-315,248,66,-278
0,2368268,2226,316,34,1435,-402,-315,248,66,-278
0,2368281,2228,311,32,1435,-399,-325,248,66,-278
0,2368296,2229,315,29,1429,-400,-325,248,66,-278
0,2368312,2229,315,29,1429,-400,-325,248,66,-278
0,2368328,2228,316,31,1425,-398,-313,248,66,-278
0,2368344,2228,325,32,1430,-399,-318,248,66,-278
0,2368358,2226,323,29,1431,-408,-310,248,66,-278
0,2368369,2226,323,29,1431,-408,-310,248,66,-278
0,2368385,2225,323,30,1427,-396,-312,248,66,-278
0,2368398,2231,315,33,1435,-396,-317,244,60,-270
0,2368412,2231,315,33,1435,-396,-317,244,60,-270
0,2368427,2229,338,32,1427,-397,-318,244,60,-270
0,2368441,2225,324,30,1429,-399,-316,244,60,-270
0,2368455,2224,336,30,1423,-392,-316,244,60,-270
0,2368467,2224,336,30,1423,-392,-316,244,60,-270
0,2368482,2228,324,28,1432,-397,-318,244,60,-270
0,2368497,2225,343,25,1433,-399,-319,244,60,-270
0,2368510,2225,343,25,1433,-399,-319,244,60,-270
0,2368525,2225,331,31,1434,-395,-320,235,57,-267
0,2368540,2225,342,27,1420,-399,-320,235,57,-267
0,2368556,2232,344,32,1424,-393,-321,235,57,-267
0,2368570,2232,344,32,1424,-393,-321,235,57,-267
0,2368585,2225,350,29,1431,-403,-316,235,57,-267
0,2368600,2226,340,31,1436,-397,-321,235,57,-267
0,2368613,2226,340,31,1436,-397,-321,235,57,-267
0,2368628,2222,348,26,1429,-406,-322,235,57,-267
0,2368640,2225,344,29,1432,-402,-315,232,60,-268
0,2368654,2222,343,40,1433,-399,-313,232,60,-268
0,2368667,2222,343,40,1433,-399,-313,232,60,-268
0,2368681,2225,343,31,1433,-401,-315,232,60,-268
0,2368696,2223,335,32,1436,-388,-315,232,60,-268
0,2368710,2223,335,32,1436,-388,-315,232,60,-268
0,2368726,2224,328,28,1438,-389,-316,232,60,-268
0,2368741,2223,333,33,1433,-386,-319,232,60,-268
0,2368757,2228,333,27,1435,-405,-317,232,60,-268
0,2368772,2228,333,27,1435,-405,-317,232,60,-268
0,2368788,2225,335,37,1436,-393,-322,231,67,-267
0,2368802,2226,329,33,1431,-402,-319,231,67,-267
0,2368817,2229,334,32,1433,-402,-320,231,67,-267
0,2368831,2229,334,32,1433,-402,-320,231,67,-267
0,2368845,2225,339,29,1434,-401,-317,231,67,-267
0,2368856,2226,335,27,1445,-397,-317,231,67,-267
0,2368871,2226,335,27,1445,-397,-317,231,67,-267
0,2368885,2228,326,33,1441,-401,-322,231,67,-267
0,2368900,2224,328,38,1446,-393,-325,227,55,-263
0,2368914,2225,330,29,1446,-395,-318,227,55,-263
0,2368928,2225,330,29,1446,-395,-318,227,55,-263
0,2368943,2229,331,28,1441,-400,-322,227,55,-263
0,2368957,2225,332,39,1436,-397,-315,227,55,-263
0,2368969,2225,332,39,1436,-397,-315,227,55,-263
0,2368984,2228,328,29,1439,-396,-314,227,55,-263
0,2369000,2228,335,36,1439,-395,-323,227,55,-263
0,2369015,2226,338,31,1449,-401,-312,227,55,-263
0,2369031,2226,338,31,1449,-401,-312,227,55,-263
0,2369042,2224,335,37,1449,-398,-318,229,59,-259
0,2369054,2224,336,34,1443,-398,-316,229,59,-259
0,2369070,2224,336,34,1443,-398,-316,229,59,-259
0,2369083,2224,336,30,1448,-394,-320,229,59,-259
0,2369097,2226,328,30,1442,-398,-321,229,59,-259
0,2369112,2226,328,30,1442,-398,-321,229,59,-259
0,2369124,2227,330,31,1439,-394,-318,229,59,-259
0,2369136,2228,326,31,1438,-400,-315,229,59,-259
0,2369152,2228,326,31,1438,-400,-315,229,59,-259
0,2369167,2228,330,41,1436,-398,-313,226,56,-262
0,2369182,2229,330,36,1430,-395,-322,226,56,-262
0,2369196,2229,330,36,1430,-395,-322,226,56,-262
0,2369209,2229,330,36,1430,-395,-322,226,56,-262
0,2369224,2229,330,36,1430,-395,-322,226,56,-262
0,2369240,2227,328,41,1441,-396,-316,226,56,-262
0,2369254,2226,328,32,1438,-401,-320,226,56,-262
0,2369268,2226,328,32,1438,-401,-320,226,56,-262
0,2369284,2227,326,32,1430,-398,-310,226,56,-262
0,2369298,2225,320,32,1434,-397,-318,223,65,-257
0,2369312,2225,320,32,1434,-397,-318,223,65,-257
0,2369326,2227,323,34,1441,-400,-322,223,65,-257
0,2369338,2225,326,32,1448,-407,-319,223,65,-257
0,2369353,2225,326,32,1448,-407,-319,223,65,-257
0,2369367,2228,325,29,1444,-399,-319,223,65,-257
0,2369382,2229,327,35,1441,-400,-316,223,65,-257
0,2369397,2228,326,33,1438,-398,-309,223,65,-257
0,2369412,2228,326,33,1438,-398,-309,223,65,-257
0,2369427,2229,323,44,1444,-399,-320,224,58,-250
0,2369442,2228,326,33,1451,-394,-319,224,58,-250
0,2369458,2227,324,36,1436,-392,-322,224,58,-250
0,2369472,2227,324,36,1436,-392,-322,224,58,-250
0,2369486,2228,322,40,1435,-402,-327,224,58,-250
0,2369501,2226,323,31,1440,-402,-320,224,58,-250
0,2369513,2226,323,31,1440,-402,-320,224,58,-250
0,2369527,2225,327,32,1438,-393,-320,224,58,-250
0,2369542,2226,328,31,1448,-393,-309,214,62,-242
0,2369555,2229,323,36,1440,-398,-311,214,62,-242
0,2369569,2229,323,36,1440,-398,-311,214,62,-242
0,2369583,2228,325,35,1436,-400,-315,214,62,-242
0,2369596,2230,322,32,1442,-396,-314,214,62,-242
0,2369608,2230,322,32,1442,-396,-314,214,62,-242
0,2369622,2228,324,31,1444,-393,-308,214,62,-242
0,2369637,2225,327,30,1445,-389,-312,214,62,-242
0,2369652,2225,327,30,1445,-389,-312,214,62,-242
0,2369668,2227,323,33,1443,-397,-313,214,62,-242
0,2369680,2224,323,41,1437,-400,-317,210,56,-248
0,2369691,2224,323,41,1437,-400,-317,210,56,-248
0,2369701,2226,322,31,1439,-393,-317,210,56,-248
0,2369715,2227,322,32,1429,-399,-316,210,56,-248
0,2369727,2227,322,32,1429,-399,-316,210,56,-248
0,2369742,2228,325,25,1435,-399,-320,210,56,-248
0,2369757,2228,325,25,1435,-399,-320,210,56,-248
0,2369771,2228,325,25,1435,-399,-320,210,56,-248
0,2369786,2228,327,31,1443,-405,-319,210,56,-248
0,2369800,2227,320,29,1442,-406,-316,213,57,-237
0,2369815,2227,320,29,1442,-406,-316,213,57,-237
0,2369827,2227,325,34,1432,-399,-319,213,57,-237
0,2369840,2225,318,36,1443,-395,-322,213,57,-237
0,2369854,2225,318,36,1443,-395,-322,213,57,-237
0,2369867,2224,321,29,1433,-399,-316,213,57,-237
0,2369882,2229,317,31,1442,-399,-314,213,57,-237
0,2369895,2229,317,31,1442,-399,-314,213,57,-237
0,2369908,2231,322,32,1442,-394,-313,213,57,-237
0,2369923,2227,317,29,1435,-396,-316,213,57,-237
0,2369938,2230,320,37,1430,-401,-322,211,51,-247
0,2369953,2230,320,37,1430,-401,-322,211,51,-247
0,2369969,2229,324,38,1427,-395,-319,211,51,-247
0,2369980,2230,325,32,1440,-391,-313,211,51,-247
0,2369993,2230,325,32,1440,-391,-313,211,51,-247
0,2370008,2231,328,30,1429,-394,-327,211,51,-247
0,2370021,2227,324,32,1432,-391,-311,211,51,-247
0,2370035,2224,330,32,1433,-395,-317,211,51,-247
0,2370050,2224,330,32,1433,-395,-317,211,51,-247
0,2370064,2230,323,24,1436,-397,-319,202,56,-234
0,2370077,2223,326,33,1434,-390,-310,202,56,-234
0,2370091,2223,326,33,1434,-390,-310,202,56,-234
0,2370105,2229,320,32,1441,-398,-313,202,56,-234
0,2370114,2229,320,32,1441,-398,-313,202,56,-234
0,2370126,2227,325,30,1437,-395,-314,202,56,-234
0,2370141,2228,325,30,1439,-392,-320,202,56,-234
0,2370156,2225,328,35,1432,-392,-323,202,56,-234
0,2370171,2225,328,35,1432,-392,-323,202,56,-234
0,2370187,2228,325,32,1436,-398,-322,202,56,-234
0,2370199,2222,324,30,1430,-403,-313,210,56,-240
0,2370212,2222,324,30,1430,-403,-313,210,56,-240
0,2370226,2229,332,34,1436,-401,-313,210,56,-240
0,2370237,2227,332,25,1437,-397,-312,210,56,-240
0,2370251,2227,332,25,1437,-397,-312,210,56,-240
0,2370263,2227,338,29,1432,-395,-319,210,56,-240
0,2370277,2229,343,32,1433,-398,-323,210,56,-240
0,2370291,2229,343,32,1433,-398,-323,210,56,-240
0,2370306,2225,343,27,1434,-393,-317,210,56,-240
0,2370321,2225,358,31,1430,-396,-323,208,58,-236
0,2370334,2225,358,31,1430,-396,-323,208,58,-236
0,2370348,2226,359,35,1439,-403,-323,208,58,-236
0,2370361,2226,350,31,1437,-388,-316,208,58,-236
0,2370375,2226,350,31,1437,-388,-316,208,58,-236
0,2370391,2228,346,28,1433,-391,-317,208,58,-236
0,2370406,2226,349,33,1434,-390,-318,208,58,-236
0,2370421,2224,347,34,1437,-393,-312,208,58,-236
0,2370434,2224,347,34,1437,-393,-312,208,58,-236
0,2370449,2225,340,31,1440,-394,-317,203,57,-237
0,2370464,2225,332,28,1439,-392,-319,203,57,-237
0,2370480,2223,338,35,1441,-398,-310,203,57,-237
0,2370493,2223,338,35,1441,-398,-310,203,57,-237
0,2370507,2224,336,32,1443,-397,-311,203,57,-237
0,2370522,2224,337,31,1434,-397,-313,203,57,-237
0,2370536,2228,335,32,1443,-394,-315,203,57,-237
0,2370551,2228,335,32,1443,-394,-315,203,57,-237
0,2370564,2228,336,32,1443,-401,-314,203,57,-237
0,2370576,2228,334,35,1447,-392,-320,207,51,-235
0,2370589,2228,334,35,1447,-392,-320,207,51,-235
0,2370604,2226,336,36,1435,-394,-318,207,51,-235
0,2370619,2226,328,33,1439,-397,-321,207,51,-235
0,2370630,2226,328,33,1439,-397,-321,207,51,-235
0,2370643,2228,325,30,1441,-400,-318,207,51,-235
0,2370659,2224,317,29,1438,-401,-315,207,51,-235
0,2370674,2224,317,29,1438,-401,-315,207,51,-235
0,2370690,2227,320,30,1441,-392,-316,207,51,-235
0,2370704,2227,320,30,1441,-392,-316,203,57,-227
0,2370715,2227,320,30,1441,-392,-316,203,57,-227
0,2370728,2229,325,33,1443,-400,-312,203,57,-227
0,2370743,2227,316,32,1439,-398,-320,203,57,-227
0,2370757,2228,332,28,1439,-398,-319,203,57,-227
0,2370771,2228,332,28,1439,-398,-319,203,57,-227
0,2370786,2229,319,28,1438,-395,-310,203,57,-227
0,2370797,2225,323,31,1441,-394,-309,203,57,-227
0,2370810,2225,323,31,1441,-394,-309,203,57,-227
0,2370826,2228,312,29,1436,-398,-328,203,57,-227
0,2370840,2228,323,35,1448,-399,-321,191,53,-229
0,2370854,2228,323,35,1448,-399,-321,191,53,-229
0,2370869,2230,312,28,1441,-401,-318,191,53,-229
0,2370884,2227,318,32,1436,-402,-322,191,53,-229
0,2370899,2231,317,26,1440,-397,-326,191,53,-229
0,2370915,2231,317,26,1440,-397,-326,191,53,-229
0,2370928,2226,319,30,1440,-397,-324,191,53,-229
0,2370942,2230,320,30,1436,-400,-316,191,53,-229
0,2370956,2230,320,30,1436,-400,-316,191,53,-229
0,2370968,2226,324,33,1442,-399,-315,194,48,-234
0,2370981,2232,318,33,1436,-397,-317,194,48,-234
0,2370996,2232,318,33,1436,-397,-317,194,48,-234
0,2371010,2227,311,33,1440,-392,-316,194,48,-234
0,2371024,2227,315,29,1433,-393,-319,194,48,-234
0,2371038,2226,315,27,1429,-393,-325,194,48,-234
0,2371050,2226,315,27,1429,-393,-325,194,48,-234
0,2371062,2228,317,23,1430,-394,-322,194,48,-234
0,2371078,2225,313,26,1424,-402,-321,196,48,-232
0,2371093,2225,313,26,1424,-402,-321,196,48,-232
0,2371107,2228,315,33,1423,-406,-321,196,48,-232
0,2371120,2230,321,30,1436,-399,-312,196,48,-232
0,2371136,2230,321,30,1436,-399,-312,196,48,-232
0,2371151,2226,317,28,1441,-394,-322,196,48,-232
0,2371167,2232,316,28,1432,-402,-316,196,48,-232
0,2371181,2225,316,29,1439,-401,-315,196,48,-232
0,2371194,2225,316,29,1439,-401,-315,196,48,-232
0,2371209,2228,319,29,1430,-401,-322,196,48,-232
0,2371223,2224,333,28,1433,-398,-320,184,58,-232
0,2371236,2224,333,28,1433,-398,-320,184,58,-232
0,2371247,2224,326,27,1443,-405,-318,184,58,-232
0,2371262,2228,327,27,1434,-397,-318,184,58,-232
0,2371275,2228,327,27,1434,-397,-318,184,58,-232
0,2371290,2231,317,23,1428,-396,-320,184,58,-232
0,2371305,2229,332,26,1429,-403,-315,184,58,-232
0,2371317,2231,325,31,1427,-402,-319,184,58,-232
0,2371331,2231,325,31,1427,-402,-319,184,58,-232
0,2371346,2223,339,25,1436,-394,-320,184,52,-234
0,2371361,2230,329,33,1434,-405,-322,184,52,-234
0,2371376,2230,329,33,1434,-405,-322,184,52,-234
0,2371388,2224,347,29,1429,-401,-314,184,52,-234
0,2371403,2226,340,31,1428,-400,-309,184,52,-234
0,2371419,2225,349,29,1431,-399,-305,184,52,-234
0,2371434,2225,349,29,1431,-399,-305,184,52,-234
0,2371447,2225,352,22,1425,-405,-312,184,52,-234
0,2371460,2224,352,28,1429,-401,-311,184,52,-234
0,2371473,2224,352,28,1429,-401,-311,184,52,-234
0,2371488,2221,348,28,1420,-401,-312,193,51,-225
0,2371500,2225,350,30,1435,-407,-316,193,51,-225
0,2371515,2225,350,30,1435,-407,-316,193,51,-225
0,2371528,2224,350,24,1433,-405,-315,193,51,-225
0,2371542,2224,348,31,1439,-401,-313,193,51,-225
0,2371557,2226,348,26,1440,-397,-310,193,51,-225
0,2371572,2226,348,26,1440,-397,-310,193,51,-225
0,2371588,2228,344,27,1443,-395,-311,193,51,-225
0,2371602,2223,334,31,1444,-393,-314,182,52,-218
0,2371615,2223,334,31,1444,-393,-314,182,52,-218
0,2371631,2225,335,30,1438,-390,-323,182,52,-218
0,2371645,2225,340,31,1441,-396,-320,182,52,-218
0,2371655,2225,340,31,1441,-396,-320,182,52,-218
0,2371670,2224,341,29,1441,-394,-317,182,52,-218
0,2371685,2224,335,29,1450,-390,-313,182,52,-218
0,2371699,2228,337,27,1441,-401,-318,182,52,-218
0,2371713,2228,337,27,1441,-401,-318,182,52,-218
0,2371727,2229,338,29,1439,-404,-315,182,52,-218
0,2371741,2226,335,27,1437,-395,-313,177,53,-221
0,2371757,2226,335,27,1437,-395,-313,177,53,-221
0,2371770,2224,335,29,1442,-397,-318,177,53,-221
0,2371783,2227,336,27,1446,-401,-320,177,53,-221
0,2371796,2227,336,27,1446,-401,-320,177,53,-221
0,2371811,2225,338,29,1446,-397,-315,177,53,-221
0,2371825,2223,335,28,1440,-395,-313,177,53,-221
0,2371838,2227,341,24,1443,-395,-305,177,53,-221
0,2371851,2227,341,24,1443,-395,-305,177,53,-221
0,2371865,2223,340,30,1448,-393,-315,173,45,-227
0,2371880,2223,344,30,1438,-398,-313,173,45,-227
0,2371896,2223,344,30,1438,-398,-313,173,45,-227
0,2371910,2225,337,32,1438,-402,-311,173,45,-227
0,2371922,2225,337,29,1440,-398,-320,173,45,-227
0,2371937,2225,337,29,1440,-398,-320,173,45,-227
0,2371951,2227,339,28,1447,-395,-315,173,45,-227
0,2371965,2227,339,28,1442,-398,-316,173,45,-227
0,2371980,2227,337,29,1445,-401,-312,171,49,-225
0,2371994,2227,337,29,1445,-401,-312,171,49,-225
0,2372007,2226,330,28,1449,-397,-309,171,49,-225
0,2372021,2230,321,32,1445,-395,-314,171,49,-225
0,2372034,2230,321,32,1445,-395,-314,171,49,-225
0,2372050,2225,325,31,1447,-391,-318,171,49,-225
0,2372066,2224,328,30,1443,-391,-314,171,49,-225
0,2372081,2225,330,30,1439,-395,-314,171,49,-225
0,2372097,2225,330,30,1439,-395,-314,171,49,-225
0,2372109,2224,321,34,1447,-393,-316,171,49,-225
0,2372122,2229,328,30,1446,-398,-310,176,48,-220
0,2372137,2228,330,31,1439,-403,-311,176,48,-220
0,2372152,2228,330,31,1439,-403,-311,176,48,-220
0,2372165,2226,327,34,1442,-395,-309,176,48,-220
0,2372179,2227,326,31,1444,-390,-308,176,48,-220
0,2372194,2227,326,31,1444,-390,-308,176,48,-220
0,2372207,2225,325,29,1433,-397,-318,176,48,-220
0,2372218,2227,324,30,1438,-404,-311,176,48,-220
0,2372233,2227,324,30,1438,-404,-311,176,48,-220
0,2372247,2224,328,29,1439,-401,-316,173,51,-229
0,2372261,2224,325,26,1444,-399,-317,173,51,-229
0,2372271,2224,325,26,1444,-399,-317,173,51,-229
0,2372285,2226,325,26,1447,-404,-317,173,51,-229
0,2372300,2227,323,33,1438,-394,-315,173,51,-229
0,2372314,2227,323,33,1438,-394,-315,173,51,-229
0,2372327,2226,324,32,1438,-399,-316,173,51,-229
0,2372343,2227,323,31,1431,-406,-324,173,51,-229
0,2372358,2227,323,31,1431,-406,-324,173,51,-229
0,2372373,2226,321,29,1439,-402,-321,173,51,-229
0,2372386,2225,320,30,1424,-405,-317,168,44,-232
0,2372400,2228,321,27,1437,-397,-311,168,44,-232
0,2372414,2228,321,27,1437,-397,-311,168,44,-232
0,2372426,2225,316,25,1438,-394,-313,168,44,-232
0,2372439,2227,319,30,1436,-401,-314,168,44,-232
0,2372453,2227,319,30,1436,-401,-314,168,44,-232
0,2372466,2228,311,26,1442,-398,-317,168,44,-232
0,2372481,2226,317,30,1441,-408,-313,168,44,-232
0,2372495,2226,317,30,1441,-408,-313,168,44,-232
0,2372506,2227,316,28,1443,-398,-313,172,42,-224
0,2372519,2223,320,31,1430,-397,-315,172,42,-224
0,2372533,2223,320,31,1430,-397,-315,172,42,-224
0,2372547,2226,312,31,1438,-404,-316,172,42,-224
0,2372562,2224,317,25,1440,-406,-318,172,42,-224
0,2372577,2224,317,25,1440,-406,-318,172,42,-224
0,2372591,2224,317,25,1440,-406,-318,172,42,-224
0,2372606,2224,313,25,1438,-399,-313,172,42,-224
0,2372620,2225,304,29,1436,-397,-323,172,42,-224
0,2372634,2225,304,29,1436,-397,-323,172,42,-224
0,2372644,2225,304,30,1433,-392,-316,168,50,-226
0,2372658,2225,304,30,1433,-392,-316,168,50,-226
0,2372672,2225,307,27,1429,-394,-320,168,50,-226
0,2372686,2226,315,23,1430,-394,-323,168,50,-226
0,2372701,2226,311,32,1426,-400,-312,168,50,-226
0,2372715,2226,311,32,1426,-400,-312,168,50,-226
0,2372728,2229,310,24,1432,-399,-319,168,50,-226
0,2372741,2228,308,19,1430,-396,-312,168,50,-226
0,2372754,2228,308,19,1430,-396,-312,168,50,-226
0,2372767,2226,317,27,1438,-391,-313,165,45,-231
0,2372781,2223,324,29,1436,-393,-313,165,45,-231
0,2372796,2223,324,29,1436,-393,-313,165,45,-231
0,2372811,2220,330,26,1436,-395,-310,165,45,-231
0,2372827,2227,315,29,1437,-407,-316,165,45,-231
0,2372842,2223,316,24,1430,-405,-312,165,45,-231
0,2372855,2223,316,24,1430,-405,-312,165,45,-231
0,2372870,2227,332,19,1423,-402,-312,165,45,-231
0,2372883,2225,325,23,1424,-399,-315,166,52,-226
0,2372893,2225,325,23,1424,-399,-315,166,52,-226
0,2372907,2226,329,29,1424,-400,-320,166,52,-226
0,2372921,2228,324,25,1419,-400,-319,166,52,-226
0,2372934,2228,324,25,1419,-400,-319,166,52,-226
0,2372942,2225,345,34,1433,-400,-315,166,52,-226
0,2372953,2225,345,34,1433,-400,-315,166,52,-226
0,2372967,2225,335,27,1436,-398,-313,166,52,-226
0,2372981,2222,348,19,1421,-404,-319,166,52,-226
0,2372997,2222,348,19,1421,-404,-319,166,52,-226
0,2373011,2228,336,18,1420,-398,-317,166,52,-226
0,2373025,2224,355,26,1427,-405,-309,154,52,-234
0,2373040,2222,345,27,1425,-402,-312,154,52,-234
0,2373054,2222,345,27,1425,-402,-312,154,52,-234
0,2373067,2222,345,27,1425,-402,-312,154,52,-234
0,2373079,2225,344,27,1425,-399,-313,154,52,-234
0,2373092,2225,344,27,1425,-399,-313,154,52,-234
0,2373106,2222,353,30,1432,-404,-315,154,52,-234
0,2373120,2225,351,21,1437,-407,-316,154,52,-234
0,2373134,2225,351,21,1437,-407,-316,154,52,-234
0,2373147,2223,352,29,1437,-403,-318,161,51,-225
0,2373158,2223,343,28,1439,-395,-321,161,51,-225
0,2373174,2223,343,28,1439,-395,-321,161,51,-225
0,2373187,2222,344,29,1437,-397,-317,161,51,-225
0,2373201,2223,337,30,1442,-406,-310,161,51,-225
0,2373216,2223,337,30,1442,-406,-310,161,51,-225
0,2373231,2225,339,31,1445,-395,-316,161,51,-225
0,2373243,2223,332,25,1444,-397,-318,161,51,-225
0,2373257,2223,332,25,1444,-397,-318,161,51,-225
0,2373272,2223,334,26,1441,-400,-317,161,51,-225
0,2373287,2222,342,32,1446,-395,-308,165,59,-239
0,2373299,2223,342,33,1444,-390,-310,165,59,-239
0,2373312,2223,342,33,1444,-390,-310,165,59,-239
0,2373326,2225,331,27,1436,-399,-314,165,59,-239
0,2373341,2224,324,29,1442,-406,-316,165,59,-239
0,2373354,2224,324,29,1442,-406,-316,165,59,-239
0,2373368,2224,330,31,1443,-406,-320,165,59,-239
0,2373383,2220,329,21,1446,-402,-311,165,59,-239
0,2373395,2220,329,21,1446,-402,-311,165,59,-239
0,2373408,2222,322,30,1448,-401,-318,155,63,-237
0,2373422,2223,323,33,1445,-401,-321,155,63,-237
0,2373434,2223,323,33,1445,-401,-321,155,63,-237
0,2373448,2223,303,28,1447,-403,-316,155,63,-237
0,2373464,2223,326,30,1450,-399,-317,155,63,-237
0,2373476,2223,326,30,1450,-399,-317,155,63,-237
0,2373491,2224,320,32,1444,-395,-316,155,63,-237
0,2373506,2226,316,28,1442,-394,-313,155,63,-237
0,2373521,2231,315,23,1438,-400,-315,155,63,-237
0,2373537,2231,315,23,1438,-400,-315,155,63,-237
0,2373549,2226,316,34,1432,-402,-310,153,51,-245
0,2373562,2223,321,32,1439,-398,-315,153,51,-245
0,2373576,2223,321,32,1439,-398,-315,153,51,-245
0,2373591,2228,311,29,1437,-399,-317,153,51,-245
0,2373604,2224,306,25,1425,-396,-310,153,51,-245
0,2373618,2224,306,25,1425,-396,-310,153,51,-245
0,2373630,2225,300,26,1435,-394,-312,153,51,-245
0,2373643,2225,309,29,1446,-388,-317,153,51,-245
0,2373658,2225,309,29,1446,-388,-317,153,51,-245
0,2373673,2227,306,32,1438,-392,-320,147,53,-231
0,2373689,2226,309,31,1436,-389,-309,147,53,-231
0,2373702,2226,306,32,1438,-398,-317,147,53,-231
0,2373715,2226,306,32,1438,-398,-317,147,53,-231
0,2373731,2225,316,29,1434,-400,-316,147,53,-231
0,2373746,2225,314,26,1430,-403,-310,147,53,-231
0,2373760,2225,313,26,1439,-395,-314,147,53,-231
0,2373774,2225,313,26,1439,-395,-314,147,53,-231
0,2373788,2226,302,28,1439,-395,-313,161,61,-251
0,2373803,2226,313,29,1434,-393,-319,161,61,-251
0,2373816,2226,313,29,1434,-393,-319,161,61,-251
0,2373828,2228,313,27,1427,-399,-314,161,61,-251
0,2373841,2225,315,24,1437,-392,-311,161,61,-251
0,2373855,2225,315,24,1437,-392,-311,161,61,-251
0,2373869,2227,315,23,1437,-396,-315,161,61,-251
0,2373882,2225,321,25,1428,-391,-315,161,61,-251
0,2373895,2225,321,25,1428,-391,-315,161,61,-251
0,2373910,2225,318,28,1433,-397,-317,161,61,-251
0,2373924,2225,317,27,1428,-400,-315,146,58,-238
0,2373940,2224,308,26,1427,-399,-315,146,58,-238
0,2373953,2224,308,26,1427,-399,-315,146,58,-238
0,2373966,2226,312,24,1423,-394,-313,146,58,-238
0,2373981,2224,332,24,1430,-402,-310,146,58,-238
0,2373995,2224,332,24,1430,-402,-310,146,58,-238
0,2374008,2225,317,22,1429,-394,-311,146,58,-238
0,2374023,2223,321,28,1420,-394,-318,146,58,-238
0,2374036,2223,321,28,1420,-394,-318,146,58,-238
0,2374048,2226,319,22,1432,-404,-313,153,63,-247
0,2374062,2223,335,29,1419,-406,-310,153,63,-247
0,2374075,2223,335,29,1419,-406,-310,153,63,-247
0,2374089,2226,332,22,1427,-400,-305,153,63,-247
0,2374104,2225,344,22,1422,-402,-313,153,63,-247
0,2374117,2225,344,22,1422,-402,-313,153,63,-247
0,2374129,2227,334,25,1427,-398,-315,153,63,-247
0,2374145,2222,357,24,1423,-392,-311,153,63,-247
0,2374160,2222,357,24,1423,-392,-311,153,63,-247
0,2374175,2221,358,25,1428,-403,-311,153,63,-247
0,2374187,2222,353,29,1437,-399,-314,151,65,-241
0,2374200,2222,353,29,1437,-399,-314,151,65,-241
0,2374214,2223,340,29,1433,-394,-321,151,65,-241
0,2374228,2227,350,26,1437,-392,-316,151,65,-241
0,2374242,2223,350,30,1435,-401,-314,151,65,-241
0,2374256,2223,350,30,1435,-401,-314,151,65,-241
0,2374270,2220,344,30,1424,-400,-316,151,65,-241
0,2374284,2223,334,27,1431,-398,-330,151,65,-241
0,2374296,2223,334,27,1431,-398,-330,151,65,-241
0,2374309,2220,341,33,1434,-395,-317,141,67,-241
0,2374324,2225,339,29,1438,-395,-310,141,67,-241
0,2374338,2225,339,29,1438,-395,-310,141,67,-241
0,2374352,2221,342,21,1436,-391,-320,141,67,-241
0,2374366,2227,333,30,1433,-397,-314,141,67,-241
0,2374380,2227,333,30,1433,-397,-314,141,67,-241
0,2374394,2224,331,26,1436,-399,-311,141,67,-241
0,2374407,2221,336,23,1443,-403,-315,141,67,-241
0,2374419,2221,336,23,1443,-403,-315,141,67,-241
0,2374433,2222,335,29,1443,-397,-318,141,67,-241
0,2374448,2225,331,30,1443,-399,-313,141,67,-241
0,2374464,2222,327,33,1451,-398,-309,141,67,-241
0,2374478,2222,327,33,1451,-398,-309,141,67,-241
0,2374492,2224,331,32,1448,-400,-315,141,67,-241
0,2374506,2223,328,25,1446,-397,-321,141,67,-241
0,2374517,2223,328,25,1446,-397,-321,141,67,-241
0,2374529,2228,323,30,1445,-396,-319,141,67,-241
0,2374543,2225,319,27,1438,-392,-317,141,67,-241
0,2374557,2225,319,27,1438,-392,-317,141,67,-241
0,2374573,2223,323,34,1434,-403,-319,147,65,-249
0,2374588,2224,326,28,1437,-405,-322,147,65,-249
0,2374603,2224,325,34,1438,-397,-320,147,65,-249
0,2374618,2224,325,34,1438,-397,-320,147,65,-249
0,2374632,2226,317,32,1430,-400,-320,147,65,-249
0,2374645,2226,323,26,1446,-403,-313,147,65,-249
0,2374661,2226,323,26,1446,-403,-313,147,65,-249
0,2374673,2222,325,26,1439,-396,-314,147,65,-249
0,2374684,2226,328,34,1436,-397,-314,146,62,-256
0,2374699,2226,328,34,1436,-397,-314,146,62,-256
0,2374713,2225,324,32,1442,-400,-322,146,62,-256
0,2374726,2224,329,30,1441,-395,-320,146,62,-256
0,2374740,2224,329,30,1441,-395,-320,146,62,-256
0,2374752,2223,326,32,1435,-398,-316,146,62,-256
0,2374765,2221,332,30,1433,-394,-316,146,62,-256
0,2374778,2221,332,30,1433,-394,-316,146,62,-256
0,2374793,2224,321,29,1440,-391,-313,146,62,-256
0,2374808,2227,322,27,1443,-398,-315,146,62,-256
0,2374823,2223,323,30,1445,-397,-310,149,69,-255
0,2374839,2223,323,30,1445,-397,-310,149,69,-255
0,2374855,2228,325,35,1440,-401,-308,149,69,-255
0,2374871,2226,323,36,1442,-400,-313,149,69,-255
0,2374886,2227,326,27,1441,-407,-315,149,69,-255
0,2374900,2227,326,27,1441,-407,-315,149,69,-255
0,2374914,2224,324,27,1444,-404,-310,149,69,-255
0,2374928,2223,327,33,1447,-399,-313,149,69,-255
0,2374939,2223,327,33,1447,-399,-313,149,69,-255
0,2374953,2222,319,29,1449,-392,-316,139,69,-261
0,2374968,2229,318,37,1438,-400,-311,139,69,-261
0,2374982,2228,326,32,1442,-394,-304,139,69,-261
0,2374995,2228,326,32,1442,-394,-304,139,69,-261
0,2375010,2225,326,33,1441,-396,-314,139,69,-261
0,2375025,2225,321,28,1436,-398,-311,139,69,-261
0,2375041,2225,321,28,1436,-398,-311,139,69,-261
0,2375056,2228,320,27,1444,-393,-315,139,69,-261
0,2375070,2228,323,33,1441,-398,-317,139,69,-261
0,2375085,2226,328,35,1439,-400,-322,137,61,-259
0,2375099,2226,328,35,1439,-400,-322,137,61,-259
0,2375114,2226,324,30,1433,-404,-318,137,61,-259
0,2375129,2226,320,29,1439,-397,-317,137,61,-259
0,2375142,2225,316,30,1439,-398,-312,137,61,-259
0,2375154,2225,316,30,1439,-398,-312,137,61,-259
0,2375168,2224,326,30,1439,-404,-315,137,61,-259
0,2375182,2227,327,29,1447,-403,-312,137,61,-259
0,2375195,2227,327,29,1447,-403,-312,137,61,-259
0,2375209,2226,321,35,1440,-406,-309,135,59,-273
0,2375221,2226,321,35,1440,-406,-309,135,59,-273
0,2375234,2229,322,35,1443,-401,-313,135,59,-273
0,2375248,2224,325,35,1435,-401,-309,135,59,-273
0,2375263,2227,321,30,1440,-398,-320,135,59,-273
0,2375277,2227,321,30,1440,-398,-320,135,59,-273
0,2375290,2229,323,24,1440,-400,-316,135,59,-273
0,2375305,2223,321,39,1448,-397,-318,135,59,-273
0,2375318,2223,321,39,1448,-397,-318,135,59,-273
0,2375333,2223,322,29,1448,-399,-318,132,60,-268
0,2375349,2229,325,29,1438,-401,-319,132,60,-268
0,2375361,2229,325,29,1438,-401,-319,132,60,-268
0,2375372,2226,319,31,1435,-403,-317,132,60,-268
0,2375387,2228,321,31,1437,-401,-313,132,60,-268
0,2375400,2228,321,31,1437,-401,-313,132,60,-268
0,2375413,2227,323,31,1440,-406,-314,132,60,-268
0,2375428,2225,323,29,1438,-395,-311,132,60,-268
0,2375441,2225,323,29,1438,-395,-311,132,60,-268
0,2375454,2225,319,27,1441,-399,-315,132,60,-268
0,2375468,2228,322,34,1439,-403,-321,133,61,-265
0,2375482,2228,322,34,1439,-403,-321,133,61,-265
0,2375496,2225,325,35,1433,-402,-314,133,61,-265
0,2375512,2226,326,30,1426,-394,-309,133,61,-265
0,2375526,2226,320,29,1435,-399,-312,133,61,-265
0,2375539,2226,320,29,1435,-399,-312,133,61,-265
0,2375553,2227,319,32,1441,-405,-315,133,61,-265
0,2375567,2225,319,28,1438,-396,-314,133,61,-265
0,2375583,2224,322,33,1435,-395,-315,134,64,-278
0,2375598,2224,322,33,1435,-395,-315,134,64,-278
0,2375610,2225,324,35,1437,-396,-315,134,64,-278
0,2375623,2224,326,34,1443,-396,-321,134,64,-278
0,2375638,2224,326,34,1443,-396,-321,134,64,-278
0,2375651,2227,330,29,1428,-400,-308,134,64,-278
0,2375665,2229,326,36,1432,-399,-319,134,64,-278
0,2375678,2229,326,36,1432,-399,-319,134,64,-278
0,2375694,2226,330,28,1432,-396,-317,134,64,-278
0,2375706,2225,330,29,1443,-395,-310,134,64,-278
0,2375719,2225,330,29,1443,-395,-310,134,64,-278
0,2375733,2224,332,30,1434,-400,-317,138,68,-280
0,2375747,2226,333,26,1432,-395,-313,138,68,-280
0,2375761,2226,333,26,1432,-395,-313,138,68,-280
0,2375777,2223,335,33,1436,-395,-318,138,68,-280
0,2375791,2227,332,29,1433,-397,-318,138,68,-280
0,2375804,2224,333,30,1428,-402,-313,138,68,-280
0,2375819,2224,333,30,1428,-402,-313,138,68,-280
0,2375834,2224,331,30,1432,-396,-312,138,68,-280
0,2375847,2227,330,36,1439,-388,-319,139,71,-277
0,2375859,2227,330,36,1439,-388,-319,139,71,-277
0,2375872,2227,331,34,1438,-391,-318,139,71,-277
0,2375885,2227,334,33,1430,-399,-314,139,71,-277
0,2375899,2227,334,33,1430,-399,-314,139,71,-277
0,2375913,2226,339,26,1441,-395,-311,139,71,-277
0,2375923,2227,343,33,1438,-407,-309,139,71,-277
0,2375938,2227,343,33,1438,-407,-309,139,71,-277
0,2375950,2223,338,24,1433,-406,-311,139,71,-277
0,2375962,2224,338,31,1426,-400,-312,139,71,-277
0,2375977,2224,338,31,1426,-400,-312,139,71,-277
0,2375989,2224,340,35,1434,-395,-316,142,62,-286
0,2376004,2227,341,31,1439,-395,-315,142,62,-286
0,2376018,2227,341,31,1439,-395,-315,142,62,-286
0,2376032,2226,337,34,1434,-399,-313,142,62,-286
0,2376045,2225,337,33,1430,-406,-316,142,62,-286
0,2376060,2225,337,33,1430,-406,-316,142,62,-286
0,2376076,2226,336,28,1441,-400,-317,142,62,-286
0,2376090,2228,336,33,1447,-397,-312,142,62,-286
0,2376104,2227,336,33,1438,-396,-311,140,50,-284
0,2376118,2227,336,33,1438,-396,-311,140,50,-284
0,2376132,2229,329,36,1444,-401,-315,140,50,-284
0,2376147,2231,326,28,1443,-395,-313,140,50,-284
0,2376161,2231,326,28,1443,-395,-313,140,50,-284
0,2376173,2225,324,37,1443,-400,-321,140,50,-284
0,2376188,2226,328,31,1432,-402,-313,140,50,-284
0,2376202,2226,328,31,1432,-402,-313,140,50,-284
0,2376215,2223,331,35,1433,-399,-318,140,50,-284
0,2376226,2226,304,35,1438,-401,-315,134,56,-298
0,2376240,2226,304,35,1438,-401,-315,134,56,-298
0,2376255,2230,325,39,1444,-401,-314,134,56,-298
0,2376269,2229,313,32,1440,-407,-310,134,56,-298
0,2376284,2227,325,34,1443,-392,-321,134,56,-298
0,2376296,2227,325,34,1443,-392,-321,134,56,-298
0,2376311,2228,308,31,1441,-393,-322,134,56,-298
0,2376327,2228,308,31,1441,-393,-322,134,56,-298
0,2376341,2228,308,31,1441,-393,-322,134,56,-298
0,2376355,2227,313,27,1439,-399,-318,134,56,-298
0,2376369,2225,317,32,1430,-405,-315,137,55,-289
0,2376383,2225,317,32,1430,-405,-315,137,55,-289
0,2376395,2229,310,27,1424,-405,-314,137,55,-289
0,2376409,2231,305,29,1434,-401,-317,137,55,-289
0,2376423,2230,305,30,1428,-404,-315,137,55,-289
0,2376438,2230,305,30,1428,-404,-315,137,55,-289
0,2376452,2227,308,26,1436,-400,-317,137,55,-289
0,2376467,2232,306,32,1439,-397,-321,137,55,-289
0,2376481,2232,306,32,1439,-397,-321,137,55,-289
0,2376497,2229,304,26,1432,-396,-317,145,57,-297
0,2376512,2225,307,26,1431,-395,-323,145,57,-297
0,2376527,2226,314,35,1431,-400,-317,145,57,-297
0,2376542,2226,314,35,1431,-400,-317,145,57,-297
0,2376556,2228,311,31,1441,-397,-318,145,57,-297
0,2376569,2227,304,30,1430,-399,-314,145,57,-297
0,2376584,2227,309,23,1428,-396,-317,145,57,-297
0,2376596,2227,309,23,1428,-396,-317,145,57,-297
0,2376609,2225,316,26,1430,-396,-317,145,57,-297
0,2376625,2226,327,35,1424,-392,-316,143,57,-303
0,2376639,2226,327,35,1424,-392,-316,143,57,-303
0,2376650,2228,339,30,1428,-404,-318,143,57,-303
0,2376666,2227,317,24,1428,-399,-315,143,57,-303
0,2376680,2227,317,24,1428,-399,-315,143,57,-303
0,2376694,2227,321,27,1427,-401,-310,143,57,-303
0,2376709,2227,336,29,1429,-398,-314,143,57,-303
0,2376724,2223,324,30,1424,-397,-313,143,57,-303
0,2376739,2223,324,30,1424,-397,-313,143,57,-303
0,2376755,2224,330,28,1426,-395,-319,150,60,-302
0,2376766,2227,319,25,1431,-393,-316,150,60,-302
0,2376778,2227,319,25,1431,-393,-316,150,60,-302
0,2376793,2224,339,32,1427,-399,-314,150,60,-302
0,2376807,2226,330,32,1427,-401,-319,150,60,-302
0,2376821,2226,330,32,1427,-401,-319,150,60,-302
0,2376836,2223,349,32,1429,-401,-321,150,60,-302
0,2376848,2231,331,24,1430,-402,-314,150,60,-302
0,2376859,2231,331,24,1430,-402,-314,150,60,-302
0,2376875,2228,344,32,1428,-401,-313,150,60,-302
0,2376885,2225,349,30,1430,-397,-320,144,60,-304
0,2376896,2225,349,30,1430,-397,-320,144,60,-304
0,2376908,2220,376,31,1427,-397,-322,144,60,-304
0,2376924,2224,351,25,1436,-392,-325,144,60,-304
0,2376940,2224,351,25,1436,-392,-325,144,60,-304
0,2376952,2223,349,36,1433,-392,-313,144,60,-304
0,2376965,2226,353,30,1438,-398,-324,144,60,-304
0,2376980,2226,353,30,1438,-398,-324,144,60,-304
0,2376994,2224,362,33,1439,-396,-315,144,60,-304
0,2377008,2228,353,38,1435,-407,-319,136,62,-306
0,2377022,2228,353,38,1435,-407,-319,136,62,-306
0,2377036,2227,350,35,1432,-400,-308,136,62,-306
0,2377050,2230,347,28,1432,-397,-313,136,62,-306
0,2377061,2230,347,28,1432,-397,-313,136,62,-306
0,2377076,2223,351,31,1439,-397,-318,136,62,-306
0,2377091,2223,344,28,1443,-396,-319,136,62,-306
0,2377105,2225,340,29,1441,-401,-316,136,62,-306
0,2377120,2225,340,29,1441,-401,-316,136,62,-306
0,2377136,2226,338,28,1433,-405,-324,148,50,-316
0,2377151,2225,341,33,1438,-405,-318,148,50,-316
0,2377166,2226,335,34,1435,-403,-316,148,50,-316
0,2377182,2226,335,34,1435,-403,-316,148,50,-316
0,2377196,2227,337,23,1437,-399,-321,148,50,-316
0,2377210,2229,334,32,1436,-397,-317,148,50,-316
0,2377225,2228,337,29,1431,-398,-311,148,50,-316
0,2377239,2228,337,29,1431,-398,-311,148,50,-316
0,2377251,2226,337,34,1435,-403,-312,148,50,-316
0,2377265,2229,332,35,1434,-408,-311,143,49,-313
0,2377279,2229,332,35,1434,-408,-311,143,49,-313
0,2377293,2229,332,35,1434,-408,-311,143,49,-313
0,2377308,2226,315,33,1442,-396,-313,143,49,-313
0,2377322,2226,315,33,1442,-396,-313,143,49,-313
0,2377337,2223,328,32,1440,-394,-314,143,49,-313
0,2377349,2229,330,30,1442,-401,-308,143,49,-313
0,2377363,2229,330,30,1442,-401,-308,143,49,-313
0,2377378,2230,306,36,1440,-400,-309,143,49,-313
0,2377392,2224,325,31,1435,-403,-321,142,52,-318
0,2377406,2229,320,26,1444,-403,-320,142,52,-318
0,2377421,2229,320,26,1444,-403,-320,142,52,-318
0,2377435,2224,328,31,1431,-392,-311,142,52,-318
0,2377450,2228,314,28,1431,-400,-313,142,52,-318
0,2377465,2226,317,28,1434,-402,-312,142,52,-318
0,2377481,2226,317,28,1434,-402,-312,142,52,-318
0,2377494,2227,310,30,1438,-404,-314,142,52,-318
0,2377508,2223,321,25,1441,-394,-312,142,52,-318
0,2377523,2223,321,25,1441,-394,-312,142,52,-318
0,2377534,2226,317,36,1440,-399,-325,135,51,-319
0,2377547,2228,317,32,1432,-399,-315,135,51,-319
0,2377561,2228,317,32,1432,-399,-315,135,51,-319
0,2377572,2228,312,33,1435,-403,-311,135,51,-319
0,2377586,2229,323,35,1429,-408,-314,135,51,-319
0,2377598,2229,323,35,1429,-408,-314,135,51,-319
0,2377613,2227,321,27,1430,-403,-310,135,51,-319
0,2377630,2228,320,26,1433,-394,-317,135,51,-319
0,2377645,2228,317,29,1432,-397,-316,149,47,-319
0,2377661,2228,317,29,1432,-397,-316,149,47,-331
0,2377676,2227,318,29,1434,-395,-320,149,47,-331
0,2377688,2225,320,27,1426,-400,-318,149,47,-331
0,2377700,2225,320,27,1426,-400,-318,149,47,-331
0,2377714,2224,313,30,1430,-400,-312,149,47,-331
0,2377729,2229,311,36,1420,-401,-323,149,47,-331
0,2377743,2229,311,36,1420,-401,-323,149,47,-331
0,2377756,2229,317,28,1419,-399,-317,149,47,-331
0,2377768,2228,318,33,1425,-394,-318,149,47,-331
0,2377782,2228,318,33,1425,-394,-318,149,47,-331
0,2377796,2231,322,38,1437,-398,-316,149,47,-331
0,2377806,2227,340,29,1433,-395,-322,149,47,-331
0,2377819,2227,340,29,1433,-395,-322,149,47,-331
0,2377832,2225,321,29,1434,-395,-318,149,47,-331
0,2377845,2225,328,29,1428,-394,-318,149,47,-331
0,2377862,2225,328,29,1428,-394,-318,149,47,-331
0,2377875,2229,331,25,1430,-396,-322,149,47,-331
0,2377888,2222,330,33,1430,-402,-320,149,47,-331
0,2377904,2222,330,33,1430,-402,-320,149,47,-331
0,2377918,2224,329,34,1429,-398,-315,145,45,-335
0,2377932,2223,332,31,1427,-396,-313,145,45,-335
0,2377947,2227,346,29,1427,-396,-308,145,45,-335
0,2377961,2227,346,29,1427,-396,-308,145,45,-335
0,2377975,2221,338,28,1431,-395,-309,145,45,-335
0,2377988,2225,345,28,1426,-397,-312,145,45,-335
0,2378002,2225,345,28,1426,-397,-312,145,45,-335
0,2378017,2225,348,24,1429,-395,-319,145,45,-335
0,2378032,2225,363,29,1428,-397,-312,137,45,-331
0,2378046,2224,346,34,1427,-404,-316,137,45,-331
0,2378060,2224,346,34,1427,-404,-316,137,45,-331
0,2378075,2224,349,37,1431,-404,-325,137,45,-331
0,2378090,2231,344,26,1434,-400,-323,137,45,-331
0,2378106,2224,345,28,1438,-401,-312,137,45,-331
0,2378122,2224,345,28,1438,-401,-312,137,45,-331
0,2378137,2227,340,27,1437,-399,-315,137,45,-331
0,2378151,2229,344,30,1430,-398,-321,137,45,-331
0,2378166,2227,343,30,1435,-400,-309,146,46,-331
0,2378180,2227,343,30,1435,-400,-309,146,46,-332
0,2378194,2225,341,28,1435,-400,-309,146,46,-332
0,2378210,2226,341,30,1434,-400,-318,146,46,-332
0,2378222,2226,341,30,1434,-400,-318,146,46,-332
0,2378233,2224,344,24,1435,-400,-314,146,46,-332
0,2378248,2225,337,29,1435,-405,-316,146,46,-332
0,2378261,2225,337,29,1435,-405,-316,146,46,-332
0,2378276,2223,334,28,1429,-411,-314,146,46,-332
0,2378292,2226,333,28,1431,-401,-313,137,51,-345
0,2378307,2223,332,33,1431,-405,-314,137,51,-345
0,2378322,2223,332,33,1431,-405,-314,137,51,-345
0,2378338,2227,327,38,1441,-409,-311,137,51,-345
0,2378351,2228,333,23,1437,-409,-314,137,51,-345
0,2378368,2224,334,24,1436,-402,-323,137,51,-345
0,2378381,2224,334,24,1436,-402,-323,137,51,-345
0,2378395,2228,331,32,1440,-391,-320,137,51,-345
0,2378411,2225,329,27,1441,-396,-322,137,51,-345
0,2378424,2225,329,27,1441,-396,-322,137,51,-345
0,2378436,2222,334,38,1441,-399,-325,135,47,-349
0,2378450,2222,333,38,1448,-400,-316,135,47,-349
0,2378465,2222,333,38,1448,-400,-316,135,47,-349
0,2378479,2225,330,35,1441,-402,-320,135,47,-349
0,2378493,2228,333,29,1439,-399,-324,135,47,-349
0,2378506,2224,338,33,1439,-400,-322,135,47,-349
0,2378519,2224,338,33,1439,-400,-322,135,47,-349
0,2378534,2227,339,31,1436,-400,-318,135,47,-349
0,2378549,2224,336,37,1440,-397,-316,139,49,-353
0,2378562,2224,336,37,1440,-397,-316,139,49,-353
0,2378576,2228,334,33,1432,-403,-314,139,49,-353
0,2378591,2225,331,26,1444,-406,-317,139,49,-353
0,2378606,2222,331,26,1441,-397,-309,139,49,-353
0,2378620,2222,331,26,1441,-397,-309,139,49,-353
0,2378633,2222,327,28,1439,-401,-316,139,49,-353
0,2378646,2227,331,29,1446,-388,-319,139,49,-353
0,2378658,2227,331,29,1446,-388,-319,139,49,-353
0,2378674,2224,327,35,1445,-394,-323,139,47,-355
0,2378687,2224,320,38,1441,-393,-314,139,47,-355
0,2378702,2224,320,38,1441,-393,-314,139,47,-355
0,2378717,2227,327,34,1440,-400,-315,139,47,-355
0,2378731,2226,326,32,1441,-400,-321,139,47,-355
0,2378745,2226,326,32,1441,-400,-321,139,47,-355
0,2378760,2223,324,33,1441,-403,-321,139,47,-355
0,2378770,2229,327,27,1435,-403,-319,139,47,-355
0,2378785,2225,326,28,1439,-397,-313,139,47,-355
0,2378801,2225,326,28,1439,-397,-313,139,47,-355
0,2378817,2223,325,30,1445,-391,-315,140,52,-346
0,2378830,2224,326,34,1439,-395,-315,140,52,-346
0,2378843,2224,326,34,1439,-395,-315,140,52,-346
0,2378856,2227,327,26,1439,-391,-318,140,52,-346
0,2378871,2230,322,31,1434,-395,-327,140,52,-346
0,2378887,2226,321,31,1434,-403,-315,140,52,-346
0,2378901,2226,321,31,1434,-403,-315,140,52,-346
0,2378915,2225,323,30,1442,-400,-317,140,52,-346
0,2378931,2227,324,33,1440,-396,-316,133,47,-355
0,2378944,2227,324,33,1440,-396,-316,133,47,-355
0,2378953,2226,323,28,1437,-401,-315,133,47,-355
0,2378967,2225,325,25,1436,-399,-315,133,47,-355
0,2378981,2225,325,25,1436,-399,-315,133,47,-355
0,2378996,2221,326,30,1437,-401,-319,133,47,-355
0,2379011,2224,323,27,1440,-397,-314,133,47,-355
0,2379026,2226,321,24,1440,-393,-320,133,47,-355
0,2379041,2226,321,24,1440,-393,-320,133,47,-355
0,2379056,2228,319,35,1448,-397,-317,133,47,-355
0,2379070,2227,321,39,1437,-402,-313,143,55,-361
0,2379084,2227,321,39,1437,-402,-313,143,55,-361
0,2379099,2225,320,29,1433,-396,-317,143,55,-361
0,2379111,2225,323,30,1440,-396,-318,143,55,-361
0,2379123,2225,323,30,1440,-396,-318,143,55,-361
0,2379138,2228,323,29,1439,-399,-321,143,55,-361
0,2379153,2224,327,28,1433,-399,-315,143,55,-361
0,2379167,2226,314,28,1430,-399,-317,143,55,-361
0,2379182,2226,314,28,1430,-399,-317,143,55,-361
0,2379196,2224,321,28,1435,-400,-319,141,49,-371
0,2379210,2226,319,30,1432,-394,-307,141,49,-371
0,2379223,2226,319,30,1432,-394,-307,141,49,-371
0,2379238,2223,321,31,1435,-398,-313,141,49,-371
0,2379253,2224,318,30,1431,-395,-322,141,49,-371
0,2379266,2224,318,30,1431,-395,-322,141,49,-371
0,2379279,2226,322,26,1438,-395,-318,141,49,-371
0,2379295,2223,316,31,1439,-396,-320,141,49,-371
0,2379312,2223,320,29,1434,-398,-315,141,49,-371
0,2379327,2228,318,30,1431,-400,-313,141,47,-369
0,2379342,2228,318,30,1431,-400,-313,141,47,-369
0,2379357,2226,324,27,1426,-405,-314,141,47,-369
0,2379371,2227,320,28,1433,-400,-314,141,47,-369
0,2379385,2227,320,28,1433,-400,-314,141,47,-369
0,2379399,2224,320,32,1434,-401,-323,141,47,-369
0,2379413,2225,321,26,1437,-403,-317,141,47,-369
0,2379424,2225,321,26,1437,-403,-317,141,47,-369
0,2379440,2223,318,26,1436,-403,-319,141,47,-369
0,2379454,2224,319,33,1432,-396,-310,165,49,-375
0,2379469,2226,319,26,1433,-401,-312,165,49,-375
0,2379484,2226,319,26,1433,-401,-312,165,49,-375
0,2379497,2224,317,27,1429,-402,-317,165,49,-375
0,2379511,2225,314,29,1430,-403,-318,165,49,-375
0,2379527,2224,322,22,1437,-395,-324,165,49,-375
0,2379541,2224,322,22,1437,-395,-324,165,49,-375
0,2379555,2225,322,25,1426,-409,-317,165,49,-375
0,2379570,2226,321,32,1429,-399,-315,164,58,-372
0,2379584,2226,321,32,1429,-399,-315,164,58,-372
0,2379597,2224,316,31,1422,-399,-314,164,58,-372
0,2379609,2224,320,25,1432,-404,-320,164,58,-372
0,2379623,2224,320,25,1432,-404,-320,164,58,-372
0,2379636,2222,316,30,1440,-392,-316,164,58,-372
0,2379651,2224,317,23,1434,-394,-313,164,58,-372
0,2379666,2224,317,23,1434,-394,-313,164,58,-372
0,2379680,2226,319,29,1433,-396,-313,164,58,-372
0,2379694,2224,328,31,1432,-399,-312,164,58,-372
0,2379708,2225,320,26,1433,-397,-319,172,58,-378
0,2379723,2225,320,26,1433,-397,-319,172,58,-378
0,2379738,2221,326,28,1436,-393,-321,172,58,-378
0,2379752,2223,327,28,1440,-401,-317,172,58,-378
0,2379764,2223,327,28,1440,-401,-317,172,58,-378
0,2379778,2224,329,30,1434,-403,-314,172,58,-378
0,2379792,2223,329,32,1435,-401,-313,172,58,-378
0,2379806,2223,329,32,1435,-401,-313,172,58,-378
0,2379821,2226,333,23,1426,-402,-316,172,58,-378
0,2379834,2221,340,26,1433,-397,-314,169,51,-381
0,2379845,2221,340,26,1433,-397,-314,169,51,-381
0,2379858,2224,336,29,1430,-395,-303,169,51,-381
0,2379874,2218,343,23,1431,-401,-315,169,51,-381
0,2379890,2225,345,27,1424,-406,-317,169,51,-381
0,2379905,2225,345,27,1424,-406,-317,169,51,-381
0,2379918,2221,348,28,1428,-400,-318,169,51,-381
0,2379932,2226,345,23,1424,-401,-321,169,51,-381
0,2379948,2224,347,27,1437,-395,-320,169,51,-381
0,2379963,2224,347,27,1437,-395,-320,169,51,-381
0,2379977,2223,343,31,1440,-394,-320,176,60,-382
0,2379992,2220,341,31,1439,-400,-316,176,60,-382
0,2380006,2220,341,31,1439,-400,-316,176,60,-382
0,2380020,2224,334,29,1440,-403,-319,176,60,-382
0,2380034,2223,335,26,1441,-397,-319,176,60,-382
0,2380047,2223,335,26,1441,-397,-319,176,60,-382
0,2380060,2223,331,25,1449,-399,-315,176,60,-382
0,2380075,2221,328,26,1443,-402,-317,176,60,-382
0,2380089,2223,334,34,1441,-401,-323,179,61,-383
0,2380103,2223,334,34,1441,-401,-323,179,61,-383
0,2380119,2222,336,31,1447,-403,-320,179,61,-383
0,2380134,2222,335,31,1447,-400,-317,179,61,-383
0,2380149,2223,332,30,1438,-400,-323,179,61,-383
0,2380165,2223,332,30,1438,-400,-323,179,61,-383
0,2380180,2223,335,27,1439,-402,-312,179,61,-383
0,2380194,2225,321,31,1443,-396,-314,179,61,-383
0,2380209,2225,321,23,1434,-398,-315,179,61,-383
0,2380223,2225,321,23,1434,-398,-315,179,61,-383
0,2380237,2225,325,32,1439,-398,-313,190,58,-386
0,2380253,2224,329,33,1449,-396,-314,190,58,-386
0,2380266,2224,329,33,1449,-396,-314,190,58,-386
0,2380278,2225,324,31,1452,-401,-311,190,58,-386
0,2380293,2224,325,32,1436,-408,-316,190,58,-386
0,2380309,2222,326,28,1439,-404,-319,190,58,-386
0,2380324,2222,326,28,1439,-404,-319,190,58,-386
0,2380338,2223,326,26,1443,-397,-320,190,58,-386
0,2380352,2226,325,32,1435,-397,-317,198,58,-376
0,2380366,2226,325,32,1435,-397,-317,198,58,-376
0,2380382,2228,329,28,1440,-396,-311,198,58,-376
0,2380395,2225,326,29,1438,-391,-319,198,58,-376
0,2380409,2221,329,31,1439,-403,-323,198,58,-376
0,2380424,2221,329,31,1439,-403,-323,198,58,-376
0,2380438,2225,327,27,1436,-399,-317,198,58,-376
0,2380451,2227,326,27,1443,-394,-312,198,58,-376
0,2380463,2227,326,27,1443,-394,-312,198,58,-376
0,2380477,2223,328,32,1444,-399,-311,199,53,-383
0,2380490,2224,323,28,1444,-394,-307,199,53,-383
0,2380506,2224,323,28,1444,-394,-307,199,53,-383
0,2380520,2228,323,26,1443,-394,-314,199,53,-383
0,2380534,2224,325,31,1440,-406,-319,199,53,-383
0,2380548,2224,325,31,1440,-406,-319,199,53,-383
0,2380563,2220,326,35,1439,-406,-318,199,53,-383
0,2380577,2223,329,36,1436,-403,-322,199,53,-383
0,2380594,2227,324,24,1433,-401,-316,199,53,-383
0,2380609,2228,319,34,1432,-401,-315,196,66,-378
0,2380621,2228,319,34,1432,-401,-315,196,66,-378
0,2380633,2221,318,34,1439,-402,-311,196,66,-378
0,2380647,2221,318,34,1439,-402,-311,196,66,-378
0,2380660,2221,322,32,1442,-400,-314,196,66,-378
0,2380675,2220,320,32,1446,-401,-317,196,66,-378
0,2380689,2223,321,35,1446,-402,-321,196,66,-378
0,2380704,2223,321,35,1446,-402,-321,196,66,-378
0,2380716,2222,323,30,1441,-395,-310,196,66,-378
0,2380730,2220,321,27,1435,-402,-316,197,55,-387
0,2380745,2220,321,27,1435,-402,-316,197,55,-387
0,2380759,2223,320,36,1434,-401,-311,197,55,-387
0,2380773,2223,325,34,1436,-408,-304,197,55,-387
0,2380789,2230,322,31,1441,-403,-309,197,55,-387
0,2380805,2230,322,31,1441,-403,-309,197,55,-387
0,2380820,2227,322,30,1439,-394,-310,197,55,-387
0,2380833,2223,321,33,1438,-394,-312,197,55,-387
0,2380844,2223,321,33,1438,-394,-312,197,55,-387
0,2380855,2223,321,21,1434,-397,-318,197,55,-387
0,2380868,2223,321,21,1434,-397,-318,197,55,-387
0,2380881,2225,319,34,1440,-399,-314,199,55,-383
0,2380895,2225,320,30,1441,-390,-313,199,55,-383
0,2380909,2224,322,31,1442,-396,-323,199,55,-383
0,2380924,2224,322,31,1442,-396,-323,199,55,-383
0,2380938,2230,320,31,1436,-400,-313,199,55,-383
0,2380950,2226,324,29,1437,-401,-314,199,55,-383
0,2380964,2226,324,29,1437,-401,-314,199,55,-383
0,2380979,2224,324,27,1441,-393,-319,199,55,-383
0,2380992,2225,317,29,1440,-396,-312,205,51,-371
0,2381007,2225,317,29,1440,-396,-312,205,51,-371
0,2381023,2225,319,37,1440,-394,-316,205,51,-371
0,2381038,2224,319,32,1431,-397,-319,205,51,-371
0,2381052,2224,323,33,1435,-401,-315,205,51,-371
0,2381066,2224,323,33,1435,-401,-315,205,51,-371
0,2381081,2225,323,25,1437,-393,-312,205,51,-371
0,2381095,2226,320,36,1436,-398,-318,205,51,-371
0,2381109,2223,321,32,1437,-401,-319,205,51,-371
0,2381121,2223,321,32,1437,-401,-319,205,51,-371
0,2381136,2223,320,34,1433,-398,-312,208,48,-380
0,2381151,2225,321,24,1435,-403,-310,208,48,-380
0,2381162,2225,321,24,1435,-403,-310,208,48,-380
0,2381175,2226,318,22,1435,-398,-312,208,48,-380
0,2381190,2223,320,35,1429,-400,-308,208,48,-380
0,2381204,2223,320,35,1429,-400,-308,208,48,-380
0,2381217,2225,314,31,1435,-391,-312,208,48,-380
0,2381233,2225,320,29,1440,-387,-312,208,48,-380
0,2381247,2225,320,29,1440,-387,-312,208,48,-380
0,2381261,2223,316,35,1435,-398,-308,205,47,-369
0,2381277,2225,324,27,1430,-398,-315,205,47,-369
0,2381291,2224,325,26,1435,-402,-314,205,47,-369
0,2381305,2224,325,26,1435,-402,-314,205,47,-369
0,2381318,2227,321,30,1438,-398,-316,205,47,-369
0,2381332,2226,323,29,1435,-393,-321,205,47,-369
0,2381347,2226,323,29,1435,-393,-321,205,47,-369
0,2381362,2227,321,34,1434,-394,-314,205,47,-369
0,2381375,2225,320,34,1438,-392,-309,215,55,-377
0,2381387,2225,320,34,1438,-392,-309,215,55,-377
0,2381402,2224,323,31,1447,-397,-312,215,55,-377
0,2381416,2225,324,28,1442,-394,-325,215,55,-377
0,2381430,2222,325,29,1435,-394,-319,215,55,-377
0,2381445,2222,325,29,1435,-394,-319,215,55,-377
0,2381457,2222,328,28,1433,-394,-320,215,55,-377
0,2381468,2222,328,28,1433,-394,-320,215,55,-377
0,2381483,2221,330,31,1432,-398,-322,215,55,-377
0,2381497,2227,328,29,1444,-397,-320,215,55,-377
0,2381511,2224,326,33,1439,-400,-313,213,47,-373
0,2381527,2224,326,33,1439,-400,-313,213,47,-373
0,2381542,2223,326,37,1432,-400,-314,213,47,-373
0,2381557,2224,335,39,1438,-389,-322,213,47,-373
0,2381574,2226,336,24,1443,-397,-313,213,47,-373
0,2381589,2226,333,28,1430,-400,-313,213,47,-373
0,2381605,2226,333,28,1430,-400,-313,213,47,-373
0,2381619,2220,335,30,1437,-401,-316,213,47,-373
0,2381634,2225,336,31,1443,-404,-305,210,48,-378
0,2381647,2225,336,31,1443,-404,-305,210,48,-378
0,2381663,2224,340,29,1444,-397,-318,210,48,-378
0,2381677,2221,347,31,1448,-400,-325,210,48,-378
0,2381689,2227,340,29,1444,-396,-317,210,48,-378
0,2381703,2227,340,29,1444,-396,-317,210,48,-378
0,2381717,2224,334,29,1448,-396,-320,210,48,-378
0,2381731,2225,335,29,1452,-401,-314,210,48,-378
0,2381746,2225,335,29,1452,-401,-314,210,48,-378
0,2381761,2224,339,32,1449,-393,-312,210,48,-378
0,2381775,2222,334,33,1448,-399,-322,216,52,-366
0,2381791,2224,334,34,1453,-396,-316,216,52,-366
0,2381807,2224,334,34,1453,-396,-316,216,52,-366
0,2381821,2222,329,33,1444,-393,-313,216,52,-366
0,2381836,2223,327,33,1441,-391,-312,216,52,-366
0,2381850,2224,326,30,1437,-396,-313,216,52,-366
0,2381865,2224,326,30,1437,-396,-313,216,52,-366
0,2381880,2227,327,27,1443,-400,-313,216,52,-366
0,2381894,2224,326,40,1447,-404,-315,220,44,-370
0,2381910,2222,306,35,1439,-405,-324,220,44,-370
0,2381923,2222,306,35,1439,-405,-324,220,44,-370
0,2381936,2228,320,31,1444,-397,-322,220,44,-370
0,2381950,2228,315,33,1446,-395,-317,220,44,-370
0,2381964,2228,315,33,1446,-395,-317,220,44,-370
0,2381976,2224,325,36,1435,-400,-316,220,44,-370
0,2381987,2224,325,36,1435,-400,-316,220,44,-370
0,2382003,2229,307,23,1433,-395,-325,220,44,-370
0,2382018,2228,322,34,1442,-394,-317,227,49,-369
0,2382032,2226,312,41,1439,-398,-313,227,49,-369
0,2382045,2226,312,41,1439,-398,-313,227,49,-369
0,2382060,2224,324,39,1440,-400,-313,227,49,-369
0,2382075,2229,313,35,1436,-392,-319,227,49,-369
0,2382091,2227,317,34,1436,-390,-319,227,49,-369
0,2382105,2227,317,34,1436,-390,-319,227,49,-369
0,2382119,2230,299,35,1438,-391,-317,227,49,-369
0,2382134,2223,306,29,1445,-392,-313,227,49,-369
0,2382147,2223,306,29,1445,-392,-313,227,49,-369
0,2382161,2227,307,37,1437,-390,-314,215,43,-367
0,2382175,2224,312,32,1434,-396,-318,215,43,-367
0,2382188,2224,312,32,1434,-396,-318,215,43,-367
0,2382204,2227,302,36,1440,-402,-317,215,43,-367
0,2382218,2224,312,28,1434,-403,-315,215,43,-367
0,2382232,2227,311,30,1429,-399,-312,215,43,-367
0,2382246,2227,311,30,1429,-399,-312,215,43,-367
0,2382262,2228,317,32,1421,-398,-308,215,43,-367
0,2382276,2227,309,29,1431,-400,-315,223,45,-365
0,2382288,2227,309,29,1431,-400,-315,223,45,-365
0,2382304,2229,318,36,1437,-392,-316,223,45,-365
0,2382319,2227,316,32,1441,-396,-318,223,45,-365
0,2382333,2223,312,34,1428,-396,-328,223,45,-365
0,2382345,2223,312,34,1428,-396,-328,223,45,-365
0,2382358,2229,313,22,1427,-400,-319,223,45,-365
0,2382372,2227,316,23,1427,-400,-319,223,45,-365
0,2382387,2227,316,23,1427,-400,-319,223,45,-365
0,2382401,2226,315,30,1429,-406,-319,223,45,-365
0,2382414,2225,325,35,1424,-409,-316,231,53,-361
0,2382428,2225,325,35,1424,-409,-316,231,53,-361
0,2382441,2226,329,31,1435,-399,-307,231,53,-361
0,2382455,2229,322,34,1433,-395,-317,231,53,-361
0,2382470,2229,322,34,1433,-395,-317,231,53,-361
0,2382484,2228,319,30,1441,-397,-320,231,53,-361
0,2382498,2228,335,30,1428,-401,-325,231,53,-361
0,2382514,2225,324,31,1418,-403,-317,231,53,-361
0,2382530,2225,324,31,1418,-403,-317,231,53,-361
0,2382544,2224,325,33,1418,-400,-318,225,47,-361
0,2382560,2228,322,28,1424,-400,-315,225,47,-361
0,2382574,2224,340,30,1426,-400,-318,225,47,-361
0,2382588,2224,340,30,1426,-400,-318,225,47,-361
0,2382603,2224,335,28,1433,-399,-314,225,47,-361
0,2382616,2221,349,24,1430,-395,-314,225,47,-361
0,2382629,2221,349,24,1430,-395,-314,225,47,-361
0,2382643,2228,340,30,1422,-399,-320,225,47,-361
0,2382658,2223,366,27,1432,-398,-310,225,47,-361
0,2382671,2223,355,34,1431,-403,-311,224,52,-362
0,2382686,2223,355,34,1431,-403,-311,224,52,-362
0,2382700,2222,358,35,1430,-393,-318,224,52,-362
0,2382712,2224,345,31,1434,-403,-315,224,52,-362
0,2382727,2224,345,31,1434,-403,-315,224,52,-362
0,2382741,2225,349,32,1447,-397,-322,224,52,-362
0,2382754,2222,347,29,1436,-395,-323,224,52,-362
0,2382769,2222,347,29,1436,-395,-323,224,52,-362
0,2382783,2223,351,33,1433,-394,-319,224,52,-362
0,2382797,2226,340,39,1443,-396,-326,235,51,-353
0,2382813,2226,339,34,1445,-389,-320,235,51,-353
0,2382827,2226,339,34,1445,-389,-320,235,51,-353
0,2382841,2227,343,30,1440,-399,-314,235,51,-353
0,2382856,2221,339,38,1428,-403,-314,235,51,-353
0,2382869,2221,339,38,1428,-403,-314,235,51,-353
0,2382884,2224,338,29,1446,-398,-317,235,51,-353
0,2382896,2226,335,34,1435,-402,-327,235,51,-353
0,2382909,2226,335,34,1435,-402,-327,235,51,-353
0,2382922,2225,341,39,1435,-397,-315,237,53,-353
0,2382937,2225,335,34,1437,-397,-316,237,53,-353
0,2382951,2229,332,32,1444,-403,-312,237,53,-353
0,2382962,2229,332,32,1444,-403,-312,237,53,-353
0,2382977,2228,327,36,1434,-401,-316,237,53,-353
0,2382992,2229,329,39,1432,-401,-317,237,53,-353
0,2383005,2229,329,39,1432,-401,-317,237,53,-353
0,2383020,2227,330,26,1434,-402,-312,237,53,-353
0,2383033,2227,330,34,1443,-396,-308,237,53,-353
0,2383048,2227,330,34,1443,-396,-308,237,53,-353
0,2383063,2229,326,40,1441,-395,-320,229,65,-361
0,2383078,2230,330,36,1440,-395,-321,229,65,-361
0,2383092,2227,328,37,1436,-399,-316,229,65,-361
0,2383107,2227,328,37,1436,-399,-316,229,65,-361
0,2383122,2227,326,35,1445,-395,-317,229,65,-361
0,2383136,2226,324,27,1437,-399,-313,229,65,-361
0,2383152,2223,325,30,1444,-398,-313,229,65,-361
0,2383163,2223,325,30,1444,-398,-313,229,65,-361
0,2383176,2225,324,40,1443,-398,-308,226,50,-352
0,2383193,2228,332,36,1438,-400,-306,226,50,-352
0,2383208,2228,332,36,1438,-400,-306,226,50,-352
0,2383222,2230,328,34,1430,-397,-317,226,50,-352
0,2383236,2229,329,35,1426,-402,-315,226,50,-352
0,2383251,2229,329,35,1426,-402,-315,226,50,-352
0,2383266,2230,330,31,1428,-402,-307,226,50,-352
0,2383282,2228,336,40,1437,-402,-308,226,50,-352
0,2383297,2224,330,27,1438,-399,-316,226,50,-352
0,2383311,2223,329,36,1438,-402,-322,226,50,-352
0,2383326,2223,329,36,1438,-402,-322,236,70,-354
0,2383340,2223,329,37,1446,-396,-316,236,70,-354
0,2383353,2225,328,37,1435,-400,-313,236,70,-354
0,2383367,2225,328,37,1435,-400,-313,236,70,-354
0,2383379,2224,326,30,1438,-397,-319,236,70,-354
0,2383393,2227,326,37,1437,-403,-322,236,70,-354
0,2383408,2227,326,37,1437,-403,-322,236,70,-354
0,2383422,2229,328,36,1444,-400,-316,236,70,-354
0,2383437,2226,327,36,1443,-402,-311,248,72,-356
0,2383453,2227,326,34,1438,-397,-313,248,72,-356
0,2383468,2227,326,34,1438,-397,-313,248,72,-356
0,2383483,2224,330,35,1438,-395,-319,248,72,-356
0,2383496,2225,330,32,1434,-401,-323,248,72,-356
0,2383510,2225,330,32,1434,-401,-323,248,72,-356
0,2383525,2227,327,28,1443,-395,-319,248,72,-356
0,2383539,2225,330,28,1441,-398,-317,248,72,-356
0,2383551,2225,330,28,1441,-398,-317,248,72,-356
0,2383564,2226,327,31,1440,-404,-316,248,72,-356
0,2383579,2225,329,34,1434,-399,-316,238,70,-352
0,2383593,2227,329,33,1443,-392,-320,238,70,-352
0,2383607,2227,329,33,1443,-392,-320,238,70,-352
0,2383622,2226,332,35,1442,-399,-319,238,70,-352
0,2383633,2226,327,30,1446,-396,-315,238,70,-352
0,2383646,2226,327,30,1446,-396,-315,238,70,-352
0,2383662,2226,331,33,1441,-393,-318,238,70,-352
0,2383676,2226,329,31,1440,-395,-316,238,70,-352
0,2383689,2226,329,31,1440,-395,-316,238,70,-352
0,2383705,2224,331,38,1440,-398,-313,238,68,-346
0,2383720,2224,327,37,1438,-396,-309,238,68,-346
0,2383727,2224,327,37,1438,-396,-309,238,68,-346
0,2383742,2228,327,35,1440,-402,-310,238,68,-346
0,2383752,2228,327,35,1440,-402,-310,238,68,-346
0,2383766,2226,327,32,1436,-399,-320,238,68,-346
0,2383780,2225,330,31,1441,-393,-319,238,68,-346
0,2383794,2231,330,33,1445,-394,-315,238,68,-346
0,2383808,2231,330,33,1445,-394,-315,238,68,-346
0,2383822,2231,331,37,1439,-405,-324,248,74,-346
0,2383834,2228,324,29,1436,-403,-314,248,74,-346
0,2383847,2228,324,29,1436,-403,-314,248,74,-346
0,2383860,2228,323,30,1445,-395,-313,248,74,-346
0,2383875,2226,325,34,1441,-399,-314,248,74,-346
0,2383889,2226,325,34,1441,-399,-314,248,74,-346
0,2383905,2225,322,28,1430,-407,-311,248,74,-346
0,2383920,2228,317,26,1430,-403,-312,248,74,-346
0,2383935,2226,319,34,1431,-401,-315,248,74,-346
0,2383947,2226,319,34,1431,-401,-315,248,74,-346
0,2383962,2225,318,32,1437,-400,-313,244,72,-344
0,2383976,2229,327,37,1438,-400,-310,244,72,-344
0,2383986,2229,327,37,1438,-400,-310,244,72,-344
0,2384000,2229,322,34,1440,-395,-321,244,72,-344
0,2384015,2228,319,32,1435,-397,-316,244,72,-344
0,2384028,2228,319,32,1435,-397,-316,244,72,-344
0,2384043,2227,313,35,1434,-401,-311,244,72,-344
0,2384058,2229,319,30,1431,-397,-317,244,72,-344
0,2384072,2229,319,30,1431,-397,-317,244,72,-344
0,2384083,2230,319,32,1432,-402,-314,250,76,-332
0,2384098,2226,319,30,1425,-402,-315,250,76,-332
0,2384112,2225,311,29,1428,-404,-315,250,76,-332
0,2384128,2225,311,29,1428,-404,-315,250,76,-332
0,2384140,2226,317,33,1435,-397,-313,250,76,-332
0,2384155,2228,316,25,1434,-398,-315,250,76,-332
0,2384171,2228,316,25,1434,-398,-315,250,76,-332
0,2384186,2232,320,30,1431,-398,-308,250,76,-332
0,2384199,2228,321,25,1433,-394,-311,250,76,-332
0,2384214,2227,325,31,1431,-400,-315,257,79,-343
0,2384225,2227,325,31,1431,-400,-315,257,79,-343
0,2384241,2229,320,30,1430,-389,-320,257,79,-343
0,2384254,2227,322,35,1431,-388,-318,257,79,-343
0,2384268,2227,322,35,1431,-388,-318,257,79,-343
0,2384281,2225,320,29,1430,-392,-317,257,79,-343
0,2384295,2225,319,27,1437,-391,-310,257,79,-343
0,2384310,2225,319,27,1437,-391,-310,257,79,-343
0,2384321,2225,318,24,1429,-400,-310,257,79,-343
0,2384333,2225,316,30,1430,-399,-316,252,72,-338
0,2384348,2225,316,30,1430,-399,-316,252,72,-338
0,2384363,2230,321,34,1428,-399,-318,252,72,-338
0,2384379,2229,323,30,1435,-392,-321,252,72,-338
0,2384392,2229,323,30,1435,-392,-321,252,72,-338
0,2384405,2232,322,28,1431,-399,-324,252,72,-338
0,2384420,2228,332,28,1423,-390,-313,252,72,-338
0,2384435,2226,331,26,1428,-394,-313,252,72,-338
0,2384448,2226,331,26,1428,-394,-313,252,72,-338
0,2384463,2226,321,23,1430,-397,-320,252,72,-338
0,2384477,2227,322,27,1432,-397,-313,248,74,-334
0,2384492,2227,322,27,1432,-397,-313,248,74,-334
0,2384503,2227,322,27,1432,-397,-313,248,74,-334
0,2384517,2222,328,24,1427,-403,-321,248,74,-334
0,2384533,2226,329,26,1429,-400,-317,248,74,-334
0,2384548,2226,329,26,1429,-400,-317,248,74,-334
0,2384563,2228,333,26,1425,-400,-317,248,74,-334
0,2384576,2224,351,26,1418,-397,-317,248,74,-334
0,2384590,2224,351,26,1418,-397,-317,248,74,-334
0,2384603,2225,341,33,1426,-400,-313,242,76,-334
0,2384617,2227,348,34,1431,-396,-315,242,76,-334
0,2384630,2227,348,34,1431,-396,-315,242,76,-334
0,2384645,2228,356,23,1430,-395,-315,242,76,-334
0,2384656,2222,351,26,1427,-392,-314,242,76,-334
0,2384668,2222,351,26,1427,-392,-314,242,76,-334
0,2384683,2222,347,25,1428,-396,-314,242,76,-334
0,2384697,2224,356,23,1424,-405,-318,242,76,-334
0,2384712,2224,356,23,1424,-405,-318,242,76,-334
0,2384727,2228,346,32,1431,-402,-316,253,75,-329
0,2384741,2225,345,27,1440,-394,-309,253,75,-329
0,2384753,2225,345,27,1440,-394,-309,253,75,-329
0,2384768,2228,343,28,1437,-397,-320,253,75,-329
0,2384783,2228,349,25,1423,-400,-323,253,75,-329
0,2384797,2223,340,30,1431,-399,-314,253,75,-329
0,2384811,2223,340,30,1431,-399,-314,253,75,-329
0,2384825,2223,337,31,1432,-403,-315,253,75,-329
0,2384840,2224,345,24,1431,-396,-322,253,75,-329
0,2384856,2228,337,34,1436,-391,-313,246,80,-326
0,2384870,2228,337,34,1436,-391,-313,246,80,-326
0,2384884,2227,335,29,1439,-401,-316,246,80,-326
0,2384899,2226,341,30,1443,-396,-322,246,80,-326
0,2384911,2226,341,30,1443,-396,-322,246,80,-326
0,2384927,2225,335,30,1440,-399,-317,246,80,-326
0,2384941,2227,329,33,1438,-399,-321,246,80,-326
0,2384953,2227,329,33,1438,-399,-321,246,80,-326
0,2384967,2228,328,28,1439,-403,-321,246,80,-326
0,2384980,2231,336,36,1429,-398,-318,255,65,-319
0,2384996,2226,338,37,1438,-395,-320,255,65,-319
0,2385004,2226,338,37,1438,-395,-320,255,65,-319
0,2385019,2225,334,37,1439,-401,-320,255,65,-319
0,2385034,2225,332,33,1438,-397,-316,255,65,-319
0,2385049,2225,332,33,1438,-397,-316,255,65,-319
0,2385062,2225,331,33,1440,-393,-321,255,65,-319
0,2385078,2225,336,38,1442,-399,-318,255,65,-319
0,2385093,2225,336,38,1442,-399,-318,255,65,-319
0,2385108,2227,334,28,1442,-401,-315,255,65,-319
0,2385124,2227,335,34,1440,-399,-313,238,76,-326
0,2385138,2227,333,28,1448,-390,-320,238,76,-326
0,2385153,2227,333,28,1448,-390,-320,238,76,-326
0,2385168,2226,338,33,1451,-397,-317,238,76,-326
0,2385182,2224,339,31,1443,-400,-316,238,76,-326
0,2385197,2225,332,27,1439,-399,-303,238,76,-326
0,2385211,2225,332,27,1439,-399,-303,238,76,-326
0,2385223,2228,327,25,1440,-399,-313,238,76,-326
0,2385238,2222,327,36,1435,-399,-314,248,74,-328
0,2385252,2222,327,36,1435,-399,-314,248,74,-328
0,2385266,2222,327,36,1435,-399,-314,248,74,-328
0,2385281,2225,325,26,1444,-400,-314,248,74,-328
0,2385296,2224,329,24,1442,-398,-311,248,74,-328
0,2385311,2224,329,24,1442,-398,-311,248,74,-328
0,2385327,2228,328,32,1441,-399,-320,248,74,-328
0,2385342,2225,328,29,1443,-395,-317,248,74,-328
0,2385356,2226,325,30,1442,-397,-316,255,79,-323
0,2385371,2226,325,30,1442,-397,-316,255,79,-323
0,2385385,2225,327,27,1445,-394,-318,255,79,-323
0,2385399,2226,330,29,1446,-390,-317,255,79,-323
0,2385414,2226,330,29,1446,-390,-317,255,79,-323
0,2385425,2226,327,37,1441,-390,-317,255,79,-323
0,2385438,2224,324,28,1437,-398,-324,255,79,-323
0,2385453,2224,324,28,1437,-398,-324,255,79,-323
0,2385468,2225,323,31,1442,-397,-315,255,79,-323
0,2385481,2227,324,30,1444,-389,-316,255,79,-323
0,2385497,2227,327,36,1437,-397,-315,260,66,-308
0,2385512,2227,327,36,1437,-397,-315,260,66,-308
0,2385527,2226,326,36,1440,-396,-321,260,66,-308
0,2385543,2228,327,35,1439,-403,-319,260,66,-308
0,2385557,2228,327,27,1435,-401,-312,260,66,-308
0,2385571,2228,327,27,1435,-401,-312,260,66,-308
0,2385586,2225,328,25,1432,-403,-316,260,66,-308
0,2385600,2225,329,30,1438,-404,-323,260,66,-308
0,2385614,2225,322,31,1439,-398,-318,260,66,-308
0,2385628,2225,322,31,1439,-398,-318,252,70,-314
0,2385640,2225,318,35,1441,-397,-317,252,70,-314
0,2385655,2227,323,34,1442,-400,-312,252,70,-314
0,2385672,2227,323,34,1442,-400,-312,252,70,-314
0,2385687,2226,323,29,1446,-396,-311,252,70,-314
0,2385702,2224,311,28,1437,-400,-321,252,70,-314
0,2385715,2228,321,30,1437,-399,-317,252,70,-314
0,2385729,2228,321,30,1437,-399,-317,252,70,-314
0,2385744,2227,322,30,1439,-397,-320,252,70,-314
0,2385759,2225,325,33,1443,-404,-317,250,68,-308
0,2385773,2225,325,33,1443,-404,-317,250,68,-308
0,2385787,2227,316,29,1441,-406,-320,250,68,-308
0,2385801,2225,323,31,1433,-408,-316,250,68,-308
0,2385816,2226,317,27,1431,-400,-318,250,68,-308
0,2385831,2226,317,27,1431,-400,-318,250,68,-308
0,2385845,2225,313,31,1427,-400,-316,250,68,-308
0,2385858,2229,314,27,1432,-391,-321,250,68,-308
0,2385872,2229,314,27,1432,-391,-321,250,68,-308
0,2385886,2225,312,32,1427,-402,-324,240,70,-298
0,2385898,2225,314,25,1429,-400,-326,240,70,-298
0,2385913,2225,314,25,1429,-400,-326,240,70,-298
0,2385928,2225,316,31,1439,-398,-326,240,70,-298
0,2385941,2229,316,23,1443,-402,-317,240,70,-298
0,2385957,2232,309,27,1435,-401,-317,240,70,-298
0,2385973,2232,309,27,1435,-401,-317,240,70,-298
0,2385987,2224,315,17,1441,-394,-317,240,70,-298
0,2386000,2225,318,23,1439,-402,-311,240,70,-298
0,2386014,2225,318,23,1439,-402,-311,240,70,-298
0,2386029,2224,313,30,1439,-397,-316,242,70,-304
0,2386044,2225,308,32,1437,-401,-323,242,70,-304
0,2386058,2225,328,32,1424,-401,-315,242,70,-304
0,2386072,2225,328,32,1424,-401,-315,242,70,-304
0,2386086,2223,319,25,1428,-401,-316,242,70,-304
0,2386102,2227,326,31,1426,-400,-316,242,70,-304
0,2386117,2230,314,22,1430,-397,-319,242,70,-304
0,2386129,2230,314,22,1430,-397,-319,242,70,-304
0,2386143,2222,341,26,1435,-398,-315,260,70,-300
0,2386159,2227,321,24,1429,-402,-317,260,70,-300
0,2386174,2227,321,24,1429,-402,-317,260,70,-300
0,2386184,2222,326,24,1427,-404,-312,260,70,-300
0,2386197,2222,326,24,1427,-404,-312,260,70,-300
0,2386211,2222,326,24,1427,-404,-312,260,70,-300
0,2386227,2223,328,26,1419,-405,-316,260,70,-300
0,2386242,2223,320,24,1430,-399,-319,260,70,-300
0,2386253,2223,320,24,1430,-399,-319,260,70,-300
0,2386267,2223,320,24,1430,-399,-319,247,69,-297
0,2386280,2229,335,26,1431,-398,-321,247,69,-297
0,2386294,2229,335,26,1431,-398,-321,247,69,-297
0,2386309,2223,340,29,1428,-396,-312,247,69,-297
0,2386322,2225,343,31,1429,-400,-315,247,69,-297
0,2386337,2223,350,28,1425,-405,-314,247,69,-297
0,2386351,2223,350,28,1425,-405,-314,247,69,-297
0,2386362,2222,348,26,1429,-406,-319,247,69,-297
0,2386376,2222,341,27,1429,-401,-321,247,69,-297
0,2386393,2222,341,27,1429,-401,-321,247,69,-297
0,2386408,2225,343,29,1442,-393,-313,246,66,-300
0,2386423,2225,350,24,1440,-390,-314,246,66,-300
0,2386439,2222,341,29,1436,-403,-308,246,66,-300
0,2386452,2222,341,29,1436,-403,-308,246,66,-300
0,2386467,2222,341,28,1428,-400,-316,246,66,-300
0,2386483,2225,340,30,1436,-402,-318,246,66,-300
0,2386497,2220,343,28,1444,-403,-315,246,66,-300
0,2386511,2220,343,28,1444,-403,-315,246,66,-300
0,2386522,2223,337,33,1433,-408,-318,251,61,-289
0,2386534,2223,337,33,1433,-408,-318,251,61,-289
0,2386547,2223,339,32,1446,-409,-316,251,61,-289
0,2386562,2227,330,32,1440,-399,-313,251,61,-289
0,2386575,2227,330,32,1440,-399,-313,251,61,-289
0,2386589,2224,334,22,1434,-400,-315,251,61,-289
0,2386603,2224,334,27,1443,-396,-319,251,61,-289
0,2386614,2224,334,27,1443,-396,-319,251,61,-289
0,2386628,2226,331,26,1447,-397,-323,251,61,-289
0,2386643,2222,329,30,1447,-392,-314,251,61,-289
0,2386657,2224,324,36,1435,-398,-308,244,70,-286
0,2386671,2224,324,36,1435,-398,-308,244,70,-286
0,2386686,2224,328,27,1435,-403,-315,244,70,-286
0,2386701,2225,327,32,1443,-398,-312,244,70,-286
0,2386716,2227,327,33,1445,-392,-313,244,70,-286
0,2386732,2227,327,33,1445,-392,-313,244,70,-286
0,2386746,2223,304,36,1447,-393,-314,244,70,-286
0,2386760,2227,318,29,1443,-405,-318,244,70,-286
0,2386776,2227,318,29,1443,-405,-318,244,70,-286
0,2386790,2224,317,29,1438,-400,-314,238,74,-290
0,2386802,2222,329,29,1431,-408,-320,238,74,-290
0,2386818,2223,300,28,1425,-408,-322,238,74,-290
0,2386830,2223,300,28,1425,-408,-322,238,74,-290
0,2386844,2226,319,27,1435,-400,-312,238,74,-290
0,2386859,2226,309,26,1437,-395,-311,238,74,-290
0,2386873,2226,309,26,1437,-395,-311,238,74,-290
0,2386888,2223,320,30,1437,-399,-318,238,74,-290
0,2386902,2227,310,27,1431,-392,-320,238,74,-290
0,2386914,2227,310,27,1431,-392,-320,238,74,-290
0,2386929,2227,323,35,1432,-401,-321,242,66,-276
0,2386946,2225,312,30,1434,-396,-319,242,66,-276
0,2386958,2223,317,25,1435,-396,-318,242,66,-276
0,2386971,2223,317,25,1435,-396,-318,242,66,-276
0,2386987,2224,313,26,1428,-396,-322,242,66,-276
0,2387001,2224,306,30,1419,-405,-321,242,66,-276
0,2387015,2224,306,30,1419,-405,-321,242,66,-276
0,2387030,2225,310,26,1432,-404,-319,242,66,-276
0,2387044,2223,316,33,1434,-400,-315,241,61,-287
0,2387057,2224,315,29,1428,-401,-310,241,61,-287
0,2387069,2224,315,29,1428,-401,-310,241,61,-287
0,2387083,2224,311,32,1424,-401,-318,241,61,-287
0,2387098,2222,313,30,1424,-405,-319,241,61,-287
0,2387112,2222,313,30,1424,-405,-319,241,61,-287
0,2387127,2228,319,27,1429,-402,-312,241,61,-287
0,2387141,2226,313,26,1430,-398,-313,241,61,-287
0,2387149,2226,313,26,1430,-398,-313,241,61,-287
0,2387158,2225,309,25,1427,-393,-315,244,66,-272
0,2387165,2225,309,25,1427,-393,-315,244,66,-272
0,2387180,2224,309,29,1432,-391,-321,244,66,-272
0,2387195,2224,309,29,1432,-391,-321,244,66,-272
0,2387211,2227,314,25,1438,-393,-313,244,66,-272
0,2387222,2222,316,23,1428,-399,-317,244,66,-272
0,2387237,2225,320,31,1424,-399,-316,244,66,-272
0,2387253,2225,320,31,1424,-399,-316,244,66,-272
0,2387268,2228,326,32,1431,-396,-310,244,66,-272
0,2387281,2224,316,30,1427,-398,-313,244,66,-272
0,2387296,2224,316,30,1427,-398,-313,244,66,-272
0,2387310,2224,318,20,1419,-400,-316,238,64,-276
0,2387324,2227,335,28,1421,-392,-319,238,64,-276
0,2387337,2227,335,28,1421,-392,-319,238,64,-276
0,2387349,2223,325,28,1429,-398,-314,238,64,-276
0,2387365,2224,331,25,1428,-404,-314,238,64,-276
0,2387380,2225,335,30,1428,-400,-316,238,64,-276
0,2387395,2225,335,30,1428,-400,-316,238,64,-276
0,2387408,2221,339,23,1432,-399,-322,238,64,-276
0,2387424,2221,339,25,1433,-395,-321,240,60,-276
0,2387439,2225,356,28,1425,-400,-318,240,60,-276
0,2387456,2225,356,28,1425,-400,-318,240,60,-276
0,2387471,2223,345,27,1424,-397,-312,240,60,-276
0,2387485,2221,338,31,1431,-402,-308,240,60,-276
0,2387500,2225,342,31,1431,-400,-314,240,60,-276
0,2387514,2225,342,31,1431,-400,-314,240,60,-276
0,2387528,2221,356,29,1440,-404,-312,240,60,-276
0,2387543,2223,343,33,1443,-395,-315,240,60,-276
0,2387558,2223,336,34,1442,-399,-318,232,56,-260
0,2387572,2223,336,34,1442,-399,-318,232,56,-260
0,2387584,2225,334,27,1434,-395,-322,232,56,-260
0,2387598,2220,336,23,1440,-396,-313,232,56,-260
0,2387612,2220,336,23,1440,-396,-313,232,56,-260
0,2387628,2224,337,27,1434,-398,-318,232,56,-260
0,2387642,2221,335,28,1434,-396,-314,232,56,-260
0,2387657,2223,332,25,1436,-400,-315,232,56,-260
0,2387674,2223,332,25,1436,-400,-315,232,56,-260
0,2387686,2222,332,33,1425,-404,-317,236,70,-266
0,2387700,2223,335,28,1432,-409,-322,236,70,-266
0,2387716,2223,335,28,1432,-409,-322,236,70,-266
0,2387731,2227,332,30,1439,-403,-315,236,70,-266
0,2387745,2224,325,35,1442,-399,-314,236,70,-266
0,2387758,2224,328,32,1431,-401,-313,236,70,-266
