imu,time,ax,ay,az,gx,gy,gz,mx,my,mz
1,3028252,2456,836,-1361,2000,-86,-53,213,265,-3
1,3028265,2456,836,-1361,2000,-86,-53,213,265,-3
1,3028280,2455,841,-1356,1998,-89,-55,223,271,-11
1,3028292,2460,825,-1356,2000,-94,-48,223,271,-11
1,3028307,2460,825,-1356,2000,-94,-48,223,271,-11
1,3028320,2463,833,-1360,1994,-88,-43,223,271,-11
1,3028334,2459,833,-1364,1990,-88,-50,223,271,-11
1,3028347,2459,833,-1364,1990,-88,-50,223,271,-11
1,3028364,2462,835,-1357,1999,-87,-49,223,271,-11
1,3028378,2460,831,-1366,1994,-89,-52,223,271,-11
1,3028392,2462,823,-1356,1996,-88,-59,224,264,-22
1,3028407,2462,823,-1356,1996,-88,-59,224,264,-22
1,3028421,2462,823,-1356,1996,-88,-59,224,264,-22
1,3028435,2459,820,-1369,1999,-88,-54,224,264,-22
1,3028445,2459,820,-1369,1999,-88,-54,224,264,-22
1,3028453,2459,821,-1359,1992,-87,-55,224,264,-22
1,3028467,2459,821,-1359,1992,-87,-55,224,264,-22
1,3028476,2465,819,-1357,1995,-88,-58,224,264,-22
1,3028485,2465,819,-1357,1995,-88,-58,224,264,-22
1,3028493,2461,820,-1358,1997,-87,-54,224,264,-22
1,3028500,2461,820,-1358,1997,-87,-54,224,264,-22
1,3028510,2461,817,-1366,2003,-85,-52,224,264,-22
1,3028517,2461,817,-1366,2003,-85,-52,224,264,-22
1,3028526,2461,817,-1366,2003,-85,-52,224,264,-22
1,3028534,2464,819,-1359,1998,-89,-56,227,265,-21
1,3028542,2464,819,-1359,1998,-89,-56,227,265,-21
1,3028549,2464,808,-1365,1990,-86,-58,227,265,-21
1,3028558,2464,808,-1365,1990,-86,-58,227,265,-21
1,3028566,2464,808,-1365,1990,-86,-58,227,265,-21
1,3028574,2463,811,-1361,1993,-91,-57,227,265,-21
1,3028582,2463,811,-1361,1993,-91,-57,227,265,-21
1,3028590,2465,815,-1365,1997,-87,-53,227,265,-21
1,3028598,2465,815,-1365,1997,-87,-53,227,265,-21
1,3028606,2465,815,-1365,1997,-87,-53,227,265,-21
1,3028615,2460,811,-1366,1994,-89,-56,227,265,-21
1,3028623,2460,811,-1366,1994,-89,-56,227,265,-21
1,3028630,2465,793,-1362,1998,-90,-49,227,265,-21
1,3028638,2465,793,-1362,1998,-90,-49,227,265,-21
1,3028646,2465,793,-1362,1998,-90,-49,227,265,-21
1,3028654,2461,801,-1356,1998,-87,-53,226,262,-20
1,3028662,2461,801,-1356,1998,-87,-53,226,262,-20
1,3028669,2463,805,-1365,2007,-86,-59,226,262,-20
1,3028677,2463,805,-1365,2007,-86,-59,226,262,-20
1,3028685,2463,805,-1365,2007,-86,-59,226,262,-20
1,3028692,2464,800,-1365,2005,-82,-50,226,262,-20
1,3028701,2464,800,-1365,2005,-82,-50,226,262,-20
1,3028709,2470,789,-1365,2003,-86,-51,226,262,-20
1,3028716,2470,789,-1365,2003,-86,-51,226,262,-20
1,3028724,2470,789,-1365,2003,-86,-51,226,262,-20
1,3028733,2462,806,-1365,2005,-90,-54,226,262,-20
1,3028741,2462,806,-1365,2005,-90,-54,226,262,-20
1,3028749,2461,812,-1373,2004,-87,-57,226,262,-20
1,3028757,2461,812,-1373,2004,-87,-57,226,262,-20
1,3028766,2461,812,-1373,2004,-87,-57,226,262,-20
1,3028773,2457,813,-1371,2004,-86,-52,228,252,-24
1,3028784,2457,813,-1371,2004,-86,-52,228,252,-24
1,3028793,2461,815,-1365,2010,-89,-50,228,252,-24
1,3028802,2461,815,-1365,2010,-89,-50,228,252,-24
1,3028810,2459,820,-1365,2009,-88,-47,228,252,-24
1,3028819,2459,820,-1365,2009,-88,-47,228,252,-24
1,3028829,2458,823,-1367,2005,-89,-44,228,252,-24
1,3028838,2458,823,-1367,2005,-89,-44,228,252,-24
1,3028846,2458,823,-1367,2005,-89,-44,228,252,-24
1,3028856,2458,828,-1369,2008,-85,-54,228,252,-24
1,3028865,2458,828,-1369,2008,-85,-54,228,252,-24
1,3028874,2465,825,-1368,2007,-87,-60,228,252,-24
1,3028884,2465,825,-1368,2007,-87,-60,228,252,-24
1,3028897,2462,819,-1361,2014,-85,-60,230,254,-32
1,3028912,2465,826,-1371,2012,-88,-53,230,254,-32
1,3028923,2465,826,-1371,2012,-88,-53,230,254,-32
1,3028938,2462,826,-1367,2014,-85,-54,230,254,-32
1,3028954,2464,823,-1375,2009,-84,-57,230,254,-32
1,3028969,2457,824,-1367,2016,-79,-50,230,254,-32
1,3028982,2457,824,-1367,2016,-79,-50,230,254,-32
1,3028996,2457,828,-1371,2011,-83,-56,230,254,-32
1,3029011,2458,832,-1375,2021,-88,-61,230,254,-32
1,3029025,2458,832,-1375,2021,-88,-61,230,254,-32
1,3029039,2458,855,-1368,2019,-93,-62,230,256,-30
1,3029053,2461,833,-1366,2014,-84,-54,230,256,-30
1,3029066,2461,833,-1366,2014,-84,-54,230,256,-30
1,3029079,2459,842,-1368,2021,-77,-57,230,256,-30
1,3029091,2463,835,-1366,2010,-81,-52,230,256,-30
1,3029104,2463,835,-1366,2010,-81,-52,230,256,-30
1,3029115,2461,856,-1367,2009,-94,-49,230,256,-30
1,3029129,2461,835,-1367,2004,-88,-49,230,256,-30
1,3029137,2461,835,-1367,2004,-88,-49,230,256,-30
1,3029149,2459,854,-1363,2006,-87,-53,231,249,-43
1,3029164,2459,854,-1363,2006,-87,-53,231,249,-43
1,3029179,2458,849,-1364,2007,-85,-54,231,249,-43
1,3029187,2458,849,-1364,2007,-85,-54,231,249,-43
1,3029198,2456,865,-1362,2006,-87,-52,231,249,-43
1,3029207,2456,865,-1362,2006,-87,-52,231,249,-43
1,3029215,2459,877,-1365,2009,-89,-53,231,249,-43
1,3029226,2459,877,-1365,2009,-89,-53,231,249,-43
1,3029234,2457,871,-1362,2014,-92,-61,231,249,-43
1,3029242,2457,871,-1362,2014,-92,-61,231,249,-43
1,3029251,2461,857,-1363,2004,-85,-59,231,249,-43
1,3029259,2461,857,-1363,2004,-85,-59,231,249,-43
1,3029267,2461,857,-1363,2004,-85,-59,231,249,-43
1,3029277,2458,867,-1359,1996,-86,-53,233,245,-43
1,3029285,2458,867,-1359,1996,-86,-53,233,245,-43
1,3029295,2454,855,-1361,1999,-88,-51,233,245,-43
1,3029304,2454,855,-1361,1999,-88,-51,233,245,-43
1,3029311,2460,846,-1360,1996,-87,-50,233,245,-43
1,3029320,2460,846,-1360,1996,-87,-50,233,245,-43
1,3029328,2459,844,-1362,1997,-86,-51,233,245,-43
1,3029337,2459,844,-1362,1997,-86,-51,233,245,-43
1,3029345,2459,844,-1362,1997,-86,-51,233,245,-43
1,3029353,2459,851,-1358,1999,-82,-52,233,245,-43
1,3029362,2459,851,-1358,1999,-82,-52,233,245,-43
1,3029370,2461,806,-1355,1989,-84,-50,233,245,-43
1,3029380,2461,806,-1355,1989,-84,-50,233,245,-43
1,3029390,2462,843,-1358,1993,-87,-57,243,243,-43
1,3029398,2462,843,-1358,1993,-87,-57,243,243,-43
1,3029406,2462,843,-1358,1993,-87,-57,243,243,-43
1,3029415,2462,843,-1358,1993,-87,-57,243,243,-43
1,3029424,2462,843,-1358,1993,-87,-57,243,243,-43
1,3029433,2459,853,-1361,1995,-91,-47,243,243,-43
1,3029441,2459,853,-1361,1995,-91,-47,243,243,-43
1,3029449,2459,809,-1357,1993,-92,-58,243,243,-43
1,3029457,2459,809,-1357,1993,-92,-58,243,243,-43
1,3029466,2459,809,-1357,1993,-92,-58,243,243,-43
1,3029474,2464,836,-1355,1989,-84,-60,243,243,-43
1,3029484,2464,836,-1355,1989,-84,-60,243,243,-43
1,3029492,2465,814,-1357,1993,-89,-54,243,243,-43
1,3029500,2465,814,-1357,1993,-89,-54,243,243,-43
1,3029509,2465,814,-1357,1993,-89,-54,243,243,-43
1,3029517,2457,829,-1356,1994,-86,-50,243,243,-43
1,3029525,2457,829,-1356,1994,-86,-50,243,243,-43
1,3029533,2461,803,-1357,1988,-83,-54,248,244,-56
1,3029541,2461,803,-1357,1988,-83,-54,248,244,-56
1,3029550,2462,796,-1356,1987,-89,-52,248,244,-56
1,3029558,2462,796,-1356,1987,-89,-52,248,244,-56
1,3029566,2462,796,-1356,1987,-89,-52,248,244,-56
1,3029575,2463,789,-1360,1982,-87,-50,248,244,-56
1,3029583,2463,789,-1360,1982,-87,-50,248,244,-56
1,3029593,2462,794,-1362,1991,-91,-43,248,244,-56
1,3029601,2462,794,-1362,1991,-91,-43,248,244,-56
1,3029610,2465,803,-1362,1995,-86,-52,248,244,-56
1,3029618,2465,803,-1362,1995,-86,-52,248,244,-56
1,3029627,2465,803,-1362,1995,-86,-52,248,244,-56
1,3029635,2467,796,-1368,1997,-82,-57,248,244,-56
1,3029644,2467,796,-1368,1997,-82,-57,248,244,-56
1,3029652,2465,797,-1366,1999,-87,-60,248,246,-56
1,3029661,2465,797,-1366,1999,-87,-60,248,246,-56
1,3029670,2463,803,-1365,2008,-94,-53,248,246,-56
1,3029680,2463,803,-1365,2008,-94,-53,248,246,-56
1,3029689,2463,810,-1365,2008,-90,-58,248,246,-56
1,3029697,2463,810,-1365,2008,-90,-58,248,246,-56
1,3029704,2463,810,-1365,2008,-90,-58,248,246,-56
1,3029713,2464,808,-1368,2003,-92,-56,248,246,-56
1,3029722,2464,808,-1368,2003,-92,-56,248,246,-56
1,3029730,2462,808,-1363,2008,-91,-53,248,246,-56
1,3029739,2462,808,-1363,2008,-91,-53,248,246,-56
1,3029748,2462,808,-1363,2008,-91,-53,248,246,-56
1,3029756,2460,815,-1366,2011,-86,-48,248,246,-56
1,3029766,2460,815,-1366,2011,-86,-48,248,246,-56
1,3029775,2458,821,-1359,2014,-85,-49,247,243,-55
1,3029782,2458,821,-1359,2014,-85,-49,247,243,-55
1,3029791,2463,826,-1363,2008,-86,-51,247,243,-55
1,3029800,2463,826,-1363,2008,-86,-51,247,243,-55
1,3029810,2467,815,-1361,2017,-87,-55,247,243,-55
1,3029818,2467,815,-1361,2017,-87,-55,247,243,-55
1,3029827,2467,815,-1361,2017,-87,-55,247,243,-55
1,3029835,2460,823,-1371,2015,-87,-57,247,243,-55
1,3029843,2460,823,-1371,2015,-87,-57,247,243,-55
1,3029853,2461,827,-1363,2011,-88,-59,247,243,-55
1,3029862,2461,827,-1363,2011,-88,-59,247,243,-55
1,3029870,2460,864,-1367,2013,-86,-52,247,243,-55
1,3029879,2460,864,-1367,2013,-86,-52,247,243,-55
1,3029886,2460,864,-1367,2013,-86,-52,247,243,-55
1,3029897,2460,828,-1358,2006,-89,-54,253,239,-67
1,3029906,2460,828,-1358,2006,-89,-54,253,239,-67
1,3029914,2459,841,-1365,2007,-91,-60,253,239,-67
1,3029922,2459,841,-1365,2007,-91,-60,253,239,-67
1,3029929,2462,824,-1367,2002,-87,-56,253,239,-67
1,3029938,2462,824,-1367,2002,-87,-56,253,239,-67
1,3029947,2462,824,-1367,2002,-87,-56,253,239,-67
1,3029955,2457,859,-1362,2004,-95,-53,253,239,-67
1,3029964,2457,859,-1362,2004,-95,-53,253,239,-67
1,3029972,2459,833,-1368,2005,-91,-53,253,239,-67
1,3029982,2459,833,-1368,2005,-91,-53,253,239,-67
1,3029990,2465,842,-1360,2005,-92,-56,253,239,-67
1,3029999,2465,842,-1360,2005,-92,-56,253,239,-67
1,3030007,2465,842,-1360,2005,-92,-56,253,239,-67
1,3030017,2464,827,-1368,2002,-87,-52,258,234,-64
1,3030026,2464,827,-1368,2002,-87,-52,258,234,-64
1,3030033,2459,851,-1360,1998,-84,-53,258,234,-64
1,3030041,2459,851,-1360,1998,-84,-53,258,234,-64
1,3030049,2459,832,-1370,2003,-85,-53,258,234,-64
1,3030059,2459,832,-1370,2003,-85,-53,258,234,-64
1,3030068,2459,832,-1370,2003,-85,-53,258,234,-64
1,3030076,2463,840,-1362,2008,-86,-57,258,234,-64
1,3030084,2463,840,-1362,2008,-86,-57,258,234,-64
1,3030094,2459,832,-1364,2011,-90,-57,258,234,-64
1,3030102,2459,832,-1364,2011,-90,-57,258,234,-64
1,3030111,2460,837,-1363,2009,-91,-53,258,234,-64
1,3030119,2460,837,-1363,2009,-91,-53,258,234,-64
1,3030127,2460,837,-1363,2009,-91,-53,258,234,-64
1,3030136,2455,843,-1367,2009,-85,-55,258,234,-64
1,3030145,2455,843,-1367,2009,-85,-55,258,234,-64
1,3030154,2460,847,-1358,2002,-84,-56,254,236,-68
1,3030162,2460,847,-1358,2002,-84,-56,254,236,-68
1,3030170,2461,837,-1355,2006,-93,-54,254,236,-68
1,3030179,2461,837,-1355,2006,-93,-54,254,236,-68
1,3030189,2463,835,-1362,2000,-92,-51,254,236,-68
1,3030198,2463,835,-1362,2000,-92,-51,254,236,-68
1,3030206,2463,835,-1362,2000,-92,-51,254,236,-68
1,3030216,2461,844,-1362,2000,-93,-52,254,236,-68
1,3030223,2461,844,-1362,2000,-93,-52,254,236,-68
1,3030235,2463,842,-1359,1995,-85,-56,254,236,-68
1,3030249,2460,815,-1358,2001,-89,-52,254,236,-68
1,3030263,2460,815,-1358,2001,-89,-52,254,236,-68
1,3030272,2460,831,-1360,1995,-89,-53,257,231,-65
1,3030283,2460,831,-1360,1995,-89,-53,257,231,-65
1,3030296,2458,834,-1359,1996,-89,-52,257,231,-65
1,3030310,2458,841,-1364,1993,-88,-53,257,231,-65
1,3030324,2458,841,-1364,1993,-88,-53,257,231,-65
1,3030337,2459,821,-1353,2000,-87,-54,257,231,-65
1,3030351,2465,828,-1362,1999,-85,-59,257,231,-65
1,3030364,2465,828,-1362,1999,-85,-59,257,231,-65
1,3030377,2464,828,-1363,1999,-90,-53,257,231,-65
1,3030390,2462,832,-1359,2001,-85,-50,267,227,-69
1,3030406,2462,832,-1359,2001,-85,-50,267,227,-69
1,3030421,2464,818,-1360,1998,-90,-50,267,227,-69
1,3030435,2463,821,-1364,2001,-89,-50,267,227,-69
1,3030451,2461,816,-1361,2001,-87,-47,267,227,-69
1,3030464,2461,816,-1361,2001,-87,-47,267,227,-69
1,3030478,2459,826,-1365,2001,-85,-53,267,227,-69
1,3030493,2460,820,-1362,2001,-84,-60,267,227,-69
1,3030504,2460,820,-1362,2001,-84,-60,267,227,-69
1,3030521,2464,815,-1356,1999,-86,-50,257,229,-73
1,3030537,2462,820,-1364,2001,-87,-51,257,229,-73
1,3030550,2460,822,-1363,2003,-85,-56,257,229,-73
1,3030564,2460,822,-1363,2003,-85,-56,257,229,-73
1,3030578,2463,826,-1363,2000,-81,-54,257,229,-73
1,3030592,2465,818,-1360,2003,-81,-56,257,229,-73
1,3030606,2465,818,-1360,2003,-81,-56,257,229,-73
1,3030618,2464,819,-1359,2004,-88,-57,257,229,-73
1,3030632,2461,820,-1359,2001,-85,-50,257,229,-73
1,3030647,2461,820,-1359,2001,-85,-50,257,229,-73
1,3030662,2464,815,-1358,1998,-85,-53,266,226,-80
1,3030675,2465,801,-1361,1999,-89,-51,266,226,-80
1,3030689,2463,801,-1369,2001,-90,-57,266,226,-80
1,3030705,2463,801,-1369,2001,-90,-57,266,226,-80
1,3030719,2461,803,-1364,2001,-89,-55,266,226,-80
1,3030734,2461,816,-1365,2011,-90,-49,266,226,-80
1,3030748,2461,816,-1365,2011,-90,-49,266,226,-80
1,3030762,2464,808,-1367,2003,-93,-58,266,226,-80
1,3030776,2464,806,-1360,2005,-95,-58,278,224,-76
1,3030788,2464,806,-1360,2005,-95,-58,278,224,-76
1,3030801,2461,815,-1368,2008,-93,-56,278,224,-76
1,3030814,2458,827,-1363,2011,-88,-56,278,224,-76
1,3030828,2458,827,-1363,2011,-88,-56,278,224,-76
1,3030842,2461,821,-1369,2008,-89,-59,278,224,-76
1,3030856,2461,821,-1366,2003,-90,-60,278,224,-76
1,3030866,2461,821,-1366,2003,-90,-60,278,224,-76
1,3030881,2462,822,-1364,2009,-87,-55,278,224,-76
1,3030894,2462,831,-1364,2005,-87,-49,280,228,-80
1,3030907,2462,831,-1364,2005,-87,-49,280,228,-80
1,3030920,2459,833,-1363,2011,-82,-49,280,228,-80
1,3030933,2465,827,-1371,2015,-82,-55,280,228,-80
1,3030947,2465,827,-1371,2015,-82,-55,280,228,-80
1,3030963,2462,824,-1367,2013,-93,-53,280,228,-80
1,3030976,2461,828,-1370,2006,-94,-50,280,228,-80
1,3030987,2461,828,-1370,2006,-94,-50,280,228,-80
1,3031002,2461,834,-1371,2006,-86,-51,280,228,-80
1,3031016,2463,833,-1370,2009,-84,-53,275,215,-81
1,3031029,2462,835,-1364,2011,-90,-53,275,215,-81
1,3031043,2462,835,-1364,2011,-90,-53,275,215,-81
1,3031056,2460,844,-1365,2014,-90,-52,275,215,-81
1,3031067,2460,844,-1365,2014,-90,-52,275,215,-81
1,3031081,2458,833,-1366,2010,-89,-50,275,215,-81
1,3031095,2461,838,-1360,2010,-86,-55,275,215,-81
1,3031109,2461,838,-1360,2010,-86,-55,275,215,-81
1,3031122,2461,837,-1367,2002,-87,-55,275,215,-81
1,3031135,2455,844,-1365,2006,-89,-47,275,215,-81
1,3031150,2457,842,-1365,2007,-84,-53,281,219,-85
1,3031164,2457,842,-1365,2007,-84,-53,281,219,-85
1,3031180,2460,844,-1364,2004,-86,-59,281,219,-85
1,3031192,2461,854,-1364,2009,-90,-58,281,219,-85
1,3031207,2461,854,-1364,2009,-90,-58,281,219,-85
1,3031222,2459,848,-1361,2007,-85,-54,281,219,-85
1,3031236,2457,862,-1359,2011,-82,-48,281,219,-85
1,3031245,2457,862,-1359,2011,-82,-48,281,219,-85
1,3031254,2460,871,-1361,2008,-85,-51,281,219,-85
1,3031263,2460,871,-1361,2008,-85,-51,281,219,-85
1,3031271,2456,862,-1360,2000,-85,-47,284,222,-86
1,3031279,2456,862,-1360,2000,-85,-47,284,222,-86
1,3031288,2456,862,-1360,2000,-85,-47,284,222,-86
1,3031297,2459,850,-1364,1995,-85,-47,284,222,-86
1,3031305,2459,850,-1364,1995,-85,-47,284,222,-86
1,3031314,2460,849,-1363,1990,-97,-54,284,222,-86
1,3031322,2460,849,-1363,1990,-97,-54,284,222,-86
1,3031331,2463,854,-1359,1992,-91,-54,284,222,-86
1,3031340,2463,854,-1359,1992,-91,-54,284,222,-86
1,3031348,2463,854,-1359,1992,-91,-54,284,222,-86
1,3031357,2464,850,-1361,1994,-91,-53,284,222,-86
1,3031366,2464,850,-1361,1994,-91,-53,284,222,-86
1,3031375,2459,805,-1364,1991,-88,-50,284,222,-86
1,3031383,2459,805,-1364,1991,-88,-50,284,222,-86
1,3031391,2466,839,-1360,1992,-87,-54,285,217,-89
1,3031399,2466,839,-1360,1992,-87,-54,285,217,-89
1,3031408,2466,839,-1360,1992,-87,-54,285,217,-89
1,3031415,2460,829,-1359,1992,-87,-51,285,217,-89
1,3031425,2460,829,-1359,1992,-87,-51,285,217,-89
1,3031433,2454,853,-1360,1998,-87,-48,285,217,-89
1,3031442,2454,853,-1360,1998,-87,-48,285,217,-89
1,3031450,2461,806,-1361,1992,-90,-57,285,217,-89
1,3031458,2461,806,-1361,1992,-90,-57,285,217,-89
1,3031467,2461,806,-1361,1992,-90,-57,285,217,-89
1,3031475,2462,842,-1359,1998,-85,-61,285,217,-89
1,3031482,2462,842,-1359,1998,-85,-61,285,217,-89
1,3031491,2464,823,-1358,2002,-90,-52,285,217,-89
1,3031499,2464,823,-1358,2002,-90,-52,285,217,-89
1,3031508,2464,823,-1358,2002,-90,-52,285,217,-89
1,3031518,2458,838,-1354,1997,-92,-56,284,210,-88
1,3031524,2458,838,-1354,1997,-92,-56,284,210,-88
1,3031533,2467,809,-1360,2000,-83,-51,284,210,-88
1,3031541,2467,809,-1360,2000,-83,-51,284,210,-88
1,3031549,2467,809,-1360,2000,-83,-51,284,210,-88
1,3031557,2466,815,-1352,1998,-86,-61,284,210,-88
1,3031565,2466,815,-1352,1998,-86,-61,284,210,-88
1,3031573,2465,768,-1362,1996,-92,-58,284,210,-88
1,3031580,2465,768,-1362,1996,-92,-58,284,210,-88
1,3031589,2460,798,-1361,1996,-84,-46,284,210,-88
1,3031597,2460,798,-1361,1996,-84,-46,284,210,-88
1,3031605,2460,798,-1361,1996,-84,-46,284,210,-88
1,3031613,2461,792,-1365,2001,-84,-58,284,210,-88
1,3031620,2461,792,-1365,2001,-84,-58,284,210,-88
1,3031628,2461,792,-1365,2001,-84,-58,284,210,-88
1,3031635,2465,795,-1359,1997,-83,-57,284,210,-88
1,3031645,2465,795,-1359,1997,-83,-57,284,210,-88
1,3031653,2463,785,-1364,2003,-80,-57,289,219,-87
1,3031662,2463,785,-1364,2003,-80,-57,289,219,-87
1,3031670,2461,801,-1366,2005,-84,-55,289,219,-87
1,3031678,2461,801,-1366,2005,-84,-55,289,219,-87
1,3031687,2461,801,-1366,2005,-84,-55,289,219,-87
1,3031695,2462,815,-1363,2012,-86,-57,289,219,-87
1,3031702,2462,815,-1363,2012,-86,-57,289,219,-87
1,3031712,2463,813,-1369,2007,-84,-58,289,219,-87
1,3031719,2463,813,-1369,2007,-84,-58,289,219,-87
1,3031727,2463,813,-1369,2007,-84,-58,289,219,-87
1,3031736,2463,815,-1363,2009,-82,-58,289,219,-87
1,3031744,2463,815,-1363,2009,-82,-58,289,219,-87
1,3031753,2465,816,-1365,2018,-87,-53,289,219,-87
1,3031761,2465,816,-1365,2018,-87,-53,289,219,-87
1,3031770,2462,829,-1369,2021,-88,-50,284,218,-78
1,3031779,2462,829,-1369,2021,-88,-50,284,218,-78
1,3031787,2462,829,-1369,2021,-88,-50,284,218,-78
1,3031795,2461,828,-1364,2017,-85,-57,284,218,-78
1,3031804,2461,828,-1364,2017,-85,-57,284,218,-78
1,3031813,2460,823,-1361,2019,-89,-61,284,218,-78
1,3031822,2460,823,-1361,2019,-89,-61,284,218,-78
1,3031830,2461,823,-1369,2015,-85,-54,284,218,-78
1,3031839,2461,823,-1369,2015,-85,-54,284,218,-78
1,3031847,2461,823,-1369,2015,-85,-54,284,218,-78
1,3031857,2462,839,-1368,2012,-86,-52,284,218,-78
1,3031865,2462,839,-1368,2012,-86,-52,284,218,-78
1,3031875,2457,858,-1369,2017,-85,-51,284,218,-78
1,3031881,2457,858,-1369,2017,-85,-51,284,218,-78
1,3031890,2462,833,-1365,2013,-86,-60,294,216,-92
1,3031900,2462,833,-1365,2013,-86,-60,294,216,-92
1,3031909,2462,833,-1365,2013,-86,-60,294,216,-92
1,3031916,2463,835,-1359,2008,-90,-61,294,216,-92
1,3031925,2463,835,-1359,2008,-90,-61,294,216,-92
1,3031934,2460,853,-1361,2011,-93,-54,294,216,-92
1,3031943,2460,853,-1361,2011,-93,-54,294,216,-92
1,3031952,2456,844,-1360,2004,-89,-54,294,216,-92
1,3031960,2456,844,-1360,2004,-89,-54,294,216,-92
1,3031968,2456,844,-1360,2004,-89,-54,294,216,-92
1,3031975,2457,844,-1363,2000,-86,-55,294,216,-92
1,3031985,2457,844,-1363,2000,-86,-55,294,216,-92
1,3031995,2460,836,-1363,2001,-91,-64,294,216,-92
1,3032004,2460,836,-1363,2001,-91,-64,294,216,-92
1,3032011,2458,851,-1358,2009,-94,-60,302,220,-84
1,3032017,2458,851,-1358,2009,-94,-60,302,220,-84
1,3032026,2458,851,-1358,2009,-94,-60,302,220,-84
1,3032035,2458,838,-1364,2009,-95,-52,302,220,-84
1,3032043,2458,838,-1364,2009,-95,-52,302,220,-84
1,3032052,2460,849,-1364,2010,-85,-55,302,220,-84
1,3032059,2460,849,-1364,2010,-85,-55,302,220,-84
1,3032068,2460,849,-1364,2010,-85,-55,302,220,-84
1,3032077,2459,831,-1363,2006,-85,-55,302,220,-84
1,3032086,2459,831,-1363,2006,-85,-55,302,220,-84
1,3032093,2459,845,-1363,1995,-82,-55,302,220,-84
1,3032102,2459,845,-1363,1995,-82,-55,302,220,-84
1,3032111,2462,836,-1367,2004,-88,-55,302,220,-84
1,3032120,2462,836,-1367,2004,-88,-55,302,220,-84
1,3032127,2462,836,-1367,2004,-88,-55,302,220,-84
1,3032136,2456,853,-1366,2000,-87,-54,293,215,-85
1,3032143,2456,853,-1366,2000,-87,-54,293,215,-85
1,3032153,2463,840,-1359,2000,-88,-56,293,215,-85
1,3032161,2463,840,-1359,2000,-88,-56,293,215,-85
1,3032169,2459,843,-1359,1992,-85,-43,293,215,-85
1,3032178,2459,843,-1359,1992,-85,-43,293,215,-85
1,3032186,2459,843,-1359,1992,-85,-43,293,215,-85
1,3032196,2456,838,-1361,2003,-87,-48,293,215,-85
1,3032203,2456,838,-1361,2003,-87,-48,293,215,-85
1,3032213,2458,851,-1358,2001,-85,-49,293,215,-85
1,3032221,2458,851,-1358,2001,-85,-49,293,215,-85
1,3032229,2459,844,-1361,1999,-91,-59,293,215,-85
1,3032239,2459,844,-1361,1999,-91,-59,293,215,-85
1,3032251,2459,844,-1361,1999,-91,-59,293,215,-85
1,3032264,2459,844,-1361,1999,-91,-59,293,215,-85
1,3032279,2460,841,-1360,2005,-90,-52,304,226,-86
1,3032292,2460,829,-1356,1995,-91,-50,304,226,-86
1,3032305,2460,829,-1356,1995,-91,-50,304,226,-86
1,3032318,2464,840,-1359,1996,-85,-55,304,226,-86
1,3032332,2462,829,-1358,2004,-88,-48,304,226,-86
1,3032342,2462,829,-1358,2004,-88,-48,304,226,-86
1,3032356,2459,836,-1360,1998,-80,-44,304,226,-86
1,3032372,2463,829,-1361,2000,-81,-50,304,226,-86
1,3032384,2463,829,-1361,2000,-81,-50,304,226,-86
1,3032397,2464,833,-1356,2000,-90,-53,303,221,-81
1,3032413,2463,826,-1352,1996,-85,-53,303,221,-81
1,3032426,2463,826,-1352,1996,-85,-53,303,221,-81
1,3032439,2462,827,-1358,2000,-84,-47,303,221,-81
1,3032454,2461,818,-1358,1998,-81,-60,303,221,-81
1,3032467,2461,818,-1358,1998,-81,-60,303,221,-81
1,3032479,2467,820,-1359,1990,-88,-55,303,221,-81
1,3032493,2462,817,-1361,1992,-88,-48,303,221,-81
1,3032507,2462,817,-1361,1992,-88,-48,303,221,-81
1,3032520,2461,815,-1361,1997,-92,-57,308,226,-78
1,3032535,2464,809,-1363,1997,-89,-54,308,226,-78
1,3032548,2464,809,-1363,1997,-89,-54,308,226,-78
1,3032559,2458,819,-1362,1998,-90,-52,308,226,-78
1,3032574,2462,813,-1359,1994,-91,-48,308,226,-78
1,3032589,2462,813,-1359,1994,-91,-48,308,226,-78
1,3032604,2462,815,-1362,1996,-87,-49,308,226,-78
1,3032616,2464,815,-1361,2000,-83,-50,308,226,-78
1,3032631,2464,808,-1368,2000,-91,-53,308,220,-84
1,3032645,2464,808,-1368,2000,-91,-53,308,220,-84
1,3032658,2466,795,-1359,2003,-92,-55,308,220,-84
1,3032673,2465,804,-1367,2001,-94,-60,308,220,-84
1,3032686,2465,804,-1367,2001,-94,-60,308,220,-84
1,3032699,2465,801,-1364,2005,-88,-52,308,220,-84
1,3032712,2461,798,-1362,2005,-87,-56,308,220,-84
1,3032725,2461,798,-1362,2005,-87,-56,308,220,-84
1,3032738,2464,795,-1365,2009,-84,-49,308,220,-84
1,3032753,2460,810,-1362,2009,-90,-54,308,220,-84
1,3032767,2460,810,-1362,2009,-90,-54,308,220,-84
1,3032781,2460,817,-1361,2009,-87,-54,309,227,-81
1,3032794,2459,816,-1364,2006,-84,-57,309,227,-81
1,3032808,2459,816,-1364,2006,-84,-57,309,227,-81
1,3032823,2465,824,-1365,2011,-89,-57,309,227,-81
1,3032838,2465,824,-1365,2011,-89,-57,309,227,-81
1,3032849,2465,824,-1365,2011,-89,-57,309,227,-81
1,3032863,2463,827,-1365,2013,-87,-61,309,227,-81
1,3032877,2463,827,-1365,2013,-87,-61,309,227,-81
1,3032890,2461,828,-1365,2012,-82,-54,316,226,-74
1,3032904,2461,828,-1365,2012,-82,-54,316,226,-74
1,3032914,2461,824,-1362,2012,-89,-51,316,226,-74
1,3032928,2461,824,-1362,2012,-89,-51,316,226,-74
1,3032941,2459,823,-1367,2011,-88,-58,316,226,-74
1,3032954,2460,823,-1366,2014,-88,-56,316,226,-74
1,3032969,2460,823,-1366,2014,-88,-56,316,226,-74
1,3032980,2461,831,-1371,2021,-79,-51,316,226,-74
1,3032993,2462,827,-1369,2013,-94,-55,316,226,-74
1,3033007,2462,827,-1369,2013,-94,-55,316,226,-74
1,3033021,2461,832,-1370,2009,-86,-58,320,232,-74
1,3033035,2464,838,-1364,2007,-82,-62,320,232,-74
1,3033051,2462,853,-1366,2012,-90,-56,320,232,-74
1,3033066,2462,853,-1366,2012,-90,-56,320,232,-74
1,3033081,2458,826,-1362,2012,-92,-59,320,232,-74
1,3033095,2459,839,-1370,2013,-91,-57,320,232,-74
1,3033108,2459,839,-1370,2013,-91,-57,320,232,-74
1,3033123,2464,844,-1369,2014,-81,-58,320,232,-74
1,3033134,2458,844,-1361,2018,-83,-59,315,231,-67
1,3033148,2458,844,-1361,2018,-83,-59,315,231,-67
1,3033161,2459,844,-1368,2007,-84,-61,315,231,-67
1,3033176,2461,855,-1363,2004,-91,-59,315,231,-67
1,3033189,2461,855,-1363,2004,-91,-59,315,231,-67
1,3033203,2460,856,-1367,2004,-88,-56,315,231,-67
1,3033216,2458,870,-1364,2008,-85,-51,315,231,-67
1,3033228,2458,870,-1364,2008,-85,-51,315,231,-67
1,3033243,2462,872,-1359,2003,-83,-48,315,231,-67
1,3033253,2462,859,-1362,2001,-78,-49,315,231,-67
1,3033261,2462,859,-1362,2001,-78,-49,315,231,-67
1,3033270,2458,857,-1354,1997,-80,-53,315,231,-67
1,3033278,2458,857,-1354,1997,-80,-53,316,232,-70
1,3033288,2458,857,-1354,1997,-80,-53,316,232,-70
1,3033295,2458,869,-1358,1999,-85,-52,316,232,-70
1,3033305,2458,869,-1358,1999,-85,-52,316,232,-70
1,3033313,2460,852,-1359,1993,-84,-50,316,232,-70
1,3033321,2460,852,-1359,1993,-84,-50,316,232,-70
1,3033330,2463,845,-1363,1994,-92,-54,316,232,-70
1,3033339,2463,845,-1363,1994,-92,-54,316,232,-70
1,3033349,2463,845,-1363,1994,-92,-54,316,232,-70
1,3033357,2464,841,-1360,1993,-93,-52,316,232,-70
1,3033366,2464,841,-1360,1993,-93,-52,316,232,-70
1,3033374,2461,851,-1361,1995,-89,-40,316,232,-70
1,3033383,2461,851,-1361,1995,-89,-40,316,232,-70
1,3033392,2461,814,-1356,1998,-88,-47,315,231,-59
1,3033400,2461,814,-1356,1998,-88,-47,315,231,-59
1,3033409,2461,814,-1356,1998,-88,-47,315,231,-59
1,3033416,2466,835,-1361,1997,-84,-59,315,231,-59
1,3033425,2466,835,-1361,1997,-84,-59,315,231,-59
1,3033434,2462,828,-1362,2001,-88,-51,315,231,-59
1,3033442,2462,828,-1362,2001,-88,-51,315,231,-59
1,3033451,2459,856,-1359,1997,-85,-45,315,231,-59
1,3033460,2459,856,-1359,1997,-85,-45,315,231,-59
1,3033469,2459,856,-1359,1997,-85,-45,315,231,-59
1,3033478,2457,813,-1356,1992,-84,-51,315,231,-59
1,3033486,2457,813,-1356,1992,-84,-51,315,231,-59
1,3033494,2467,833,-1354,1997,-89,-59,315,231,-59
1,3033503,2467,833,-1354,1997,-89,-59,315,231,-59
1,3033511,2465,811,-1355,1996,-83,-54,321,231,-57
1,3033520,2465,811,-1355,1996,-83,-54,321,231,-57
1,3033528,2465,811,-1355,1996,-83,-54,321,231,-57
1,3033535,2461,827,-1353,1996,-94,-48,321,231,-57
1,3033544,2461,827,-1353,1996,-94,-48,321,231,-57
1,3033553,2465,810,-1362,1998,-87,-57,321,231,-57
1,3033562,2465,810,-1362,1998,-87,-57,321,231,-57
1,3033570,2467,805,-1361,1992,-84,-55,321,231,-57
1,3033579,2467,805,-1361,1992,-84,-55,321,231,-57
1,3033586,2467,805,-1361,1992,-84,-55,321,231,-57
1,3033594,2468,792,-1358,1997,-88,-45,321,231,-57
1,3033603,2468,792,-1358,1997,-88,-45,321,231,-57
1,3033611,2465,794,-1363,1994,-88,-47,321,231,-57
1,3033619,2465,794,-1363,1994,-88,-47,321,231,-57
1,3033627,2465,794,-1363,1994,-88,-47,321,231,-57
1,3033635,2461,806,-1372,1996,-88,-53,324,228,-56
1,3033645,2461,806,-1372,1996,-88,-53,324,228,-56
1,3033653,2468,798,-1361,1996,-85,-57,324,228,-56
1,3033662,2468,798,-1361,1996,-85,-57,324,228,-56
1,3033669,2468,798,-1361,1996,-85,-57,324,228,-56
1,3033678,2462,792,-1361,2001,-86,-57,324,228,-56
1,3033687,2462,792,-1361,2001,-86,-57,324,228,-56
1,3033696,2462,796,-1371,2002,-94,-58,324,228,-56
1,3033704,2462,796,-1371,2002,-94,-58,324,228,-56
1,3033713,2462,813,-1363,2006,-90,-53,324,228,-56
1,3033719,2462,813,-1363,2006,-90,-53,324,228,-56
1,3033728,2462,813,-1363,2006,-90,-53,324,228,-56
1,3033736,2463,816,-1367,2006,-89,-55,324,228,-56
1,3033744,2463,816,-1367,2006,-89,-55,324,228,-56
1,3033752,2464,812,-1361,2015,-90,-56,324,228,-56
1,3033760,2464,812,-1361,2015,-90,-56,324,228,-56
1,3033768,2464,812,-1361,2015,-90,-56,324,228,-56
1,3033778,2464,813,-1359,2009,-83,-56,324,234,-44
1,3033787,2464,813,-1359,2009,-83,-56,324,234,-44
1,3033795,2465,827,-1365,2004,-90,-52,324,234,-44
1,3033803,2465,827,-1365,2004,-90,-52,324,234,-44
1,3033811,2460,832,-1364,2010,-85,-53,324,234,-44
1,3033820,2460,832,-1364,2010,-85,-53,324,234,-44
1,3033828,2460,832,-1364,2010,-85,-53,324,234,-44
1,3033836,2464,817,-1368,2006,-81,-60,324,234,-44
1,3033844,2464,817,-1368,2006,-81,-60,324,234,-44
1,3033852,2464,821,-1367,2007,-84,-59,324,234,-44
1,3033862,2464,821,-1367,2007,-84,-59,324,234,-44
1,3033870,2461,834,-1362,2008,-89,-58,324,234,-44
1,3033878,2461,834,-1362,2008,-89,-58,324,234,-44
1,3033886,2461,834,-1362,2008,-89,-58,324,234,-44
1,3033894,2454,872,-1363,2011,-82,-53,330,238,-52
1,3033904,2454,872,-1363,2011,-82,-53,330,238,-52
1,3033910,2460,823,-1363,2012,-83,-56,330,238,-52
1,3033919,2460,823,-1363,2012,-83,-56,330,238,-52
1,3033928,2460,823,-1363,2012,-83,-56,330,238,-52
1,3033936,2462,829,-1366,2018,-86,-61,330,238,-52
1,3033946,2462,829,-1366,2018,-86,-61,330,238,-52
1,3033953,2465,841,-1361,2012,-89,-56,330,238,-52
1,3033962,2465,841,-1361,2012,-89,-56,330,238,-52
1,3033970,2465,841,-1361,2012,-89,-56,330,238,-52
1,3033978,2458,851,-1366,2005,-92,-47,330,238,-52
1,3033988,2458,851,-1366,2005,-92,-47,330,238,-52
1,3033996,2456,840,-1367,2006,-90,-54,330,238,-52
1,3034005,2456,840,-1367,2006,-90,-54,330,238,-52
1,3034013,2462,831,-1354,2001,-85,-61,334,244,-46
1,3034022,2462,831,-1354,2001,-85,-61,334,244,-46
1,3034032,2463,841,-1365,2000,-89,-54,334,244,-46
1,3034040,2463,841,-1365,2000,-89,-54,334,244,-46
1,3034047,2463,841,-1365,2000,-89,-54,334,244,-46
1,3034054,2457,837,-1363,2002,-86,-48,334,244,-46
1,3034062,2457,837,-1363,2002,-86,-48,334,244,-46
1,3034072,2456,849,-1363,2000,-82,-48,334,244,-46
1,3034079,2456,849,-1363,2000,-82,-48,334,244,-46
1,3034088,2456,849,-1363,2000,-82,-48,334,244,-46
1,3034096,2464,838,-1359,2000,-82,-61,334,244,-46
1,3034105,2464,838,-1359,2000,-82,-61,334,244,-46
1,3034116,2463,841,-1362,1995,-91,-60,334,244,-46
1,3034123,2463,841,-1362,1995,-91,-60,334,244,-46
1,3034132,2464,835,-1365,2007,-90,-59,325,235,-45
1,3034141,2464,835,-1365,2007,-90,-59,325,235,-45
1,3034149,2464,835,-1365,2007,-90,-59,325,235,-45
1,3034158,2457,857,-1359,2005,-90,-54,325,235,-45
1,3034166,2457,857,-1359,2005,-90,-54,325,235,-45
1,3034174,2462,843,-1360,2006,-90,-58,325,235,-45
1,3034182,2462,843,-1360,2006,-90,-58,325,235,-45
1,3034190,2461,836,-1355,2007,-89,-57,325,235,-45
1,3034199,2461,836,-1355,2007,-89,-57,325,235,-45
1,3034207,2461,836,-1355,2007,-89,-57,325,235,-45
1,3034215,2459,833,-1360,1998,-92,-57,325,235,-45
1,3034223,2459,833,-1360,1998,-92,-57,325,235,-45
1,3034231,2456,850,-1360,1996,-85,-51,325,235,-45
1,3034240,2456,850,-1360,1996,-85,-51,325,235,-45
1,3034247,2456,850,-1360,1996,-85,-51,325,235,-45
1,3034254,2460,840,-1362,1996,-86,-60,326,238,-48
1,3034268,2460,840,-1362,1996,-86,-60,326,238,-48
1,3034281,2464,817,-1353,1996,-89,-56,326,238,-48
1,3034295,2462,830,-1361,1991,-94,-54,326,238,-48
1,3034307,2462,830,-1361,1991,-94,-54,326,238,-48
1,3034322,2463,842,-1363,1990,-95,-55,326,238,-48
1,3034336,2462,835,-1362,2000,-92,-55,326,238,-48
1,3034349,2462,835,-1362,2000,-92,-55,326,238,-48
1,3034363,2465,825,-1360,1999,-92,-52,326,238,-48
1,3034377,2463,822,-1360,2004,-87,-60,326,238,-48
1,3034391,2461,838,-1360,1999,-89,-52,325,245,-31
1,3034405,2461,838,-1360,1999,-89,-52,325,245,-31
1,3034418,2461,824,-1359,1999,-89,-48,325,245,-31
1,3034432,2462,823,-1362,2002,-88,-55,325,245,-31
1,3034447,2462,823,-1362,2002,-88,-55,325,245,-31
1,3034460,2463,810,-1364,2004,-85,-57,325,245,-31
1,3034473,2460,823,-1362,1999,-95,-60,325,245,-31
1,3034487,2460,823,-1362,1999,-95,-60,325,245,-31
1,3034502,2463,823,-1362,2003,-87,-57,325,245,-31
1,3034515,2464,820,-1361,2000,-85,-57,320,242,-30
1,3034528,2464,820,-1361,2000,-85,-57,320,242,-30
1,3034541,2468,814,-1357,1995,-85,-58,320,242,-30
1,3034557,2464,820,-1360,2002,-92,-56,320,242,-30
1,3034569,2464,820,-1360,2002,-92,-56,320,242,-30
1,3034583,2458,824,-1368,2001,-84,-59,320,242,-30
1,3034597,2458,825,-1361,1999,-80,-53,320,242,-30
1,3034611,2464,813,-1360,2002,-84,-54,320,242,-30
1,3034626,2464,813,-1360,2002,-84,-54,320,242,-30
1,3034639,2463,821,-1353,2001,-86,-58,327,241,-17
1,3034652,2457,822,-1366,1998,-91,-60,327,241,-17
1,3034668,2457,822,-1366,1998,-91,-60,327,241,-17
1,3034682,2466,815,-1362,2002,-91,-62,327,241,-17
1,3034696,2468,802,-1363,2001,-85,-58,327,241,-17
1,3034707,2468,802,-1363,2001,-85,-58,327,241,-17
1,3034723,2465,804,-1360,2005,-83,-57,327,241,-17
1,3034736,2463,804,-1367,2006,-88,-46,327,241,-17
1,3034749,2463,804,-1367,2006,-88,-46,327,241,-17
1,3034764,2462,816,-1364,2004,-82,-53,324,240,-20
1,3034776,2460,812,-1362,2000,-83,-55,324,240,-20
1,3034789,2460,812,-1362,2000,-83,-55,324,240,-20
1,3034804,2462,809,-1362,2003,-92,-52,324,240,-20
1,3034817,2460,816,-1364,2004,-90,-60,324,240,-20
1,3034830,2460,831,-1365,2003,-81,-46,324,240,-20
1,3034845,2460,831,-1365,2003,-81,-46,324,240,-20
1,3034856,2461,826,-1362,2013,-90,-49,324,240,-20
1,3034870,2461,826,-1362,2013,-90,-49,324,240,-20
1,3034885,2465,816,-1364,2009,-87,-52,324,240,-20
1,3034897,2466,827,-1360,2009,-84,-48,315,239,-11
1,3034912,2462,837,-1363,2009,-85,-50,315,239,-11
1,3034928,2462,837,-1363,2009,-85,-50,315,239,-11
1,3034943,2459,835,-1364,2016,-87,-56,315,239,-11
1,3034958,2460,827,-1363,2010,-84,-57,315,239,-11
1,3034972,2466,832,-1364,2011,-86,-53,315,239,-11
1,3034986,2466,832,-1364,2011,-86,-53,315,239,-11
1,3035000,2458,827,-1365,2015,-92,-53,315,239,-11
1,3035013,2458,835,-1363,2014,-85,-54,325,237,-13
1,3035024,2458,835,-1363,2014,-85,-54,325,237,-13
1,3035037,2464,830,-1365,2012,-83,-53,325,237,-13
1,3035052,2462,841,-1365,2006,-88,-59,325,237,-13
1,3035066,2462,841,-1365,2006,-88,-59,325,237,-13
1,3035079,2464,833,-1365,2009,-84,-53,325,237,-13
1,3035089,2464,833,-1365,2009,-84,-53,325,237,-13
1,3035104,2463,844,-1363,2013,-87,-48,325,237,-13
1,3035117,2461,838,-1362,2014,-89,-51,325,237,-13
1,3035131,2461,847,-1360,2005,-89,-54,322,240,-8
1,3035146,2461,847,-1360,2005,-89,-54,322,240,-8
1,3035160,2459,842,-1360,2003,-84,-54,322,240,-8
1,3035173,2455,857,-1364,2012,-84,-51,322,240,-8
1,3035188,2455,857,-1364,2012,-84,-51,322,240,-8
1,3035202,2460,852,-1364,2007,-89,-60,322,240,-8
1,3035216,2462,855,-1361,2006,-86,-51,322,240,-8
1,3035228,2462,855,-1361,2006,-86,-51,322,240,-8
1,3035235,2458,870,-1361,2009,-88,-52,322,240,-8
1,3035244,2458,870,-1361,2009,-88,-52,322,240,-8
1,3035254,2460,869,-1356,2003,-88,-55,319,233,-11
1,3035267,2460,869,-1356,2003,-88,-55,319,233,-11
1,3035275,2461,863,-1359,2004,-88,-55,319,233,-11
1,3035283,2461,863,-1359,2004,-88,-55,319,233,-11
1,3035290,2462,852,-1358,2003,-96,-56,319,233,-11
1,3035299,2462,852,-1358,2003,-96,-56,319,233,-11
1,3035309,2462,852,-1358,2003,-96,-56,319,233,-11
1,3035318,2462,853,-1361,1990,-82,-54,319,233,-11
1,3035326,2462,853,-1361,1990,-82,-54,319,233,-11
1,3035334,2462,853,-1361,1990,-82,-54,319,233,-11
1,3035343,2462,853,-1361,1990,-82,-54,319,233,-11
1,3035352,2460,851,-1354,1997,-78,-54,319,233,-11
1,3035360,2460,851,-1354,1997,-78,-54,319,233,-11
1,3035369,2460,851,-1354,1997,-78,-54,319,233,-11
1,3035377,2464,830,-1361,1991,-89,-59,319,233,-11
1,3035386,2464,830,-1361,1991,-89,-59,319,233,-11
1,3035395,2464,807,-1356,1992,-90,-57,329,233,3
1,3035404,2464,807,-1356,1992,-90,-57,329,233,3
1,3035412,2460,841,-1355,1990,-86,-50,329,233,3
1,3035420,2460,841,-1355,1990,-86,-50,329,233,3
1,3035429,2460,841,-1355,1990,-86,-50,329,233,3
1,3035438,2464,848,-1363,1990,-89,-53,329,233,3
1,3035446,2464,848,-1363,1990,-89,-53,329,233,3
1,3035455,2463,823,-1361,1993,-80,-58,329,233,3
1,3035464,2463,823,-1361,1993,-80,-58,329,233,3
1,3035473,2467,829,-1356,1993,-84,-64,329,233,3
1,3035482,2467,829,-1356,1993,-84,-64,329,233,3
1,3035490,2467,829,-1356,1993,-84,-64,329,233,3
1,3035498,2466,822,-1359,2000,-84,-63,329,233,3
1,3035506,2466,822,-1359,2000,-84,-63,329,233,3
1,3035515,2459,831,-1355,1994,-82,-56,323,229,11
1,3035524,2459,831,-1355,1994,-82,-56,323,229,11
1,3035532,2459,814,-1354,2000,-84,-55,323,229,11
1,3035541,2459,814,-1354,2000,-84,-55,323,229,11
1,3035549,2459,814,-1354,2000,-84,-55,323,229,11
1,3035558,2467,789,-1354,1992,-85,-50,323,229,11
1,3035566,2467,789,-1354,1992,-85,-50,323,229,11
1,3035575,2465,777,-1361,1997,-90,-55,323,229,11
1,3035583,2465,777,-1361,1997,-90,-55,323,229,11
1,3035593,2462,801,-1364,1993,-87,-51,323,229,11
1,3035600,2462,801,-1364,1993,-87,-51,323,229,11
1,3035610,2462,801,-1364,1993,-87,-51,323,229,11
1,3035618,2463,799,-1366,1998,-90,-53,323,229,11
1,3035629,2463,799,-1366,1998,-90,-53,323,229,11
1,3035637,2470,787,-1360,2002,-90,-58,322,236,4
1,3035645,2470,787,-1360,2002,-90,-58,322,236,4
1,3035654,2473,790,-1357,1998,-90,-51,322,236,4
1,3035662,2473,790,-1357,1998,-90,-51,322,236,4
1,3035671,2465,812,-1363,2002,-91,-55,322,236,4
1,3035679,2465,812,-1363,2002,-91,-55,322,236,4
1,3035688,2465,812,-1363,2002,-91,-55,322,236,4
1,3035698,2460,815,-1368,2001,-90,-53,322,236,4
1,3035706,2460,815,-1368,2001,-90,-53,322,236,4
1,3035713,2462,808,-1365,2002,-87,-51,322,236,4
1,3035722,2462,808,-1365,2002,-87,-51,322,236,4
1,3035730,2467,812,-1363,2010,-85,-50,322,236,4
1,3035740,2467,812,-1363,2010,-85,-50,322,236,4
1,3035748,2467,812,-1363,2010,-85,-50,322,236,4
1,3035755,2460,822,-1366,2014,-82,-49,323,241,1
1,3035763,2460,822,-1366,2014,-82,-49,323,241,1
1,3035771,2460,822,-1366,2014,-82,-49,323,241,1
1,3035780,2460,822,-1366,2014,-82,-49,323,241,1
1,3035788,2460,822,-1366,2014,-82,-49,323,241,1
1,3035796,2465,826,-1363,2010,-94,-48,323,241,1
1,3035803,2465,826,-1363,2010,-94,-48,323,241,1
1,3035812,2468,815,-1360,2016,-86,-59,323,241,1
1,3035821,2468,815,-1360,2016,-86,-59,323,241,1
1,3035830,2468,815,-1360,2016,-86,-59,323,241,1
1,3035839,2465,824,-1368,2012,-86,-52,323,241,1
1,3035845,2465,824,-1368,2012,-86,-52,323,241,1
1,3035855,2462,838,-1366,2016,-91,-55,323,241,1
1,3035863,2462,838,-1366,2016,-91,-55,323,241,1
1,3035872,2459,870,-1366,2015,-85,-57,323,241,1
1,3035881,2459,870,-1366,2015,-85,-57,323,241,1
1,3035889,2459,870,-1366,2015,-85,-57,323,241,1
1,3035898,2460,827,-1361,2018,-89,-62,319,243,23
1,3035908,2460,827,-1361,2018,-89,-62,319,243,23
1,3035916,2461,832,-1360,2016,-91,-62,319,243,23
1,3035924,2461,832,-1360,2016,-91,-62,319,243,23
1,3035932,2462,845,-1364,2009,-94,-58,319,243,23
1,3035940,2462,845,-1364,2009,-94,-58,319,243,23
1,3035949,2462,845,-1364,2009,-94,-58,319,243,23
1,3035957,2454,860,-1365,2009,-85,-53,319,243,23
1,3035966,2454,860,-1365,2009,-85,-53,319,243,23
1,3035974,2462,841,-1363,2007,-87,-58,319,243,23
1,3035984,2462,841,-1363,2007,-87,-58,319,243,23
1,3035992,2462,841,-1363,2007,-87,-58,319,243,23
1,3036000,2462,841,-1363,2007,-87,-58,319,243,23
1,3036006,2462,841,-1363,2007,-87,-58,319,243,23
1,3036015,2464,857,-1361,2007,-92,-59,323,241,27
1,3036024,2464,857,-1361,2007,-92,-59,323,241,27
1,3036034,2459,856,-1360,2008,-92,-58,323,241,27
1,3036041,2459,856,-1360,2008,-92,-58,323,241,27
1,3036050,2459,856,-1360,2008,-92,-58,323,241,27
1,3036058,2463,853,-1362,2003,-87,-54,323,241,27
1,3036067,2463,853,-1362,2003,-87,-54,323,241,27
1,3036077,2466,835,-1360,2001,-86,-53,323,241,27
1,3036085,2466,835,-1360,2001,-86,-53,323,241,27
1,3036093,2461,844,-1360,1997,-87,-51,323,241,27
1,3036102,2461,844,-1360,1997,-87,-51,323,241,27
1,3036110,2461,844,-1360,1997,-87,-51,323,241,27
1,3036119,2457,846,-1360,1997,-91,-50,323,241,27
1,3036128,2457,846,-1360,1997,-91,-50,323,241,27
1,3036135,2457,851,-1352,1995,-90,-54,315,245,15
1,3036144,2457,851,-1352,1995,-90,-54,315,245,15
1,3036152,2461,842,-1356,1999,-96,-61,315,245,15
1,3036161,2461,842,-1356,1999,-96,-61,315,245,15
1,3036171,2463,841,-1355,1991,-91,-64,315,245,15
1,3036180,2463,841,-1355,1991,-91,-64,315,245,15
1,3036188,2463,841,-1355,1991,-91,-64,315,245,15
1,3036197,2462,848,-1358,1999,-85,-58,315,245,15
1,3036207,2462,848,-1358,1999,-85,-58,315,245,15
1,3036216,2459,857,-1364,1996,-83,-51,315,245,15
1,3036224,2459,857,-1364,1996,-83,-51,315,245,15
1,3036233,2466,842,-1366,2003,-87,-67,315,245,15
1,3036240,2466,842,-1366,2003,-87,-67,315,245,15
1,3036251,2466,842,-1366,2003,-87,-67,315,245,15
1,3036259,2462,841,-1357,2000,-89,-53,323,243,27
1,3036267,2462,841,-1357,2000,-89,-53,323,243,27
1,3036279,2462,839,-1359,1995,-94,-47,323,243,27
1,3036293,2458,840,-1357,1999,-89,-55,323,243,27
1,3036306,2458,840,-1357,1999,-89,-55,323,243,27
1,3036319,2460,824,-1356,1992,-83,-58,323,243,27
1,3036333,2462,838,-1359,1989,-85,-62,323,243,27
1,3036345,2462,838,-1359,1989,-85,-62,323,243,27
1,3036358,2461,837,-1363,1984,-91,-52,323,243,27
1,3036371,2461,832,-1355,1993,-83,-50,323,243,41
1,3036386,2461,832,-1355,1993,-83,-50,323,243,41
1,3036401,2466,831,-1358,1996,-94,-58,323,243,41
1,3036416,2461,827,-1358,1997,-95,-58,323,243,41
1,3036429,2461,827,-1358,1997,-95,-58,323,243,41
1,3036443,2459,830,-1356,2001,-86,-54,323,243,41
1,3036454,2460,821,-1362,1988,-86,-51,323,243,41
1,3036467,2460,821,-1362,1988,-86,-51,323,243,41
1,3036480,2464,826,-1360,1989,-89,-48,323,243,41
1,3036492,2461,814,-1356,1995,-90,-54,323,243,41
1,3036506,2461,814,-1356,1995,-90,-54,323,243,41
1,3036519,2461,814,-1355,1994,-82,-50,316,244,44
1,3036531,2466,806,-1361,1992,-89,-56,316,244,44
1,3036545,2466,806,-1361,1992,-89,-56,316,244,44
1,3036558,2469,820,-1360,2000,-88,-55,316,244,44
1,3036571,2465,815,-1362,2001,-90,-55,316,244,44
1,3036583,2465,815,-1362,2001,-90,-55,316,244,44
1,3036596,2462,817,-1358,2003,-87,-56,316,244,44
1,3036611,2462,817,-1358,2003,-87,-56,316,244,44
1,3036627,2462,817,-1358,2003,-87,-56,316,244,44
1,3036640,2460,822,-1360,1994,-85,-54,312,256,38
1,3036653,2465,811,-1358,2000,-91,-54,312,256,38
1,3036668,2465,811,-1358,2000,-91,-54,312,256,38
1,3036684,2461,802,-1362,2004,-88,-57,312,256,38
1,3036698,2465,808,-1359,2004,-86,-53,312,256,38
1,3036711,2462,807,-1368,2004,-86,-48,312,256,38
1,3036726,2462,807,-1368,2004,-86,-48,312,256,38
1,3036739,2463,799,-1365,2002,-83,-51,312,256,38
1,3036751,2467,804,-1364,2009,-84,-54,307,249,51
1,3036766,2467,804,-1364,2009,-84,-54,307,249,51
1,3036779,2467,814,-1360,2011,-86,-53,307,249,51
1,3036792,2459,820,-1369,2009,-82,-50,307,249,51
1,3036806,2459,820,-1369,2009,-82,-50,307,249,51
1,3036818,2462,816,-1369,2003,-88,-51,307,249,51
1,3036831,2462,829,-1365,2009,-84,-56,307,249,51
1,3036847,2462,829,-1365,2009,-84,-56,307,249,51
1,3036862,2460,823,-1364,2005,-84,-57,307,249,51
1,3036878,2460,821,-1370,2005,-95,-54,307,251,53
1,3036893,2462,824,-1364,2008,-88,-58,307,251,53
1,3036905,2462,824,-1364,2008,-88,-58,307,251,53
1,3036919,2461,832,-1364,2013,-86,-57,307,251,53
1,3036936,2464,826,-1363,2013,-89,-57,307,251,53
1,3036949,2464,826,-1363,2013,-89,-57,307,251,53
1,3036962,2464,824,-1366,2016,-81,-58,307,251,53
1,3036976,2464,827,-1363,2015,-82,-57,307,251,53
1,3036989,2464,827,-1363,2015,-82,-57,307,251,53
1,3037003,2462,834,-1366,2014,-82,-57,307,251,53
1,3037017,2458,833,-1364,2016,-86,-59,296,260,56
1,3037030,2458,833,-1364,2016,-86,-59,296,260,56
1,3037044,2461,833,-1367,2015,-86,-60,296,260,56
1,3037058,2462,854,-1370,2011,-87,-57,296,260,56
1,3037073,2461,833,-1366,2010,-81,-48,296,260,56
1,3037088,2461,833,-1366,2010,-81,-48,296,260,56
1,3037100,2463,842,-1366,2008,-93,-58,296,260,56
1,3037115,2466,839,-1366,2010,-77,-56,296,260,56
1,3037130,2466,839,-1366,2010,-77,-56,296,260,56
1,3037146,2462,852,-1362,2008,-88,-53,289,261,57
1,3037160,2460,841,-1369,2001,-91,-54,289,261,57
1,3037173,2460,860,-1363,2006,-88,-59,289,261,57
1,3037185,2460,860,-1363,2006,-88,-59,289,261,57
1,3037199,2463,854,-1366,2010,-86,-53,289,261,57
1,3037213,2455,875,-1360,2010,-84,-49,289,261,57
1,3037227,2455,875,-1360,2010,-84,-49,289,261,57
1,3037241,2456,877,-1361,2013,-83,-51,289,261,57
1,3037253,2458,871,-1354,2001,-85,-59,283,257,61
1,3037266,2458,871,-1354,2001,-85,-59,283,257,61
1,3037279,2462,858,-1355,2001,-86,-70,283,257,61
1,3037288,2462,858,-1355,2001,-86,-70,283,257,61
1,3037297,2461,872,-1361,1997,-93,-56,283,257,61
1,3037304,2461,872,-1361,1997,-93,-56,283,257,61
1,3037314,2461,860,-1363,1994,-84,-54,283,257,61
1,3037321,2461,860,-1363,1994,-84,-54,283,257,61
1,3037330,2461,860,-1363,1994,-84,-54,283,257,61
1,3037337,2461,855,-1353,1994,-91,-56,283,257,61
1,3037345,2461,855,-1353,1994,-91,-56,283,257,61
1,3037353,2464,840,-1359,1990,-86,-59,283,257,61
1,3037363,2464,840,-1359,1990,-86,-59,283,257,61
1,3037372,2459,849,-1356,1992,-89,-55,282,257,61
1,3037380,2459,849,-1356,1992,-89,-55,282,258,68
1,3037389,2459,849,-1356,1992,-89,-55,282,258,68
1,3037399,2456,853,-1358,1995,-91,-55,282,258,68
1,3037407,2456,853,-1358,1995,-91,-55,282,258,68
1,3037414,2461,806,-1357,1998,-84,-61,282,258,68
1,3037423,2461,806,-1357,1998,-84,-61,282,258,68
1,3037431,2461,806,-1357,1998,-84,-61,282,258,68
1,3037440,2465,845,-1351,2002,-92,-63,282,258,68
1,3037448,2465,845,-1351,2002,-92,-63,282,258,68
1,3037456,2462,833,-1362,1996,-88,-50,282,258,68
1,3037464,2462,833,-1362,1996,-88,-50,282,258,68
1,3037473,2458,846,-1357,1993,-86,-51,282,258,68
1,3037481,2458,846,-1357,1993,-86,-51,282,258,68
1,3037490,2458,846,-1357,1993,-86,-51,282,258,68
1,3037498,2466,818,-1358,1998,-88,-61,282,258,68
1,3037505,2466,818,-1358,1998,-88,-61,282,258,68
1,3037514,2468,839,-1349,1998,-84,-62,284,262,66
1,3037522,2468,839,-1349,1998,-84,-62,284,262,66
1,3037532,2464,820,-1361,1995,-87,-61,284,262,66
1,3037539,2464,820,-1361,1995,-87,-61,284,262,66
1,3037548,2464,820,-1361,1995,-87,-61,284,262,66
1,3037556,2461,820,-1355,1993,-86,-62,284,262,66
1,3037564,2461,820,-1355,1993,-86,-62,284,262,66
1,3037574,2462,812,-1357,1992,-84,-55,284,262,66
1,3037582,2462,812,-1357,1992,-84,-55,284,262,66
1,3037591,2462,812,-1357,1992,-84,-55,284,262,66
1,3037598,2465,795,-1356,1996,-85,-54,284,262,66
1,3037607,2465,795,-1356,1996,-85,-54,284,262,66
1,3037616,2466,795,-1361,1997,-85,-46,284,262,66
1,3037623,2466,795,-1361,1997,-85,-46,284,262,66
1,3037632,2463,796,-1366,1993,-92,-53,276,266,68
1,3037639,2463,796,-1366,1993,-92,-53,276,266,68
1,3037648,2463,796,-1366,1993,-92,-53,276,266,68
1,3037658,2463,796,-1366,1993,-92,-53,276,266,68
1,3037666,2463,796,-1366,1993,-92,-53,276,266,68
1,3037674,2467,797,-1363,2001,-87,-49,276,266,68
1,3037682,2467,797,-1363,2001,-87,-49,276,266,68
1,3037690,2467,797,-1363,2001,-87,-49,276,266,68
1,3037699,2470,800,-1359,1995,-85,-53,276,266,68
1,3037707,2470,800,-1359,1995,-85,-53,276,266,68
1,3037715,2466,805,-1363,1998,-83,-61,276,266,68
1,3037723,2466,805,-1363,1998,-83,-61,276,266,68
1,3037732,2460,817,-1366,2000,-78,-56,276,266,68
1,3037741,2460,817,-1366,2000,-78,-56,276,266,68
1,3037751,2460,817,-1366,2000,-78,-56,276,266,68
1,3037759,2462,809,-1359,2008,-83,-51,281,263,65
1,3037767,2462,809,-1359,2008,-83,-51,281,263,65
1,3037774,2465,814,-1358,2015,-88,-62,281,263,65
1,3037784,2465,814,-1358,2015,-88,-62,281,263,65
1,3037791,2465,814,-1358,2015,-88,-62,281,263,65
1,3037799,2462,813,-1362,2008,-86,-54,281,263,65
1,3037807,2462,813,-1362,2008,-86,-54,281,263,65
1,3037815,2462,827,-1364,2010,-82,-56,281,263,65
1,3037824,2462,827,-1364,2010,-82,-56,281,263,65
1,3037831,2462,827,-1364,2010,-82,-56,281,263,65
1,3037840,2463,825,-1365,2009,-84,-57,281,263,65
1,3037848,2463,825,-1365,2009,-84,-57,281,263,65
1,3037856,2466,821,-1363,2016,-82,-51,281,263,65
1,3037865,2466,821,-1363,2016,-82,-51,281,263,65
1,3037875,2462,823,-1366,2013,-94,-53,276,262,66
1,3037883,2462,823,-1366,2013,-94,-53,276,262,66
1,3037892,2461,841,-1362,2007,-88,-55,276,262,66
1,3037901,2461,841,-1362,2007,-88,-55,276,262,66
1,3037908,2461,841,-1362,2007,-88,-55,276,262,66
1,3037917,2456,861,-1368,2017,-89,-52,276,262,66
1,3037926,2456,861,-1368,2017,-89,-52,276,262,66
1,3037934,2460,823,-1363,2022,-91,-53,276,262,66
1,3037943,2460,823,-1363,2022,-91,-53,276,262,66
1,3037952,2462,832,-1359,2009,-92,-61,276,262,66
1,3037961,2462,832,-1359,2009,-92,-61,276,262,66
1,3037970,2462,832,-1359,2009,-92,-61,276,262,66
1,3037979,2462,848,-1363,2004,-90,-58,276,262,66
1,3037988,2462,848,-1363,2004,-90,-58,276,262,66
1,3037997,2458,844,-1359,2006,-86,-47,276,262,66
1,3038006,2458,844,-1359,2006,-86,-47,276,262,66
1,3038013,2460,845,-1359,2003,-88,-56,262,254,68
1,3038023,2460,845,-1359,2003,-88,-56,262,254,68
1,3038032,2466,836,-1359,2005,-91,-64,262,254,68
1,3038041,2466,836,-1359,2005,-91,-64,262,254,68
1,3038050,2466,836,-1359,2005,-91,-64,262,254,68
1,3038058,2465,846,-1360,2009,-91,-59,262,254,68
1,3038067,2465,846,-1360,2009,-91,-59,262,254,68
1,3038075,2459,840,-1357,2003,-88,-53,262,254,68
1,3038084,2459,840,-1357,2003,-88,-53,262,254,68
1,3038092,2456,853,-1366,1994,-85,-50,262,254,68
1,3038099,2456,853,-1366,1994,-85,-50,262,254,68
1,3038108,2456,853,-1366,1994,-85,-50,262,254,68
1,3038116,2460,838,-1361,1997,-88,-68,262,254,68
1,3038127,2460,838,-1361,1997,-88,-68,262,254,68
1,3038135,2464,842,-1357,2001,-87,-60,254,260,58
1,3038144,2464,842,-1357,2001,-87,-60,254,260,58
1,3038152,2460,835,-1367,2013,-87,-53,254,260,58
1,3038159,2460,835,-1367,2013,-87,-53,254,260,58
1,3038168,2460,835,-1367,2013,-87,-53,254,260,58
1,3038176,2460,851,-1360,2003,-91,-55,254,260,58
1,3038185,2460,851,-1360,2003,-91,-55,254,260,58
1,3038194,2461,840,-1364,1995,-86,-63,254,260,58
1,3038202,2461,840,-1364,1995,-86,-63,254,260,58
1,3038211,2461,840,-1364,1995,-86,-63,254,260,58
1,3038221,2463,844,-1359,2000,-89,-57,254,260,58
1,3038228,2463,844,-1359,2000,-89,-57,254,260,58
1,3038237,2460,837,-1362,2004,-99,-48,254,260,58
1,3038244,2460,837,-1362,2004,-99,-48,254,260,58
1,3038253,2465,851,-1354,1995,-89,-56,262,260,56
1,3038261,2465,851,-1354,1995,-89,-56,262,260,56
1,3038269,2465,851,-1354,1995,-89,-56,262,260,56
1,3038278,2463,841,-1359,2001,-89,-60,262,260,56
1,3038286,2463,841,-1359,2001,-89,-60,262,260,56
1,3038301,2463,823,-1358,2004,-90,-56,262,260,56
1,3038316,2461,833,-1359,2000,-91,-57,262,260,56
1,3038327,2461,833,-1359,2000,-91,-57,262,260,56
1,3038342,2460,837,-1359,2000,-86,-52,262,260,56
1,3038355,2460,840,-1360,2001,-86,-56,262,260,56
1,3038368,2460,840,-1360,2001,-86,-56,262,260,56
1,3038383,2462,825,-1361,1999,-87,-63,251,259,65
1,3038397,2465,839,-1354,1997,-90,-59,251,259,65
1,3038409,2465,839,-1354,1997,-90,-59,251,259,65
1,3038422,2465,829,-1359,2001,-89,-55,251,259,65
1,3038435,2461,834,-1360,2000,-87,-49,251,259,65
1,3038449,2461,834,-1360,2000,-87,-49,251,259,65
1,3038464,2461,829,-1361,1994,-84,-58,251,259,65
1,3038479,2463,824,-1358,1995,-88,-59,251,259,65
1,3038494,2461,822,-1361,2007,-94,-55,250,258,70
1,3038507,2461,822,-1361,2007,-94,-55,250,258,70
1,3038521,2461,825,-1362,2004,-83,-51,250,258,70
1,3038535,2460,823,-1363,1999,-84,-57,250,258,70
1,3038546,2460,823,-1363,1999,-84,-57,250,258,70
1,3038560,2464,826,-1356,1995,-86,-48,250,258,70
1,3038573,2460,821,-1359,1999,-81,-48,250,258,70
1,3038586,2460,821,-1359,1999,-81,-48,250,258,70
1,3038601,2460,826,-1362,1991,-85,-50,250,258,70
1,3038615,2463,824,-1356,1996,-91,-49,250,258,70
1,3038628,2463,824,-1356,1996,-91,-49,250,258,70
1,3038641,2464,822,-1361,1999,-90,-49,247,261,53
1,3038656,2463,820,-1359,2003,-86,-53,247,261,53
1,3038670,2463,820,-1359,2003,-86,-53,247,261,53
1,3038679,2463,821,-1358,1998,-82,-54,247,261,53
1,3038690,2463,821,-1358,1998,-82,-54,247,261,53
1,3038706,2464,806,-1365,1998,-91,-50,247,261,53
1,3038720,2463,810,-1362,2002,-88,-56,247,261,53
1,3038733,2464,805,-1366,1991,-94,-56,247,261,53
1,3038746,2464,805,-1366,1991,-94,-56,247,261,53
1,3038761,2463,805,-1358,2001,-95,-52,248,270,62
1,3038776,2464,808,-1362,2005,-92,-46,248,270,62
1,3038789,2464,808,-1362,2005,-92,-46,248,270,62
1,3038803,2466,819,-1366,2005,-87,-49,248,270,62
1,3038818,2466,818,-1366,2005,-87,-53,248,270,62
1,3038830,2466,818,-1366,2005,-87,-53,248,270,62
1,3038842,2467,821,-1369,2005,-87,-49,248,270,62
1,3038857,2463,828,-1365,2011,-83,-55,248,270,62
1,3038871,2463,828,-1365,2011,-83,-55,248,270,62
1,3038884,2463,832,-1367,2012,-83,-47,248,254,62
1,3038900,2459,826,-1362,2017,-79,-59,248,254,62
1,3038914,2464,827,-1366,2016,-87,-53,248,254,62
1,3038929,2464,827,-1366,2016,-87,-53,248,254,62
1,3038945,2464,829,-1366,2016,-84,-56,248,254,62
1,3038958,2461,828,-1364,2009,-78,-58,248,254,62
1,3038972,2460,832,-1369,2006,-91,-63,248,254,62
1,3038987,2460,832,-1369,2006,-91,-63,248,254,62
1,3038999,2464,830,-1362,2009,-97,-57,243,257,53
1,3039011,2464,830,-1362,2009,-97,-57,243,257,53
1,3039025,2461,830,-1364,2011,-89,-56,243,257,53
1,3039038,2461,838,-1364,2017,-89,-50,243,257,53
1,3039051,2460,844,-1361,2012,-91,-58,243,257,53
1,3039064,2460,844,-1361,2012,-91,-58,243,257,53
1,3039076,2460,850,-1365,2007,-89,-49,243,257,53
1,3039090,2460,850,-1365,2007,-89,-49,243,257,53
1,3039104,2466,834,-1367,2011,-83,-50,243,257,53
1,3039119,2465,840,-1364,2008,-89,-60,243,257,53
1,3039133,2462,849,-1360,2001,-91,-56,242,262,56
1,3039149,2462,849,-1360,2001,-91,-56,242,262,56
1,3039164,2460,843,-1368,1997,-84,-57,242,262,56
1,3039178,2462,844,-1366,2009,-90,-57,242,262,56
1,3039193,2465,845,-1370,2010,-88,-54,242,262,56
1,3039207,2465,845,-1370,2010,-88,-54,242,262,56
1,3039219,2462,864,-1366,1999,-91,-52,242,262,56
1,3039230,2462,864,-1366,1999,-91,-52,242,262,56
1,3039244,2463,853,-1362,2008,-80,-52,242,262,56
1,3039257,2463,868,-1357,2007,-94,-60,235,257,43
1,3039271,2463,868,-1357,2007,-94,-60,235,257,43
1,3039286,2461,874,-1356,2001,-88,-58,235,257,43
1,3039297,2459,871,-1360,1999,-84,-53,235,257,43
1,3039305,2459,871,-1360,1999,-84,-53,235,257,43
1,3039314,2457,858,-1359,1996,-87,-58,235,257,43
1,3039323,2457,858,-1359,1996,-87,-58,235,257,43
1,3039331,2457,858,-1359,1996,-87,-58,235,257,43
1,3039341,2463,859,-1358,1990,-90,-51,235,257,43
1,3039348,2463,859,-1358,1990,-90,-51,235,257,43
1,3039358,2462,847,-1362,1989,-96,-55,235,257,43
1,3039366,2462,847,-1362,1989,-96,-55,235,257,43
1,3039374,2463,849,-1358,1993,-92,-56,236,260,50
1,3039382,2463,849,-1358,1993,-92,-56,236,260,50
1,3039391,2463,849,-1358,1993,-92,-56,236,260,50
1,3039399,2461,849,-1353,1993,-87,-54,236,260,50
1,3039408,2461,849,-1353,1993,-87,-54,236,260,50
1,3039416,2470,806,-1353,1993,-85,-58,236,260,50
1,3039424,2470,806,-1353,1993,-85,-58,236,260,50
1,3039433,2465,844,-1360,2002,-92,-58,236,260,50
1,3039441,2465,844,-1360,2002,-92,-58,236,260,50
1,3039451,2465,844,-1360,2002,-92,-58,236,260,50
1,3039458,2459,839,-1357,1991,-88,-51,236,260,50
1,3039467,2459,839,-1357,1991,-88,-51,236,260,50
1,3039475,2456,849,-1364,1994,-87,-48,236,260,50
1,3039482,2456,849,-1364,1994,-87,-48,236,260,50
1,3039491,2456,849,-1364,1994,-87,-48,236,260,50
1,3039500,2465,822,-1352,1992,-87,-55,230,270,42
1,3039508,2465,822,-1352,1992,-87,-55,230,270,42
1,3039516,2463,831,-1352,1989,-88,-61,230,270,42
1,3039524,2463,831,-1352,1989,-88,-61,230,270,42
1,3039533,2464,832,-1357,1988,-88,-46,230,270,42
1,3039542,2464,832,-1357,1988,-88,-46,230,270,42
1,3039550,2464,832,-1357,1988,-88,-46,230,270,42
1,3039559,2462,825,-1355,1996,-93,-48,230,270,42
1,3039568,2462,825,-1355,1996,-93,-48,230,270,42
1,3039577,2469,820,-1356,1995,-90,-48,230,270,42
1,3039585,2469,820,-1356,1995,-90,-48,230,270,42
1,3039593,2467,785,-1353,1993,-93,-55,230,270,42
1,3039602,2467,785,-1353,1993,-93,-55,230,270,42
1,3039611,2467,785,-1353,1993,-93,-55,230,270,42
1,3039621,2465,798,-1360,1995,-89,-57,230,270,42
1,3039629,2465,798,-1360,1995,-89,-57,230,270,42
1,3039637,2463,790,-1359,2002,-85,-51,233,273,39
1,3039645,2463,790,-1359,2002,-85,-51,233,273,39
1,3039653,2463,806,-1361,1991,-92,-57,233,273,39
1,3039662,2463,806,-1361,1991,-92,-57,233,273,39
1,3039671,2463,806,-1361,1991,-92,-57,233,273,39
1,3039679,2467,788,-1360,1998,-92,-60,233,273,39
1,3039687,2467,788,-1360,1998,-92,-60,233,273,39
1,3039695,2463,807,-1361,1996,-89,-59,233,273,39
1,3039705,2463,807,-1361,1996,-89,-59,233,273,39
1,3039713,2465,805,-1366,1999,-84,-52,233,273,39
1,3039722,2465,805,-1366,1999,-84,-52,233,273,39
1,3039730,2465,805,-1366,1999,-84,-52,233,273,39
1,3039739,2459,827,-1364,2006,-83,-53,233,273,39
1,3039749,2459,827,-1364,2006,-83,-53,233,273,39
1,3039757,2464,819,-1360,2011,-86,-59,229,275,45
1,3039766,2464,819,-1360,2011,-86,-59,229,275,45
1,3039776,2463,826,-1360,2008,-89,-49,229,275,45
1,3039784,2463,826,-1360,2008,-89,-49,229,275,45
1,3039794,2466,816,-1364,2009,-88,-54,229,275,45
1,3039801,2466,816,-1364,2009,-88,-54,229,275,45
1,3039810,2466,816,-1364,2009,-88,-54,229,275,45
1,3039818,2463,832,-1365,2008,-86,-51,229,275,45
1,3039825,2463,832,-1365,2008,-86,-51,229,275,45
1,3039834,2463,826,-1363,2008,-84,-50,229,275,45
1,3039843,2463,826,-1363,2008,-84,-50,229,275,45
1,3039851,2463,826,-1363,2008,-84,-50,229,275,45
1,3039859,2461,826,-1364,2013,-91,-57,229,275,45
1,3039868,2461,826,-1364,2013,-91,-57,229,275,45
1,3039878,2460,828,-1360,2010,-89,-58,234,280,42
1,3039886,2460,828,-1360,2010,-89,-58,234,280,42
1,3039894,2460,872,-1365,2010,-94,-46,234,280,42
1,3039903,2460,872,-1365,2010,-94,-46,234,280,42
1,3039912,2464,828,-1363,2014,-91,-48,234,280,42
1,3039921,2464,828,-1363,2014,-91,-48,234,280,42
1,3039930,2464,828,-1363,2014,-91,-48,234,280,42
1,3039939,2465,846,-1358,2009,-88,-57,234,280,42
1,3039947,2465,846,-1358,2009,-88,-57,234,280,42
1,3039956,2466,833,-1365,2000,-87,-55,234,280,42
1,3039965,2466,833,-1365,2000,-87,-55,234,280,42
1,3039973,2461,863,-1366,2001,-90,-52,234,280,42
1,3039981,2461,863,-1366,2001,-90,-52,234,280,42
1,3039989,2461,863,-1366,2001,-90,-52,234,280,42
1,3039998,2460,839,-1360,2006,-86,-49,230,290,32
1,3040007,2460,839,-1360,2006,-86,-49,230,290,32
1,3040015,2464,850,-1362,2009,-87,-54,230,290,32
1,3040024,2464,850,-1362,2009,-87,-54,230,290,32
1,3040033,2463,843,-1361,2006,-91,-53,230,290,32
1,3040041,2463,843,-1361,2006,-91,-53,230,290,32
1,3040051,2463,843,-1361,2006,-91,-53,230,290,32
1,3040060,2455,852,-1361,2007,-85,-50,230,290,32
1,3040069,2455,852,-1361,2007,-85,-50,230,290,32
1,3040077,2461,848,-1359,2006,-86,-58,230,290,32
1,3040086,2461,848,-1359,2006,-86,-58,230,290,32
1,3040094,2461,845,-1365,2002,-89,-60,230,290,32
1,3040102,2461,845,-1365,2002,-89,-60,230,290,32
1,3040111,2461,845,-1365,2002,-89,-60,230,290,32
1,3040121,2465,844,-1356,2010,-96,-54,230,290,32
1,3040128,2465,844,-1356,2010,-96,-54,230,290,32
1,3040138,2461,844,-1353,2010,-89,-54,227,277,29
1,3040146,2461,844,-1353,2010,-89,-54,227,277,29
1,3040154,2461,854,-1360,1996,-86,-56,227,277,29
1,3040162,2461,854,-1360,1996,-86,-56,227,277,29
1,3040172,2461,854,-1360,1996,-86,-56,227,277,29
1,3040181,2465,852,-1359,1994,-89,-59,227,277,29
1,3040189,2465,852,-1359,1994,-89,-59,227,277,29
1,3040198,2463,847,-1360,1994,-86,-59,227,277,29
1,3040206,2463,847,-1360,1994,-86,-59,227,277,29
1,3040216,2458,843,-1359,2000,-94,-60,227,277,29
1,3040224,2458,843,-1359,2000,-94,-60,227,277,29
1,3040231,2458,843,-1359,2000,-94,-60,227,277,29
1,3040240,2457,853,-1359,2004,-89,-59,227,277,29
1,3040248,2457,853,-1359,2004,-89,-59,227,277,29
1,3040258,2460,849,-1352,2001,-90,-53,228,276,32
1,3040265,2460,849,-1352,2001,-90,-53,228,276,32
1,3040272,2463,842,-1355,1994,-85,-52,228,276,32
1,3040279,2463,842,-1355,1994,-85,-52,228,276,32
1,3040288,2463,842,-1355,1994,-85,-52,228,276,32
1,3040296,2463,838,-1360,1990,-90,-52,228,276,32
1,3040312,2463,838,-1360,1990,-90,-52,228,276,32
1,3040325,2462,852,-1357,1990,-90,-57,228,276,32
1,3040337,2464,820,-1356,1992,-89,-50,228,276,32
1,3040351,2464,820,-1356,1992,-89,-50,228,276,32
1,3040365,2462,850,-1353,1992,-92,-57,228,276,32
1,3040378,2464,831,-1354,2000,-89,-55,228,282,24
1,3040393,2461,842,-1360,1996,-89,-54,228,282,24
1,3040407,2461,842,-1360,1996,-89,-54,228,282,24
1,3040419,2462,830,-1361,1996,-95,-55,228,282,24
1,3040433,2462,840,-1354,1994,-91,-59,228,282,24
1,3040447,2462,840,-1354,1994,-91,-59,228,282,24
1,3040460,2460,826,-1356,1994,-90,-50,228,282,24
1,3040475,2463,834,-1357,1992,-87,-57,228,282,24
1,3040490,2463,834,-1357,1992,-87,-57,228,282,24
1,3040504,2465,824,-1356,2000,-91,-61,225,277,19
1,3040518,2465,831,-1356,2000,-91,-63,225,277,19
1,3040532,2463,820,-1354,1989,-89,-50,225,277,19
1,3040547,2463,820,-1354,1989,-89,-50,225,277,19
1,3040562,2459,823,-1357,2000,-88,-48,225,277,19
1,3040574,2465,817,-1357,2000,-84,-50,225,277,19
1,3040587,2465,817,-1357,2000,-84,-50,225,277,19
1,3040601,2465,819,-1358,2000,-89,-56,225,277,19
1,3040615,2461,816,-1360,2001,-89,-61,223,281,19
1,3040628,2461,816,-1360,2001,-89,-61,223,281,19
1,3040643,2461,822,-1354,2003,-88,-56,223,281,19
1,3040655,2461,822,-1354,2003,-88,-56,223,281,19
1,3040668,2461,822,-1354,2003,-88,-56,223,281,19
1,3040681,2465,811,-1354,2000,-86,-57,223,281,19
1,3040694,2464,803,-1361,2008,-86,-55,223,281,19
1,3040709,2464,803,-1361,2008,-86,-55,223,281,19
1,3040723,2469,804,-1364,2004,-86,-55,223,281,19
1,3040737,2466,809,-1361,2001,-89,-62,223,281,19
1,3040751,2466,809,-1361,2001,-89,-62,223,281,19
1,3040766,2463,802,-1356,2002,-84,-58,223,277,13
1,3040780,2466,801,-1365,1999,-86,-59,223,277,13
1,3040791,2466,801,-1365,1999,-86,-59,223,277,13
1,3040806,2466,801,-1365,1999,-86,-59,223,277,13
1,3040822,2460,828,-1365,2008,-90,-54,223,277,13
1,3040835,2463,821,-1361,2006,-90,-55,223,277,13
1,3040849,2463,821,-1361,2006,-90,-55,223,277,13
1,3040863,2464,833,-1364,2004,-87,-61,223,277,13
1,3040875,2466,827,-1362,2009,-90,-52,220,278,26
1,3040889,2466,827,-1362,2009,-90,-52,220,278,26
1,3040903,2465,825,-1365,2009,-93,-58,220,278,26
1,3040916,2465,827,-1363,2013,-82,-62,220,278,26
1,3040930,2465,827,-1363,2013,-82,-62,220,278,26
1,3040945,2462,834,-1362,2015,-86,-54,220,278,26
1,3040960,2462,834,-1362,2015,-86,-54,220,278,26
1,3040975,2460,826,-1363,2014,-84,-45,220,278,26
1,3040988,2460,826,-1363,2014,-84,-45,220,278,26
1,3040996,2465,830,-1356,2013,-86,-53,223,275,17
1,3041010,2465,830,-1356,2013,-86,-53,223,275,17
1,3041025,2464,835,-1359,2013,-85,-47,223,275,17
1,3041040,2465,833,-1361,2012,-83,-50,223,275,17
1,3041054,2459,838,-1362,2010,-86,-49,223,275,17
1,3041068,2459,838,-1362,2010,-86,-49,223,275,17
1,3041082,2465,846,-1367,2011,-85,-51,223,275,17
1,3041094,2462,852,-1362,2011,-92,-57,223,275,17
1,3041110,2462,852,-1362,2011,-92,-57,223,275,17
1,3041121,2460,838,-1367,2011,-90,-59,222,274,6
1,3041135,2465,843,-1356,2009,-84,-54,222,274,6
1,3041147,2465,843,-1356,2009,-84,-54,222,274,6
1,3041162,2463,848,-1365,2006,-80,-58,222,274,6
1,3041177,2462,847,-1360,2004,-80,-61,222,274,6
1,3041191,2462,847,-1360,2004,-80,-61,222,274,6
1,3041207,2460,849,-1363,2009,-90,-57,222,274,6
1,3041220,2462,852,-1363,2014,-83,-53,222,274,6
1,3041234,2461,864,-1364,2010,-91,-54,222,274,6
1,3041250,2461,864,-1364,2010,-91,-54,222,274,6
1,3041263,2460,880,-1355,2006,-86,-55,220,262,-6
1,3041275,2459,877,-1362,2006,-90,-59,220,262,-6
1,3041289,2459,877,-1362,2006,-90,-59,220,262,-6
1,3041302,2462,872,-1359,2003,-91,-58,220,262,-6
1,3041312,2465,869,-1361,2000,-88,-57,220,262,-6
1,3041321,2465,869,-1361,2000,-88,-57,220,262,-6
1,3041330,2465,869,-1361,2000,-88,-57,220,262,-6
1,3041339,2458,865,-1359,2004,-84,-50,220,262,-6
1,3041347,2458,865,-1359,2004,-84,-50,220,262,-6
1,3041356,2462,856,-1351,1997,-91,-52,220,262,-6
1,3041364,2462,856,-1351,1997,-91,-52,220,262,-6
1,3041374,2461,849,-1357,1993,-86,-59,222,264,8
1,3041383,2461,849,-1357,1993,-86,-59,222,264,8
1,3041392,2461,849,-1357,1993,-86,-59,222,264,8
1,3041400,2461,848,-1356,1991,-96,-61,222,264,8
1,3041409,2461,848,-1356,1991,-96,-61,222,264,8
1,3041419,2458,856,-1352,1992,-90,-56,222,264,8
1,3041427,2458,856,-1352,1992,-90,-56,222,264,8
1,3041436,2467,807,-1362,1989,-94,-51,222,264,8
1,3041443,2467,807,-1362,1989,-94,-51,222,264,8
1,3041453,2467,807,-1362,1989,-94,-51,222,264,8
1,3041461,2465,851,-1357,1998,-91,-56,222,264,8
1,3041470,2465,851,-1357,1998,-91,-56,222,264,8
1,3041478,2464,832,-1357,1998,-91,-54,222,264,8
1,3041486,2464,832,-1357,1998,-91,-54,222,264,8
1,3041496,2458,853,-1359,1997,-89,-52,225,265,-7
1,3041504,2458,853,-1359,1997,-89,-52,225,265,-7
1,3041512,2458,853,-1359,1997,-89,-52,225,265,-7
1,3041520,2463,829,-1354,1999,-82,-57,225,265,-7
1,3041528,2463,829,-1354,1999,-82,-57,225,265,-7
1,3041536,2463,842,-1349,2002,-89,-60,225,265,-7
1,3041544,2463,842,-1349,2002,-89,-60,225,265,-7
1,3041553,2463,842,-1349,2002,-89,-60,225,265,-7
1,3041560,2465,825,-1353,1996,-90,-44,225,265,-7
1,3041568,2465,825,-1353,1996,-90,-44,225,265,-7
1,3041576,2459,818,-1360,1998,-89,-51,225,265,-7
1,3041586,2459,818,-1360,1998,-89,-51,225,265,-7
1,3041594,2464,821,-1360,1991,-82,-61,225,265,-7
1,3041602,2464,821,-1360,1991,-82,-61,225,265,-7
1,3041609,2464,821,-1360,1991,-82,-61,225,265,-7
1,3041618,2465,795,-1353,1992,-87,-53,222,272,-16
1,3041628,2465,795,-1353,1992,-87,-53,222,272,-16
1,3041637,2466,806,-1358,1995,-91,-56,222,272,-16
1,3041644,2466,806,-1358,1995,-91,-56,222,272,-16
1,3041652,2462,799,-1364,1997,-90,-53,222,272,-16
1,3041660,2462,799,-1364,1997,-90,-53,222,272,-16
1,3041670,2462,799,-1364,1997,-90,-53,222,272,-16
1,3041679,2465,817,-1360,2008,-88,-59,222,272,-16
1,3041687,2465,817,-1360,2008,-88,-59,222,272,-16
1,3041696,2467,798,-1359,2001,-88,-56,222,272,-16
1,3041705,2467,798,-1359,2001,-88,-56,222,272,-16
1,3041714,2464,807,-1360,1997,-85,-58,222,272,-16
1,3041722,2464,807,-1360,1997,-85,-58,222,272,-16
1,3041731,2464,807,-1360,1997,-85,-58,222,272,-16
1,3041739,2465,808,-1358,1996,-92,-54,222,272,-16
1,3041748,2465,808,-1358,1996,-92,-54,222,272,-16
1,3041757,2463,825,-1358,1998,-95,-57,230,264,-12
1,3041766,2463,825,-1358,1998,-95,-57,230,264,-12
1,3041774,2466,816,-1357,2004,-93,-49,230,264,-12
1,3041782,2466,816,-1357,2004,-93,-49,230,264,-12
1,3041790,2466,816,-1357,2004,-93,-49,230,264,-12
1,3041799,2464,816,-1359,2010,-86,-53,230,264,-12
1,3041807,2464,816,-1359,2010,-86,-53,230,264,-12
1,3041816,2462,823,-1363,2003,-92,-54,230,264,-12
1,3041824,2462,823,-1363,2003,-92,-54,230,264,-12
1,3041833,2463,838,-1360,2007,-87,-48,230,264,-12
1,3041843,2463,838,-1360,2007,-87,-48,230,264,-12
1,3041851,2463,838,-1360,2007,-87,-48,230,264,-12
1,3041861,2462,832,-1366,2013,-86,-52,230,264,-12
1,3041869,2462,832,-1366,2013,-86,-52,230,264,-12
1,3041878,2463,827,-1357,2014,-85,-59,224,246,-16
1,3041887,2463,827,-1357,2014,-85,-59,224,246,-16
1,3041895,2462,825,-1362,2010,-93,-58,224,246,-16
1,3041904,2462,825,-1362,2010,-93,-58,224,246,-16
1,3041912,2459,844,-1364,2004,-94,-64,224,246,-16
1,3041922,2459,844,-1364,2004,-94,-64,224,246,-16
1,3041931,2459,844,-1364,2004,-94,-64,224,246,-16
1,3041939,2456,867,-1364,2014,-95,-57,224,246,-16
1,3041948,2456,867,-1364,2014,-95,-57,224,246,-16
1,3041955,2460,831,-1364,2017,-88,-56,224,246,-16
1,3041964,2460,831,-1364,2017,-88,-56,224,246,-16
1,3041973,2460,831,-1364,2017,-88,-56,224,246,-16
1,3041981,2465,829,-1359,2006,-86,-64,224,246,-16
1,3041990,2465,829,-1359,2006,-86,-64,224,246,-16
1,3041998,2464,852,-1359,2002,-87,-55,222,262,-20
1,3042007,2464,852,-1359,2002,-87,-55,222,262,-20
1,3042015,2459,848,-1360,2011,-86,-46,222,262,-20
1,3042024,2459,848,-1360,2011,-86,-46,222,262,-20
1,3042032,2459,848,-1360,2011,-86,-46,222,262,-20
1,3042041,2461,847,-1360,2009,-84,-59,222,262,-20
1,3042051,2461,847,-1360,2009,-84,-59,222,262,-20
1,3042059,2463,829,-1355,2004,-86,-59,222,262,-20
1,3042067,2463,829,-1355,2004,-86,-59,222,262,-20
1,3042075,2460,850,-1361,2002,-90,-46,222,262,-20
1,3042084,2460,850,-1361,2002,-90,-46,222,262,-20
1,3042092,2460,850,-1361,2002,-90,-46,222,262,-20
1,3042100,2459,842,-1360,2001,-88,-45,222,262,-20
1,3042108,2459,842,-1360,2001,-88,-45,222,262,-20
1,3042117,2458,854,-1358,1997,-88,-51,227,253,-27
1,3042125,2458,854,-1358,1997,-88,-51,227,253,-27
1,3042136,2465,836,-1357,2002,-84,-53,227,253,-27
1,3042144,2465,836,-1357,2002,-84,-53,227,253,-27
1,3042152,2465,836,-1357,2002,-84,-53,227,253,-27
1,3042162,2465,845,-1360,2008,-88,-57,227,253,-27
1,3042170,2465,845,-1360,2008,-88,-57,227,253,-27
1,3042180,2462,843,-1364,2003,-87,-49,227,253,-27
1,3042188,2462,843,-1364,2003,-87,-49,227,253,-27
1,3042196,2463,859,-1362,1997,-84,-54,227,253,-27
1,3042205,2463,859,-1362,1997,-84,-54,227,253,-27
1,3042213,2465,846,-1360,1998,-89,-48,227,253,-27
1,3042223,2465,846,-1360,1998,-89,-48,227,253,-27
1,3042231,2465,846,-1360,1998,-89,-48,227,253,-27
1,3042239,2463,839,-1355,2002,-84,-47,227,253,-27
1,3042247,2463,839,-1355,2002,-84,-47,227,253,-27
1,3042255,2463,840,-1353,2009,-93,-51,224,258,-28
1,3042264,2463,840,-1353,2009,-93,-51,224,258,-28
1,3042273,2463,840,-1353,2009,-93,-51,224,258,-28
1,3042282,2461,852,-1355,2008,-89,-53,224,258,-28
1,3042290,2461,852,-1355,2008,-89,-53,224,258,-28
1,3042298,2464,832,-1359,2001,-89,-62,224,258,-28
1,3042308,2464,832,-1359,2001,-89,-62,224,258,-28
1,3042316,2464,833,-1354,1998,-92,-57,224,258,-28
1,3042329,2464,833,-1354,1998,-92,-57,224,258,-28
1,3042343,2456,835,-1357,2003,-91,-52,224,258,-28
1,3042358,2461,851,-1362,1998,-87,-58,224,258,-28
1,3042373,2461,851,-1362,1998,-87,-58,224,258,-28
1,3042385,2464,833,-1355,2002,-87,-58,225,257,-29
1,3042399,2467,833,-1353,1994,-87,-51,225,257,-29
1,3042413,2462,826,-1360,1993,-88,-45,225,257,-29
1,3042426,2462,826,-1360,1993,-88,-45,225,257,-29
1,3042441,2460,847,-1358,1998,-91,-48,225,257,-29
1,3042449,2460,847,-1358,1998,-91,-48,225,257,-29
1,3042461,2462,824,-1356,2000,-85,-55,225,257,-29
1,3042475,2466,825,-1358,1999,-88,-51,225,257,-29
1,3042489,2466,825,-1358,1999,-88,-51,225,257,-29
1,3042502,2462,821,-1354,2000,-89,-53,232,252,-36
1,3042513,2463,830,-1351,1990,-85,-50,232,252,-36
1,3042527,2463,830,-1351,1990,-85,-50,232,252,-36
1,3042543,2464,822,-1357,1995,-87,-51,232,252,-36
1,3042556,2465,820,-1355,2002,-86,-52,232,252,-36
1,3042570,2465,820,-1355,2002,-86,-52,232,252,-36
1,3042585,2465,818,-1359,2003,-87,-59,232,252,-36
1,3042600,2463,831,-1359,1996,-95,-52,232,252,-36
1,3042615,2463,832,-1355,1999,-92,-49,241,255,-43
1,3042628,2463,832,-1355,1999,-92,-49,241,255,-43
1,3042642,2464,823,-1358,1998,-88,-54,241,255,-43
1,3042657,2466,818,-1360,1995,-84,-60,241,255,-43
1,3042668,2466,818,-1360,1995,-84,-60,241,255,-43
1,3042682,2464,826,-1358,1992,-85,-55,241,255,-43
1,3042696,2464,826,-1358,1992,-85,-55,241,255,-43
1,3042709,2464,826,-1358,1992,-85,-55,241,255,-43
1,3042723,2466,817,-1358,2008,-84,-54,241,255,-43
1,3042737,2465,810,-1364,2004,-87,-57,238,250,-42
1,3042748,2465,810,-1364,2004,-87,-57,238,250,-42
1,3042761,2466,812,-1361,1999,-93,-59,238,250,-42
1,3042776,2465,816,-1358,2000,-82,-59,238,250,-42
1,3042789,2465,816,-1358,2000,-82,-59,238,250,-42
1,3042804,2465,814,-1362,2000,-89,-55,238,250,-42
1,3042819,2464,820,-1361,1999,-92,-58,238,250,-42
1,3042829,2464,820,-1361,1999,-92,-58,238,250,-42
1,3042843,2463,816,-1361,2008,-82,-52,238,250,-42
1,3042859,2463,830,-1364,2007,-84,-56,238,250,-42
1,3042871,2463,830,-1364,2007,-84,-56,238,250,-42
1,3042885,2461,832,-1357,2007,-87,-57,248,252,-52
1,3042902,2463,826,-1360,2003,-84,-53,248,252,-52
1,3042917,2462,819,-1361,2008,-86,-65,248,252,-52
1,3042930,2462,819,-1361,2008,-86,-65,248,252,-52
1,3042944,2465,836,-1367,2011,-89,-61,248,252,-52
1,3042958,2459,836,-1361,2003,-84,-52,248,252,-52
1,3042967,2459,836,-1361,2003,-84,-52,248,252,-52
1,3042980,2460,834,-1364,2009,-83,-54,248,252,-52
1,3042994,2462,831,-1359,2007,-86,-57,248,246,-52
1,3043008,2462,831,-1359,2007,-86,-57,248,246,-52
1,3043022,2463,836,-1361,2008,-83,-55,248,246,-52
1,3043035,2463,834,-1359,2012,-87,-47,248,246,-52
1,3043047,2463,834,-1359,2012,-87,-47,248,246,-52
1,3043061,2464,838,-1363,2010,-87,-56,248,246,-52
1,3043075,2463,835,-1358,2006,-82,-64,248,246,-52
1,3043090,2463,835,-1358,2006,-82,-64,248,246,-52
1,3043104,2460,844,-1367,2010,-87,-55,248,246,-52
1,3043120,2458,849,-1358,2008,-83,-59,255,243,-59
1,3043135,2461,844,-1360,2008,-87,-51,255,243,-59
1,3043149,2461,844,-1360,2008,-87,-51,255,243,-59
1,3043164,2466,839,-1363,2003,-83,-62,255,243,-59
1,3043177,2461,849,-1365,2004,-83,-56,255,243,-59
1,3043190,2461,849,-1365,2004,-83,-56,255,243,-59
1,3043201,2462,848,-1362,2011,-83,-48,255,243,-59
1,3043215,2459,854,-1360,2008,-89,-51,255,243,-59
1,3043228,2459,854,-1360,2008,-89,-51,255,243,-59
1,3043244,2466,851,-1357,2015,-87,-46,250,250,-68
1,3043257,2461,858,-1355,2011,-88,-45,250,250,-68
1,3043271,2461,858,-1355,2011,-88,-45,250,250,-68
1,3043282,2460,854,-1360,2003,-84,-58,250,250,-68
1,3043296,2459,877,-1359,2002,-83,-57,250,250,-68
1,3043309,2459,877,-1359,2002,-83,-57,250,250,-68
1,3043323,2461,868,-1357,2001,-82,-61,250,250,-68
1,3043331,2461,868,-1357,2001,-82,-61,250,250,-68
1,3043339,2461,861,-1353,2004,-85,-57,250,250,-68
1,3043348,2461,861,-1353,2004,-85,-57,250,250,-68
1,3043356,2462,850,-1361,1999,-85,-53,250,250,-68
1,3043364,2462,850,-1361,1999,-85,-53,250,250,-68
1,3043375,2461,860,-1353,1996,-89,-59,251,235,-65
1,3043382,2461,860,-1353,1996,-89,-59,251,235,-65
1,3043391,2461,860,-1353,1996,-89,-59,251,235,-65
1,3043397,2458,856,-1354,1986,-88,-52,251,235,-65
1,3043406,2458,856,-1354,1986,-88,-52,251,235,-65
1,3043415,2463,845,-1356,1991,-81,-51,251,235,-65
1,3043423,2463,845,-1356,1991,-81,-51,251,235,-65
1,3043430,2463,845,-1356,1991,-81,-51,251,235,-65
1,3043438,2466,800,-1358,1993,-87,-58,251,235,-65
1,3043447,2466,800,-1358,1993,-87,-58,251,235,-65
1,3043456,2463,856,-1359,2005,-81,-56,251,235,-65
1,3043463,2463,856,-1359,2005,-81,-56,251,235,-65
1,3043471,2463,856,-1359,2005,-81,-56,251,235,-65
1,3043479,2461,841,-1358,1993,-85,-50,251,235,-65
1,3043488,2461,841,-1358,1993,-85,-50,251,235,-65
1,3043496,2460,837,-1348,1997,-82,-51,250,240,-70
1,3043506,2460,837,-1348,1997,-82,-51,250,240,-70
1,3043515,2467,829,-1356,1991,-93,-65,250,240,-70
1,3043522,2467,829,-1356,1991,-93,-65,250,240,-70
1,3043531,2467,829,-1356,1991,-93,-65,250,240,-70
1,3043538,2464,838,-1355,1990,-90,-43,250,240,-70
1,3043548,2464,838,-1355,1990,-90,-43,250,240,-70
1,3043556,2463,838,-1362,1994,-91,-45,250,240,-70
1,3043565,2463,838,-1362,1994,-91,-45,250,240,-70
1,3043572,2463,838,-1362,1994,-91,-45,250,240,-70
1,3043579,2459,823,-1353,1998,-89,-54,250,240,-70
1,3043588,2459,823,-1353,1998,-89,-54,250,240,-70
1,3043596,2467,821,-1355,1989,-86,-61,250,240,-70
1,3043604,2467,821,-1355,1989,-86,-61,250,240,-70
1,3043613,2467,821,-1355,1989,-86,-61,250,240,-70
1,3043622,2465,780,-1350,1991,-83,-57,260,232,-68
1,3043632,2465,780,-1350,1991,-83,-57,260,232,-68
1,3043642,2466,803,-1358,1987,-87,-50,260,232,-68
1,3043650,2466,803,-1358,1987,-87,-50,260,232,-68
1,3043657,2462,784,-1366,1995,-81,-45,260,232,-68
1,3043665,2462,784,-1366,1995,-81,-45,260,232,-68
1,3043674,2465,808,-1359,1995,-84,-58,260,232,-68
1,3043682,2465,808,-1359,1995,-84,-58,260,232,-68
1,3043689,2465,808,-1359,1995,-84,-58,260,232,-68
1,3043698,2469,787,-1356,1996,-82,-56,260,232,-68
1,3043705,2469,787,-1356,1996,-82,-56,260,232,-68
1,3043714,2462,813,-1363,1995,-86,-51,260,232,-68
1,3043722,2462,813,-1363,1995,-86,-51,260,232,-68
1,3043731,2462,813,-1363,1995,-86,-51,260,232,-68
1,3043739,2465,804,-1365,1994,-91,-53,255,231,-69
1,3043748,2465,804,-1365,1994,-91,-53,255,231,-69
1,3043757,2465,832,-1358,1999,-85,-57,255,231,-69
1,3043767,2465,832,-1358,1999,-85,-57,255,231,-69
1,3043773,2468,817,-1366,2011,-90,-57,255,231,-69
1,3043782,2468,817,-1366,2011,-90,-57,255,231,-69
1,3043790,2468,817,-1366,2011,-90,-57,255,231,-69
1,3043800,2463,828,-1359,2008,-87,-54,255,231,-69
1,3043806,2463,828,-1359,2008,-87,-54,255,231,-69
1,3043814,2460,824,-1369,2013,-91,-51,255,231,-69
1,3043823,2460,824,-1369,2013,-91,-51,255,231,-69
1,3043831,2460,824,-1369,2013,-91,-51,255,231,-69
1,3043841,2465,830,-1364,2009,-94,-59,255,231,-69
1,3043849,2465,830,-1364,2009,-94,-59,255,231,-69
1,3043857,2465,822,-1362,2017,-91,-56,255,231,-69
1,3043865,2465,822,-1362,2017,-91,-56,255,231,-69
1,3043874,2465,832,-1360,2013,-93,-51,267,229,-67
1,3043881,2465,832,-1360,2013,-93,-51,267,229,-67
1,3043891,2465,832,-1360,2013,-93,-51,267,229,-67
1,3043899,2464,828,-1361,2013,-92,-53,267,229,-67
1,3043907,2464,828,-1361,2013,-92,-53,267,229,-67
1,3043916,2461,876,-1360,2009,-87,-60,267,229,-67
1,3043924,2461,876,-1360,2009,-87,-60,267,229,-67
1,3043933,2461,876,-1360,2009,-87,-60,267,229,-67
1,3043941,2461,829,-1357,2006,-89,-54,267,229,-67
1,3043948,2461,829,-1357,2006,-89,-54,267,229,-67
1,3043957,2464,848,-1360,2012,-88,-60,267,229,-67
1,3043965,2464,848,-1360,2012,-88,-60,267,229,-67
1,3043974,2464,848,-1360,2012,-88,-60,267,229,-67
1,3043982,2464,848,-1360,2012,-88,-60,267,229,-67
1,3043990,2464,848,-1360,2012,-88,-60,267,229,-67
1,3043999,2460,864,-1358,2006,-80,-49,272,224,-72
1,3044006,2460,864,-1358,2006,-80,-49,272,224,-72
1,3044015,2463,839,-1359,2012,-82,-59,272,224,-72
1,3044024,2463,839,-1359,2012,-82,-59,272,224,-72
1,3044033,2463,839,-1359,2012,-82,-59,272,224,-72
1,3044040,2463,846,-1358,2012,-87,-63,272,224,-72
1,3044049,2463,846,-1358,2012,-87,-63,272,224,-72
1,3044058,2466,844,-1361,2009,-92,-57,272,224,-72
1,3044065,2466,844,-1361,2009,-92,-57,272,224,-72
1,3044074,2460,856,-1365,2000,-81,-43,272,224,-72
1,3044082,2460,856,-1365,2000,-81,-43,272,224,-72
1,3044090,2460,856,-1365,2000,-81,-43,272,224,-72
1,3044098,2464,851,-1361,2007,-82,-53,272,224,-72
1,3044107,2464,851,-1361,2007,-82,-53,272,224,-72
1,3044114,2460,848,-1357,2004,-84,-57,270,230,-82
1,3044123,2460,848,-1357,2004,-84,-57,270,230,-82
1,3044131,2460,848,-1357,2004,-84,-57,270,230,-82
1,3044141,2465,844,-1359,2005,-86,-54,270,230,-82
1,3044149,2465,844,-1359,2005,-86,-54,270,230,-82
1,3044158,2458,846,-1363,1999,-87,-46,270,230,-82
1,3044167,2458,846,-1363,1999,-87,-46,270,230,-82
1,3044175,2460,857,-1365,1993,-88,-53,270,230,-82
1,3044185,2460,857,-1365,1993,-88,-53,270,230,-82
1,3044193,2460,857,-1365,1993,-88,-53,270,230,-82
1,3044200,2463,846,-1357,2000,-82,-54,270,230,-82
1,3044209,2463,846,-1357,2000,-82,-54,270,230,-82
1,3044217,2464,846,-1356,1995,-83,-51,270,230,-82
1,3044225,2464,846,-1356,1995,-83,-51,270,230,-82
1,3044234,2464,841,-1355,1997,-88,-52,270,230,-82
1,3044243,2464,841,-1355,1997,-88,-52,274,220,-76
1,3044252,2464,841,-1355,1997,-88,-52,274,220,-76
1,3044260,2458,854,-1359,1998,-90,-58,274,220,-76
1,3044269,2458,854,-1359,1998,-90,-58,274,220,-76
1,3044276,2460,849,-1360,1999,-91,-51,274,220,-76
1,3044284,2460,849,-1360,1999,-91,-51,274,220,-76
1,3044292,2460,849,-1360,1999,-91,-51,274,220,-76
1,3044300,2461,843,-1357,2000,-91,-57,274,220,-76
1,3044308,2461,843,-1357,2000,-91,-57,274,220,-76
1,3044317,2463,843,-1355,2004,-92,-53,274,220,-76
1,3044325,2463,843,-1355,2004,-92,-53,274,220,-76
1,3044338,2462,840,-1359,1999,-88,-51,274,220,-76
1,3044352,2462,840,-1359,1999,-88,-51,274,220,-76
1,3044366,2467,836,-1356,1995,-89,-61,274,220,-76
1,3044376,2461,838,-1358,1997,-86,-51,280,228,-86
1,3044391,2461,838,-1358,1997,-86,-51,280,228,-86
1,3044405,2462,840,-1352,1994,-85,-52,280,228,-86
1,3044419,2461,829,-1354,1998,-81,-56,280,228,-86
1,3044432,2461,829,-1354,1998,-81,-56,280,228,-86
1,3044447,2462,840,-1356,1998,-86,-56,280,228,-86
1,3044461,2462,840,-1356,1998,-86,-56,280,228,-86
1,3044472,2462,840,-1356,1998,-86,-56,280,228,-86
1,3044484,2466,829,-1358,2000,-90,-49,280,228,-86
1,3044497,2463,824,-1358,1991,-85,-54,274,218,-84
1,3044512,2463,824,-1358,1991,-85,-54,274,218,-84
1,3044528,2462,831,-1356,1992,-88,-57,274,218,-84
1,3044543,2464,818,-1356,2002,-91,-53,274,218,-84
1,3044556,2465,812,-1357,2004,-89,-47,274,218,-84
1,3044570,2465,812,-1357,2004,-89,-47,274,218,-84
1,3044583,2465,812,-1362,1997,-84,-52,274,218,-84
1,3044595,2465,822,-1353,1998,-88,-51,274,218,-84
1,3044609,2465,822,-1353,1998,-88,-51,274,218,-84
1,3044622,2461,819,-1357,2001,-87,-45,291,221,-91
1,3044636,2464,816,-1358,1999,-86,-55,291,221,-91
1,3044649,2464,816,-1358,1999,-86,-55,291,221,-91
1,3044663,2464,819,-1360,1995,-89,-56,291,221,-91
1,3044674,2462,826,-1357,2002,-89,-53,291,221,-91
1,3044688,2462,826,-1357,2002,-89,-53,291,221,-91
1,3044702,2463,811,-1362,1995,-90,-55,291,221,-91
1,3044716,2467,804,-1364,2000,-87,-53,291,221,-91
1,3044730,2467,804,-1364,2000,-87,-53,291,221,-91
1,3044746,2467,807,-1360,2001,-90,-61,283,219,-83
1,3044761,2464,806,-1359,2006,-90,-52,283,219,-83
1,3044775,2465,804,-1367,2012,-90,-48,283,219,-83
1,3044789,2465,804,-1367,2012,-90,-48,283,219,-83
1,3044803,2466,811,-1367,2011,-89,-54,283,219,-83
1,3044818,2467,815,-1357,2015,-83,-55,283,219,-83
1,3044830,2467,815,-1357,2015,-83,-55,283,219,-83
1,3044843,2462,815,-1367,2005,-86,-65,283,219,-83
1,3044856,2463,824,-1364,2010,-84,-62,290,226,-84
1,3044870,2463,824,-1364,2010,-84,-62,290,226,-84
1,3044884,2462,836,-1360,2014,-86,-59,290,226,-84
1,3044896,2462,833,-1359,2010,-87,-47,290,226,-84
1,3044905,2462,833,-1359,2010,-87,-47,290,226,-84
1,3044921,2462,823,-1361,2016,-87,-51,290,226,-84
1,3044934,2466,827,-1360,2011,-81,-51,290,226,-84
1,3044948,2466,827,-1360,2011,-81,-51,290,226,-84
1,3044961,2464,832,-1366,2014,-86,-58,290,226,-84
1,3044974,2464,832,-1366,2014,-86,-58,290,226,-84
1,3044988,2465,826,-1365,2005,-83,-50,290,226,-84
1,3045005,2466,821,-1361,2009,-86,-52,291,219,-81
1,3045020,2462,835,-1363,2011,-76,-61,291,219,-81
1,3045031,2462,835,-1363,2011,-76,-61,291,219,-81
1,3045046,2463,833,-1369,2006,-90,-54,291,219,-81
1,3045060,2461,835,-1364,2011,-90,-47,291,219,-81
1,3045073,2464,835,-1359,2014,-88,-54,291,219,-81
1,3045088,2464,835,-1359,2014,-88,-54,291,219,-81
1,3045100,2462,851,-1361,2004,-84,-52,291,219,-81
1,3045112,2462,851,-1361,2004,-84,-52,291,219,-81
1,3045126,2463,849,-1359,2006,-83,-53,292,216,-90
1,3045139,2461,842,-1361,2008,-86,-57,292,216,-90
1,3045152,2461,842,-1361,2008,-86,-57,292,216,-90
1,3045167,2464,837,-1360,2011,-82,-54,292,216,-90
1,3045178,2464,837,-1360,2011,-82,-54,292,216,-90
1,3045191,2464,837,-1360,2011,-82,-54,292,216,-90
1,3045204,2460,846,-1360,2006,-84,-51,292,216,-90
1,3045218,2460,853,-1367,2007,-86,-58,292,216,-90
1,3045231,2460,853,-1367,2007,-86,-58,292,216,-90
1,3045245,2463,858,-1360,2016,-92,-56,285,211,-87
1,3045259,2462,866,-1358,2006,-89,-57,285,211,-87
1,3045272,2462,866,-1358,2006,-89,-57,285,211,-87
1,3045286,2458,871,-1362,2006,-83,-51,285,211,-87
1,3045299,2460,884,-1359,2009,-85,-52,285,211,-87
1,3045314,2464,867,-1359,2007,-89,-60,285,211,-87
1,3045329,2464,867,-1359,2007,-89,-60,285,211,-87
1,3045343,2460,864,-1358,2002,-87,-49,285,211,-87
1,3045356,2461,861,-1358,1995,-92,-52,302,216,-92
1,3045369,2461,861,-1358,1995,-92,-52,302,216,-92
1,3045384,2461,859,-1350,1996,-96,-53,302,216,-92
1,3045398,2463,851,-1355,1991,-90,-60,302,216,-92
1,3045409,2463,851,-1355,1991,-90,-60,302,216,-92
1,3045423,2462,844,-1363,1995,-86,-62,302,216,-92
1,3045437,2461,836,-1360,1993,-86,-56,302,216,-92
1,3045451,2461,836,-1360,1993,-86,-56,302,216,-92
1,3045463,2464,822,-1361,1993,-83,-56,302,216,-92
1,3045477,2460,849,-1354,1997,-86,-48,302,216,-92
1,3045491,2460,849,-1354,1997,-86,-48,302,216,-92
1,3045506,2462,847,-1351,2001,-89,-45,301,217,-87
1,3045519,2461,821,-1356,1996,-91,-52,301,217,-87
1,3045532,2461,821,-1356,1996,-91,-52,301,217,-87
1,3045540,2466,837,-1360,1992,-83,-60,301,217,-87
1,3045552,2466,837,-1360,1992,-83,-60,301,217,-87
1,3045565,2464,830,-1353,1995,-88,-52,301,217,-87
1,3045578,2462,831,-1356,1995,-88,-52,301,217,-87
1,3045594,2462,831,-1356,1995,-88,-52,301,217,-87
1,3045607,2459,811,-1365,1987,-86,-63,301,217,-87
1,3045620,2460,817,-1356,1990,-90,-64,307,221,-87
1,3045635,2466,786,-1361,2000,-92,-61,307,221,-87
1,3045646,2466,786,-1361,2000,-92,-61,307,221,-87
1,3045660,2462,806,-1360,1993,-92,-54,307,221,-87
1,3045673,2462,806,-1360,1993,-92,-54,307,221,-87
1,3045687,2464,798,-1365,1998,-91,-55,307,221,-87
1,3045702,2461,806,-1356,1998,-87,-60,307,221,-87
1,3045718,2464,794,-1367,2002,-83,-62,307,221,-87
1,3045732,2464,794,-1367,2002,-83,-62,307,221,-87
1,3045745,2463,809,-1361,2001,-90,-56,311,225,-83
1,3045761,2464,814,-1369,2005,-88,-55,311,225,-83
1,3045775,2460,823,-1362,2000,-90,-61,311,225,-83
1,3045789,2460,823,-1362,2000,-90,-61,311,225,-83
1,3045801,2462,820,-1362,2003,-89,-58,311,225,-83
1,3045816,2465,818,-1371,2003,-88,-65,311,225,-83
1,3045829,2465,818,-1371,2003,-88,-65,311,225,-83
1,3045842,2459,823,-1365,2010,-89,-63,311,225,-83
1,3045856,2463,830,-1366,2010,-81,-57,305,225,-85
1,3045870,2463,830,-1366,2010,-81,-57,305,225,-85
1,3045882,2461,826,-1359,2010,-79,-50,305,225,-85
1,3045896,2462,825,-1363,2018,-81,-52,305,225,-85
1,3045909,2462,825,-1363,2018,-81,-52,305,225,-85
1,3045923,2463,833,-1364,2011,-82,-56,305,225,-85
1,3045939,2461,859,-1365,2009,-88,-52,305,225,-85
1,3045954,2461,859,-1365,2009,-88,-52,305,225,-85
1,3045969,2459,843,-1364,2006,-89,-62,305,225,-85
1,3045983,2462,839,-1365,2002,-88,-55,305,225,-85
1,3045992,2462,839,-1365,2002,-88,-55,305,225,-85
1,3046004,2464,826,-1355,2013,-80,-59,305,225,-81
1,3046020,2463,862,-1362,2007,-91,-54,305,225,-81
1,3046035,2462,842,-1364,2005,-88,-60,305,225,-81
1,3046049,2462,842,-1364,2005,-88,-60,305,225,-81
1,3046063,2460,846,-1361,2008,-94,-56,305,225,-81
1,3046077,2464,830,-1361,2001,-83,-60,305,225,-81
1,3046090,2464,830,-1361,2001,-83,-60,305,225,-81
1,3046104,2461,852,-1362,2001,-83,-53,305,225,-81
1,3046119,2459,836,-1359,2007,-89,-52,308,234,-76
1,3046133,2459,836,-1359,2007,-89,-52,308,234,-76
1,3046147,2462,846,-1361,2003,-83,-61,308,234,-76
1,3046161,2464,836,-1361,2001,-82,-57,308,234,-76
1,3046174,2461,846,-1359,2008,-88,-50,308,234,-76
1,3046189,2461,846,-1359,2008,-88,-50,308,234,-76
1,3046204,2459,844,-1361,2009,-92,-55,308,234,-76
1,3046215,2464,853,-1361,2001,-93,-59,308,234,-76
1,3046231,2464,853,-1361,2001,-93,-59,308,234,-76
1,3046245,2462,842,-1359,1997,-94,-52,312,228,-74
1,3046260,2464,841,-1354,1999,-90,-53,312,228,-74
1,3046273,2464,841,-1354,1999,-90,-53,312,228,-74
1,3046287,2460,844,-1363,2005,-86,-50,312,228,-74
1,3046302,2463,850,-1360,2009,-82,-52,312,228,-74
1,3046316,2461,837,-1363,1999,-83,-53,312,228,-74
1,3046329,2461,837,-1363,1999,-83,-53,312,228,-74
1,3046342,2465,818,-1363,1994,-87,-54,312,228,-74
1,3046353,2465,818,-1363,1994,-87,-54,312,228,-74
1,3046369,2461,844,-1361,1987,-84,-52,315,231,-71
1,3046382,2461,844,-1361,1987,-84,-52,315,231,-71
1,3046395,2464,841,-1350,2001,-90,-58,315,231,-71
1,3046409,2464,841,-1350,2001,-90,-58,315,231,-71
1,3046423,2462,824,-1367,1996,-94,-59,315,231,-71
1,3046435,2464,838,-1360,1999,-90,-50,315,231,-71
1,3046449,2464,838,-1360,1999,-90,-50,315,231,-71
1,3046464,2462,837,-1365,2002,-97,-49,315,231,-71
1,3046479,2462,836,-1362,2006,-87,-56,315,231,-71
1,3046495,2465,826,-1357,2001,-89,-57,313,231,-71
1,3046507,2465,826,-1357,2001,-89,-57,313,231,-71
1,3046521,2463,825,-1353,1994,-89,-55,313,231,-71
1,3046536,2460,830,-1359,2004,-92,-46,313,231,-71
1,3046550,2460,830,-1359,2004,-92,-46,313,231,-71
1,3046563,2461,827,-1366,2003,-90,-53,313,231,-71
1,3046578,2465,826,-1357,1996,-91,-58,313,231,-71
1,3046591,2465,826,-1357,1996,-91,-58,313,231,-71
1,3046605,2463,822,-1365,2000,-91,-57,313,231,-71
1,3046618,2462,826,-1360,2001,-96,-60,319,245,-63
1,3046633,2462,826,-1360,2001,-96,-60,319,245,-63
1,3046647,2461,828,-1361,1999,-87,-54,319,245,-63
1,3046658,2463,827,-1364,2006,-82,-57,319,245,-63
1,3046674,2463,827,-1364,2006,-82,-57,319,245,-63
1,3046689,2464,817,-1362,2003,-84,-48,319,245,-63
1,3046705,2465,819,-1357,1998,-86,-50,319,245,-63
1,3046720,2462,822,-1362,2004,-82,-58,319,245,-63
1,3046733,2462,822,-1362,2004,-82,-58,319,245,-63
1,3046748,2465,819,-1355,2002,-86,-59,325,235,-63
1,3046762,2464,800,-1359,2004,-96,-57,325,235,-63
1,3046773,2464,800,-1359,2004,-96,-57,325,235,-63
1,3046786,2462,804,-1361,2003,-94,-55,325,235,-63
1,3046800,2463,814,-1361,2004,-93,-60,325,235,-63
1,3046813,2463,814,-1361,2004,-93,-60,325,235,-63
1,3046828,2462,814,-1363,2002,-86,-51,325,235,-63
1,3046840,2464,814,-1360,2008,-86,-50,325,235,-63
1,3046852,2464,814,-1360,2008,-86,-50,325,235,-63
1,3046867,2462,813,-1359,1999,-88,-62,314,234,-64
1,3046883,2464,824,-1357,2010,-91,-53,314,234,-64
1,3046897,2462,830,-1366,2009,-86,-53,314,234,-64
1,3046912,2462,830,-1366,2009,-86,-53,314,234,-64
1,3046925,2462,828,-1368,2009,-81,-54,314,234,-64
1,3046939,2463,821,-1368,2008,-82,-54,314,234,-64
1,3046956,2460,830,-1359,2000,-87,-58,314,234,-64
1,3046969,2460,830,-1359,2000,-87,-58,314,234,-64
1,3046981,2458,833,-1363,2001,-89,-60,325,239,-55
1,3046996,2464,831,-1358,2014,-89,-58,325,239,-55
1,3047009,2464,831,-1358,2014,-89,-58,325,239,-55
1,3047023,2464,827,-1369,2021,-89,-55,325,239,-55
1,3047038,2463,830,-1367,2015,-91,-52,325,239,-55
1,3047052,2463,830,-1367,2015,-91,-52,325,239,-55
1,3047066,2461,837,-1369,2007,-89,-51,325,239,-55
1,3047079,2460,834,-1368,2006,-89,-60,325,239,-55
1,3047093,2460,834,-1368,2006,-89,-60,325,239,-55
1,3047101,2462,838,-1367,2011,-82,-60,325,239,-55
1,3047114,2462,848,-1361,2009,-85,-56,325,239,-55
1,3047130,2462,848,-1361,2009,-85,-56,325,239,-53
1,3047145,2460,836,-1366,2008,-84,-59,325,239,-53
1,3047159,2461,846,-1363,2015,-91,-60,325,239,-53
1,3047175,2461,846,-1363,2015,-91,-60,325,239,-53
1,3047190,2463,841,-1368,2019,-87,-59,325,239,-53
1,3047203,2462,844,-1364,2009,-89,-58,325,239,-53
1,3047218,2462,846,-1367,2006,-90,-63,325,239,-53
1,3047228,2462,846,-1367,2006,-90,-63,325,239,-53
1,3047239,2461,850,-1359,2006,-93,-55,325,241,-57
1,3047252,2461,850,-1359,2006,-93,-55,325,241,-57
1,3047266,2459,858,-1367,2006,-93,-61,325,241,-57
1,3047280,2458,852,-1364,2005,-90,-56,325,241,-57
1,3047292,2458,852,-1364,2005,-90,-56,325,241,-57
1,3047308,2460,872,-1362,2000,-90,-61,325,241,-57
1,3047321,2461,872,-1360,2003,-74,-54,325,241,-57
1,3047334,2461,872,-1360,2003,-74,-54,325,241,-57
1,3047348,2459,872,-1361,2006,-81,-52,325,241,-57
1,3047362,2460,856,-1354,1996,-89,-52,326,242,-48
1,3047375,2461,854,-1352,1988,-79,-51,326,242,-48
1,3047388,2461,854,-1352,1988,-79,-51,326,242,-48
1,3047403,2462,850,-1354,1994,-83,-48,326,242,-48
1,3047418,2460,856,-1361,1987,-86,-47,326,242,-48
1,3047434,2460,856,-1361,1987,-86,-47,326,242,-48
1,3047448,2461,838,-1356,1993,-85,-53,326,242,-48
1,3047460,2466,811,-1364,1995,-90,-57,326,242,-48
1,3047474,2466,811,-1364,1995,-90,-57,326,242,-48
1,3047487,2461,843,-1357,1995,-94,-52,323,233,-47
1,3047500,2460,850,-1357,1998,-93,-47,323,233,-47
1,3047512,2460,850,-1357,1998,-93,-47,323,233,-47
1,3047526,2460,850,-1357,1998,-93,-47,323,233,-47
1,3047538,2464,831,-1358,1996,-89,-62,323,233,-47
1,3047552,2464,831,-1358,1996,-89,-62,323,233,-47
1,3047566,2460,828,-1356,1998,-89,-55,323,233,-47
1,3047579,2460,833,-1359,2000,-85,-55,323,233,-47
1,3047592,2460,833,-1359,2000,-85,-55,323,233,-47
1,3047605,2460,813,-1355,2000,-90,-58,323,233,-47
1,3047619,2465,819,-1356,2001,-89,-59,326,234,-48
1,3047634,2470,770,-1358,2006,-90,-52,326,234,-48
1,3047650,2470,770,-1358,2006,-90,-52,326,234,-48
1,3047662,2464,806,-1363,1998,-90,-52,326,234,-48
1,3047676,2467,790,-1362,1995,-82,-51,326,234,-48
1,3047691,2467,790,-1362,1995,-82,-51,326,234,-48
1,3047704,2463,804,-1363,2000,-83,-57,326,234,-48
1,3047718,2465,787,-1365,1998,-88,-54,326,234,-48
1,3047732,2465,787,-1365,1998,-88,-54,326,234,-48
1,3047746,2460,810,-1363,1998,-87,-63,333,239,-31
1,3047758,2460,810,-1361,2007,-81,-57,333,239,-31
1,3047773,2460,810,-1361,2007,-81,-57,333,239,-31
1,3047787,2465,820,-1362,2012,-82,-61,333,239,-31
1,3047799,2465,818,-1363,2003,-85,-54,333,239,-31
1,3047814,2465,818,-1363,2003,-85,-54,333,239,-31
1,3047829,2464,817,-1364,2012,-83,-51,333,239,-31
1,3047844,2459,822,-1370,2018,-83,-50,333,239,-31
1,3047861,2463,832,-1357,2012,-85,-54,337,241,-29
1,3047875,2462,823,-1367,2011,-85,-57,337,241,-29
1,3047889,2462,823,-1367,2011,-85,-57,337,241,-29
1,3047904,2467,824,-1365,2015,-85,-53,337,241,-29
1,3047918,2459,829,-1368,2011,-87,-56,337,241,-29
1,3047930,2459,829,-1368,2011,-87,-56,337,241,-29
1,3047943,2461,871,-1364,2008,-83,-45,337,241,-29
1,3047957,2459,828,-1365,2015,-76,-52,337,241,-29
1,3047970,2459,828,-1365,2015,-76,-52,337,241,-29
1,3047984,2463,835,-1358,2010,-93,-57,323,243,-35
1,3047998,2463,840,-1361,2007,-88,-54,323,243,-35
1,3048012,2463,840,-1361,2007,-88,-54,323,243,-35
1,3048025,2457,855,-1366,2006,-93,-53,323,243,-35
1,3048038,2458,843,-1365,2000,-83,-57,323,243,-35
1,3048053,2458,843,-1365,2000,-83,-57,323,243,-35
1,3048068,2462,841,-1367,2011,-86,-57,323,243,-35
1,3048082,2463,845,-1364,2004,-90,-57,323,243,-35
1,3048098,2458,848,-1360,2008,-90,-52,323,243,-35
1,3048114,2458,848,-1360,2008,-90,-52,323,243,-35
1,3048128,2458,849,-1363,1999,-91,-57,326,240,-18
1,3048142,2460,840,-1356,2002,-93,-60,326,240,-18
1,3048156,2464,844,-1358,2000,-90,-57,326,240,-18
1,3048170,2464,844,-1358,2000,-90,-57,326,240,-18
1,3048182,2461,839,-1362,2001,-92,-48,326,240,-18
1,3048196,2461,855,-1365,2007,-88,-55,326,240,-18
1,3048210,2461,855,-1365,2007,-88,-55,326,240,-18
1,3048223,2467,848,-1358,2004,-84,-57,326,240,-18
1,3048237,2460,844,-1357,1996,-83,-58,312,244,-22
1,3048251,2460,844,-1357,1996,-83,-58,312,244,-22
1,3048263,2465,843,-1358,2001,-87,-56,312,244,-22
1,3048275,2459,851,-1357,2000,-86,-55,312,244,-22
1,3048291,2459,851,-1357,2000,-86,-55,312,244,-22
1,3048304,2460,851,-1360,1998,-87,-57,312,244,-22
1,3048318,2457,839,-1359,2000,-87,-59,312,244,-22
1,3048333,2457,839,-1359,2000,-87,-59,312,244,-22
1,3048348,2458,838,-1363,1994,-89,-60,312,244,-22
1,3048363,2462,847,-1353,1988,-87,-54,320,240,-14
1,3048377,2463,826,-1356,1994,-87,-52,320,240,-14
1,3048390,2463,826,-1356,1994,-87,-52,320,240,-14
1,3048404,2466,837,-1357,1995,-89,-56,320,240,-14
1,3048419,2463,836,-1365,1994,-90,-55,320,240,-14
1,3048433,2463,836,-1365,1994,-90,-55,320,240,-14
1,3048445,2461,835,-1355,1996,-88,-52,320,240,-14
1,3048459,2460,837,-1357,1994,-88,-57,320,240,-14
1,3048472,2460,837,-1357,1994,-88,-57,320,240,-14
1,3048486,2461,833,-1358,1990,-87,-59,321,239,-11
1,3048501,2459,830,-1361,1996,-88,-50,321,239,-11
1,3048516,2461,827,-1362,1999,-90,-54,321,239,-11
1,3048529,2461,827,-1362,1999,-90,-54,321,239,-11
1,3048543,2463,825,-1360,1996,-86,-56,321,239,-11
1,3048559,2465,814,-1361,1995,-83,-53,321,239,-11
1,3048574,2465,814,-1361,1995,-83,-53,321,239,-11
1,3048585,2464,816,-1359,1995,-88,-54,321,239,-11
1,3048598,2464,797,-1360,1985,-85,-56,321,239,-11
1,3048612,2464,797,-1360,1985,-85,-56,321,239,-11
1,3048626,2467,798,-1354,1999,-87,-54,316,244,-14
1,3048640,2464,783,-1358,1994,-86,-47,316,244,-14
1,3048653,2464,783,-1358,1994,-86,-47,316,244,-14
1,3048669,2461,778,-1364,1993,-87,-54,316,244,-14
1,3048683,2468,753,-1367,1999,-86,-59,316,244,-14
1,3048694,2468,753,-1367,1999,-86,-59,316,244,-14
1,3048710,2466,745,-1369,1998,-84,-61,316,244,-14
1,3048722,2470,715,-1362,2000,-86,-48,316,244,-14
1,3048736,2467,707,-1368,2006,-83,-48,322,238,-2
1,3048749,2467,707,-1368,2006,-83,-48,322,238,-2
1,3048762,2473,685,-1371,2020,-76,-58,322,238,-2
1,3048777,2473,670,-1375,2029,-78,-54,322,238,-2
1,3048792,2473,670,-1375,2029,-78,-54,322,238,-2
1,3048807,2475,638,-1376,2043,-83,-55,322,238,-2
1,3048817,2474,635,-1386,2051,-85,-49,322,238,-2
1,3048825,2474,635,-1386,2051,-85,-49,322,238,-2
1,3048834,2474,635,-1386,2051,-85,-49,322,238,-2
1,3048845,2475,621,-1388,2054,-85,-49,322,238,-2
1,3048858,2472,598,-1383,2056,-90,-55,320,234,2
1,3048872,2472,598,-1383,2056,-90,-55,320,234,2
1,3048885,2477,575,-1392,2064,-80,-59,320,234,2
1,3048899,2479,568,-1403,2067,-79,-60,320,234,2
1,3048913,2479,568,-1403,2067,-79,-60,320,234,2
1,3048927,2478,555,-1405,2079,-80,-61,320,234,2
1,3048940,2484,525,-1416,2101,-78,-61,320,234,2
1,3048954,2484,525,-1416,2101,-78,-61,320,234,2
1,3048967,2486,502,-1423,2102,-76,-55,320,234,2
1,3048979,2483,489,-1421,2113,-82,-53,317,241,7
1,3048992,2483,489,-1421,2113,-82,-53,317,241,7
1,3049006,2481,461,-1435,2131,-86,-51,317,241,7
1,3049021,2479,434,-1445,2144,-80,-45,317,241,7
1,3049032,2479,434,-1445,2144,-80,-45,317,241,7
1,3049046,2486,426,-1444,2155,-74,-48,317,241,7
1,3049061,2484,417,-1457,2172,-78,-55,317,241,7
1,3049076,2490,392,-1470,2197,-74,-51,317,241,7
1,3049092,2490,392,-1470,2197,-74,-51,317,241,7
1,3049105,2490,383,-1484,2221,-72,-55,326,240,12
1,3049117,2491,369,-1486,2236,-70,-57,326,240,12
1,3049132,2491,369,-1486,2236,-70,-57,326,240,12
1,3049146,2489,356,-1493,2256,-67,-55,326,240,12
1,3049159,2493,331,-1506,2270,-63,-48,326,240,12
1,3049172,2493,331,-1506,2270,-63,-48,326,240,12
1,3049187,2493,332,-1513,2288,-65,-56,326,240,12
1,3049199,2492,321,-1532,2316,-67,-54,326,240,12
1,3049213,2492,321,-1532,2316,-67,-54,326,240,12
1,3049227,2493,296,-1536,2338,-67,-50,326,240,12
1,3049240,2494,282,-1549,2347,-63,-56,324,236,16
1,3049255,2494,282,-1549,2347,-63,-56,324,236,16
1,3049271,2494,282,-1549,2347,-63,-56,324,236,16
1,3049286,2498,276,-1568,2398,-60,-51,324,236,16
1,3049302,2496,267,-1587,2418,-60,-55,324,236,16
1,3049315,2496,267,-1587,2418,-60,-55,324,236,16
1,3049328,2499,275,-1596,2438,-55,-63,324,236,16
1,3049342,2496,283,-1609,2469,-53,-58,324,236,16
1,3049355,2496,283,-1609,2469,-53,-58,324,236,16
1,3049366,2496,276,-1619,2484,-48,-53,328,238,20
1,3049380,2496,281,-1628,2505,-52,-52,328,238,20
1,3049394,2496,281,-1628,2505,-52,-52,328,238,20
1,3049407,2496,306,-1643,2528,-52,-61,328,238,20
1,3049420,2491,312,-1653,2551,-48,-53,328,238,20
1,3049433,2491,312,-1653,2551,-48,-53,328,238,20
1,3049447,2492,326,-1680,2571,-48,-52,328,238,20
1,3049462,2490,345,-1696,2595,-45,-63,328,238,20
1,3049476,2489,378,-1690,2623,-47,-56,326,238,30
1,3049490,2489,378,-1690,2623,-47,-56,326,238,30
1,3049505,2487,389,-1691,2641,-48,-48,326,238,30
1,3049521,2485,435,-1713,2655,-49,-45,326,238,30
1,3049536,2487,468,-1720,2671,-49,-53,326,238,30
1,3049551,2487,468,-1720,2671,-49,-53,326,238,30
1,3049565,2484,475,-1727,2684,-44,-52,326,238,30
1,3049578,2482,505,-1726,2698,-40,-63,326,238,30
1,3049592,2482,505,-1726,2698,-40,-63,326,238,30
1,3049604,2479,539,-1739,2719,-43,-59,323,245,23
1,3049619,2477,551,-1741,2727,-45,-55,323,245,23
1,3049634,2477,551,-1741,2727,-45,-55,323,245,23
1,3049649,2476,570,-1752,2742,-35,-54,323,245,23
1,3049663,2476,600,-1758,2749,-39,-59,323,245,23
1,3049676,2472,621,-1759,2754,-48,-57,323,245,23
1,3049691,2472,621,-1759,2754,-48,-57,323,245,23
1,3049705,2471,638,-1774,2765,-44,-56,323,245,23
1,3049717,2470,673,-1775,2781,-35,-51,323,245,23
1,3049732,2470,673,-1775,2781,-35,-51,323,245,23
1,3049747,2469,684,-1772,2780,-43,-54,320,242,32
1,3049761,2464,705,-1778,2788,-39,-59,320,242,32
1,3049775,2464,705,-1778,2788,-39,-59,320,242,32
1,3049787,2462,730,-1772,2788,-33,-65,320,242,32
1,3049800,2464,745,-1783,2792,-42,-55,320,242,32
1,3049815,2464,745,-1783,2792,-42,-55,320,242,32
1,3049828,2463,759,-1781,2798,-39,-59,320,242,32
1,3049842,2461,781,-1784,2805,-38,-65,320,242,32
1,3049856,2463,786,-1786,2813,-37,-59,320,242,32
1,3049868,2463,786,-1786,2813,-37,-59,319,243,27
1,3049882,2463,801,-1790,2803,-38,-59,319,243,27
1,3049897,2463,810,-1788,2809,-42,-60,319,243,27
1,3049911,2463,810,-1788,2809,-42,-60,319,243,27
1,3049925,2460,814,-1790,2814,-41,-60,319,243,27
1,3049939,2458,816,-1788,2806,-40,-55,319,243,27
1,3049955,2458,816,-1788,2806,-40,-55,319,243,27
1,3049970,2460,829,-1786,2812,-41,-67,319,243,27
1,3049984,2457,833,-1783,2810,-39,-63,310,256,48
1,3049998,2455,832,-1782,2811,-29,-56,310,256,48
1,3050013,2455,832,-1782,2811,-29,-56,310,256,48
1,3050024,2458,864,-1785,2809,-32,-63,310,256,48
1,3050037,2463,845,-1790,2812,-31,-56,310,256,48
1,3050050,2463,845,-1790,2812,-31,-56,310,256,48
1,3050063,2458,858,-1792,2818,-37,-61,310,256,48
1,3050077,2462,846,-1788,2803,-41,-60,310,256,48
1,3050088,2462,846,-1788,2803,-41,-60,310,256,48
1,3050102,2455,905,-1785,2801,-38,-51,294,256,44
1,3050116,2449,926,-1780,2810,-36,-53,294,256,44
1,3050129,2449,926,-1780,2810,-36,-53,294,256,44
1,3050143,2449,897,-1782,2801,-42,-63,294,256,44
1,3050158,2465,871,-1777,2799,-45,-71,294,256,44
1,3050173,2465,871,-1777,2799,-45,-71,294,256,44
1,3050185,2455,905,-1776,2799,-37,-62,294,256,44
1,3050201,2452,899,-1780,2790,-38,-52,294,256,44
1,3050216,2453,894,-1778,2785,-43,-56,294,256,44
1,3050228,2453,894,-1778,2785,-43,-56,294,256,44
1,3050241,2458,871,-1775,2785,-42,-69,301,261,57
1,3050256,2461,896,-1776,2777,-47,-57,301,261,57
1,3050269,2461,896,-1776,2777,-47,-57,301,261,57
1,3050284,2456,884,-1781,2780,-40,-56,301,261,57
1,3050297,2452,896,-1775,2771,-33,-55,301,261,57
1,3050309,2452,896,-1775,2771,-33,-55,301,261,57
1,3050323,2457,877,-1767,2779,-36,-59,301,261,57
1,3050338,2460,878,-1769,2784,-39,-58,301,261,57
1,3050351,2460,878,-1769,2784,-39,-58,301,261,57
1,3050364,2453,862,-1771,2784,-37,-56,283,257,51
1,3050379,2457,875,-1766,2777,-30,-53,283,257,51
1,3050394,2457,875,-1766,2777,-30,-53,283,257,51
1,3050409,2454,861,-1770,2770,-38,-59,283,257,51
1,3050425,2458,851,-1765,2762,-48,-54,283,257,51
1,3050438,2460,841,-1773,2763,-35,-61,283,257,51
1,3050452,2460,841,-1773,2763,-35,-61,283,257,51
1,3050467,2460,871,-1767,2763,-35,-62,283,257,51
1,3050482,2462,814,-1761,2767,-34,-52,282,258,54
1,3050496,2458,854,-1765,2774,-40,-55,282,258,54
1,3050508,2458,854,-1765,2774,-40,-55,282,258,54
1,3050523,2459,822,-1772,2769,-46,-57,282,258,54
1,3050539,2456,853,-1762,2768,-38,-54,282,258,54
1,3050552,2456,853,-1762,2768,-38,-54,282,258,54
1,3050565,2459,800,-1767,2765,-32,-59,282,258,54
1,3050579,2463,777,-1760,2770,-40,-61,282,258,54
1,3050592,2463,777,-1760,2770,-40,-61,282,258,54
1,3050605,2468,768,-1774,2771,-48,-54,283,259,59
1,3050619,2456,808,-1770,2768,-40,-47,283,259,59
1,3050635,2456,808,-1770,2768,-40,-47,283,259,59
1,3050648,2461,799,-1774,2770,-36,-57,283,259,59
1,3050662,2464,777,-1765,2776,-41,-57,283,259,59
1,3050678,2466,788,-1774,2776,-37,-63,283,259,59
1,3050693,2466,788,-1774,2776,-37,-63,283,259,59
1,3050708,2461,804,-1776,2782,-39,-55,283,259,59
1,3050722,2454,807,-1778,2780,-36,-53,283,259,59
1,3050734,2454,807,-1778,2780,-36,-53,283,259,59
1,3050747,2461,796,-1765,2789,-29,-67,270,260,56
1,3050761,2463,806,-1774,2795,-43,-70,270,260,56
1,3050775,2463,806,-1774,2795,-43,-70,270,260,56
1,3050788,2455,803,-1775,2786,-45,-62,270,260,56
1,3050802,2461,823,-1780,2795,-28,-58,270,260,56
1,3050815,2461,823,-1780,2795,-28,-58,270,260,56
1,3050830,2465,823,-1777,2789,-33,-62,270,260,56
1,3050844,2463,828,-1774,2790,-46,-61,270,260,56
1,3050856,2460,822,-1782,2790,-42,-53,270,260,56
1,3050871,2460,822,-1782,2790,-42,-53,267,265,67
1,3050887,2457,839,-1773,2787,-34,-50,267,265,67
1,3050901,2458,839,-1778,2794,-31,-58,267,265,67
1,3050914,2458,839,-1778,2794,-31,-58,267,265,67
1,3050928,2460,852,-1777,2790,-38,-61,267,265,67
1,3050942,2452,854,-1782,2794,-46,-57,267,265,67
1,3050955,2452,854,-1782,2794,-46,-57,267,265,67
1,3050969,2459,844,-1777,2794,-38,-56,267,265,67
1,3050983,2462,839,-1774,2796,-38,-68,266,256,50
1,3050997,2464,872,-1777,2791,-38,-67,266,256,50
1,3051010,2464,872,-1777,2791,-38,-67,266,256,50
1,3051023,2457,840,-1783,2789,-40,-58,266,256,50
1,3051036,2459,854,-1772,2789,-36,-56,266,256,50
1,3051049,2459,854,-1772,2789,-36,-56,266,256,50
1,3051065,2462,840,-1775,2789,-34,-61,266,256,50
1,3051079,2453,866,-1775,2780,-38,-59,266,256,50
1,3051091,2453,866,-1775,2780,-38,-59,266,256,50
1,3051107,2457,840,-1774,2772,-43,-57,267,261,61
1,3051121,2455,864,-1771,2774,-37,-60,267,261,61
1,3051136,2455,864,-1771,2774,-37,-60,267,261,61
1,3051149,2461,841,-1776,2778,-37,-67,267,261,61
1,3051162,2457,857,-1777,2782,-44,-58,267,261,61
1,3051176,2460,853,-1784,2783,-40,-57,267,261,61
1,3051190,2460,853,-1784,2783,-40,-57,267,261,61
1,3051198,2457,864,-1774,2782,-40,-56,267,261,61
1,3051212,2457,864,-1774,2782,-40,-56,267,261,61
1,3051228,2459,844,-1777,2776,-33,-59,259,259,57
1,3051241,2460,852,-1767,2781,-39,-58,259,259,57
1,3051254,2460,852,-1767,2781,-39,-58,259,259,57
1,3051268,2461,817,-1775,2775,-39,-63,259,259,57
1,3051281,2457,855,-1775,2769,-33,-62,259,259,57
1,3051292,2457,855,-1775,2769,-33,-62,259,259,57
1,3051307,2456,828,-1772,2769,-44,-58,259,259,57
1,3051322,2457,846,-1767,2769,-43,-60,259,259,57
1,3051335,2457,846,-1767,2769,-43,-60,259,259,57
1,3051350,2457,824,-1776,2772,-49,-62,259,259,57
1,3051366,2460,856,-1763,2773,-42,-63,267,263,57
1,3051382,2462,836,-1781,2780,-36,-59,267,263,57
1,3051397,2453,840,-1769,2778,-41,-59,267,263,57
1,3051412,2453,840,-1769,2778,-41,-59,267,263,57
1,3051425,2461,827,-1775,2781,-44,-60,267,263,57
1,3051440,2459,831,-1772,2786,-43,-60,267,263,57
1,3051453,2459,831,-1772,2786,-43,-60,267,263,57
1,3051465,2456,820,-1772,2782,-35,-56,267,263,57
1,3051482,2459,830,-1767,2778,-37,-63,258,264,68
1,3051496,2459,830,-1767,2778,-37,-63,258,264,68
1,3051508,2460,829,-1773,2782,-36,-51,258,264,68
1,3051522,2456,823,-1775,2778,-43,-54,258,264,68
1,3051536,2456,823,-1775,2778,-43,-54,258,264,68
1,3051550,2457,826,-1777,2781,-37,-56,258,264,68
1,3051565,2463,822,-1771,2774,-32,-65,258,264,68
1,3051576,2460,803,-1778,2768,-41,-63,258,264,68
1,3051590,2460,803,-1778,2768,-41,-63,258,264,68
1,3051606,2459,809,-1777,2774,-44,-58,246,254,56
1,3051618,2460,805,-1774,2779,-38,-57,246,254,56
1,3051634,2460,805,-1774,2779,-38,-57,246,254,56
1,3051648,2460,805,-1772,2781,-34,-58,246,254,56
1,3051662,2458,807,-1781,2783,-39,-60,246,254,56
1,3051675,2458,807,-1781,2783,-39,-60,246,254,56
1,3051688,2459,805,-1779,2786,-35,-58,246,254,56
1,3051703,2457,816,-1782,2787,-36,-59,246,254,56
1,3051715,2457,816,-1782,2787,-36,-59,246,254,56
1,3051727,2460,826,-1785,2788,-42,-58,247,257,55
1,3051741,2458,828,-1777,2790,-44,-66,247,257,55
1,3051754,2458,828,-1777,2790,-44,-66,247,257,55
1,3051768,2462,827,-1779,2792,-35,-64,247,257,55
1,3051781,2459,838,-1786,2787,-32,-55,247,257,55
1,3051794,2459,838,-1786,2787,-32,-55,247,257,55
1,3051808,2459,831,-1784,2787,-34,-62,247,257,55
1,3051825,2458,825,-1784,2785,-45,-62,247,257,55
1,3051840,2459,822,-1785,2793,-39,-59,247,257,55
1,3051852,2459,822,-1785,2793,-39,-59,247,257,55
1,3051866,2456,836,-1776,2793,-35,-59,249,263,53
1,3051878,2458,828,-1781,2789,-36,-59,249,263,53
1,3051891,2458,828,-1781,2789,-36,-59,249,263,53
1,3051907,2460,834,-1781,2791,-40,-60,249,263,53
1,3051921,2458,832,-1783,2786,-42,-61,249,263,53
1,3051932,2458,832,-1783,2786,-42,-61,249,263,53
1,3051947,2455,871,-1785,2792,-37,-59,249,263,53
1,3051960,2456,830,-1788,2788,-33,-65,249,263,53
1,3051973,2456,830,-1788,2788,-33,-65,249,263,53
1,3051987,2456,854,-1772,2788,-33,-66,250,264,56
1,3051999,2461,842,-1772,2790,-44,-65,250,264,56
1,3052012,2461,842,-1772,2790,-44,-65,250,264,56
1,3052025,2455,858,-1778,2786,-42,-56,250,264,56
1,3052040,2458,850,-1774,2788,-38,-56,250,264,56
1,3052053,2458,850,-1774,2788,-38,-56,250,264,56
1,3052062,2453,868,-1774,2787,-39,-63,250,264,56
1,3052078,2460,857,-1778,2786,-42,-64,250,264,56
1,3052093,2460,857,-1778,2786,-42,-64,250,264,56
1,3052107,2452,879,-1773,2786,-39,-51,232,264,46
1,3052120,2454,859,-1778,2785,-42,-59,232,264,46
1,3052132,2454,859,-1778,2785,-42,-59,232,264,46
1,3052146,2461,860,-1772,2783,-37,-66,232,264,46
1,3052160,2460,850,-1776,2781,-45,-60,232,264,46
1,3052173,2460,850,-1776,2781,-45,-60,232,264,46
1,3052188,2455,866,-1770,2779,-41,-63,232,264,46
1,3052199,2459,855,-1774,2772,-40,-57,232,264,46
1,3052213,2459,855,-1774,2772,-40,-57,232,264,46
1,3052226,2457,842,-1768,2774,-39,-56,233,261,45
1,3052239,2459,820,-1769,2780,-42,-61,233,261,45
1,3052254,2459,820,-1769,2780,-42,-61,233,261,45
1,3052263,2455,848,-1766,2771,-39,-52,233,261,45
1,3052277,2455,852,-1776,2766,-37,-55,233,261,45
1,3052292,2455,852,-1776,2766,-37,-55,233,261,45
1,3052305,2458,833,-1771,2769,-41,-59,233,261,45
1,3052319,2462,836,-1771,2778,-44,-61,233,261,45
1,3052335,2462,836,-1771,2778,-44,-61,233,261,45
1,3052348,2457,834,-1770,2776,-43,-57,233,261,45
1,3052361,2456,841,-1772,2774,-39,-57,234,270,40
1,3052375,2456,841,-1772,2774,-39,-57,234,270,40
1,3052387,2461,810,-1768,2774,-40,-65,234,270,40
1,3052401,2459,807,-1774,2773,-43,-62,234,270,40
1,3052417,2459,807,-1774,2773,-43,-62,234,270,40
1,3052431,2461,770,-1775,2777,-41,-51,234,270,40
1,3052444,2452,819,-1776,2779,-37,-57,234,270,40
1,3052457,2459,816,-1779,2777,-35,-53,234,270,40
1,3052472,2459,816,-1779,2777,-35,-53,234,270,40
1,3052487,2460,810,-1775,2775,-40,-64,240,280,40
1,3052503,2463,800,-1778,2776,-48,-64,240,280,40
1,3052515,2463,800,-1778,2776,-48,-64,240,280,40
1,3052529,2462,836,-1781,2782,-39,-51,240,280,40
1,3052545,2455,831,-1784,2786,-35,-56,240,280,40
1,3052560,2461,837,-1772,2780,-38,-54,240,280,40
1,3052572,2461,837,-1772,2780,-38,-54,240,280,40
1,3052584,2456,822,-1779,2788,-44,-65,240,280,40
1,3052598,2462,829,-1776,2792,-42,-50,227,267,39
1,3052611,2462,829,-1776,2792,-42,-50,227,267,39
1,3052624,2457,827,-1775,2794,-39,-51,227,267,39
1,3052640,2461,838,-1771,2787,-38,-52,227,267,39
1,3052653,2461,838,-1771,2787,-38,-52,227,267,39
1,3052665,2461,825,-1777,2794,-40,-59,227,267,39
1,3052679,2460,824,-1780,2790,-38,-58,227,267,39
1,3052693,2460,824,-1780,2790,-38,-58,227,267,39
1,3052706,2458,821,-1780,2785,-34,-59,227,267,39
1,3052722,2459,834,-1778,2783,-34,-57,224,280,34
1,3052737,2458,826,-1774,2797,-35,-55,224,280,34
1,3052750,2458,826,-1774,2797,-35,-55,224,280,34
1,3052765,2460,821,-1777,2790,-33,-53,224,280,34
1,3052779,2459,824,-1783,2796,-38,-51,224,280,34
1,3052794,2459,824,-1783,2796,-38,-51,224,280,34
1,3052807,2456,838,-1777,2788,-33,-48,224,280,34
1,3052819,2462,832,-1780,2789,-42,-49,224,280,34
1,3052833,2462,832,-1780,2789,-42,-49,224,280,34
1,3052847,2458,828,-1774,2788,-42,-58,224,280,34
1,3052855,2458,828,-1774,2788,-42,-58,224,280,34
1,3052862,2459,828,-1775,2786,-42,-64,225,285,31
1,3052870,2459,828,-1775,2786,-42,-64,225,285,31
1,3052881,2456,839,-1774,2786,-44,-58,225,285,31
1,3052896,2456,839,-1774,2786,-44,-58,225,285,31
1,3052909,2459,833,-1779,2795,-44,-65,225,285,31
1,3052923,2456,831,-1782,2786,-44,-62,225,285,31
1,3052935,2456,831,-1782,2786,-44,-62,225,285,31
1,3052947,2456,837,-1780,2782,-43,-58,225,285,31
1,3052955,2456,837,-1780,2782,-43,-58,225,285,31
1,3052963,2460,840,-1781,2788,-39,-56,225,285,31
1,3052978,2454,842,-1777,2797,-37,-55,238,274,26
1,3052991,2454,842,-1777,2797,-37,-55,238,274,26
1,3053007,2462,838,-1776,2792,-35,-52,238,274,26
1,3053023,2456,848,-1780,2790,-41,-57,238,274,26
1,3053037,2457,844,-1774,2789,-31,-50,238,274,26
1,3053051,2457,844,-1774,2789,-31,-50,238,274,26
1,3053065,2457,848,-1786,2784,-35,-55,238,274,26
1,3053079,2459,837,-1775,2788,-43,-61,238,274,26
1,3053092,2459,837,-1775,2788,-43,-61,238,274,26
1,3053107,2458,852,-1770,2781,-41,-52,224,280,26
1,3053121,2457,846,-1776,2783,-46,-60,224,280,26
1,3053133,2457,846,-1776,2783,-46,-60,224,280,26
1,3053148,2454,862,-1775,2784,-38,-60,224,280,26
1,3053161,2458,859,-1781,2780,-38,-56,224,280,26
1,3053175,2458,859,-1781,2780,-38,-56,224,280,26
1,3053191,2460,860,-1771,2785,-44,-57,224,280,26
1,3053205,2457,847,-1774,2780,-42,-57,224,280,26
1,3053218,2459,864,-1771,2782,-36,-54,226,276,22
1,3053233,2459,864,-1771,2782,-36,-54,226,276,22
1,3053244,2460,853,-1772,2776,-30,-53,226,276,22
1,3053257,2457,855,-1771,2778,-40,-50,226,276,22
1,3053272,2457,855,-1771,2778,-40,-50,226,276,22
1,3053286,2462,810,-1775,2775,-45,-57,226,276,22
1,3053299,2461,854,-1768,2777,-48,-57,226,276,22
1,3053315,2461,854,-1768,2777,-48,-57,226,276,22
1,3053328,2456,833,-1776,2777,-48,-51,226,276,22
1,3053341,2459,862,-1777,2778,-40,-55,234,276,24
1,3053353,2459,862,-1777,2778,-40,-55,234,276,24
1,3053367,2456,815,-1776,2782,-41,-67,234,276,24
1,3053380,2459,850,-1771,2777,-35,-57,234,276,24
1,3053394,2459,850,-1771,2777,-35,-57,234,276,24
1,3053404,2457,830,-1771,2783,-37,-49,234,276,24
1,3053418,2455,844,-1766,2776,-41,-48,234,276,24
1,3053433,2455,844,-1766,2776,-41,-48,234,276,24
1,3053450,2460,815,-1776,2774,-37,-56,234,276,24
1,3053465,2462,817,-1772,2781,-44,-58,234,276,24
1,3053478,2461,768,-1774,2778,-51,-49,219,275,13
1,3053491,2461,768,-1774,2778,-51,-49,219,275,13
1,3053505,2460,808,-1777,2780,-38,-57,219,275,13
1,3053519,2464,800,-1782,2776,-35,-61,219,275,13
1,3053534,2464,800,-1782,2776,-35,-61,219,275,13
1,3053547,2460,819,-1777,2779,-38,-62,219,275,13
1,3053562,2458,804,-1786,2783,-41,-54,219,275,13
1,3053572,2458,804,-1786,2783,-41,-54,219,275,13
1,3053585,2462,825,-1779,2783,-40,-54,219,275,13
1,3053598,2459,829,-1777,2785,-42,-60,220,274,10
1,3053613,2459,829,-1777,2785,-42,-60,220,274,10
1,3053628,2460,838,-1782,2781,-43,-54,220,274,10
1,3053641,2462,822,-1783,2784,-49,-64,220,274,10
1,3053656,2462,822,-1783,2784,-49,-64,220,274,10
1,3053670,2463,831,-1778,2789,-45,-62,220,274,10
1,3053684,2461,831,-1781,2796,-41,-48,220,274,10
1,3053701,2459,834,-1779,2786,-36,-49,220,274,10
1,3053714,2459,834,-1779,2786,-36,-49,220,274,10
1,3053726,2457,832,-1776,2791,-39,-62,216,276,0
1,3053740,2456,832,-1776,2791,-41,-60,216,276,0
1,3053753,2456,832,-1776,2791,-41,-60,216,276,0
1,3053767,2457,833,-1777,2790,-35,-62,216,276,0
1,3053780,2456,829,-1782,2787,-41,-60,216,276,0
1,3053794,2456,829,-1782,2787,-41,-60,216,276,0
1,3053806,2456,832,-1780,2787,-38,-64,216,276,0
1,3053820,2460,830,-1779,2792,-50,-56,216,276,0
1,3053835,2460,830,-1779,2792,-50,-56,216,276,0
1,3053848,2460,826,-1778,2788,-38,-57,232,268,0
1,3053855,2460,826,-1778,2788,-38,-57,232,268,0
1,3053871,2457,829,-1779,2785,-39,-61,232,268,0
1,3053886,2460,833,-1778,2784,-36,-61,232,268,0
1,3053901,2457,824,-1779,2787,-40,-54,232,268,0
1,3053916,2457,824,-1779,2787,-40,-54,232,268,0
1,3053928,2458,833,-1780,2786,-35,-55,232,268,0
1,3053942,2458,837,-1775,2788,-39,-63,232,268,0
1,3053958,2459,840,-1775,2786,-42,-64,232,268,0
1,3053971,2459,840,-1775,2786,-42,-64,232,268,0
1,3053985,2458,826,-1773,2796,-44,-56,220,264,-2
1,3053999,2458,837,-1779,2788,-37,-56,220,264,-2
1,3054011,2458,837,-1779,2788,-37,-56,220,264,-2
1,3054025,2460,838,-1778,2787,-38,-58,220,264,-2
1,3054039,2456,839,-1779,2784,-42,-60,220,264,-2
1,3054053,2456,839,-1779,2784,-42,-60,220,264,-2
1,3054066,2462,837,-1778,2784,-40,-57,220,264,-2
1,3054081,2458,837,-1781,2794,-43,-58,220,264,-2
1,3054093,2458,837,-1781,2794,-43,-58,220,264,-2
1,3054106,2460,840,-1775,2795,-42,-60,222,270,-10
1,3054120,2458,843,-1774,2791,-38,-59,222,270,-10
1,3054136,2458,843,-1774,2791,-38,-59,222,270,-10
1,3054147,2456,849,-1775,2792,-34,-63,222,270,-10
1,3054161,2456,850,-1776,2784,-37,-70,222,270,-10
1,3054177,2456,850,-1776,2784,-37,-70,222,270,-10
1,3054191,2456,841,-1777,2782,-38,-56,222,270,-10
1,3054204,2458,842,-1774,2777,-39,-56,222,270,-10
1,3054218,2456,856,-1774,2780,-40,-56,226,262,-14
1,3054230,2456,856,-1774,2780,-40,-56,226,262,-14
1,3054244,2460,848,-1773,2780,-38,-48,226,262,-14
1,3054258,2460,852,-1779,2775,-40,-55,226,262,-14
1,3054271,2460,852,-1779,2775,-40,-55,226,262,-14
1,3054285,2459,848,-1772,2779,-40,-63,226,262,-14
1,3054299,2455,857,-1772,2789,-33,-58,226,262,-14
1,3054310,2455,857,-1772,2789,-33,-58,226,262,-14
1,3054323,2454,847,-1771,2791,-39,-51,226,262,-14
1,3054337,2454,847,-1771,2791,-39,-51,226,262,-14
1,3054351,2455,848,-1770,2783,-38,-54,226,262,-12
1,3054369,2454,828,-1772,2781,-35,-48,226,262,-12
1,3054385,2460,836,-1775,2777,-45,-52,226,262,-12
1,3054397,2460,836,-1775,2777,-45,-52,226,262,-12
1,3054411,2458,843,-1773,2778,-43,-58,226,262,-12
1,3054426,2458,843,-1773,2778,-43,-58,226,262,-12
1,3054439,2461,832,-1777,2782,-49,-56,226,262,-12
1,3054452,2461,832,-1777,2782,-49,-56,226,262,-12
1,3054466,2458,844,-1775,2780,-38,-56,226,262,-12
1,3054480,2454,840,-1770,2780,-40,-58,231,257,-25
1,3054493,2454,840,-1770,2780,-40,-58,231,257,-25
1,3054508,2455,846,-1770,2781,-42,-56,231,257,-25
1,3054521,2457,823,-1775,2782,-40,-53,231,257,-25
1,3054534,2457,823,-1775,2782,-40,-53,231,257,-25
1,3054550,2461,822,-1774,2777,-48,-63,231,257,-25
1,3054564,2459,793,-1774,2773,-48,-55,231,257,-25
1,3054575,2459,793,-1774,2773,-48,-55,231,257,-25
1,3054592,2463,801,-1777,2773,-36,-53,231,257,-25
1,3054607,2460,799,-1771,2780,-39,-57,228,254,-28
1,3054621,2460,818,-1775,2779,-38,-56,228,254,-28
1,3054633,2460,818,-1775,2779,-38,-56,228,254,-28
1,3054646,2456,807,-1781,2772,-42,-59,228,254,-28
1,3054659,2459,816,-1781,2780,-45,-65,228,254,-28
1,3054673,2459,816,-1781,2780,-45,-65,228,254,-28
1,3054687,2464,820,-1774,2779,-47,-61,228,254,-28
1,3054701,2458,841,-1774,2778,-44,-53,228,254,-28
1,3054713,2458,841,-1774,2778,-44,-53,228,254,-28
1,3054725,2457,821,-1774,2785,-44,-60,241,257,-29
1,3054738,2459,830,-1777,2791,-41,-64,241,257,-29
1,3054749,2459,830,-1777,2791,-41,-64,241,257,-29
1,3054760,2460,819,-1780,2790,-41,-56,241,257,-29
1,3054775,2460,819,-1780,2790,-41,-56,241,257,-29
1,3054790,2457,839,-1777,2793,-41,-53,241,257,-29
1,3054804,2459,825,-1775,2789,-40,-51,241,257,-29
1,3054817,2459,825,-1775,2789,-40,-51,241,257,-29
1,3054832,2460,843,-1777,2781,-37,-67,241,257,-29
1,3054848,2459,828,-1783,2788,-35,-61,239,259,-43
1,3054861,2459,837,-1776,2790,-31,-56,239,259,-43
1,3054875,2459,837,-1776,2790,-31,-56,239,259,-43
1,3054888,2458,831,-1780,2799,-41,-57,239,259,-43
1,3054899,2459,837,-1773,2787,-40,-57,239,259,-43
1,3054914,2459,837,-1773,2787,-40,-57,239,259,-43
1,3054929,2460,823,-1774,2783,-43,-59,239,259,-43
1,3054943,2459,832,-1778,2781,-36,-51,239,259,-43
1,3054956,2459,832,-1778,2781,-36,-51,239,259,-43
1,3054970,2455,834,-1774,2789,-40,-61,239,259,-43
1,3054986,2466,832,-1773,2788,-39,-59,241,239,-45
1,3054997,2466,832,-1773,2788,-39,-59,241,239,-45
1,3055005,2459,825,-1780,2785,-36,-53,241,239,-45
1,3055020,2460,837,-1783,2776,-37,-57,241,239,-45
1,3055035,2460,837,-1783,2776,-37,-57,241,239,-45
1,3055051,2464,831,-1778,2786,-41,-52,241,239,-45
1,3055066,2460,837,-1776,2779,-42,-58,241,239,-45
1,3055082,2457,833,-1774,2790,-40,-54,241,239,-45
1,3055094,2457,833,-1774,2790,-40,-54,241,239,-45
1,3055109,2459,835,-1774,2795,-37,-53,247,249,-45
1,3055123,2458,838,-1772,2787,-41,-54,247,249,-45
1,3055137,2458,838,-1772,2787,-41,-54,247,249,-45
1,3055149,2455,837,-1778,2785,-38,-51,247,249,-45
1,3055162,2460,836,-1777,2785,-38,-54,247,249,-45
1,3055175,2460,836,-1777,2785,-38,-54,247,249,-45
1,3055188,2458,834,-1782,2791,-35,-55,247,249,-45
1,3055203,2459,839,-1775,2786,-40,-56,247,249,-45
1,3055215,2459,839,-1775,2786,-40,-56,247,249,-45
1,3055228,2460,841,-1771,2788,-33,-50,255,243,-51
1,3055242,2457,844,-1775,2789,-36,-55,255,243,-51
1,3055254,2457,844,-1775,2789,-36,-55,255,243,-51
1,3055268,2456,850,-1777,2784,-40,-54,255,243,-51
1,3055282,2458,837,-1772,2782,-35,-54,255,243,-51
1,3055295,2458,837,-1772,2782,-35,-54,255,243,-51
1,3055311,2460,841,-1777,2779,-40,-59,255,243,-51
1,3055327,2458,856,-1779,2782,-34,-58,255,243,-51
1,3055342,2457,842,-1777,2789,-35,-51,251,237,-53
1,3055357,2459,851,-1776,2784,-28,-55,251,237,-53
1,3055371,2459,851,-1776,2784,-28,-55,251,237,-53
1,3055383,2458,842,-1770,2777,-32,-57,251,237,-53
1,3055396,2458,842,-1770,2777,-32,-57,251,237,-53
1,3055410,2459,860,-1771,2781,-36,-54,251,237,-53
1,3055424,2461,840,-1777,2781,-34,-52,251,237,-53
1,3055437,2459,853,-1773,2780,-37,-55,251,237,-53
1,3055450,2459,853,-1773,2780,-37,-55,251,237,-53
1,3055463,2455,835,-1775,2777,-37,-54,258,234,-62
1,3055476,2455,835,-1775,2777,-37,-54,258,234,-62
1,3055490,2456,836,-1769,2773,-29,-52,258,234,-62
1,3055505,2456,841,-1777,2776,-39,-53,258,234,-62
1,3055520,2454,851,-1770,2776,-41,-60,258,234,-62
1,3055534,2454,851,-1770,2776,-41,-60,258,234,-62
1,3055547,2460,829,-1769,2780,-38,-53,258,234,-62
1,3055562,2462,841,-1771,2776,-34,-56,258,234,-62
1,3055575,2462,841,-1771,2776,-34,-56,258,234,-62
1,3055588,2458,838,-1772,2783,-39,-52,258,234,-62
1,3055600,2457,846,-1772,2783,-40,-54,257,237,-55
1,3055613,2457,846,-1772,2783,-40,-54,257,237,-55
1,3055627,2458,823,-1768,2781,-39,-57,257,237,-55
1,3055641,2462,823,-1769,2780,-38,-63,257,237,-55
1,3055655,2462,823,-1769,2780,-38,-63,257,237,-55
1,3055668,2458,804,-1773,2775,-38,-56,257,237,-55
1,3055681,2461,797,-1777,2779,-41,-61,257,237,-55
1,3055696,2461,797,-1777,2779,-41,-61,257,237,-55
1,3055714,2463,802,-1777,2777,-38,-63,257,237,-55
1,3055729,2460,815,-1767,2778,-43,-57,264,238,-62
1,3055741,2459,809,-1778,2778,-41,-49,264,238,-62
1,3055755,2459,809,-1778,2778,-41,-49,264,238,-62
1,3055770,2462,809,-1779,2783,-37,-55,264,238,-62
1,3055785,2462,826,-1779,2779,-38,-61,264,238,-62
1,3055799,2457,842,-1780,2782,-40,-55,264,238,-62
1,3055812,2457,842,-1780,2782,-40,-55,264,238,-62
1,3055825,2457,842,-1780,2782,-40,-55,264,238,-62
1,3055840,2459,836,-1770,2780,-38,-57,262,230,-78
1,3055851,2459,836,-1770,2780,-38,-57,262,230,-78
1,3055864,2462,826,-1774,2790,-40,-56,262,230,-78
1,3055879,2456,836,-1773,2790,-34,-48,262,230,-78
1,3055892,2456,836,-1773,2790,-34,-48,262,230,-78
1,3055900,2457,824,-1780,2787,-37,-50,262,230,-78
1,3055916,2457,824,-1780,2787,-37,-50,262,230,-78
1,3055930,2461,838,-1778,2786,-39,-56,262,230,-78
1,3055943,2463,829,-1784,2786,-43,-55,262,230,-78
1,3055956,2463,829,-1784,2786,-43,-55,262,230,-78
1,3055972,2458,833,-1776,2791,-43,-53,262,228,-72
1,3055987,2461,837,-1777,2789,-41,-60,262,228,-72
1,3056002,2459,835,-1771,2791,-37,-51,262,228,-72
1,3056016,2459,835,-1771,2791,-37,-51,262,228,-72
1,3056029,2460,825,-1782,2786,-37,-56,262,228,-72
1,3056043,2459,825,-1775,2784,-41,-55,262,228,-72
1,3056056,2459,825,-1775,2784,-41,-55,262,228,-72
1,3056069,2458,829,-1781,2783,-36,-55,262,228,-72
1,3056083,2459,836,-1779,2780,-34,-54,262,228,-72
1,3056098,2462,825,-1778,2778,-34,-48,270,226,-72
1,3056111,2462,825,-1778,2778,-34,-48,270,226,-64
1,3056125,2463,830,-1776,2784,-37,-55,270,226,-64
1,3056139,2460,834,-1773,2792,-37,-61,270,226,-64
1,3056152,2460,834,-1773,2792,-37,-61,270,226,-64
