imu,time,ax,ay,az,gx,gy,gz,mx,my,mz
1,1893541,2467,828,-532,-1483,-298,-48,262,216,-196
1,1893550,2467,828,-532,-1483,-298,-48,262,216,-196
1,1893559,2467,828,-532,-1483,-298,-48,262,216,-196
1,1893574,2466,829,-531,-1481,-302,-41,262,216,-196
1,1893586,2465,825,-527,-1479,-310,-38,262,216,-196
1,1893600,2467,827,-523,-1482,-302,-38,241,215,-187
1,1893615,2467,827,-523,-1482,-302,-38,241,215,-187
1,1893628,2464,827,-525,-1478,-301,-40,241,215,-187
1,1893642,2468,825,-525,-1472,-306,-36,241,215,-187
1,1893656,2468,825,-525,-1472,-306,-36,241,215,-187
1,1893668,2465,826,-527,-1485,-304,-46,241,215,-187
1,1893681,2467,826,-534,-1483,-307,-36,241,215,-187
1,1893695,2467,826,-534,-1483,-307,-36,241,215,-187
1,1893709,2467,826,-530,-1472,-302,-38,241,215,-187
1,1893723,2468,825,-527,-1473,-299,-41,263,215,-191
1,1893736,2468,825,-527,-1473,-299,-41,263,215,-191
1,1893747,2467,829,-527,-1476,-300,-35,263,215,-191
1,1893760,2466,826,-530,-1478,-301,-40,263,215,-191
1,1893774,2466,826,-530,-1478,-301,-40,263,215,-191
1,1893788,2465,825,-528,-1485,-299,-41,263,215,-191
1,1893801,2466,824,-531,-1486,-300,-42,263,215,-191
1,1893816,2466,824,-531,-1486,-300,-42,263,215,-191
1,1893828,2466,824,-531,-1486,-300,-42,263,215,-191
1,1893842,2467,825,-523,-1476,-303,-29,257,209,-179
1,1893855,2467,825,-523,-1476,-303,-29,257,209,-179
1,1893866,2469,827,-528,-1478,-301,-38,257,209,-179
1,1893878,2469,827,-528,-1478,-301,-38,257,209,-179
1,1893893,2466,824,-528,-1482,-302,-41,257,209,-179
1,1893905,2467,828,-526,-1478,-301,-45,257,209,-179
1,1893916,2467,828,-526,-1478,-301,-45,257,209,-179
1,1893931,2466,827,-531,-1475,-305,-42,257,209,-179
1,1893944,2466,829,-532,-1474,-300,-37,257,209,-179
1,1893958,2466,829,-532,-1474,-300,-37,257,209,-179
1,1893971,2466,827,-526,-1472,-302,-41,256,204,-190
1,1893984,2464,826,-524,-1479,-302,-38,256,204,-190
1,1893996,2464,826,-524,-1479,-302,-38,256,204,-190
1,1894010,2465,828,-527,-1484,-302,-40,256,204,-190
1,1894022,2468,826,-527,-1482,-299,-39,256,204,-190
1,1894037,2468,826,-527,-1482,-299,-39,256,204,-190
1,1894051,2468,829,-529,-1481,-304,-40,256,204,-190
1,1894068,2470,826,-526,-1484,-309,-38,256,204,-190
1,1894081,2467,826,-529,-1483,-307,-32,256,204,-190
1,1894095,2467,826,-529,-1483,-307,-32,256,204,-190
1,1894110,2467,826,-527,-1480,-307,-42,256,218,-184
1,1894120,2467,826,-524,-1474,-308,-38,256,218,-184
1,1894127,2467,826,-524,-1474,-308,-38,256,218,-184
1,1894136,2467,826,-524,-1474,-308,-38,256,218,-184
1,1894149,2465,829,-529,-1485,-307,-31,256,218,-184
1,1894157,2465,829,-529,-1485,-307,-31,256,218,-184
1,1894165,2467,828,-532,-1481,-305,-38,256,218,-184
1,1894173,2467,828,-532,-1481,-305,-38,256,218,-184
1,1894182,2469,829,-533,-1480,-308,-38,256,218,-184
1,1894190,2469,829,-533,-1480,-308,-38,256,218,-184
1,1894198,2469,829,-533,-1480,-308,-38,256,218,-184
1,1894206,2466,826,-528,-1484,-306,-37,256,218,-184
1,1894214,2466,826,-528,-1484,-306,-37,256,218,-184
1,1894222,2465,824,-526,-1483,-307,-43,252,226,-186
1,1894232,2465,824,-526,-1483,-307,-43,252,226,-186
1,1894240,2467,823,-529,-1485,-306,-39,252,226,-186
1,1894249,2467,823,-529,-1485,-306,-39,252,226,-186
1,1894257,2467,823,-529,-1485,-306,-39,252,226,-186
1,1894265,2465,827,-529,-1480,-303,-36,252,226,-186
1,1894274,2465,827,-529,-1480,-303,-36,252,226,-186
1,1894282,2466,826,-524,-1480,-307,-38,252,226,-186
1,1894290,2466,826,-524,-1480,-307,-38,252,226,-186
1,1894297,2466,826,-524,-1480,-307,-38,252,226,-186
1,1894305,2466,825,-532,-1481,-308,-39,252,226,-186
1,1894312,2466,825,-532,-1481,-308,-39,252,226,-186
1,1894321,2466,824,-531,-1481,-299,-37,252,226,-186
1,1894329,2466,824,-531,-1481,-299,-37,252,226,-186
1,1894336,2466,824,-531,-1481,-299,-37,252,226,-186
1,1894344,2466,825,-526,-1474,-295,-32,254,220,-186
1,1894352,2466,825,-526,-1474,-295,-32,254,220,-186
1,1894360,2466,827,-528,-1480,-302,-33,254,220,-186
1,1894368,2466,827,-528,-1480,-302,-33,254,220,-186
1,1894376,2466,827,-528,-1480,-302,-33,254,220,-186
1,1894390,2469,825,-525,-1486,-299,-30,254,220,-186
1,1894404,2469,826,-532,-1474,-305,-32,254,220,-186
1,1894417,2469,826,-532,-1474,-305,-32,254,220,-186
1,1894431,2467,827,-533,-1480,-302,-39,254,220,-186
1,1894445,2465,827,-531,-1481,-303,-42,254,220,-186
1,1894458,2465,827,-531,-1481,-303,-42,254,220,-186
1,1894470,2465,827,-531,-1481,-303,-42,253,219,-187
1,1894483,2466,825,-523,-1481,-304,-44,253,219,-187
1,1894493,2466,825,-523,-1481,-304,-44,253,219,-187
1,1894502,2465,826,-528,-1481,-301,-42,253,219,-187
1,1894515,2465,826,-528,-1481,-301,-42,253,219,-187
1,1894529,2467,827,-524,-1482,-304,-39,253,219,-187
1,1894537,2467,827,-524,-1482,-304,-39,253,219,-187
1,1894545,2467,827,-529,-1480,-304,-33,253,219,-187
1,1894554,2467,827,-529,-1480,-304,-33,253,219,-187
1,1894562,2466,826,-530,-1482,-308,-36,253,219,-187
1,1894576,2466,826,-530,-1482,-308,-36,253,219,-187
1,1894588,2466,828,-533,-1490,-310,-38,253,219,-187
1,1894600,2468,824,-526,-1483,-302,-42,255,223,-187
1,1894612,2468,824,-526,-1483,-302,-42,255,223,-187
1,1894627,2468,825,-527,-1477,-298,-47,255,223,-187
1,1894640,2471,827,-530,-1479,-305,-40,255,223,-187
1,1894656,2471,827,-530,-1479,-305,-40,255,223,-187
1,1894671,2469,825,-529,-1478,-307,-38,255,223,-187
1,1894683,2471,825,-530,-1479,-303,-45,255,223,-187
1,1894697,2471,825,-530,-1479,-303,-45,255,223,-187
1,1894712,2466,825,-531,-1480,-304,-37,255,223,-187
1,1894725,2469,828,-528,-1474,-302,-36,250,222,-194
1,1894735,2469,828,-528,-1474,-302,-36,250,222,-194
1,1894750,2467,827,-532,-1482,-304,-36,250,222,-194
1,1894763,2464,827,-528,-1482,-305,-43,250,222,-194
1,1894771,2464,827,-528,-1482,-305,-43,250,222,-194
1,1894786,2464,827,-531,-1478,-304,-44,250,222,-194
1,1894799,2464,827,-531,-1478,-304,-44,250,222,-194
1,1894812,2468,827,-526,-1477,-294,-45,250,222,-194
1,1894825,2463,825,-527,-1482,-298,-39,250,222,-194
1,1894839,2463,825,-527,-1482,-298,-39,250,222,-194
1,1894851,2468,828,-528,-1481,-305,-44,254,216,-186
1,1894866,2469,827,-531,-1484,-300,-38,254,216,-186
1,1894881,2468,828,-531,-1483,-304,-37,254,216,-186
1,1894895,2468,828,-531,-1483,-304,-37,254,216,-186
1,1894909,2465,828,-529,-1481,-302,-35,254,216,-186
1,1894925,2468,827,-528,-1486,-306,-38,254,216,-186
1,1894940,2466,827,-528,-1481,-306,-38,254,216,-186
1,1894956,2466,827,-528,-1481,-306,-38,254,216,-186
1,1894970,2466,826,-527,-1484,-304,-42,256,218,-194
1,1894983,2467,828,-526,-1478,-302,-43,256,218,-194
1,1894996,2467,828,-526,-1478,-302,-43,256,218,-194
1,1895010,2466,828,-529,-1476,-304,-38,256,218,-194
1,1895023,2467,827,-528,-1480,-304,-38,256,218,-194
1,1895036,2467,827,-528,-1480,-304,-38,256,218,-194
1,1895050,2463,825,-528,-1476,-308,-36,256,218,-194
1,1895063,2466,826,-526,-1476,-300,-42,256,218,-194
1,1895071,2466,826,-526,-1476,-300,-42,256,218,-194
1,1895085,2467,827,-524,-1477,-303,-29,256,218,-194
1,1895099,2467,827,-524,-1477,-303,-29,256,218,-194
1,1895112,2468,827,-528,-1481,-304,-35,248,218,-184
1,1895127,2466,825,-525,-1485,-303,-42,248,218,-184
1,1895140,2465,828,-521,-1474,-306,-36,248,218,-184
1,1895153,2465,828,-521,-1474,-306,-36,248,218,-184
1,1895168,2466,829,-527,-1480,-313,-42,248,218,-184
1,1895181,2465,825,-532,-1477,-304,-34,248,218,-184
1,1895194,2465,825,-532,-1477,-304,-34,248,218,-184
1,1895209,2467,825,-532,-1475,-298,-42,248,218,-184
1,1895224,2465,825,-529,-1478,-298,-53,250,218,-190
1,1895239,2465,825,-529,-1478,-298,-53,250,218,-190
1,1895252,2469,826,-528,-1477,-308,-45,250,218,-190
1,1895266,2465,829,-523,-1480,-303,-45,250,218,-190
1,1895280,2466,827,-528,-1475,-306,-38,250,218,-190
1,1895291,2466,827,-528,-1475,-306,-38,250,218,-190
1,1895305,2465,826,-528,-1479,-304,-39,250,218,-190
1,1895318,2465,826,-528,-1479,-304,-39,250,218,-190
1,1895332,2463,829,-529,-1488,-304,-37,250,218,-190
1,1895347,2466,826,-528,-1479,-299,-38,258,216,-190
1,1895358,2466,826,-528,-1479,-299,-38,258,216,-190
1,1895370,2464,824,-528,-1477,-300,-38,258,216,-190
1,1895384,2464,830,-527,-1481,-306,-43,258,216,-190
1,1895397,2464,830,-527,-1481,-306,-43,258,216,-190
1,1895411,2467,826,-527,-1479,-307,-39,258,216,-190
1,1895427,2471,827,-528,-1476,-304,-35,258,216,-190
1,1895443,2468,827,-527,-1475,-303,-33,258,216,-190
1,1895458,2468,827,-527,-1475,-303,-33,258,216,-190
1,1895472,2468,825,-528,-1476,-305,-42,261,217,-185
1,1895485,2466,826,-528,-1478,-304,-36,261,217,-185
1,1895498,2466,826,-528,-1478,-304,-36,261,217,-185
1,1895512,2468,829,-530,-1477,-307,-36,261,217,-185
1,1895524,2466,826,-530,-1475,-303,-32,261,217,-185
1,1895539,2466,826,-530,-1475,-303,-32,261,217,-185
1,1895553,2468,827,-537,-1473,-305,-36,261,217,-185
1,1895566,2467,825,-533,-1475,-303,-38,261,217,-185
1,1895579,2467,825,-533,-1475,-303,-38,261,217,-185
1,1895590,2467,825,-533,-1475,-303,-38,261,217,-185
1,1895605,2466,827,-522,-1479,-299,-31,261,217,-185
1,1895619,2466,827,-522,-1479,-299,-31,261,217,-185
1,1895634,2468,827,-528,-1479,-308,-37,261,217,-185
1,1895647,2467,828,-531,-1477,-302,-30,261,217,-185
1,1895661,2467,828,-530,-1475,-300,-33,261,217,-185
1,1895676,2467,828,-530,-1475,-300,-33,261,217,-185
1,1895692,2468,826,-527,-1480,-300,-43,261,217,-185
1,1895705,2471,826,-526,-1478,-299,-38,261,217,-185
1,1895718,2471,826,-526,-1478,-299,-38,261,217,-185
1,1895733,2466,825,-521,-1479,-303,-38,244,212,-188
1,1895746,2469,826,-521,-1480,-301,-42,244,212,-188
1,1895761,2465,831,-528,-1479,-298,-38,244,212,-188
1,1895774,2465,831,-528,-1479,-298,-38,244,212,-188
1,1895789,2464,827,-524,-1483,-299,-36,244,212,-188
1,1895802,2464,827,-530,-1482,-300,-37,244,212,-188
1,1895817,2464,827,-530,-1482,-300,-37,244,212,-188
1,1895831,2467,824,-527,-1486,-296,-38,244,212,-188
1,1895846,2468,826,-527,-1481,-298,-43,250,216,-184
1,1895863,2468,828,-530,-1476,-304,-47,250,216,-184
1,1895877,2468,828,-530,-1476,-304,-47,250,216,-184
1,1895890,2466,828,-528,-1489,-296,-44,250,216,-184
1,1895905,2469,826,-526,-1479,-299,-34,250,216,-184
1,1895915,2469,826,-526,-1479,-299,-34,250,216,-184
1,1895928,2469,824,-532,-1478,-305,-42,250,216,-184
1,1895943,2466,828,-529,-1480,-299,-40,250,216,-184
1,1895957,2466,828,-529,-1480,-299,-40,250,216,-184
1,1895972,2467,826,-527,-1484,-303,-44,257,225,-185
1,1895986,2467,825,-529,-1486,-309,-38,257,225,-185
1,1895999,2467,825,-529,-1486,-309,-38,257,225,-185
1,1896010,2468,828,-529,-1481,-311,-36,257,225,-185
1,1896024,2464,825,-531,-1477,-310,-38,257,225,-185
1,1896038,2464,825,-531,-1477,-310,-38,257,225,-185
1,1896051,2466,827,-528,-1479,-301,-48,257,225,-185
1,1896066,2465,822,-533,-1474,-298,-41,257,225,-185
1,1896077,2465,822,-533,-1474,-298,-41,257,225,-185
1,1896090,2468,824,-535,-1478,-304,-43,259,221,-189
1,1896104,2466,824,-527,-1471,-301,-45,259,221,-189
1,1896120,2466,824,-527,-1471,-301,-45,259,221,-189
1,1896131,2467,825,-529,-1474,-300,-42,259,221,-189
1,1896145,2464,828,-530,-1479,-304,-39,259,221,-189
1,1896161,2465,826,-529,-1475,-296,-35,259,221,-189
1,1896174,2465,826,-529,-1475,-296,-35,259,221,-189
1,1896187,2464,828,-531,-1477,-305,-47,259,221,-189
1,1896201,2467,825,-530,-1480,-300,-42,259,221,-189
1,1896214,2467,825,-530,-1480,-300,-42,259,221,-189
1,1896229,2465,826,-527,-1475,-299,-34,257,211,-193
1,1896244,2467,827,-526,-1479,-297,-44,257,211,-193
1,1896258,2467,827,-526,-1479,-297,-44,257,211,-193
1,1896271,2468,827,-526,-1484,-301,-43,257,211,-193
1,1896285,2468,828,-525,-1482,-303,-37,257,211,-193
1,1896300,2468,828,-525,-1482,-303,-37,257,211,-193
1,1896315,2466,825,-529,-1478,-298,-45,257,211,-193
1,1896330,2467,828,-533,-1477,-308,-39,257,211,-193
1,1896342,2466,829,-524,-1485,-310,-39,249,215,-179
1,1896357,2466,829,-524,-1485,-310,-39,249,215,-179
1,1896373,2466,828,-530,-1479,-305,-38,249,215,-179
1,1896384,2465,827,-532,-1486,-306,-47,249,215,-179
1,1896396,2465,827,-532,-1486,-306,-47,249,215,-179
1,1896412,2467,824,-532,-1479,-309,-47,249,215,-179
1,1896425,2466,826,-528,-1481,-303,-41,249,215,-179
1,1896439,2466,826,-528,-1481,-303,-41,249,215,-179
1,1896454,2465,825,-530,-1478,-307,-46,249,215,-179
1,1896467,2467,828,-530,-1486,-302,-45,253,215,-185
1,1896479,2467,828,-530,-1486,-302,-45,253,215,-185
1,1896493,2467,828,-532,-1476,-301,-38,253,215,-185
1,1896506,2467,825,-526,-1487,-307,-41,253,215,-185
1,1896520,2464,826,-527,-1483,-304,-40,253,215,-185
1,1896535,2464,826,-527,-1483,-304,-40,253,215,-185
1,1896546,2469,827,-532,-1476,-305,-41,253,215,-185
1,1896559,2469,827,-532,-1476,-305,-41,253,215,-185
1,1896574,2466,826,-528,-1479,-299,-41,253,215,-185
1,1896587,2465,827,-521,-1476,-302,-39,254,220,-190
1,1896599,2465,827,-521,-1476,-302,-39,254,220,-190
1,1896613,2466,827,-529,-1481,-302,-37,254,220,-190
1,1896628,2466,824,-525,-1485,-305,-40,254,220,-190
1,1896640,2468,827,-527,-1487,-305,-43,254,220,-190
1,1896653,2468,827,-527,-1487,-305,-43,254,220,-190
1,1896667,2468,827,-528,-1481,-305,-33,254,220,-190
1,1896682,2466,825,-530,-1478,-303,-37,254,220,-190
1,1896694,2466,825,-530,-1478,-303,-37,254,220,-190
1,1896708,2466,823,-531,-1477,-302,-42,254,220,-190
1,1896722,2465,827,-527,-1482,-302,-37,252,208,-188
1,1896736,2465,827,-527,-1482,-302,-37,252,208,-188
1,1896745,2467,825,-529,-1479,-299,-37,252,208,-188
1,1896760,2467,825,-529,-1479,-299,-37,252,208,-188
1,1896774,2469,827,-532,-1481,-303,-31,252,208,-188
1,1896786,2468,830,-530,-1480,-302,-36,252,208,-188
1,1896800,2468,830,-530,-1480,-302,-36,252,208,-188
1,1896814,2465,824,-533,-1478,-303,-38,252,208,-188
1,1896828,2467,828,-527,-1481,-310,-35,252,208,-188
1,1896842,2467,830,-528,-1476,-302,-39,246,222,-186
1,1896856,2467,830,-528,-1476,-302,-39,246,222,-186
1,1896869,2469,825,-525,-1478,-309,-39,246,222,-186
1,1896884,2469,825,-525,-1478,-309,-39,246,222,-186
1,1896895,2469,825,-525,-1478,-309,-39,246,222,-186
1,1896909,2467,826,-531,-1486,-302,-40,246,222,-186
1,1896923,2468,825,-530,-1481,-303,-41,246,222,-186
1,1896937,2468,825,-530,-1481,-303,-41,246,222,-186
1,1896951,2467,823,-525,-1477,-304,-41,246,222,-186
1,1896963,2469,826,-525,-1481,-305,-40,241,219,-185
1,1896977,2469,826,-525,-1481,-305,-40,241,219,-185
1,1896992,2466,827,-532,-1481,-305,-39,241,219,-185
1,1897008,2464,827,-533,-1479,-309,-40,241,219,-185
1,1897020,2466,829,-531,-1481,-308,-38,241,219,-185
1,1897033,2466,829,-531,-1481,-308,-38,241,219,-185
1,1897048,2464,826,-529,-1488,-307,-38,241,219,-185
1,1897061,2465,827,-529,-1482,-302,-38,241,219,-185
1,1897074,2465,827,-529,-1482,-302,-38,241,219,-185
1,1897089,2464,825,-526,-1484,-304,-32,250,218,-186
1,1897103,2467,826,-524,-1482,-309,-38,250,218,-186
1,1897117,2467,826,-524,-1482,-309,-38,250,218,-186
1,1897129,2464,824,-527,-1480,-310,-43,250,218,-186
1,1897143,2466,825,-527,-1479,-305,-36,250,218,-186
1,1897156,2466,825,-527,-1479,-305,-36,250,218,-186
1,1897170,2464,826,-527,-1481,-303,-33,250,218,-186
1,1897186,2467,827,-530,-1481,-308,-37,250,218,-186
1,1897200,2468,828,-537,-1478,-305,-38,250,218,-186
1,1897213,2468,828,-537,-1478,-305,-38,250,218,-186
1,1897229,2465,826,-527,-1483,-297,-35,255,213,-193
1,1897244,2465,828,-529,-1487,-306,-37,255,213,-193
1,1897257,2465,828,-529,-1487,-306,-37,255,213,-193
1,1897270,2465,829,-526,-1474,-304,-36,255,213,-193
1,1897283,2468,827,-532,-1485,-309,-40,255,213,-193
1,1897296,2468,827,-532,-1485,-309,-40,255,213,-193
1,1897304,2467,825,-526,-1480,-305,-41,255,213,-193
1,1897319,2467,825,-526,-1480,-305,-41,255,213,-193
1,1897334,2468,825,-531,-1484,-301,-41,255,213,-193
1,1897348,2465,827,-526,-1481,-305,-31,250,216,-186
1,1897361,2469,824,-527,-1479,-309,-35,250,216,-186
1,1897374,2469,824,-527,-1479,-309,-35,250,216,-186
1,1897390,2469,826,-533,-1478,-314,-34,250,216,-186
1,1897404,2466,827,-531,-1482,-309,-31,250,216,-186
1,1897415,2466,827,-531,-1482,-309,-31,250,216,-186
1,1897431,2469,829,-535,-1485,-305,-35,250,216,-186
1,1897445,2467,826,-530,-1479,-309,-37,250,216,-186
1,1897460,2466,825,-525,-1485,-302,-42,250,216,-186
1,1897474,2466,825,-525,-1485,-302,-42,249,225,-195
1,1897487,2463,825,-531,-1480,-308,-41,249,225,-195
1,1897502,2468,829,-526,-1473,-305,-33,249,225,-195
1,1897518,2468,829,-526,-1473,-305,-33,249,225,-195
1,1897531,2466,826,-533,-1477,-303,-41,249,225,-195
1,1897544,2466,827,-526,-1479,-303,-43,249,225,-195
1,1897559,2466,827,-526,-1479,-303,-43,249,225,-195
1,1897572,2465,827,-528,-1478,-303,-42,249,225,-195
1,1897587,2466,829,-528,-1476,-301,-41,258,212,-188
1,1897601,2467,827,-530,-1478,-299,-43,258,212,-188
1,1897615,2467,827,-530,-1478,-299,-43,258,212,-188
1,1897626,2468,826,-529,-1477,-303,-34,258,212,-188
1,1897640,2468,826,-529,-1477,-303,-34,258,212,-188
1,1897656,2466,827,-529,-1477,-303,-40,258,212,-188
1,1897669,2465,828,-533,-1480,-307,-47,258,212,-188
1,1897682,2465,829,-532,-1472,-306,-40,258,212,-188
1,1897698,2465,829,-532,-1472,-306,-40,258,212,-188
1,1897713,2466,827,-528,-1478,-303,-41,258,212,-188
1,1897729,2467,827,-525,-1482,-300,-33,258,212,-188
1,1897741,2467,827,-529,-1477,-306,-38,258,212,-188
1,1897754,2467,827,-529,-1477,-306,-38,258,212,-188
1,1897768,2467,827,-530,-1479,-297,-37,258,212,-188
1,1897783,2466,830,-530,-1472,-304,-36,258,212,-188
1,1897796,2466,830,-530,-1472,-304,-36,258,212,-188
1,1897810,2466,827,-528,-1474,-304,-33,258,212,-188
1,1897823,2468,827,-529,-1476,-305,-42,258,212,-188
1,1897837,2468,827,-529,-1476,-305,-42,258,212,-188
1,1897849,2464,825,-527,-1474,-313,-38,246,220,-188
1,1897864,2467,825,-532,-1474,-304,-34,246,220,-188
1,1897877,2467,825,-532,-1474,-304,-34,246,220,-188
1,1897891,2467,826,-532,-1476,-308,-34,246,220,-188
1,1897908,2466,829,-521,-1473,-306,-40,246,220,-188
1,1897923,2470,828,-529,-1480,-304,-41,246,220,-188
1,1897936,2470,828,-529,-1480,-304,-41,246,220,-188
1,1897950,2471,825,-532,-1489,-302,-35,246,220,-188
1,1897965,2468,824,-525,-1487,-301,-43,247,215,-187
1,1897980,2468,824,-525,-1487,-301,-43,247,215,-187
1,1897991,2465,824,-526,-1483,-298,-34,247,215,-187
1,1898005,2465,826,-529,-1480,-305,-36,247,215,-187
1,1898018,2465,826,-529,-1480,-305,-36,247,215,-187
1,1898032,2468,827,-532,-1475,-301,-39,247,215,-187
1,1898046,2468,828,-527,-1478,-304,-43,247,215,-187
1,1898060,2468,828,-527,-1478,-304,-43,247,215,-187
1,1898076,2469,826,-529,-1474,-300,-41,247,215,-187
1,1898087,2468,824,-523,-1479,-303,-37,246,222,-192
1,1898100,2468,825,-526,-1484,-310,-41,246,222,-192
1,1898115,2468,825,-526,-1484,-310,-41,246,222,-192
1,1898128,2466,824,-530,-1478,-308,-44,246,222,-192
1,1898143,2465,826,-532,-1478,-305,-38,246,222,-192
1,1898157,2465,826,-532,-1478,-305,-38,246,222,-192
1,1898170,2465,826,-526,-1479,-309,-40,246,222,-192
1,1898184,2463,826,-533,-1483,-309,-39,246,222,-192
1,1898201,2470,827,-529,-1482,-302,-36,250,214,-186
1,1898216,2470,827,-529,-1482,-302,-36,250,214,-186
1,1898229,2466,828,-525,-1478,-315,-38,250,214,-186
1,1898242,2467,826,-532,-1475,-311,-31,250,214,-186
1,1898255,2467,826,-532,-1475,-311,-31,250,214,-186
1,1898269,2466,825,-529,-1482,-307,-34,250,214,-186
1,1898283,2468,827,-526,-1480,-302,-37,250,214,-186
1,1898296,2468,827,-526,-1480,-302,-37,250,214,-186
1,1898310,2465,826,-526,-1477,-301,-37,250,214,-186
1,1898323,2466,826,-529,-1473,-299,-36,250,214,-186
1,1898336,2466,826,-529,-1473,-299,-36,250,214,-186
1,1898351,2468,827,-522,-1474,-302,-39,250,226,-184
1,1898368,2468,828,-530,-1480,-305,-42,250,226,-184
1,1898379,2468,828,-530,-1480,-305,-42,250,226,-184
1,1898393,2467,828,-530,-1484,-303,-44,250,226,-184
1,1898408,2468,827,-527,-1480,-303,-39,250,226,-184
1,1898424,2467,828,-531,-1476,-303,-40,250,226,-184
1,1898439,2467,828,-531,-1476,-303,-40,250,226,-184
1,1898454,2466,826,-527,-1473,-304,-45,250,226,-184
1,1898467,2461,828,-526,-1476,-301,-36,252,218,-186
1,1898481,2468,827,-529,-1481,-311,-34,252,218,-186
1,1898496,2468,827,-529,-1481,-311,-34,252,218,-186
1,1898510,2465,825,-531,-1474,-304,-40,252,218,-186
1,1898522,2468,827,-531,-1477,-299,-34,252,218,-186
1,1898536,2468,827,-531,-1477,-299,-34,252,218,-186
1,1898551,2468,827,-532,-1474,-298,-39,252,218,-186
1,1898564,2467,823,-533,-1477,-303,-42,252,218,-186
1,1898578,2467,823,-533,-1477,-303,-42,252,218,-186
1,1898596,2465,824,-527,-1481,-300,-36,253,223,-185
1,1898611,2465,827,-530,-1481,-304,-42,253,223,-185
1,1898627,2467,825,-526,-1483,-309,-45,253,223,-185
1,1898640,2467,825,-526,-1483,-309,-45,253,223,-185
1,1898654,2468,826,-526,-1482,-296,-38,253,223,-185
1,1898670,2465,829,-530,-1476,-301,-36,253,223,-185
1,1898685,2466,826,-530,-1476,-307,-43,253,223,-185
1,1898701,2467,826,-527,-1484,-304,-38,253,223,-185
1,1898716,2467,826,-527,-1484,-304,-38,252,210,-186
1,1898728,2467,826,-531,-1484,-300,-47,252,210,-186
1,1898740,2467,826,-531,-1484,-300,-47,252,210,-186
1,1898754,2466,825,-527,-1478,-305,-40,252,210,-186
1,1898768,2468,824,-530,-1485,-299,-30,252,210,-186
1,1898782,2467,829,-529,-1485,-300,-41,252,210,-186
1,1898798,2467,829,-529,-1485,-300,-41,252,210,-186
1,1898809,2465,824,-533,-1476,-304,-36,252,210,-186
1,1898822,2467,828,-533,-1473,-300,-42,252,210,-186
1,1898838,2467,828,-533,-1473,-300,-42,252,210,-186
1,1898853,2466,829,-532,-1477,-308,-41,254,214,-192
1,1898868,2465,827,-527,-1478,-306,-38,254,214,-192
1,1898884,2467,827,-526,-1479,-304,-32,254,214,-192
1,1898896,2467,827,-526,-1479,-304,-32,254,214,-192
1,1898911,2464,824,-528,-1481,-300,-40,254,214,-192
1,1898927,2466,825,-532,-1484,-297,-41,254,214,-192
1,1898941,2466,825,-532,-1484,-297,-41,254,214,-192
1,1898954,2468,826,-532,-1478,-307,-36,254,214,-192
1,1898968,2466,826,-529,-1476,-307,-35,254,214,-194
1,1898979,2466,826,-529,-1476,-307,-35,254,214,-194
1,1898994,2466,828,-527,-1479,-308,-38,254,214,-194
1,1899010,2467,829,-529,-1482,-306,-37,254,214,-194
1,1899023,2466,826,-529,-1483,-301,-42,254,214,-194
1,1899037,2466,826,-529,-1483,-301,-42,254,214,-194
1,1899051,2465,828,-530,-1479,-301,-33,254,214,-194
1,1899065,2466,828,-530,-1485,-304,-34,254,214,-194
1,1899077,2466,828,-530,-1485,-304,-34,254,214,-194
1,1899090,2466,828,-526,-1482,-309,-32,258,220,-188
1,1899106,2467,827,-528,-1480,-305,-31,258,220,-188
1,1899121,2464,826,-531,-1484,-306,-38,258,220,-188
1,1899137,2464,826,-531,-1484,-306,-38,258,220,-188
1,1899152,2467,826,-528,-1484,-300,-38,258,220,-188
1,1899163,2468,828,-530,-1484,-298,-34,258,220,-188
1,1899177,2468,828,-530,-1484,-298,-34,258,220,-188
1,1899191,2465,829,-530,-1481,-300,-31,258,220,-188
1,1899205,2466,826,-527,-1478,-302,-36,255,227,-191
1,1899218,2466,826,-527,-1478,-302,-36,255,227,-191
1,1899233,2468,828,-529,-1471,-307,-36,255,227,-191
1,1899242,2464,826,-531,-1478,-313,-33,255,227,-191
1,1899254,2464,826,-531,-1478,-313,-33,255,227,-191
1,1899269,2467,828,-530,-1479,-307,-36,255,227,-191
1,1899283,2466,825,-527,-1483,-309,-42,255,227,-191
1,1899298,2466,825,-527,-1483,-309,-42,255,227,-191
1,1899314,2469,824,-530,-1482,-302,-39,255,227,-191
1,1899329,2464,823,-530,-1480,-308,-42,255,227,-191
1,1899344,2468,828,-529,-1479,-307,-39,248,218,-186
1,1899358,2468,828,-529,-1479,-307,-39,248,218,-186
1,1899372,2464,824,-528,-1479,-307,-39,248,218,-186
1,1899385,2468,827,-528,-1475,-311,-36,248,218,-186
1,1899398,2468,827,-528,-1475,-311,-36,248,218,-186
1,1899411,2465,826,-529,-1477,-307,-45,248,218,-186
1,1899425,2466,827,-533,-1486,-300,-46,248,218,-186
1,1899439,2466,827,-533,-1486,-300,-46,248,218,-186
1,1899453,2468,827,-535,-1486,-306,-37,248,218,-186
1,1899468,2468,826,-527,-1477,-303,-40,250,218,-188
1,1899482,2464,825,-531,-1488,-303,-38,250,218,-188
1,1899494,2464,825,-531,-1488,-303,-38,250,218,-188
1,1899508,2466,827,-529,-1478,-305,-35,250,218,-188
1,1899523,2465,830,-534,-1477,-300,-40,250,218,-188
1,1899536,2465,830,-534,-1477,-300,-40,250,218,-188
1,1899552,2467,828,-531,-1481,-304,-37,250,218,-188
1,1899568,2466,825,-529,-1473,-301,-38,250,218,-188
1,1899582,2466,825,-522,-1481,-304,-43,252,216,-192
1,1899597,2466,825,-522,-1481,-304,-43,252,216,-192
1,1899613,2466,829,-526,-1473,-305,-36,252,216,-192
1,1899627,2469,827,-527,-1474,-305,-41,252,216,-192
1,1899639,2469,827,-527,-1474,-305,-41,252,216,-192
1,1899653,2469,827,-527,-1474,-305,-41,252,216,-192
1,1899666,2468,826,-528,-1481,-300,-39,252,216,-192
1,1899679,2468,826,-528,-1481,-300,-39,252,216,-192
1,1899694,2468,828,-531,-1476,-302,-44,252,216,-192
1,1899707,2464,829,-529,-1483,-305,-39,251,227,-195
1,1899720,2464,829,-529,-1483,-305,-39,251,227,-195
1,1899735,2467,826,-524,-1483,-311,-38,251,227,-195
1,1899748,2467,825,-526,-1473,-303,-34,251,227,-195
1,1899761,2467,825,-526,-1473,-303,-34,251,227,-195
1,1899776,2464,828,-530,-1472,-304,-32,251,227,-195
1,1899792,2469,828,-525,-1473,-304,-32,251,227,-195
1,1899807,2465,825,-534,-1479,-307,-32,251,227,-195
1,1899822,2466,829,-534,-1480,-306,-27,252,226,-188
1,1899835,2466,829,-534,-1480,-306,-27,252,226,-188
1,1899848,2462,824,-528,-1478,-309,-36,252,226,-188
1,1899864,2465,826,-527,-1482,-309,-37,252,226,-188
1,1899879,2465,826,-527,-1482,-309,-37,252,226,-188
1,1899892,2471,829,-526,-1473,-308,-35,252,226,-188
1,1899907,2469,828,-530,-1478,-308,-38,252,226,-188
1,1899921,2469,828,-530,-1478,-308,-38,252,226,-188
1,1899930,2464,827,-531,-1476,-300,-36,252,226,-188
1,1899944,2466,828,-530,-1476,-297,-40,252,226,-188
1,1899958,2466,828,-530,-1476,-297,-40,252,226,-188
1,1899971,2469,828,-528,-1482,-308,-41,256,228,-188
1,1899986,2468,828,-526,-1485,-304,-42,256,228,-188
1,1900001,2468,828,-526,-1485,-304,-42,256,228,-188
1,1900014,2468,827,-529,-1477,-305,-35,256,228,-188
1,1900027,2465,827,-534,-1475,-303,-44,256,228,-188
1,1900043,2464,824,-531,-1480,-299,-41,256,228,-188
1,1900058,2464,824,-531,-1480,-299,-41,256,228,-188
1,1900075,2466,826,-530,-1482,-302,-44,256,228,-188
1,1900086,2468,827,-522,-1482,-293,-38,252,212,-192
1,1900098,2468,827,-522,-1482,-293,-38,252,212,-192
1,1900112,2465,825,-525,-1475,-297,-44,252,212,-192
1,1900121,2465,825,-525,-1475,-297,-44,252,212,-192
1,1900131,2465,824,-529,-1470,-303,-35,252,212,-192
1,1900139,2465,824,-529,-1470,-303,-35,252,212,-192
1,1900148,2466,827,-532,-1472,-302,-38,252,212,-192
1,1900162,2469,828,-525,-1480,-301,-33,252,212,-192
1,1900175,2469,828,-525,-1480,-301,-33,252,212,-192
1,1900189,2466,828,-531,-1481,-305,-36,252,212,-192
1,1900201,2465,827,-528,-1476,-305,-41,252,212,-192
1,1900213,2465,827,-528,-1476,-305,-41,250,220,-188
1,1900228,2466,826,-530,-1477,-303,-44,250,220,-188
1,1900241,2466,828,-527,-1479,-305,-38,250,220,-188
1,1900257,2466,828,-527,-1479,-305,-38,250,220,-188
1,1900271,2468,828,-528,-1482,-306,-32,250,220,-188
1,1900282,2467,825,-530,-1479,-300,-32,250,220,-188
1,1900296,2467,825,-530,-1479,-300,-32,250,220,-188
1,1900311,2468,827,-537,-1477,-301,-41,250,220,-188
1,1900326,2466,826,-528,-1481,-304,-30,252,220,-188
1,1900340,2466,826,-528,-1481,-304,-30,252,220,-188
1,1900352,2464,827,-524,-1473,-310,-35,252,220,-188
1,1900365,2466,825,-525,-1475,-304,-35,252,220,-188
1,1900379,2466,825,-525,-1475,-304,-35,252,220,-188
1,1900392,2468,827,-530,-1482,-299,-36,252,220,-188
1,1900406,2466,827,-530,-1484,-307,-35,252,220,-188
1,1900419,2466,827,-530,-1484,-307,-35,252,220,-188
1,1900431,2464,828,-527,-1481,-302,-42,252,220,-188
1,1900445,2466,825,-531,-1484,-306,-44,252,220,-188
1,1900462,2465,824,-526,-1481,-306,-37,246,212,-192
1,1900477,2465,824,-526,-1481,-306,-37,246,212,-192
1,1900490,2465,825,-525,-1476,-305,-29,246,212,-192
1,1900503,2467,827,-529,-1476,-307,-29,246,212,-192
1,1900518,2467,827,-529,-1476,-307,-29,246,212,-192
1,1900531,2467,827,-524,-1483,-309,-35,246,212,-192
1,1900545,2469,828,-527,-1481,-309,-35,246,212,-192
1,1900558,2469,828,-527,-1481,-309,-35,246,212,-192
1,1900572,2467,826,-530,-1481,-305,-33,246,212,-192
1,1900588,2468,826,-524,-1482,-302,-32,251,213,-181
1,1900599,2468,826,-524,-1482,-302,-32,251,213,-181
1,1900613,2465,825,-527,-1481,-304,-36,251,213,-181
1,1900626,2467,822,-531,-1482,-300,-38,251,213,-181
1,1900641,2467,822,-531,-1482,-300,-38,251,213,-181
1,1900656,2468,827,-532,-1484,-302,-35,251,213,-181
1,1900670,2465,827,-532,-1472,-305,-36,251,213,-181
1,1900683,2467,826,-525,-1478,-301,-41,251,213,-181
1,1900697,2467,826,-525,-1478,-301,-41,251,213,-181
1,1900712,2467,825,-528,-1482,-298,-38,249,219,-193
1,1900725,2466,826,-529,-1472,-298,-42,249,219,-193
1,1900739,2466,826,-529,-1472,-298,-42,249,219,-193
1,1900753,2465,828,-531,-1483,-300,-38,249,219,-193
1,1900769,2465,825,-530,-1480,-301,-40,249,219,-193
1,1900783,2469,826,-530,-1484,-295,-36,249,219,-193
1,1900796,2469,826,-530,-1484,-295,-36,249,219,-193
1,1900811,2470,828,-530,-1495,-300,-36,249,219,-193
1,1900825,2467,827,-529,-1478,-304,-38,256,214,-188
1,1900837,2467,827,-529,-1478,-304,-38,256,214,-188
1,1900850,2466,829,-526,-1482,-300,-45,256,214,-188
1,1900865,2467,827,-525,-1478,-303,-38,256,214,-188
1,1900880,2467,827,-525,-1478,-303,-38,256,214,-188
1,1900896,2469,828,-536,-1472,-301,-35,256,214,-188
1,1900907,2466,825,-530,-1472,-313,-38,256,214,-188
1,1900921,2467,828,-530,-1476,-304,-37,256,214,-188
1,1900937,2467,828,-530,-1476,-304,-37,256,214,-188
1,1900953,2467,829,-527,-1475,-304,-36,256,214,-188
1,1900966,2467,826,-525,-1477,-300,-47,248,218,-194
1,1900981,2467,826,-525,-1477,-300,-47,248,218,-194
1,1900994,2466,826,-528,-1479,-301,-38,248,218,-194
1,1901008,2465,824,-531,-1477,-310,-32,248,218,-194
1,1901025,2466,828,-529,-1479,-298,-32,248,218,-194
1,1901036,2466,828,-529,-1479,-298,-32,248,218,-194
1,1901049,2466,827,-528,-1480,-305,-38,248,218,-194
1,1901064,2465,828,-533,-1476,-304,-43,248,218,-194
1,1901078,2465,828,-533,-1476,-304,-43,248,218,-194
1,1901092,2465,826,-528,-1484,-304,-45,254,220,-184
1,1901108,2466,826,-530,-1481,-300,-45,254,220,-184
1,1901122,2468,828,-526,-1481,-309,-45,254,220,-184
1,1901137,2468,828,-526,-1481,-309,-45,254,220,-184
1,1901151,2468,830,-530,-1486,-299,-50,254,220,-184
1,1901165,2468,826,-529,-1477,-304,-45,254,220,-184
1,1901179,2468,826,-529,-1477,-304,-45,254,220,-184
1,1901194,2465,824,-528,-1470,-304,-37,254,220,-184
1,1901207,2467,824,-526,-1471,-301,-37,256,216,-178
1,1901220,2467,824,-526,-1471,-301,-37,256,216,-178
1,1901234,2467,825,-531,-1477,-306,-41,256,216,-178
1,1901248,2468,824,-530,-1477,-305,-39,256,216,-178
1,1901256,2468,824,-530,-1477,-305,-39,256,216,-178
1,1901267,2468,829,-531,-1480,-306,-39,256,216,-178
1,1901282,2468,829,-531,-1480,-306,-39,256,216,-178
1,1901295,2469,827,-526,-1480,-304,-37,256,216,-178
1,1901309,2465,826,-527,-1475,-310,-38,256,216,-178
1,1901325,2466,828,-526,-1483,-303,-35,248,216,-188
1,1901339,2466,828,-526,-1483,-303,-35,248,216,-188
1,1901352,2467,826,-524,-1485,-310,-35,248,216,-188
1,1901367,2465,826,-526,-1488,-308,-39,248,216,-188
1,1901381,2465,826,-526,-1488,-308,-39,248,216,-188
1,1901393,2463,828,-527,-1480,-307,-36,248,216,-188
1,1901408,2465,825,-528,-1475,-300,-32,248,216,-188
1,1901422,2464,828,-526,-1482,-308,-39,248,216,-188
1,1901435,2464,828,-526,-1482,-308,-39,248,216,-188
1,1901449,2466,825,-532,-1476,-299,-38,248,216,-188
1,1901463,2465,827,-528,-1473,-299,-36,251,225,-191
1,1901476,2465,827,-528,-1473,-299,-36,251,225,-191
1,1901489,2464,826,-532,-1478,-305,-34,251,225,-191
1,1901503,2465,825,-528,-1477,-306,-39,251,225,-191
1,1901517,2465,825,-528,-1477,-306,-39,251,225,-191
1,1901533,2465,827,-531,-1484,-309,-43,251,225,-191
1,1901547,2466,829,-529,-1485,-299,-42,251,225,-191
1,1901560,2466,829,-529,-1485,-299,-42,251,225,-191
1,1901576,2471,825,-535,-1476,-299,-37,251,225,-191
1,1901591,2466,825,-523,-1477,-301,-40,254,208,-182
1,1901606,2467,823,-528,-1479,-303,-40,254,208,-182
1,1901620,2467,823,-528,-1479,-303,-40,254,208,-182
1,1901633,2466,827,-525,-1477,-306,-36,254,208,-182
1,1901647,2467,826,-532,-1478,-304,-39,254,208,-182
1,1901660,2467,826,-532,-1478,-304,-39,254,208,-182
1,1901674,2466,823,-529,-1473,-311,-39,254,208,-182
1,1901688,2469,823,-528,-1479,-302,-38,254,208,-182
1,1901703,2469,825,-522,-1481,-301,-31,256,216,-190
1,1901716,2469,825,-522,-1481,-301,-31,256,216,-190
1,1901728,2469,826,-525,-1476,-301,-29,256,216,-190
1,1901740,2469,826,-525,-1476,-301,-29,256,216,-190
1,1901754,2466,825,-528,-1478,-301,-30,256,216,-190
1,1901769,2464,828,-530,-1484,-306,-38,256,216,-190
1,1901785,2467,825,-534,-1479,-306,-37,256,216,-190
1,1901799,2467,825,-534,-1479,-306,-37,256,216,-190
1,1901811,2467,828,-532,-1483,-299,-36,256,216,-190
1,1901825,2466,827,-521,-1480,-303,-45,252,216,-186
1,1901840,2466,827,-521,-1480,-303,-45,252,216,-186
1,1901854,2468,827,-525,-1475,-300,-35,252,216,-186
1,1901868,2465,827,-529,-1481,-302,-40,252,216,-186
1,1901882,2465,827,-529,-1481,-302,-40,252,216,-186
1,1901896,2467,825,-528,-1484,-301,-38,252,216,-186
1,1901911,2466,825,-531,-1477,-303,-38,252,216,-186
1,1901923,2467,826,-527,-1471,-303,-46,252,216,-186
1,1901937,2467,826,-527,-1471,-303,-46,252,216,-186
1,1901953,2465,824,-531,-1484,-301,-37,250,212,-176
1,1901967,2466,826,-526,-1486,-308,-33,250,212,-176
1,1901981,2466,826,-526,-1486,-308,-33,250,212,-176
1,1901997,2466,825,-529,-1476,-299,-37,250,212,-176
1,1902012,2468,826,-525,-1478,-301,-38,250,212,-176
1,1902027,2467,823,-528,-1488,-297,-31,250,212,-176
1,1902043,2468,827,-527,-1478,-302,-38,250,212,-176
1,1902056,2468,827,-527,-1478,-302,-38,250,212,-176
1,1902070,2464,827,-527,-1476,-304,-37,250,212,-176
1,1902085,2467,826,-524,-1474,-306,-38,250,218,-186
1,1902098,2467,826,-524,-1474,-306,-38,250,218,-186
1,1902109,2465,828,-528,-1480,-302,-32,250,218,-186
1,1902124,2466,824,-531,-1485,-306,-38,250,218,-186
1,1902137,2466,824,-531,-1485,-306,-38,250,218,-186
1,1902145,2465,827,-529,-1481,-306,-35,250,218,-186
1,1902157,2465,827,-529,-1481,-306,-35,250,218,-186
1,1902171,2466,825,-535,-1484,-307,-37,250,218,-186
1,1902186,2469,826,-528,-1486,-304,-38,250,218,-186
1,1902200,2469,826,-528,-1486,-304,-38,250,218,-186
1,1902209,2466,827,-527,-1477,-309,-37,250,210,-190
1,1902220,2466,827,-527,-1477,-309,-37,250,210,-190
1,1902228,2466,825,-529,-1477,-307,-39,250,210,-190
1,1902236,2466,825,-529,-1477,-307,-39,250,210,-190
1,1902251,2467,824,-529,-1477,-302,-37,250,210,-190
1,1902264,2467,825,-527,-1482,-304,-48,250,210,-190
1,1902272,2467,825,-527,-1482,-304,-48,250,210,-190
1,1902280,2467,825,-527,-1482,-304,-48,250,210,-190
1,1902295,2465,827,-528,-1485,-309,-33,250,210,-190
1,1902309,2468,830,-524,-1491,-309,-27,250,210,-190
1,1902323,2468,827,-525,-1479,-302,-40,255,223,-175
1,1902337,2468,827,-525,-1479,-302,-40,255,223,-175
1,1902352,2466,826,-530,-1473,-303,-35,255,223,-175
1,1902363,2464,826,-531,-1477,-304,-35,255,223,-175
1,1902376,2464,826,-531,-1477,-304,-35,255,223,-175
1,1902390,2464,829,-524,-1478,-300,-41,255,223,-175
1,1902403,2468,824,-527,-1475,-306,-37,255,223,-175
1,1902416,2468,824,-527,-1475,-306,-37,255,223,-175
1,1902433,2466,827,-528,-1481,-307,-42,255,223,-175
1,1902448,2469,825,-526,-1482,-299,-40,251,215,-199
1,1902459,2469,825,-526,-1482,-299,-40,251,215,-199
1,1902474,2466,825,-525,-1480,-304,-33,251,215,-199
1,1902488,2465,825,-532,-1473,-308,-36,251,215,-199
1,1902503,2466,823,-528,-1480,-303,-39,251,215,-199
1,1902517,2466,823,-528,-1480,-303,-39,251,215,-199
1,1902530,2464,828,-527,-1478,-302,-48,251,215,-199
1,1902545,2469,827,-535,-1484,-302,-50,251,215,-199
1,1902559,2469,827,-535,-1484,-302,-50,251,215,-199
1,1902572,2469,827,-535,-1484,-302,-50,251,215,-199
1,1902586,2469,827,-521,-1482,-305,-39,249,225,-187
1,1902600,2469,827,-521,-1482,-305,-39,249,225,-187
1,1902615,2466,827,-532,-1486,-303,-37,249,225,-187
1,1902628,2465,824,-525,-1481,-297,-36,249,225,-187
1,1902642,2465,824,-525,-1481,-297,-36,249,225,-187
1,1902656,2467,825,-526,-1476,-298,-38,249,225,-187
1,1902669,2464,826,-522,-1474,-295,-38,249,225,-187
1,1902682,2464,826,-522,-1474,-295,-38,249,225,-187
1,1902697,2467,826,-530,-1477,-303,-35,249,225,-187
1,1902709,2466,829,-527,-1481,-308,-33,245,227,-193
1,1902725,2463,827,-522,-1481,-303,-47,245,227,-193
1,1902740,2463,827,-522,-1481,-303,-47,245,227,-193
1,1902755,2467,827,-529,-1477,-306,-42,245,227,-193
1,1902769,2466,823,-528,-1485,-303,-39,245,227,-193
1,1902781,2466,823,-528,-1485,-303,-39,245,227,-193
1,1902794,2466,827,-533,-1488,-304,-39,245,227,-193
1,1902809,2466,827,-528,-1483,-303,-44,245,227,-193
1,1902822,2466,827,-528,-1483,-303,-44,245,227,-193
1,1902836,2466,828,-525,-1477,-307,-44,250,222,-178
1,1902850,2467,823,-525,-1481,-304,-41,250,222,-178
1,1902862,2467,823,-525,-1481,-304,-41,250,222,-178
1,1902876,2465,827,-529,-1482,-301,-41,250,222,-178
1,1902892,2466,823,-526,-1482,-303,-36,250,222,-178
1,1902905,2467,828,-527,-1481,-306,-40,250,222,-178
1,1902919,2467,828,-527,-1481,-306,-40,250,222,-178
1,1902935,2467,827,-529,-1489,-307,-42,250,222,-178
1,1902950,2465,826,-531,-1486,-304,-44,256,218,-196
1,1902962,2465,826,-531,-1486,-304,-44,256,218,-196
1,1902970,2466,826,-528,-1480,-304,-35,256,218,-196
1,1902983,2465,829,-527,-1478,-302,-40,256,218,-196
1,1902998,2465,829,-527,-1478,-302,-40,256,218,-196
1,1903012,2469,826,-530,-1478,-303,-40,256,218,-196
1,1903027,2465,825,-529,-1469,-302,-34,256,218,-196
1,1903041,2465,825,-529,-1469,-302,-34,256,218,-196
1,1903054,2468,828,-528,-1480,-309,-37,256,218,-196
1,1903069,2465,829,-528,-1477,-304,-39,256,218,-196
1,1903081,2465,829,-528,-1477,-304,-39,256,218,-196
1,1903094,2465,827,-523,-1484,-298,-37,245,207,-189
1,1903108,2467,826,-527,-1487,-303,-39,245,207,-189
1,1903122,2467,826,-527,-1487,-303,-39,245,207,-189
1,1903136,2468,824,-529,-1476,-304,-37,245,207,-189
1,1903151,2467,826,-522,-1478,-308,-34,245,207,-189
1,1903162,2467,826,-522,-1478,-308,-34,245,207,-189
1,1903175,2467,827,-532,-1481,-310,-29,245,207,-189
1,1903190,2468,827,-526,-1486,-304,-33,245,207,-189
1,1903204,2468,827,-526,-1486,-304,-33,253,219,-181
1,1903219,2468,827,-526,-1486,-304,-33,253,219,-181
1,1903234,2466,827,-527,-1476,-307,-39,253,219,-181
1,1903249,2468,827,-526,-1480,-302,-41,253,219,-181
1,1903263,2468,824,-529,-1483,-307,-41,253,219,-181
1,1903277,2468,824,-529,-1483,-307,-41,253,219,-181
1,1903290,2468,824,-529,-1477,-297,-37,253,219,-181
1,1903304,2469,829,-535,-1476,-304,-34,253,219,-181
1,1903318,2469,829,-535,-1476,-304,-34,253,219,-181
1,1903331,2467,825,-526,-1473,-305,-41,252,214,-188
1,1903345,2469,827,-530,-1480,-306,-42,252,214,-188
1,1903360,2469,827,-530,-1480,-306,-42,252,214,-188
1,1903372,2471,830,-525,-1480,-305,-37,252,214,-188
1,1903387,2470,828,-528,-1475,-301,-37,252,214,-188
1,1903403,2466,828,-528,-1479,-303,-38,252,214,-188
1,1903417,2466,828,-528,-1479,-303,-38,252,214,-188
1,1903430,2465,825,-528,-1473,-304,-40,252,214,-188
1,1903446,2465,825,-528,-1473,-304,-40,248,210,-194
1,1903460,2465,825,-528,-1473,-304,-40,248,210,-194
1,1903470,2467,826,-527,-1479,-302,-47,248,210,-194
1,1903486,2466,826,-532,-1484,-307,-42,248,210,-194
1,1903502,2466,826,-532,-1484,-307,-42,248,210,-194
1,1903517,2467,827,-535,-1483,-303,-46,248,210,-194
1,1903532,2466,827,-529,-1476,-306,-39,248,210,-194
1,1903544,2462,827,-529,-1484,-300,-36,248,210,-194
1,1903552,2462,827,-529,-1484,-300,-36,248,210,-194
1,1903560,2462,827,-529,-1484,-300,-36,248,210,-194
1,1903568,2467,827,-528,-1486,-301,-41,248,210,-194
1,1903580,2467,827,-528,-1486,-301,-41,248,210,-194
1,1903593,2465,828,-526,-1482,-309,-34,253,219,-197
1,1903607,2467,825,-523,-1480,-301,-37,253,219,-197
1,1903621,2467,825,-523,-1480,-301,-37,253,219,-197
1,1903633,2465,826,-530,-1485,-295,-41,253,219,-197
1,1903647,2469,826,-530,-1486,-304,-41,253,219,-197
1,1903663,2469,826,-530,-1486,-304,-41,253,219,-197
1,1903677,2467,828,-531,-1480,-301,-38,253,219,-197
1,1903690,2468,828,-531,-1488,-305,-36,253,219,-197
1,1903705,2468,824,-529,-1480,-303,-41,256,212,-180
1,1903720,2468,824,-529,-1480,-303,-41,256,212,-180
1,1903735,2470,826,-527,-1476,-305,-44,256,212,-180
1,1903750,2466,826,-527,-1485,-298,-45,256,212,-180
1,1903764,2466,825,-526,-1481,-301,-41,256,212,-180
1,1903777,2466,825,-526,-1481,-301,-41,256,212,-180
1,1903791,2465,828,-531,-1474,-302,-38,256,212,-180
1,1903802,2465,828,-531,-1474,-302,-38,256,212,-180
1,1903816,2468,826,-530,-1483,-304,-33,256,212,-180
1,1903831,2467,828,-524,-1482,-306,-38,256,218,-190
1,1903844,2467,824,-528,-1486,-308,-34,256,218,-190
1,1903857,2467,824,-528,-1486,-308,-34,256,218,-190
1,1903869,2466,825,-526,-1479,-305,-40,256,218,-190
1,1903882,2466,825,-526,-1479,-305,-40,256,218,-190
1,1903897,2466,825,-525,-1483,-306,-37,256,218,-190
1,1903910,2466,825,-530,-1473,-308,-37,256,218,-190
1,1903925,2468,828,-531,-1473,-310,-40,256,218,-190
1,1903940,2468,828,-531,-1473,-310,-40,256,218,-190
1,1903955,2468,826,-527,-1479,-311,-39,250,214,-186
1,1903971,2467,826,-525,-1476,-308,-41,250,214,-186
1,1903985,2466,827,-522,-1478,-305,-36,250,214,-186
1,1903998,2466,827,-522,-1478,-305,-36,250,214,-186
1,1904013,2466,825,-529,-1477,-304,-37,250,214,-186
1,1904025,2467,826,-531,-1479,-302,-39,250,214,-186
1,1904036,2467,826,-531,-1479,-302,-39,250,214,-186
1,1904050,2466,826,-529,-1482,-296,-39,250,214,-186
1,1904064,2465,825,-533,-1476,-302,-37,257,217,-197
1,1904078,2465,825,-533,-1476,-302,-37,257,217,-197
1,1904093,2467,826,-525,-1474,-305,-38,257,217,-197
1,1904105,2466,827,-527,-1482,-309,-37,257,217,-197
1,1904118,2466,827,-527,-1482,-309,-37,257,217,-197
1,1904133,2467,824,-527,-1481,-309,-37,257,217,-197
1,1904149,2466,829,-528,-1473,-309,-34,257,217,-197
1,1904164,2466,827,-528,-1475,-309,-37,257,217,-197
1,1904178,2466,827,-528,-1475,-309,-37,257,217,-197
1,1904192,2465,826,-529,-1481,-304,-38,257,217,-197
1,1904207,2467,825,-527,-1484,-308,-51,244,218,-184
1,1904224,2465,826,-526,-1485,-302,-39,244,218,-184
1,1904239,2465,826,-526,-1485,-302,-39,244,218,-184
1,1904254,2466,830,-527,-1479,-306,-38,244,218,-184
1,1904270,2468,826,-528,-1480,-303,-37,244,218,-184
1,1904284,2467,826,-533,-1479,-299,-40,244,218,-184
1,1904300,2467,826,-533,-1479,-299,-40,244,218,-184
1,1904314,2464,826,-531,-1476,-301,-36,244,218,-184
1,1904328,2466,829,-526,-1480,-303,-33,256,214,-192
1,1904344,2468,827,-529,-1483,-301,-39,256,214,-192
1,1904355,2468,827,-529,-1483,-301,-39,256,214,-192
1,1904368,2467,826,-526,-1478,-311,-39,256,214,-192
1,1904384,2466,823,-524,-1482,-305,-41,256,214,-192
1,1904399,2466,823,-524,-1482,-305,-41,256,214,-192
1,1904414,2464,827,-528,-1486,-301,-35,256,214,-192
1,1904428,2468,828,-529,-1482,-301,-29,256,214,-192
1,1904442,2468,828,-529,-1482,-301,-29,256,214,-192
1,1904458,2465,827,-519,-1481,-305,-34,254,220,-188
1,1904474,2465,828,-525,-1475,-308,-33,254,220,-188
1,1904489,2467,829,-530,-1477,-304,-27,254,220,-188
1,1904505,2466,829,-529,-1489,-304,-29,254,220,-188
1,1904521,2466,829,-529,-1489,-304,-29,254,220,-188
1,1904535,2466,826,-530,-1482,-308,-38,254,220,-188
1,1904549,2468,827,-528,-1483,-310,-39,254,220,-188
1,1904564,2466,827,-526,-1471,-303,-39,250,220,-192
1,1904579,2466,827,-526,-1471,-303,-39,250,220,-192
1,1904592,2466,828,-527,-1471,-307,-40,250,220,-192
1,1904604,2465,827,-531,-1482,-303,-35,250,220,-192
1,1904617,2465,827,-531,-1482,-303,-35,250,220,-192
1,1904631,2466,827,-524,-1477,-307,-38,250,220,-192
1,1904646,2467,825,-530,-1483,-305,-36,250,220,-192
1,1904662,2467,825,-530,-1483,-305,-36,250,220,-192
1,1904677,2470,828,-532,-1471,-309,-35,250,220,-192
1,1904694,2467,827,-532,-1479,-304,-35,250,220,-192
1,1904709,2466,826,-525,-1477,-309,-42,252,210,-190
1,1904724,2468,826,-526,-1481,-313,-50,252,210,-190
1,1904741,2468,826,-526,-1481,-313,-50,252,210,-190
1,1904756,2467,829,-531,-1474,-307,-40,252,210,-190
1,1904772,2464,828,-533,-1481,-305,-38,252,210,-190
1,1904785,2464,827,-532,-1482,-307,-42,252,210,-190
1,1904799,2464,827,-532,-1482,-307,-42,252,210,-190
1,1904815,2469,827,-533,-1475,-313,-44,252,210,-190
1,1904830,2466,828,-526,-1476,-308,-35,254,214,-184
1,1904845,2466,827,-526,-1480,-305,-37,254,214,-184
1,1904860,2466,827,-526,-1480,-305,-37,254,214,-184
1,1904873,2468,827,-533,-1477,-306,-43,254,214,-184
1,1904886,2465,825,-526,-1483,-306,-44,254,214,-184
1,1904901,2465,825,-526,-1483,-306,-44,254,214,-184
1,1904915,2468,827,-525,-1479,-305,-46,254,214,-184
1,1904930,2467,825,-527,-1479,-299,-36,254,214,-184
1,1904943,2468,827,-522,-1482,-308,-33,254,214,-184
1,1904955,2468,827,-522,-1482,-308,-33,256,220,-184
1,1904970,2468,825,-526,-1487,-309,-37,256,220,-184
1,1904986,2468,827,-526,-1480,-305,-34,256,220,-184
1,1905001,2468,827,-526,-1480,-305,-34,256,220,-184
1,1905016,2467,829,-529,-1478,-302,-33,256,220,-184
1,1905029,2467,827,-532,-1476,-309,-30,256,220,-184
1,1905043,2467,827,-532,-1476,-309,-30,256,220,-184
1,1905051,2466,823,-527,-1476,-305,-37,256,220,-184
1,1905063,2467,827,-522,-1479,-301,-36,251,219,-191
1,1905077,2467,827,-522,-1479,-301,-36,251,219,-191
1,1905090,2464,827,-527,-1482,-305,-30,251,219,-191
1,1905104,2466,828,-531,-1474,-301,-37,251,219,-191
1,1905119,2466,828,-531,-1474,-301,-37,251,219,-191
1,1905133,2469,823,-526,-1477,-304,-33,251,219,-191
1,1905147,2464,827,-529,-1473,-309,-35,251,219,-191
1,1905160,2464,827,-529,-1473,-309,-35,251,219,-191
1,1905173,2465,826,-533,-1488,-310,-37,251,219,-191
1,1905188,2467,828,-529,-1487,-297,-36,251,219,-191
1,1905204,2465,824,-525,-1482,-305,-43,252,222,-186
1,1905219,2465,824,-525,-1482,-305,-43,252,222,-186
1,1905231,2466,825,-533,-1482,-308,-38,252,222,-186
1,1905240,2466,825,-533,-1482,-308,-38,252,222,-186
1,1905251,2466,826,-529,-1482,-306,-33,252,222,-186
1,1905262,2466,826,-529,-1482,-306,-33,252,222,-186
1,1905269,2466,826,-529,-1482,-306,-33,252,222,-186
1,1905282,2466,826,-529,-1482,-306,-33,252,222,-186
1,1905293,2465,827,-524,-1476,-301,-42,252,222,-186
1,1905307,2464,826,-529,-1476,-305,-31,252,222,-186
1,1905323,2464,826,-529,-1476,-305,-31,252,222,-186
1,1905337,2467,824,-526,-1483,-300,-40,253,223,-189
1,1905352,2466,826,-524,-1481,-306,-36,253,223,-189
1,1905366,2466,825,-529,-1478,-308,-39,253,223,-189
1,1905383,2466,825,-529,-1478,-308,-39,253,223,-189
1,1905396,2467,826,-533,-1484,-302,-34,253,223,-189
1,1905410,2466,825,-529,-1481,-306,-33,253,223,-189
1,1905423,2466,825,-529,-1481,-306,-33,253,223,-189
1,1905438,2466,826,-527,-1481,-307,-37,253,223,-189
1,1905455,2465,826,-523,-1486,-305,-38,261,219,-185
1,1905471,2466,827,-529,-1487,-305,-34,261,219,-185
1,1905486,2467,827,-531,-1480,-300,-33,261,219,-185
1,1905501,2467,827,-531,-1480,-300,-33,261,219,-185
1,1905513,2466,825,-529,-1486,-300,-31,261,219,-185
1,1905528,2469,830,-533,-1477,-304,-35,261,219,-185
1,1905544,2469,826,-530,-1479,-302,-39,261,219,-185
1,1905559,2469,826,-530,-1479,-302,-39,261,219,-185
1,1905572,2468,828,-525,-1473,-298,-39,252,222,-188
1,1905587,2465,823,-528,-1477,-298,-30,252,222,-188
1,1905601,2465,823,-528,-1477,-298,-30,252,222,-188
1,1905615,2467,824,-528,-1482,-304,-36,252,222,-188
1,1905629,2470,828,-525,-1485,-301,-38,252,222,-188
1,1905642,2470,828,-525,-1485,-301,-38,252,222,-188
1,1905656,2467,827,-527,-1489,-300,-38,252,222,-188
1,1905672,2467,826,-526,-1481,-309,-36,252,222,-188
1,1905687,2469,828,-528,-1481,-309,-38,252,222,-188
1,1905700,2469,828,-528,-1481,-309,-38,252,222,-188
1,1905716,2467,830,-527,-1479,-306,-40,254,218,-188
1,1905731,2466,825,-524,-1483,-307,-39,254,218,-188
1,1905746,2463,827,-527,-1482,-307,-36,254,218,-188
1,1905763,2463,827,-527,-1482,-307,-36,254,218,-188
1,1905779,2467,824,-532,-1478,-303,-32,254,218,-188
1,1905795,2467,827,-530,-1481,-308,-31,254,218,-188
1,1905809,2467,826,-529,-1476,-307,-40,254,218,-188
1,1905823,2467,826,-529,-1476,-307,-40,254,218,-188
1,1905839,2465,830,-529,-1481,-309,-42,249,225,-181
1,1905853,2469,828,-523,-1482,-303,-41,249,225,-181
1,1905867,2467,826,-531,-1479,-303,-43,249,225,-181
1,1905883,2467,826,-531,-1479,-303,-43,249,225,-181
1,1905895,2468,826,-531,-1484,-305,-50,249,225,-181
1,1905909,2467,826,-528,-1485,-308,-38,249,225,-181
1,1905925,2468,828,-529,-1481,-310,-34,249,225,-181
1,1905941,2468,828,-529,-1481,-310,-34,249,225,-181
1,1905956,2468,828,-529,-1481,-310,-34,250,218,-186
1,1905972,2468,827,-528,-1482,-302,-34,250,218,-186
1,1905985,2466,827,-526,-1488,-308,-40,250,218,-186
1,1905998,2466,827,-526,-1488,-308,-40,250,218,-186
1,1906013,2468,829,-532,-1476,-304,-32,250,218,-186
1,1906027,2464,829,-530,-1471,-307,-43,250,218,-186
1,1906041,2464,829,-530,-1471,-307,-43,250,218,-186
1,1906056,2467,828,-528,-1474,-298,-33,250,218,-186
1,1906071,2467,826,-528,-1478,-300,-39,253,215,-191
1,1906085,2470,826,-529,-1478,-307,-41,253,215,-191
1,1906099,2470,826,-529,-1478,-307,-41,253,215,-191
1,1906113,2465,825,-527,-1484,-301,-32,253,215,-191
1,1906127,2464,826,-529,-1478,-304,-43,253,215,-191
1,1906142,2464,826,-529,-1478,-304,-43,253,215,-191
1,1906156,2465,827,-525,-1482,-303,-46,253,215,-191
1,1906170,2467,829,-532,-1478,-304,-38,253,215,-191
1,1906180,2467,829,-532,-1478,-304,-38,253,215,-191
1,1906194,2465,826,-528,-1479,-307,-37,254,224,-190
1,1906209,2466,827,-524,-1478,-305,-37,254,224,-190
1,1906225,2465,827,-529,-1479,-305,-43,254,224,-190
1,1906240,2465,827,-529,-1479,-305,-43,254,224,-190
1,1906251,2465,827,-528,-1476,-308,-44,254,224,-190
1,1906266,2463,828,-528,-1484,-311,-43,254,224,-190
1,1906281,2463,828,-528,-1484,-311,-43,254,224,-190
1,1906295,2467,826,-531,-1482,-309,-38,254,224,-190
1,1906310,2467,830,-529,-1479,-298,-37,254,224,-190
1,1906325,2466,825,-526,-1485,-307,-36,252,216,-190
1,1906339,2466,825,-526,-1485,-307,-36,252,216,-190
1,1906357,2466,828,-522,-1480,-306,-41,252,216,-190
1,1906372,2464,828,-527,-1473,-312,-40,252,216,-190
1,1906385,2467,830,-527,-1479,-306,-39,252,216,-190
1,1906401,2467,830,-527,-1479,-306,-39,252,216,-190
1,1906414,2466,829,-529,-1480,-306,-33,252,216,-190
1,1906428,2468,824,-524,-1477,-301,-41,252,216,-190
1,1906444,2464,828,-521,-1481,-300,-41,254,222,-186
1,1906460,2464,828,-521,-1481,-300,-41,254,222,-186
1,1906477,2467,827,-524,-1477,-302,-35,254,222,-186
1,1906492,2467,827,-524,-1474,-301,-32,254,222,-186
1,1906506,2466,828,-529,-1482,-299,-40,254,222,-186
1,1906519,2466,828,-529,-1482,-299,-40,254,222,-186
1,1906532,2469,827,-528,-1474,-304,-41,254,222,-186
1,1906547,2468,828,-531,-1483,-300,-40,254,222,-186
1,1906564,2468,828,-531,-1483,-300,-40,254,222,-186
1,1906578,2468,829,-526,-1487,-293,-37,251,211,-181
1,1906592,2467,826,-524,-1490,-302,-36,251,211,-181
1,1906608,2467,826,-524,-1490,-302,-36,251,211,-181
1,1906622,2467,826,-524,-1490,-302,-36,251,211,-181
1,1906637,2466,826,-530,-1475,-302,-31,251,211,-181
1,1906652,2469,825,-529,-1474,-297,-36,251,211,-181
1,1906663,2469,825,-529,-1474,-297,-36,251,211,-181
1,1906679,2464,826,-534,-1476,-295,-36,251,211,-181
1,1906696,2468,826,-527,-1478,-301,-29,253,209,-183
1,1906712,2468,826,-525,-1478,-307,-35,253,209,-183
1,1906726,2468,827,-527,-1477,-308,-43,253,209,-183
1,1906740,2468,827,-527,-1477,-308,-43,253,209,-183
1,1906752,2465,827,-525,-1483,-309,-38,253,209,-183
1,1906767,2467,827,-530,-1485,-302,-35,253,209,-183
1,1906783,2467,827,-530,-1485,-302,-35,253,209,-183
1,1906798,2467,826,-526,-1486,-301,-36,253,209,-183
1,1906813,2467,826,-526,-1483,-298,-41,253,209,-183
1,1906829,2467,828,-525,-1480,-306,-35,254,226,-186
1,1906843,2467,828,-525,-1480,-306,-35,254,226,-186
1,1906857,2471,830,-530,-1475,-307,-31,254,226,-186
1,1906870,2468,830,-526,-1478,-309,-38,254,226,-186
1,1906881,2468,830,-526,-1478,-309,-38,254,226,-186
1,1906897,2467,828,-527,-1471,-299,-36,254,226,-186
1,1906910,2466,829,-529,-1476,-300,-40,254,226,-186
1,1906924,2467,827,-530,-1479,-297,-36,254,226,-186
1,1906939,2467,827,-530,-1479,-297,-36,254,226,-186
1,1906955,2468,827,-521,-1479,-313,-40,257,205,-179
1,1906971,2466,826,-526,-1481,-312,-37,257,205,-179
1,1906987,2467,827,-528,-1481,-303,-36,257,205,-179
1,1907002,2467,827,-528,-1481,-303,-36,257,205,-179
1,1907017,2470,826,-530,-1485,-298,-33,257,205,-179
1,1907032,2470,828,-526,-1482,-303,-34,257,205,-179
1,1907047,2464,826,-530,-1486,-309,-40,257,205,-179
1,1907061,2464,826,-530,-1486,-309,-40,257,205,-179
1,1907077,2466,825,-527,-1488,-304,-34,245,213,-193
1,1907090,2468,829,-527,-1489,-301,-29,245,213,-193
1,1907103,2468,829,-527,-1489,-301,-29,245,213,-193
1,1907116,2468,827,-525,-1483,-306,-34,245,213,-193
1,1907131,2462,828,-527,-1485,-299,-29,245,213,-193
1,1907144,2469,828,-524,-1480,-300,-39,245,213,-193
1,1907159,2469,828,-524,-1480,-300,-39,245,213,-193
1,1907173,2467,829,-530,-1476,-305,-43,245,213,-193
1,1907189,2469,828,-528,-1476,-304,-40,253,225,-189
1,1907205,2468,830,-526,-1483,-305,-41,253,225,-189
1,1907221,2468,830,-526,-1483,-305,-41,253,225,-189
1,1907236,2469,827,-529,-1479,-300,-40,253,225,-189
1,1907252,2468,827,-527,-1479,-301,-38,253,225,-189
1,1907260,2468,827,-527,-1479,-301,-38,253,225,-189
1,1907274,2466,826,-527,-1482,-301,-33,253,225,-189
1,1907290,2466,829,-532,-1475,-300,-26,253,225,-189
1,1907305,2468,828,-533,-1474,-300,-31,253,225,-189
1,1907320,2468,828,-533,-1474,-300,-31,253,225,-189
1,1907334,2466,826,-529,-1473,-296,-37,245,211,-193
1,1907350,2466,827,-527,-1480,-302,-38,245,211,-193
1,1907366,2465,826,-528,-1474,-304,-35,245,211,-193
1,1907382,2465,826,-528,-1474,-304,-35,245,211,-193
1,1907397,2468,826,-530,-1473,-303,-38,245,211,-193
1,1907412,2466,824,-539,-1478,-309,-36,245,211,-193
1,1907425,2467,825,-528,-1487,-307,-39,245,211,-193
1,1907440,2467,825,-528,-1487,-307,-39,245,211,-193
1,1907454,2469,828,-526,-1480,-309,-36,253,227,-187
1,1907470,2462,827,-522,-1482,-306,-36,253,227,-187
1,1907485,2467,825,-524,-1483,-307,-39,253,227,-187
1,1907500,2467,825,-524,-1483,-307,-39,253,227,-187
1,1907512,2467,828,-528,-1485,-303,-31,253,227,-187
1,1907527,2470,826,-525,-1480,-303,-34,253,227,-187
1,1907538,2470,826,-525,-1480,-303,-34,253,227,-187
1,1907553,2469,828,-529,-1484,-307,-38,253,227,-187
1,1907567,2466,827,-522,-1480,-303,-44,251,223,-189
1,1907584,2466,827,-522,-1480,-303,-44,251,223,-189
1,1907596,2469,825,-522,-1476,-304,-47,251,223,-189
1,1907611,2468,826,-526,-1473,-306,-40,251,223,-189
1,1907628,2464,825,-527,-1476,-308,-40,251,223,-189
1,1907644,2464,825,-527,-1476,-308,-40,251,223,-189
1,1907659,2469,828,-533,-1478,-306,-41,251,223,-189
1,1907674,2465,826,-529,-1475,-306,-40,251,223,-189
1,1907690,2468,828,-526,-1483,-306,-36,255,211,-187
1,1907705,2467,826,-525,-1471,-298,-43,255,211,-187
1,1907721,2467,826,-525,-1471,-298,-43,255,211,-187
1,1907737,2466,824,-529,-1475,-300,-37,255,211,-187
1,1907748,2468,827,-530,-1481,-297,-34,255,211,-187
1,1907763,2468,827,-530,-1481,-297,-34,255,211,-187
1,1907777,2465,824,-526,-1484,-303,-36,255,211,-187
1,1907792,2466,827,-527,-1482,-301,-40,255,211,-187
1,1907806,2468,828,-526,-1483,-305,-38,255,211,-187
1,1907819,2468,828,-526,-1483,-305,-38,255,211,-187
1,1907835,2467,827,-526,-1478,-306,-42,252,222,-198
1,1907852,2466,829,-526,-1480,-303,-48,252,222,-198
1,1907867,2467,828,-525,-1479,-305,-46,252,222,-198
1,1907884,2467,828,-525,-1479,-305,-46,252,222,-198
1,1907899,2466,828,-527,-1478,-305,-42,252,222,-198
1,1907914,2466,825,-528,-1481,-306,-35,252,222,-198
1,1907927,2464,826,-530,-1474,-310,-34,252,222,-198
1,1907939,2464,826,-530,-1474,-310,-34,252,222,-198
1,1907953,2468,829,-522,-1483,-308,-37,253,215,-183
1,1907969,2467,829,-528,-1478,-301,-37,253,215,-183
1,1907983,2467,829,-528,-1478,-301,-37,253,215,-183
1,1907998,2469,828,-531,-1479,-306,-26,253,215,-183
1,1908014,2467,828,-526,-1473,-302,-34,253,215,-183
1,1908030,2465,826,-529,-1470,-308,-38,253,215,-183
1,1908045,2465,826,-529,-1470,-308,-38,253,215,-183
1,1908062,2465,826,-529,-1470,-308,-38,253,215,-183
1,1908078,2470,828,-527,-1483,-302,-44,251,219,-185
1,1908093,2468,825,-528,-1477,-305,-39,251,219,-185
1,1908109,2467,826,-525,-1478,-304,-39,251,219,-185
1,1908124,2467,826,-525,-1478,-304,-39,251,219,-185
1,1908140,2467,822,-530,-1480,-299,-43,251,219,-185
1,1908154,2468,826,-529,-1481,-303,-39,251,219,-185
1,1908168,2465,826,-530,-1487,-301,-37,251,219,-185
1,1908184,2465,826,-530,-1487,-301,-37,251,219,-185
1,1908198,2467,827,-523,-1482,-308,-39,256,218,-188
1,1908211,2466,828,-526,-1477,-304,-39,256,218,-188
1,1908225,2466,825,-528,-1482,-302,-37,256,218,-188
1,1908239,2466,825,-528,-1482,-302,-37,256,218,-188
1,1908254,2467,828,-526,-1484,-302,-39,256,218,-188
1,1908271,2470,825,-532,-1479,-307,-46,256,218,-188
1,1908287,2466,824,-529,-1486,-307,-43,256,218,-188
1,1908302,2466,824,-529,-1486,-307,-43,256,218,-188
1,1908320,2464,827,-533,-1477,-305,-40,248,214,-184
1,1908336,2467,826,-526,-1477,-312,-43,248,214,-184
1,1908354,2467,826,-527,-1475,-300,-44,248,214,-184
1,1908368,2466,826,-533,-1480,-305,-36,248,214,-184
1,1908381,2466,826,-533,-1480,-305,-36,248,214,-184
1,1908396,2469,827,-526,-1480,-302,-39,248,214,-184
1,1908410,2467,828,-528,-1481,-303,-35,248,214,-184
1,1908424,2466,827,-533,-1477,-302,-32,248,214,-184
1,1908440,2466,827,-533,-1477,-302,-32,248,214,-184
1,1908454,2465,825,-528,-1480,-302,-33,249,225,-191
1,1908469,2466,827,-532,-1478,-301,-41,249,225,-191
1,1908485,2468,826,-527,-1476,-306,-42,249,225,-191
1,1908500,2468,826,-527,-1476,-306,-42,249,225,-191
1,1908512,2467,826,-533,-1478,-307,-43,249,225,-191
1,1908528,2469,828,-527,-1469,-304,-45,249,225,-191
1,1908541,2469,828,-527,-1469,-304,-45,249,225,-191
1,1908556,2467,825,-526,-1465,-309,-47,249,225,-191
1,1908572,2467,829,-524,-1476,-305,-44,252,222,-182
1,1908587,2467,827,-524,-1481,-306,-43,252,222,-182
1,1908602,2467,827,-524,-1481,-306,-43,252,222,-182
1,1908617,2464,827,-533,-1483,-298,-37,252,222,-182
1,1908630,2466,828,-530,-1479,-300,-38,252,222,-182
1,1908645,2465,825,-530,-1470,-307,-38,252,222,-182
1,1908659,2465,825,-530,-1470,-307,-38,252,222,-182
1,1908673,2465,825,-532,-1469,-316,-37,252,222,-182
1,1908687,2468,824,-522,-1477,-311,-39,256,222,-184
1,1908703,2468,824,-522,-1477,-311,-39,256,222,-184
1,1908717,2468,824,-522,-1477,-311,-39,256,222,-184
1,1908733,2465,826,-530,-1481,-304,-42,256,222,-184
1,1908750,2467,828,-531,-1478,-304,-41,256,222,-184
1,1908766,2470,828,-531,-1479,-303,-40,256,222,-184
1,1908782,2470,828,-531,-1479,-303,-40,256,222,-184
1,1908798,2467,826,-526,-1481,-305,-40,256,222,-184
1,1908813,2468,822,-524,-1485,-301,-40,255,213,-189
1,1908830,2465,827,-520,-1483,-297,-44,255,213,-189
1,1908840,2465,827,-520,-1483,-297,-44,255,213,-189
1,1908852,2468,824,-526,-1479,-308,-41,255,213,-189
1,1908868,2466,827,-533,-1483,-301,-32,255,213,-189
1,1908880,2466,827,-533,-1483,-301,-32,255,213,-189
1,1908895,2467,828,-532,-1479,-305,-41,255,213,-189
1,1908909,2469,828,-527,-1477,-304,-38,255,213,-189
1,1908923,2469,828,-527,-1477,-304,-38,255,213,-189
1,1908937,2468,825,-525,-1480,-303,-34,255,213,-189
1,1908953,2467,827,-520,-1477,-309,-34,249,225,-185
1,1908967,2467,827,-520,-1477,-309,-34,249,225,-185
1,1908976,2467,827,-520,-1477,-309,-34,249,225,-185
1,1908992,2467,827,-527,-1481,-300,-36,249,225,-185
1,1909007,2464,826,-526,-1481,-303,-37,249,225,-185
1,1909023,2464,826,-526,-1481,-303,-37,249,225,-185
1,1909036,2466,828,-530,-1482,-302,-34,249,225,-185
1,1909050,2466,827,-527,-1474,-304,-27,249,225,-185
1,1909063,2466,827,-527,-1474,-304,-27,249,225,-185
1,1909078,2467,828,-523,-1476,-303,-32,250,214,-184
1,1909094,2467,827,-523,-1481,-305,-35,250,214,-184
1,1909102,2467,827,-523,-1481,-305,-35,250,214,-184
1,1909117,2467,827,-531,-1485,-305,-42,250,214,-184
1,1909132,2465,827,-530,-1483,-298,-41,250,214,-184
1,1909147,2467,826,-529,-1483,-301,-43,250,214,-184
1,1909159,2467,826,-529,-1483,-301,-43,250,214,-184
1,1909168,2466,825,-530,-1483,-300,-38,250,214,-184
1,1909179,2466,825,-530,-1483,-300,-38,250,214,-184
1,1909193,2466,827,-525,-1481,-307,-39,252,224,-194
1,1909210,2467,826,-519,-1477,-305,-49,252,224,-194
1,1909226,2469,824,-523,-1476,-302,-43,252,224,-194
1,1909242,2469,824,-523,-1476,-302,-43,252,224,-194
1,1909258,2464,827,-529,-1479,-296,-37,252,224,-194
1,1909274,2464,827,-530,-1478,-306,-35,252,224,-194
1,1909291,2467,827,-530,-1480,-308,-28,252,224,-194
1,1909306,2467,828,-523,-1479,-303,-36,246,226,-184
1,1909319,2467,828,-523,-1479,-303,-36,246,226,-184
1,1909334,2465,824,-525,-1481,-303,-36,246,226,-184
1,1909348,2465,826,-526,-1485,-297,-36,246,226,-184
1,1909364,2465,826,-526,-1485,-297,-36,246,226,-184
1,1909379,2468,828,-527,-1479,-298,-29,246,226,-184
1,1909393,2468,827,-529,-1472,-304,-38,246,226,-184
1,1909408,2469,826,-530,-1472,-300,-39,246,226,-184
1,1909424,2469,826,-530,-1472,-300,-39,246,226,-184
1,1909438,2467,825,-533,-1473,-304,-40,246,226,-184
1,1909453,2468,828,-524,-1473,-297,-36,256,220,-188
1,1909470,2466,827,-529,-1484,-301,-39,256,220,-188
1,1909486,2467,826,-529,-1472,-297,-44,256,220,-188
1,1909502,2467,826,-529,-1472,-297,-44,256,220,-188
1,1909519,2469,825,-529,-1482,-300,-35,256,220,-188
1,1909534,2466,825,-535,-1483,-298,-33,256,220,-188
1,1909551,2468,825,-527,-1479,-307,-40,256,220,-188
1,1909566,2469,828,-523,-1473,-303,-43,256,220,-192
1,1909581,2469,828,-523,-1473,-303,-43,256,220,-192
1,1909596,2469,828,-523,-1473,-303,-43,256,220,-192
1,1909611,2469,827,-526,-1478,-306,-44,256,220,-192
1,1909626,2467,825,-528,-1481,-302,-38,256,220,-192
1,1909635,2467,825,-528,-1481,-302,-38,256,220,-192
1,1909648,2468,826,-531,-1485,-301,-32,256,220,-192
1,1909662,2468,826,-531,-1485,-301,-32,256,220,-192
1,1909679,2466,826,-530,-1482,-300,-39,256,220,-192
1,1909694,2472,825,-523,-1479,-311,-40,259,219,-191
1,1909709,2469,827,-530,-1486,-308,-37,259,219,-191
1,1909726,2465,825,-532,-1474,-301,-40,259,219,-191
1,1909739,2465,825,-532,-1474,-301,-40,259,219,-191
1,1909752,2462,826,-524,-1477,-295,-40,259,219,-191
1,1909766,2467,826,-529,-1477,-303,-39,259,219,-191
1,1909781,2467,826,-529,-1477,-303,-39,259,219,-191
1,1909796,2465,829,-529,-1481,-301,-38,259,219,-191
1,1909811,2466,826,-528,-1481,-305,-37,247,215,-179
1,1909826,2466,828,-530,-1479,-302,-35,247,215,-179
1,1909841,2466,828,-530,-1479,-302,-35,247,215,-179
1,1909857,2466,829,-533,-1477,-302,-31,247,215,-179
1,1909872,2466,827,-531,-1477,-308,-34,247,215,-179
1,1909885,2468,828,-533,-1479,-306,-34,247,215,-179
1,1909900,2468,828,-533,-1479,-306,-34,247,215,-179
1,1909914,2466,827,-530,-1478,-305,-39,247,215,-179
1,1909929,2467,825,-527,-1476,-305,-38,247,215,-179
1,1909946,2465,821,-532,-1482,-303,-35,252,220,-196
1,1909962,2465,821,-532,-1482,-303,-35,252,220,-196
1,1909979,2467,827,-531,-1489,-300,-30,252,220,-196
1,1909993,2468,827,-529,-1482,-304,-38,252,220,-196
1,1910008,2469,826,-530,-1478,-309,-38,252,220,-196
1,1910023,2469,826,-530,-1478,-309,-38,252,220,-196
1,1910039,2468,824,-524,-1490,-300,-39,252,220,-196
1,1910052,2467,826,-527,-1480,-305,-37,252,220,-196
1,1910066,2467,823,-524,-1481,-305,-34,253,209,-195
1,1910081,2467,823,-524,-1481,-305,-34,253,209,-195
1,1910097,2466,827,-527,-1489,-298,-32,253,209,-195
1,1910111,2468,825,-527,-1484,-310,-39,253,209,-195
1,1910126,2467,825,-529,-1479,-303,-43,253,209,-195
1,1910140,2467,825,-529,-1479,-303,-43,253,209,-195
1,1910154,2465,825,-530,-1480,-302,-37,253,209,-195
1,1910170,2468,829,-522,-1481,-300,-34,253,209,-195
1,1910183,2468,829,-522,-1481,-300,-34,253,209,-195
1,1910193,2465,826,-526,-1486,-299,-36,248,210,-188
1,1910206,2465,826,-526,-1486,-299,-36,248,210,-188
1,1910219,2465,826,-526,-1486,-299,-36,248,210,-188
1,1910235,2468,827,-531,-1478,-303,-38,248,210,-188
1,1910250,2465,826,-527,-1475,-301,-45,248,210,-188
1,1910265,2466,827,-525,-1475,-302,-38,248,210,-188
1,1910280,2466,827,-525,-1475,-302,-38,248,210,-188
1,1910295,2467,829,-528,-1480,-302,-36,248,210,-188
1,1910310,2468,828,-524,-1485,-304,-40,241,213,-185
1,1910326,2465,826,-530,-1483,-303,-34,241,213,-185
1,1910343,2465,826,-530,-1483,-303,-34,241,213,-185
1,1910359,2467,825,-528,-1485,-306,-49,241,213,-185
1,1910374,2467,826,-527,-1484,-302,-40,241,213,-185
1,1910389,2469,824,-532,-1488,-299,-40,241,213,-185
1,1910406,2467,825,-527,-1481,-293,-39,241,213,-185
1,1910421,2467,825,-527,-1481,-293,-39,241,213,-185
1,1910434,2469,829,-526,-1477,-299,-39,252,222,-186
1,1910450,2470,826,-520,-1476,-303,-33,252,222,-186
1,1910464,2470,826,-520,-1476,-303,-33,252,222,-186
1,1910478,2468,825,-528,-1479,-305,-34,252,222,-186
1,1910494,2468,828,-523,-1484,-304,-33,252,222,-186
1,1910508,2466,828,-529,-1477,-303,-33,252,222,-186
1,1910521,2466,828,-529,-1477,-303,-33,252,222,-186
1,1910535,2467,824,-527,-1471,-302,-31,252,222,-186
1,1910548,2469,828,-526,-1475,-307,-36,252,222,-186
1,1910563,2469,828,-526,-1475,-307,-36,252,222,-186
1,1910579,2467,828,-526,-1476,-304,-39,249,217,-181
1,1910594,2469,824,-529,-1479,-304,-33,249,217,-181
1,1910609,2466,827,-527,-1478,-297,-42,249,217,-181
1,1910626,2467,828,-529,-1478,-301,-41,249,217,-181
1,1910641,2467,828,-529,-1478,-301,-41,249,217,-181
1,1910657,2467,826,-527,-1475,-305,-45,249,217,-181
1,1910673,2469,825,-534,-1477,-297,-39,249,217,-181
1,1910688,2466,828,-526,-1478,-298,-45,260,218,-186
1,1910705,2466,828,-526,-1478,-298,-45,260,218,-186
1,1910720,2468,827,-526,-1478,-302,-45,260,218,-186
1,1910734,2468,825,-523,-1482,-298,-42,260,218,-186
1,1910749,2466,825,-527,-1485,-306,-44,260,218,-186
1,1910764,2466,825,-527,-1485,-306,-44,260,218,-186
1,1910779,2470,827,-525,-1484,-303,-38,260,218,-186
1,1910794,2470,827,-525,-1484,-303,-38,260,218,-186
1,1910810,2468,825,-524,-1479,-302,-39,252,216,-188
1,1910821,2468,825,-524,-1479,-302,-39,252,216,-188
1,1910835,2466,828,-527,-1483,-303,-43,252,216,-188
1,1910851,2468,828,-529,-1482,-303,-31,252,216,-188
1,1910866,2469,829,-526,-1480,-303,-36,252,216,-188
1,1910882,2469,829,-526,-1480,-303,-36,252,216,-188
1,1910896,2469,829,-526,-1480,-303,-36,252,216,-188
1,1910912,2464,827,-529,-1478,-305,-39,252,216,-188
1,1910925,2464,827,-529,-1478,-305,-39,252,216,-188
1,1910933,2472,827,-525,-1480,-300,-37,252,220,-182
1,1910941,2472,827,-525,-1480,-300,-37,252,220,-182
1,1910955,2472,827,-525,-1480,-300,-37,252,220,-182
1,1910969,2469,828,-525,-1477,-298,-38,252,220,-182
1,1910984,2469,828,-525,-1477,-298,-38,252,220,-182
1,1911000,2467,824,-534,-1478,-310,-39,252,220,-182
1,1911014,2468,828,-531,-1479,-311,-39,252,220,-182
1,1911030,2469,825,-526,-1481,-307,-37,252,220,-182
1,1911045,2469,825,-526,-1481,-307,-37,252,220,-182
1,1911061,2469,827,-528,-1479,-306,-42,252,220,-182
1,1911070,2467,826,-529,-1479,-302,-42,253,215,-189
1,1911087,2469,824,-531,-1481,-303,-41,253,215,-189
1,1911103,2469,824,-531,-1481,-303,-41,253,215,-189
1,1911118,2465,826,-527,-1482,-300,-37,253,215,-189
1,1911135,2469,824,-526,-1480,-296,-35,253,215,-189
1,1911148,2468,825,-528,-1480,-301,-39,253,215,-189
1,1911162,2468,825,-528,-1480,-301,-39,253,215,-189
1,1911175,2465,827,-528,-1480,-300,-39,253,215,-189
1,1911188,2470,827,-523,-1478,-304,-41,246,208,-186
1,1911202,2470,827,-523,-1478,-304,-41,246,208,-186
1,1911213,2472,827,-526,-1484,-311,-43,246,208,-186
1,1911226,2466,826,-529,-1477,-298,-36,246,208,-186
1,1911238,2466,826,-529,-1477,-298,-36,246,208,-186
1,1911254,2464,826,-531,-1482,-296,-41,246,208,-186
1,1911270,2466,827,-522,-1475,-305,-46,246,208,-186
1,1911285,2468,829,-531,-1480,-305,-41,246,208,-186
1,1911303,2468,829,-531,-1480,-305,-41,246,208,-186
1,1911319,2466,826,-528,-1483,-296,-38,259,225,-183
1,1911331,2467,826,-528,-1475,-304,-39,259,225,-183
1,1911345,2465,824,-526,-1477,-307,-35,259,225,-183
1,1911360,2465,824,-526,-1477,-307,-35,259,225,-183
1,1911376,2464,825,-531,-1478,-295,-35,259,225,-183
1,1911385,2464,825,-531,-1478,-295,-35,259,225,-183
1,1911400,2465,825,-529,-1483,-300,-33,259,225,-183
1,1911413,2468,826,-531,-1484,-304,-37,259,225,-183
1,1911428,2468,827,-525,-1479,-308,-43,250,222,-186
1,1911442,2468,827,-525,-1479,-308,-43,250,222,-186
1,1911456,2468,827,-525,-1479,-308,-43,250,222,-186
1,1911472,2467,828,-525,-1476,-304,-39,250,222,-186
1,1911487,2465,825,-528,-1480,-302,-38,250,222,-186
1,1911503,2465,825,-528,-1480,-302,-38,250,222,-186
1,1911520,2467,829,-526,-1488,-299,-29,250,222,-186
1,1911536,2467,827,-528,-1474,-302,-33,250,222,-186
1,1911550,2467,829,-528,-1482,-299,-38,250,222,-186
1,1911563,2467,829,-528,-1482,-299,-38,250,222,-186
1,1911577,2468,826,-525,-1486,-302,-44,251,225,-187
1,1911592,2468,825,-525,-1485,-305,-38,251,225,-187
1,1911607,2468,823,-523,-1476,-301,-42,251,225,-187
1,1911622,2468,823,-523,-1476,-301,-42,251,225,-187
1,1911636,2466,830,-531,-1477,-304,-42,251,225,-187
1,1911652,2465,826,-528,-1483,-301,-36,251,225,-187
1,1911666,2467,828,-531,-1476,-302,-31,251,225,-187
1,1911682,2467,828,-531,-1476,-302,-31,251,225,-187
1,1911695,2468,829,-522,-1476,-307,-30,255,217,-191
1,1911707,2466,828,-524,-1472,-302,-34,255,217,-191
1,1911723,2466,828,-524,-1472,-302,-34,255,217,-191
1,1911738,2464,828,-521,-1478,-308,-37,255,217,-191
1,1911754,2467,827,-530,-1480,-305,-35,255,217,-191
1,1911771,2468,826,-529,-1481,-302,-41,255,217,-191
1,1911786,2467,828,-527,-1480,-306,-37,255,217,-191
1,1911799,2467,828,-527,-1480,-306,-37,255,217,-191
1,1911813,2466,828,-525,-1471,-296,-38,254,220,-186
1,1911828,2470,828,-530,-1476,-300,-32,254,220,-186
1,1911843,2470,828,-530,-1476,-300,-32,254,220,-186
1,1911858,2467,826,-525,-1479,-301,-37,254,220,-186
1,1911873,2467,826,-528,-1480,-297,-39,254,220,-186
1,1911887,2466,826,-535,-1476,-298,-44,254,220,-186
1,1911903,2466,826,-535,-1476,-298,-44,254,220,-186
1,1911918,2468,825,-530,-1481,-298,-37,254,220,-186
1,1911933,2468,827,-523,-1477,-299,-38,248,218,-188
1,1911948,2466,827,-523,-1483,-298,-34,248,218,-188
1,1911961,2466,827,-523,-1483,-298,-34,248,218,-188
1,1911974,2469,828,-530,-1479,-300,-43,248,218,-188
1,1911991,2468,827,-525,-1478,-301,-40,248,218,-188
1,1912006,2469,827,-528,-1482,-302,-35,248,218,-188
1,1912018,2469,827,-528,-1482,-302,-35,248,218,-188
1,1912029,2466,829,-529,-1482,-305,-40,248,218,-188
1,1912045,2466,829,-529,-1482,-305,-40,248,218,-188
1,1912059,2468,827,-527,-1477,-298,-35,248,218,-188
1,1912071,2466,826,-525,-1477,-307,-33,248,222,-192
1,1912082,2466,826,-525,-1477,-307,-33,248,222,-192
1,1912097,2464,830,-530,-1483,-310,-39,248,222,-192
1,1912111,2469,823,-522,-1479,-303,-41,248,222,-192
1,1912119,2469,823,-522,-1479,-303,-41,248,222,-192
1,1912130,2470,825,-533,-1476,-309,-41,248,222,-192
1,1912146,2470,826,-525,-1479,-308,-42,248,222,-192
1,1912162,2470,826,-525,-1479,-308,-42,248,222,-192
1,1912176,2468,826,-525,-1474,-306,-40,248,222,-192
1,1912190,2468,827,-525,-1478,-302,-38,249,219,-191
1,1912206,2468,828,-528,-1483,-302,-36,249,219,-191
1,1912220,2468,828,-528,-1483,-302,-36,249,219,-191
1,1912236,2466,827,-531,-1489,-306,-36,249,219,-191
1,1912250,2466,828,-527,-1478,-304,-33,249,219,-191
1,1912265,2468,827,-527,-1476,-302,-34,249,219,-191
1,1912282,2468,827,-527,-1476,-302,-34,249,219,-191
1,1912297,2467,825,-529,-1481,-300,-34,249,219,-191
1,1912312,2467,826,-523,-1491,-302,-36,253,217,-189
1,1912328,2467,828,-528,-1483,-305,-37,253,217,-189
1,1912342,2467,828,-528,-1483,-305,-37,253,217,-189
1,1912357,2465,826,-530,-1483,-307,-39,253,217,-189
1,1912372,2466,825,-527,-1485,-301,-35,253,217,-189
1,1912387,2467,827,-526,-1485,-303,-37,253,217,-189
1,1912400,2467,827,-526,-1485,-303,-37,253,217,-189
1,1912416,2467,827,-523,-1479,-301,-36,253,217,-189
1,1912428,2466,827,-524,-1476,-300,-45,248,216,-192
1,1912442,2466,827,-524,-1476,-300,-45,248,216,-192
1,1912457,2467,824,-527,-1482,-302,-40,248,216,-192
1,1912472,2466,827,-526,-1481,-303,-43,248,216,-192
1,1912486,2467,827,-526,-1477,-304,-50,248,216,-192
1,1912503,2467,827,-526,-1477,-304,-50,248,216,-192
1,1912518,2464,828,-529,-1472,-306,-42,248,216,-192
1,1912535,2468,828,-527,-1476,-303,-39,248,216,-192
1,1912550,2470,828,-528,-1488,-302,-32,252,214,-188
1,1912565,2470,828,-528,-1488,-302,-32,252,214,-188
1,1912580,2467,829,-523,-1486,-308,-37,252,214,-188
1,1912595,2469,826,-526,-1486,-304,-38,252,214,-188
1,1912610,2468,827,-523,-1480,-301,-36,252,214,-188
1,1912626,2467,829,-527,-1484,-305,-40,252,214,-188
1,1912641,2467,829,-527,-1484,-305,-40,252,214,-188
1,1912655,2465,827,-525,-1486,-307,-41,252,214,-188
1,1912667,2469,826,-528,-1478,-305,-31,252,214,-188
1,1912678,2469,826,-528,-1478,-305,-31,252,214,-188
1,1912693,2468,829,-525,-1479,-301,-35,256,216,-190
1,1912710,2466,828,-527,-1484,-305,-39,256,216,-190
1,1912726,2466,823,-526,-1489,-305,-37,256,216,-190
1,1912742,2466,823,-526,-1489,-305,-37,256,216,-190
1,1912753,2464,829,-527,-1477,-306,-36,256,216,-190
1,1912765,2464,829,-527,-1477,-306,-36,256,216,-190
1,1912779,2469,830,-528,-1486,-305,-40,256,216,-190
1,1912795,2468,825,-525,-1483,-308,-38,256,216,-190
1,1912810,2470,824,-524,-1478,-309,-38,251,211,-187
1,1912825,2470,824,-524,-1478,-309,-38,251,211,-187
1,1912839,2467,830,-526,-1492,-309,-35,251,211,-187
1,1912852,2469,827,-528,-1482,-302,-39,251,211,-187
1,1912864,2469,827,-528,-1482,-302,-39,251,211,-187
1,1912879,2468,828,-530,-1475,-300,-43,251,211,-187
1,1912896,2466,828,-528,-1475,-304,-39,251,211,-187
1,1912910,2467,827,-528,-1471,-301,-30,251,211,-187
1,1912927,2470,827,-526,-1480,-306,-28,260,216,-186
1,1912939,2470,827,-526,-1480,-306,-28,260,216,-186
1,1912954,2467,826,-524,-1481,-308,-30,260,216,-186
1,1912967,2469,825,-530,-1485,-305,-37,260,216,-186
1,1912983,2469,825,-530,-1485,-305,-37,260,216,-186
1,1912998,2465,828,-528,-1481,-297,-44,260,216,-186
1,1913014,2465,828,-528,-1481,-297,-44,260,216,-186
1,1913028,2469,826,-526,-1478,-299,-40,260,216,-186
1,1913043,2469,826,-526,-1478,-299,-40,260,216,-186
1,1913059,2466,828,-527,-1477,-299,-32,251,213,-189
1,1913074,2467,829,-522,-1484,-301,-33,251,213,-189
1,1913083,2467,829,-522,-1484,-301,-33,251,213,-189
1,1913097,2469,825,-531,-1481,-300,-41,251,213,-189
1,1913113,2468,826,-527,-1483,-304,-44,251,213,-189
1,1913127,2466,827,-525,-1482,-301,-41,251,213,-189
1,1913143,2466,827,-525,-1482,-301,-41,251,213,-189
1,1913158,2466,825,-528,-1479,-300,-40,251,213,-189
1,1913170,2469,825,-533,-1476,-300,-32,251,213,-189
1,1913187,2467,827,-523,-1478,-307,-31,254,222,-186
1,1913203,2467,827,-523,-1478,-307,-31,254,222,-186
1,1913219,2467,827,-525,-1489,-300,-35,254,222,-186
1,1913235,2467,824,-525,-1474,-309,-40,254,222,-186
1,1913250,2468,828,-531,-1475,-300,-35,254,222,-186
1,1913266,2468,828,-531,-1475,-300,-35,254,222,-186
1,1913280,2466,827,-532,-1481,-298,-39,254,222,-186
1,1913296,2468,823,-528,-1483,-303,-43,254,222,-186
1,1913311,2466,829,-533,-1474,-300,-32,248,220,-194
1,1913327,2466,828,-528,-1474,-304,-35,248,220,-194
1,1913342,2466,828,-528,-1474,-304,-35,248,220,-194
1,1913357,2463,824,-533,-1480,-305,-36,248,220,-194
1,1913370,2469,828,-529,-1484,-305,-42,248,220,-194
1,1913383,2469,828,-529,-1484,-305,-42,248,220,-194
1,1913399,2467,822,-527,-1482,-300,-38,248,220,-194
1,1913414,2468,827,-524,-1478,-303,-39,248,220,-194
1,1913431,2469,827,-525,-1481,-303,-36,247,217,-189
1,1913448,2466,828,-525,-1472,-305,-42,247,217,-189
1,1913463,2466,828,-525,-1472,-305,-42,247,217,-189
1,1913480,2467,827,-533,-1473,-307,-39,247,217,-189
1,1913495,2465,829,-531,-1486,-302,-34,247,217,-189
1,1913511,2466,828,-531,-1472,-302,-37,247,217,-189
1,1913525,2466,828,-531,-1472,-302,-37,247,217,-189
1,1913537,2467,826,-529,-1467,-307,-37,247,217,-189
1,1913551,2467,828,-532,-1482,-305,-38,248,216,-180
1,1913568,2467,823,-529,-1480,-305,-36,248,216,-180
1,1913583,2467,823,-529,-1480,-305,-36,248,216,-180
1,1913598,2468,827,-526,-1482,-306,-40,248,216,-180
1,1913614,2469,826,-524,-1479,-301,-31,248,216,-180
1,1913629,2467,824,-533,-1480,-303,-35,248,216,-180
1,1913645,2467,824,-533,-1480,-303,-35,248,216,-180
1,1913660,2469,826,-529,-1481,-302,-42,248,216,-180
1,1913675,2466,826,-531,-1481,-301,-39,248,216,-180
1,1913692,2466,822,-524,-1476,-306,-34,253,219,-185
1,1913707,2467,826,-527,-1480,-304,-35,253,219,-185
1,1913723,2467,826,-527,-1480,-304,-35,253,219,-185
1,1913740,2468,827,-531,-1480,-302,-28,253,219,-185
1,1913756,2466,826,-529,-1472,-301,-30,253,219,-185
1,1913771,2468,826,-527,-1474,-298,-38,253,219,-185
1,1913786,2468,826,-527,-1474,-298,-38,253,219,-185
1,1913800,2468,825,-525,-1480,-299,-29,253,219,-185
1,1913816,2468,825,-525,-1480,-299,-29,250,216,-198
1,1913830,2467,824,-527,-1479,-297,-41,250,216,-198
1,1913845,2467,824,-527,-1479,-297,-41,250,216,-198
1,1913860,2464,828,-525,-1483,-303,-38,250,216,-198
1,1913872,2467,826,-530,-1478,-302,-42,250,216,-198
1,1913885,2467,826,-530,-1478,-302,-42,250,216,-198
1,1913902,2467,826,-530,-1477,-300,-44,250,216,-198
1,1913915,2467,825,-528,-1476,-310,-42,250,216,-198
1,1913929,2467,827,-526,-1481,-304,-37,255,223,-191
1,1913945,2467,827,-526,-1481,-304,-37,255,223,-191
1,1913961,2467,827,-526,-1481,-304,-37,255,223,-191
1,1913977,2467,827,-528,-1481,-302,-40,255,223,-191
1,1913993,2468,826,-526,-1484,-304,-38,255,223,-191
1,1914005,2468,826,-526,-1484,-304,-38,255,223,-191
1,1914019,2467,826,-526,-1479,-306,-37,255,223,-191
1,1914035,2469,825,-529,-1477,-310,-36,255,223,-191
1,1914051,2466,826,-529,-1474,-301,-42,256,220,-192
1,1914066,2468,827,-530,-1485,-304,-45,256,220,-192
1,1914082,2468,827,-530,-1485,-304,-45,256,220,-192
1,1914096,2468,825,-524,-1482,-300,-40,256,220,-192
1,1914108,2465,825,-528,-1484,-305,-40,256,220,-192
1,1914123,2465,825,-528,-1484,-305,-40,256,220,-192
1,1914138,2467,826,-530,-1484,-304,-43,256,220,-192
1,1914153,2467,822,-527,-1483,-306,-43,256,220,-192
1,1914168,2465,827,-528,-1477,-302,-38,256,220,-192
1,1914183,2465,827,-528,-1477,-302,-38,256,220,-192
1,1914198,2464,828,-526,-1478,-303,-38,259,211,-197
1,1914214,2467,827,-531,-1479,-308,-41,259,211,-197
1,1914223,2467,827,-531,-1479,-308,-41,259,211,-197
1,1914238,2465,827,-531,-1477,-305,-43,259,211,-197
1,1914253,2468,827,-534,-1480,-303,-40,259,211,-197
1,1914266,2468,827,-534,-1480,-303,-40,259,211,-197
1,1914278,2467,826,-531,-1482,-299,-32,259,211,-197
1,1914292,2469,826,-528,-1480,-302,-37,259,211,-197
1,1914306,2469,827,-530,-1481,-296,-44,251,219,-197
1,1914321,2469,827,-530,-1481,-296,-44,251,219,-189
1,1914337,2466,826,-533,-1474,-302,-37,251,219,-189
1,1914352,2467,828,-530,-1485,-307,-35,251,219,-189
1,1914368,2467,829,-530,-1474,-306,-43,251,219,-189
1,1914383,2467,829,-530,-1474,-306,-43,251,219,-189
1,1914398,2467,825,-531,-1475,-296,-42,251,219,-189
1,1914413,2469,823,-533,-1478,-296,-33,251,219,-189
1,1914427,2466,826,-528,-1486,-303,-37,259,217,-189
1,1914440,2466,826,-528,-1486,-303,-37,259,217,-189
1,1914455,2465,829,-525,-1473,-304,-42,259,217,-189
1,1914471,2467,829,-522,-1478,-302,-38,259,217,-189
1,1914486,2467,828,-525,-1471,-302,-44,259,217,-189
1,1914503,2467,828,-525,-1471,-302,-44,259,217,-189
1,1914518,2468,826,-528,-1471,-300,-46,259,217,-189
1,1914533,2467,827,-529,-1482,-302,-45,259,217,-189
1,1914546,2467,827,-529,-1482,-302,-45,259,217,-189
1,1914560,2464,825,-525,-1479,-305,-41,248,212,-190
1,1914575,2464,827,-527,-1479,-299,-29,248,212,-190
1,1914592,2467,826,-526,-1481,-302,-32,248,212,-190
1,1914607,2466,829,-526,-1474,-303,-33,248,212,-190
1,1914621,2466,829,-526,-1474,-303,-33,248,212,-190
1,1914637,2466,823,-528,-1477,-302,-45,248,212,-190
1,1914652,2465,825,-529,-1476,-302,-41,248,212,-190
1,1914667,2468,829,-528,-1479,-304,-40,245,225,-187
1,1914679,2468,829,-528,-1479,-304,-40,245,225,-187
1,1914690,2470,828,-520,-1478,-305,-37,245,225,-187
1,1914705,2470,828,-520,-1478,-305,-37,245,225,-187
1,1914720,2466,827,-525,-1476,-301,-37,245,225,-187
1,1914733,2469,825,-534,-1475,-306,-36,245,225,-187
1,1914749,2467,826,-527,-1482,-303,-42,245,225,-187
1,1914765,2467,826,-527,-1482,-303,-42,245,225,-187
1,1914780,2467,826,-527,-1476,-301,-38,245,225,-187
1,1914797,2467,823,-525,-1480,-300,-42,245,225,-187
1,1914813,2468,823,-527,-1482,-304,-41,252,212,-188
1,1914820,2468,823,-527,-1482,-304,-41,252,212,-188
1,1914828,2468,825,-527,-1483,-308,-44,252,212,-188
1,1914836,2468,825,-527,-1483,-308,-44,252,212,-188
1,1914846,2468,825,-527,-1483,-308,-44,252,212,-188
1,1914861,2471,827,-530,-1481,-304,-41,252,212,-188
1,1914876,2468,828,-528,-1478,-301,-35,252,212,-188
1,1914892,2468,828,-532,-1473,-304,-40,252,212,-188
1,1914906,2465,827,-529,-1479,-297,-35,252,212,-188
1,1914921,2465,827,-529,-1479,-297,-35,252,212,-188
1,1914936,2469,826,-527,-1480,-304,-37,254,210,-180
1,1914951,2469,826,-529,-1479,-306,-43,254,210,-180
1,1914967,2465,828,-525,-1485,-300,-36,254,210,-180
1,1914980,2465,828,-525,-1485,-300,-36,254,210,-180
1,1914994,2469,824,-527,-1476,-288,-34,254,210,-180
1,1915009,2469,826,-529,-1472,-298,-41,254,210,-180
1,1915024,2469,826,-529,-1472,-298,-41,254,210,-180
1,1915039,2467,823,-529,-1481,-300,-49,254,210,-180
1,1915056,2470,826,-528,-1471,-301,-44,256,218,-184
1,1915071,2467,825,-530,-1475,-299,-39,256,218,-184
1,1915081,2467,825,-530,-1475,-299,-39,256,218,-184
1,1915094,2467,826,-526,-1478,-300,-38,256,218,-184
1,1915109,2468,826,-530,-1480,-299,-43,256,218,-184
1,1915124,2468,826,-530,-1480,-299,-43,256,218,-184
1,1915139,2466,827,-531,-1485,-302,-41,256,218,-184
1,1915154,2465,825,-533,-1481,-303,-39,256,218,-184
1,1915169,2467,825,-527,-1485,-304,-48,255,215,-191
1,1915185,2467,825,-527,-1485,-304,-48,255,215,-191
1,1915200,2465,826,-527,-1480,-308,-38,255,215,-191
1,1915215,2469,827,-529,-1478,-307,-40,255,215,-191
1,1915231,2468,825,-532,-1479,-302,-46,255,215,-191
1,1915246,2468,825,-532,-1479,-302,-46,255,215,-191
1,1915261,2468,826,-527,-1487,-307,-37,255,215,-191
1,1915277,2464,827,-529,-1483,-302,-38,255,215,-191
1,1915292,2467,830,-529,-1482,-310,-34,255,215,-191
1,1915308,2465,826,-524,-1478,-306,-37,256,220,-194
1,1915322,2465,826,-524,-1478,-306,-37,256,220,-194
1,1915337,2470,827,-528,-1479,-306,-45,256,220,-194
1,1915351,2467,825,-526,-1473,-299,-37,256,220,-194
1,1915362,2467,825,-526,-1473,-299,-37,256,220,-194
1,1915376,2468,825,-525,-1476,-297,-40,256,220,-194
1,1915384,2468,825,-525,-1476,-297,-40,256,220,-194
1,1915398,2466,826,-527,-1481,-300,-40,256,220,-194
1,1915411,2462,827,-526,-1473,-303,-41,256,220,-194
1,1915424,2462,827,-526,-1473,-303,-41,256,220,-194
1,1915440,2470,828,-527,-1474,-298,-42,259,217,-193
1,1915454,2466,828,-524,-1483,-300,-41,259,217,-193
1,1915467,2470,827,-525,-1479,-308,-42,259,217,-193
1,1915483,2470,827,-525,-1479,-308,-42,259,217,-193
1,1915497,2467,827,-527,-1476,-302,-36,259,217,-193
1,1915512,2467,828,-530,-1475,-300,-34,259,217,-193
1,1915528,2468,828,-527,-1471,-306,-43,259,217,-193
1,1915542,2468,828,-527,-1471,-306,-43,259,217,-193
1,1915557,2466,825,-525,-1473,-303,-42,251,219,-187
1,1915573,2466,829,-527,-1482,-304,-39,251,219,-187
1,1915587,2465,827,-524,-1480,-304,-36,251,219,-187
1,1915598,2465,827,-524,-1480,-304,-36,251,219,-187
1,1915611,2467,830,-530,-1476,-300,-40,251,219,-187
1,1915627,2469,825,-529,-1475,-300,-38,251,219,-187
1,1915642,2469,825,-529,-1475,-300,-38,251,219,-187
1,1915657,2467,825,-525,-1481,-307,-36,251,219,-187
1,1915671,2466,829,-526,-1483,-311,-37,260,218,-186
1,1915685,2466,829,-526,-1483,-311,-37,260,218,-186
1,1915702,2464,826,-527,-1484,-311,-37,260,218,-186
1,1915717,2465,827,-529,-1476,-306,-36,260,218,-186
1,1915732,2465,827,-530,-1475,-304,-45,260,218,-186
1,1915749,2465,825,-530,-1474,-302,-43,260,218,-186
1,1915764,2465,825,-530,-1474,-302,-43,260,218,-186
1,1915779,2467,825,-526,-1481,-306,-41,260,218,-186
1,1915794,2469,825,-527,-1482,-303,-34,260,218,-186
1,1915808,2464,825,-519,-1476,-302,-36,256,214,-186
1,1915824,2464,825,-519,-1476,-302,-36,256,214,-186
1,1915839,2467,825,-524,-1476,-300,-43,256,214,-186
1,1915852,2467,829,-532,-1478,-303,-39,256,214,-186
1,1915865,2467,829,-532,-1478,-303,-39,256,214,-186
1,1915879,2467,826,-530,-1479,-302,-38,256,214,-186
1,1915894,2465,828,-526,-1478,-295,-36,256,214,-186
1,1915909,2468,826,-525,-1479,-297,-38,256,214,-186
1,1915923,2468,826,-525,-1479,-297,-38,256,214,-186
1,1915935,2467,826,-527,-1477,-301,-38,255,211,-187
1,1915952,2468,824,-532,-1482,-300,-34,255,211,-187
1,1915965,2468,824,-532,-1482,-300,-34,255,211,-187
1,1915980,2469,828,-526,-1482,-296,-38,255,211,-187
1,1915996,2467,825,-527,-1481,-296,-37,255,211,-187
1,1916010,2466,828,-530,-1478,-299,-42,255,211,-187
1,1916026,2466,828,-530,-1478,-299,-42,255,211,-187
1,1916043,2467,829,-525,-1480,-306,-45,255,211,-187
1,1916056,2466,828,-529,-1475,-303,-44,249,223,-179
1,1916068,2465,828,-526,-1478,-302,-39,249,223,-179
1,1916082,2465,828,-526,-1478,-302,-39,249,223,-179
1,1916097,2468,825,-526,-1481,-301,-34,249,223,-179
1,1916111,2470,826,-525,-1474,-300,-44,249,223,-179
1,1916127,2467,827,-526,-1479,-296,-47,249,223,-179
1,1916142,2467,827,-526,-1479,-296,-47,249,223,-179
1,1916156,2468,829,-527,-1490,-306,-45,249,223,-179
1,1916172,2466,830,-532,-1470,-307,-36,255,227,-185
1,1916185,2466,830,-532,-1470,-307,-36,255,227,-185
1,1916199,2466,830,-532,-1470,-307,-36,255,227,-185
1,1916214,2466,827,-534,-1480,-303,-45,255,227,-185
1,1916230,2467,828,-530,-1476,-294,-48,255,227,-185
1,1916247,2465,828,-529,-1477,-305,-39,255,227,-185
1,1916263,2465,828,-529,-1477,-305,-39,255,227,-185
1,1916278,2468,827,-526,-1479,-306,-43,255,227,-185
1,1916294,2464,825,-530,-1481,-299,-38,255,227,-185
1,1916308,2467,827,-530,-1477,-298,-48,250,216,-184
1,1916320,2467,827,-530,-1477,-298,-48,250,216,-184
1,1916336,2467,828,-529,-1468,-301,-44,250,216,-184
1,1916349,2468,826,-534,-1474,-304,-35,250,216,-184
1,1916363,2468,826,-534,-1474,-304,-35,250,216,-184
1,1916379,2469,826,-528,-1483,-308,-42,250,216,-184
1,1916394,2464,823,-526,-1483,-307,-38,250,216,-184
1,1916409,2468,826,-526,-1480,-297,-33,250,216,-184
1,1916425,2468,826,-526,-1480,-297,-33,250,216,-184
1,1916441,2464,826,-523,-1483,-305,-40,254,222,-188
1,1916457,2466,826,-531,-1478,-304,-38,254,222,-188
1,1916473,2469,826,-525,-1470,-302,-36,254,222,-188
1,1916489,2469,829,-523,-1473,-308,-39,254,222,-188
1,1916505,2469,829,-523,-1473,-308,-39,254,222,-188
1,1916520,2465,828,-528,-1471,-306,-41,254,222,-188
1,1916533,2467,825,-526,-1484,-301,-37,254,222,-188
1,1916549,2466,829,-529,-1475,-308,-40,246,230,-186
1,1916564,2466,829,-529,-1475,-308,-40,246,230,-186
1,1916579,2464,825,-527,-1475,-300,-48,246,230,-186
1,1916589,2469,826,-524,-1476,-298,-46,246,230,-186
1,1916604,2469,826,-524,-1476,-298,-46,246,230,-186
1,1916616,2469,826,-531,-1479,-300,-35,246,230,-186
1,1916633,2467,824,-528,-1488,-298,-38,246,230,-186
1,1916648,2463,825,-531,-1481,-299,-34,246,230,-186
1,1916664,2463,825,-531,-1481,-299,-34,246,230,-186
1,1916680,2465,825,-521,-1473,-304,-37,247,213,-181
1,1916694,2467,823,-527,-1487,-302,-34,247,213,-181
1,1916708,2465,826,-528,-1482,-300,-34,247,213,-181
1,1916724,2465,826,-528,-1482,-300,-34,247,213,-181
1,1916735,2468,827,-523,-1479,-302,-36,247,213,-181
1,1916750,2467,825,-526,-1478,-300,-35,247,213,-181
1,1916766,2467,825,-526,-1478,-300,-35,247,213,-181
1,1916780,2470,827,-527,-1481,-309,-38,247,213,-181
1,1916793,2466,826,-531,-1477,-301,-41,254,228,-192
1,1916806,2466,826,-531,-1477,-301,-41,254,228,-192
1,1916822,2470,828,-523,-1476,-300,-42,254,228,-192
1,1916836,2468,824,-531,-1475,-304,-45,254,228,-192
1,1916851,2467,828,-531,-1483,-297,-35,254,228,-192
1,1916866,2467,828,-531,-1483,-297,-35,254,228,-192
1,1916880,2467,828,-531,-1483,-297,-35,254,228,-192
1,1916896,2468,824,-531,-1478,-299,-33,254,228,-192
1,1916911,2469,824,-528,-1478,-303,-38,254,228,-192
1,1916926,2469,824,-528,-1478,-303,-38,254,228,-192
1,1916943,2467,824,-526,-1476,-308,-42,249,221,-189
1,1916959,2464,825,-530,-1483,-303,-40,249,221,-189
1,1916975,2467,827,-529,-1485,-304,-45,249,221,-189
1,1916990,2470,826,-526,-1478,-303,-41,249,221,-189
1,1917006,2470,826,-526,-1478,-303,-41,249,221,-189
1,1917022,2470,825,-528,-1479,-308,-36,249,221,-189
1,1917037,2467,827,-530,-1478,-302,-38,249,221,-189
1,1917052,2466,829,-528,-1474,-297,-35,244,226,-186
1,1917067,2469,826,-523,-1481,-299,-37,244,226,-186
1,1917082,2469,826,-523,-1481,-299,-37,244,226,-186
1,1917097,2465,824,-526,-1477,-297,-37,244,226,-186
1,1917113,2469,827,-523,-1481,-306,-38,244,226,-186
1,1917128,2469,825,-530,-1488,-301,-40,244,226,-186
1,1917142,2469,825,-530,-1488,-301,-40,244,226,-186
1,1917155,2466,825,-531,-1481,-301,-34,244,226,-186
1,1917169,2468,827,-521,-1478,-307,-34,250,222,-184
1,1917185,2468,827,-521,-1478,-307,-34,250,222,-184
1,1917200,2468,826,-527,-1480,-304,-41,250,222,-184
1,1917216,2466,827,-527,-1477,-300,-44,250,222,-184
1,1917231,2466,825,-530,-1482,-302,-43,250,222,-184
1,1917244,2466,825,-530,-1482,-302,-43,250,222,-184
1,1917258,2468,828,-527,-1478,-304,-31,250,222,-184
1,1917274,2469,824,-533,-1485,-307,-39,250,222,-184
1,1917288,2465,823,-525,-1478,-302,-41,248,218,-186
1,1917304,2465,823,-525,-1478,-302,-41,248,218,-186
1,1917319,2465,828,-522,-1483,-303,-33,248,218,-186
1,1917333,2469,827,-531,-1487,-306,-34,248,218,-186
1,1917348,2467,827,-528,-1485,-308,-32,248,218,-186
1,1917363,2467,827,-528,-1485,-308,-32,248,218,-186
1,1917375,2465,829,-531,-1473,-297,-35,248,218,-186
1,1917388,2470,829,-527,-1477,-303,-40,248,218,-186
1,1917403,2470,829,-527,-1477,-303,-40,248,218,-186
1,1917418,2468,830,-528,-1477,-307,-44,248,218,-186
1,1917433,2468,827,-525,-1480,-306,-42,254,224,-182
1,1917447,2468,826,-527,-1479,-302,-31,254,224,-182
1,1917463,2468,826,-527,-1479,-302,-31,254,224,-182
1,1917479,2468,824,-527,-1483,-301,-33,254,224,-182
1,1917495,2465,826,-528,-1484,-303,-39,254,224,-182
1,1917509,2470,827,-532,-1480,-300,-36,254,224,-182
1,1917526,2470,827,-532,-1480,-300,-36,254,224,-182
1,1917542,2468,830,-528,-1474,-299,-39,254,224,-182
1,1917555,2464,828,-526,-1481,-300,-35,251,219,-197
1,1917563,2464,828,-526,-1481,-300,-35,251,219,-197
1,1917577,2464,830,-529,-1473,-299,-37,251,219,-197
1,1917592,2468,826,-524,-1477,-306,-39,251,219,-197
1,1917605,2468,826,-524,-1477,-306,-39,251,219,-197
1,1917620,2468,824,-527,-1479,-301,-38,251,219,-197
1,1917631,2468,824,-527,-1479,-305,-44,251,219,-197
1,1917645,2468,824,-527,-1479,-305,-44,251,219,-197
1,1917659,2468,826,-528,-1484,-301,-44,251,219,-197
1,1917672,2468,825,-524,-1481,-300,-46,257,217,-183
1,1917688,2468,827,-529,-1482,-299,-42,257,217,-183
1,1917704,2468,827,-529,-1482,-299,-42,257,217,-183
1,1917720,2466,824,-528,-1476,-305,-45,257,217,-183
1,1917736,2468,825,-525,-1482,-302,-45,257,217,-183
1,1917752,2469,824,-529,-1480,-299,-38,257,217,-183
1,1917768,2468,828,-531,-1478,-303,-33,257,217,-183
1,1917784,2468,828,-531,-1478,-303,-33,257,217,-183
1,1917798,2467,826,-521,-1475,-301,-36,247,221,-193
1,1917814,2467,827,-528,-1476,-296,-40,247,221,-193
1,1917826,2467,827,-528,-1476,-296,-40,247,221,-193
1,1917840,2468,827,-525,-1475,-309,-38,247,221,-193
1,1917855,2466,824,-528,-1487,-304,-41,247,221,-193
1,1917872,2465,825,-528,-1479,-306,-41,247,221,-193
1,1917888,2469,828,-530,-1477,-303,-40,247,221,-193
1,1917904,2469,828,-530,-1477,-303,-40,247,221,-193
1,1917921,2463,828,-526,-1480,-300,-49,247,221,-193
1,1917937,2469,828,-523,-1478,-304,-44,248,216,-192
1,1917954,2465,827,-528,-1474,-302,-38,248,216,-192
1,1917963,2465,827,-528,-1474,-302,-38,248,216,-192
1,1917978,2467,827,-531,-1478,-297,-35,248,216,-192
1,1917995,2466,824,-526,-1474,-297,-37,248,216,-192
1,1918010,2468,827,-525,-1479,-301,-42,248,216,-192
1,1918026,2468,827,-525,-1479,-301,-42,248,216,-192
1,1918041,2465,828,-532,-1476,-304,-35,248,216,-192
1,1918056,2466,828,-523,-1479,-305,-35,252,214,-190
1,1918071,2467,828,-529,-1484,-305,-29,252,214,-190
1,1918086,2467,828,-529,-1484,-305,-29,252,214,-190
1,1918095,2467,822,-526,-1487,-302,-30,252,214,-190
1,1918111,2468,827,-529,-1482,-303,-34,252,214,-190
1,1918125,2468,827,-529,-1482,-303,-34,252,214,-190
1,1918140,2469,828,-531,-1479,-301,-41,252,214,-190
1,1918156,2466,827,-532,-1483,-301,-39,252,214,-190
1,1918173,2468,827,-526,-1475,-301,-42,255,217,-191
1,1918188,2467,826,-525,-1478,-299,-40,255,217,-191
1,1918204,2467,826,-525,-1478,-299,-40,255,217,-191
1,1918220,2466,826,-529,-1480,-300,-41,255,217,-191
1,1918233,2468,827,-532,-1486,-301,-39,255,217,-191
1,1918247,2471,827,-528,-1482,-302,-39,255,217,-191
1,1918264,2471,827,-528,-1482,-302,-39,255,217,-191
1,1918279,2466,826,-528,-1475,-306,-35,255,217,-191
1,1918295,2471,831,-526,-1473,-299,-32,256,218,-186
1,1918310,2469,830,-526,-1478,-304,-40,256,218,-186
1,1918325,2469,830,-526,-1478,-304,-40,256,218,-186
1,1918341,2469,827,-529,-1479,-300,-46,256,218,-186
1,1918355,2466,825,-529,-1479,-303,-42,256,218,-186
1,1918370,2468,827,-531,-1484,-303,-42,256,218,-186
1,1918386,2468,827,-531,-1484,-303,-42,256,218,-186
1,1918402,2467,826,-532,-1483,-302,-39,256,218,-186
1,1918417,2466,827,-528,-1478,-301,-41,256,218,-186
1,1918434,2470,827,-531,-1478,-311,-43,255,213,-187
1,1918449,2467,826,-532,-1481,-302,-44,255,213,-187
1,1918465,2467,826,-532,-1481,-302,-44,255,213,-187
1,1918481,2468,826,-528,-1474,-302,-33,255,213,-187
1,1918496,2467,824,-526,-1476,-303,-36,255,213,-187
1,1918512,2468,827,-526,-1484,-304,-38,255,213,-187
1,1918527,2468,827,-526,-1484,-304,-38,255,213,-187
1,1918542,2468,826,-528,-1480,-301,-39,255,213,-187
1,1918558,2466,826,-528,-1476,-298,-37,259,223,-187
1,1918573,2467,826,-526,-1476,-302,-42,259,223,-187
1,1918589,2470,823,-529,-1477,-306,-36,259,223,-187
1,1918605,2470,823,-529,-1477,-306,-36,259,223,-187
1,1918614,2467,828,-529,-1474,-306,-38,259,223,-187
1,1918626,2467,828,-529,-1474,-306,-38,259,223,-187
1,1918643,2468,829,-527,-1474,-299,-44,259,223,-187
1,1918659,2468,825,-531,-1480,-299,-38,259,223,-187
1,1918675,2469,828,-524,-1484,-302,-41,253,215,-193
1,1918692,2467,824,-522,-1482,-302,-38,253,215,-193
1,1918708,2466,824,-528,-1480,-298,-39,253,215,-193
1,1918725,2466,824,-528,-1480,-298,-39,253,215,-193
1,1918741,2466,825,-529,-1478,-304,-40,253,215,-193
1,1918755,2464,827,-532,-1484,-307,-33,253,215,-193
1,1918771,2468,828,-524,-1479,-305,-28,253,215,-193
1,1918785,2468,828,-524,-1479,-305,-28,253,215,-193
1,1918798,2465,826,-523,-1475,-305,-31,247,217,-183
1,1918812,2465,830,-523,-1479,-307,-34,247,217,-183
1,1918826,2465,830,-523,-1479,-307,-34,247,217,-183
1,1918841,2469,828,-533,-1482,-302,-36,247,217,-183
1,1918857,2464,827,-531,-1482,-300,-39,247,217,-183
1,1918872,2462,827,-532,-1486,-300,-40,247,217,-183
1,1918887,2462,827,-532,-1486,-300,-40,247,217,-183
1,1918904,2465,823,-528,-1484,-302,-42,247,217,-183
1,1918919,2465,824,-532,-1475,-299,-37,257,225,-193
1,1918936,2466,827,-526,-1480,-301,-31,257,225,-193
1,1918951,2466,828,-527,-1479,-303,-37,257,225,-193
1,1918966,2466,828,-527,-1479,-303,-37,257,225,-193
1,1918982,2466,829,-530,-1481,-305,-41,257,225,-193
1,1918997,2468,829,-528,-1478,-305,-40,257,225,-193
1,1919012,2466,828,-533,-1477,-303,-39,257,225,-193
1,1919027,2466,828,-533,-1477,-303,-39,257,225,-193
1,1919042,2466,826,-527,-1479,-296,-40,257,225,-193
1,1919058,2467,827,-520,-1482,-298,-37,253,215,-187
1,1919073,2466,828,-528,-1476,-294,-30,253,215,-187
1,1919088,2467,825,-531,-1473,-297,-36,253,215,-187
1,1919104,2467,825,-531,-1473,-297,-36,253,215,-187
1,1919120,2469,827,-528,-1481,-298,-35,253,215,-187
1,1919134,2468,826,-531,-1477,-305,-40,253,215,-187
1,1919150,2468,827,-531,-1484,-305,-42,253,215,-187
1,1919163,2468,827,-531,-1484,-305,-42,253,215,-187
1,1919178,2468,825,-527,-1491,-300,-41,252,224,-182
1,1919194,2471,825,-526,-1479,-303,-43,252,224,-182
1,1919206,2471,825,-526,-1479,-303,-43,252,224,-182
1,1919217,2470,826,-529,-1479,-302,-37,252,224,-182
1,1919232,2468,828,-527,-1483,-309,-31,252,224,-182
1,1919246,2468,828,-527,-1483,-309,-31,252,224,-182
1,1919260,2469,826,-530,-1479,-305,-32,252,224,-182
1,1919277,2469,826,-529,-1476,-304,-36,252,224,-182
1,1919291,2466,826,-523,-1478,-300,-39,251,209,-189
1,1919306,2466,826,-523,-1478,-300,-39,251,209,-189
1,1919321,2467,827,-520,-1480,-307,-31,251,209,-189
1,1919332,2465,827,-529,-1480,-309,-37,251,209,-189
1,1919347,2465,827,-529,-1480,-309,-37,251,209,-189
1,1919363,2466,826,-528,-1478,-299,-34,251,209,-189
1,1919378,2465,824,-528,-1475,-295,-38,251,209,-189
1,1919394,2466,829,-531,-1484,-307,-39,251,209,-189
1,1919408,2466,829,-531,-1484,-307,-39,251,209,-189
1,1919420,2468,826,-530,-1475,-303,-40,251,217,-189
1,1919433,2464,824,-524,-1480,-305,-38,251,217,-189
1,1919448,2464,824,-524,-1480,-305,-38,251,217,-189
1,1919461,2467,825,-527,-1473,-302,-41,251,217,-189
1,1919476,2471,825,-529,-1479,-298,-36,251,217,-189
1,1919490,2469,827,-531,-1479,-309,-46,251,217,-189
1,1919502,2469,827,-531,-1479,-309,-46,251,217,-189
1,1919515,2467,829,-529,-1480,-302,-36,251,217,-189
1,1919529,2463,827,-532,-1484,-301,-44,251,217,-189
1,1919544,2463,827,-532,-1484,-301,-44,251,217,-189
1,1919558,2466,826,-526,-1477,-299,-40,254,224,-186
1,1919574,2470,826,-527,-1474,-300,-41,254,224,-186
1,1919590,2467,828,-533,-1482,-296,-38,254,224,-186
1,1919605,2467,828,-533,-1482,-296,-38,254,224,-186
1,1919617,2468,830,-531,-1482,-294,-28,254,224,-186
1,1919631,2469,826,-532,-1483,-299,-28,254,224,-186
1,1919646,2469,826,-532,-1483,-299,-28,254,224,-186
1,1919662,2467,827,-527,-1474,-303,-36,254,224,-186
1,1919675,2468,827,-522,-1473,-304,-39,245,213,-191
1,1919686,2468,827,-522,-1473,-304,-39,245,213,-191
1,1919700,2466,826,-528,-1475,-306,-44,245,213,-191
1,1919714,2467,828,-534,-1480,-308,-40,245,213,-191
1,1919728,2467,828,-534,-1480,-308,-40,245,213,-191
1,1919742,2468,828,-525,-1479,-302,-38,245,213,-191
1,1919755,2465,828,-529,-1478,-305,-42,245,213,-191
1,1919764,2465,828,-529,-1478,-305,-42,245,213,-191
1,1919774,2467,825,-534,-1484,-306,-39,245,213,-191
1,1919790,2465,824,-525,-1480,-301,-30,256,218,-186
1,1919806,2465,824,-525,-1480,-301,-30,256,218,-186
1,1919821,2464,829,-526,-1488,-305,-30,256,218,-186
1,1919837,2466,824,-530,-1488,-297,-33,256,218,-186
1,1919850,2466,829,-535,-1479,-303,-41,256,218,-186
1,1919864,2466,829,-535,-1479,-303,-41,256,218,-186
1,1919879,2468,826,-528,-1484,-307,-35,256,218,-186
1,1919892,2465,825,-526,-1476,-307,-32,256,218,-186
1,1919906,2465,825,-526,-1476,-307,-32,256,218,-186
1,1919920,2464,825,-527,-1475,-311,-37,251,213,-187
1,1919934,2468,824,-521,-1484,-303,-40,251,213,-187
1,1919948,2467,827,-528,-1483,-298,-29,251,213,-187
1,1919963,2467,827,-528,-1483,-298,-29,251,213,-187
1,1919976,2464,829,-528,-1480,-308,-28,251,213,-187
1,1919988,2467,826,-530,-1480,-304,-37,251,213,-187
1,1920002,2467,826,-530,-1480,-304,-37,251,213,-187
1,1920017,2467,826,-530,-1482,-300,-34,251,213,-187
1,1920032,2467,826,-535,-1476,-298,-34,251,213,-187
1,1920048,2468,824,-525,-1477,-307,-38,251,213,-187
1,1920064,2468,824,-525,-1477,-307,-38,249,207,-181
1,1920078,2467,824,-528,-1485,-305,-34,249,207,-181
1,1920092,2467,825,-531,-1482,-302,-37,249,207,-181
1,1920105,2467,825,-531,-1482,-302,-37,249,207,-181
1,1920118,2466,828,-531,-1477,-302,-44,249,207,-181
1,1920133,2466,828,-529,-1476,-301,-33,249,207,-181
1,1920147,2466,828,-529,-1476,-301,-33,249,207,-181
1,1920162,2467,828,-526,-1485,-304,-42,249,207,-181
1,1920175,2466,828,-526,-1484,-306,-34,261,215,-193
1,1920187,2466,828,-526,-1484,-306,-34,261,215,-193
1,1920202,2467,829,-528,-1473,-304,-34,261,215,-193
1,1920217,2467,828,-526,-1474,-301,-39,261,215,-193
1,1920229,2467,826,-525,-1472,-297,-41,261,215,-193
1,1920244,2467,826,-525,-1472,-297,-41,261,215,-193
1,1920261,2465,825,-522,-1483,-304,-39,261,215,-193
1,1920275,2467,824,-529,-1480,-300,-37,261,215,-193
1,1920290,2466,826,-523,-1476,-303,-34,246,218,-188
1,1920306,2466,826,-523,-1476,-303,-34,246,218,-188
1,1920320,2466,828,-525,-1475,-299,-33,246,218,-188
1,1920334,2466,826,-530,-1474,-302,-38,246,218,-188
1,1920349,2464,826,-532,-1477,-308,-35,246,218,-188
1,1920363,2464,826,-532,-1477,-308,-35,246,218,-188
1,1920372,2468,826,-529,-1474,-307,-35,246,218,-188
1,1920387,2468,826,-529,-1474,-307,-35,246,218,-188
1,1920402,2468,826,-529,-1474,-307,-35,246,218,-188
1,1920416,2467,829,-527,-1485,-306,-29,249,221,-185
1,1920431,2467,824,-523,-1486,-306,-40,249,221,-185
1,1920446,2467,824,-523,-1486,-306,-40,249,221,-185
1,1920459,2465,827,-528,-1480,-307,-31,249,221,-185
1,1920472,2464,824,-529,-1480,-299,-34,249,221,-185
1,1920486,2464,824,-529,-1480,-299,-34,249,221,-185
1,1920501,2469,824,-530,-1484,-300,-40,249,221,-185
1,1920517,2467,825,-529,-1484,-300,-43,249,221,-185
1,1920532,2466,827,-526,-1480,-300,-37,249,221,-185
1,1920545,2466,827,-526,-1480,-300,-37,249,221,-185
1,1920561,2467,825,-525,-1479,-303,-29,249,217,-189
1,1920575,2464,828,-524,-1477,-304,-35,249,217,-189
1,1920591,2466,828,-527,-1475,-302,-36,249,217,-189
1,1920607,2466,828,-527,-1475,-302,-36,249,217,-189
1,1920621,2464,821,-527,-1474,-303,-34,249,217,-189
1,1920635,2464,827,-529,-1482,-302,-33,249,217,-189
1,1920650,2467,825,-528,-1480,-306,-34,249,217,-189
1,1920664,2467,825,-528,-1480,-306,-34,249,217,-189
1,1920676,2467,825,-525,-1485,-306,-33,261,211,-191
1,1920689,2465,827,-530,-1478,-300,-35,261,211,-191
1,1920702,2465,827,-530,-1478,-300,-35,261,211,-191
1,1920717,2470,825,-527,-1484,-303,-32,261,211,-191
1,1920732,2471,824,-527,-1479,-307,-39,261,211,-191
1,1920747,2471,824,-527,-1479,-307,-39,261,211,-191
1,1920762,2466,827,-526,-1481,-305,-41,261,211,-191
1,1920778,2467,826,-529,-1479,-296,-41,261,211,-191
1,1920793,2465,826,-524,-1478,-303,-30,250,212,-200
1,1920809,2467,826,-530,-1483,-307,-34,250,212,-200
1,1920825,2467,826,-530,-1483,-307,-34,250,212,-200
1,1920838,2467,825,-527,-1481,-307,-37,250,212,-200
1,1920854,2466,827,-528,-1477,-305,-36,250,212,-200
1,1920867,2466,827,-528,-1477,-305,-36,250,212,-200
1,1920878,2468,824,-530,-1482,-304,-41,250,212,-200
1,1920893,2466,826,-528,-1477,-305,-36,250,212,-200
1,1920909,2469,826,-532,-1474,-303,-37,259,213,-187
1,1920922,2469,826,-532,-1474,-303,-37,259,213,-187
1,1920936,2468,826,-526,-1475,-302,-40,259,213,-187
1,1920950,2468,826,-531,-1476,-300,-35,259,213,-187
1,1920965,2468,826,-531,-1476,-300,-35,259,213,-187
1,1920980,2467,827,-526,-1487,-304,-35,259,213,-187
1,1920995,2467,827,-534,-1490,-300,-40,259,213,-187
1,1921008,2467,827,-534,-1490,-300,-40,259,213,-187
1,1921022,2467,827,-534,-1490,-300,-40,259,213,-187
1,1921038,2467,829,-530,-1484,-304,-39,246,222,-194
1,1921053,2468,824,-528,-1469,-309,-40,246,222,-194
1,1921070,2467,826,-529,-1478,-303,-39,246,222,-194
1,1921083,2467,826,-529,-1478,-303,-39,246,222,-194
1,1921095,2468,824,-529,-1481,-304,-39,246,222,-194
1,1921110,2466,827,-525,-1482,-304,-38,246,222,-194
1,1921124,2466,827,-525,-1482,-304,-38,246,222,-194
1,1921138,2470,829,-528,-1478,-301,-43,246,222,-194
1,1921153,2464,826,-529,-1480,-303,-39,246,222,-194
1,1921167,2464,826,-529,-1480,-303,-39,246,222,-194
1,1921180,2467,829,-528,-1477,-305,-31,255,213,-183
1,1921195,2465,828,-532,-1476,-304,-33,255,213,-183
1,1921208,2465,828,-532,-1476,-304,-33,255,213,-183
1,1921223,2467,823,-526,-1477,-303,-37,255,213,-183
1,1921238,2467,827,-532,-1477,-304,-38,255,213,-183
1,1921253,2467,824,-530,-1475,-305,-37,255,213,-183
1,1921266,2467,824,-530,-1475,-305,-37,255,213,-183
1,1921283,2466,826,-529,-1481,-304,-36,255,213,-183
1,1921297,2465,827,-523,-1478,-306,-39,248,222,-186
1,1921312,2466,826,-526,-1473,-306,-34,248,222,-186
1,1921328,2466,826,-526,-1473,-306,-34,248,222,-186
1,1921342,2469,824,-526,-1471,-299,-33,248,222,-186
1,1921356,2466,827,-530,-1485,-307,-36,248,222,-186
1,1921371,2466,826,-528,-1476,-307,-39,248,222,-186
1,1921385,2466,826,-528,-1476,-307,-39,248,222,-186
1,1921398,2467,825,-532,-1471,-300,-42,248,222,-186
1,1921411,2467,826,-522,-1475,-301,-38,256,222,-188
1,1921425,2467,826,-522,-1475,-301,-38,256,222,-188
1,1921440,2466,825,-526,-1479,-299,-36,256,222,-188
1,1921456,2468,826,-525,-1483,-300,-38,256,222,-188
1,1921470,2465,826,-531,-1478,-302,-38,256,222,-188
1,1921484,2465,826,-531,-1478,-302,-38,256,222,-188
1,1921501,2467,825,-527,-1471,-303,-40,256,222,-188
1,1921516,2468,828,-531,-1469,-304,-45,256,222,-188
1,1921531,2465,826,-531,-1470,-300,-41,252,214,-194
1,1921547,2465,826,-531,-1470,-300,-41,252,214,-194
1,1921562,2464,826,-526,-1477,-301,-42,252,214,-194
1,1921576,2465,829,-528,-1481,-299,-41,252,214,-194
1,1921590,2466,824,-528,-1474,-306,-33,252,214,-194
1,1921604,2466,824,-528,-1474,-306,-33,252,214,-194
1,1921618,2466,825,-530,-1477,-302,-45,252,214,-194
1,1921632,2466,825,-530,-1486,-295,-40,252,214,-194
1,1921644,2466,825,-530,-1486,-295,-40,252,214,-194
1,1921658,2466,824,-528,-1480,-297,-38,252,214,-194
1,1921673,2467,824,-526,-1475,-299,-37,249,219,-179
1,1921686,2467,824,-526,-1475,-299,-37,249,219,-179
1,1921701,2469,825,-530,-1483,-303,-43,249,219,-179
1,1921717,2469,825,-530,-1483,-303,-43,249,219,-179
1,1921732,2467,828,-531,-1476,-304,-36,249,219,-179
1,1921747,2467,828,-531,-1476,-304,-36,249,219,-179
1,1921764,2466,825,-528,-1471,-304,-28,249,219,-179
1,1921775,2465,827,-530,-1477,-308,-36,249,219,-179
1,1921789,2467,827,-523,-1470,-302,-38,247,219,-189
1,1921804,2467,827,-523,-1470,-302,-38,247,219,-189
1,1921815,2469,827,-526,-1482,-305,-36,247,219,-189
1,1921823,2469,827,-526,-1482,-305,-36,247,219,-189
1,1921838,2467,827,-528,-1485,-303,-43,247,219,-189
1,1921848,2467,827,-528,-1485,-303,-43,247,219,-189
1,1921862,2470,824,-533,-1479,-299,-38,247,219,-189
1,1921869,2465,827,-529,-1477,-300,-39,247,219,-189
1,1921883,2465,827,-529,-1477,-300,-39,247,219,-189
1,1921896,2467,825,-531,-1477,-301,-32,247,219,-189
1,1921910,2466,826,-527,-1477,-297,-30,252,220,-182
1,1921926,2466,826,-527,-1477,-297,-30,252,220,-182
1,1921941,2468,827,-525,-1477,-307,-36,252,220,-182
1,1921956,2467,829,-529,-1482,-305,-38,252,220,-182
1,1921969,2468,825,-527,-1477,-301,-35,252,220,-182
1,1921983,2468,825,-527,-1477,-301,-35,252,220,-182
1,1921997,2466,827,-527,-1482,-304,-36,252,220,-182
1,1922012,2469,829,-531,-1485,-302,-37,252,220,-182
1,1922026,2469,829,-531,-1485,-302,-37,252,220,-182
1,1922040,2465,827,-525,-1479,-308,-31,249,211,-183
1,1922055,2466,827,-526,-1478,-305,-43,249,211,-183
1,1922068,2466,827,-526,-1478,-305,-43,249,211,-183
1,1922078,2465,826,-530,-1479,-303,-35,249,211,-183
1,1922093,2467,827,-528,-1474,-299,-35,249,211,-183
1,1922107,2467,827,-528,-1474,-299,-35,249,211,-183
1,1922121,2468,824,-532,-1478,-304,-42,249,211,-183
1,1922134,2467,826,-536,-1476,-308,-41,249,211,-183
1,1922149,2467,824,-528,-1475,-303,-31,249,211,-183
1,1922163,2467,824,-528,-1475,-303,-31,249,211,-183
1,1922178,2467,826,-527,-1488,-302,-44,251,219,-195
1,1922193,2466,825,-528,-1481,-300,-37,251,219,-195
1,1922208,2466,825,-528,-1481,-300,-37,251,219,-195
1,1922222,2466,824,-532,-1479,-304,-37,251,219,-195
1,1922235,2467,825,-528,-1481,-299,-34,251,219,-195
1,1922249,2470,825,-524,-1484,-298,-36,251,219,-195
1,1922263,2470,825,-524,-1484,-298,-36,251,219,-195
1,1922277,2466,828,-527,-1487,-303,-36,251,219,-195
1,1922292,2466,824,-531,-1487,-299,-41,252,216,-194
1,1922307,2466,824,-531,-1487,-299,-41,252,216,-194
1,1922322,2465,826,-523,-1479,-312,-45,252,216,-194
1,1922334,2466,827,-530,-1479,-299,-40,252,216,-194
1,1922347,2466,827,-530,-1479,-299,-40,252,216,-194
1,1922363,2467,827,-527,-1488,-301,-35,252,216,-194
1,1922378,2470,826,-536,-1491,-305,-39,252,216,-194
1,1922394,2467,826,-529,-1480,-302,-40,252,216,-194
1,1922408,2467,826,-529,-1480,-302,-40,252,216,-194
1,1922419,2468,826,-518,-1478,-308,-42,252,218,-184
1,1922435,2471,827,-531,-1479,-309,-41,252,218,-184
1,1922450,2468,823,-528,-1475,-306,-31,252,218,-184
1,1922464,2468,823,-528,-1475,-306,-31,252,218,-184
1,1922479,2468,826,-527,-1473,-306,-37,252,218,-184
1,1922494,2466,825,-530,-1476,-298,-37,252,218,-184
1,1922509,2464,826,-528,-1470,-305,-38,252,218,-184
1,1922524,2464,826,-528,-1470,-305,-38,252,218,-184
1,1922538,2468,827,-528,-1480,-300,-43,254,212,-192
1,1922550,2468,827,-531,-1482,-304,-44,254,212,-192
1,1922565,2468,827,-531,-1482,-304,-44,254,212,-192
1,1922578,2470,828,-530,-1485,-300,-38,254,212,-192
1,1922592,2468,827,-530,-1484,-301,-38,254,212,-192
1,1922608,2468,827,-530,-1484,-301,-38,254,212,-192
1,1922622,2467,826,-529,-1485,-304,-36,254,212,-192
1,1922632,2466,825,-531,-1478,-303,-36,254,212,-192
1,1922643,2466,825,-531,-1478,-303,-36,254,212,-192
1,1922658,2468,824,-528,-1471,-308,-44,254,212,-192
1,1922671,2465,825,-525,-1483,-307,-38,258,216,-190
1,1922683,2465,825,-525,-1483,-307,-38,258,216,-190
1,1922698,2468,824,-530,-1478,-302,-37,258,216,-190
1,1922713,2466,825,-528,-1484,-303,-29,258,216,-190
1,1922728,2466,825,-528,-1484,-303,-29,258,216,-190
1,1922743,2464,828,-533,-1477,-300,-33,258,216,-190
1,1922755,2471,829,-534,-1472,-302,-36,258,216,-190
1,1922768,2471,829,-534,-1472,-302,-36,258,216,-190
1,1922783,2470,826,-529,-1477,-305,-36,258,216,-190
1,1922797,2467,827,-526,-1477,-303,-41,258,222,-178
1,1922811,2469,828,-532,-1481,-298,-38,258,222,-178
1,1922826,2469,828,-532,-1481,-298,-38,258,222,-178
1,1922835,2470,825,-532,-1486,-304,-39,258,222,-178
1,1922849,2470,825,-532,-1486,-304,-39,258,222,-178
1,1922865,2468,827,-531,-1483,-304,-39,258,222,-178
1,1922878,2467,827,-526,-1483,-302,-40,258,222,-178
1,1922891,2466,827,-532,-1476,-301,-43,258,222,-178
1,1922906,2466,827,-532,-1476,-301,-43,258,222,-178
1,1922921,2468,826,-526,-1477,-301,-34,250,218,-186
1,1922937,2465,825,-529,-1475,-300,-35,250,218,-186
1,1922953,2467,825,-531,-1478,-300,-34,250,218,-186
1,1922967,2467,825,-531,-1478,-300,-34,250,218,-186
1,1922981,2467,828,-526,-1479,-304,-39,250,218,-186
1,1922996,2468,826,-528,-1479,-302,-35,250,218,-186
1,1923009,2462,826,-531,-1480,-306,-43,250,218,-186
1,1923025,2462,826,-531,-1480,-306,-43,250,218,-186
1,1923038,2467,829,-528,-1474,-302,-44,248,218,-186
1,1923050,2467,827,-528,-1477,-301,-38,248,218,-186
1,1923065,2467,827,-528,-1477,-301,-38,248,218,-186
1,1923080,2467,826,-527,-1488,-302,-38,248,218,-186
1,1923094,2468,825,-529,-1482,-305,-37,248,218,-186
1,1923109,2467,827,-532,-1475,-310,-35,248,218,-186
1,1923125,2467,827,-532,-1475,-310,-35,248,218,-186
1,1923140,2466,827,-531,-1481,-304,-44,248,218,-186
1,1923156,2468,827,-531,-1478,-303,-37,250,214,-182
1,1923172,2468,826,-521,-1473,-304,-38,250,214,-182
1,1923187,2468,826,-521,-1473,-304,-38,250,214,-182
1,1923202,2464,823,-525,-1479,-300,-39,250,214,-182
1,1923216,2465,824,-530,-1476,-306,-39,250,214,-182
1,1923232,2466,824,-526,-1481,-308,-35,250,214,-182
1,1923247,2466,824,-526,-1481,-308,-35,250,214,-182
1,1923256,2467,825,-530,-1477,-309,-33,250,214,-182
1,1923264,2467,825,-530,-1477,-309,-33,250,214,-182
1,1923278,2467,826,-527,-1475,-308,-39,250,214,-182
1,1923292,2467,828,-526,-1479,-306,-41,249,211,-183
1,1923304,2467,828,-526,-1479,-306,-41,249,211,-183
1,1923312,2466,828,-528,-1482,-308,-37,249,211,-183
1,1923320,2466,828,-528,-1482,-308,-37,249,211,-183
1,1923335,2466,827,-529,-1476,-304,-38,249,211,-183
1,1923349,2466,827,-529,-1476,-304,-38,249,211,-183
1,1923362,2466,826,-527,-1479,-307,-32,249,211,-183
1,1923378,2467,824,-532,-1474,-305,-33,249,211,-183
1,1923393,2468,828,-528,-1479,-301,-34,249,211,-183
1,1923408,2468,828,-528,-1479,-301,-34,249,211,-183
1,1923424,2469,826,-523,-1478,-301,-34,254,226,-186
1,1923439,2466,829,-528,-1480,-298,-37,254,226,-186
1,1923454,2467,824,-527,-1483,-299,-35,254,226,-186
1,1923468,2467,824,-527,-1483,-299,-35,254,226,-186
1,1923483,2470,824,-531,-1478,-300,-36,254,226,-186
1,1923497,2467,825,-531,-1480,-303,-35,254,226,-186
1,1923510,2468,830,-529,-1477,-302,-46,254,226,-186
1,1923521,2468,830,-529,-1477,-302,-46,254,226,-186
1,1923536,2466,829,-528,-1481,-300,-38,253,225,-195
1,1923551,2468,824,-526,-1480,-302,-33,253,225,-195
1,1923565,2468,824,-526,-1480,-302,-33,253,225,-195
1,1923579,2464,828,-528,-1476,-303,-37,253,225,-195
1,1923591,2465,825,-530,-1476,-299,-37,253,225,-195
1,1923604,2465,825,-530,-1476,-299,-37,253,225,-195
1,1923618,2468,826,-532,-1475,-301,-36,253,225,-195
1,1923634,2466,826,-532,-1485,-305,-31,253,225,-195
1,1923648,2466,826,-532,-1485,-305,-31,253,225,-195
1,1923660,2465,824,-527,-1482,-300,-31,248,212,-192
1,1923676,2465,826,-530,-1481,-306,-40,248,212,-192
1,1923691,2465,828,-526,-1478,-299,-37,248,212,-192
1,1923706,2465,828,-526,-1478,-299,-37,248,212,-192
1,1923721,2468,827,-526,-1480,-307,-33,248,212,-192
1,1923734,2465,826,-530,-1484,-299,-35,248,212,-192
1,1923749,2465,826,-530,-1484,-299,-35,248,212,-192
1,1923764,2466,829,-530,-1484,-310,-39,248,212,-192
1,1923776,2467,824,-533,-1480,-307,-35,248,212,-192
1,1923787,2467,824,-533,-1480,-307,-35,248,212,-192
1,1923801,2466,826,-524,-1479,-304,-37,251,219,-187
1,1923815,2466,823,-530,-1478,-300,-34,251,219,-187
1,1923830,2466,823,-531,-1478,-307,-37,251,219,-187
1,1923844,2466,823,-531,-1478,-307,-37,251,219,-187
1,1923856,2469,823,-529,-1478,-306,-41,251,219,-187
1,1923870,2466,827,-531,-1479,-301,-28,251,219,-187
1,1923886,2466,827,-531,-1479,-301,-28,251,219,-187
1,1923901,2465,828,-529,-1483,-302,-36,251,219,-187
1,1923914,2464,828,-527,-1477,-302,-38,249,213,-191
1,1923929,2464,828,-527,-1477,-302,-38,249,213,-191
1,1923944,2466,827,-527,-1483,-302,-32,249,213,-191
1,1923958,2468,828,-528,-1476,-303,-32,249,213,-191
1,1923973,2470,824,-528,-1474,-307,-31,249,213,-191
1,1923987,2470,824,-528,-1474,-307,-31,249,213,-191
1,1924000,2467,828,-531,-1471,-309,-29,249,213,-191
1,1924014,2467,826,-525,-1472,-307,-40,249,213,-191
1,1924026,2467,826,-525,-1472,-307,-40,249,213,-191
1,1924040,2468,827,-530,-1479,-300,-41,254,218,-194
1,1924056,2468,827,-523,-1478,-307,-36,254,218,-194
1,1924070,2466,828,-528,-1481,-306,-37,254,218,-194
1,1924084,2466,828,-528,-1481,-306,-37,254,218,-194
1,1924099,2469,825,-525,-1474,-300,-38,254,218,-194
1,1924109,2469,825,-525,-1474,-300,-38,254,218,-194
1,1924123,2466,826,-530,-1480,-302,-41,254,218,-194
1,1924135,2467,826,-529,-1481,-303,-39,254,218,-194
1,1924151,2466,827,-530,-1482,-302,-42,251,223,-195
1,1924165,2466,827,-530,-1482,-302,-42,251,223,-195
1,1924179,2465,824,-532,-1478,-301,-39,251,223,-195
1,1924195,2466,825,-533,-1471,-304,-37,251,223,-195
1,1924210,2467,823,-532,-1478,-301,-34,251,223,-195
1,1924224,2467,823,-532,-1478,-301,-34,251,223,-195
1,1924238,2469,825,-530,-1471,-308,-37,251,223,-195
1,1924252,2467,827,-524,-1475,-294,-40,251,223,-195
1,1924265,2467,827,-524,-1475,-294,-40,251,223,-195
1,1924278,2466,827,-533,-1472,-300,-39,251,223,-195
1,1924293,2464,826,-526,-1479,-299,-43,256,222,-194
1,1924307,2464,826,-526,-1479,-299,-43,256,222,-194
1,1924321,2468,826,-528,-1478,-305,-39,256,222,-194
1,1924334,2467,824,-532,-1476,-299,-34,256,222,-194
1,1924348,2467,824,-532,-1476,-299,-34,256,222,-194
1,1924361,2467,826,-531,-1479,-296,-31,256,222,-194
1,1924374,2470,825,-530,-1476,-299,-37,256,222,-194
1,1924389,2470,825,-530,-1476,-299,-37,256,222,-194
1,1924405,2467,826,-531,-1477,-307,-37,256,222,-194
1,1924420,2467,829,-526,-1469,-304,-37,251,219,-187
1,1924434,2466,827,-528,-1480,-304,-36,251,219,-187
1,1924448,2466,827,-528,-1480,-304,-36,251,219,-187
1,1924463,2466,827,-530,-1476,-309,-38,251,219,-187
1,1924478,2468,829,-526,-1477,-303,-33,251,219,-187
1,1924492,2467,825,-530,-1482,-302,-36,251,219,-187
1,1924506,2467,825,-530,-1482,-302,-36,251,219,-187
1,1924520,2468,828,-527,-1483,-305,-41,251,219,-187
1,1924533,2467,828,-530,-1485,-299,-36,256,224,-186
1,1924544,2467,828,-530,-1485,-299,-36,256,224,-186
1,1924559,2467,826,-532,-1482,-294,-41,256,224,-186
1,1924574,2466,828,-525,-1483,-297,-39,256,224,-186
1,1924587,2466,828,-525,-1483,-297,-39,256,224,-186
1,1924601,2468,826,-532,-1478,-303,-37,256,224,-186
1,1924617,2468,827,-530,-1475,-301,-37,256,224,-186
1,1924625,2468,827,-530,-1475,-301,-37,256,224,-186
1,1924634,2463,827,-530,-1481,-302,-36,256,224,-186
1,1924648,2463,827,-530,-1481,-302,-36,256,224,-186
1,1924663,2466,824,-526,-1477,-304,-37,250,222,-186
1,1924676,2466,828,-525,-1481,-305,-37,250,222,-186
1,1924690,2466,827,-526,-1477,-302,-43,250,222,-186
1,1924705,2466,827,-526,-1477,-302,-43,250,222,-186
1,1924718,2469,826,-528,-1473,-300,-38,250,222,-186
1,1924731,2467,826,-533,-1473,-303,-36,250,222,-186
1,1924746,2467,826,-533,-1473,-303,-36,250,222,-186
1,1924760,2468,828,-531,-1481,-313,-39,250,222,-186
1,1924773,2467,828,-528,-1472,-307,-39,250,222,-186
1,1924788,2467,828,-528,-1472,-307,-39,250,222,-186
1,1924803,2467,825,-525,-1479,-309,-41,250,220,-194
1,1924816,2467,828,-526,-1483,-308,-40,250,220,-194
1,1924829,2467,828,-526,-1483,-308,-40,250,220,-194
1,1924842,2468,828,-524,-1479,-314,-41,250,220,-194
1,1924849,2468,828,-524,-1479,-314,-41,250,220,-194
1,1924857,2470,827,-535,-1482,-301,-36,250,220,-194
1,1924866,2470,827,-535,-1482,-301,-36,250,220,-194
1,1924878,2469,826,-528,-1478,-300,-37,250,220,-194
1,1924893,2465,826,-526,-1478,-304,-32,250,220,-194
1,1924908,2465,826,-526,-1478,-304,-32,250,220,-194
1,1924921,2468,828,-525,-1478,-312,-40,246,224,-184
1,1924935,2466,824,-525,-1475,-308,-34,246,224,-184
1,1924951,2466,828,-527,-1471,-300,-37,246,224,-184
1,1924962,2466,828,-527,-1471,-300,-37,246,224,-184
1,1924977,2465,827,-534,-1466,-302,-36,246,224,-184
1,1924987,2465,827,-534,-1466,-302,-36,246,224,-184
1,1925000,2467,830,-528,-1480,-302,-35,246,224,-184
1,1925014,2466,828,-533,-1485,-302,-34,246,224,-184
1,1925028,2466,828,-533,-1485,-302,-34,246,224,-184
1,1925043,2466,829,-526,-1480,-301,-35,261,213,-181
1,1925057,2464,826,-527,-1478,-296,-27,261,213,-181
1,1925071,2465,825,-530,-1486,-300,-39,261,213,-181
1,1925086,2465,825,-530,-1486,-300,-39,261,213,-181
1,1925098,2470,828,-526,-1481,-304,-42,261,213,-181
1,1925111,2465,828,-530,-1484,-304,-35,261,213,-181
1,1925126,2465,828,-530,-1484,-304,-35,261,213,-181
1,1925140,2468,827,-528,-1481,-305,-40,261,213,-181
1,1925154,2466,828,-530,-1482,-302,-39,253,229,-183
1,1925170,2466,828,-530,-1482,-302,-39,253,229,-183
1,1925185,2467,824,-527,-1480,-302,-35,253,229,-183
1,1925200,2466,827,-531,-1475,-304,-38,253,229,-183
1,1925215,2467,824,-528,-1471,-297,-41,253,229,-183
1,1925229,2467,824,-528,-1471,-297,-41,253,229,-183
1,1925242,2468,827,-529,-1482,-299,-39,253,229,-183
1,1925259,2468,825,-528,-1480,-296,-39,253,229,-183
1,1925272,2466,829,-527,-1477,-307,-39,245,221,-187
1,1925283,2466,829,-527,-1477,-307,-39,245,221,-187
1,1925298,2468,826,-528,-1481,-304,-39,245,221,-187
1,1925312,2468,826,-529,-1479,-304,-32,245,221,-187
1,1925326,2468,826,-529,-1479,-304,-32,245,221,-187
1,1925340,2467,827,-530,-1473,-306,-33,245,221,-187
1,1925354,2471,827,-526,-1487,-303,-35,245,221,-187
1,1925365,2471,827,-526,-1487,-303,-35,245,221,-187
1,1925379,2465,829,-524,-1485,-297,-40,245,221,-187
1,1925394,2469,828,-531,-1479,-305,-39,245,221,-187
1,1925409,2469,828,-531,-1479,-305,-39,245,221,-187
1,1925425,2465,826,-520,-1475,-304,-29,250,220,-186
1,1925437,2466,827,-530,-1477,-299,-34,250,220,-186
1,1925452,2468,829,-532,-1480,-294,-41,250,220,-186
1,1925467,2468,829,-532,-1480,-294,-41,250,220,-186
1,1925481,2467,829,-532,-1473,-305,-32,250,220,-186
1,1925495,2466,828,-533,-1483,-311,-36,250,220,-186
1,1925510,2467,825,-527,-1490,-309,-38,250,220,-186
1,1925524,2467,825,-527,-1490,-309,-38,250,220,-186
1,1925539,2466,826,-527,-1483,-302,-37,249,215,-177
1,1925554,2467,832,-531,-1475,-301,-35,249,215,-177
1,1925566,2467,832,-531,-1475,-301,-35,249,215,-177
1,1925580,2468,825,-529,-1474,-301,-36,249,215,-177
1,1925595,2465,828,-531,-1481,-306,-34,249,215,-177
1,1925608,2465,828,-531,-1481,-306,-34,249,215,-177
1,1925623,2463,827,-526,-1482,-300,-31,249,215,-177
1,1925638,2467,827,-527,-1480,-308,-41,249,215,-177
1,1925647,2467,827,-527,-1480,-308,-41,249,215,-177
1,1925662,2467,825,-528,-1478,-302,-35,259,219,-191
1,1925678,2470,825,-524,-1480,-305,-39,259,219,-191
1,1925691,2468,826,-528,-1479,-304,-26,259,219,-191
1,1925704,2468,826,-528,-1479,-304,-26,259,219,-191
1,1925720,2468,828,-528,-1478,-308,-34,259,219,-191
1,1925735,2467,826,-530,-1483,-312,-42,259,219,-191
1,1925748,2467,826,-530,-1483,-312,-42,259,219,-191
1,1925763,2468,827,-531,-1476,-309,-42,259,219,-191
1,1925777,2466,826,-527,-1482,-310,-38,260,212,-194
1,1925788,2466,826,-527,-1482,-310,-38,260,212,-194
1,1925800,2468,828,-527,-1483,-306,-41,260,212,-194
1,1925815,2464,827,-526,-1483,-304,-38,260,212,-194
1,1925827,2464,827,-526,-1483,-304,-38,260,212,-194
1,1925840,2469,826,-524,-1481,-302,-35,260,212,-194
1,1925856,2465,825,-531,-1477,-302,-38,260,212,-194
1,1925866,2465,825,-531,-1477,-302,-38,260,212,-194
1,1925881,2468,825,-524,-1483,-305,-43,260,212,-194
1,1925895,2466,825,-531,-1476,-303,-32,260,212,-194
1,1925909,2466,825,-531,-1476,-303,-32,260,212,-194
1,1925923,2467,829,-522,-1468,-307,-36,254,220,-194
1,1925936,2468,831,-528,-1481,-299,-37,254,220,-194
1,1925950,2468,831,-528,-1481,-299,-37,254,220,-194
1,1925964,2467,826,-528,-1474,-307,-34,254,220,-194
1,1925975,2467,829,-532,-1478,-302,-42,254,220,-194
1,1925990,2467,829,-532,-1478,-302,-42,254,220,-194
1,1926003,2464,827,-525,-1476,-301,-44,254,220,-194
1,1926017,2471,826,-529,-1474,-308,-41,254,220,-194
1,1926031,2467,827,-524,-1472,-310,-41,252,218,-182
1,1926044,2467,827,-524,-1472,-310,-41,252,218,-182
1,1926059,2470,827,-527,-1476,-304,-38,252,218,-182
