imu,time,ax,ay,az,gx,gy,gz,mx,my,mz
0,1352990,2228,326,-396,-1034,-578,-329,163,109,-427
0,1352999,2227,327,-392,-1035,-571,-325,163,109,-427
0,1353008,2227,327,-392,-1035,-571,-325,163,109,-427
0,1353016,2223,326,-390,-1039,-570,-328,163,109,-427
0,1353026,2223,326,-390,-1039,-570,-328,163,109,-427
0,1353034,2224,329,-384,-1026,-567,-323,165,113,-431
0,1353047,2224,329,-384,-1026,-567,-323,165,113,-431
0,1353054,2226,325,-392,-1037,-574,-327,165,113,-431
0,1353063,2226,325,-392,-1037,-574,-327,165,113,-431
0,1353070,2226,325,-392,-1037,-574,-327,165,113,-431
0,1353078,2225,322,-393,-1040,-573,-322,165,113,-431
0,1353085,2225,322,-393,-1040,-573,-322,165,113,-431
0,1353095,2226,325,-390,-1041,-577,-317,165,113,-431
0,1353103,2226,325,-390,-1041,-577,-317,165,113,-431
0,1353111,2226,325,-390,-1041,-577,-317,165,113,-431
0,1353120,2225,327,-393,-1044,-579,-318,165,113,-431
0,1353127,2225,327,-393,-1044,-579,-318,165,113,-431
0,1353135,2224,325,-396,-1038,-572,-319,165,113,-431
0,1353144,2224,325,-396,-1038,-572,-319,165,113,-431
0,1353152,2224,325,-396,-1038,-572,-319,165,113,-431
0,1353161,2225,324,-396,-1041,-574,-325,166,112,-432
0,1353170,2225,324,-396,-1041,-574,-325,166,112,-432
0,1353179,2228,325,-390,-1037,-579,-320,166,112,-432
0,1353187,2228,325,-390,-1037,-579,-320,166,112,-432
0,1353196,2227,330,-387,-1032,-575,-322,166,112,-432
0,1353202,2227,330,-387,-1032,-575,-322,166,112,-432
0,1353211,2227,330,-387,-1032,-575,-322,166,112,-432
0,1353220,2227,330,-387,-1032,-575,-322,166,112,-432
0,1353228,2227,330,-387,-1032,-575,-322,166,112,-432
0,1353236,2226,324,-395,-1036,-575,-327,166,112,-432
0,1353245,2226,324,-395,-1036,-575,-327,166,112,-432
0,1353253,2228,325,-391,-1033,-578,-328,166,112,-432
0,1353263,2228,325,-391,-1033,-578,-328,166,112,-432
0,1353271,2228,325,-391,-1033,-578,-328,166,112,-432
0,1353279,2226,323,-391,-1037,-573,-328,166,112,-432
0,1353288,2226,323,-391,-1037,-573,-328,166,112,-432
0,1353295,2225,328,-391,-1034,-575,-326,160,106,-438
0,1353302,2225,328,-391,-1034,-575,-326,160,106,-438
0,1353308,2225,328,-391,-1034,-575,-326,160,106,-438
0,1353314,2225,326,-395,-1046,-576,-327,160,106,-438
0,1353320,2225,326,-395,-1046,-576,-327,160,106,-438
0,1353326,2225,326,-395,-1046,-576,-327,160,106,-438
0,1353332,2225,326,-395,-1046,-576,-327,160,106,-438
0,1353338,2227,327,-392,-1044,-575,-323,160,106,-438
0,1353344,2227,327,-392,-1044,-575,-323,160,106,-438
0,1353349,2227,327,-392,-1044,-575,-323,160,106,-438
0,1353354,2225,322,-393,-1036,-582,-321,160,106,-438
0,1353359,2225,322,-393,-1036,-582,-321,160,106,-438
0,1353364,2225,322,-393,-1036,-582,-321,160,106,-438
0,1353369,2225,322,-393,-1036,-582,-321,160,106,-438
0,1353374,2225,323,-388,-1027,-577,-324,160,106,-438
0,1353379,2225,323,-388,-1027,-577,-324,160,106,-438
0,1353384,2225,323,-388,-1027,-577,-324,160,106,-438
0,1353390,2225,323,-388,-1027,-577,-324,160,106,-438
0,1353395,2226,326,-395,-1035,-578,-322,160,106,-438
0,1353399,2226,326,-395,-1035,-578,-322,160,106,-438
0,1353407,2226,326,-395,-1035,-578,-322,160,106,-438
0,1353412,2226,326,-395,-1035,-578,-322,160,106,-438
0,1353418,2222,325,-394,-1035,-581,-326,171,111,-437
0,1353425,2222,325,-394,-1035,-581,-326,171,111,-437
0,1353432,2222,325,-394,-1035,-581,-326,171,111,-437
0,1353440,2223,322,-394,-1038,-576,-323,171,111,-437
0,1353447,2223,322,-394,-1038,-576,-323,171,111,-437
0,1353454,2227,325,-393,-1034,-578,-324,171,111,-437
0,1353461,2227,325,-393,-1034,-578,-324,171,111,-437
0,1353469,2227,325,-393,-1034,-578,-324,171,111,-437
0,1353478,2224,325,-390,-1040,-582,-327,171,111,-437
0,1353483,2224,325,-390,-1040,-582,-327,171,111,-437
0,1353489,2224,325,-390,-1040,-582,-327,171,111,-437
0,1353495,2226,326,-390,-1040,-573,-320,171,111,-437
0,1353501,2226,326,-390,-1040,-573,-320,171,111,-437
0,1353507,2226,326,-390,-1040,-573,-320,171,111,-437
0,1353513,2225,326,-394,-1030,-570,-325,171,111,-437
0,1353521,2225,326,-394,-1030,-570,-325,171,111,-437
0,1353529,2225,326,-394,-1030,-570,-325,171,111,-437
0,1353535,2226,325,-391,-1039,-577,-325,171,111,-437
0,1353542,2226,325,-391,-1039,-577,-325,171,111,-437
0,1353549,2226,325,-391,-1039,-577,-325,171,111,-437
0,1353554,2223,326,-387,-1032,-580,-322,170,108,-434
0,1353562,2223,326,-387,-1032,-580,-322,170,108,-434
0,1353569,2223,326,-387,-1032,-580,-322,170,108,-434
0,1353575,2223,326,-395,-1035,-578,-331,170,108,-434
0,1353583,2223,326,-395,-1035,-578,-331,170,108,-434
0,1353590,2223,326,-395,-1035,-578,-331,170,108,-434
0,1353596,2226,327,-392,-1039,-576,-329,170,108,-434
0,1353604,2226,327,-392,-1039,-576,-329,170,108,-434
0,1353610,2226,327,-392,-1039,-576,-329,170,108,-434
0,1353618,2226,326,-389,-1036,-569,-329,170,108,-434
0,1353623,2226,326,-389,-1036,-569,-329,170,108,-434
0,1353630,2226,326,-389,-1036,-569,-329,170,108,-434
0,1353637,2227,331,-386,-1034,-575,-323,170,108,-434
0,1353644,2227,331,-386,-1034,-575,-323,170,108,-434
0,1353650,2227,331,-386,-1034,-575,-323,170,108,-434
0,1353656,2227,327,-393,-1039,-569,-324,170,108,-434
0,1353662,2227,327,-393,-1039,-569,-324,170,108,-434
0,1353669,2227,327,-393,-1039,-569,-324,170,108,-434
0,1353676,2225,327,-388,-1048,-575,-322,170,116,-436
0,1353683,2225,327,-388,-1048,-575,-322,170,116,-436
0,1353689,2225,327,-388,-1048,-575,-322,170,116,-436
0,1353696,2225,328,-389,-1043,-573,-327,170,116,-436
0,1353704,2225,328,-389,-1043,-573,-327,170,116,-436
0,1353712,2225,328,-389,-1043,-573,-327,170,116,-436
0,1353719,2226,325,-395,-1044,-581,-324,170,116,-436
0,1353725,2226,325,-395,-1044,-581,-324,170,116,-436
0,1353732,2226,325,-395,-1044,-581,-324,170,116,-436
0,1353738,2225,325,-390,-1045,-581,-326,170,116,-436
0,1353744,2225,325,-390,-1045,-581,-326,170,116,-436
0,1353751,2225,325,-390,-1045,-581,-326,170,116,-436
0,1353757,2229,324,-386,-1037,-582,-330,170,116,-436
0,1353765,2229,324,-386,-1037,-582,-330,170,116,-436
0,1353772,2229,324,-386,-1037,-582,-330,170,116,-436
0,1353779,2226,325,-391,-1038,-576,-324,170,116,-436
0,1353786,2226,325,-391,-1038,-576,-324,170,116,-436
0,1353792,2226,325,-391,-1038,-576,-324,170,116,-436
0,1353797,2225,323,-387,-1043,-583,-328,156,114,-434
0,1353803,2225,323,-387,-1043,-583,-328,156,114,-434
0,1353810,2225,323,-387,-1043,-583,-328,156,114,-434
0,1353818,2224,326,-393,-1042,-573,-323,156,114,-434
0,1353824,2224,326,-393,-1042,-573,-323,156,114,-434
0,1353830,2224,326,-393,-1042,-573,-323,156,114,-434
0,1353836,2224,327,-394,-1038,-580,-328,156,114,-434
0,1353842,2224,327,-394,-1038,-580,-328,156,114,-434
0,1353848,2224,327,-394,-1038,-580,-328,156,114,-434
0,1353856,2228,327,-393,-1047,-577,-325,156,114,-434
0,1353864,2228,327,-393,-1047,-577,-325,156,114,-434
0,1353869,2228,327,-393,-1047,-577,-325,156,114,-434
0,1353876,2224,326,-394,-1039,-584,-332,156,114,-434
0,1353882,2224,326,-394,-1039,-584,-332,156,114,-434
0,1353888,2224,326,-394,-1039,-584,-332,156,114,-434
0,1353895,2226,325,-396,-1042,-580,-334,156,114,-434
0,1353902,2226,325,-396,-1042,-580,-334,156,114,-434
0,1353908,2226,325,-396,-1042,-580,-334,156,114,-434
0,1353913,2226,325,-396,-1042,-580,-334,156,114,-434
0,1353919,2225,327,-399,-1042,-575,-327,156,114,-434
0,1353926,2225,327,-399,-1042,-575,-327,156,114,-434
0,1353933,2225,327,-399,-1042,-575,-327,156,114,-434
0,1353938,2226,329,-390,-1047,-579,-321,165,113,-437
0,1353947,2226,329,-390,-1047,-579,-321,165,113,-437
0,1353955,2223,326,-394,-1042,-573,-319,165,113,-437
0,1353961,2223,326,-394,-1042,-573,-319,165,113,-437
0,1353970,2223,326,-394,-1042,-573,-319,165,113,-437
0,1353976,2225,327,-390,-1030,-578,-318,165,113,-437
0,1353982,2225,327,-390,-1030,-578,-318,165,113,-437
0,1353988,2225,327,-390,-1030,-578,-318,165,113,-437
0,1353993,2225,327,-390,-1030,-578,-318,165,113,-437
0,1353999,2226,328,-389,-1031,-572,-328,165,113,-437
0,1354006,2226,328,-389,-1031,-572,-328,165,113,-437
0,1354014,2229,325,-392,-1028,-578,-324,165,113,-437
0,1354021,2229,325,-392,-1028,-578,-324,165,113,-437
0,1354029,2229,325,-392,-1028,-578,-324,165,113,-437
0,1354035,2228,327,-396,-1039,-572,-332,165,113,-437
0,1354041,2228,327,-396,-1039,-572,-332,165,113,-437
0,1354049,2228,327,-396,-1039,-572,-332,165,113,-437
0,1354055,2226,328,-386,-1030,-570,-325,167,107,-433
0,1354064,2226,328,-386,-1030,-570,-325,167,107,-433
0,1354071,2226,328,-386,-1030,-570,-325,167,107,-433
0,1354077,2226,323,-389,-1038,-576,-329,167,107,-433
0,1354082,2226,323,-389,-1038,-576,-329,167,107,-433
0,1354089,2226,323,-389,-1038,-576,-329,167,107,-433
0,1354095,2225,327,-396,-1040,-575,-320,167,107,-433
0,1354102,2225,327,-396,-1040,-575,-320,167,107,-433
0,1354109,2225,327,-396,-1040,-575,-320,167,107,-433
0,1354117,2225,323,-389,-1040,-575,-322,167,107,-433
0,1354123,2225,323,-389,-1040,-575,-322,167,107,-433
0,1354129,2225,323,-389,-1040,-575,-322,167,107,-433
0,1354136,2222,323,-390,-1037,-568,-327,167,107,-433
0,1354142,2222,323,-390,-1037,-568,-327,167,107,-433
0,1354148,2222,323,-390,-1037,-568,-327,167,107,-433
0,1354155,2225,323,-396,-1036,-578,-325,167,107,-433
0,1354162,2225,323,-396,-1036,-578,-325,167,107,-433
0,1354169,2225,323,-396,-1036,-578,-325,167,107,-433
0,1354175,2228,325,-397,-1035,-570,-322,167,107,-433
0,1354183,2228,325,-397,-1035,-570,-322,167,107,-433
0,1354188,2228,325,-397,-1035,-570,-322,167,107,-433
0,1354195,2226,328,-387,-1035,-571,-330,159,113,-433
0,1354203,2226,328,-387,-1035,-571,-330,159,113,-433
0,1354209,2226,328,-387,-1035,-571,-330,159,113,-433
0,1354216,2224,324,-391,-1032,-572,-332,159,113,-433
0,1354222,2224,324,-391,-1032,-572,-332,159,113,-433
0,1354229,2224,324,-391,-1032,-572,-332,159,113,-433
0,1354236,2225,329,-391,-1034,-573,-325,159,113,-433
0,1354244,2225,329,-391,-1034,-573,-325,159,113,-433
0,1354249,2225,329,-391,-1034,-573,-325,159,113,-433
0,1354256,2225,327,-395,-1038,-578,-319,159,113,-433
0,1354263,2225,327,-395,-1038,-578,-319,159,113,-433
0,1354270,2225,327,-395,-1038,-578,-319,159,113,-433
0,1354276,2226,328,-396,-1034,-579,-323,159,113,-433
0,1354284,2226,328,-396,-1034,-579,-323,159,113,-433
0,1354290,2226,328,-396,-1034,-579,-323,159,113,-433
0,1354297,2227,326,-391,-1039,-578,-321,159,113,-433
0,1354304,2227,326,-391,-1039,-578,-321,159,113,-433
0,1354311,2227,326,-391,-1039,-578,-321,159,113,-433
0,1354318,2227,323,-389,-1036,-575,-322,160,116,-434
0,1354324,2227,323,-389,-1036,-575,-322,160,116,-434
0,1354333,2227,323,-389,-1036,-575,-322,160,116,-434
0,1354339,2224,326,-390,-1035,-570,-318,160,116,-434
0,1354346,2224,326,-390,-1035,-570,-318,160,116,-434
0,1354353,2224,326,-390,-1035,-570,-318,160,116,-434
0,1354360,2226,327,-392,-1044,-574,-325,160,116,-434
0,1354366,2226,327,-392,-1044,-574,-325,160,116,-434
0,1354372,2226,327,-392,-1044,-574,-325,160,116,-434
0,1354379,2223,326,-393,-1039,-572,-330,160,116,-434
0,1354387,2223,326,-393,-1039,-572,-330,160,116,-434
0,1354393,2223,326,-393,-1039,-572,-330,160,116,-434
0,1354400,2227,323,-397,-1043,-573,-324,160,116,-434
0,1354407,2227,323,-397,-1043,-573,-324,160,116,-434
0,1354417,2225,327,-389,-1038,-571,-322,160,116,-434
0,1354424,2225,327,-389,-1038,-571,-322,160,116,-434
0,1354430,2225,327,-389,-1038,-571,-322,160,116,-434
0,1354438,2224,326,-395,-1043,-581,-326,160,116,-434
0,1354445,2224,326,-395,-1043,-581,-326,160,116,-434
0,1354450,2224,326,-395,-1043,-581,-326,160,116,-434
0,1354458,2222,324,-394,-1042,-581,-328,172,114,-438
0,1354465,2222,324,-394,-1042,-581,-328,172,114,-438
0,1354471,2222,324,-394,-1042,-581,-328,172,114,-438
0,1354477,2225,325,-391,-1033,-580,-328,172,114,-438
0,1354483,2225,325,-391,-1033,-580,-328,172,114,-438
0,1354489,2225,325,-391,-1033,-580,-328,172,114,-438
0,1354496,2226,324,-394,-1037,-580,-331,172,114,-438
0,1354501,2226,324,-394,-1037,-580,-331,172,114,-438
0,1354507,2226,324,-394,-1037,-580,-331,172,114,-438
0,1354514,2226,324,-394,-1037,-580,-331,172,114,-438
0,1354521,2223,325,-393,-1038,-582,-329,172,114,-438
0,1354527,2223,325,-393,-1038,-582,-329,172,114,-438
0,1354534,2223,325,-393,-1038,-582,-329,172,114,-438
0,1354542,2223,328,-394,-1042,-581,-327,172,114,-438
0,1354549,2223,328,-394,-1042,-581,-327,172,114,-438
0,1354556,2226,325,-391,-1040,-575,-323,172,114,-438
0,1354564,2226,325,-391,-1040,-575,-323,172,114,-438
0,1354570,2226,325,-391,-1040,-575,-323,172,114,-438
0,1354576,2228,326,-388,-1039,-574,-330,170,104,-428
0,1354585,2228,326,-388,-1039,-574,-330,170,104,-428
0,1354592,2228,326,-388,-1039,-574,-330,170,104,-428
0,1354600,2230,327,-393,-1042,-581,-328,170,104,-428
0,1354606,2230,327,-393,-1042,-581,-328,170,104,-428
0,1354613,2230,327,-393,-1042,-581,-328,170,104,-428
0,1354618,2226,326,-390,-1042,-574,-318,170,104,-428
0,1354627,2226,326,-390,-1042,-574,-318,170,104,-428
0,1354635,2226,326,-390,-1042,-574,-318,170,104,-428
0,1354642,2225,325,-394,-1043,-577,-323,170,104,-428
0,1354648,2225,325,-394,-1043,-577,-323,170,104,-428
0,1354656,2226,326,-390,-1037,-578,-323,170,104,-428
0,1354663,2226,326,-390,-1037,-578,-323,170,104,-428
0,1354672,2226,326,-390,-1037,-578,-323,170,104,-428
0,1354679,2225,328,-386,-1032,-562,-322,170,104,-428
0,1354684,2225,328,-386,-1032,-562,-322,170,104,-428
0,1354692,2225,328,-386,-1032,-562,-322,170,104,-428
0,1354700,2224,325,-389,-1048,-574,-332,172,116,-438
0,1354706,2224,325,-389,-1048,-574,-332,172,116,-438
0,1354714,2224,325,-389,-1048,-574,-332,172,116,-438
0,1354721,2225,324,-387,-1043,-573,-331,172,116,-438
0,1354727,2225,324,-387,-1043,-573,-331,172,116,-438
0,1354734,2225,324,-387,-1043,-573,-331,172,116,-438
0,1354741,2227,325,-386,-1037,-575,-322,172,116,-438
0,1354748,2227,325,-386,-1037,-575,-322,172,116,-438
0,1354756,2226,328,-386,-1036,-573,-324,172,116,-438
0,1354762,2226,328,-386,-1036,-573,-324,172,116,-438
0,1354768,2226,328,-386,-1036,-573,-324,172,116,-438
0,1354774,2226,328,-386,-1036,-573,-324,172,116,-438
0,1354781,2223,324,-389,-1040,-574,-322,172,116,-438
0,1354788,2223,324,-389,-1040,-574,-322,172,116,-438
0,1354797,2225,327,-396,-1043,-576,-334,172,116,-438
0,1354803,2225,327,-396,-1043,-576,-334,172,116,-438
0,1354810,2225,327,-396,-1043,-576,-334,172,116,-438
0,1354817,2226,326,-395,-1033,-585,-331,172,116,-438
0,1354824,2226,326,-395,-1033,-585,-331,172,116,-438
0,1354830,2226,326,-395,-1033,-585,-331,172,116,-438
0,1354838,2224,325,-387,-1029,-571,-330,169,111,-437
0,1354844,2224,325,-387,-1029,-571,-330,169,111,-437
0,1354852,2224,325,-387,-1029,-571,-330,169,111,-437
0,1354859,2223,325,-387,-1035,-582,-327,169,111,-437
0,1354865,2223,325,-387,-1035,-582,-327,169,111,-437
0,1354873,2223,325,-387,-1035,-582,-327,169,111,-437
0,1354880,2228,326,-391,-1030,-574,-322,169,111,-437
0,1354886,2228,326,-391,-1030,-574,-322,169,111,-437
0,1354893,2228,326,-391,-1030,-574,-322,169,111,-437
0,1354902,2224,326,-395,-1037,-575,-326,169,111,-437
0,1354908,2224,326,-395,-1037,-575,-326,169,111,-437
0,1354914,2224,326,-395,-1037,-575,-326,169,111,-437
0,1354919,2225,325,-393,-1037,-576,-331,169,111,-437
0,1354927,2225,325,-393,-1037,-576,-331,169,111,-437
0,1354935,2225,325,-393,-1037,-576,-331,169,111,-437
0,1354942,2223,326,-394,-1036,-578,-333,169,111,-437
0,1354949,2223,326,-394,-1036,-578,-333,169,111,-437
0,1354956,2225,326,-390,-1043,-583,-329,170,112,-428
0,1354962,2225,326,-390,-1043,-583,-329,170,112,-428
0,1354970,2225,326,-390,-1043,-583,-329,170,112,-428
0,1354977,2226,327,-390,-1037,-580,-326,170,112,-428
0,1354983,2226,327,-390,-1037,-580,-326,170,112,-428
0,1354990,2226,327,-390,-1037,-580,-326,170,112,-428
0,1354997,2228,326,-389,-1031,-578,-322,170,112,-428
0,1355002,2228,326,-389,-1031,-578,-322,170,112,-428
0,1355009,2228,326,-389,-1031,-578,-322,170,112,-428
0,1355017,2225,330,-389,-1037,-579,-329,170,112,-428
0,1355024,2225,330,-389,-1037,-579,-329,170,112,-428
0,1355032,2225,330,-389,-1037,-579,-329,170,112,-428
0,1355039,2228,326,-385,-1037,-576,-319,170,112,-428
0,1355046,2228,326,-385,-1037,-576,-319,170,112,-428
0,1355054,2228,326,-385,-1037,-576,-319,170,112,-428
0,1355061,2224,328,-391,-1040,-571,-321,170,112,-428
0,1355069,2224,328,-391,-1040,-571,-321,170,112,-428
0,1355076,2222,329,-388,-1035,-578,-324,170,112,-428
0,1355083,2222,329,-388,-1035,-578,-324,170,112,-428
0,1355090,2222,329,-388,-1035,-578,-324,170,112,-428
0,1355097,2226,326,-389,-1046,-580,-327,159,113,-433
0,1355104,2226,326,-389,-1046,-580,-327,159,113,-433
0,1355111,2226,326,-389,-1046,-580,-327,159,113,-433
0,1355119,2225,324,-390,-1038,-573,-328,159,113,-433
0,1355126,2225,324,-390,-1038,-573,-328,159,113,-433
0,1355133,2225,324,-390,-1038,-573,-328,159,113,-433
0,1355141,2223,324,-390,-1040,-578,-318,159,113,-433
0,1355147,2223,324,-390,-1040,-578,-318,159,113,-433
0,1355155,2223,324,-390,-1040,-578,-318,159,113,-433
0,1355162,2224,324,-394,-1033,-580,-324,159,113,-433
0,1355169,2224,324,-394,-1033,-580,-324,159,113,-433
0,1355175,2224,324,-394,-1033,-580,-324,159,113,-433
0,1355183,2222,327,-395,-1034,-580,-334,159,113,-433
0,1355190,2222,327,-395,-1034,-580,-334,159,113,-433
0,1355197,2223,325,-392,-1031,-574,-328,159,113,-433
0,1355205,2223,325,-392,-1031,-574,-328,159,113,-433
0,1355212,2223,325,-392,-1031,-574,-328,159,113,-433
0,1355218,2227,325,-388,-1029,-570,-325,172,116,-434
0,1355226,2227,325,-388,-1029,-570,-325,172,116,-434
0,1355233,2227,325,-388,-1029,-570,-325,172,116,-434
0,1355241,2226,327,-390,-1030,-572,-322,172,116,-434
0,1355248,2226,327,-390,-1030,-572,-322,172,116,-434
0,1355254,2226,327,-390,-1030,-572,-322,172,116,-434
0,1355261,2224,326,-391,-1033,-567,-320,172,116,-434
0,1355269,2224,326,-391,-1033,-567,-320,172,116,-434
0,1355275,2224,326,-391,-1033,-567,-320,172,116,-434
0,1355283,2224,324,-394,-1035,-579,-320,172,116,-434
0,1355289,2224,324,-394,-1035,-579,-320,172,116,-434
0,1355296,2225,327,-395,-1038,-578,-325,172,116,-434
0,1355305,2225,327,-395,-1038,-578,-325,172,116,-434
0,1355312,2225,327,-395,-1038,-578,-325,172,116,-434
0,1355319,2226,331,-393,-1041,-582,-326,172,116,-434
0,1355325,2226,331,-393,-1041,-582,-326,172,116,-434
0,1355332,2226,331,-393,-1041,-582,-326,172,116,-434
0,1355339,2223,327,-395,-1042,-582,-315,172,116,-434
0,1355346,2223,327,-395,-1042,-582,-315,172,116,-434
0,1355355,2223,327,-395,-1042,-582,-315,172,116,-434
0,1355363,2225,324,-383,-1045,-578,-325,158,112,-426
0,1355369,2225,324,-383,-1045,-578,-325,158,112,-426
0,1355376,2225,326,-386,-1040,-577,-328,158,112,-426
0,1355383,2225,326,-386,-1040,-577,-328,158,112,-426
0,1355388,2225,326,-386,-1040,-577,-328,158,112,-426
0,1355396,2221,326,-387,-1031,-578,-323,158,112,-426
0,1355405,2221,326,-387,-1031,-578,-323,158,112,-426
0,1355410,2221,326,-387,-1031,-578,-323,158,112,-426
0,1355417,2225,325,-393,-1025,-571,-322,158,112,-426
0,1355423,2225,325,-393,-1025,-571,-322,158,112,-426
0,1355429,2225,325,-393,-1025,-571,-322,158,112,-426
0,1355436,2225,325,-393,-1025,-571,-322,158,112,-426
0,1355443,2225,324,-393,-1027,-576,-323,158,112,-426
0,1355450,2225,324,-393,-1027,-576,-323,158,112,-426
0,1355458,2226,324,-396,-1029,-573,-327,158,112,-426
0,1355464,2226,324,-396,-1029,-573,-327,158,112,-426
0,1355471,2226,324,-396,-1029,-573,-327,158,112,-426
0,1355480,2224,331,-387,-1026,-567,-323,162,106,-428
0,1355487,2224,331,-387,-1026,-567,-323,162,106,-428
0,1355494,2224,331,-387,-1026,-567,-323,162,106,-428
0,1355500,2222,323,-390,-1029,-570,-326,162,106,-428
0,1355506,2222,323,-390,-1029,-570,-326,162,106,-428
0,1355512,2222,323,-390,-1029,-570,-326,162,106,-428
0,1355518,2225,327,-391,-1043,-578,-324,162,106,-428
0,1355527,2225,327,-391,-1043,-578,-324,162,106,-428
0,1355533,2225,327,-391,-1043,-578,-324,162,106,-428
0,1355539,2225,326,-390,-1035,-580,-322,162,106,-428
0,1355547,2225,326,-390,-1035,-580,-322,162,106,-428
0,1355555,2225,326,-390,-1035,-580,-322,162,106,-428
0,1355564,2227,325,-397,-1040,-579,-329,162,106,-428
0,1355571,2227,325,-397,-1040,-579,-329,162,106,-428
0,1355579,2226,324,-389,-1029,-578,-327,162,106,-428
0,1355586,2226,324,-389,-1029,-578,-327,162,106,-428
0,1355594,2226,324,-389,-1029,-578,-327,162,106,-428
0,1355601,2223,327,-394,-1030,-578,-329,168,108,-438
0,1355610,2223,327,-394,-1030,-578,-329,168,108,-438
0,1355617,2224,327,-386,-1027,-578,-326,168,108,-438
0,1355623,2224,327,-386,-1027,-578,-326,168,108,-438
0,1355630,2224,327,-386,-1027,-578,-326,168,108,-438
0,1355636,2224,325,-393,-1031,-574,-319,168,108,-438
0,1355644,2224,325,-393,-1031,-574,-319,168,108,-438
0,1355652,2224,325,-393,-1031,-574,-319,168,108,-438
0,1355657,2225,328,-388,-1036,-578,-322,168,108,-438
0,1355664,2225,328,-388,-1036,-578,-322,168,108,-438
0,1355670,2225,328,-388,-1036,-578,-322,168,108,-438
0,1355677,2225,327,-389,-1037,-575,-320,168,108,-438
0,1355684,2225,327,-389,-1037,-575,-320,168,108,-438
0,1355691,2225,327,-389,-1037,-575,-320,168,108,-438
0,1355699,2225,326,-393,-1042,-576,-322,168,108,-438
0,1355706,2225,326,-393,-1042,-576,-322,168,108,-438
0,1355713,2225,326,-393,-1042,-576,-322,168,108,-438
0,1355720,2229,324,-393,-1045,-577,-327,168,108,-438
0,1355726,2229,324,-393,-1045,-577,-327,168,108,-438
0,1355735,2229,324,-393,-1045,-577,-327,168,108,-438
0,1355741,2227,324,-389,-1029,-578,-327,164,112,-434
0,1355748,2227,324,-389,-1029,-578,-327,164,112,-434
0,1355756,2223,327,-395,-1026,-572,-326,164,112,-434
0,1355762,2223,327,-395,-1026,-572,-326,164,112,-434
0,1355769,2223,327,-395,-1026,-572,-326,164,112,-434
0,1355774,2223,327,-395,-1026,-572,-326,164,112,-434
0,1355783,2224,327,-395,-1036,-574,-330,164,112,-434
0,1355791,2224,327,-395,-1036,-574,-330,164,112,-434
0,1355798,2227,325,-394,-1037,-578,-323,164,112,-434
0,1355807,2227,325,-394,-1037,-578,-323,164,112,-434
0,1355814,2227,325,-394,-1037,-578,-323,164,112,-434
0,1355821,2225,321,-392,-1044,-579,-325,164,112,-434
0,1355829,2225,321,-392,-1044,-579,-325,164,112,-434
0,1355837,2223,327,-395,-1043,-584,-316,164,112,-434
0,1355845,2223,327,-395,-1043,-584,-316,164,112,-434
0,1355853,2223,327,-395,-1043,-584,-316,164,112,-434
0,1355860,2226,329,-387,-1041,-579,-326,167,113,-431
0,1355867,2226,329,-387,-1041,-579,-326,167,113,-431
0,1355873,2226,329,-387,-1041,-579,-326,167,113,-431
0,1355881,2229,326,-385,-1048,-584,-331,167,113,-431
0,1355888,2229,326,-385,-1048,-584,-331,167,113,-431
0,1355895,2229,326,-385,-1048,-584,-331,167,113,-431
0,1355901,2224,326,-390,-1035,-579,-331,167,113,-431
0,1355909,2224,326,-390,-1035,-579,-331,167,113,-431
0,1355916,2224,326,-390,-1035,-579,-331,167,113,-431
0,1355922,2229,327,-395,-1042,-582,-325,167,113,-431
0,1355930,2229,327,-395,-1042,-582,-325,167,113,-431
0,1355937,2225,327,-388,-1036,-582,-323,167,113,-431
0,1355944,2225,327,-388,-1036,-582,-323,167,113,-431
0,1355951,2225,327,-388,-1036,-582,-323,167,113,-431
0,1355959,2224,328,-392,-1033,-576,-321,167,113,-431
0,1355965,2224,328,-392,-1033,-576,-321,167,113,-431
0,1355972,2224,328,-392,-1033,-576,-321,167,113,-431
0,1355979,2228,327,-390,-1045,-575,-324,167,113,-431
0,1355987,2228,327,-390,-1045,-575,-324,167,113,-431
0,1355994,2228,327,-390,-1045,-575,-324,167,113,-431
0,1356002,2227,325,-387,-1037,-574,-328,165,117,-431
0,1356009,2227,325,-387,-1037,-574,-328,165,117,-431
0,1356018,2225,327,-390,-1031,-567,-324,165,117,-431
0,1356026,2225,327,-390,-1031,-567,-324,165,117,-431
0,1356034,2225,327,-390,-1031,-567,-324,165,117,-431
0,1356042,2223,326,-387,-1031,-581,-326,165,117,-431
0,1356049,2223,326,-387,-1031,-581,-326,165,117,-431
0,1356057,2227,325,-389,-1031,-574,-324,165,117,-431
0,1356064,2227,325,-389,-1031,-574,-324,165,117,-431
0,1356071,2227,325,-389,-1031,-574,-324,165,117,-431
0,1356080,2225,322,-393,-1045,-575,-326,165,117,-431
0,1356087,2225,322,-393,-1045,-575,-326,165,117,-431
0,1356092,2225,322,-393,-1045,-575,-326,165,117,-431
0,1356099,2228,324,-391,-1037,-579,-332,165,117,-431
0,1356105,2228,324,-391,-1037,-579,-332,165,117,-431
0,1356112,2228,324,-391,-1037,-579,-332,165,117,-431
0,1356119,2225,325,-388,-1037,-579,-326,162,104,-436
0,1356126,2225,325,-388,-1037,-579,-326,162,104,-436
0,1356132,2225,325,-388,-1037,-579,-326,162,104,-436
0,1356139,2226,323,-385,-1031,-574,-321,162,104,-436
0,1356146,2226,323,-385,-1031,-574,-321,162,104,-436
0,1356153,2226,323,-385,-1031,-574,-321,162,104,-436
0,1356161,2226,326,-390,-1037,-575,-321,162,104,-436
0,1356167,2226,326,-390,-1037,-575,-321,162,104,-436
0,1356176,2226,326,-390,-1037,-575,-321,162,104,-436
0,1356182,2225,324,-387,-1035,-571,-324,162,104,-436
0,1356188,2225,324,-387,-1035,-571,-324,162,104,-436
0,1356195,2225,324,-387,-1035,-571,-324,162,104,-436
0,1356201,2224,326,-390,-1037,-575,-333,162,104,-436
0,1356208,2224,326,-390,-1037,-575,-333,162,104,-436
0,1356214,2224,326,-390,-1037,-575,-333,162,104,-436
0,1356220,2224,324,-396,-1043,-579,-329,162,104,-436
0,1356226,2224,324,-396,-1043,-579,-329,162,104,-436
0,1356234,2224,324,-396,-1043,-579,-329,162,104,-436
0,1356241,2228,326,-389,-1034,-574,-327,162,114,-434
0,1356248,2228,326,-389,-1034,-574,-327,162,114,-434
0,1356255,2228,326,-389,-1034,-574,-327,162,114,-434
0,1356261,2228,326,-389,-1036,-575,-324,162,114,-434
0,1356267,2228,326,-389,-1036,-575,-324,162,114,-434
0,1356273,2228,326,-389,-1036,-575,-324,162,114,-434
0,1356281,2226,324,-392,-1033,-576,-329,162,114,-434
0,1356288,2226,324,-392,-1033,-576,-329,162,114,-434
0,1356294,2226,324,-392,-1033,-576,-329,162,114,-434
0,1356300,2225,327,-390,-1038,-580,-327,162,114,-434
0,1356306,2225,327,-390,-1038,-580,-327,162,114,-434
0,1356313,2225,327,-390,-1038,-580,-327,162,114,-434
0,1356319,2223,326,-386,-1032,-586,-334,162,114,-434
0,1356325,2223,326,-386,-1032,-586,-334,162,114,-434
0,1356333,2223,326,-386,-1032,-586,-334,162,114,-434
0,1356338,2226,326,-397,-1039,-576,-319,162,114,-434
0,1356345,2226,326,-397,-1039,-576,-319,162,114,-434
0,1356351,2226,326,-397,-1039,-576,-319,162,114,-434
0,1356359,2226,324,-391,-1037,-578,-323,162,114,-434
0,1356366,2226,324,-391,-1037,-578,-323,162,114,-434
0,1356374,2226,324,-391,-1037,-578,-323,162,114,-434
0,1356380,2227,326,-386,-1033,-578,-329,164,110,-436
0,1356387,2227,326,-386,-1033,-578,-329,164,110,-436
0,1356393,2227,326,-386,-1033,-578,-329,164,110,-436
0,1356400,2221,325,-387,-1037,-575,-337,164,110,-436
0,1356406,2221,325,-387,-1037,-575,-337,164,110,-436
0,1356411,2221,325,-387,-1037,-575,-337,164,110,-436
0,1356418,2226,326,-395,-1026,-579,-330,164,110,-436
0,1356424,2226,326,-395,-1026,-579,-330,164,110,-436
0,1356430,2226,326,-395,-1026,-579,-330,164,110,-436
0,1356436,2226,326,-395,-1026,-579,-330,164,110,-436
0,1356442,2230,322,-390,-1026,-577,-327,164,110,-436
0,1356448,2230,322,-390,-1026,-577,-327,164,110,-436
0,1356453,2230,322,-390,-1026,-577,-327,164,110,-436
0,1356461,2224,325,-393,-1033,-572,-325,164,110,-436
0,1356467,2224,325,-393,-1033,-572,-325,164,110,-436
0,1356474,2224,325,-393,-1033,-572,-325,164,110,-436
0,1356480,2225,324,-386,-1037,-588,-322,164,110,-436
0,1356487,2225,324,-386,-1037,-588,-322,164,110,-436
0,1356494,2225,324,-386,-1037,-588,-322,164,110,-436
0,1356499,2221,326,-388,-1030,-580,-319,164,108,-438
0,1356506,2221,326,-388,-1030,-580,-319,164,108,-438
0,1356512,2221,326,-388,-1030,-580,-319,164,108,-438
0,1356518,2223,329,-391,-1040,-576,-324,164,108,-438
0,1356524,2223,329,-391,-1040,-576,-324,164,108,-438
0,1356531,2223,329,-391,-1040,-576,-324,164,108,-438
0,1356537,2225,326,-392,-1036,-578,-323,164,108,-438
0,1356545,2225,326,-392,-1036,-578,-323,164,108,-438
0,1356551,2225,326,-392,-1036,-578,-323,164,108,-438
0,1356557,2225,326,-392,-1036,-578,-323,164,108,-438
0,1356562,2224,322,-392,-1034,-581,-327,164,108,-438
0,1356568,2224,322,-392,-1034,-581,-327,164,108,-438
0,1356574,2224,322,-392,-1034,-581,-327,164,108,-438
0,1356581,2224,322,-394,-1039,-573,-324,164,108,-438
0,1356588,2224,322,-394,-1039,-573,-324,164,108,-438
0,1356595,2224,322,-394,-1039,-573,-324,164,108,-438
0,1356601,2224,326,-394,-1035,-579,-328,164,108,-438
0,1356607,2224,326,-394,-1035,-579,-328,164,108,-438
0,1356612,2224,326,-394,-1035,-579,-328,164,108,-438
0,1356619,2225,326,-390,-1037,-581,-318,164,108,-438
0,1356625,2225,326,-390,-1037,-581,-318,164,108,-438
0,1356632,2225,326,-390,-1037,-581,-318,164,108,-438
0,1356638,2222,327,-391,-1035,-571,-319,170,108,-438
0,1356645,2222,327,-391,-1035,-571,-319,170,108,-438
0,1356650,2222,327,-391,-1035,-571,-319,170,108,-438
0,1356657,2225,326,-390,-1024,-578,-325,170,108,-438
0,1356664,2225,326,-390,-1024,-578,-325,170,108,-438
0,1356672,2225,326,-390,-1024,-578,-325,170,108,-438
0,1356679,2226,326,-398,-1027,-583,-329,170,108,-438
0,1356685,2226,326,-398,-1027,-583,-329,170,108,-438
0,1356691,2226,326,-398,-1027,-583,-329,170,108,-438
0,1356698,2226,327,-390,-1032,-582,-326,170,108,-438
0,1356705,2226,327,-390,-1032,-582,-326,170,108,-438
0,1356712,2226,327,-390,-1032,-582,-326,170,108,-438
0,1356718,2226,326,-386,-1031,-580,-331,170,108,-438
0,1356725,2226,326,-386,-1031,-580,-331,170,108,-438
0,1356730,2226,326,-386,-1031,-580,-331,170,108,-438
0,1356736,2226,326,-386,-1031,-580,-331,170,108,-438
0,1356742,2225,326,-395,-1037,-580,-325,170,108,-438
0,1356749,2225,326,-395,-1037,-580,-325,170,108,-438
0,1356756,2225,326,-395,-1037,-580,-325,170,108,-438
0,1356763,2226,326,-389,-1029,-576,-322,165,109,-441
0,1356769,2226,326,-389,-1029,-576,-322,165,109,-441
0,1356774,2226,326,-389,-1029,-576,-322,165,109,-441
0,1356781,2226,326,-389,-1029,-576,-322,165,109,-441
0,1356787,2226,326,-389,-1029,-576,-322,165,109,-441
0,1356794,2226,326,-389,-1029,-576,-322,165,109,-441
0,1356802,2224,326,-389,-1027,-571,-325,165,109,-441
0,1356808,2224,326,-389,-1027,-571,-325,165,109,-441
0,1356815,2224,326,-389,-1027,-571,-325,165,109,-441
0,1356821,2223,322,-392,-1041,-572,-329,165,109,-441
0,1356827,2223,322,-392,-1041,-572,-329,165,109,-441
0,1356834,2223,322,-392,-1041,-572,-329,165,109,-441
0,1356840,2225,324,-393,-1045,-576,-328,165,109,-441
0,1356847,2225,324,-393,-1045,-576,-328,165,109,-441
0,1356853,2225,324,-393,-1045,-576,-328,165,109,-441
0,1356859,2223,324,-391,-1042,-576,-326,165,109,-441
0,1356866,2223,324,-391,-1042,-576,-326,165,109,-441
0,1356872,2223,324,-391,-1042,-576,-326,165,109,-441
0,1356879,2223,325,-391,-1043,-573,-332,165,109,-441
0,1356886,2223,325,-391,-1043,-573,-332,165,109,-441
0,1356892,2223,325,-391,-1043,-573,-332,165,109,-441
0,1356899,2224,325,-388,-1042,-574,-325,166,112,-428
0,1356907,2224,325,-388,-1042,-574,-325,166,112,-428
0,1356913,2224,325,-388,-1042,-574,-325,166,112,-428
0,1356920,2227,328,-388,-1039,-570,-330,166,112,-428
0,1356926,2227,328,-388,-1039,-570,-330,166,112,-428
0,1356934,2227,328,-388,-1039,-570,-330,166,112,-428
0,1356940,2224,327,-387,-1036,-572,-329,166,112,-428
0,1356946,2224,327,-387,-1036,-572,-329,166,112,-428
0,1356953,2224,327,-387,-1036,-572,-329,166,112,-428
0,1356959,2228,326,-394,-1038,-575,-325,166,112,-428
0,1356967,2228,326,-394,-1038,-575,-325,166,112,-428
0,1356974,2228,326,-394,-1038,-575,-325,166,112,-428
0,1356981,2227,325,-387,-1034,-578,-326,166,112,-428
0,1356987,2227,325,-387,-1034,-578,-326,166,112,-428
0,1356993,2227,325,-387,-1034,-578,-326,166,112,-428
0,1357000,2226,327,-396,-1032,-575,-329,166,112,-428
0,1357006,2226,327,-396,-1032,-575,-329,166,112,-428
0,1357012,2226,327,-396,-1032,-575,-329,166,112,-428
0,1357019,2223,325,-385,-1026,-571,-321,162,106,-440
0,1357025,2223,325,-385,-1026,-571,-321,162,106,-440
0,1357031,2223,325,-385,-1026,-571,-321,162,106,-440
0,1357037,2223,325,-385,-1026,-571,-321,162,106,-440
0,1357044,2225,323,-386,-1037,-577,-327,162,106,-440
0,1357051,2225,323,-386,-1037,-577,-327,162,106,-440
0,1357058,2225,323,-386,-1037,-577,-327,162,106,-440
0,1357064,2226,324,-389,-1033,-576,-324,162,106,-440
0,1357070,2226,324,-389,-1033,-576,-324,162,106,-440
0,1357076,2226,324,-389,-1033,-576,-324,162,106,-440
0,1357081,2224,326,-393,-1039,-580,-332,162,106,-440
0,1357087,2224,326,-393,-1039,-580,-332,162,106,-440
0,1357093,2224,326,-393,-1039,-580,-332,162,106,-440
0,1357100,2223,323,-394,-1034,-580,-327,162,106,-440
0,1357107,2223,323,-394,-1034,-580,-327,162,106,-440
0,1357114,2223,323,-394,-1034,-580,-327,162,106,-440
0,1357121,2228,325,-390,-1032,-572,-323,162,106,-440
0,1357127,2228,325,-390,-1032,-572,-323,162,106,-440
0,1357134,2228,325,-390,-1032,-572,-323,162,106,-440
0,1357142,2225,324,-391,-1039,-569,-318,160,114,-438
0,1357148,2225,324,-391,-1039,-569,-318,160,114,-438
0,1357154,2225,324,-391,-1039,-569,-318,160,114,-438
0,1357159,2222,325,-386,-1032,-569,-316,160,114,-438
0,1357165,2222,325,-386,-1032,-569,-316,160,114,-438
0,1357170,2222,325,-386,-1032,-569,-316,160,114,-438
0,1357176,2222,325,-386,-1032,-569,-316,160,114,-438
0,1357181,2224,327,-391,-1034,-573,-319,160,114,-438
0,1357189,2224,327,-391,-1034,-573,-319,160,114,-438
0,1357194,2224,327,-391,-1034,-573,-319,160,114,-438
0,1357201,2223,325,-390,-1030,-576,-326,160,114,-438
0,1357207,2223,325,-390,-1030,-576,-326,160,114,-438
0,1357214,2223,325,-390,-1030,-576,-326,160,114,-438
0,1357220,2227,327,-394,-1033,-573,-331,160,114,-438
0,1357227,2227,327,-394,-1033,-573,-331,160,114,-438
0,1357232,2227,327,-394,-1033,-573,-331,160,114,-438
0,1357239,2225,325,-392,-1035,-580,-328,160,114,-438
0,1357245,2225,325,-392,-1035,-580,-328,160,114,-438
0,1357251,2225,325,-392,-1035,-580,-328,160,114,-438
0,1357257,2225,325,-392,-1035,-580,-328,160,114,-438
0,1357263,2227,326,-392,-1028,-572,-335,160,114,-438
0,1357271,2227,326,-392,-1028,-572,-335,160,114,-438
0,1357278,2227,326,-392,-1028,-572,-335,160,114,-438
0,1357282,2224,323,-390,-1037,-571,-322,162,114,-438
0,1357288,2224,323,-390,-1037,-571,-322,162,114,-438
0,1357295,2224,323,-390,-1037,-571,-322,162,114,-438
0,1357301,2223,324,-390,-1035,-574,-325,162,114,-438
0,1357307,2223,324,-390,-1035,-574,-325,162,114,-438
0,1357315,2223,324,-390,-1035,-574,-325,162,114,-438
0,1357322,2226,326,-392,-1032,-578,-327,162,114,-438
0,1357328,2226,326,-392,-1032,-578,-327,162,114,-438
0,1357333,2226,326,-392,-1032,-578,-327,162,114,-438
0,1357338,2224,326,-389,-1031,-580,-328,162,114,-438
0,1357345,2224,326,-389,-1031,-580,-328,162,114,-438
0,1357351,2224,326,-389,-1031,-580,-328,162,114,-438
0,1357358,2224,326,-389,-1031,-580,-328,162,114,-438
0,1357366,2224,326,-389,-1031,-580,-328,162,114,-438
0,1357373,2224,326,-389,-1031,-580,-328,162,114,-438
0,1357379,2226,329,-392,-1030,-576,-321,162,114,-438
0,1357386,2226,329,-392,-1030,-576,-321,162,114,-438
0,1357392,2226,329,-392,-1030,-576,-321,162,114,-438
0,1357400,2226,328,-391,-1033,-583,-324,165,111,-437
0,1357406,2226,328,-391,-1033,-583,-324,165,111,-437
0,1357412,2226,328,-391,-1033,-583,-324,165,111,-437
0,1357417,2226,328,-391,-1033,-583,-324,165,111,-437
0,1357423,2225,327,-391,-1032,-574,-324,165,111,-437
0,1357429,2225,327,-391,-1032,-574,-324,165,111,-437
0,1357434,2225,327,-391,-1032,-574,-324,165,111,-437
0,1357441,2226,323,-396,-1034,-575,-322,165,111,-437
0,1357448,2226,323,-396,-1034,-575,-322,165,111,-437
0,1357455,2226,323,-396,-1034,-575,-322,165,111,-437
0,1357460,2225,322,-391,-1037,-575,-328,165,111,-437
0,1357467,2225,322,-391,-1037,-575,-328,165,111,-437
0,1357472,2225,322,-391,-1037,-575,-328,165,111,-437
0,1357477,2225,322,-391,-1037,-575,-328,165,111,-437
0,1357485,2226,325,-396,-1032,-575,-330,165,111,-437
0,1357490,2226,325,-396,-1032,-575,-330,165,111,-437
0,1357497,2226,325,-396,-1032,-575,-330,165,111,-437
0,1357504,2227,325,-392,-1035,-575,-326,165,111,-437
0,1357511,2227,325,-392,-1035,-575,-326,165,111,-437
0,1357516,2227,325,-392,-1035,-575,-326,165,111,-437
0,1357522,2223,325,-390,-1032,-577,-321,165,111,-437
0,1357529,2223,325,-390,-1032,-577,-321,165,111,-437
0,1357534,2223,325,-390,-1032,-577,-321,165,111,-437
0,1357541,2228,327,-387,-1041,-577,-325,165,105,-441
0,1357548,2228,327,-387,-1041,-577,-325,165,105,-441
0,1357554,2228,327,-387,-1041,-577,-325,165,105,-441
0,1357560,2223,327,-391,-1035,-577,-329,165,105,-441
0,1357566,2223,327,-391,-1035,-577,-329,165,105,-441
0,1357574,2223,327,-391,-1035,-577,-329,165,105,-441
0,1357580,2223,328,-394,-1031,-573,-328,165,105,-441
0,1357588,2223,328,-394,-1031,-573,-328,165,105,-441
0,1357594,2223,328,-394,-1031,-573,-328,165,105,-441
0,1357600,2222,331,-389,-1036,-569,-325,165,105,-441
0,1357606,2222,331,-389,-1036,-569,-325,165,105,-441
0,1357613,2222,331,-389,-1036,-569,-325,165,105,-441
0,1357618,2222,331,-389,-1036,-569,-325,165,105,-441
0,1357624,2224,325,-393,-1046,-573,-321,165,105,-441
0,1357630,2224,325,-393,-1046,-573,-321,165,105,-441
0,1357636,2224,325,-393,-1046,-573,-321,165,105,-441
0,1357642,2224,325,-393,-1046,-573,-321,165,105,-441
0,1357649,2224,325,-393,-1046,-573,-321,165,105,-441
0,1357656,2224,325,-393,-1046,-573,-321,165,105,-441
0,1357663,2220,324,-391,-1042,-577,-321,163,107,-441
0,1357670,2220,324,-391,-1042,-577,-321,163,107,-441
0,1357676,2220,324,-391,-1042,-577,-321,163,107,-441
0,1357682,2225,324,-393,-1036,-581,-331,163,107,-441
0,1357688,2225,324,-393,-1036,-581,-331,163,107,-441
0,1357694,2225,324,-393,-1036,-581,-331,163,107,-441
0,1357700,2228,325,-393,-1031,-574,-324,163,107,-441
0,1357706,2228,325,-393,-1031,-574,-324,163,107,-441
0,1357712,2228,325,-393,-1031,-574,-324,163,107,-441
0,1357717,2228,325,-393,-1031,-574,-324,163,107,-441
0,1357724,2223,323,-394,-1038,-575,-336,163,107,-441
0,1357730,2223,323,-394,-1038,-575,-336,163,107,-441
0,1357737,2223,323,-394,-1038,-575,-336,163,107,-441
0,1357744,2225,327,-395,-1038,-585,-325,163,107,-441
0,1357751,2225,327,-395,-1038,-585,-325,163,107,-441
0,1357757,2225,327,-395,-1038,-585,-325,163,107,-441
0,1357764,2225,325,-394,-1036,-582,-329,163,107,-441
0,1357769,2225,325,-394,-1036,-582,-329,163,107,-441
0,1357775,2225,325,-394,-1036,-582,-329,163,107,-441
0,1357783,2226,325,-392,-1031,-572,-329,163,107,-441
0,1357791,2226,325,-392,-1031,-572,-329,163,107,-441
0,1357797,2226,325,-392,-1031,-572,-329,163,107,-441
0,1357803,2227,330,-387,-1039,-577,-329,162,120,-434
0,1357809,2227,330,-387,-1039,-577,-329,162,120,-434
0,1357817,2227,330,-387,-1039,-577,-329,162,120,-434
0,1357824,2226,328,-389,-1038,-578,-323,162,120,-434
0,1357831,2226,328,-389,-1038,-578,-323,162,120,-434
0,1357836,2226,328,-389,-1038,-578,-323,162,120,-434
0,1357842,2225,327,-391,-1040,-576,-319,162,120,-434
0,1357848,2225,327,-391,-1040,-576,-319,162,120,-434
0,1357854,2225,327,-391,-1040,-576,-319,162,120,-434
0,1357860,2224,326,-401,-1039,-581,-325,162,120,-434
0,1357869,2224,326,-401,-1039,-581,-325,162,120,-434
0,1357875,2224,326,-401,-1039,-581,-325,162,120,-434
0,1357882,2226,323,-389,-1038,-580,-326,162,120,-434
0,1357888,2226,323,-389,-1038,-580,-326,162,120,-434
0,1357894,2226,323,-389,-1038,-580,-326,162,120,-434
0,1357901,2227,328,-394,-1037,-574,-325,162,120,-434
0,1357907,2227,328,-394,-1037,-574,-325,162,120,-434
0,1357915,2227,328,-394,-1037,-574,-325,162,120,-434
0,1357922,2224,327,-391,-1030,-570,-325,165,113,-437
0,1357930,2224,327,-391,-1030,-570,-325,165,113,-437
0,1357935,2224,327,-391,-1030,-570,-325,165,113,-437
0,1357941,2225,326,-390,-1032,-572,-323,165,113,-437
0,1357947,2225,326,-390,-1032,-572,-323,165,113,-437
0,1357953,2225,326,-390,-1032,-572,-323,165,113,-437
0,1357959,2225,326,-390,-1032,-572,-323,165,113,-437
0,1357965,2226,327,-391,-1037,-586,-324,165,113,-437
0,1357970,2226,327,-391,-1037,-586,-324,165,113,-437
0,1357977,2226,327,-391,-1037,-586,-324,165,113,-437
0,1357983,2225,327,-393,-1043,-578,-328,165,113,-437
0,1357989,2225,327,-393,-1043,-578,-328,165,113,-437
0,1357996,2225,327,-393,-1043,-578,-328,165,113,-437
0,1358002,2226,326,-390,-1032,-576,-327,165,113,-437
0,1358009,2226,326,-390,-1032,-576,-327,165,113,-437
0,1358015,2226,326,-390,-1032,-576,-327,165,113,-437
0,1358021,2225,326,-391,-1036,-578,-325,165,113,-437
0,1358027,2225,326,-391,-1036,-578,-325,165,113,-437
0,1358035,2225,326,-391,-1036,-578,-325,165,113,-437
0,1358041,2227,326,-389,-1037,-586,-328,171,107,-441
0,1358048,2227,326,-389,-1037,-586,-328,171,107,-441
0,1358055,2227,326,-389,-1037,-586,-328,171,107,-441
0,1358061,2227,325,-388,-1035,-575,-328,171,107,-441
0,1358068,2227,325,-388,-1035,-575,-328,171,107,-441
0,1358076,2227,325,-388,-1035,-575,-328,171,107,-441
0,1358082,2225,328,-394,-1028,-577,-324,171,107,-441
0,1358089,2225,328,-394,-1028,-577,-324,171,107,-441
0,1358095,2225,328,-394,-1028,-577,-324,171,107,-441
0,1358101,2225,327,-388,-1034,-568,-324,171,107,-441
0,1358108,2225,327,-388,-1034,-568,-324,171,107,-441
0,1358114,2225,327,-388,-1034,-568,-324,171,107,-441
0,1358120,2224,322,-390,-1031,-572,-318,171,107,-441
0,1358128,2224,322,-390,-1031,-572,-318,171,107,-441
0,1358136,2224,322,-390,-1031,-572,-318,171,107,-441
0,1358141,2222,323,-393,-1035,-574,-328,171,107,-441
0,1358149,2222,323,-393,-1035,-574,-328,171,107,-441
0,1358154,2222,323,-393,-1035,-574,-328,171,107,-441
0,1358160,2224,328,-393,-1042,-581,-328,171,107,-441
0,1358167,2224,328,-393,-1042,-581,-328,171,107,-441
0,1358174,2224,328,-393,-1042,-581,-328,171,107,-441
0,1358181,2223,326,-389,-1038,-575,-322,165,113,-427
0,1358187,2223,326,-389,-1038,-575,-322,165,113,-427
0,1358194,2223,326,-389,-1038,-575,-322,165,113,-427
0,1358201,2225,325,-389,-1029,-568,-320,165,113,-427
0,1358208,2225,325,-389,-1029,-568,-320,165,113,-427
0,1358215,2225,325,-389,-1029,-568,-320,165,113,-427
0,1358222,2225,326,-389,-1029,-571,-319,165,113,-427
0,1358228,2225,326,-389,-1029,-571,-319,165,113,-427
0,1358234,2225,326,-389,-1029,-571,-319,165,113,-427
0,1358240,2225,325,-392,-1033,-574,-324,165,113,-427
0,1358245,2225,325,-392,-1033,-574,-324,165,113,-427
0,1358254,2225,325,-392,-1033,-574,-324,165,113,-427
0,1358260,2225,329,-395,-1044,-569,-329,165,113,-427
0,1358266,2225,329,-395,-1044,-569,-329,165,113,-427
0,1358272,2225,329,-395,-1044,-569,-329,165,113,-427
0,1358279,2225,329,-395,-1044,-569,-329,165,113,-427
0,1358286,2225,325,-394,-1029,-573,-329,165,113,-427
0,1358291,2225,325,-394,-1029,-573,-329,165,113,-427
0,1358298,2225,325,-394,-1029,-573,-329,165,113,-427
0,1358303,2226,326,-392,-1036,-576,-332,157,109,-441
0,1358309,2226,326,-392,-1036,-576,-332,157,109,-441
0,1358314,2226,326,-392,-1036,-576,-332,157,109,-441
0,1358320,2226,326,-394,-1033,-576,-325,157,109,-441
0,1358326,2226,326,-394,-1033,-576,-325,157,109,-441
0,1358332,2226,326,-394,-1033,-576,-325,157,109,-441
0,1358338,2226,326,-394,-1033,-576,-325,157,109,-441
0,1358344,2223,326,-395,-1039,-575,-320,157,109,-441
0,1358350,2223,326,-395,-1039,-575,-320,157,109,-441
0,1358357,2223,326,-395,-1039,-575,-320,157,109,-441
0,1358362,2226,325,-390,-1040,-579,-323,157,109,-441
0,1358369,2226,325,-390,-1040,-579,-323,157,109,-441
0,1358376,2226,325,-390,-1040,-579,-323,157,109,-441
0,1358384,2225,326,-391,-1039,-578,-331,157,109,-441
0,1358389,2225,326,-391,-1039,-578,-331,157,109,-441
0,1358394,2225,326,-391,-1039,-578,-331,157,109,-441
0,1358400,2225,325,-396,-1040,-577,-331,157,109,-441
0,1358405,2225,325,-396,-1040,-577,-331,157,109,-441
0,1358411,2225,325,-396,-1040,-577,-331,157,109,-441
0,1358417,2225,325,-396,-1040,-577,-331,157,109,-441
0,1358425,2224,326,-388,-1037,-576,-326,157,109,-441
0,1358431,2224,326,-388,-1037,-576,-326,157,109,-441
0,1358438,2224,326,-388,-1037,-576,-326,157,109,-441
0,1358445,2223,329,-388,-1031,-574,-325,165,121,-433
0,1358451,2223,329,-388,-1031,-574,-325,165,121,-433
0,1358458,2223,329,-388,-1031,-574,-325,165,121,-433
0,1358465,2225,327,-389,-1039,-578,-324,165,121,-433
0,1358472,2225,327,-389,-1039,-578,-324,165,121,-433
0,1358478,2225,327,-389,-1039,-578,-324,165,121,-433
0,1358484,2223,328,-392,-1039,-576,-324,165,121,-433
0,1358490,2223,328,-392,-1039,-576,-324,165,121,-433
0,1358496,2223,328,-392,-1039,-576,-324,165,121,-433
0,1358503,2225,326,-395,-1035,-573,-324,165,121,-433
0,1358510,2225,326,-395,-1035,-573,-324,165,121,-433
0,1358516,2225,326,-395,-1035,-573,-324,165,121,-433
0,1358522,2226,326,-393,-1039,-576,-321,165,121,-433
0,1358529,2226,326,-393,-1039,-576,-321,165,121,-433
0,1358534,2226,326,-393,-1039,-576,-321,165,121,-433
0,1358540,2225,325,-391,-1037,-576,-321,165,121,-433
0,1358546,2225,325,-391,-1037,-576,-321,165,121,-433
0,1358554,2225,325,-391,-1037,-576,-321,165,121,-433
0,1358560,2224,327,-389,-1029,-577,-323,165,115,-435
0,1358566,2224,327,-389,-1029,-577,-323,165,115,-435
0,1358572,2224,327,-389,-1029,-577,-323,165,115,-435
0,1358578,2224,327,-389,-1029,-577,-323,165,115,-435
0,1358584,2225,325,-389,-1033,-576,-329,165,115,-435
0,1358592,2225,325,-389,-1033,-576,-329,165,115,-435
0,1358599,2225,325,-389,-1033,-576,-329,165,115,-435
0,1358605,2225,326,-395,-1033,-576,-332,165,115,-435
0,1358611,2225,326,-395,-1033,-576,-332,165,115,-435
0,1358617,2225,326,-395,-1033,-576,-332,165,115,-435
0,1358623,2228,322,-387,-1037,-582,-328,165,115,-435
0,1358629,2228,322,-387,-1037,-582,-328,165,115,-435
0,1358635,2228,322,-387,-1037,-582,-328,165,115,-435
0,1358641,2225,327,-394,-1034,-580,-329,165,115,-435
0,1358647,2225,327,-394,-1034,-580,-329,165,115,-435
0,1358653,2225,327,-394,-1034,-580,-329,165,115,-435
0,1358659,2225,327,-394,-1034,-580,-329,165,115,-435
0,1358665,2228,325,-394,-1027,-576,-321,165,115,-435
0,1358672,2228,325,-394,-1027,-576,-321,165,115,-435
0,1358678,2228,325,-394,-1027,-576,-321,165,115,-435
0,1358684,2223,323,-391,-1032,-572,-320,165,115,-435
0,1358689,2223,323,-391,-1032,-572,-320,165,115,-435
0,1358696,2223,323,-391,-1032,-572,-320,165,115,-435
0,1358702,2224,327,-394,-1035,-574,-324,163,107,-437
0,1358710,2224,327,-394,-1035,-574,-324,163,107,-437
0,1358716,2224,327,-394,-1035,-574,-324,163,107,-437
0,1358724,2228,324,-384,-1030,-572,-328,163,107,-437
0,1358729,2228,324,-384,-1030,-572,-328,163,107,-437
0,1358735,2228,324,-384,-1030,-572,-328,163,107,-437
0,1358742,2228,325,-389,-1031,-574,-322,163,107,-437
0,1358748,2228,325,-389,-1031,-574,-322,163,107,-437
0,1358755,2228,325,-389,-1031,-574,-322,163,107,-437
0,1358763,2223,324,-391,-1036,-569,-325,163,107,-437
0,1358769,2223,324,-391,-1036,-569,-325,163,107,-437
0,1358774,2223,324,-391,-1036,-569,-325,163,107,-437
0,1358780,2223,324,-391,-1036,-569,-325,163,107,-437
0,1358786,2225,327,-394,-1038,-578,-324,163,107,-437
0,1358793,2225,327,-394,-1038,-578,-324,163,107,-437
0,1358799,2225,327,-394,-1038,-578,-324,163,107,-437
0,1358808,2225,325,-394,-1044,-574,-327,163,107,-437
0,1358815,2225,325,-394,-1044,-574,-327,163,107,-437
0,1358822,2225,326,-389,-1036,-571,-322,167,107,-419
0,1358828,2225,326,-389,-1036,-571,-322,167,107,-419
0,1358835,2225,326,-389,-1036,-571,-322,167,107,-419
0,1358840,2222,326,-391,-1035,-581,-324,167,107,-419
0,1358848,2222,326,-391,-1035,-581,-324,167,107,-419
0,1358854,2222,326,-391,-1035,-581,-324,167,107,-419
0,1358861,2226,329,-393,-1036,-578,-325,167,107,-419
0,1358867,2226,329,-393,-1036,-578,-325,167,107,-419
0,1358873,2226,329,-393,-1036,-578,-325,167,107,-419
0,1358880,2226,329,-393,-1036,-578,-325,167,107,-419
0,1358885,2225,328,-392,-1027,-573,-322,167,107,-419
0,1358892,2225,328,-392,-1027,-573,-322,167,107,-419
0,1358898,2225,328,-392,-1027,-573,-322,167,107,-419
0,1358904,2225,326,-388,-1038,-574,-329,167,107,-419
0,1358911,2225,326,-388,-1038,-574,-329,167,107,-419
0,1358917,2225,326,-388,-1038,-574,-329,167,107,-419
0,1358924,2225,326,-392,-1045,-583,-327,167,107,-419
0,1358930,2225,326,-392,-1045,-583,-327,167,107,-419
0,1358937,2225,326,-392,-1045,-583,-327,167,107,-419
0,1358945,2224,324,-388,-1040,-571,-322,170,104,-428
0,1358951,2224,324,-388,-1040,-571,-322,170,104,-428
0,1358957,2224,324,-388,-1040,-571,-322,170,104,-428
0,1358964,2225,326,-384,-1036,-573,-331,170,104,-428
0,1358973,2225,326,-384,-1036,-573,-331,170,104,-428
0,1358981,2224,327,-390,-1041,-573,-333,170,104,-428
0,1358987,2224,327,-390,-1041,-573,-333,170,104,-428
0,1358994,2224,327,-390,-1041,-573,-333,170,104,-428
0,1358999,2224,327,-390,-1041,-573,-333,170,104,-428
0,1359007,2226,325,-388,-1028,-577,-331,170,104,-428
0,1359013,2226,325,-388,-1028,-577,-331,170,104,-428
0,1359021,2226,328,-395,-1031,-583,-322,170,104,-428
0,1359028,2226,328,-395,-1031,-583,-322,170,104,-428
0,1359035,2226,328,-395,-1031,-583,-322,170,104,-428
0,1359042,2225,325,-393,-1032,-570,-325,170,104,-428
0,1359047,2225,325,-393,-1032,-570,-325,170,104,-428
0,1359053,2225,325,-393,-1032,-570,-325,170,104,-428
0,1359058,2225,325,-393,-1032,-570,-325,170,104,-428
0,1359065,2221,326,-389,-1036,-577,-322,170,104,-428
0,1359072,2221,326,-389,-1036,-577,-322,170,104,-428
0,1359078,2221,326,-389,-1036,-577,-322,170,104,-428
0,1359084,2226,325,-388,-1041,-576,-323,170,114,-436
0,1359091,2226,325,-388,-1041,-576,-323,170,114,-436
0,1359096,2226,325,-388,-1041,-576,-323,170,114,-436
0,1359102,2228,327,-391,-1040,-572,-323,170,114,-436
0,1359110,2228,327,-391,-1040,-572,-323,170,114,-436
0,1359116,2228,327,-391,-1040,-572,-323,170,114,-436
0,1359122,2224,325,-393,-1034,-571,-321,170,114,-436
0,1359128,2224,325,-393,-1034,-571,-321,170,114,-436
0,1359135,2224,325,-393,-1034,-571,-321,170,114,-436
0,1359142,2226,325,-393,-1028,-572,-326,170,114,-436
0,1359149,2226,325,-393,-1028,-572,-326,170,114,-436
0,1359155,2226,325,-393,-1028,-572,-326,170,114,-436
0,1359163,2224,326,-395,-1028,-577,-324,170,114,-436
0,1359169,2224,326,-395,-1028,-577,-324,170,114,-436
0,1359174,2224,326,-395,-1028,-577,-324,170,114,-436
0,1359180,2224,326,-395,-1028,-577,-324,170,114,-436
0,1359186,2225,323,-390,-1026,-578,-327,170,114,-436
0,1359192,2225,323,-390,-1026,-578,-327,170,114,-436
0,1359198,2225,323,-390,-1026,-578,-327,170,114,-436
0,1359204,2224,326,-394,-1034,-577,-325,163,111,-429
0,1359209,2224,326,-394,-1034,-577,-325,163,111,-429
0,1359215,2224,326,-394,-1034,-577,-325,163,111,-429
0,1359222,2224,327,-388,-1031,-580,-329,163,111,-429
0,1359228,2224,327,-388,-1031,-580,-329,163,111,-429
0,1359235,2224,327,-388,-1031,-580,-329,163,111,-429
0,1359241,2225,325,-392,-1030,-577,-328,163,111,-429
0,1359248,2225,325,-392,-1030,-577,-328,163,111,-429
0,1359254,2225,325,-392,-1030,-577,-328,163,111,-429
0,1359261,2225,325,-393,-1036,-581,-327,163,111,-429
0,1359268,2225,325,-393,-1036,-581,-327,163,111,-429
0,1359276,2225,325,-393,-1036,-581,-327,163,111,-429
0,1359282,2226,329,-389,-1032,-582,-327,163,111,-429
0,1359289,2226,329,-389,-1032,-582,-327,163,111,-429
0,1359294,2226,329,-389,-1032,-582,-327,163,111,-429
0,1359301,2228,326,-396,-1042,-582,-333,163,111,-429
0,1359309,2228,326,-396,-1042,-582,-333,163,111,-429
0,1359314,2228,326,-396,-1042,-582,-333,163,111,-429
0,1359321,2228,326,-396,-1042,-582,-333,163,111,-429
0,1359326,2225,325,-387,-1040,-574,-326,163,111,-429
0,1359333,2225,325,-387,-1040,-574,-326,163,111,-429
0,1359339,2225,325,-387,-1040,-574,-326,163,111,-429
0,1359345,2226,325,-385,-1041,-583,-326,170,102,-434
0,1359352,2226,325,-385,-1041,-583,-326,170,102,-434
0,1359360,2226,325,-385,-1041,-583,-326,170,102,-434
0,1359368,2224,326,-391,-1041,-582,-328,170,102,-434
0,1359375,2224,326,-391,-1041,-582,-328,170,102,-434
0,1359380,2224,326,-391,-1041,-582,-328,170,102,-434
0,1359387,2226,325,-395,-1043,-578,-329,170,102,-434
0,1359392,2226,325,-395,-1043,-578,-329,170,102,-434
0,1359400,2226,325,-395,-1043,-578,-329,170,102,-434
0,1359407,2227,325,-399,-1032,-575,-328,170,102,-434
0,1359415,2227,325,-399,-1032,-575,-328,170,102,-434
0,1359421,2226,324,-396,-1030,-577,-325,170,102,-434
0,1359426,2226,324,-396,-1030,-577,-325,170,102,-434
0,1359432,2226,324,-396,-1030,-577,-325,170,102,-434
0,1359438,2226,324,-396,-1030,-577,-325,170,102,-434
0,1359447,2228,324,-392,-1036,-582,-330,170,102,-434
0,1359453,2228,324,-392,-1036,-582,-330,170,102,-434
0,1359462,2225,325,-388,-1038,-575,-331,161,109,-441
0,1359467,2225,325,-388,-1038,-575,-331,161,109,-441
0,1359475,2225,325,-388,-1038,-575,-331,161,109,-441
0,1359481,2221,327,-386,-1033,-570,-324,161,109,-441
0,1359489,2221,327,-386,-1033,-570,-324,161,109,-441
0,1359494,2221,327,-386,-1033,-570,-324,161,109,-441
0,1359500,2221,327,-386,-1033,-570,-324,161,109,-441
0,1359506,2223,327,-395,-1038,-575,-323,161,109,-441
0,1359512,2223,327,-395,-1038,-575,-323,161,109,-441
0,1359518,2223,327,-395,-1038,-575,-323,161,109,-441
0,1359524,2225,327,-391,-1038,-575,-322,161,109,-441
0,1359531,2225,327,-391,-1038,-575,-322,161,109,-441
0,1359538,2225,327,-391,-1038,-575,-322,161,109,-441
0,1359543,2225,327,-395,-1039,-586,-326,161,109,-441
0,1359549,2225,327,-395,-1039,-586,-326,161,109,-441
0,1359556,2225,327,-395,-1039,-586,-326,161,109,-441
0,1359562,2227,327,-394,-1031,-575,-328,161,109,-441
0,1359570,2227,327,-394,-1031,-575,-328,161,109,-441
0,1359577,2227,327,-394,-1031,-575,-328,161,109,-441
0,1359583,2224,327,-389,-1038,-580,-328,162,118,-438
0,1359589,2224,327,-389,-1038,-580,-328,162,118,-438
0,1359595,2224,327,-389,-1038,-580,-328,162,118,-438
0,1359602,2227,326,-389,-1033,-575,-327,162,118,-438
0,1359608,2227,326,-389,-1033,-575,-327,162,118,-438
0,1359614,2227,326,-389,-1033,-575,-327,162,118,-438
0,1359621,2225,326,-390,-1030,-570,-334,162,118,-438
0,1359628,2225,326,-390,-1030,-570,-334,162,118,-438
0,1359634,2225,326,-390,-1030,-570,-334,162,118,-438
0,1359639,2225,326,-390,-1030,-570,-334,162,118,-438
0,1359645,2225,323,-390,-1028,-572,-323,162,118,-438
0,1359651,2225,323,-390,-1028,-572,-323,162,118,-438
0,1359657,2225,323,-390,-1028,-572,-323,162,118,-438
0,1359664,2230,325,-396,-1040,-571,-328,162,118,-438
0,1359670,2230,325,-396,-1040,-571,-328,162,118,-438
0,1359677,2230,325,-396,-1040,-571,-328,162,118,-438
0,1359683,2224,327,-391,-1035,-571,-338,162,118,-438
0,1359689,2224,327,-391,-1035,-571,-338,162,118,-438
0,1359694,2224,327,-391,-1035,-571,-338,162,118,-438
0,1359700,2224,327,-391,-1035,-571,-338,162,118,-438
0,1359708,2225,327,-395,-1032,-574,-331,162,118,-438
0,1359713,2225,327,-395,-1032,-574,-331,162,118,-438
0,1359718,2225,327,-395,-1032,-574,-331,162,118,-438
0,1359724,2225,327,-388,-1034,-582,-331,157,115,-435
0,1359729,2225,327,-388,-1034,-582,-331,157,115,-435
0,1359734,2225,327,-388,-1034,-582,-331,157,115,-435
0,1359741,2225,322,-391,-1038,-580,-333,157,115,-435
0,1359749,2225,322,-391,-1038,-580,-333,157,115,-435
0,1359756,2225,322,-391,-1038,-580,-333,157,115,-435
0,1359761,2225,322,-391,-1038,-580,-333,157,115,-435
0,1359767,2226,324,-391,-1045,-583,-333,157,115,-435
0,1359773,2226,324,-391,-1045,-583,-333,157,115,-435
0,1359779,2226,324,-391,-1045,-583,-333,157,115,-435
0,1359785,2227,327,-393,-1036,-578,-320,157,115,-435
0,1359792,2227,327,-393,-1036,-578,-320,157,115,-435
0,1359798,2227,327,-393,-1036,-578,-320,157,115,-435
0,1359804,2226,327,-395,-1043,-582,-316,157,115,-435
0,1359812,2226,327,-395,-1043,-582,-316,157,115,-435
0,1359818,2226,327,-395,-1043,-582,-316,157,115,-435
0,1359824,2227,326,-393,-1040,-586,-322,157,115,-435
0,1359831,2227,326,-393,-1040,-586,-322,157,115,-435
0,1359836,2227,326,-393,-1040,-586,-322,157,115,-435
0,1359842,2223,323,-388,-1033,-573,-329,162,110,-428
0,1359848,2223,323,-388,-1033,-573,-329,162,110,-428
0,1359854,2223,323,-388,-1033,-573,-329,162,110,-428
0,1359862,2223,328,-381,-1041,-573,-329,162,110,-428
0,1359867,2223,328,-381,-1041,-573,-329,162,110,-428
0,1359874,2223,328,-381,-1041,-573,-329,162,110,-428
0,1359879,2223,328,-381,-1041,-573,-329,162,110,-428
0,1359885,2225,330,-390,-1033,-578,-327,162,110,-428
0,1359892,2225,330,-390,-1033,-578,-327,162,110,-428
0,1359898,2225,330,-390,-1033,-578,-327,162,110,-428
0,1359905,2222,330,-390,-1030,-569,-317,162,110,-428
0,1359911,2222,330,-390,-1030,-569,-317,162,110,-428
0,1359918,2222,330,-390,-1030,-569,-317,162,110,-428
0,1359925,2227,327,-386,-1044,-576,-324,162,110,-428
0,1359931,2227,327,-386,-1044,-576,-324,162,110,-428
0,1359937,2227,327,-386,-1044,-576,-324,162,110,-428
0,1359943,2227,327,-391,-1034,-578,-327,162,110,-428
0,1359950,2227,327,-391,-1034,-578,-327,162,110,-428
0,1359955,2227,327,-391,-1034,-578,-327,162,110,-428
0,1359963,2226,327,-392,-1039,-578,-327,162,110,-428
0,1359969,2226,327,-392,-1039,-578,-327,162,110,-428
0,1359976,2226,327,-392,-1039,-578,-327,162,110,-428
0,1359984,2226,329,-393,-1039,-576,-330,160,110,-430
0,1359990,2226,329,-393,-1039,-576,-330,160,110,-430
0,1359996,2226,329,-393,-1039,-576,-330,160,110,-430
0,1360003,2224,328,-392,-1042,-578,-329,160,110,-430
0,1360009,2224,328,-392,-1042,-578,-329,160,110,-430
0,1360014,2224,328,-392,-1042,-578,-329,160,110,-430
0,1360020,2224,328,-392,-1042,-578,-329,160,110,-430
0,1360026,2226,330,-399,-1027,-574,-332,160,110,-430
0,1360031,2226,330,-399,-1027,-574,-332,160,110,-430
0,1360039,2226,330,-399,-1027,-574,-332,160,110,-430
0,1360047,2223,326,-398,-1019,-565,-336,160,110,-430
0,1360055,2223,326,-398,-1019,-565,-336,160,110,-430
0,1360063,2228,325,-393,-1025,-574,-325,160,110,-430
0,1360069,2228,325,-393,-1025,-574,-325,160,110,-430
0,1360076,2228,325,-393,-1025,-574,-325,160,110,-430
0,1360083,2225,326,-394,-1032,-572,-326,160,110,-430
0,1360091,2225,326,-394,-1032,-572,-326,160,110,-430
0,1360096,2225,326,-394,-1032,-572,-326,160,110,-430
0,1360103,2224,323,-386,-1034,-582,-327,168,108,-432
0,1360108,2224,323,-386,-1034,-582,-327,168,108,-432
0,1360113,2224,323,-386,-1034,-582,-327,168,108,-432
0,1360120,2224,323,-386,-1034,-582,-327,168,108,-432
0,1360126,2225,326,-390,-1033,-578,-324,168,108,-432
0,1360134,2225,326,-390,-1033,-578,-324,168,108,-432
0,1360140,2225,326,-390,-1033,-578,-324,168,108,-432
0,1360147,2225,323,-395,-1037,-572,-325,168,108,-432
0,1360153,2225,323,-395,-1037,-572,-325,168,108,-432
0,1360159,2225,323,-395,-1037,-572,-325,168,108,-432
0,1360165,2222,329,-389,-1042,-581,-321,168,108,-432
0,1360171,2222,329,-389,-1042,-581,-321,168,108,-432
0,1360179,2222,329,-389,-1042,-581,-321,168,108,-432
0,1360185,2227,325,-397,-1040,-582,-324,168,108,-432
0,1360191,2227,325,-397,-1040,-582,-324,168,108,-432
0,1360197,2227,325,-397,-1040,-582,-324,168,108,-432
0,1360203,2225,328,-387,-1033,-581,-319,168,108,-432
0,1360210,2225,328,-387,-1033,-581,-319,168,108,-432
0,1360218,2225,328,-387,-1033,-581,-319,168,108,-432
0,1360225,2223,328,-392,-1024,-581,-330,168,108,-432
0,1360231,2223,328,-392,-1024,-581,-330,168,108,-432
0,1360237,2223,328,-392,-1024,-581,-330,168,108,-432
0,1360242,2227,325,-389,-1023,-580,-323,170,112,-434
0,1360248,2227,325,-389,-1023,-580,-323,170,112,-434
0,1360254,2227,325,-389,-1023,-580,-323,170,112,-434
0,1360261,2227,325,-389,-1023,-580,-323,170,112,-434
0,1360267,2227,325,-391,-1032,-581,-325,170,112,-434
0,1360272,2227,325,-391,-1032,-581,-325,170,112,-434
0,1360281,2227,325,-391,-1032,-581,-325,170,112,-434
0,1360286,2228,327,-398,-1040,-580,-322,170,112,-434
0,1360293,2228,327,-398,-1040,-580,-322,170,112,-434
0,1360301,2228,327,-398,-1040,-580,-322,170,112,-434
0,1360307,2226,326,-399,-1043,-582,-333,170,112,-434
0,1360314,2226,326,-399,-1043,-582,-333,170,112,-434
0,1360321,2226,326,-399,-1043,-582,-333,170,112,-434
0,1360328,2225,323,-398,-1035,-572,-320,170,112,-434
0,1360335,2225,323,-398,-1035,-572,-320,170,112,-434
0,1360343,2226,324,-394,-1035,-570,-327,170,112,-434
0,1360348,2226,324,-394,-1035,-570,-327,170,112,-434
0,1360355,2226,324,-394,-1035,-570,-327,170,112,-434
0,1360361,2226,324,-394,-1035,-570,-327,170,112,-434
0,1360366,2224,326,-392,-1037,-572,-322,163,111,-437
0,1360373,2224,326,-392,-1037,-572,-322,163,111,-437
0,1360379,2224,326,-392,-1037,-572,-322,163,111,-437
0,1360386,2226,326,-389,-1022,-561,-321,163,111,-437
0,1360392,2226,326,-389,-1022,-561,-321,163,111,-437
0,1360398,2226,326,-389,-1022,-561,-321,163,111,-437
0,1360405,2222,323,-391,-1027,-569,-323,163,111,-437
0,1360410,2222,323,-391,-1027,-569,-323,163,111,-437
0,1360417,2222,323,-391,-1027,-569,-323,163,111,-437
0,1360423,2226,326,-398,-1027,-579,-329,163,111,-437
0,1360432,2226,326,-398,-1027,-579,-329,163,111,-437
0,1360439,2226,326,-398,-1027,-579,-329,163,111,-437
0,1360445,2222,323,-398,-1026,-579,-314,163,111,-437
0,1360452,2222,323,-398,-1026,-579,-314,163,111,-437
0,1360458,2222,323,-398,-1026,-579,-314,163,111,-437
0,1360465,2221,326,-391,-1034,-574,-317,163,111,-437
0,1360472,2221,326,-391,-1034,-574,-317,163,111,-437
0,1360477,2221,326,-391,-1034,-574,-317,163,111,-437
0,1360484,2225,325,-396,-1040,-580,-323,170,110,-436
0,1360489,2225,325,-396,-1040,-580,-323,170,110,-436
0,1360498,2225,325,-396,-1040,-580,-323,170,110,-436
0,1360503,2227,328,-386,-1036,-582,-322,170,110,-436
0,1360509,2227,328,-386,-1036,-582,-322,170,110,-436
0,1360516,2227,328,-386,-1036,-582,-322,170,110,-436
0,1360521,2227,328,-386,-1036,-582,-322,170,110,-436
0,1360527,2226,327,-392,-1039,-578,-327,170,110,-436
0,1360533,2226,327,-392,-1039,-578,-327,170,110,-436
0,1360541,2226,327,-392,-1039,-578,-327,170,110,-436
0,1360549,2225,326,-397,-1042,-577,-320,170,110,-436
0,1360556,2225,326,-397,-1042,-577,-320,170,110,-436
0,1360562,2225,326,-397,-1042,-577,-320,170,110,-436
0,1360568,2225,329,-391,-1039,-573,-316,170,110,-436
0,1360575,2225,329,-391,-1039,-573,-316,170,110,-436
0,1360582,2224,327,-388,-1032,-584,-319,170,110,-436
0,1360588,2224,327,-388,-1032,-584,-319,170,110,-436
0,1360594,2224,327,-388,-1032,-584,-319,170,110,-436
0,1360601,2224,327,-388,-1032,-584,-319,170,110,-436
0,1360608,2227,327,-392,-1033,-576,-329,170,110,-436
0,1360615,2227,327,-392,-1033,-576,-329,170,110,-436
0,1360620,2227,327,-392,-1033,-576,-329,170,110,-436
0,1360627,2224,323,-391,-1036,-580,-329,161,115,-435
0,1360632,2224,323,-391,-1036,-580,-329,161,115,-435
0,1360640,2224,323,-391,-1036,-580,-329,161,115,-435
0,1360645,2224,325,-392,-1032,-570,-325,161,115,-435
0,1360651,2224,325,-392,-1032,-570,-325,161,115,-435
0,1360657,2224,325,-392,-1032,-570,-325,161,115,-435
0,1360664,2226,326,-392,-1029,-577,-322,161,115,-435
0,1360670,2226,326,-392,-1029,-577,-322,161,115,-435
0,1360676,2226,326,-392,-1029,-577,-322,161,115,-435
0,1360684,2223,327,-390,-1026,-576,-325,161,115,-435
0,1360690,2223,327,-390,-1026,-576,-325,161,115,-435
0,1360696,2223,327,-390,-1026,-576,-325,161,115,-435
0,1360702,2223,327,-390,-1026,-576,-325,161,115,-435
0,1360708,2222,322,-390,-1036,-574,-322,161,115,-435
0,1360716,2222,322,-390,-1036,-574,-322,161,115,-435
0,1360723,2221,323,-392,-1029,-580,-324,161,115,-435
0,1360730,2221,323,-392,-1029,-580,-324,161,115,-435
0,1360737,2221,323,-392,-1029,-580,-324,161,115,-435
0,1360743,2224,328,-400,-1036,-574,-321,161,115,-435
0,1360750,2224,328,-400,-1036,-574,-321,162,108,-432
0,1360755,2224,328,-400,-1036,-574,-321,162,108,-432
0,1360762,2224,328,-400,-1036,-574,-321,162,108,-432
0,1360769,2222,326,-397,-1041,-569,-319,162,108,-432
0,1360774,2222,326,-397,-1041,-569,-319,162,108,-432
0,1360782,2222,326,-397,-1041,-569,-319,162,108,-432
0,1360788,2226,328,-390,-1039,-571,-327,162,108,-432
0,1360793,2226,328,-390,-1039,-571,-327,162,108,-432
0,1360800,2226,328,-390,-1039,-571,-327,162,108,-432
0,1360807,2224,325,-395,-1040,-577,-328,162,108,-432
0,1360814,2224,325,-395,-1040,-577,-328,162,108,-432
0,1360821,2224,325,-395,-1040,-577,-328,162,108,-432
0,1360827,2224,327,-391,-1033,-575,-325,162,108,-432
0,1360834,2224,327,-391,-1033,-575,-325,162,108,-432
0,1360840,2224,327,-391,-1033,-575,-325,162,108,-432
0,1360846,2226,324,-393,-1034,-569,-326,162,108,-432
0,1360854,2226,324,-393,-1034,-569,-326,162,108,-432
0,1360860,2226,324,-393,-1034,-569,-326,162,108,-432
0,1360867,2225,325,-398,-1028,-570,-330,162,108,-432
0,1360874,2225,325,-398,-1028,-570,-330,162,108,-432
0,1360880,2225,325,-398,-1028,-570,-330,162,108,-432
0,1360886,2226,326,-390,-1037,-572,-327,168,114,-442
0,1360893,2226,326,-390,-1037,-572,-327,168,114,-442
0,1360900,2226,326,-390,-1037,-572,-327,168,114,-442
0,1360907,2222,328,-389,-1039,-585,-329,168,114,-442
0,1360913,2222,328,-389,-1039,-585,-329,168,114,-442
0,1360920,2222,328,-389,-1039,-585,-329,168,114,-442
0,1360926,2226,322,-395,-1042,-586,-325,168,114,-442
0,1360932,2226,322,-395,-1042,-586,-325,168,114,-442
0,1360940,2226,322,-395,-1042,-586,-325,168,114,-442
0,1360946,2223,327,-392,-1032,-574,-320,168,114,-442
0,1360951,2223,327,-392,-1032,-574,-320,168,114,-442
0,1360958,2223,327,-392,-1032,-574,-320,168,114,-442
0,1360963,2226,324,-394,-1032,-577,-314,168,114,-442
0,1360969,2226,324,-394,-1032,-577,-314,168,114,-442
0,1360974,2226,324,-394,-1032,-577,-314,168,114,-442
0,1360980,2226,324,-394,-1032,-577,-314,168,114,-442
0,1360988,2229,326,-392,-1027,-573,-321,168,114,-442
0,1360994,2229,326,-392,-1027,-573,-321,168,114,-442
0,1361001,2229,326,-392,-1027,-573,-321,168,114,-442
0,1361009,2226,324,-383,-1038,-575,-326,163,107,-437
0,1361014,2226,324,-383,-1038,-575,-326,163,107,-437
0,1361021,2226,324,-383,-1038,-575,-326,163,107,-437
0,1361029,2222,324,-388,-1037,-587,-325,163,107,-437
0,1361035,2222,324,-388,-1037,-587,-325,163,107,-437
0,1361040,2222,324,-388,-1037,-587,-325,163,107,-437
0,1361046,2225,324,-392,-1036,-575,-327,163,107,-437
0,1361054,2225,324,-392,-1036,-575,-327,163,107,-437
0,1361060,2225,324,-392,-1036,-575,-327,163,107,-437
0,1361069,2226,327,-394,-1042,-577,-328,163,107,-437
0,1361075,2226,327,-394,-1042,-577,-328,163,107,-437
0,1361081,2226,327,-394,-1042,-577,-328,163,107,-437
0,1361087,2227,325,-398,-1035,-576,-327,163,107,-437
0,1361093,2227,325,-398,-1035,-576,-327,163,107,-437
0,1361099,2227,325,-398,-1035,-576,-327,163,107,-437
0,1361105,2225,328,-397,-1044,-576,-325,163,107,-437
0,1361112,2225,328,-397,-1044,-576,-325,163,107,-437
0,1361119,2225,328,-397,-1044,-576,-325,163,107,-437
0,1361124,2224,329,-393,-1043,-575,-328,163,107,-437
0,1361130,2224,329,-393,-1043,-575,-328,163,107,-437
0,1361135,2224,329,-393,-1043,-575,-328,163,107,-437
0,1361142,2224,329,-393,-1043,-575,-328,163,107,-437
0,1361149,2224,328,-385,-1040,-577,-329,163,113,-441
0,1361157,2224,328,-385,-1040,-577,-329,163,113,-441
0,1361163,2224,328,-385,-1040,-577,-329,163,113,-441
0,1361170,2226,325,-386,-1030,-580,-325,163,113,-441
0,1361176,2226,325,-386,-1030,-580,-325,163,113,-441
0,1361182,2226,325,-386,-1030,-580,-325,163,113,-441
0,1361188,2226,329,-389,-1034,-577,-329,163,113,-441
0,1361195,2226,329,-389,-1034,-577,-329,163,113,-441
0,1361203,2226,329,-389,-1034,-577,-329,163,113,-441
0,1361209,2225,326,-387,-1031,-571,-320,163,113,-441
0,1361215,2225,326,-387,-1031,-571,-320,163,113,-441
0,1361221,2225,326,-387,-1031,-571,-320,163,113,-441
0,1361229,2225,326,-396,-1029,-571,-319,163,113,-441
0,1361235,2225,326,-396,-1029,-571,-319,163,113,-441
0,1361243,2224,327,-387,-1034,-579,-328,163,113,-441
0,1361249,2224,327,-387,-1034,-579,-328,163,113,-441
0,1361256,2224,327,-387,-1034,-579,-328,163,113,-441
0,1361262,2224,327,-387,-1034,-579,-328,163,113,-441
0,1361269,2225,325,-389,-1042,-573,-331,164,114,-436
0,1361275,2225,325,-389,-1042,-573,-331,164,114,-436
0,1361283,2225,325,-389,-1042,-573,-331,164,114,-436
0,1361291,2225,322,-393,-1038,-572,-328,164,114,-436
0,1361296,2225,322,-393,-1038,-572,-328,164,114,-436
0,1361304,2226,325,-394,-1041,-576,-331,164,114,-436
0,1361309,2226,325,-394,-1041,-576,-331,164,114,-436
0,1361315,2226,325,-394,-1041,-576,-331,164,114,-436
0,1361324,2225,327,-397,-1036,-572,-324,164,114,-436
0,1361330,2225,327,-397,-1036,-572,-324,164,114,-436
0,1361337,2225,327,-397,-1036,-572,-324,164,114,-436
0,1361344,2223,325,-395,-1036,-579,-317,164,114,-436
0,1361350,2223,325,-395,-1036,-579,-317,164,114,-436
0,1361356,2223,325,-395,-1036,-579,-317,164,114,-436
0,1361363,2226,323,-393,-1041,-581,-334,164,114,-436
0,1361371,2226,323,-393,-1041,-581,-334,164,114,-436
0,1361377,2226,323,-393,-1041,-581,-334,164,114,-436
0,1361384,2224,327,-392,-1033,-577,-329,164,112,-436
0,1361391,2224,327,-392,-1033,-577,-329,164,112,-436
0,1361396,2224,327,-392,-1033,-577,-329,164,112,-436
0,1361403,2224,325,-392,-1043,-575,-330,164,112,-436
0,1361410,2224,325,-392,-1043,-575,-330,164,112,-436
0,1361416,2224,325,-392,-1043,-575,-330,164,112,-436
0,1361421,2224,325,-392,-1043,-575,-330,164,112,-436
0,1361427,2225,326,-392,-1031,-580,-331,164,112,-436
0,1361433,2225,326,-392,-1031,-580,-331,164,112,-436
0,1361439,2225,326,-392,-1031,-580,-331,164,112,-436
0,1361446,2224,327,-393,-1040,-580,-328,164,112,-436
0,1361454,2224,327,-393,-1040,-580,-328,164,112,-436
0,1361462,2224,327,-393,-1040,-580,-328,164,112,-436
0,1361468,2224,324,-389,-1034,-580,-324,164,112,-436
0,1361476,2224,324,-389,-1034,-580,-324,164,112,-436
0,1361481,2224,324,-389,-1034,-580,-324,164,112,-436
0,1361487,2227,325,-390,-1039,-582,-322,164,112,-436
0,1361492,2227,325,-390,-1039,-582,-322,164,112,-436
0,1361499,2227,325,-390,-1039,-582,-322,164,112,-436
0,1361506,2224,329,-392,-1032,-579,-319,164,112,-436
0,1361512,2224,329,-392,-1032,-579,-319,164,112,-436
0,1361518,2224,329,-392,-1032,-579,-319,164,112,-436
0,1361525,2225,327,-393,-1035,-568,-327,168,104,-436
0,1361531,2225,327,-393,-1035,-568,-327,168,104,-436
0,1361540,2225,327,-393,-1035,-568,-327,168,104,-436
0,1361546,2225,325,-391,-1032,-572,-328,168,104,-436
0,1361554,2225,325,-391,-1032,-572,-328,168,104,-436
0,1361560,2225,325,-391,-1032,-572,-328,168,104,-436
0,1361566,2224,329,-392,-1044,-578,-321,168,104,-436
0,1361571,2224,329,-392,-1044,-578,-321,168,104,-436
0,1361577,2224,329,-392,-1044,-578,-321,168,104,-436
0,1361584,2222,327,-389,-1037,-575,-319,168,104,-436
0,1361590,2222,327,-389,-1037,-575,-319,168,104,-436
0,1361596,2222,327,-389,-1037,-575,-319,168,104,-436
0,1361602,2222,327,-389,-1037,-575,-319,168,104,-436
0,1361609,2222,326,-392,-1040,-573,-322,168,104,-436
0,1361615,2222,326,-392,-1040,-573,-322,168,104,-436
0,1361623,2222,326,-392,-1040,-573,-322,168,104,-436
0,1361629,2227,325,-393,-1036,-583,-336,168,104,-436
0,1361635,2227,325,-393,-1036,-583,-336,168,104,-436
0,1361642,2227,325,-393,-1036,-583,-336,168,104,-436
0,1361648,2226,323,-391,-1043,-578,-330,164,112,-436
0,1361654,2226,323,-391,-1043,-578,-330,164,112,-436
0,1361661,2226,323,-391,-1043,-578,-330,164,112,-436
0,1361668,2227,326,-392,-1037,-577,-322,164,112,-436
0,1361675,2227,326,-392,-1037,-577,-322,164,112,-436
0,1361681,2227,326,-392,-1037,-577,-322,164,112,-436
0,1361688,2224,324,-390,-1027,-575,-329,164,112,-436
0,1361694,2224,324,-390,-1027,-575,-329,164,112,-436
0,1361700,2224,324,-390,-1027,-575,-329,164,112,-436
0,1361708,2223,322,-391,-1034,-572,-319,164,112,-436
0,1361714,2223,322,-391,-1034,-572,-319,164,112,-436
0,1361722,2223,322,-391,-1034,-572,-319,164,112,-436
0,1361728,2228,327,-387,-1037,-580,-325,164,112,-436
0,1361734,2228,327,-387,-1037,-580,-325,164,112,-436
0,1361741,2228,327,-387,-1037,-580,-325,164,112,-436
0,1361747,2226,323,-393,-1042,-569,-327,164,112,-436
0,1361756,2226,323,-393,-1042,-569,-327,164,112,-436
0,1361763,2226,323,-393,-1042,-569,-327,164,112,-436
0,1361768,2225,323,-388,-1031,-573,-325,164,112,-436
0,1361775,2225,323,-388,-1031,-573,-325,164,112,-436
0,1361782,2225,323,-388,-1031,-573,-325,164,112,-436
0,1361789,2224,325,-388,-1032,-574,-323,163,111,-429
0,1361797,2224,325,-388,-1032,-574,-323,163,111,-429
0,1361805,2225,326,-390,-1031,-576,-322,163,111,-429
0,1361810,2225,326,-390,-1031,-576,-322,163,111,-429
0,1361816,2225,326,-390,-1031,-576,-322,163,111,-429
0,1361822,2225,326,-390,-1031,-576,-322,163,111,-429
0,1361829,2224,323,-392,-1031,-570,-326,163,111,-429
0,1361837,2224,323,-392,-1031,-570,-326,163,111,-429
0,1361844,2224,323,-392,-1031,-570,-326,163,111,-429
0,1361851,2221,327,-391,-1040,-574,-325,163,111,-429
0,1361856,2221,327,-391,-1040,-574,-325,163,111,-429
0,1361862,2221,327,-391,-1040,-574,-325,163,111,-429
0,1361868,2226,325,-395,-1030,-569,-318,163,111,-429
0,1361874,2226,325,-395,-1030,-569,-318,163,111,-429
0,1361881,2226,325,-395,-1030,-569,-318,163,111,-429
0,1361887,2226,327,-394,-1040,-566,-320,163,111,-429
0,1361894,2226,327,-394,-1040,-566,-320,163,111,-429
0,1361901,2226,327,-394,-1040,-566,-320,163,111,-429
0,1361906,2227,324,-386,-1042,-569,-326,169,111,-433
0,1361912,2227,324,-386,-1042,-569,-326,169,111,-433
0,1361918,2227,324,-386,-1042,-569,-326,169,111,-433
0,1361925,2226,326,-387,-1031,-570,-329,169,111,-433
0,1361932,2226,326,-387,-1031,-570,-329,169,111,-433
0,1361938,2226,326,-387,-1031,-570,-329,169,111,-433
0,1361944,2223,322,-399,-1027,-579,-325,169,111,-433
0,1361951,2223,322,-399,-1027,-579,-325,169,111,-433
0,1361956,2223,322,-399,-1027,-579,-325,169,111,-433
0,1361963,2223,322,-399,-1027,-579,-325,169,111,-433
0,1361969,2224,326,-392,-1032,-574,-334,169,111,-433
0,1361975,2224,326,-392,-1032,-574,-334,169,111,-433
0,1361981,2224,326,-392,-1032,-574,-334,169,111,-433
0,1361987,2223,327,-390,-1041,-578,-331,169,111,-433
0,1361992,2223,327,-390,-1041,-578,-331,169,111,-433
0,1361999,2223,327,-390,-1041,-578,-331,169,111,-433
0,1362007,2225,325,-396,-1042,-582,-332,169,111,-433
0,1362014,2225,325,-396,-1042,-582,-332,169,111,-433
0,1362019,2225,325,-396,-1042,-582,-332,169,111,-433
0,1362026,2225,325,-396,-1042,-582,-332,169,111,-433
0,1362032,2225,325,-396,-1042,-582,-332,169,111,-433
0,1362039,2225,325,-396,-1042,-582,-332,169,111,-433
0,1362046,2224,323,-392,-1032,-572,-327,167,113,-443
0,1362053,2224,323,-392,-1032,-572,-327,167,113,-443
0,1362058,2224,323,-392,-1032,-572,-327,167,113,-443
0,1362065,2225,324,-390,-1035,-578,-330,167,113,-443
0,1362071,2225,324,-390,-1035,-578,-330,167,113,-443
0,1362076,2225,324,-390,-1035,-578,-330,167,113,-443
0,1362082,2225,324,-390,-1035,-578,-330,167,113,-443
0,1362092,2225,324,-390,-1035,-578,-330,167,113,-443
0,1362097,2225,324,-390,-1035,-578,-330,167,113,-443
0,1362103,2225,324,-390,-1035,-578,-330,167,113,-443
0,1362108,2225,326,-383,-1037,-581,-327,167,113,-443
0,1362115,2225,326,-383,-1037,-581,-327,167,113,-443
0,1362122,2225,326,-383,-1037,-581,-327,167,113,-443
0,1362128,2227,324,-395,-1038,-582,-325,167,113,-443
0,1362136,2227,324,-395,-1038,-582,-325,167,113,-443
0,1362142,2227,324,-395,-1038,-582,-325,167,113,-443
0,1362150,2225,327,-394,-1031,-570,-324,167,113,-443
0,1362157,2225,327,-394,-1031,-570,-324,167,113,-443
0,1362164,2225,327,-394,-1031,-570,-324,167,113,-443
0,1362171,2226,327,-391,-1025,-570,-324,167,111,-441
0,1362178,2226,327,-391,-1025,-570,-324,167,111,-441
0,1362185,2222,326,-389,-1030,-575,-326,167,111,-441
0,1362192,2222,326,-389,-1030,-575,-326,167,111,-441
0,1362198,2222,326,-389,-1030,-575,-326,167,111,-441
0,1362205,2224,330,-393,-1040,-580,-327,167,111,-441
0,1362212,2224,330,-393,-1040,-580,-327,167,111,-441
0,1362220,2224,330,-393,-1040,-580,-327,167,111,-441
0,1362225,2225,329,-392,-1039,-575,-325,167,111,-441
0,1362231,2225,329,-392,-1039,-575,-325,167,111,-441
0,1362237,2225,329,-392,-1039,-575,-325,167,111,-441
0,1362245,2224,328,-388,-1039,-578,-334,167,111,-441
0,1362251,2224,328,-388,-1039,-578,-334,167,111,-441
0,1362258,2224,328,-388,-1039,-578,-334,167,111,-441
0,1362266,2225,324,-391,-1036,-577,-333,167,111,-441
0,1362272,2225,324,-391,-1036,-577,-333,167,111,-441
0,1362279,2225,324,-391,-1036,-577,-333,167,111,-441
0,1362285,2225,326,-396,-1028,-573,-320,162,112,-438
0,1362292,2225,326,-396,-1028,-573,-320,162,112,-438
0,1362299,2225,326,-396,-1028,-573,-320,162,112,-438
0,1362307,2223,325,-389,-1033,-581,-325,162,112,-438
0,1362313,2223,325,-389,-1033,-581,-325,162,112,-438
0,1362318,2223,325,-389,-1033,-581,-325,162,112,-438
0,1362325,2225,326,-395,-1043,-576,-332,162,112,-438
0,1362331,2225,326,-395,-1043,-576,-332,162,112,-438
0,1362337,2225,326,-395,-1043,-576,-332,162,112,-438
0,1362343,2225,326,-395,-1043,-576,-332,162,112,-438
0,1362350,2225,326,-395,-1041,-575,-328,162,112,-438
0,1362356,2225,326,-395,-1041,-575,-328,162,112,-438
0,1362363,2225,326,-395,-1041,-575,-328,162,112,-438
0,1362370,2228,325,-392,-1036,-572,-334,162,112,-438
0,1362375,2228,325,-392,-1036,-572,-334,162,112,-438
0,1362381,2228,325,-392,-1036,-572,-334,162,112,-438
0,1362387,2228,327,-388,-1041,-570,-325,162,112,-438
0,1362393,2228,327,-388,-1041,-570,-325,162,112,-438
0,1362400,2228,327,-388,-1041,-570,-325,162,112,-438
0,1362407,2225,324,-392,-1043,-579,-319,162,112,-438
0,1362414,2225,324,-392,-1043,-579,-319,162,112,-438
0,1362421,2225,324,-392,-1043,-579,-319,162,112,-438
0,1362428,2223,323,-388,-1043,-577,-324,162,108,-434
0,1362436,2223,323,-388,-1043,-577,-324,162,108,-434
0,1362443,2223,323,-388,-1043,-577,-324,162,108,-434
0,1362449,2224,326,-390,-1040,-572,-320,162,108,-434
0,1362456,2224,326,-390,-1040,-572,-320,162,108,-434
0,1362464,2224,326,-390,-1040,-572,-320,162,108,-434
0,1362470,2225,324,-395,-1031,-575,-318,162,108,-434
0,1362479,2225,324,-395,-1031,-575,-318,162,108,-434
0,1362484,2225,324,-395,-1031,-575,-318,162,108,-434
0,1362490,2222,327,-389,-1039,-575,-325,162,108,-434
0,1362496,2222,327,-389,-1039,-575,-325,162,108,-434
0,1362502,2222,327,-389,-1039,-575,-325,162,108,-434
0,1362509,2224,324,-397,-1042,-577,-321,162,108,-434
0,1362516,2224,324,-397,-1042,-577,-321,162,108,-434
0,1362524,2224,324,-397,-1042,-577,-321,162,108,-434
0,1362530,2226,328,-390,-1037,-581,-322,162,108,-434
0,1362536,2226,328,-390,-1037,-581,-322,162,108,-434
0,1362542,2226,328,-390,-1037,-581,-322,162,108,-434
0,1362549,2222,327,-388,-1037,-581,-334,161,109,-433
0,1362556,2222,327,-388,-1037,-581,-334,161,109,-433
0,1362563,2222,327,-388,-1037,-581,-334,161,109,-433
0,1362569,2226,330,-392,-1034,-580,-328,161,109,-433
0,1362577,2226,330,-392,-1034,-580,-328,161,109,-433
0,1362583,2226,330,-392,-1034,-580,-328,161,109,-433
0,1362590,2225,326,-389,-1033,-573,-327,161,109,-433
0,1362597,2225,326,-389,-1033,-573,-327,161,109,-433
0,1362604,2225,326,-389,-1033,-573,-327,161,109,-433
0,1362610,2225,326,-394,-1041,-573,-329,161,109,-433
0,1362616,2225,326,-394,-1041,-573,-329,161,109,-433
0,1362622,2225,326,-394,-1041,-573,-329,161,109,-433
0,1362629,2225,327,-394,-1044,-582,-325,161,109,-433
0,1362635,2225,327,-394,-1044,-582,-325,161,109,-433
0,1362643,2225,327,-394,-1044,-582,-325,161,109,-433
0,1362651,2224,326,-401,-1040,-578,-319,161,109,-433
0,1362658,2224,326,-401,-1040,-578,-319,161,109,-433
0,1362665,2224,326,-401,-1040,-578,-319,161,109,-433
0,1362671,2224,326,-393,-1042,-577,-327,161,109,-433
0,1362676,2224,326,-393,-1042,-577,-327,161,109,-433
0,1362684,2224,326,-393,-1042,-577,-327,161,109,-433
0,1362691,2225,328,-393,-1029,-577,-324,168,120,-432
0,1362697,2225,328,-393,-1029,-577,-324,168,120,-432
0,1362704,2225,328,-393,-1029,-577,-324,168,120,-432
0,1362711,2224,324,-395,-1028,-577,-326,168,120,-432
0,1362716,2224,324,-395,-1028,-577,-326,168,120,-432
0,1362721,2224,324,-395,-1028,-577,-326,168,120,-432
0,1362729,2225,323,-392,-1039,-579,-328,168,120,-432
0,1362736,2225,323,-392,-1039,-579,-328,168,120,-432
0,1362745,2225,323,-392,-1039,-579,-328,168,120,-432
0,1362751,2227,324,-396,-1035,-576,-322,168,120,-432
0,1362759,2227,324,-396,-1035,-576,-322,168,120,-432
0,1362766,2225,325,-395,-1036,-576,-323,168,120,-432
0,1362774,2225,325,-395,-1036,-576,-323,168,120,-432
0,1362780,2225,325,-395,-1036,-576,-323,168,120,-432
0,1362786,2225,327,-394,-1044,-579,-327,168,120,-432
0,1362794,2225,327,-394,-1044,-579,-327,168,120,-432
0,1362801,2225,327,-394,-1044,-579,-327,168,120,-432
0,1362806,2225,326,-389,-1038,-574,-331,166,114,-440
0,1362812,2225,326,-389,-1038,-574,-331,166,114,-440
0,1362819,2225,326,-389,-1038,-574,-331,166,114,-440
0,1362826,2225,328,-385,-1038,-572,-330,166,114,-440
0,1362833,2225,328,-385,-1038,-572,-330,166,114,-440
0,1362840,2225,328,-385,-1038,-572,-330,166,114,-440
0,1362845,2227,326,-393,-1031,-575,-331,166,114,-440
0,1362851,2227,326,-393,-1031,-575,-331,166,114,-440
0,1362859,2227,326,-393,-1031,-575,-331,166,114,-440
0,1362865,2227,326,-393,-1031,-575,-331,166,114,-440
0,1362873,2223,326,-393,-1032,-571,-331,166,114,-440
0,1362878,2223,326,-393,-1032,-571,-331,166,114,-440
0,1362885,2223,326,-393,-1032,-571,-331,166,114,-440
0,1362891,2225,328,-393,-1040,-580,-327,166,114,-440
0,1362898,2225,328,-393,-1040,-580,-327,166,114,-440
0,1362905,2225,328,-393,-1040,-580,-327,166,114,-440
0,1362912,2225,326,-385,-1036,-575,-329,166,114,-440
0,1362919,2225,326,-385,-1036,-575,-329,166,114,-440
0,1362925,2227,326,-395,-1036,-574,-329,166,114,-440
0,1362932,2227,326,-395,-1036,-574,-329,163,117,-429
0,1362938,2227,326,-395,-1036,-574,-329,163,117,-429
0,1362945,2227,326,-395,-1036,-574,-329,163,117,-429
0,1362951,2224,323,-387,-1036,-575,-326,163,117,-429
0,1362958,2224,323,-387,-1036,-575,-326,163,117,-429
0,1362963,2224,323,-387,-1036,-575,-326,163,117,-429
0,1362970,2222,324,-390,-1033,-575,-326,163,117,-429
0,1362976,2222,324,-390,-1033,-575,-326,163,117,-429
0,1362983,2222,324,-390,-1033,-575,-326,163,117,-429
0,1362990,2226,324,-391,-1026,-574,-324,163,117,-429
0,1362996,2226,324,-391,-1026,-574,-324,163,117,-429
0,1363003,2226,324,-391,-1026,-574,-324,163,117,-429
0,1363009,2227,324,-393,-1024,-579,-332,163,117,-429
0,1363016,2227,324,-393,-1024,-579,-332,163,117,-429
0,1363023,2227,324,-393,-1024,-579,-332,163,117,-429
0,1363031,2223,325,-393,-1037,-575,-327,163,117,-429
0,1363037,2223,325,-393,-1037,-575,-327,163,117,-429
0,1363045,2223,325,-393,-1037,-575,-327,163,117,-429
0,1363051,2225,326,-393,-1033,-578,-323,163,117,-429
0,1363057,2225,326,-393,-1033,-578,-323,163,117,-429
0,1363064,2225,326,-393,-1033,-578,-323,163,117,-429
0,1363070,2223,322,-390,-1037,-579,-321,168,110,-438
0,1363079,2223,322,-390,-1037,-579,-321,168,110,-438
0,1363086,2225,327,-389,-1036,-577,-329,168,110,-438
0,1363092,2225,327,-389,-1036,-577,-329,168,110,-438
0,1363098,2225,327,-389,-1036,-577,-329,168,110,-438
0,1363105,2225,327,-389,-1036,-577,-329,168,110,-438
0,1363113,2226,327,-396,-1031,-575,-326,168,110,-438
0,1363120,2226,327,-396,-1031,-575,-326,168,110,-438
0,1363126,2222,323,-391,-1032,-576,-336,168,110,-438
0,1363134,2222,323,-391,-1032,-576,-336,168,110,-438
0,1363140,2222,323,-391,-1032,-576,-336,168,110,-438
0,1363147,2226,323,-396,-1034,-572,-329,168,110,-438
0,1363154,2226,323,-396,-1034,-572,-329,168,110,-438
0,1363164,2226,323,-396,-1034,-572,-329,168,110,-438
0,1363172,2225,326,-393,-1036,-575,-326,168,110,-438
0,1363179,2225,326,-393,-1036,-575,-326,168,110,-438
0,1363187,2226,326,-389,-1035,-575,-321,158,108,-438
0,1363193,2226,326,-389,-1035,-575,-321,158,108,-438
0,1363201,2226,326,-389,-1035,-575,-321,158,108,-438
0,1363207,2224,327,-388,-1034,-577,-330,158,108,-438
0,1363214,2224,327,-388,-1034,-577,-330,158,108,-438
0,1363220,2224,327,-388,-1034,-577,-330,158,108,-438
0,1363227,2224,327,-394,-1038,-573,-326,158,108,-438
0,1363234,2224,327,-394,-1038,-573,-326,158,108,-438
0,1363240,2224,327,-394,-1038,-573,-326,158,108,-438
0,1363249,2227,324,-395,-1030,-574,-325,158,108,-438
0,1363256,2227,324,-395,-1030,-574,-325,158,108,-438
0,1363264,2227,324,-395,-1030,-574,-325,158,108,-438
0,1363270,2226,324,-393,-1034,-580,-327,158,108,-438
0,1363277,2226,324,-393,-1034,-580,-327,158,108,-438
0,1363283,2226,324,-393,-1034,-580,-327,158,108,-438
0,1363290,2226,328,-395,-1039,-579,-335,158,108,-438
0,1363298,2226,328,-395,-1039,-579,-335,158,108,-438
0,1363304,2226,328,-395,-1039,-579,-335,158,108,-438
0,1363312,2225,325,-388,-1031,-585,-335,158,108,-438
0,1363318,2225,325,-388,-1031,-585,-335,158,108,-438
0,1363325,2224,325,-390,-1030,-572,-326,158,108,-438
0,1363333,2224,325,-390,-1030,-572,-326,173,121,-429
0,1363340,2224,325,-390,-1030,-572,-326,173,121,-429
0,1363347,2222,323,-393,-1043,-571,-323,173,121,-429
0,1363353,2222,323,-393,-1043,-571,-323,173,121,-429
0,1363361,2222,323,-393,-1043,-571,-323,173,121,-429
0,1363368,2222,323,-389,-1033,-571,-325,173,121,-429
0,1363375,2222,323,-389,-1033,-571,-325,173,121,-429
0,1363382,2222,323,-389,-1033,-571,-325,173,121,-429
0,1363388,2224,323,-398,-1034,-571,-319,173,121,-429
0,1363395,2224,323,-398,-1034,-571,-319,173,121,-429
0,1363401,2224,323,-398,-1034,-571,-319,173,121,-429
0,1363408,2226,323,-397,-1037,-578,-329,173,121,-429
0,1363415,2226,323,-397,-1037,-578,-329,173,121,-429
0,1363422,2226,323,-397,-1037,-578,-329,173,121,-429
0,1363430,2228,325,-396,-1045,-582,-322,173,121,-429
0,1363436,2228,325,-396,-1045,-582,-322,173,121,-429
0,1363443,2228,325,-396,-1045,-582,-322,173,121,-429
0,1363450,2224,325,-394,-1048,-581,-329,162,114,-432
0,1363457,2224,325,-394,-1048,-581,-329,162,114,-432
0,1363464,2224,325,-394,-1048,-581,-329,162,114,-432
0,1363470,2225,328,-393,-1035,-575,-322,162,114,-432
0,1363477,2225,328,-393,-1035,-575,-322,162,114,-432
0,1363485,2225,328,-393,-1035,-575,-322,162,114,-432
0,1363491,2225,328,-393,-1035,-575,-322,162,114,-432
0,1363499,2225,328,-393,-1035,-575,-322,162,114,-432
0,1363506,2225,328,-393,-1035,-575,-322,162,114,-432
0,1363512,2225,328,-396,-1031,-574,-325,162,114,-432
0,1363519,2225,328,-396,-1031,-574,-325,162,114,-432
0,1363524,2225,328,-396,-1031,-574,-325,162,114,-432
0,1363530,2224,324,-400,-1039,-577,-325,162,114,-432
0,1363537,2224,324,-400,-1039,-577,-325,162,114,-432
0,1363544,2224,324,-400,-1039,-577,-325,162,114,-432
0,1363551,2226,327,-393,-1036,-572,-332,162,114,-432
0,1363559,2226,327,-393,-1036,-572,-332,162,114,-432
0,1363565,2226,327,-393,-1036,-572,-332,162,114,-432
0,1363570,2224,327,-389,-1040,-575,-322,162,114,-432
0,1363578,2224,327,-389,-1040,-575,-322,162,114,-432
0,1363585,2224,327,-389,-1040,-575,-322,162,114,-432
0,1363592,2226,326,-389,-1038,-578,-328,164,114,-436
0,1363599,2226,326,-389,-1038,-578,-328,164,114,-436
0,1363605,2226,326,-389,-1038,-578,-328,164,114,-436
0,1363611,2224,325,-394,-1036,-575,-321,164,114,-436
0,1363618,2224,325,-394,-1036,-575,-321,164,114,-436
0,1363624,2224,325,-394,-1036,-575,-321,164,114,-436
0,1363633,2225,327,-390,-1031,-576,-322,164,114,-436
0,1363640,2225,327,-390,-1031,-576,-322,164,114,-436
0,1363648,2225,327,-395,-1028,-569,-328,164,114,-436
0,1363655,2225,327,-395,-1028,-569,-328,164,114,-436
0,1363661,2225,327,-395,-1028,-569,-328,164,114,-436
0,1363665,2225,327,-395,-1028,-569,-328,164,114,-436
0,1363673,2224,325,-397,-1032,-571,-332,164,114,-436
0,1363680,2224,325,-397,-1032,-571,-332,164,114,-436
0,1363687,2222,323,-390,-1035,-582,-335,164,114,-436
0,1363694,2222,323,-390,-1035,-582,-335,164,114,-436
0,1363699,2222,323,-390,-1035,-582,-335,164,114,-436
0,1363705,2222,323,-390,-1035,-582,-335,164,114,-436
0,1363712,2224,325,-387,-1035,-582,-329,161,113,-439
0,1363717,2224,325,-387,-1035,-582,-329,161,113,-439
0,1363723,2224,325,-387,-1035,-582,-329,161,113,-439
0,1363730,2225,326,-386,-1032,-581,-328,161,113,-439
0,1363736,2225,326,-386,-1032,-581,-328,161,113,-439
0,1363743,2225,326,-386,-1032,-581,-328,161,113,-439
0,1363751,2225,328,-398,-1037,-582,-325,161,113,-439
0,1363759,2225,328,-398,-1037,-582,-325,161,113,-439
0,1363767,2221,325,-392,-1041,-576,-329,161,113,-439
0,1363773,2221,325,-392,-1041,-576,-329,161,113,-439
0,1363780,2221,325,-392,-1041,-576,-329,161,113,-439
0,1363786,2224,324,-395,-1044,-572,-326,161,113,-439
0,1363793,2224,324,-395,-1044,-572,-326,161,113,-439
0,1363799,2224,324,-395,-1044,-572,-326,161,113,-439
0,1363806,2224,324,-395,-1044,-572,-326,161,113,-439
0,1363813,2224,327,-392,-1034,-582,-324,161,113,-439
0,1363820,2224,327,-392,-1034,-582,-324,161,113,-439
0,1363828,2223,323,-391,-1029,-582,-327,158,112,-434
0,1363834,2223,323,-391,-1029,-582,-327,158,112,-434
0,1363842,2223,323,-391,-1029,-582,-327,158,112,-434
0,1363850,2225,326,-389,-1033,-575,-327,158,112,-434
0,1363856,2225,326,-389,-1033,-575,-327,158,112,-434
0,1363863,2225,326,-389,-1033,-575,-327,158,112,-434
0,1363870,2225,324,-391,-1037,-572,-323,158,112,-434
0,1363876,2225,324,-391,-1037,-572,-323,158,112,-434
0,1363884,2225,324,-391,-1037,-572,-323,158,112,-434
0,1363892,2223,329,-391,-1041,-571,-319,158,112,-434
0,1363898,2223,329,-391,-1041,-571,-319,158,112,-434
0,1363905,2223,329,-391,-1041,-571,-319,158,112,-434
0,1363911,2226,323,-397,-1038,-575,-320,158,112,-434
0,1363918,2226,323,-397,-1038,-575,-320,158,112,-434
0,1363926,2226,323,-397,-1038,-575,-320,158,112,-434
0,1363932,2226,325,-391,-1042,-573,-320,158,112,-434
0,1363939,2226,325,-391,-1042,-573,-320,158,112,-434
0,1363946,2226,325,-391,-1042,-573,-320,158,112,-434
0,1363954,2225,326,-391,-1033,-579,-328,158,112,-434
0,1363960,2225,326,-391,-1033,-579,-328,158,112,-434
0,1363966,2226,327,-387,-1047,-584,-328,158,112,-434
0,1363973,2226,327,-387,-1047,-584,-328,167,109,-439
0,1363979,2226,327,-387,-1047,-584,-328,167,109,-439
0,1363987,2226,328,-395,-1050,-578,-323,167,109,-439
0,1363994,2226,328,-395,-1050,-578,-323,167,109,-439
0,1364001,2226,328,-395,-1050,-578,-323,167,109,-439
0,1364008,2226,326,-398,-1040,-570,-325,167,109,-439
0,1364015,2226,326,-398,-1040,-570,-325,167,109,-439
0,1364023,2226,326,-398,-1040,-570,-325,167,109,-439
0,1364029,2229,326,-400,-1042,-576,-326,167,109,-439
0,1364037,2229,326,-400,-1042,-576,-326,167,109,-439
0,1364044,2229,326,-400,-1042,-576,-326,167,109,-439
0,1364051,2227,323,-393,-1045,-579,-323,167,109,-439
0,1364058,2227,323,-393,-1045,-579,-323,167,109,-439
0,1364065,2227,323,-393,-1045,-579,-323,167,109,-439
0,1364072,2228,327,-397,-1042,-574,-326,167,109,-439
0,1364077,2228,327,-397,-1042,-574,-326,167,109,-439
0,1364084,2228,327,-397,-1042,-574,-326,167,109,-439
0,1364091,2228,325,-395,-1035,-571,-332,165,109,-437
0,1364098,2228,325,-395,-1035,-571,-332,165,109,-437
0,1364105,2228,325,-395,-1035,-571,-332,165,109,-437
0,1364112,2227,324,-393,-1032,-577,-329,165,109,-437
0,1364117,2227,324,-393,-1032,-577,-329,165,109,-437
0,1364125,2227,324,-393,-1032,-577,-329,165,109,-437
0,1364131,2224,327,-392,-1037,-577,-322,165,109,-437
0,1364140,2224,327,-392,-1037,-577,-322,165,109,-437
0,1364146,2224,327,-392,-1037,-577,-322,165,109,-437
0,1364154,2226,326,-391,-1037,-581,-325,165,109,-437
0,1364161,2226,326,-391,-1037,-581,-325,165,109,-437
0,1364167,2227,326,-394,-1040,-575,-324,165,109,-437
0,1364174,2227,326,-394,-1040,-575,-324,165,109,-437
0,1364180,2227,326,-394,-1040,-575,-324,165,109,-437
0,1364188,2226,326,-394,-1034,-578,-324,165,109,-437
0,1364194,2226,326,-394,-1034,-578,-324,165,109,-437
0,1364200,2226,326,-394,-1034,-578,-324,165,109,-437
0,1364208,2227,327,-395,-1034,-578,-334,165,109,-437
0,1364213,2227,327,-395,-1034,-578,-334,165,109,-437
0,1364221,2227,327,-395,-1034,-578,-334,165,109,-437
0,1364229,2226,326,-388,-1043,-580,-326,163,113,-439
0,1364236,2226,326,-388,-1043,-580,-326,163,113,-439
0,1364243,2226,326,-388,-1043,-580,-326,163,113,-439
0,1364249,2224,327,-387,-1037,-582,-316,163,113,-439
0,1364256,2224,327,-387,-1037,-582,-316,163,113,-439
0,1364265,2224,327,-387,-1037,-582,-316,163,113,-439
0,1364272,2225,321,-394,-1031,-582,-320,163,113,-439
0,1364279,2225,321,-394,-1031,-582,-320,163,113,-439
0,1364287,2225,321,-394,-1031,-582,-320,163,113,-439
0,1364293,2229,325,-390,-1034,-574,-329,163,113,-439
0,1364299,2229,325,-390,-1034,-574,-329,163,113,-439
0,1364306,2229,325,-390,-1034,-574,-329,163,113,-439
0,1364313,2226,326,-393,-1036,-573,-321,163,113,-439
0,1364318,2226,326,-393,-1036,-573,-321,163,113,-439
0,1364325,2226,326,-393,-1036,-573,-321,163,113,-439
0,1364331,2226,326,-393,-1034,-576,-323,163,113,-439
0,1364337,2226,326,-393,-1034,-576,-323,163,113,-439
0,1364344,2226,326,-393,-1034,-576,-323,163,113,-439
0,1364353,2226,328,-392,-1040,-580,-326,164,108,-446
0,1364359,2226,328,-392,-1040,-580,-326,164,108,-446
0,1364365,2226,328,-392,-1040,-580,-326,164,108,-446
0,1364370,2223,325,-387,-1034,-575,-320,164,108,-446
0,1364376,2223,325,-387,-1034,-575,-320,164,108,-446
0,1364382,2223,325,-387,-1034,-575,-320,164,108,-446
0,1364388,2226,324,-394,-1035,-578,-325,164,108,-446
0,1364395,2226,324,-394,-1035,-578,-325,164,108,-446
0,1364402,2226,324,-394,-1035,-578,-325,164,108,-446
0,1364409,2224,323,-395,-1036,-574,-321,164,108,-446
0,1364414,2224,323,-395,-1036,-574,-321,164,108,-446
0,1364420,2224,323,-395,-1036,-574,-321,164,108,-446
0,1364427,2224,326,-395,-1039,-580,-327,164,108,-446
0,1364434,2224,326,-395,-1039,-580,-327,164,108,-446
0,1364442,2224,326,-395,-1039,-580,-327,164,108,-446
0,1364449,2225,326,-392,-1041,-573,-330,164,108,-446
0,1364456,2225,326,-392,-1041,-573,-330,164,108,-446
0,1364462,2225,326,-392,-1041,-573,-330,164,108,-446
0,1364470,2226,328,-395,-1039,-571,-327,164,108,-446
0,1364477,2226,328,-395,-1039,-571,-327,164,108,-446
0,1364485,2226,328,-395,-1039,-571,-327,164,108,-446
0,1364491,2226,328,-390,-1039,-577,-325,168,106,-438
0,1364498,2226,328,-390,-1039,-577,-325,168,106,-438
0,1364506,2226,328,-390,-1039,-577,-325,168,106,-438
0,1364513,2224,326,-389,-1031,-570,-326,168,106,-438
0,1364521,2224,326,-389,-1031,-570,-326,168,106,-438
0,1364529,2227,324,-392,-1033,-577,-330,168,106,-438
0,1364537,2227,324,-392,-1033,-577,-330,168,106,-438
0,1364544,2227,324,-392,-1033,-577,-330,168,106,-438
0,1364552,2225,327,-391,-1027,-576,-328,168,106,-438
0,1364559,2225,327,-391,-1027,-576,-328,168,106,-438
0,1364567,2225,327,-391,-1027,-576,-328,168,106,-438
0,1364573,2224,325,-396,-1034,-574,-328,168,106,-438
0,1364579,2224,325,-396,-1034,-574,-328,168,106,-438
0,1364587,2223,328,-394,-1037,-573,-327,168,106,-438
0,1364594,2223,328,-394,-1037,-573,-327,168,106,-438
0,1364602,2223,328,-394,-1037,-573,-327,168,106,-438
0,1364609,2224,325,-391,-1040,-570,-319,173,109,-439
0,1364615,2224,325,-391,-1040,-570,-319,173,109,-439
0,1364623,2224,325,-391,-1040,-570,-319,173,109,-439
0,1364629,2225,328,-390,-1035,-576,-327,173,109,-439
0,1364636,2225,328,-390,-1035,-576,-327,173,109,-439
0,1364644,2225,328,-390,-1035,-576,-327,173,109,-439
0,1364649,2227,327,-393,-1041,-577,-329,173,109,-439
0,1364658,2227,327,-393,-1041,-577,-329,173,109,-439
0,1364664,2227,327,-393,-1041,-577,-329,173,109,-439
0,1364671,2228,322,-392,-1048,-572,-330,173,109,-439
0,1364678,2228,322,-392,-1048,-572,-330,173,109,-439
0,1364685,2228,322,-392,-1048,-572,-330,173,109,-439
0,1364694,2226,325,-386,-1047,-580,-322,173,109,-439
0,1364700,2226,325,-386,-1047,-580,-322,173,109,-439
0,1364707,2226,325,-386,-1047,-580,-322,173,109,-439
0,1364713,2224,324,-395,-1041,-582,-328,173,109,-439
0,1364722,2224,324,-395,-1041,-582,-328,173,109,-439
0,1364727,2227,323,-393,-1040,-580,-329,168,112,-440
0,1364736,2227,323,-393,-1040,-580,-329,168,112,-440
0,1364743,2227,323,-393,-1040,-580,-329,168,112,-440
0,1364750,2226,328,-387,-1042,-583,-321,168,112,-440
0,1364755,2226,328,-387,-1042,-583,-321,168,112,-440
0,1364763,2226,328,-387,-1042,-583,-321,168,112,-440
0,1364771,2224,326,-395,-1040,-580,-317,168,112,-440
0,1364776,2224,326,-395,-1040,-580,-317,168,112,-440
0,1364784,2224,326,-395,-1040,-580,-317,168,112,-440
0,1364789,2225,324,-384,-1043,-581,-324,168,112,-440
0,1364796,2225,324,-384,-1043,-581,-324,168,112,-440
0,1364804,2225,324,-384,-1043,-581,-324,168,112,-440
0,1364811,2225,326,-394,-1031,-579,-323,168,112,-440
0,1364818,2225,326,-394,-1031,-579,-323,168,112,-440
0,1364826,2225,326,-394,-1031,-579,-323,168,112,-440
0,1364833,2227,325,-394,-1033,-573,-331,168,112,-440
0,1364838,2227,325,-394,-1033,-573,-331,168,112,-440
0,1364846,2227,325,-394,-1033,-573,-331,168,112,-440
0,1364851,2228,327,-396,-1034,-576,-334,168,112,-440
0,1364859,2228,327,-396,-1034,-576,-334,168,112,-440
0,1364866,2228,327,-396,-1034,-576,-334,168,112,-440
0,1364873,2225,325,-385,-1037,-575,-334,174,112,-428
0,1364880,2225,325,-385,-1037,-575,-334,174,112,-428
0,1364887,2225,325,-385,-1037,-575,-334,174,112,-428
0,1364894,2225,328,-390,-1039,-574,-327,174,112,-428
0,1364902,2225,328,-390,-1039,-574,-327,174,112,-428
0,1364910,2222,326,-391,-1044,-576,-325,174,112,-428
0,1364918,2222,326,-391,-1044,-576,-325,174,112,-428
0,1364923,2222,326,-391,-1044,-576,-325,174,112,-428
0,1364930,2226,325,-398,-1045,-572,-325,174,112,-428
0,1364938,2226,325,-398,-1045,-572,-325,174,112,-428
0,1364945,2226,325,-398,-1045,-572,-325,174,112,-428
0,1364953,2228,325,-394,-1053,-579,-330,174,112,-428
0,1364961,2228,325,-394,-1053,-579,-330,174,112,-428
0,1364966,2228,325,-394,-1053,-579,-330,174,112,-428
0,1364974,2229,324,-398,-1051,-582,-330,174,112,-428
0,1364982,2229,324,-398,-1051,-582,-330,174,112,-428
0,1364990,2224,322,-395,-1038,-581,-330,159,111,-441
0,1364999,2224,322,-395,-1038,-581,-330,159,111,-441
0,1365006,2224,322,-395,-1038,-581,-330,159,111,-441
0,1365012,2226,327,-393,-1042,-582,-328,159,111,-441
0,1365019,2226,327,-393,-1042,-582,-328,159,111,-441
0,1365026,2226,327,-393,-1042,-582,-328,159,111,-441
0,1365033,2223,324,-390,-1036,-577,-330,159,111,-441
0,1365039,2223,324,-390,-1036,-577,-330,159,111,-441
0,1365046,2223,324,-390,-1036,-577,-330,159,111,-441
0,1365052,2230,325,-399,-1035,-570,-329,159,111,-441
0,1365059,2230,325,-399,-1035,-570,-329,159,111,-441
0,1365066,2230,325,-399,-1035,-570,-329,159,111,-441
0,1365073,2225,325,-390,-1035,-571,-329,159,111,-441
0,1365081,2225,325,-390,-1035,-571,-329,159,111,-441
0,1365089,2225,326,-392,-1032,-564,-324,159,111,-441
0,1365095,2225,326,-392,-1032,-564,-324,159,111,-441
0,1365102,2225,326,-392,-1032,-564,-324,159,111,-441
0,1365110,2224,325,-396,-1029,-574,-325,159,111,-441
0,1365116,2224,325,-396,-1029,-574,-325,159,111,-441
0,1365125,2224,325,-396,-1029,-574,-325,159,111,-441
0,1365132,2226,324,-387,-1034,-570,-328,171,107,-427
0,1365140,2226,324,-387,-1034,-570,-328,171,107,-427
0,1365146,2226,324,-387,-1034,-570,-328,171,107,-427
0,1365153,2225,326,-393,-1034,-571,-329,171,107,-427
0,1365160,2225,326,-393,-1034,-571,-329,171,107,-427
0,1365168,2227,326,-393,-1042,-575,-321,171,107,-427
0,1365176,2227,326,-393,-1042,-575,-321,171,107,-427
0,1365182,2227,326,-393,-1042,-575,-321,171,107,-427
0,1365190,2227,326,-389,-1031,-569,-321,171,107,-427
0,1365197,2227,326,-389,-1031,-569,-321,171,107,-427
0,1365206,2227,326,-389,-1031,-569,-321,171,107,-427
0,1365212,2229,325,-388,-1038,-571,-325,171,107,-427
0,1365218,2229,325,-388,-1038,-571,-325,171,107,-427
0,1365224,2229,325,-388,-1038,-571,-325,171,107,-427
0,1365232,2226,325,-399,-1033,-575,-323,171,107,-427
0,1365240,2226,325,-399,-1033,-575,-323,171,107,-427
0,1365248,2226,325,-399,-1033,-575,-323,171,107,-427
0,1365255,2225,326,-392,-1042,-580,-326,157,113,-439
0,1365262,2225,326,-392,-1042,-580,-326,157,113,-439
0,1365269,2228,325,-392,-1042,-577,-324,157,113,-439
0,1365274,2228,325,-392,-1042,-577,-324,157,113,-439
0,1365280,2228,325,-392,-1042,-577,-324,157,113,-439
0,1365286,2228,325,-392,-1042,-577,-324,157,113,-439
0,1365293,2225,323,-390,-1039,-573,-327,157,113,-439
0,1365301,2225,323,-390,-1039,-573,-327,157,113,-439
0,1365308,2226,325,-392,-1034,-578,-334,157,113,-439
0,1365315,2226,325,-392,-1034,-578,-334,157,113,-439
0,1365321,2226,325,-392,-1034,-578,-334,157,113,-439
0,1365327,2226,325,-392,-1034,-578,-334,157,113,-439
0,1365334,2225,326,-386,-1033,-573,-331,157,113,-439
0,1365342,2225,326,-386,-1033,-573,-331,157,113,-439
0,1365349,2227,325,-389,-1038,-572,-328,157,113,-439
0,1365355,2227,325,-389,-1038,-572,-328,157,113,-439
0,1365361,2227,325,-389,-1038,-572,-328,157,113,-439
0,1365368,2225,323,-390,-1043,-574,-335,157,113,-439
0,1365376,2225,323,-390,-1043,-574,-335,165,107,-437
0,1365383,2225,323,-390,-1043,-574,-335,165,107,-437
0,1365391,2226,324,-388,-1038,-574,-321,165,107,-437
0,1365398,2226,324,-388,-1038,-574,-321,165,107,-437
0,1365404,2226,324,-388,-1038,-574,-321,165,107,-437
0,1365409,2224,324,-394,-1041,-572,-327,165,107,-437
0,1365416,2224,324,-394,-1041,-572,-327,165,107,-437
0,1365425,2224,324,-394,-1041,-572,-327,165,107,-437
0,1365433,2224,324,-394,-1041,-572,-327,165,107,-437
0,1365439,2224,324,-394,-1041,-572,-327,165,107,-437
0,1365446,2224,324,-394,-1041,-572,-327,165,107,-437
0,1365453,2224,324,-393,-1044,-572,-329,165,107,-437
0,1365458,2224,324,-393,-1044,-572,-329,165,107,-437
0,1365465,2224,324,-393,-1044,-572,-329,165,107,-437
0,1365472,2225,327,-394,-1035,-572,-332,165,107,-437
0,1365479,2225,327,-394,-1035,-572,-332,165,107,-437
0,1365486,2225,327,-394,-1035,-572,-332,165,107,-437
0,1365491,2229,325,-394,-1035,-572,-325,165,107,-437
0,1365499,2229,325,-394,-1035,-572,-325,165,107,-437
0,1365509,2226,327,-394,-1035,-578,-327,165,107,-437
0,1365516,2226,327,-394,-1035,-578,-327,163,109,-445
0,1365525,2226,327,-394,-1035,-578,-327,163,109,-445
0,1365531,2226,323,-389,-1048,-576,-327,163,109,-445
0,1365538,2226,323,-389,-1048,-576,-327,163,109,-445
0,1365547,2226,323,-389,-1048,-576,-327,163,109,-445
0,1365553,2227,325,-397,-1040,-578,-327,163,109,-445
0,1365561,2227,325,-397,-1040,-578,-327,163,109,-445
0,1365567,2227,325,-397,-1040,-578,-327,163,109,-445
0,1365574,2229,327,-394,-1033,-572,-329,163,109,-445
0,1365581,2229,327,-394,-1033,-572,-329,163,109,-445
0,1365587,2229,327,-394,-1033,-572,-329,163,109,-445
0,1365596,2223,324,-395,-1037,-575,-327,163,109,-445
0,1365601,2223,324,-395,-1037,-575,-327,163,109,-445
0,1365607,2223,324,-395,-1037,-575,-327,163,109,-445
0,1365615,2228,323,-393,-1035,-576,-327,163,109,-445
0,1365621,2228,323,-393,-1035,-576,-327,163,109,-445
0,1365628,2228,323,-393,-1035,-576,-327,163,109,-445
0,1365635,2227,324,-391,-1038,-574,-321,177,101,-435
0,1365643,2227,324,-391,-1038,-574,-321,177,101,-435
0,1365650,2224,327,-394,-1035,-574,-328,177,101,-435
0,1365657,2224,327,-394,-1035,-574,-328,177,101,-435
0,1365664,2224,327,-394,-1035,-574,-328,177,101,-435
0,1365672,2227,324,-391,-1031,-574,-326,177,101,-435
0,1365678,2227,324,-391,-1031,-574,-326,177,101,-435
0,1365684,2227,324,-391,-1031,-574,-326,177,101,-435
0,1365692,2226,322,-396,-1028,-574,-328,177,101,-435
0,1365698,2226,322,-396,-1028,-574,-328,177,101,-435
0,1365703,2226,322,-396,-1028,-574,-328,177,101,-435
0,1365709,2226,324,-397,-1035,-575,-329,177,101,-435
0,1365716,2226,324,-397,-1035,-575,-329,177,101,-435
0,1365726,2226,324,-397,-1035,-575,-329,177,101,-435
0,1365732,2225,326,-394,-1041,-575,-329,177,101,-435
0,1365739,2225,326,-394,-1041,-575,-329,177,101,-435
0,1365744,2225,326,-394,-1041,-575,-329,177,101,-435
0,1365749,2225,322,-394,-1041,-576,-329,177,101,-435
0,1365756,2225,322,-394,-1041,-576,-329,177,101,-435
0,1365764,2225,322,-394,-1041,-576,-329,177,101,-435
0,1365771,2223,327,-393,-1044,-581,-329,166,108,-436
0,1365776,2223,327,-393,-1044,-581,-329,166,108,-436
0,1365784,2223,327,-393,-1044,-581,-329,166,108,-436
0,1365793,2226,326,-389,-1037,-577,-326,166,108,-436
0,1365799,2226,326,-389,-1037,-577,-326,166,108,-436
0,1365807,2226,326,-389,-1037,-577,-326,166,108,-436
0,1365814,2224,327,-392,-1032,-581,-327,166,108,-436
0,1365821,2224,327,-392,-1032,-581,-327,166,108,-436
0,1365828,2224,327,-392,-1032,-581,-327,166,108,-436
0,1365835,2222,325,-390,-1042,-577,-324,166,108,-436
0,1365842,2222,325,-390,-1042,-577,-324,166,108,-436
0,1365851,2225,324,-394,-1037,-582,-326,166,108,-436
0,1365857,2225,324,-394,-1037,-582,-326,166,108,-436
0,1365865,2225,324,-394,-1037,-582,-326,166,108,-436
0,1365872,2225,325,-395,-1030,-578,-325,166,108,-436
0,1365880,2225,325,-395,-1030,-578,-325,166,108,-436
0,1365888,2225,325,-395,-1030,-578,-325,166,108,-436
0,1365895,2226,326,-389,-1038,-582,-327,165,107,-433
0,1365903,2226,326,-389,-1038,-582,-327,165,107,-433
0,1365911,2224,325,-388,-1037,-580,-331,165,107,-433
0,1365916,2224,325,-388,-1037,-580,-331,165,107,-433
0,1365924,2224,325,-388,-1037,-580,-331,165,107,-433
0,1365932,2227,326,-399,-1038,-574,-321,165,107,-433
0,1365937,2227,326,-399,-1038,-574,-321,165,107,-433
0,1365945,2227,326,-399,-1038,-574,-321,165,107,-433
0,1365953,2225,329,-396,-1035,-574,-323,165,107,-433
0,1365961,2225,329,-396,-1035,-574,-323,165,107,-433
0,1365968,2225,329,-396,-1035,-574,-323,165,107,-433
0,1365976,2227,328,-395,-1036,-581,-329,165,107,-433
0,1365984,2227,328,-395,-1036,-581,-329,165,107,-433
0,1365990,2226,325,-393,-1048,-581,-331,165,107,-433
0,1365995,2226,325,-393,-1048,-581,-331,165,107,-433
0,1366002,2226,325,-393,-1048,-581,-331,165,107,-433
0,1366010,2225,328,-398,-1042,-578,-322,165,107,-433
0,1366018,2225,328,-398,-1042,-578,-322,165,107,-433
0,1366025,2225,328,-398,-1042,-578,-322,165,107,-433
0,1366033,2223,322,-394,-1034,-579,-323,161,113,-441
0,1366039,2223,322,-394,-1034,-579,-323,161,113,-441
0,1366046,2223,322,-394,-1034,-579,-323,161,113,-441
0,1366052,2224,327,-395,-1037,-579,-319,161,113,-441
0,1366059,2224,327,-395,-1037,-579,-319,161,113,-441
0,1366066,2224,327,-395,-1037,-579,-319,161,113,-441
0,1366072,2224,322,-390,-1035,-579,-328,161,113,-441
0,1366079,2224,322,-390,-1035,-579,-328,161,113,-441
0,1366087,2224,322,-390,-1035,-579,-328,161,113,-441
0,1366096,2225,328,-392,-1028,-573,-323,161,113,-441
0,1366103,2225,328,-392,-1028,-573,-323,161,113,-441
0,1366109,2225,328,-392,-1028,-573,-323,161,113,-441
0,1366116,2225,327,-394,-1036,-570,-320,161,113,-441
0,1366123,2225,327,-394,-1036,-570,-320,161,113,-441
0,1366128,2225,327,-394,-1036,-570,-320,161,113,-441
0,1366135,2227,321,-396,-1046,-580,-322,161,113,-441
0,1366140,2227,321,-396,-1046,-580,-322,161,113,-441
0,1366147,2227,321,-396,-1046,-580,-322,161,113,-441
0,1366153,2227,321,-396,-1046,-580,-322,156,112,-434
0,1366162,2227,321,-396,-1046,-580,-322,156,112,-434
0,1366168,2227,321,-396,-1046,-580,-322,156,112,-434
0,1366174,2226,327,-392,-1034,-581,-321,156,112,-434
0,1366179,2226,327,-392,-1034,-581,-321,156,112,-434
0,1366187,2226,327,-392,-1034,-581,-321,156,112,-434
0,1366193,2225,326,-395,-1037,-568,-323,156,112,-434
0,1366200,2225,326,-395,-1037,-568,-323,156,112,-434
0,1366206,2225,326,-395,-1037,-568,-323,156,112,-434
0,1366213,2226,327,-392,-1044,-579,-323,156,112,-434
0,1366219,2226,327,-392,-1044,-579,-323,156,112,-434
0,1366225,2226,327,-392,-1044,-579,-323,156,112,-434
0,1366233,2224,324,-394,-1036,-573,-321,156,112,-434
0,1366239,2224,324,-394,-1036,-573,-321,156,112,-434
0,1366246,2224,324,-394,-1036,-573,-321,156,112,-434
0,1366252,2226,328,-395,-1039,-573,-325,156,112,-434
0,1366258,2226,328,-395,-1039,-573,-325,156,112,-434
0,1366264,2226,328,-395,-1039,-573,-325,156,112,-434
0,1366270,2225,325,-393,-1031,-574,-325,166,110,-430
0,1366278,2225,325,-393,-1031,-574,-325,166,110,-430
0,1366285,2225,325,-393,-1031,-574,-325,166,110,-430
0,1366291,2225,327,-389,-1038,-579,-324,166,110,-430
0,1366297,2225,327,-389,-1038,-579,-324,166,110,-430
0,1366303,2225,327,-389,-1038,-579,-324,166,110,-430
0,1366310,2224,324,-386,-1028,-568,-321,166,110,-430
0,1366317,2224,324,-386,-1028,-568,-321,166,110,-430
0,1366323,2224,324,-386,-1028,-568,-321,166,110,-430
0,1366329,2227,326,-392,-1033,-573,-321,166,110,-430
0,1366336,2227,326,-392,-1033,-573,-321,166,110,-430
0,1366342,2227,326,-392,-1033,-573,-321,166,110,-430
0,1366349,2223,328,-393,-1038,-581,-327,166,110,-430
0,1366356,2223,328,-393,-1038,-581,-327,166,110,-430
0,1366363,2223,328,-393,-1038,-581,-327,166,110,-430
0,1366369,2223,328,-393,-1038,-581,-327,166,110,-430
0,1366377,2228,327,-394,-1045,-577,-322,166,110,-430
0,1366383,2228,327,-394,-1045,-577,-322,166,110,-430
0,1366389,2226,322,-397,-1041,-570,-319,166,110,-430
0,1366396,2226,322,-397,-1041,-570,-319,166,110,-430
0,1366404,2226,322,-397,-1041,-570,-319,166,110,-430
0,1366411,2224,322,-383,-1045,-579,-332,163,105,-427
0,1366417,2224,322,-383,-1045,-579,-332,163,105,-427
0,1366423,2224,322,-383,-1045,-579,-332,163,105,-427
0,1366430,2226,324,-391,-1034,-571,-329,163,105,-427
0,1366436,2226,324,-391,-1034,-571,-329,163,105,-427
0,1366443,2226,324,-391,-1034,-571,-329,163,105,-427
0,1366448,2226,324,-391,-1034,-571,-329,163,105,-427
0,1366455,2224,326,-390,-1040,-575,-328,163,105,-427
0,1366462,2224,326,-390,-1040,-575,-328,163,105,-427
0,1366468,2224,326,-390,-1040,-575,-328,163,105,-427
0,1366474,2226,326,-390,-1036,-573,-331,163,105,-427
0,1366480,2226,326,-390,-1036,-573,-331,163,105,-427
0,1366487,2226,326,-390,-1036,-573,-331,163,105,-427
0,1366494,2228,324,-391,-1039,-575,-328,163,105,-427
0,1366500,2228,324,-391,-1039,-575,-328,163,105,-427
0,1366507,2228,324,-391,-1039,-575,-328,163,105,-427
0,1366514,2226,325,-396,-1037,-580,-322,163,105,-427
0,1366521,2226,325,-396,-1037,-580,-322,163,105,-427
0,1366528,2226,325,-396,-1037,-580,-322,163,105,-427
0,1366534,2226,327,-391,-1040,-575,-315,164,112,-440
0,1366541,2226,327,-391,-1040,-575,-315,164,112,-440
0,1366547,2226,327,-391,-1040,-575,-315,164,112,-440
0,1366553,2226,325,-389,-1037,-577,-318,164,112,-440
0,1366560,2226,325,-389,-1037,-577,-318,164,112,-440
0,1366566,2226,325,-389,-1037,-577,-318,164,112,-440
0,1366574,2225,328,-394,-1030,-580,-325,164,112,-440
0,1366581,2225,328,-394,-1030,-580,-325,164,112,-440
0,1366586,2225,328,-394,-1030,-580,-325,164,112,-440
0,1366593,2222,325,-396,-1032,-581,-320,164,112,-440
0,1366598,2222,325,-396,-1032,-581,-320,164,112,-440
0,1366605,2222,325,-396,-1032,-581,-320,164,112,-440
0,1366611,2224,328,-392,-1036,-577,-328,164,112,-440
0,1366618,2224,328,-392,-1036,-577,-328,164,112,-440
0,1366624,2224,328,-392,-1036,-577,-328,164,112,-440
0,1366631,2228,325,-391,-1032,-575,-333,164,112,-440
0,1366639,2228,325,-391,-1032,-575,-333,164,112,-440
0,1366645,2228,325,-391,-1032,-575,-333,164,112,-440
0,1366651,2222,323,-395,-1036,-573,-326,164,112,-440
0,1366659,2222,323,-395,-1036,-573,-326,164,112,-440
0,1366665,2222,323,-395,-1036,-573,-326,164,112,-440
0,1366670,2226,325,-389,-1039,-577,-321,160,120,-426
0,1366677,2226,325,-389,-1039,-577,-321,160,120,-426
0,1366683,2226,325,-389,-1039,-577,-321,160,120,-426
0,1366689,2226,325,-389,-1039,-577,-321,160,120,-426
0,1366695,2223,326,-390,-1034,-570,-330,160,120,-426
0,1366703,2223,326,-390,-1034,-570,-330,160,120,-426
0,1366709,2223,326,-390,-1034,-570,-330,160,120,-426
0,1366716,2222,328,-393,-1033,-575,-330,160,120,-426
0,1366723,2222,328,-393,-1033,-575,-330,160,120,-426
0,1366730,2224,325,-396,-1031,-579,-324,160,120,-426
0,1366737,2224,325,-396,-1031,-579,-324,160,120,-426
0,1366744,2224,325,-396,-1031,-579,-324,160,120,-426
0,1366749,2224,325,-396,-1031,-579,-324,160,120,-426
0,1366755,2223,322,-397,-1041,-576,-321,160,120,-426
0,1366762,2223,322,-397,-1041,-576,-321,160,120,-426
0,1366768,2223,322,-397,-1041,-576,-321,160,120,-426
0,1366774,2225,328,-395,-1035,-573,-323,160,120,-426
0,1366779,2225,328,-395,-1035,-573,-323,160,120,-426
0,1366786,2225,328,-395,-1035,-573,-323,160,120,-426
0,1366793,2226,328,-389,-1039,-578,-330,167,107,-435
0,1366800,2226,328,-389,-1039,-578,-330,167,107,-435
0,1366806,2226,328,-389,-1039,-578,-330,167,107,-435
0,1366812,2227,329,-392,-1037,-575,-327,167,107,-435
0,1366819,2227,329,-392,-1037,-575,-327,167,107,-435
0,1366824,2227,329,-392,-1037,-575,-327,167,107,-435
0,1366832,2223,323,-385,-1027,-571,-322,167,107,-435
0,1366838,2223,323,-385,-1027,-571,-322,167,107,-435
0,1366845,2223,323,-385,-1027,-571,-322,167,107,-435
0,1366852,2226,327,-390,-1032,-575,-326,167,107,-435
0,1366859,2226,327,-390,-1032,-575,-326,167,107,-435
0,1366866,2226,327,-390,-1032,-575,-326,167,107,-435
0,1366873,2227,326,-397,-1039,-573,-331,167,107,-435
0,1366879,2227,326,-397,-1039,-573,-331,167,107,-435
0,1366885,2227,326,-397,-1039,-573,-331,167,107,-435
0,1366890,2227,326,-397,-1039,-573,-331,167,107,-435
0,1366896,2225,325,-395,-1033,-573,-333,167,107,-435
0,1366902,2225,325,-395,-1033,-573,-333,167,107,-435
0,1366908,2225,325,-395,-1033,-573,-333,167,107,-435
0,1366917,2225,328,-391,-1033,-573,-328,167,107,-435
0,1366922,2225,328,-391,-1033,-573,-328,167,107,-435
0,1366928,2225,328,-391,-1033,-573,-328,167,107,-435
0,1366933,2225,326,-394,-1032,-574,-325,160,112,-438
0,1366939,2225,326,-394,-1032,-574,-325,160,112,-438
0,1366944,2225,326,-394,-1032,-574,-325,160,112,-438
0,1366949,2225,326,-394,-1032,-574,-325,160,112,-438
0,1366957,2224,326,-393,-1042,-573,-325,160,112,-438
0,1366962,2224,326,-393,-1042,-573,-325,160,112,-438
0,1366968,2224,326,-393,-1042,-573,-325,160,112,-438
0,1366974,2224,326,-393,-1042,-573,-325,160,112,-438
0,1366980,2224,326,-393,-1042,-573,-325,160,112,-438
0,1366987,2224,326,-393,-1042,-573,-325,160,112,-438
0,1366993,2224,319,-393,-1036,-580,-333,160,112,-438
0,1367000,2224,319,-393,-1036,-580,-333,160,112,-438
0,1367006,2224,319,-393,-1036,-580,-333,160,112,-438
0,1367014,2225,326,-393,-1041,-574,-322,160,112,-438
0,1367021,2225,326,-393,-1041,-574,-322,160,112,-438
0,1367027,2225,326,-393,-1041,-574,-322,160,112,-438
0,1367033,2224,322,-391,-1039,-583,-327,160,112,-438
0,1367041,2224,322,-391,-1039,-583,-327,160,112,-438
0,1367047,2224,322,-391,-1039,-583,-327,160,112,-438
0,1367054,2224,324,-384,-1032,-580,-322,160,114,-440
0,1367060,2224,324,-384,-1032,-580,-322,160,114,-440
0,1367067,2224,324,-384,-1032,-580,-322,160,114,-440
0,1367073,2224,324,-389,-1033,-573,-326,160,114,-440
0,1367079,2224,324,-389,-1033,-573,-326,160,114,-440
0,1367087,2224,324,-389,-1033,-573,-326,160,114,-440
0,1367093,2228,322,-386,-1033,-577,-318,160,114,-440
0,1367099,2228,322,-386,-1033,-577,-318,160,114,-440
0,1367105,2228,322,-386,-1033,-577,-318,160,114,-440
0,1367111,2226,325,-390,-1035,-575,-323,160,114,-440
0,1367117,2226,325,-390,-1035,-575,-323,160,114,-440
0,1367124,2226,325,-390,-1035,-575,-323,160,114,-440
0,1367131,2225,325,-393,-1036,-575,-329,160,114,-440
0,1367137,2225,325,-393,-1036,-575,-329,160,114,-440
0,1367143,2225,325,-393,-1036,-575,-329,160,114,-440
0,1367150,2225,325,-391,-1045,-578,-323,160,114,-440
0,1367157,2225,325,-391,-1045,-578,-323,160,114,-440
0,1367162,2225,325,-391,-1045,-578,-323,160,114,-440
0,1367170,2225,325,-391,-1045,-578,-323,160,114,-440
0,1367177,2223,326,-389,-1040,-573,-328,156,112,-432
0,1367185,2223,326,-389,-1040,-573,-328,156,112,-432
0,1367191,2229,327,-391,-1036,-569,-322,156,112,-432
0,1367197,2229,327,-391,-1036,-569,-322,156,112,-432
0,1367204,2229,327,-391,-1036,-569,-322,156,112,-432
0,1367211,2229,327,-391,-1036,-569,-322,156,112,-432
0,1367218,2224,326,-386,-1034,-570,-322,156,112,-432
0,1367224,2224,326,-386,-1034,-570,-322,156,112,-432
0,1367230,2224,326,-386,-1034,-570,-322,156,112,-432
0,1367237,2226,325,-393,-1037,-578,-325,156,112,-432
0,1367242,2226,325,-393,-1037,-578,-325,156,112,-432
0,1367249,2226,325,-393,-1037,-578,-325,156,112,-432
0,1367257,2227,326,-395,-1038,-572,-323,156,112,-432
0,1367264,2227,326,-395,-1038,-572,-323,156,112,-432
0,1367271,2224,327,-394,-1037,-576,-332,156,112,-432
0,1367277,2224,327,-394,-1037,-576,-332,156,112,-432
0,1367285,2224,327,-394,-1037,-576,-332,156,112,-432
0,1367290,2224,327,-394,-1037,-576,-332,156,112,-432
0,1367298,2224,327,-394,-1037,-576,-332,156,112,-432
0,1367305,2224,327,-394,-1037,-576,-332,156,112,-432
0,1367311,2224,327,-394,-1037,-576,-332,156,112,-432
0,1367318,2225,327,-393,-1039,-578,-330,155,115,-437
0,1367323,2225,327,-393,-1039,-578,-330,155,115,-437
0,1367330,2225,327,-393,-1039,-578,-330,155,115,-437
0,1367336,2223,329,-397,-1041,-572,-320,155,115,-437
0,1367343,2223,329,-397,-1041,-572,-320,155,115,-437
0,1367350,2223,329,-397,-1041,-572,-320,155,115,-437
0,1367356,2225,327,-390,-1045,-577,-323,155,115,-437
0,1367363,2225,327,-390,-1045,-577,-323,155,115,-437
0,1367368,2225,327,-390,-1045,-577,-323,155,115,-437
0,1367374,2228,323,-388,-1033,-580,-328,155,115,-437
0,1367382,2228,323,-388,-1033,-580,-328,155,115,-437
0,1367389,2228,323,-388,-1033,-580,-328,155,115,-437
0,1367395,2227,324,-393,-1037,-578,-334,155,115,-437
0,1367402,2227,324,-393,-1037,-578,-334,155,115,-437
0,1367408,2227,324,-393,-1037,-578,-334,155,115,-437
0,1367414,2226,322,-396,-1042,-578,-327,155,115,-437
0,1367419,2226,322,-396,-1042,-578,-327,155,115,-437
0,1367426,2226,322,-396,-1042,-578,-327,155,115,-437
0,1367432,2222,324,-390,-1031,-579,-329,168,110,-430
0,1367439,2222,324,-390,-1031,-579,-329,168,110,-430
0,1367445,2222,324,-390,-1031,-579,-329,168,110,-430
0,1367452,2225,322,-392,-1032,-578,-320,168,110,-430
0,1367459,2225,322,-392,-1032,-578,-320,168,110,-430
0,1367467,2225,322,-392,-1032,-578,-320,168,110,-430
0,1367473,2229,326,-396,-1037,-577,-316,168,110,-430
0,1367479,2229,326,-396,-1037,-577,-316,168,110,-430
0,1367486,2229,326,-396,-1037,-577,-316,168,110,-430
0,1367491,2227,325,-386,-1044,-578,-324,168,110,-430
0,1367498,2227,325,-386,-1044,-578,-324,168,110,-430
0,1367503,2227,325,-386,-1044,-578,-324,168,110,-430
0,1367510,2227,325,-386,-1044,-578,-324,168,110,-430
0,1367516,2224,326,-391,-1038,-575,-322,168,110,-430
0,1367523,2224,326,-391,-1038,-575,-322,168,110,-430
0,1367529,2224,326,-391,-1038,-575,-322,168,110,-430
0,1367535,2228,329,-395,-1033,-577,-327,168,110,-430
0,1367541,2228,329,-395,-1033,-577,-327,168,110,-430
0,1367547,2228,329,-395,-1033,-577,-327,168,110,-430
0,1367554,2227,326,-397,-1031,-574,-326,168,110,-430
0,1367559,2227,326,-397,-1031,-574,-326,168,110,-430
0,1367565,2227,326,-397,-1031,-574,-326,168,110,-430
0,1367570,2227,326,-397,-1031,-574,-326,168,110,-430
0,1367577,2228,325,-392,-1039,-569,-327,164,118,-434
0,1367583,2228,325,-392,-1039,-569,-327,164,118,-434
0,1367591,2227,327,-394,-1039,-578,-322,164,118,-434
0,1367597,2227,327,-394,-1039,-578,-322,164,118,-434
0,1367603,2227,327,-394,-1039,-578,-322,164,118,-434
0,1367609,2227,327,-394,-1039,-578,-322,164,118,-434
0,1367615,2225,322,-390,-1029,-567,-322,164,118,-434
0,1367620,2225,322,-390,-1029,-567,-322,164,118,-434
0,1367627,2225,322,-390,-1029,-567,-322,164,118,-434
0,1367634,2223,327,-394,-1042,-569,-327,164,118,-434
0,1367641,2223,327,-394,-1042,-569,-327,164,118,-434
0,1367647,2223,327,-394,-1042,-569,-327,164,118,-434
0,1367654,2228,325,-392,-1044,-575,-329,164,118,-434
0,1367660,2228,325,-392,-1044,-575,-329,164,118,-434
0,1367667,2228,325,-392,-1044,-575,-329,164,118,-434
0,1367674,2227,324,-395,-1040,-580,-324,164,118,-434
0,1367680,2227,324,-395,-1040,-580,-324,164,118,-434
0,1367687,2227,324,-395,-1040,-580,-324,164,118,-434
0,1367694,2224,323,-389,-1037,-569,-325,162,106,-438
0,1367700,2224,323,-389,-1037,-569,-325,162,106,-438
0,1367707,2224,323,-389,-1037,-569,-325,162,106,-438
0,1367712,2224,324,-391,-1032,-571,-326,162,106,-438
0,1367721,2224,324,-391,-1032,-571,-326,162,106,-438
0,1367728,2224,324,-391,-1032,-571,-326,162,106,-438
0,1367734,2222,326,-391,-1046,-584,-332,162,106,-438
0,1367741,2222,326,-391,-1046,-584,-332,162,106,-438
0,1367746,2222,326,-391,-1046,-584,-332,162,106,-438
0,1367754,2227,325,-394,-1044,-580,-327,162,106,-438
0,1367759,2227,325,-394,-1044,-580,-327,162,106,-438
0,1367766,2227,325,-394,-1044,-580,-327,162,106,-438
0,1367773,2223,326,-395,-1038,-583,-328,162,106,-438
0,1367779,2223,326,-395,-1038,-583,-328,162,106,-438
0,1367786,2223,326,-395,-1038,-583,-328,162,106,-438
0,1367792,2226,326,-393,-1030,-579,-324,162,106,-438
0,1367798,2226,326,-393,-1030,-579,-324,162,106,-438
0,1367804,2226,326,-393,-1030,-579,-324,162,106,-438
0,1367811,2226,326,-393,-1030,-579,-324,162,106,-438
0,1367817,2229,325,-394,-1035,-561,-319,162,106,-438
0,1367824,2229,325,-394,-1035,-561,-319,162,106,-438
0,1367830,2229,325,-394,-1035,-561,-319,162,106,-438
0,1367837,2224,324,-388,-1034,-570,-321,165,105,-429
0,1367844,2224,324,-388,-1034,-570,-321,165,105,-429
0,1367851,2224,324,-388,-1034,-570,-321,165,105,-429
0,1367856,2225,326,-391,-1037,-574,-332,165,105,-429
0,1367862,2225,326,-391,-1037,-574,-332,165,105,-429
0,1367868,2225,326,-391,-1037,-574,-332,165,105,-429
0,1367876,2227,329,-395,-1038,-578,-325,165,105,-429
0,1367882,2227,329,-395,-1038,-578,-325,165,105,-429
0,1367888,2227,329,-395,-1038,-578,-325,165,105,-429
0,1367895,2226,324,-394,-1032,-578,-325,165,105,-429
0,1367901,2226,324,-394,-1032,-578,-325,165,105,-429
0,1367906,2226,324,-394,-1032,-578,-325,165,105,-429
0,1367913,2223,323,-393,-1038,-578,-320,165,105,-429
0,1367921,2223,323,-393,-1038,-578,-320,165,105,-429
0,1367927,2223,323,-393,-1038,-578,-320,165,105,-429
0,1367932,2226,326,-394,-1038,-568,-326,165,105,-429
0,1367940,2226,326,-394,-1038,-568,-326,165,105,-429
0,1367946,2226,326,-394,-1038,-568,-326,165,105,-429
0,1367952,2225,326,-391,-1030,-569,-330,166,106,-432
0,1367959,2225,326,-391,-1030,-569,-330,166,106,-432
0,1367966,2225,326,-391,-1030,-569,-330,166,106,-432
0,1367972,2224,329,-392,-1031,-573,-325,166,106,-432
0,1367979,2224,329,-392,-1031,-573,-325,166,106,-432
0,1367986,2224,329,-392,-1031,-573,-325,166,106,-432
0,1367993,2224,328,-395,-1031,-577,-325,166,106,-432
0,1367999,2224,328,-395,-1031,-577,-325,166,106,-432
0,1368005,2224,328,-395,-1031,-577,-325,166,106,-432
0,1368012,2225,329,-389,-1034,-578,-329,166,106,-432
0,1368019,2225,329,-389,-1034,-578,-329,166,106,-432
0,1368026,2225,329,-389,-1034,-578,-329,166,106,-432
0,1368031,2225,329,-389,-1034,-578,-329,166,106,-432
0,1368039,2228,327,-393,-1034,-573,-328,166,106,-432
0,1368044,2228,327,-393,-1034,-573,-328,166,106,-432
0,1368051,2228,327,-393,-1034,-573,-328,166,106,-432
0,1368057,2226,325,-398,-1034,-575,-327,166,106,-432
0,1368064,2226,325,-398,-1034,-575,-327,166,106,-432
0,1368072,2226,330,-389,-1035,-583,-322,163,109,-429
0,1368079,2226,330,-389,-1035,-583,-322,163,109,-429
0,1368085,2226,330,-389,-1035,-583,-322,163,109,-429
0,1368090,2226,330,-389,-1035,-583,-322,163,109,-429
