imu,time,ax,ay,az,gx,gy,gz,mx,my,mz
2,741106,-1427,508,-570,-165,-227,-83,98,36,-302
2,741116,-1427,508,-570,-165,-227,-83,98,36,-302
2,741132,-1428,507,-573,-165,-230,-86,98,36,-302
2,741142,-1428,507,-573,-165,-230,-86,98,36,-302
2,741157,-1429,510,-574,-167,-226,-91,89,39,-307
2,741174,-1428,508,-572,-163,-225,-89,89,39,-307
2,741188,-1425,509,-573,-165,-225,-81,89,39,-307
2,741203,-1428,505,-574,-170,-226,-84,89,39,-307
2,741218,-1428,505,-574,-170,-226,-84,89,39,-307
2,741231,-1426,505,-576,-173,-229,-78,89,39,-307
2,741241,-1426,505,-576,-173,-229,-78,89,39,-307
2,741251,-1426,505,-582,-171,-233,-89,89,39,-307
2,741264,-1427,507,-570,-169,-226,-80,95,35,-301
2,741279,-1427,507,-570,-169,-226,-80,95,35,-301
2,741288,-1427,507,-577,-161,-229,-84,95,35,-301
2,741297,-1427,507,-577,-161,-229,-84,95,35,-301
2,741306,-1429,507,-570,-168,-230,-80,95,35,-301
2,741314,-1429,507,-570,-168,-230,-80,95,35,-301
2,741323,-1429,507,-570,-168,-230,-80,95,35,-301
2,741337,-1427,505,-576,-171,-224,-83,95,35,-301
2,741347,-1427,508,-579,-163,-226,-85,95,35,-301
2,741356,-1427,508,-579,-163,-226,-85,95,35,-301
2,741363,-1427,508,-579,-163,-226,-85,95,35,-301
2,741369,-1426,507,-576,-167,-226,-82,95,35,-301
2,741376,-1426,507,-576,-167,-226,-82,95,35,-301
2,741382,-1426,507,-576,-167,-226,-82,95,35,-301
2,741388,-1426,511,-577,-168,-225,-79,95,35,-301
2,741394,-1426,511,-577,-168,-225,-79,95,35,-301
2,741400,-1426,511,-577,-168,-225,-79,95,35,-301
2,741406,-1428,507,-574,-170,-237,-82,85,37,-301
2,741413,-1428,507,-574,-170,-237,-82,85,37,-301
2,741420,-1428,507,-574,-170,-237,-82,85,37,-301
2,741426,-1426,509,-578,-168,-233,-86,85,37,-301
2,741432,-1426,509,-578,-168,-233,-86,85,37,-301
2,741438,-1426,509,-578,-168,-233,-86,85,37,-301
2,741444,-1424,507,-570,-170,-236,-89,85,37,-301
2,741453,-1424,507,-570,-170,-236,-89,85,37,-301
2,741464,-1424,507,-570,-170,-236,-89,85,37,-301
2,741473,-1429,507,-579,-165,-231,-91,85,37,-301
2,741481,-1429,507,-579,-165,-231,-91,85,37,-301
2,741491,-1426,505,-573,-170,-227,-89,85,37,-301
2,741498,-1426,505,-573,-170,-227,-89,85,37,-301
2,741508,-1428,507,-577,-170,-234,-87,85,37,-301
2,741516,-1428,507,-577,-170,-234,-87,85,37,-301
2,741525,-1428,508,-568,-168,-231,-83,91,43,-305
2,741534,-1428,508,-568,-168,-231,-83,91,43,-305
2,741541,-1428,508,-568,-168,-231,-83,91,43,-305
2,741552,-1426,507,-571,-169,-239,-86,91,43,-305
2,741560,-1426,507,-571,-169,-239,-86,91,43,-305
2,741569,-1428,508,-576,-171,-232,-79,91,43,-305
2,741581,-1428,508,-576,-171,-232,-79,91,43,-305
2,741598,-1428,507,-575,-170,-233,-83,91,43,-305
2,741612,-1429,507,-575,-169,-226,-81,91,43,-305
2,741625,-1428,508,-574,-167,-228,-86,91,43,-305
2,741633,-1428,508,-574,-167,-228,-86,91,43,-305
2,741646,-1428,508,-574,-167,-228,-86,94,42,-304
2,741661,-1428,508,-574,-167,-228,-86,94,42,-304
2,741676,-1427,506,-578,-164,-224,-81,94,42,-304
2,741690,-1424,505,-575,-166,-231,-81,94,42,-304
2,741703,-1423,508,-579,-169,-237,-85,94,42,-304
2,741720,-1423,508,-579,-169,-237,-85,94,42,-304
2,741733,-1426,507,-579,-165,-230,-83,94,42,-304
2,741744,-1425,507,-575,-168,-227,-85,94,42,-304
2,741760,-1425,507,-575,-168,-227,-85,94,42,-304
2,741774,-1425,507,-576,-173,-225,-77,96,34,-306
2,741789,-1426,506,-578,-160,-221,-87,96,34,-306
2,741797,-1426,506,-578,-160,-221,-87,96,34,-306
2,741806,-1424,506,-570,-162,-211,-85,96,34,-306
2,741817,-1424,506,-570,-162,-211,-85,96,34,-306
2,741831,-1426,506,-574,-164,-219,-82,96,34,-306
2,741847,-1426,509,-580,-167,-228,-88,96,34,-306
2,741861,-1426,509,-580,-167,-228,-88,96,34,-306
2,741876,-1427,508,-575,-169,-230,-78,96,34,-306
2,741890,-1427,510,-574,-165,-224,-79,97,39,-301
2,741901,-1427,510,-574,-165,-224,-79,97,39,-301
2,741913,-1426,507,-573,-169,-226,-85,97,39,-301
2,741926,-1427,507,-574,-171,-227,-84,97,39,-301
2,741943,-1427,507,-574,-171,-227,-84,97,39,-301
2,741958,-1427,505,-574,-166,-229,-85,97,39,-301
2,741970,-1428,507,-572,-163,-229,-85,97,39,-301
2,741983,-1428,507,-572,-163,-229,-85,97,39,-301
2,741995,-1427,508,-575,-162,-226,-77,97,39,-301
2,742010,-1427,509,-571,-166,-237,-80,97,39,-301
2,742023,-1427,509,-571,-166,-237,-80,97,39,-301
2,742037,-1427,504,-576,-165,-226,-88,97,39,-301
2,742052,-1425,507,-572,-165,-227,-90,97,39,-301
2,742067,-1425,508,-577,-160,-224,-82,97,39,-301
2,742082,-1425,508,-577,-160,-224,-82,97,39,-301
2,742096,-1427,507,-576,-166,-216,-81,97,39,-301
2,742110,-1427,507,-575,-172,-219,-78,97,39,-301
2,742124,-1426,506,-574,-170,-223,-84,97,39,-301
2,742137,-1426,506,-574,-170,-223,-84,97,39,-301
2,742154,-1428,508,-571,-163,-225,-82,90,46,-310
2,742167,-1424,509,-576,-161,-227,-83,90,46,-310
2,742179,-1424,509,-576,-161,-227,-83,90,46,-310
2,742195,-1424,509,-576,-161,-227,-83,90,46,-310
2,742202,-1424,509,-576,-161,-227,-83,90,46,-310
2,742210,-1428,507,-578,-163,-224,-85,90,46,-310
2,742224,-1427,508,-570,-163,-228,-74,90,46,-310
2,742238,-1427,508,-570,-163,-228,-74,90,46,-310
2,742251,-1428,507,-578,-169,-221,-81,90,46,-310
2,742263,-1428,507,-578,-169,-221,-81,90,46,-310
2,742279,-1422,506,-572,-171,-225,-88,98,44,-302
2,742292,-1428,509,-577,-168,-225,-85,98,44,-302
2,742304,-1428,509,-577,-168,-225,-85,98,44,-302
2,742319,-1426,507,-582,-172,-225,-87,98,44,-302
2,742334,-1428,506,-576,-177,-223,-81,98,44,-302
2,742347,-1425,507,-572,-164,-229,-85,98,44,-302
2,742362,-1425,507,-572,-164,-229,-85,98,44,-302
2,742376,-1426,508,-572,-161,-230,-91,98,44,-302
2,742389,-1425,505,-569,-159,-216,-88,93,37,-303
2,742402,-1425,505,-569,-159,-216,-88,93,37,-303
2,742415,-1423,505,-572,-165,-218,-79,93,37,-303
2,742428,-1428,507,-573,-171,-215,-79,93,37,-303
2,742443,-1428,507,-573,-171,-215,-79,93,37,-303
2,742457,-1428,505,-577,-174,-232,-87,93,37,-303
2,742472,-1426,509,-578,-168,-234,-83,93,37,-303
2,742488,-1427,506,-574,-170,-224,-82,93,37,-303
2,742503,-1427,506,-574,-170,-224,-82,93,37,-303
2,742516,-1426,507,-572,-167,-231,-88,94,36,-304
2,742531,-1428,508,-573,-162,-230,-85,94,36,-304
2,742546,-1425,509,-573,-165,-230,-83,94,36,-304
2,742558,-1425,509,-573,-165,-230,-83,94,36,-304
2,742571,-1428,510,-575,-159,-216,-87,94,36,-304
2,742586,-1427,508,-574,-163,-222,-87,94,36,-304
2,742601,-1427,508,-574,-163,-222,-87,94,36,-304
2,742615,-1424,506,-573,-169,-227,-81,94,36,-304
2,742629,-1427,508,-574,-174,-230,-87,94,34,-304
2,742643,-1427,508,-574,-174,-230,-87,94,34,-304
2,742657,-1428,507,-572,-172,-226,-84,94,34,-304
2,742670,-1426,504,-574,-166,-231,-76,94,34,-304
2,742683,-1426,504,-574,-166,-231,-76,94,34,-304
2,742697,-1427,508,-581,-168,-226,-81,94,34,-304
2,742712,-1424,503,-578,-169,-225,-84,94,34,-304
2,742726,-1427,507,-580,-167,-225,-78,94,34,-304
2,742742,-1427,507,-580,-167,-225,-78,94,34,-304
2,742753,-1425,505,-574,-165,-227,-80,94,34,-304
2,742766,-1426,506,-579,-167,-223,-80,85,39,-303
2,742781,-1426,506,-579,-167,-223,-80,85,39,-303
2,742797,-1430,508,-576,-168,-223,-89,85,39,-303
2,742813,-1428,508,-581,-164,-228,-80,85,39,-303
2,742825,-1427,507,-578,-168,-223,-76,85,39,-303
2,742838,-1427,507,-578,-168,-223,-76,85,39,-303
2,742852,-1427,505,-578,-168,-228,-78,85,39,-303
2,742866,-1427,506,-579,-166,-234,-79,85,39,-303
2,742881,-1427,506,-579,-166,-234,-79,85,39,-303
2,742895,-1425,508,-573,-165,-224,-78,96,32,-302
2,742909,-1428,507,-577,-176,-227,-87,96,32,-302
2,742923,-1428,507,-577,-176,-227,-87,96,32,-302
2,742935,-1427,510,-578,-174,-229,-82,96,32,-302
2,742950,-1428,506,-577,-163,-227,-87,96,32,-302
2,742964,-1428,506,-577,-163,-227,-87,96,32,-302
2,742979,-1426,507,-573,-154,-227,-89,96,32,-302
2,742992,-1423,506,-581,-158,-229,-83,96,32,-302
2,743008,-1426,506,-571,-165,-230,-78,97,41,-305
2,743024,-1426,506,-571,-165,-230,-78,97,41,-305
2,743040,-1428,506,-572,-166,-227,-75,97,41,-305
2,743056,-1428,505,-577,-169,-225,-80,97,41,-305
2,743070,-1426,509,-578,-167,-232,-84,97,41,-305
2,743084,-1426,509,-578,-167,-232,-84,97,41,-305
2,743098,-1427,508,-571,-168,-227,-79,97,41,-305
2,743112,-1427,508,-571,-168,-227,-79,97,41,-305
2,743128,-1425,506,-572,-174,-224,-80,97,35,-299
2,743140,-1425,506,-572,-174,-224,-80,97,35,-299
2,743152,-1425,509,-574,-169,-229,-78,97,35,-299
2,743166,-1426,505,-575,-166,-226,-87,97,35,-299
2,743180,-1426,505,-575,-166,-226,-87,97,35,-299
2,743194,-1426,510,-574,-167,-220,-90,97,35,-299
2,743207,-1427,507,-574,-173,-223,-84,97,35,-299
2,743222,-1427,507,-574,-173,-223,-84,97,35,-299
2,743235,-1424,507,-578,-165,-221,-82,97,35,-299
2,743249,-1427,508,-573,-169,-226,-83,93,45,-307
2,743266,-1427,507,-572,-170,-222,-88,93,45,-307
2,743280,-1427,507,-572,-170,-222,-88,93,45,-307
2,743292,-1426,507,-576,-173,-230,-92,93,45,-307
2,743308,-1426,510,-577,-165,-224,-92,93,45,-307
2,743322,-1426,510,-577,-165,-224,-92,93,45,-307
2,743336,-1425,509,-572,-166,-228,-88,93,45,-307
2,743351,-1429,507,-580,-163,-231,-88,93,45,-307
2,743364,-1429,507,-580,-163,-231,-88,93,45,-307
2,743376,-1426,507,-579,-169,-229,-81,93,45,-307
2,743392,-1428,506,-570,-166,-233,-82,96,38,-316
2,743404,-1428,506,-570,-166,-233,-82,96,38,-316
2,743418,-1428,506,-573,-168,-232,-83,96,38,-316
2,743430,-1427,508,-577,-172,-232,-88,96,38,-316
2,743444,-1427,508,-577,-172,-232,-88,96,38,-316
2,743457,-1429,506,-575,-168,-223,-80,96,38,-316
2,743471,-1425,509,-572,-168,-217,-81,96,38,-316
2,743486,-1424,503,-574,-170,-226,-82,96,38,-316
2,743500,-1424,503,-574,-170,-226,-82,96,38,-316
2,743512,-1424,504,-574,-167,-223,-83,86,40,-298
2,743524,-1424,504,-574,-167,-223,-83,86,40,-298
2,743537,-1427,510,-574,-167,-220,-77,86,40,-298
2,743552,-1430,507,-573,-172,-219,-81,86,40,-298
2,743566,-1426,509,-580,-168,-230,-75,86,40,-298
2,743576,-1426,509,-580,-168,-230,-75,86,40,-298
2,743589,-1428,504,-573,-169,-233,-79,86,40,-298
2,743603,-1428,504,-573,-169,-233,-79,86,40,-298
2,743616,-1429,505,-575,-161,-225,-84,86,40,-298
2,743629,-1426,510,-570,-164,-224,-78,92,38,-306
2,743639,-1426,510,-570,-164,-224,-78,92,38,-306
2,743651,-1426,509,-571,-166,-227,-78,92,38,-306
2,743665,-1426,509,-571,-166,-227,-78,92,38,-306
2,743680,-1426,505,-569,-164,-232,-81,92,38,-306
2,743695,-1427,503,-576,-168,-223,-87,92,38,-306
2,743707,-1425,508,-581,-168,-226,-90,92,38,-306
2,743717,-1425,508,-581,-168,-226,-90,92,38,-306
2,743729,-1425,507,-571,-172,-227,-81,92,38,-306
2,743743,-1425,507,-571,-172,-227,-81,92,38,-306
2,743759,-1428,504,-572,-163,-227,-77,91,31,-309
2,743774,-1428,507,-572,-161,-228,-79,91,31,-309
2,743787,-1424,504,-573,-164,-235,-85,91,31,-309
2,743800,-1424,504,-573,-164,-235,-85,91,31,-309
2,743812,-1424,510,-578,-162,-226,-86,91,31,-309
2,743824,-1424,510,-578,-162,-226,-86,91,31,-309
2,743838,-1427,510,-576,-165,-214,-85,91,31,-309
2,743852,-1427,509,-578,-163,-220,-90,91,31,-309
2,743866,-1426,508,-573,-169,-221,-89,91,31,-309
2,743879,-1426,508,-573,-169,-221,-89,92,48,-306
2,743889,-1426,508,-575,-166,-220,-85,92,48,-306
2,743905,-1426,508,-575,-166,-220,-85,92,48,-306
2,743918,-1427,503,-574,-165,-222,-89,92,48,-306
2,743931,-1428,509,-580,-162,-226,-93,92,48,-306
2,743947,-1429,509,-573,-166,-224,-87,92,48,-306
2,743962,-1429,509,-573,-166,-224,-87,92,48,-306
2,743975,-1428,507,-579,-165,-230,-77,92,48,-306
2,743985,-1428,507,-579,-165,-230,-77,92,48,-306
2,743993,-1427,507,-582,-163,-224,-84,92,48,-306
2,744001,-1427,507,-582,-163,-224,-84,92,48,-306
2,744012,-1428,509,-573,-169,-239,-86,99,33,-309
2,744028,-1431,510,-574,-169,-233,-87,99,33,-309
2,744043,-1431,510,-574,-169,-233,-87,99,33,-309
2,744056,-1428,509,-574,-166,-227,-84,99,33,-309
2,744071,-1427,508,-574,-171,-219,-82,99,33,-309
2,744084,-1427,508,-574,-171,-219,-82,99,33,-309
2,744098,-1429,507,-576,-167,-224,-84,99,33,-309
2,744112,-1426,505,-577,-170,-225,-92,99,33,-309
2,744124,-1426,505,-577,-170,-225,-92,99,33,-309
2,744137,-1427,507,-568,-173,-227,-85,95,41,-305
2,744152,-1425,507,-579,-164,-223,-75,95,41,-305
2,744166,-1429,507,-579,-164,-227,-82,95,41,-305
2,744181,-1429,507,-579,-164,-227,-82,95,41,-305
2,744196,-1425,506,-572,-167,-221,-86,95,41,-305
2,744207,-1428,508,-573,-168,-217,-89,95,41,-305
2,744222,-1428,508,-573,-168,-217,-89,95,41,-305
2,744233,-1427,507,-576,-170,-225,-81,95,41,-305
2,744245,-1427,507,-576,-170,-225,-81,95,41,-305
2,744258,-1427,507,-572,-173,-228,-78,92,44,-306
2,744272,-1425,506,-571,-167,-225,-82,92,44,-306
2,744284,-1425,506,-571,-167,-225,-82,92,44,-306
2,744296,-1429,509,-574,-168,-220,-83,92,44,-306
2,744304,-1429,509,-574,-168,-220,-83,92,44,-306
2,744312,-1426,512,-575,-167,-227,-82,92,44,-306
2,744322,-1426,512,-575,-167,-227,-82,92,44,-306
2,744336,-1428,506,-574,-165,-227,-85,92,44,-306
2,744349,-1427,504,-577,-165,-226,-85,92,44,-306
2,744364,-1427,504,-577,-165,-226,-85,92,44,-306
2,744376,-1429,508,-576,-166,-224,-81,98,38,-298
2,744389,-1425,507,-575,-172,-226,-83,98,38,-298
2,744398,-1425,507,-575,-172,-226,-83,98,38,-298
2,744409,-1426,506,-579,-167,-228,-84,98,38,-298
2,744423,-1426,506,-579,-167,-228,-84,98,38,-298
2,744433,-1425,503,-580,-171,-223,-85,98,38,-298
2,744446,-1424,508,-574,-171,-219,-83,98,38,-298
2,744462,-1424,508,-574,-171,-219,-83,98,38,-298
2,744475,-1426,505,-579,-166,-222,-89,98,38,-298
2,744489,-1426,506,-573,-173,-229,-90,93,39,-307
2,744505,-1426,506,-573,-173,-229,-90,93,39,-307
2,744519,-1427,506,-576,-170,-223,-81,93,39,-307
2,744530,-1425,505,-574,-168,-226,-87,93,39,-307
2,744538,-1425,505,-574,-168,-226,-87,93,39,-307
2,744552,-1427,507,-577,-164,-220,-83,93,39,-307
2,744563,-1427,507,-577,-164,-220,-83,93,39,-307
2,744577,-1426,506,-578,-164,-222,-80,93,39,-307
2,744591,-1428,510,-577,-167,-230,-85,93,39,-307
2,744605,-1428,510,-577,-167,-230,-85,93,39,-307
2,744620,-1426,505,-578,-164,-237,-88,93,39,-307
2,744635,-1429,506,-572,-166,-228,-86,99,35,-305
2,744649,-1425,503,-575,-157,-231,-91,99,35,-305
2,744660,-1425,503,-575,-157,-231,-91,99,35,-305
2,744676,-1427,504,-581,-170,-217,-85,99,35,-305
2,744687,-1425,507,-577,-173,-225,-82,99,35,-305
2,744701,-1425,507,-577,-173,-225,-82,99,35,-305
2,744716,-1427,507,-576,-169,-227,-85,99,35,-305
2,744729,-1428,506,-574,-172,-223,-82,99,35,-305
2,744743,-1428,506,-574,-172,-223,-82,99,35,-305
2,744757,-1426,507,-569,-167,-217,-78,88,40,-306
2,744771,-1424,506,-565,-169,-226,-80,88,40,-306
2,744783,-1424,506,-565,-169,-226,-80,88,40,-306
2,744798,-1427,511,-578,-162,-225,-80,88,40,-306
2,744812,-1426,508,-580,-167,-220,-89,88,40,-306
2,744826,-1426,508,-580,-167,-220,-89,88,40,-306
2,744840,-1428,503,-574,-167,-224,-88,88,40,-306
2,744854,-1425,508,-575,-161,-221,-90,88,40,-306
2,744869,-1429,508,-569,-163,-220,-91,102,36,-308
2,744884,-1429,508,-569,-163,-220,-91,102,36,-308
2,744898,-1427,506,-569,-173,-219,-78,102,36,-308
2,744911,-1425,506,-575,-175,-225,-78,102,36,-308
2,744927,-1427,504,-581,-167,-234,-82,102,36,-308
2,744942,-1427,504,-581,-167,-234,-82,102,36,-308
2,744956,-1422,507,-577,-167,-225,-83,102,36,-308
2,744970,-1425,508,-572,-169,-225,-91,102,36,-308
2,744982,-1425,508,-572,-169,-225,-91,102,36,-308
2,744996,-1427,506,-576,-165,-230,-89,95,37,-309
2,745010,-1427,509,-577,-165,-222,-87,95,37,-309
2,745023,-1427,509,-577,-165,-222,-87,95,37,-309
2,745036,-1430,505,-575,-165,-223,-86,95,37,-309
2,745051,-1425,506,-578,-167,-221,-83,95,37,-309
2,745064,-1425,506,-578,-167,-221,-83,95,37,-309
2,745078,-1426,509,-574,-165,-216,-88,95,37,-309
2,745092,-1426,509,-577,-167,-224,-84,95,37,-309
2,745105,-1426,509,-577,-167,-224,-84,95,37,-309
2,745120,-1431,507,-577,-171,-226,-78,96,42,-310
2,745136,-1423,509,-573,-161,-225,-90,96,42,-310
2,745151,-1427,510,-574,-162,-222,-83,96,42,-310
2,745166,-1427,510,-574,-162,-222,-83,96,42,-310
2,745180,-1426,507,-572,-162,-225,-82,96,42,-310
2,745194,-1428,510,-575,-172,-229,-76,96,42,-310
2,745208,-1426,507,-574,-168,-222,-81,96,42,-310
2,745224,-1426,507,-574,-168,-222,-81,96,42,-310
2,745233,-1429,506,-577,-168,-221,-87,96,42,-310
2,745247,-1427,506,-570,-168,-228,-82,99,43,-303
2,745262,-1427,506,-570,-168,-228,-82,99,43,-303
2,745274,-1424,506,-575,-167,-225,-79,99,43,-303
2,745288,-1427,505,-578,-167,-224,-76,99,43,-303
2,745299,-1427,505,-578,-167,-224,-76,99,43,-303
2,745314,-1429,506,-578,-170,-222,-79,99,43,-303
2,745324,-1429,506,-578,-170,-222,-79,99,43,-303
2,745338,-1426,506,-581,-163,-224,-77,99,43,-303
2,745354,-1428,506,-577,-170,-224,-82,99,43,-303
2,745368,-1427,509,-568,-170,-226,-85,91,33,-299
2,745383,-1427,509,-568,-170,-226,-85,91,33,-299
2,745397,-1426,507,-574,-171,-217,-80,91,33,-299
2,745411,-1424,508,-572,-169,-223,-82,91,33,-299
2,745425,-1424,508,-572,-169,-223,-82,91,33,-299
2,745440,-1427,508,-577,-173,-224,-86,91,33,-299
2,745454,-1426,508,-572,-164,-226,-83,91,33,-299
2,745470,-1427,507,-576,-164,-223,-83,91,33,-299
2,745485,-1427,507,-576,-164,-223,-83,91,33,-299
2,745498,-1429,505,-570,-160,-227,-88,97,37,-305
2,745511,-1426,509,-568,-168,-232,-78,97,37,-305
2,745526,-1426,509,-568,-168,-232,-78,97,37,-305
2,745539,-1425,507,-577,-166,-222,-81,97,37,-305
2,745551,-1426,505,-574,-169,-231,-84,97,37,-305
2,745565,-1426,505,-574,-169,-231,-84,97,37,-305
2,745579,-1425,507,-577,-163,-224,-90,97,37,-305
2,745595,-1426,507,-576,-165,-224,-82,97,37,-305
2,745611,-1423,506,-576,-169,-223,-84,90,40,-304
2,745624,-1423,506,-576,-169,-223,-84,90,40,-304
2,745635,-1427,509,-569,-170,-224,-89,90,40,-304
2,745649,-1423,510,-578,-168,-226,-90,90,40,-304
2,745663,-1423,510,-578,-168,-226,-90,90,40,-304
2,745676,-1426,509,-577,-173,-223,-82,90,40,-304
2,745690,-1425,509,-573,-167,-229,-72,90,40,-304
2,745700,-1425,509,-573,-167,-229,-72,90,40,-304
2,745714,-1428,505,-576,-170,-230,-78,90,40,-304
2,745729,-1425,506,-570,-167,-219,-77,91,33,-299
2,745740,-1425,506,-570,-167,-219,-77,91,33,-299
2,745754,-1427,507,-573,-169,-222,-80,91,33,-299
2,745766,-1427,507,-573,-169,-222,-80,91,33,-299
2,745781,-1426,507,-576,-172,-222,-81,91,33,-299
2,745796,-1426,507,-574,-171,-227,-79,91,33,-299
2,745811,-1427,506,-576,-165,-224,-91,91,33,-299
2,745825,-1427,506,-576,-165,-224,-91,91,33,-299
2,745837,-1427,504,-578,-161,-222,-83,91,33,-299
2,745850,-1427,509,-578,-166,-222,-81,91,33,-299
2,745864,-1427,509,-578,-166,-222,-81,91,33,-299
2,745877,-1426,508,-576,-152,-219,-83,91,33,-299
2,745892,-1425,506,-576,-169,-225,-88,91,33,-299
2,745907,-1425,506,-576,-169,-225,-88,91,33,-299
2,745920,-1427,506,-575,-172,-223,-81,91,33,-299
2,745933,-1426,506,-580,-160,-230,-83,91,33,-299
2,745947,-1426,506,-580,-160,-230,-83,91,33,-299
2,745960,-1425,505,-579,-163,-223,-84,91,33,-299
2,745974,-1427,505,-575,-170,-215,-84,91,33,-299
2,745990,-1428,506,-571,-164,-234,-85,95,31,-311
2,746003,-1428,506,-571,-164,-234,-85,95,31,-311
2,746013,-1426,506,-573,-161,-232,-80,95,31,-311
2,746021,-1426,506,-573,-161,-232,-80,95,31,-311
2,746035,-1425,511,-574,-166,-224,-75,95,31,-311
2,746049,-1427,506,-569,-167,-220,-82,95,31,-311
2,746063,-1427,506,-569,-167,-220,-82,95,31,-311
2,746077,-1427,503,-573,-162,-217,-87,95,31,-311
2,746089,-1426,506,-577,-166,-218,-88,95,31,-311
2,746102,-1426,506,-577,-166,-218,-88,95,31,-311
2,746116,-1428,506,-571,-163,-223,-84,95,39,-307
2,746130,-1429,505,-578,-167,-228,-77,95,39,-307
2,746143,-1429,505,-578,-167,-228,-77,95,39,-307
2,746157,-1425,510,-575,-157,-219,-78,95,39,-307
2,746169,-1426,506,-577,-163,-227,-92,95,39,-307
2,746184,-1426,506,-577,-163,-227,-92,95,39,-307
2,746199,-1428,509,-576,-164,-220,-94,95,39,-307
2,746217,-1430,505,-575,-167,-225,-81,95,39,-307
2,746232,-1427,507,-571,-165,-228,-78,93,41,-299
2,746248,-1426,508,-574,-170,-220,-78,93,41,-299
2,746262,-1426,508,-574,-170,-220,-78,93,41,-299
2,746274,-1427,509,-578,-173,-227,-75,93,41,-299
2,746290,-1430,508,-582,-166,-218,-82,93,41,-299
2,746305,-1430,508,-582,-166,-218,-82,93,41,-299
2,746319,-1427,507,-574,-165,-218,-88,93,41,-299
2,746333,-1426,508,-578,-169,-218,-81,93,41,-299
2,746347,-1426,508,-578,-169,-218,-81,93,41,-299
2,746362,-1427,506,-573,-162,-222,-86,93,35,-301
2,746375,-1424,507,-570,-161,-223,-83,93,35,-301
2,746389,-1425,508,-574,-167,-226,-88,93,35,-301
2,746402,-1425,508,-574,-167,-226,-88,93,35,-301
2,746417,-1426,506,-573,-164,-219,-86,93,35,-301
2,746428,-1429,508,-578,-166,-221,-83,93,35,-301
2,746444,-1429,508,-578,-166,-221,-83,93,35,-301
2,746460,-1424,506,-575,-165,-226,-88,93,35,-301
2,746473,-1426,505,-573,-170,-226,-90,91,45,-307
2,746487,-1426,505,-573,-170,-226,-90,91,45,-307
2,746503,-1426,509,-570,-162,-228,-85,91,45,-307
2,746517,-1426,508,-569,-168,-228,-87,91,45,-307
2,746533,-1423,506,-576,-171,-218,-86,91,45,-307
2,746547,-1423,506,-576,-171,-218,-86,91,45,-307
2,746558,-1426,508,-575,-169,-226,-84,91,45,-307
2,746572,-1427,508,-582,-165,-219,-90,91,45,-307
2,746587,-1427,508,-582,-165,-219,-90,91,45,-307
2,746600,-1428,506,-577,-171,-220,-89,91,45,-307
2,746614,-1427,508,-571,-171,-221,-94,96,34,-310
2,746629,-1428,508,-577,-167,-218,-80,96,34,-310
2,746644,-1428,508,-577,-167,-218,-80,96,34,-310
2,746657,-1427,512,-575,-170,-229,-83,96,34,-310
2,746671,-1426,507,-578,-162,-226,-84,96,34,-310
2,746685,-1426,507,-578,-162,-226,-84,96,34,-310
2,746696,-1427,505,-580,-164,-229,-80,96,34,-310
2,746710,-1429,503,-572,-169,-225,-79,96,34,-310
2,746721,-1429,503,-572,-169,-225,-79,96,34,-310
2,746736,-1427,505,-571,-171,-218,-78,91,29,-307
2,746748,-1429,508,-576,-163,-224,-85,91,29,-307
2,746763,-1429,508,-576,-163,-224,-85,91,29,-307
2,746778,-1426,508,-578,-164,-230,-87,91,29,-307
2,746792,-1426,508,-578,-164,-230,-87,91,29,-307
2,746808,-1426,508,-578,-164,-230,-87,91,29,-307
2,746822,-1427,504,-578,-162,-225,-83,91,29,-307
2,746835,-1426,504,-576,-163,-225,-89,91,29,-307
2,746851,-1426,507,-569,-165,-228,-86,94,40,-310
2,746865,-1426,507,-569,-165,-228,-86,94,40,-310
2,746876,-1427,506,-573,-166,-220,-82,94,40,-310
2,746894,-1427,507,-579,-167,-222,-85,94,40,-310
2,746906,-1427,507,-579,-167,-222,-85,94,40,-310
2,746919,-1428,507,-575,-166,-221,-78,94,40,-310
2,746934,-1424,509,-578,-172,-231,-89,94,40,-310
2,746947,-1424,509,-578,-172,-231,-89,94,40,-310
2,746955,-1426,505,-578,-175,-229,-87,94,40,-310
2,746970,-1429,506,-573,-170,-223,-90,98,36,-308
2,746983,-1429,506,-573,-170,-223,-90,98,36,-308
2,746997,-1428,504,-574,-169,-227,-87,98,36,-308
2,747013,-1427,502,-574,-168,-238,-76,98,36,-308
2,747027,-1427,502,-574,-168,-238,-76,98,36,-308
2,747043,-1426,507,-580,-168,-228,-92,98,36,-308
2,747057,-1427,505,-574,-167,-220,-81,98,36,-308
2,747070,-1428,507,-571,-164,-222,-76,98,36,-308
2,747085,-1428,507,-571,-164,-222,-76,98,36,-308
2,747099,-1428,506,-577,-156,-218,-76,95,37,-309
2,747110,-1428,506,-577,-156,-218,-76,95,37,-309
2,747124,-1428,506,-577,-156,-218,-76,95,37,-309
2,747139,-1426,508,-573,-165,-217,-82,95,37,-309
2,747153,-1427,506,-580,-163,-222,-85,95,37,-309
2,747161,-1427,506,-580,-163,-222,-85,95,37,-309
2,747172,-1428,506,-573,-164,-216,-87,95,37,-309
2,747186,-1428,506,-573,-164,-216,-87,95,37,-309
2,747200,-1427,509,-578,-171,-225,-88,95,37,-309
2,747214,-1428,508,-576,-169,-220,-84,95,37,-309
2,747230,-1428,508,-573,-170,-217,-83,100,42,-302
2,747244,-1428,508,-573,-170,-217,-83,100,42,-302
2,747257,-1430,506,-574,-167,-221,-86,100,42,-302
2,747272,-1430,507,-573,-164,-222,-78,100,42,-302
2,747281,-1430,507,-573,-164,-222,-78,100,42,-302
2,747296,-1426,508,-583,-169,-226,-79,100,42,-302
2,747311,-1428,506,-575,-158,-223,-79,100,42,-302
2,747325,-1428,506,-575,-158,-223,-79,100,42,-302
2,747338,-1426,506,-581,-164,-222,-83,100,42,-302
2,747353,-1428,509,-572,-165,-222,-88,102,38,-306
2,747366,-1428,509,-572,-165,-222,-88,102,38,-306
2,747379,-1425,509,-577,-166,-224,-84,102,38,-306
2,747392,-1427,508,-575,-164,-233,-81,102,38,-306
2,747406,-1427,508,-575,-164,-233,-81,102,38,-306
2,747415,-1424,508,-577,-167,-229,-87,102,38,-306
2,747427,-1424,508,-577,-167,-229,-87,102,38,-306
2,747441,-1425,506,-571,-170,-222,-86,102,38,-306
2,747456,-1427,505,-574,-173,-225,-82,102,38,-306
2,747470,-1431,508,-571,-175,-226,-83,97,35,-311
2,747484,-1431,508,-571,-175,-226,-83,97,35,-311
2,747498,-1427,508,-573,-168,-229,-87,97,35,-311
2,747513,-1425,509,-573,-163,-222,-80,97,35,-311
2,747529,-1425,509,-573,-163,-222,-80,97,35,-311
2,747542,-1428,508,-572,-167,-221,-83,97,35,-311
2,747556,-1427,507,-578,-166,-225,-88,97,35,-311
2,747571,-1430,510,-578,-166,-226,-93,97,35,-311
2,747584,-1430,510,-578,-166,-226,-93,97,35,-311
2,747595,-1426,508,-572,-169,-221,-84,89,45,-301
2,747610,-1426,509,-571,-173,-228,-79,89,45,-301
2,747623,-1426,509,-571,-173,-228,-79,89,45,-301
2,747637,-1430,507,-574,-170,-230,-87,89,45,-301
2,747652,-1425,507,-576,-162,-227,-88,89,45,-301
2,747663,-1425,507,-576,-162,-227,-88,89,45,-301
2,747676,-1426,504,-573,-170,-228,-88,89,45,-301
2,747689,-1426,506,-580,-171,-230,-83,89,45,-301
2,747705,-1426,506,-580,-171,-230,-83,89,45,-301
2,747719,-1426,506,-572,-161,-227,-84,97,39,-309
2,747735,-1427,508,-573,-166,-226,-81,97,39,-309
2,747750,-1425,509,-576,-163,-223,-86,97,39,-309
2,747764,-1425,509,-576,-163,-223,-86,97,39,-309
2,747780,-1421,509,-574,-167,-220,-89,97,39,-309
2,747794,-1428,506,-576,-169,-221,-84,97,39,-309
2,747807,-1428,506,-576,-169,-221,-84,97,39,-309
2,747822,-1427,509,-574,-169,-218,-87,97,39,-309
2,747836,-1426,504,-575,-170,-228,-85,97,39,-309
2,747850,-1427,507,-571,-174,-228,-83,96,36,-304
2,747865,-1427,507,-571,-174,-228,-83,96,36,-304
2,747877,-1425,509,-572,-168,-226,-82,96,36,-304
2,747891,-1426,508,-574,-163,-222,-83,96,36,-304
2,747905,-1426,508,-574,-163,-222,-83,96,36,-304
2,747919,-1427,509,-572,-163,-228,-82,96,36,-304
2,747934,-1429,509,-576,-166,-225,-81,96,36,-304
2,747947,-1429,509,-576,-166,-225,-81,96,36,-304
2,747960,-1425,506,-573,-162,-233,-84,96,36,-304
2,747975,-1425,510,-569,-162,-221,-81,98,32,-306
2,747991,-1427,509,-572,-167,-227,-80,98,32,-306
2,748006,-1427,509,-572,-167,-227,-80,98,32,-306
2,748018,-1427,507,-576,-169,-219,-84,98,32,-306
2,748032,-1425,505,-576,-166,-216,-81,98,32,-306
2,748045,-1425,505,-576,-166,-216,-81,98,32,-306
2,748058,-1427,507,-576,-168,-228,-89,98,32,-306
2,748071,-1424,505,-573,-171,-223,-91,98,32,-306
2,748086,-1424,505,-573,-171,-223,-91,98,32,-306
2,748100,-1423,507,-573,-166,-218,-87,101,37,-303
2,748111,-1425,508,-576,-167,-235,-81,101,37,-303
2,748125,-1425,508,-576,-167,-235,-81,101,37,-303
2,748139,-1430,508,-579,-172,-234,-78,101,37,-303
2,748153,-1425,508,-576,-163,-231,-87,101,37,-303
2,748168,-1425,508,-576,-163,-231,-87,101,37,-303
2,748182,-1428,504,-578,-160,-226,-84,101,37,-303
2,748195,-1426,507,-573,-167,-223,-80,101,37,-303
2,748211,-1429,509,-571,-168,-218,-88,99,39,-299
2,748226,-1429,509,-571,-168,-218,-88,99,39,-299
2,748240,-1427,508,-570,-167,-224,-87,99,39,-299
2,748254,-1426,508,-580,-172,-222,-81,99,39,-299
2,748265,-1426,508,-580,-172,-222,-81,99,39,-299
2,748279,-1429,505,-571,-162,-230,-89,99,39,-299
2,748294,-1427,507,-576,-164,-222,-89,99,39,-299
2,748307,-1427,507,-576,-164,-222,-89,99,39,-299
2,748320,-1425,506,-577,-164,-228,-86,99,39,-299
2,748335,-1426,509,-576,-167,-225,-83,96,36,-302
2,748346,-1426,509,-576,-167,-225,-83,96,36,-302
2,748360,-1424,507,-573,-159,-217,-79,96,36,-302
2,748375,-1425,506,-576,-164,-228,-86,96,36,-302
2,748388,-1425,506,-576,-164,-228,-86,96,36,-302
2,748399,-1427,508,-573,-170,-223,-85,96,36,-302
2,748408,-1427,508,-573,-170,-223,-85,96,36,-302
2,748417,-1426,506,-575,-167,-229,-85,96,36,-302
2,748431,-1426,506,-574,-170,-229,-86,96,36,-302
2,748445,-1426,506,-574,-170,-229,-86,96,36,-302
2,748460,-1424,506,-571,-165,-224,-84,96,36,-302
2,748473,-1425,506,-575,-166,-223,-87,94,38,-304
2,748486,-1425,506,-575,-166,-223,-87,94,38,-304
2,748499,-1425,506,-576,-165,-215,-90,94,38,-304
2,748513,-1425,505,-581,-166,-219,-81,94,38,-304
2,748526,-1425,505,-581,-166,-219,-81,94,38,-304
2,748540,-1425,507,-578,-168,-231,-82,94,38,-304
2,748555,-1426,506,-575,-168,-229,-81,94,38,-304
2,748568,-1426,506,-575,-168,-229,-81,94,38,-304
2,748581,-1427,508,-575,-170,-233,-81,94,38,-304
2,748597,-1425,505,-570,-159,-227,-81,97,33,-307
2,748610,-1428,505,-573,-165,-224,-76,97,33,-307
2,748624,-1428,505,-573,-165,-224,-76,97,33,-307
2,748641,-1425,507,-575,-167,-226,-84,97,33,-307
2,748655,-1427,508,-578,-170,-221,-82,97,33,-307
2,748672,-1427,507,-571,-166,-217,-83,97,33,-307
2,748688,-1427,507,-571,-166,-217,-83,97,33,-307
2,748702,-1424,508,-578,-164,-225,-87,97,33,-307
2,748718,-1431,507,-576,-170,-220,-92,95,43,-311
2,748731,-1426,505,-572,-169,-220,-79,95,43,-311
2,748745,-1426,505,-572,-169,-220,-79,95,43,-311
2,748759,-1424,506,-570,-170,-230,-83,95,43,-311
2,748773,-1425,507,-573,-171,-228,-89,95,43,-311
2,748785,-1425,507,-573,-171,-228,-89,95,43,-311
2,748795,-1426,507,-577,-164,-225,-82,95,43,-311
2,748809,-1426,507,-577,-164,-225,-82,95,43,-311
2,748822,-1429,506,-572,-163,-225,-83,95,43,-311
2,748833,-1425,509,-571,-168,-220,-75,85,39,-303
2,748848,-1425,509,-571,-168,-220,-75,85,39,-303
2,748862,-1425,508,-571,-172,-220,-83,85,39,-303
2,748873,-1423,507,-577,-167,-220,-85,85,39,-303
2,748890,-1423,507,-577,-167,-220,-85,85,39,-303
2,748905,-1426,509,-578,-174,-223,-79,85,39,-303
2,748920,-1426,508,-575,-170,-221,-88,85,39,-303
2,748935,-1428,507,-578,-160,-223,-81,85,39,-303
2,748948,-1428,507,-578,-160,-223,-81,85,39,-303
2,748962,-1429,509,-576,-163,-231,-81,94,38,-306
2,748974,-1426,507,-571,-170,-226,-88,94,38,-306
2,748985,-1426,507,-571,-170,-226,-88,94,38,-306
2,749000,-1427,504,-575,-165,-224,-83,94,38,-306
2,749014,-1426,508,-575,-169,-228,-86,94,38,-306
2,749028,-1426,508,-575,-169,-228,-86,94,38,-306
2,749041,-1427,505,-579,-172,-227,-80,94,38,-306
2,749056,-1427,507,-571,-166,-226,-77,94,38,-306
2,749068,-1427,507,-571,-166,-226,-77,94,38,-306
2,749082,-1425,505,-575,-166,-225,-82,94,38,-306
2,749096,-1425,508,-571,-161,-228,-84,97,41,-303
2,749112,-1426,507,-575,-167,-220,-85,97,41,-303
2,749125,-1426,507,-575,-167,-220,-85,97,41,-303
2,749138,-1427,509,-578,-171,-227,-88,97,41,-303
2,749154,-1427,508,-577,-167,-235,-86,97,41,-303
2,749167,-1427,508,-577,-167,-235,-86,97,41,-303
2,749179,-1423,508,-576,-172,-225,-83,97,41,-303
2,749192,-1427,504,-577,-168,-225,-85,97,41,-303
2,749203,-1427,504,-577,-168,-225,-85,97,41,-303
2,749217,-1428,507,-574,-169,-223,-86,91,39,-309
2,749231,-1428,505,-578,-172,-221,-82,91,39,-309
2,749244,-1428,505,-578,-172,-221,-82,91,39,-309
2,749258,-1426,508,-584,-170,-228,-82,91,39,-309
2,749270,-1426,508,-584,-170,-228,-82,91,39,-309
2,749284,-1426,505,-580,-168,-228,-88,91,39,-309
2,749299,-1424,504,-580,-164,-223,-84,91,39,-309
2,749315,-1426,506,-575,-160,-218,-86,91,39,-309
2,749328,-1426,506,-575,-160,-218,-86,91,39,-309
2,749341,-1425,506,-569,-166,-221,-84,92,40,-308
2,749357,-1428,506,-572,-168,-224,-89,92,40,-308
2,749372,-1430,509,-572,-164,-223,-83,92,40,-308
2,749385,-1430,509,-572,-164,-223,-83,92,40,-308
2,749399,-1426,508,-578,-164,-228,-83,92,40,-308
2,749413,-1426,506,-578,-166,-228,-81,92,40,-308
2,749424,-1426,506,-578,-166,-228,-81,92,40,-308
2,749437,-1426,508,-576,-175,-231,-84,92,40,-308
2,749451,-1426,507,-571,-170,-229,-86,92,40,-308
2,749464,-1426,507,-571,-170,-229,-86,95,39,-301
2,749478,-1428,504,-575,-169,-223,-86,95,39,-301
2,749493,-1427,507,-576,-175,-220,-78,95,39,-301
2,749505,-1427,507,-576,-175,-220,-78,95,39,-301
2,749518,-1426,508,-573,-172,-223,-83,95,39,-301
2,749534,-1425,506,-574,-162,-219,-82,95,39,-301
2,749550,-1425,506,-574,-162,-219,-82,95,39,-301
2,749565,-1425,503,-576,-167,-225,-83,95,39,-301
2,749577,-1424,506,-577,-167,-218,-89,91,45,-309
2,749592,-1426,509,-571,-169,-219,-85,91,45,-309
2,749607,-1426,509,-571,-169,-219,-85,91,45,-309
2,749623,-1427,507,-573,-168,-217,-78,91,45,-309
2,749637,-1426,508,-576,-163,-221,-83,91,45,-309
2,749650,-1426,508,-576,-163,-221,-83,91,45,-309
2,749664,-1426,506,-570,-168,-217,-93,91,45,-309
2,749678,-1424,508,-572,-169,-223,-86,91,45,-309
2,749690,-1424,508,-572,-169,-223,-86,91,45,-309
2,749704,-1427,509,-581,-177,-223,-83,91,45,-309
2,749717,-1424,509,-570,-170,-217,-83,93,37,-303
2,749731,-1426,507,-577,-168,-223,-83,93,37,-303
2,749745,-1426,507,-577,-168,-223,-83,93,37,-303
2,749756,-1427,506,-575,-163,-221,-86,93,37,-303
2,749769,-1427,506,-575,-163,-221,-86,93,37,-303
2,749784,-1426,506,-572,-163,-221,-85,93,37,-303
2,749798,-1426,506,-577,-171,-228,-80,93,37,-303
2,749811,-1427,509,-576,-173,-221,-81,93,37,-303
2,749819,-1427,509,-576,-173,-221,-81,93,37,-303
2,749828,-1427,509,-576,-173,-221,-81,93,37,-303
2,749835,-1425,508,-568,-169,-220,-85,94,46,-304
2,749843,-1425,508,-568,-169,-220,-85,94,46,-304
2,749851,-1424,508,-574,-168,-222,-87,94,46,-304
2,749859,-1424,508,-574,-168,-222,-87,94,46,-304
2,749867,-1424,508,-574,-168,-222,-87,94,46,-304
2,749875,-1426,507,-578,-174,-222,-82,94,46,-304
2,749883,-1426,507,-578,-174,-222,-82,94,46,-304
2,749891,-1426,507,-578,-174,-222,-82,94,46,-304
2,749899,-1423,507,-577,-170,-224,-84,94,46,-304
2,749907,-1423,507,-577,-170,-224,-84,94,46,-304
2,749916,-1429,508,-575,-170,-218,-85,94,46,-304
2,749924,-1429,508,-575,-170,-218,-85,94,46,-304
2,749931,-1425,506,-573,-172,-228,-89,94,46,-304
2,749940,-1425,506,-573,-172,-228,-89,94,46,-304
2,749947,-1425,506,-573,-172,-228,-89,94,46,-304
2,749956,-1424,506,-574,-168,-227,-82,88,40,-304
2,749964,-1424,506,-574,-168,-227,-82,88,40,-304
2,749972,-1429,507,-578,-165,-226,-78,88,40,-304
2,749979,-1429,507,-578,-165,-226,-78,88,40,-304
2,749987,-1429,507,-578,-165,-226,-78,88,40,-304
2,749995,-1430,507,-574,-172,-226,-85,88,40,-304
2,750003,-1430,507,-574,-172,-226,-85,88,40,-304
2,750010,-1430,507,-574,-172,-226,-85,88,40,-304
2,750018,-1427,508,-572,-165,-224,-80,88,40,-304
2,750026,-1427,508,-572,-165,-224,-80,88,40,-304
2,750033,-1426,506,-578,-163,-220,-76,88,40,-304
2,750042,-1426,506,-578,-163,-220,-76,88,40,-304
2,750049,-1426,506,-578,-163,-220,-76,88,40,-304
2,750057,-1427,507,-572,-159,-223,-77,88,40,-304
2,750065,-1427,507,-572,-159,-223,-77,88,40,-304
2,750073,-1426,508,-572,-171,-232,-84,94,42,-306
2,750081,-1426,508,-572,-171,-232,-84,94,42,-306
2,750090,-1426,508,-572,-171,-232,-84,94,42,-306
2,750098,-1427,503,-575,-166,-231,-80,94,42,-306
2,750106,-1427,503,-575,-166,-231,-80,94,42,-306
2,750114,-1429,507,-577,-169,-228,-86,94,42,-306
2,750123,-1429,507,-577,-169,-228,-86,94,42,-306
2,750131,-1429,507,-577,-169,-228,-86,94,42,-306
2,750139,-1427,506,-576,-164,-224,-87,94,42,-306
2,750146,-1427,506,-576,-164,-224,-87,94,42,-306
2,750154,-1426,506,-574,-165,-224,-75,94,42,-306
2,750161,-1426,506,-574,-165,-224,-75,94,42,-306
2,750170,-1426,506,-574,-165,-224,-75,94,42,-306
2,750178,-1428,505,-580,-172,-228,-83,94,42,-306
2,750185,-1428,505,-580,-172,-228,-83,94,42,-306
2,750193,-1428,505,-573,-172,-224,-79,90,44,-308
2,750202,-1428,505,-573,-172,-224,-79,90,44,-308
2,750210,-1428,505,-573,-172,-224,-79,90,44,-308
2,750218,-1426,507,-572,-174,-220,-79,90,44,-308
2,750226,-1426,507,-572,-174,-220,-79,90,44,-308
2,750233,-1428,506,-575,-159,-221,-81,90,44,-308
2,750241,-1428,506,-575,-159,-221,-81,90,44,-308
2,750249,-1428,506,-575,-159,-221,-81,90,44,-308
2,750258,-1427,508,-576,-163,-225,-83,90,44,-308
2,750266,-1427,508,-576,-163,-225,-83,90,44,-308
2,750274,-1427,506,-580,-170,-229,-81,90,44,-308
2,750282,-1427,506,-580,-170,-229,-81,90,44,-308
2,750289,-1427,506,-580,-170,-229,-81,90,44,-308
2,750298,-1427,506,-574,-171,-230,-80,90,44,-308
2,750306,-1427,506,-574,-171,-230,-80,90,44,-308
2,750313,-1428,506,-571,-172,-229,-79,90,44,-308
2,750321,-1428,506,-571,-172,-229,-79,90,44,-308
2,750328,-1428,506,-571,-172,-229,-79,90,44,-308
2,750336,-1429,505,-570,-165,-223,-82,90,32,-304
2,750344,-1429,505,-570,-165,-223,-82,90,32,-304
2,750352,-1427,510,-574,-168,-219,-86,90,32,-304
2,750360,-1427,510,-574,-168,-219,-86,90,32,-304
2,750367,-1427,510,-574,-168,-219,-86,90,32,-304
2,750375,-1427,509,-574,-165,-222,-85,90,32,-304
2,750383,-1427,509,-574,-165,-222,-85,90,32,-304
2,750391,-1427,509,-574,-165,-222,-85,90,32,-304
2,750399,-1426,508,-571,-165,-220,-90,90,32,-304
2,750406,-1426,508,-571,-165,-220,-90,90,32,-304
2,750414,-1427,505,-578,-165,-225,-83,90,32,-304
2,750422,-1427,505,-578,-165,-225,-83,90,32,-304
2,750430,-1427,505,-578,-165,-225,-83,90,32,-304
2,750437,-1426,506,-577,-166,-222,-82,90,32,-304
2,750445,-1426,506,-577,-166,-222,-82,90,32,-304
2,750452,-1428,507,-572,-165,-218,-82,101,35,-301
2,750460,-1428,507,-572,-165,-218,-82,101,35,-301
2,750468,-1428,507,-572,-165,-218,-82,101,35,-301
2,750476,-1429,507,-570,-173,-220,-79,101,35,-301
2,750483,-1429,507,-570,-173,-220,-79,101,35,-301
2,750492,-1428,504,-573,-175,-223,-87,101,35,-301
2,750499,-1428,504,-573,-175,-223,-87,101,35,-301
2,750508,-1428,504,-573,-175,-223,-87,101,35,-301
2,750516,-1427,505,-573,-175,-223,-82,101,35,-301
2,750523,-1427,505,-573,-175,-223,-82,101,35,-301
2,750531,-1427,505,-573,-175,-223,-82,101,35,-301
2,750538,-1428,508,-574,-171,-212,-81,101,35,-301
2,750546,-1428,508,-574,-171,-212,-81,101,35,-301
2,750555,-1425,507,-573,-164,-215,-85,101,35,-301
2,750562,-1425,507,-573,-164,-215,-85,101,35,-301
2,750570,-1425,507,-573,-164,-215,-85,101,35,-301
2,750578,-1426,507,-568,-161,-225,-86,96,40,-308
2,750586,-1426,507,-568,-161,-225,-86,96,40,-308
2,750594,-1428,506,-575,-164,-227,-85,96,40,-308
2,750602,-1428,506,-575,-164,-227,-85,96,40,-308
2,750610,-1428,506,-575,-164,-227,-85,96,40,-308
2,750617,-1426,508,-577,-169,-227,-86,96,40,-308
2,750626,-1426,508,-577,-169,-227,-86,96,40,-308
2,750633,-1429,506,-575,-166,-225,-75,96,40,-308
2,750642,-1429,506,-575,-166,-225,-75,96,40,-308
2,750649,-1429,506,-575,-166,-225,-75,96,40,-308
2,750656,-1429,507,-574,-167,-223,-82,96,40,-308
2,750664,-1429,507,-574,-167,-223,-82,96,40,-308
2,750672,-1425,506,-578,-172,-224,-82,96,40,-308
2,750681,-1425,506,-578,-172,-224,-82,96,40,-308
2,750688,-1425,506,-578,-172,-224,-82,96,40,-308
2,750696,-1427,508,-572,-170,-217,-88,93,47,-309
2,750704,-1427,508,-572,-170,-217,-88,93,47,-309
2,750712,-1427,508,-573,-168,-226,-85,93,47,-309
2,750721,-1427,508,-573,-168,-226,-85,93,47,-309
2,750728,-1427,508,-573,-168,-226,-85,93,47,-309
2,750736,-1431,500,-572,-163,-232,-84,93,47,-309
2,750746,-1431,500,-572,-163,-232,-84,93,47,-309
2,750753,-1428,510,-575,-161,-218,-84,93,47,-309
2,750763,-1428,510,-575,-161,-218,-84,93,47,-309
2,750770,-1428,510,-575,-161,-218,-84,93,47,-309
2,750779,-1429,506,-577,-162,-219,-85,93,47,-309
2,750786,-1429,506,-577,-162,-219,-85,93,47,-309
2,750794,-1427,503,-580,-166,-226,-81,93,47,-309
2,750801,-1427,503,-580,-166,-226,-81,93,47,-309
2,750811,-1427,503,-580,-166,-226,-81,93,47,-309
2,750818,-1423,507,-572,-165,-220,-85,95,43,-303
2,750826,-1423,507,-572,-165,-220,-85,95,43,-303
2,750834,-1427,509,-571,-163,-226,-81,95,43,-303
2,750840,-1427,509,-571,-163,-226,-81,95,43,-303
2,750846,-1427,509,-571,-163,-226,-81,95,43,-303
2,750853,-1429,505,-575,-171,-225,-87,95,43,-303
2,750859,-1429,505,-575,-171,-225,-87,95,43,-303
2,750864,-1429,505,-575,-171,-225,-87,95,43,-303
2,750871,-1429,505,-575,-171,-225,-87,95,43,-303
2,750877,-1426,505,-578,-167,-219,-88,95,43,-303
2,750883,-1426,505,-578,-167,-219,-88,95,43,-303
2,750889,-1426,505,-578,-167,-219,-88,95,43,-303
2,750896,-1427,508,-574,-173,-219,-86,95,43,-303
2,750903,-1427,508,-574,-173,-219,-86,95,43,-303
2,750908,-1427,508,-574,-173,-219,-86,95,43,-303
2,750914,-1429,509,-577,-174,-230,-83,95,43,-303
2,750920,-1429,509,-577,-174,-230,-83,95,43,-303
2,750927,-1429,509,-577,-174,-230,-83,95,43,-303
2,750934,-1425,510,-574,-171,-227,-86,95,43,-303
2,750940,-1425,510,-574,-171,-227,-86,95,43,-303
2,750946,-1425,510,-574,-171,-227,-86,95,43,-303
2,750952,-1424,507,-571,-172,-218,-87,95,43,-303
2,750958,-1424,507,-571,-172,-218,-87,93,33,-303
2,750964,-1424,507,-571,-172,-218,-87,93,33,-303
2,750970,-1424,507,-571,-172,-218,-87,93,33,-303
2,750977,-1426,507,-578,-172,-224,-89,93,33,-303
2,750983,-1426,507,-578,-172,-224,-89,93,33,-303
2,750989,-1426,507,-578,-172,-224,-89,93,33,-303
2,750995,-1428,505,-576,-170,-228,-83,93,33,-303
2,751001,-1428,505,-576,-170,-228,-83,93,33,-303
2,751008,-1428,505,-576,-170,-228,-83,93,33,-303
2,751015,-1427,508,-572,-169,-227,-82,93,33,-303
2,751023,-1427,508,-572,-169,-227,-82,93,33,-303
2,751030,-1427,508,-572,-169,-227,-82,93,33,-303
2,751037,-1429,510,-578,-168,-236,-89,93,33,-303
2,751044,-1429,510,-578,-168,-236,-89,93,33,-303
2,751051,-1429,510,-578,-168,-236,-89,93,33,-303
2,751058,-1422,504,-577,-172,-232,-91,93,33,-303
2,751067,-1422,504,-577,-172,-232,-91,93,33,-303
2,751074,-1425,506,-572,-169,-227,-86,95,35,-303
2,751081,-1425,506,-572,-169,-227,-86,95,35,-303
2,751089,-1425,506,-572,-169,-227,-86,95,35,-303
2,751096,-1426,507,-576,-167,-220,-82,95,35,-303
2,751102,-1426,507,-576,-167,-220,-82,95,35,-303
2,751109,-1426,507,-576,-167,-220,-82,95,35,-303
2,751117,-1427,508,-575,-167,-220,-84,95,35,-303
2,751125,-1427,508,-575,-167,-220,-84,95,35,-303
2,751133,-1427,504,-573,-172,-217,-85,95,35,-303
2,751141,-1427,504,-573,-172,-217,-85,95,35,-303
2,751150,-1427,504,-573,-172,-217,-85,95,35,-303
2,751157,-1426,505,-577,-165,-220,-84,95,35,-303
2,751165,-1426,505,-577,-165,-220,-84,95,35,-303
2,751175,-1428,507,-575,-166,-224,-80,95,35,-303
2,751181,-1428,507,-575,-166,-224,-80,95,35,-303
2,751192,-1428,507,-575,-166,-224,-80,95,35,-303
2,751199,-1427,504,-568,-167,-228,-85,101,41,-305
2,751209,-1427,504,-568,-167,-228,-85,101,41,-305
2,751217,-1429,509,-576,-170,-224,-76,101,41,-305
2,751227,-1429,509,-576,-170,-224,-76,101,41,-305
2,751239,-1426,508,-578,-173,-223,-73,101,41,-305
2,751250,-1426,508,-578,-173,-223,-73,101,41,-305
2,751258,-1426,510,-576,-165,-219,-82,101,41,-305
2,751272,-1427,509,-575,-168,-227,-78,101,41,-305
2,751287,-1427,509,-575,-168,-227,-78,101,41,-305
2,751297,-1426,506,-577,-168,-229,-77,101,41,-305
2,751310,-1426,506,-577,-168,-229,-77,101,41,-305
2,751325,-1426,509,-573,-162,-220,-79,88,48,-304
2,751338,-1427,508,-577,-165,-229,-82,88,48,-304
2,751352,-1427,508,-577,-165,-229,-82,88,48,-304
2,751364,-1425,508,-575,-170,-222,-91,88,48,-304
2,751377,-1427,504,-575,-168,-221,-84,88,48,-304
2,751391,-1427,504,-575,-168,-221,-84,88,48,-304
2,751405,-1427,505,-573,-166,-223,-80,88,48,-304
2,751420,-1427,505,-573,-171,-222,-89,88,48,-304
2,751435,-1427,505,-578,-159,-217,-80,90,44,-308
2,751452,-1427,505,-578,-159,-217,-80,90,44,-308
2,751467,-1427,507,-569,-167,-223,-83,90,44,-308
2,751480,-1428,509,-575,-170,-230,-78,90,44,-308
2,751495,-1427,508,-573,-179,-225,-85,90,44,-308
2,751508,-1427,508,-573,-179,-225,-85,90,44,-308
2,751521,-1424,511,-579,-172,-228,-85,90,44,-308
2,751536,-1427,506,-573,-172,-231,-87,90,44,-308
2,751550,-1427,506,-573,-172,-231,-87,90,44,-308
2,751563,-1427,508,-572,-170,-224,-81,90,44,-308
2,751578,-1424,505,-570,-165,-223,-81,90,44,-308
2,751591,-1424,505,-570,-165,-223,-81,90,44,-308
2,751605,-1428,506,-573,-165,-225,-87,90,44,-308
2,751619,-1427,505,-573,-162,-229,-82,90,44,-308
2,751633,-1426,510,-578,-159,-226,-86,90,44,-308
2,751646,-1426,510,-578,-159,-226,-86,90,44,-308
2,751661,-1426,510,-578,-159,-226,-86,90,44,-308
2,751675,-1427,507,-576,-170,-234,-83,90,44,-308
2,751688,-1427,507,-576,-170,-234,-83,90,44,-308
2,751702,-1425,506,-575,-173,-226,-87,94,34,-304
2,751716,-1427,506,-574,-172,-222,-84,94,34,-304
2,751729,-1427,506,-574,-172,-222,-84,94,34,-304
2,751742,-1427,505,-579,-166,-230,-79,94,34,-304
2,751757,-1426,507,-578,-161,-228,-84,94,34,-304
2,751770,-1426,507,-578,-161,-228,-84,94,34,-304
2,751784,-1426,503,-577,-171,-228,-86,94,34,-304
2,751799,-1429,507,-582,-165,-224,-81,94,34,-304
2,751812,-1429,507,-582,-165,-224,-81,94,34,-304
2,751825,-1427,507,-573,-159,-224,-83,96,34,-296
2,751840,-1429,507,-577,-172,-228,-82,96,34,-296
2,751853,-1430,508,-579,-161,-222,-88,96,34,-296
2,751864,-1430,508,-579,-161,-222,-88,96,34,-296
2,751879,-1429,507,-571,-167,-221,-82,96,34,-296
2,751893,-1431,508,-572,-170,-227,-89,96,34,-296
2,751907,-1431,508,-572,-170,-227,-89,96,34,-296
2,751921,-1431,508,-572,-170,-227,-89,96,34,-296
2,751935,-1427,504,-576,-164,-223,-79,100,40,-304
2,751948,-1427,504,-576,-164,-223,-79,100,40,-304
2,751963,-1426,506,-572,-166,-231,-79,100,40,-304
2,751976,-1428,505,-576,-165,-220,-82,100,40,-304
2,751988,-1428,505,-576,-165,-220,-82,100,40,-304
2,752003,-1429,506,-579,-163,-220,-87,100,40,-304
2,752016,-1425,504,-577,-157,-221,-80,100,40,-304
2,752029,-1425,504,-577,-157,-221,-80,100,40,-304
2,752043,-1427,507,-571,-167,-209,-82,100,40,-304
2,752057,-1425,509,-557,-176,-227,-84,94,40,-308
2,752071,-1425,509,-557,-176,-227,-84,94,40,-308
2,752083,-1427,505,-571,-178,-222,-81,94,40,-308
2,752098,-1422,503,-596,-170,-232,-82,94,40,-308
2,752112,-1422,503,-596,-170,-232,-82,94,40,-308
2,752125,-1425,505,-564,-164,-222,-84,94,40,-308
2,752141,-1428,505,-572,-170,-220,-82,94,40,-308
2,752156,-1426,507,-595,-167,-218,-77,94,40,-308
2,752172,-1426,507,-595,-167,-218,-77,94,40,-308
2,752187,-1428,508,-570,-165,-223,-79,91,41,-303
2,752194,-1429,508,-568,-165,-234,-88,91,41,-303
2,752204,-1429,508,-568,-165,-234,-88,91,41,-303
2,752218,-1427,507,-577,-158,-232,-88,91,41,-303
2,752231,-1427,507,-577,-158,-232,-88,91,41,-303
2,752244,-1425,504,-578,-168,-228,-77,91,41,-303
2,752258,-1425,508,-570,-171,-220,-86,91,41,-303
2,752271,-1425,508,-570,-171,-220,-86,91,41,-303
2,752284,-1428,506,-584,-167,-221,-85,91,41,-303
2,752299,-1426,502,-576,-164,-219,-86,91,41,-303
2,752313,-1426,502,-576,-164,-219,-86,91,41,-303
2,752326,-1427,506,-573,-166,-224,-81,102,38,-302
2,752342,-1427,506,-576,-166,-227,-85,102,38,-302
2,752357,-1423,507,-570,-168,-220,-85,102,38,-302
2,752373,-1423,507,-570,-168,-220,-85,102,38,-302
2,752389,-1427,503,-581,-160,-234,-86,102,38,-302
2,752402,-1428,508,-581,-162,-222,-91,102,38,-302
2,752416,-1425,508,-573,-168,-225,-83,102,38,-302
2,752430,-1425,508,-573,-168,-225,-83,102,38,-302
2,752441,-1427,508,-572,-174,-224,-85,99,33,-301
2,752455,-1426,507,-575,-163,-230,-82,99,33,-301
2,752468,-1426,507,-575,-163,-230,-82,99,33,-301
2,752483,-1426,506,-572,-176,-217,-80,99,33,-301
2,752496,-1427,505,-579,-172,-215,-85,99,33,-301
2,752510,-1427,505,-579,-172,-215,-85,99,33,-301
2,752522,-1425,502,-580,-167,-229,84,99,33,-301
2,752536,-1429,504,-573,-166,-214,131,99,33,-301
2,752550,-1429,504,-573,-166,-214,131,99,33,-301
2,752564,-1429,507,-570,-172,-222,23,91,43,-305
2,752577,-1425,506,-573,-177,-224,-13,91,43,-305
2,752592,-1425,506,-573,-177,-224,-13,91,43,-305
2,752607,-1424,502,-576,-161,-219,5,91,43,-305
2,752620,-1430,502,-578,-151,-220,56,91,43,-305
2,752634,-1430,502,-578,-151,-220,56,91,43,-305
2,752650,-1430,502,-578,-151,-220,56,91,43,-305
2,752664,-1423,500,-575,-141,-222,-27,91,43,-305
2,752677,-1429,503,-573,-162,-227,41,98,40,-310
2,752690,-1429,503,-573,-162,-227,41,98,40,-310
2,752704,-1426,500,-564,-162,-226,-10,98,40,-310
2,752717,-1426,498,-588,-168,-232,-61,98,40,-310
2,752732,-1426,498,-588,-168,-232,-61,98,40,-310
2,752746,-1429,501,-579,-168,-224,-73,98,40,-310
2,752757,-1426,500,-559,-161,-232,-88,98,40,-310
2,752770,-1426,500,-559,-161,-232,-88,98,40,-310
2,752784,-1428,497,-586,-163,-223,-83,98,40,-310
2,752793,-1428,497,-586,-163,-223,-83,98,40,-310
2,752809,-1428,506,-581,-157,-218,-76,97,39,-295
2,752820,-1425,501,-565,-160,-221,-84,97,39,-295
2,752835,-1425,501,-572,-158,-222,-90,97,39,-295
2,752849,-1425,501,-572,-158,-222,-90,97,39,-295
2,752864,-1425,498,-578,-155,-213,-86,97,39,-295
2,752876,-1425,502,-575,-151,-198,-87,97,39,-295
2,752891,-1425,502,-575,-151,-198,-87,97,39,-295
2,752907,-1426,498,-582,-158,-197,-42,97,39,-295
2,752920,-1426,498,-566,-168,-208,-62,97,39,-295
2,752934,-1427,498,-545,-180,-218,-84,96,40,-302
2,752949,-1427,498,-545,-180,-218,-84,96,40,-302
2,752960,-1424,483,-573,-185,-214,-64,96,40,-302
2,752974,-1422,496,-582,-187,-206,-8,96,40,-302
2,752988,-1422,496,-582,-187,-206,-8,96,40,-302
2,753001,-1420,494,-570,-178,-206,62,96,40,-302
2,753015,-1433,506,-572,-171,-212,131,96,40,-302
2,753029,-1433,506,-572,-171,-212,131,96,40,-302
2,753042,-1427,493,-582,-184,-220,35,96,40,-302
2,753055,-1425,499,-561,-183,-228,-38,97,39,-313
2,753071,-1425,499,-561,-183,-228,-38,97,39,-313
2,753085,-1429,511,-538,-176,-212,-64,97,39,-313
2,753100,-1420,488,-590,-155,-217,-29,97,39,-313
2,753114,-1420,488,-590,-155,-217,-29,97,39,-313
2,753127,-1426,495,-580,-156,-229,42,97,39,-313
2,753142,-1427,477,-558,-186,-223,-24,97,39,-313
2,753156,-1430,493,-563,-181,-223,-108,97,39,-313
2,753170,-1430,493,-563,-181,-223,-108,97,39,-313
2,753182,-1427,496,-555,-169,-212,-247,95,39,-305
2,753191,-1427,496,-555,-169,-212,-247,95,39,-305
2,753206,-1429,496,-590,-163,-206,-336,95,39,-305
2,753220,-1427,486,-573,-155,-221,-374,95,39,-305
2,753233,-1427,486,-573,-155,-221,-374,95,39,-305
2,753247,-1423,512,-543,-149,-221,-364,95,39,-305
2,753259,-1424,532,-555,-167,-233,-266,95,39,-305
2,753272,-1424,532,-555,-167,-233,-266,95,39,-305
2,753287,-1423,511,-576,-168,-245,-168,95,39,-305
2,753301,-1421,514,-617,-175,-245,-123,100,32,-300
2,753314,-1426,507,-614,-160,-233,-94,100,32,-300
2,753326,-1426,507,-614,-160,-233,-94,100,32,-300
2,753339,-1428,498,-545,-188,-246,-84,100,32,-300
2,753354,-1427,497,-543,-198,-249,-90,100,32,-300
2,753369,-1427,497,-543,-198,-249,-90,100,32,-300
2,753383,-1428,500,-595,-153,-236,-87,100,32,-300
2,753397,-1428,496,-574,-172,-230,-95,100,32,-300
2,753411,-1428,496,-574,-172,-230,-95,100,32,-300
2,753426,-1427,500,-563,-181,-215,-103,95,43,-295
2,753439,-1430,504,-571,-175,-223,-110,95,43,-295
2,753453,-1430,504,-571,-175,-223,-110,95,43,-295
2,753467,-1427,501,-584,-169,-222,-159,95,43,-295
2,753480,-1426,501,-566,-175,-224,-207,95,43,-295
2,753497,-1424,497,-560,-129,-235,-175,95,43,-295
2,753510,-1424,497,-560,-129,-235,-175,95,43,-295
2,753523,-1426,505,-567,-119,-240,-144,95,43,-295
2,753538,-1428,501,-588,-133,-248,-143,95,43,-295
2,753551,-1428,501,-588,-133,-248,-143,95,43,-295
2,753565,-1428,508,-574,-155,-240,-181,85,43,-289
2,753579,-1430,508,-542,-161,-250,-213,85,43,-289
2,753591,-1430,508,-542,-161,-250,-213,85,43,-289
2,753605,-1425,513,-557,-136,-250,-194,85,43,-289
2,753620,-1425,505,-617,-149,-230,-152,85,43,-289
2,753633,-1425,505,-617,-149,-230,-152,85,43,-289
2,753647,-1426,510,-553,-179,-219,-135,85,43,-289
2,753662,-1426,510,-555,-192,-226,-141,85,43,-289
2,753677,-1424,504,-579,-138,-230,-132,92,36,-292
2,753690,-1424,504,-579,-138,-230,-132,92,36,-292
2,753704,-1427,497,-577,-162,-224,-110,92,36,-292
2,753719,-1426,507,-587,-160,-216,-100,92,36,-292
2,753730,-1426,507,-587,-160,-216,-100,92,36,-292
2,753738,-1423,503,-570,-153,-212,-96,92,36,-292
2,753750,-1423,503,-570,-153,-212,-96,92,36,-292
2,753763,-1426,505,-579,-161,-221,-112,92,36,-292
2,753775,-1424,506,-574,-156,-225,-145,92,36,-292
2,753789,-1424,506,-574,-156,-225,-145,92,36,-292
2,753803,-1427,509,-573,-171,-226,-147,88,44,-296
2,753817,-1424,508,-566,-164,-226,-125,88,44,-296
2,753829,-1424,508,-566,-164,-226,-125,88,44,-296
2,753842,-1426,506,-576,-164,-228,-112,88,44,-296
2,753857,-1426,509,-577,-141,-220,-104,88,44,-296
2,753871,-1426,509,-577,-141,-220,-104,88,44,-296
2,753886,-1426,508,-579,-164,-215,-90,88,44,-296
2,753898,-1425,506,-576,-165,-210,-88,88,44,-296
2,753913,-1425,506,-576,-165,-210,-88,88,44,-296
2,753928,-1428,509,-570,-159,-223,-90,87,41,-289
2,753941,-1427,505,-572,-166,-224,-87,87,41,-289
2,753954,-1427,505,-572,-166,-224,-87,87,41,-289
2,753967,-1427,506,-574,-161,-219,-95,87,41,-289
2,753982,-1429,504,-592,-172,-224,-92,87,41,-289
2,753997,-1425,504,-584,-147,-225,-93,87,41,-289
2,754011,-1425,504,-584,-147,-225,-93,87,41,-289
2,754025,-1427,513,-564,-139,-233,-90,87,41,-289
2,754039,-1427,510,-560,-147,-235,-90,91,35,-299
2,754053,-1427,510,-560,-147,-235,-90,91,35,-299
2,754066,-1425,513,-602,-158,-233,-94,91,35,-299
2,754078,-1429,510,-550,-152,-228,-82,91,35,-299
2,754093,-1429,510,-550,-152,-228,-82,91,35,-299
2,754108,-1425,507,-568,-131,-220,-95,91,35,-299
2,754120,-1425,510,-579,-144,-229,-92,91,35,-299
2,754135,-1425,510,-579,-144,-229,-92,91,35,-299
2,754150,-1425,508,-575,-146,-238,-87,91,35,-299
2,754165,-1427,506,-575,-164,-244,-91,91,35,-299
2,754179,-1427,506,-579,-171,-240,-99,91,35,-297
2,754192,-1427,506,-579,-171,-240,-99,91,35,-297
2,754206,-1428,507,-578,-189,-243,-90,91,35,-297
2,754219,-1426,511,-567,-173,-225,-87,91,35,-297
2,754230,-1426,511,-567,-173,-225,-87,91,35,-297
2,754244,-1427,509,-567,-154,-215,-84,91,35,-297
2,754257,-1426,509,-585,-151,-223,-79,91,35,-297
2,754272,-1426,509,-585,-151,-223,-79,91,35,-297
2,754285,-1428,508,-575,-141,-225,-86,91,35,-297
2,754296,-1427,506,-579,-176,-226,-86,95,37,-289
2,754310,-1427,506,-579,-176,-226,-86,95,37,-289
2,754323,-1426,509,-571,-175,-222,-89,95,37,-289
2,754336,-1430,508,-562,-161,-215,-83,95,37,-289
2,754351,-1430,508,-562,-161,-215,-83,95,37,-289
2,754366,-1413,508,-575,-158,-204,-7,95,37,-289
2,754379,-1428,503,-582,-152,-206,198,95,37,-289
2,754393,-1428,503,-582,-152,-206,198,95,37,-289
2,754403,-1424,504,-587,-155,-205,186,95,37,-289
2,754415,-1432,500,-571,-161,-219,218,85,47,-301
2,754430,-1432,500,-571,-161,-219,218,85,47,-301
2,754444,-1430,501,-572,-185,-225,132,85,47,-301
2,754457,-1425,504,-549,-164,-222,-3,85,47,-301
2,754471,-1425,504,-549,-164,-222,-3,85,47,-301
2,754485,-1426,504,-557,-145,-202,27,85,47,-301
2,754498,-1428,499,-552,-154,-192,127,85,47,-301
2,754511,-1428,499,-552,-154,-192,127,85,47,-301
2,754525,-1433,496,-572,-161,-209,101,85,47,-301
2,754538,-1427,497,-572,-179,-219,-27,88,32,-296
2,754553,-1427,497,-572,-179,-219,-27,88,32,-296
2,754569,-1426,500,-575,-176,-217,-83,88,32,-296
2,754582,-1426,497,-574,-142,-207,-82,88,32,-296
2,754595,-1427,500,-574,-136,-209,-83,88,32,-296
2,754611,-1427,500,-574,-136,-209,-83,88,32,-296
2,754625,-1428,496,-578,-140,-214,-73,88,32,-296
2,754635,-1427,495,-575,-175,-224,-68,88,32,-296
2,754650,-1427,495,-575,-175,-224,-68,88,32,-296
2,754663,-1428,496,-575,-188,-233,-74,94,36,-304
2,754676,-1424,498,-573,-180,-233,-94,94,36,-304
2,754690,-1424,498,-573,-180,-233,-94,94,36,-304
2,754705,-1427,495,-573,-177,-250,-86,94,36,-304
2,754719,-1426,494,-578,-185,-257,-87,94,36,-304
2,754732,-1426,494,-578,-185,-257,-87,94,36,-304
2,754746,-1425,495,-569,-188,-245,-93,94,36,-304
2,754761,-1426,498,-571,-178,-239,-93,94,36,-304
2,754776,-1426,498,-571,-178,-239,-93,94,36,-304
2,754789,-1428,495,-574,-180,-248,-90,94,36,-304
2,754804,-1425,496,-571,-177,-245,-89,89,31,-301
2,754819,-1427,500,-574,-188,-250,-90,89,31,-301
2,754834,-1427,500,-574,-188,-250,-90,89,31,-301
2,754848,-1426,499,-576,-209,-246,-89,89,31,-301
2,754861,-1425,500,-570,-205,-244,-95,89,31,-301
2,754876,-1428,494,-585,-174,-237,-100,89,31,-301
2,754887,-1428,494,-585,-174,-237,-100,89,31,-301
2,754903,-1427,505,-546,-152,-219,-100,89,31,-301
2,754919,-1427,499,-545,-155,-230,-93,93,41,-295
2,754932,-1427,499,-545,-155,-230,-93,93,41,-295
2,754946,-1427,498,-562,-133,-225,-85,93,41,-295
2,754959,-1424,494,-577,-157,-232,-91,93,41,-295
2,754973,-1424,494,-577,-157,-232,-91,93,41,-295
2,754987,-1427,499,-596,-187,-231,-91,93,41,-295
2,754999,-1428,503,-585,-191,-231,-89,93,41,-295
2,755015,-1428,503,-585,-191,-231,-89,93,41,-295
2,755030,-1427,497,-575,-176,-231,-88,93,41,-295
2,755046,-1425,496,-572,-163,-229,-92,87,41,-293
2,755060,-1426,496,-582,-148,-219,-95,87,41,-293
2,755073,-1426,496,-582,-148,-219,-95,87,41,-293
2,755087,-1426,492,-580,-161,-219,-98,87,41,-293
2,755102,-1426,499,-566,-182,-230,-92,87,41,-293
2,755116,-1426,499,-566,-182,-230,-92,87,41,-293
2,755129,-1427,497,-581,-171,-233,-88,87,41,-293
2,755143,-1423,495,-577,-156,-229,-91,87,41,-293
2,755156,-1428,498,-570,-161,-220,-87,87,37,-293
2,755172,-1428,498,-570,-161,-220,-87,87,37,-293
2,755184,-1428,502,-576,-162,-215,-93,87,37,-293
2,755198,-1430,500,-574,-163,-218,-92,87,37,-293
2,755212,-1430,500,-574,-163,-218,-92,87,37,-293
2,755226,-1427,499,-565,-153,-216,-91,87,37,-293
2,755241,-1424,496,-577,-159,-221,-90,87,37,-293
2,755256,-1425,497,-576,-160,-215,-95,87,37,-293
2,755270,-1425,497,-576,-160,-215,-95,87,37,-293
2,755283,-1427,494,-575,-155,-212,-92,87,41,-295
2,755299,-1425,495,-574,-160,-217,-83,87,41,-295
2,755314,-1425,495,-574,-160,-217,-83,87,41,-295
2,755330,-1427,496,-576,-159,-225,-87,87,41,-295
2,755345,-1426,495,-575,-163,-231,-89,87,41,-295
2,755356,-1426,495,-575,-163,-231,-89,87,41,-295
2,755368,-1425,496,-576,-163,-226,-88,87,41,-295
2,755382,-1426,496,-574,-124,-219,-85,87,41,-295
2,755395,-1426,496,-574,-124,-219,-85,87,41,-295
2,755409,-1428,499,-579,-119,-210,-85,87,41,-295
2,755424,-1425,495,-560,-142,-221,-91,89,35,-301
2,755435,-1425,495,-560,-142,-221,-91,89,35,-301
2,755450,-1428,497,-571,-174,-225,-92,89,35,-301
2,755464,-1427,498,-576,-202,-227,-96,89,35,-301
2,755475,-1427,498,-576,-202,-227,-96,89,35,-301
2,755490,-1426,499,-578,-195,-224,-90,89,35,-301
2,755506,-1425,496,-574,-151,-217,-92,89,35,-301
2,755520,-1426,501,-576,-127,-215,-89,89,35,-301
2,755533,-1426,501,-576,-127,-215,-89,89,35,-301
2,755548,-1427,495,-563,-166,-221,-92,92,38,-300
2,755562,-1427,501,-559,-209,-234,-94,92,38,-300
2,755573,-1427,501,-559,-209,-234,-94,92,38,-300
2,755587,-1426,498,-590,-211,-245,-92,92,38,-300
2,755601,-1430,498,-583,-164,-219,-94,92,38,-300
2,755614,-1430,498,-583,-164,-219,-94,92,38,-300
2,755629,-1426,496,-571,-121,-199,-88,92,38,-300
2,755643,-1427,500,-573,-154,-226,-82,92,38,-300
2,755655,-1427,500,-573,-154,-226,-82,92,38,-300
2,755668,-1426,498,-572,-141,-230,-84,89,45,-293
2,755684,-1427,494,-572,-121,-220,-84,89,45,-293
2,755699,-1426,497,-572,-148,-227,-87,89,45,-293
2,755715,-1426,497,-572,-148,-227,-87,89,45,-293
2,755728,-1430,497,-560,-144,-222,-89,89,45,-293
2,755742,-1430,497,-560,-144,-222,-89,89,45,-293
2,755758,-1427,495,-574,-150,-226,-88,89,45,-293
2,755772,-1427,495,-574,-150,-226,-88,89,45,-293
2,755786,-1425,497,-570,-166,-224,-89,89,39,-297
2,755800,-1427,495,-577,-174,-220,-86,89,39,-297
2,755813,-1427,495,-577,-174,-220,-86,89,39,-297
2,755827,-1430,499,-576,-174,-222,-87,89,39,-297
2,755838,-1426,495,-579,-177,-214,-88,89,39,-297
2,755852,-1426,495,-579,-177,-214,-88,89,39,-297
2,755865,-1428,498,-579,-146,-210,-79,89,39,-297
2,755878,-1427,498,-574,-151,-225,-86,89,39,-297
2,755894,-1427,498,-574,-151,-225,-86,89,39,-297
2,755908,-1429,496,-572,-169,-234,-85,97,41,-299
2,755920,-1424,495,-571,-177,-238,-83,97,41,-299
2,755935,-1424,495,-571,-177,-238,-83,97,41,-299
2,755950,-1429,494,-576,-188,-239,-81,97,41,-299
2,755966,-1426,497,-575,-191,-240,-83,97,41,-299
2,755981,-1428,498,-574,-121,-227,-89,97,41,-299
2,755992,-1428,498,-574,-121,-227,-89,97,41,-299
2,756006,-1423,494,-569,-105,-224,-78,97,41,-299
2,756021,-1426,499,-574,-176,-237,-80,97,41,-299
2,756034,-1426,499,-574,-176,-237,-80,97,41,-299
2,756047,-1427,497,-583,-175,-234,-81,94,40,-300
2,756062,-1426,495,-576,-176,-224,-97,94,40,-300
2,756074,-1426,495,-576,-176,-224,-97,94,40,-300
2,756086,-1427,498,-570,-187,-225,-86,94,40,-300
2,756101,-1428,500,-578,-166,-229,-84,94,40,-300
2,756114,-1428,500,-578,-166,-229,-84,94,40,-300
2,756129,-1427,498,-582,-161,-219,-87,94,40,-300
2,756140,-1424,498,-574,-193,-227,-87,94,40,-300
2,756154,-1424,498,-574,-193,-227,-87,94,40,-300
2,756169,-1427,497,-576,-182,-227,-88,90,40,-300
2,756184,-1426,493,-587,-184,-228,-86,90,40,-300
2,756199,-1425,490,-557,-181,-220,-92,90,40,-300
2,756210,-1425,490,-557,-181,-220,-92,90,40,-300
2,756226,-1430,497,-571,-170,-205,-92,90,40,-300
2,756239,-1425,496,-578,-172,-212,-90,90,40,-300
2,756252,-1425,496,-578,-172,-212,-90,90,40,-300
2,756267,-1426,497,-577,-155,-219,-85,90,40,-300
2,756280,-1429,499,-574,-185,-227,-88,89,33,-293
2,756296,-1429,499,-574,-185,-227,-88,89,33,-293
2,756308,-1426,498,-578,-187,-228,-94,89,33,-293
2,756322,-1428,498,-577,-161,-219,-87,89,33,-293
2,756335,-1428,498,-577,-161,-219,-87,89,33,-293
2,756349,-1427,503,-572,-160,-201,-94,89,33,-293
2,756364,-1428,496,-574,-181,-225,-97,89,33,-293
2,756378,-1428,502,-574,-156,-223,-90,89,33,-293
2,756388,-1428,502,-574,-156,-223,-90,89,33,-293
2,756405,-1427,500,-571,-158,-217,-90,90,42,-298
2,756420,-1428,498,-566,-158,-207,-94,90,42,-298
2,756435,-1428,498,-566,-158,-207,-94,90,42,-298
2,756450,-1426,495,-558,-175,-216,-99,90,42,-298
2,756462,-1428,506,-607,-154,-215,-83,90,42,-298
2,756476,-1428,506,-607,-154,-215,-83,90,42,-298
2,756490,-1429,498,-608,-152,-236,-82,90,42,-298
2,756503,-1425,497,-574,-146,-210,-84,90,42,-298
2,756517,-1428,498,-566,-168,-222,-96,84,42,-308
2,756531,-1428,498,-566,-168,-222,-96,84,42,-308
2,756545,-1427,497,-572,-186,-229,-97,84,42,-308
2,756557,-1426,498,-573,-173,-234,-102,84,42,-308
2,756571,-1426,498,-573,-173,-234,-102,84,42,-308
2,756584,-1424,494,-571,-164,-225,-115,84,42,-308
2,756598,-1426,499,-576,-176,-230,-114,84,42,-308
2,756613,-1426,499,-576,-176,-230,-114,84,42,-308
2,756625,-1427,497,-579,-174,-223,-118,84,42,-308
2,756639,-1424,500,-575,-158,-212,-113,98,38,-300
2,756654,-1424,500,-575,-158,-212,-113,98,38,-300
2,756668,-1424,500,-563,-150,-208,-97,98,38,-300
2,756680,-1425,495,-567,-162,-227,-94,98,38,-300
2,756695,-1425,495,-567,-162,-227,-94,98,38,-300
2,756709,-1427,496,-578,-182,-239,-102,98,38,-300
2,756722,-1428,498,-583,-159,-220,-94,98,38,-300
2,756736,-1428,498,-583,-159,-220,-94,98,38,-300
2,756749,-1428,504,-569,-152,-224,-95,98,38,-300
2,756762,-1427,501,-575,-150,-218,-86,98,38,-300
2,756775,-1427,501,-575,-150,-218,-86,98,38,-300
2,756790,-1428,499,-571,-184,-215,-89,85,39,-297
2,756804,-1428,500,-564,-163,-224,-90,85,39,-297
2,756817,-1427,498,-571,-154,-222,-86,85,39,-297
2,756832,-1427,498,-571,-154,-222,-86,85,39,-297
2,756843,-1429,499,-573,-158,-222,-84,85,39,-297
2,756857,-1429,499,-573,-158,-222,-84,85,39,-297
2,756873,-1428,496,-569,-162,-225,-81,85,39,-297
2,756886,-1427,499,-579,-194,-231,-88,85,39,-297
2,756898,-1427,496,-574,-187,-225,-86,95,33,-295
2,756914,-1427,496,-574,-187,-225,-86,95,33,-295
2,756928,-1425,501,-571,-163,-233,-85,95,33,-295
2,756942,-1425,498,-576,-143,-225,-83,95,33,-295
2,756956,-1425,498,-576,-143,-225,-83,95,33,-295
2,756969,-1428,500,-573,-157,-222,-77,95,33,-295
2,756983,-1426,498,-579,-190,-229,-81,95,33,-295
2,756993,-1426,498,-579,-190,-229,-81,95,33,-295
2,757000,-1429,499,-581,-202,-229,-96,95,33,-295
2,757008,-1429,499,-581,-202,-229,-96,95,33,-295
2,757016,-1429,499,-581,-202,-229,-96,95,33,-295
2,757024,-1424,498,-573,-187,-219,-90,93,39,-299
2,757039,-1425,495,-566,-176,-219,-91,93,39,-299
2,757052,-1425,495,-566,-176,-219,-91,93,39,-299
2,757067,-1425,500,-579,-169,-226,-92,93,39,-299
2,757083,-1426,493,-581,-178,-222,-93,93,39,-299
2,757097,-1426,493,-581,-178,-222,-93,93,39,-299
2,757111,-1428,495,-569,-190,-220,-95,93,39,-299
2,757125,-1425,499,-571,-187,-229,-94,93,39,-299
2,757140,-1429,497,-574,-190,-237,-90,90,36,-296
2,757155,-1429,497,-574,-190,-237,-90,90,36,-296
2,757170,-1428,498,-578,-172,-236,-95,90,36,-296
2,757181,-1428,498,-577,-167,-234,-89,90,36,-296
2,757196,-1428,498,-577,-167,-234,-89,90,36,-296
2,757210,-1424,499,-576,-149,-233,-78,90,36,-296
2,757224,-1423,499,-574,-122,-221,-87,90,36,-296
2,757237,-1423,499,-574,-122,-221,-87,90,36,-296
2,757253,-1429,498,-573,-135,-214,-85,90,36,-296
2,757266,-1426,498,-575,-196,-234,-95,91,37,-293
2,757278,-1426,500,-565,-211,-247,-113,91,37,-293
2,757293,-1426,500,-565,-211,-247,-113,91,37,-293
2,757306,-1427,501,-573,-159,-245,-107,91,37,-293
2,757320,-1428,500,-573,-156,-244,-106,91,37,-293
2,757335,-1428,500,-573,-156,-244,-106,91,37,-293
2,757350,-1425,496,-577,-141,-241,-99,91,37,-293
2,757362,-1424,497,-575,-118,-230,-98,91,37,-293
2,757377,-1424,497,-575,-118,-230,-98,91,37,-293
2,757392,-1429,495,-576,-137,-234,-100,91,37,-293
2,757405,-1427,498,-577,-169,-242,-102,92,40,-292
2,757419,-1426,499,-575,-145,-234,-96,92,40,-292
2,757431,-1426,499,-575,-145,-234,-96,92,40,-292
2,757445,-1425,499,-577,-140,-228,-94,92,40,-292
2,757458,-1427,495,-569,-164,-227,-98,92,40,-292
2,757472,-1427,495,-569,-164,-227,-98,92,40,-292
2,757486,-1426,492,-571,-193,-241,-100,92,40,-292
2,757497,-1426,492,-571,-193,-241,-100,92,40,-292
2,757511,-1425,503,-584,-180,-248,-110,92,40,-292
2,757525,-1428,490,-577,-36,-226,-92,91,37,-285
2,757538,-1426,494,-574,-125,-229,-91,91,37,-285
2,757554,-1426,494,-574,-125,-229,-91,91,37,-285
2,757569,-1425,498,-576,-180,-222,-99,91,37,-285
2,757583,-1429,503,-574,-169,-198,-101,91,37,-285
2,757600,-1430,502,-575,-124,-226,-92,91,37,-285
2,757615,-1430,502,-575,-124,-226,-92,91,37,-285
2,757628,-1428,498,-575,-112,-226,-86,91,37,-285
2,757642,-1427,497,-571,-137,-237,-96,88,30,-290
2,757656,-1427,497,-571,-137,-237,-96,88,30,-290
2,757669,-1426,496,-580,-141,-240,-100,88,30,-290
2,757684,-1427,499,-575,-130,-225,-90,88,30,-290
2,757696,-1427,499,-575,-130,-225,-90,88,30,-290
2,757709,-1426,501,-573,-155,-221,-96,88,30,-290
2,757724,-1425,498,-580,-156,-236,-91,88,30,-290
2,757737,-1425,498,-580,-156,-236,-91,88,30,-290
2,757751,-1425,497,-571,-160,-232,-95,88,30,-290
2,757764,-1427,495,-573,-174,-232,-97,90,36,-296
2,757778,-1427,495,-573,-174,-232,-97,90,36,-296
2,757795,-1430,501,-571,-227,-242,-99,90,36,-296
2,757811,-1429,503,-571,-234,-241,-106,90,36,-296
2,757827,-1427,497,-577,-187,-247,-95,90,36,-296
2,757842,-1426,497,-575,-180,-239,-91,90,36,-296
2,757857,-1426,497,-575,-180,-239,-91,90,36,-296
2,757868,-1426,500,-576,-187,-237,-97,90,36,-296
2,757882,-1426,499,-574,-172,-225,-98,87,43,-289
2,757896,-1426,499,-574,-172,-225,-98,87,43,-289
2,757909,-1427,497,-575,-174,-223,-98,87,43,-289
2,757923,-1430,502,-580,-167,-229,-97,87,43,-289
2,757936,-1430,502,-580,-167,-229,-97,87,43,-289
2,757946,-1425,498,-580,-166,-224,-98,87,43,-289
2,757959,-1425,500,-574,-156,-225,-101,87,43,-289
2,757972,-1425,500,-574,-156,-225,-101,87,43,-289
2,757986,-1428,498,-582,-162,-231,-94,87,43,-289
2,757998,-1428,498,-582,-162,-231,-94,87,43,-289
2,758013,-1424,498,-579,-152,-228,-95,87,43,-289
2,758029,-1425,498,-579,-158,-228,-95,91,43,-293
2,758044,-1427,498,-581,-167,-224,-96,91,43,-293
2,758060,-1424,495,-578,-155,-214,-95,91,43,-293
2,758073,-1424,495,-578,-155,-214,-95,91,43,-293
2,758084,-1427,494,-548,-133,-216,-94,91,43,-293
2,758097,-1427,494,-548,-133,-216,-94,91,43,-293
2,758111,-1427,500,-563,-162,-236,-97,91,43,-293
2,758125,-1426,495,-567,-142,-241,-96,91,43,-293
2,758140,-1427,498,-583,-143,-233,-95,89,33,-285
2,758153,-1427,498,-583,-143,-233,-95,89,33,-285
2,758166,-1426,500,-586,-108,-211,-91,89,33,-285
2,758180,-1423,495,-588,-88,-189,-89,89,33,-285
2,758195,-1423,495,-588,-88,-189,-89,89,33,-285
2,758208,-1428,502,-579,-126,-175,-94,89,33,-285
2,758222,-1428,500,-569,-129,-176,-92,89,33,-285
2,758239,-1428,500,-569,-129,-176,-92,89,33,-285
2,758253,-1426,502,-574,-118,-207,-87,89,33,-285
2,758268,-1424,497,-569,-82,-222,-81,86,36,-292
2,758282,-1427,495,-571,-107,-241,-83,86,36,-292
2,758295,-1427,495,-571,-107,-241,-83,86,36,-292
2,758309,-1426,498,-575,-131,-248,-74,86,36,-292
2,758321,-1427,497,-578,-127,-249,-47,86,36,-292
2,758334,-1427,497,-578,-127,-249,-47,86,36,-292
2,758349,-1429,497,-584,-186,-248,-48,86,36,-292
2,758363,-1427,499,-582,-181,-221,-78,86,36,-292
2,758377,-1427,499,-582,-181,-221,-78,86,36,-292
2,758391,-1426,495,-571,-185,-202,-80,93,45,-289
2,758403,-1429,501,-591,-207,-208,-87,93,45,-289
2,758416,-1429,501,-591,-207,-208,-87,93,45,-289
2,758431,-1424,498,-568,-191,-225,-95,93,45,-289
2,758447,-1426,502,-577,-166,-220,-95,93,45,-289
2,758462,-1424,494,-611,-111,-231,-88,93,45,-289
2,758474,-1424,494,-611,-111,-231,-88,93,45,-289
2,758490,-1425,499,-609,-162,-242,-93,93,45,-289
2,758504,-1428,502,-573,-149,-229,-86,89,37,-293
2,758519,-1425,498,-579,-118,-226,-79,89,37,-293
2,758533,-1425,498,-579,-118,-226,-79,89,37,-293
2,758547,-1426,494,-572,-120,-228,-71,89,37,-293
2,758561,-1426,500,-579,-182,-221,-33,89,37,-293
2,758575,-1426,500,-579,-182,-221,-33,89,37,-293
2,758589,-1427,497,-573,-172,-227,-17,89,37,-293
2,758603,-1429,492,-601,-163,-225,-48,89,37,-293
2,758618,-1429,492,-601,-163,-225,-48,89,37,-293
2,758631,-1427,494,-591,-265,-201,-65,89,37,-293
2,758644,-1426,491,-578,-290,-217,-65,93,41,-281
2,758659,-1426,491,-578,-290,-217,-65,93,41,-281
2,758674,-1426,513,-591,-234,-254,-98,93,41,-281
2,758689,-1428,495,-563,-135,-215,-90,93,41,-281
2,758706,-1425,490,-577,-230,-252,-97,93,41,-281
2,758721,-1426,502,-591,-381,-264,-113,93,41,-281
2,758734,-1426,502,-591,-381,-264,-113,93,41,-281
2,758748,-1425,496,-595,-241,-245,-108,93,41,-281
2,758763,-1428,493,-578,-128,-223,-90,91,49,-289
2,758772,-1428,493,-578,-128,-223,-90,91,49,-289
2,758786,-1428,495,-578,-115,-213,-88,91,49,-289
2,758800,-1421,495,-582,-103,-216,-90,91,49,-289
2,758813,-1421,495,-582,-103,-216,-90,91,49,-289
2,758827,-1425,496,-578,-122,-225,-88,91,49,-289
2,758839,-1425,496,-578,-122,-225,-88,91,49,-289
2,758853,-1426,496,-574,-146,-218,-84,91,49,-289
2,758865,-1429,496,-581,-171,-232,-93,91,49,-289
2,758880,-1427,495,-579,-182,-228,-92,91,49,-289
2,758894,-1427,495,-579,-182,-228,-92,90,38,-290
2,758909,-1427,495,-579,-182,-228,-92,90,38,-290
2,758924,-1425,495,-577,-171,-221,-94,90,38,-290
2,758938,-1425,495,-577,-171,-221,-94,90,38,-290
2,758952,-1424,495,-576,-165,-217,-95,90,38,-290
2,758967,-1429,496,-572,-159,-217,-99,90,38,-290
2,758981,-1425,495,-583,-171,-221,-93,90,38,-290
2,758992,-1425,495,-583,-171,-221,-93,90,38,-290
2,759005,-1424,496,-576,-168,-231,-90,92,32,-288
2,759018,-1424,496,-576,-168,-231,-90,92,32,-288
2,759031,-1427,495,-574,-167,-219,-95,92,32,-288
2,759046,-1427,496,-581,-173,-221,-99,92,32,-288
2,759057,-1427,496,-581,-173,-221,-99,92,32,-288
2,759069,-1427,496,-581,-173,-221,-99,92,32,-288
2,759084,-1427,494,-577,-163,-223,-101,92,32,-288
2,759096,-1427,494,-577,-163,-223,-101,92,32,-288
2,759111,-1428,498,-578,-149,-250,-96,92,32,-288
2,759126,-1426,502,-581,-144,-239,-95,90,44,-290
2,759139,-1426,502,-581,-144,-239,-95,90,44,-290
2,759153,-1430,495,-583,-157,-217,-100,90,44,-290
2,759168,-1430,496,-577,-192,-202,-100,90,44,-290
2,759183,-1424,498,-570,-202,-202,-104,90,44,-290
2,759196,-1424,498,-570,-202,-202,-104,90,44,-290
2,759208,-1428,498,-578,-162,-217,-106,90,44,-290
2,759222,-1425,493,-577,-134,-215,-97,90,44,-290
2,759235,-1425,493,-577,-134,-215,-97,90,44,-290
2,759248,-1426,496,-579,-121,-198,-92,90,44,-290
2,759263,-1424,495,-576,-145,-207,-99,92,38,-290
2,759275,-1424,495,-576,-145,-207,-99,92,38,-290
2,759287,-1426,495,-573,-157,-207,-104,92,38,-290
2,759302,-1425,496,-576,-184,-220,-106,92,38,-290
2,759315,-1425,496,-576,-184,-220,-106,92,38,-290
2,759329,-1426,493,-584,-175,-233,-97,92,38,-290
2,759343,-1426,494,-576,-229,-262,-100,92,38,-290
2,759351,-1426,494,-576,-229,-262,-100,92,38,-290
2,759363,-1426,498,-592,-212,-247,-93,92,38,-290
2,759378,-1426,498,-592,-212,-247,-93,92,38,-290
2,759393,-1430,497,-580,-176,-233,-94,87,39,-281
2,759408,-1426,494,-573,-131,-223,-87,87,39,-281
2,759422,-1426,494,-573,-131,-223,-87,87,39,-281
2,759436,-1426,494,-573,-131,-223,-87,87,39,-281
2,759450,-1426,495,-572,-160,-243,-91,87,39,-281
2,759462,-1426,495,-585,-208,-241,-98,87,39,-281
2,759475,-1426,495,-585,-208,-241,-98,87,39,-281
2,759489,-1425,496,-578,-184,-226,-98,87,39,-281
2,759501,-1426,499,-571,-157,-213,-101,84,36,-292
2,759516,-1426,499,-571,-157,-213,-101,84,36,-292
2,759528,-1426,500,-578,-156,-231,-98,84,36,-292
2,759540,-1427,500,-577,-132,-236,-95,84,36,-292
2,759554,-1427,500,-577,-132,-236,-95,84,36,-292
2,759567,-1425,495,-575,-99,-233,-92,84,36,-292
2,759581,-1425,494,-580,-112,-227,-84,84,36,-292
2,759593,-1425,494,-580,-112,-227,-84,84,36,-292
2,759606,-1426,496,-578,-137,-226,-88,84,36,-292
2,759620,-1426,496,-578,-137,-226,-88,84,36,-292
2,759633,-1427,494,-575,-170,-220,-100,92,38,-286
2,759648,-1428,495,-579,-166,-212,-98,92,38,-286
2,759662,-1423,495,-577,-199,-221,-96,92,38,-286
2,759677,-1423,495,-577,-199,-221,-96,92,38,-286
2,759691,-1424,496,-582,-226,-227,-102,92,38,-286
2,759704,-1428,494,-578,-195,-218,-98,92,38,-286
2,759719,-1428,494,-578,-195,-218,-98,92,38,-286
2,759732,-1428,496,-576,-167,-227,-97,92,38,-286
2,759748,-1429,501,-571,-170,-234,-82,91,37,-279
2,759759,-1429,501,-571,-170,-234,-82,91,37,-279
2,759774,-1426,502,-584,-172,-228,-88,91,37,-279
2,759787,-1428,499,-582,-177,-217,-97,91,37,-279
2,759800,-1425,494,-577,-162,-224,-99,91,37,-279
2,759815,-1425,494,-577,-162,-224,-99,91,37,-279
2,759827,-1426,496,-578,-156,-217,-95,91,37,-279
2,759840,-1426,496,-578,-156,-217,-95,91,37,-279
2,759856,-1427,492,-536,-154,-221,-85,91,37,-279
2,759872,-1426,498,-578,-157,-229,-94,91,37,-279
2,759886,-1428,498,-565,-145,-227,-101,96,42,-288
2,759899,-1428,498,-565,-145,-227,-101,96,42,-288
2,759912,-1422,490,-575,-131,-228,-97,96,42,-288
2,759926,-1422,493,-579,-177,-230,-101,96,42,-288
2,759941,-1425,489,-596,-166,-237,-96,96,42,-288
2,759954,-1425,489,-596,-166,-237,-96,96,42,-288
2,759967,-1425,494,-580,-157,-198,-94,96,42,-288
2,759981,-1427,493,-575,-131,-185,-95,96,42,-288
2,759994,-1427,493,-575,-131,-185,-95,96,42,-288
2,760008,-1425,493,-585,-138,-187,-96,91,35,-293
2,760022,-1427,498,-568,-163,-191,-97,91,35,-293
2,760036,-1427,498,-568,-163,-191,-97,91,35,-293
2,760049,-1427,495,-575,-179,-210,-102,91,35,-293
2,760061,-1424,493,-577,-195,-223,-104,91,35,-293
2,760075,-1424,493,-577,-195,-223,-104,91,35,-293
2,760090,-1427,498,-575,-177,-227,-105,91,35,-293
2,760104,-1426,496,-571,-155,-230,-100,91,35,-293
2,760119,-1426,496,-571,-155,-230,-100,91,35,-293
2,760132,-1425,499,-575,-184,-246,-98,84,38,-280
2,760147,-1426,496,-580,-175,-245,-96,84,38,-280
2,760164,-1425,493,-581,-169,-229,-92,84,38,-280
2,760178,-1425,493,-581,-169,-229,-92,84,38,-280
2,760193,-1427,495,-571,-175,-220,-99,84,38,-280
2,760206,-1425,499,-571,-180,-235,-102,84,38,-280
2,760220,-1425,499,-571,-180,-235,-102,84,38,-280
2,760231,-1427,495,-576,-185,-253,-106,84,38,-280
2,760245,-1426,499,-578,-155,-240,-94,94,34,-282
2,760258,-1426,499,-578,-155,-240,-94,94,34,-282
2,760271,-1428,495,-573,-133,-238,-95,94,34,-282
2,760286,-1426,495,-579,-132,-239,-95,94,34,-282
2,760297,-1426,495,-579,-132,-239,-95,94,34,-282
2,760310,-1428,496,-583,-142,-223,-98,94,34,-282
2,760325,-1424,496,-573,-170,-220,-99,94,34,-282
2,760339,-1424,496,-573,-170,-220,-99,94,34,-282
2,760353,-1427,495,-575,-154,-222,-102,94,34,-282
2,760369,-1427,496,-580,-144,-229,-103,90,38,-288
2,760383,-1428,497,-574,-124,-221,-93,90,38,-288
2,760396,-1428,497,-574,-124,-221,-93,90,38,-288
2,760410,-1425,496,-581,-122,-221,-97,90,38,-288
2,760423,-1427,497,-578,-122,-217,-92,90,38,-288
2,760437,-1427,497,-578,-122,-217,-92,90,38,-288
2,760449,-1424,495,-577,-133,-214,-92,90,38,-288
2,760462,-1428,496,-578,-144,-214,-94,90,38,-288
2,760476,-1428,496,-578,-144,-214,-94,90,38,-288
2,760489,-1427,496,-585,-141,-208,-96,91,43,-293
2,760504,-1425,499,-568,-128,-200,-101,91,43,-293
2,760517,-1425,499,-568,-128,-200,-101,91,43,-293
2,760528,-1428,497,-571,-137,-200,-99,91,43,-293
2,760543,-1429,500,-572,-150,-205,-101,91,43,-293
2,760558,-1429,500,-572,-150,-205,-101,91,43,-293
2,760573,-1424,500,-572,-145,-210,-89,91,43,-293
2,760587,-1429,495,-582,-156,-228,-92,91,43,-293
2,760600,-1429,495,-582,-156,-228,-92,91,43,-293
2,760615,-1428,499,-572,-173,-231,-95,91,43,-293
2,760630,-1425,500,-598,-153,-243,-91,94,42,-298
2,760644,-1424,495,-585,-140,-220,-100,94,42,-298
2,760657,-1424,495,-585,-140,-220,-100,94,42,-298
2,760671,-1426,494,-582,-139,-190,-101,94,42,-298
2,760684,-1429,491,-559,-134,-205,-92,94,42,-298
2,760696,-1429,491,-559,-134,-205,-92,94,42,-298
2,760710,-1427,493,-573,-183,-236,-97,94,42,-298
2,760724,-1423,497,-585,-152,-250,-97,94,42,-298
2,760737,-1423,497,-585,-152,-250,-97,94,42,-298
2,760752,-1424,492,-578,-115,-224,-89,94,36,-290
2,760763,-1424,494,-579,-174,-224,-100,94,36,-290
2,760778,-1424,494,-579,-174,-224,-100,94,36,-290
2,760794,-1429,497,-575,-214,-220,-111,94,36,-290
2,760808,-1425,500,-581,-192,-226,-102,94,36,-290
2,760822,-1425,496,-578,-143,-222,-99,94,36,-290
2,760835,-1425,496,-578,-143,-222,-99,94,36,-290
2,760850,-1427,494,-579,-145,-225,-89,94,36,-290
2,760863,-1428,496,-567,-144,-215,-93,98,44,-290
2,760877,-1428,496,-567,-144,-215,-93,98,44,-290
2,760891,-1424,498,-577,-148,-226,-105,98,44,-290
2,760902,-1426,492,-584,-114,-234,-99,98,44,-290
2,760918,-1426,492,-584,-114,-234,-99,98,44,-290
2,760933,-1428,494,-524,-130,-235,-96,98,44,-290
2,760946,-1427,498,-618,-149,-231,-93,98,44,-290
2,760960,-1427,498,-618,-149,-231,-93,98,44,-290
2,760974,-1425,494,-598,-156,-221,-95,98,44,-290
2,760988,-1427,497,-572,-155,-226,-96,87,35,-291
2,761003,-1425,499,-573,-160,-228,-92,87,35,-291
2,761016,-1425,499,-573,-160,-228,-92,87,35,-291
2,761030,-1428,498,-573,-160,-229,-86,87,35,-291
2,761046,-1424,498,-572,-162,-231,-91,87,35,-291
2,761061,-1424,498,-572,-162,-231,-91,87,35,-291
2,761076,-1428,494,-578,-162,-226,-96,87,35,-291
2,761090,-1423,495,-582,-156,-227,-96,87,35,-291
2,761102,-1426,495,-575,-162,-225,-93,93,39,-291
2,761117,-1426,495,-575,-162,-225,-93,93,39,-291
2,761131,-1427,496,-575,-159,-230,-104,93,39,-291
2,761144,-1424,496,-578,-164,-225,-94,93,39,-291
2,761158,-1424,496,-578,-164,-225,-94,93,39,-291
2,761171,-1427,495,-573,-169,-229,-104,93,39,-291
2,761185,-1429,499,-575,-161,-231,-99,93,39,-291
2,761198,-1429,499,-575,-161,-231,-99,93,39,-291
2,761212,-1426,498,-574,-159,-224,-90,93,39,-291
2,761226,-1428,499,-582,-163,-224,-94,93,39,-291
2,761240,-1428,499,-582,-163,-224,-94,93,39,-291
2,761255,-1429,501,-571,-158,-223,-99,94,36,-294
2,761271,-1424,494,-575,-153,-227,-96,94,36,-294
2,761286,-1426,491,-579,-155,-222,-95,94,36,-294
2,761302,-1426,491,-579,-155,-222,-95,94,36,-294
2,761315,-1425,497,-580,-159,-221,-94,94,36,-294
2,761329,-1425,498,-580,-159,-221,-96,94,36,-294
2,761344,-1425,496,-579,-162,-198,-101,94,36,-294
2,761357,-1425,496,-579,-162,-198,-101,94,36,-294
2,761369,-1428,488,-533,-188,-213,-101,99,41,-293
2,761382,-1427,487,-557,-185,-185,-90,99,41,-293
2,761396,-1427,487,-557,-185,-185,-90,99,41,-293
2,761409,-1427,495,-561,-157,-210,-93,99,41,-293
2,761421,-1425,493,-576,-148,-215,-95,99,41,-293
2,761433,-1425,493,-576,-148,-215,-95,99,41,-293
2,761448,-1422,493,-576,-143,-209,-91,99,41,-293
2,761461,-1422,493,-576,-143,-209,-91,99,41,-293
2,761475,-1427,496,-576,-149,-236,-99,99,41,-293
2,761490,-1427,495,-575,-137,-225,-101,95,45,-291
2,761505,-1426,497,-577,-133,-224,-96,95,45,-291
2,761521,-1426,497,-577,-133,-224,-96,95,45,-291
2,761536,-1427,499,-576,-141,-229,-92,95,45,-291
2,761550,-1429,492,-581,-165,-231,-63,95,45,-291
2,761565,-1428,494,-578,-181,-225,-59,95,45,-291
2,761578,-1428,494,-578,-181,-225,-59,95,45,-291
2,761589,-1427,496,-577,-174,-212,-63,95,45,-291
2,761603,-1426,495,-576,-182,-211,-82,90,40,-292
2,761619,-1426,495,-576,-182,-211,-82,90,40,-292
2,761632,-1424,497,-575,-183,-215,-97,90,40,-292
2,761646,-1426,496,-573,-171,-220,-95,90,40,-292
2,761660,-1426,496,-573,-171,-220,-95,90,40,-292
2,761672,-1431,495,-576,-177,-227,-91,90,40,-292
2,761684,-1426,495,-575,-179,-236,-96,90,40,-292
2,761699,-1426,495,-575,-179,-236,-96,90,40,-292
2,761714,-1427,495,-569,-177,-239,-100,90,40,-292
2,761730,-1429,497,-577,-163,-233,-94,92,42,-280
2,761743,-1429,494,-566,-160,-228,-83,92,42,-280
2,761756,-1429,494,-566,-160,-228,-83,92,42,-280
2,761771,-1424,492,-575,-159,-234,-89,92,42,-280
2,761784,-1426,495,-574,-158,-235,-91,92,42,-280
2,761798,-1426,495,-574,-158,-235,-91,92,42,-280
2,761811,-1424,494,-580,-148,-230,-94,92,42,-280
2,761826,-1427,495,-581,-149,-239,-102,92,42,-280
2,761840,-1427,495,-581,-149,-239,-102,92,42,-280
2,761853,-1427,498,-576,-154,-237,-140,92,42,-280
2,761868,-1428,498,-571,-159,-226,-206,91,41,-285
2,761880,-1428,498,-571,-159,-226,-206,91,41,-285
2,761894,-1421,496,-572,-159,-214,-240,91,41,-285
2,761909,-1427,495,-577,-164,-218,-148,91,41,-285
2,761925,-1425,498,-570,-166,-206,-92,91,41,-285
2,761940,-1425,498,-570,-166,-206,-92,91,41,-285
2,761955,-1424,498,-575,-158,-203,-95,91,41,-285
2,761969,-1426,499,-577,-159,-198,-97,91,41,-285
2,761982,-1426,500,-575,-159,-203,-90,87,41,-293
2,761997,-1426,500,-575,-159,-203,-90,87,41,-293
2,762009,-1424,495,-577,-145,-203,-89,87,41,-293
2,762021,-1424,495,-577,-145,-203,-89,87,41,-293
2,762036,-1424,497,-580,-146,-225,-85,87,41,-293
2,762049,-1425,500,-570,-151,-255,-92,87,41,-293
2,762062,-1425,490,-565,-146,-281,-78,87,41,-293
2,762075,-1425,490,-565,-146,-281,-78,87,41,-293
2,762088,-1426,497,-577,-149,-297,-65,87,41,-293
2,762101,-1426,497,-577,-149,-297,-65,87,41,-293
2,762115,-1425,495,-569,-158,-239,-91,87,43,-289
2,762129,-1425,495,-578,-171,-227,-88,87,43,-289
2,762143,-1425,497,-576,-166,-227,-92,87,43,-289
2,762159,-1425,497,-576,-166,-227,-92,87,43,-289
2,762174,-1425,498,-577,-161,-219,-95,87,43,-289
2,762188,-1420,485,-640,-170,-203,-109,87,43,-289
2,762203,-1420,485,-640,-170,-203,-109,87,43,-289
2,762217,-1427,498,-578,-159,-203,-93,87,43,-289
2,762231,-1427,495,-580,-158,-205,-87,94,42,-294
2,762240,-1427,495,-580,-158,-205,-87,94,42,-294
2,762248,-1423,497,-577,-175,-201,-81,94,42,-294
2,762259,-1423,497,-577,-175,-201,-81,94,42,-294
2,762272,-1424,499,-579,-177,-214,-88,94,42,-294
2,762286,-1425,496,-575,-167,-216,-100,94,42,-294
2,762299,-1425,496,-575,-167,-216,-100,94,42,-294
2,762313,-1426,496,-573,-163,-219,-97,94,42,-294
2,762327,-1426,492,-570,-163,-224,-95,94,42,-294
2,762339,-1426,492,-570,-163,-224,-95,94,42,-294
2,762353,-1427,493,-586,-190,-238,-98,92,42,-288
2,762366,-1424,498,-575,-185,-227,-100,92,42,-288
2,762380,-1424,498,-575,-185,-227,-100,92,42,-288
2,762395,-1427,497,-574,-195,-216,-98,92,42,-288
2,762411,-1425,496,-574,-189,-215,-92,92,42,-288
2,762424,-1422,496,-574,-182,-219,-88,92,42,-288
2,762437,-1422,496,-574,-182,-219,-88,92,42,-288
2,762451,-1427,497,-579,-176,-214,-88,92,42,-288
2,762467,-1426,497,-581,-168,-212,-97,92,42,-288
2,762480,-1426,497,-581,-168,-212,-97,92,42,-288
2,762492,-1427,501,-581,-173,-207,-93,89,47,-289
2,762507,-1428,500,-580,-161,-194,-89,89,47,-289
2,762521,-1428,500,-580,-161,-194,-89,89,47,-289
2,762534,-1429,498,-574,-177,-202,-94,89,47,-289
2,762551,-1426,498,-571,-196,-220,-104,89,47,-289
2,762565,-1426,497,-575,-169,-235,-105,89,47,-289
2,762578,-1426,497,-575,-169,-235,-105,89,47,-289
2,762591,-1423,498,-582,-131,-251,-96,89,47,-289
2,762604,-1424,497,-566,-122,-253,-92,93,39,-297
2,762617,-1424,497,-566,-122,-253,-92,93,39,-297
2,762632,-1424,498,-584,-138,-256,-96,93,39,-297
2,762646,-1427,498,-581,-121,-230,-99,93,39,-297
2,762661,-1427,498,-581,-121,-230,-99,93,39,-297
2,762677,-1425,496,-581,-123,-227,-94,93,39,-297
2,762690,-1425,498,-581,-119,-234,-94,93,39,-297
2,762704,-1426,498,-582,-137,-240,-96,93,39,-297
2,762719,-1426,498,-582,-137,-240,-96,93,39,-297
2,762732,-1428,498,-580,-128,-232,-105,92,46,-294
2,762743,-1426,496,-572,-118,-212,-94,92,46,-294
2,762758,-1426,496,-572,-118,-212,-94,92,46,-294
2,762772,-1426,497,-574,-155,-215,-97,92,46,-294
2,762785,-1426,496,-578,-172,-218,-94,92,46,-294
2,762799,-1426,496,-578,-172,-218,-94,92,46,-294
2,762814,-1424,495,-575,-161,-222,-92,92,46,-294
2,762825,-1426,495,-575,-173,-227,-99,92,46,-294
2,762840,-1426,495,-575,-173,-227,-99,92,46,-294
2,762853,-1425,495,-573,-178,-225,-101,89,39,-289
2,762866,-1424,498,-580,-186,-229,-100,89,39,-289
2,762882,-1424,498,-580,-186,-229,-100,89,39,-289
2,762896,-1425,495,-577,-176,-223,-98,89,39,-289
2,762909,-1427,494,-569,-170,-231,-96,89,39,-289
2,762924,-1430,497,-584,-151,-239,-94,89,39,-289
2,762938,-1430,497,-584,-151,-239,-94,89,39,-289
2,762952,-1428,495,-583,-164,-224,-97,89,39,-289
2,762966,-1430,498,-579,-170,-208,-101,84,42,-286
2,762978,-1430,498,-579,-170,-208,-101,84,42,-286
2,762991,-1424,497,-573,-144,-203,-93,84,42,-286
2,763004,-1425,495,-574,-143,-213,-96,84,42,-286
2,763018,-1425,495,-574,-143,-213,-96,84,42,-286
2,763033,-1425,497,-580,-163,-216,-97,84,42,-286
2,763044,-1429,496,-565,-205,-232,-115,84,42,-286
2,763058,-1429,496,-565,-205,-232,-115,84,42,-286
2,763071,-1425,498,-579,-180,-239,-157,84,42,-286
2,763085,-1424,497,-574,-193,-242,-166,84,42,-286
2,763100,-1424,497,-574,-193,-242,-166,84,42,-286
2,763111,-1425,504,-579,-187,-243,-156,89,41,-281
2,763124,-1426,498,-582,-129,-226,-120,89,41,-281
2,763140,-1426,498,-582,-129,-226,-120,89,41,-281
2,763152,-1428,496,-578,-173,-220,-109,89,41,-281
2,763163,-1428,496,-578,-173,-220,-109,89,41,-281
2,763175,-1427,501,-570,-220,-233,-133,89,41,-281
2,763189,-1426,499,-582,-148,-245,-126,89,41,-281
2,763203,-1426,499,-582,-148,-245,-126,89,41,-281
2,763214,-1426,498,-597,-127,-235,-108,89,41,-281
2,763228,-1428,498,-561,-121,-232,-95,90,42,-282
2,763242,-1428,498,-561,-121,-232,-95,90,42,-282
2,763255,-1424,497,-572,-135,-245,-95,90,42,-282
2,763269,-1428,499,-582,-162,-244,-101,90,42,-282
2,763283,-1428,499,-582,-162,-244,-101,90,42,-282
2,763294,-1425,500,-582,-145,-226,-98,90,42,-282
2,763309,-1425,498,-576,-126,-218,-91,90,42,-282
2,763323,-1425,498,-576,-126,-218,-91,90,42,-282
2,763337,-1429,498,-573,-138,-220,-91,90,42,-282
2,763351,-1425,496,-559,-138,-223,-87,94,40,-292
2,763365,-1425,497,-563,-157,-236,-81,94,40,-292
2,763381,-1425,497,-563,-157,-236,-81,94,40,-292
2,763394,-1426,497,-579,-162,-239,-82,94,40,-292
2,763407,-1426,497,-579,-162,-239,-82,94,40,-292
2,763422,-1426,497,-579,-162,-239,-82,94,40,-292
2,763437,-1430,497,-573,-166,-223,-98,94,40,-292
2,763448,-1428,498,-577,-140,-218,-89,94,40,-292
2,763460,-1428,498,-577,-140,-218,-89,94,40,-292
2,763474,-1425,493,-574,-172,-224,-95,90,38,-286
2,763488,-1425,502,-571,-155,-227,-95,90,38,-286
2,763502,-1425,502,-571,-155,-227,-95,90,38,-286
2,763514,-1427,500,-572,-161,-226,-93,90,38,-286
2,763527,-1427,494,-576,-160,-226,-91,90,38,-286
2,763541,-1427,494,-576,-160,-226,-91,90,38,-286
2,763555,-1426,500,-573,-164,-230,-100,90,38,-286
2,763570,-1425,500,-576,-167,-225,-89,90,38,-286
2,763584,-1430,497,-578,-160,-229,-103,100,32,-298
2,763597,-1430,497,-578,-160,-229,-103,100,32,-298
2,763610,-1426,500,-587,-163,-232,-91,100,32,-298
2,763624,-1426,501,-579,-160,-223,-91,100,32,-298
2,763639,-1426,501,-579,-160,-223,-91,100,32,-298
2,763652,-1424,500,-576,-163,-225,-88,100,32,-298
2,763665,-1426,496,-565,-172,-225,-83,100,32,-298
2,763679,-1426,496,-565,-172,-225,-83,100,32,-298
2,763694,-1426,496,-573,-169,-228,-91,100,32,-298
2,763707,-1426,501,-575,-160,-229,-99,100,32,-298
2,763720,-1426,501,-575,-160,-229,-99,100,32,-298
2,763736,-1426,497,-573,-151,-226,-99,85,47,-297
2,763749,-1423,501,-563,-158,-228,-97,85,47,-297
2,763762,-1423,501,-563,-158,-228,-97,85,47,-297
2,763776,-1424,497,-575,-182,-242,-94,85,47,-297
2,763789,-1426,498,-577,-190,-238,-96,85,47,-297
2,763803,-1426,498,-577,-190,-238,-96,85,47,-297
2,763817,-1428,500,-576,-162,-230,-93,85,47,-297
2,763829,-1427,499,-574,-152,-220,-92,85,47,-297
2,763844,-1425,497,-575,-136,-217,-88,85,47,-297
2,763859,-1425,497,-575,-136,-217,-88,87,41,-289
2,763875,-1428,501,-570,-129,-206,-87,87,41,-289
2,763890,-1429,500,-574,-159,-219,-96,87,41,-289
2,763904,-1429,500,-574,-159,-219,-96,87,41,-289
2,763917,-1427,502,-572,-185,-231,-94,87,41,-289
2,763932,-1429,500,-577,-170,-240,-94,87,41,-289
2,763947,-1426,501,-581,-158,-242,-96,87,41,-289
2,763959,-1426,501,-581,-158,-242,-96,87,41,-289
2,763972,-1429,498,-580,-164,-242,-95,90,34,-286
2,763985,-1426,498,-581,-153,-223,-98,90,34,-286
2,763998,-1426,498,-581,-153,-223,-98,90,34,-286
2,764011,-1425,498,-581,-119,-202,-94,90,34,-286
2,764022,-1425,498,-581,-119,-202,-94,90,34,-286
2,764037,-1426,495,-575,-136,-201,-90,90,34,-286
2,764051,-1425,501,-570,-153,-213,-97,90,34,-286
2,764065,-1429,497,-575,-146,-224,-87,90,34,-286
2,764080,-1429,497,-575,-146,-224,-87,90,34,-286
2,764094,-1427,500,-572,-184,-237,-94,96,44,-292
2,764109,-1424,496,-577,-189,-246,-90,96,44,-292
2,764122,-1424,496,-577,-189,-246,-90,96,44,-292
2,764135,-1427,501,-577,-171,-240,-101,96,44,-292
2,764149,-1425,498,-580,-158,-230,-98,96,44,-292
2,764163,-1425,498,-580,-158,-230,-98,96,44,-292
2,764176,-1427,498,-578,-154,-223,-98,96,44,-292
2,764190,-1424,500,-576,-134,-227,-86,96,44,-292
2,764205,-1424,500,-576,-134,-227,-86,96,44,-292
2,764218,-1422,499,-574,-146,-235,-94,90,40,-294
2,764231,-1428,500,-574,-175,-232,-92,90,40,-294
2,764244,-1426,502,-575,-166,-225,-93,90,40,-294
2,764258,-1426,502,-575,-166,-225,-93,90,40,-294
2,764272,-1425,499,-577,-152,-229,-91,90,40,-294
2,764282,-1425,499,-577,-152,-229,-91,90,40,-294
2,764297,-1425,499,-577,-182,-238,-96,90,40,-294
2,764311,-1427,497,-577,-179,-233,-95,90,40,-294
2,764324,-1426,497,-584,-233,-233,-97,90,40,-294
2,764339,-1426,497,-584,-233,-233,-97,90,40,-294
2,764354,-1428,502,-576,-256,-228,-99,90,40,-294
2,764370,-1430,502,-573,-213,-228,-102,90,40,-294
2,764385,-1430,502,-573,-213,-228,-102,90,40,-294
2,764398,-1430,502,-573,-213,-228,-102,90,40,-294
2,764411,-1427,497,-584,-149,-213,-95,90,40,-294
2,764426,-1429,500,-576,-132,-185,-93,90,40,-294
2,764438,-1429,500,-576,-132,-185,-93,90,40,-294
2,764453,-1428,499,-574,-137,-197,-88,90,40,-294
2,764469,-1430,498,-573,-139,-217,-96,89,33,-291
2,764481,-1430,498,-573,-139,-217,-96,89,33,-291
2,764494,-1430,501,-568,-147,-236,-99,89,33,-291
2,764509,-1430,498,-566,-144,-243,-94,89,33,-291
2,764523,-1430,498,-566,-144,-243,-94,89,33,-291
2,764539,-1428,498,-579,-136,-237,-92,89,33,-291
2,764554,-1425,494,-580,-138,-225,-89,89,33,-291
2,764569,-1427,500,-576,-153,-225,-97,89,33,-291
2,764582,-1427,500,-576,-153,-225,-97,89,33,-291
2,764597,-1425,497,-571,-147,-223,-92,89,41,-291
2,764610,-1428,497,-578,-150,-223,-98,89,41,-291
2,764621,-1428,497,-578,-150,-223,-98,89,41,-291
2,764634,-1427,498,-571,-162,-222,-90,89,41,-291
2,764648,-1426,497,-579,-161,-222,-87,89,41,-291
2,764661,-1426,497,-579,-161,-222,-87,89,41,-291
2,764675,-1426,496,-577,-157,-229,-84,89,41,-291
2,764689,-1425,496,-575,-160,-220,-86,89,41,-291
2,764701,-1425,496,-575,-160,-220,-86,89,41,-291
2,764716,-1428,498,-574,-163,-229,-91,99,39,-295
2,764729,-1429,494,-575,-154,-223,-93,99,39,-295
2,764742,-1429,494,-575,-154,-223,-93,99,39,-295
2,764758,-1430,500,-575,-162,-222,-89,99,39,-295
2,764772,-1427,498,-571,-171,-235,-85,99,39,-295
2,764784,-1427,498,-571,-171,-235,-85,99,39,-295
2,764800,-1429,499,-581,-181,-234,-89,99,39,-295
2,764815,-1425,500,-577,-155,-233,-95,99,39,-295
2,764824,-1425,500,-577,-155,-233,-95,99,39,-295
2,764838,-1426,497,-568,-146,-228,-94,93,35,-287
2,764853,-1428,503,-574,-186,-231,-94,93,35,-287
2,764866,-1425,500,-576,-184,-227,-92,93,35,-287
2,764879,-1425,500,-576,-184,-227,-92,93,35,-287
2,764889,-1423,502,-576,-171,-225,-90,93,35,-287
2,764902,-1423,502,-576,-171,-225,-90,93,35,-287
2,764915,-1426,496,-577,-142,-211,-93,93,35,-287
2,764929,-1426,501,-572,-167,-213,-93,93,35,-287
2,764943,-1426,501,-572,-167,-213,-93,93,35,-287
2,764956,-1427,499,-577,-175,-215,-92,92,38,-292
2,764968,-1426,498,-570,-147,-211,-89,92,38,-292
2,764982,-1426,498,-570,-147,-211,-89,92,38,-292
2,764993,-1427,497,-575,-153,-217,-92,92,38,-292
2,765007,-1423,499,-575,-154,-225,-95,92,38,-292
2,765019,-1423,499,-575,-154,-225,-95,92,38,-292
2,765034,-1426,499,-579,-175,-230,-95,92,38,-292
2,765049,-1425,498,-579,-186,-225,-94,92,38,-292
2,765065,-1425,498,-579,-186,-225,-94,92,38,-292
2,765079,-1429,497,-580,-172,-219,-97,92,38,-292
2,765090,-1427,499,-576,-153,-220,-91,89,45,-295
2,765105,-1427,499,-576,-153,-220,-91,89,45,-295
2,765118,-1430,496,-574,-158,-214,-92,89,45,-295
2,765131,-1426,499,-572,-168,-220,-97,89,45,-295
2,765145,-1427,501,-574,-163,-226,-100,89,45,-295
2,765157,-1427,501,-574,-163,-226,-100,89,45,-295
2,765170,-1428,499,-581,-156,-230,-96,89,45,-295
2,765184,-1428,499,-581,-156,-230,-96,89,45,-295
2,765193,-1426,495,-580,-132,-227,-93,89,45,-295
2,765206,-1429,502,-576,-138,-227,-90,81,41,-295
2,765219,-1429,502,-576,-138,-227,-90,81,41,-295
2,765233,-1428,498,-575,-156,-227,-94,81,41,-295
2,765247,-1430,498,-577,-169,-221,-94,81,41,-295
2,765260,-1430,498,-577,-169,-221,-94,81,41,-295
2,765272,-1430,498,-577,-169,-221,-94,81,41,-295
2,765286,-1427,500,-577,-243,-239,-98,81,41,-295
2,765301,-1427,500,-577,-243,-239,-98,81,41,-295
2,765315,-1428,496,-580,-184,-229,-87,81,41,-295
2,765327,-1428,497,-574,-146,-212,-87,91,49,-289
2,765341,-1428,497,-574,-146,-212,-87,91,49,-289
2,765356,-1422,500,-574,-126,-203,-85,91,49,-289
2,765369,-1425,498,-576,-104,-210,-82,91,49,-289
2,765382,-1425,498,-576,-104,-210,-82,91,49,-289
2,765395,-1429,496,-578,-125,-222,-94,91,49,-289
2,765407,-1427,496,-578,-140,-219,-99,91,49,-289
2,765421,-1427,496,-578,-140,-219,-99,91,49,-289
2,765437,-1429,496,-581,-139,-223,-91,91,49,-289
2,765451,-1426,501,-573,-135,-222,-95,89,39,-291
2,765464,-1426,501,-573,-135,-222,-95,89,39,-291
2,765478,-1425,495,-581,-124,-227,-97,89,39,-291
2,765489,-1426,501,-570,-137,-225,-94,89,39,-291
2,765503,-1426,501,-570,-137,-225,-94,89,39,-291
2,765515,-1428,492,-552,-170,-229,-85,89,39,-291
2,765530,-1425,500,-598,-158,-227,-88,89,39,-291
2,765538,-1425,500,-598,-158,-227,-88,89,39,-291
2,765547,-1426,495,-590,-138,-229,-89,89,39,-291
2,765562,-1426,495,-590,-138,-229,-89,89,39,-291
2,765578,-1429,488,-555,-176,-215,-94,95,39,-291
2,765592,-1425,498,-615,-169,-230,-93,95,39,-291
2,765605,-1425,502,-587,-153,-234,-97,95,39,-291
2,765619,-1425,502,-587,-153,-234,-97,95,39,-291
2,765633,-1428,497,-572,-158,-217,-95,95,39,-291
2,765647,-1427,500,-570,-158,-210,-97,95,39,-291
2,765660,-1427,500,-570,-158,-210,-97,95,39,-291
2,765674,-1428,503,-576,-161,-220,-101,95,39,-291
2,765688,-1428,494,-580,-161,-227,-93,95,39,-291
2,765702,-1428,494,-580,-161,-227,-93,95,39,-291
2,765716,-1426,500,-568,-163,-220,-92,88,36,-292
2,765729,-1429,496,-567,-206,-227,-94,88,36,-292
2,765743,-1429,496,-567,-206,-227,-94,88,36,-292
2,765756,-1428,500,-573,-172,-225,-97,88,36,-292
2,765769,-1425,498,-575,-151,-230,-95,88,36,-292
2,765779,-1425,498,-575,-151,-230,-95,88,36,-292
2,765795,-1426,499,-578,-156,-233,-97,88,36,-292
2,765810,-1427,498,-583,-170,-234,-97,88,36,-292
2,765826,-1427,500,-575,-166,-229,-99,88,36,-292
2,765839,-1427,500,-575,-166,-229,-99,91,43,-289
2,765853,-1427,497,-574,-165,-229,-98,91,43,-289
2,765868,-1426,499,-572,-151,-222,-99,91,43,-289
2,765879,-1426,499,-572,-151,-222,-99,91,43,-289
2,765891,-1427,499,-580,-145,-220,-87,91,43,-289
2,765904,-1427,499,-580,-145,-220,-87,91,43,-289
2,765918,-1427,500,-575,-168,-214,-93,91,43,-289
2,765932,-1426,499,-579,-176,-217,-89,91,43,-289
2,765946,-1430,501,-575,-192,-232,-88,89,39,-287
2,765959,-1430,501,-575,-192,-232,-88,89,39,-287
2,765973,-1425,496,-576,-177,-216,-93,89,39,-287
2,765988,-1429,496,-574,-162,-227,-94,89,39,-287
2,766003,-1429,496,-574,-162,-227,-94,89,39,-287
2,766015,-1426,497,-579,-142,-217,-95,89,39,-287
2,766030,-1424,499,-572,-150,-206,-94,89,39,-287
2,766046,-1424,499,-572,-150,-206,-94,89,39,-287
2,766061,-1428,498,-576,-150,-212,-98,89,39,-287
2,766074,-1428,501,-571,-135,-222,-99,94,36,-288
2,766088,-1427,501,-571,-123,-230,-87,94,36,-288
2,766102,-1427,501,-571,-123,-230,-87,94,36,-288
2,766113,-1426,494,-576,-144,-222,-99,94,36,-288
2,766128,-1425,497,-578,-213,-211,-101,94,36,-288
2,766142,-1425,497,-578,-213,-211,-101,94,36,-288
2,766155,-1428,499,-570,-243,-223,-98,94,36,-288
2,766169,-1426,500,-574,-227,-240,-93,94,36,-288
2,766183,-1426,500,-574,-227,-240,-93,94,36,-288
2,766196,-1426,496,-578,-180,-243,-93,89,39,-293
2,766209,-1428,501,-588,-148,-239,-91,89,39,-293
2,766224,-1428,501,-588,-148,-239,-91,89,39,-293
2,766238,-1428,498,-579,-142,-226,-95,89,39,-293
2,766254,-1429,499,-579,-142,-233,-97,89,39,-293
2,766269,-1426,502,-584,-115,-223,-86,89,39,-293
2,766280,-1426,502,-584,-115,-223,-86,89,39,-293
2,766295,-1428,499,-577,-105,-216,-87,89,39,-293
2,766309,-1426,498,-575,-130,-208,-88,89,39,-293
2,766322,-1426,498,-575,-130,-208,-88,89,39,-293
2,766336,-1424,500,-568,-133,-199,-96,95,43,-289
2,766350,-1424,498,-566,-137,-219,-95,95,43,-289
2,766364,-1424,498,-566,-137,-219,-95,95,43,-289
2,766377,-1426,495,-588,-166,-232,-89,95,43,-289
2,766391,-1425,501,-574,-159,-234,-86,95,43,-289
2,766405,-1425,501,-574,-159,-234,-86,95,43,-289
2,766419,-1425,497,-580,-179,-230,-96,95,43,-289
2,766434,-1425,495,-617,-166,-223,-94,95,43,-289
2,766448,-1429,499,-586,-139,-217,-88,101,37,-293
2,766464,-1429,499,-586,-139,-217,-88,101,37,-293
2,766477,-1424,502,-563,-141,-214,-97,101,37,-293
2,766491,-1430,498,-594,-159,-226,-94,101,37,-293
2,766507,-1426,494,-583,-152,-229,-99,101,37,-293
2,766522,-1426,494,-583,-152,-229,-99,101,37,-293
2,766534,-1426,497,-582,-175,-222,-97,101,37,-293
2,766546,-1426,494,-582,-175,-223,-93,101,37,-293
2,766561,-1426,494,-582,-175,-223,-93,101,37,-293
2,766574,-1425,495,-575,-170,-219,-96,94,42,-284
2,766587,-1425,498,-571,-162,-211,-97,94,42,-284
2,766602,-1425,498,-571,-162,-211,-97,94,42,-284
2,766613,-1425,500,-571,-156,-223,-88,94,42,-284
2,766626,-1427,500,-576,-162,-224,-95,94,42,-284
2,766641,-1427,500,-576,-162,-224,-95,94,42,-284
2,766654,-1426,499,-578,-175,-232,-94,94,42,-284
2,766669,-1427,496,-579,-171,-234,-100,94,42,-284
2,766685,-1427,496,-579,-171,-234,-100,94,42,-284
2,766700,-1429,501,-577,-153,-226,-101,98,38,-294
2,766715,-1426,497,-573,-163,-226,-100,98,38,-294
2,766729,-1424,496,-576,-188,-230,-92,98,38,-294
2,766742,-1424,496,-576,-188,-230,-92,98,38,-294
2,766755,-1427,497,-579,-171,-228,-92,98,38,-294
2,766766,-1427,497,-579,-171,-228,-92,98,38,-294
2,766779,-1425,499,-574,-163,-216,-99,98,38,-294
2,766793,-1428,495,-572,-144,-219,-99,98,38,-294
2,766807,-1425,500,-575,-143,-219,-91,98,38,-294
2,766820,-1425,500,-575,-143,-219,-91,88,46,-294
2,766834,-1424,498,-575,-163,-225,-97,88,46,-294
2,766848,-1425,497,-576,-176,-230,-108,88,46,-294
2,766861,-1425,497,-576,-176,-230,-108,88,46,-294
2,766876,-1428,497,-576,-173,-222,-97,88,46,-294
2,766892,-1425,497,-577,-156,-223,-94,88,46,-294
2,766907,-1425,499,-574,-163,-232,-96,88,46,-294
2,766921,-1425,499,-574,-163,-232,-96,88,46,-294
2,766935,-1424,501,-579,-154,-230,-90,88,46,-294
2,766948,-1426,501,-579,-136,-219,-87,88,40,-284
2,766961,-1426,501,-579,-136,-219,-87,88,40,-284
2,766974,-1424,499,-580,-113,-204,-90,88,40,-284
2,766989,-1428,497,-574,-64,-201,-89,88,40,-284
2,767003,-1428,497,-574,-64,-201,-89,88,40,-284
2,767012,-1425,494,-574,-160,-221,-99,88,40,-284
2,767027,-1425,494,-574,-160,-221,-99,88,40,-284
2,767040,-1425,500,-574,-345,-240,-110,88,40,-284
2,767053,-1424,504,-572,-293,-246,-104,88,40,-284
2,767068,-1423,499,-577,-166,-251,-95,92,36,-286
2,767080,-1423,499,-577,-166,-251,-95,92,36,-286
2,767094,-1425,496,-591,-104,-247,-84,92,36,-286
2,767110,-1425,498,-587,-156,-218,-87,92,36,-286
2,767125,-1425,498,-587,-156,-218,-87,92,36,-286
2,767137,-1427,497,-574,-155,-204,-96,92,36,-286
2,767151,-1428,497,-574,-146,-222,-99,92,36,-286
2,767166,-1428,497,-574,-146,-222,-99,92,36,-286
2,767179,-1425,497,-579,-141,-232,-96,92,36,-286
2,767193,-1426,498,-579,-122,-218,-92,89,45,-295
2,767205,-1426,498,-579,-122,-218,-92,89,45,-295
2,767216,-1424,497,-573,-129,-213,-91,89,45,-295
2,767230,-1428,497,-605,-160,-228,-83,89,45,-295
2,767244,-1428,497,-605,-160,-228,-83,89,45,-295
2,767257,-1426,499,-585,-155,-231,-93,89,45,-295
2,767271,-1427,499,-570,-155,-225,-98,89,45,-295
2,767283,-1427,499,-570,-155,-225,-98,89,45,-295
2,767296,-1423,495,-570,-140,-228,-97,89,45,-295
2,767309,-1424,517,-591,-120,-220,-93,94,38,-290
2,767324,-1424,517,-591,-120,-220,-93,94,38,-290
2,767338,-1425,494,-584,-131,-228,-92,94,38,-290
2,767353,-1429,488,-520,-210,-227,-97,94,38,-290
2,767369,-1426,482,-588,-176,-231,-96,94,38,-290
2,767385,-1426,482,-588,-176,-231,-96,94,38,-290
2,767403,-1422,492,-676,-184,-225,-103,94,38,-290
2,767418,-1425,500,-573,-171,-224,-97,94,38,-290
2,767431,-1425,501,-566,-154,-214,-91,87,45,-291
2,767444,-1425,501,-566,-154,-214,-91,87,45,-291
2,767458,-1426,498,-570,-149,-218,-96,87,45,-291
2,767472,-1427,497,-576,-146,-223,-97,87,45,-291
2,767485,-1427,497,-576,-146,-223,-97,87,45,-291
2,767499,-1428,502,-579,-155,-232,-94,87,45,-291
2,767513,-1425,497,-552,-213,-224,-103,87,45,-291
2,767526,-1425,497,-552,-213,-224,-103,87,45,-291
2,767540,-1425,500,-580,-219,-238,-99,87,45,-291
2,767553,-1429,497,-589,-157,-226,-99,87,45,-291
2,767565,-1429,497,-589,-157,-226,-99,87,45,-291
2,767579,-1424,499,-575,-146,-224,-87,85,43,-287
2,767594,-1424,497,-579,-154,-220,-99,85,43,-287
2,767607,-1424,497,-579,-154,-220,-99,85,43,-287
2,767622,-1428,498,-575,-135,-216,-94,85,43,-287
2,767637,-1427,497,-571,-134,-216,-94,85,43,-287
2,767651,-1426,498,-572,-156,-222,-93,85,43,-287
2,767666,-1426,498,-572,-156,-222,-93,85,43,-287
2,767679,-1426,499,-582,-162,-235,-91,85,43,-287
2,767693,-1425,497,-576,-180,-238,-96,93,49,-289
2,767704,-1425,497,-576,-180,-238,-96,93,49,-289
2,767719,-1426,499,-583,-175,-230,-100,93,49,-289
2,767732,-1426,498,-577,-164,-228,-95,93,49,-289
2,767746,-1426,498,-577,-164,-228,-95,93,49,-289
2,767760,-1427,497,-582,-147,-220,-95,93,49,-289
2,767774,-1422,494,-578,-140,-225,-97,93,49,-289
2,767789,-1426,498,-577,-131,-227,-93,93,49,-289
2,767801,-1426,498,-577,-131,-227,-93,93,49,-289
2,767815,-1426,496,-574,-123,-214,-91,89,39,-287
2,767826,-1426,496,-574,-123,-214,-91,89,39,-287
2,767837,-1427,498,-570,-111,-205,-88,89,39,-287
2,767850,-1427,492,-584,-109,-240,-86,89,39,-287
2,767864,-1427,492,-584,-109,-240,-86,89,39,-287
2,767879,-1428,497,-586,-283,-244,-100,89,39,-287
2,767891,-1427,502,-565,-370,-226,-107,89,39,-287
2,767903,-1427,502,-565,-370,-226,-107,89,39,-287
2,767918,-1426,499,-582,-160,-245,-92,89,39,-287
2,767931,-1430,496,-552,-69,-233,-84,92,46,-284
2,767945,-1430,496,-552,-69,-233,-84,92,46,-284
2,767960,-1427,497,-586,-126,-218,-89,92,46,-284
2,767974,-1427,496,-577,-140,-218,-95,92,46,-284
2,767987,-1428,497,-572,-146,-215,-100,92,46,-284
2,768001,-1428,497,-572,-146,-215,-100,92,46,-284
2,768014,-1423,498,-577,-154,-211,-103,92,46,-284
2,768028,-1425,500,-583,-128,-216,-97,92,46,-284
2,768041,-1425,500,-583,-128,-216,-97,92,46,-284
2,768057,-1426,498,-565,-110,-210,-90,90,46,-292
2,768072,-1424,498,-575,-153,-220,-91,90,46,-292
2,768087,-1424,498,-575,-153,-220,-91,90,46,-292
2,768101,-1425,495,-544,-170,-244,-93,90,46,-292
2,768114,-1427,493,-561,-161,-231,-93,90,46,-292
2,768128,-1427,493,-561,-161,-231,-93,90,46,-292
2,768144,-1426,502,-569,-164,-218,-93,90,46,-292
2,768159,-1426,497,-577,-163,-223,-93,90,46,-292
2,768173,-1425,496,-584,-157,-217,-92,90,46,-292
2,768185,-1425,496,-584,-157,-217,-92,90,46,-292
2,768198,-1429,500,-579,-157,-220,-98,90,46,-292
2,768212,-1425,499,-574,-162,-220,-96,90,46,-292
2,768227,-1425,499,-574,-162,-220,-96,90,46,-292
2,768238,-1427,498,-577,-162,-219,-99,90,46,-292
2,768251,-1426,501,-572,-171,-219,-98,90,46,-292
2,768267,-1426,501,-572,-171,-219,-98,90,46,-292
2,768282,-1426,499,-577,-164,-214,-97,90,46,-292
2,768297,-1424,497,-581,-162,-214,-91,90,46,-292
2,768311,-1428,498,-574,-158,-227,-91,95,35,-297
2,768322,-1428,498,-574,-158,-227,-91,95,35,-297
2,768336,-1424,497,-572,-163,-224,-105,95,35,-297
2,768351,-1427,497,-571,-160,-229,-103,95,35,-297
2,768364,-1427,497,-571,-160,-229,-103,95,35,-297
2,768378,-1426,497,-577,-167,-221,-98,95,35,-297
2,768391,-1425,498,-576,-178,-215,-92,95,35,-297
2,768402,-1425,498,-576,-178,-215,-92,95,35,-297
2,768416,-1426,497,-584,-178,-216,-98,95,35,-297
2,768425,-1426,497,-584,-178,-216,-98,95,35,-297
2,768438,-1426,497,-584,-178,-216,-98,92,40,-294
2,768452,-1428,498,-576,-149,-222,-91,92,40,-294
2,768460,-1428,498,-576,-149,-222,-91,92,40,-294
2,768468,-1428,498,-576,-149,-222,-91,92,40,-294
2,768476,-1426,498,-574,-159,-221,-88,92,40,-294
2,768484,-1426,498,-574,-159,-221,-88,92,40,-294
2,768492,-1429,497,-577,-169,-225,-92,92,40,-294
2,768503,-1429,497,-577,-169,-225,-92,92,40,-294
2,768513,-1427,496,-577,-176,-221,-103,92,40,-294
2,768523,-1427,496,-577,-176,-221,-103,92,40,-294
2,768532,-1429,498,-580,-175,-217,-97,92,40,-294
2,768540,-1429,498,-580,-175,-217,-97,92,40,-294
2,768549,-1427,500,-571,-171,-218,-99,88,36,-290
2,768563,-1427,500,-571,-171,-218,-99,88,36,-290
2,768576,-1428,502,-575,-164,-226,-97,88,36,-290
2,768589,-1425,499,-575,-171,-226,-100,88,36,-290
2,768603,-1425,499,-575,-171,-226,-100,88,36,-290
2,768617,-1427,498,-576,-166,-225,-99,88,36,-290
2,768630,-1428,496,-578,-173,-222,-94,88,36,-290
2,768645,-1428,496,-578,-173,-222,-94,88,36,-290
2,768657,-1424,497,-601,-165,-222,-93,88,36,-290
2,768670,-1425,499,-589,-154,-226,-97,92,34,-292
2,768686,-1425,499,-589,-154,-226,-97,92,34,-292
2,768701,-1424,498,-573,-151,-222,-92,92,34,-292
2,768716,-1427,498,-573,-147,-228,-99,92,34,-292
2,768730,-1426,501,-574,-149,-236,-101,92,34,-292
2,768743,-1426,501,-574,-149,-236,-101,92,34,-292
2,768756,-1424,498,-580,-142,-236,-99,92,34,-292
2,768770,-1426,495,-580,-145,-220,-96,92,34,-292
2,768784,-1426,495,-580,-145,-220,-96,92,34,-292
2,768797,-1428,501,-580,-151,-213,-98,83,51,-291
2,768813,-1425,499,-577,-174,-223,-99,83,51,-291
2,768825,-1425,499,-577,-174,-223,-99,83,51,-291
2,768838,-1430,497,-578,-203,-231,-88,83,51,-291
2,768852,-1429,498,-583,-198,-234,-101,83,51,-291
2,768866,-1429,498,-583,-198,-234,-101,83,51,-291
2,768880,-1428,499,-581,-165,-233,-97,83,51,-291
2,768894,-1427,499,-579,-149,-230,-88,83,51,-291
2,768908,-1427,499,-579,-149,-230,-88,83,51,-291
2,768921,-1430,498,-580,-154,-242,-94,83,51,-291
2,768936,-1429,507,-570,-157,-221,-98,94,40,-296
2,768951,-1427,502,-589,-133,-223,-89,94,40,-296
2,768963,-1427,502,-589,-133,-223,-89,94,40,-296
2,768975,-1427,498,-574,-112,-213,-94,94,40,-296
2,768990,-1429,500,-580,-180,-226,-95,94,40,-296
2,769003,-1429,500,-580,-180,-226,-95,94,40,-296
2,769017,-1427,499,-584,-185,-231,-88,94,40,-296
2,769031,-1425,496,-578,-164,-232,-96,94,40,-296
2,769042,-1425,496,-578,-164,-232,-96,94,40,-296
2,769055,-1426,496,-587,-156,-229,-91,93,41,-291
2,769069,-1423,498,-582,-165,-223,-93,93,41,-291
2,769083,-1423,498,-582,-165,-223,-93,93,41,-291
2,769097,-1431,496,-578,-155,-226,-93,93,41,-291
2,769113,-1428,493,-578,-145,-232,-94,93,41,-291
2,769129,-1428,493,-578,-145,-232,-94,93,41,-291
2,769143,-1429,497,-580,-136,-234,-102,93,41,-291
2,769158,-1426,498,-578,-124,-238,-92,93,41,-291
2,769171,-1425,498,-570,-145,-240,-92,94,40,-292
2,769185,-1425,498,-570,-145,-240,-92,94,40,-292
2,769201,-1426,495,-573,-138,-247,-89,94,40,-292
2,769212,-1424,498,-581,-168,-258,-69,94,40,-292
2,769225,-1424,498,-581,-168,-258,-69,94,40,-292
2,769240,-1428,498,-588,-215,-254,-45,94,40,-292
2,769253,-1427,501,-592,-208,-226,-68,94,40,-292
2,769267,-1427,501,-592,-208,-226,-68,94,40,-292
2,769280,-1429,497,-588,-163,-201,-89,94,40,-292
2,769292,-1426,499,-575,-152,-192,-92,91,45,-299
2,769306,-1426,499,-575,-152,-192,-92,91,45,-299
2,769319,-1427,499,-569,-163,-189,-86,91,45,-299
2,769333,-1429,494,-570,-152,-193,-90,91,45,-299
2,769348,-1429,494,-570,-152,-193,-90,91,45,-299
2,769363,-1428,499,-569,-150,-195,-91,91,45,-299
2,769379,-1427,498,-575,-156,-212,-97,91,45,-299
2,769393,-1426,499,-580,-157,-218,-92,91,45,-299
2,769406,-1426,499,-580,-157,-218,-92,91,45,-299
2,769421,-1425,497,-574,-148,-218,-96,92,38,-286
2,769430,-1428,499,-578,-150,-226,-91,92,38,-286
2,769443,-1428,499,-578,-150,-226,-91,92,38,-286
2,769458,-1426,500,-577,-155,-225,-82,92,38,-286
2,769471,-1428,499,-577,-156,-234,-92,92,38,-286
2,769485,-1428,499,-577,-156,-234,-92,92,38,-286
2,769500,-1428,499,-573,-164,-233,-101,92,38,-286
2,769511,-1426,501,-580,-159,-228,-97,92,38,-286
2,769525,-1426,501,-580,-159,-228,-97,92,38,-286
2,769540,-1423,497,-576,-163,-227,-93,92,38,-286
2,769554,-1425,498,-576,-161,-233,-94,87,45,-289
2,769567,-1425,498,-576,-161,-233,-94,87,45,-289
2,769583,-1427,496,-576,-160,-231,-96,87,45,-289
2,769597,-1427,496,-576,-160,-231,-96,87,45,-289
2,769612,-1425,499,-578,-159,-231,-100,87,45,-289
2,769627,-1425,499,-578,-159,-231,-100,87,45,-289
2,769640,-1427,496,-578,-159,-228,-92,87,45,-289
2,769654,-1428,498,-575,-160,-228,-94,87,45,-289
2,769669,-1428,498,-575,-160,-228,-94,87,45,-289
2,769681,-1426,498,-575,-166,-224,-91,91,37,-293
2,769694,-1426,500,-579,-167,-227,-95,91,37,-293
2,769708,-1426,500,-579,-167,-227,-95,91,37,-293
2,769722,-1429,500,-575,-153,-221,-97,91,37,-293
2,769735,-1428,502,-578,-161,-227,-95,91,37,-293
2,769747,-1428,502,-578,-161,-227,-95,91,37,-293
2,769760,-1425,500,-576,-165,-219,-94,91,37,-293
2,769775,-1427,497,-578,-160,-225,-89,91,37,-293
2,769790,-1428,499,-576,-164,-222,-95,90,40,-288
2,769806,-1428,499,-576,-164,-222,-95,90,40,-288
2,769820,-1425,501,-578,-157,-223,-91,90,40,-288
2,769832,-1426,500,-575,-163,-228,-89,90,40,-288
2,769848,-1426,500,-575,-163,-228,-89,90,40,-288
2,769863,-1426,498,-578,-169,-229,-90,90,40,-288
2,769876,-1428,498,-578,-168,-232,-93,90,40,-288
2,769890,-1427,501,-575,-164,-232,-93,90,40,-288
2,769904,-1427,501,-575,-164,-232,-93,90,40,-288
2,769920,-1425,497,-577,-160,-228,-91,88,36,-290
2,769934,-1424,498,-572,-160,-225,-92,88,36,-290
2,769945,-1424,498,-572,-160,-225,-92,88,36,-290
2,769958,-1426,497,-574,-161,-225,-94,88,36,-290
2,769973,-1427,497,-575,-162,-222,-92,88,36,-290
2,769986,-1427,497,-575,-162,-222,-92,88,36,-290
2,770000,-1426,497,-580,-162,-225,-92,88,36,-290
2,770014,-1426,498,-577,-156,-226,-103,88,36,-290
2,770027,-1426,498,-577,-156,-226,-103,88,36,-290
2,770042,-1429,498,-575,-161,-222,-96,89,37,-295
2,770057,-1427,499,-577,-166,-227,-93,89,37,-295
2,770070,-1426,494,-582,-160,-221,-91,89,37,-295
2,770083,-1426,494,-582,-160,-221,-91,89,37,-295
2,770098,-1424,498,-577,-157,-223,-90,89,37,-295
2,770111,-1425,496,-579,-161,-227,-91,89,37,-295
2,770126,-1425,496,-579,-161,-227,-91,89,37,-295
2,770140,-1423,495,-581,-163,-229,-96,89,37,-295
2,770153,-1424,497,-582,-165,-224,-91,89,37,-295
2,770167,-1424,497,-582,-165,-224,-91,89,37,-295
2,770181,-1427,498,-574,-165,-222,-88,87,39,-293
2,770195,-1426,498,-578,-163,-226,-87,87,39,-293
2,770208,-1426,498,-578,-163,-226,-87,87,39,-293
2,770223,-1426,497,-578,-162,-220,-89,87,39,-293
2,770237,-1425,495,-577,-156,-224,-89,87,39,-293
2,770252,-1426,499,-573,-157,-226,-87,87,39,-293
2,770269,-1426,499,-573,-157,-226,-87,87,39,-293
2,770283,-1426,498,-576,-154,-223,-89,87,39,-293
2,770297,-1425,497,-571,-158,-223,-93,89,43,-283
2,770312,-1425,495,-577,-161,-224,-87,89,43,-283
2,770326,-1425,495,-577,-161,-224,-87,89,43,-283
2,770338,-1425,495,-579,-160,-231,-89,89,43,-283
2,770352,-1430,498,-578,-155,-237,-98,89,43,-283
2,770365,-1430,498,-578,-155,-237,-98,89,43,-283
2,770378,-1425,499,-572,-153,-226,-92,89,43,-283
2,770393,-1425,497,-582,-154,-224,-92,89,43,-283
2,770406,-1425,497,-582,-154,-224,-92,89,43,-283
2,770418,-1424,497,-574,-158,-215,-91,87,47,-297
2,770430,-1425,493,-576,-162,-215,-91,87,47,-297
2,770444,-1425,493,-576,-162,-215,-91,87,47,-297
2,770457,-1426,494,-574,-159,-221,-97,87,47,-297
2,770471,-1427,497,-578,-159,-225,-95,87,47,-297
2,770486,-1427,497,-578,-159,-225,-95,87,47,-297
2,770498,-1426,495,-578,-162,-226,-88,87,47,-297
2,770512,-1425,497,-578,-164,-230,-99,87,47,-297
2,770529,-1425,497,-578,-164,-230,-99,87,47,-297
2,770543,-1426,497,-579,-161,-229,-92,90,40,-286
2,770556,-1425,497,-569,-163,-221,-89,90,40,-286
2,770569,-1425,497,-569,-163,-221,-89,90,40,-286
2,770584,-1428,499,-577,-161,-225,-93,90,40,-286
2,770597,-1431,507,-402,-173,-203,-98,90,40,-286
2,770612,-1418,487,-478,-199,-212,-214,90,40,-286
2,770625,-1418,487,-478,-199,-212,-214,90,40,-286
2,770639,-1425,488,-524,-141,-296,-220,90,40,-286
2,770652,-1426,505,-592,-167,-201,-121,88,32,-290
2,770665,-1426,505,-592,-167,-201,-121,88,32,-290
2,770680,-1427,498,-586,-146,-207,-101,88,32,-290
2,770694,-1426,500,-590,-157,-231,-97,88,32,-290
2,770707,-1426,500,-590,-157,-231,-97,88,32,-290
2,770722,-1427,498,-592,-166,-264,-101,88,32,-290
2,770738,-1428,501,-587,-138,-296,-104,88,32,-290
2,770753,-1429,495,-569,-109,-361,-83,88,32,-290
2,770767,-1429,495,-569,-109,-361,-83,88,32,-290
2,770782,-1429,495,-582,-170,-394,-69,88,32,-290
2,770795,-1452,300,-582,-197,-385,-61,95,43,-301
2,770809,-1452,300,-582,-197,-385,-61,95,43,-301
2,770822,-1411,562,-588,-198,-328,-413,95,43,-301
2,770835,-1411,568,-583,-185,-248,-39,95,43,-301
2,770849,-1411,568,-583,-185,-248,-39,95,43,-301
2,770863,-1430,523,-581,-185,-227,419,95,43,-301
2,770876,-1437,507,-576,-223,-238,389,95,43,-301
2,770889,-1437,507,-576,-223,-238,389,95,43,-301
2,770902,-1433,506,-583,-233,-249,112,95,43,-301
2,770916,-1429,502,-573,-222,-243,-19,91,35,-331
2,770930,-1429,502,-573,-222,-243,-19,91,35,-331
2,770944,-1428,495,-585,-210,-233,-39,91,35,-331
2,770958,-1425,493,-583,-201,-239,-24,91,35,-331
2,770969,-1425,493,-583,-201,-239,-24,91,35,-331
2,770982,-1426,494,-587,-191,-235,-19,91,35,-331
2,770991,-1426,494,-587,-191,-235,-19,91,35,-331
2,771000,-1424,494,-583,-175,-241,-17,91,35,-331
2,771014,-1425,489,-582,-143,-236,-2,91,35,-331
2,771028,-1425,489,-582,-143,-236,-2,91,35,-331
2,771042,-1426,494,-579,-113,-221,36,88,36,-310
2,771053,-1429,498,-577,-107,-228,12,88,36,-310
2,771066,-1429,498,-577,-107,-228,12,88,36,-310
2,771081,-1426,495,-585,-118,-163,-79,88,36,-310
2,771094,-1426,490,-583,-126,11,-109,88,36,-310
2,771108,-1426,490,-583,-126,11,-109,88,36,-310
2,771122,-1439,494,-589,-136,-4,-182,88,36,-310
2,771135,-1427,493,-591,-150,-92,-440,88,36,-310
2,771148,-1427,493,-591,-150,-92,-440,88,36,-310
2,771162,-1422,495,-572,-147,-182,-509,88,42,-278
2,771176,-1421,499,-560,-150,-201,-370,88,42,-278
2,771190,-1421,499,-560,-150,-201,-370,88,42,-278
2,771204,-1426,494,-570,-147,-219,-217,88,42,-278
2,771217,-1422,494,-578,-166,-211,-169,88,42,-278
2,771231,-1422,500,-582,-173,-203,-102,88,42,-278
2,771247,-1422,500,-582,-173,-203,-102,88,42,-278
2,771260,-1415,508,-580,-163,-205,-58,88,42,-278
2,771272,-1422,494,-572,-163,-213,146,83,35,-279
2,771287,-1422,494,-572,-163,-213,146,83,35,-279
2,771301,-1425,499,-579,-155,-221,248,83,35,-279
2,771314,-1433,486,-574,-140,-215,161,83,35,-279
2,771329,-1433,486,-574,-140,-215,161,83,35,-279
2,771344,-1429,494,-580,-155,-223,11,83,35,-279
2,771357,-1426,492,-575,-169,-237,-88,83,35,-279
2,771368,-1426,492,-575,-169,-237,-88,83,35,-279
2,771383,-1425,492,-578,-174,-237,-112,83,35,-279
2,771398,-1426,492,-577,-168,-225,-114,83,35,-279
2,771411,-1428,493,-571,-146,-218,-109,90,38,-284
2,771426,-1428,493,-571,-146,-218,-109,90,38,-284
2,771441,-1427,493,-577,-144,-212,-106,90,38,-284
2,771456,-1430,495,-577,-148,-220,-105,90,38,-284
2,771469,-1430,495,-577,-148,-220,-105,90,38,-284
2,771484,-1428,492,-578,-147,-221,-101,90,38,-284
2,771499,-1429,498,-574,-148,-226,-103,90,38,-284
2,771512,-1426,492,-580,-154,-223,-105,90,38,-284
2,771523,-1426,492,-580,-154,-223,-105,90,38,-284
2,771536,-1421,495,-570,-144,-220,-92,90,38,-284
2,771550,-1421,495,-570,-144,-220,-92,90,38,-284
2,771563,-1422,487,-582,-159,-219,-89,90,38,-284
2,771577,-1426,494,-582,-157,-218,-87,90,38,-284
2,771589,-1426,494,-582,-157,-218,-87,90,38,-284
2,771603,-1427,494,-573,-158,-220,-93,90,38,-284
2,771618,-1424,494,-579,-157,-226,-94,90,38,-284
2,771633,-1427,495,-575,-160,-233,-98,90,38,-284
2,771646,-1427,495,-575,-160,-233,-98,90,38,-284
2,771661,-1425,490,-571,-157,-238,-100,83,39,-285
2,771677,-1426,491,-575,-159,-232,-96,83,39,-285
2,771691,-1428,492,-574,-167,-237,-105,83,39,-285
2,771706,-1428,492,-574,-167,-237,-105,83,39,-285
2,771720,-1427,492,-579,-162,-229,-99,83,39,-285
2,771734,-1428,492,-582,-161,-220,-105,83,39,-285
2,771747,-1428,492,-582,-161,-220,-105,83,39,-285
2,771760,-1424,496,-583,-163,-224,-105,83,39,-285
2,771772,-1423,493,-578,-161,-232,-101,89,35,-279
2,771785,-1423,493,-578,-161,-232,-101,89,35,-279
2,771800,-1426,492,-576,-165,-225,-96,89,35,-279
2,771813,-1426,493,-570,-162,-235,-107,89,35,-279
2,771825,-1426,493,-570,-162,-235,-107,89,35,-279
2,771837,-1427,493,-574,-167,-245,-127,89,35,-279
2,771852,-1427,492,-577,-168,-246,-117,89,35,-279
2,771861,-1427,492,-577,-168,-246,-117,89,35,-279
2,771874,-1425,495,-583,-162,-224,-111,89,35,-279
2,771888,-1425,495,-583,-162,-224,-111,89,35,-279
2,771902,-1428,492,-563,-164,-201,-111,83,37,-275
2,771917,-1426,493,-572,-151,-202,-117,83,37,-275
2,771930,-1426,493,-572,-151,-202,-117,83,37,-275
2,771943,-1429,492,-576,-159,-211,-114,83,37,-275
2,771957,-1425,492,-577,-161,-226,-108,83,37,-275
2,771972,-1426,497,-582,-158,-240,-102,83,37,-275
2,771985,-1426,497,-582,-158,-240,-102,83,37,-275
2,771999,-1426,497,-581,-165,-231,-103,83,37,-275
2,772014,-1426,493,-578,-165,-229,-103,83,37,-275
2,772026,-1426,493,-578,-165,-229,-103,83,37,-275
2,772038,-1426,497,-579,-168,-230,-101,88,40,-284
2,772051,-1426,489,-573,-176,-227,-100,88,40,-284
2,772066,-1426,489,-573,-176,-227,-100,88,40,-284
2,772080,-1427,497,-572,-172,-231,-99,88,40,-284
2,772090,-1427,497,-572,-172,-231,-99,88,40,-284
2,772106,-1427,494,-584,-172,-231,-101,88,40,-284
2,772119,-1426,492,-582,-166,-222,-102,88,40,-284
2,772133,-1429,492,-579,-169,-221,-103,88,40,-284
2,772148,-1429,492,-579,-169,-221,-103,88,40,-284
2,772160,-1425,491,-570,-162,-225,-106,82,50,-286
2,772174,-1422,494,-579,-156,-227,-107,82,50,-286
2,772189,-1422,494,-579,-156,-227,-107,82,50,-286
2,772203,-1425,495,-575,-159,-213,-101,82,50,-286
2,772217,-1426,493,-577,-161,-226,-103,82,50,-286
2,772229,-1426,493,-577,-161,-226,-103,82,50,-286
2,772242,-1427,497,-579,-167,-223,-100,82,50,-286
2,772255,-1427,492,-579,-163,-222,-101,82,50,-286
2,772270,-1427,492,-579,-163,-222,-101,82,50,-286
2,772283,-1426,491,-579,-147,-224,-102,85,43,-281
2,772297,-1429,493,-575,-146,-227,-102,85,43,-281
2,772310,-1429,493,-575,-146,-227,-102,85,43,-281
2,772323,-1426,493,-579,-138,-221,-101,85,43,-281
2,772336,-1429,497,-609,-155,-201,-109,85,43,-281
2,772350,-1429,497,-609,-155,-201,-109,85,43,-281
2,772365,-1425,494,-603,-119,-221,-176,85,43,-281
2,772379,-1428,497,-579,-146,-224,-109,85,43,-281
2,772391,-1428,497,-579,-146,-224,-109,85,43,-281
2,772405,-1426,499,-568,-147,-223,-95,82,40,-288
2,772418,-1426,494,-580,-157,-214,-87,82,40,-288
2,772432,-1424,491,-572,-150,-213,-93,82,40,-288
2,772448,-1424,491,-572,-150,-213,-93,82,40,-288
2,772461,-1428,493,-579,-165,-215,-93,82,40,-288
2,772474,-1426,497,-578,-157,-217,-102,82,40,-288
2,772488,-1426,497,-578,-157,-217,-102,82,40,-288
2,772503,-1428,493,-579,-164,-222,-97,82,40,-288
2,772514,-1428,493,-579,-166,-228,-94,91,41,-291
2,772527,-1428,493,-579,-166,-228,-94,91,41,-291
2,772540,-1427,493,-579,-158,-230,-94,91,41,-291
2,772554,-1425,494,-573,-159,-238,-92,91,41,-291
2,772568,-1425,494,-573,-159,-238,-92,91,41,-291
2,772581,-1424,495,-578,-160,-230,-91,91,41,-291
2,772592,-1429,496,-590,-174,-238,-98,91,41,-291
2,772606,-1429,496,-590,-174,-238,-98,91,41,-291
2,772620,-1425,496,-583,-172,-226,-92,91,41,-291
2,772634,-1427,494,-574,-166,-215,-88,86,44,-294
2,772649,-1427,494,-574,-166,-215,-88,86,44,-294
2,772665,-1422,494,-571,-167,-224,-86,86,44,-294
2,772680,-1424,493,-576,-165,-225,-92,86,44,-294
2,772696,-1422,493,-572,-163,-224,-57,86,44,-294
2,772710,-1422,493,-572,-163,-224,-57,86,44,-294
2,772723,-1429,497,-573,-158,-238,-34,86,44,-294
2,772736,-1426,497,-578,-155,-217,-83,86,44,-294
2,772747,-1426,497,-578,-155,-217,-83,86,44,-294
2,772760,-1426,492,-572,-160,-211,-100,86,44,-294
2,772773,-1424,494,-569,-161,-220,-92,88,44,-294
2,772787,-1424,494,-569,-161,-220,-92,88,44,-294
2,772801,-1427,495,-575,-176,-219,-88,88,44,-294
2,772812,-1427,495,-575,-176,-219,-88,88,44,-294
2,772826,-1426,493,-575,-169,-213,-92,88,44,-294
2,772839,-1425,494,-570,-168,-205,-91,88,44,-294
2,772852,-1427,496,-577,-161,-214,-94,88,44,-294
2,772868,-1427,496,-577,-161,-214,-94,88,44,-294
2,772883,-1426,492,-565,-151,-210,-102,88,44,-294
2,772898,-1426,498,-543,-144,-235,-90,89,45,-299
2,772913,-1424,490,-580,-156,-236,-93,89,45,-299
2,772927,-1424,490,-580,-156,-236,-93,89,45,-299
2,772941,-1426,491,-572,-158,-226,-100,89,45,-299
2,772953,-1426,491,-572,-158,-226,-100,89,45,-299
2,772967,-1426,491,-572,-158,-226,-100,89,45,-299
2,772979,-1425,495,-578,-155,-222,-96,89,45,-299
2,772994,-1428,491,-577,-156,-228,-95,89,45,-299
2,773007,-1428,491,-577,-156,-228,-95,89,45,-299
2,773020,-1423,494,-577,-158,-224,-97,92,40,-290
2,773033,-1428,494,-572,-161,-212,-95,92,40,-290
2,773046,-1428,494,-572,-161,-212,-95,92,40,-290
2,773059,-1424,493,-574,-161,-220,-87,92,40,-290
2,773072,-1424,493,-574,-161,-220,-87,92,40,-290
2,773086,-1429,496,-581,-161,-224,-97,92,40,-290
2,773100,-1427,495,-580,-160,-221,-107,92,40,-290
2,773111,-1427,495,-580,-160,-221,-107,92,40,-290
2,773127,-1423,495,-581,-155,-224,-100,92,40,-290
