imu,time,ax,ay,az,gx,gy,gz,mx,my,mz
2,1893541,-1426,500,-575,-165,-226,-88,94,-22,-258
2,1893551,-1426,500,-575,-165,-226,-88,94,-22,-258
2,1893559,-1428,499,-575,-164,-234,-90,94,-22,-258
2,1893574,-1428,499,-575,-164,-234,-90,94,-22,-258
2,1893586,-1427,500,-578,-162,-235,-83,94,-22,-258
2,1893600,-1426,497,-580,-168,-226,-76,94,-22,-258
2,1893615,-1427,498,-571,-169,-228,-82,94,-22,-258
2,1893628,-1427,498,-571,-169,-228,-82,94,-12,-252
2,1893642,-1426,496,-573,-161,-225,-79,94,-12,-252
2,1893656,-1425,498,-575,-159,-227,-86,94,-12,-252
2,1893668,-1425,498,-575,-159,-227,-86,94,-12,-252
2,1893681,-1426,495,-574,-162,-231,-93,94,-12,-252
2,1893695,-1428,497,-579,-161,-234,-95,94,-12,-252
2,1893709,-1428,497,-579,-161,-234,-95,94,-12,-252
2,1893723,-1424,499,-575,-162,-229,-86,94,-12,-252
2,1893737,-1426,501,-571,-161,-225,-83,94,-14,-256
2,1893747,-1426,501,-571,-161,-225,-83,94,-14,-256
2,1893760,-1426,502,-575,-160,-223,-86,94,-14,-256
2,1893775,-1426,502,-575,-160,-223,-86,94,-14,-256
2,1893788,-1427,497,-574,-157,-225,-90,94,-14,-256
2,1893801,-1425,501,-576,-168,-221,-87,94,-14,-256
2,1893816,-1425,499,-579,-160,-220,-85,94,-14,-256
2,1893828,-1425,499,-579,-160,-220,-85,94,-14,-256
2,1893842,-1426,502,-574,-168,-231,-90,94,-14,-256
2,1893855,-1426,502,-574,-168,-231,-90,94,-14,-256
2,1893866,-1423,498,-571,-165,-230,-89,85,-13,-253
2,1893878,-1426,500,-573,-159,-235,-78,85,-13,-253
2,1893893,-1426,500,-573,-159,-235,-78,85,-13,-253
2,1893905,-1425,499,-575,-161,-230,-78,85,-13,-253
2,1893916,-1426,500,-572,-168,-227,-85,85,-13,-253
2,1893931,-1426,500,-572,-168,-227,-85,85,-13,-253
2,1893944,-1425,500,-582,-158,-231,-98,85,-13,-253
2,1893958,-1423,500,-577,-158,-220,-96,85,-13,-253
2,1893971,-1423,500,-577,-158,-220,-96,85,-13,-253
2,1893984,-1424,499,-574,-164,-226,-82,85,-5,-249
2,1893996,-1426,499,-571,-166,-232,-89,85,-5,-249
2,1894011,-1426,499,-571,-166,-232,-89,85,-5,-249
2,1894022,-1427,499,-579,-164,-231,-94,85,-5,-249
2,1894037,-1425,499,-577,-163,-229,-85,85,-5,-249
2,1894051,-1425,499,-577,-163,-229,-85,85,-5,-249
2,1894068,-1425,499,-574,-164,-244,-82,85,-5,-249
2,1894081,-1426,499,-578,-162,-240,-82,85,-5,-249
2,1894095,-1426,499,-578,-162,-240,-82,85,-5,-249
2,1894110,-1425,498,-572,-159,-226,-93,93,-19,-249
2,1894120,-1427,498,-574,-157,-220,-83,93,-19,-249
2,1894128,-1427,498,-574,-157,-220,-83,93,-19,-249
2,1894136,-1426,499,-575,-160,-234,-88,93,-19,-249
2,1894149,-1426,499,-575,-160,-234,-88,93,-19,-249
2,1894157,-1426,499,-575,-155,-232,-86,93,-19,-249
2,1894165,-1426,499,-575,-155,-232,-86,93,-19,-249
2,1894173,-1426,499,-575,-155,-232,-86,93,-19,-249
2,1894182,-1427,499,-575,-160,-231,-89,93,-19,-249
2,1894190,-1427,499,-575,-160,-231,-89,93,-19,-249
2,1894199,-1424,497,-574,-163,-229,-85,93,-19,-249
2,1894206,-1424,497,-574,-163,-229,-85,93,-19,-249
2,1894214,-1424,497,-574,-163,-229,-85,93,-19,-249
2,1894222,-1426,496,-578,-166,-233,-79,93,-19,-249
2,1894232,-1426,496,-578,-166,-233,-79,93,-19,-249
2,1894240,-1426,498,-572,-161,-232,-89,87,-23,-257
2,1894249,-1426,498,-572,-161,-232,-89,87,-23,-257
2,1894257,-1425,498,-574,-163,-229,-94,87,-23,-257
2,1894265,-1425,498,-574,-163,-229,-94,87,-23,-257
2,1894274,-1425,498,-574,-163,-229,-94,87,-23,-257
2,1894282,-1426,499,-577,-162,-226,-82,87,-23,-257
2,1894290,-1426,499,-577,-162,-226,-82,87,-23,-257
2,1894297,-1423,498,-571,-163,-233,-91,87,-23,-257
2,1894305,-1423,498,-571,-163,-233,-91,87,-23,-257
2,1894312,-1423,498,-571,-163,-233,-91,87,-23,-257
2,1894321,-1425,496,-577,-159,-235,-91,87,-23,-257
2,1894329,-1425,496,-577,-159,-235,-91,87,-23,-257
2,1894337,-1425,499,-578,-154,-228,-93,87,-23,-257
2,1894344,-1425,499,-578,-154,-228,-93,87,-23,-257
2,1894352,-1425,499,-578,-154,-228,-93,87,-23,-257
2,1894360,-1427,498,-569,-156,-232,-90,88,-18,-252
2,1894368,-1427,498,-569,-156,-232,-90,88,-18,-252
2,1894376,-1425,499,-573,-157,-226,-86,88,-18,-252
2,1894390,-1425,499,-573,-157,-226,-86,88,-18,-252
2,1894404,-1426,498,-577,-156,-231,-91,88,-18,-252
2,1894417,-1425,499,-572,-157,-230,-90,88,-18,-252
2,1894431,-1425,499,-572,-157,-230,-90,88,-18,-252
2,1894445,-1424,499,-580,-157,-230,-87,88,-18,-252
2,1894458,-1425,498,-579,-158,-236,-84,88,-18,-252
2,1894470,-1425,498,-579,-158,-236,-84,88,-18,-252
2,1894483,-1424,499,-575,-163,-230,-84,91,-17,-257
2,1894493,-1424,499,-575,-163,-230,-84,91,-17,-257
2,1894502,-1428,495,-574,-164,-225,-79,91,-17,-257
2,1894515,-1428,495,-574,-164,-225,-79,91,-17,-257
2,1894529,-1426,499,-575,-154,-225,-82,91,-17,-257
2,1894537,-1429,501,-572,-164,-230,-80,91,-17,-257
2,1894545,-1429,501,-572,-164,-230,-80,91,-17,-257
2,1894554,-1429,501,-572,-164,-230,-80,91,-17,-257
2,1894562,-1426,498,-574,-169,-228,-79,91,-17,-257
2,1894576,-1426,498,-574,-169,-228,-79,91,-17,-257
2,1894589,-1425,501,-575,-162,-224,-89,91,-17,-257
2,1894600,-1426,499,-574,-163,-225,-88,91,-17,-255
2,1894612,-1426,499,-574,-163,-225,-88,91,-17,-255
2,1894627,-1426,500,-574,-159,-231,-84,91,-17,-255
2,1894640,-1427,496,-570,-156,-224,-88,91,-17,-255
2,1894656,-1427,496,-570,-156,-224,-88,91,-17,-255
2,1894671,-1425,496,-572,-161,-228,-94,91,-17,-255
2,1894683,-1425,496,-572,-161,-228,-94,91,-17,-255
2,1894697,-1425,496,-572,-161,-228,-94,91,-17,-255
2,1894712,-1425,496,-572,-161,-228,-94,91,-17,-255
2,1894725,-1425,496,-578,-164,-238,-87,87,-11,-253
2,1894736,-1425,496,-578,-164,-238,-87,87,-11,-253
2,1894750,-1425,498,-574,-167,-238,-83,87,-11,-253
2,1894763,-1429,497,-577,-162,-233,-79,87,-11,-253
2,1894771,-1429,497,-577,-162,-233,-79,87,-11,-253
2,1894786,-1426,498,-577,-162,-234,-91,87,-11,-253
2,1894799,-1428,502,-574,-160,-236,-88,87,-11,-253
2,1894812,-1428,502,-574,-160,-236,-88,87,-11,-253
2,1894827,-1425,500,-576,-158,-225,-89,87,-11,-253
2,1894839,-1429,498,-576,-157,-232,-83,87,-11,-253
2,1894851,-1429,498,-576,-157,-232,-83,87,-11,-253
2,1894866,-1428,499,-573,-161,-234,-95,89,-15,-251
2,1894881,-1426,501,-578,-156,-228,-89,89,-15,-251
2,1894895,-1426,501,-578,-156,-228,-89,89,-15,-251
2,1894909,-1422,497,-573,-155,-233,-91,89,-15,-251
2,1894925,-1427,496,-580,-152,-225,-92,89,-15,-251
2,1894940,-1425,497,-576,-162,-226,-83,89,-15,-251
2,1894956,-1425,497,-576,-162,-226,-83,89,-15,-251
2,1894970,-1427,495,-582,-159,-225,-81,89,-15,-251
2,1894983,-1427,499,-575,-158,-227,-78,89,-19,-257
2,1894998,-1427,499,-572,-158,-223,-82,89,-19,-257
2,1895010,-1427,499,-572,-158,-223,-82,89,-19,-257
2,1895023,-1431,498,-574,-162,-228,-86,89,-19,-257
2,1895036,-1426,497,-577,-160,-228,-88,89,-19,-257
2,1895050,-1426,497,-577,-160,-228,-88,89,-19,-257
2,1895064,-1426,497,-578,-159,-231,-90,89,-19,-257
2,1895072,-1426,497,-578,-159,-231,-90,89,-19,-257
2,1895086,-1428,499,-578,-169,-220,-86,89,-19,-257
2,1895099,-1424,499,-572,-160,-222,-85,92,-18,-260
2,1895112,-1424,499,-572,-160,-222,-85,92,-18,-260
2,1895127,-1425,499,-577,-157,-227,-92,92,-18,-260
2,1895140,-1425,500,-580,-169,-236,-86,92,-18,-260
2,1895153,-1425,500,-580,-169,-236,-86,92,-18,-260
2,1895168,-1425,500,-576,-166,-233,-87,92,-18,-260
2,1895181,-1424,498,-570,-160,-239,-92,92,-18,-260
2,1895194,-1424,498,-570,-160,-239,-92,92,-18,-260
2,1895209,-1425,500,-571,-159,-236,-88,92,-18,-260
2,1895224,-1425,500,-575,-165,-234,-88,89,-13,-257
2,1895239,-1425,498,-572,-160,-220,-89,89,-13,-257
2,1895252,-1425,498,-572,-160,-220,-89,89,-13,-257
2,1895266,-1424,499,-570,-163,-223,-89,89,-13,-257
2,1895280,-1425,498,-578,-166,-227,-95,89,-13,-257
2,1895291,-1425,498,-578,-166,-227,-95,89,-13,-257
2,1895305,-1427,497,-570,-163,-227,-90,89,-13,-257
2,1895318,-1430,496,-571,-162,-224,-88,89,-13,-257
2,1895332,-1430,496,-571,-162,-224,-88,89,-13,-257
2,1895347,-1428,500,-574,-156,-222,-92,84,-12,-254
2,1895358,-1427,499,-572,-159,-232,-90,84,-12,-254
2,1895371,-1427,499,-572,-159,-232,-90,84,-12,-254
2,1895384,-1428,500,-577,-160,-222,-88,84,-12,-254
2,1895398,-1424,499,-574,-156,-229,-84,84,-12,-254
2,1895411,-1424,499,-574,-156,-229,-84,84,-12,-254
2,1895427,-1428,497,-573,-155,-227,-85,84,-12,-254
2,1895443,-1425,498,-573,-161,-228,-81,84,-12,-254
2,1895458,-1427,499,-577,-168,-223,-80,84,-12,-254
2,1895472,-1427,499,-577,-168,-223,-80,84,-12,-254
2,1895486,-1425,496,-572,-163,-232,-84,86,-12,-256
2,1895498,-1426,500,-572,-161,-230,-85,86,-12,-256
2,1895512,-1426,500,-572,-161,-230,-85,86,-12,-256
2,1895525,-1424,500,-574,-161,-224,-84,86,-12,-256
2,1895539,-1427,499,-573,-164,-229,-87,86,-12,-256
2,1895553,-1427,499,-573,-164,-229,-87,86,-12,-256
2,1895566,-1427,499,-582,-159,-225,-89,86,-12,-256
2,1895579,-1426,501,-582,-158,-229,-92,86,-12,-256
2,1895591,-1426,501,-582,-158,-229,-92,86,-12,-256
2,1895605,-1425,500,-571,-164,-225,-89,90,-16,-258
2,1895619,-1425,499,-574,-168,-229,-92,90,-16,-258
2,1895634,-1425,499,-574,-168,-229,-92,90,-16,-258
2,1895647,-1427,499,-580,-164,-235,-85,90,-16,-258
2,1895661,-1422,500,-577,-164,-231,-84,90,-16,-258
2,1895676,-1422,500,-577,-164,-231,-84,90,-16,-258
2,1895692,-1426,498,-579,-166,-227,-83,90,-16,-258
2,1895705,-1425,499,-574,-163,-227,-89,90,-16,-258
2,1895718,-1426,499,-573,-159,-220,-87,92,-12,-254
2,1895733,-1426,499,-573,-159,-220,-87,92,-12,-254
2,1895747,-1428,497,-575,-164,-233,-82,92,-12,-254
2,1895761,-1423,500,-575,-168,-235,-84,92,-12,-254
2,1895774,-1423,500,-575,-168,-235,-84,92,-12,-254
2,1895789,-1427,497,-576,-164,-236,-83,92,-12,-254
2,1895802,-1427,498,-572,-161,-229,-86,92,-12,-254
2,1895817,-1427,498,-572,-161,-229,-86,92,-12,-254
2,1895831,-1427,499,-576,-160,-230,-83,92,-12,-254
2,1895846,-1426,500,-573,-161,-237,-89,89,-13,-257
2,1895863,-1426,498,-578,-157,-232,-88,89,-13,-257
2,1895877,-1427,499,-578,-163,-233,-82,89,-13,-257
2,1895890,-1427,499,-578,-163,-233,-82,89,-13,-257
2,1895905,-1427,499,-579,-167,-226,-87,89,-13,-257
2,1895916,-1427,499,-579,-167,-226,-87,89,-13,-257
2,1895928,-1426,500,-576,-160,-235,-75,89,-13,-257
2,1895943,-1426,500,-576,-160,-235,-75,89,-13,-257
2,1895957,-1426,500,-576,-160,-235,-75,89,-13,-257
2,1895972,-1425,500,-575,-169,-229,-94,94,-14,-258
2,1895986,-1426,499,-578,-170,-226,-87,94,-14,-258
2,1895999,-1427,499,-577,-167,-224,-89,94,-14,-258
2,1896010,-1427,499,-577,-167,-224,-89,94,-14,-258
2,1896024,-1425,502,-573,-163,-225,-89,94,-14,-258
2,1896038,-1429,500,-576,-157,-232,-81,94,-14,-258
2,1896051,-1429,500,-576,-157,-232,-81,94,-14,-258
2,1896066,-1426,499,-578,-162,-235,-87,94,-14,-258
2,1896077,-1427,499,-580,-165,-229,-86,94,-14,-258
2,1896090,-1427,499,-580,-165,-229,-86,94,-14,-258
2,1896105,-1426,499,-570,-163,-231,-83,95,-13,-255
2,1896120,-1427,500,-574,-159,-232,-84,95,-13,-255
2,1896131,-1427,500,-574,-159,-232,-84,95,-13,-255
2,1896145,-1425,502,-581,-160,-229,-88,95,-13,-255
2,1896161,-1428,498,-580,-163,-227,-88,95,-13,-255
2,1896174,-1428,498,-580,-163,-227,-88,95,-13,-255
2,1896187,-1424,500,-576,-153,-223,-83,95,-13,-255
2,1896201,-1422,496,-583,-160,-228,-84,95,-13,-255
2,1896215,-1422,496,-583,-160,-228,-84,95,-13,-255
2,1896229,-1424,498,-576,-163,-227,-85,88,-8,-258
2,1896244,-1426,498,-576,-166,-236,-86,88,-8,-258
2,1896258,-1425,499,-581,-161,-226,-92,88,-8,-258
2,1896271,-1425,499,-581,-161,-226,-92,88,-8,-258
2,1896286,-1424,501,-580,-164,-232,-85,88,-8,-258
2,1896300,-1425,497,-575,-162,-232,-85,88,-8,-258
2,1896315,-1425,497,-575,-162,-232,-85,88,-8,-258
2,1896330,-1428,500,-577,-162,-223,-85,88,-8,-258
2,1896342,-1429,501,-573,-160,-225,-86,93,-11,-263
2,1896357,-1429,501,-573,-160,-225,-86,93,-11,-263
2,1896373,-1428,498,-572,-158,-223,-89,93,-11,-263
2,1896384,-1425,498,-572,-161,-227,-88,93,-11,-263
2,1896397,-1425,498,-572,-161,-227,-88,93,-11,-263
2,1896412,-1426,499,-574,-159,-236,-84,93,-11,-263
2,1896426,-1427,499,-574,-161,-230,-87,93,-11,-263
2,1896439,-1426,498,-581,-165,-229,-88,93,-11,-263
2,1896454,-1426,498,-581,-165,-229,-88,93,-11,-263
2,1896467,-1422,500,-570,-162,-228,-88,87,-15,-257
2,1896479,-1422,500,-570,-162,-228,-88,87,-15,-257
2,1896493,-1422,500,-570,-162,-228,-88,87,-15,-257
2,1896506,-1427,498,-578,-164,-232,-86,87,-15,-257
2,1896520,-1425,501,-578,-160,-235,-93,87,-15,-257
2,1896535,-1425,501,-578,-160,-235,-93,87,-15,-257
2,1896547,-1428,498,-574,-165,-235,-91,87,-15,-257
2,1896560,-1425,500,-575,-153,-238,-92,87,-15,-257
2,1896574,-1425,500,-575,-153,-238,-92,87,-15,-257
2,1896587,-1425,497,-577,-160,-230,-92,85,-11,-261
2,1896599,-1425,498,-575,-163,-236,-86,85,-11,-261
2,1896613,-1425,498,-575,-163,-236,-86,85,-11,-261
2,1896628,-1424,500,-576,-159,-235,-84,85,-11,-261
2,1896640,-1427,499,-574,-162,-232,-89,85,-11,-261
2,1896654,-1427,499,-574,-162,-232,-89,85,-11,-261
2,1896668,-1427,499,-576,-166,-232,-87,85,-11,-261
2,1896682,-1425,497,-575,-162,-233,-88,85,-11,-261
2,1896694,-1425,497,-575,-162,-233,-88,85,-11,-261
2,1896708,-1427,500,-577,-154,-236,-88,85,-11,-261
2,1896723,-1423,499,-573,-166,-227,-87,92,-16,-248
2,1896736,-1423,499,-573,-166,-227,-87,92,-16,-248
2,1896745,-1426,498,-576,-164,-220,-81,92,-16,-248
2,1896760,-1428,499,-577,-167,-235,-89,92,-16,-248
2,1896774,-1428,499,-577,-167,-235,-89,92,-16,-248
2,1896786,-1423,499,-577,-163,-239,-86,92,-16,-248
2,1896800,-1425,498,-575,-163,-219,-86,92,-16,-248
2,1896815,-1425,498,-575,-163,-219,-86,92,-16,-248
2,1896828,-1425,495,-576,-165,-227,-90,92,-16,-248
2,1896842,-1426,500,-573,-170,-241,-92,87,-15,-253
2,1896856,-1426,500,-573,-170,-241,-92,87,-15,-253
2,1896869,-1424,498,-573,-159,-230,-94,87,-15,-253
2,1896884,-1423,498,-576,-158,-231,-81,87,-15,-253
2,1896896,-1423,498,-576,-158,-231,-81,87,-15,-253
2,1896909,-1427,501,-576,-161,-230,-87,87,-15,-253
2,1896923,-1424,502,-574,-158,-224,-86,87,-15,-253
2,1896937,-1424,502,-574,-158,-224,-86,87,-15,-253
2,1896951,-1427,499,-578,-163,-233,-89,87,-15,-253
2,1896963,-1426,499,-571,-172,-234,-80,90,-10,-256
2,1896977,-1426,499,-571,-172,-234,-80,90,-10,-256
2,1896992,-1426,500,-574,-170,-233,-93,90,-10,-256
2,1897008,-1424,498,-574,-165,-232,-88,90,-10,-256
2,1897020,-1428,497,-578,-159,-237,-83,90,-10,-256
2,1897033,-1428,497,-578,-159,-237,-83,90,-10,-256
2,1897048,-1424,500,-583,-160,-232,-77,90,-10,-256
2,1897061,-1428,499,-579,-164,-223,-82,90,-10,-256
2,1897074,-1428,499,-579,-164,-223,-82,90,-10,-256
2,1897089,-1425,501,-573,-158,-231,-83,91,-11,-255
2,1897103,-1423,500,-577,-163,-230,-83,91,-11,-255
2,1897117,-1423,500,-577,-163,-230,-83,91,-11,-255
2,1897129,-1426,498,-576,-158,-229,-91,91,-11,-255
2,1897143,-1425,500,-576,-161,-234,-89,91,-11,-255
2,1897156,-1425,500,-576,-161,-234,-89,91,-11,-255
2,1897170,-1424,498,-574,-159,-227,-90,91,-11,-255
2,1897186,-1426,499,-574,-162,-226,-87,91,-11,-255
2,1897201,-1428,498,-577,-169,-223,-80,93,-17,-259
2,1897213,-1428,498,-577,-169,-223,-80,93,-17,-259
2,1897229,-1430,498,-575,-162,-229,-82,93,-17,-259
2,1897244,-1427,497,-575,-163,-223,-84,93,-17,-259
2,1897259,-1427,497,-575,-163,-223,-84,93,-17,-259
2,1897270,-1422,500,-575,-161,-231,-90,93,-17,-259
2,1897283,-1428,498,-575,-162,-235,-90,93,-17,-259
2,1897296,-1428,498,-575,-162,-235,-90,93,-17,-259
2,1897305,-1427,500,-579,-167,-228,-88,93,-17,-259
2,1897320,-1426,497,-577,-168,-227,-85,93,-17,-259
2,1897334,-1426,497,-577,-168,-227,-85,93,-17,-259
2,1897348,-1425,498,-572,-169,-236,-84,87,-17,-255
2,1897361,-1427,498,-577,-163,-227,-95,87,-17,-255
2,1897375,-1427,498,-577,-163,-227,-95,87,-17,-255
2,1897390,-1425,500,-578,-162,-231,-87,87,-17,-255
2,1897404,-1424,500,-574,-160,-235,-84,87,-17,-255
2,1897415,-1424,500,-574,-160,-235,-84,87,-17,-255
2,1897431,-1426,499,-575,-163,-221,-91,87,-17,-255
2,1897445,-1427,498,-575,-165,-224,-89,87,-17,-255
2,1897460,-1426,498,-572,-162,-234,-89,84,-8,-258
2,1897474,-1426,498,-572,-162,-234,-89,84,-8,-258
2,1897487,-1428,501,-572,-164,-232,-98,84,-8,-258
2,1897502,-1428,499,-578,-172,-234,-86,84,-8,-258
2,1897518,-1428,499,-578,-172,-234,-86,84,-8,-258
2,1897531,-1426,499,-581,-167,-239,-78,84,-8,-258
2,1897544,-1426,502,-577,-160,-230,-86,84,-8,-258
2,1897559,-1426,502,-577,-160,-230,-86,84,-8,-258
2,1897573,-1426,498,-571,-158,-230,-88,84,-8,-258
2,1897588,-1424,498,-576,-163,-226,-89,93,-11,-261
2,1897601,-1426,499,-575,-163,-226,-90,93,-11,-261
2,1897615,-1426,499,-575,-163,-226,-90,93,-11,-261
2,1897626,-1426,499,-577,-162,-235,-90,93,-11,-261
2,1897640,-1428,498,-581,-167,-233,-88,93,-11,-261
2,1897656,-1428,498,-581,-167,-233,-88,93,-11,-261
2,1897669,-1427,501,-577,-162,-232,-92,93,-11,-261
2,1897682,-1425,500,-577,-165,-232,-82,93,-11,-261
2,1897698,-1425,500,-577,-165,-232,-82,93,-11,-261
2,1897713,-1426,498,-571,-168,-229,-89,99,-15,-255
2,1897729,-1425,499,-573,-162,-234,-87,99,-15,-255
2,1897741,-1427,499,-573,-164,-231,-91,99,-15,-255
2,1897754,-1427,499,-573,-164,-231,-91,99,-15,-255
2,1897768,-1424,496,-575,-162,-226,-91,99,-15,-255
2,1897783,-1430,500,-578,-164,-236,-84,99,-15,-255
2,1897796,-1430,500,-578,-164,-236,-84,99,-15,-255
2,1897810,-1424,500,-579,-163,-231,-80,99,-15,-255
2,1897823,-1424,496,-577,-155,-232,-86,90,-18,-258
2,1897837,-1424,496,-577,-155,-232,-86,90,-18,-258
2,1897849,-1427,499,-578,-159,-217,-93,90,-18,-258
2,1897864,-1424,498,-577,-157,-224,-86,90,-18,-258
2,1897877,-1424,498,-577,-157,-224,-86,90,-18,-258
2,1897891,-1427,498,-581,-159,-227,-88,90,-18,-258
2,1897908,-1427,498,-576,-161,-236,-90,90,-18,-258
2,1897923,-1424,501,-575,-167,-231,-89,90,-18,-258
2,1897936,-1424,501,-575,-167,-231,-89,90,-18,-258
2,1897950,-1427,499,-577,-162,-233,-85,90,-18,-258
2,1897965,-1428,497,-569,-167,-229,-86,87,-11,-251
2,1897980,-1424,500,-573,-165,-231,-87,87,-11,-251
2,1897991,-1424,500,-573,-165,-231,-87,87,-11,-251
2,1898005,-1427,500,-578,-159,-235,-84,87,-11,-251
2,1898018,-1427,500,-578,-159,-235,-84,87,-11,-251
2,1898033,-1425,497,-575,-161,-235,-87,87,-11,-251
2,1898046,-1426,497,-578,-160,-232,-94,87,-11,-251
2,1898060,-1427,498,-576,-159,-238,-89,87,-11,-251
2,1898076,-1427,498,-576,-159,-238,-89,87,-11,-251
2,1898087,-1428,499,-576,-167,-233,-84,92,-12,-250
2,1898100,-1427,500,-581,-163,-219,-86,92,-12,-250
2,1898115,-1427,500,-581,-163,-219,-86,92,-12,-250
2,1898128,-1424,500,-575,-162,-226,-79,92,-12,-250
2,1898143,-1424,500,-577,-165,-225,-81,92,-12,-250
2,1898158,-1424,500,-577,-165,-225,-81,92,-12,-250
2,1898170,-1425,500,-581,-166,-235,-79,92,-12,-250
2,1898184,-1427,500,-582,-163,-242,-81,92,-12,-250
2,1898201,-1425,500,-575,-164,-225,-89,90,-14,-254
2,1898216,-1425,500,-575,-164,-225,-89,90,-14,-254
2,1898230,-1426,502,-572,-162,-234,-92,90,-14,-254
2,1898242,-1426,495,-575,-163,-232,-94,90,-14,-254
2,1898255,-1426,495,-575,-163,-232,-94,90,-14,-254
2,1898269,-1426,498,-578,-170,-228,-91,90,-14,-254
2,1898283,-1427,499,-577,-166,-228,-93,90,-14,-254
2,1898296,-1427,499,-577,-166,-228,-93,90,-14,-254
2,1898310,-1425,498,-579,-165,-231,-86,90,-14,-254
2,1898323,-1427,499,-573,-164,-238,-90,92,-16,-264
2,1898336,-1427,499,-573,-164,-238,-90,92,-16,-264
2,1898351,-1426,497,-578,-166,-230,-89,92,-16,-264
2,1898368,-1424,499,-571,-163,-232,-81,92,-16,-264
2,1898379,-1424,499,-571,-163,-232,-81,92,-16,-264
2,1898393,-1426,499,-574,-160,-230,-87,92,-16,-264
2,1898408,-1425,502,-576,-165,-227,-88,92,-16,-264
2,1898424,-1425,497,-574,-169,-232,-86,92,-16,-264
2,1898439,-1427,498,-576,-165,-230,-87,92,-16,-264
2,1898454,-1427,498,-576,-165,-230,-87,90,-14,-262
2,1898467,-1426,495,-572,-164,-221,-93,90,-14,-262
2,1898481,-1425,500,-574,-163,-231,-93,90,-14,-262
2,1898496,-1425,500,-574,-163,-231,-93,90,-14,-262
2,1898510,-1427,498,-577,-163,-225,-84,90,-14,-262
2,1898522,-1425,498,-570,-157,-228,-91,90,-14,-262
2,1898536,-1425,498,-570,-157,-228,-91,90,-14,-262
2,1898551,-1426,496,-574,-160,-221,-93,90,-14,-262
2,1898564,-1428,499,-577,-162,-224,-98,90,-14,-262
2,1898579,-1428,499,-577,-162,-224,-98,90,-14,-262
2,1898596,-1428,499,-571,-161,-232,-90,83,-17,-251
2,1898611,-1428,499,-571,-161,-232,-90,83,-17,-251
2,1898627,-1427,497,-578,-163,-237,-90,83,-17,-251
2,1898640,-1426,500,-575,-172,-240,-89,83,-17,-251
2,1898654,-1426,500,-575,-172,-240,-89,83,-17,-251
2,1898670,-1427,499,-571,-162,-236,-86,83,-17,-251
2,1898685,-1426,498,-579,-157,-232,-83,83,-17,-251
2,1898701,-1425,500,-579,-154,-230,-90,96,-12,-246
2,1898716,-1425,500,-579,-154,-230,-90,96,-12,-246
2,1898728,-1428,501,-577,-164,-232,-89,96,-12,-246
2,1898740,-1425,500,-576,-164,-232,-94,96,-12,-246
2,1898754,-1425,500,-576,-164,-232,-94,96,-12,-246
2,1898768,-1424,500,-574,-164,-227,-87,96,-12,-246
2,1898782,-1427,500,-574,-165,-227,-83,96,-12,-246
2,1898798,-1427,500,-574,-165,-227,-83,96,-12,-246
2,1898809,-1426,496,-575,-174,-228,-80,96,-12,-246
2,1898822,-1426,499,-573,-168,-231,-88,96,-12,-258
2,1898838,-1426,499,-573,-168,-231,-88,96,-12,-258
2,1898853,-1428,501,-575,-165,-225,-84,96,-12,-258
2,1898868,-1425,500,-572,-165,-228,-87,96,-12,-258
2,1898884,-1427,496,-575,-165,-225,-85,96,-12,-258
2,1898896,-1427,496,-575,-165,-225,-85,96,-12,-258
2,1898911,-1426,499,-575,-164,-233,-80,96,-12,-258
2,1898927,-1430,500,-573,-161,-227,-89,96,-12,-258
2,1898941,-1427,497,-577,-168,-235,-88,99,-19,-257
2,1898954,-1427,497,-577,-168,-235,-88,99,-19,-257
2,1898968,-1426,499,-574,-164,-235,-92,99,-19,-257
2,1898979,-1426,499,-574,-164,-235,-92,99,-19,-257
2,1898994,-1427,501,-571,-166,-226,-92,99,-19,-257
2,1899010,-1426,497,-577,-164,-224,-87,99,-19,-257
2,1899023,-1426,498,-577,-163,-219,-94,99,-19,-257
2,1899037,-1426,498,-577,-163,-219,-94,99,-19,-257
2,1899051,-1426,496,-579,-164,-235,-87,99,-19,-257
2,1899065,-1427,498,-570,-167,-236,-91,90,-12,-250
2,1899077,-1427,498,-570,-167,-236,-91,90,-12,-250
2,1899090,-1429,500,-571,-168,-229,-84,90,-12,-250
2,1899106,-1428,498,-576,-168,-228,-92,90,-12,-250
2,1899121,-1427,500,-572,-166,-232,-91,90,-12,-250
2,1899137,-1427,500,-572,-166,-232,-91,90,-12,-250
2,1899152,-1423,496,-573,-160,-228,-84,90,-12,-250
2,1899163,-1427,498,-578,-159,-223,-83,90,-12,-250
2,1899177,-1427,498,-578,-159,-223,-83,90,-12,-250
2,1899191,-1427,500,-581,-159,-227,-82,95,-15,-245
2,1899205,-1426,502,-575,-160,-227,-83,95,-15,-245
2,1899218,-1426,502,-575,-160,-227,-83,95,-15,-245
2,1899234,-1428,501,-579,-158,-227,-88,95,-15,-245
2,1899242,-1427,501,-580,-167,-226,-95,95,-15,-245
2,1899254,-1427,501,-580,-167,-226,-95,95,-15,-245
2,1899269,-1424,498,-574,-167,-228,-88,95,-15,-245
2,1899283,-1425,500,-579,-160,-225,-89,95,-15,-245
2,1899298,-1425,500,-579,-160,-225,-89,95,-15,-245
2,1899314,-1425,499,-576,-160,-225,-84,95,-15,-245
2,1899329,-1428,498,-574,-161,-229,-76,87,-17,-257
2,1899344,-1423,500,-574,-165,-226,-83,87,-17,-257
2,1899358,-1423,500,-574,-165,-226,-83,87,-17,-257
2,1899372,-1428,498,-575,-163,-226,-90,87,-17,-257
2,1899385,-1425,500,-580,-165,-230,-87,87,-17,-257
2,1899398,-1425,500,-580,-165,-230,-87,87,-17,-257
2,1899411,-1426,495,-574,-165,-232,-94,87,-17,-257
2,1899425,-1424,495,-573,-164,-232,-91,87,-17,-257
2,1899439,-1424,495,-573,-164,-232,-91,87,-17,-257
2,1899453,-1426,499,-575,-161,-228,-96,80,-10,-248
2,1899468,-1425,497,-577,-158,-229,-89,80,-10,-248
2,1899482,-1424,497,-574,-162,-235,-85,80,-10,-248
2,1899494,-1424,497,-574,-162,-235,-85,80,-10,-248
2,1899508,-1426,499,-582,-167,-229,-89,80,-10,-248
2,1899523,-1424,498,-577,-163,-221,-79,80,-10,-248
2,1899537,-1424,498,-577,-163,-221,-79,80,-10,-248
2,1899552,-1427,497,-578,-163,-222,-88,80,-10,-248
2,1899568,-1429,499,-571,-169,-230,-88,88,-14,-258
2,1899583,-1426,501,-577,-161,-236,-89,88,-14,-258
2,1899597,-1426,501,-577,-161,-236,-89,88,-14,-258
2,1899613,-1429,496,-579,-164,-230,-92,88,-14,-258
2,1899627,-1425,497,-579,-160,-236,-90,88,-14,-258
2,1899639,-1425,497,-579,-160,-236,-90,88,-14,-258
2,1899653,-1425,501,-580,-161,-238,-87,88,-14,-258
2,1899666,-1426,499,-577,-155,-236,-85,88,-14,-258
2,1899679,-1426,499,-577,-155,-236,-85,88,-14,-258
2,1899694,-1426,498,-576,-160,-235,-79,90,-18,-250
2,1899707,-1424,497,-573,-162,-228,-88,90,-18,-250
2,1899720,-1424,497,-573,-162,-228,-88,90,-18,-250
2,1899735,-1425,498,-580,-163,-226,-84,90,-18,-250
2,1899748,-1425,498,-575,-160,-227,-91,90,-18,-250
2,1899761,-1425,499,-575,-161,-232,-84,90,-18,-250
2,1899776,-1425,499,-575,-161,-232,-84,90,-18,-250
2,1899792,-1429,498,-578,-159,-231,-85,90,-18,-250
2,1899807,-1426,498,-577,-166,-228,-84,85,-7,-243
2,1899822,-1426,499,-573,-171,-223,-83,85,-7,-243
2,1899835,-1426,499,-573,-171,-223,-83,85,-7,-243
2,1899848,-1426,498,-578,-162,-224,-88,85,-7,-243
2,1899864,-1428,498,-573,-164,-233,-90,85,-7,-243
2,1899879,-1428,498,-573,-164,-233,-90,85,-7,-243
2,1899892,-1426,499,-572,-160,-228,-81,85,-7,-243
2,1899907,-1426,499,-577,-162,-235,-81,85,-7,-243
2,1899921,-1425,497,-576,-169,-230,-83,85,-7,-243
2,1899930,-1425,497,-576,-169,-230,-83,85,-7,-243
2,1899944,-1428,499,-569,-171,-230,-87,84,-6,-254
2,1899958,-1428,499,-569,-171,-230,-87,84,-6,-254
2,1899971,-1426,497,-575,-165,-225,-89,84,-6,-254
2,1899986,-1427,498,-573,-159,-233,-92,84,-6,-254
2,1900001,-1426,499,-576,-160,-229,-90,84,-6,-254
2,1900014,-1426,499,-576,-160,-229,-90,84,-6,-254
2,1900027,-1423,498,-575,-163,-226,-91,84,-6,-254
2,1900043,-1424,495,-573,-163,-226,-80,84,-6,-254
2,1900058,-1424,495,-573,-163,-226,-80,84,-6,-254
2,1900075,-1426,497,-574,-162,-227,-87,80,-14,-256
2,1900086,-1424,499,-578,-161,-231,-90,80,-14,-256
2,1900099,-1424,499,-578,-161,-231,-90,80,-14,-256
2,1900112,-1427,498,-573,-164,-231,-87,80,-14,-256
2,1900121,-1427,498,-573,-164,-231,-87,80,-14,-256
2,1900131,-1426,499,-578,-159,-229,-88,80,-14,-256
2,1900139,-1426,499,-578,-159,-229,-88,80,-14,-256
2,1900148,-1425,499,-572,-158,-233,-87,80,-14,-256
2,1900162,-1424,499,-576,-167,-236,-90,80,-14,-256
2,1900176,-1424,499,-576,-167,-236,-90,80,-14,-256
2,1900189,-1428,496,-571,-161,-230,-89,92,-12,-252
2,1900201,-1427,496,-574,-167,-229,-91,92,-12,-252
2,1900213,-1427,496,-574,-167,-229,-91,92,-12,-252
2,1900228,-1428,497,-578,-165,-221,-84,92,-12,-252
2,1900241,-1425,497,-583,-157,-223,-86,92,-12,-252
2,1900257,-1425,497,-583,-157,-223,-86,92,-12,-252
2,1900271,-1428,496,-578,-158,-230,-92,92,-12,-252
2,1900282,-1426,498,-576,-159,-230,-84,92,-12,-252
2,1900297,-1426,498,-576,-159,-230,-84,92,-12,-252
2,1900311,-1425,496,-573,-164,-229,-90,89,-21,-253
2,1900326,-1426,497,-573,-158,-233,-80,89,-21,-253
2,1900340,-1426,497,-573,-158,-233,-80,89,-21,-253
2,1900352,-1426,497,-577,-165,-225,-83,89,-21,-253
2,1900365,-1424,498,-577,-165,-229,-82,89,-21,-253
2,1900379,-1424,498,-577,-165,-229,-82,89,-21,-253
2,1900392,-1427,498,-576,-163,-226,-87,89,-21,-253
2,1900406,-1426,495,-578,-159,-232,-92,89,-21,-253
2,1900420,-1426,495,-578,-159,-232,-92,89,-21,-253
2,1900431,-1423,501,-576,-157,-224,-92,93,-17,-257
2,1900446,-1429,500,-573,-165,-224,-87,93,-17,-257
2,1900462,-1427,498,-581,-165,-227,-90,93,-17,-257
2,1900477,-1427,498,-581,-165,-227,-90,93,-17,-257
2,1900490,-1426,497,-575,-158,-231,-88,93,-17,-257
2,1900503,-1427,495,-577,-166,-237,-87,93,-17,-257
2,1900518,-1427,495,-577,-166,-237,-87,93,-17,-257
2,1900531,-1427,497,-577,-158,-231,-91,93,-17,-257
2,1900545,-1426,497,-577,-164,-234,-91,93,-17,-257
2,1900558,-1426,497,-577,-164,-234,-91,93,-17,-257
2,1900573,-1424,496,-572,-160,-231,-83,93,-15,-255
2,1900588,-1427,499,-578,-159,-232,-86,93,-15,-255
2,1900600,-1427,499,-578,-159,-232,-86,93,-15,-255
2,1900613,-1426,495,-579,-162,-229,-90,93,-15,-255
2,1900626,-1426,500,-575,-165,-229,-97,93,-15,-255
2,1900641,-1426,500,-575,-165,-229,-97,93,-15,-255
2,1900656,-1426,500,-573,-165,-229,-87,93,-15,-255
2,1900670,-1426,498,-576,-169,-231,-94,93,-15,-255
2,1900683,-1427,497,-573,-164,-238,-87,87,-13,-253
2,1900697,-1427,497,-573,-164,-238,-87,87,-13,-253
2,1900712,-1425,499,-576,-163,-236,-83,87,-13,-253
2,1900725,-1425,500,-578,-163,-239,-86,87,-13,-253
2,1900739,-1425,500,-578,-163,-239,-86,87,-13,-253
2,1900753,-1426,502,-576,-165,-237,-88,87,-13,-253
2,1900769,-1424,500,-572,-166,-229,-89,87,-13,-253
2,1900783,-1425,500,-577,-166,-228,-88,87,-13,-253
2,1900796,-1425,500,-577,-166,-228,-88,87,-13,-253
2,1900811,-1424,500,-570,-156,-219,-91,89,-13,-249
2,1900826,-1428,499,-575,-159,-230,-90,89,-13,-249
2,1900837,-1428,499,-575,-159,-230,-90,89,-13,-249
2,1900850,-1427,498,-577,-162,-228,-88,89,-13,-249
2,1900865,-1427,500,-579,-164,-233,-86,89,-13,-249
2,1900880,-1427,500,-579,-164,-233,-86,89,-13,-249
2,1900896,-1429,501,-576,-164,-229,-88,89,-13,-249
2,1900907,-1424,499,-576,-162,-224,-90,89,-13,-249
2,1900922,-1428,500,-569,-164,-232,-89,92,-14,-249
2,1900938,-1428,500,-569,-164,-232,-89,92,-14,-256
2,1900953,-1426,502,-571,-162,-231,-89,92,-14,-256
2,1900966,-1428,499,-576,-160,-229,-86,92,-14,-256
2,1900981,-1428,499,-576,-160,-229,-86,92,-14,-256
2,1900995,-1430,501,-577,-160,-231,-97,92,-14,-256
2,1901008,-1428,499,-575,-158,-222,-87,92,-14,-256
2,1901025,-1429,499,-575,-162,-227,-82,92,-14,-256
2,1901036,-1429,499,-575,-162,-227,-82,92,-14,-256
2,1901050,-1426,498,-570,-167,-227,-85,91,-7,-251
2,1901064,-1426,499,-566,-163,-234,-86,91,-7,-251
2,1901078,-1426,499,-566,-163,-234,-86,91,-7,-251
2,1901092,-1427,497,-572,-162,-231,-85,91,-7,-251
2,1901108,-1428,498,-575,-165,-232,-85,91,-7,-251
2,1901122,-1427,497,-577,-159,-229,-92,91,-7,-251
2,1901137,-1427,497,-577,-159,-229,-92,91,-7,-251
2,1901151,-1426,498,-576,-164,-233,-87,91,-7,-251
2,1901165,-1426,497,-572,-163,-235,-88,91,-7,-251
2,1901179,-1426,497,-572,-163,-235,-88,91,-7,-251
2,1901195,-1426,499,-571,-160,-234,-86,90,-14,-254
2,1901207,-1428,498,-580,-164,-228,-84,90,-14,-254
2,1901220,-1428,498,-580,-164,-228,-84,90,-14,-254
2,1901235,-1426,499,-569,-164,-240,-88,90,-14,-254
2,1901248,-1429,503,-576,-163,-228,-81,90,-14,-254
2,1901256,-1429,503,-576,-163,-228,-81,90,-14,-254
2,1901267,-1428,500,-577,-164,-234,-92,90,-14,-254
2,1901282,-1428,500,-577,-164,-234,-92,90,-14,-254
2,1901295,-1423,500,-578,-159,-235,-91,90,-14,-254
2,1901309,-1426,502,-570,-164,-231,-91,98,-18,-252
2,1901325,-1426,498,-575,-165,-232,-94,98,-18,-252
2,1901339,-1426,498,-575,-165,-232,-94,98,-18,-252
2,1901352,-1428,496,-577,-167,-226,-87,98,-18,-252
2,1901367,-1428,499,-573,-161,-234,-93,98,-18,-252
2,1901381,-1428,499,-573,-161,-234,-93,98,-18,-252
2,1901393,-1427,499,-579,-161,-240,-95,98,-18,-252
2,1901408,-1426,495,-580,-160,-235,-88,98,-18,-252
2,1901422,-1426,495,-580,-160,-235,-88,98,-18,-252
2,1901435,-1425,496,-570,-163,-229,-86,93,-11,-255
2,1901450,-1424,498,-572,-168,-224,-91,93,-11,-255
2,1901463,-1425,497,-577,-163,-227,-93,93,-11,-255
2,1901476,-1425,497,-577,-163,-227,-93,93,-11,-255
2,1901490,-1426,501,-574,-156,-232,-90,93,-11,-255
2,1901503,-1425,500,-576,-161,-233,-82,93,-11,-255
2,1901517,-1425,500,-576,-161,-233,-82,93,-11,-255
2,1901533,-1425,498,-576,-162,-234,-83,93,-11,-255
2,1901547,-1423,498,-572,-163,-232,-84,90,-14,-250
2,1901560,-1423,498,-572,-163,-232,-84,90,-14,-250
2,1901576,-1426,500,-575,-163,-235,-88,90,-14,-250
2,1901591,-1428,498,-575,-165,-230,-86,90,-14,-250
2,1901606,-1425,496,-576,-165,-232,-84,90,-14,-250
2,1901620,-1425,496,-576,-165,-232,-84,90,-14,-250
2,1901634,-1429,497,-578,-164,-237,-92,90,-14,-250
2,1901647,-1425,501,-575,-161,-235,-87,90,-14,-250
2,1901660,-1425,501,-575,-161,-235,-87,90,-14,-250
2,1901674,-1425,496,-577,-159,-228,-90,90,-22,-250
2,1901689,-1427,496,-574,-160,-226,-89,90,-22,-250
2,1901703,-1425,500,-576,-162,-231,-85,90,-22,-250
2,1901716,-1425,500,-576,-162,-231,-85,90,-22,-250
2,1901728,-1426,496,-578,-157,-237,-86,90,-22,-250
2,1901740,-1426,496,-578,-157,-237,-86,90,-22,-250
2,1901754,-1426,497,-573,-168,-231,-87,90,-22,-250
2,1901769,-1427,495,-579,-160,-235,-95,90,-22,-250
2,1901785,-1427,496,-574,-164,-228,-92,90,-22,-250
2,1901799,-1427,496,-574,-164,-228,-92,90,-22,-250
2,1901811,-1427,496,-573,-166,-228,-88,93,-15,-255
2,1901826,-1427,498,-574,-170,-226,-91,93,-15,-255
2,1901840,-1427,498,-574,-170,-226,-91,93,-15,-255
2,1901854,-1425,500,-581,-161,-227,-92,93,-15,-255
2,1901868,-1427,499,-576,-165,-226,-91,93,-15,-255
2,1901882,-1427,499,-576,-165,-226,-91,93,-15,-255
2,1901896,-1428,499,-574,-170,-235,-92,93,-15,-255
2,1901911,-1427,501,-574,-168,-235,-94,93,-15,-255
2,1901923,-1427,498,-572,-170,-234,-89,90,-10,-248
2,1901937,-1427,498,-572,-170,-234,-89,90,-10,-248
2,1901953,-1427,496,-572,-170,-234,-83,90,-10,-248
2,1901968,-1426,497,-578,-166,-231,-85,90,-10,-248
2,1901981,-1426,497,-578,-166,-231,-85,90,-10,-248
2,1901997,-1423,499,-576,-160,-230,-93,90,-10,-248
2,1902012,-1429,497,-576,-161,-233,-93,90,-10,-248
2,1902027,-1430,499,-579,-165,-227,-90,90,-10,-248
2,1902043,-1430,499,-579,-165,-227,-90,90,-10,-248
2,1902056,-1424,501,-573,-160,-231,-80,97,-21,-253
2,1902070,-1422,499,-573,-168,-230,-83,97,-21,-253
2,1902085,-1423,499,-575,-159,-217,-79,97,-21,-253
2,1902098,-1423,499,-575,-159,-217,-79,97,-21,-253
2,1902109,-1427,497,-574,-167,-233,-88,97,-21,-253
2,1902124,-1425,498,-575,-161,-228,-87,97,-21,-253
2,1902137,-1425,498,-575,-161,-228,-87,97,-21,-253
2,1902145,-1426,498,-574,-167,-225,-87,97,-21,-253
2,1902157,-1426,498,-574,-167,-225,-87,97,-21,-253
2,1902171,-1427,499,-571,-165,-229,-86,89,-13,-253
2,1902186,-1427,498,-571,-167,-231,-90,89,-13,-253
2,1902200,-1427,498,-571,-167,-231,-90,89,-13,-253
2,1902209,-1426,499,-570,-165,-236,-94,89,-13,-253
2,1902221,-1426,499,-570,-165,-236,-94,89,-13,-253
2,1902228,-1424,501,-577,-163,-236,-89,89,-13,-253
2,1902236,-1424,501,-577,-163,-236,-89,89,-13,-253
2,1902251,-1430,499,-576,-167,-230,-91,89,-13,-253
2,1902265,-1423,497,-576,-171,-234,-93,89,-13,-253
2,1902272,-1423,497,-576,-171,-234,-93,89,-13,-253
2,1902280,-1423,497,-576,-171,-234,-93,89,-13,-253
2,1902295,-1425,495,-572,-168,-235,-85,92,-14,-256
2,1902309,-1428,500,-572,-164,-237,-85,92,-14,-256
2,1902323,-1424,500,-579,-161,-235,-85,92,-14,-256
2,1902338,-1424,500,-579,-161,-235,-85,92,-14,-256
2,1902352,-1426,499,-575,-169,-234,-90,92,-14,-256
2,1902363,-1429,499,-574,-161,-230,-88,92,-14,-256
2,1902376,-1429,499,-574,-161,-230,-88,92,-14,-256
2,1902390,-1427,500,-576,-162,-224,-89,92,-14,-256
2,1902403,-1427,497,-572,-166,-228,-84,92,-14,-256
2,1902416,-1427,497,-572,-166,-228,-84,92,-14,-256
2,1902433,-1422,496,-569,-165,-231,-86,95,-11,-251
2,1902448,-1426,497,-578,-167,-226,-90,95,-11,-251
2,1902459,-1426,497,-578,-167,-226,-90,95,-11,-251
2,1902474,-1429,497,-573,-166,-225,-88,95,-11,-251
2,1902489,-1426,498,-577,-163,-227,-88,95,-11,-251
2,1902503,-1428,499,-577,-166,-223,-89,95,-11,-251
2,1902517,-1428,499,-577,-166,-223,-89,95,-11,-251
2,1902530,-1427,503,-575,-162,-227,-88,95,-11,-251
2,1902545,-1429,501,-573,-163,-235,-85,93,-17,-251
2,1902559,-1429,501,-573,-163,-235,-85,93,-17,-251
2,1902572,-1429,501,-576,-161,-239,-90,93,-17,-251
2,1902586,-1427,498,-578,-168,-233,-87,93,-17,-251
2,1902601,-1427,498,-578,-168,-233,-87,93,-17,-251
2,1902615,-1429,499,-573,-164,-228,-86,93,-17,-251
2,1902629,-1426,500,-572,-164,-230,-89,93,-17,-251
2,1902642,-1426,500,-572,-164,-230,-89,93,-17,-251
2,1902656,-1425,499,-577,-159,-226,-81,93,-17,-251
2,1902669,-1425,499,-570,-161,-226,-87,94,-16,-254
2,1902682,-1425,499,-570,-161,-226,-87,94,-16,-254
2,1902697,-1426,498,-573,-168,-227,-78,94,-16,-254
2,1902709,-1426,499,-570,-165,-222,-93,94,-16,-254
2,1902725,-1426,498,-576,-161,-234,-92,94,-16,-254
2,1902740,-1426,498,-576,-161,-234,-92,94,-16,-254
2,1902755,-1424,499,-575,-156,-234,-80,94,-16,-254
2,1902769,-1427,497,-574,-164,-230,-91,94,-16,-254
2,1902781,-1427,497,-574,-164,-230,-91,94,-16,-254
2,1902794,-1424,498,-577,-160,-231,-92,83,-13,-251
2,1902809,-1427,499,-568,-160,-229,-92,83,-13,-251
2,1902822,-1427,499,-568,-160,-229,-92,83,-13,-251
2,1902836,-1426,499,-574,-164,-229,-92,83,-13,-251
2,1902850,-1427,495,-574,-158,-229,-91,83,-13,-251
2,1902862,-1427,495,-574,-158,-229,-91,83,-13,-251
2,1902876,-1424,497,-580,-170,-220,-93,83,-13,-251
2,1902892,-1427,501,-579,-159,-226,-82,83,-13,-251
2,1902905,-1428,498,-575,-164,-233,-85,88,-12,-258
2,1902919,-1428,498,-575,-164,-233,-85,88,-12,-258
2,1902935,-1427,498,-570,-169,-234,-84,88,-12,-258
2,1902950,-1427,499,-575,-166,-233,-79,88,-12,-258
2,1902962,-1427,499,-575,-166,-233,-79,88,-12,-258
2,1902970,-1427,498,-574,-166,-234,-83,88,-12,-258
2,1902983,-1427,498,-574,-166,-234,-83,88,-12,-258
2,1902998,-1422,502,-575,-165,-234,-94,88,-12,-258
2,1903012,-1428,497,-574,-169,-224,-88,88,-12,-258
2,1903027,-1427,500,-573,-174,-228,-83,88,-12,-258
2,1903041,-1427,500,-573,-174,-228,-83,88,-12,-258
2,1903055,-1426,500,-572,-170,-233,-83,87,-15,-259
2,1903069,-1426,498,-571,-168,-230,-86,87,-15,-259
2,1903081,-1426,498,-571,-168,-230,-86,87,-15,-259
2,1903094,-1426,500,-574,-163,-230,-94,87,-15,-259
2,1903109,-1426,501,-576,-158,-226,-89,87,-15,-259
2,1903122,-1426,501,-576,-158,-226,-89,87,-15,-259
2,1903136,-1425,499,-584,-161,-234,-82,87,-15,-259
2,1903151,-1426,498,-577,-166,-230,-87,87,-15,-259
2,1903162,-1426,498,-577,-166,-230,-87,87,-15,-259
2,1903175,-1423,498,-576,-158,-228,-83,95,-15,-251
2,1903190,-1426,496,-573,-167,-233,-79,95,-15,-251
2,1903204,-1426,496,-573,-167,-233,-79,95,-15,-251
2,1903219,-1425,501,-576,-167,-232,-79,95,-15,-251
2,1903234,-1427,495,-577,-166,-233,-88,95,-15,-251
2,1903249,-1425,498,-575,-167,-227,-87,95,-15,-251
2,1903263,-1425,498,-575,-167,-227,-87,95,-15,-251
2,1903277,-1426,500,-572,-159,-231,-87,95,-15,-251
2,1903291,-1427,499,-572,-161,-225,-88,97,-9,-255
2,1903304,-1426,495,-573,-168,-223,-89,97,-9,-255
2,1903318,-1426,495,-573,-168,-223,-89,97,-9,-255
2,1903331,-1431,496,-575,-168,-224,-89,97,-9,-255
2,1903345,-1425,501,-575,-164,-230,-90,97,-9,-255
2,1903360,-1425,501,-575,-164,-230,-90,97,-9,-255
2,1903372,-1428,497,-576,-162,-233,-88,97,-9,-255
2,1903387,-1426,497,-574,-157,-228,-84,97,-9,-255
2,1903403,-1426,497,-574,-157,-228,-84,97,-9,-255
2,1903417,-1426,497,-567,-158,-227,-80,89,-17,-251
2,1903431,-1426,501,-567,-168,-234,-85,89,-17,-251
2,1903446,-1427,497,-576,-163,-232,-77,89,-17,-251
2,1903460,-1427,497,-576,-163,-232,-77,89,-17,-251
2,1903471,-1425,500,-571,-164,-226,-85,89,-17,-251
2,1903486,-1426,498,-575,-154,-233,-86,89,-17,-251
2,1903502,-1426,498,-575,-154,-233,-86,89,-17,-251
2,1903517,-1426,500,-573,-167,-229,-86,89,-17,-251
2,1903532,-1427,499,-576,-165,-223,-93,89,-15,-255
2,1903544,-1427,499,-576,-165,-223,-93,89,-15,-255
2,1903552,-1426,499,-572,-167,-223,-81,89,-15,-255
2,1903560,-1426,499,-572,-167,-223,-81,89,-15,-255
2,1903568,-1426,499,-575,-172,-227,-93,89,-15,-255
2,1903580,-1426,499,-575,-172,-227,-93,89,-15,-255
2,1903594,-1424,500,-577,-164,-226,-89,89,-15,-255
2,1903607,-1425,500,-575,-168,-230,-94,89,-15,-255
2,1903621,-1425,500,-575,-168,-230,-94,89,-15,-255
2,1903633,-1426,497,-573,-163,-231,-87,89,-15,-255
2,1903647,-1423,497,-574,-165,-235,-85,89,-15,-255
2,1903663,-1423,497,-574,-165,-235,-85,89,-15,-255
2,1903677,-1426,499,-574,-163,-231,-84,91,-17,-251
2,1903690,-1428,498,-576,-162,-236,-78,91,-17,-251
2,1903705,-1427,497,-575,-164,-231,-81,91,-17,-251
2,1903720,-1427,497,-575,-164,-231,-81,91,-17,-251
2,1903735,-1427,498,-576,-162,-230,-84,91,-17,-251
2,1903750,-1427,499,-576,-162,-237,-87,91,-17,-251
2,1903764,-1427,499,-576,-162,-237,-87,91,-17,-251
2,1903777,-1429,496,-574,-161,-233,-86,91,-17,-251
2,1903792,-1426,499,-573,-160,-232,-82,92,-18,-254
2,1903802,-1426,499,-573,-160,-232,-82,92,-18,-254
2,1903816,-1427,499,-574,-162,-235,-87,92,-18,-254
2,1903831,-1424,501,-574,-166,-239,-91,92,-18,-254
2,1903844,-1424,501,-574,-166,-239,-91,92,-18,-254
2,1903857,-1426,496,-577,-166,-237,-87,92,-18,-254
2,1903869,-1427,500,-579,-168,-225,-86,92,-18,-254
2,1903882,-1427,500,-579,-168,-225,-86,92,-18,-254
2,1903897,-1424,498,-573,-156,-222,-86,92,-18,-254
2,1903910,-1426,499,-573,-165,-223,-91,89,-15,-257
2,1903925,-1423,500,-573,-160,-233,-90,89,-15,-257
2,1903940,-1423,500,-573,-160,-233,-90,89,-15,-257
2,1903955,-1424,499,-573,-164,-237,-90,89,-15,-257
2,1903971,-1424,496,-576,-169,-235,-89,89,-15,-257
2,1903985,-1427,496,-577,-168,-232,-82,89,-15,-257
2,1903998,-1427,496,-577,-168,-232,-82,89,-15,-257
2,1904013,-1427,498,-581,-165,-233,-92,89,-15,-257
2,1904025,-1423,498,-572,-162,-231,-90,88,-16,-256
2,1904036,-1423,498,-572,-162,-231,-90,88,-16,-256
2,1904051,-1423,499,-574,-159,-230,-91,88,-16,-256
2,1904064,-1423,499,-574,-159,-230,-91,88,-16,-256
2,1904078,-1426,498,-573,-165,-240,-92,88,-16,-256
2,1904093,-1427,498,-575,-164,-238,-94,88,-16,-256
2,1904105,-1427,497,-575,-166,-236,-88,88,-16,-256
2,1904118,-1427,497,-575,-166,-236,-88,88,-16,-256
2,1904133,-1428,497,-576,-158,-238,-98,88,-16,-256
2,1904149,-1424,500,-578,-165,-227,-94,88,-22,-254
2,1904164,-1424,500,-578,-165,-227,-94,88,-22,-254
2,1904178,-1425,500,-570,-158,-226,-84,88,-22,-254
2,1904192,-1424,497,-575,-157,-226,-83,88,-22,-254
2,1904207,-1427,498,-577,-166,-233,-86,88,-22,-254
2,1904224,-1427,498,-577,-166,-233,-86,88,-22,-254
2,1904239,-1428,499,-574,-159,-232,-86,88,-22,-254
2,1904254,-1426,499,-578,-162,-230,-86,88,-22,-254
2,1904270,-1426,499,-578,-162,-230,-86,88,-22,-254
2,1904284,-1426,499,-578,-162,-230,-86,88,-22,-254
2,1904300,-1424,499,-574,-164,-234,-84,91,-19,-253
2,1904314,-1422,496,-574,-167,-231,-84,91,-19,-253
2,1904328,-1425,499,-576,-161,-223,-84,91,-19,-253
2,1904344,-1425,499,-576,-161,-223,-84,91,-19,-253
2,1904355,-1427,499,-567,-162,-231,-94,91,-19,-253
2,1904369,-1428,497,-574,-163,-237,-92,91,-19,-253
2,1904384,-1428,497,-574,-163,-237,-92,91,-19,-253
2,1904399,-1429,500,-575,-158,-232,-90,91,-19,-253
2,1904414,-1424,501,-572,-157,-234,-89,86,-16,-256
2,1904428,-1423,498,-572,-165,-233,-88,86,-16,-256
2,1904442,-1423,498,-572,-165,-233,-88,86,-16,-256
2,1904458,-1424,496,-574,-160,-230,-85,86,-16,-256
2,1904474,-1423,499,-576,-165,-236,-83,86,-16,-256
2,1904489,-1426,500,-577,-167,-224,-86,86,-16,-256
2,1904505,-1424,496,-575,-162,-221,-91,86,-16,-256
2,1904521,-1424,496,-575,-162,-221,-91,86,-16,-256
2,1904535,-1423,498,-573,-166,-229,-84,88,-28,-252
2,1904549,-1425,497,-568,-159,-227,-83,88,-28,-252
2,1904564,-1425,497,-568,-159,-227,-83,88,-28,-252
2,1904579,-1424,497,-573,-165,-230,-95,88,-28,-252
2,1904592,-1428,500,-572,-169,-231,-87,88,-28,-252
2,1904604,-1428,500,-572,-169,-231,-87,88,-28,-252
2,1904617,-1426,500,-576,-172,-237,-84,88,-28,-252
2,1904631,-1429,496,-575,-164,-239,-88,88,-28,-252
2,1904646,-1428,500,-572,-172,-232,-88,95,-15,-257
2,1904662,-1428,500,-572,-172,-232,-88,95,-15,-257
2,1904677,-1425,497,-574,-164,-227,-89,95,-15,-257
2,1904694,-1424,499,-571,-159,-232,-82,95,-15,-257
2,1904709,-1428,496,-573,-165,-232,-89,95,-15,-257
2,1904724,-1428,496,-573,-165,-232,-89,95,-15,-257
2,1904741,-1428,498,-574,-165,-230,-92,95,-15,-257
2,1904756,-1429,501,-572,-166,-227,-84,95,-15,-257
2,1904772,-1426,499,-575,-158,-225,-89,93,-21,-253
2,1904785,-1428,500,-571,-169,-230,-85,93,-21,-253
2,1904799,-1428,500,-571,-169,-230,-85,93,-21,-253
2,1904815,-1427,496,-578,-169,-231,-87,93,-21,-253
2,1904830,-1425,500,-577,-167,-232,-83,93,-21,-253
2,1904845,-1423,498,-579,-165,-239,-87,93,-21,-253
2,1904860,-1423,498,-579,-165,-239,-87,93,-21,-253
2,1904873,-1423,500,-582,-165,-228,-86,93,-21,-253
2,1904887,-1424,497,-572,-156,-232,-91,93,-21,-253
2,1904901,-1424,497,-572,-156,-232,-91,93,-21,-253
2,1904915,-1427,500,-574,-164,-229,-78,98,-14,-258
2,1904930,-1430,498,-577,-161,-232,-84,98,-14,-258
2,1904943,-1430,498,-577,-161,-232,-84,98,-14,-258
2,1904956,-1426,496,-575,-159,-228,-93,98,-14,-258
2,1904970,-1424,498,-571,-162,-229,-89,98,-14,-258
2,1904986,-1429,498,-576,-168,-228,-81,98,-14,-258
2,1905001,-1429,498,-576,-168,-228,-81,98,-14,-258
2,1905016,-1425,498,-574,-164,-232,-79,98,-14,-258
2,1905029,-1425,497,-570,-162,-230,-80,86,-14,-252
2,1905043,-1425,497,-570,-162,-230,-80,86,-14,-252
2,1905051,-1424,498,-569,-161,-227,-84,86,-14,-252
2,1905063,-1424,498,-569,-161,-227,-84,86,-14,-252
2,1905077,-1425,500,-572,-164,-221,-88,86,-14,-252
2,1905090,-1424,499,-575,-168,-225,-88,86,-14,-252
2,1905105,-1424,499,-575,-168,-225,-88,86,-14,-252
2,1905119,-1424,499,-572,-163,-236,-85,86,-14,-252
2,1905133,-1426,501,-580,-162,-230,-84,86,-14,-252
2,1905147,-1426,500,-573,-160,-239,-94,89,-13,-255
2,1905160,-1426,500,-573,-160,-239,-94,89,-13,-255
2,1905173,-1429,496,-577,-160,-234,-88,89,-13,-255
2,1905188,-1430,496,-577,-164,-232,-86,89,-13,-255
2,1905204,-1430,496,-577,-164,-232,-86,89,-13,-255
2,1905219,-1429,499,-574,-162,-223,-86,89,-13,-255
2,1905231,-1425,501,-574,-164,-223,-84,89,-13,-255
2,1905240,-1425,501,-574,-164,-223,-84,89,-13,-255
2,1905251,-1426,500,-574,-156,-232,-88,89,-13,-255
2,1905262,-1426,500,-574,-156,-232,-88,89,-13,-255
2,1905269,-1424,498,-577,-162,-236,-93,95,-7,-257
2,1905282,-1424,498,-577,-162,-236,-93,95,-7,-257
2,1905293,-1426,501,-575,-171,-235,-98,95,-7,-257
2,1905307,-1427,496,-576,-168,-233,-89,95,-7,-257
2,1905323,-1427,496,-576,-168,-233,-89,95,-7,-257
2,1905338,-1426,498,-572,-162,-227,-86,95,-7,-257
2,1905352,-1428,498,-573,-160,-225,-83,95,-7,-257
2,1905366,-1428,496,-576,-159,-232,-86,95,-7,-257
2,1905383,-1428,496,-576,-159,-232,-86,95,-7,-257
2,1905397,-1427,498,-578,-168,-238,-86,85,-15,-249
2,1905410,-1429,500,-574,-159,-229,-88,85,-15,-249
2,1905423,-1429,500,-574,-159,-229,-88,85,-15,-249
2,1905439,-1430,496,-572,-158,-233,-91,85,-15,-249
2,1905455,-1427,500,-578,-160,-239,-95,85,-15,-249
2,1905471,-1429,498,-579,-163,-238,-86,85,-15,-249
2,1905486,-1427,499,-578,-166,-225,-85,85,-15,-249
2,1905501,-1427,499,-578,-166,-225,-85,85,-15,-249
2,1905514,-1428,497,-577,-159,-229,-80,85,-15,-249
2,1905528,-1426,499,-573,-162,-231,-82,92,-14,-254
2,1905544,-1426,499,-573,-162,-231,-82,92,-14,-254
2,1905559,-1427,497,-573,-161,-228,-81,92,-14,-254
2,1905572,-1428,497,-575,-165,-227,-84,92,-14,-254
2,1905587,-1424,498,-579,-171,-226,-89,92,-14,-254
2,1905601,-1424,498,-579,-171,-226,-89,92,-14,-254
2,1905615,-1427,500,-584,-166,-223,-87,92,-14,-254
2,1905629,-1428,498,-577,-158,-230,-82,92,-14,-254
2,1905642,-1428,498,-577,-158,-230,-82,92,-14,-254
2,1905656,-1429,500,-575,-157,-228,-87,92,-16,-260
2,1905672,-1428,499,-578,-163,-231,-87,92,-16,-260
2,1905687,-1424,499,-578,-166,-231,-87,92,-16,-260
2,1905700,-1424,499,-578,-166,-231,-87,92,-16,-260
2,1905716,-1423,498,-576,-161,-229,-85,92,-16,-260
2,1905731,-1423,498,-576,-161,-229,-85,92,-16,-260
2,1905746,-1426,500,-573,-161,-234,-80,92,-16,-260
2,1905763,-1426,500,-573,-161,-234,-80,92,-16,-260
2,1905779,-1425,498,-574,-163,-231,-82,91,-5,-257
2,1905795,-1428,497,-572,-164,-229,-85,91,-5,-257
2,1905809,-1429,500,-576,-161,-231,-85,91,-5,-257
2,1905823,-1429,500,-576,-161,-231,-85,91,-5,-257
2,1905839,-1426,500,-576,-158,-232,-81,91,-5,-257
2,1905853,-1426,500,-576,-158,-232,-81,91,-5,-257
2,1905867,-1427,496,-578,-169,-227,-96,91,-5,-257
2,1905883,-1427,496,-578,-169,-227,-96,91,-5,-257
2,1905895,-1428,500,-572,-163,-233,-96,97,-9,-255
2,1905909,-1424,499,-567,-162,-232,-85,97,-9,-255
2,1905925,-1424,499,-567,-162,-232,-85,97,-9,-255
2,1905941,-1427,498,-571,-166,-233,-90,97,-9,-255
2,1905957,-1429,497,-579,-161,-230,-92,97,-9,-255
2,1905973,-1427,496,-577,-160,-229,-88,97,-9,-255
2,1905985,-1427,496,-577,-160,-229,-88,97,-9,-255
2,1905998,-1425,499,-577,-161,-229,-94,97,-9,-255
2,1906013,-1427,498,-577,-161,-233,-88,92,-16,-250
2,1906027,-1425,495,-573,-159,-227,-86,92,-16,-250
2,1906041,-1425,495,-573,-159,-227,-86,92,-16,-250
2,1906056,-1424,497,-577,-164,-225,-84,92,-16,-250
2,1906071,-1424,499,-576,-157,-232,-93,92,-16,-250
2,1906085,-1424,499,-576,-157,-232,-93,92,-16,-250
2,1906099,-1424,498,-580,-162,-223,-83,92,-16,-250
2,1906113,-1424,499,-579,-171,-233,-86,92,-16,-250
2,1906127,-1424,498,-572,-167,-234,-93,92,-16,-250
2,1906142,-1424,498,-572,-167,-234,-93,92,-16,-250
2,1906156,-1426,496,-572,-166,-236,-93,96,-16,-258
2,1906170,-1426,495,-570,-170,-233,-91,96,-16,-258
2,1906180,-1426,495,-570,-170,-233,-91,96,-16,-258
2,1906194,-1425,496,-571,-157,-229,-92,96,-16,-258
2,1906209,-1427,500,-577,-156,-230,-88,96,-16,-258
2,1906225,-1427,500,-577,-156,-230,-88,96,-16,-258
2,1906241,-1425,498,-576,-162,-234,-93,96,-16,-258
2,1906251,-1425,498,-579,-169,-239,-88,96,-16,-258
2,1906266,-1425,498,-579,-169,-239,-88,96,-16,-258
2,1906281,-1424,497,-579,-167,-236,-96,96,-14,-256
2,1906295,-1425,500,-575,-169,-232,-93,96,-14,-256
2,1906310,-1423,496,-580,-164,-236,-89,96,-14,-256
2,1906325,-1423,496,-580,-164,-236,-89,96,-14,-256
2,1906339,-1427,497,-576,-166,-233,-88,96,-14,-256
2,1906357,-1426,495,-575,-166,-233,-87,96,-14,-256
2,1906372,-1428,498,-580,-162,-227,-87,96,-14,-256
2,1906385,-1428,498,-580,-162,-227,-87,96,-14,-256
2,1906401,-1426,501,-572,-154,-230,-91,96,-12,-252
2,1906414,-1425,496,-575,-162,-235,-86,96,-12,-252
2,1906428,-1426,496,-579,-168,-229,-82,96,-12,-252
2,1906445,-1426,496,-579,-168,-229,-82,96,-12,-252
2,1906460,-1425,499,-573,-170,-227,-90,96,-12,-252
2,1906477,-1430,498,-573,-162,-233,-87,96,-12,-252
2,1906492,-1427,497,-576,-161,-240,-85,96,-12,-252
2,1906506,-1427,497,-576,-161,-240,-85,96,-12,-252
2,1906519,-1427,497,-572,-160,-233,-77,86,-14,-244
2,1906533,-1424,502,-575,-163,-223,-88,86,-14,-244
2,1906548,-1427,498,-578,-161,-235,-99,86,-14,-244
2,1906564,-1427,498,-578,-161,-235,-99,86,-14,-244
2,1906578,-1426,498,-579,-160,-239,-90,86,-14,-244
2,1906592,-1427,498,-579,-162,-239,-98,86,-14,-244
2,1906608,-1430,498,-574,-159,-227,-93,86,-14,-244
2,1906623,-1430,498,-574,-159,-227,-93,86,-14,-244
2,1906637,-1426,501,-576,-160,-230,-93,93,-13,-255
2,1906652,-1427,497,-578,-158,-237,-87,93,-13,-255
2,1906663,-1427,497,-578,-158,-237,-87,93,-13,-255
2,1906679,-1427,499,-572,-162,-235,-82,93,-13,-255
2,1906696,-1429,498,-582,-157,-232,-86,93,-13,-255
2,1906712,-1427,497,-577,-166,-231,-83,93,-13,-255
2,1906726,-1427,497,-577,-166,-231,-83,93,-13,-255
2,1906740,-1424,501,-579,-156,-235,-92,93,-13,-255
2,1906752,-1426,500,-574,-166,-237,-87,94,-14,-252
2,1906767,-1426,499,-570,-170,-233,-88,94,-14,-252
2,1906783,-1426,499,-570,-170,-233,-88,94,-14,-252
2,1906798,-1425,497,-576,-164,-228,-87,94,-14,-252
2,1906813,-1425,499,-575,-165,-222,-86,94,-14,-252
2,1906829,-1427,497,-577,-165,-238,-88,94,-14,-252
2,1906843,-1427,497,-577,-165,-238,-88,94,-14,-252
2,1906857,-1426,499,-579,-164,-234,-82,94,-14,-252
2,1906870,-1423,499,-578,-164,-229,-86,94,-14,-252
2,1906881,-1423,499,-578,-164,-229,-86,94,-14,-252
2,1906897,-1423,499,-571,-162,-223,-82,90,-10,-256
2,1906910,-1426,498,-578,-155,-227,-75,90,-10,-256
2,1906924,-1426,498,-578,-155,-227,-75,90,-10,-256
2,1906939,-1425,498,-572,-163,-226,-80,90,-10,-256
2,1906955,-1426,498,-577,-155,-227,-90,90,-10,-256
2,1906971,-1423,499,-574,-158,-227,-86,90,-10,-256
2,1906987,-1423,499,-574,-158,-227,-86,90,-10,-256
2,1907002,-1425,499,-578,-166,-230,-88,90,-10,-256
2,1907017,-1424,500,-577,-169,-224,-88,91,-15,-251
2,1907032,-1424,500,-574,-163,-227,-90,91,-15,-251
2,1907047,-1424,500,-574,-163,-227,-90,91,-15,-251
2,1907062,-1425,496,-577,-162,-229,-86,91,-15,-251
2,1907077,-1426,498,-579,-166,-226,-83,91,-15,-251
2,1907091,-1425,496,-581,-162,-238,-75,91,-15,-251
2,1907103,-1425,496,-581,-162,-238,-75,91,-15,-251
2,1907116,-1425,501,-578,-161,-240,-91,91,-15,-251
2,1907131,-1424,498,-571,-164,-229,-84,88,-12,-252
2,1907145,-1424,498,-571,-164,-229,-84,88,-12,-252
2,1907159,-1423,498,-577,-170,-228,-84,88,-12,-252
2,1907174,-1425,497,-574,-162,-230,-90,88,-12,-252
2,1907189,-1427,499,-576,-167,-235,-93,88,-12,-252
2,1907205,-1427,499,-576,-167,-235,-93,88,-12,-252
2,1907221,-1424,497,-574,-158,-227,-91,88,-12,-252
2,1907236,-1427,498,-579,-159,-236,-78,88,-12,-252
2,1907252,-1426,498,-572,-162,-220,-87,93,-11,-259
2,1907260,-1426,498,-572,-162,-220,-87,93,-11,-259
2,1907274,-1423,497,-570,-162,-230,-89,93,-11,-259
2,1907290,-1427,496,-577,-157,-228,-84,93,-11,-259
2,1907305,-1427,496,-577,-157,-228,-84,93,-11,-259
2,1907320,-1426,498,-575,-165,-234,-82,93,-11,-259
2,1907334,-1426,501,-579,-165,-232,-90,93,-11,-259
2,1907350,-1427,498,-574,-162,-231,-90,93,-11,-259
2,1907366,-1427,498,-574,-162,-231,-90,93,-11,-259
2,1907382,-1426,499,-577,-165,-238,-82,83,-19,-253
2,1907398,-1426,497,-570,-161,-229,-83,83,-19,-253
2,1907412,-1428,497,-575,-160,-235,-87,83,-19,-253
2,1907425,-1428,497,-575,-160,-235,-87,83,-19,-253
2,1907440,-1427,500,-575,-170,-227,-89,83,-19,-253
2,1907456,-1425,498,-577,-170,-226,-91,83,-19,-253
2,1907470,-1426,499,-578,-169,-226,-88,83,-19,-253
2,1907485,-1426,499,-578,-169,-226,-88,83,-19,-253
2,1907500,-1425,499,-576,-167,-233,-90,83,-19,-253
2,1907512,-1426,500,-572,-157,-229,-88,96,-16,-252
2,1907527,-1426,500,-572,-157,-229,-88,96,-16,-252
2,1907538,-1424,499,-577,-152,-233,-89,96,-16,-252
2,1907553,-1424,496,-576,-156,-230,-85,96,-16,-252
2,1907567,-1424,496,-576,-156,-230,-85,96,-16,-252
2,1907584,-1426,497,-572,-161,-228,-91,96,-16,-252
2,1907596,-1425,496,-573,-164,-229,-94,96,-16,-252
2,1907611,-1426,499,-573,-158,-233,-91,96,-16,-252
2,1907628,-1426,499,-573,-158,-233,-91,96,-16,-252
2,1907644,-1425,496,-569,-163,-238,-96,87,-15,-259
2,1907659,-1425,497,-571,-167,-236,-88,87,-15,-259
2,1907674,-1427,501,-575,-162,-234,-87,87,-15,-259
2,1907690,-1426,499,-576,-162,-227,-87,87,-15,-259
2,1907705,-1426,499,-576,-162,-227,-87,87,-15,-259
2,1907721,-1428,497,-581,-163,-223,-92,87,-15,-259
2,1907737,-1424,498,-577,-164,-230,-85,87,-15,-259
2,1907748,-1427,497,-571,-165,-238,-88,89,-15,-265
2,1907763,-1427,497,-571,-165,-238,-88,89,-15,-265
2,1907777,-1425,499,-574,-159,-231,-85,89,-15,-265
2,1907792,-1426,498,-574,-163,-234,-81,89,-15,-265
2,1907806,-1426,498,-574,-163,-234,-81,89,-15,-265
2,1907819,-1424,498,-586,-166,-234,-82,89,-15,-265
2,1907835,-1425,502,-577,-167,-237,-87,89,-15,-265
2,1907852,-1427,496,-579,-166,-229,-84,89,-15,-265
2,1907867,-1427,496,-579,-166,-229,-84,89,-15,-265
2,1907884,-1425,498,-570,-164,-232,-80,92,-12,-250
2,1907899,-1425,501,-572,-170,-223,-87,92,-12,-250
2,1907914,-1427,499,-574,-168,-229,-99,92,-12,-250
2,1907927,-1427,499,-574,-168,-229,-99,92,-12,-250
2,1907939,-1426,500,-580,-158,-235,-87,92,-12,-250
2,1907954,-1425,499,-576,-156,-231,-82,92,-12,-250
2,1907969,-1428,499,-582,-161,-233,-82,92,-12,-250
2,1907983,-1428,499,-582,-161,-233,-82,92,-12,-250
2,1907998,-1427,500,-576,-161,-229,-84,94,-10,-256
2,1908014,-1427,499,-569,-167,-229,-84,94,-10,-256
2,1908030,-1425,501,-578,-163,-225,-82,94,-10,-256
2,1908046,-1425,501,-578,-163,-225,-82,94,-10,-256
2,1908062,-1426,496,-577,-161,-234,-88,94,-10,-256
2,1908078,-1426,499,-578,-170,-248,-86,94,-10,-256
2,1908094,-1426,498,-572,-166,-231,-86,94,-10,-256
2,1908109,-1427,500,-571,-157,-229,-88,94,-10,-256
2,1908124,-1427,500,-571,-157,-229,-88,94,-10,-256
2,1908140,-1427,499,-578,-162,-236,-90,95,-9,-255
2,1908154,-1426,499,-573,-166,-234,-83,95,-9,-255
2,1908168,-1427,501,-575,-162,-232,-85,95,-9,-255
2,1908184,-1427,501,-575,-162,-232,-85,95,-9,-255
2,1908198,-1428,498,-572,-158,-240,-89,95,-9,-255
2,1908211,-1426,499,-578,-164,-230,-79,95,-9,-255
2,1908225,-1426,499,-578,-164,-230,-79,95,-9,-255
2,1908239,-1427,500,-579,-163,-231,-89,95,-9,-255
2,1908254,-1425,497,-567,-166,-234,-86,89,-9,-251
2,1908271,-1425,499,-574,-160,-236,-87,89,-9,-251
2,1908287,-1425,499,-574,-160,-236,-87,89,-9,-251
2,1908303,-1426,501,-578,-162,-236,-86,89,-9,-251
2,1908320,-1427,500,-574,-172,-230,-86,89,-9,-251
2,1908336,-1427,499,-576,-162,-231,-80,89,-9,-251
2,1908354,-1428,498,-576,-158,-232,-85,89,-9,-251
2,1908369,-1425,500,-572,-161,-234,-89,89,-9,-251
2,1908381,-1425,500,-572,-161,-234,-89,92,-16,-252
2,1908396,-1425,498,-575,-162,-238,-89,92,-16,-252
2,1908410,-1426,496,-573,-162,-230,-88,92,-16,-252
2,1908424,-1426,496,-573,-162,-230,-88,92,-16,-252
2,1908440,-1429,495,-576,-171,-227,-90,92,-16,-252
2,1908455,-1428,500,-574,-163,-219,-81,92,-16,-252
2,1908469,-1424,500,-577,-165,-230,-84,92,-16,-252
2,1908485,-1424,500,-577,-165,-230,-84,92,-16,-252
2,1908500,-1426,496,-576,-165,-231,-82,92,-18,-252
2,1908512,-1424,498,-572,-163,-241,-91,92,-18,-252
2,1908528,-1424,498,-572,-163,-241,-91,92,-18,-252
2,1908541,-1428,500,-578,-164,-238,-86,92,-18,-252
2,1908556,-1425,500,-576,-169,-238,-86,92,-18,-252
2,1908572,-1430,496,-576,-167,-233,-90,92,-18,-252
2,1908587,-1430,496,-576,-167,-233,-90,92,-18,-252
2,1908602,-1425,498,-580,-165,-231,-85,92,-18,-252
2,1908617,-1425,499,-578,-170,-234,-88,84,-16,-254
2,1908630,-1426,499,-576,-166,-234,-86,84,-16,-254
2,1908645,-1426,499,-576,-166,-234,-86,84,-16,-254
2,1908659,-1425,499,-576,-159,-229,-87,84,-16,-254
2,1908673,-1425,495,-571,-161,-230,-86,84,-16,-254
2,1908687,-1425,495,-571,-161,-230,-86,84,-16,-254
2,1908703,-1426,498,-579,-158,-230,-90,84,-16,-254
2,1908718,-1426,501,-576,-158,-235,-84,84,-16,-254
2,1908733,-1425,496,-577,-163,-229,-88,84,-16,-254
2,1908750,-1424,497,-569,-163,-239,-87,89,-11,-259
2,1908766,-1424,497,-569,-163,-239,-87,89,-11,-259
2,1908782,-1428,499,-572,-166,-227,-92,89,-11,-259
2,1908798,-1425,501,-574,-171,-235,-89,89,-11,-259
2,1908813,-1427,499,-575,-165,-236,-87,89,-11,-259
2,1908830,-1427,494,-575,-158,-227,-90,89,-11,-259
2,1908840,-1427,494,-575,-158,-227,-90,89,-11,-259
2,1908852,-1428,496,-578,-159,-227,-90,89,-11,-259
2,1908868,-1428,496,-578,-159,-227,-90,89,-11,-259
2,1908880,-1427,500,-571,-154,-232,-83,78,-12,-256
2,1908896,-1426,499,-574,-165,-226,-85,78,-12,-256
2,1908910,-1425,499,-573,-160,-229,-81,78,-12,-256
2,1908923,-1425,499,-573,-160,-229,-81,78,-12,-256
2,1908937,-1426,499,-582,-165,-221,-81,78,-12,-256
2,1908953,-1427,498,-580,-160,-234,-89,78,-12,-256
2,1908967,-1427,498,-580,-160,-234,-89,78,-12,-256
2,1908976,-1426,499,-574,-155,-225,-90,78,-12,-256
2,1908992,-1425,499,-577,-153,-236,-87,87,-15,-251
2,1909007,-1425,499,-577,-153,-236,-87,87,-15,-251
2,1909023,-1426,496,-575,-155,-235,-89,87,-15,-251
2,1909036,-1423,496,-575,-161,-230,-85,87,-15,-251
2,1909050,-1426,497,-576,-166,-231,-83,87,-15,-251
2,1909063,-1426,497,-576,-166,-231,-83,87,-15,-251
2,1909079,-1423,497,-575,-162,-233,-91,87,-15,-251
2,1909094,-1426,499,-578,-165,-232,-89,87,-15,-251
2,1909102,-1426,499,-578,-165,-232,-89,87,-15,-251
2,1909117,-1423,498,-574,-165,-231,-81,96,-18,-266
2,1909132,-1426,500,-574,-162,-231,-78,96,-18,-266
2,1909147,-1426,500,-574,-162,-231,-78,96,-18,-266
2,1909159,-1425,499,-575,-166,-240,-84,96,-18,-266
2,1909168,-1425,499,-575,-166,-240,-84,96,-18,-266
2,1909179,-1425,497,-573,-162,-230,-88,96,-18,-266
2,1909193,-1424,501,-576,-154,-231,-87,96,-18,-266
2,1909210,-1427,498,-580,-161,-231,-93,96,-18,-266
2,1909226,-1427,498,-580,-161,-231,-93,96,-18,-266
2,1909242,-1429,498,-574,-166,-230,-94,87,-15,-251
2,1909259,-1427,499,-573,-158,-227,-83,87,-15,-251
2,1909274,-1425,499,-577,-157,-234,-83,87,-15,-251
2,1909291,-1426,497,-571,-160,-230,-86,87,-15,-251
2,1909306,-1426,497,-571,-160,-230,-86,87,-15,-251
2,1909320,-1426,493,-579,-162,-227,-89,87,-15,-251
2,1909334,-1425,498,-569,-163,-230,-83,87,-15,-251
2,1909348,-1425,498,-569,-163,-230,-83,87,-15,-251
2,1909364,-1425,499,-579,-163,-229,-88,87,-15,-251
2,1909379,-1425,497,-572,-161,-234,-86,89,-19,-257
2,1909393,-1426,500,-578,-161,-223,-85,89,-19,-257
2,1909408,-1426,500,-578,-161,-223,-85,89,-19,-257
2,1909424,-1427,499,-579,-162,-227,-86,89,-19,-257
2,1909438,-1424,500,-580,-156,-232,-88,89,-19,-257
2,1909454,-1424,500,-576,-163,-228,-93,89,-19,-257
2,1909470,-1424,502,-580,-163,-233,-96,89,-19,-257
2,1909486,-1424,502,-580,-163,-233,-96,89,-19,-257
2,1909502,-1423,499,-576,-160,-233,-92,92,-8,-256
2,1909519,-1425,495,-573,-160,-237,-91,92,-8,-256
2,1909535,-1426,498,-574,-163,-236,-87,92,-8,-256
2,1909551,-1424,496,-571,-160,-237,-89,92,-8,-256
2,1909566,-1424,496,-571,-160,-237,-89,92,-8,-256
2,1909581,-1425,500,-577,-163,-228,-86,92,-8,-256
2,1909597,-1428,496,-578,-160,-229,-90,92,-8,-256
2,1909612,-1425,498,-571,-160,-232,-91,85,-21,-255
2,1909626,-1425,498,-571,-160,-232,-91,85,-21,-255
2,1909635,-1427,501,-571,-161,-235,-92,85,-21,-255
2,1909648,-1427,501,-571,-161,-235,-92,85,-21,-255
2,1909662,-1427,501,-578,-159,-231,-95,85,-21,-255
2,1909679,-1428,497,-575,-163,-226,-84,85,-21,-255
2,1909694,-1422,498,-576,-158,-230,-90,85,-21,-255
2,1909709,-1422,498,-576,-158,-230,-90,85,-21,-255
2,1909726,-1422,498,-576,-158,-230,-90,85,-21,-255
2,1909739,-1427,497,-571,-161,-230,-83,90,-14,-258
2,1909752,-1426,499,-575,-164,-231,-86,90,-14,-258
2,1909766,-1426,499,-575,-164,-231,-86,90,-14,-258
2,1909781,-1426,500,-577,-163,-232,-86,90,-14,-258
2,1909796,-1423,501,-577,-164,-232,-87,90,-14,-258
2,1909812,-1425,500,-581,-169,-226,-79,90,-14,-258
2,1909827,-1425,500,-581,-169,-226,-79,90,-14,-258
2,1909841,-1427,498,-576,-159,-226,-89,90,-14,-258
2,1909857,-1426,498,-573,-166,-230,-93,90,-20,-258
2,1909872,-1425,499,-578,-163,-226,-90,90,-20,-258
2,1909885,-1425,499,-578,-163,-226,-90,90,-20,-258
2,1909900,-1426,497,-577,-154,-225,-95,90,-20,-258
2,1909914,-1426,498,-580,-167,-233,-85,90,-20,-258
2,1909931,-1426,498,-579,-165,-231,-89,90,-20,-258
2,1909946,-1426,498,-579,-165,-231,-89,90,-20,-258
2,1909962,-1426,500,-576,-163,-230,-89,90,-20,-258
2,1909979,-1426,500,-576,-163,-230,-89,90,-20,-258
2,1909994,-1428,499,-571,-168,-224,-84,94,-14,-246
2,1910008,-1428,499,-571,-168,-224,-84,94,-14,-246
2,1910023,-1426,499,-570,-165,-227,-89,94,-14,-246
2,1910039,-1426,500,-574,-161,-232,-80,94,-14,-246
2,1910052,-1428,499,-575,-165,-237,-83,94,-14,-246
2,1910066,-1428,499,-575,-165,-237,-83,94,-14,-246
2,1910081,-1425,495,-578,-162,-235,-90,94,-14,-246
2,1910097,-1426,501,-574,-162,-234,-89,94,-14,-246
2,1910111,-1424,498,-573,-160,-229,-85,92,-10,-254
2,1910126,-1424,498,-573,-160,-229,-85,92,-10,-254
2,1910140,-1424,499,-577,-160,-232,-90,92,-10,-254
2,1910154,-1426,501,-576,-162,-232,-93,92,-10,-254
2,1910170,-1426,501,-576,-162,-232,-93,92,-10,-254
2,1910183,-1425,497,-575,-163,-229,-90,92,-10,-254
2,1910193,-1427,500,-578,-164,-232,-82,92,-10,-254
2,1910206,-1427,500,-578,-164,-232,-82,92,-10,-254
2,1910219,-1427,499,-579,-165,-232,-86,92,-10,-254
2,1910235,-1426,499,-575,-164,-234,-84,88,-16,-248
2,1910250,-1426,499,-575,-164,-234,-84,88,-16,-248
2,1910265,-1425,497,-570,-159,-230,-86,88,-16,-248
2,1910280,-1427,497,-576,-165,-221,-90,88,-16,-248
2,1910295,-1425,499,-580,-173,-229,-82,88,-16,-248
2,1910310,-1425,500,-579,-170,-229,-82,88,-16,-248
2,1910326,-1425,500,-579,-170,-229,-82,88,-16,-248
2,1910343,-1424,497,-578,-165,-233,-89,88,-16,-248
2,1910359,-1425,498,-572,-161,-234,-90,84,-16,-256
2,1910374,-1424,498,-572,-163,-232,-90,84,-16,-256
2,1910389,-1424,498,-572,-163,-232,-90,84,-16,-256
2,1910406,-1425,498,-573,-160,-237,-97,84,-16,-256
2,1910421,-1425,497,-579,-161,-237,-95,84,-16,-256
2,1910434,-1427,499,-578,-163,-232,-90,84,-16,-256
2,1910450,-1427,499,-578,-163,-232,-90,84,-16,-256
2,1910464,-1427,497,-579,-166,-230,-86,84,-16,-256
2,1910479,-1427,500,-574,-162,-233,-86,94,-12,-250
2,1910494,-1423,499,-577,-150,-232,-92,94,-12,-250
2,1910508,-1423,499,-577,-150,-232,-92,94,-12,-250
2,1910521,-1423,499,-576,-154,-219,-94,94,-12,-250
2,1910535,-1425,498,-576,-160,-226,-87,94,-12,-250
2,1910548,-1425,498,-576,-160,-226,-87,94,-12,-250
2,1910563,-1427,500,-575,-164,-233,-84,94,-12,-250
2,1910579,-1428,500,-578,-158,-236,-83,94,-12,-250
2,1910594,-1427,500,-576,-164,-231,-82,94,-12,-250
2,1910609,-1427,500,-576,-164,-231,-82,94,-12,-250
2,1910626,-1428,498,-575,-161,-230,-86,91,-21,-253
2,1910641,-1426,496,-574,-166,-238,-95,91,-21,-253
2,1910658,-1430,498,-580,-168,-230,-90,91,-21,-253
2,1910673,-1426,499,-573,-165,-228,-86,91,-21,-253
2,1910688,-1426,499,-573,-165,-228,-86,91,-21,-253
2,1910705,-1428,498,-579,-169,-232,-87,91,-21,-253
2,1910720,-1425,500,-579,-164,-232,-89,91,-21,-253
2,1910734,-1426,500,-573,-159,-234,-95,94,-12,-256
2,1910750,-1426,500,-573,-159,-234,-95,94,-12,-256
2,1910764,-1429,498,-573,-159,-232,-89,94,-12,-256
2,1910779,-1427,495,-581,-164,-228,-93,94,-12,-256
2,1910794,-1428,500,-572,-160,-235,-92,94,-12,-256
2,1910810,-1428,500,-572,-160,-235,-92,94,-12,-256
2,1910821,-1426,499,-577,-159,-234,-91,94,-12,-256
2,1910836,-1426,499,-576,-162,-223,-85,94,-12,-256
2,1910851,-1424,500,-571,-160,-232,-93,87,-15,-257
2,1910866,-1424,500,-571,-160,-232,-93,87,-15,-257
2,1910882,-1425,497,-576,-165,-233,-85,87,-15,-257
2,1910897,-1427,499,-578,-164,-229,-90,87,-15,-257
2,1910912,-1427,500,-577,-165,-233,-91,87,-15,-257
2,1910925,-1427,500,-577,-165,-233,-91,87,-15,-257
2,1910933,-1427,500,-575,-165,-235,-86,87,-15,-257
2,1910941,-1427,500,-575,-165,-235,-86,87,-15,-257
2,1910955,-1428,498,-576,-159,-222,-84,87,-15,-257
2,1910969,-1428,498,-576,-159,-222,-84,87,-15,-257
2,1910984,-1423,498,-577,-159,-228,-77,85,-13,-253
2,1911000,-1427,496,-570,-163,-233,-79,85,-13,-253
2,1911014,-1429,499,-574,-161,-224,-84,85,-13,-253
2,1911030,-1429,499,-574,-161,-224,-84,85,-13,-253
2,1911045,-1427,497,-577,-161,-227,-79,85,-13,-253
2,1911062,-1426,497,-578,-158,-233,-78,85,-13,-253
2,1911070,-1426,497,-578,-158,-233,-78,85,-13,-253
2,1911087,-1430,497,-579,-164,-232,-83,85,-13,-253
2,1911103,-1429,497,-579,-168,-228,-78,93,-11,-253
2,1911118,-1426,496,-575,-168,-235,-87,93,-11,-253
2,1911135,-1424,494,-575,-166,-233,-88,93,-11,-253
2,1911148,-1424,494,-575,-166,-233,-88,93,-11,-253
2,1911162,-1427,497,-572,-158,-228,-93,93,-11,-253
2,1911175,-1427,497,-576,-161,-236,-87,93,-11,-253
2,1911188,-1427,497,-576,-161,-236,-87,93,-11,-253
2,1911202,-1426,498,-576,-161,-231,-97,93,-11,-253
2,1911214,-1427,498,-574,-162,-232,-93,93,-11,-253
2,1911226,-1427,498,-574,-162,-232,-93,93,-11,-253
2,1911238,-1428,500,-575,-160,-227,-88,86,-20,-246
2,1911254,-1426,499,-572,-164,-229,-85,86,-20,-246
2,1911270,-1426,499,-572,-164,-229,-85,86,-20,-246
2,1911286,-1424,498,-572,-168,-234,-88,86,-20,-246
2,1911303,-1428,496,-578,-157,-230,-89,86,-20,-246
2,1911319,-1426,497,-577,-160,-228,-93,86,-20,-246
2,1911331,-1424,501,-574,-165,-227,-91,86,-20,-246
2,1911346,-1424,501,-574,-165,-227,-91,86,-20,-246
2,1911360,-1428,498,-574,-161,-227,-84,94,-8,-256
2,1911376,-1426,499,-570,-161,-232,-83,94,-8,-256
2,1911385,-1426,499,-570,-161,-232,-83,94,-8,-256
2,1911400,-1426,501,-574,-165,-235,-91,94,-8,-256
2,1911413,-1427,498,-579,-164,-239,-89,94,-8,-256
2,1911429,-1427,498,-579,-164,-239,-89,94,-8,-256
2,1911442,-1427,497,-576,-167,-237,-86,94,-8,-256
2,1911456,-1429,496,-576,-166,-230,-98,94,-8,-256
2,1911472,-1429,496,-576,-166,-230,-98,93,-11,-251
2,1911487,-1429,496,-576,-166,-230,-98,93,-11,-251
2,1911503,-1427,497,-576,-164,-226,-95,93,-11,-251
2,1911520,-1427,499,-576,-162,-222,-88,93,-11,-251
2,1911536,-1428,497,-577,-164,-225,-88,93,-11,-251
2,1911550,-1428,497,-577,-164,-225,-88,93,-11,-251
2,1911563,-1429,498,-576,-160,-228,-86,93,-11,-251
2,1911577,-1426,497,-579,-162,-226,-90,93,-11,-251
2,1911592,-1426,497,-571,-161,-220,-90,96,-18,-262
2,1911607,-1426,497,-571,-161,-220,-90,96,-18,-262
2,1911622,-1427,500,-572,-164,-222,-84,96,-18,-262
2,1911638,-1421,498,-573,-156,-222,-92,96,-18,-262
2,1911652,-1427,497,-578,-153,-229,-86,96,-18,-262
2,1911666,-1427,497,-578,-153,-229,-86,96,-18,-262
2,1911682,-1428,496,-573,-160,-229,-87,96,-18,-262
2,1911695,-1426,496,-571,-159,-225,-82,96,-18,-262
2,1911707,-1426,496,-571,-159,-225,-82,96,-18,-262
2,1911723,-1428,497,-576,-159,-228,-85,86,-20,-258
2,1911739,-1426,498,-572,-163,-227,-88,86,-20,-258
2,1911754,-1424,497,-574,-162,-231,-86,86,-20,-258
2,1911771,-1424,497,-574,-162,-231,-86,86,-20,-258
2,1911786,-1427,498,-578,-166,-232,-89,86,-20,-258
2,1911800,-1427,498,-580,-167,-228,-86,86,-20,-258
2,1911813,-1427,498,-577,-168,-226,-89,86,-20,-258
2,1911828,-1427,498,-577,-168,-226,-89,86,-20,-258
2,1911843,-1427,497,-576,-163,-226,-80,86,-20,-258
2,1911858,-1423,498,-574,-163,-231,-81,95,-21,-253
2,1911873,-1427,499,-578,-162,-227,-78,95,-21,-253
2,1911888,-1427,499,-578,-162,-227,-78,95,-21,-253
2,1911903,-1427,498,-576,-161,-232,-87,95,-21,-253
2,1911918,-1428,499,-576,-160,-225,-88,95,-21,-253
2,1911933,-1426,498,-579,-158,-223,-89,95,-21,-253
2,1911948,-1426,498,-579,-158,-223,-89,95,-21,-253
2,1911961,-1426,498,-581,-162,-226,-89,95,-21,-253
2,1911975,-1427,498,-572,-163,-228,-86,89,-13,-255
2,1911991,-1427,498,-572,-163,-228,-86,89,-13,-255
2,1912006,-1428,498,-572,-164,-225,-86,89,-13,-255
2,1912019,-1425,499,-576,-164,-232,-87,89,-13,-255
2,1912029,-1425,499,-576,-164,-232,-87,89,-13,-255
2,1912045,-1423,501,-575,-159,-223,-88,89,-13,-255
2,1912059,-1423,501,-583,-155,-231,-88,89,-13,-255
2,1912071,-1423,501,-583,-155,-231,-88,89,-13,-255
2,1912082,-1428,499,-573,-163,-229,-95,89,-13,-255
2,1912097,-1426,500,-573,-166,-226,-92,93,-15,-253
2,1912111,-1426,500,-573,-166,-226,-92,93,-15,-253
2,1912119,-1425,500,-574,-157,-237,-88,93,-15,-253
2,1912130,-1425,500,-574,-157,-237,-88,93,-15,-253
2,1912147,-1425,501,-576,-160,-227,-89,93,-15,-253
2,1912162,-1425,501,-579,-163,-222,-93,93,-15,-253
2,1912176,-1429,499,-575,-159,-229,-88,93,-15,-253
2,1912190,-1429,499,-575,-159,-229,-88,93,-15,-253
2,1912206,-1428,499,-577,-163,-227,-89,93,-15,-253
2,1912220,-1426,499,-576,-160,-235,-86,89,-13,-245
2,1912236,-1427,496,-574,-159,-234,-83,89,-13,-245
2,1912250,-1427,496,-574,-159,-234,-83,89,-13,-245
2,1912265,-1426,500,-577,-156,-233,-82,89,-13,-245
2,1912282,-1426,496,-578,-156,-223,-86,89,-13,-245
2,1912297,-1427,498,-585,-163,-229,-86,89,-13,-245
2,1912312,-1428,493,-578,-159,-228,-83,89,-13,-245
2,1912328,-1428,493,-578,-159,-228,-83,89,-13,-245
2,1912342,-1427,495,-578,-158,-233,-84,97,-13,-255
2,1912357,-1428,500,-572,-162,-227,-90,97,-13,-255
2,1912372,-1428,500,-572,-162,-227,-90,97,-13,-255
2,1912387,-1426,499,-576,-162,-229,-85,97,-13,-255
2,1912400,-1427,498,-573,-161,-220,-88,97,-13,-255
2,1912416,-1427,500,-577,-154,-230,-90,97,-13,-255
2,1912428,-1427,500,-577,-154,-230,-90,97,-13,-255
2,1912443,-1429,499,-578,-153,-232,-89,97,-13,-255
2,1912457,-1424,497,-577,-161,-228,-92,97,-13,-255
2,1912472,-1424,497,-577,-161,-228,-92,97,-13,-255
2,1912487,-1426,499,-573,-166,-230,-88,91,-23,-253
2,1912503,-1425,499,-578,-164,-232,-88,91,-23,-253
2,1912518,-1423,500,-575,-158,-228,-85,91,-23,-253
2,1912535,-1424,500,-574,-159,-231,-81,91,-23,-253
2,1912550,-1424,500,-574,-159,-231,-81,91,-23,-253
2,1912565,-1425,496,-580,-158,-233,-90,91,-23,-253
2,1912580,-1425,497,-580,-156,-229,-90,91,-23,-253
2,1912595,-1427,498,-570,-162,-225,-86,84,-18,-250
2,1912610,-1427,498,-570,-162,-225,-86,84,-18,-250
2,1912626,-1424,499,-576,-157,-234,-88,84,-18,-250
2,1912641,-1426,498,-579,-157,-234,-84,84,-18,-250
2,1912655,-1423,495,-577,-161,-232,-89,84,-18,-250
2,1912667,-1423,495,-577,-161,-232,-89,84,-18,-250
2,1912678,-1424,498,-577,-162,-230,-94,84,-18,-250
2,1912693,-1427,495,-576,-157,-233,-88,84,-18,-250
2,1912710,-1427,495,-576,-157,-233,-88,84,-18,-250
2,1912726,-1429,501,-575,-169,-240,-87,95,-7,-249
2,1912742,-1428,498,-577,-167,-239,-83,95,-7,-249
2,1912753,-1428,498,-577,-167,-239,-83,95,-7,-249
2,1912765,-1426,497,-578,-167,-228,-84,95,-7,-249
2,1912780,-1426,500,-581,-161,-231,-87,95,-7,-249
2,1912795,-1425,496,-578,-157,-234,-92,95,-7,-249
2,1912810,-1425,496,-578,-157,-234,-92,95,-7,-249
2,1912825,-1426,497,-575,-156,-225,-90,95,-7,-249
2,1912839,-1429,498,-570,-162,-238,-89,91,-13,-255
2,1912852,-1429,498,-570,-162,-238,-89,91,-13,-255
2,1912864,-1425,502,-574,-163,-238,-95,91,-13,-255
2,1912879,-1425,499,-576,-168,-228,-83,91,-13,-255
2,1912896,-1427,498,-574,-160,-227,-96,91,-13,-255
2,1912911,-1427,498,-574,-160,-227,-96,91,-13,-255
2,1912927,-1427,499,-575,-161,-232,-95,91,-13,-255
2,1912940,-1427,497,-576,-160,-224,-91,91,-13,-255
2,1912954,-1428,497,-578,-167,-235,-82,91,-17,-253
2,1912967,-1428,497,-578,-167,-235,-82,91,-17,-253
2,1912983,-1430,497,-572,-157,-229,-83,91,-17,-253
2,1912998,-1426,499,-575,-159,-235,-90,91,-17,-253
2,1913014,-1429,498,-578,-163,-229,-87,91,-17,-253
2,1913028,-1429,498,-578,-163,-229,-87,91,-17,-253
2,1913043,-1424,498,-578,-165,-224,-85,91,-17,-253
2,1913059,-1427,498,-577,-166,-231,-91,91,-17,-253
2,1913074,-1426,496,-572,-164,-243,-97,100,-18,-256
2,1913083,-1426,496,-572,-164,-243,-97,100,-18,-256
2,1913097,-1428,497,-575,-174,-234,-96,100,-18,-256
2,1913113,-1427,497,-573,-165,-231,-90,100,-18,-256
2,1913127,-1427,497,-573,-165,-231,-90,100,-18,-256
2,1913143,-1427,497,-573,-165,-231,-90,100,-18,-256
2,1913158,-1425,499,-576,-156,-232,-81,100,-18,-256
2,1913170,-1425,499,-576,-156,-232,-81,100,-18,-256
2,1913187,-1426,496,-579,-162,-226,-83,100,-18,-256
2,1913203,-1427,498,-579,-162,-228,-79,100,-18,-256
2,1913219,-1426,500,-572,-160,-232,-89,88,-14,-254
2,1913235,-1428,496,-575,-165,-234,-84,88,-14,-254
2,1913250,-1428,496,-575,-165,-234,-84,88,-14,-254
2,1913266,-1427,496,-576,-163,-242,-83,88,-14,-254
2,1913280,-1425,497,-579,-164,-233,-84,88,-14,-254
2,1913296,-1429,498,-577,-162,-227,-86,88,-14,-254
2,1913311,-1429,498,-577,-162,-227,-86,88,-14,-254
2,1913327,-1425,498,-579,-158,-234,-86,88,-14,-254
2,1913342,-1429,496,-574,-168,-231,-82,96,-20,-256
2,1913357,-1428,498,-574,-169,-234,-89,96,-20,-256
2,1913370,-1428,498,-574,-169,-234,-89,96,-20,-256
2,1913383,-1425,500,-574,-163,-230,-89,96,-20,-256
2,1913399,-1426,499,-576,-165,-225,-85,96,-20,-256
2,1913414,-1425,497,-577,-167,-223,-84,96,-20,-256
2,1913431,-1425,497,-577,-167,-223,-84,96,-20,-256
2,1913448,-1426,499,-572,-164,-223,-88,96,-20,-256
2,1913463,-1425,500,-567,-167,-231,-82,95,-21,-253
2,1913480,-1424,499,-573,-167,-227,-82,95,-21,-253
2,1913496,-1424,499,-575,-160,-228,-86,95,-21,-253
2,1913511,-1424,499,-575,-160,-228,-86,95,-21,-253
2,1913525,-1427,498,-572,-159,-232,-91,95,-21,-253
2,1913537,-1425,500,-577,-161,-227,-90,95,-21,-253
2,1913551,-1425,500,-577,-161,-227,-90,95,-21,-253
2,1913568,-1425,499,-579,-159,-230,-90,95,-21,-253
2,1913583,-1426,502,-577,-166,-222,-85,90,-16,-254
2,1913598,-1425,501,-576,-168,-224,-84,90,-16,-254
2,1913614,-1425,496,-578,-162,-224,-93,90,-16,-254
2,1913629,-1425,496,-578,-162,-224,-93,90,-16,-254
2,1913645,-1428,496,-580,-158,-225,-88,90,-16,-254
2,1913660,-1426,500,-577,-164,-225,-85,90,-16,-254
2,1913675,-1428,498,-579,-167,-227,-82,90,-16,-254
2,1913692,-1428,498,-579,-167,-227,-82,90,-16,-254
2,1913707,-1426,496,-579,-160,-237,-90,84,-14,-252
2,1913723,-1426,497,-576,-160,-233,-95,84,-14,-252
2,1913740,-1425,499,-573,-159,-232,-95,84,-14,-252
2,1913756,-1426,498,-578,-162,-222,-96,84,-14,-252
2,1913771,-1426,498,-578,-162,-222,-96,84,-14,-252
2,1913786,-1425,496,-574,-167,-230,-91,84,-14,-252
2,1913801,-1427,495,-580,-166,-229,-86,84,-14,-252
2,1913816,-1425,499,-572,-167,-229,-90,84,-14,-252
2,1913830,-1425,499,-572,-167,-229,-90,84,-14,-252
2,1913845,-1423,499,-569,-161,-231,-86,86,-18,-258
2,1913860,-1426,499,-572,-166,-228,-90,86,-18,-258
2,1913872,-1426,499,-572,-166,-228,-90,86,-18,-258
2,1913885,-1424,499,-575,-171,-234,-85,86,-18,-258
2,1913902,-1425,498,-577,-166,-243,-87,86,-18,-258
2,1913915,-1425,501,-577,-160,-231,-86,86,-18,-258
2,1913929,-1425,501,-577,-160,-231,-86,86,-18,-258
2,1913945,-1422,498,-576,-160,-224,-85,86,-18,-258
2,1913961,-1425,498,-573,-154,-232,-92,96,-20,-248
2,1913977,-1426,497,-573,-162,-237,-88,96,-20,-248
2,1913993,-1426,497,-573,-162,-237,-88,96,-20,-248
2,1914005,-1426,496,-573,-160,-229,-85,96,-20,-248
2,1914019,-1426,494,-576,-157,-225,-86,96,-20,-248
2,1914035,-1425,496,-577,-160,-227,-78,96,-20,-248
2,1914051,-1425,496,-577,-160,-227,-78,96,-20,-248
2,1914066,-1424,497,-576,-161,-231,-84,96,-20,-248
2,1914082,-1424,498,-572,-164,-233,-81,91,-13,-249
2,1914096,-1424,498,-572,-166,-237,-92,91,-13,-249
2,1914108,-1424,498,-572,-166,-237,-92,91,-13,-249
2,1914124,-1424,499,-580,-167,-234,-82,91,-13,-249
2,1914138,-1428,497,-574,-162,-227,-82,91,-13,-249
2,1914153,-1428,497,-574,-162,-227,-82,91,-13,-249
2,1914168,-1421,498,-578,-164,-224,-85,91,-13,-249
2,1914183,-1426,500,-578,-166,-227,-91,91,-13,-249
2,1914199,-1427,499,-572,-163,-229,-84,89,-15,-255
2,1914214,-1424,497,-572,-163,-233,-83,89,-15,-255
2,1914223,-1424,497,-572,-163,-233,-83,89,-15,-255
2,1914238,-1428,499,-574,-163,-232,-85,89,-15,-255
2,1914254,-1428,499,-574,-163,-232,-85,89,-15,-255
2,1914266,-1426,499,-573,-163,-230,-86,89,-15,-255
2,1914278,-1425,500,-573,-159,-228,-83,89,-15,-255
2,1914292,-1425,500,-573,-159,-228,-83,89,-15,-255
2,1914306,-1427,501,-576,-160,-226,-84,89,-15,-255
2,1914321,-1425,499,-574,-158,-226,-88,88,-12,-248
2,1914337,-1424,500,-574,-160,-229,-85,88,-12,-248
2,1914352,-1424,500,-574,-160,-229,-85,88,-12,-248
2,1914368,-1424,498,-574,-166,-226,-84,88,-12,-248
2,1914383,-1424,496,-576,-164,-229,-92,88,-12,-248
2,1914398,-1425,494,-575,-162,-232,-92,88,-12,-248
2,1914413,-1425,494,-575,-162,-232,-92,88,-12,-248
2,1914427,-1424,497,-574,-157,-232,-94,88,-12,-248
2,1914440,-1429,496,-576,-159,-233,-90,88,-12,-248
2,1914455,-1425,496,-575,-153,-230,-93,91,-19,-245
2,1914471,-1425,496,-575,-153,-230,-93,91,-19,-245
2,1914486,-1425,498,-579,-157,-232,-91,91,-19,-245
2,1914503,-1426,497,-580,-158,-227,-84,91,-19,-245
2,1914518,-1426,499,-575,-162,-225,-90,91,-19,-245
2,1914533,-1426,499,-575,-162,-225,-90,91,-19,-245
2,1914546,-1426,496,-577,-169,-235,-94,91,-19,-245
2,1914560,-1423,497,-575,-161,-231,-90,91,-19,-245
2,1914575,-1427,499,-574,-159,-233,-95,84,-8,-248
2,1914592,-1427,499,-574,-159,-233,-95,84,-8,-248
2,1914607,-1423,499,-574,-167,-228,-90,84,-8,-248
2,1914621,-1424,496,-573,-162,-224,-82,84,-8,-248
2,1914637,-1424,497,-581,-171,-229,-89,84,-8,-248
2,1914652,-1424,497,-581,-171,-229,-89,84,-8,-248
2,1914667,-1424,499,-578,-162,-237,-88,84,-8,-248
2,1914679,-1428,498,-578,-158,-238,-89,84,-8,-248
2,1914690,-1428,498,-578,-158,-238,-89,84,-8,-248
2,1914705,-1425,498,-571,-160,-233,-90,84,-18,-248
2,1914720,-1427,497,-577,-160,-231,-89,84,-18,-248
2,1914733,-1427,497,-577,-160,-231,-89,84,-18,-248
2,1914749,-1426,499,-577,-165,-227,-87,84,-18,-248
2,1914765,-1426,494,-580,-164,-230,-89,84,-18,-248
2,1914781,-1426,498,-580,-161,-230,-85,84,-18,-248
2,1914797,-1426,496,-576,-165,-237,-91,84,-18,-248
2,1914813,-1426,496,-576,-165,-237,-91,84,-18,-248
2,1914820,-1424,499,-575,-166,-236,-84,84,-14,-254
2,1914829,-1424,499,-575,-166,-236,-84,84,-14,-254
2,1914836,-1426,497,-574,-163,-231,-82,84,-14,-254
2,1914846,-1426,497,-574,-163,-231,-82,84,-14,-254
2,1914861,-1422,496,-576,-163,-234,-82,84,-14,-254
2,1914876,-1425,498,-576,-163,-230,-93,84,-14,-254
2,1914892,-1425,498,-576,-163,-230,-93,84,-14,-254
2,1914906,-1425,497,-579,-159,-227,-86,84,-14,-254
2,1914921,-1426,496,-580,-165,-231,-88,84,-14,-254
2,1914937,-1425,497,-577,-168,-228,-86,89,-11,-259
2,1914951,-1425,497,-577,-168,-228,-86,89,-11,-259
2,1914967,-1427,497,-570,-171,-238,-92,89,-11,-259
2,1914980,-1426,497,-576,-163,-233,-89,89,-11,-259
2,1914994,-1428,496,-575,-165,-233,-87,89,-11,-259
2,1915009,-1428,496,-575,-165,-233,-87,89,-11,-259
2,1915024,-1426,498,-576,-167,-234,-87,89,-11,-259
2,1915039,-1428,496,-575,-164,-237,-82,89,-11,-259
2,1915056,-1425,500,-571,-165,-230,-85,89,-11,-259
2,1915071,-1425,500,-571,-165,-230,-85,89,-11,-259
2,1915081,-1425,499,-574,-168,-238,-92,86,-24,-260
2,1915094,-1425,499,-574,-168,-238,-92,86,-24,-260
2,1915109,-1423,498,-577,-169,-241,-89,86,-24,-260
2,1915124,-1426,498,-579,-160,-233,-92,86,-24,-260
2,1915139,-1426,497,-574,-163,-232,-89,86,-24,-260
2,1915154,-1426,497,-574,-163,-232,-89,86,-24,-260
2,1915169,-1425,499,-578,-163,-236,-88,86,-24,-260
2,1915185,-1427,496,-578,-170,-232,-86,86,-24,-260
2,1915200,-1424,496,-572,-162,-232,-86,94,-20,-256
2,1915215,-1426,498,-574,-160,-238,-84,94,-20,-256
2,1915231,-1426,498,-574,-160,-238,-84,94,-20,-256
2,1915246,-1425,499,-579,-162,-236,-81,94,-20,-256
2,1915261,-1429,498,-572,-160,-229,-82,94,-20,-256
2,1915278,-1424,499,-578,-167,-231,-85,94,-20,-256
2,1915292,-1424,499,-578,-167,-231,-85,94,-20,-256
2,1915308,-1423,500,-579,-162,-231,-84,94,-20,-256
2,1915322,-1425,496,-573,-161,-236,-98,95,-13,-255
2,1915337,-1424,501,-575,-164,-237,-99,95,-13,-255
2,1915351,-1424,501,-575,-164,-237,-99,95,-13,-255
2,1915362,-1423,496,-580,-159,-236,-94,95,-13,-255
2,1915376,-1424,499,-575,-160,-232,-93,95,-13,-255
2,1915384,-1424,499,-575,-160,-232,-93,95,-13,-255
2,1915398,-1428,496,-578,-165,-231,-88,95,-13,-255
2,1915411,-1428,496,-578,-165,-231,-88,95,-13,-255
2,1915424,-1426,496,-581,-169,-234,-89,95,-13,-255
2,1915440,-1427,496,-581,-163,-226,-92,94,-18,-254
2,1915454,-1427,496,-581,-163,-226,-92,94,-18,-254
2,1915467,-1425,497,-573,-158,-233,-90,94,-18,-254
2,1915483,-1425,497,-573,-159,-233,-93,94,-18,-254
2,1915497,-1424,499,-571,-163,-228,-81,94,-18,-254
2,1915512,-1424,499,-571,-163,-228,-81,94,-18,-254
2,1915528,-1425,498,-574,-169,-228,-87,94,-18,-254
2,1915543,-1429,498,-580,-161,-232,-83,94,-18,-254
2,1915557,-1425,497,-576,-163,-241,-87,97,-17,-257
2,1915573,-1425,497,-576,-163,-241,-87,97,-17,-257
2,1915587,-1425,498,-574,-165,-237,-84,97,-17,-257
2,1915598,-1423,495,-578,-153,-224,-92,97,-17,-257
2,1915612,-1423,495,-578,-153,-224,-92,97,-17,-257
2,1915627,-1426,497,-574,-162,-225,-88,97,-17,-257
2,1915642,-1427,499,-578,-160,-225,-91,97,-17,-257
2,1915657,-1428,501,-576,-163,-227,-81,97,-17,-257
2,1915671,-1428,501,-576,-163,-227,-81,97,-17,-257
2,1915685,-1426,496,-577,-164,-228,-89,97,-17,-257
2,1915702,-1427,498,-572,-157,-222,-90,81,-21,-257
2,1915717,-1428,499,-576,-161,-226,-92,81,-21,-257
2,1915732,-1428,499,-576,-161,-226,-92,81,-21,-257
2,1915749,-1426,499,-581,-163,-226,-84,81,-21,-257
2,1915764,-1428,497,-577,-164,-228,-93,81,-21,-257
2,1915779,-1424,496,-577,-166,-227,-84,81,-21,-257
2,1915794,-1424,496,-577,-166,-227,-84,81,-21,-257
2,1915808,-1426,497,-578,-162,-224,-91,81,-21,-257
2,1915824,-1427,499,-572,-163,-235,-92,93,-13,-255
2,1915839,-1425,495,-571,-162,-236,-85,93,-13,-255
2,1915852,-1425,495,-571,-162,-236,-85,93,-13,-255
2,1915865,-1424,498,-575,-164,-229,-87,93,-13,-255
2,1915879,-1425,500,-581,-160,-239,-86,93,-13,-255
2,1915894,-1425,500,-581,-160,-239,-86,93,-13,-255
2,1915909,-1425,498,-577,-164,-235,-90,93,-13,-255
2,1915923,-1426,499,-577,-163,-226,-88,93,-13,-255
2,1915936,-1426,497,-571,-157,-233,-86,94,-6,-254
2,1915952,-1426,497,-571,-157,-233,-86,94,-6,-254
2,1915965,-1426,497,-573,-160,-226,-90,94,-6,-254
2,1915980,-1426,498,-571,-156,-224,-87,94,-6,-254
2,1915996,-1426,497,-576,-168,-225,-82,94,-6,-254
2,1916010,-1426,497,-576,-168,-225,-82,94,-6,-254
2,1916026,-1423,496,-575,-162,-229,-86,94,-6,-254
2,1916043,-1426,499,-577,-162,-234,-87,94,-6,-254
2,1916057,-1427,498,-575,-160,-232,-89,97,-13,-257
2,1916068,-1427,498,-575,-160,-232,-89,97,-13,-257
2,1916082,-1427,495,-571,-163,-228,-86,97,-13,-257
2,1916097,-1424,497,-571,-152,-226,-89,97,-13,-257
2,1916112,-1424,497,-571,-152,-226,-89,97,-13,-257
2,1916127,-1428,498,-573,-159,-229,-93,97,-13,-257
2,1916142,-1425,500,-575,-162,-227,-86,97,-13,-257
2,1916156,-1427,498,-571,-161,-225,-86,97,-13,-257
2,1916172,-1427,498,-571,-161,-225,-86,97,-13,-257
2,1916185,-1427,497,-575,-167,-227,-80,88,-22,-256
2,1916199,-1425,498,-575,-165,-238,-82,88,-22,-256
2,1916214,-1425,498,-575,-165,-238,-82,88,-22,-256
2,1916230,-1426,498,-576,-165,-232,-83,88,-22,-256
2,1916247,-1426,498,-574,-160,-233,-87,88,-22,-256
2,1916263,-1425,498,-578,-163,-227,-82,88,-22,-256
2,1916278,-1423,498,-578,-156,-228,-82,88,-22,-256
2,1916294,-1423,498,-578,-156,-228,-82,88,-22,-256
2,1916308,-1424,500,-575,-154,-235,-81,88,-22,-256
2,1916320,-1425,498,-572,-163,-229,-89,100,-18,-260
2,1916336,-1425,498,-572,-163,-229,-89,100,-18,-260
2,1916349,-1425,496,-576,-162,-226,-89,100,-18,-260
2,1916363,-1427,497,-571,-165,-228,-88,100,-18,-260
2,1916379,-1426,495,-575,-159,-228,-94,100,-18,-260
2,1916394,-1426,495,-575,-159,-228,-94,100,-18,-260
2,1916409,-1425,494,-581,-170,-223,-92,100,-18,-260
2,1916425,-1426,496,-580,-165,-234,-86,100,-18,-260
2,1916441,-1430,497,-576,-170,-234,-89,90,-12,-256
2,1916457,-1428,497,-571,-163,-234,-81,90,-12,-256
2,1916473,-1428,497,-571,-163,-234,-81,90,-12,-256
2,1916489,-1425,497,-579,-161,-238,-82,90,-12,-256
2,1916505,-1426,500,-577,-165,-230,-86,90,-12,-256
2,1916521,-1429,500,-577,-162,-230,-92,90,-12,-256
2,1916533,-1429,500,-577,-162,-230,-92,90,-12,-256
2,1916549,-1426,498,-576,-159,-234,-92,90,-12,-256
2,1916564,-1425,498,-573,-161,-235,-86,84,-16,-256
2,1916579,-1426,500,-578,-160,-233,-88,84,-16,-256
2,1916589,-1426,500,-578,-160,-233,-88,84,-16,-256
2,1916604,-1427,499,-573,-160,-232,-92,84,-16,-256
2,1916617,-1425,497,-576,-165,-236,-93,84,-16,-256
2,1916633,-1425,497,-576,-165,-236,-93,84,-16,-256
2,1916648,-1424,496,-572,-165,-229,-88,84,-16,-256
2,1916664,-1427,493,-579,-164,-228,-86,84,-16,-256
2,1916680,-1427,498,-568,-166,-231,-94,90,-18,-252
2,1916694,-1427,498,-568,-166,-231,-94,90,-18,-252
2,1916708,-1426,497,-572,-165,-226,-91,90,-18,-252
2,1916724,-1426,497,-572,-165,-226,-91,90,-18,-252
2,1916736,-1426,497,-572,-165,-226,-91,90,-18,-252
2,1916750,-1423,497,-575,-159,-221,-88,90,-18,-252
2,1916766,-1428,501,-575,-163,-218,-95,90,-18,-252
2,1916780,-1424,498,-582,-167,-235,-88,90,-18,-252
2,1916793,-1424,498,-582,-167,-235,-88,90,-18,-252
2,1916807,-1428,501,-575,-161,-234,-83,85,-15,-253
2,1916822,-1425,497,-574,-159,-230,-87,85,-15,-253
2,1916836,-1428,496,-579,-159,-231,-88,85,-15,-253
2,1916851,-1428,496,-579,-159,-231,-88,85,-15,-253
2,1916866,-1425,497,-577,-162,-232,-80,85,-15,-253
2,1916881,-1426,499,-577,-170,-235,-89,85,-15,-253
2,1916897,-1426,496,-578,-165,-231,-83,85,-15,-253
2,1916911,-1426,496,-578,-165,-231,-83,85,-15,-253
2,1916928,-1426,499,-581,-164,-236,-85,85,-15,-253
2,1916943,-1424,499,-574,-164,-235,-84,93,-11,-255
2,1916959,-1425,499,-570,-165,-237,-84,93,-11,-255
2,1916975,-1425,499,-570,-165,-237,-84,93,-11,-255
2,1916990,-1424,496,-579,-165,-235,-93,93,-11,-255
2,1917006,-1425,498,-578,-161,-236,-87,93,-11,-255
2,1917022,-1427,499,-577,-164,-239,-90,93,-11,-255
2,1917037,-1427,498,-573,-161,-234,-86,93,-11,-255
2,1917052,-1427,498,-573,-161,-234,-86,93,-11,-255
2,1917068,-1426,500,-570,-160,-230,-88,89,-15,-257
2,1917082,-1422,499,-572,-162,-226,-86,89,-15,-257
2,1917097,-1426,498,-576,-162,-237,-89,89,-15,-257
2,1917114,-1426,498,-576,-162,-237,-89,89,-15,-257
2,1917128,-1426,497,-578,-165,-232,-91,89,-15,-257
2,1917142,-1428,498,-580,-164,-227,-93,89,-15,-257
2,1917155,-1428,498,-580,-164,-227,-93,89,-15,-257
2,1917169,-1428,500,-579,-162,-223,-92,89,-15,-257
2,1917185,-1424,499,-571,-166,-230,-91,85,-17,-253
2,1917200,-1426,497,-576,-160,-233,-90,85,-17,-253
2,1917216,-1426,497,-576,-160,-233,-90,85,-17,-253
2,1917231,-1427,496,-581,-157,-229,-87,85,-17,-253
2,1917244,-1426,495,-576,-156,-229,-83,85,-17,-253
2,1917258,-1428,497,-580,-162,-234,-89,85,-17,-253
2,1917274,-1428,497,-580,-162,-234,-89,85,-17,-253
2,1917288,-1427,499,-574,-163,-242,-90,85,-17,-253
2,1917304,-1428,497,-578,-160,-236,-86,93,-15,-255
2,1917319,-1425,494,-581,-164,-232,-86,93,-15,-255
2,1917333,-1425,494,-581,-164,-232,-86,93,-15,-255
2,1917348,-1425,497,-574,-169,-225,-91,93,-15,-255
2,1917363,-1428,499,-574,-168,-230,-87,93,-15,-255
2,1917375,-1428,499,-574,-168,-230,-87,93,-15,-255
2,1917388,-1430,500,-577,-165,-234,-88,93,-15,-255
2,1917404,-1427,500,-574,-156,-230,-91,93,-15,-255
2,1917419,-1425,498,-575,-157,-237,-79,90,-14,-250
2,1917433,-1425,498,-575,-157,-237,-79,90,-14,-250
2,1917448,-1429,495,-573,-164,-244,-87,90,-14,-250
2,1917463,-1428,496,-576,-159,-233,-90,90,-14,-250
2,1917479,-1425,498,-574,-160,-228,-83,90,-14,-250
2,1917495,-1425,498,-574,-160,-228,-83,90,-14,-250
2,1917509,-1427,498,-574,-160,-223,-87,90,-14,-250
2,1917526,-1424,495,-580,-164,-228,-85,90,-14,-250
2,1917542,-1427,496,-576,-164,-227,-85,90,-14,-250
2,1917555,-1427,496,-576,-164,-227,-85,90,-14,-250
2,1917563,-1424,499,-575,-164,-226,-80,94,-22,-262
2,1917577,-1424,499,-575,-164,-226,-80,94,-22,-262
2,1917592,-1428,499,-578,-158,-231,-79,94,-22,-262
2,1917605,-1423,496,-574,-159,-223,-95,94,-22,-262
2,1917620,-1427,497,-575,-167,-233,-94,94,-22,-262
2,1917631,-1427,497,-575,-167,-233,-94,94,-22,-262
2,1917645,-1427,497,-576,-164,-234,-84,94,-22,-262
2,1917659,-1428,496,-580,-158,-226,-92,94,-22,-262
2,1917672,-1428,496,-580,-158,-226,-92,94,-22,-262
2,1917688,-1426,499,-572,-164,-231,-94,88,-16,-250
2,1917705,-1427,497,-577,-166,-229,-86,88,-16,-250
2,1917720,-1426,497,-577,-163,-234,-91,88,-16,-250
2,1917736,-1426,497,-577,-163,-234,-91,88,-16,-250
2,1917753,-1428,498,-577,-159,-232,-81,88,-16,-250
2,1917768,-1425,498,-575,-157,-230,-82,88,-16,-250
2,1917784,-1423,498,-571,-162,-232,-89,88,-16,-250
2,1917799,-1426,498,-571,-162,-234,-87,87,-13,-249
2,1917814,-1426,498,-571,-162,-234,-87,87,-13,-249
2,1917826,-1426,498,-571,-162,-234,-87,87,-13,-249
2,1917840,-1423,500,-572,-165,-228,-86,87,-13,-249
2,1917855,-1423,500,-572,-165,-228,-86,87,-13,-249
2,1917872,-1426,498,-575,-161,-234,-90,87,-13,-249
2,1917888,-1425,497,-579,-158,-229,-94,87,-13,-249
2,1917904,-1423,497,-581,-159,-226,-90,87,-13,-249
2,1917921,-1426,497,-570,-159,-228,-87,89,-17,-259
2,1917937,-1426,497,-574,-161,-223,-87,89,-17,-259
2,1917954,-1426,497,-574,-161,-223,-87,89,-17,-259
2,1917963,-1427,498,-572,-164,-230,-83,89,-17,-259
2,1917979,-1424,498,-572,-159,-227,-85,89,-17,-259
2,1917995,-1424,498,-572,-159,-227,-85,89,-17,-259
2,1918010,-1427,496,-570,-157,-226,-89,89,-17,-259
2,1918026,-1428,502,-579,-166,-228,-88,89,-17,-259
2,1918041,-1427,498,-578,-165,-230,-87,90,-16,-262
2,1918056,-1427,498,-578,-165,-230,-87,90,-16,-262
2,1918071,-1428,498,-575,-167,-225,-89,90,-16,-262
2,1918087,-1425,500,-578,-167,-230,-87,90,-16,-262
2,1918095,-1425,500,-578,-167,-230,-87,90,-16,-262
2,1918111,-1427,497,-582,-163,-230,-90,90,-16,-262
2,1918125,-1424,496,-579,-166,-236,-91,90,-16,-262
2,1918140,-1425,496,-574,-155,-241,-92,90,-16,-262
2,1918156,-1425,496,-574,-155,-241,-92,90,-16,-262
2,1918173,-1423,495,-568,-158,-231,-88,90,-16,-262
2,1918188,-1424,499,-570,-160,-229,-84,95,-13,-253
2,1918204,-1426,499,-575,-167,-230,-85,95,-13,-253
2,1918220,-1428,502,-576,-164,-238,-85,95,-13,-253
2,1918233,-1428,502,-576,-164,-238,-85,95,-13,-253
2,1918247,-1426,501,-577,-160,-236,-89,95,-13,-253
2,1918264,-1426,501,-577,-160,-236,-89,95,-13,-253
2,1918279,-1424,499,-576,-159,-229,-82,95,-13,-253
2,1918295,-1424,499,-576,-159,-229,-82,95,-13,-253
2,1918310,-1425,500,-572,-166,-227,-90,90,-14,-250
2,1918325,-1428,497,-576,-161,-230,-87,90,-14,-250
2,1918341,-1426,497,-573,-166,-229,-87,90,-14,-250
2,1918355,-1426,497,-573,-166,-229,-87,90,-14,-250
2,1918370,-1426,497,-578,-159,-227,-85,90,-14,-250
2,1918386,-1424,497,-579,-162,-225,-88,90,-14,-250
2,1918402,-1429,496,-574,-161,-227,-86,90,-14,-250
2,1918417,-1427,495,-569,-163,-228,-88,90,-14,-250
2,1918434,-1427,495,-569,-163,-228,-88,89,-7,-257
2,1918449,-1428,497,-570,-165,-233,-84,89,-7,-257
2,1918465,-1425,496,-570,-160,-232,-82,89,-7,-257
2,1918481,-1426,500,-580,-166,-244,-87,89,-7,-257
2,1918497,-1426,500,-580,-166,-244,-87,89,-7,-257
2,1918513,-1428,500,-578,-161,-235,-90,89,-7,-257
2,1918528,-1426,498,-577,-159,-234,-85,89,-7,-257
2,1918543,-1425,497,-572,-160,-231,-90,93,-13,-249
2,1918559,-1427,499,-578,-169,-227,-83,93,-13,-249
2,1918573,-1427,499,-578,-169,-227,-83,93,-13,-249
2,1918589,-1428,500,-572,-159,-230,-92,93,-13,-249
2,1918605,-1425,501,-576,-159,-229,-90,93,-13,-249
2,1918614,-1425,501,-576,-159,-229,-90,93,-13,-249
2,1918627,-1426,495,-577,-162,-225,-90,93,-13,-249
2,1918643,-1425,499,-573,-165,-232,-89,93,-13,-249
2,1918659,-1426,496,-577,-167,-221,-87,90,-10,-256
2,1918675,-1426,496,-577,-167,-221,-87,90,-10,-256
2,1918692,-1427,499,-571,-167,-224,-85,90,-10,-256
2,1918708,-1424,499,-575,-169,-229,-88,90,-10,-256
2,1918725,-1426,496,-575,-159,-232,-94,90,-10,-256
2,1918741,-1426,497,-572,-162,-232,-93,90,-10,-256
2,1918755,-1426,497,-572,-162,-232,-93,90,-10,-256
2,1918771,-1423,500,-578,-159,-238,-95,90,-10,-256
2,1918785,-1428,497,-576,-164,-232,-89,90,-8,-262
2,1918798,-1427,500,-572,-165,-234,-89,90,-8,-262
2,1918812,-1427,500,-572,-165,-234,-89,90,-8,-262
2,1918826,-1426,498,-576,-167,-227,-88,90,-8,-262
2,1918841,-1427,499,-576,-157,-232,-88,90,-8,-262
2,1918857,-1427,499,-576,-157,-232,-88,90,-8,-262
2,1918872,-1427,499,-580,-163,-229,-83,90,-8,-262
2,1918887,-1425,497,-581,-163,-227,-90,90,-8,-262
2,1918904,-1426,499,-575,-160,-229,-82,90,-8,-262
2,1918919,-1428,499,-575,-157,-235,-88,94,-14,-254
2,1918936,-1428,499,-575,-157,-235,-88,94,-14,-254
2,1918951,-1425,496,-576,-160,-237,-93,94,-14,-254
2,1918966,-1427,498,-570,-160,-238,-90,94,-14,-254
2,1918982,-1425,497,-575,-161,-233,-91,94,-14,-254
2,1918997,-1425,497,-575,-161,-233,-91,94,-14,-254
2,1919012,-1426,499,-578,-154,-231,-88,94,-14,-254
2,1919027,-1425,496,-579,-154,-230,-89,94,-14,-254
2,1919042,-1430,501,-569,-165,-229,-88,92,-12,-248
2,1919058,-1427,499,-568,-165,-227,-92,92,-12,-248
2,1919073,-1427,499,-568,-165,-227,-92,92,-12,-248
2,1919088,-1429,498,-578,-165,-235,-93,92,-12,-248
2,1919104,-1428,499,-575,-167,-240,-88,92,-12,-248
2,1919120,-1424,498,-576,-157,-229,-89,92,-12,-248
2,1919134,-1424,498,-576,-157,-229,-89,92,-12,-248
2,1919150,-1428,498,-575,-162,-227,-86,92,-12,-248
2,1919163,-1424,502,-570,-159,-223,-88,87,-15,-249
2,1919178,-1424,502,-570,-159,-223,-88,87,-15,-249
2,1919194,-1427,496,-570,-161,-223,-82,87,-15,-249
2,1919206,-1429,498,-576,-157,-228,-80,87,-15,-249
2,1919217,-1429,498,-576,-157,-228,-80,87,-15,-249
2,1919232,-1425,500,-581,-161,-226,-87,87,-15,-249
2,1919246,-1428,500,-580,-159,-232,-91,87,-15,-249
2,1919260,-1426,499,-577,-160,-231,-83,87,-15,-249
2,1919278,-1426,499,-577,-160,-231,-83,87,-15,-249
2,1919291,-1428,497,-573,-162,-225,-85,90,-12,-252
2,1919306,-1428,497,-572,-165,-230,-88,90,-12,-252
2,1919321,-1425,497,-576,-158,-225,-88,90,-12,-252
2,1919332,-1425,497,-576,-158,-225,-88,90,-12,-252
2,1919347,-1424,499,-577,-157,-230,-88,90,-12,-252
2,1919363,-1425,501,-576,-160,-231,-89,90,-12,-252
2,1919378,-1424,501,-576,-162,-231,-85,90,-12,-252
2,1919394,-1424,501,-576,-162,-231,-85,90,-12,-252
2,1919408,-1423,498,-571,-163,-233,-86,92,-12,-262
2,1919420,-1427,500,-574,-158,-230,-90,92,-12,-262
2,1919433,-1427,500,-574,-158,-230,-90,92,-12,-262
2,1919448,-1426,498,-577,-158,-236,-91,92,-12,-262
2,1919462,-1427,500,-577,-169,-229,-82,92,-12,-262
2,1919476,-1427,500,-577,-169,-229,-82,92,-12,-262
2,1919491,-1428,499,-577,-166,-231,-86,92,-12,-262
2,1919502,-1427,498,-579,-155,-234,-84,92,-12,-262
2,1919515,-1427,498,-579,-155,-234,-84,92,-12,-262
2,1919529,-1429,499,-572,-162,-234,-83,92,-12,-262
2,1919544,-1423,496,-572,-164,-225,-93,84,-12,-260
2,1919558,-1423,496,-572,-164,-225,-93,84,-12,-260
2,1919574,-1423,500,-579,-170,-229,-98,84,-12,-260
2,1919590,-1429,498,-577,-170,-234,-89,84,-12,-260
2,1919605,-1427,496,-577,-168,-234,-86,84,-12,-260
2,1919617,-1427,496,-577,-168,-234,-86,84,-12,-260
2,1919631,-1426,501,-576,-162,-228,-90,84,-12,-260
2,1919646,-1427,498,-574,-163,-236,-92,84,-12,-260
2,1919662,-1425,497,-578,-164,-229,-85,93,-15,-253
2,1919675,-1425,497,-578,-164,-229,-85,93,-15,-253
2,1919686,-1426,497,-572,-160,-233,-84,93,-15,-253
2,1919700,-1428,497,-575,-161,-236,-88,93,-15,-253
2,1919715,-1428,497,-575,-161,-236,-88,93,-15,-253
2,1919728,-1425,499,-573,-163,-227,-80,93,-15,-253
2,1919742,-1429,496,-577,-166,-232,-94,93,-15,-253
2,1919755,-1429,496,-577,-166,-232,-94,93,-15,-253
2,1919764,-1428,498,-576,-168,-232,-93,93,-15,-253
2,1919774,-1428,498,-576,-168,-232,-93,93,-15,-253
2,1919790,-1428,496,-576,-161,-227,-86,91,-9,-259
2,1919806,-1426,498,-574,-161,-220,-88,91,-9,-259
2,1919821,-1423,499,-574,-158,-230,-96,91,-9,-259
2,1919837,-1423,499,-574,-158,-230,-96,91,-9,-259
2,1919851,-1427,497,-576,-164,-231,-91,91,-9,-259
2,1919864,-1428,497,-581,-162,-234,-92,91,-9,-259
2,1919879,-1428,497,-581,-162,-234,-92,91,-9,-259
2,1919892,-1426,498,-581,-156,-228,-98,91,-9,-259
2,1919906,-1427,497,-578,-157,-230,-95,83,-7,-249
2,1919920,-1426,498,-578,-163,-226,-88,83,-7,-249
2,1919934,-1426,498,-578,-163,-226,-88,83,-7,-249
2,1919948,-1425,497,-574,-156,-236,-91,83,-7,-249
2,1919963,-1424,498,-575,-156,-233,-88,83,-7,-249
2,1919976,-1424,498,-575,-156,-233,-88,83,-7,-249
2,1919989,-1427,499,-576,-157,-223,-91,83,-7,-249
2,1920002,-1426,498,-577,-165,-227,-87,83,-7,-249
2,1920017,-1426,498,-577,-165,-227,-87,83,-7,-249
2,1920032,-1429,496,-577,-164,-232,-84,87,-11,-249
2,1920049,-1425,497,-568,-165,-239,-88,87,-11,-249
2,1920064,-1425,497,-574,-160,-237,-91,87,-11,-249
2,1920078,-1425,497,-574,-160,-237,-91,87,-11,-249
2,1920092,-1427,497,-574,-167,-241,-91,87,-11,-249
2,1920105,-1427,499,-575,-166,-228,-89,87,-11,-249
2,1920118,-1427,499,-575,-166,-228,-89,87,-11,-249
2,1920133,-1428,499,-580,-161,-225,-84,87,-11,-249
2,1920147,-1428,496,-574,-157,-225,-87,87,-11,-249
2,1920162,-1428,499,-574,-157,-224,-90,90,-12,-258
2,1920176,-1428,499,-574,-157,-224,-90,90,-12,-258
2,1920187,-1428,497,-577,-159,-235,-90,90,-12,-258
2,1920202,-1426,497,-575,-167,-224,-91,90,-12,-258
2,1920217,-1426,497,-575,-167,-224,-91,90,-12,-258
2,1920229,-1426,498,-574,-158,-225,-92,90,-12,-258
2,1920244,-1425,497,-576,-160,-223,-96,90,-12,-258
2,1920261,-1426,498,-578,-165,-228,-90,90,-12,-258
2,1920275,-1426,498,-578,-165,-228,-90,90,-12,-258
2,1920290,-1425,498,-571,-165,-241,-86,90,-18,-252
2,1920306,-1426,496,-579,-163,-234,-91,90,-18,-252
2,1920320,-1423,500,-575,-162,-232,-94,90,-18,-252
2,1920334,-1423,500,-575,-162,-232,-94,90,-18,-252
2,1920349,-1427,496,-574,-165,-228,-83,90,-18,-252
2,1920363,-1428,498,-577,-165,-226,-83,90,-18,-252
2,1920373,-1428,498,-577,-165,-226,-83,90,-18,-252
2,1920387,-1426,499,-575,-162,-222,-84,90,-18,-252
2,1920402,-1427,497,-573,-163,-232,-85,93,-17,-255
2,1920416,-1427,497,-573,-163,-232,-85,93,-17,-255
2,1920431,-1424,499,-573,-165,-234,-86,93,-17,-255
2,1920446,-1426,498,-570,-161,-232,-87,93,-17,-255
2,1920459,-1426,498,-570,-161,-232,-87,93,-17,-255
2,1920472,-1427,497,-576,-158,-227,-83,93,-17,-255
2,1920486,-1425,495,-575,-168,-227,-86,93,-17,-255
2,1920501,-1426,498,-573,-164,-224,-89,93,-17,-255
2,1920517,-1426,498,-573,-164,-224,-89,93,-17,-255
2,1920532,-1428,500,-572,-167,-229,-94,92,-24,-250
2,1920545,-1424,498,-571,-168,-240,-93,92,-24,-250
2,1920561,-1425,500,-573,-166,-234,-90,92,-24,-250
2,1920575,-1425,500,-573,-166,-234,-90,92,-24,-250
2,1920591,-1425,499,-577,-167,-230,-86,92,-24,-250
2,1920607,-1427,498,-575,-166,-242,-87,92,-24,-250
2,1920621,-1427,498,-575,-166,-242,-87,92,-24,-250
2,1920635,-1427,498,-575,-166,-242,-87,92,-24,-250
2,1920650,-1427,500,-578,-159,-229,-99,87,-7,-249
2,1920665,-1427,499,-570,-164,-231,-91,87,-7,-249
2,1920676,-1427,499,-570,-164,-231,-91,87,-7,-249
2,1920689,-1424,498,-573,-166,-239,-90,87,-7,-249
2,1920702,-1428,497,-573,-158,-237,-85,87,-7,-249
2,1920717,-1428,497,-573,-158,-237,-85,87,-7,-249
2,1920732,-1427,502,-575,-169,-226,-76,87,-7,-249
2,1920747,-1428,499,-576,-164,-232,-89,87,-7,-249
2,1920762,-1429,500,-572,-161,-227,-85,87,-7,-249
2,1920778,-1429,500,-572,-161,-227,-85,87,-7,-249
2,1920793,-1428,501,-573,-164,-229,-82,91,-19,-261
2,1920809,-1427,497,-577,-157,-230,-85,91,-19,-261
2,1920825,-1427,498,-572,-156,-235,-92,91,-19,-261
2,1920838,-1427,498,-572,-156,-235,-92,91,-19,-261
2,1920854,-1428,496,-573,-160,-233,-92,91,-19,-261
2,1920867,-1431,499,-581,-156,-233,-95,91,-19,-261
2,1920878,-1431,499,-581,-156,-233,-95,91,-19,-261
2,1920893,-1427,500,-578,-161,-230,-86,91,-19,-261
2,1920909,-1427,498,-579,-157,-224,-85,93,-19,-257
2,1920922,-1428,497,-574,-162,-227,-90,93,-19,-257
2,1920936,-1428,497,-574,-162,-227,-90,93,-19,-257
2,1920950,-1427,498,-576,-162,-232,-87,93,-19,-257
2,1920965,-1427,499,-579,-159,-232,-92,93,-19,-257
2,1920980,-1427,499,-576,-160,-232,-90,93,-19,-257
2,1920995,-1427,499,-576,-160,-232,-90,93,-19,-257
2,1921008,-1431,500,-578,-161,-234,-95,93,-19,-257
2,1921022,-1425,498,-573,-164,-236,-90,83,-5,-247
2,1921038,-1425,498,-573,-164,-236,-90,83,-5,-247
2,1921054,-1426,502,-574,-160,-236,-84,83,-5,-247
2,1921070,-1424,499,-572,-162,-234,-88,83,-5,-247
2,1921083,-1425,500,-575,-167,-236,-88,83,-5,-247
2,1921095,-1425,500,-575,-167,-236,-88,83,-5,-247
2,1921110,-1423,497,-578,-156,-233,-98,83,-5,-247
2,1921124,-1427,500,-576,-161,-235,-94,83,-5,-247
2,1921138,-1427,500,-576,-161,-235,-94,83,-5,-247
2,1921153,-1425,498,-571,-164,-231,-92,89,-9,-257
2,1921167,-1426,499,-579,-157,-226,-87,89,-9,-257
2,1921180,-1426,499,-579,-157,-226,-87,89,-9,-257
2,1921195,-1426,498,-574,-155,-227,-87,89,-9,-257
2,1921208,-1423,499,-575,-156,-229,-91,89,-9,-257
2,1921223,-1426,501,-576,-161,-232,-86,89,-9,-257
2,1921239,-1426,501,-576,-161,-232,-86,89,-9,-257
2,1921254,-1425,500,-573,-161,-231,-94,89,-9,-257
2,1921267,-1426,500,-573,-164,-232,-92,93,-21,-243
2,1921283,-1426,500,-575,-157,-235,-98,93,-21,-243
2,1921298,-1426,500,-575,-157,-235,-98,93,-21,-243
2,1921312,-1429,501,-577,-160,-228,-91,93,-21,-243
2,1921328,-1426,499,-576,-160,-234,-94,93,-21,-243
2,1921342,-1427,497,-578,-167,-237,-89,93,-21,-243
2,1921356,-1427,497,-578,-167,-237,-89,93,-21,-243
2,1921371,-1427,497,-576,-164,-227,-83,93,-21,-243
2,1921385,-1427,498,-575,-165,-235,-88,93,-21,-243
2,1921399,-1427,498,-575,-165,-235,-88,93,-21,-243
2,1921411,-1429,494,-570,-164,-237,-96,94,-12,-256
2,1921425,-1425,498,-577,-166,-236,-90,94,-12,-256
2,1921440,-1426,500,-574,-167,-235,-84,94,-12,-256
2,1921456,-1426,500,-574,-167,-235,-84,94,-12,-256
2,1921470,-1426,498,-577,-163,-232,-82,94,-12,-256
2,1921484,-1427,497,-576,-162,-230,-82,94,-12,-256
2,1921501,-1427,497,-578,-163,-228,-89,94,-12,-256
2,1921516,-1427,497,-578,-163,-228,-89,94,-12,-256
2,1921531,-1428,497,-571,-158,-234,-94,94,-20,-254
2,1921547,-1427,498,-573,-161,-232,-90,94,-20,-254
2,1921562,-1426,495,-578,-164,-233,-90,94,-20,-254
2,1921576,-1426,495,-578,-164,-233,-90,94,-20,-254
2,1921590,-1425,494,-579,-164,-232,-90,94,-20,-254
2,1921604,-1425,500,-576,-169,-232,-83,94,-20,-254
2,1921618,-1425,500,-576,-169,-232,-83,94,-20,-254
2,1921632,-1428,499,-576,-159,-235,-81,94,-20,-254
2,1921644,-1426,498,-574,-156,-235,-90,91,-17,-255
2,1921658,-1426,498,-574,-156,-235,-90,91,-17,-255
2,1921673,-1426,498,-574,-156,-235,-90,91,-17,-255
2,1921686,-1426,499,-577,-168,-236,-88,91,-17,-255
2,1921701,-1426,500,-582,-162,-234,-86,91,-17,-255
2,1921718,-1426,500,-582,-162,-234,-86,91,-17,-255
2,1921733,-1426,501,-574,-169,-227,-85,91,-17,-255
2,1921748,-1426,500,-578,-162,-229,-91,91,-17,-255
2,1921764,-1423,496,-576,-157,-233,-86,91,-15,-257
2,1921775,-1423,496,-576,-157,-233,-86,91,-15,-257
2,1921790,-1426,496,-580,-158,-233,-86,91,-15,-257
2,1921804,-1424,500,-574,-157,-232,-82,91,-15,-257
2,1921815,-1424,500,-574,-157,-232,-82,91,-15,-257
2,1921823,-1426,498,-579,-161,-227,-78,91,-15,-257
2,1921838,-1426,498,-579,-161,-227,-78,91,-15,-257
2,1921848,-1424,495,-576,-163,-234,-86,91,-15,-257
2,1921862,-1424,500,-579,-166,-228,-92,91,-15,-257
2,1921869,-1424,500,-579,-166,-228,-92,91,-15,-257
2,1921883,-1428,497,-577,-168,-225,-76,88,-14,-254
2,1921896,-1428,497,-577,-168,-225,-76,88,-14,-254
2,1921910,-1426,501,-576,-161,-231,-82,88,-14,-254
2,1921926,-1424,501,-580,-160,-230,-90,88,-14,-254
2,1921941,-1426,500,-576,-159,-224,-95,88,-14,-254
2,1921956,-1426,500,-576,-159,-224,-95,88,-14,-254
2,1921970,-1422,499,-576,-164,-231,-93,88,-14,-254
2,1921983,-1426,503,-579,-170,-232,-93,88,-14,-254
2,1921998,-1426,503,-579,-170,-232,-93,88,-14,-254
2,1922012,-1426,499,-577,-166,-237,-88,88,-14,-254
2,1922026,-1427,499,-578,-162,-233,-86,91,-9,-249
2,1922040,-1427,499,-578,-162,-233,-86,91,-9,-249
2,1922055,-1425,499,-577,-164,-238,-84,91,-9,-249
2,1922068,-1425,496,-572,-163,-236,-94,91,-9,-249
2,1922078,-1425,496,-572,-163,-236,-94,91,-9,-249
2,1922093,-1427,497,-576,-164,-236,-90,91,-9,-249
2,1922107,-1426,499,-578,-165,-228,-91,91,-9,-249
2,1922121,-1428,498,-580,-163,-237,-84,91,-9,-249
2,1922135,-1428,498,-580,-163,-237,-84,91,-9,-249
2,1922150,-1426,497,-573,-162,-229,-88,89,-17,-257
2,1922163,-1426,495,-583,-164,-235,-100,89,-17,-257
2,1922178,-1426,495,-583,-164,-235,-100,89,-17,-257
2,1922193,-1429,500,-577,-162,-239,-93,89,-17,-257
2,1922208,-1426,498,-572,-163,-232,-89,89,-17,-257
2,1922223,-1423,500,-573,-160,-228,-83,89,-17,-257
2,1922235,-1423,500,-573,-160,-228,-83,89,-17,-257
2,1922249,-1427,500,-576,-166,-237,-85,89,-17,-257
2,1922263,-1427,499,-574,-165,-236,-89,91,-13,-257
2,1922278,-1427,499,-574,-165,-236,-89,91,-13,-257
2,1922292,-1425,500,-578,-157,-233,-85,91,-13,-257
2,1922307,-1428,499,-576,-157,-230,-90,91,-13,-257
2,1922322,-1423,496,-577,-162,-233,-91,91,-13,-257
2,1922334,-1423,496,-577,-162,-233,-91,91,-13,-257
2,1922347,-1426,497,-576,-159,-232,-90,91,-13,-257
2,1922363,-1428,495,-577,-163,-230,-85,91,-13,-257
2,1922378,-1428,495,-577,-163,-230,-85,91,-13,-257
2,1922394,-1422,499,-572,-168,-234,-90,81,-11,-249
2,1922408,-1425,499,-574,-163,-234,-91,81,-11,-249
2,1922420,-1425,499,-574,-163,-234,-91,81,-11,-249
2,1922435,-1421,498,-576,-169,-241,-95,81,-11,-249
2,1922450,-1426,498,-577,-165,-234,-96,81,-11,-249
2,1922464,-1427,499,-576,-161,-230,-93,81,-11,-249
2,1922479,-1427,499,-576,-161,-230,-93,81,-11,-249
2,1922495,-1424,496,-576,-157,-227,-96,81,-11,-249
2,1922509,-1427,497,-580,-155,-228,-89,91,-21,-255
2,1922524,-1424,498,-573,-163,-230,-87,91,-21,-255
2,1922538,-1424,498,-573,-163,-230,-87,91,-21,-255
2,1922550,-1425,502,-571,-157,-230,-98,91,-21,-255
2,1922565,-1424,499,-577,-159,-230,-88,91,-21,-255
2,1922578,-1424,499,-577,-159,-230,-88,91,-21,-255
2,1922592,-1427,500,-580,-162,-226,-91,91,-21,-255
2,1922608,-1425,500,-575,-159,-227,-92,91,-21,-255
2,1922622,-1424,496,-580,-161,-232,-86,91,-21,-255
2,1922632,-1424,496,-580,-161,-232,-86,91,-21,-255
2,1922643,-1426,498,-576,-164,-228,-85,88,-10,-256
2,1922658,-1426,498,-576,-164,-228,-85,88,-10,-256
2,1922671,-1425,499,-574,-162,-228,-92,88,-10,-256
2,1922683,-1425,500,-573,-164,-229,-86,88,-10,-256
2,1922698,-1425,500,-573,-164,-229,-86,88,-10,-256
2,1922713,-1425,500,-576,-159,-229,-83,88,-10,-256
2,1922728,-1425,500,-577,-165,-223,-87,88,-10,-256
2,1922743,-1425,500,-577,-169,-223,-88,88,-10,-256
2,1922755,-1425,500,-577,-169,-223,-88,88,-10,-256
2,1922768,-1426,501,-570,-164,-229,-91,93,-5,-257
2,1922783,-1426,496,-578,-165,-237,-90,93,-5,-257
2,1922797,-1426,496,-578,-165,-237,-90,93,-5,-257
2,1922811,-1425,497,-577,-162,-231,-92,93,-5,-257
2,1922827,-1424,498,-577,-161,-226,-84,93,-5,-257
2,1922835,-1424,498,-577,-161,-226,-84,93,-5,-257
2,1922849,-1425,497,-576,-155,-227,-84,93,-5,-257
2,1922865,-1425,495,-585,-161,-228,-82,93,-5,-257
2,1922878,-1425,495,-585,-161,-228,-82,93,-5,-257
2,1922891,-1424,497,-570,-161,-227,-86,81,-21,-259
2,1922906,-1425,498,-573,-160,-236,-85,81,-21,-259
2,1922921,-1425,498,-573,-160,-236,-85,81,-21,-259
2,1922937,-1424,500,-576,-169,-233,-95,81,-21,-259
2,1922953,-1424,500,-576,-169,-233,-95,81,-21,-259
2,1922967,-1425,498,-576,-161,-229,-94,81,-21,-259
2,1922981,-1425,498,-576,-161,-229,-94,81,-21,-259
2,1922996,-1428,497,-576,-160,-225,-87,81,-21,-259
2,1923009,-1425,500,-577,-159,-228,-85,87,-15,-249
2,1923025,-1427,498,-575,-161,-229,-85,87,-15,-249
2,1923038,-1427,498,-575,-161,-229,-85,87,-15,-249
2,1923051,-1424,498,-579,-164,-237,-87,87,-15,-249
2,1923065,-1429,499,-576,-167,-228,-94,87,-15,-249
2,1923080,-1429,499,-576,-167,-228,-94,87,-15,-249
2,1923094,-1425,498,-577,-171,-233,-90,87,-15,-249
2,1923109,-1424,499,-575,-169,-231,-88,87,-15,-249
2,1923125,-1426,497,-575,-163,-234,-91,88,-12,-250
2,1923141,-1426,497,-575,-163,-234,-91,88,-12,-250
2,1923156,-1427,500,-577,-165,-230,-87,88,-12,-250
2,1923172,-1424,496,-575,-164,-232,-93,88,-12,-250
2,1923187,-1424,498,-574,-156,-231,-87,88,-12,-250
2,1923202,-1424,498,-574,-156,-231,-87,88,-12,-250
2,1923216,-1428,497,-577,-158,-229,-89,88,-12,-250
2,1923232,-1424,498,-576,-168,-225,-91,88,-12,-250
2,1923247,-1424,501,-578,-163,-225,-94,88,-12,-250
2,1923256,-1424,501,-578,-163,-225,-94,88,-12,-250
2,1923264,-1428,497,-575,-157,-221,-90,93,-11,-261
2,1923278,-1428,497,-575,-157,-221,-90,93,-11,-261
2,1923293,-1424,500,-573,-157,-231,-90,93,-11,-261
2,1923304,-1423,499,-578,-157,-231,-95,93,-11,-261
2,1923312,-1423,499,-578,-157,-231,-95,93,-11,-261
2,1923320,-1423,499,-578,-157,-231,-95,93,-11,-261
2,1923335,-1425,498,-577,-163,-220,-92,93,-11,-261
2,1923349,-1424,499,-574,-160,-235,-93,93,-11,-261
2,1923363,-1427,498,-577,-154,-236,-90,93,-11,-261
2,1923378,-1427,498,-577,-154,-236,-90,93,-11,-261
2,1923393,-1425,499,-567,-156,-232,-87,87,-9,-259
2,1923408,-1428,500,-574,-159,-239,-83,87,-9,-259
2,1923424,-1427,499,-575,-161,-231,-80,87,-9,-259
2,1923440,-1427,499,-575,-161,-231,-80,87,-9,-259
2,1923454,-1425,500,-578,-161,-231,-79,87,-9,-259
2,1923469,-1425,498,-577,-161,-236,-81,87,-9,-259
2,1923483,-1422,498,-581,-160,-230,-83,87,-9,-259
2,1923497,-1422,498,-581,-160,-230,-83,87,-9,-259
2,1923510,-1425,498,-571,-162,-222,-92,93,-13,-259
2,1923521,-1425,498,-571,-162,-222,-92,93,-13,-259
2,1923536,-1426,498,-574,-162,-228,-96,93,-13,-259
2,1923551,-1428,503,-573,-159,-233,-87,93,-13,-259
2,1923565,-1424,498,-578,-168,-227,-93,93,-13,-259
2,1923579,-1424,498,-578,-168,-227,-93,93,-13,-259
2,1923591,-1425,500,-582,-162,-240,-94,93,-13,-259
2,1923604,-1426,499,-577,-159,-235,-87,93,-13,-259
2,1923618,-1426,499,-577,-159,-235,-87,93,-13,-259
2,1923634,-1426,497,-571,-160,-232,-85,95,-11,-257
2,1923649,-1425,497,-570,-161,-228,-97,95,-11,-257
2,1923660,-1425,497,-570,-161,-228,-97,95,-11,-257
2,1923676,-1431,501,-574,-154,-231,-86,95,-11,-257
2,1923691,-1427,500,-578,-169,-232,-88,95,-11,-257
2,1923706,-1426,497,-577,-163,-228,-90,95,-11,-257
2,1923721,-1426,497,-577,-163,-228,-90,95,-11,-257
2,1923734,-1428,495,-576,-160,-222,-83,95,-11,-257
2,1923749,-1426,498,-574,-161,-225,-87,86,-14,-252
2,1923764,-1425,497,-573,-158,-228,-85,86,-14,-252
2,1923776,-1425,497,-573,-158,-228,-85,86,-14,-252
2,1923787,-1424,498,-575,-155,-230,-91,86,-14,-252
2,1923801,-1424,498,-575,-155,-230,-91,86,-14,-252
2,1923815,-1424,502,-579,-158,-226,-81,86,-14,-252
2,1923830,-1423,502,-573,-165,-236,-83,86,-14,-252
2,1923844,-1427,500,-579,-163,-228,-92,86,-14,-252
2,1923856,-1427,500,-579,-163,-228,-92,86,-14,-252
2,1923870,-1426,498,-576,-168,-227,-82,86,-14,-252
2,1923886,-1424,503,-575,-166,-233,-92,87,-7,-255
2,1923901,-1424,503,-575,-166,-233,-92,87,-7,-255
2,1923914,-1426,498,-574,-158,-226,-85,87,-7,-255
2,1923929,-1428,501,-578,-166,-234,-87,87,-7,-255
2,1923944,-1426,500,-577,-164,-236,-97,87,-7,-255
2,1923958,-1426,500,-577,-164,-236,-97,87,-7,-255
2,1923973,-1425,499,-572,-163,-229,-96,87,-7,-255
2,1923987,-1424,497,-579,-159,-229,-83,87,-7,-255
2,1924000,-1424,497,-579,-159,-229,-83,87,-7,-255
2,1924014,-1426,499,-572,-159,-231,-89,80,-10,-260
2,1924026,-1425,501,-578,-163,-238,-89,80,-10,-260
2,1924040,-1425,501,-578,-163,-238,-89,80,-10,-260
2,1924056,-1429,499,-576,-162,-231,-89,80,-10,-260
2,1924070,-1425,498,-573,-157,-231,-96,80,-10,-260
2,1924084,-1423,500,-573,-159,-237,-89,80,-10,-260
2,1924099,-1423,500,-573,-159,-237,-89,80,-10,-260
2,1924110,-1427,498,-582,-156,-235,-86,80,-10,-260
2,1924123,-1425,499,-579,-157,-237,-81,91,-13,-253
2,1924135,-1425,499,-579,-157,-237,-81,91,-13,-253
2,1924151,-1423,495,-578,-161,-235,-87,91,-13,-253
2,1924165,-1426,500,-576,-166,-229,-82,91,-13,-253
2,1924180,-1426,500,-576,-166,-229,-82,91,-13,-253
2,1924195,-1426,498,-578,-159,-231,-86,91,-13,-253
2,1924210,-1426,496,-578,-151,-224,-87,91,-13,-253
2,1924225,-1426,497,-577,-159,-227,-90,91,-13,-253
2,1924238,-1426,497,-577,-159,-227,-90,91,-13,-253
2,1924252,-1423,498,-572,-165,-232,-88,96,-8,-260
2,1924265,-1423,497,-571,-168,-229,-92,96,-8,-260
2,1924278,-1423,497,-571,-168,-229,-92,96,-8,-260
2,1924293,-1429,501,-578,-159,-228,-91,96,-8,-260
2,1924307,-1423,500,-580,-163,-227,-94,96,-8,-260
2,1924321,-1423,500,-580,-163,-227,-94,96,-8,-260
2,1924334,-1426,499,-576,-169,-224,-94,96,-8,-260
2,1924348,-1426,499,-576,-163,-220,-82,96,-8,-260
2,1924361,-1426,499,-576,-163,-220,-82,96,-8,-260
2,1924374,-1424,498,-570,-163,-230,-89,87,-9,-241
2,1924389,-1423,499,-576,-163,-235,-88,87,-9,-241
2,1924405,-1427,497,-575,-164,-236,-91,87,-9,-241
2,1924420,-1427,497,-575,-164,-236,-91,87,-9,-241
2,1924434,-1428,498,-580,-158,-225,-87,87,-9,-241
2,1924448,-1425,498,-576,-156,-229,-91,87,-9,-241
2,1924463,-1425,498,-576,-156,-229,-91,87,-9,-241
2,1924478,-1429,499,-577,-169,-234,-86,87,-9,-241
2,1924492,-1426,499,-579,-159,-231,-86,87,-9,-241
2,1924506,-1426,497,-570,-154,-234,-87,84,-24,-248
2,1924520,-1426,497,-570,-154,-234,-87,84,-24,-248
2,1924533,-1426,498,-574,-163,-233,-81,84,-24,-248
2,1924544,-1426,500,-574,-155,-231,-90,84,-24,-248
2,1924559,-1426,500,-574,-155,-231,-90,84,-24,-248
2,1924574,-1426,499,-576,-156,-225,-92,84,-24,-248
2,1924587,-1428,502,-581,-154,-231,-87,84,-24,-248
2,1924601,-1428,502,-581,-154,-231,-87,84,-24,-248
2,1924617,-1428,498,-582,-160,-222,-83,84,-24,-248
2,1924625,-1427,498,-575,-157,-231,-88,92,-14,-254
2,1924634,-1427,498,-575,-157,-231,-88,92,-14,-254
2,1924648,-1426,498,-580,-151,-238,-90,92,-14,-254
2,1924663,-1426,498,-580,-151,-238,-90,92,-14,-254
2,1924676,-1426,501,-577,-159,-232,-99,92,-14,-254
2,1924690,-1423,498,-573,-159,-232,-95,92,-14,-254
2,1924705,-1425,501,-576,-159,-231,-93,92,-14,-254
2,1924718,-1425,501,-576,-159,-231,-93,92,-14,-254
2,1924731,-1425,503,-578,-159,-229,-93,92,-14,-254
2,1924746,-1427,498,-572,-168,-230,-90,92,-12,-252
2,1924760,-1427,498,-572,-168,-230,-90,92,-12,-252
2,1924773,-1427,498,-572,-168,-230,-90,92,-12,-252
2,1924789,-1424,499,-574,-168,-236,-85,92,-12,-252
2,1924803,-1424,499,-574,-168,-236,-85,92,-12,-252
2,1924816,-1424,499,-580,-157,-241,-89,92,-12,-252
2,1924829,-1426,501,-573,-158,-239,-80,92,-12,-252
2,1924842,-1426,501,-573,-158,-239,-80,92,-12,-252
2,1924849,-1428,500,-575,-164,-231,-86,92,-12,-252
2,1924857,-1428,500,-575,-164,-231,-86,92,-12,-252
2,1924866,-1424,495,-574,-159,-230,-90,87,-15,-259
2,1924878,-1424,495,-574,-159,-230,-90,87,-15,-259
2,1924893,-1424,497,-570,-166,-222,-86,87,-15,-259
2,1924908,-1427,500,-571,-162,-227,-93,87,-15,-259
2,1924921,-1427,500,-571,-162,-227,-93,87,-15,-259
2,1924936,-1427,497,-575,-152,-228,-92,87,-15,-259
2,1924951,-1428,500,-573,-159,-233,-90,87,-15,-259
2,1924962,-1428,500,-573,-159,-233,-90,87,-15,-259
2,1924977,-1427,501,-578,-153,-229,-86,87,-15,-259
2,1924987,-1424,497,-577,-161,-232,-85,86,-22,-252
2,1925000,-1424,497,-577,-161,-232,-85,86,-22,-252
2,1925014,-1428,501,-576,-165,-229,-88,86,-22,-252
2,1925028,-1429,496,-578,-160,-229,-85,86,-22,-252
2,1925043,-1429,496,-578,-160,-229,-85,86,-22,-252
2,1925057,-1425,499,-574,-158,-233,-89,86,-22,-252
2,1925071,-1427,497,-573,-163,-234,-90,86,-22,-252
2,1925086,-1426,501,-577,-164,-227,-87,86,-22,-252
2,1925098,-1426,501,-577,-164,-227,-87,86,-22,-252
2,1925111,-1427,497,-572,-163,-228,-93,86,-22,-252
2,1925126,-1428,499,-575,-162,-231,-95,95,-15,-255
2,1925140,-1428,499,-575,-162,-231,-95,95,-15,-255
2,1925154,-1427,495,-573,-162,-235,-87,95,-15,-255
2,1925170,-1427,498,-572,-163,-236,-93,95,-15,-255
2,1925185,-1424,498,-576,-165,-233,-85,95,-15,-255
2,1925200,-1424,498,-576,-165,-233,-85,95,-15,-255
2,1925215,-1425,500,-574,-164,-231,-86,95,-15,-255
2,1925229,-1425,499,-577,-166,-233,-87,95,-15,-255
2,1925243,-1425,499,-577,-166,-233,-87,95,-15,-255
2,1925259,-1425,498,-570,-167,-233,-88,90,-12,-258
2,1925272,-1426,498,-575,-164,-236,-98,90,-12,-258
2,1925283,-1426,498,-575,-164,-236,-98,90,-12,-258
2,1925298,-1429,497,-580,-168,-232,-96,90,-12,-258
2,1925312,-1428,498,-571,-171,-239,-92,90,-12,-258
2,1925326,-1425,497,-574,-168,-230,-86,90,-12,-258
2,1925340,-1425,497,-574,-168,-230,-86,90,-12,-258
2,1925354,-1426,502,-577,-160,-223,-97,90,-12,-258
2,1925365,-1427,497,-570,-151,-228,-92,93,-15,-247
2,1925380,-1427,497,-570,-151,-228,-92,93,-15,-247
2,1925395,-1426,496,-572,-161,-236,-82,93,-15,-247
2,1925410,-1426,496,-572,-161,-236,-82,93,-15,-247
2,1925425,-1425,500,-574,-160,-229,-80,93,-15,-247
2,1925437,-1425,500,-574,-160,-229,-80,93,-15,-247
2,1925452,-1426,498,-572,-159,-228,-92,93,-15,-247
2,1925467,-1427,501,-573,-161,-226,-93,93,-15,-247
2,1925481,-1427,501,-573,-161,-226,-93,93,-15,-247
2,1925496,-1423,499,-575,-160,-236,-91,90,-16,-256
2,1925510,-1425,498,-574,-164,-233,-90,90,-16,-256
2,1925525,-1427,498,-579,-162,-237,-89,90,-16,-256
2,1925540,-1427,498,-579,-162,-237,-89,90,-16,-256
2,1925554,-1428,500,-574,-154,-230,-88,90,-16,-256
2,1925566,-1428,499,-579,-159,-225,-84,90,-16,-256
2,1925580,-1428,499,-579,-159,-225,-84,90,-16,-256
2,1925595,-1424,499,-581,-164,-234,-86,90,-16,-256
2,1925608,-1427,497,-576,-165,-232,-86,96,-22,-260
2,1925623,-1427,497,-576,-165,-232,-86,96,-22,-260
2,1925638,-1425,501,-578,-157,-231,-89,96,-22,-260
2,1925647,-1427,498,-579,-156,-231,-93,96,-22,-260
2,1925662,-1427,498,-579,-156,-231,-93,96,-22,-260
2,1925678,-1428,498,-577,-161,-223,-90,96,-22,-260
2,1925691,-1425,500,-579,-160,-234,-84,96,-22,-260
2,1925704,-1427,496,-574,-158,-228,-93,96,-22,-260
2,1925720,-1427,496,-574,-158,-228,-93,96,-22,-260
2,1925735,-1428,498,-576,-159,-228,-95,91,-19,-261
2,1925748,-1428,499,-574,-161,-230,-87,91,-19,-261
2,1925763,-1428,499,-574,-161,-230,-87,91,-19,-261
2,1925777,-1425,497,-573,-163,-235,-88,91,-19,-261
2,1925788,-1429,500,-576,-159,-240,-94,91,-19,-261
2,1925800,-1429,500,-576,-159,-240,-94,91,-19,-261
2,1925815,-1426,498,-577,-164,-230,-95,91,-19,-261
2,1925827,-1428,497,-580,-160,-231,-89,91,-19,-261
2,1925840,-1428,497,-580,-160,-231,-89,91,-19,-261
2,1925856,-1426,497,-575,-157,-233,-83,91,-19,-261
2,1925866,-1425,499,-572,-166,-230,-86,87,-21,-251
2,1925881,-1425,499,-572,-166,-230,-86,87,-21,-251
2,1925895,-1421,499,-575,-160,-228,-90,87,-21,-251
2,1925909,-1425,493,-575,-159,-230,-83,87,-21,-251
2,1925924,-1425,493,-575,-159,-230,-83,87,-21,-251
2,1925936,-1427,499,-571,-158,-230,-88,87,-21,-251
2,1925950,-1424,499,-577,-159,-232,-89,87,-21,-251
2,1925964,-1424,499,-577,-159,-232,-89,87,-21,-251
2,1925975,-1423,497,-577,-159,-229,-85,87,-21,-251
2,1925990,-1426,501,-570,-161,-227,-85,87,-15,-257
2,1926003,-1426,501,-570,-161,-227,-85,87,-15,-257
2,1926017,-1426,497,-571,-158,-229,-88,87,-15,-257
2,1926031,-1427,496,-575,-160,-232,-88,87,-15,-257
2,1926045,-1423,499,-573,-162,-231,-97,87,-15,-257
2,1926059,-1423,499,-573,-162,-231,-97,87,-15,-257
2,1926070,-1425,500,-577,-160,-231,-88,87,-15,-257
2,1926084,-1425,500,-577,-160,-231,-88,87,-15,-257
2,1926097,-1427,498,-575,-160,-233,-91,87,-15,-257
2,1926112,-1425,500,-570,-160,-236,-92,90,-18,-252
2,1926125,-1425,499,-573,-159,-225,-93,90,-18,-252
2,1926140,-1425,499,-573,-159,-225,-93,90,-18,-252
2,1926156,-1426,503,-577,-158,-233,-92,90,-18,-252
2,1926171,-1427,501,-580,-156,-237,-93,90,-18,-252
2,1926184,-1429,497,-579,-158,-238,-96,90,-18,-252
2,1926195,-1429,497,-579,-158,-238,-96,90,-18,-252
2,1926205,-1424,498,-568,-157,-235,-85,90,-18,-252
2,1926213,-1424,498,-568,-157,-235,-85,90,-18,-252
2,1926222,-1424,498,-568,-157,-235,-85,90,-18,-252
2,1926230,-1426,497,-574,-160,-230,-83,102,-14,-256
2,1926239,-1426,497,-574,-160,-230,-83,102,-14,-256
2,1926252,-1426,496,-576,-156,-233,-84,102,-14,-256
2,1926266,-1426,498,-578,-155,-229,-87,102,-14,-256
2,1926281,-1426,498,-578,-155,-229,-87,102,-14,-256
2,1926295,-1423,496,-576,-159,-235,-83,102,-14,-256
2,1926306,-1425,500,-570,-164,-232,-91,102,-14,-256
2,1926319,-1425,500,-570,-164,-232,-91,102,-14,-256
2,1926331,-1428,499,-577,-165,-230,-87,102,-14,-256
2,1926345,-1430,495,-575,-168,-237,-91,90,-14,-254
2,1926360,-1430,495,-575,-168,-237,-91,90,-14,-254
2,1926376,-1426,502,-571,-167,-233,-90,90,-14,-254
2,1926390,-1424,499,-570,-161,-237,-88,90,-14,-254
2,1926405,-1424,499,-570,-161,-237,-88,90,-14,-254
2,1926413,-1423,496,-577,-170,-236,-93,90,-14,-254
2,1926427,-1423,498,-577,-166,-236,-88,90,-14,-254
2,1926440,-1423,498,-577,-166,-236,-88,90,-14,-254
2,1926456,-1427,496,-572,-158,-228,-87,90,-14,-254
2,1926471,-1425,500,-571,-158,-228,-92,90,-14,-254
2,1926486,-1423,498,-571,-161,-232,-86,87,-25,-257
2,1926500,-1423,498,-571,-161,-232,-86,87,-25,-257
2,1926514,-1426,497,-573,-169,-229,-84,87,-25,-257
2,1926529,-1424,493,-574,-162,-235,-85,87,-25,-257
2,1926540,-1424,493,-574,-162,-235,-85,87,-25,-257
2,1926552,-1426,499,-577,-166,-233,-86,87,-25,-257
2,1926567,-1427,496,-575,-161,-232,-89,87,-25,-257
2,1926577,-1427,496,-575,-161,-232,-89,87,-25,-257
2,1926586,-1426,498,-576,-169,-237,-85,87,-25,-257
2,1926601,-1426,498,-576,-169,-237,-85,87,-25,-257
2,1926616,-1429,498,-575,-156,-232,-83,89,-9,-251
2,1926630,-1422,498,-574,-167,-230,-89,89,-9,-251
2,1926644,-1422,498,-574,-167,-230,-89,89,-9,-251
2,1926660,-1425,497,-577,-163,-229,-90,89,-9,-251
2,1926675,-1429,497,-578,-159,-231,-96,89,-9,-251
2,1926691,-1427,496,-578,-159,-227,-93,89,-9,-251
2,1926707,-1424,499,-577,-157,-230,-91,89,-9,-251
