imu,time,ax,ay,az,gx,gy,gz,mx,my,mz
2,4849506,-1864,474,-2646,-203,-251,-5071,62,214,-364
2,4849519,-1863,505,-2638,-196,-257,-5073,62,214,-364
2,4849532,-1863,505,-2638,-196,-257,-5073,62,214,-364
2,4849546,-1866,493,-2631,-199,-263,-5071,69,225,-365
2,4849557,-1866,493,-2631,-199,-263,-5071,69,225,-365
2,4849571,-1863,497,-2631,-206,-260,-5072,69,225,-365
2,4849587,-1865,472,-2637,-208,-262,-5072,69,225,-365
2,4849605,-1860,488,-2632,-196,-263,-5066,69,225,-365
2,4849620,-1864,492,-2635,-203,-265,-5073,69,225,-365
2,4849633,-1864,492,-2635,-203,-265,-5073,69,225,-365
2,4849646,-1861,496,-2636,-208,-260,-5073,69,225,-365
2,4849661,-1862,488,-2640,-211,-257,-5075,72,232,-368
2,4849677,-1862,488,-2640,-211,-257,-5075,72,232,-368
2,4849690,-1857,496,-2638,-207,-261,-5075,72,232,-368
2,4849703,-1858,507,-2640,-208,-259,-5069,72,232,-368
2,4849718,-1857,512,-2635,-209,-251,-5073,72,232,-368
2,4849730,-1857,512,-2635,-209,-251,-5073,72,232,-368
2,4849741,-1862,495,-2639,-204,-248,-5074,72,232,-368
2,4849750,-1862,495,-2639,-204,-248,-5074,72,232,-368
2,4849765,-1859,493,-2639,-202,-251,-5079,72,232,-368
2,4849777,-1859,493,-2639,-202,-251,-5079,72,232,-368
2,4849789,-1858,492,-2633,-204,-256,-5080,71,237,-371
2,4849804,-1858,490,-2637,-202,-255,-5083,71,237,-371
2,4849817,-1858,490,-2637,-202,-255,-5083,71,237,-371
2,4849831,-1855,482,-2635,-204,-257,-5079,71,237,-371
2,4849847,-1856,473,-2636,-200,-253,-5084,71,237,-371
2,4849861,-1856,476,-2636,-203,-254,-5086,71,237,-371
2,4849873,-1856,476,-2636,-203,-254,-5086,71,237,-371
2,4849889,-1855,485,-2644,-202,-260,-5083,71,237,-371
2,4849903,-1852,479,-2633,-201,-265,-5081,72,242,-372
2,4849915,-1852,479,-2633,-201,-265,-5081,72,242,-372
2,4849928,-1855,476,-2633,-201,-257,-5076,72,242,-372
2,4849941,-1858,478,-2634,-200,-260,-5077,72,242,-372
2,4849954,-1858,478,-2634,-200,-260,-5077,72,242,-372
2,4849969,-1860,477,-2636,-201,-258,-5079,72,242,-372
2,4849983,-1856,472,-2634,-209,-259,-5079,72,242,-372
2,4849994,-1856,472,-2634,-209,-259,-5079,72,242,-372
2,4850001,-1851,445,-2636,-203,-253,-5077,72,242,-372
2,4850011,-1851,445,-2636,-203,-253,-5077,72,242,-372
2,4850019,-1851,445,-2636,-203,-253,-5077,72,242,-372
2,4850028,-1851,445,-2636,-203,-253,-5077,72,242,-372
2,4850035,-1851,445,-2636,-203,-253,-5077,72,242,-372
2,4850043,-1852,464,-2638,-199,-259,-5089,70,248,-374
2,4850052,-1852,464,-2638,-199,-259,-5089,70,248,-374
2,4850060,-1859,473,-2637,-201,-264,-5082,70,248,-374
2,4850068,-1859,473,-2637,-201,-264,-5082,70,248,-374
2,4850076,-1859,473,-2637,-201,-264,-5082,70,248,-374
2,4850083,-1856,445,-2638,-209,-258,-5079,70,248,-374
2,4850092,-1856,445,-2638,-209,-258,-5079,70,248,-374
2,4850100,-1860,452,-2640,-206,-255,-5081,70,248,-374
2,4850108,-1860,452,-2640,-206,-255,-5081,70,248,-374
2,4850115,-1860,452,-2640,-206,-255,-5081,70,248,-374
2,4850123,-1857,444,-2637,-196,-254,-5075,70,248,-374
2,4850130,-1857,444,-2637,-196,-254,-5075,70,248,-374
2,4850139,-1859,462,-2638,-196,-261,-5078,70,248,-374
2,4850147,-1859,462,-2638,-196,-261,-5078,70,248,-374
2,4850154,-1859,462,-2638,-196,-261,-5078,70,248,-374
2,4850162,-1858,439,-2639,-204,-260,-5079,82,246,-376
2,4850168,-1858,439,-2639,-204,-260,-5079,82,246,-376
2,4850174,-1858,439,-2639,-204,-260,-5079,82,246,-376
2,4850181,-1859,453,-2633,-203,-257,-5075,82,246,-376
2,4850187,-1859,453,-2633,-203,-257,-5075,82,246,-376
2,4850193,-1859,453,-2633,-203,-257,-5075,82,246,-376
2,4850199,-1857,448,-2634,-198,-260,-5082,82,246,-376
2,4850205,-1857,448,-2634,-198,-260,-5082,82,246,-376
2,4850212,-1857,448,-2634,-198,-260,-5082,82,246,-376
2,4850219,-1858,466,-2640,-193,-257,-5078,82,246,-376
2,4850226,-1858,466,-2640,-193,-257,-5078,82,246,-376
2,4850232,-1858,466,-2640,-193,-257,-5078,82,246,-376
2,4850239,-1860,462,-2641,-204,-256,-5074,82,246,-376
2,4850244,-1860,462,-2641,-204,-256,-5074,82,246,-376
2,4850251,-1860,462,-2641,-204,-256,-5074,82,246,-376
2,4850256,-1860,462,-2641,-204,-256,-5074,82,246,-376
2,4850264,-1857,462,-2636,-206,-258,-5076,82,246,-376
2,4850273,-1857,462,-2636,-206,-258,-5076,82,246,-376
2,4850280,-1864,451,-2637,-197,-264,-5076,69,259,-383
2,4850287,-1864,451,-2637,-197,-264,-5076,69,259,-383
2,4850295,-1864,451,-2637,-197,-264,-5076,69,259,-383
2,4850302,-1862,487,-2635,-200,-259,-5075,69,259,-383
2,4850312,-1862,487,-2635,-200,-259,-5075,69,259,-383
2,4850319,-1863,463,-2632,-199,-256,-5069,69,259,-383
2,4850329,-1863,463,-2632,-199,-256,-5069,69,259,-383
2,4850337,-1863,463,-2632,-199,-256,-5069,69,259,-383
2,4850347,-1861,461,-2631,-199,-252,-5068,69,259,-383
2,4850358,-1861,461,-2631,-199,-252,-5068,69,259,-383
2,4850364,-1864,459,-2641,-204,-260,-5067,69,259,-383
2,4850373,-1864,459,-2641,-204,-260,-5067,69,259,-383
2,4850383,-1864,480,-2630,-204,-260,-5077,69,259,-383
2,4850392,-1864,480,-2630,-204,-260,-5077,69,259,-383
2,4850400,-1865,482,-2628,-202,-262,-5069,79,261,-383
2,4850408,-1865,482,-2628,-202,-262,-5069,79,261,-383
2,4850415,-1865,482,-2628,-202,-262,-5069,79,261,-383
2,4850423,-1861,483,-2636,-205,-268,-5072,79,261,-383
2,4850433,-1861,483,-2636,-205,-268,-5072,79,261,-383
2,4850441,-1864,473,-2639,-201,-263,-5068,79,261,-383
2,4850447,-1864,473,-2639,-201,-263,-5068,79,261,-383
2,4850456,-1864,473,-2639,-201,-263,-5068,79,261,-383
2,4850462,-1862,499,-2633,-205,-263,-5067,79,261,-383
2,4850468,-1862,499,-2633,-205,-263,-5067,79,261,-383
2,4850476,-1862,499,-2633,-205,-263,-5067,79,261,-383
2,4850481,-1868,500,-2637,-200,-256,-5066,79,261,-383
2,4850488,-1868,500,-2637,-200,-256,-5066,79,261,-383
2,4850494,-1868,500,-2637,-200,-256,-5066,79,261,-383
2,4850502,-1861,494,-2634,-203,-252,-5065,79,261,-383
2,4850511,-1861,494,-2634,-203,-252,-5065,79,261,-383
2,4850520,-1862,473,-2634,-208,-245,-5074,79,265,-379
2,4850529,-1862,473,-2634,-208,-245,-5074,79,265,-379
2,4850538,-1862,473,-2634,-208,-245,-5074,79,265,-379
2,4850546,-1862,481,-2630,-200,-253,-5078,79,265,-379
2,4850555,-1862,481,-2630,-200,-253,-5078,79,265,-379
2,4850565,-1863,490,-2628,-201,-260,-5074,79,265,-379
2,4850574,-1863,490,-2628,-201,-260,-5074,79,265,-379
2,4850583,-1865,489,-2643,-201,-267,-5072,79,265,-379
2,4850592,-1865,489,-2643,-201,-267,-5072,79,265,-379
2,4850601,-1862,479,-2637,-209,-262,-5072,79,265,-379
2,4850610,-1862,479,-2637,-209,-262,-5072,79,265,-379
2,4850620,-1860,491,-2641,-213,-258,-5074,79,265,-379
2,4850630,-1860,491,-2641,-213,-258,-5074,79,265,-379
2,4850639,-1865,498,-2638,-201,-267,-5071,79,265,-379
2,4850650,-1865,498,-2638,-201,-267,-5071,79,265,-379
2,4850659,-1862,515,-2633,-199,-256,-5076,76,264,-382
2,4850670,-1862,515,-2633,-199,-256,-5076,76,264,-382
2,4850678,-1862,515,-2633,-199,-256,-5076,76,264,-382
2,4850688,-1862,495,-2635,-205,-264,-5074,76,264,-382
2,4850698,-1862,495,-2635,-205,-264,-5074,76,264,-382
2,4850707,-1858,495,-2635,-205,-264,-5079,76,264,-382
2,4850716,-1858,495,-2635,-205,-264,-5079,76,264,-382
2,4850725,-1863,495,-2631,-201,-257,-5068,76,264,-382
2,4850735,-1863,495,-2631,-201,-257,-5068,76,264,-382
2,4850744,-1853,489,-2631,-205,-262,-5077,76,264,-382
2,4850753,-1853,489,-2631,-205,-262,-5077,76,264,-382
2,4850762,-1856,485,-2638,-211,-263,-5079,76,264,-382
2,4850771,-1856,485,-2638,-211,-263,-5079,76,264,-382
2,4850780,-1852,478,-2635,-208,-260,-5083,68,282,-382
2,4850789,-1852,478,-2635,-208,-260,-5083,68,282,-382
2,4850800,-1855,475,-2639,-201,-256,-5083,68,282,-382
2,4850808,-1855,475,-2639,-201,-256,-5083,68,282,-382
2,4850819,-1855,475,-2639,-201,-256,-5083,68,282,-382
2,4850829,-1854,480,-2633,-203,-262,-5085,68,282,-382
2,4850838,-1854,480,-2633,-203,-262,-5085,68,282,-382
2,4850849,-1853,480,-2638,-206,-267,-5079,68,282,-382
2,4850859,-1856,474,-2636,-203,-257,-5083,68,282,-382
2,4850869,-1856,474,-2636,-203,-257,-5083,68,282,-382
2,4850878,-1856,474,-2636,-203,-257,-5083,68,282,-382
2,4850889,-1855,477,-2640,-202,-260,-5083,68,282,-382
2,4850899,-1856,474,-2633,-199,-261,-5080,78,290,-370
2,4850908,-1856,474,-2633,-199,-261,-5080,78,290,-370
2,4850918,-1856,474,-2633,-199,-261,-5080,78,290,-370
2,4850926,-1856,470,-2633,-203,-260,-5083,78,290,-370
2,4850937,-1856,470,-2633,-203,-260,-5083,78,290,-370
2,4850946,-1855,441,-2637,-206,-262,-5089,78,290,-370
2,4850954,-1855,441,-2637,-206,-262,-5089,78,290,-370
2,4850965,-1854,462,-2640,-205,-257,-5080,78,290,-370
2,4850972,-1854,462,-2640,-205,-257,-5080,78,290,-370
2,4850981,-1859,460,-2636,-202,-256,-5074,78,290,-370
2,4850991,-1859,460,-2636,-202,-256,-5074,78,290,-370
2,4850999,-1855,471,-2636,-201,-264,-5080,78,290,-370
2,4851008,-1855,471,-2636,-201,-264,-5080,78,290,-370
2,4851018,-1855,471,-2636,-201,-264,-5080,78,290,-370
2,4851027,-1856,442,-2629,-206,-259,-5074,90,288,-372
2,4851037,-1856,442,-2629,-206,-259,-5074,90,288,-372
2,4851047,-1857,454,-2632,-202,-256,-5079,90,288,-372
2,4851056,-1857,454,-2632,-202,-256,-5079,90,288,-372
2,4851066,-1857,438,-2637,-199,-265,-5072,90,288,-372
2,4851075,-1857,438,-2637,-199,-265,-5072,90,288,-372
2,4851085,-1857,462,-2635,-203,-261,-5074,90,288,-372
2,4851094,-1857,462,-2635,-203,-261,-5074,90,288,-372
2,4851103,-1857,445,-2637,-203,-264,-5072,90,288,-372
2,4851112,-1857,445,-2637,-203,-264,-5072,90,288,-372
2,4851123,-1858,452,-2631,-210,-261,-5073,90,288,-372
2,4851131,-1858,452,-2631,-210,-261,-5073,90,288,-372
2,4851141,-1861,445,-2633,-200,-259,-5074,94,296,-364
2,4851151,-1861,445,-2633,-200,-259,-5074,94,296,-364
2,4851161,-1858,456,-2629,-199,-260,-5070,94,296,-364
2,4851176,-1858,456,-2629,-199,-260,-5070,94,296,-364
2,4851187,-1864,452,-2638,-204,-250,-5065,94,296,-364
2,4851201,-1859,457,-2636,-205,-257,-5075,94,296,-364
2,4851215,-1859,457,-2636,-205,-257,-5075,94,296,-364
2,4851228,-1865,452,-2641,-199,-260,-5063,94,296,-364
2,4851243,-1863,469,-2637,-198,-256,-5066,94,296,-364
2,4851255,-1863,469,-2637,-198,-256,-5066,94,296,-364
2,4851269,-1866,478,-2640,-195,-250,-5067,94,296,-364
2,4851282,-1865,457,-2629,-195,-253,-5067,110,312,-368
2,4851296,-1865,457,-2629,-195,-253,-5067,110,312,-368
2,4851308,-1864,452,-2633,-204,-253,-5062,110,312,-368
2,4851322,-1866,468,-2633,-202,-252,-5063,110,312,-368
2,4851337,-1866,468,-2633,-202,-252,-5063,110,312,-368
2,4851349,-1862,473,-2628,-199,-256,-5067,110,312,-368
2,4851364,-1869,476,-2644,-198,-267,-5067,110,312,-368
2,4851379,-1869,476,-2644,-198,-267,-5067,110,312,-368
2,4851393,-1863,474,-2638,-205,-257,-5067,110,312,-368
2,4851405,-1866,485,-2629,-205,-259,-5068,117,307,-367
2,4851420,-1863,481,-2629,-194,-266,-5069,117,307,-367
2,4851435,-1863,481,-2629,-194,-266,-5069,117,307,-367
2,4851448,-1866,493,-2637,-195,-266,-5071,117,307,-367
2,4851462,-1861,486,-2638,-209,-260,-5067,117,307,-367
2,4851475,-1861,486,-2638,-209,-260,-5067,117,307,-367
2,4851489,-1859,470,-2636,-203,-252,-5067,117,307,-367
2,4851503,-1863,478,-2641,-197,-264,-5075,117,307,-367
2,4851516,-1863,478,-2641,-197,-264,-5075,117,307,-367
2,4851529,-1864,486,-2636,-201,-264,-5071,118,316,-368
2,4851544,-1861,481,-2636,-196,-254,-5074,118,316,-368
2,4851558,-1861,481,-2636,-196,-254,-5074,118,316,-368
2,4851571,-1862,488,-2636,-201,-258,-5069,118,316,-368
2,4851584,-1863,492,-2641,-202,-267,-5071,118,316,-368
2,4851599,-1863,492,-2641,-202,-267,-5071,118,316,-368
2,4851614,-1858,504,-2637,-203,-258,-5073,118,316,-368
2,4851631,-1861,496,-2636,-206,-269,-5077,118,316,-368
2,4851646,-1856,499,-2638,-209,-263,-5074,127,307,-353
2,4851658,-1856,499,-2638,-209,-263,-5074,127,307,-353
2,4851671,-1857,490,-2635,-199,-255,-5079,127,307,-353
2,4851684,-1856,487,-2633,-195,-256,-5079,127,307,-353
2,4851697,-1856,487,-2633,-195,-256,-5079,127,307,-353
2,4851712,-1857,479,-2640,-208,-267,-5080,127,307,-353
2,4851726,-1860,483,-2635,-200,-261,-5092,127,307,-353
2,4851739,-1860,483,-2635,-200,-261,-5092,127,307,-353
2,4851750,-1853,471,-2639,-197,-264,-5083,127,307,-353
2,4851764,-1856,474,-2634,-207,-259,-5080,135,319,-359
2,4851778,-1856,474,-2634,-207,-259,-5080,135,319,-359
2,4851792,-1850,481,-2637,-207,-262,-5075,135,319,-359
2,4851807,-1857,481,-2633,-208,-262,-5081,135,319,-359
2,4851819,-1857,481,-2633,-208,-262,-5081,135,319,-359
2,4851833,-1854,471,-2640,-204,-259,-5075,135,319,-359
2,4851849,-1858,472,-2639,-199,-265,-5076,135,319,-359
2,4851864,-1852,472,-2638,-202,-257,-5078,135,319,-359
2,4851878,-1852,472,-2638,-202,-257,-5078,135,319,-359
2,4851890,-1858,463,-2641,-202,-254,-5074,135,319,-359
2,4851904,-1853,445,-2633,-205,-258,-5080,137,319,-355
2,4851917,-1853,445,-2633,-205,-258,-5080,137,319,-355
2,4851932,-1860,463,-2637,-203,-259,-5084,137,319,-355
2,4851945,-1856,456,-2638,-196,-261,-5079,137,319,-355
2,4851960,-1856,456,-2638,-196,-261,-5079,137,319,-355
2,4851972,-1856,456,-2638,-196,-261,-5079,137,319,-355
2,4851985,-1857,447,-2646,-207,-252,-5083,137,319,-355
2,4851998,-1857,447,-2646,-207,-252,-5083,137,319,-355
2,4852013,-1856,448,-2636,-204,-255,-5080,137,319,-355
2,4852027,-1858,448,-2639,-207,-257,-5077,143,319,-367
2,4852042,-1857,445,-2636,-203,-260,-5080,143,319,-367
2,4852056,-1857,445,-2636,-203,-260,-5080,143,319,-367
2,4852070,-1862,453,-2632,-198,-249,-5080,143,319,-367
2,4852084,-1862,440,-2633,-199,-259,-5077,143,319,-367
2,4852100,-1862,440,-2633,-199,-259,-5077,143,319,-367
2,4852115,-1861,452,-2635,-199,-261,-5070,143,319,-367
2,4852127,-1859,447,-2639,-199,-261,-5071,143,319,-367
2,4852141,-1859,458,-2631,-200,-263,-5073,136,322,-354
2,4852155,-1859,458,-2631,-200,-263,-5073,136,322,-354
2,4852168,-1862,447,-2637,-196,-267,-5063,136,322,-354
2,4852178,-1862,447,-2637,-196,-267,-5063,136,322,-354
2,4852187,-1864,458,-2639,-201,-262,-5076,136,322,-354
2,4852196,-1864,458,-2639,-201,-262,-5076,136,322,-354
2,4852204,-1863,477,-2643,-206,-265,-5068,136,322,-354
2,4852213,-1863,477,-2643,-206,-265,-5068,136,322,-354
2,4852222,-1865,467,-2632,-199,-267,-5068,136,322,-354
2,4852232,-1865,467,-2632,-199,-267,-5068,136,322,-354
2,4852242,-1867,457,-2638,-201,-267,-5064,136,322,-354
2,4852252,-1867,457,-2638,-201,-267,-5064,136,322,-354
2,4852260,-1864,456,-2633,-200,-259,-5063,159,315,-359
2,4852272,-1864,456,-2633,-200,-259,-5063,159,315,-359
2,4852284,-1866,479,-2631,-202,-264,-5066,159,315,-359
2,4852292,-1866,479,-2631,-202,-264,-5066,159,315,-359
2,4852303,-1862,473,-2634,-199,-264,-5069,159,315,-359
2,4852313,-1862,473,-2634,-199,-264,-5069,159,315,-359
2,4852320,-1862,473,-2634,-199,-264,-5069,159,315,-359
2,4852331,-1869,481,-2639,-206,-263,-5075,159,315,-359
2,4852341,-1865,474,-2642,-207,-264,-5074,159,315,-359
2,4852349,-1865,474,-2642,-207,-264,-5074,159,315,-359
2,4852360,-1865,474,-2642,-207,-264,-5074,159,315,-359
2,4852370,-1867,506,-2638,-196,-253,-5069,159,315,-359
2,4852379,-1867,506,-2638,-196,-253,-5069,159,315,-359
2,4852389,-1866,484,-2638,-206,-261,-5073,156,324,-366
2,4852401,-1860,499,-2638,-215,-263,-5074,156,324,-366
2,4852412,-1860,499,-2638,-215,-263,-5074,156,324,-366
2,4852421,-1866,471,-2641,-210,-262,-5073,156,324,-366
2,4852431,-1866,471,-2641,-210,-262,-5073,156,324,-366
2,4852442,-1858,483,-2625,-202,-265,-5076,156,324,-366
2,4852453,-1858,483,-2625,-202,-265,-5076,156,324,-366
2,4852464,-1867,480,-2642,-194,-269,-5078,156,324,-366
2,4852471,-1867,480,-2642,-194,-269,-5078,156,324,-366
2,4852482,-1859,492,-2633,-200,-264,-5076,156,324,-366
2,4852494,-1859,492,-2633,-200,-264,-5076,156,324,-366
2,4852502,-1865,487,-2640,-205,-260,-5073,156,324,-366
2,4852509,-1865,487,-2640,-205,-260,-5073,156,324,-366
2,4852518,-1865,487,-2640,-205,-260,-5073,156,324,-366
2,4852529,-1860,496,-2633,-200,-262,-5073,162,332,-358
2,4852541,-1861,500,-2646,-204,-266,-5070,162,332,-358
2,4852550,-1861,500,-2646,-204,-266,-5070,162,332,-358
2,4852561,-1859,508,-2639,-207,-260,-5074,162,332,-358
2,4852572,-1859,508,-2639,-207,-260,-5074,162,332,-358
2,4852584,-1857,493,-2642,-203,-259,-5079,162,332,-358
2,4852593,-1857,493,-2642,-203,-259,-5079,162,332,-358
2,4852604,-1862,496,-2640,-200,-265,-5076,162,332,-358
2,4852616,-1862,496,-2640,-200,-265,-5076,162,332,-358
2,4852625,-1855,486,-2644,-199,-261,-5078,162,332,-358
2,4852636,-1855,486,-2644,-199,-261,-5078,162,332,-358
2,4852647,-1864,478,-2634,-205,-262,-5078,163,315,-365
2,4852657,-1864,478,-2634,-205,-262,-5078,163,315,-365
2,4852668,-1856,483,-2636,-201,-266,-5082,163,315,-365
2,4852679,-1856,483,-2636,-201,-266,-5082,163,315,-365
2,4852689,-1861,471,-2640,-201,-262,-5085,163,315,-365
2,4852699,-1861,471,-2640,-201,-262,-5085,163,315,-365
2,4852709,-1854,476,-2639,-200,-266,-5085,163,315,-365
2,4852721,-1857,472,-2639,-208,-263,-5083,163,315,-365
2,4852731,-1857,472,-2639,-208,-263,-5083,163,315,-365
2,4852744,-1849,478,-2641,-202,-261,-5072,163,315,-365
2,4852755,-1849,478,-2641,-202,-261,-5072,163,315,-365
2,4852765,-1857,477,-2642,-206,-262,-5080,167,313,-355
2,4852779,-1857,477,-2642,-206,-262,-5080,167,313,-355
2,4852787,-1856,479,-2636,-207,-267,-5081,167,313,-355
2,4852797,-1856,479,-2636,-207,-267,-5081,167,313,-355
2,4852808,-1853,469,-2638,-207,-264,-5082,167,313,-355
2,4852819,-1853,469,-2638,-207,-264,-5082,167,313,-355
2,4852828,-1854,467,-2637,-201,-260,-5081,167,313,-355
2,4852839,-1854,467,-2637,-201,-260,-5081,167,313,-355
2,4852849,-1851,433,-2641,-204,-262,-5087,167,313,-355
2,4852860,-1851,433,-2641,-204,-262,-5087,167,313,-355
2,4852871,-1858,464,-2637,-203,-266,-5089,167,313,-355
2,4852882,-1854,450,-2629,-206,-266,-5089,174,318,-354
2,4852892,-1854,450,-2629,-206,-266,-5089,174,318,-354
2,4852903,-1856,466,-2631,-204,-263,-5086,174,318,-354
2,4852915,-1856,466,-2631,-204,-263,-5086,174,318,-354
2,4852923,-1852,440,-2639,-207,-266,-5084,174,318,-354
2,4852933,-1852,440,-2639,-207,-266,-5084,174,318,-354
2,4852945,-1859,452,-2641,-212,-260,-5084,174,318,-354
2,4852953,-1859,452,-2641,-212,-260,-5084,174,318,-354
2,4852964,-1856,438,-2637,-201,-257,-5080,174,318,-354
2,4852973,-1856,438,-2637,-201,-257,-5080,174,318,-354
2,4852984,-1856,462,-2641,-202,-262,-5072,174,318,-354
2,4852992,-1856,462,-2641,-202,-262,-5072,174,318,-354
2,4852998,-1856,462,-2641,-202,-262,-5072,174,318,-354
2,4853004,-1860,441,-2638,-196,-260,-5074,160,318,-358
2,4853012,-1860,441,-2638,-196,-260,-5074,160,318,-358
2,4853022,-1857,446,-2633,-199,-250,-5079,160,318,-358
2,4853031,-1857,446,-2633,-199,-250,-5079,160,318,-358
2,4853040,-1857,446,-2633,-199,-250,-5079,160,318,-358
2,4853048,-1859,441,-2641,-198,-254,-5075,160,318,-358
2,4853057,-1859,441,-2641,-198,-254,-5075,160,318,-358
2,4853064,-1856,455,-2631,-191,-259,-5069,160,318,-358
2,4853072,-1856,455,-2631,-191,-259,-5069,160,318,-358
2,4853080,-1856,455,-2631,-191,-259,-5069,160,318,-358
2,4853085,-1862,455,-2645,-204,-256,-5070,160,318,-358
2,4853094,-1862,455,-2645,-204,-256,-5070,160,318,-358
2,4853102,-1859,457,-2635,-209,-256,-5070,160,318,-358
2,4853112,-1859,457,-2635,-209,-256,-5070,160,318,-358
2,4853121,-1859,457,-2635,-209,-256,-5070,160,318,-358
2,4853129,-1862,447,-2644,-200,-258,-5066,172,314,-346
2,4853135,-1862,447,-2644,-200,-258,-5066,172,314,-346
2,4853143,-1860,487,-2646,-201,-260,-5067,172,314,-346
2,4853151,-1860,487,-2646,-201,-260,-5067,172,314,-346
2,4853160,-1860,487,-2646,-201,-260,-5067,172,314,-346
2,4853168,-1861,460,-2636,-205,-258,-5058,172,314,-346
2,4853176,-1861,460,-2636,-205,-258,-5058,172,314,-346
2,4853187,-1861,466,-2638,-204,-260,-5057,172,314,-346
2,4853200,-1867,458,-2637,-199,-261,-5062,172,314,-346
2,4853213,-1867,458,-2637,-199,-261,-5062,172,314,-346
2,4853226,-1863,479,-2633,-194,-252,-5068,172,314,-346
2,4853240,-1863,479,-2633,-194,-252,-5068,172,314,-346
2,4853254,-1863,469,-2639,-200,-257,-5066,172,314,-346
2,4853268,-1863,478,-2635,-200,-257,-5067,176,304,-338
2,4853282,-1862,475,-2640,-202,-262,-5071,176,304,-338
2,4853298,-1862,475,-2640,-202,-262,-5071,176,304,-338
2,4853313,-1860,485,-2639,-198,-270,-5067,176,304,-338
2,4853326,-1864,496,-2644,-200,-267,-5068,176,304,-338
2,4853341,-1864,496,-2644,-200,-267,-5068,176,304,-338
2,4853355,-1859,497,-2642,-206,-260,-5069,176,304,-338
2,4853367,-1866,478,-2642,-205,-258,-5070,176,304,-338
2,4853379,-1866,478,-2642,-205,-258,-5070,176,304,-338
2,4853393,-1863,478,-2638,-198,-266,-5070,181,305,-339
2,4853406,-1867,488,-2640,-200,-261,-5072,181,305,-339
2,4853420,-1867,488,-2640,-200,-261,-5072,181,305,-339
2,4853434,-1854,486,-2632,-200,-260,-5072,181,305,-339
2,4853446,-1863,485,-2635,-207,-257,-5074,181,305,-339
2,4853459,-1863,485,-2635,-207,-257,-5074,181,305,-339
2,4853474,-1858,485,-2644,-197,-254,-5074,181,305,-339
2,4853487,-1862,501,-2643,-196,-259,-5072,181,305,-339
2,4853501,-1861,507,-2639,-207,-258,-5080,181,297,-341
2,4853516,-1861,507,-2639,-207,-258,-5080,181,297,-341
2,4853527,-1858,495,-2637,-203,-256,-5076,181,297,-341
2,4853541,-1862,494,-2641,-202,-257,-5081,181,297,-341
2,4853557,-1862,494,-2641,-202,-257,-5081,181,297,-341
2,4853571,-1861,489,-2640,-198,-255,-5082,181,297,-341
2,4853584,-1856,484,-2636,-205,-257,-5076,181,297,-341
2,4853598,-1856,484,-2636,-205,-257,-5076,181,297,-341
2,4853612,-1857,481,-2640,-208,-253,-5081,181,297,-341
2,4853624,-1855,474,-2636,-204,-249,-5090,187,299,-333
2,4853639,-1855,474,-2636,-204,-249,-5090,187,299,-333
2,4853650,-1855,472,-2638,-203,-261,-5081,187,299,-333
2,4853664,-1859,478,-2638,-203,-264,-5083,187,299,-333
2,4853678,-1859,478,-2638,-203,-264,-5083,187,299,-333
2,4853692,-1851,484,-2646,-201,-247,-5082,187,299,-333
2,4853705,-1855,472,-2644,-204,-260,-5080,187,299,-333
2,4853719,-1855,472,-2644,-204,-260,-5080,187,299,-333
2,4853731,-1855,475,-2642,-200,-256,-5080,187,299,-333
2,4853744,-1858,471,-2649,-196,-256,-5077,185,299,-343
2,4853760,-1858,471,-2649,-196,-256,-5077,185,299,-343
2,4853775,-1855,472,-2641,-203,-259,-5079,185,299,-343
2,4853790,-1858,442,-2637,-205,-258,-5074,185,299,-343
2,4853804,-1851,462,-2641,-213,-257,-5079,185,299,-343
2,4853817,-1851,462,-2641,-213,-257,-5079,185,299,-343
2,4853833,-1855,459,-2638,-204,-254,-5082,185,299,-343
2,4853848,-1852,471,-2639,-206,-254,-5081,185,299,-343
2,4853862,-1858,445,-2648,-203,-261,-5070,185,299,-343
2,4853875,-1858,445,-2648,-203,-261,-5070,185,299,-343
2,4853889,-1856,454,-2645,-204,-254,-5072,176,290,-336
2,4853902,-1855,442,-2647,-200,-261,-5073,176,290,-336
2,4853916,-1855,442,-2647,-200,-261,-5073,176,290,-336
2,4853928,-1859,464,-2638,-200,-260,-5077,176,290,-336
2,4853943,-1859,443,-2637,-206,-263,-5076,176,290,-336
2,4853956,-1859,443,-2637,-206,-263,-5076,176,290,-336
2,4853970,-1857,450,-2634,-211,-256,-5077,176,290,-336
2,4853980,-1857,450,-2634,-211,-256,-5077,176,290,-336
2,4853995,-1859,444,-2642,-202,-253,-5070,176,290,-336
2,4854010,-1859,463,-2631,-204,-257,-5065,176,280,-338
2,4854025,-1860,455,-2642,-206,-259,-5071,176,280,-338
2,4854038,-1860,455,-2642,-206,-259,-5071,176,280,-338
2,4854052,-1857,453,-2640,-204,-254,-5077,176,280,-338
2,4854068,-1859,453,-2647,-209,-257,-5071,176,280,-338
2,4854083,-1864,479,-2646,-206,-260,-5064,176,280,-338
2,4854096,-1864,479,-2646,-206,-260,-5064,176,280,-338
2,4854110,-1863,478,-2641,-202,-258,-5063,176,280,-338
2,4854124,-1863,464,-2634,-206,-262,-5064,190,282,-344
2,4854138,-1863,464,-2634,-206,-262,-5064,190,282,-344
2,4854152,-1863,449,-2636,-208,-260,-5067,190,282,-344
2,4854164,-1863,476,-2640,-204,-257,-5073,190,282,-344
2,4854177,-1863,476,-2640,-204,-257,-5073,190,282,-344
2,4854192,-1860,478,-2636,-200,-259,-5070,190,282,-344
2,4854200,-1860,478,-2636,-200,-259,-5070,190,282,-344
2,4854210,-1866,482,-2643,-207,-258,-5065,190,282,-344
2,4854218,-1866,482,-2643,-207,-258,-5065,190,282,-344
2,4854227,-1858,465,-2641,-207,-257,-5071,190,282,-344
2,4854237,-1858,465,-2641,-207,-257,-5071,190,282,-344
2,4854246,-1863,492,-2637,-212,-251,-5073,195,279,-339
2,4854254,-1863,492,-2637,-212,-251,-5073,195,279,-339
2,4854263,-1861,493,-2636,-199,-254,-5071,195,279,-339
2,4854273,-1861,493,-2636,-199,-254,-5071,195,279,-339
2,4854282,-1862,500,-2642,-201,-256,-5061,195,279,-339
2,4854293,-1862,500,-2642,-201,-256,-5061,195,279,-339
2,4854302,-1865,476,-2638,-209,-261,-5068,195,279,-339
2,4854313,-1865,476,-2638,-209,-261,-5068,195,279,-339
2,4854324,-1863,477,-2638,-202,-257,-5068,195,279,-339
2,4854333,-1863,477,-2638,-202,-257,-5068,195,279,-339
2,4854340,-1863,477,-2638,-202,-257,-5068,195,279,-339
2,4854350,-1861,485,-2641,-195,-259,-5070,195,279,-339
2,4854360,-1861,485,-2641,-195,-259,-5070,195,279,-339
2,4854371,-1858,497,-2640,-201,-256,-5082,191,283,-343
2,4854379,-1858,497,-2640,-201,-256,-5082,191,283,-343
2,4854389,-1861,481,-2639,-207,-256,-5078,191,283,-343
2,4854403,-1857,494,-2641,-204,-258,-5073,191,283,-343
2,4854412,-1857,494,-2641,-204,-258,-5073,191,283,-343
2,4854423,-1863,493,-2644,-202,-263,-5069,191,283,-343
2,4854434,-1863,493,-2644,-202,-263,-5069,191,283,-343
2,4854445,-1859,515,-2639,-204,-256,-5069,191,283,-343
2,4854454,-1859,515,-2639,-204,-256,-5069,191,283,-343
2,4854464,-1860,491,-2641,-204,-259,-5075,191,283,-343
2,4854473,-1860,491,-2641,-204,-259,-5075,191,283,-343
2,4854487,-1859,494,-2642,-207,-257,-5075,191,283,-343
2,4854498,-1859,494,-2642,-207,-257,-5075,191,283,-343
2,4854506,-1860,490,-2639,-205,-264,-5079,183,269,-343
2,4854514,-1860,490,-2639,-205,-264,-5079,183,269,-343
2,4854523,-1853,494,-2631,-208,-265,-5084,183,269,-343
2,4854534,-1853,494,-2631,-208,-265,-5084,183,269,-343
2,4854543,-1858,478,-2637,-208,-268,-5081,183,269,-343
2,4854552,-1858,478,-2637,-208,-268,-5081,183,269,-343
2,4854560,-1858,478,-2637,-208,-268,-5081,183,269,-343
2,4854569,-1855,478,-2641,-207,-261,-5085,183,269,-343
2,4854578,-1855,478,-2641,-207,-261,-5085,183,269,-343
2,4854587,-1855,472,-2642,-197,-260,-5081,183,269,-343
2,4854596,-1855,472,-2642,-197,-260,-5081,183,269,-343
2,4854606,-1857,485,-2642,-208,-260,-5081,183,269,-343
2,4854615,-1857,485,-2642,-208,-260,-5081,183,269,-343
2,4854624,-1852,481,-2640,-207,-258,-5084,184,262,-334
2,4854633,-1852,481,-2640,-207,-258,-5084,184,262,-334
2,4854641,-1852,481,-2640,-207,-258,-5084,184,262,-334
2,4854651,-1853,473,-2641,-206,-258,-5086,184,262,-334
2,4854661,-1853,473,-2641,-206,-258,-5086,184,262,-334
2,4854670,-1858,475,-2636,-197,-255,-5085,184,262,-334
2,4854678,-1858,475,-2636,-197,-255,-5085,184,262,-334
2,4854687,-1856,482,-2642,-202,-254,-5087,184,262,-334
2,4854699,-1856,482,-2642,-202,-254,-5087,184,262,-334
2,4854707,-1859,472,-2638,-201,-260,-5084,184,262,-334
2,4854716,-1859,472,-2638,-201,-260,-5084,184,262,-334
2,4854725,-1856,457,-2640,-206,-259,-5082,184,262,-334
2,4854736,-1856,457,-2640,-206,-259,-5082,184,262,-334
2,4854746,-1853,442,-2636,-211,-265,-5081,182,262,-344
2,4854755,-1853,442,-2636,-211,-265,-5081,182,262,-344
2,4854764,-1856,474,-2637,-203,-261,-5084,182,262,-344
2,4854773,-1856,474,-2637,-203,-261,-5084,182,262,-344
2,4854782,-1851,469,-2636,-200,-265,-5084,182,262,-344
2,4854794,-1851,469,-2636,-200,-265,-5084,182,262,-344
2,4854804,-1851,451,-2637,-202,-261,-5082,182,262,-344
2,4854812,-1851,451,-2637,-202,-261,-5082,182,262,-344
2,4854823,-1855,450,-2644,-202,-264,-5083,182,262,-344
2,4854832,-1855,450,-2644,-202,-264,-5083,182,262,-344
2,4854841,-1855,450,-2644,-202,-264,-5083,182,262,-344
2,4854850,-1853,445,-2637,-197,-260,-5080,182,262,-344
2,4854859,-1853,445,-2637,-197,-260,-5080,182,262,-344
2,4854871,-1861,464,-2638,-194,-269,-5083,177,259,-343
2,4854880,-1861,464,-2638,-194,-269,-5083,177,259,-343
2,4854889,-1855,451,-2632,-203,-260,-5073,177,259,-343
2,4854898,-1855,451,-2632,-203,-260,-5073,177,259,-343
2,4854906,-1864,450,-2639,-207,-257,-5073,177,259,-343
2,4854917,-1864,450,-2639,-207,-257,-5073,177,259,-343
2,4854926,-1854,443,-2638,-207,-259,-5076,177,259,-343
2,4854937,-1854,443,-2638,-207,-259,-5076,177,259,-343
2,4854946,-1862,461,-2640,-205,-259,-5075,177,259,-343
2,4854956,-1862,461,-2640,-205,-259,-5075,177,259,-343
2,4854965,-1856,459,-2645,-206,-255,-5068,177,259,-343
2,4854972,-1856,459,-2645,-206,-255,-5068,177,259,-343
2,4854981,-1856,459,-2645,-206,-255,-5068,177,259,-343
2,4854991,-1855,462,-2637,-206,-255,-5065,181,253,-345
2,4855003,-1861,454,-2640,-202,-260,-5071,181,253,-345
2,4855013,-1861,454,-2640,-202,-260,-5071,181,253,-345
2,4855023,-1858,480,-2635,-201,-259,-5062,181,253,-345
2,4855032,-1858,480,-2635,-201,-259,-5062,181,253,-345
2,4855040,-1858,480,-2635,-201,-259,-5062,181,253,-345
2,4855050,-1863,471,-2640,-198,-259,-5063,181,253,-345
2,4855059,-1863,471,-2640,-198,-259,-5063,181,253,-345
2,4855069,-1860,467,-2634,-206,-256,-5060,181,253,-345
2,4855078,-1860,467,-2634,-206,-256,-5060,181,253,-345
2,4855091,-1865,452,-2636,-208,-263,-5061,181,253,-345
2,4855100,-1865,452,-2636,-208,-263,-5061,181,253,-345
2,4855109,-1864,482,-2639,-203,-264,-5073,181,253,-345
2,4855118,-1864,482,-2639,-203,-264,-5073,181,253,-345
2,4855128,-1864,479,-2633,-198,-262,-5072,181,243,-351
2,4855140,-1864,479,-2633,-198,-262,-5072,181,243,-351
2,4855148,-1862,486,-2642,-205,-266,-5062,181,243,-351
2,4855159,-1862,486,-2642,-205,-266,-5062,181,243,-351
2,4855171,-1862,469,-2636,-202,-261,-5068,181,243,-351
2,4855182,-1862,469,-2636,-202,-261,-5068,181,243,-351
2,4855191,-1864,508,-2642,-199,-265,-5063,181,243,-351
2,4855205,-1858,499,-2641,-199,-262,-5071,181,243,-351
2,4855219,-1858,499,-2641,-199,-262,-5071,181,243,-351
2,4855233,-1865,498,-2640,-208,-267,-5070,181,243,-351
2,4855246,-1864,470,-2638,-206,-250,-5067,170,232,-344
2,4855259,-1864,470,-2638,-206,-250,-5067,170,232,-344
2,4855272,-1862,487,-2632,-202,-256,-5067,170,232,-344
2,4855285,-1857,482,-2634,-197,-262,-5077,170,232,-344
2,4855299,-1857,482,-2634,-197,-262,-5077,170,232,-344
2,4855313,-1864,494,-2639,-202,-264,-5080,170,232,-344
2,4855327,-1854,473,-2637,-208,-255,-5074,170,232,-344
2,4855336,-1854,473,-2637,-208,-255,-5074,170,232,-344
2,4855350,-1858,494,-2639,-199,-260,-5075,170,232,-344
2,4855363,-1860,493,-2632,-198,-276,-5075,171,231,-359
2,4855377,-1860,493,-2632,-198,-276,-5075,171,231,-359
2,4855389,-1859,518,-2639,-201,-265,-5069,171,231,-359
2,4855403,-1859,518,-2639,-201,-265,-5069,171,231,-359
2,4855417,-1862,495,-2640,-206,-255,-5073,171,231,-359
2,4855434,-1857,494,-2635,-204,-257,-5075,171,231,-359
2,4855449,-1860,495,-2644,-206,-260,-5077,171,231,-359
2,4855462,-1860,495,-2644,-206,-260,-5077,171,231,-359
2,4855476,-1855,498,-2634,-198,-260,-5084,171,231,-359
2,4855490,-1861,475,-2638,-202,-252,-5082,163,227,-359
2,4855503,-1854,482,-2630,-207,-257,-5088,163,227,-359
2,4855518,-1854,482,-2630,-207,-257,-5088,163,227,-359
2,4855531,-1857,476,-2642,-202,-262,-5088,163,227,-359
2,4855546,-1857,487,-2636,-200,-263,-5079,163,227,-359
2,4855559,-1857,487,-2636,-200,-263,-5079,163,227,-359
2,4855571,-1858,478,-2644,-203,-261,-5078,163,227,-359
2,4855584,-1855,478,-2637,-206,-258,-5080,163,227,-359
2,4855599,-1855,478,-2637,-206,-258,-5080,163,227,-359
2,4855612,-1855,474,-2634,-205,-257,-5077,159,225,-357
2,4855624,-1858,483,-2636,-199,-259,-5077,159,225,-357
2,4855638,-1858,483,-2636,-199,-259,-5077,159,225,-357
2,4855653,-1855,473,-2643,-203,-264,-5081,159,225,-357
2,4855668,-1856,467,-2640,-203,-259,-5082,159,225,-357
2,4855685,-1852,443,-2636,-201,-256,-5085,159,225,-357
2,4855699,-1852,443,-2636,-201,-256,-5085,159,225,-357
2,4855710,-1857,474,-2637,-208,-259,-5079,159,225,-357
2,4855724,-1855,464,-2636,-202,-260,-5079,159,225,-357
2,4855737,-1855,464,-2636,-202,-260,-5079,159,225,-357
2,4855750,-1855,455,-2630,-199,-265,-5082,149,223,-353
2,4855763,-1854,445,-2639,-200,-263,-5080,149,223,-353
2,4855779,-1854,445,-2639,-200,-263,-5080,149,223,-353
2,4855790,-1853,456,-2633,-202,-261,-5076,149,223,-353
2,4855804,-1863,456,-2636,-204,-267,-5074,149,223,-353
2,4855818,-1863,456,-2636,-204,-267,-5074,149,223,-353
2,4855832,-1856,451,-2636,-200,-262,-5082,149,223,-353
2,4855846,-1860,449,-2638,-199,-263,-5077,149,223,-353
2,4855862,-1860,449,-2638,-199,-263,-5077,149,223,-353
2,4855877,-1855,445,-2633,-198,-263,-5076,144,210,-350
2,4855894,-1863,458,-2639,-200,-260,-5071,144,210,-350
2,4855907,-1858,458,-2637,-201,-259,-5070,144,210,-350
2,4855921,-1858,458,-2637,-201,-259,-5070,144,210,-350
2,4855934,-1859,463,-2639,-204,-259,-5072,144,210,-350
2,4855946,-1864,449,-2637,-202,-262,-5070,144,210,-350
2,4855961,-1864,449,-2637,-202,-262,-5070,144,210,-350
2,4855973,-1863,472,-2639,-205,-266,-5070,144,210,-350
2,4855987,-1867,480,-2634,-205,-260,-5069,139,207,-355
2,4856000,-1867,480,-2634,-205,-260,-5069,139,207,-355
2,4856013,-1862,464,-2634,-209,-254,-5065,139,207,-355
2,4856026,-1866,456,-2632,-203,-267,-5063,139,207,-355
2,4856039,-1866,456,-2632,-203,-267,-5063,139,207,-355
2,4856053,-1860,477,-2636,-200,-260,-5065,139,207,-355
2,4856069,-1862,478,-2631,-204,-256,-5062,139,207,-355
2,4856082,-1862,478,-2631,-204,-256,-5062,139,207,-355
2,4856095,-1862,482,-2641,-207,-255,-5071,139,207,-355
2,4856111,-1865,471,-2641,-206,-257,-5071,135,203,-371
2,4856125,-1863,493,-2634,-200,-247,-5066,135,203,-371
2,4856138,-1863,493,-2634,-200,-247,-5066,135,203,-371
2,4856153,-1866,502,-2637,-199,-255,-5068,135,203,-371
2,4856164,-1864,498,-2631,-206,-262,-5066,135,203,-371
2,4856176,-1864,498,-2631,-206,-262,-5066,135,203,-371
2,4856189,-1859,483,-2635,-207,-261,-5058,135,203,-371
2,4856203,-1859,483,-2635,-207,-261,-5058,135,203,-371
2,4856212,-1863,482,-2642,-204,-261,-5064,135,203,-371
2,4856221,-1863,482,-2642,-204,-261,-5064,135,203,-371
2,4856231,-1861,484,-2629,-199,-262,-5076,130,190,-368
2,4856241,-1861,484,-2629,-199,-262,-5076,130,190,-368
2,4856251,-1866,493,-2637,-203,-266,-5082,130,190,-368
2,4856262,-1866,493,-2637,-203,-266,-5082,130,190,-368
2,4856273,-1859,477,-2635,-210,-258,-5076,130,190,-368
2,4856283,-1859,477,-2635,-210,-258,-5076,130,190,-368
2,4856294,-1863,491,-2638,-202,-264,-5078,130,190,-368
2,4856304,-1861,493,-2631,-201,-261,-5077,130,190,-368
2,4856314,-1861,493,-2631,-201,-261,-5077,130,190,-368
2,4856324,-1863,509,-2638,-204,-268,-5071,130,190,-368
2,4856335,-1863,509,-2638,-204,-268,-5071,130,190,-368
2,4856347,-1863,497,-2635,-204,-260,-5074,130,190,-368
2,4856357,-1863,497,-2635,-204,-260,-5074,130,190,-368
2,4856369,-1856,493,-2637,-198,-266,-5072,127,193,-375
2,4856379,-1856,493,-2637,-198,-266,-5072,127,193,-375
2,4856389,-1866,495,-2633,-196,-265,-5070,127,193,-375
2,4856401,-1866,495,-2633,-196,-265,-5070,127,193,-375
2,4856411,-1858,499,-2629,-206,-267,-5077,127,193,-375
2,4856421,-1858,499,-2629,-206,-267,-5077,127,193,-375
2,4856431,-1862,479,-2638,-206,-262,-5078,127,193,-375
2,4856440,-1862,479,-2638,-206,-262,-5078,127,193,-375
2,4856451,-1855,478,-2640,-203,-265,-5086,127,193,-375
2,4856462,-1855,478,-2640,-203,-265,-5086,127,193,-375
2,4856473,-1853,472,-2636,-201,-259,-5080,127,193,-375
2,4856483,-1854,488,-2633,-201,-261,-5079,127,193,-375
2,4856493,-1854,488,-2633,-201,-261,-5079,125,191,-379
2,4856504,-1854,488,-2633,-201,-261,-5079,125,191,-379
2,4856515,-1858,482,-2635,-207,-260,-5079,125,191,-379
2,4856525,-1859,480,-2633,-206,-263,-5075,125,191,-379
2,4856536,-1859,480,-2633,-206,-263,-5075,125,191,-379
2,4856548,-1856,471,-2634,-208,-260,-5078,125,191,-379
2,4856558,-1856,471,-2634,-208,-260,-5078,125,191,-379
2,4856572,-1855,482,-2634,-207,-259,-5080,125,191,-379
2,4856587,-1854,476,-2637,-200,-264,-5085,125,191,-379
2,4856600,-1854,476,-2637,-200,-264,-5085,125,191,-379
2,4856614,-1855,471,-2636,-208,-263,-5089,120,192,-376
2,4856630,-1854,438,-2632,-202,-262,-5087,120,192,-376
2,4856643,-1854,438,-2632,-202,-262,-5087,120,192,-376
2,4856656,-1854,471,-2633,-198,-270,-5082,120,192,-376
2,4856670,-1853,461,-2634,-196,-265,-5082,120,192,-376
2,4856685,-1852,470,-2635,-200,-267,-5082,120,192,-376
2,4856698,-1852,470,-2635,-200,-267,-5082,120,192,-376
2,4856711,-1855,438,-2633,-208,-265,-5076,120,192,-376
2,4856724,-1858,459,-2635,-205,-261,-5076,120,192,-376
2,4856738,-1858,459,-2635,-205,-261,-5076,118,192,-370
2,4856752,-1857,448,-2633,-197,-262,-5075,118,192,-370
2,4856764,-1857,448,-2633,-197,-262,-5075,118,192,-370
2,4856773,-1857,461,-2632,-196,-268,-5073,118,192,-370
2,4856787,-1856,440,-2641,-206,-264,-5080,118,192,-370
2,4856802,-1856,440,-2641,-206,-264,-5080,118,192,-370
2,4856817,-1859,454,-2638,-205,-252,-5076,118,192,-370
2,4856833,-1862,449,-2636,-200,-249,-5069,118,192,-370
2,4856848,-1860,465,-2630,-197,-255,-5071,110,192,-374
2,4856861,-1860,465,-2630,-197,-255,-5071,110,192,-374
2,4856875,-1862,459,-2636,-208,-255,-5069,110,192,-374
2,4856889,-1859,458,-2632,-205,-260,-5070,110,192,-374
2,4856900,-1859,458,-2632,-205,-260,-5070,110,192,-374
2,4856913,-1863,452,-2639,-201,-266,-5075,110,192,-374
2,4856927,-1861,490,-2635,-200,-270,-5071,110,192,-374
2,4856940,-1861,490,-2635,-200,-270,-5071,110,192,-374
2,4856954,-1864,463,-2640,-194,-252,-5074,110,192,-374
2,4856963,-1864,463,-2640,-194,-252,-5074,110,192,-374
2,4856976,-1862,461,-2634,-196,-249,-5077,110,192,-374
2,4856989,-1863,456,-2643,-202,-250,-5073,110,192,-374
2,4857004,-1863,456,-2643,-202,-250,-5073,110,192,-374
2,4857012,-1868,480,-2632,-201,-255,-5072,110,192,-374
2,4857027,-1863,471,-2640,-205,-255,-5068,110,192,-374
2,4857042,-1863,471,-2640,-205,-255,-5068,110,192,-374
2,4857058,-1865,481,-2633,-213,-256,-5069,110,192,-374
2,4857070,-1863,475,-2638,-201,-251,-5073,110,192,-374
2,4857085,-1866,498,-2634,-201,-255,-5072,110,192,-374
2,4857100,-1866,498,-2634,-201,-255,-5072,110,192,-374
2,4857114,-1865,495,-2632,-203,-260,-5067,99,181,-379
2,4857128,-1862,493,-2638,-204,-253,-5066,99,181,-379
2,4857142,-1862,493,-2638,-204,-253,-5066,99,181,-379
2,4857156,-1862,472,-2635,-206,-259,-5058,99,181,-379
2,4857168,-1864,487,-2627,-202,-256,-5068,99,181,-379
2,4857183,-1864,487,-2627,-202,-256,-5068,99,181,-379
2,4857196,-1865,486,-2636,-201,-261,-5074,99,181,-379
2,4857209,-1863,487,-2638,-197,-265,-5076,99,181,-379
2,4857224,-1863,487,-2638,-197,-265,-5076,99,181,-379
2,4857238,-1860,479,-2636,-204,-266,-5066,98,196,-376
2,4857252,-1858,497,-2629,-207,-257,-5068,98,196,-376
2,4857264,-1858,497,-2629,-207,-257,-5068,98,196,-376
2,4857279,-1862,500,-2633,-205,-259,-5080,98,196,-376
2,4857294,-1859,509,-2639,-210,-256,-5070,98,196,-376
2,4857310,-1860,491,-2641,-210,-257,-5077,98,196,-376
2,4857324,-1860,491,-2641,-210,-257,-5077,98,196,-376
2,4857336,-1859,493,-2634,-203,-257,-5080,98,196,-376
2,4857351,-1859,495,-2632,-197,-254,-5074,91,183,-373
2,4857364,-1859,495,-2632,-197,-254,-5074,91,183,-373
2,4857378,-1854,490,-2629,-208,-263,-5081,91,183,-373
2,4857392,-1857,472,-2631,-206,-270,-5083,91,183,-373
2,4857404,-1857,472,-2631,-206,-270,-5083,91,183,-373
2,4857419,-1855,472,-2634,-203,-263,-5080,91,183,-373
2,4857432,-1857,480,-2636,-202,-257,-5082,91,183,-373
2,4857445,-1856,483,-2634,-200,-258,-5083,91,183,-373
2,4857458,-1856,483,-2634,-200,-258,-5083,91,183,-373
2,4857473,-1854,481,-2634,-206,-254,-5075,90,186,-374
2,4857487,-1857,472,-2631,-204,-261,-5081,90,186,-374
2,4857498,-1857,472,-2631,-204,-261,-5081,90,186,-374
2,4857513,-1853,480,-2634,-199,-259,-5086,90,186,-374
2,4857529,-1856,477,-2631,-200,-260,-5087,90,186,-374
2,4857544,-1856,477,-2631,-200,-260,-5087,90,186,-374
2,4857556,-1854,471,-2633,-202,-255,-5077,90,186,-374
2,4857569,-1855,439,-2635,-204,-259,-5081,90,186,-374
2,4857583,-1855,439,-2635,-204,-259,-5081,90,186,-374
2,4857596,-1857,458,-2642,-197,-259,-5082,96,190,-372
2,4857610,-1856,459,-2637,-196,-260,-5085,96,190,-372
2,4857623,-1856,459,-2637,-196,-260,-5085,96,190,-372
2,4857635,-1854,474,-2635,-201,-262,-5078,96,190,-372
2,4857649,-1855,438,-2637,-207,-253,-5083,96,190,-372
2,4857662,-1855,438,-2637,-207,-253,-5083,96,190,-372
2,4857674,-1853,451,-2647,-213,-262,-5081,96,190,-372
2,4857689,-1855,441,-2633,-204,-260,-5074,96,190,-372
2,4857704,-1855,441,-2633,-204,-260,-5074,96,190,-372
2,4857717,-1855,463,-2632,-201,-263,-5077,96,190,-372
2,4857732,-1857,441,-2635,-208,-257,-5082,74,194,-374
2,4857746,-1857,441,-2635,-208,-257,-5082,74,194,-374
2,4857761,-1857,441,-2635,-208,-257,-5082,74,194,-374
2,4857775,-1859,440,-2630,-212,-268,-5073,74,194,-374
2,4857786,-1857,464,-2635,-204,-267,-5071,74,194,-374
2,4857800,-1857,464,-2635,-204,-267,-5071,74,194,-374
2,4857814,-1863,451,-2647,-211,-263,-5074,74,194,-374
2,4857827,-1858,458,-2632,-208,-258,-5072,74,194,-374
2,4857840,-1858,458,-2632,-208,-258,-5072,74,194,-374
2,4857854,-1865,445,-2639,-198,-257,-5067,88,196,-368
2,4857867,-1862,463,-2634,-201,-261,-5072,88,196,-368
2,4857882,-1862,463,-2634,-201,-261,-5072,88,196,-368
2,4857894,-1868,483,-2641,-201,-257,-5067,88,196,-368
2,4857909,-1862,456,-2636,-208,-261,-5064,88,196,-368
2,4857919,-1862,456,-2636,-208,-261,-5064,88,196,-368
2,4857932,-1862,456,-2636,-208,-261,-5064,88,196,-368
2,4857947,-1866,459,-2636,-205,-255,-5063,88,196,-368
2,4857963,-1866,459,-2636,-205,-255,-5063,88,196,-368
2,4857975,-1865,480,-2628,-200,-259,-5063,73,195,-371
2,4857988,-1865,464,-2633,-204,-262,-5067,73,195,-371
2,4858001,-1865,464,-2633,-204,-262,-5067,73,195,-371
2,4858014,-1862,472,-2638,-212,-252,-5064,73,195,-371
2,4858029,-1867,476,-2642,-206,-252,-5065,73,195,-371
2,4858042,-1867,476,-2642,-206,-252,-5065,73,195,-371
2,4858055,-1860,488,-2632,-204,-260,-5073,73,195,-371
2,4858068,-1867,489,-2644,-204,-260,-5066,73,195,-371
2,4858082,-1867,489,-2644,-204,-260,-5066,73,195,-371
2,4858092,-1864,491,-2633,-202,-265,-5074,74,196,-368
2,4858104,-1864,491,-2633,-202,-265,-5074,74,196,-368
2,4858118,-1865,472,-2635,-206,-272,-5075,74,196,-368
2,4858133,-1861,483,-2638,-202,-266,-5073,74,196,-368
2,4858148,-1864,485,-2640,-206,-264,-5071,74,196,-368
2,4858165,-1864,485,-2640,-206,-264,-5071,74,196,-368
2,4858179,-1864,489,-2634,-202,-259,-5073,74,196,-368
2,4858192,-1861,488,-2634,-211,-268,-5072,74,196,-368
2,4858207,-1862,494,-2643,-208,-264,-5072,83,193,-369
2,4858220,-1862,494,-2643,-208,-264,-5072,83,193,-369
2,4858234,-1859,507,-2634,-208,-265,-5079,83,193,-369
2,4858248,-1863,500,-2636,-205,-261,-5081,83,193,-369
2,4858261,-1863,500,-2636,-205,-261,-5081,83,193,-369
2,4858272,-1857,493,-2638,-205,-264,-5087,83,193,-369
2,4858286,-1860,493,-2638,-204,-260,-5081,83,193,-369
2,4858299,-1860,493,-2638,-204,-260,-5081,83,193,-369
2,4858313,-1855,487,-2638,-200,-269,-5078,83,193,-369
2,4858327,-1855,487,-2638,-200,-269,-5078,83,193,-369
2,4858338,-1855,487,-2638,-200,-269,-5078,83,193,-369
2,4858349,-1855,481,-2629,-203,-265,-5079,70,204,-368
2,4858362,-1855,481,-2629,-203,-265,-5079,70,204,-368
2,4858378,-1855,472,-2634,-200,-265,-5084,70,204,-368
2,4858393,-1854,478,-2638,-200,-255,-5091,70,204,-368
2,4858407,-1854,479,-2642,-202,-262,-5081,70,204,-368
2,4858422,-1854,479,-2642,-202,-262,-5081,70,204,-368
2,4858435,-1859,478,-2638,-202,-261,-5075,70,204,-368
2,4858449,-1852,472,-2637,-211,-261,-5076,70,204,-368
2,4858462,-1852,472,-2637,-211,-261,-5076,70,204,-368
2,4858473,-1860,475,-2634,-202,-267,-5078,74,208,-370
2,4858486,-1852,473,-2633,-197,-260,-5079,74,208,-370
2,4858501,-1852,473,-2633,-197,-260,-5079,74,208,-370
2,4858514,-1857,457,-2634,-198,-261,-5081,74,208,-370
2,4858523,-1857,457,-2634,-198,-261,-5081,74,208,-370
2,4858535,-1852,446,-2631,-203,-260,-5074,74,208,-370
2,4858550,-1859,463,-2632,-202,-260,-5077,74,208,-370
2,4858563,-1859,463,-2632,-202,-260,-5077,74,208,-370
2,4858576,-1856,465,-2638,-201,-259,-5076,74,208,-370
2,4858590,-1858,445,-2635,-203,-261,-5081,68,212,-362
2,4858603,-1858,445,-2635,-203,-261,-5081,68,212,-362
2,4858618,-1857,445,-2644,-203,-260,-5078,68,212,-362
2,4858633,-1855,442,-2636,-203,-251,-5070,68,212,-362
2,4858646,-1863,455,-2638,-206,-260,-5068,68,212,-362
2,4858660,-1863,455,-2638,-206,-260,-5068,68,212,-362
2,4858676,-1857,439,-2636,-208,-260,-5075,68,212,-362
2,4858691,-1864,449,-2636,-203,-263,-5067,68,212,-362
2,4858705,-1864,449,-2636,-203,-263,-5067,68,212,-362
2,4858720,-1860,438,-2630,-202,-260,-5066,70,208,-368
2,4858733,-1862,457,-2638,-198,-258,-5072,70,208,-368
2,4858745,-1862,457,-2638,-198,-258,-5072,70,208,-368
2,4858759,-1861,452,-2641,-198,-269,-5077,70,208,-368
2,4858772,-1861,452,-2641,-198,-269,-5077,70,208,-368
2,4858785,-1861,452,-2641,-198,-269,-5077,70,208,-368
2,4858799,-1863,441,-2641,-198,-263,-5070,70,208,-368
2,4858813,-1862,465,-2641,-202,-269,-5065,70,208,-368
2,4858825,-1862,465,-2641,-202,-269,-5065,70,208,-368
2,4858838,-1865,481,-2638,-205,-261,-5065,67,221,-373
2,4858852,-1865,481,-2638,-205,-261,-5065,67,221,-373
2,4858864,-1865,481,-2638,-205,-261,-5065,67,221,-373
2,4858880,-1866,449,-2636,-208,-257,-5065,67,221,-373
2,4858894,-1861,466,-2638,-207,-266,-5068,67,221,-373
2,4858909,-1862,473,-2628,-199,-265,-5061,67,221,-373
2,4858923,-1862,473,-2628,-199,-265,-5061,67,221,-373
2,4858937,-1863,481,-2641,-204,-265,-5065,67,221,-373
2,4858952,-1861,470,-2646,-205,-263,-5076,67,221,-373
2,4858967,-1864,486,-2638,-204,-269,-5070,58,220,-374
2,4858979,-1864,486,-2638,-204,-269,-5070,58,220,-374
2,4858992,-1866,494,-2638,-198,-269,-5070,58,220,-374
2,4859005,-1866,494,-2638,-198,-269,-5070,58,220,-374
2,4859019,-1865,498,-2637,-203,-257,-5072,58,220,-374
2,4859033,-1864,483,-2640,-203,-261,-5070,58,220,-374
2,4859048,-1862,473,-2637,-205,-260,-5061,58,220,-374
2,4859060,-1862,473,-2637,-205,-260,-5061,58,220,-374
2,4859073,-1859,482,-2636,-196,-265,-5069,58,220,-374
2,4859086,-1862,497,-2639,-204,-257,-5075,58,220,-374
2,4859100,-1862,497,-2639,-204,-257,-5075,74,220,-362
2,4859114,-1861,485,-2642,-204,-264,-5070,74,220,-362
2,4859128,-1859,492,-2643,-207,-265,-5070,74,220,-362
2,4859144,-1859,492,-2643,-207,-265,-5070,74,220,-362
2,4859159,-1862,493,-2636,-203,-254,-5070,74,220,-362
2,4859172,-1860,508,-2642,-204,-266,-5072,74,220,-362
2,4859187,-1862,502,-2642,-210,-259,-5072,74,220,-362
2,4859201,-1862,502,-2642,-210,-259,-5072,74,220,-362
2,4859213,-1852,491,-2632,-208,-263,-5079,67,233,-373
2,4859227,-1852,491,-2632,-208,-263,-5079,67,233,-373
2,4859242,-1864,490,-2639,-202,-266,-5080,67,233,-373
2,4859255,-1856,494,-2640,-201,-267,-5080,67,233,-373
2,4859269,-1858,486,-2639,-202,-262,-5089,67,233,-373
2,4859282,-1858,486,-2639,-202,-262,-5089,67,233,-373
2,4859294,-1853,484,-2643,-205,-255,-5085,67,233,-373
2,4859308,-1855,471,-2648,-205,-261,-5091,67,233,-373
2,4859321,-1855,471,-2648,-205,-261,-5091,67,233,-373
2,4859334,-1852,485,-2642,-205,-252,-5083,79,235,-371
2,4859348,-1854,478,-2640,-198,-257,-5082,79,235,-371
2,4859363,-1854,478,-2640,-198,-257,-5082,79,235,-371
2,4859374,-1855,478,-2645,-207,-254,-5080,79,235,-371
2,4859388,-1857,468,-2638,-204,-253,-5080,79,235,-371
2,4859404,-1857,468,-2638,-204,-253,-5080,79,235,-371
2,4859418,-1857,477,-2639,-200,-255,-5082,79,235,-371
2,4859431,-1854,474,-2635,-198,-261,-5079,79,235,-371
2,4859446,-1854,474,-2635,-198,-261,-5079,79,235,-371
2,4859461,-1857,458,-2634,-201,-264,-5079,69,243,-367
2,4859474,-1851,441,-2639,-199,-262,-5084,69,243,-367
2,4859488,-1855,461,-2640,-202,-259,-5084,69,243,-367
2,4859502,-1855,461,-2640,-202,-259,-5084,69,243,-367
2,4859516,-1855,466,-2642,-205,-255,-5082,69,243,-367
2,4859529,-1854,449,-2642,-203,-267,-5074,69,243,-367
2,4859542,-1854,449,-2642,-203,-267,-5074,69,243,-367
2,4859557,-1854,443,-2647,-207,-263,-5078,69,243,-367
2,4859572,-1853,444,-2636,-203,-264,-5082,69,243,-367
2,4859587,-1864,455,-2631,-200,-262,-5081,69,243,-367
2,4859599,-1864,455,-2631,-200,-262,-5081,78,246,-370
2,4859615,-1856,447,-2634,-207,-267,-5074,78,246,-370
2,4859630,-1864,446,-2641,-203,-258,-5070,78,246,-370
2,4859645,-1864,446,-2641,-203,-258,-5070,78,246,-370
2,4859659,-1857,438,-2637,-201,-262,-5075,78,246,-370
2,4859672,-1860,455,-2640,-199,-261,-5073,78,246,-370
2,4859686,-1860,455,-2640,-199,-261,-5073,78,246,-370
2,4859701,-1860,456,-2641,-210,-268,-5071,78,246,-370
2,4859713,-1862,458,-2646,-206,-255,-5072,76,256,-374
2,4859726,-1862,458,-2646,-206,-255,-5072,76,256,-374
2,4859741,-1862,449,-2642,-201,-271,-5077,76,256,-374
2,4859754,-1863,464,-2633,-201,-265,-5067,76,256,-374
2,4859768,-1866,483,-2640,-202,-267,-5071,76,256,-374
2,4859783,-1866,483,-2640,-202,-267,-5071,76,256,-374
2,4859798,-1861,463,-2632,-207,-259,-5064,76,256,-374
2,4859813,-1866,455,-2636,-202,-263,-5065,76,256,-374
2,4859827,-1862,473,-2640,-194,-255,-5068,76,258,-382
2,4859841,-1862,473,-2640,-194,-255,-5068,76,258,-382
2,4859856,-1864,485,-2634,-202,-254,-5068,76,258,-382
2,4859872,-1862,486,-2644,-205,-262,-5064,76,258,-382
2,4859883,-1862,486,-2644,-205,-262,-5064,76,258,-382
2,4859897,-1859,471,-2648,-210,-264,-5071,76,258,-382
2,4859911,-1865,494,-2645,-204,-263,-5072,76,258,-382
2,4859925,-1865,494,-2645,-204,-263,-5072,76,258,-382
2,4859938,-1863,505,-2635,-198,-263,-5071,76,258,-382
2,4859952,-1865,498,-2645,-201,-267,-5062,71,269,-375
2,4859964,-1865,498,-2645,-201,-267,-5062,71,269,-375
2,4859977,-1861,481,-2638,-208,-263,-5076,71,269,-375
2,4859992,-1862,481,-2643,-209,-259,-5083,71,269,-375
2,4860004,-1862,481,-2643,-209,-259,-5083,71,269,-375
2,4860019,-1859,484,-2634,-197,-255,-5080,71,269,-375
2,4860035,-1866,494,-2644,-204,-261,-5076,71,269,-375
2,4860045,-1866,494,-2644,-204,-261,-5076,71,269,-375
2,4860060,-1856,477,-2642,-203,-252,-5074,71,269,-375
2,4860075,-1857,488,-2636,-200,-255,-5078,69,275,-379
2,4860090,-1859,489,-2638,-200,-264,-5069,69,275,-379
2,4860101,-1859,489,-2638,-200,-264,-5069,69,275,-379
2,4860114,-1858,512,-2645,-198,-261,-5063,69,275,-379
2,4860128,-1862,502,-2643,-205,-256,-5075,69,275,-379
2,4860141,-1862,502,-2643,-205,-256,-5075,69,275,-379
2,4860155,-1856,495,-2639,-205,-260,-5080,69,275,-379
2,4860170,-1860,494,-2644,-201,-265,-5076,69,275,-379
2,4860181,-1860,494,-2644,-201,-265,-5076,69,275,-379
2,4860195,-1855,499,-2642,-199,-263,-5087,69,275,-379
2,4860209,-1854,484,-2638,-203,-253,-5084,76,272,-380
2,4860222,-1854,484,-2638,-203,-253,-5084,76,272,-380
2,4860236,-1853,481,-2639,-208,-256,-5080,76,272,-380
2,4860252,-1852,472,-2644,-201,-263,-5079,76,272,-380
2,4860267,-1852,491,-2645,-201,-261,-5085,76,272,-380
2,4860282,-1852,491,-2645,-201,-261,-5085,76,272,-380
2,4860296,-1852,483,-2650,-210,-261,-5079,76,272,-380
2,4860307,-1852,483,-2650,-210,-261,-5079,76,272,-380
2,4860317,-1854,482,-2639,-215,-251,-5073,76,272,-380
2,4860332,-1856,476,-2643,-206,-255,-5082,81,291,-373
2,4860346,-1856,476,-2643,-206,-255,-5082,81,291,-373
2,4860359,-1853,483,-2635,-198,-262,-5078,81,291,-373
2,4860374,-1852,472,-2642,-201,-261,-5076,81,291,-373
2,4860388,-1854,474,-2641,-201,-265,-5069,81,291,-373
2,4860401,-1854,474,-2641,-201,-265,-5069,81,291,-373
2,4860413,-1855,440,-2637,-205,-259,-5077,81,291,-373
2,4860429,-1857,475,-2641,-203,-263,-5085,81,291,-373
2,4860442,-1857,475,-2641,-203,-263,-5085,81,291,-373
2,4860455,-1855,463,-2639,-205,-270,-5084,80,286,-378
2,4860471,-1855,463,-2639,-205,-270,-5084,80,286,-378
2,4860485,-1855,463,-2639,-205,-270,-5084,80,286,-378
2,4860500,-1854,438,-2647,-210,-257,-5078,80,286,-378
2,4860514,-1853,451,-2633,-203,-254,-5073,80,286,-378
2,4860528,-1859,449,-2640,-205,-262,-5077,80,286,-378
2,4860542,-1859,449,-2640,-205,-262,-5077,80,286,-378
2,4860557,-1852,458,-2634,-203,-259,-5073,80,286,-378
2,4860567,-1852,458,-2634,-203,-259,-5073,80,286,-378
2,4860581,-1860,446,-2641,-206,-258,-5074,93,299,-367
2,4860595,-1860,453,-2634,-201,-264,-5076,93,299,-367
2,4860603,-1860,453,-2634,-201,-264,-5076,93,299,-367
2,4860616,-1863,454,-2639,-201,-262,-5077,93,299,-367
2,4860631,-1858,458,-2641,-208,-261,-5076,93,299,-367
2,4860644,-1858,458,-2641,-208,-261,-5076,93,299,-367
2,4860658,-1857,462,-2648,-203,-262,-5076,93,299,-367
2,4860673,-1859,453,-2637,-204,-252,-5066,93,299,-367
2,4860684,-1859,453,-2637,-204,-252,-5066,93,299,-367
2,4860697,-1860,461,-2646,-203,-267,-5067,108,306,-366
2,4860712,-1865,489,-2639,-201,-260,-5068,108,306,-366
2,4860726,-1865,489,-2639,-201,-260,-5068,108,306,-366
2,4860740,-1860,465,-2633,-198,-258,-5067,108,306,-366
2,4860755,-1865,463,-2636,-207,-264,-5060,108,306,-366
2,4860770,-1863,475,-2641,-202,-258,-5066,108,306,-366
2,4860785,-1863,475,-2641,-202,-258,-5066,108,306,-366
2,4860798,-1863,502,-2635,-199,-256,-5065,108,306,-366
2,4860813,-1864,593,-2646,-204,-258,-5064,108,306,-366
2,4860827,-1864,593,-2646,-204,-258,-5064,108,306,-366
2,4860838,-1861,555,-2628,-203,-259,-5067,109,311,-363
2,4860851,-1858,571,-2644,-209,-257,-5079,109,311,-363
2,4860864,-1858,571,-2644,-209,-257,-5079,109,311,-363
2,4860877,-1864,561,-2634,-207,-258,-5071,109,311,-363
2,4860892,-1859,618,-2633,-196,-259,-5078,109,311,-363
2,4860904,-1859,618,-2633,-196,-259,-5078,109,311,-363
2,4860916,-1860,599,-2640,-198,-261,-5095,109,311,-363
2,4860930,-1853,617,-2638,-210,-256,-5092,109,311,-363
2,4860944,-1853,617,-2638,-210,-256,-5092,109,311,-363
2,4860958,-1850,603,-2637,-201,-260,-5097,110,312,-356
2,4860974,-1850,603,-2637,-201,-260,-5097,110,312,-356
2,4860989,-1842,658,-2638,-196,-265,-5112,110,312,-356
2,4861004,-1842,658,-2638,-196,-265,-5112,110,312,-356
2,4861019,-1838,693,-2642,-212,-259,-5118,110,312,-356
2,4861032,-1835,687,-2648,-207,-247,-5121,110,312,-356
2,4861045,-1835,687,-2648,-207,-247,-5121,110,312,-356
2,4861061,-1829,720,-2635,-202,-262,-5133,110,312,-356
2,4861075,-1826,741,-2638,-202,-259,-5143,125,307,-353
2,4861087,-1826,741,-2638,-202,-259,-5143,125,307,-353
2,4861103,-1816,763,-2639,-209,-255,-5160,125,307,-353
2,4861116,-1812,752,-2642,-206,-256,-5171,125,307,-353
2,4861131,-1801,768,-2639,-203,-263,-5181,125,307,-353
2,4861145,-1801,768,-2639,-203,-263,-5181,125,307,-353
2,4861158,-1796,775,-2640,-197,-265,-5187,125,307,-353
2,4861173,-1784,802,-2639,-197,-262,-5195,125,307,-353
2,4861189,-1782,790,-2633,-203,-257,-5217,132,320,-366
2,4861204,-1782,790,-2633,-203,-257,-5217,132,320,-366
2,4861217,-1771,804,-2638,-205,-263,-5231,132,320,-366
2,4861232,-1766,818,-2642,-211,-264,-5235,132,320,-366
2,4861247,-1766,818,-2642,-211,-264,-5235,132,320,-366
2,4861259,-1753,848,-2634,-201,-262,-5258,132,320,-366
2,4861272,-1746,841,-2638,-204,-259,-5267,132,320,-366
2,4861286,-1746,841,-2638,-204,-259,-5267,132,320,-366
2,4861299,-1732,854,-2633,-218,-266,-5283,132,320,-366
2,4861313,-1725,855,-2630,-203,-262,-5301,130,320,-360
2,4861327,-1725,855,-2630,-203,-262,-5301,130,320,-360
2,4861338,-1718,880,-2632,-205,-264,-5315,130,320,-360
2,4861352,-1703,874,-2637,-206,-272,-5332,130,320,-360
2,4861367,-1703,874,-2637,-206,-272,-5332,130,320,-360
2,4861380,-1694,882,-2641,-206,-260,-5350,130,320,-360
2,4861394,-1682,876,-2642,-203,-259,-5362,130,320,-360
2,4861409,-1672,887,-2635,-204,-259,-5380,130,320,-360
2,4861424,-1672,887,-2635,-204,-259,-5380,130,320,-360
2,4861440,-1664,894,-2641,-206,-259,-5395,140,324,-360
2,4861454,-1649,898,-2638,-204,-265,-5421,140,324,-360
2,4861468,-1649,898,-2638,-204,-265,-5421,140,324,-360
2,4861481,-1641,888,-2640,-204,-259,-5431,140,324,-360
2,4861494,-1629,899,-2636,-213,-259,-5442,140,324,-360
2,4861504,-1629,899,-2636,-213,-259,-5442,140,324,-360
2,4861517,-1617,898,-2643,-203,-259,-5459,140,324,-360
2,4861531,-1603,896,-2637,-205,-265,-5479,140,324,-360
2,4861545,-1603,896,-2637,-205,-265,-5479,140,324,-360
2,4861554,-1590,869,-2640,-212,-268,-5501,140,324,-360
2,4861569,-1579,865,-2638,-209,-265,-5513,140,324,-360
2,4861582,-1579,865,-2638,-209,-265,-5513,145,323,-357
2,4861596,-1567,846,-2642,-208,-263,-5529,145,323,-357
2,4861611,-1556,839,-2637,-209,-269,-5536,145,323,-357
2,4861626,-1556,839,-2637,-209,-269,-5536,145,323,-357
2,4861641,-1548,819,-2639,-212,-273,-5556,145,323,-357
2,4861657,-1538,796,-2635,-212,-272,-5569,145,323,-357
2,4861670,-1528,784,-2638,-208,-265,-5577,145,323,-357
2,4861684,-1528,784,-2638,-208,-265,-5577,145,323,-357
2,4861699,-1519,770,-2632,-204,-262,-5585,150,318,-356
2,4861711,-1508,755,-2638,-213,-260,-5600,150,318,-356
2,4861722,-1508,755,-2638,-213,-260,-5600,150,318,-356
2,4861736,-1500,731,-2641,-207,-265,-5613,150,318,-356
2,4861750,-1493,706,-2635,-209,-269,-5630,150,318,-356
2,4861764,-1493,706,-2635,-209,-269,-5630,150,318,-356
2,4861777,-1485,692,-2638,-204,-268,-5638,150,318,-356
2,4861789,-1478,659,-2633,-204,-266,-5640,150,318,-356
2,4861803,-1478,659,-2633,-204,-266,-5640,150,318,-356
2,4861815,-1473,648,-2637,-209,-253,-5645,162,320,-362
2,4861829,-1467,622,-2635,-209,-255,-5656,162,320,-362
2,4861841,-1467,622,-2635,-209,-255,-5656,162,320,-362
2,4861854,-1465,607,-2639,-209,-262,-5657,162,320,-362
2,4861869,-1465,607,-2639,-209,-262,-5657,162,320,-362
2,4861883,-1461,599,-2635,-205,-260,-5660,162,320,-362
2,4861896,-1456,591,-2638,-208,-264,-5662,162,320,-362
2,4861907,-1456,591,-2638,-208,-264,-5662,162,320,-362
2,4861921,-1457,587,-2636,-208,-262,-5668,162,320,-362
2,4861935,-1453,580,-2634,-211,-264,-5665,158,316,-360
2,4861948,-1453,580,-2634,-211,-264,-5665,158,316,-360
2,4861963,-1452,576,-2639,-215,-258,-5667,158,316,-360
2,4861977,-1448,566,-2633,-206,-261,-5673,158,316,-360
2,4861988,-1448,566,-2633,-206,-261,-5673,158,316,-360
2,4862004,-1444,554,-2639,-210,-260,-5684,158,316,-360
2,4862017,-1443,539,-2635,-208,-259,-5685,158,316,-360
2,4862031,-1440,526,-2639,-204,-271,-5691,158,316,-360
2,4862046,-1440,526,-2639,-204,-271,-5691,158,316,-360
2,4862061,-1438,518,-2636,-203,-268,-5689,163,319,-365
2,4862073,-1438,507,-2634,-208,-265,-5684,163,319,-365
2,4862088,-1438,507,-2634,-208,-265,-5684,163,319,-365
2,4862100,-1441,496,-2638,-215,-270,-5689,163,319,-365
2,4862112,-1439,500,-2642,-212,-259,-5684,163,319,-365
2,4862126,-1439,500,-2642,-212,-259,-5684,163,319,-365
2,4862139,-1437,476,-2636,-202,-259,-5686,163,319,-365
2,4862147,-1437,476,-2636,-202,-259,-5686,163,319,-365
2,4862159,-1440,477,-2643,-207,-261,-5681,163,319,-365
2,4862174,-1437,485,-2640,-209,-261,-5676,163,319,-365
2,4862188,-1437,485,-2640,-209,-261,-5676,163,319,-365
2,4862201,-1437,497,-2638,-206,-260,-5684,168,314,-362
2,4862216,-1440,453,-2629,-211,-263,-5686,168,314,-362
2,4862230,-1438,434,-2643,-216,-264,-5679,168,314,-362
2,4862243,-1438,434,-2643,-216,-264,-5679,168,314,-362
2,4862256,-1440,398,-2634,-208,-263,-5676,168,314,-362
2,4862270,-1445,433,-2636,-203,-264,-5673,168,314,-362
2,4862280,-1445,433,-2636,-203,-264,-5673,168,314,-362
2,4862294,-1446,425,-2637,-204,-270,-5672,168,314,-362
2,4862307,-1446,425,-2637,-204,-270,-5672,168,314,-362
2,4862322,-1447,428,-2631,-212,-263,-5675,172,308,-352
2,4862337,-1451,425,-2644,-216,-262,-5677,172,308,-352
2,4862351,-1450,458,-2639,-210,-260,-5666,172,308,-352
2,4862365,-1450,458,-2639,-210,-260,-5666,172,308,-352
2,4862377,-1458,480,-2640,-205,-263,-5659,172,308,-352
2,4862393,-1454,481,-2640,-203,-259,-5661,172,308,-352
2,4862406,-1454,481,-2640,-203,-259,-5661,172,308,-352
2,4862419,-1457,475,-2642,-217,-253,-5659,172,308,-352
2,4862434,-1459,477,-2630,-199,-265,-5653,179,309,-347
2,4862447,-1459,477,-2630,-199,-265,-5653,179,309,-347
2,4862461,-1457,475,-2628,-201,-261,-5651,179,309,-347
2,4862474,-1460,481,-2634,-209,-253,-5653,179,309,-347
2,4862488,-1460,481,-2634,-209,-253,-5653,179,309,-347
2,4862498,-1462,514,-2636,-215,-257,-5655,179,309,-347
2,4862513,-1462,473,-2639,-211,-256,-5647,179,309,-347
2,4862526,-1462,473,-2639,-211,-256,-5647,179,309,-347
2,4862539,-1463,495,-2642,-209,-256,-5650,179,309,-347
2,4862555,-1463,483,-2641,-215,-256,-5648,181,309,-347
2,4862568,-1463,483,-2641,-215,-256,-5648,181,309,-347
2,4862581,-1461,521,-2638,-208,-260,-5645,181,309,-347
2,4862597,-1461,499,-2636,-204,-261,-5646,181,309,-347
2,4862611,-1461,540,-2637,-213,-265,-5641,181,309,-347
2,4862625,-1461,540,-2637,-213,-265,-5641,181,309,-347
2,4862639,-1465,533,-2640,-210,-257,-5643,181,309,-347
2,4862653,-1453,535,-2634,-203,-261,-5649,181,309,-347
2,4862664,-1453,535,-2634,-203,-261,-5649,181,309,-347
2,4862678,-1458,506,-2646,-195,-271,-5649,183,313,-351
2,4862692,-1457,529,-2636,-214,-262,-5646,183,313,-351
2,4862705,-1457,529,-2636,-214,-262,-5646,183,313,-351
2,4862720,-1458,527,-2636,-209,-264,-5651,183,313,-351
2,4862732,-1459,522,-2635,-206,-268,-5658,183,313,-351
2,4862743,-1459,522,-2635,-206,-268,-5658,183,313,-351
2,4862757,-1458,517,-2640,-209,-270,-5665,183,313,-351
2,4862771,-1456,530,-2638,-210,-259,-5661,183,313,-351
2,4862785,-1456,530,-2638,-210,-259,-5661,183,313,-351
2,4862799,-1454,525,-2636,-203,-260,-5660,183,313,-351
2,4862814,-1456,540,-2632,-207,-265,-5670,179,301,-339
2,4862828,-1456,540,-2632,-207,-265,-5670,179,301,-339
2,4862841,-1450,534,-2633,-212,-258,-5667,179,301,-339
2,4862856,-1454,538,-2639,-209,-250,-5665,179,301,-339
2,4862866,-1454,538,-2639,-209,-250,-5665,179,301,-339
2,4862875,-1449,513,-2637,-206,-255,-5668,179,301,-339
2,4862888,-1449,513,-2637,-206,-255,-5668,179,301,-339
2,4862903,-1451,524,-2644,-210,-264,-5658,179,301,-339
2,4862917,-1451,511,-2639,-209,-264,-5666,179,301,-339
2,4862930,-1447,508,-2623,-208,-264,-5667,183,301,-339
2,4862944,-1447,508,-2623,-208,-264,-5667,183,293,-333
2,4862959,-1450,497,-2635,-204,-263,-5669,183,293,-333
2,4862972,-1449,504,-2641,-205,-264,-5667,183,293,-333
2,4862986,-1449,504,-2641,-205,-264,-5667,183,293,-333
2,4863001,-1456,499,-2639,-204,-262,-5675,183,293,-333
2,4863016,-1445,501,-2633,-213,-266,-5672,183,293,-333
2,4863031,-1453,495,-2643,-210,-265,-5669,183,293,-333
2,4863045,-1453,495,-2643,-210,-265,-5669,183,293,-333
2,4863058,-1446,505,-2635,-204,-263,-5668,184,296,-340
2,4863069,-1446,505,-2635,-204,-263,-5668,184,296,-340
2,4863082,-1448,456,-2632,-207,-264,-5669,184,296,-340
2,4863097,-1446,492,-2642,-210,-271,-5671,184,296,-340
2,4863112,-1449,478,-2636,-199,-269,-5664,184,296,-340
2,4863125,-1449,478,-2636,-199,-269,-5664,184,296,-340
2,4863138,-1451,491,-2637,-206,-263,-5661,184,296,-340
2,4863152,-1448,459,-2643,-206,-265,-5666,184,296,-340
2,4863165,-1448,459,-2643,-206,-265,-5666,184,296,-340
2,4863177,-1454,473,-2628,-206,-265,-5665,183,293,-345
2,4863192,-1454,472,-2638,-196,-262,-5670,183,293,-345
2,4863205,-1454,472,-2638,-196,-262,-5670,183,293,-345
2,4863219,-1453,476,-2632,-203,-265,-5668,183,293,-345
2,4863234,-1456,472,-2642,-210,-260,-5664,183,293,-345
2,4863245,-1456,472,-2642,-210,-260,-5664,183,293,-345
2,4863260,-1451,475,-2635,-216,-262,-5661,183,293,-345
2,4863275,-1454,478,-2637,-208,-267,-5664,183,293,-345
2,4863287,-1454,478,-2637,-208,-267,-5664,183,293,-345
2,4863301,-1456,478,-2636,-210,-260,-5663,188,288,-336
2,4863315,-1459,483,-2635,-213,-255,-5659,188,288,-336
2,4863330,-1459,483,-2635,-213,-255,-5659,188,288,-336
2,4863343,-1458,480,-2640,-206,-264,-5655,188,288,-336
2,4863351,-1459,492,-2636,-209,-269,-5658,188,288,-336
2,4863365,-1459,492,-2636,-209,-269,-5658,188,288,-336
2,4863378,-1460,483,-2635,-209,-266,-5657,188,288,-336
2,4863392,-1460,488,-2632,-208,-262,-5657,188,288,-336
2,4863407,-1460,488,-2632,-208,-262,-5657,188,288,-336
2,4863420,-1461,486,-2642,-212,-263,-5657,188,288,-336
2,4863436,-1460,495,-2632,-209,-270,-5652,187,283,-335
2,4863450,-1460,495,-2632,-209,-270,-5652,187,283,-335
2,4863464,-1461,498,-2643,-205,-258,-5651,187,283,-335
2,4863478,-1458,503,-2639,-212,-256,-5655,187,283,-335
2,4863493,-1459,496,-2639,-207,-263,-5650,187,283,-335
2,4863505,-1459,496,-2639,-207,-263,-5650,187,283,-335
2,4863518,-1459,502,-2640,-209,-263,-5655,187,283,-335
2,4863534,-1464,508,-2639,-207,-259,-5651,187,283,-335
2,4863548,-1464,508,-2639,-207,-259,-5651,187,283,-335
2,4863562,-1461,514,-2627,-210,-265,-5658,188,270,-342
2,4863576,-1457,504,-2633,-207,-266,-5657,188,270,-342
2,4863590,-1457,504,-2633,-207,-266,-5657,188,270,-342
2,4863604,-1461,514,-2639,-208,-270,-5660,188,270,-342
2,4863614,-1459,526,-2632,-205,-251,-5659,188,270,-342
2,4863628,-1459,526,-2632,-205,-251,-5659,188,270,-342
2,4863641,-1457,532,-2643,-210,-261,-5659,188,270,-342
2,4863655,-1458,528,-2641,-211,-272,-5662,188,270,-342
2,4863669,-1458,528,-2641,-211,-272,-5662,188,270,-342
2,4863680,-1455,525,-2641,-208,-259,-5663,184,274,-334
2,4863694,-1458,534,-2636,-202,-262,-5664,184,274,-334
2,4863710,-1458,534,-2636,-202,-262,-5664,184,274,-334
2,4863723,-1455,521,-2638,-200,-266,-5664,184,274,-334
2,4863737,-1453,524,-2636,-211,-273,-5672,184,274,-334
2,4863753,-1452,511,-2638,-211,-261,-5671,184,274,-334
2,4863767,-1452,511,-2638,-211,-261,-5671,184,274,-334
2,4863780,-1452,511,-2636,-204,-261,-5659,184,274,-334
2,4863794,-1452,509,-2632,-210,-260,-5663,191,267,-349
2,4863808,-1452,509,-2632,-210,-260,-5663,191,267,-349
2,4863819,-1451,507,-2641,-204,-254,-5670,191,267,-349
2,4863838,-1452,506,-2640,-209,-260,-5674,191,267,-349
2,4863849,-1452,506,-2640,-209,-260,-5674,191,267,-349
2,4863862,-1449,502,-2635,-210,-264,-5669,191,267,-349
2,4863876,-1448,500,-2636,-209,-266,-5666,191,267,-349
2,4863890,-1448,500,-2636,-209,-266,-5666,191,267,-349
2,4863899,-1453,502,-2637,-213,-260,-5667,191,267,-349
2,4863913,-1452,492,-2638,-206,-254,-5662,189,259,-335
2,4863929,-1452,492,-2638,-206,-254,-5662,189,259,-335
2,4863942,-1454,479,-2636,-207,-260,-5665,189,259,-335
2,4863956,-1450,462,-2635,-212,-255,-5666,189,259,-335
2,4863971,-1450,490,-2632,-210,-260,-5665,189,259,-335
2,4863986,-1450,490,-2632,-210,-260,-5665,189,259,-335
2,4864001,-1449,484,-2639,-203,-256,-5670,189,259,-335
2,4864014,-1452,472,-2637,-209,-255,-5663,189,259,-335
2,4864028,-1452,472,-2637,-209,-255,-5663,189,259,-335
2,4864040,-1453,477,-2644,-210,-257,-5661,189,259,-335
2,4864052,-1452,480,-2631,-209,-258,-5666,183,259,-347
2,4864066,-1452,480,-2631,-209,-258,-5666,183,259,-347
2,4864079,-1458,489,-2638,-201,-270,-5667,183,259,-347
2,4864093,-1453,472,-2632,-209,-258,-5657,183,259,-347
2,4864105,-1453,472,-2632,-209,-258,-5657,183,259,-347
2,4864116,-1461,481,-2636,-205,-256,-5660,183,259,-347
2,4864130,-1461,481,-2636,-205,-256,-5660,183,259,-347
2,4864143,-1447,468,-2628,-205,-259,-5658,183,259,-347
2,4864158,-1459,481,-2638,-203,-270,-5659,183,259,-347
2,4864173,-1457,480,-2634,-206,-270,-5658,192,256,-352
2,4864185,-1457,480,-2634,-206,-270,-5658,192,256,-352
2,4864199,-1459,487,-2641,-212,-259,-5661,192,256,-352
2,4864214,-1453,486,-2644,-204,-263,-5660,192,256,-352
2,4864229,-1453,486,-2644,-204,-263,-5660,192,256,-352
2,4864241,-1457,486,-2641,-210,-269,-5658,192,256,-352
2,4864254,-1460,487,-2641,-216,-263,-5655,192,256,-352
2,4864268,-1460,487,-2641,-216,-263,-5655,192,256,-352
2,4864281,-1454,493,-2639,-208,-267,-5650,192,256,-352
2,4864294,-1460,481,-2635,-202,-268,-5654,175,243,-345
2,4864308,-1460,481,-2635,-202,-268,-5654,175,243,-345
2,4864321,-1456,495,-2638,-202,-268,-5656,175,243,-345
2,4864333,-1461,491,-2636,-211,-263,-5654,175,243,-345
2,4864348,-1461,491,-2636,-211,-263,-5654,175,243,-345
2,4864361,-1456,494,-2640,-213,-260,-5645,175,243,-345
2,4864375,-1461,489,-2641,-206,-263,-5657,175,243,-345
2,4864387,-1461,489,-2641,-206,-263,-5657,175,243,-345
2,4864400,-1458,502,-2643,-204,-256,-5652,175,243,-345
2,4864415,-1463,499,-2640,-214,-260,-5658,168,244,-346
2,4864431,-1463,499,-2640,-214,-260,-5658,168,244,-346
2,4864445,-1459,505,-2636,-212,-261,-5657,168,244,-346
2,4864458,-1460,503,-2644,-208,-261,-5651,168,244,-346
2,4864473,-1461,533,-2637,-208,-264,-5645,168,244,-346
2,4864488,-1461,533,-2637,-208,-264,-5645,168,244,-346
2,4864501,-1458,527,-2645,-202,-274,-5641,168,244,-346
2,4864515,-1459,523,-2638,-206,-256,-5655,168,244,-346
2,4864529,-1459,523,-2638,-206,-256,-5655,168,244,-346
2,4864542,-1459,526,-2643,-206,-257,-5650,167,245,-345
2,4864557,-1459,535,-2634,-199,-259,-5658,167,245,-345
2,4864570,-1459,535,-2634,-199,-259,-5658,167,245,-345
2,4864583,-1456,520,-2643,-198,-267,-5662,167,245,-345
2,4864596,-1456,516,-2646,-214,-261,-5663,167,245,-345
2,4864611,-1456,516,-2646,-214,-261,-5663,167,245,-345
2,4864618,-1454,505,-2645,-209,-263,-5662,167,245,-345
2,4864632,-1455,519,-2638,-209,-264,-5658,167,245,-345
2,4864646,-1455,519,-2638,-209,-264,-5658,167,245,-345
2,4864661,-1456,514,-2644,-205,-259,-5657,167,245,-345
2,4864676,-1452,508,-2637,-206,-267,-5662,157,231,-353
2,4864692,-1452,504,-2644,-209,-259,-5664,157,231,-353
2,4864707,-1452,504,-2644,-209,-259,-5664,157,231,-353
2,4864721,-1454,501,-2644,-208,-265,-5661,157,231,-353
2,4864735,-1453,502,-2646,-206,-261,-5668,157,231,-353
2,4864749,-1453,502,-2646,-206,-261,-5668,157,231,-353
2,4864763,-1449,502,-2640,-206,-256,-5666,157,231,-353
2,4864778,-1447,493,-2647,-205,-265,-5669,157,231,-353
2,4864793,-1451,482,-2640,-198,-258,-5674,148,228,-362
2,4864805,-1451,482,-2640,-198,-258,-5674,148,228,-362
2,4864820,-1452,462,-2645,-209,-265,-5673,148,228,-362
2,4864833,-1457,498,-2638,-215,-265,-5666,148,228,-362
2,4864846,-1457,498,-2638,-215,-265,-5666,148,228,-362
2,4864862,-1449,487,-2640,-214,-263,-5659,148,228,-362
2,4864877,-1456,470,-2631,-212,-263,-5658,148,228,-362
2,4864890,-1456,470,-2631,-212,-263,-5658,148,228,-362
2,4864904,-1450,477,-2645,-221,-259,-5658,148,228,-362
2,4864919,-1454,482,-2632,-214,-260,-5659,154,214,-360
2,4864934,-1452,492,-2638,-206,-263,-5653,154,214,-360
2,4864950,-1452,492,-2638,-206,-263,-5653,154,214,-360
2,4864963,-1452,478,-2638,-209,-258,-5660,154,214,-360
2,4864975,-1451,493,-2645,-213,-264,-5657,154,214,-360
2,4864989,-1451,493,-2645,-213,-264,-5657,154,214,-360
2,4865002,-1452,475,-2643,-204,-267,-5664,154,214,-360
2,4865016,-1456,492,-2640,-204,-263,-5659,154,214,-360
2,4865031,-1456,492,-2640,-204,-263,-5659,154,214,-360
2,4865042,-1458,481,-2638,-206,-257,-5662,147,211,-361
2,4865054,-1457,494,-2634,-209,-258,-5654,147,211,-361
2,4865068,-1457,494,-2634,-209,-258,-5654,147,211,-361
2,4865081,-1455,472,-2644,-206,-269,-5650,147,211,-361
2,4865096,-1458,493,-2642,-210,-271,-5656,147,211,-361
2,4865112,-1458,493,-2642,-210,-271,-5656,147,211,-361
2,4865125,-1460,482,-2650,-205,-267,-5653,147,211,-361
2,4865138,-1455,501,-2643,-209,-262,-5651,147,211,-361
2,4865154,-1459,485,-2643,-210,-263,-5654,137,207,-361
2,4865169,-1459,485,-2643,-210,-263,-5654,137,207,-361
2,4865182,-1458,499,-2636,-206,-259,-5652,137,207,-361
2,4865195,-1462,491,-2642,-208,-256,-5649,137,207,-361
2,4865208,-1462,491,-2642,-208,-256,-5649,137,207,-361
2,4865222,-1460,499,-2636,-211,-256,-5652,137,207,-361
2,4865235,-1465,487,-2637,-211,-260,-5658,137,207,-361
2,4865249,-1465,487,-2637,-211,-260,-5658,137,207,-361
2,4865262,-1456,503,-2644,-212,-263,-5660,137,207,-361
2,4865274,-1457,495,-2644,-207,-261,-5653,137,207,-361
2,4865289,-1457,495,-2644,-207,-261,-5653,137,207,-361
2,4865302,-1460,505,-2637,-208,-263,-5650,136,212,-358
2,4865315,-1459,507,-2643,-201,-259,-5653,136,212,-358
2,4865331,-1459,507,-2643,-201,-259,-5653,136,212,-358
2,4865346,-1458,546,-2644,-213,-263,-5656,136,212,-358
2,4865361,-1456,530,-2645,-204,-266,-5648,136,212,-358
2,4865377,-1459,526,-2639,-208,-270,-5649,136,212,-358
2,4865392,-1459,526,-2639,-208,-270,-5649,136,212,-358
2,4865405,-1458,528,-2645,-210,-262,-5661,136,212,-358
2,4865419,-1458,524,-2635,-214,-261,-5665,135,199,-369
2,4865433,-1457,521,-2639,-207,-262,-5669,135,199,-369
2,4865447,-1457,521,-2639,-207,-262,-5669,135,199,-369
2,4865461,-1456,507,-2644,-200,-269,-5673,135,199,-369
2,4865474,-1448,515,-2638,-205,-265,-5670,135,199,-369
2,4865487,-1448,515,-2638,-205,-265,-5670,135,199,-369
2,4865502,-1453,511,-2641,-203,-264,-5673,135,199,-369
2,4865515,-1453,515,-2646,-208,-269,-5670,135,199,-369
2,4865528,-1453,515,-2646,-208,-269,-5670,135,199,-369
2,4865541,-1451,517,-2643,-211,-270,-5661,127,195,-365
2,4865556,-1451,506,-2637,-211,-265,-5668,127,195,-365
2,4865566,-1451,506,-2637,-211,-265,-5668,127,195,-365
2,4865581,-1447,504,-2647,-206,-265,-5666,127,195,-365
2,4865596,-1453,502,-2643,-206,-269,-5669,127,195,-365
2,4865610,-1453,502,-2643,-206,-269,-5669,127,195,-365
2,4865625,-1450,498,-2638,-213,-257,-5671,127,195,-365
2,4865638,-1451,495,-2644,-205,-261,-5667,127,195,-365
2,4865652,-1451,495,-2644,-205,-261,-5667,127,195,-365
2,4865665,-1443,455,-2637,-203,-264,-5667,116,186,-368
2,4865680,-1453,489,-2641,-209,-266,-5671,116,186,-368
2,4865696,-1450,480,-2637,-209,-272,-5667,116,186,-368
2,4865710,-1450,480,-2637,-209,-272,-5667,116,186,-368
2,4865724,-1450,501,-2647,-207,-266,-5663,116,186,-368
2,4865737,-1449,462,-2644,-208,-270,-5663,116,186,-368
2,4865751,-1449,462,-2644,-208,-270,-5663,116,186,-368
2,4865766,-1453,493,-2643,-207,-265,-5660,116,186,-368
2,4865781,-1452,481,-2639,-206,-276,-5659,114,190,-372
2,4865795,-1454,497,-2636,-211,-263,-5660,114,190,-372
2,4865808,-1454,497,-2636,-211,-263,-5660,114,190,-372
2,4865823,-1454,473,-2644,-209,-262,-5660,114,190,-372
2,4865837,-1449,491,-2640,-212,-259,-5652,114,190,-372
2,4865850,-1449,491,-2640,-212,-259,-5652,114,190,-372
2,4865863,-1453,480,-2642,-199,-266,-5662,114,190,-372
2,4865876,-1454,486,-2639,-195,-269,-5657,114,190,-372
2,4865890,-1454,486,-2639,-195,-269,-5657,114,190,-372
2,4865904,-1457,492,-2650,-204,-264,-5657,114,190,-372
2,4865917,-1452,493,-2635,-209,-258,-5659,114,190,-372
2,4865932,-1452,493,-2635,-209,-258,-5659,114,190,-372
2,4865944,-1457,481,-2642,-209,-259,-5658,114,190,-372
2,4865958,-1456,494,-2636,-210,-265,-5657,114,190,-372
2,4865972,-1456,494,-2636,-210,-265,-5657,114,190,-372
2,4865986,-1459,499,-2643,-213,-270,-5659,114,190,-372
2,4866000,-1456,489,-2639,-202,-270,-5659,114,190,-372
2,4866016,-1456,486,-2642,-209,-271,-5653,114,190,-372
2,4866030,-1456,486,-2642,-209,-271,-5653,114,190,-372
2,4866045,-1457,493,-2641,-207,-252,-5657,102,192,-374
2,4866059,-1453,500,-2640,-209,-259,-5653,102,192,-374
2,4866071,-1453,500,-2640,-209,-259,-5653,102,192,-374
2,4866083,-1453,492,-2641,-206,-271,-5659,102,192,-374
2,4866097,-1456,497,-2644,-214,-263,-5658,102,192,-374
2,4866110,-1456,497,-2644,-214,-263,-5658,102,192,-374
2,4866123,-1459,500,-2644,-212,-262,-5653,102,192,-374
2,4866138,-1458,510,-2640,-211,-267,-5652,102,192,-374
2,4866152,-1458,510,-2640,-211,-267,-5652,102,192,-374
2,4866165,-1459,510,-2640,-206,-261,-5653,101,187,-381
2,4866178,-1458,542,-2642,-205,-265,-5656,101,187,-381
2,4866191,-1458,542,-2642,-205,-265,-5656,101,187,-381
2,4866199,-1455,529,-2636,-205,-261,-5653,101,187,-381
2,4866210,-1455,529,-2636,-205,-261,-5653,101,187,-381
2,4866226,-1456,526,-2641,-209,-256,-5651,101,187,-381
2,4866238,-1455,526,-2647,-213,-255,-5654,101,187,-381
2,4866252,-1455,526,-2647,-213,-255,-5654,101,187,-381
2,4866267,-1453,529,-2643,-209,-260,-5657,101,187,-381
2,4866280,-1451,520,-2644,-206,-268,-5666,94,186,-384
2,4866293,-1455,524,-2640,-215,-265,-5666,94,186,-384
2,4866309,-1455,524,-2640,-215,-265,-5666,94,186,-384
2,4866323,-1454,512,-2636,-208,-264,-5663,94,186,-384
2,4866335,-1452,525,-2638,-205,-267,-5662,94,186,-384
2,4866349,-1452,525,-2638,-205,-267,-5662,94,186,-384
2,4866363,-1451,508,-2645,-201,-263,-5665,94,186,-384
2,4866374,-1453,516,-2641,-213,-262,-5672,94,186,-384
2,4866390,-1453,516,-2641,-213,-262,-5672,94,186,-384
2,4866404,-1450,503,-2637,-210,-267,-5673,90,184,-376
2,4866416,-1446,504,-2641,-211,-264,-5665,90,184,-376
2,4866429,-1446,504,-2641,-211,-264,-5665,90,184,-376
2,4866443,-1452,502,-2647,-209,-259,-5676,90,184,-376
2,4866456,-1447,505,-2642,-215,-261,-5670,90,184,-376
2,4866469,-1447,505,-2642,-215,-261,-5670,90,184,-376
2,4866483,-1450,507,-2644,-207,-262,-5666,90,184,-376
2,4866495,-1445,455,-2635,-209,-261,-5665,90,184,-376
2,4866510,-1445,455,-2635,-209,-261,-5665,90,184,-376
2,4866524,-1452,494,-2649,-212,-261,-5670,89,183,-367
2,4866537,-1449,484,-2629,-195,-256,-5666,89,183,-367
2,4866552,-1449,484,-2629,-195,-256,-5666,89,183,-367
2,4866568,-1449,498,-2637,-205,-266,-5669,89,183,-367
2,4866583,-1449,466,-2646,-211,-265,-5668,89,183,-367
2,4866596,-1449,492,-2641,-215,-256,-5657,89,183,-367
2,4866610,-1449,492,-2641,-215,-256,-5657,89,183,-367
2,4866624,-1453,485,-2644,-206,-255,-5662,89,183,-367
2,4866637,-1448,500,-2635,-204,-257,-5663,89,183,-367
2,4866652,-1448,500,-2635,-204,-257,-5663,89,183,-367
2,4866667,-1454,477,-2642,-215,-254,-5666,71,193,-367
2,4866680,-1447,491,-2636,-209,-252,-5661,71,193,-367
2,4866694,-1455,479,-2646,-207,-259,-5661,71,193,-367
2,4866707,-1455,479,-2646,-207,-259,-5661,71,193,-367
2,4866721,-1452,489,-2639,-200,-266,-5664,71,193,-367
2,4866736,-1454,484,-2642,-215,-250,-5659,71,193,-367
2,4866749,-1454,484,-2642,-215,-250,-5659,71,193,-367
2,4866763,-1451,492,-2636,-215,-256,-5660,71,193,-367
2,4866777,-1456,485,-2643,-211,-262,-5658,79,189,-361
2,4866793,-1456,485,-2643,-211,-262,-5658,79,189,-361
2,4866807,-1454,494,-2641,-208,-262,-5655,79,189,-361
2,4866819,-1456,493,-2638,-214,-255,-5655,79,189,-361
2,4866834,-1452,493,-2641,-213,-247,-5656,79,189,-361
2,4866847,-1452,493,-2641,-213,-247,-5656,79,189,-361
2,4866861,-1455,492,-2640,-204,-260,-5652,79,189,-361
2,4866875,-1456,501,-2642,-207,-259,-5652,79,189,-361
2,4866889,-1456,501,-2642,-207,-259,-5652,79,189,-361
2,4866902,-1456,494,-2638,-206,-255,-5652,85,199,-365
2,4866915,-1458,495,-2642,-210,-267,-5651,85,199,-365
2,4866928,-1458,495,-2642,-210,-267,-5651,85,199,-365
2,4866941,-1457,488,-2641,-210,-255,-5655,85,199,-365
2,4866957,-1456,499,-2641,-204,-256,-5657,85,199,-365
2,4866972,-1456,499,-2641,-204,-256,-5657,85,199,-365
2,4866988,-1459,498,-2642,-203,-259,-5662,85,199,-365
2,4867003,-1456,502,-2638,-209,-257,-5656,85,199,-365
2,4867017,-1459,505,-2638,-210,-253,-5660,72,194,-368
2,4867032,-1459,505,-2638,-210,-253,-5660,72,194,-368
2,4867045,-1456,522,-2636,-206,-251,-5660,72,194,-368
2,4867056,-1463,554,-2641,-205,-254,-5655,72,194,-368
2,4867068,-1463,554,-2641,-205,-254,-5655,72,194,-368
2,4867082,-1452,532,-2639,-208,-265,-5656,72,194,-368
2,4867096,-1459,524,-2641,-214,-255,-5660,72,194,-368
2,4867110,-1459,524,-2641,-214,-255,-5660,72,194,-368
2,4867124,-1452,517,-2642,-216,-253,-5663,72,194,-368
2,4867139,-1462,536,-2638,-203,-255,-5663,74,204,-362
2,4867150,-1462,536,-2638,-203,-255,-5663,74,204,-362
2,4867165,-1453,518,-2638,-202,-267,-5671,74,204,-362
2,4867178,-1456,523,-2638,-209,-270,-5672,74,204,-362
2,4867192,-1456,523,-2638,-209,-270,-5672,74,204,-362
2,4867207,-1452,514,-2640,-210,-260,-5671,74,204,-362
2,4867222,-1451,520,-2634,-206,-264,-5672,74,204,-362
2,4867237,-1453,522,-2648,-205,-264,-5664,74,204,-362
2,4867252,-1453,522,-2648,-205,-264,-5664,74,204,-362
2,4867265,-1451,512,-2640,-216,-255,-5667,74,204,-362
2,4867279,-1454,502,-2646,-210,-262,-5656,65,205,-369
2,4867294,-1448,499,-2641,-205,-263,-5673,65,205,-369
2,4867304,-1448,499,-2641,-205,-263,-5673,65,205,-369
2,4867317,-1452,506,-2644,-216,-263,-5678,65,205,-369
2,4867332,-1452,506,-2644,-216,-263,-5678,65,205,-369
2,4867345,-1449,500,-2637,-209,-253,-5670,65,205,-369
2,4867358,-1446,454,-2636,-201,-259,-5670,65,205,-369
2,4867371,-1446,454,-2636,-201,-259,-5670,65,205,-369
2,4867384,-1453,491,-2647,-208,-267,-5666,65,205,-369
2,4867397,-1448,490,-2637,-202,-260,-5660,71,205,-367
2,4867411,-1448,490,-2637,-202,-260,-5660,71,205,-367
2,4867425,-1452,496,-2635,-200,-262,-5664,71,205,-367
2,4867439,-1450,474,-2646,-205,-261,-5671,71,205,-367
2,4867451,-1450,474,-2646,-205,-261,-5671,71,205,-367
2,4867466,-1452,491,-2643,-214,-257,-5668,71,205,-367
2,4867481,-1455,495,-2647,-207,-256,-5667,71,205,-367
2,4867497,-1455,495,-2647,-207,-256,-5667,71,205,-367
2,4867511,-1455,495,-2647,-207,-256,-5667,71,205,-367
2,4867523,-1453,486,-2643,-213,-253,-5662,71,209,-361
2,4867537,-1452,476,-2633,-214,-257,-5653,71,209,-361
2,4867552,-1452,476,-2633,-214,-257,-5653,71,209,-361
2,4867565,-1457,487,-2641,-207,-265,-5658,71,209,-361
2,4867578,-1453,489,-2634,-208,-269,-5657,71,209,-361
2,4867593,-1453,489,-2634,-208,-269,-5657,71,209,-361
2,4867604,-1458,503,-2646,-211,-264,-5654,71,209,-361
2,4867617,-1455,486,-2641,-206,-262,-5661,71,209,-361
2,4867632,-1455,486,-2641,-206,-262,-5661,71,209,-361
2,4867646,-1452,493,-2644,-201,-269,-5652,69,215,-371
2,4867661,-1455,494,-2642,-208,-269,-5659,69,215,-371
2,4867677,-1453,508,-2638,-212,-261,-5659,69,215,-371
2,4867691,-1453,508,-2638,-212,-261,-5659,69,215,-371
2,4867706,-1456,480,-2639,-209,-255,-5657,69,215,-371
2,4867719,-1453,487,-2645,-206,-263,-5648,69,215,-371
2,4867733,-1453,487,-2645,-206,-263,-5648,69,215,-371
2,4867748,-1460,491,-2636,-205,-258,-5654,69,215,-371
2,4867763,-1454,507,-2636,-204,-254,-5659,67,227,-367
2,4867775,-1457,490,-2641,-206,-266,-5659,67,227,-367
2,4867789,-1457,490,-2641,-206,-266,-5659,67,227,-367
2,4867805,-1453,496,-2637,-207,-263,-5654,67,227,-367
2,4867818,-1461,501,-2645,-206,-256,-5651,67,227,-367
2,4867831,-1461,501,-2645,-206,-256,-5651,67,227,-367
2,4867845,-1453,513,-2637,-203,-257,-5651,67,227,-367
2,4867859,-1460,503,-2638,-203,-256,-5652,67,227,-367
2,4867872,-1460,503,-2638,-203,-256,-5652,67,227,-367
2,4867886,-1454,521,-2641,-214,-259,-5657,67,227,-367
2,4867900,-1462,538,-2633,-205,-256,-5664,71,229,-369
2,4867913,-1462,538,-2633,-205,-256,-5664,71,229,-369
2,4867928,-1459,540,-2638,-204,-265,-5663,71,229,-369
2,4867942,-1460,526,-2636,-205,-269,-5658,71,229,-369
2,4867954,-1460,526,-2636,-205,-269,-5658,71,229,-369
2,4867970,-1458,524,-2644,-211,-265,-5661,71,229,-369
2,4867984,-1458,524,-2644,-211,-265,-5661,71,229,-369
2,4867998,-1453,522,-2638,-212,-274,-5666,71,229,-369
2,4868012,-1453,522,-2638,-212,-274,-5666,71,229,-369
2,4868026,-1448,517,-2637,-214,-259,-5660,76,234,-368
2,4868040,-1454,513,-2637,-207,-260,-5663,76,234,-368
2,4868055,-1454,513,-2637,-207,-260,-5663,76,234,-368
2,4868068,-1450,508,-2638,-201,-259,-5666,76,234,-368
2,4868081,-1452,521,-2642,-206,-254,-5665,76,234,-368
2,4868092,-1452,521,-2642,-206,-254,-5665,76,234,-368
2,4868110,-1450,506,-2632,-211,-254,-5672,76,234,-368
2,4868122,-1454,503,-2634,-215,-261,-5667,76,234,-368
2,4868136,-1454,495,-2633,-212,-269,-5659,77,243,-371
2,4868150,-1454,495,-2633,-212,-269,-5659,77,243,-371
2,4868164,-1448,511,-2631,-202,-258,-5662,77,243,-371
2,4868178,-1452,505,-2641,-201,-254,-5662,77,243,-371
2,4868194,-1452,505,-2641,-201,-254,-5662,77,243,-371
2,4868207,-1441,459,-2641,-204,-260,-5672,77,243,-371
2,4868220,-1451,482,-2647,-209,-266,-5665,77,243,-371
2,4868236,-1445,482,-2634,-199,-266,-5667,77,243,-371
2,4868251,-1445,482,-2634,-199,-266,-5667,77,243,-371
2,4868267,-1453,501,-2640,-200,-260,-5671,77,243,-377
2,4868278,-1448,472,-2635,-212,-263,-5662,77,243,-377
2,4868290,-1448,472,-2635,-212,-263,-5662,77,243,-377
2,4868303,-1455,486,-2635,-213,-262,-5663,77,243,-377
2,4868318,-1452,486,-2638,-206,-264,-5664,77,243,-377
2,4868332,-1452,486,-2638,-206,-264,-5664,77,243,-377
2,4868343,-1457,502,-2632,-208,-265,-5657,77,243,-377
2,4868356,-1454,483,-2650,-210,-269,-5657,77,243,-377
2,4868369,-1454,483,-2650,-210,-269,-5657,77,243,-377
2,4868382,-1451,487,-2642,-210,-266,-5657,69,257,-383
2,4868397,-1457,486,-2635,-206,-269,-5663,69,257,-383
2,4868408,-1457,486,-2635,-206,-269,-5663,69,257,-383
2,4868422,-1457,486,-2635,-206,-269,-5663,69,257,-383
2,4868429,-1457,486,-2635,-206,-269,-5663,69,257,-383
2,4868441,-1458,498,-2644,-216,-261,-5663,69,257,-383
2,4868455,-1458,498,-2644,-216,-261,-5663,69,257,-383
2,4868468,-1454,483,-2634,-214,-254,-5658,69,257,-383
2,4868481,-1461,484,-2639,-207,-260,-5656,69,257,-383
2,4868492,-1461,484,-2639,-207,-260,-5656,69,257,-383
2,4868506,-1456,490,-2638,-207,-267,-5655,69,257,-383
2,4868519,-1456,508,-2631,-206,-264,-5660,79,253,-375
2,4868533,-1456,508,-2631,-206,-264,-5660,79,253,-375
2,4868547,-1456,487,-2640,-209,-268,-5648,79,253,-375
2,4868558,-1456,493,-2642,-209,-264,-5645,79,253,-375
2,4868574,-1456,493,-2642,-209,-264,-5645,79,253,-375
2,4868588,-1458,492,-2645,-207,-247,-5649,79,253,-375
2,4868601,-1453,504,-2636,-207,-262,-5654,79,253,-375
2,4868616,-1460,489,-2635,-210,-270,-5657,79,253,-375
2,4868631,-1460,489,-2635,-210,-270,-5657,79,253,-375
2,4868646,-1455,488,-2635,-208,-265,-5665,77,261,-373
2,4868662,-1463,490,-2633,-201,-257,-5658,77,261,-373
2,4868676,-1458,505,-2637,-203,-257,-5662,77,261,-373
2,4868689,-1458,505,-2637,-203,-257,-5662,77,261,-373
2,4868704,-1463,503,-2642,-215,-262,-5659,77,261,-373
2,4868718,-1458,504,-2633,-216,-262,-5658,77,261,-373
2,4868730,-1458,504,-2633,-216,-262,-5658,77,261,-373
2,4868743,-1460,537,-2643,-209,-265,-5661,77,261,-373
2,4868756,-1458,536,-2635,-201,-260,-5661,82,272,-382
2,4868769,-1458,536,-2635,-201,-260,-5661,82,272,-382
2,4868784,-1456,539,-2639,-211,-260,-5666,82,272,-382
2,4868796,-1460,508,-2635,-216,-262,-5656,82,272,-382
2,4868808,-1460,508,-2635,-216,-262,-5656,82,272,-382
2,4868824,-1453,526,-2632,-210,-266,-5662,82,272,-382
2,4868838,-1462,513,-2634,-204,-258,-5675,82,272,-382
2,4868853,-1462,513,-2634,-204,-258,-5675,82,272,-382
2,4868866,-1452,523,-2630,-205,-261,-5673,82,272,-382
2,4868881,-1461,504,-2638,-204,-258,-5671,79,277,-373
2,4868895,-1450,510,-2633,-210,-257,-5667,79,277,-373
2,4868910,-1450,510,-2633,-210,-257,-5667,79,277,-373
2,4868923,-1454,509,-2637,-200,-256,-5667,79,277,-373
2,4868936,-1452,522,-2638,-205,-257,-5667,79,277,-373
2,4868948,-1452,522,-2638,-205,-257,-5667,79,277,-373
2,4868963,-1453,503,-2641,-215,-257,-5659,79,277,-373
2,4868979,-1450,497,-2629,-206,-268,-5665,79,277,-373
2,4868992,-1450,497,-2629,-206,-268,-5665,79,277,-373
2,4869005,-1450,498,-2636,-206,-267,-5663,85,285,-371
2,4869019,-1452,506,-2629,-206,-266,-5673,85,285,-371
2,4869033,-1452,506,-2629,-206,-266,-5673,85,285,-371
2,4869047,-1447,467,-2625,-212,-265,-5671,85,285,-371
2,4869059,-1453,473,-2638,-214,-263,-5661,85,285,-371
2,4869074,-1453,473,-2638,-214,-263,-5661,85,285,-371
2,4869088,-1453,480,-2638,-206,-266,-5666,85,285,-371
2,4869102,-1451,506,-2638,-201,-265,-5667,85,285,-371
2,4869115,-1450,471,-2637,-205,-266,-5666,85,285,-371
2,4869131,-1450,471,-2637,-205,-266,-5666,85,285,-371
2,4869145,-1447,489,-2643,-208,-262,-5671,89,285,-377
2,4869159,-1452,482,-2640,-203,-255,-5659,89,285,-377
2,4869173,-1452,482,-2640,-203,-255,-5659,89,285,-377
2,4869187,-1449,504,-2633,-201,-267,-5658,89,285,-377
2,4869198,-1456,474,-2640,-207,-266,-5656,89,285,-377
2,4869213,-1456,474,-2640,-207,-266,-5656,89,285,-377
2,4869226,-1451,487,-2631,-211,-255,-5661,89,285,-377
2,4869239,-1460,471,-2638,-207,-261,-5657,89,285,-377
2,4869253,-1460,471,-2638,-207,-261,-5657,89,285,-377
2,4869267,-1454,492,-2633,-204,-266,-5655,101,301,-369
2,4869278,-1459,484,-2635,-204,-265,-5649,101,301,-369
2,4869293,-1459,484,-2635,-204,-265,-5649,101,301,-369
2,4869308,-1453,499,-2631,-207,-263,-5648,101,301,-369
2,4869323,-1457,481,-2646,-205,-261,-5652,101,301,-369
2,4869337,-1456,493,-2638,-203,-269,-5650,101,301,-369
2,4869351,-1456,493,-2638,-203,-269,-5650,101,301,-369
2,4869366,-1458,492,-2639,-206,-273,-5653,101,301,-369
2,4869382,-1456,497,-2626,-208,-264,-5665,111,307,-363
2,4869396,-1459,484,-2632,-210,-271,-5658,111,307,-363
2,4869409,-1459,484,-2632,-210,-271,-5658,111,307,-363
2,4869424,-1459,487,-2634,-210,-259,-5655,111,307,-363
2,4869434,-1459,487,-2634,-210,-259,-5655,111,307,-363
2,4869447,-1457,493,-2637,-211,-256,-5663,111,307,-363
2,4869460,-1457,491,-2638,-212,-264,-5658,111,307,-363
2,4869474,-1457,491,-2638,-212,-264,-5658,111,307,-363
2,4869487,-1457,488,-2643,-206,-266,-5665,111,307,-363
2,4869501,-1459,496,-2645,-215,-264,-5655,125,315,-363
2,4869513,-1459,496,-2645,-215,-264,-5655,125,315,-363
2,4869528,-1459,499,-2635,-207,-262,-5654,125,315,-363
2,4869543,-1460,495,-2635,-205,-264,-5658,125,315,-363
2,4869559,-1458,508,-2642,-207,-261,-5656,125,315,-363
2,4869573,-1458,508,-2642,-207,-261,-5656,125,315,-363
2,4869585,-1459,508,-2642,-211,-261,-5654,125,315,-363
2,4869600,-1460,528,-2631,-211,-260,-5655,125,315,-363
2,4869615,-1460,528,-2631,-211,-260,-5655,125,315,-363
2,4869628,-1460,530,-2634,-211,-266,-5652,125,315,-365
2,4869643,-1459,521,-2636,-207,-260,-5658,125,315,-365
2,4869656,-1456,516,-2642,-211,-262,-5659,125,315,-365
2,4869670,-1456,516,-2642,-211,-262,-5659,125,315,-365
2,4869683,-1459,519,-2636,-207,-265,-5660,125,315,-365
2,4869696,-1459,519,-2636,-207,-265,-5660,125,315,-365
2,4869709,-1449,519,-2638,-206,-268,-5668,125,315,-365
2,4869723,-1454,516,-2635,-203,-261,-5674,125,315,-365
2,4869737,-1452,509,-2640,-206,-264,-5671,125,315,-365
2,4869745,-1452,509,-2640,-206,-264,-5671,125,315,-365
2,4869761,-1456,512,-2630,-203,-262,-5671,137,317,-361
2,4869775,-1456,512,-2630,-203,-262,-5671,137,317,-361
2,4869788,-1457,515,-2634,-204,-269,-5676,137,317,-361
2,4869804,-1454,508,-2636,-211,-274,-5667,137,317,-361
2,4869819,-1452,507,-2642,-210,-266,-5659,137,317,-361
2,4869834,-1452,507,-2642,-210,-266,-5659,137,317,-361
2,4869850,-1451,492,-2635,-204,-272,-5658,137,317,-361
2,4869863,-1452,505,-2639,-203,-268,-5667,137,317,-361
2,4869876,-1451,505,-2639,-208,-263,-5675,137,311,-355
2,4869891,-1451,505,-2639,-208,-263,-5675,137,311,-355
2,4869905,-1449,464,-2635,-205,-261,-5665,137,311,-355
2,4869918,-1455,487,-2641,-212,-264,-5669,137,311,-355
2,4869932,-1455,487,-2641,-212,-264,-5669,137,311,-355
2,4869947,-1452,481,-2635,-209,-265,-5663,137,311,-355
2,4869960,-1453,498,-2631,-202,-260,-5663,137,311,-355
2,4869975,-1453,498,-2631,-202,-260,-5663,137,311,-355
2,4869989,-1452,463,-2632,-211,-262,-5658,137,311,-355
2,4870004,-1456,491,-2634,-209,-268,-5665,147,321,-357
2,4870020,-1454,476,-2636,-196,-271,-5662,147,321,-357
2,4870034,-1454,476,-2636,-196,-271,-5662,147,321,-357
2,4870048,-1451,501,-2634,-204,-267,-5665,147,321,-357
2,4870062,-1456,482,-2649,-210,-261,-5651,147,321,-357
2,4870076,-1456,482,-2649,-210,-261,-5651,147,321,-357
2,4870087,-1455,492,-2635,-211,-258,-5656,147,321,-357
2,4870100,-1457,476,-2636,-205,-266,-5661,147,321,-357
2,4870115,-1457,476,-2636,-205,-266,-5661,147,321,-357
2,4870128,-1458,487,-2631,-202,-270,-5661,140,314,-358
2,4870141,-1456,485,-2637,-208,-259,-5659,140,314,-358
2,4870155,-1456,485,-2637,-208,-259,-5659,140,314,-358
2,4870166,-1454,487,-2629,-201,-256,-5659,140,314,-358
2,4870179,-1457,478,-2641,-205,-262,-5660,140,314,-358
2,4870193,-1457,478,-2641,-205,-262,-5660,140,314,-358
2,4870207,-1459,486,-2640,-204,-264,-5658,140,314,-358
2,4870219,-1458,493,-2640,-207,-261,-5650,140,314,-358
2,4870232,-1458,493,-2640,-207,-261,-5650,140,314,-358
2,4870247,-1457,495,-2635,-205,-260,-5658,142,316,-360
2,4870261,-1458,489,-2639,-202,-262,-5654,142,316,-360
2,4870276,-1458,489,-2639,-202,-262,-5654,142,316,-360
2,4870288,-1461,488,-2643,-200,-268,-5657,142,316,-360
2,4870302,-1456,495,-2633,-211,-259,-5654,142,316,-360
2,4870316,-1456,495,-2633,-211,-259,-5654,142,316,-360
2,4870329,-1459,486,-2639,-208,-268,-5653,142,316,-360
2,4870343,-1458,491,-2643,-210,-265,-5651,142,316,-360
2,4870358,-1463,491,-2640,-212,-260,-5653,148,322,-358
2,4870370,-1463,491,-2640,-212,-260,-5653,148,322,-358
2,4870383,-1455,496,-2638,-208,-267,-5654,148,322,-358
2,4870396,-1455,496,-2638,-208,-267,-5654,148,322,-358
2,4870410,-1461,500,-2637,-206,-267,-5659,148,322,-358
2,4870424,-1458,510,-2643,-213,-262,-5658,148,322,-358
2,4870440,-1459,544,-2640,-208,-261,-5657,148,322,-358
2,4870456,-1459,544,-2640,-208,-261,-5657,148,322,-358
2,4870471,-1460,531,-2635,-201,-261,-5656,148,322,-358
2,4870486,-1460,535,-2645,-208,-263,-5660,148,322,-358
2,4870499,-1457,514,-2635,-208,-257,-5661,161,317,-355
2,4870512,-1457,514,-2635,-208,-257,-5661,161,317,-355
2,4870525,-1456,535,-2639,-204,-255,-5664,161,317,-355
2,4870539,-1456,514,-2637,-207,-264,-5662,161,317,-355
2,4870552,-1456,514,-2637,-207,-264,-5662,161,317,-355
2,4870565,-1453,519,-2632,-210,-262,-5671,161,317,-355
2,4870579,-1453,510,-2644,-210,-265,-5671,161,317,-355
2,4870593,-1453,510,-2644,-210,-265,-5671,161,317,-355
2,4870607,-1447,511,-2630,-208,-261,-5668,161,317,-355
2,4870618,-1456,515,-2645,-208,-266,-5665,161,313,-359
2,4870630,-1456,515,-2645,-208,-266,-5665,161,313,-359
2,4870644,-1451,513,-2631,-205,-264,-5662,161,313,-359
2,4870659,-1451,505,-2638,-209,-259,-5661,161,313,-359
2,4870667,-1451,505,-2638,-209,-259,-5661,161,313,-359
2,4870675,-1451,505,-2638,-209,-259,-5661,161,313,-359
2,4870683,-1448,494,-2635,-207,-260,-5670,161,313,-359
2,4870692,-1448,494,-2635,-207,-260,-5670,161,313,-359
2,4870709,-1450,503,-2638,-204,-267,-5666,161,313,-359
2,4870723,-1450,499,-2643,-211,-267,-5664,161,313,-359
2,4870738,-1444,460,-2633,-206,-264,-5667,169,313,-353
2,4870752,-1444,460,-2633,-206,-264,-5667,169,313,-353
2,4870766,-1453,479,-2640,-207,-269,-5666,169,313,-353
2,4870780,-1450,485,-2633,-199,-263,-5665,169,313,-353
2,4870793,-1450,485,-2633,-199,-263,-5665,169,313,-353
2,4870804,-1455,497,-2635,-205,-255,-5662,169,313,-353
2,4870818,-1448,470,-2639,-206,-257,-5670,169,313,-353
2,4870832,-1448,470,-2639,-206,-257,-5670,169,313,-353
2,4870846,-1452,488,-2642,-211,-259,-5668,169,313,-353
2,4870860,-1445,484,-2637,-204,-262,-5660,173,319,-359
2,4870872,-1445,484,-2637,-204,-262,-5660,173,319,-359
2,4870885,-1450,500,-2632,-201,-270,-5668,173,319,-359
2,4870899,-1451,471,-2642,-213,-261,-5663,173,319,-359
2,4870913,-1451,471,-2642,-213,-261,-5663,173,319,-359
2,4870928,-1452,487,-2642,-214,-261,-5663,173,319,-359
2,4870943,-1452,487,-2642,-214,-261,-5663,173,319,-359
2,4870958,-1452,489,-2642,-202,-263,-5668,173,319,-359
2,4870972,-1452,489,-2642,-202,-263,-5668,173,319,-359
2,4870986,-1449,483,-2638,-204,-261,-5666,179,307,-347
2,4871000,-1449,493,-2633,-210,-262,-5670,179,307,-347
2,4871013,-1449,493,-2633,-210,-262,-5670,179,307,-347
2,4871025,-1456,483,-2638,-207,-269,-5670,179,307,-347
2,4871038,-1454,490,-2637,-211,-269,-5656,179,307,-347
2,4871053,-1454,490,-2637,-211,-269,-5656,179,307,-347
2,4871066,-1461,494,-2645,-212,-265,-5659,179,307,-347
2,4871080,-1453,493,-2639,-206,-267,-5662,179,307,-347
2,4871094,-1453,493,-2639,-206,-267,-5662,179,307,-347
2,4871108,-1453,493,-2639,-206,-267,-5662,179,307,-347
2,4871120,-1457,489,-2634,-209,-260,-5660,180,304,-342
2,4871135,-1457,489,-2634,-209,-260,-5660,180,304,-342
2,4871150,-1457,489,-2638,-206,-266,-5665,180,304,-342
2,4871164,-1453,484,-2636,-202,-262,-5657,180,304,-342
2,4871178,-1453,484,-2641,-207,-267,-5665,180,304,-342
2,4871193,-1453,484,-2641,-207,-267,-5665,180,304,-342
2,4871208,-1453,489,-2645,-213,-265,-5659,180,304,-342
2,4871223,-1455,496,-2637,-203,-259,-5664,180,304,-342
2,4871237,-1455,496,-2637,-203,-259,-5664,180,304,-342
2,4871250,-1460,493,-2643,-204,-264,-5663,172,304,-342
2,4871265,-1455,504,-2641,-208,-257,-5655,172,304,-342
2,4871275,-1455,504,-2641,-208,-257,-5655,172,304,-342
2,4871288,-1457,504,-2637,-206,-260,-5654,172,304,-342
2,4871303,-1456,521,-2638,-203,-264,-5658,172,304,-342
2,4871316,-1456,521,-2638,-203,-264,-5658,172,304,-342
2,4871329,-1461,541,-2637,-205,-264,-5646,172,304,-342
2,4871341,-1454,521,-2636,-203,-261,-5656,172,304,-342
2,4871354,-1454,521,-2636,-203,-261,-5656,172,304,-342
2,4871367,-1458,518,-2636,-208,-262,-5652,184,298,-344
2,4871382,-1457,520,-2645,-209,-263,-5657,184,298,-344
2,4871396,-1457,520,-2645,-209,-263,-5657,184,298,-344
2,4871410,-1451,528,-2633,-206,-262,-5657,184,298,-344
2,4871425,-1453,520,-2649,-208,-263,-5657,184,298,-344
2,4871438,-1450,505,-2644,-213,-260,-5665,184,298,-344
2,4871452,-1450,505,-2644,-213,-260,-5665,184,298,-344
2,4871468,-1451,518,-2636,-210,-259,-5670,184,298,-344
2,4871481,-1453,511,-2634,-207,-258,-5665,193,303,-337
2,4871496,-1453,511,-2634,-207,-258,-5665,193,303,-337
2,4871508,-1452,517,-2645,-214,-260,-5667,193,303,-337
2,4871522,-1456,499,-2644,-213,-268,-5663,193,303,-337
2,4871536,-1456,499,-2644,-213,-268,-5663,193,303,-337
2,4871549,-1449,497,-2639,-210,-257,-5664,193,303,-337
2,4871565,-1451,498,-2640,-207,-261,-5657,193,303,-337
2,4871577,-1451,498,-2640,-207,-261,-5657,193,303,-337
2,4871588,-1445,511,-2636,-206,-255,-5660,193,303,-337
2,4871602,-1452,493,-2640,-208,-259,-5670,181,295,-331
2,4871617,-1452,493,-2640,-208,-259,-5670,181,295,-331
2,4871631,-1450,457,-2636,-213,-253,-5668,181,295,-331
2,4871646,-1452,488,-2646,-208,-253,-5663,181,295,-331
2,4871658,-1454,493,-2637,-204,-255,-5672,181,295,-331
2,4871672,-1454,493,-2637,-204,-255,-5672,181,295,-331
2,4871688,-1454,495,-2644,-205,-261,-5666,181,295,-331
2,4871703,-1452,470,-2642,-216,-268,-5654,181,295,-331
2,4871716,-1452,470,-2642,-216,-268,-5654,181,295,-331
2,4871728,-1454,482,-2637,-208,-261,-5665,181,295,-331
2,4871741,-1452,495,-2638,-195,-270,-5663,194,288,-338
2,4871753,-1452,495,-2638,-195,-270,-5663,194,288,-338
2,4871767,-1449,493,-2637,-205,-270,-5664,194,288,-338
2,4871780,-1454,481,-2642,-207,-265,-5665,194,288,-338
2,4871795,-1454,481,-2642,-207,-265,-5665,194,288,-338
2,4871809,-1449,480,-2639,-214,-258,-5658,194,288,-338
2,4871822,-1457,485,-2647,-206,-256,-5657,194,288,-338
2,4871835,-1457,485,-2647,-206,-256,-5657,194,288,-338
2,4871848,-1453,499,-2643,-206,-267,-5655,194,288,-338
2,4871862,-1455,485,-2634,-208,-255,-5656,182,290,-336
2,4871874,-1455,485,-2634,-208,-255,-5656,182,290,-336
2,4871887,-1453,480,-2639,-207,-260,-5651,182,290,-336
2,4871902,-1457,483,-2641,-206,-272,-5655,182,290,-336
2,4871915,-1457,483,-2641,-206,-272,-5655,182,290,-336
2,4871930,-1458,496,-2644,-206,-265,-5654,182,290,-336
2,4871946,-1454,499,-2638,-211,-267,-5654,182,290,-336
2,4871961,-1454,483,-2644,-207,-259,-5652,182,290,-336
2,4871974,-1454,483,-2644,-207,-259,-5652,182,290,-336
2,4871989,-1454,489,-2636,-211,-264,-5652,190,276,-342
2,4872003,-1456,497,-2643,-212,-260,-5648,190,276,-342
2,4872015,-1456,497,-2643,-212,-260,-5648,190,276,-342
2,4872027,-1456,497,-2643,-212,-260,-5648,190,276,-342
2,4872040,-1456,487,-2643,-208,-264,-5655,190,276,-342
2,4872054,-1456,487,-2643,-208,-264,-5655,190,276,-342
2,4872068,-1456,487,-2635,-207,-260,-5650,190,276,-342
2,4872079,-1457,504,-2645,-214,-258,-5656,190,276,-342
2,4872091,-1457,504,-2645,-214,-258,-5656,190,276,-342
2,4872104,-1459,512,-2635,-214,-262,-5650,185,271,-341
2,4872118,-1459,512,-2635,-214,-262,-5650,185,271,-341
2,4872133,-1455,517,-2641,-214,-259,-5654,185,271,-341
2,4872142,-1458,540,-2637,-209,-258,-5656,185,271,-341
2,4872157,-1458,540,-2637,-209,-258,-5656,185,271,-341
2,4872171,-1454,537,-2644,-207,-266,-5660,185,271,-341
2,4872183,-1458,526,-2645,-203,-267,-5662,185,271,-341
2,4872199,-1449,522,-2645,-207,-262,-5658,185,271,-341
2,4872213,-1449,522,-2645,-207,-262,-5658,185,271,-341
2,4872228,-1455,525,-2633,-210,-263,-5668,186,262,-336
2,4872243,-1454,521,-2639,-208,-264,-5668,186,262,-336
2,4872256,-1454,521,-2639,-208,-264,-5668,186,262,-336
2,4872269,-1456,518,-2640,-211,-260,-5662,186,262,-336
2,4872283,-1447,514,-2638,-208,-260,-5666,186,262,-336
2,4872296,-1447,514,-2638,-208,-260,-5666,186,262,-336
2,4872309,-1450,512,-2639,-203,-263,-5665,186,262,-336
2,4872323,-1448,515,-2644,-205,-255,-5672,186,262,-336
2,4872337,-1448,515,-2644,-205,-255,-5672,186,262,-336
2,4872351,-1452,511,-2642,-205,-257,-5662,186,262,-336
2,4872366,-1450,512,-2643,-210,-256,-5656,180,260,-344
2,4872380,-1447,496,-2642,-203,-261,-5663,180,260,-344
2,4872393,-1447,496,-2642,-203,-261,-5663,180,260,-344
2,4872409,-1454,506,-2645,-199,-256,-5675,180,260,-344
2,4872423,-1451,501,-2637,-210,-265,-5671,180,260,-344
2,4872437,-1451,501,-2637,-210,-265,-5671,180,260,-344
2,4872449,-1451,453,-2640,-209,-268,-5668,180,260,-344
2,4872461,-1447,491,-2646,-205,-264,-5670,180,260,-344
2,4872474,-1447,491,-2646,-205,-264,-5670,180,260,-344
2,4872487,-1451,484,-2638,-208,-267,-5667,187,259,-345
2,4872501,-1451,499,-2640,-213,-268,-5661,187,259,-345
2,4872516,-1451,499,-2640,-213,-268,-5661,187,259,-345
2,4872528,-1448,467,-2643,-210,-270,-5663,187,259,-345
2,4872542,-1454,489,-2640,-216,-264,-5667,187,259,-345
2,4872555,-1454,489,-2640,-216,-264,-5667,187,259,-345
2,4872569,-1450,489,-2644,-204,-269,-5669,187,259,-345
2,4872582,-1450,489,-2644,-204,-269,-5669,187,259,-345
2,4872594,-1450,489,-2644,-204,-269,-5669,187,259,-345
2,4872610,-1454,481,-2645,-210,-266,-5661,174,246,-338
2,4872624,-1453,478,-2635,-212,-257,-5658,174,246,-338
2,4872637,-1453,478,-2635,-212,-257,-5658,174,246,-338
2,4872651,-1456,486,-2639,-211,-263,-5655,174,246,-338
2,4872667,-1454,489,-2636,-206,-266,-5653,174,246,-338
2,4872683,-1455,501,-2646,-212,-259,-5660,174,246,-338
2,4872696,-1455,501,-2646,-212,-259,-5660,174,246,-338
2,4872710,-1457,483,-2637,-214,-259,-5658,174,246,-338
2,4872724,-1453,487,-2636,-208,-261,-5658,172,240,-348
2,4872736,-1453,487,-2636,-208,-261,-5658,172,240,-348
2,4872749,-1456,491,-2640,-209,-261,-5658,172,240,-348
2,4872763,-1454,504,-2644,-207,-263,-5650,172,240,-348
2,4872776,-1454,504,-2644,-207,-263,-5650,172,240,-348
2,4872790,-1458,486,-2641,-206,-265,-5650,172,240,-348
2,4872803,-1458,491,-2646,-199,-264,-5652,172,240,-348
2,4872814,-1458,491,-2646,-199,-264,-5652,172,240,-348
2,4872828,-1458,492,-2640,-200,-258,-5655,172,240,-348
2,4872842,-1455,503,-2637,-203,-258,-5653,167,245,-353
2,4872856,-1455,503,-2637,-203,-258,-5653,167,245,-353
2,4872870,-1460,492,-2642,-205,-261,-5656,167,245,-353
2,4872886,-1454,492,-2639,-204,-263,-5656,167,245,-353
2,4872901,-1460,497,-2644,-212,-254,-5650,167,245,-353
2,4872916,-1460,497,-2644,-212,-254,-5650,167,245,-353
2,4872930,-1452,514,-2644,-209,-261,-5647,167,245,-353
2,4872943,-1458,503,-2649,-208,-263,-5648,167,245,-353
2,4872957,-1458,503,-2649,-208,-263,-5648,167,245,-353
2,4872970,-1456,520,-2642,-201,-258,-5640,167,245,-353
2,4872983,-1458,544,-2636,-201,-263,-5654,169,237,-355
2,4872997,-1458,544,-2636,-201,-263,-5654,169,237,-355
2,4873012,-1456,541,-2639,-194,-269,-5655,169,237,-355
2,4873025,-1457,520,-2639,-206,-260,-5655,169,237,-355
2,4873039,-1456,520,-2644,-207,-270,-5655,169,237,-355
2,4873052,-1456,520,-2644,-207,-270,-5655,169,237,-355
2,4873064,-1452,530,-2638,-203,-257,-5659,169,237,-355
2,4873078,-1452,530,-2638,-203,-257,-5659,169,237,-355
2,4873094,-1455,529,-2646,-208,-266,-5664,169,237,-355
2,4873106,-1449,522,-2637,-212,-267,-5663,166,232,-350
2,4873120,-1452,515,-2640,-213,-266,-5668,166,232,-350
2,4873136,-1452,515,-2640,-213,-266,-5668,166,232,-350
2,4873151,-1447,511,-2639,-205,-257,-5666,166,232,-350
2,4873164,-1457,525,-2644,-212,-260,-5669,166,232,-350
2,4873178,-1457,525,-2644,-212,-260,-5669,166,232,-350
2,4873192,-1452,513,-2643,-211,-261,-5665,166,232,-350
2,4873205,-1453,504,-2645,-213,-255,-5661,166,232,-350
2,4873218,-1453,504,-2645,-213,-255,-5661,166,232,-350
2,4873232,-1453,493,-2634,-204,-259,-5665,153,227,-351
2,4873245,-1450,517,-2636,-206,-272,-5669,153,227,-351
2,4873260,-1450,504,-2645,-208,-261,-5668,153,227,-351
2,4873273,-1450,504,-2645,-208,-261,-5668,153,227,-351
2,4873284,-1443,459,-2642,-211,-262,-5673,153,227,-351
2,4873298,-1443,459,-2642,-211,-262,-5673,153,227,-351
2,4873313,-1450,486,-2644,-211,-272,-5664,153,227,-351
2,4873327,-1446,487,-2644,-194,-270,-5668,153,227,-351
2,4873340,-1449,509,-2643,-201,-266,-5661,149,223,-355
2,4873356,-1449,509,-2643,-201,-266,-5661,149,223,-355
2,4873371,-1448,473,-2641,-209,-264,-5666,149,223,-355
2,4873385,-1458,486,-2643,-212,-265,-5660,149,223,-355
2,4873399,-1458,486,-2643,-212,-265,-5660,149,223,-355
2,4873413,-1453,483,-2633,-209,-262,-5664,149,223,-355
2,4873427,-1452,501,-2639,-208,-265,-5665,149,223,-355
2,4873441,-1452,480,-2648,-208,-267,-5660,149,223,-355
2,4873452,-1452,480,-2648,-208,-267,-5660,149,223,-355
2,4873466,-1452,482,-2642,-211,-258,-5656,150,222,-368
2,4873480,-1454,489,-2640,-205,-262,-5652,150,222,-368
2,4873494,-1454,489,-2640,-205,-262,-5652,150,222,-368
2,4873507,-1455,495,-2640,-199,-269,-5646,150,222,-368
2,4873520,-1456,495,-2645,-209,-262,-5662,150,222,-368
2,4873533,-1456,495,-2645,-209,-262,-5662,150,222,-368
2,4873546,-1453,490,-2632,-205,-259,-5656,150,222,-368
2,4873560,-1459,485,-2639,-206,-262,-5662,150,222,-368
2,4873574,-1459,485,-2639,-206,-262,-5662,150,222,-368
2,4873589,-1455,490,-2636,-205,-261,-5664,150,222,-368
2,4873602,-1455,500,-2632,-209,-249,-5658,143,209,-363
2,4873616,-1455,500,-2632,-209,-249,-5658,143,209,-363
2,4873631,-1455,491,-2636,-211,-254,-5662,143,209,-363
2,4873643,-1455,488,-2641,-210,-258,-5654,143,209,-363
2,4873656,-1455,488,-2641,-210,-258,-5654,143,209,-363
2,4873663,-1459,498,-2648,-213,-263,-5660,143,209,-363
2,4873675,-1459,498,-2648,-213,-263,-5660,143,209,-363
2,4873688,-1455,512,-2643,-206,-266,-5654,143,209,-363
2,4873702,-1457,497,-2645,-210,-263,-5652,143,209,-363
2,4873715,-1457,497,-2645,-210,-263,-5652,143,209,-363
2,4873730,-1453,499,-2637,-204,-256,-5651,124,210,-354
2,4873742,-1462,498,-2633,-204,-260,-5656,124,210,-354
2,4873755,-1462,498,-2633,-204,-260,-5656,124,210,-354
2,4873768,-1456,512,-2636,-210,-261,-5652,124,210,-354
2,4873782,-1460,504,-2638,-205,-264,-5652,124,210,-354
2,4873795,-1460,504,-2638,-205,-264,-5652,124,210,-354
2,4873809,-1457,525,-2638,-204,-260,-5651,124,210,-354
2,4873825,-1456,545,-2643,-203,-257,-5652,124,210,-354
2,4873836,-1456,545,-2643,-203,-257,-5652,124,210,-354
2,4873850,-1455,541,-2638,-202,-261,-5650,132,204,-362
2,4873866,-1453,535,-2642,-209,-267,-5655,132,204,-362
2,4873876,-1453,535,-2642,-209,-267,-5655,132,204,-362
2,4873889,-1452,519,-2643,-210,-264,-5658,132,204,-362
2,4873905,-1449,531,-2640,-202,-261,-5659,132,204,-362
2,4873918,-1449,531,-2640,-202,-261,-5659,132,204,-362
2,4873931,-1455,522,-2641,-200,-267,-5658,132,204,-362
2,4873946,-1452,522,-2637,-208,-260,-5666,132,204,-362
2,4873960,-1452,522,-2637,-208,-260,-5666,132,204,-362
2,4873973,-1455,518,-2639,-210,-260,-5669,128,190,-376
2,4873987,-1449,519,-2630,-210,-268,-5666,128,190,-376
2,4874001,-1452,522,-2641,-207,-265,-5666,128,190,-376
2,4874014,-1452,522,-2641,-207,-265,-5666,128,190,-376
2,4874028,-1448,514,-2638,-213,-266,-5661,128,190,-376
2,4874042,-1449,505,-2644,-213,-272,-5664,128,190,-376
2,4874057,-1449,505,-2644,-213,-272,-5664,128,190,-376
2,4874071,-1450,501,-2647,-218,-261,-5671,128,190,-376
2,4874085,-1449,512,-2641,-210,-268,-5670,118,194,-372
2,4874099,-1449,512,-2641,-210,-268,-5670,118,194,-372
2,4874115,-1451,503,-2636,-204,-263,-5669,118,194,-372
2,4874126,-1448,474,-2631,-208,-261,-5667,118,194,-372
2,4874138,-1448,474,-2631,-208,-261,-5667,118,194,-372
2,4874152,-1448,469,-2638,-219,-261,-5666,118,194,-372
2,4874166,-1451,494,-2634,-204,-261,-5667,118,194,-372
2,4874179,-1451,494,-2634,-204,-261,-5667,118,194,-372
2,4874191,-1453,500,-2639,-207,-260,-5666,118,194,-372
2,4874204,-1444,476,-2632,-203,-258,-5664,109,197,-371
2,4874217,-1444,476,-2632,-203,-258,-5664,109,197,-371
2,4874233,-1451,482,-2644,-212,-260,-5662,109,197,-371
2,4874247,-1453,493,-2637,-199,-255,-5663,109,197,-371
2,4874261,-1457,508,-2637,-204,-259,-5662,109,197,-371
2,4874275,-1457,508,-2637,-204,-259,-5662,109,197,-371
2,4874289,-1452,486,-2640,-205,-263,-5656,109,197,-371
2,4874302,-1451,489,-2638,-210,-255,-5652,109,197,-371
2,4874317,-1451,489,-2638,-210,-255,-5652,109,197,-371
2,4874333,-1453,474,-2637,-204,-259,-5655,109,197,-371
2,4874346,-1455,494,-2632,-202,-262,-5658,107,191,-379
2,4874357,-1455,494,-2632,-202,-262,-5658,107,191,-379
2,4874372,-1455,491,-2638,-204,-260,-5659,107,191,-379
2,4874385,-1453,499,-2640,-207,-253,-5661,107,191,-379
2,4874398,-1453,499,-2640,-207,-253,-5661,107,191,-379
2,4874413,-1452,480,-2644,-207,-253,-5662,107,191,-379
2,4874427,-1452,495,-2638,-207,-268,-5655,107,191,-379
2,4874439,-1452,495,-2638,-207,-268,-5655,107,191,-379
2,4874455,-1457,497,-2647,-210,-266,-5658,107,191,-379
2,4874468,-1451,496,-2634,-207,-266,-5657,106,190,-382
2,4874481,-1456,487,-2638,-204,-265,-5654,106,190,-382
2,4874496,-1456,487,-2638,-204,-265,-5654,106,190,-382
2,4874509,-1456,487,-2638,-204,-265,-5654,106,190,-382
2,4874523,-1458,503,-2636,-205,-265,-5659,106,190,-382
2,4874537,-1458,503,-2636,-205,-265,-5659,106,190,-382
2,4874553,-1457,499,-2636,-210,-261,-5663,106,190,-382
2,4874568,-1456,498,-2635,-213,-263,-5664,106,190,-382
2,4874582,-1458,502,-2646,-213,-254,-5660,101,187,-377
2,4874594,-1458,502,-2646,-213,-254,-5660,101,187,-377
2,4874606,-1452,513,-2635,-209,-267,-5652,101,187,-377
2,4874620,-1452,513,-2635,-209,-267,-5652,101,187,-377
2,4874634,-1458,508,-2644,-210,-265,-5649,101,187,-377
2,4874648,-1456,518,-2638,-210,-267,-5657,101,187,-377
2,4874659,-1456,518,-2638,-210,-267,-5657,101,187,-377
2,4874673,-1462,545,-2640,-207,-258,-5656,101,187,-377
2,4874688,-1455,535,-2634,-207,-261,-5656,101,187,-377
2,4874702,-1458,537,-2633,-216,-260,-5654,95,195,-385
2,4874718,-1458,537,-2633,-216,-260,-5654,95,195,-385
2,4874732,-1457,519,-2635,-214,-266,-5660,95,195,-385
2,4874746,-1454,533,-2633,-211,-263,-5665,95,195,-385
2,4874761,-1454,525,-2633,-200,-265,-5666,95,195,-385
2,4874776,-1454,525,-2633,-200,-265,-5666,95,195,-385
2,4874789,-1444,524,-2643,-209,-268,-5667,95,195,-385
2,4874803,-1454,522,-2646,-210,-258,-5670,95,195,-385
2,4874816,-1454,522,-2646,-210,-258,-5670,95,195,-385
2,4874829,-1440,515,-2631,-203,-258,-5671,99,187,-377
2,4874842,-1454,526,-2638,-211,-261,-5666,99,187,-377
2,4874856,-1454,526,-2638,-211,-261,-5666,99,187,-377
2,4874869,-1448,515,-2634,-212,-267,-5668,99,187,-377
2,4874883,-1449,506,-2637,-209,-268,-5671,99,187,-377
2,4874897,-1449,506,-2637,-209,-268,-5671,99,187,-377
2,4874909,-1447,493,-2636,-203,-261,-5666,99,187,-377
2,4874924,-1446,504,-2643,-211,-259,-5671,99,187,-377
2,4874938,-1446,504,-2643,-211,-259,-5671,99,187,-377
2,4874951,-1448,509,-2638,-210,-263,-5665,99,187,-377
2,4874966,-1447,483,-2633,-207,-260,-5663,87,189,-375
2,4874980,-1447,483,-2633,-207,-260,-5663,87,189,-375
2,4874995,-1449,475,-2640,-206,-261,-5664,87,189,-375
2,4875011,-1453,497,-2631,-207,-260,-5671,87,189,-375
2,4875024,-1447,507,-2638,-200,-263,-5665,87,189,-375
2,4875037,-1447,507,-2638,-200,-263,-5665,87,189,-375
2,4875053,-1450,471,-2635,-212,-264,-5671,87,189,-375
2,4875065,-1450,477,-2650,-213,-255,-5671,87,189,-375
2,4875077,-1450,477,-2650,-213,-255,-5671,87,189,-375
2,4875090,-1453,486,-2631,-212,-260,-5662,78,198,-370
2,4875104,-1455,500,-2629,-210,-267,-5662,78,198,-370
2,4875118,-1455,500,-2629,-210,-267,-5662,78,198,-370
2,4875130,-1449,484,-2638,-208,-273,-5662,78,198,-370
2,4875144,-1453,488,-2638,-214,-257,-5661,78,198,-370
2,4875156,-1453,488,-2638,-214,-257,-5661,78,198,-370
2,4875170,-1451,480,-2640,-209,-259,-5665,78,198,-370
2,4875185,-1452,495,-2640,-206,-268,-5661,78,198,-370
2,4875199,-1452,495,-2640,-206,-268,-5661,78,198,-370
2,4875214,-1459,487,-2635,-215,-264,-5659,85,197,-369
2,4875228,-1452,494,-2630,-215,-256,-5658,85,197,-369
2,4875242,-1458,485,-2635,-208,-263,-5653,85,197,-369
2,4875257,-1458,485,-2635,-208,-263,-5653,85,197,-369
2,4875272,-1453,493,-2635,-207,-258,-5654,85,197,-369
2,4875285,-1457,492,-2638,-207,-259,-5657,85,197,-369
2,4875297,-1457,492,-2638,-207,-259,-5657,85,197,-369
2,4875312,-1451,496,-2640,-212,-257,-5657,85,197,-369
2,4875325,-1457,480,-2630,-213,-267,-5659,84,190,-366
2,4875338,-1457,480,-2630,-213,-267,-5659,84,190,-366
2,4875352,-1460,492,-2639,-206,-265,-5656,84,190,-366
2,4875367,-1456,497,-2642,-209,-258,-5658,84,190,-366
2,4875382,-1461,500,-2634,-208,-266,-5656,84,190,-366
2,4875395,-1461,500,-2634,-208,-266,-5656,84,190,-366
2,4875408,-1457,482,-2637,-204,-269,-5656,84,190,-366
2,4875421,-1457,497,-2637,-207,-269,-5655,84,190,-366
2,4875436,-1457,497,-2637,-207,-269,-5655,84,190,-366
2,4875450,-1460,495,-2635,-212,-257,-5655,75,197,-369
2,4875465,-1457,497,-2636,-200,-261,-5661,75,197,-369
2,4875478,-1457,497,-2636,-200,-261,-5661,75,197,-369
2,4875492,-1459,492,-2635,-204,-267,-5651,75,197,-369
2,4875506,-1456,514,-2643,-204,-262,-5651,75,197,-369
2,4875522,-1460,511,-2635,-207,-259,-5643,75,197,-369
2,4875533,-1460,511,-2635,-207,-259,-5643,75,197,-369
2,4875547,-1460,553,-2638,-206,-257,-5642,75,197,-369
2,4875561,-1459,530,-2635,-209,-255,-5649,75,197,-369
2,4875575,-1459,530,-2635,-209,-255,-5649,75,197,-369
2,4875588,-1459,525,-2632,-212,-261,-5651,75,201,-373
2,4875602,-1458,515,-2639,-208,-269,-5653,75,201,-373
2,4875618,-1458,515,-2639,-208,-269,-5653,75,201,-373
2,4875629,-1453,537,-2635,-207,-265,-5660,75,201,-373
2,4875643,-1459,516,-2644,-208,-257,-5658,75,201,-373
2,4875657,-1459,516,-2644,-208,-257,-5658,75,201,-373
2,4875671,-1452,524,-2633,-214,-261,-5660,75,201,-373
2,4875685,-1457,506,-2636,-214,-262,-5666,75,201,-373
2,4875701,-1457,506,-2636,-214,-262,-5666,75,201,-373
2,4875716,-1453,527,-2629,-202,-264,-5663,66,204,-364
2,4875730,-1456,509,-2641,-201,-267,-5661,66,204,-364
2,4875744,-1450,515,-2641,-213,-265,-5672,66,204,-364
2,4875758,-1450,515,-2641,-213,-265,-5672,66,204,-364
2,4875773,-1452,493,-2639,-216,-267,-5669,66,204,-364
2,4875787,-1452,506,-2630,-207,-258,-5670,66,204,-364
2,4875799,-1452,506,-2630,-207,-258,-5670,66,204,-364
2,4875812,-1451,505,-2642,-204,-262,-5666,66,204,-364
2,4875827,-1448,500,-2628,-211,-263,-5668,73,207,-369
2,4875840,-1448,500,-2628,-211,-263,-5668,73,207,-369
2,4875853,-1445,449,-2633,-217,-264,-5665,73,207,-369
2,4875865,-1452,492,-2636,-213,-263,-5666,73,207,-369
2,4875878,-1452,492,-2636,-213,-263,-5666,73,207,-369
2,4875892,-1452,489,-2635,-205,-263,-5663,73,207,-369
2,4875905,-1448,489,-2632,-204,-263,-5666,73,207,-369
2,4875920,-1448,489,-2632,-204,-263,-5666,73,207,-369
2,4875934,-1451,468,-2645,-214,-263,-5658,73,207,-369
2,4875948,-1450,487,-2629,-214,-257,-5660,69,209,-359
2,4875961,-1450,487,-2629,-214,-257,-5660,69,209,-359
2,4875972,-1460,495,-2638,-210,-262,-5665,69,209,-359
2,4875985,-1454,496,-2632,-209,-260,-5659,69,209,-359
2,4876000,-1454,496,-2632,-209,-260,-5659,69,209,-359
2,4876014,-1457,486,-2642,-213,-260,-5658,69,209,-359
2,4876026,-1449,473,-2633,-208,-260,-5666,69,209,-359
2,4876040,-1449,473,-2633,-208,-260,-5666,69,209,-359
2,4876053,-1460,485,-2648,-202,-264,-5666,69,209,-359
2,4876064,-1456,486,-2636,-203,-252,-5662,66,222,-362
2,4876078,-1456,486,-2636,-203,-252,-5662,66,222,-362
2,4876092,-1458,497,-2640,-211,-251,-5665,66,222,-362
2,4876106,-1454,475,-2634,-212,-260,-5654,66,222,-362
2,4876121,-1454,475,-2634,-212,-260,-5654,66,222,-362
2,4876132,-1458,491,-2635,-213,-268,-5662,66,222,-362
2,4876146,-1458,496,-2641,-206,-262,-5657,66,222,-362
2,4876162,-1456,498,-2633,-211,-262,-5651,66,222,-362
2,4876177,-1456,498,-2633,-211,-262,-5651,66,222,-362
2,4876192,-1458,480,-2639,-206,-259,-5658,66,222,-362
2,4876207,-1458,480,-2630,-204,-260,-5663,73,223,-367
2,4876219,-1458,480,-2630,-204,-260,-5663,73,223,-367
2,4876234,-1458,490,-2631,-207,-258,-5660,73,223,-367
2,4876248,-1456,495,-2635,-207,-261,-5657,73,223,-367
2,4876260,-1456,495,-2635,-207,-261,-5657,73,223,-367
2,4876273,-1459,484,-2636,-217,-263,-5652,73,223,-367
2,4876288,-1455,491,-2640,-213,-254,-5657,73,223,-367
2,4876303,-1460,495,-2640,-205,-270,-5649,73,223,-367
2,4876315,-1460,495,-2640,-205,-270,-5649,73,223,-367
2,4876329,-1460,516,-2630,-209,-261,-5653,66,234,-370
2,4876343,-1457,502,-2630,-205,-260,-5654,66,234,-370
2,4876357,-1457,502,-2630,-205,-260,-5654,66,234,-370
2,4876372,-1461,534,-2637,-211,-255,-5660,66,234,-370
2,4876387,-1459,533,-2638,-204,-261,-5650,66,234,-370
2,4876395,-1459,533,-2638,-204,-261,-5650,66,234,-370
2,4876403,-1462,544,-2636,-205,-260,-5652,66,234,-370
2,4876418,-1462,544,-2636,-205,-260,-5652,66,234,-370
2,4876431,-1456,508,-2638,-211,-257,-5653,66,234,-370
2,4876446,-1461,531,-2637,-222,-260,-5661,66,230,-376
2,4876461,-1461,531,-2637,-222,-260,-5661,66,230,-376
2,4876473,-1458,516,-2634,-211,-266,-5661,66,230,-376
2,4876486,-1456,533,-2641,-209,-270,-5669,66,230,-376
2,4876500,-1456,533,-2641,-209,-270,-5669,66,230,-376
2,4876514,-1455,512,-2641,-215,-255,-5667,66,230,-376
2,4876527,-1448,524,-2641,-212,-260,-5669,66,230,-376
2,4876541,-1448,524,-2641,-212,-260,-5669,66,230,-376
2,4876556,-1458,512,-2642,-203,-265,-5661,66,230,-376
2,4876568,-1449,522,-2632,-206,-260,-5669,77,239,-375
2,4876582,-1449,522,-2632,-206,-260,-5669,77,239,-375
2,4876596,-1453,504,-2637,-213,-266,-5665,77,239,-375
2,4876609,-1449,496,-2637,-213,-263,-5659,77,239,-375
2,4876622,-1454,493,-2638,-211,-260,-5670,77,239,-375
2,4876637,-1454,493,-2638,-211,-260,-5670,77,239,-375
2,4876649,-1451,506,-2635,-207,-259,-5667,77,239,-375
2,4876665,-1454,477,-2637,-215,-267,-5658,77,239,-375
2,4876676,-1454,477,-2637,-215,-267,-5658,77,239,-375
2,4876689,-1450,470,-2637,-213,-262,-5666,85,245,-371
2,4876703,-1458,480,-2640,-204,-264,-5673,85,245,-371
2,4876717,-1458,480,-2640,-204,-264,-5673,85,245,-371
2,4876730,-1450,499,-2635,-207,-261,-5664,85,245,-371
2,4876743,-1453,472,-2631,-210,-259,-5663,85,245,-371
2,4876758,-1453,472,-2631,-210,-259,-5663,85,245,-371
2,4876772,-1453,483,-2639,-213,-265,-5658,85,245,-371
2,4876784,-1454,475,-2633,-211,-258,-5656,85,245,-371
2,4876797,-1454,475,-2633,-211,-258,-5656,85,245,-371
2,4876812,-1458,497,-2636,-202,-267,-5662,85,245,-371
2,4876825,-1455,481,-2635,-213,-266,-5660,71,247,-381
2,4876840,-1455,481,-2635,-213,-266,-5660,71,247,-381
2,4876855,-1455,491,-2637,-211,-259,-5658,71,247,-381
2,4876867,-1456,472,-2639,-210,-262,-5658,71,247,-381
2,4876881,-1456,472,-2639,-210,-262,-5658,71,247,-381
2,4876897,-1456,490,-2638,-207,-263,-5656,71,247,-381
2,4876909,-1453,488,-2640,-200,-265,-5660,71,247,-381
2,4876921,-1453,488,-2640,-200,-265,-5660,71,247,-381
2,4876936,-1456,497,-2636,-211,-258,-5661,71,247,-381
2,4876950,-1460,472,-2642,-206,-256,-5663,78,256,-380
2,4876963,-1459,489,-2637,-209,-268,-5655,78,256,-380
2,4876978,-1459,489,-2637,-209,-268,-5655,78,256,-380
2,4876992,-1463,494,-2639,-210,-264,-5655,78,256,-380
2,4877004,-1453,496,-2637,-209,-261,-5659,78,256,-380
2,4877018,-1453,496,-2637,-209,-261,-5659,78,256,-380
2,4877031,-1464,482,-2637,-215,-270,-5655,78,256,-380
2,4877045,-1455,485,-2634,-221,-259,-5661,78,256,-380
2,4877060,-1455,485,-2634,-221,-259,-5661,78,256,-380
2,4877074,-1461,497,-2634,-206,-260,-5650,73,255,-377
2,4877089,-1454,495,-2638,-206,-255,-5656,73,255,-377
2,4877103,-1454,495,-2638,-206,-255,-5656,73,255,-377
2,4877117,-1459,490,-2642,-212,-261,-5656,73,255,-377
2,4877130,-1456,491,-2638,-211,-263,-5655,73,255,-377
2,4877144,-1460,498,-2631,-214,-257,-5652,73,255,-377
2,4877157,-1460,498,-2631,-214,-257,-5652,73,255,-377
2,4877170,-1462,506,-2639,-215,-269,-5649,73,255,-377
2,4877184,-1458,501,-2634,-214,-266,-5653,78,266,-378
2,4877198,-1458,501,-2634,-214,-266,-5653,78,266,-378
2,4877210,-1461,519,-2641,-202,-268,-5651,78,266,-378
2,4877222,-1461,519,-2641,-202,-268,-5651,78,266,-378
2,4877236,-1459,533,-2634,-204,-255,-5654,78,266,-378
2,4877250,-1459,533,-2634,-204,-255,-5654,78,266,-378
2,4877258,-1459,533,-2634,-204,-255,-5654,78,266,-378
2,4877271,-1458,518,-2639,-217,-253,-5652,78,266,-378
2,4877285,-1459,525,-2652,-208,-260,-5657,78,266,-378
2,4877300,-1459,525,-2652,-208,-260,-5657,78,266,-378
2,4877316,-1455,521,-2635,-207,-258,-5657,73,281,-375
2,4877331,-1456,524,-2638,-206,-267,-5666,73,281,-375
2,4877342,-1456,524,-2638,-206,-267,-5666,73,281,-375
2,4877356,-1455,507,-2638,-215,-271,-5661,73,281,-375
2,4877369,-1454,510,-2635,-219,-257,-5662,73,281,-375
2,4877383,-1454,510,-2635,-219,-257,-5662,73,281,-375
2,4877396,-1456,508,-2633,-201,-265,-5669,73,281,-375
2,4877410,-1451,521,-2638,-206,-263,-5667,73,281,-375
2,4877423,-1451,521,-2638,-206,-263,-5667,73,281,-375
2,4877436,-1450,501,-2640,-213,-259,-5654,73,281,-375
2,4877452,-1443,500,-2635,-216,-257,-5662,71,287,-383
2,4877465,-1454,490,-2648,-208,-260,-5660,71,287,-383
2,4877478,-1454,490,-2648,-208,-260,-5660,71,287,-383
2,4877494,-1452,508,-2639,-205,-262,-5660,71,287,-383
2,4877508,-1453,487,-2641,-208,-255,-5658,71,287,-383
2,4877523,-1450,459,-2633,-213,-264,-5666,71,287,-383
2,4877538,-1450,459,-2633,-213,-264,-5666,71,287,-383
2,4877551,-1457,482,-2639,-212,-269,-5668,71,287,-383
2,4877565,-1452,492,-2633,-201,-265,-5665,87,297,-377
2,4877577,-1452,492,-2633,-201,-265,-5665,87,297,-377
2,4877590,-1453,483,-2631,-207,-269,-5661,87,297,-377
2,4877603,-1449,476,-2645,-212,-269,-5665,87,297,-377
2,4877617,-1449,476,-2645,-212,-269,-5665,87,297,-377
2,4877631,-1449,481,-2635,-207,-262,-5664,87,297,-377
2,4877643,-1456,491,-2637,-204,-271,-5663,87,297,-377
2,4877656,-1456,491,-2637,-204,-271,-5663,87,297,-377
2,4877669,-1452,483,-2640,-204,-261,-5663,87,297,-377
2,4877680,-1452,483,-2640,-204,-261,-5663,87,297,-377
2,4877691,-1457,493,-2639,-209,-266,-5661,101,303,-367
2,4877705,-1451,471,-2633,-209,-259,-5658,101,303,-367
2,4877720,-1451,471,-2633,-209,-259,-5658,101,303,-367
2,4877735,-1455,486,-2640,-202,-261,-5655,101,303,-367
2,4877752,-1456,477,-2636,-207,-267,-5662,101,303,-367
2,4877766,-1458,498,-2642,-213,-257,-5660,101,303,-367
2,4877778,-1458,498,-2642,-213,-257,-5660,101,303,-367
2,4877793,-1457,474,-2639,-211,-261,-5660,101,303,-367
2,4877806,-1457,494,-2637,-209,-266,-5660,112,306,-360
2,4877819,-1457,494,-2637,-209,-266,-5660,112,306,-360
2,4877833,-1459,487,-2645,-208,-270,-5661,112,306,-360
2,4877847,-1454,499,-2633,-210,-264,-5655,112,306,-360
2,4877858,-1454,499,-2633,-210,-264,-5655,112,306,-360
2,4877872,-1459,484,-2637,-206,-255,-5657,112,306,-360
2,4877885,-1453,490,-2633,-200,-267,-5654,112,306,-360
2,4877899,-1453,490,-2633,-200,-267,-5654,112,306,-360
