imu,time,ax,ay,az,gx,gy,gz,mx,my,mz
0,6642205,199,-1873,-379,-1031,-568,-323,317,147,-405
0,6642213,199,-1874,-383,-1025,-564,-324,317,147,-405
0,6642219,199,-1874,-383,-1025,-564,-324,317,147,-405
0,6642224,199,-1874,-383,-1025,-564,-324,317,147,-405
0,6642229,198,-1875,-382,-1028,-567,-326,317,147,-405
0,6642234,198,-1875,-382,-1028,-567,-326,317,147,-405
0,6642239,198,-1875,-382,-1028,-567,-326,317,147,-405
0,6642244,198,-1875,-382,-1028,-567,-326,317,147,-405
0,6642249,196,-1873,-377,-1025,-568,-321,317,147,-405
0,6642254,196,-1873,-377,-1025,-568,-321,317,147,-405
0,6642259,196,-1873,-377,-1025,-568,-321,317,147,-405
0,6642265,196,-1873,-377,-1025,-568,-321,317,147,-405
0,6642271,202,-1872,-384,-1022,-568,-328,317,147,-405
0,6642278,202,-1872,-384,-1022,-568,-328,317,147,-405
0,6642283,202,-1872,-384,-1022,-568,-328,317,147,-405
0,6642290,196,-1874,-384,-1025,-567,-332,308,148,-402
0,6642295,196,-1874,-384,-1025,-567,-332,308,148,-402
0,6642301,196,-1874,-384,-1025,-567,-332,308,148,-402
0,6642309,198,-1874,-380,-1026,-569,-326,308,148,-402
0,6642315,198,-1874,-380,-1026,-569,-326,308,148,-402
0,6642320,198,-1874,-380,-1026,-569,-326,308,148,-402
0,6642325,198,-1874,-380,-1026,-569,-326,308,148,-402
0,6642331,203,-1875,-386,-1027,-565,-325,308,148,-402
0,6642336,203,-1875,-386,-1027,-565,-325,308,148,-402
0,6642341,203,-1875,-386,-1027,-565,-325,308,148,-402
0,6642348,203,-1875,-386,-1027,-565,-325,308,148,-402
0,6642352,201,-1874,-391,-1025,-561,-324,308,148,-402
0,6642359,201,-1874,-391,-1025,-561,-324,308,148,-402
0,6642365,201,-1874,-391,-1025,-561,-324,308,148,-402
0,6642373,197,-1873,-380,-1029,-570,-331,308,148,-402
0,6642380,197,-1873,-380,-1029,-570,-331,308,148,-402
0,6642388,197,-1873,-380,-1029,-570,-331,308,148,-402
0,6642396,199,-1878,-385,-1026,-570,-327,308,148,-402
0,6642403,199,-1878,-385,-1026,-570,-327,308,148,-402
0,6642409,200,-1875,-386,-1039,-564,-325,307,149,-399
0,6642414,200,-1875,-386,-1039,-564,-325,307,149,-399
0,6642420,200,-1875,-386,-1039,-564,-325,307,149,-399
0,6642427,200,-1875,-386,-1039,-564,-325,307,149,-399
0,6642433,202,-1875,-382,-1037,-565,-325,307,149,-399
0,6642441,202,-1875,-382,-1037,-565,-325,307,149,-399
0,6642449,202,-1875,-382,-1037,-565,-325,307,149,-399
0,6642456,200,-1875,-381,-1024,-567,-327,307,149,-399
0,6642462,200,-1875,-381,-1024,-567,-327,307,149,-399
0,6642469,201,-1874,-381,-1033,-572,-328,307,149,-399
0,6642477,201,-1874,-381,-1033,-572,-328,307,149,-399
0,6642482,201,-1874,-381,-1033,-572,-328,307,149,-399
0,6642490,199,-1872,-383,-1032,-568,-322,307,149,-399
0,6642497,199,-1872,-383,-1032,-568,-322,307,149,-399
0,6642505,199,-1872,-383,-1032,-568,-322,307,149,-399
0,6642510,200,-1874,-382,-1027,-565,-328,307,149,-399
0,6642518,200,-1874,-382,-1027,-565,-328,307,149,-399
0,6642525,200,-1874,-382,-1027,-565,-328,307,149,-399
0,6642531,198,-1873,-385,-1022,-567,-327,307,149,-399
0,6642539,198,-1873,-385,-1022,-567,-327,307,149,-399
0,6642546,198,-1873,-385,-1022,-567,-327,307,149,-399
0,6642553,200,-1874,-381,-1028,-567,-322,319,147,-405
0,6642562,200,-1874,-381,-1028,-567,-322,319,147,-405
0,6642569,200,-1874,-381,-1028,-567,-322,319,147,-405
0,6642577,203,-1872,-382,-1031,-565,-328,319,147,-405
0,6642582,203,-1872,-382,-1031,-565,-328,319,147,-405
0,6642589,203,-1872,-382,-1031,-565,-328,319,147,-405
0,6642594,202,-1875,-382,-1034,-559,-325,319,147,-405
0,6642599,202,-1875,-382,-1034,-559,-325,319,147,-405
0,6642605,202,-1875,-382,-1034,-559,-325,319,147,-405
0,6642610,199,-1875,-382,-1032,-565,-328,319,147,-405
0,6642615,199,-1875,-382,-1032,-565,-328,319,147,-405
0,6642620,199,-1875,-382,-1032,-565,-328,319,147,-405
0,6642627,199,-1875,-382,-1032,-565,-328,319,147,-405
0,6642633,202,-1873,-380,-1030,-562,-321,319,147,-405
0,6642641,202,-1873,-380,-1030,-562,-321,319,147,-405
0,6642649,202,-1873,-380,-1030,-562,-321,319,147,-405
0,6642656,199,-1877,-386,-1032,-567,-330,319,147,-405
0,6642663,199,-1877,-386,-1032,-567,-330,319,147,-405
0,6642669,200,-1873,-381,-1033,-571,-334,319,147,-405
0,6642676,200,-1873,-381,-1033,-571,-334,310,150,-394
0,6642683,200,-1873,-381,-1033,-571,-334,310,150,-394
0,6642692,201,-1876,-382,-1026,-566,-329,310,150,-394
0,6642698,201,-1876,-382,-1026,-566,-329,310,150,-394
0,6642706,201,-1876,-382,-1026,-566,-329,310,150,-394
0,6642713,202,-1874,-381,-1032,-561,-322,310,150,-394
0,6642719,202,-1874,-381,-1032,-561,-322,310,150,-394
0,6642726,202,-1874,-381,-1032,-561,-322,310,150,-394
0,6642733,203,-1874,-380,-1037,-562,-327,310,150,-394
0,6642741,203,-1874,-380,-1037,-562,-327,310,150,-394
0,6642748,203,-1874,-380,-1037,-562,-327,310,150,-394
0,6642756,200,-1875,-385,-1028,-563,-333,310,150,-394
0,6642764,200,-1875,-385,-1028,-563,-333,310,150,-394
0,6642771,197,-1875,-382,-1022,-557,-323,310,150,-394
0,6642778,197,-1875,-382,-1022,-557,-323,310,150,-394
0,6642786,197,-1875,-382,-1022,-557,-323,310,150,-394
0,6642791,200,-1875,-385,-1026,-566,-319,310,150,-394
0,6642798,200,-1875,-385,-1026,-566,-319,310,150,-394
0,6642807,200,-1875,-385,-1026,-566,-319,310,150,-394
0,6642819,199,-1873,-385,-1026,-562,-326,314,154,-402
0,6642829,199,-1873,-385,-1026,-562,-326,314,154,-402
0,6642837,200,-1873,-390,-1024,-563,-330,314,154,-402
0,6642844,200,-1873,-390,-1024,-563,-330,314,154,-402
0,6642852,200,-1873,-384,-1030,-567,-331,314,154,-402
0,6642861,200,-1873,-384,-1030,-567,-331,314,154,-402
0,6642872,200,-1874,-384,-1027,-566,-332,314,154,-402
0,6642885,200,-1874,-384,-1027,-566,-332,314,154,-402
0,6642899,201,-1876,-386,-1030,-565,-326,314,154,-402
0,6642913,199,-1873,-384,-1029,-568,-327,314,154,-402
0,6642926,199,-1873,-384,-1029,-568,-327,314,154,-402
0,6642937,198,-1871,-381,-1034,-570,-326,312,152,-406
0,6642951,199,-1875,-378,-1030,-570,-333,312,152,-406
0,6642964,199,-1875,-378,-1030,-570,-333,312,152,-406
0,6642977,201,-1873,-382,-1027,-570,-332,312,152,-406
0,6642989,201,-1873,-382,-1027,-570,-332,312,152,-406
0,6643001,198,-1873,-384,-1035,-568,-327,312,152,-406
0,6643015,201,-1875,-380,-1036,-569,-331,312,152,-406
0,6643026,201,-1875,-380,-1036,-569,-331,312,152,-406
0,6643039,199,-1873,-386,-1027,-572,-325,312,152,-406
0,6643052,202,-1877,-385,-1025,-568,-330,312,152,-406
0,6643066,202,-1877,-385,-1025,-568,-330,312,152,-406
0,6643079,203,-1874,-379,-1031,-566,-326,312,146,-406
0,6643091,201,-1875,-387,-1033,-566,-320,312,146,-406
0,6643104,201,-1875,-387,-1033,-566,-320,312,146,-406
0,6643117,199,-1876,-387,-1037,-565,-325,312,146,-406
0,6643129,199,-1876,-387,-1037,-565,-325,312,146,-406
0,6643140,201,-1873,-387,-1039,-568,-329,312,146,-406
0,6643153,202,-1875,-389,-1035,-567,-328,312,146,-406
0,6643166,202,-1875,-389,-1035,-567,-328,312,146,-406
0,6643178,198,-1874,-385,-1038,-568,-329,312,146,-406
0,6643187,198,-1874,-385,-1038,-568,-329,312,146,-406
0,6643201,200,-1875,-380,-1030,-566,-325,309,157,-405
0,6643208,200,-1875,-380,-1030,-566,-325,309,157,-405
0,6643219,200,-1873,-385,-1030,-571,-324,309,157,-405
0,6643232,200,-1874,-381,-1033,-569,-323,309,157,-405
0,6643245,200,-1874,-381,-1033,-569,-323,309,157,-405
0,6643253,196,-1874,-381,-1028,-566,-316,309,157,-405
0,6643261,196,-1874,-381,-1028,-566,-316,309,157,-405
0,6643270,202,-1876,-385,-1031,-570,-323,309,157,-405
0,6643278,202,-1876,-385,-1031,-570,-323,309,157,-405
0,6643288,202,-1876,-385,-1031,-570,-323,309,157,-405
0,6643297,203,-1875,-386,-1026,-569,-320,309,157,-405
0,6643305,203,-1875,-386,-1026,-569,-320,309,157,-405
0,6643312,201,-1875,-386,-1024,-570,-327,307,145,-405
0,6643320,201,-1875,-386,-1024,-570,-327,307,145,-405
0,6643329,201,-1875,-386,-1024,-570,-327,307,145,-405
0,6643337,201,-1873,-388,-1025,-564,-328,307,145,-405
0,6643345,201,-1873,-388,-1025,-564,-328,307,145,-405
0,6643353,201,-1876,-380,-1027,-565,-327,307,145,-405
0,6643360,201,-1876,-380,-1027,-565,-327,307,145,-405
0,6643368,201,-1876,-380,-1027,-565,-327,307,145,-405
0,6643376,201,-1872,-390,-1038,-567,-316,307,145,-405
0,6643384,201,-1872,-390,-1038,-567,-316,307,145,-405
0,6643391,202,-1873,-379,-1029,-566,-325,307,145,-405
0,6643400,202,-1873,-379,-1029,-566,-325,307,145,-405
0,6643412,201,-1876,-382,-1024,-558,-325,307,145,-405
0,6643422,201,-1876,-382,-1024,-558,-325,307,145,-405
0,6643434,202,-1876,-387,-1021,-563,-331,307,145,-405
0,6643447,202,-1876,-387,-1021,-563,-331,307,145,-405
0,6643458,201,-1874,-378,-1028,-571,-325,303,149,-405
0,6643466,201,-1874,-378,-1028,-571,-325,303,149,-405
0,6643474,200,-1873,-383,-1029,-566,-327,303,149,-405
0,6643481,200,-1873,-383,-1029,-566,-327,303,149,-405
0,6643489,200,-1873,-383,-1029,-566,-327,303,149,-405
0,6643502,200,-1872,-386,-1038,-570,-328,303,149,-405
0,6643516,200,-1871,-386,-1032,-565,-325,303,149,-405
0,6643526,200,-1871,-386,-1032,-565,-325,303,149,-405
0,6643536,198,-1874,-384,-1034,-568,-321,303,149,-405
0,6643551,197,-1874,-383,-1027,-567,-321,303,149,-405
0,6643566,197,-1874,-383,-1027,-567,-321,303,149,-405
0,6643575,200,-1875,-380,-1031,-567,-328,314,150,-406
0,6643587,200,-1875,-380,-1031,-567,-328,314,150,-406
0,6643595,203,-1872,-382,-1034,-564,-326,314,150,-406
0,6643602,203,-1872,-382,-1034,-564,-326,314,150,-406
0,6643610,203,-1872,-382,-1034,-564,-326,314,150,-406
0,6643618,201,-1874,-381,-1025,-569,-325,314,150,-406
0,6643632,197,-1873,-383,-1023,-569,-323,314,150,-406
0,6643644,197,-1873,-383,-1023,-569,-323,314,150,-406
0,6643657,202,-1872,-388,-1026,-575,-323,314,150,-406
0,6643672,199,-1871,-385,-1028,-577,-328,314,150,-406
0,6643684,199,-1871,-385,-1028,-577,-328,314,150,-406
0,6643695,200,-1877,-381,-1029,-561,-324,314,150,-406
0,6643706,200,-1877,-381,-1029,-561,-324,314,150,-406
0,6643720,202,-1875,-374,-1031,-561,-327,320,144,-404
0,6643735,198,-1876,-386,-1028,-564,-329,320,144,-404
0,6643746,198,-1876,-386,-1028,-564,-329,320,144,-404
0,6643761,201,-1876,-386,-1034,-567,-328,320,144,-404
0,6643775,202,-1874,-384,-1020,-562,-332,320,144,-404
0,6643788,202,-1874,-384,-1020,-562,-332,320,144,-404
0,6643800,202,-1875,-386,-1030,-568,-328,320,144,-404
0,6643813,206,-1875,-389,-1031,-574,-328,320,144,-404
0,6643821,206,-1875,-389,-1031,-574,-328,320,144,-404
0,6643828,206,-1875,-389,-1031,-574,-328,320,144,-404
0,6643835,201,-1873,-379,-1023,-571,-325,308,144,-408
0,6643842,201,-1873,-379,-1023,-571,-325,308,144,-408
0,6643850,201,-1873,-379,-1023,-571,-325,308,144,-408
0,6643856,200,-1873,-381,-1026,-566,-323,308,144,-408
0,6643863,200,-1873,-381,-1026,-566,-323,308,144,-408
0,6643869,200,-1873,-381,-1026,-566,-323,308,144,-408
0,6643876,202,-1873,-386,-1034,-568,-330,308,144,-408
0,6643883,202,-1873,-386,-1034,-568,-330,308,144,-408
0,6643889,202,-1873,-386,-1034,-568,-330,308,144,-408
0,6643896,201,-1873,-386,-1028,-576,-331,308,144,-408
0,6643902,201,-1873,-386,-1028,-576,-331,308,144,-408
0,6643909,201,-1873,-386,-1028,-576,-331,308,144,-408
0,6643915,199,-1873,-379,-1032,-568,-324,308,144,-408
0,6643921,199,-1873,-379,-1032,-568,-324,308,144,-408
0,6643930,199,-1873,-379,-1032,-568,-324,308,144,-408
0,6643938,200,-1875,-381,-1030,-559,-325,308,144,-408
0,6643946,200,-1875,-381,-1030,-559,-325,308,144,-408
0,6643953,198,-1875,-383,-1037,-563,-326,308,144,-408
0,6643959,198,-1875,-383,-1037,-563,-326,308,144,-408
0,6643966,198,-1875,-383,-1037,-563,-326,308,144,-408
0,6643975,199,-1872,-383,-1031,-567,-327,315,141,-389
0,6643981,199,-1872,-383,-1031,-567,-327,315,141,-389
0,6643987,199,-1872,-383,-1031,-567,-327,315,141,-389
0,6643995,199,-1873,-380,-1029,-570,-328,315,141,-389
0,6644002,199,-1873,-380,-1029,-570,-328,315,141,-389
0,6644009,199,-1873,-380,-1029,-570,-328,315,141,-389
0,6644017,200,-1876,-385,-1027,-570,-333,315,141,-389
0,6644025,200,-1876,-385,-1027,-570,-333,315,141,-389
0,6644030,200,-1876,-385,-1027,-570,-333,315,141,-389
0,6644036,198,-1876,-392,-1028,-562,-336,315,141,-389
0,6644040,198,-1876,-392,-1028,-562,-336,315,141,-389
0,6644047,198,-1876,-392,-1028,-562,-336,315,141,-389
0,6644055,200,-1873,-389,-1024,-569,-336,315,141,-389
0,6644063,200,-1873,-389,-1024,-569,-336,315,141,-389
0,6644069,200,-1873,-389,-1024,-569,-336,315,141,-389
0,6644076,199,-1876,-390,-1017,-564,-324,315,141,-389
0,6644083,199,-1876,-390,-1017,-564,-324,315,141,-389
0,6644090,199,-1876,-390,-1017,-564,-324,315,141,-389
0,6644098,200,-1876,-380,-1023,-563,-325,305,143,-399
0,6644104,200,-1876,-380,-1023,-563,-325,305,143,-399
0,6644111,200,-1876,-380,-1023,-563,-325,305,143,-399
0,6644118,200,-1874,-383,-1024,-562,-326,305,143,-399
0,6644125,200,-1874,-383,-1024,-562,-326,305,143,-399
0,6644132,200,-1876,-386,-1025,-562,-322,305,143,-399
0,6644140,200,-1876,-386,-1025,-562,-322,305,143,-399
0,6644147,200,-1876,-386,-1025,-562,-322,305,143,-399
0,6644155,200,-1876,-386,-1025,-562,-322,305,143,-399
0,6644164,200,-1876,-386,-1025,-562,-322,305,143,-399
0,6644172,201,-1877,-384,-1029,-571,-323,305,143,-399
0,6644178,201,-1877,-384,-1029,-571,-323,305,143,-399
0,6644186,201,-1877,-384,-1029,-571,-323,305,143,-399
0,6644194,196,-1873,-384,-1022,-572,-328,305,143,-399
0,6644201,196,-1873,-384,-1022,-572,-328,305,143,-399
0,6644207,196,-1873,-384,-1022,-572,-328,305,143,-399
0,6644214,198,-1874,-386,-1026,-568,-321,320,148,-394
0,6644222,198,-1874,-386,-1026,-568,-321,320,148,-394
0,6644231,198,-1874,-386,-1026,-568,-321,320,148,-394
0,6644238,198,-1875,-383,-1027,-562,-327,320,148,-394
0,6644244,198,-1875,-383,-1027,-562,-327,320,148,-394
0,6644250,198,-1875,-383,-1027,-562,-327,320,148,-394
0,6644258,198,-1875,-386,-1025,-564,-323,320,148,-394
0,6644265,198,-1875,-386,-1025,-564,-323,320,148,-394
0,6644273,195,-1873,-383,-1027,-565,-319,320,148,-394
0,6644281,195,-1873,-383,-1027,-565,-319,320,148,-394
0,6644287,195,-1873,-383,-1027,-565,-319,320,148,-394
0,6644294,199,-1872,-385,-1026,-562,-334,320,148,-394
0,6644299,199,-1872,-385,-1026,-562,-334,320,148,-394
0,6644304,199,-1872,-385,-1026,-562,-334,320,148,-394
0,6644310,199,-1872,-385,-1026,-562,-334,320,148,-394
0,6644315,202,-1872,-382,-1024,-566,-328,320,148,-394
0,6644320,202,-1872,-382,-1024,-566,-328,320,148,-394
0,6644325,202,-1872,-382,-1024,-566,-328,320,148,-394
0,6644330,202,-1872,-382,-1024,-566,-328,320,148,-394
0,6644338,197,-1873,-384,-1027,-571,-327,320,148,-394
0,6644345,197,-1873,-384,-1027,-571,-327,320,148,-394
0,6644352,198,-1875,-379,-1033,-569,-328,312,154,-398
0,6644358,198,-1875,-379,-1033,-569,-328,312,154,-398
0,6644366,198,-1875,-379,-1033,-569,-328,312,154,-398
0,6644374,198,-1872,-383,-1029,-565,-318,312,154,-398
0,6644382,198,-1872,-383,-1029,-565,-318,312,154,-398
0,6644388,198,-1872,-383,-1029,-565,-318,312,154,-398
0,6644396,198,-1874,-381,-1032,-564,-328,312,154,-398
0,6644402,198,-1874,-381,-1032,-564,-328,312,154,-398
0,6644408,198,-1874,-381,-1032,-564,-328,312,154,-398
0,6644416,201,-1876,-383,-1021,-568,-320,312,154,-398
0,6644423,201,-1876,-383,-1021,-568,-320,312,154,-398
0,6644431,201,-1876,-383,-1021,-568,-320,312,154,-398
0,6644438,198,-1874,-383,-1025,-562,-324,312,154,-398
0,6644445,198,-1874,-383,-1025,-562,-324,312,154,-398
0,6644453,200,-1873,-380,-1026,-563,-321,312,154,-398
0,6644460,200,-1873,-380,-1026,-563,-321,312,154,-398
0,6644467,200,-1873,-380,-1026,-563,-321,312,154,-398
0,6644474,201,-1876,-382,-1029,-565,-326,312,150,-404
0,6644482,201,-1876,-382,-1029,-565,-326,312,150,-404
0,6644489,201,-1876,-382,-1029,-565,-326,312,150,-404
0,6644496,199,-1873,-382,-1026,-563,-326,312,150,-404
0,6644503,199,-1873,-382,-1026,-563,-326,312,150,-404
0,6644511,199,-1873,-382,-1026,-563,-326,312,150,-404
0,6644516,199,-1873,-383,-1030,-568,-327,312,150,-404
0,6644521,199,-1873,-383,-1030,-568,-327,312,150,-404
0,6644527,199,-1873,-383,-1030,-568,-327,312,150,-404
0,6644535,200,-1872,-382,-1029,-566,-319,312,150,-404
0,6644542,200,-1872,-382,-1029,-566,-319,312,150,-404
0,6644550,200,-1872,-382,-1029,-566,-319,312,150,-404
0,6644556,201,-1875,-385,-1043,-571,-325,312,150,-404
0,6644563,201,-1875,-385,-1043,-571,-325,312,150,-404
0,6644570,201,-1875,-385,-1043,-571,-325,312,150,-404
0,6644576,201,-1874,-388,-1030,-565,-324,312,150,-404
0,6644583,201,-1874,-388,-1030,-565,-324,312,150,-404
0,6644590,201,-1874,-388,-1030,-565,-324,312,150,-404
0,6644596,199,-1873,-384,-1028,-564,-311,312,150,-404
0,6644600,199,-1873,-384,-1028,-564,-311,312,150,-404
0,6644605,199,-1873,-384,-1028,-564,-311,312,150,-404
0,6644611,199,-1873,-384,-1028,-564,-311,312,150,-404
0,6644616,200,-1874,-379,-1029,-562,-321,310,162,-408
0,6644624,200,-1874,-379,-1029,-562,-321,310,162,-408
0,6644633,199,-1872,-386,-1022,-568,-322,310,162,-408
0,6644638,199,-1872,-386,-1022,-568,-322,310,162,-408
0,6644645,199,-1872,-386,-1022,-568,-322,310,162,-408
0,6644653,201,-1871,-380,-1034,-567,-330,310,162,-408
0,6644661,201,-1871,-380,-1034,-567,-330,310,162,-408
0,6644668,201,-1871,-380,-1034,-567,-330,310,162,-408
0,6644675,202,-1875,-381,-1036,-572,-322,310,162,-408
0,6644682,202,-1875,-381,-1036,-572,-322,310,162,-408
0,6644688,202,-1875,-381,-1036,-572,-322,310,162,-408
0,6644695,198,-1871,-383,-1032,-571,-325,310,162,-408
0,6644703,198,-1871,-383,-1032,-571,-325,310,162,-408
0,6644710,198,-1871,-383,-1032,-571,-325,310,162,-408
0,6644718,196,-1877,-384,-1027,-566,-330,310,162,-408
0,6644725,196,-1877,-384,-1027,-566,-330,310,162,-408
0,6644732,199,-1875,-382,-1026,-570,-326,316,152,-394
0,6644740,199,-1875,-382,-1026,-570,-326,316,152,-394
0,6644747,199,-1875,-382,-1026,-570,-326,316,152,-394
0,6644753,200,-1877,-381,-1029,-563,-323,316,152,-394
0,6644760,200,-1877,-381,-1029,-563,-323,316,152,-394
0,6644767,200,-1877,-381,-1029,-563,-323,316,152,-394
0,6644775,201,-1875,-385,-1034,-569,-330,316,152,-394
0,6644782,201,-1875,-385,-1034,-569,-330,316,152,-394
0,6644788,201,-1875,-385,-1034,-569,-330,316,152,-394
0,6644795,198,-1874,-387,-1032,-570,-328,316,152,-394
0,6644802,198,-1874,-387,-1032,-570,-328,316,152,-394
0,6644809,198,-1874,-387,-1032,-570,-328,316,152,-394
0,6644817,198,-1872,-384,-1032,-565,-324,316,152,-394
0,6644829,198,-1872,-384,-1032,-565,-324,316,152,-394
0,6644843,201,-1876,-390,-1031,-565,-327,316,152,-394
0,6644855,200,-1874,-384,-1036,-573,-327,312,144,-398
0,6644865,200,-1874,-384,-1036,-573,-327,312,144,-398
0,6644877,198,-1874,-385,-1030,-562,-327,312,144,-398
0,6644890,198,-1874,-385,-1030,-562,-327,312,144,-398
0,6644903,200,-1874,-380,-1035,-562,-322,312,144,-398
0,6644913,199,-1873,-381,-1034,-565,-320,312,144,-398
0,6644925,199,-1873,-381,-1034,-565,-320,312,144,-398
0,6644939,201,-1873,-380,-1037,-564,-327,312,144,-398
0,6644953,200,-1875,-378,-1025,-569,-326,312,144,-398
0,6644963,200,-1875,-378,-1025,-569,-326,312,144,-398
0,6644976,198,-1874,-380,-1036,-575,-332,312,144,-398
0,6644989,198,-1874,-380,-1036,-575,-332,312,144,-398
0,6645003,199,-1876,-378,-1027,-576,-323,312,150,-412
0,6645013,198,-1873,-385,-1032,-572,-321,312,150,-412
0,6645026,198,-1873,-385,-1032,-572,-321,312,150,-412
0,6645040,199,-1875,-382,-1032,-570,-323,312,150,-412
0,6645053,201,-1875,-387,-1029,-569,-325,312,150,-412
0,6645061,201,-1875,-387,-1029,-569,-325,312,150,-412
0,6645073,197,-1874,-383,-1025,-573,-332,312,150,-412
0,6645084,197,-1874,-383,-1025,-573,-332,312,150,-412
0,6645095,199,-1874,-385,-1024,-565,-328,312,150,-412
0,6645107,199,-1874,-385,-1024,-565,-328,312,150,-412
0,6645116,200,-1872,-382,-1027,-571,-320,309,149,-401
0,6645125,200,-1872,-382,-1027,-571,-320,309,149,-401
0,6645133,199,-1875,-377,-1027,-570,-326,309,149,-401
0,6645141,199,-1875,-377,-1027,-570,-326,309,149,-401
0,6645155,198,-1875,-377,-1027,-564,-337,309,149,-401
0,6645167,198,-1875,-377,-1027,-564,-337,309,149,-401
0,6645179,200,-1872,-382,-1038,-562,-330,309,149,-401
0,6645191,200,-1872,-382,-1038,-562,-330,309,149,-401
0,6645203,197,-1875,-393,-1032,-567,-327,309,149,-401
0,6645216,198,-1874,-388,-1025,-568,-320,309,149,-401
0,6645229,198,-1874,-388,-1025,-568,-320,309,149,-401
0,6645241,199,-1871,-384,-1021,-566,-320,309,149,-401
0,6645254,200,-1873,-378,-1023,-567,-326,315,147,-397
0,6645266,200,-1873,-378,-1023,-567,-326,315,147,-397
0,6645279,200,-1874,-384,-1036,-566,-328,315,147,-397
0,6645293,200,-1874,-384,-1036,-566,-328,315,147,-397
0,6645300,196,-1876,-385,-1028,-564,-326,315,147,-397
0,6645308,196,-1876,-385,-1028,-564,-326,315,147,-397
0,6645316,200,-1877,-393,-1030,-569,-327,315,147,-397
0,6645325,200,-1877,-393,-1030,-569,-327,315,147,-397
0,6645334,199,-1877,-385,-1031,-569,-324,315,147,-397
0,6645342,199,-1877,-385,-1031,-569,-324,315,147,-397
0,6645350,199,-1877,-385,-1031,-569,-324,315,147,-397
0,6645358,198,-1875,-380,-1037,-572,-340,315,147,-397
0,6645366,198,-1875,-380,-1037,-572,-340,315,147,-397
0,6645374,200,-1874,-379,-1026,-570,-326,307,141,-405
0,6645383,200,-1874,-379,-1026,-570,-326,307,141,-405
0,6645391,200,-1874,-379,-1026,-570,-326,307,141,-405
0,6645399,199,-1873,-382,-1036,-569,-325,307,141,-405
0,6645409,199,-1873,-382,-1036,-569,-325,307,141,-405
0,6645423,199,-1876,-380,-1037,-566,-329,307,141,-405
0,6645435,199,-1872,-385,-1028,-557,-326,307,141,-405
0,6645448,199,-1872,-385,-1028,-557,-326,307,141,-405
0,6645462,197,-1872,-381,-1031,-563,-331,307,141,-405
0,6645476,199,-1871,-381,-1028,-568,-327,307,141,-405
0,6645489,199,-1871,-381,-1028,-568,-327,307,141,-405
0,6645498,199,-1873,-384,-1027,-567,-322,307,141,-405
0,6645512,199,-1873,-384,-1027,-567,-322,307,141,-405
0,6645524,202,-1873,-379,-1041,-569,-321,310,144,-412
0,6645536,200,-1875,-380,-1029,-564,-325,310,144,-412
0,6645548,200,-1875,-380,-1029,-564,-325,310,144,-412
0,6645562,200,-1872,-390,-1028,-566,-332,310,144,-412
0,6645573,200,-1872,-390,-1028,-566,-332,310,144,-412
0,6645585,199,-1874,-381,-1022,-570,-325,310,144,-412
0,6645594,201,-1874,-382,-1029,-573,-320,310,144,-412
0,6645602,201,-1874,-382,-1029,-573,-320,310,144,-412
0,6645610,201,-1874,-382,-1029,-573,-320,310,144,-412
0,6645619,197,-1872,-386,-1022,-566,-315,310,144,-412
0,6645630,197,-1872,-386,-1022,-566,-315,310,144,-412
0,6645642,199,-1874,-380,-1021,-562,-326,310,144,-406
0,6645654,199,-1877,-381,-1037,-568,-332,310,144,-406
0,6645666,199,-1877,-381,-1037,-568,-332,310,144,-406
0,6645680,199,-1876,-385,-1034,-568,-325,310,144,-406
0,6645694,201,-1874,-380,-1025,-562,-319,310,144,-406
0,6645706,201,-1874,-380,-1025,-562,-319,310,144,-406
0,6645716,201,-1874,-385,-1024,-565,-323,310,144,-406
0,6645728,201,-1874,-385,-1024,-565,-323,310,144,-406
0,6645736,199,-1872,-389,-1025,-564,-325,310,144,-406
0,6645744,199,-1872,-389,-1025,-564,-325,310,144,-406
0,6645752,199,-1872,-389,-1025,-564,-325,310,144,-406
0,6645761,200,-1875,-386,-1024,-566,-325,307,149,-407
0,6645770,200,-1875,-386,-1024,-566,-325,307,149,-407
0,6645781,200,-1874,-381,-1022,-570,-326,307,149,-407
0,6645793,200,-1874,-381,-1022,-570,-326,307,149,-407
0,6645806,200,-1875,-379,-1032,-570,-330,307,149,-407
0,6645816,202,-1873,-380,-1034,-568,-321,307,149,-407
0,6645830,202,-1873,-380,-1034,-568,-321,307,149,-407
0,6645837,201,-1875,-387,-1025,-570,-325,307,149,-407
0,6645844,201,-1875,-387,-1025,-570,-325,307,149,-407
0,6645850,201,-1875,-387,-1025,-570,-325,307,149,-407
0,6645858,197,-1877,-379,-1027,-569,-330,307,149,-407
0,6645867,197,-1877,-379,-1027,-569,-330,307,149,-407
0,6645873,197,-1877,-379,-1027,-569,-330,307,149,-407
0,6645880,202,-1874,-379,-1035,-571,-328,307,149,-407
0,6645888,202,-1874,-379,-1035,-571,-328,307,149,-407
0,6645894,199,-1872,-381,-1029,-564,-323,311,147,-397
0,6645900,199,-1872,-381,-1029,-564,-323,311,147,-397
0,6645907,199,-1872,-381,-1029,-564,-323,311,147,-397
0,6645914,198,-1878,-381,-1024,-557,-321,311,147,-397
0,6645921,198,-1878,-381,-1024,-557,-321,311,147,-397
0,6645929,198,-1878,-381,-1024,-557,-321,311,147,-397
0,6645936,203,-1873,-386,-1033,-563,-326,311,147,-397
0,6645943,203,-1873,-386,-1033,-563,-326,311,147,-397
0,6645950,203,-1873,-386,-1033,-563,-326,311,147,-397
0,6645958,199,-1873,-389,-1034,-573,-323,311,147,-397
0,6645964,199,-1873,-389,-1034,-573,-323,311,147,-397
0,6645970,199,-1873,-389,-1034,-573,-323,311,147,-397
0,6645977,198,-1873,-384,-1034,-567,-323,311,147,-397
0,6645983,198,-1873,-384,-1034,-567,-323,311,147,-397
0,6645991,198,-1873,-384,-1034,-567,-323,311,147,-397
0,6645998,201,-1875,-385,-1037,-568,-327,311,147,-397
0,6646006,201,-1875,-385,-1037,-568,-327,311,147,-397
0,6646014,201,-1873,-382,-1029,-565,-329,312,152,-398
0,6646022,201,-1873,-382,-1029,-565,-329,312,152,-398
0,6646030,201,-1873,-382,-1029,-565,-329,312,152,-398
0,6646036,202,-1875,-380,-1033,-570,-329,312,152,-398
0,6646042,202,-1875,-380,-1033,-570,-329,312,152,-398
0,6646049,202,-1875,-380,-1033,-570,-329,312,152,-398
0,6646057,198,-1872,-380,-1038,-563,-331,312,152,-398
0,6646064,198,-1872,-380,-1038,-563,-331,312,152,-398
0,6646070,198,-1872,-380,-1038,-563,-331,312,152,-398
0,6646078,199,-1873,-389,-1036,-568,-323,312,152,-398
0,6646086,199,-1873,-389,-1036,-568,-323,312,152,-398
0,6646094,198,-1874,-388,-1025,-569,-328,312,152,-398
0,6646103,198,-1874,-388,-1025,-569,-328,312,152,-398
0,6646109,198,-1874,-388,-1025,-569,-328,312,152,-398
0,6646115,198,-1876,-387,-1027,-570,-330,312,152,-398
0,6646121,198,-1876,-387,-1027,-570,-330,312,152,-398
0,6646129,198,-1876,-387,-1027,-570,-330,312,152,-398
0,6646134,201,-1872,-390,-1038,-570,-325,312,152,-398
0,6646141,201,-1872,-390,-1038,-570,-325,312,152,-398
0,6646150,201,-1872,-390,-1038,-570,-325,312,152,-398
0,6646157,199,-1872,-376,-1022,-572,-321,318,142,-404
0,6646164,199,-1872,-376,-1022,-572,-321,318,142,-404
0,6646170,199,-1872,-376,-1022,-572,-321,318,142,-404
0,6646177,201,-1874,-381,-1025,-562,-319,318,142,-404
0,6646183,201,-1874,-381,-1025,-562,-319,318,142,-404
0,6646191,201,-1874,-381,-1025,-562,-319,318,142,-404
0,6646197,198,-1872,-379,-1023,-563,-328,318,142,-404
0,6646204,198,-1872,-379,-1023,-563,-328,318,142,-404
0,6646210,198,-1872,-379,-1023,-563,-328,318,142,-404
0,6646214,197,-1874,-388,-1032,-566,-330,318,142,-404
0,6646220,197,-1874,-388,-1032,-566,-330,318,142,-404
0,6646227,197,-1874,-388,-1032,-566,-330,318,142,-404
0,6646237,198,-1875,-382,-1041,-577,-328,318,142,-404
0,6646243,198,-1875,-382,-1041,-577,-328,318,142,-404
0,6646250,198,-1875,-382,-1041,-577,-328,318,142,-404
0,6646258,198,-1873,-388,-1039,-572,-322,318,142,-404
0,6646265,198,-1873,-388,-1039,-572,-322,318,142,-404
0,6646273,198,-1873,-388,-1039,-572,-322,318,142,-404
0,6646280,201,-1874,-373,-1026,-572,-324,319,153,-399
0,6646287,201,-1874,-373,-1026,-572,-324,319,153,-399
0,6646294,202,-1875,-372,-1027,-568,-331,319,153,-399
0,6646299,202,-1875,-372,-1027,-568,-331,319,153,-399
0,6646304,202,-1875,-372,-1027,-568,-331,319,153,-399
0,6646310,202,-1875,-372,-1027,-568,-331,319,153,-399
0,6646316,199,-1875,-384,-1026,-570,-329,319,153,-399
0,6646321,199,-1875,-384,-1026,-570,-329,319,153,-399
0,6646326,199,-1875,-384,-1026,-570,-329,319,153,-399
0,6646331,199,-1875,-384,-1026,-570,-329,319,153,-399
0,6646338,197,-1875,-385,-1028,-566,-315,319,153,-399
0,6646345,197,-1875,-385,-1028,-566,-315,319,153,-399
0,6646353,197,-1875,-385,-1028,-566,-315,319,153,-399
0,6646360,195,-1874,-382,-1031,-563,-328,319,153,-399
0,6646367,195,-1874,-382,-1031,-563,-328,319,153,-399
0,6646375,200,-1875,-384,-1033,-573,-329,319,153,-399
0,6646382,200,-1875,-384,-1033,-573,-329,319,153,-399
0,6646388,200,-1875,-384,-1033,-573,-329,319,153,-399
0,6646396,200,-1877,-386,-1031,-561,-325,319,153,-399
0,6646404,200,-1877,-386,-1031,-561,-325,319,153,-399
0,6646411,200,-1877,-386,-1031,-561,-325,319,153,-399
0,6646418,198,-1875,-384,-1030,-566,-330,314,150,-408
0,6646425,198,-1875,-384,-1030,-566,-330,314,150,-408
0,6646432,198,-1875,-384,-1030,-566,-330,314,150,-408
0,6646439,202,-1872,-382,-1030,-564,-322,314,150,-408
0,6646447,202,-1872,-382,-1030,-564,-322,314,150,-408
0,6646454,199,-1877,-382,-1030,-561,-327,314,150,-408
0,6646461,199,-1877,-382,-1030,-561,-327,314,150,-408
0,6646469,199,-1877,-382,-1030,-561,-327,314,150,-408
0,6646477,200,-1875,-386,-1021,-556,-325,314,150,-408
0,6646486,200,-1875,-386,-1021,-556,-325,314,150,-408
0,6646494,200,-1875,-386,-1021,-556,-325,314,150,-408
0,6646500,201,-1874,-389,-1029,-574,-324,314,150,-408
0,6646505,201,-1874,-389,-1029,-574,-324,314,150,-408
0,6646512,201,-1874,-389,-1029,-574,-324,314,150,-408
0,6646520,198,-1874,-384,-1034,-571,-325,314,150,-408
0,6646528,198,-1874,-384,-1034,-571,-325,314,150,-408
0,6646535,198,-1875,-379,-1032,-571,-325,312,152,-404
0,6646543,198,-1875,-379,-1032,-571,-325,312,152,-404
0,6646549,198,-1875,-379,-1032,-571,-325,312,152,-404
0,6646556,202,-1873,-384,-1034,-567,-325,312,152,-404
0,6646563,202,-1873,-384,-1034,-567,-325,312,152,-404
0,6646572,202,-1873,-384,-1034,-567,-325,312,152,-404
0,6646578,200,-1877,-381,-1032,-570,-318,312,152,-404
0,6646584,200,-1877,-381,-1032,-570,-318,312,152,-404
0,6646590,200,-1877,-381,-1032,-570,-318,312,152,-404
0,6646595,199,-1875,-386,-1035,-574,-321,312,152,-404
0,6646600,199,-1875,-386,-1035,-574,-321,312,152,-404
0,6646605,199,-1875,-386,-1035,-574,-321,312,152,-404
0,6646610,199,-1875,-386,-1035,-574,-321,312,152,-404
0,6646617,199,-1873,-383,-1033,-567,-328,312,152,-404
0,6646622,199,-1873,-383,-1033,-567,-328,312,152,-404
0,6646629,199,-1873,-383,-1033,-567,-328,312,152,-404
0,6646636,198,-1875,-382,-1039,-573,-325,312,152,-404
0,6646643,198,-1875,-382,-1039,-573,-325,312,152,-404
0,6646650,198,-1875,-382,-1039,-573,-325,312,152,-404
0,6646658,196,-1871,-380,-1035,-568,-327,317,145,-403
0,6646665,196,-1871,-380,-1035,-568,-327,317,145,-403
0,6646673,196,-1871,-380,-1035,-568,-327,317,145,-403
0,6646679,199,-1874,-386,-1032,-569,-329,317,145,-403
0,6646686,199,-1874,-386,-1032,-569,-329,317,145,-403
0,6646694,199,-1874,-386,-1032,-569,-329,317,145,-403
0,6646702,197,-1873,-384,-1039,-571,-326,317,145,-403
0,6646711,197,-1873,-384,-1039,-571,-326,317,145,-403
0,6646719,196,-1874,-380,-1032,-569,-332,317,145,-403
0,6646725,196,-1874,-380,-1032,-569,-332,317,145,-403
0,6646733,196,-1874,-380,-1032,-569,-332,317,145,-403
0,6646739,197,-1875,-379,-1033,-568,-329,317,145,-403
0,6646747,197,-1875,-379,-1033,-568,-329,317,145,-403
0,6646754,197,-1875,-379,-1033,-568,-329,317,145,-403
0,6646759,198,-1876,-380,-1036,-567,-333,317,145,-403
0,6646765,198,-1876,-380,-1036,-567,-333,317,145,-403
0,6646770,198,-1876,-380,-1036,-567,-333,317,145,-403
0,6646777,200,-1875,-385,-1030,-562,-326,317,145,-403
0,6646786,200,-1875,-385,-1030,-562,-326,317,145,-403
0,6646794,200,-1875,-385,-1030,-562,-326,317,145,-403
0,6646801,196,-1877,-382,-1025,-563,-322,313,147,-401
0,6646808,196,-1877,-382,-1025,-563,-322,313,147,-401
0,6646814,196,-1877,-382,-1025,-563,-322,313,147,-401
0,6646820,200,-1872,-382,-1028,-568,-326,313,147,-401
0,6646829,200,-1872,-382,-1028,-568,-326,313,147,-401
0,6646836,197,-1875,-378,-1031,-569,-327,313,147,-401
0,6646848,197,-1875,-378,-1031,-569,-327,313,147,-401
0,6646860,200,-1874,-384,-1032,-571,-329,313,147,-401
0,6646873,200,-1874,-384,-1032,-571,-329,313,147,-401
0,6646886,196,-1873,-384,-1027,-564,-327,313,147,-401
0,6646898,198,-1875,-387,-1035,-570,-325,313,147,-401
0,6646910,198,-1875,-387,-1035,-570,-325,313,147,-401
0,6646923,202,-1874,-382,-1027,-565,-322,313,147,-407
0,6646937,197,-1874,-384,-1026,-568,-326,313,147,-407
0,6646950,197,-1874,-384,-1026,-568,-326,313,147,-407
0,6646959,200,-1873,-386,-1024,-569,-321,313,147,-407
0,6646971,200,-1873,-386,-1024,-569,-321,313,147,-407
0,6646986,198,-1873,-385,-1028,-568,-324,313,147,-407
0,6646998,199,-1873,-382,-1029,-568,-327,313,147,-407
0,6647008,199,-1873,-382,-1029,-568,-327,313,147,-407
0,6647020,195,-1875,-380,-1031,-570,-323,313,147,-407
0,6647033,195,-1875,-380,-1031,-570,-323,313,147,-407
0,6647048,196,-1873,-383,-1038,-568,-329,313,147,-407
0,6647058,196,-1871,-382,-1029,-565,-326,312,148,-412
0,6647070,196,-1871,-382,-1029,-565,-326,312,148,-412
0,6647085,196,-1871,-380,-1030,-565,-328,312,148,-412
0,6647097,198,-1875,-381,-1020,-567,-328,312,148,-412
0,6647106,198,-1875,-381,-1020,-567,-328,312,148,-412
0,6647118,202,-1876,-387,-1034,-561,-322,312,148,-412
0,6647131,202,-1876,-387,-1034,-561,-322,312,148,-412
0,6647143,197,-1872,-386,-1027,-572,-325,312,148,-412
0,6647156,198,-1875,-389,-1036,-567,-322,312,148,-412
0,6647169,198,-1875,-389,-1036,-567,-322,312,148,-412
0,6647181,199,-1874,-381,-1028,-563,-325,308,144,-402
0,6647193,199,-1874,-381,-1028,-563,-325,308,144,-402
0,6647205,196,-1877,-380,-1031,-563,-328,308,144,-402
0,6647220,197,-1872,-383,-1029,-564,-329,308,144,-402
0,6647230,197,-1872,-383,-1029,-564,-329,308,144,-402
0,6647242,200,-1874,-381,-1039,-571,-320,308,144,-402
0,6647256,200,-1872,-388,-1035,-571,-321,308,144,-402
0,6647269,200,-1872,-388,-1035,-571,-321,308,144,-402
0,6647278,200,-1878,-382,-1028,-564,-318,308,144,-402
0,6647289,200,-1878,-382,-1028,-564,-318,308,144,-402
0,6647298,200,-1874,-389,-1034,-569,-329,308,144,-402
0,6647306,200,-1874,-389,-1034,-569,-329,308,144,-402
0,6647313,200,-1874,-389,-1034,-569,-329,308,144,-402
0,6647321,198,-1877,-383,-1036,-565,-325,314,146,-410
0,6647330,198,-1877,-383,-1036,-565,-325,314,146,-410
0,6647337,196,-1874,-383,-1022,-563,-329,314,146,-410
0,6647346,196,-1874,-383,-1022,-563,-329,314,146,-410
0,6647354,196,-1874,-383,-1022,-563,-329,314,146,-410
0,6647362,199,-1875,-382,-1025,-568,-317,314,146,-410
0,6647370,199,-1875,-382,-1025,-568,-317,314,146,-410
0,6647378,198,-1877,-383,-1026,-560,-334,314,146,-410
0,6647388,198,-1877,-383,-1026,-560,-334,314,146,-410
0,6647397,199,-1875,-386,-1028,-559,-330,314,146,-410
0,6647405,199,-1875,-386,-1028,-559,-330,314,146,-410
0,6647413,199,-1875,-386,-1028,-559,-330,314,146,-410
0,6647420,198,-1878,-380,-1027,-561,-327,314,146,-410
0,6647432,198,-1878,-380,-1027,-561,-327,314,146,-410
0,6647440,197,-1874,-385,-1020,-563,-316,313,143,-401
0,6647450,197,-1874,-385,-1020,-563,-316,313,143,-401
0,6647460,198,-1874,-381,-1032,-561,-324,313,143,-401
0,6647474,198,-1874,-381,-1032,-561,-324,313,143,-401
0,6647486,198,-1875,-386,-1036,-571,-326,313,143,-401
0,6647497,203,-1874,-385,-1030,-570,-329,313,143,-401
0,6647510,203,-1874,-385,-1030,-570,-329,313,143,-401
0,6647524,200,-1876,-391,-1031,-569,-321,313,143,-401
0,6647536,198,-1873,-384,-1033,-567,-328,313,143,-401
0,6647549,198,-1873,-384,-1033,-567,-328,313,143,-401
0,6647561,198,-1876,-382,-1029,-570,-327,309,147,-401
0,6647575,198,-1876,-382,-1029,-570,-327,309,147,-401
0,6647591,198,-1872,-382,-1033,-565,-330,309,147,-401
0,6647599,194,-1874,-384,-1035,-566,-325,309,147,-401
0,6647607,194,-1874,-384,-1035,-566,-325,309,147,-401
0,6647615,194,-1874,-384,-1035,-566,-325,309,147,-401
0,6647624,198,-1874,-385,-1038,-565,-324,309,147,-401
0,6647636,200,-1873,-386,-1024,-561,-327,309,147,-401
0,6647646,200,-1873,-386,-1024,-561,-327,309,147,-401
0,6647658,196,-1874,-381,-1026,-558,-331,309,147,-401
0,6647670,196,-1874,-381,-1026,-558,-331,309,147,-401
0,6647683,196,-1876,-385,-1028,-562,-334,309,147,-401
0,6647694,196,-1876,-385,-1028,-562,-334,309,147,-401
0,6647706,196,-1873,-385,-1030,-566,-330,309,155,-399
0,6647720,199,-1871,-386,-1024,-569,-326,309,155,-399
0,6647734,199,-1871,-386,-1024,-569,-326,309,155,-399
0,6647745,199,-1871,-384,-1028,-563,-322,309,155,-399
0,6647758,201,-1874,-381,-1034,-578,-326,309,155,-399
0,6647771,201,-1874,-381,-1034,-578,-326,309,155,-399
0,6647784,198,-1873,-383,-1038,-573,-327,309,155,-399
0,6647795,198,-1873,-383,-1038,-573,-327,309,155,-399
0,6647809,200,-1873,-380,-1030,-567,-327,309,155,-399
0,6647821,198,-1874,-382,-1034,-566,-323,313,149,-397
0,6647834,198,-1874,-382,-1034,-566,-323,313,149,-397
0,6647844,198,-1874,-380,-1042,-571,-318,313,149,-397
0,6647851,198,-1874,-380,-1042,-571,-318,313,149,-397
0,6647859,199,-1876,-381,-1035,-562,-325,313,149,-397
0,6647867,199,-1876,-381,-1035,-562,-325,313,149,-397
0,6647875,199,-1876,-381,-1035,-562,-325,313,149,-397
0,6647883,195,-1874,-385,-1023,-564,-321,313,149,-397
0,6647890,195,-1874,-385,-1023,-564,-321,313,149,-397
0,6647899,202,-1873,-383,-1035,-566,-326,313,149,-397
0,6647905,202,-1873,-383,-1035,-566,-326,313,149,-397
0,6647910,202,-1873,-383,-1035,-566,-326,313,149,-397
0,6647919,199,-1874,-385,-1038,-569,-334,313,149,-397
0,6647926,199,-1874,-385,-1038,-569,-334,313,149,-397
0,6647933,199,-1874,-385,-1038,-569,-334,313,149,-397
0,6647941,199,-1870,-389,-1034,-573,-330,313,149,-397
0,6647949,199,-1870,-389,-1034,-573,-330,313,149,-397
0,6647955,199,-1870,-389,-1034,-573,-330,313,149,-397
0,6647960,198,-1870,-379,-1028,-575,-333,316,148,-400
0,6647965,198,-1870,-379,-1028,-575,-333,316,148,-400
0,6647971,198,-1870,-379,-1028,-575,-333,316,148,-400
0,6647976,200,-1875,-387,-1033,-571,-332,316,148,-400
0,6647984,200,-1875,-387,-1033,-571,-332,316,148,-400
0,6647991,200,-1875,-387,-1033,-571,-332,316,148,-400
0,6647998,199,-1876,-385,-1036,-565,-333,316,148,-400
0,6648004,199,-1876,-385,-1036,-565,-333,316,148,-400
0,6648011,199,-1876,-385,-1036,-565,-333,316,148,-400
0,6648018,200,-1874,-388,-1032,-568,-329,316,148,-400
0,6648026,200,-1874,-388,-1032,-568,-329,316,148,-400
0,6648034,200,-1874,-388,-1032,-568,-329,316,148,-400
0,6648040,200,-1875,-387,-1035,-561,-326,316,148,-400
0,6648046,200,-1875,-387,-1035,-561,-326,316,148,-400
0,6648052,200,-1875,-387,-1035,-561,-326,316,148,-400
0,6648058,199,-1875,-391,-1032,-567,-323,316,148,-400
0,6648064,199,-1875,-391,-1032,-567,-323,316,148,-400
0,6648072,199,-1875,-391,-1032,-567,-323,316,148,-400
0,6648078,199,-1877,-382,-1040,-566,-333,310,154,-400
0,6648086,199,-1877,-382,-1040,-566,-333,310,154,-400
0,6648093,199,-1877,-382,-1040,-566,-333,310,154,-400
0,6648101,197,-1875,-384,-1033,-577,-330,310,154,-400
0,6648108,197,-1875,-384,-1033,-577,-330,310,154,-400
0,6648114,197,-1875,-384,-1033,-577,-330,310,154,-400
0,6648121,200,-1874,-379,-1034,-568,-318,310,154,-400
0,6648127,200,-1874,-379,-1034,-568,-318,310,154,-400
0,6648135,200,-1874,-379,-1034,-568,-318,310,154,-400
0,6648143,194,-1874,-383,-1036,-569,-328,310,154,-400
0,6648151,194,-1874,-383,-1036,-569,-328,310,154,-400
0,6648158,199,-1871,-385,-1030,-574,-328,310,154,-400
0,6648164,199,-1871,-385,-1030,-574,-328,310,154,-400
0,6648171,199,-1871,-385,-1030,-574,-328,310,154,-400
0,6648178,197,-1872,-387,-1039,-573,-327,310,154,-400
0,6648185,197,-1872,-387,-1039,-573,-327,310,154,-400
0,6648194,197,-1872,-387,-1039,-573,-327,310,154,-400
0,6648201,200,-1877,-380,-1029,-569,-331,319,145,-409
0,6648207,200,-1877,-380,-1029,-569,-331,319,145,-409
0,6648215,200,-1877,-380,-1029,-569,-331,319,145,-409
0,6648222,195,-1875,-382,-1026,-568,-328,319,145,-409
0,6648228,195,-1875,-382,-1026,-568,-328,319,145,-409
0,6648236,195,-1875,-382,-1026,-568,-328,319,145,-409
0,6648244,198,-1875,-383,-1031,-575,-325,319,145,-409
0,6648252,198,-1875,-383,-1031,-575,-325,319,145,-409
0,6648259,199,-1874,-379,-1035,-572,-318,319,145,-409
0,6648265,199,-1874,-379,-1035,-572,-318,319,145,-409
0,6648272,199,-1874,-379,-1035,-572,-318,319,145,-409
0,6648279,200,-1877,-384,-1031,-569,-323,319,145,-409
0,6648287,200,-1877,-384,-1031,-569,-323,319,145,-409
0,6648293,200,-1877,-384,-1031,-569,-323,319,145,-409
0,6648299,200,-1875,-387,-1033,-567,-327,319,145,-409
0,6648304,200,-1875,-387,-1033,-567,-327,319,145,-409
0,6648309,200,-1875,-387,-1033,-567,-327,319,145,-409
0,6648314,200,-1875,-387,-1033,-567,-327,319,145,-409
0,6648320,199,-1875,-386,-1025,-573,-329,319,145,-409
0,6648325,199,-1875,-386,-1025,-573,-329,319,145,-409
0,6648332,199,-1875,-386,-1025,-573,-329,319,145,-409
0,6648340,197,-1875,-377,-1032,-563,-333,316,148,-400
0,6648346,197,-1875,-377,-1032,-563,-333,316,148,-400
0,6648353,197,-1875,-377,-1032,-563,-333,316,148,-400
0,6648361,197,-1870,-379,-1031,-563,-326,316,148,-400
0,6648369,197,-1870,-379,-1031,-563,-326,316,148,-400
0,6648376,197,-1870,-379,-1031,-563,-326,316,148,-400
0,6648381,202,-1874,-384,-1034,-568,-323,316,148,-400
0,6648387,202,-1874,-384,-1034,-568,-323,316,148,-400
0,6648395,202,-1874,-384,-1034,-568,-323,316,148,-400
0,6648400,201,-1874,-384,-1025,-563,-323,316,148,-400
0,6648408,201,-1874,-384,-1025,-563,-323,316,148,-400
0,6648413,201,-1874,-384,-1025,-563,-323,316,148,-400
0,6648421,196,-1873,-385,-1022,-559,-324,316,148,-400
0,6648428,196,-1873,-385,-1022,-559,-324,316,148,-400
0,6648435,196,-1873,-385,-1022,-559,-324,316,148,-400
0,6648441,199,-1869,-386,-1029,-566,-331,316,148,-400
0,6648450,199,-1869,-386,-1029,-566,-331,316,148,-400
0,6648457,198,-1876,-384,-1028,-570,-325,308,152,-402
0,6648463,198,-1876,-384,-1028,-570,-325,308,152,-402
0,6648468,198,-1876,-384,-1028,-570,-325,308,152,-402
0,6648473,198,-1876,-384,-1028,-570,-325,308,152,-402
0,6648478,198,-1874,-382,-1029,-566,-321,308,152,-402
0,6648486,198,-1874,-382,-1029,-566,-321,308,152,-402
0,6648493,198,-1874,-382,-1029,-566,-321,308,152,-402
0,6648501,202,-1873,-385,-1032,-567,-315,308,152,-402
0,6648506,202,-1873,-385,-1032,-567,-315,308,152,-402
0,6648512,202,-1873,-385,-1032,-567,-315,308,152,-402
0,6648520,200,-1875,-383,-1031,-574,-329,308,152,-402
0,6648527,200,-1875,-383,-1031,-574,-329,308,152,-402
0,6648534,200,-1875,-383,-1031,-574,-329,308,152,-402
0,6648540,201,-1872,-382,-1031,-562,-328,308,152,-402
0,6648547,201,-1872,-382,-1031,-562,-328,308,152,-402
0,6648555,201,-1872,-382,-1031,-562,-328,308,152,-402
0,6648562,200,-1875,-386,-1029,-566,-322,308,152,-402
0,6648570,200,-1875,-386,-1029,-566,-322,308,152,-402
0,6648578,202,-1875,-390,-1029,-563,-323,308,152,-402
0,6648584,202,-1875,-390,-1029,-563,-323,308,152,-402
0,6648591,202,-1875,-390,-1029,-563,-323,308,152,-402
0,6648597,200,-1872,-379,-1033,-566,-324,308,152,-402
0,6648601,200,-1872,-379,-1033,-566,-324,310,148,-402
0,6648606,200,-1872,-379,-1033,-566,-324,310,148,-402
0,6648612,200,-1872,-379,-1033,-566,-324,310,148,-402
0,6648617,199,-1871,-384,-1030,-565,-321,310,148,-402
0,6648624,199,-1871,-384,-1030,-565,-321,310,148,-402
0,6648630,199,-1871,-384,-1030,-565,-321,310,148,-402
0,6648637,199,-1875,-384,-1039,-559,-318,310,148,-402
0,6648645,199,-1875,-384,-1039,-559,-318,310,148,-402
0,6648653,199,-1875,-384,-1039,-559,-318,310,148,-402
0,6648659,198,-1873,-388,-1034,-559,-328,310,148,-402
0,6648667,198,-1873,-388,-1034,-559,-328,310,148,-402
0,6648673,198,-1873,-388,-1034,-559,-328,310,148,-402
0,6648680,197,-1876,-389,-1035,-571,-331,310,148,-402
0,6648687,197,-1876,-389,-1035,-571,-331,310,148,-402
0,6648694,197,-1876,-389,-1035,-571,-331,310,148,-402
0,6648701,198,-1876,-383,-1032,-566,-318,310,148,-402
0,6648709,198,-1876,-383,-1032,-566,-318,310,148,-402
0,6648716,198,-1876,-383,-1032,-566,-318,310,148,-402
0,6648723,198,-1873,-377,-1028,-564,-323,308,148,-406
0,6648729,198,-1873,-377,-1028,-564,-323,308,148,-406
0,6648737,201,-1877,-384,-1027,-569,-319,308,148,-406
0,6648745,201,-1877,-384,-1027,-569,-319,308,148,-406
0,6648753,201,-1877,-384,-1027,-569,-319,308,148,-406
0,6648760,202,-1871,-385,-1025,-563,-321,308,148,-406
0,6648767,202,-1871,-385,-1025,-563,-321,308,148,-406
0,6648774,202,-1871,-385,-1025,-563,-321,308,148,-406
0,6648781,198,-1875,-384,-1029,-576,-323,308,148,-406
0,6648788,198,-1875,-384,-1029,-576,-323,308,148,-406
0,6648797,197,-1877,-387,-1029,-568,-325,308,148,-406
0,6648803,197,-1877,-387,-1029,-568,-325,308,148,-406
0,6648811,197,-1877,-387,-1029,-568,-325,308,148,-406
0,6648817,199,-1873,-384,-1027,-565,-321,308,148,-406
0,6648824,199,-1873,-384,-1027,-565,-321,308,148,-406
0,6648832,199,-1873,-384,-1027,-565,-321,308,148,-406
0,6648840,201,-1875,-381,-1026,-564,-321,308,148,-406
0,6648847,201,-1875,-381,-1026,-564,-321,308,148,-406
0,6648858,199,-1874,-382,-1028,-571,-320,312,150,-390
0,6648872,199,-1874,-382,-1028,-571,-320,312,150,-390
0,6648884,196,-1874,-381,-1029,-566,-320,312,150,-390
0,6648896,196,-1874,-381,-1029,-566,-320,312,150,-390
0,6648911,197,-1874,-380,-1029,-564,-327,312,150,-390
0,6648925,200,-1874,-383,-1025,-565,-331,312,150,-390
0,6648935,200,-1874,-383,-1025,-565,-331,312,150,-390
0,6648948,199,-1873,-386,-1023,-570,-327,312,150,-390
0,6648961,200,-1874,-388,-1033,-564,-317,312,150,-390
0,6648974,200,-1874,-388,-1033,-564,-317,312,150,-390
0,6648985,201,-1872,-379,-1037,-560,-320,302,152,-414
0,6648995,201,-1872,-379,-1037,-560,-320,302,152,-414
0,6649005,198,-1872,-383,-1031,-568,-322,302,152,-414
0,6649013,198,-1872,-383,-1031,-568,-322,302,152,-414
0,6649021,198,-1872,-383,-1031,-568,-322,302,152,-414
0,6649029,198,-1872,-383,-1031,-568,-322,302,152,-414
0,6649038,199,-1872,-383,-1028,-568,-323,302,152,-414
0,6649048,199,-1872,-383,-1028,-568,-323,302,152,-414
0,6649057,198,-1872,-387,-1030,-570,-323,302,152,-414
0,6649067,198,-1872,-387,-1030,-570,-323,302,152,-414
0,6649077,198,-1872,-387,-1030,-570,-323,302,152,-414
0,6649089,200,-1870,-387,-1024,-573,-329,302,152,-414
0,6649101,198,-1874,-382,-1032,-572,-324,316,144,-402
0,6649113,198,-1874,-382,-1032,-572,-324,316,144,-402
0,6649126,199,-1874,-376,-1023,-564,-322,316,144,-402
0,6649138,199,-1876,-388,-1029,-563,-328,316,144,-402
0,6649150,199,-1876,-388,-1029,-563,-328,316,144,-402
0,6649163,200,-1872,-386,-1026,-568,-325,316,144,-402
0,6649177,200,-1872,-386,-1026,-568,-325,316,144,-402
0,6649189,200,-1875,-381,-1032,-563,-324,316,144,-402
0,6649201,201,-1876,-382,-1030,-563,-325,316,144,-402
0,6649214,201,-1876,-382,-1030,-563,-325,316,144,-402
0,6649227,198,-1873,-387,-1031,-562,-316,316,144,-402
0,6649238,198,-1875,-382,-1033,-565,-317,309,141,-403
0,6649250,198,-1875,-382,-1033,-565,-317,309,141,-403
0,6649264,195,-1876,-382,-1038,-564,-330,309,141,-403
0,6649276,195,-1876,-382,-1038,-564,-330,309,141,-403
0,6649286,196,-1876,-382,-1033,-565,-327,309,141,-403
0,6649296,196,-1876,-382,-1033,-565,-327,309,141,-403
0,6649305,200,-1871,-386,-1032,-568,-329,309,141,-403
0,6649313,200,-1871,-386,-1032,-568,-329,309,141,-403
0,6649321,199,-1877,-385,-1029,-565,-325,309,141,-403
0,6649329,199,-1877,-385,-1029,-565,-325,309,141,-403
0,6649337,200,-1876,-385,-1030,-564,-325,309,141,-403
0,6649347,200,-1876,-385,-1030,-564,-325,309,141,-403
0,6649355,200,-1876,-385,-1030,-564,-325,309,141,-403
0,6649363,199,-1873,-383,-1022,-564,-322,317,151,-403
0,6649371,199,-1873,-383,-1022,-564,-322,317,151,-403
0,6649378,200,-1876,-386,-1031,-565,-326,317,151,-403
0,6649388,200,-1876,-386,-1031,-565,-326,317,151,-403
0,6649396,200,-1876,-386,-1031,-565,-326,317,151,-403
0,6649408,198,-1875,-387,-1035,-569,-329,317,151,-403
0,6649420,197,-1874,-387,-1035,-569,-320,317,151,-403
0,6649434,197,-1874,-387,-1035,-569,-320,317,151,-403
0,6649446,201,-1875,-385,-1027,-567,-321,317,151,-403
0,6649458,198,-1876,-387,-1031,-567,-326,317,151,-403
0,6649469,198,-1876,-387,-1031,-567,-326,317,151,-403
0,6649482,200,-1875,-383,-1027,-565,-321,317,151,-403
0,6649493,200,-1875,-383,-1027,-565,-321,317,151,-403
0,6649504,200,-1874,-385,-1029,-566,-319,307,147,-401
0,6649518,200,-1874,-385,-1029,-566,-319,307,147,-401
0,6649530,198,-1874,-384,-1034,-570,-329,307,147,-401
0,6649538,196,-1876,-385,-1039,-565,-320,307,147,-401
0,6649546,196,-1876,-385,-1039,-565,-320,307,147,-401
0,6649554,196,-1876,-385,-1039,-565,-320,307,147,-401
0,6649563,195,-1876,-388,-1035,-572,-323,307,147,-401
0,6649575,195,-1876,-388,-1035,-572,-323,307,147,-401
0,6649587,195,-1873,-385,-1026,-572,-329,307,147,-401
0,6649594,195,-1873,-385,-1026,-572,-329,307,147,-401
0,6649603,197,-1871,-382,-1018,-571,-324,307,147,-401
0,6649611,197,-1871,-382,-1018,-571,-324,307,147,-401
0,6649619,197,-1874,-377,-1029,-576,-333,314,148,-398
0,6649632,197,-1874,-377,-1029,-576,-333,314,148,-398
0,6649645,200,-1872,-383,-1036,-567,-326,314,148,-398
0,6649657,200,-1872,-383,-1036,-567,-326,314,148,-398
0,6649670,201,-1871,-389,-1027,-561,-319,314,148,-398
0,6649682,199,-1873,-384,-1030,-566,-324,314,148,-398
0,6649696,199,-1873,-384,-1030,-566,-324,314,148,-398
0,6649708,200,-1876,-384,-1038,-571,-326,314,148,-398
0,6649720,200,-1876,-384,-1038,-571,-326,314,148,-398
0,6649733,200,-1876,-384,-1038,-571,-326,314,148,-398
0,6649742,202,-1874,-384,-1031,-566,-322,314,148,-398
0,6649752,202,-1874,-384,-1031,-566,-322,314,148,-398
0,6649766,201,-1872,-379,-1030,-568,-322,310,152,-406
0,6649779,198,-1873,-383,-1034,-572,-321,310,152,-406
0,6649790,198,-1873,-383,-1034,-572,-321,310,152,-406
0,6649803,197,-1874,-378,-1028,-568,-322,310,152,-406
0,6649817,197,-1874,-378,-1028,-568,-322,310,152,-406
0,6649828,196,-1872,-382,-1028,-567,-323,310,152,-406
0,6649841,196,-1872,-382,-1033,-569,-326,310,152,-406
0,6649853,196,-1872,-382,-1033,-569,-326,310,152,-406
0,6649862,196,-1876,-388,-1035,-572,-330,310,152,-406
0,6649868,196,-1876,-388,-1035,-572,-330,310,152,-406
0,6649873,196,-1876,-388,-1035,-572,-330,310,152,-406
0,6649881,197,-1873,-381,-1030,-575,-326,311,143,-411
0,6649888,197,-1873,-381,-1030,-575,-326,311,143,-411
0,6649894,197,-1873,-381,-1030,-575,-326,311,143,-411
0,6649903,200,-1873,-382,-1035,-569,-321,311,143,-411
0,6649911,200,-1873,-382,-1035,-569,-321,311,143,-411
0,6649919,200,-1875,-387,-1032,-568,-328,311,143,-411
0,6649925,200,-1875,-387,-1032,-568,-328,311,143,-411
0,6649933,200,-1875,-387,-1032,-568,-328,311,143,-411
0,6649940,197,-1871,-386,-1032,-564,-330,311,143,-411
0,6649948,197,-1871,-386,-1032,-564,-330,311,143,-411
0,6649954,197,-1871,-386,-1032,-564,-330,311,143,-411
0,6649961,199,-1871,-387,-1038,-571,-326,311,143,-411
0,6649969,199,-1871,-387,-1038,-571,-326,311,143,-411
0,6649978,199,-1871,-387,-1038,-571,-326,311,143,-411
0,6649985,198,-1875,-386,-1038,-567,-331,311,143,-411
0,6649993,198,-1875,-386,-1038,-567,-331,311,143,-411
0,6650000,197,-1874,-383,-1029,-577,-325,308,148,-404
0,6650007,197,-1874,-383,-1029,-577,-325,308,148,-404
0,6650015,197,-1874,-383,-1029,-577,-325,308,148,-404
0,6650021,198,-1873,-385,-1033,-565,-325,308,148,-404
0,6650029,198,-1873,-385,-1033,-565,-325,308,148,-404
0,6650037,198,-1873,-385,-1033,-565,-325,308,148,-404
0,6650045,198,-1872,-382,-1030,-568,-328,308,148,-404
0,6650053,198,-1872,-382,-1030,-568,-328,308,148,-404
0,6650059,201,-1875,-381,-1029,-561,-334,308,148,-404
0,6650066,201,-1875,-381,-1029,-561,-334,308,148,-404
0,6650075,201,-1875,-381,-1029,-561,-334,308,148,-404
0,6650082,201,-1874,-382,-1031,-572,-331,308,148,-404
0,6650088,201,-1874,-382,-1031,-572,-331,308,148,-404
0,6650094,201,-1874,-382,-1031,-572,-331,308,148,-404
0,6650099,201,-1872,-384,-1033,-564,-329,308,148,-404
0,6650104,201,-1872,-384,-1033,-564,-329,308,148,-404
0,6650112,201,-1872,-384,-1033,-564,-329,308,148,-404
0,6650118,201,-1872,-384,-1033,-564,-329,308,148,-404
0,6650125,199,-1873,-387,-1029,-571,-331,308,148,-404
0,6650132,199,-1873,-387,-1029,-571,-331,308,148,-404
0,6650138,199,-1873,-387,-1029,-571,-331,308,148,-404
0,6650145,199,-1873,-387,-1029,-571,-331,308,142,-400
0,6650151,199,-1873,-387,-1029,-571,-331,308,142,-400
0,6650158,199,-1873,-387,-1029,-571,-331,308,142,-400
0,6650164,201,-1873,-381,-1019,-565,-321,308,142,-400
0,6650172,201,-1873,-381,-1019,-565,-321,308,142,-400
0,6650179,195,-1873,-385,-1024,-555,-322,308,142,-400
0,6650187,195,-1873,-385,-1024,-555,-322,308,142,-400
0,6650195,195,-1873,-385,-1024,-555,-322,308,142,-400
0,6650203,195,-1873,-385,-1024,-555,-322,308,142,-400
0,6650209,195,-1873,-385,-1024,-555,-322,308,142,-400
0,6650215,195,-1873,-385,-1024,-555,-322,308,142,-400
0,6650222,201,-1878,-380,-1033,-566,-324,308,142,-400
0,6650229,201,-1878,-380,-1033,-566,-324,308,142,-400
0,6650236,201,-1878,-380,-1033,-566,-324,308,142,-400
0,6650242,199,-1874,-388,-1032,-569,-323,308,142,-400
0,6650249,199,-1874,-388,-1032,-569,-323,308,142,-400
0,6650256,199,-1874,-388,-1032,-569,-323,308,142,-400
0,6650264,199,-1877,-388,-1032,-572,-319,315,151,-409
0,6650272,199,-1877,-388,-1032,-572,-319,315,151,-409
0,6650280,200,-1873,-380,-1033,-565,-324,315,151,-409
0,6650287,200,-1873,-380,-1033,-565,-324,315,151,-409
0,6650294,200,-1873,-380,-1033,-565,-324,315,151,-409
0,6650299,198,-1872,-384,-1029,-564,-327,315,151,-409
0,6650304,198,-1872,-384,-1029,-564,-327,315,151,-409
0,6650309,198,-1872,-384,-1029,-564,-327,315,151,-409
0,6650314,198,-1872,-384,-1029,-564,-327,315,151,-409
0,6650319,199,-1875,-382,-1030,-562,-323,315,151,-409
0,6650324,199,-1875,-382,-1030,-562,-323,315,151,-409
0,6650330,199,-1875,-382,-1030,-562,-323,315,151,-409
0,6650337,199,-1875,-382,-1030,-562,-323,315,151,-409
0,6650342,198,-1873,-383,-1034,-573,-330,315,151,-409
0,6650348,198,-1873,-383,-1034,-573,-330,315,151,-409
0,6650355,198,-1873,-383,-1034,-573,-330,315,151,-409
0,6650363,202,-1876,-388,-1034,-568,-330,315,151,-409
0,6650371,202,-1876,-388,-1034,-568,-330,315,151,-409
0,6650378,202,-1876,-388,-1034,-568,-330,315,151,-409
0,6650385,198,-1873,-385,-1032,-565,-323,315,151,-409
0,6650390,198,-1873,-385,-1032,-565,-323,315,151,-409
0,6650398,198,-1873,-385,-1032,-565,-323,315,151,-409
0,6650405,200,-1872,-377,-1034,-567,-326,309,145,-399
0,6650414,200,-1872,-377,-1034,-567,-326,309,145,-399
0,6650422,198,-1875,-386,-1026,-573,-329,309,145,-399
0,6650429,198,-1875,-386,-1026,-573,-329,309,145,-399
0,6650436,198,-1875,-386,-1026,-573,-329,309,145,-399
0,6650444,203,-1876,-384,-1031,-566,-324,309,145,-399
0,6650452,203,-1876,-384,-1031,-566,-324,309,145,-399
0,6650457,203,-1876,-384,-1031,-566,-324,309,145,-399
0,6650465,201,-1876,-389,-1029,-569,-325,309,145,-399
0,6650473,201,-1876,-389,-1029,-569,-325,309,145,-399
0,6650480,197,-1874,-385,-1037,-569,-321,309,145,-399
0,6650487,197,-1874,-385,-1037,-569,-321,309,145,-399
0,6650494,197,-1874,-385,-1037,-569,-321,309,145,-399
0,6650502,198,-1873,-386,-1026,-570,-324,309,145,-399
0,6650509,198,-1873,-386,-1026,-570,-324,309,145,-399
0,6650516,198,-1873,-386,-1026,-570,-324,309,145,-399
0,6650521,198,-1875,-381,-1025,-562,-327,309,153,-401
0,6650528,198,-1875,-381,-1025,-562,-327,309,153,-401
0,6650535,198,-1875,-381,-1025,-562,-327,309,153,-401
0,6650542,200,-1876,-380,-1032,-563,-326,309,153,-401
0,6650549,200,-1876,-380,-1032,-563,-326,309,153,-401
0,6650557,200,-1876,-380,-1032,-563,-326,309,153,-401
0,6650563,201,-1874,-379,-1036,-570,-315,309,153,-401
0,6650568,201,-1874,-379,-1036,-570,-315,309,153,-401
0,6650574,201,-1874,-379,-1036,-570,-315,309,153,-401
0,6650579,199,-1873,-389,-1035,-575,-325,309,153,-401
0,6650585,199,-1873,-389,-1035,-575,-325,309,153,-401
0,6650591,199,-1873,-389,-1035,-575,-325,309,153,-401
0,6650595,199,-1873,-389,-1035,-575,-325,309,153,-401
0,6650600,199,-1875,-393,-1042,-572,-335,309,153,-401
0,6650605,199,-1875,-393,-1042,-572,-335,309,153,-401
0,6650610,199,-1875,-393,-1042,-572,-335,309,153,-401
0,6650615,199,-1875,-393,-1042,-572,-335,309,153,-401
0,6650621,201,-1877,-385,-1027,-573,-326,309,153,-401
0,6650628,201,-1877,-385,-1027,-573,-326,309,153,-401
0,6650636,201,-1877,-385,-1027,-573,-326,309,153,-401
0,6650643,198,-1872,-384,-1039,-568,-333,315,143,-401
0,6650650,198,-1872,-384,-1039,-568,-333,315,143,-401
0,6650656,198,-1872,-384,-1039,-568,-333,315,143,-401
0,6650663,199,-1875,-375,-1036,-563,-330,315,143,-401
0,6650671,199,-1875,-375,-1036,-563,-330,315,143,-401
0,6650678,199,-1875,-375,-1036,-563,-330,315,143,-401
0,6650685,197,-1875,-382,-1028,-571,-321,315,143,-401
0,6650691,197,-1875,-382,-1028,-571,-321,315,143,-401
0,6650699,198,-1871,-389,-1038,-571,-326,315,143,-401
0,6650705,198,-1871,-389,-1038,-571,-326,315,143,-401
0,6650713,198,-1871,-389,-1038,-571,-326,315,143,-401
0,6650720,198,-1872,-383,-1026,-558,-320,315,143,-401
0,6650727,198,-1872,-383,-1026,-558,-320,315,143,-401
0,6650734,198,-1872,-383,-1026,-558,-320,315,143,-401
0,6650741,200,-1872,-382,-1027,-559,-321,315,143,-401
0,6650749,200,-1872,-382,-1027,-559,-321,315,143,-401
0,6650757,200,-1872,-382,-1027,-559,-321,315,143,-401
0,6650766,199,-1874,-383,-1031,-568,-327,315,143,-401
0,6650772,199,-1874,-383,-1031,-568,-327,315,143,-401
0,6650778,199,-1874,-383,-1031,-568,-327,315,143,-401
0,6650786,197,-1875,-376,-1029,-566,-318,302,140,-400
0,6650793,197,-1875,-376,-1029,-566,-318,302,140,-400
0,6650801,198,-1874,-378,-1029,-567,-322,302,140,-400
0,6650808,198,-1874,-378,-1029,-567,-322,302,140,-400
0,6650817,198,-1874,-378,-1029,-567,-322,302,140,-400
0,6650824,199,-1873,-384,-1031,-576,-326,302,140,-400
0,6650831,199,-1873,-384,-1031,-576,-326,302,140,-400
0,6650838,199,-1873,-384,-1031,-576,-326,302,140,-400
0,6650843,201,-1874,-384,-1032,-563,-321,302,140,-400
0,6650850,201,-1874,-384,-1032,-563,-321,302,140,-400
0,6650858,201,-1874,-384,-1032,-563,-321,302,140,-400
0,6650869,200,-1870,-378,-1031,-562,-319,302,140,-400
0,6650883,198,-1876,-382,-1026,-566,-320,302,140,-400
0,6650894,198,-1876,-382,-1026,-566,-320,302,140,-400
0,6650908,200,-1873,-387,-1025,-562,-324,306,146,-398
0,6650920,198,-1876,-383,-1032,-571,-329,306,146,-398
0,6650934,198,-1876,-383,-1032,-571,-329,306,146,-398
0,6650943,200,-1876,-383,-1030,-567,-319,306,146,-398
0,6650955,200,-1876,-383,-1030,-567,-319,306,146,-398
0,6650969,197,-1873,-386,-1025,-569,-320,306,146,-398
0,6650982,201,-1874,-384,-1033,-572,-328,306,146,-398
0,6650994,201,-1874,-384,-1033,-572,-328,306,146,-398
0,6651008,200,-1875,-385,-1040,-575,-325,306,146,-398
0,6651021,199,-1874,-384,-1017,-572,-332,306,146,-398
0,6651033,199,-1874,-384,-1017,-572,-332,306,146,-398
0,6651045,201,-1873,-380,-1025,-572,-327,319,149,-403
0,6651058,201,-1873,-380,-1025,-572,-327,319,149,-403
0,6651070,200,-1877,-387,-1029,-565,-315,319,149,-403
0,6651082,200,-1874,-381,-1030,-572,-321,319,149,-403
0,6651094,200,-1874,-381,-1030,-572,-321,319,149,-403
0,6651103,201,-1874,-382,-1024,-562,-326,319,149,-403
0,6651110,201,-1874,-382,-1024,-562,-326,319,149,-403
0,6651118,201,-1874,-382,-1024,-562,-326,319,149,-403
0,6651127,198,-1875,-385,-1023,-563,-324,319,149,-403
0,6651142,198,-1872,-384,-1027,-566,-317,319,149,-403
0,6651155,198,-1872,-384,-1027,-566,-317,319,149,-403
0,6651164,198,-1874,-387,-1035,-567,-322,318,156,-406
0,6651176,198,-1874,-387,-1035,-567,-322,318,156,-406
0,6651191,200,-1874,-386,-1031,-565,-325,318,156,-406
0,6651205,202,-1874,-384,-1029,-568,-325,318,156,-406
0,6651213,202,-1874,-384,-1029,-568,-325,318,156,-406
0,6651226,199,-1874,-382,-1026,-570,-325,318,156,-406
0,6651240,201,-1874,-381,-1030,-564,-323,318,156,-406
0,6651251,201,-1874,-381,-1030,-564,-323,318,156,-406
0,6651262,201,-1872,-381,-1032,-566,-325,318,156,-406
0,6651276,201,-1872,-381,-1032,-566,-325,318,156,-406
0,6651289,199,-1871,-382,-1025,-572,-327,318,156,-406
0,6651298,199,-1871,-382,-1025,-572,-327,318,156,-406
0,6651307,198,-1872,-377,-1031,-569,-332,304,150,-398
0,6651315,198,-1872,-377,-1031,-569,-332,304,150,-398
0,6651323,198,-1872,-377,-1031,-569,-332,304,150,-398
0,6651331,198,-1872,-377,-1031,-569,-332,304,150,-398
0,6651339,198,-1872,-377,-1031,-569,-332,304,150,-398
0,6651347,200,-1871,-389,-1035,-559,-331,304,150,-398
0,6651356,200,-1871,-389,-1035,-559,-331,304,150,-398
0,6651364,201,-1875,-385,-1025,-564,-332,304,150,-398
0,6651372,201,-1875,-385,-1025,-564,-332,304,150,-398
0,6651380,197,-1874,-381,-1026,-565,-332,304,150,-398
0,6651388,197,-1874,-381,-1026,-565,-332,304,150,-398
0,6651397,197,-1874,-381,-1026,-565,-332,304,150,-398
0,6651405,199,-1873,-380,-1036,-562,-324,304,150,-398
0,6651413,199,-1873,-380,-1036,-562,-324,304,150,-398
0,6651426,198,-1873,-381,-1031,-566,-321,323,149,-405
0,6651439,198,-1873,-381,-1031,-566,-321,323,149,-405
0,6651450,202,-1875,-382,-1029,-572,-326,323,149,-405
0,6651462,200,-1873,-386,-1021,-567,-320,323,149,-405
0,6651475,200,-1873,-386,-1021,-567,-320,323,149,-405
0,6651487,202,-1874,-381,-1031,-568,-322,323,149,-405
0,6651498,202,-1874,-381,-1031,-568,-322,323,149,-405
0,6651512,197,-1873,-384,-1025,-566,-318,323,149,-405
0,6651525,198,-1872,-391,-1025,-560,-321,323,149,-405
0,6651535,198,-1872,-391,-1025,-560,-321,323,149,-405
0,6651545,199,-1872,-381,-1025,-559,-326,317,149,-409
0,6651557,199,-1872,-381,-1025,-559,-326,317,149,-409
0,6651570,201,-1874,-383,-1036,-574,-327,317,149,-409
0,6651580,201,-1874,-383,-1036,-574,-327,317,149,-409
0,6651592,200,-1872,-378,-1031,-568,-330,317,149,-409
0,6651600,199,-1874,-386,-1030,-565,-326,317,149,-409
0,6651609,199,-1874,-386,-1030,-565,-326,317,149,-409
0,6651617,199,-1874,-386,-1030,-565,-326,317,149,-409
0,6651626,198,-1876,-386,-1024,-566,-328,317,149,-409
0,6651634,198,-1876,-386,-1024,-566,-328,317,149,-409
0,6651642,198,-1876,-382,-1028,-572,-326,317,149,-409
0,6651650,198,-1876,-382,-1028,-572,-326,317,149,-409
0,6651662,200,-1875,-390,-1031,-572,-326,317,149,-409
0,6651675,200,-1875,-390,-1031,-572,-326,317,149,-409
0,6651689,200,-1874,-384,-1029,-571,-326,309,153,-401
0,6651700,200,-1874,-384,-1029,-571,-326,309,153,-401
0,6651710,199,-1874,-383,-1030,-574,-325,309,153,-401
0,6651718,199,-1874,-383,-1030,-574,-325,309,153,-401
0,6651725,196,-1873,-389,-1033,-567,-330,309,153,-401
0,6651734,196,-1873,-389,-1033,-567,-330,309,153,-401
0,6651746,201,-1873,-385,-1035,-568,-335,309,153,-401
0,6651757,201,-1873,-385,-1035,-568,-335,309,153,-401
0,6651767,201,-1874,-384,-1031,-560,-319,309,153,-401
0,6651779,201,-1874,-384,-1031,-560,-319,309,153,-401
0,6651792,199,-1873,-381,-1031,-567,-322,309,153,-401
0,6651805,197,-1877,-384,-1031,-569,-321,317,153,-411
0,6651815,197,-1877,-384,-1031,-569,-321,317,153,-411
0,6651829,197,-1871,-380,-1033,-571,-321,317,153,-411
0,6651841,198,-1873,-383,-1040,-578,-324,317,153,-411
0,6651854,198,-1873,-383,-1040,-578,-324,317,153,-411
0,6651866,201,-1871,-382,-1044,-565,-324,317,153,-411
0,6651875,201,-1871,-382,-1044,-565,-324,317,153,-411
0,6651883,200,-1874,-388,-1033,-565,-327,317,153,-411
0,6651890,200,-1874,-388,-1033,-565,-327,317,153,-411
0,6651896,200,-1874,-388,-1033,-565,-327,317,153,-411
0,6651904,202,-1872,-389,-1023,-572,-327,317,153,-411
0,6651910,202,-1872,-389,-1023,-572,-327,317,153,-411
0,6651916,202,-1872,-389,-1023,-572,-327,317,153,-411
0,6651924,198,-1873,-387,-1024,-568,-325,317,153,-411
0,6651931,198,-1873,-387,-1024,-568,-325,317,153,-411
0,6651939,198,-1873,-387,-1024,-568,-325,317,153,-411
0,6651945,195,-1874,-384,-1032,-564,-324,309,147,-403
0,6651952,195,-1874,-384,-1032,-564,-324,309,147,-403
0,6651959,195,-1874,-384,-1032,-564,-324,309,147,-403
0,6651965,197,-1872,-384,-1024,-566,-324,309,147,-403
0,6651972,197,-1872,-384,-1024,-566,-324,309,147,-403
0,6651979,197,-1872,-384,-1024,-566,-324,309,147,-403
0,6651984,197,-1875,-384,-1021,-569,-328,309,147,-403
0,6651991,197,-1875,-384,-1021,-569,-328,309,147,-403
0,6651997,197,-1875,-384,-1021,-569,-328,309,147,-403
0,6652005,198,-1872,-386,-1030,-563,-325,309,147,-403
0,6652012,198,-1872,-386,-1030,-563,-325,309,147,-403
0,6652019,198,-1872,-386,-1030,-563,-325,309,147,-403
0,6652026,197,-1873,-381,-1028,-561,-323,309,147,-403
0,6652034,197,-1873,-381,-1028,-561,-323,309,147,-403
0,6652040,197,-1873,-381,-1028,-561,-323,309,147,-403
0,6652047,201,-1878,-389,-1017,-560,-323,309,147,-403
0,6652055,201,-1878,-389,-1017,-560,-323,309,147,-403
0,6652063,203,-1873,-385,-1029,-563,-326,316,144,-408
0,6652068,203,-1873,-385,-1029,-563,-326,316,144,-408
0,6652076,203,-1873,-385,-1029,-563,-326,316,144,-408
0,6652084,198,-1873,-382,-1029,-566,-323,316,144,-408
0,6652091,198,-1873,-382,-1029,-566,-323,316,144,-408
0,6652097,198,-1873,-382,-1029,-566,-323,316,144,-408
0,6652104,199,-1875,-379,-1031,-566,-326,316,144,-408
0,6652110,199,-1875,-379,-1031,-566,-326,316,144,-408
0,6652115,199,-1875,-379,-1031,-566,-326,316,144,-408
0,6652124,199,-1876,-382,-1032,-568,-327,316,144,-408
0,6652132,199,-1876,-382,-1032,-568,-327,316,144,-408
0,6652140,199,-1876,-382,-1032,-568,-327,316,144,-408
0,6652146,202,-1874,-384,-1029,-565,-323,316,144,-408
0,6652151,202,-1874,-384,-1029,-565,-323,316,144,-408
0,6652158,202,-1874,-384,-1029,-565,-323,316,144,-408
0,6652166,202,-1874,-382,-1035,-564,-317,316,144,-408
0,6652173,202,-1874,-382,-1035,-564,-317,316,144,-408
0,6652180,202,-1874,-382,-1035,-564,-317,316,144,-408
0,6652186,201,-1873,-381,-1029,-566,-324,316,144,-408
0,6652193,201,-1873,-381,-1029,-566,-324,316,144,-408
0,6652200,201,-1873,-381,-1029,-566,-324,316,144,-408
0,6652207,201,-1873,-381,-1034,-572,-333,314,148,-400
0,6652214,201,-1873,-381,-1034,-572,-333,314,148,-400
0,6652220,201,-1873,-381,-1034,-572,-333,314,148,-400
0,6652226,198,-1877,-384,-1029,-565,-327,314,148,-400
0,6652231,198,-1877,-384,-1029,-565,-327,314,148,-400
0,6652238,198,-1877,-384,-1029,-565,-327,314,148,-400
0,6652244,199,-1872,-379,-1036,-570,-329,314,148,-400
0,6652252,199,-1872,-379,-1036,-570,-329,314,148,-400
0,6652259,199,-1872,-379,-1036,-570,-329,314,148,-400
0,6652264,199,-1871,-382,-1030,-563,-329,314,148,-400
0,6652270,199,-1871,-382,-1030,-563,-329,314,148,-400
0,6652277,199,-1871,-382,-1030,-563,-329,314,148,-400
0,6652283,199,-1872,-390,-1020,-569,-327,314,148,-400
0,6652292,199,-1872,-390,-1020,-569,-327,314,148,-400
0,6652297,199,-1872,-390,-1020,-569,-327,314,148,-400
0,6652302,198,-1874,-385,-1029,-567,-324,314,148,-400
0,6652307,198,-1874,-385,-1029,-567,-324,314,148,-400
0,6652312,198,-1874,-385,-1029,-567,-324,314,148,-400
0,6652317,198,-1874,-385,-1029,-567,-324,314,148,-400
0,6652322,200,-1873,-374,-1030,-563,-322,313,153,-405
0,6652327,200,-1873,-374,-1030,-563,-322,313,153,-405
0,6652334,200,-1873,-374,-1030,-563,-322,313,153,-405
0,6652341,200,-1873,-374,-1030,-563,-322,313,153,-405
0,6652346,200,-1872,-379,-1032,-566,-328,313,153,-405
0,6652352,200,-1872,-379,-1032,-566,-328,313,153,-405
0,6652360,200,-1872,-379,-1032,-566,-328,313,153,-405
0,6652368,198,-1875,-379,-1031,-573,-328,313,153,-405
0,6652376,198,-1875,-379,-1031,-573,-328,313,153,-405
0,6652382,201,-1871,-380,-1030,-572,-321,313,153,-405
0,6652390,201,-1871,-380,-1030,-572,-321,313,153,-405
0,6652396,201,-1871,-380,-1030,-572,-321,313,153,-405
0,6652403,200,-1872,-381,-1031,-574,-327,313,153,-405
0,6652411,200,-1872,-381,-1031,-574,-327,313,153,-405
0,6652419,200,-1872,-381,-1031,-574,-327,313,153,-405
0,6652425,199,-1874,-387,-1022,-564,-326,313,153,-405
0,6652432,199,-1874,-387,-1022,-564,-326,313,153,-405
0,6652439,199,-1874,-387,-1022,-564,-326,313,153,-405
0,6652445,203,-1874,-385,-1026,-573,-327,309,145,-409
0,6652451,203,-1874,-385,-1026,-573,-327,309,145,-409
0,6652460,203,-1874,-385,-1026,-573,-327,309,145,-409
0,6652467,199,-1873,-380,-1028,-574,-318,309,145,-409
0,6652474,199,-1873,-380,-1028,-574,-318,309,145,-409
0,6652481,199,-1873,-380,-1028,-574,-318,309,145,-409
0,6652487,197,-1874,-382,-1019,-568,-318,309,145,-409
0,6652495,197,-1874,-382,-1019,-568,-318,309,145,-409
0,6652500,197,-1874,-382,-1019,-568,-318,309,145,-409
0,6652509,199,-1871,-383,-1029,-565,-328,309,145,-409
0,6652517,199,-1871,-383,-1029,-565,-328,309,145,-409
0,6652524,200,-1870,-381,-1028,-568,-327,309,145,-409
0,6652531,200,-1870,-381,-1028,-568,-327,309,145,-409
0,6652538,200,-1870,-381,-1028,-568,-327,309,145,-409
0,6652544,197,-1872,-389,-1030,-569,-327,309,145,-409
0,6652551,197,-1872,-389,-1030,-569,-327,309,145,-409
0,6652559,197,-1872,-389,-1030,-569,-327,309,145,-409
0,6652567,198,-1873,-389,-1030,-567,-317,309,145,-409
0,6652575,198,-1873,-389,-1030,-567,-317,309,145,-409
0,6652581,198,-1873,-389,-1030,-567,-317,309,145,-409
0,6652589,199,-1875,-382,-1035,-567,-322,316,154,-408
0,6652594,199,-1875,-382,-1035,-567,-322,316,154,-408
0,6652599,199,-1875,-382,-1035,-567,-322,316,154,-408
0,6652604,198,-1875,-381,-1032,-568,-329,316,154,-408
0,6652609,198,-1875,-381,-1032,-568,-329,316,154,-408
0,6652614,198,-1875,-381,-1032,-568,-329,316,154,-408
0,6652621,198,-1875,-381,-1032,-568,-329,316,154,-408
0,6652628,199,-1873,-382,-1031,-572,-316,316,154,-408
0,6652638,199,-1873,-382,-1031,-572,-316,316,154,-408
0,6652645,200,-1872,-384,-1021,-566,-322,316,154,-408
0,6652653,200,-1872,-384,-1021,-566,-322,316,154,-408
0,6652659,200,-1872,-384,-1021,-566,-322,316,154,-408
0,6652666,198,-1872,-385,-1030,-563,-325,316,154,-408
0,6652675,198,-1872,-385,-1030,-563,-325,316,154,-408
0,6652682,199,-1873,-391,-1030,-567,-320,316,154,-408
0,6652689,199,-1873,-391,-1030,-567,-320,316,154,-408
0,6652695,199,-1873,-391,-1030,-567,-320,316,154,-408
0,6652701,199,-1873,-391,-1030,-567,-320,316,154,-408
0,6652709,201,-1872,-378,-1027,-566,-328,308,140,-402
0,6652718,201,-1872,-378,-1027,-566,-328,308,140,-402
0,6652726,200,-1874,-377,-1028,-562,-331,308,140,-402
0,6652733,200,-1874,-377,-1028,-562,-331,308,140,-402
0,6652739,200,-1874,-377,-1028,-562,-331,308,140,-402
0,6652748,199,-1877,-381,-1025,-566,-327,308,140,-402
0,6652755,199,-1877,-381,-1025,-566,-327,308,140,-402
0,6652762,199,-1877,-381,-1025,-566,-327,308,140,-402
0,6652766,199,-1874,-389,-1030,-569,-324,308,140,-402
0,6652772,199,-1874,-389,-1030,-569,-324,308,140,-402
0,6652780,199,-1874,-389,-1030,-569,-324,308,140,-402
0,6652786,197,-1875,-384,-1026,-578,-328,308,140,-402
0,6652793,197,-1875,-384,-1026,-578,-328,308,140,-402
0,6652800,197,-1875,-384,-1026,-578,-328,308,140,-402
0,6652808,205,-1875,-384,-1026,-575,-326,308,140,-402
0,6652814,205,-1875,-384,-1026,-575,-326,308,140,-402
0,6652819,205,-1875,-384,-1026,-575,-326,308,140,-402
0,6652827,200,-1875,-386,-1027,-566,-329,308,140,-402
0,6652834,200,-1875,-386,-1027,-566,-329,308,140,-402
0,6652843,201,-1874,-384,-1032,-570,-329,311,147,-403
0,6652850,201,-1874,-384,-1032,-570,-329,311,147,-403
0,6652857,201,-1874,-384,-1032,-570,-329,311,147,-403
0,6652864,198,-1876,-388,-1034,-569,-328,311,147,-403
0,6652871,198,-1876,-388,-1034,-569,-328,311,147,-403
0,6652880,198,-1876,-388,-1034,-569,-328,311,147,-403
0,6652889,194,-1871,-382,-1029,-567,-321,311,147,-403
0,6652902,194,-1871,-382,-1029,-567,-321,311,147,-403
0,6652915,200,-1875,-389,-1025,-566,-326,311,147,-403
0,6652930,197,-1874,-386,-1035,-571,-327,311,147,-403
0,6652939,197,-1874,-386,-1035,-571,-327,311,147,-403
0,6652951,201,-1873,-384,-1029,-568,-323,311,147,-403
0,6652963,201,-1876,-377,-1025,-568,-318,319,149,-401
0,6652977,201,-1876,-377,-1025,-568,-318,319,149,-401
0,6652988,201,-1874,-383,-1025,-571,-330,319,149,-401
0,6653002,201,-1874,-383,-1025,-571,-330,319,149,-401
0,6653014,201,-1873,-382,-1035,-574,-329,319,149,-401
0,6653027,200,-1872,-377,-1026,-569,-321,319,149,-401
0,6653040,200,-1872,-377,-1026,-569,-321,319,149,-401
0,6653052,200,-1874,-385,-1035,-570,-329,319,149,-401
0,6653064,198,-1875,-388,-1035,-567,-334,319,149,-401
0,6653076,198,-1875,-388,-1035,-567,-334,319,149,-401
0,6653088,200,-1874,-384,-1038,-571,-325,319,149,-401
0,6653101,200,-1874,-384,-1038,-571,-325,319,149,-401
0,6653111,200,-1875,-380,-1033,-572,-324,316,152,-402
0,6653121,200,-1875,-380,-1033,-572,-324,316,152,-402
0,6653133,200,-1876,-380,-1039,-570,-323,316,152,-402
0,6653147,197,-1871,-380,-1031,-562,-324,316,152,-402
0,6653157,197,-1871,-380,-1031,-562,-324,316,152,-402
0,6653167,201,-1876,-382,-1031,-566,-326,316,152,-402
0,6653178,201,-1876,-382,-1031,-566,-326,316,152,-402
0,6653191,200,-1873,-385,-1030,-567,-321,316,152,-402
0,6653204,201,-1871,-377,-1036,-569,-329,316,152,-402
0,6653216,201,-1871,-377,-1036,-569,-329,316,152,-402
0,6653225,198,-1875,-381,-1029,-572,-329,306,154,-402
0,6653237,198,-1875,-381,-1029,-572,-329,306,154,-402
0,6653252,200,-1875,-384,-1022,-569,-327,306,154,-402
0,6653263,200,-1872,-383,-1030,-569,-327,306,154,-402
0,6653274,200,-1872,-383,-1030,-569,-327,306,154,-402
0,6653286,198,-1876,-383,-1040,-568,-327,306,154,-402
0,6653296,198,-1876,-383,-1040,-568,-327,306,154,-402
0,6653304,200,-1875,-385,-1038,-569,-325,306,154,-402
0,6653313,200,-1875,-385,-1038,-569,-325,306,154,-402
0,6653320,200,-1875,-385,-1038,-569,-325,306,154,-402
0,6653328,199,-1872,-388,-1034,-567,-326,306,154,-402
0,6653336,199,-1872,-388,-1034,-567,-326,306,154,-402
0,6653344,200,-1875,-379,-1024,-565,-334,309,149,-409
0,6653352,200,-1875,-379,-1024,-565,-334,309,149,-409
0,6653361,200,-1875,-379,-1024,-565,-334,309,149,-409
0,6653369,198,-1872,-380,-1026,-563,-337,309,149,-409
0,6653378,198,-1872,-380,-1026,-563,-337,309,149,-409
0,6653385,200,-1873,-379,-1028,-559,-323,309,149,-409
0,6653394,200,-1873,-379,-1028,-559,-323,309,149,-409
0,6653403,198,-1874,-385,-1033,-561,-322,309,149,-409
0,6653413,198,-1874,-385,-1033,-561,-322,309,149,-409
0,6653420,198,-1874,-385,-1033,-561,-322,309,149,-409
0,6653429,198,-1874,-386,-1031,-563,-321,309,149,-409
0,6653440,198,-1874,-386,-1031,-563,-321,309,149,-409
0,6653449,197,-1874,-390,-1020,-556,-323,309,149,-409
0,6653457,197,-1874,-390,-1020,-556,-323,309,149,-409
0,6653466,198,-1874,-382,-1027,-567,-333,309,149,-409
0,6653476,198,-1874,-382,-1027,-567,-333,309,149,-409
0,6653490,198,-1875,-377,-1027,-560,-323,315,153,-403
0,6653501,198,-1875,-377,-1027,-560,-323,315,153,-403
0,6653513,197,-1875,-379,-1024,-566,-315,315,153,-403
0,6653526,197,-1873,-384,-1028,-571,-330,315,153,-403
0,6653539,197,-1873,-384,-1028,-571,-330,315,153,-403
0,6653551,198,-1873,-388,-1030,-563,-328,315,153,-403
0,6653563,200,-1872,-382,-1027,-559,-326,315,153,-403
0,6653576,200,-1872,-382,-1027,-559,-326,315,153,-403
0,6653589,200,-1872,-382,-1027,-559,-326,315,153,-403
0,6653597,200,-1872,-382,-1027,-559,-326,315,153,-403
0,6653605,199,-1874,-382,-1031,-570,-326,308,150,-402
0,6653613,199,-1874,-382,-1031,-570,-326,308,150,-402
0,6653621,199,-1874,-382,-1031,-570,-326,308,150,-402
0,6653633,199,-1874,-384,-1038,-566,-328,308,150,-402
0,6653642,199,-1874,-384,-1038,-566,-328,308,150,-402
0,6653655,199,-1875,-386,-1035,-568,-325,308,150,-402
0,6653667,196,-1876,-383,-1021,-568,-329,308,150,-402
0,6653680,196,-1876,-383,-1021,-568,-329,308,150,-402
0,6653691,200,-1873,-387,-1032,-567,-330,308,150,-402
0,6653707,199,-1875,-381,-1034,-564,-329,308,150,-402
0,6653718,199,-1875,-381,-1034,-564,-329,308,150,-402
0,6653730,200,-1874,-382,-1035,-563,-314,308,150,-402
0,6653745,199,-1871,-379,-1034,-562,-329,310,152,-406
0,6653757,199,-1871,-379,-1034,-562,-329,310,152,-406
0,6653769,198,-1877,-383,-1025,-567,-323,310,152,-406
0,6653780,198,-1877,-383,-1025,-567,-323,310,152,-406
0,6653794,201,-1871,-381,-1025,-572,-325,310,152,-406
0,6653807,200,-1871,-381,-1035,-569,-328,310,152,-406
0,6653819,200,-1871,-381,-1035,-569,-328,310,152,-406
0,6653834,202,-1873,-390,-1031,-568,-326,310,152,-406
0,6653846,200,-1873,-387,-1032,-566,-324,310,152,-406
0,6653859,200,-1873,-387,-1032,-566,-324,310,152,-406
0,6653871,197,-1869,-380,-1028,-562,-332,310,142,-404
0,6653880,197,-1869,-380,-1028,-562,-332,310,142,-404
0,6653889,199,-1873,-383,-1034,-568,-322,310,142,-404
0,6653896,199,-1873,-383,-1034,-568,-322,310,142,-404
0,6653903,198,-1875,-378,-1025,-558,-322,310,142,-404
0,6653911,198,-1875,-378,-1025,-558,-322,310,142,-404
0,6653918,198,-1875,-378,-1025,-558,-322,310,142,-404
0,6653923,201,-1872,-382,-1031,-565,-327,310,142,-404
0,6653931,201,-1872,-382,-1031,-565,-327,310,142,-404
0,6653938,201,-1872,-382,-1031,-565,-327,310,142,-404
0,6653945,201,-1875,-385,-1030,-567,-330,310,142,-404
0,6653953,201,-1875,-385,-1030,-567,-330,310,142,-404
0,6653960,201,-1875,-385,-1030,-567,-330,310,142,-404
0,6653968,198,-1874,-380,-1036,-566,-331,310,142,-404
0,6653973,198,-1874,-380,-1036,-566,-331,310,142,-404
0,6653980,198,-1874,-380,-1036,-566,-331,310,142,-404
0,6653988,199,-1874,-383,-1030,-567,-335,312,142,-410
0,6653996,199,-1874,-383,-1030,-567,-335,312,142,-410
0,6654001,199,-1874,-383,-1030,-567,-335,312,142,-410
0,6654006,201,-1874,-381,-1033,-569,-329,312,142,-410
0,6654011,201,-1874,-381,-1033,-569,-329,312,142,-410
0,6654018,201,-1874,-381,-1033,-569,-329,312,142,-410
0,6654025,201,-1879,-385,-1033,-570,-322,312,142,-410
0,6654032,201,-1879,-385,-1033,-570,-322,312,142,-410
0,6654040,201,-1879,-385,-1033,-570,-322,312,142,-410
0,6654047,201,-1876,-387,-1026,-565,-318,312,142,-410
0,6654054,201,-1876,-387,-1026,-565,-318,312,142,-410
0,6654061,201,-1876,-387,-1026,-565,-318,312,142,-410
0,6654068,198,-1874,-383,-1017,-568,-326,312,142,-410
0,6654074,198,-1874,-383,-1017,-568,-326,312,142,-410
0,6654083,198,-1874,-383,-1017,-568,-326,312,142,-410
0,6654090,198,-1874,-385,-1026,-571,-323,312,142,-410
0,6654097,198,-1874,-385,-1026,-571,-323,312,142,-410
0,6654103,200,-1874,-378,-1036,-570,-323,312,142,-410
0,6654112,200,-1874,-378,-1036,-570,-323,312,142,-410
0,6654118,200,-1874,-378,-1036,-570,-323,312,142,-410
0,6654126,200,-1874,-377,-1028,-567,-330,316,148,-404
0,6654132,200,-1874,-377,-1028,-567,-330,316,148,-404
0,6654139,200,-1874,-377,-1028,-567,-330,316,148,-404
0,6654146,202,-1873,-384,-1023,-555,-334,316,148,-404
0,6654154,202,-1873,-384,-1023,-555,-334,316,148,-404
0,6654162,202,-1873,-384,-1023,-555,-334,316,148,-404
0,6654168,201,-1872,-387,-1033,-561,-333,316,148,-404
0,6654175,201,-1872,-387,-1033,-561,-333,316,148,-404
0,6654182,201,-1872,-387,-1033,-561,-333,316,148,-404
0,6654189,199,-1876,-379,-1036,-570,-330,316,148,-404
0,6654196,199,-1876,-379,-1036,-570,-330,316,148,-404
0,6654203,200,-1877,-383,-1024,-570,-324,316,148,-404
0,6654210,200,-1877,-383,-1024,-570,-324,316,148,-404
0,6654219,200,-1877,-383,-1024,-570,-324,316,148,-404
0,6654226,201,-1873,-385,-1023,-568,-327,316,148,-404
0,6654234,201,-1873,-385,-1023,-568,-327,316,148,-404
0,6654241,201,-1873,-385,-1023,-568,-327,316,148,-404
0,6654246,200,-1874,-388,-1023,-567,-327,308,140,-404
0,6654254,200,-1874,-388,-1023,-567,-327,308,140,-404
0,6654260,200,-1874,-388,-1023,-567,-327,308,140,-404
0,6654268,198,-1873,-384,-1022,-563,-326,308,140,-404
0,6654275,198,-1873,-384,-1022,-563,-326,308,140,-404
0,6654283,198,-1873,-384,-1022,-563,-326,308,140,-404
0,6654290,199,-1874,-384,-1030,-567,-325,308,140,-404
0,6654296,199,-1874,-384,-1030,-567,-325,308,140,-404
0,6654301,199,-1874,-384,-1030,-567,-325,308,140,-404
0,6654306,197,-1877,-386,-1025,-567,-326,308,140,-404
0,6654311,197,-1877,-386,-1025,-567,-326,308,140,-404
0,6654316,197,-1877,-386,-1025,-567,-326,308,140,-404
0,6654321,197,-1877,-386,-1025,-567,-326,308,140,-404
0,6654327,199,-1872,-385,-1021,-565,-322,308,140,-404
0,6654334,199,-1872,-385,-1021,-565,-322,308,140,-404
0,6654342,199,-1872,-385,-1021,-565,-322,308,140,-404
0,6654347,195,-1875,-383,-1024,-568,-326,308,140,-404
0,6654355,195,-1875,-383,-1024,-568,-326,308,140,-404
0,6654361,195,-1875,-383,-1024,-568,-326,308,140,-404
0,6654369,199,-1875,-385,-1030,-564,-327,308,140,-404
0,6654375,199,-1875,-385,-1030,-564,-327,308,140,-404
0,6654383,199,-1875,-385,-1030,-564,-327,308,140,-404
0,6654389,198,-1873,-377,-1032,-566,-328,308,148,-406
0,6654397,198,-1873,-377,-1032,-566,-328,308,148,-406
0,6654404,198,-1876,-383,-1031,-565,-332,308,148,-406
0,6654410,198,-1876,-383,-1031,-565,-332,308,148,-406
0,6654418,198,-1876,-383,-1031,-565,-332,308,148,-406
0,6654425,202,-1875,-383,-1036,-573,-330,308,148,-406
0,6654433,202,-1875,-383,-1036,-573,-330,308,148,-406
0,6654439,202,-1875,-383,-1036,-573,-330,308,148,-406
0,6654446,200,-1876,-385,-1033,-566,-329,308,148,-406
0,6654453,200,-1876,-385,-1033,-566,-329,308,148,-406
0,6654460,200,-1876,-385,-1033,-566,-329,308,148,-406
0,6654468,200,-1874,-381,-1029,-564,-321,308,148,-406
0,6654475,200,-1874,-381,-1029,-564,-321,308,148,-406
0,6654481,200,-1874,-381,-1029,-564,-321,308,148,-406
0,6654488,196,-1871,-384,-1033,-568,-325,308,148,-406
0,6654495,196,-1871,-384,-1033,-568,-325,308,148,-406
0,6654502,196,-1871,-384,-1033,-568,-325,308,148,-406
0,6654510,197,-1871,-380,-1026,-568,-321,322,144,-402
0,6654515,197,-1871,-380,-1026,-568,-321,322,144,-402
0,6654521,197,-1871,-380,-1026,-568,-321,322,144,-402
0,6654528,202,-1874,-380,-1028,-562,-321,322,144,-402
0,6654533,202,-1874,-380,-1028,-562,-321,322,144,-402
0,6654539,202,-1874,-380,-1028,-562,-321,322,144,-402
0,6654544,199,-1874,-384,-1029,-568,-333,322,144,-402
0,6654552,199,-1874,-384,-1029,-568,-333,322,144,-402
0,6654559,199,-1874,-384,-1029,-568,-333,322,144,-402
0,6654565,198,-1873,-382,-1033,-574,-331,322,144,-402
0,6654572,198,-1873,-382,-1033,-574,-331,322,144,-402
0,6654577,198,-1873,-382,-1033,-574,-331,322,144,-402
0,6654586,199,-1875,-383,-1036,-572,-338,322,144,-402
0,6654592,199,-1875,-383,-1036,-572,-338,322,144,-402
0,6654598,199,-1875,-383,-1036,-572,-338,322,144,-402
0,6654602,199,-1875,-383,-1036,-572,-338,322,144,-402
0,6654607,199,-1874,-385,-1036,-575,-329,322,144,-402
0,6654612,199,-1874,-385,-1036,-575,-329,322,144,-402
0,6654617,199,-1874,-385,-1036,-575,-329,322,144,-402
0,6654625,199,-1873,-379,-1030,-566,-328,322,144,-402
0,6654632,199,-1873,-379,-1030,-566,-328,322,144,-402
0,6654641,199,-1873,-379,-1030,-566,-328,322,144,-402
0,6654646,198,-1874,-379,-1032,-569,-329,314,144,-406
0,6654655,198,-1874,-379,-1032,-569,-329,314,144,-406
0,6654661,198,-1874,-379,-1032,-569,-329,314,144,-406
0,6654668,197,-1875,-383,-1023,-570,-333,314,144,-406
0,6654674,197,-1875,-383,-1023,-570,-333,314,144,-406
0,6654682,197,-1875,-383,-1023,-570,-333,314,144,-406
0,6654689,197,-1872,-383,-1027,-568,-331,314,144,-406
0,6654696,197,-1872,-383,-1027,-568,-331,314,144,-406
0,6654703,197,-1872,-383,-1027,-568,-331,314,144,-406
0,6654710,199,-1874,-386,-1030,-568,-334,314,144,-406
0,6654716,199,-1874,-386,-1030,-568,-334,314,144,-406
0,6654723,199,-1874,-386,-1030,-568,-334,314,144,-406
0,6654731,201,-1876,-390,-1029,-561,-325,314,144,-406
0,6654738,201,-1876,-390,-1029,-561,-325,314,144,-406
0,6654746,198,-1875,-382,-1028,-563,-328,314,144,-406
0,6654754,198,-1875,-382,-1028,-563,-328,314,144,-406
0,6654761,198,-1875,-382,-1028,-563,-328,314,144,-406
0,6654769,198,-1872,-377,-1027,-563,-327,302,152,-396
0,6654776,198,-1872,-377,-1027,-563,-327,302,152,-396
0,6654783,198,-1872,-377,-1027,-563,-327,302,152,-396
0,6654791,195,-1873,-380,-1029,-566,-323,302,152,-396
0,6654796,195,-1873,-380,-1029,-566,-323,302,152,-396
0,6654804,198,-1876,-383,-1028,-566,-332,302,152,-396
0,6654813,198,-1876,-383,-1028,-566,-332,302,152,-396
0,6654820,198,-1876,-383,-1028,-566,-332,302,152,-396
0,6654827,197,-1871,-388,-1031,-567,-325,302,152,-396
0,6654834,197,-1871,-388,-1031,-567,-325,302,152,-396
0,6654843,197,-1871,-388,-1031,-567,-325,302,152,-396
0,6654850,197,-1878,-388,-1036,-563,-329,302,152,-396
0,6654857,197,-1878,-388,-1036,-563,-329,302,152,-396
0,6654865,197,-1871,-386,-1025,-568,-329,302,152,-396
0,6654872,197,-1871,-386,-1025,-568,-329,302,152,-396
0,6654878,197,-1871,-386,-1025,-568,-329,302,152,-396
0,6654885,196,-1872,-383,-1029,-572,-323,317,153,-403
0,6654892,196,-1872,-383,-1029,-572,-323,317,153,-403
0,6654900,196,-1872,-383,-1029,-572,-323,317,153,-403
0,6654913,198,-1874,-384,-1029,-568,-331,317,153,-403
0,6654927,198,-1874,-380,-1029,-574,-327,317,153,-403
0,6654942,198,-1874,-380,-1029,-574,-327,317,153,-403
0,6654951,198,-1875,-380,-1037,-569,-324,317,153,-403
0,6654963,198,-1875,-380,-1037,-569,-324,317,153,-403
0,6654978,199,-1875,-382,-1034,-570,-321,317,153,-403
0,6654991,201,-1873,-394,-1025,-566,-323,317,153,-403
0,6655000,201,-1873,-394,-1025,-566,-323,317,153,-403
0,6655013,199,-1870,-380,-1025,-566,-332,317,153,-403
0,6655026,198,-1873,-384,-1021,-566,-324,316,158,-402
0,6655038,198,-1873,-384,-1021,-566,-324,316,158,-402
0,6655049,201,-1876,-383,-1023,-566,-328,316,158,-402
0,6655064,201,-1876,-383,-1023,-566,-328,316,158,-402
0,6655076,199,-1873,-385,-1026,-574,-330,316,158,-402
0,6655084,199,-1873,-385,-1026,-574,-330,316,158,-402
0,6655092,199,-1875,-382,-1034,-560,-324,316,158,-402
0,6655101,199,-1875,-382,-1034,-560,-324,316,158,-402
0,6655109,201,-1876,-381,-1026,-566,-321,316,158,-402
0,6655118,201,-1876,-381,-1026,-566,-321,316,158,-402
0,6655130,200,-1874,-381,-1024,-563,-322,316,158,-402
0,6655144,200,-1874,-381,-1024,-563,-322,316,158,-402
0,6655159,202,-1870,-383,-1026,-566,-327,314,148,-406
0,6655168,196,-1876,-378,-1027,-565,-324,314,148,-406
0,6655180,196,-1876,-378,-1027,-565,-324,314,148,-406
0,6655194,197,-1872,-383,-1033,-566,-328,314,148,-406
0,6655206,200,-1874,-382,-1021,-563,-325,314,148,-406
0,6655216,200,-1874,-382,-1021,-563,-325,314,148,-406
0,6655230,198,-1875,-383,-1025,-564,-331,314,148,-406
0,6655243,198,-1875,-383,-1025,-564,-331,314,148,-406
0,6655254,200,-1873,-384,-1020,-561,-325,314,148,-406
0,6655266,199,-1875,-384,-1023,-557,-321,314,148,-406
0,6655280,199,-1875,-384,-1023,-557,-321,314,148,-406
0,6655292,195,-1875,-384,-1025,-569,-320,312,146,-398
0,6655301,195,-1875,-384,-1025,-569,-320,312,146,-398
0,6655308,195,-1875,-384,-1025,-569,-320,312,146,-398
0,6655318,195,-1875,-384,-1025,-569,-320,312,146,-398
0,6655326,198,-1874,-383,-1022,-562,-333,312,146,-398
0,6655334,198,-1874,-383,-1022,-562,-333,312,146,-398
0,6655342,198,-1874,-383,-1022,-562,-333,312,146,-398
0,6655350,201,-1875,-387,-1022,-565,-327,312,146,-398
0,6655358,201,-1875,-387,-1022,-565,-327,312,146,-398
0,6655367,197,-1875,-392,-1019,-561,-324,312,146,-398
0,6655375,197,-1875,-392,-1019,-561,-324,312,146,-398
0,6655383,197,-1875,-392,-1019,-561,-324,312,146,-398
0,6655391,199,-1874,-384,-1027,-570,-324,312,146,-398
0,6655400,199,-1874,-384,-1027,-570,-324,312,146,-398
0,6655414,197,-1873,-382,-1036,-568,-324,308,146,-404
0,6655427,197,-1878,-381,-1031,-565,-323,308,146,-404
0,6655436,197,-1878,-381,-1031,-565,-323,308,146,-404
0,6655449,201,-1875,-384,-1023,-562,-330,308,146,-404
0,6655462,201,-1875,-384,-1023,-562,-330,308,146,-404
0,6655474,195,-1875,-385,-1032,-572,-329,308,146,-404
0,6655484,195,-1875,-385,-1032,-572,-329,308,146,-404
0,6655498,200,-1875,-382,-1032,-569,-328,308,146,-404
0,6655510,201,-1873,-392,-1028,-566,-318,308,146,-404
0,6655523,201,-1873,-392,-1028,-566,-318,308,146,-404
0,6655535,198,-1874,-383,-1033,-570,-325,314,144,-406
0,6655548,199,-1874,-381,-1030,-572,-328,314,144,-406
0,6655559,199,-1874,-381,-1030,-572,-328,314,144,-406
0,6655572,197,-1876,-380,-1035,-574,-325,314,144,-406
0,6655585,197,-1876,-380,-1035,-574,-325,314,144,-406
0,6655594,198,-1875,-386,-1033,-571,-331,314,144,-406
0,6655602,198,-1875,-386,-1033,-571,-331,314,144,-406
0,6655610,198,-1875,-382,-1030,-568,-325,314,144,-406
0,6655619,198,-1875,-382,-1030,-568,-325,314,144,-406
0,6655631,200,-1874,-385,-1030,-560,-324,314,144,-406
0,6655644,200,-1874,-385,-1030,-560,-324,314,144,-406
0,6655656,200,-1873,-382,-1029,-567,-322,314,144,-406
0,6655669,201,-1873,-384,-1030,-574,-326,318,148,-400
0,6655683,201,-1873,-384,-1030,-574,-326,318,148,-400
0,6655696,200,-1877,-380,-1030,-569,-332,318,148,-400
0,6655710,200,-1875,-385,-1023,-563,-327,318,148,-400
0,6655720,200,-1875,-385,-1023,-563,-327,318,148,-400
0,6655732,198,-1875,-386,-1026,-567,-325,318,148,-400
0,6655744,198,-1875,-386,-1026,-567,-325,318,148,-400
0,6655757,198,-1874,-385,-1029,-568,-313,318,148,-400
0,6655766,199,-1873,-383,-1030,-567,-321,318,148,-400
0,6655774,199,-1873,-383,-1030,-567,-321,318,148,-400
0,6655782,199,-1873,-383,-1030,-567,-321,318,148,-400
0,6655791,196,-1877,-387,-1029,-570,-327,307,141,-405
0,6655802,196,-1877,-387,-1029,-570,-327,307,141,-405
0,6655817,198,-1873,-387,-1029,-570,-325,307,141,-405
0,6655833,196,-1875,-385,-1034,-571,-333,307,141,-405
0,6655844,196,-1875,-385,-1034,-571,-333,307,141,-405
0,6655854,198,-1874,-387,-1031,-563,-328,307,141,-405
0,6655867,200,-1875,-385,-1031,-565,-325,307,141,-405
0,6655882,200,-1875,-385,-1031,-565,-325,307,141,-405
0,6655893,200,-1872,-386,-1033,-565,-326,307,141,-405
0,6655901,200,-1872,-386,-1033,-565,-326,307,141,-405
0,6655909,200,-1875,-381,-1035,-564,-327,307,141,-405
0,6655916,200,-1875,-381,-1035,-564,-327,307,141,-405
0,6655923,200,-1875,-381,-1035,-564,-327,307,141,-405
0,6655930,200,-1872,-382,-1033,-562,-327,312,150,-402
0,6655936,200,-1872,-382,-1033,-562,-327,312,150,-402
0,6655943,200,-1872,-382,-1033,-562,-327,312,150,-402
0,6655950,202,-1873,-382,-1029,-567,-323,312,150,-402
0,6655960,202,-1873,-382,-1029,-567,-323,312,150,-402
0,6655966,198,-1872,-386,-1033,-563,-324,312,150,-402
0,6655972,198,-1872,-386,-1033,-563,-324,312,150,-402
0,6655978,198,-1872,-386,-1033,-563,-324,312,150,-402
0,6655986,199,-1869,-387,-1034,-563,-329,312,150,-402
0,6655993,199,-1869,-387,-1034,-563,-329,312,150,-402
0,6656001,199,-1869,-387,-1034,-563,-329,312,150,-402
0,6656006,198,-1872,-384,-1035,-567,-326,312,150,-402
0,6656014,198,-1872,-384,-1035,-567,-326,312,150,-402
0,6656022,198,-1872,-384,-1035,-567,-326,312,150,-402
0,6656029,199,-1876,-385,-1024,-561,-328,312,150,-402
0,6656035,199,-1876,-385,-1024,-561,-328,312,150,-402
0,6656043,199,-1876,-385,-1024,-561,-328,312,150,-402
0,6656049,196,-1873,-379,-1025,-566,-328,312,146,-402
0,6656055,196,-1873,-379,-1025,-566,-328,312,146,-402
0,6656063,196,-1873,-379,-1025,-566,-328,312,146,-402
0,6656070,201,-1875,-386,-1032,-572,-330,312,146,-402
0,6656077,201,-1875,-386,-1032,-572,-330,312,146,-402
0,6656086,201,-1875,-386,-1032,-572,-330,312,146,-402
0,6656094,199,-1875,-387,-1030,-570,-327,312,146,-402
0,6656100,199,-1875,-387,-1030,-570,-327,312,146,-402
0,6656107,198,-1875,-388,-1031,-565,-326,312,146,-402
0,6656114,198,-1875,-388,-1031,-565,-326,312,146,-402
0,6656120,198,-1875,-388,-1031,-565,-326,312,146,-402
0,6656125,197,-1876,-385,-1022,-563,-325,312,146,-402
0,6656134,197,-1876,-385,-1022,-563,-325,312,146,-402
0,6656140,197,-1876,-385,-1022,-563,-325,312,146,-402
0,6656147,200,-1876,-381,-1024,-561,-318,312,146,-402
0,6656154,200,-1876,-381,-1024,-561,-318,312,146,-402
0,6656161,200,-1876,-381,-1024,-561,-318,312,146,-402
0,6656168,198,-1874,-384,-1025,-563,-329,312,146,-402
0,6656176,198,-1874,-384,-1025,-563,-329,312,146,-402
0,6656183,198,-1874,-384,-1025,-563,-329,312,146,-402
0,6656191,199,-1873,-383,-1033,-565,-331,308,144,-396
0,6656197,199,-1873,-383,-1033,-565,-331,308,144,-396
0,6656204,199,-1873,-383,-1033,-565,-331,308,144,-396
0,6656211,201,-1876,-381,-1026,-566,-319,308,144,-396
0,6656220,201,-1876,-381,-1026,-566,-319,308,144,-396
0,6656228,200,-1875,-382,-1025,-570,-326,308,144,-396
0,6656235,200,-1875,-382,-1025,-570,-326,308,144,-396
0,6656242,200,-1875,-382,-1025,-570,-326,308,144,-396
0,6656249,199,-1872,-382,-1031,-565,-324,308,144,-396
0,6656258,199,-1872,-382,-1031,-565,-324,308,144,-396
0,6656265,199,-1872,-382,-1031,-565,-324,308,144,-396
0,6656271,200,-1876,-385,-1030,-568,-330,308,144,-396
0,6656280,200,-1876,-385,-1030,-568,-330,308,144,-396
0,6656287,197,-1879,-391,-1028,-567,-325,308,144,-396
0,6656294,197,-1879,-391,-1028,-567,-325,308,144,-396
0,6656300,197,-1879,-391,-1028,-567,-325,308,144,-396
0,6656305,197,-1879,-391,-1028,-567,-325,308,144,-396
0,6656312,202,-1877,-381,-1030,-570,-323,310,142,-406
0,6656318,202,-1877,-381,-1030,-570,-323,310,142,-406
0,6656323,202,-1877,-381,-1030,-570,-323,310,142,-406
0,6656328,195,-1877,-383,-1019,-568,-326,310,142,-406
0,6656334,195,-1877,-383,-1019,-568,-326,310,142,-406
0,6656342,195,-1877,-383,-1019,-568,-326,310,142,-406
0,6656349,199,-1875,-387,-1022,-569,-327,310,142,-406
0,6656356,199,-1875,-387,-1022,-569,-327,310,142,-406
0,6656363,199,-1875,-387,-1022,-569,-327,310,142,-406
0,6656369,198,-1874,-388,-1032,-565,-329,310,142,-406
0,6656376,198,-1874,-388,-1032,-565,-329,310,142,-406
0,6656382,198,-1874,-388,-1032,-565,-329,310,142,-406
0,6656389,198,-1875,-382,-1027,-571,-331,310,142,-406
0,6656397,198,-1875,-382,-1027,-571,-331,310,142,-406
0,6656403,198,-1875,-382,-1027,-571,-331,310,142,-406
0,6656411,198,-1875,-380,-1028,-566,-335,310,142,-406
0,6656417,198,-1875,-380,-1028,-566,-335,310,142,-406
0,6656422,198,-1875,-380,-1028,-566,-335,310,142,-406
0,6656431,200,-1873,-383,-1026,-561,-326,320,150,-400
0,6656438,200,-1873,-383,-1026,-561,-326,320,150,-400
0,6656446,200,-1873,-383,-1026,-561,-326,320,150,-400
0,6656454,201,-1875,-378,-1029,-558,-324,320,150,-400
0,6656460,201,-1875,-378,-1029,-558,-324,320,150,-400
0,6656467,200,-1873,-384,-1024,-565,-332,320,150,-400
0,6656475,200,-1873,-384,-1024,-565,-332,320,150,-400
0,6656482,200,-1873,-384,-1024,-565,-332,320,150,-400
0,6656489,199,-1875,-384,-1028,-571,-326,320,150,-400
0,6656497,199,-1875,-384,-1028,-571,-326,320,150,-400
0,6656503,199,-1875,-384,-1028,-571,-326,320,150,-400
0,6656509,198,-1870,-389,-1030,-566,-328,320,150,-400
0,6656516,198,-1870,-389,-1030,-566,-328,320,150,-400
0,6656525,198,-1870,-389,-1030,-566,-328,320,150,-400
0,6656532,200,-1874,-392,-1032,-570,-323,320,150,-400
0,6656541,200,-1874,-392,-1032,-570,-323,320,150,-400
0,6656547,197,-1874,-387,-1032,-569,-318,320,150,-400
0,6656555,197,-1874,-387,-1032,-569,-318,320,150,-400
0,6656563,197,-1874,-387,-1032,-569,-318,320,150,-400
0,6656569,199,-1872,-382,-1033,-569,-325,309,147,-405
0,6656576,199,-1872,-382,-1033,-569,-325,309,147,-405
0,6656583,199,-1872,-382,-1033,-569,-325,309,147,-405
0,6656590,198,-1875,-385,-1032,-571,-324,309,147,-405
0,6656595,198,-1875,-385,-1032,-571,-324,309,147,-405
0,6656601,198,-1875,-385,-1032,-571,-324,309,147,-405
0,6656606,198,-1875,-385,-1032,-571,-324,309,147,-405
0,6656611,200,-1874,-385,-1026,-561,-327,309,147,-405
0,6656617,200,-1874,-385,-1026,-561,-327,309,147,-405
0,6656622,200,-1874,-385,-1026,-561,-327,309,147,-405
0,6656630,201,-1873,-385,-1028,-565,-323,309,147,-405
0,6656637,201,-1873,-385,-1028,-565,-323,309,147,-405
0,6656646,201,-1873,-385,-1028,-565,-323,309,147,-405
0,6656652,200,-1873,-384,-1028,-565,-327,309,147,-405
0,6656659,200,-1873,-384,-1028,-565,-327,309,147,-405
0,6656666,200,-1873,-384,-1028,-565,-327,309,147,-405
0,6656674,201,-1874,-383,-1025,-571,-324,309,147,-405
0,6656681,201,-1874,-383,-1025,-571,-324,309,147,-405
0,6656688,203,-1874,-382,-1032,-566,-321,313,147,-401
0,6656693,203,-1874,-382,-1032,-566,-321,313,147,-401
0,6656700,203,-1874,-382,-1032,-566,-321,313,147,-401
0,6656706,203,-1874,-382,-1032,-566,-321,313,147,-401
0,6656714,198,-1873,-383,-1033,-572,-320,313,147,-401
0,6656721,198,-1873,-383,-1033,-572,-320,313,147,-401
0,6656730,199,-1875,-387,-1027,-571,-326,313,147,-401
0,6656736,199,-1875,-387,-1027,-571,-326,313,147,-401
0,6656743,199,-1875,-387,-1027,-571,-326,313,147,-401
0,6656750,198,-1874,-382,-1041,-570,-326,313,147,-401
0,6656757,198,-1874,-382,-1041,-570,-326,313,147,-401
0,6656764,198,-1874,-382,-1041,-570,-326,313,147,-401
0,6656773,198,-1872,-389,-1030,-570,-327,313,147,-401
0,6656781,198,-1872,-389,-1030,-570,-327,313,147,-401
0,6656789,198,-1877,-386,-1028,-568,-328,313,147,-401
0,6656798,198,-1877,-386,-1028,-568,-328,313,147,-401
0,6656805,198,-1877,-386,-1028,-568,-328,313,147,-401
0,6656811,199,-1874,-386,-1038,-575,-326,313,147,-401
0,6656817,199,-1874,-386,-1038,-575,-326,313,147,-401
0,6656821,199,-1874,-386,-1038,-575,-326,313,147,-401
0,6656828,200,-1873,-374,-1039,-565,-331,310,148,-402
0,6656835,200,-1873,-374,-1039,-565,-331,310,148,-402
0,6656841,200,-1873,-374,-1039,-565,-331,310,148,-402
0,6656849,201,-1870,-384,-1032,-565,-322,310,148,-402
0,6656857,201,-1870,-384,-1032,-565,-322,310,148,-402
0,6656864,201,-1870,-384,-1032,-565,-322,310,148,-402
0,6656870,200,-1874,-379,-1038,-566,-326,310,148,-402
0,6656876,200,-1874,-379,-1038,-566,-326,310,148,-402
0,6656883,200,-1874,-379,-1038,-566,-326,310,148,-402
0,6656890,199,-1873,-385,-1044,-575,-327,310,148,-402
0,6656899,199,-1873,-385,-1044,-575,-327,310,148,-402
0,6656906,199,-1873,-385,-1044,-575,-327,310,148,-402
0,6656921,198,-1878,-378,-1045,-568,-330,310,148,-402
0,6656933,201,-1871,-387,-1035,-573,-322,310,148,-402
0,6656944,201,-1871,-387,-1035,-573,-322,310,148,-402
0,6656956,199,-1874,-385,-1031,-570,-323,312,150,-414
0,6656971,199,-1875,-385,-1032,-569,-326,312,150,-414
0,6656980,199,-1875,-385,-1032,-569,-326,312,150,-414
0,6656992,199,-1875,-385,-1032,-569,-326,312,150,-414
0,6657005,199,-1875,-385,-1032,-569,-326,312,150,-414
0,6657018,199,-1876,-385,-1028,-567,-328,312,150,-414
0,6657028,198,-1873,-382,-1034,-573,-334,312,150,-414
0,6657041,198,-1873,-382,-1034,-573,-334,312,150,-414
0,6657053,201,-1875,-387,-1032,-571,-330,312,150,-414
0,6657065,201,-1875,-387,-1032,-571,-330,312,150,-414
0,6657077,200,-1876,-383,-1032,-568,-325,312,150,-414
0,6657091,201,-1873,-379,-1028,-568,-333,309,149,-403
0,6657103,201,-1873,-379,-1028,-568,-333,309,149,-403
0,6657116,199,-1875,-387,-1029,-561,-328,309,149,-403
0,6657126,199,-1875,-387,-1029,-561,-328,309,149,-403
0,6657140,199,-1876,-387,-1029,-569,-324,309,149,-403
0,6657152,199,-1874,-381,-1029,-568,-330,309,149,-403
0,6657162,199,-1874,-381,-1029,-568,-330,309,149,-403
0,6657174,199,-1871,-385,-1027,-564,-329,309,149,-403
0,6657188,198,-1875,-378,-1024,-565,-322,309,149,-403
0,6657200,198,-1875,-378,-1024,-565,-322,309,149,-403
0,6657211,195,-1874,-382,-1029,-570,-327,315,147,-395
0,6657225,195,-1874,-382,-1029,-570,-327,315,147,-395
0,6657239,200,-1876,-383,-1030,-563,-323,315,147,-395
0,6657249,199,-1874,-383,-1030,-560,-322,315,147,-395
0,6657259,199,-1874,-383,-1030,-560,-322,315,147,-395
0,6657271,202,-1874,-385,-1035,-565,-322,315,147,-395
0,6657285,202,-1874,-385,-1035,-565,-322,315,147,-395
0,6657296,199,-1877,-387,-1022,-562,-326,315,147,-395
0,6657303,199,-1877,-387,-1022,-562,-326,315,147,-395
0,6657312,199,-1874,-384,-1019,-564,-332,315,147,-395
0,6657320,199,-1874,-384,-1019,-564,-332,315,147,-395
0,6657329,200,-1876,-381,-1031,-571,-331,317,147,-407
0,6657337,200,-1876,-381,-1031,-571,-331,317,147,-407
0,6657345,200,-1876,-381,-1031,-571,-331,317,147,-407
0,6657353,200,-1875,-387,-1029,-572,-328,317,147,-407
0,6657361,200,-1875,-387,-1029,-572,-328,317,147,-407
0,6657371,200,-1875,-383,-1029,-571,-325,317,147,-407
0,6657379,200,-1875,-383,-1029,-571,-325,317,147,-407
0,6657388,200,-1874,-387,-1028,-572,-325,317,147,-407
0,6657396,200,-1874,-387,-1028,-572,-325,317,147,-407
0,6657403,200,-1874,-387,-1028,-572,-325,317,147,-407
0,6657413,200,-1876,-390,-1019,-567,-318,317,147,-407
0,6657420,200,-1876,-390,-1019,-567,-318,317,147,-407
0,6657428,199,-1875,-377,-1019,-561,-327,317,147,-407
0,6657436,199,-1875,-377,-1019,-561,-327,317,147,-407
0,6657444,199,-1875,-377,-1019,-561,-327,317,147,-407
0,6657453,199,-1875,-384,-1030,-569,-327,317,147,-407
0,6657462,199,-1875,-384,-1030,-569,-327,317,147,-407
0,6657470,204,-1875,-382,-1029,-568,-329,309,149,-407
0,6657478,204,-1875,-382,-1029,-568,-329,309,149,-407
0,6657487,204,-1875,-382,-1029,-568,-329,309,149,-407
0,6657496,200,-1875,-380,-1045,-568,-329,309,149,-407
0,6657505,200,-1875,-380,-1045,-568,-329,309,149,-407
0,6657515,196,-1874,-387,-1035,-559,-324,309,149,-407
0,6657524,196,-1874,-387,-1035,-559,-324,309,149,-407
0,6657533,199,-1874,-384,-1030,-563,-325,309,149,-407
0,6657545,199,-1874,-384,-1030,-563,-325,309,149,-407
0,6657557,199,-1874,-385,-1033,-567,-314,309,149,-407
0,6657570,201,-1874,-386,-1037,-565,-324,309,149,-407
0,6657582,201,-1874,-386,-1037,-565,-324,309,149,-407
0,6657593,199,-1872,-387,-1029,-569,-324,309,145,-403
0,6657601,199,-1872,-387,-1029,-569,-324,309,145,-403
0,6657609,201,-1876,-386,-1029,-562,-323,309,145,-403
0,6657617,201,-1876,-386,-1029,-562,-323,309,145,-403
0,6657626,201,-1876,-386,-1029,-562,-323,309,145,-403
0,6657635,202,-1876,-386,-1026,-570,-325,309,145,-403
0,6657644,202,-1876,-386,-1026,-570,-325,309,145,-403
0,6657653,198,-1878,-383,-1036,-574,-322,309,145,-403
0,6657665,198,-1878,-383,-1036,-574,-322,309,145,-403
0,6657674,201,-1875,-385,-1036,-569,-325,309,145,-403
0,6657688,201,-1875,-385,-1036,-569,-325,309,145,-403
0,6657697,201,-1876,-384,-1022,-566,-332,309,145,-403
0,6657711,202,-1876,-393,-1024,-570,-333,309,145,-403
0,6657725,202,-1876,-393,-1024,-570,-333,309,145,-403
0,6657738,199,-1873,-388,-1031,-574,-327,313,147,-401
0,6657747,199,-1873,-388,-1031,-574,-327,313,147,-401
0,6657761,197,-1874,-384,-1025,-560,-325,313,147,-401
0,6657774,199,-1877,-381,-1023,-561,-329,313,147,-401
0,6657787,199,-1877,-381,-1023,-561,-329,313,147,-401
0,6657798,196,-1875,-387,-1034,-562,-323,313,147,-401
0,6657810,201,-1873,-384,-1041,-566,-326,313,147,-401
0,6657822,201,-1873,-384,-1041,-566,-326,313,147,-401
0,6657836,197,-1874,-385,-1030,-573,-330,313,147,-401
0,6657847,197,-1874,-385,-1030,-573,-330,313,147,-401
0,6657860,197,-1877,-384,-1033,-563,-321,314,140,-398
0,6657872,198,-1876,-380,-1030,-560,-323,314,140,-398
0,6657886,198,-1876,-380,-1030,-560,-323,314,140,-398
0,6657898,197,-1873,-382,-1033,-568,-330,314,140,-398
0,6657912,197,-1875,-385,-1031,-564,-327,314,140,-398
0,6657920,197,-1875,-385,-1031,-564,-327,314,140,-398
0,6657927,197,-1875,-385,-1031,-564,-327,314,140,-398
0,6657934,199,-1876,-385,-1034,-563,-331,314,140,-398
0,6657941,199,-1876,-385,-1034,-563,-331,314,140,-398
0,6657949,199,-1875,-383,-1022,-560,-331,314,140,-398
0,6657954,199,-1875,-383,-1022,-560,-331,314,140,-398
0,6657959,199,-1875,-383,-1022,-560,-331,314,140,-398
0,6657965,199,-1875,-383,-1022,-560,-331,314,140,-398
0,6657972,198,-1873,-390,-1025,-569,-333,319,139,-399
0,6657979,198,-1873,-390,-1025,-569,-333,319,139,-399
0,6657987,198,-1873,-390,-1025,-569,-333,319,139,-399
0,6657994,199,-1876,-377,-1035,-566,-325,319,139,-399
0,6658001,199,-1876,-377,-1035,-566,-325,319,139,-399
0,6658008,199,-1876,-377,-1035,-566,-325,319,139,-399
0,6658014,198,-1874,-381,-1035,-572,-330,319,139,-399
0,6658021,198,-1874,-381,-1035,-572,-330,319,139,-399
0,6658028,198,-1874,-381,-1035,-572,-330,319,139,-399
0,6658033,199,-1875,-380,-1028,-570,-333,319,139,-399
0,6658041,199,-1875,-380,-1028,-570,-333,319,139,-399
0,6658049,200,-1875,-383,-1029,-565,-329,319,139,-399
0,6658056,200,-1875,-383,-1029,-565,-329,319,139,-399
0,6658063,200,-1875,-383,-1029,-565,-329,319,139,-399
0,6658071,199,-1874,-387,-1024,-570,-328,319,139,-399
0,6658079,199,-1874,-387,-1024,-570,-328,319,139,-399
0,6658086,199,-1874,-387,-1024,-570,-328,319,139,-399
0,6658095,201,-1874,-381,-1027,-568,-332,319,139,-399
0,6658100,201,-1874,-381,-1027,-568,-332,319,139,-399
0,6658107,201,-1874,-381,-1027,-568,-332,319,139,-399
0,6658114,201,-1876,-376,-1027,-561,-327,308,140,-404
0,6658121,201,-1876,-376,-1027,-561,-327,308,140,-404
0,6658128,201,-1876,-376,-1027,-561,-327,308,140,-404
0,6658134,200,-1876,-377,-1030,-568,-326,308,140,-404
0,6658142,200,-1876,-377,-1030,-568,-326,308,140,-404
0,6658148,200,-1876,-377,-1030,-568,-326,308,140,-404
0,6658156,197,-1876,-381,-1026,-562,-331,308,140,-404
0,6658163,197,-1876,-381,-1026,-562,-331,308,140,-404
0,6658171,200,-1875,-379,-1029,-562,-322,308,140,-404
0,6658179,200,-1875,-379,-1029,-562,-322,308,140,-404
0,6658186,200,-1875,-379,-1029,-562,-322,308,140,-404
0,6658192,201,-1876,-384,-1027,-559,-326,308,140,-404
0,6658198,201,-1876,-384,-1027,-559,-326,308,140,-404
0,6658205,201,-1876,-384,-1027,-559,-326,308,140,-404
0,6658212,199,-1874,-386,-1032,-573,-327,308,140,-404
0,6658221,199,-1874,-386,-1032,-573,-327,308,140,-404
0,6658227,199,-1874,-386,-1032,-573,-327,308,140,-404
0,6658235,200,-1873,-381,-1023,-566,-329,309,161,-415
0,6658241,200,-1873,-381,-1023,-566,-329,309,161,-415
0,6658248,200,-1873,-381,-1023,-566,-329,309,161,-415
0,6658255,201,-1874,-378,-1029,-560,-330,309,161,-415
0,6658264,201,-1874,-378,-1029,-560,-330,309,161,-415
0,6658271,201,-1873,-382,-1031,-565,-327,309,161,-415
0,6658277,201,-1873,-382,-1031,-565,-327,309,161,-415
0,6658284,201,-1873,-382,-1031,-565,-327,309,161,-415
0,6658290,197,-1873,-384,-1028,-563,-322,309,161,-415
0,6658295,197,-1873,-384,-1028,-563,-322,309,161,-415
0,6658301,197,-1873,-384,-1028,-563,-322,309,161,-415
0,6658307,197,-1873,-384,-1028,-563,-322,309,161,-415
0,6658312,197,-1874,-382,-1031,-564,-329,309,161,-415
0,6658317,197,-1874,-382,-1031,-564,-329,309,161,-415
0,6658321,197,-1874,-382,-1031,-564,-329,309,161,-415
0,6658328,197,-1874,-382,-1031,-564,-329,309,161,-415
0,6658334,197,-1875,-383,-1027,-567,-334,309,161,-415
0,6658340,197,-1875,-383,-1027,-567,-334,309,161,-415
0,6658349,197,-1875,-383,-1027,-567,-334,309,161,-415
0,6658356,200,-1876,-387,-1027,-566,-331,309,161,-415
0,6658363,200,-1876,-387,-1027,-566,-331,309,161,-415
0,6658369,202,-1873,-378,-1025,-572,-325,316,156,-408
0,6658377,202,-1873,-378,-1025,-572,-325,316,156,-408
0,6658384,202,-1873,-378,-1025,-572,-325,316,156,-408
0,6658392,200,-1873,-384,-1024,-563,-328,316,156,-408
0,6658398,200,-1873,-384,-1024,-563,-328,316,156,-408
0,6658406,200,-1873,-384,-1024,-563,-328,316,156,-408
0,6658413,199,-1877,-391,-1029,-566,-329,316,156,-408
0,6658418,199,-1877,-391,-1029,-566,-329,316,156,-408
0,6658426,199,-1877,-391,-1029,-566,-329,316,156,-408
0,6658435,199,-1876,-383,-1025,-567,-331,316,156,-408
0,6658442,199,-1876,-383,-1025,-567,-331,316,156,-408
0,6658448,199,-1876,-383,-1025,-567,-331,316,156,-408
0,6658454,195,-1873,-388,-1030,-565,-334,316,156,-408
0,6658462,195,-1873,-388,-1030,-565,-334,316,156,-408
0,6658469,198,-1875,-386,-1024,-566,-329,316,156,-408
0,6658477,198,-1875,-386,-1024,-566,-329,316,156,-408
0,6658485,198,-1875,-386,-1024,-566,-329,316,156,-408
0,6658492,198,-1874,-383,-1023,-568,-329,313,153,-403
0,6658499,198,-1874,-383,-1023,-568,-329,313,153,-403
0,6658504,198,-1874,-383,-1023,-568,-329,313,153,-403
0,6658509,199,-1874,-385,-1028,-577,-331,313,153,-403
0,6658514,199,-1874,-385,-1028,-577,-331,313,153,-403
0,6658522,199,-1874,-385,-1028,-577,-331,313,153,-403
0,6658530,200,-1875,-383,-1028,-568,-327,313,153,-403
0,6658536,200,-1875,-383,-1028,-568,-327,313,153,-403
0,6658542,200,-1875,-383,-1028,-568,-327,313,153,-403
0,6658549,198,-1873,-386,-1032,-573,-328,313,153,-403
0,6658557,198,-1873,-386,-1032,-573,-328,313,153,-403
0,6658565,198,-1873,-386,-1032,-573,-328,313,153,-403
0,6658573,199,-1871,-384,-1033,-570,-328,313,153,-403
0,6658580,199,-1871,-384,-1033,-570,-328,313,153,-403
0,6658587,199,-1871,-384,-1033,-570,-328,313,153,-403
0,6658592,203,-1874,-385,-1034,-574,-331,313,153,-403
0,6658597,203,-1874,-385,-1034,-574,-331,313,153,-403
0,6658603,203,-1874,-385,-1034,-574,-331,313,153,-403
0,6658608,203,-1874,-385,-1034,-574,-331,313,153,-403
0,6658613,199,-1874,-382,-1036,-571,-334,313,153,-403
0,6658620,199,-1874,-382,-1036,-571,-334,313,153,-403
0,6658628,199,-1874,-382,-1036,-571,-334,313,153,-403
0,6658633,201,-1877,-381,-1034,-565,-327,307,145,-401
0,6658641,201,-1877,-381,-1034,-565,-327,307,145,-401
0,6658649,201,-1877,-381,-1034,-565,-327,307,145,-401
0,6658655,200,-1875,-384,-1035,-567,-326,307,145,-401
0,6658661,200,-1875,-384,-1035,-567,-326,307,145,-401
0,6658669,200,-1875,-384,-1035,-567,-326,307,145,-401
0,6658675,200,-1875,-384,-1035,-567,-326,307,145,-401
0,6658682,200,-1875,-384,-1035,-567,-326,307,145,-401
0,6658691,199,-1873,-386,-1024,-569,-332,307,145,-401
0,6658697,199,-1873,-386,-1024,-569,-332,307,145,-401
0,6658704,199,-1873,-386,-1024,-569,-332,307,145,-401
0,6658710,201,-1875,-390,-1025,-572,-330,307,145,-401
0,6658717,201,-1875,-390,-1025,-572,-330,307,145,-401
0,6658725,201,-1875,-390,-1025,-572,-330,307,145,-401
0,6658733,201,-1875,-381,-1028,-570,-326,307,145,-401
0,6658741,201,-1875,-381,-1028,-570,-326,307,145,-401
0,6658749,197,-1875,-379,-1027,-566,-324,314,145,-401
0,6658756,197,-1875,-379,-1027,-566,-324,314,150,-404
0,6658763,197,-1875,-379,-1027,-566,-324,314,150,-404
0,6658770,196,-1871,-374,-1027,-562,-328,314,150,-404
0,6658778,196,-1871,-374,-1027,-562,-328,314,150,-404
0,6658783,196,-1871,-374,-1027,-562,-328,314,150,-404
0,6658792,202,-1873,-379,-1032,-560,-322,314,150,-404
0,6658800,202,-1873,-379,-1032,-560,-322,314,150,-404
0,6658808,202,-1873,-379,-1032,-560,-322,314,150,-404
0,6658816,199,-1873,-386,-1030,-574,-332,314,150,-404
0,6658822,199,-1873,-386,-1030,-574,-332,314,150,-404
0,6658830,201,-1873,-391,-1031,-566,-329,314,150,-404
0,6658837,201,-1873,-391,-1031,-566,-329,314,150,-404
0,6658845,201,-1873,-391,-1031,-566,-329,314,150,-404
0,6658851,199,-1875,-384,-1031,-572,-330,314,150,-404
0,6658856,199,-1875,-384,-1031,-572,-330,314,150,-404
0,6658865,199,-1875,-384,-1031,-572,-330,314,150,-404
0,6658872,198,-1875,-377,-1030,-570,-330,318,138,-408
0,6658879,198,-1875,-377,-1030,-570,-330,318,138,-408
0,6658887,198,-1875,-377,-1030,-570,-330,318,138,-408
0,6658893,200,-1875,-385,-1032,-566,-329,318,138,-408
0,6658900,200,-1875,-385,-1032,-566,-329,318,138,-408
0,6658910,200,-1877,-383,-1031,-563,-327,318,138,-408
0,6658917,200,-1877,-383,-1031,-563,-327,318,138,-408
0,6658929,200,-1877,-383,-1031,-563,-327,318,138,-408
0,6658938,202,-1873,-383,-1034,-570,-317,318,138,-408
0,6658951,200,-1875,-382,-1027,-574,-321,318,138,-408
0,6658963,200,-1875,-382,-1027,-574,-321,318,138,-408
0,6658976,202,-1878,-387,-1034,-566,-322,318,138,-408
0,6658988,202,-1878,-387,-1034,-566,-322,318,138,-408
0,6659002,204,-1876,-380,-1022,-569,-326,318,138,-408
0,6659013,204,-1876,-380,-1022,-569,-326,312,146,-408
0,6659021,204,-1876,-380,-1022,-569,-326,312,146,-408
0,6659030,199,-1873,-382,-1028,-562,-325,312,146,-408
0,6659038,199,-1873,-382,-1028,-562,-325,312,146,-408
0,6659046,199,-1873,-382,-1028,-562,-325,312,146,-408
0,6659055,198,-1873,-384,-1025,-573,-333,312,146,-408
0,6659067,198,-1873,-384,-1025,-573,-333,312,146,-408
0,6659083,197,-1875,-380,-1021,-568,-326,312,146,-408
0,6659096,197,-1875,-380,-1021,-568,-326,312,146,-408
0,6659105,197,-1875,-380,-1021,-568,-326,312,146,-408
0,6659119,198,-1875,-386,-1034,-566,-333,312,146,-408
0,6659132,198,-1875,-386,-1034,-566,-333,303,151,-399
0,6659145,198,-1875,-386,-1034,-566,-333,303,151,-399
0,6659155,199,-1878,-380,-1034,-570,-334,303,151,-399
0,6659169,199,-1878,-380,-1034,-570,-334,303,151,-399
0,6659182,199,-1873,-385,-1034,-564,-325,303,151,-399
0,6659195,200,-1874,-383,-1024,-573,-326,303,151,-399
0,6659205,200,-1874,-383,-1024,-573,-326,303,151,-399
0,6659217,199,-1881,-384,-1029,-564,-331,303,151,-399
0,6659229,199,-1881,-384,-1029,-564,-331,303,151,-399
0,6659243,198,-1874,-384,-1030,-559,-326,303,151,-399
0,6659255,200,-1877,-383,-1026,-568,-329,303,151,-399
0,6659268,200,-1877,-383,-1026,-568,-329,303,151,-399
0,6659280,200,-1877,-381,-1021,-564,-325,306,146,-404
0,6659293,199,-1871,-380,-1021,-567,-322,306,146,-404
0,6659301,199,-1871,-380,-1021,-567,-322,306,146,-404
0,6659309,199,-1871,-380,-1021,-567,-322,306,146,-404
0,6659317,198,-1873,-383,-1036,-560,-324,306,146,-404
0,6659325,198,-1873,-383,-1036,-560,-324,306,146,-404
0,6659334,199,-1871,-381,-1031,-566,-338,306,146,-404
0,6659342,199,-1871,-381,-1031,-566,-338,306,146,-404
0,6659350,201,-1875,-381,-1021,-568,-331,306,146,-404
0,6659358,201,-1875,-381,-1021,-568,-331,306,146,-404
0,6659366,201,-1875,-381,-1021,-568,-331,306,146,-404
0,6659375,197,-1874,-378,-1023,-560,-327,306,146,-404
0,6659383,197,-1874,-378,-1023,-560,-327,306,146,-404
0,6659391,197,-1873,-379,-1024,-566,-328,312,150,-392
0,6659403,197,-1873,-379,-1024,-566,-328,312,150,-392
0,6659417,200,-1874,-382,-1026,-560,-331,312,150,-392
0,6659426,200,-1874,-382,-1026,-560,-331,312,150,-392
0,6659437,200,-1874,-382,-1026,-560,-331,312,150,-392
0,6659449,200,-1874,-382,-1026,-560,-331,312,150,-392
0,6659462,200,-1875,-381,-1034,-559,-321,312,150,-392
0,6659473,199,-1879,-381,-1030,-563,-328,312,150,-392
0,6659487,199,-1879,-381,-1030,-563,-328,312,150,-392
0,6659500,199,-1875,-389,-1035,-566,-324,312,150,-392
0,6659512,201,-1876,-385,-1034,-559,-331,308,144,-402
0,6659524,201,-1876,-385,-1034,-559,-331,308,144,-402
0,6659537,202,-1875,-384,-1029,-569,-330,308,144,-402
0,6659549,202,-1875,-384,-1029,-569,-330,308,144,-402
0,6659561,201,-1874,-381,-1034,-564,-334,308,144,-402
0,6659575,200,-1875,-384,-1035,-569,-328,308,144,-402
0,6659589,200,-1875,-384,-1035,-569,-328,308,144,-402
0,6659596,199,-1872,-387,-1035,-569,-328,308,144,-402
0,6659604,199,-1872,-387,-1035,-569,-328,308,144,-402
0,6659612,199,-1871,-385,-1025,-558,-328,308,144,-402
0,6659619,199,-1871,-385,-1025,-558,-328,308,144,-402
0,6659633,199,-1875,-384,-1028,-563,-318,308,144,-402
0,6659642,199,-1875,-384,-1028,-563,-318,308,144,-402
0,6659652,199,-1877,-378,-1034,-567,-320,310,140,-406
0,6659661,199,-1877,-378,-1034,-567,-320,310,140,-406
0,6659670,199,-1877,-378,-1034,-567,-320,310,140,-406
0,6659678,199,-1876,-378,-1033,-572,-319,310,140,-406
0,6659687,199,-1876,-378,-1033,-572,-319,310,140,-406
0,6659700,198,-1874,-378,-1023,-569,-331,310,140,-406
0,6659709,198,-1874,-378,-1023,-569,-331,310,140,-406
0,6659722,199,-1874,-382,-1031,-565,-329,310,140,-406
0,6659736,200,-1876,-384,-1029,-561,-326,310,140,-406
0,6659750,201,-1877,-387,-1034,-566,-330,310,140,-406
0,6659759,201,-1877,-387,-1034,-566,-330,310,140,-406
0,6659772,196,-1875,-382,-1028,-564,-327,307,145,-405
0,6659786,196,-1875,-382,-1028,-564,-327,307,145,-405
0,6659800,200,-1871,-385,-1033,-567,-326,307,145,-405
0,6659809,200,-1871,-385,-1033,-567,-326,307,145,-405
0,6659822,200,-1874,-388,-1032,-567,-327,307,145,-405
0,6659836,197,-1874,-381,-1023,-559,-323,307,145,-405
0,6659850,197,-1874,-381,-1023,-559,-323,307,145,-405
0,6659859,200,-1875,-388,-1028,-566,-329,307,145,-405
0,6659872,198,-1876,-386,-1025,-562,-320,307,145,-405
0,6659885,198,-1876,-386,-1025,-562,-320,307,145,-405
0,6659898,201,-1872,-383,-1028,-565,-328,307,145,-405
0,6659908,201,-1872,-383,-1028,-565,-328,307,145,-405
0,6659922,200,-1872,-384,-1020,-562,-325,308,144,-398
0,6659932,202,-1874,-381,-1027,-561,-325,308,144,-398
0,6659939,202,-1874,-381,-1027,-561,-325,308,144,-398
0,6659947,202,-1874,-381,-1027,-561,-325,308,144,-398
0,6659954,201,-1872,-387,-1025,-565,-332,308,144,-398
0,6659959,201,-1872,-387,-1025,-565,-332,308,144,-398
0,6659965,201,-1872,-387,-1025,-565,-332,308,144,-398
0,6659973,200,-1878,-381,-1027,-565,-332,308,144,-398
0,6659980,200,-1878,-381,-1027,-565,-332,308,144,-398
0,6659987,200,-1878,-381,-1027,-565,-332,308,144,-398
0,6659994,199,-1872,-378,-1031,-562,-328,308,144,-398
0,6660000,199,-1872,-378,-1031,-562,-328,308,144,-398
0,6660007,199,-1872,-378,-1031,-562,-328,308,144,-398
0,6660016,200,-1875,-383,-1025,-565,-326,308,144,-398
0,6660023,200,-1875,-383,-1025,-565,-326,308,144,-398
0,6660029,200,-1875,-383,-1025,-565,-326,308,144,-398
0,6660036,200,-1875,-382,-1024,-569,-324,302,144,-404
0,6660044,200,-1875,-382,-1024,-569,-324,302,144,-404
0,6660050,201,-1874,-380,-1025,-569,-327,302,144,-404
0,6660058,201,-1874,-380,-1025,-569,-327,302,144,-404
0,6660065,201,-1874,-380,-1025,-569,-327,302,144,-404
0,6660073,197,-1873,-385,-1032,-564,-324,302,144,-404
0,6660080,197,-1873,-385,-1032,-564,-324,302,144,-404
0,6660086,197,-1873,-385,-1032,-564,-324,302,144,-404
0,6660091,199,-1875,-382,-1024,-564,-326,302,144,-404
0,6660100,199,-1875,-382,-1024,-564,-326,302,144,-404
0,6660107,199,-1875,-382,-1024,-564,-326,302,144,-404
0,6660115,200,-1877,-386,-1025,-564,-319,302,144,-404
0,6660122,200,-1877,-386,-1025,-564,-319,302,144,-404
0,6660127,200,-1877,-386,-1025,-564,-319,302,144,-404
0,6660134,198,-1876,-385,-1034,-558,-331,302,144,-404
0,6660142,198,-1876,-385,-1034,-558,-331,302,144,-404
0,6660147,198,-1876,-385,-1034,-558,-331,302,144,-404
0,6660152,199,-1877,-385,-1030,-570,-327,302,144,-404
0,6660157,199,-1877,-385,-1030,-570,-327,302,144,-404
0,6660163,199,-1877,-385,-1030,-570,-327,302,144,-404
0,6660170,199,-1877,-385,-1030,-570,-327,302,144,-404
0,6660177,199,-1875,-377,-1025,-570,-321,309,149,-409
0,6660184,199,-1875,-377,-1025,-570,-321,309,149,-409
0,6660190,199,-1875,-377,-1025,-570,-321,309,149,-409
0,6660195,200,-1876,-382,-1031,-577,-321,309,149,-409
0,6660201,200,-1876,-382,-1031,-577,-321,309,149,-409
0,6660207,200,-1876,-382,-1031,-577,-321,309,149,-409
0,6660215,201,-1874,-379,-1027,-562,-327,309,149,-409
0,6660222,201,-1874,-379,-1027,-562,-327,309,149,-409
0,6660229,201,-1874,-379,-1027,-562,-327,309,149,-409
0,6660237,201,-1873,-383,-1030,-566,-329,309,149,-409
0,6660244,201,-1873,-383,-1030,-566,-329,309,149,-409
0,6660250,201,-1873,-383,-1030,-566,-329,309,149,-409
0,6660257,197,-1875,-385,-1023,-561,-330,309,149,-409
0,6660264,197,-1875,-385,-1023,-561,-330,309,149,-409
0,6660271,199,-1873,-387,-1025,-560,-331,309,149,-409
0,6660277,199,-1873,-387,-1025,-560,-331,309,149,-409
0,6660285,199,-1873,-387,-1025,-560,-331,309,149,-409
0,6660293,198,-1876,-380,-1030,-564,-326,306,152,-402
0,6660298,198,-1876,-380,-1030,-564,-326,306,152,-402
0,6660303,198,-1876,-380,-1030,-564,-326,306,152,-402
0,6660308,198,-1876,-380,-1030,-564,-326,306,152,-402
0,6660314,197,-1874,-386,-1028,-564,-323,306,152,-402
0,6660319,197,-1874,-386,-1028,-564,-323,306,152,-402
0,6660325,197,-1874,-386,-1028,-564,-323,306,152,-402
0,6660333,199,-1870,-384,-1032,-560,-322,306,152,-402
0,6660340,199,-1870,-384,-1032,-560,-322,306,152,-402
0,6660345,199,-1870,-384,-1032,-560,-322,306,152,-402
0,6660352,200,-1876,-385,-1033,-562,-320,306,152,-402
0,6660358,200,-1876,-385,-1033,-562,-320,306,152,-402
0,6660364,200,-1876,-385,-1033,-562,-320,306,152,-402
0,6660369,200,-1876,-385,-1033,-562,-320,306,152,-402
0,6660376,199,-1876,-385,-1032,-563,-326,306,152,-402
0,6660383,199,-1876,-385,-1032,-563,-326,306,152,-402
0,6660390,199,-1876,-385,-1032,-563,-326,306,152,-402
0,6660396,197,-1871,-382,-1026,-563,-331,306,152,-402
0,6660402,197,-1871,-382,-1026,-563,-331,306,152,-402
0,6660408,197,-1871,-382,-1026,-563,-331,306,152,-402
0,6660415,200,-1872,-382,-1025,-565,-324,306,144,-398
0,6660423,200,-1872,-382,-1025,-565,-324,306,144,-398
0,6660430,200,-1872,-382,-1025,-565,-324,306,144,-398
0,6660438,199,-1872,-380,-1030,-573,-330,306,144,-398
0,6660444,199,-1872,-380,-1030,-573,-330,306,144,-398
0,6660451,199,-1872,-380,-1030,-573,-330,306,144,-398
0,6660459,196,-1875,-383,-1029,-571,-328,306,144,-398
0,6660465,196,-1875,-383,-1029,-571,-328,306,144,-398
0,6660472,200,-1872,-379,-1036,-571,-325,306,144,-398
0,6660480,200,-1872,-379,-1036,-571,-325,306,144,-398
0,6660485,200,-1872,-379,-1036,-571,-325,306,144,-398
0,6660491,200,-1872,-379,-1036,-571,-325,306,144,-398
0,6660498,201,-1873,-382,-1033,-567,-326,306,144,-398
0,6660506,201,-1873,-382,-1033,-567,-326,306,144,-398
0,6660511,198,-1873,-386,-1026,-572,-327,306,144,-398
0,6660518,198,-1873,-386,-1026,-572,-327,306,144,-398
0,6660528,198,-1873,-386,-1026,-572,-327,306,144,-398
0,6660534,201,-1874,-387,-1025,-566,-327,306,144,-398
0,6660540,201,-1874,-387,-1025,-566,-327,306,144,-398
0,6660546,201,-1874,-387,-1025,-566,-327,306,144,-398
0,6660553,198,-1874,-378,-1031,-564,-331,302,154,-408
0,6660561,198,-1874,-378,-1031,-564,-331,302,154,-408
0,6660569,198,-1874,-378,-1031,-564,-331,302,154,-408
0,6660575,202,-1873,-383,-1031,-572,-332,302,154,-408
0,6660581,202,-1873,-383,-1031,-572,-332,302,154,-408
0,6660589,202,-1873,-383,-1031,-572,-332,302,154,-408
0,6660594,199,-1872,-386,-1032,-567,-318,302,154,-408
0,6660599,199,-1872,-386,-1032,-567,-318,302,154,-408
0,6660604,199,-1872,-386,-1032,-567,-318,302,154,-408
0,6660610,199,-1872,-386,-1032,-567,-318,302,154,-408
0,6660615,200,-1873,-382,-1027,-569,-333,302,154,-408
0,6660620,200,-1873,-382,-1027,-569,-333,302,154,-408
0,6660627,200,-1873,-382,-1027,-569,-333,302,154,-408
0,6660632,201,-1876,-380,-1026,-570,-330,302,154,-408
0,6660637,201,-1876,-380,-1026,-570,-330,302,154,-408
0,6660643,201,-1876,-380,-1026,-570,-330,302,154,-408
0,6660652,201,-1876,-380,-1026,-570,-330,302,154,-408
0,6660658,200,-1875,-383,-1034,-561,-330,302,154,-408
0,6660665,200,-1875,-383,-1034,-561,-330,302,154,-408
0,6660671,200,-1875,-383,-1034,-561,-330,302,154,-408
0,6660678,202,-1874,-382,-1031,-571,-328,313,153,-407
0,6660685,202,-1874,-382,-1031,-571,-328,313,153,-407
0,6660691,202,-1871,-382,-1035,-570,-329,313,153,-407
0,6660698,202,-1871,-382,-1035,-570,-329,313,153,-407
0,6660706,202,-1871,-382,-1035,-570,-329,313,153,-407
0,6660712,202,-1875,-382,-1024,-565,-328,313,153,-407
0,6660719,202,-1875,-382,-1024,-565,-328,313,153,-407
0,6660726,202,-1875,-382,-1024,-565,-328,313,153,-407
0,6660733,199,-1874,-387,-1028,-570,-329,313,153,-407
0,6660741,199,-1874,-387,-1028,-570,-329,313,153,-407
0,6660748,199,-1874,-387,-1028,-570,-329,313,153,-407
0,6660755,201,-1875,-385,-1023,-569,-330,313,153,-407
0,6660763,201,-1875,-385,-1023,-569,-330,313,153,-407
0,6660769,201,-1875,-385,-1023,-569,-330,313,153,-407
0,6660776,201,-1875,-381,-1022,-570,-323,313,153,-407
0,6660784,201,-1875,-381,-1022,-570,-323,313,153,-407
0,6660789,201,-1875,-381,-1022,-570,-323,313,153,-407
0,6660795,198,-1874,-383,-1025,-568,-321,313,153,-407
0,6660803,198,-1874,-383,-1025,-568,-321,313,153,-407
0,6660810,198,-1874,-383,-1025,-568,-321,313,153,-407
0,6660817,200,-1876,-383,-1036,-569,-331,313,157,-409
0,6660824,200,-1876,-383,-1036,-569,-331,313,157,-409
0,6660829,200,-1876,-383,-1036,-569,-331,313,157,-409
0,6660836,200,-1874,-389,-1041,-565,-330,313,157,-409
0,6660843,200,-1874,-389,-1041,-565,-330,313,157,-409
0,6660851,200,-1874,-389,-1041,-565,-330,313,157,-409
0,6660858,199,-1873,-387,-1030,-572,-322,313,157,-409
0,6660866,199,-1873,-387,-1030,-572,-322,313,157,-409
0,6660873,201,-1872,-389,-1022,-570,-327,313,157,-409
0,6660882,201,-1872,-389,-1022,-570,-327,313,157,-409
0,6660888,201,-1872,-389,-1022,-570,-327,313,157,-409
