imu,time,ax,ay,az,gx,gy,gz,mx,my,mz
0,9243766,197,-1871,-394,-1029,-573,-326,259,147,-449
0,9243787,200,-1876,-388,-1030,-570,-326,259,147,-449
0,9243797,198,-1874,-396,-1036,-569,-331,259,147,-449
0,9243806,198,-1874,-396,-1036,-569,-331,259,147,-449
0,9243814,198,-1874,-396,-1036,-569,-331,259,147,-449
0,9243822,200,-1873,-392,-1037,-563,-333,259,143,-449
0,9243830,200,-1873,-392,-1037,-563,-333,259,143,-449
0,9243838,201,-1869,-389,-1033,-573,-333,259,143,-449
0,9243845,201,-1869,-389,-1033,-573,-333,259,143,-449
0,9243853,201,-1869,-389,-1033,-573,-333,259,143,-449
0,9243862,196,-1873,-387,-1033,-572,-330,259,143,-449
0,9243870,196,-1873,-387,-1033,-572,-330,259,143,-449
0,9243878,200,-1872,-390,-1035,-575,-317,259,143,-449
0,9243885,200,-1872,-390,-1035,-575,-317,259,143,-449
0,9243893,200,-1872,-390,-1035,-575,-317,259,143,-449
0,9243901,202,-1874,-394,-1025,-570,-324,259,143,-449
0,9243910,202,-1874,-394,-1025,-570,-324,259,143,-449
0,9243917,201,-1873,-395,-1028,-573,-330,259,143,-449
0,9243925,201,-1873,-395,-1028,-573,-330,259,143,-449
0,9243935,199,-1872,-392,-1030,-565,-335,251,145,-449
0,9243944,199,-1872,-392,-1030,-565,-335,251,145,-439
0,9243953,199,-1872,-392,-1030,-565,-335,251,145,-439
0,9243961,201,-1870,-390,-1029,-568,-329,251,145,-439
0,9243970,201,-1870,-390,-1029,-568,-329,251,145,-439
0,9243980,201,-1870,-393,-1034,-568,-328,251,145,-439
0,9243991,201,-1870,-393,-1034,-568,-328,251,145,-439
0,9243999,202,-1874,-390,-1038,-571,-327,251,145,-439
0,9244008,202,-1874,-390,-1038,-571,-327,251,145,-439
0,9244017,199,-1876,-390,-1034,-567,-329,251,145,-439
0,9244029,199,-1876,-390,-1034,-567,-329,251,145,-439
0,9244042,198,-1873,-394,-1030,-565,-330,251,145,-439
0,9244056,197,-1874,-390,-1025,-575,-326,251,145,-439
0,9244068,197,-1874,-390,-1025,-575,-326,251,145,-439
0,9244081,200,-1874,-386,-1028,-568,-326,263,145,-447
0,9244089,200,-1874,-386,-1028,-568,-326,263,145,-447
0,9244101,199,-1875,-392,-1030,-562,-323,263,145,-447
0,9244113,199,-1875,-392,-1030,-562,-323,263,145,-447
0,9244122,197,-1873,-387,-1039,-568,-331,263,145,-447
0,9244130,197,-1873,-387,-1039,-568,-331,263,145,-447
0,9244138,197,-1874,-392,-1033,-569,-328,263,145,-447
0,9244146,197,-1874,-392,-1033,-569,-328,263,145,-447
0,9244155,198,-1872,-397,-1031,-563,-323,263,145,-447
0,9244170,198,-1872,-397,-1031,-563,-323,263,145,-447
0,9244184,199,-1874,-392,-1021,-565,-327,263,145,-447
0,9244194,200,-1871,-391,-1022,-560,-315,263,145,-447
0,9244204,200,-1871,-391,-1022,-560,-315,266,146,-454
0,9244212,200,-1871,-391,-1022,-560,-315,266,146,-454
0,9244220,200,-1872,-389,-1033,-574,-321,266,146,-454
0,9244228,200,-1872,-389,-1033,-574,-321,266,146,-454
0,9244236,200,-1876,-386,-1035,-568,-322,266,146,-454
0,9244246,200,-1876,-386,-1035,-568,-322,266,146,-454
0,9244254,200,-1876,-386,-1035,-568,-322,266,146,-454
0,9244267,198,-1874,-389,-1028,-570,-322,266,146,-454
0,9244274,198,-1874,-389,-1028,-570,-322,266,146,-454
0,9244282,198,-1872,-390,-1034,-570,-322,266,146,-454
0,9244291,198,-1872,-390,-1034,-570,-322,266,146,-454
0,9244298,199,-1876,-393,-1031,-563,-328,266,146,-454
0,9244307,199,-1876,-393,-1031,-563,-328,266,146,-454
0,9244317,197,-1874,-390,-1035,-568,-325,266,146,-454
0,9244327,197,-1874,-390,-1035,-568,-325,266,146,-454
0,9244336,196,-1873,-386,-1029,-572,-322,256,138,-446
0,9244345,196,-1873,-386,-1029,-572,-322,256,138,-446
0,9244350,196,-1873,-386,-1029,-572,-322,256,138,-446
0,9244357,200,-1872,-386,-1027,-571,-325,256,138,-446
0,9244362,200,-1872,-386,-1027,-571,-325,256,138,-446
0,9244368,200,-1872,-386,-1027,-571,-325,256,138,-446
0,9244375,203,-1871,-390,-1028,-576,-329,256,138,-446
0,9244383,203,-1871,-390,-1028,-576,-329,256,138,-446
0,9244390,203,-1871,-390,-1028,-576,-329,256,138,-446
0,9244397,201,-1873,-388,-1026,-574,-319,256,138,-446
0,9244405,201,-1873,-388,-1026,-574,-319,256,138,-446
0,9244412,201,-1873,-388,-1026,-574,-319,256,138,-446
0,9244419,200,-1871,-386,-1036,-569,-323,256,138,-446
0,9244427,200,-1871,-386,-1036,-569,-323,256,138,-446
0,9244434,200,-1871,-386,-1036,-569,-323,256,138,-446
0,9244439,200,-1873,-390,-1038,-569,-331,256,138,-446
0,9244447,200,-1873,-390,-1038,-569,-331,256,138,-446
0,9244455,201,-1872,-395,-1036,-573,-329,256,138,-446
0,9244463,201,-1872,-395,-1036,-573,-329,263,145,-453
0,9244471,201,-1872,-395,-1036,-573,-329,263,145,-453
0,9244478,201,-1873,-397,-1032,-568,-323,263,145,-453
0,9244484,201,-1873,-397,-1032,-568,-323,263,145,-453
0,9244490,201,-1873,-397,-1032,-568,-323,263,145,-453
0,9244497,198,-1873,-393,-1031,-572,-333,263,145,-453
0,9244505,198,-1873,-393,-1031,-572,-333,263,145,-453
0,9244513,198,-1873,-393,-1031,-572,-333,263,145,-453
0,9244519,200,-1874,-391,-1027,-577,-322,263,145,-453
0,9244526,200,-1874,-391,-1027,-577,-322,263,145,-453
0,9244532,200,-1874,-391,-1027,-577,-322,263,145,-453
0,9244539,199,-1875,-394,-1034,-579,-321,263,145,-453
0,9244546,199,-1875,-394,-1034,-579,-321,263,145,-453
0,9244554,199,-1875,-394,-1034,-579,-321,263,145,-453
0,9244561,199,-1873,-386,-1028,-576,-330,263,145,-453
0,9244567,199,-1873,-386,-1028,-576,-330,263,145,-453
0,9244573,199,-1873,-386,-1028,-576,-330,263,145,-453
0,9244579,200,-1871,-392,-1033,-574,-333,263,145,-453
0,9244588,200,-1871,-392,-1033,-574,-333,263,145,-453
0,9244593,200,-1871,-392,-1033,-574,-333,263,145,-453
0,9244601,197,-1872,-394,-1028,-575,-329,250,142,-444
0,9244608,197,-1872,-394,-1028,-575,-329,250,142,-444
0,9244614,197,-1872,-394,-1028,-575,-329,250,142,-444
0,9244620,196,-1872,-393,-1029,-573,-324,250,142,-444
0,9244625,196,-1872,-393,-1029,-573,-324,250,142,-444
0,9244632,196,-1872,-393,-1029,-573,-324,250,142,-444
0,9244639,200,-1875,-387,-1034,-568,-330,250,142,-444
0,9244644,200,-1875,-387,-1034,-568,-330,250,142,-444
0,9244649,200,-1875,-387,-1034,-568,-330,250,142,-444
0,9244655,200,-1875,-387,-1034,-568,-330,250,142,-444
0,9244662,197,-1872,-386,-1032,-565,-336,250,142,-444
0,9244670,197,-1872,-386,-1032,-565,-336,250,142,-444
0,9244678,199,-1870,-387,-1029,-565,-332,250,142,-444
0,9244686,199,-1870,-387,-1029,-565,-332,250,142,-444
0,9244692,199,-1870,-387,-1029,-565,-332,250,142,-444
0,9244699,201,-1871,-387,-1035,-567,-327,250,142,-444
0,9244704,201,-1871,-387,-1035,-567,-327,250,142,-444
0,9244710,201,-1871,-387,-1035,-567,-327,250,142,-444
0,9244719,198,-1872,-383,-1034,-577,-323,260,156,-448
0,9244726,198,-1872,-383,-1034,-577,-323,260,156,-448
0,9244732,198,-1872,-383,-1034,-577,-323,260,156,-448
0,9244738,201,-1873,-386,-1036,-577,-315,260,156,-448
0,9244743,201,-1873,-386,-1036,-577,-315,260,156,-448
0,9244751,201,-1873,-386,-1036,-577,-315,260,156,-448
0,9244756,199,-1874,-385,-1031,-575,-323,260,156,-448
0,9244766,199,-1874,-385,-1031,-575,-323,260,156,-448
0,9244773,199,-1874,-385,-1031,-575,-323,260,156,-448
0,9244778,197,-1875,-390,-1028,-571,-329,260,156,-448
0,9244783,197,-1875,-390,-1028,-571,-329,260,156,-448
0,9244788,197,-1875,-390,-1028,-571,-329,260,156,-448
0,9244794,197,-1875,-390,-1028,-571,-329,260,156,-448
0,9244801,199,-1875,-390,-1030,-573,-324,260,156,-448
0,9244807,199,-1875,-390,-1030,-573,-324,260,156,-448
0,9244814,199,-1875,-390,-1030,-573,-324,260,156,-448
0,9244821,201,-1873,-391,-1032,-575,-330,260,156,-448
0,9244827,201,-1873,-391,-1032,-575,-330,260,156,-448
0,9244833,201,-1873,-391,-1032,-575,-330,260,156,-448
0,9244840,199,-1873,-394,-1030,-578,-328,253,139,-449
0,9244849,199,-1873,-394,-1030,-578,-328,253,139,-449
0,9244856,199,-1873,-394,-1030,-578,-328,253,139,-449
0,9244862,200,-1873,-391,-1035,-565,-326,253,139,-449
0,9244870,200,-1873,-391,-1035,-565,-326,253,139,-449
0,9244877,197,-1877,-388,-1039,-562,-331,253,139,-449
0,9244884,197,-1877,-388,-1039,-562,-331,253,139,-449
0,9244892,197,-1877,-388,-1039,-562,-331,253,139,-449
0,9244899,200,-1874,-389,-1028,-565,-330,253,139,-449
0,9244906,200,-1874,-389,-1028,-565,-330,253,139,-449
0,9244913,200,-1874,-389,-1028,-565,-330,253,139,-449
0,9244920,200,-1874,-395,-1023,-571,-325,253,139,-449
0,9244928,200,-1874,-395,-1023,-571,-325,253,139,-449
0,9244935,200,-1874,-395,-1023,-571,-325,253,139,-449
0,9244942,200,-1872,-395,-1031,-577,-324,253,139,-449
0,9244949,200,-1872,-395,-1031,-577,-324,253,139,-449
0,9244956,201,-1870,-397,-1033,-563,-325,253,139,-449
0,9244963,201,-1870,-397,-1033,-563,-325,253,139,-449
0,9244969,201,-1870,-397,-1033,-563,-325,253,139,-449
0,9244976,201,-1870,-397,-1033,-563,-325,253,139,-449
0,9244983,200,-1873,-396,-1023,-567,-321,252,152,-440
0,9244991,200,-1873,-396,-1023,-567,-321,252,152,-440
0,9244998,201,-1875,-393,-1032,-567,-329,252,152,-440
0,9245004,201,-1875,-393,-1032,-567,-329,252,152,-440
0,9245011,201,-1875,-393,-1032,-567,-329,252,152,-440
0,9245019,201,-1871,-383,-1035,-570,-323,252,152,-440
0,9245025,201,-1871,-383,-1035,-570,-323,252,152,-440
0,9245033,201,-1871,-383,-1035,-570,-323,252,152,-440
0,9245041,200,-1874,-391,-1035,-568,-323,252,152,-440
0,9245047,200,-1874,-391,-1035,-568,-323,252,152,-440
0,9245054,200,-1874,-391,-1035,-568,-323,252,152,-440
0,9245061,200,-1876,-390,-1038,-579,-323,252,152,-440
0,9245068,200,-1876,-390,-1038,-579,-323,252,152,-440
0,9245074,200,-1876,-390,-1038,-579,-323,252,152,-440
0,9245082,199,-1872,-390,-1027,-567,-328,252,152,-440
0,9245090,199,-1872,-390,-1027,-567,-328,252,152,-440
0,9245097,197,-1871,-388,-1032,-565,-326,254,150,-448
0,9245104,197,-1871,-388,-1032,-565,-326,254,150,-448
0,9245112,197,-1871,-388,-1032,-565,-326,254,150,-448
0,9245119,201,-1874,-394,-1027,-568,-317,254,150,-448
0,9245125,201,-1874,-394,-1027,-568,-317,254,150,-448
0,9245133,201,-1874,-394,-1027,-568,-317,254,150,-448
0,9245139,199,-1876,-391,-1025,-565,-324,254,150,-448
0,9245147,199,-1876,-391,-1025,-565,-324,254,150,-448
0,9245154,199,-1876,-391,-1025,-565,-324,254,150,-448
0,9245162,198,-1871,-394,-1031,-569,-324,254,150,-448
0,9245168,198,-1871,-394,-1031,-569,-324,254,150,-448
0,9245175,198,-1871,-394,-1031,-569,-324,254,150,-448
0,9245182,199,-1875,-391,-1029,-571,-324,254,150,-448
0,9245190,199,-1875,-391,-1029,-571,-324,254,150,-448
0,9245195,199,-1875,-391,-1029,-571,-324,254,150,-448
0,9245202,198,-1871,-392,-1031,-571,-327,254,150,-448
0,9245207,198,-1871,-392,-1031,-571,-327,254,150,-448
0,9245212,198,-1871,-392,-1031,-571,-327,254,150,-448
0,9245217,200,-1875,-394,-1030,-569,-329,254,150,-448
0,9245222,200,-1875,-394,-1030,-569,-329,254,150,-448
0,9245229,200,-1875,-394,-1030,-569,-329,254,150,-448
0,9245233,200,-1875,-394,-1030,-569,-329,254,150,-448
0,9245238,200,-1873,-389,-1024,-574,-327,260,150,-448
0,9245244,200,-1873,-389,-1024,-574,-327,260,150,-448
0,9245251,200,-1873,-389,-1024,-574,-327,260,150,-448
0,9245259,198,-1873,-391,-1035,-571,-327,260,150,-448
0,9245265,198,-1873,-391,-1035,-571,-327,260,150,-448
0,9245271,198,-1873,-391,-1035,-571,-327,260,150,-448
0,9245279,199,-1875,-393,-1031,-564,-334,260,150,-448
0,9245286,199,-1875,-393,-1031,-564,-334,260,150,-448
0,9245292,199,-1875,-393,-1031,-564,-334,260,150,-448
0,9245300,200,-1873,-394,-1033,-570,-330,260,150,-448
0,9245308,200,-1873,-394,-1033,-570,-330,260,150,-448
0,9245317,203,-1875,-398,-1027,-565,-321,260,150,-448
0,9245323,203,-1875,-398,-1027,-565,-321,260,150,-448
0,9245330,203,-1875,-398,-1027,-565,-321,260,150,-448
0,9245336,199,-1873,-385,-1036,-568,-329,260,150,-448
0,9245343,199,-1873,-385,-1036,-568,-329,260,150,-448
0,9245350,199,-1873,-385,-1036,-568,-329,260,150,-448
0,9245362,205,-1871,-392,-1034,-572,-330,262,146,-444
0,9245374,205,-1871,-392,-1034,-572,-330,262,146,-444
0,9245389,198,-1872,-393,-1031,-570,-334,262,146,-444
0,9245404,203,-1874,-393,-1021,-569,-322,262,146,-444
0,9245413,203,-1874,-393,-1021,-569,-322,262,146,-444
0,9245426,203,-1874,-393,-1021,-569,-322,262,146,-444
0,9245440,199,-1874,-396,-1032,-567,-323,262,146,-444
0,9245454,199,-1874,-396,-1032,-567,-323,262,146,-444
0,9245463,198,-1874,-394,-1039,-570,-322,262,146,-444
0,9245475,198,-1874,-394,-1039,-570,-322,262,146,-444
0,9245488,201,-1876,-390,-1038,-571,-326,262,146,-444
0,9245502,201,-1874,-383,-1030,-582,-327,260,148,-440
0,9245513,201,-1874,-383,-1030,-582,-327,260,148,-440
0,9245528,205,-1874,-388,-1035,-579,-326,260,148,-440
0,9245540,199,-1875,-385,-1030,-579,-326,260,148,-440
0,9245553,199,-1875,-385,-1030,-579,-326,260,148,-440
0,9245566,198,-1874,-392,-1027,-571,-324,260,148,-440
0,9245580,199,-1874,-389,-1029,-568,-323,260,148,-440
0,9245591,199,-1874,-389,-1029,-568,-323,260,148,-440
0,9245605,199,-1873,-386,-1038,-568,-323,260,148,-440
0,9245618,204,-1873,-390,-1030,-571,-324,253,147,-441
0,9245630,204,-1873,-390,-1030,-571,-324,253,147,-441
0,9245643,199,-1872,-395,-1032,-571,-327,253,147,-441
0,9245657,203,-1871,-390,-1031,-572,-336,253,147,-441
0,9245670,203,-1871,-390,-1031,-572,-336,253,147,-441
0,9245681,201,-1874,-393,-1042,-575,-325,253,147,-441
0,9245693,201,-1874,-393,-1042,-575,-325,253,147,-441
0,9245707,200,-1871,-389,-1038,-568,-325,253,147,-441
0,9245720,201,-1873,-391,-1030,-568,-325,253,147,-441
0,9245730,201,-1873,-391,-1030,-568,-325,253,147,-441
0,9245743,199,-1874,-392,-1029,-563,-317,258,148,-452
0,9245752,199,-1874,-392,-1029,-563,-317,258,148,-452
0,9245762,197,-1877,-382,-1029,-570,-328,258,148,-452
0,9245774,197,-1877,-382,-1029,-570,-328,258,148,-452
0,9245783,200,-1874,-385,-1037,-571,-327,258,148,-452
0,9245790,200,-1874,-385,-1037,-571,-327,258,148,-452
0,9245799,197,-1873,-388,-1031,-575,-326,258,148,-452
0,9245807,197,-1873,-388,-1031,-575,-326,258,148,-452
0,9245819,201,-1870,-391,-1029,-570,-321,258,148,-452
0,9245833,201,-1870,-391,-1029,-570,-321,258,148,-452
0,9245846,196,-1871,-388,-1034,-565,-326,258,148,-452
0,9245857,198,-1874,-388,-1038,-571,-320,258,148,-452
0,9245867,198,-1874,-388,-1038,-571,-320,258,148,-452
0,9245875,198,-1874,-388,-1038,-571,-320,258,148,-452
0,9245884,202,-1872,-386,-1029,-571,-325,262,146,-448
0,9245893,202,-1872,-386,-1029,-571,-325,262,146,-448
0,9245902,200,-1871,-387,-1032,-571,-332,262,146,-448
0,9245913,200,-1871,-387,-1032,-571,-332,262,146,-448
0,9245923,196,-1861,-386,-1024,-564,-321,262,146,-448
0,9245933,196,-1861,-386,-1024,-564,-321,262,146,-448
0,9245942,205,-1877,-394,-1021,-564,-320,262,146,-448
0,9245952,205,-1877,-394,-1021,-564,-320,262,146,-448
0,9245961,190,-1874,-395,-1025,-570,-322,262,146,-448
0,9245973,190,-1874,-395,-1025,-570,-322,262,146,-448
0,9245986,204,-1881,-388,-1035,-571,-321,262,146,-448
0,9245999,206,-1884,-385,-1028,-567,-324,251,149,-453
0,9246013,206,-1884,-385,-1028,-567,-324,251,149,-453
0,9246026,199,-1868,-389,-1020,-569,-327,251,149,-453
0,9246040,206,-1879,-394,-1029,-565,-326,251,149,-453
0,9246053,206,-1879,-394,-1029,-565,-326,251,149,-453
0,9246064,193,-1874,-392,-1028,-563,-325,251,149,-453
0,9246076,193,-1874,-392,-1028,-563,-325,251,149,-453
0,9246089,198,-1873,-398,-1029,-569,-333,251,149,-453
0,9246101,203,-1873,-386,-1026,-567,-325,251,149,-453
0,9246114,203,-1873,-386,-1026,-567,-325,251,149,-453
0,9246127,197,-1872,-386,-1026,-571,-322,251,149,-453
0,9246139,204,-1875,-386,-1036,-568,-329,258,144,-448
0,9246152,204,-1875,-386,-1036,-568,-329,258,144,-448
0,9246166,198,-1874,-391,-1033,-564,-331,258,144,-448
0,9246179,199,-1874,-390,-1038,-573,-336,258,144,-448
0,9246191,199,-1874,-390,-1038,-573,-336,258,144,-448
0,9246199,204,-1875,-391,-1032,-577,-329,258,144,-448
0,9246208,204,-1875,-391,-1032,-577,-329,258,144,-448
0,9246216,204,-1875,-391,-1032,-577,-329,258,144,-448
0,9246223,197,-1874,-391,-1037,-569,-328,258,144,-448
0,9246231,197,-1874,-391,-1037,-569,-328,258,144,-448
0,9246239,200,-1877,-382,-1034,-570,-325,258,144,-448
0,9246247,200,-1877,-382,-1034,-570,-325,258,144,-448
0,9246256,200,-1877,-382,-1034,-570,-325,258,144,-448
0,9246263,198,-1875,-381,-1033,-573,-319,261,149,-449
0,9246271,198,-1875,-381,-1033,-573,-319,261,149,-449
0,9246278,198,-1875,-381,-1033,-573,-319,261,149,-449
0,9246290,198,-1875,-381,-1033,-573,-319,261,149,-449
0,9246304,203,-1875,-392,-1042,-570,-338,261,149,-449
0,9246319,197,-1872,-389,-1034,-569,-337,261,149,-449
0,9246331,197,-1872,-389,-1034,-569,-337,261,149,-449
0,9246344,199,-1871,-394,-1030,-567,-325,261,149,-449
0,9246357,199,-1871,-394,-1030,-567,-325,261,149,-449
0,9246364,200,-1875,-393,-1019,-559,-317,261,149,-449
0,9246371,200,-1875,-393,-1019,-559,-317,261,149,-449
0,9246377,197,-1871,-395,-1027,-567,-320,261,149,-449
0,9246383,197,-1871,-395,-1027,-567,-320,252,154,-452
0,9246390,197,-1871,-395,-1027,-567,-320,252,154,-452
0,9246398,200,-1869,-393,-1038,-571,-323,252,154,-452
0,9246406,200,-1869,-393,-1038,-571,-323,252,154,-452
0,9246414,200,-1869,-393,-1038,-571,-323,252,154,-452
0,9246420,198,-1874,-388,-1033,-567,-326,252,154,-452
0,9246428,198,-1874,-388,-1033,-567,-326,252,154,-452
0,9246433,198,-1874,-388,-1033,-567,-326,252,154,-452
0,9246439,201,-1872,-391,-1030,-565,-326,252,154,-452
0,9246444,201,-1872,-391,-1030,-565,-326,252,154,-452
0,9246449,201,-1872,-391,-1030,-565,-326,252,154,-452
0,9246456,201,-1872,-391,-1030,-565,-326,252,154,-452
0,9246462,198,-1875,-392,-1029,-567,-328,252,154,-452
0,9246469,198,-1875,-392,-1029,-567,-328,252,154,-452
0,9246475,198,-1875,-392,-1029,-567,-328,252,154,-452
0,9246481,205,-1876,-395,-1032,-567,-327,252,154,-452
0,9246486,205,-1876,-395,-1032,-567,-327,252,154,-452
0,9246493,205,-1876,-395,-1032,-567,-327,252,154,-452
0,9246499,198,-1871,-388,-1030,-566,-322,252,154,-452
0,9246507,198,-1871,-388,-1030,-566,-322,252,154,-452
0,9246514,198,-1871,-388,-1030,-566,-322,252,154,-452
0,9246521,199,-1874,-386,-1027,-568,-324,251,143,-445
0,9246527,199,-1874,-386,-1027,-568,-324,251,143,-445
0,9246535,199,-1874,-386,-1027,-568,-324,251,143,-445
0,9246541,195,-1874,-388,-1032,-571,-328,251,143,-445
0,9246547,195,-1874,-388,-1032,-571,-328,251,143,-445
0,9246553,195,-1874,-388,-1032,-571,-328,251,143,-445
0,9246559,197,-1873,-390,-1034,-571,-328,251,143,-445
0,9246565,197,-1873,-390,-1034,-571,-328,251,143,-445
0,9246573,197,-1873,-390,-1034,-571,-328,251,143,-445
0,9246580,199,-1877,-394,-1029,-567,-326,251,143,-445
0,9246587,199,-1877,-394,-1029,-567,-326,251,143,-445
0,9246595,199,-1877,-394,-1029,-567,-326,251,143,-445
0,9246601,199,-1872,-388,-1030,-563,-324,251,143,-445
0,9246608,199,-1872,-388,-1030,-563,-324,251,143,-445
0,9246615,199,-1872,-388,-1030,-563,-324,251,143,-445
0,9246623,201,-1874,-393,-1030,-561,-323,251,143,-445
0,9246630,201,-1874,-393,-1030,-561,-323,251,143,-445
0,9246636,201,-1874,-393,-1030,-561,-323,251,143,-445
0,9246643,197,-1870,-391,-1038,-561,-322,257,137,-445
0,9246649,197,-1870,-391,-1038,-561,-322,257,137,-445
0,9246657,197,-1870,-391,-1038,-561,-322,257,137,-445
0,9246664,198,-1872,-391,-1031,-571,-323,257,137,-445
0,9246671,198,-1872,-391,-1031,-571,-323,257,137,-445
0,9246679,198,-1873,-390,-1033,-570,-326,257,137,-445
0,9246686,198,-1873,-390,-1033,-570,-326,257,137,-445
0,9246693,198,-1873,-390,-1033,-570,-326,257,137,-445
0,9246701,197,-1873,-389,-1028,-571,-329,257,137,-445
0,9246707,197,-1873,-389,-1028,-571,-329,257,137,-445
0,9246713,197,-1873,-389,-1028,-571,-329,257,137,-445
0,9246721,197,-1875,-397,-1026,-563,-329,257,137,-445
0,9246728,197,-1875,-397,-1026,-563,-329,257,137,-445
0,9246734,197,-1875,-397,-1026,-563,-329,257,137,-445
0,9246743,199,-1870,-390,-1028,-567,-323,257,137,-445
0,9246750,199,-1870,-390,-1028,-567,-323,257,137,-445
0,9246756,199,-1870,-390,-1028,-567,-323,257,137,-445
0,9246765,201,-1872,-391,-1025,-568,-325,257,137,-445
0,9246772,201,-1872,-391,-1025,-568,-325,257,137,-445
0,9246777,201,-1872,-391,-1025,-568,-325,257,137,-445
0,9246781,202,-1871,-386,-1029,-567,-329,255,145,-449
0,9246787,202,-1871,-386,-1029,-567,-329,255,145,-449
0,9246792,202,-1871,-386,-1029,-567,-329,255,145,-449
0,9246797,202,-1871,-386,-1029,-567,-329,255,145,-449
0,9246802,201,-1874,-388,-1037,-572,-325,255,145,-449
0,9246810,201,-1874,-388,-1037,-572,-325,255,145,-449
0,9246816,201,-1874,-388,-1037,-572,-325,255,145,-449
0,9246823,199,-1874,-387,-1038,-569,-330,255,145,-449
0,9246830,199,-1874,-387,-1038,-569,-330,255,145,-449
0,9246836,199,-1874,-387,-1038,-569,-330,255,145,-449
0,9246843,197,-1873,-389,-1029,-564,-327,255,145,-449
0,9246852,197,-1873,-389,-1029,-564,-327,255,145,-449
0,9246858,198,-1872,-389,-1024,-566,-327,255,145,-449
0,9246865,198,-1872,-389,-1024,-566,-327,255,145,-449
0,9246872,198,-1872,-389,-1024,-566,-327,255,145,-449
0,9246880,199,-1871,-389,-1036,-570,-330,255,145,-449
0,9246885,199,-1871,-389,-1036,-570,-330,255,145,-449
0,9246893,199,-1871,-389,-1036,-570,-330,255,145,-449
0,9246900,197,-1871,-387,-1030,-566,-332,258,146,-440
0,9246908,197,-1871,-387,-1030,-566,-332,258,146,-440
0,9246915,197,-1871,-387,-1030,-566,-332,258,146,-440
0,9246922,199,-1872,-387,-1025,-565,-326,258,146,-440
0,9246928,199,-1872,-387,-1025,-565,-326,258,146,-440
0,9246935,199,-1872,-387,-1025,-565,-326,258,146,-440
0,9246943,197,-1871,-389,-1030,-558,-326,258,146,-440
0,9246950,197,-1871,-389,-1030,-558,-326,258,146,-440
0,9246958,198,-1871,-391,-1039,-562,-324,258,146,-440
0,9246964,198,-1871,-391,-1039,-562,-324,258,146,-440
0,9246971,198,-1871,-391,-1039,-562,-324,258,146,-440
0,9246978,198,-1871,-391,-1039,-562,-324,258,146,-440
0,9246983,196,-1873,-389,-1036,-571,-333,258,146,-440
0,9246988,196,-1873,-389,-1036,-571,-333,258,146,-440
0,9246994,196,-1873,-389,-1036,-571,-333,258,146,-440
0,9247001,198,-1872,-395,-1034,-567,-322,258,146,-440
0,9247008,198,-1872,-395,-1034,-567,-322,258,146,-440
0,9247015,198,-1872,-395,-1034,-567,-322,258,146,-440
0,9247023,201,-1873,-392,-1036,-564,-322,258,146,-440
0,9247030,201,-1873,-392,-1036,-564,-322,258,146,-440
0,9247036,201,-1873,-392,-1036,-564,-322,258,146,-440
0,9247042,199,-1872,-387,-1033,-573,-333,254,148,-452
0,9247050,199,-1872,-387,-1033,-573,-333,254,148,-452
0,9247055,199,-1872,-387,-1033,-573,-333,254,148,-452
0,9247064,196,-1873,-387,-1032,-567,-323,254,148,-452
0,9247071,196,-1873,-387,-1032,-567,-323,254,148,-452
0,9247078,196,-1873,-387,-1032,-567,-323,254,148,-452
0,9247084,202,-1872,-393,-1028,-566,-325,254,148,-452
0,9247092,202,-1872,-393,-1028,-566,-325,254,148,-452
0,9247098,199,-1876,-386,-1036,-566,-331,254,148,-452
0,9247105,199,-1876,-386,-1036,-566,-331,254,148,-452
0,9247112,199,-1876,-386,-1036,-566,-331,254,148,-452
0,9247119,198,-1873,-389,-1043,-569,-331,254,148,-452
0,9247126,198,-1873,-389,-1043,-569,-331,254,148,-452
0,9247133,198,-1873,-389,-1043,-569,-331,254,148,-452
0,9247141,200,-1871,-392,-1042,-565,-324,254,148,-452
0,9247148,200,-1871,-392,-1042,-565,-324,254,148,-452
0,9247154,200,-1871,-392,-1042,-565,-324,254,148,-452
0,9247161,199,-1871,-382,-1030,-565,-324,258,152,-452
0,9247168,199,-1871,-382,-1030,-565,-324,258,152,-452
0,9247173,199,-1871,-382,-1030,-565,-324,258,152,-452
0,9247178,194,-1873,-390,-1031,-566,-324,258,152,-452
0,9247186,194,-1873,-390,-1031,-566,-324,258,152,-452
0,9247194,194,-1873,-390,-1031,-566,-324,258,152,-452
0,9247199,194,-1873,-390,-1031,-566,-324,258,152,-452
0,9247204,194,-1876,-388,-1035,-568,-322,258,152,-452
0,9247210,194,-1876,-388,-1035,-568,-322,258,152,-452
0,9247215,194,-1876,-388,-1035,-568,-322,258,152,-452
0,9247220,196,-1874,-393,-1030,-572,-320,258,152,-452
0,9247225,196,-1874,-393,-1030,-572,-320,258,152,-452
0,9247232,196,-1874,-393,-1030,-572,-320,258,152,-452
0,9247237,196,-1874,-393,-1030,-572,-320,258,152,-452
0,9247244,199,-1871,-395,-1043,-573,-320,258,152,-452
0,9247250,199,-1871,-395,-1043,-573,-320,258,152,-452
0,9247257,199,-1871,-395,-1043,-573,-320,258,152,-452
0,9247265,202,-1873,-388,-1037,-572,-334,258,152,-452
0,9247272,202,-1873,-388,-1037,-572,-334,258,152,-452
0,9247280,197,-1877,-386,-1026,-575,-331,252,148,-452
0,9247288,197,-1877,-386,-1026,-575,-331,252,148,-452
0,9247295,197,-1877,-386,-1026,-575,-331,252,148,-452
0,9247301,195,-1872,-388,-1025,-565,-332,252,148,-452
0,9247307,195,-1872,-388,-1025,-565,-332,252,148,-452
0,9247314,195,-1872,-388,-1025,-565,-332,252,148,-452
0,9247323,197,-1875,-384,-1028,-565,-332,252,148,-452
0,9247329,197,-1875,-384,-1028,-565,-332,252,148,-452
0,9247335,197,-1875,-384,-1028,-565,-332,252,148,-452
0,9247341,198,-1871,-388,-1027,-565,-334,252,148,-452
0,9247348,198,-1871,-388,-1027,-565,-334,252,148,-452
0,9247354,198,-1871,-388,-1027,-565,-334,252,148,-452
0,9247362,201,-1872,-385,-1027,-572,-330,252,148,-452
0,9247372,201,-1872,-385,-1027,-572,-330,252,148,-452
0,9247386,198,-1871,-395,-1024,-579,-330,252,148,-452
0,9247398,198,-1871,-395,-1024,-579,-330,252,148,-452
0,9247411,196,-1874,-390,-1024,-573,-336,252,148,-452
0,9247425,197,-1872,-385,-1030,-572,-337,255,153,-447
0,9247438,197,-1872,-385,-1030,-572,-337,255,153,-447
0,9247452,198,-1874,-388,-1027,-570,-330,255,153,-447
0,9247466,200,-1871,-390,-1027,-568,-326,255,153,-447
0,9247479,200,-1872,-388,-1032,-564,-333,255,153,-447
0,9247491,200,-1872,-388,-1032,-564,-333,255,153,-447
0,9247501,201,-1873,-396,-1032,-570,-325,255,153,-447
0,9247509,201,-1873,-396,-1032,-570,-325,255,153,-447
0,9247517,201,-1873,-396,-1032,-570,-325,255,153,-447
0,9247525,200,-1873,-398,-1031,-568,-321,255,153,-447
0,9247537,200,-1873,-398,-1031,-568,-321,255,153,-447
0,9247549,198,-1873,-391,-1033,-573,-324,259,149,-435
0,9247558,198,-1873,-391,-1033,-573,-324,259,149,-435
0,9247569,198,-1874,-388,-1038,-567,-329,259,149,-435
0,9247583,201,-1872,-390,-1033,-570,-333,259,149,-435
0,9247596,201,-1872,-390,-1033,-570,-333,259,149,-435
0,9247606,200,-1875,-397,-1030,-562,-329,259,149,-435
0,9247620,197,-1873,-392,-1033,-572,-331,259,149,-435
0,9247632,197,-1873,-392,-1033,-572,-331,259,149,-435
0,9247644,199,-1874,-391,-1022,-562,-325,259,149,-435
0,9247656,199,-1874,-391,-1022,-562,-325,259,149,-435
0,9247668,200,-1873,-395,-1023,-570,-322,259,149,-435
0,9247681,197,-1872,-386,-1032,-569,-323,260,148,-448
0,9247692,197,-1872,-386,-1032,-569,-323,260,148,-448
0,9247706,197,-1873,-396,-1024,-575,-325,260,148,-448
0,9247719,197,-1873,-396,-1024,-575,-325,260,148,-448
0,9247732,198,-1874,-389,-1034,-567,-324,260,148,-448
0,9247744,199,-1875,-390,-1041,-571,-318,260,148,-448
0,9247757,199,-1875,-390,-1041,-571,-318,260,148,-448
0,9247771,197,-1872,-396,-1034,-569,-331,260,148,-448
0,9247779,197,-1872,-396,-1034,-569,-331,260,148,-448
0,9247787,198,-1874,-391,-1033,-571,-324,260,148,-448
0,9247795,198,-1874,-391,-1033,-571,-324,260,148,-448
0,9247803,198,-1872,-384,-1021,-567,-324,259,143,-453
0,9247812,198,-1872,-384,-1021,-567,-324,259,143,-453
0,9247821,202,-1877,-389,-1028,-569,-324,259,143,-453
0,9247830,202,-1877,-389,-1028,-569,-324,259,143,-453
0,9247839,202,-1877,-389,-1028,-569,-324,259,143,-453
0,9247853,201,-1872,-389,-1032,-568,-323,259,143,-453
0,9247866,198,-1873,-391,-1031,-565,-325,259,143,-453
0,9247876,198,-1873,-391,-1031,-565,-325,259,143,-453
0,9247889,199,-1873,-389,-1034,-574,-328,259,143,-453
0,9247903,201,-1875,-391,-1030,-567,-324,259,143,-453
0,9247919,201,-1875,-391,-1030,-567,-324,259,143,-453
0,9247927,199,-1873,-390,-1027,-570,-319,259,143,-453
0,9247939,198,-1875,-389,-1031,-571,-321,259,143,-453
0,9247953,198,-1875,-389,-1031,-571,-321,257,139,-449
0,9247967,196,-1875,-389,-1032,-573,-326,257,139,-449
0,9247976,196,-1875,-389,-1032,-573,-326,257,139,-449
0,9247989,198,-1872,-392,-1026,-574,-333,257,139,-449
0,9248003,198,-1874,-390,-1025,-570,-329,257,139,-449
0,9248016,198,-1874,-390,-1025,-570,-329,257,139,-449
0,9248026,202,-1872,-395,-1034,-569,-329,257,139,-449
0,9248037,202,-1872,-395,-1034,-569,-329,257,139,-449
0,9248046,200,-1875,-395,-1036,-569,-325,257,139,-449
0,9248057,200,-1875,-395,-1036,-569,-325,257,139,-449
0,9248070,199,-1875,-389,-1028,-569,-328,258,146,-452
0,9248083,199,-1872,-391,-1035,-572,-333,258,146,-452
0,9248094,199,-1872,-391,-1035,-572,-333,258,146,-452
0,9248107,198,-1871,-384,-1038,-569,-323,258,146,-452
0,9248121,198,-1870,-392,-1043,-567,-331,258,146,-452
0,9248136,198,-1870,-392,-1043,-567,-331,258,146,-452
0,9248145,200,-1871,-387,-1034,-572,-321,258,146,-452
0,9248157,200,-1871,-387,-1034,-572,-321,258,146,-452
0,9248172,200,-1870,-385,-1031,-565,-325,258,146,-452
0,9248185,197,-1872,-391,-1036,-567,-331,252,144,-444
0,9248195,197,-1872,-391,-1036,-567,-331,252,144,-444
0,9248203,199,-1874,-392,-1036,-571,-334,252,144,-444
0,9248212,199,-1874,-392,-1036,-571,-334,252,144,-444
0,9248221,199,-1872,-388,-1033,-565,-322,252,144,-444
0,9248229,199,-1872,-388,-1033,-565,-322,252,144,-444
0,9248237,199,-1872,-388,-1033,-565,-322,252,144,-444
0,9248246,197,-1874,-389,-1036,-567,-325,252,144,-444
0,9248254,197,-1874,-389,-1036,-567,-325,252,144,-444
0,9248263,199,-1874,-393,-1030,-565,-320,252,144,-444
0,9248271,199,-1874,-393,-1030,-565,-320,252,144,-444
0,9248280,199,-1874,-393,-1030,-565,-320,252,144,-444
0,9248288,198,-1872,-391,-1032,-567,-322,252,144,-444
0,9248296,198,-1872,-391,-1032,-567,-322,252,144,-444
0,9248305,199,-1871,-397,-1035,-570,-333,252,144,-444
0,9248313,199,-1871,-397,-1035,-570,-333,252,144,-444
0,9248323,198,-1873,-390,-1038,-574,-325,262,140,-450
0,9248331,198,-1873,-390,-1038,-574,-325,262,140,-450
0,9248340,196,-1875,-395,-1029,-572,-328,262,140,-450
0,9248352,196,-1875,-395,-1029,-572,-328,262,140,-450
0,9248361,198,-1876,-386,-1034,-563,-323,262,140,-450
0,9248373,198,-1876,-386,-1034,-563,-323,262,140,-450
0,9248380,198,-1870,-389,-1035,-567,-323,262,140,-450
0,9248389,198,-1870,-389,-1035,-567,-323,262,140,-450
0,9248396,198,-1870,-389,-1035,-567,-323,262,140,-450
0,9248403,201,-1874,-392,-1026,-577,-327,262,140,-450
0,9248409,201,-1874,-392,-1026,-577,-327,262,140,-450
0,9248417,201,-1874,-392,-1026,-577,-327,262,140,-450
0,9248424,201,-1872,-394,-1031,-569,-323,262,140,-450
0,9248434,201,-1872,-394,-1031,-569,-323,262,140,-450
0,9248441,198,-1870,-385,-1032,-568,-327,260,140,-440
0,9248446,198,-1870,-385,-1032,-568,-327,260,140,-440
0,9248452,198,-1870,-385,-1032,-568,-327,260,140,-440
0,9248459,198,-1870,-385,-1032,-568,-327,260,140,-440
0,9248466,199,-1872,-392,-1036,-571,-326,260,140,-440
0,9248475,199,-1872,-392,-1036,-571,-326,260,140,-440
0,9248482,199,-1873,-389,-1036,-575,-323,260,140,-440
0,9248489,199,-1873,-389,-1036,-575,-323,260,140,-440
0,9248495,199,-1873,-389,-1036,-575,-323,260,140,-440
0,9248503,199,-1870,-392,-1031,-572,-325,260,140,-440
0,9248509,199,-1870,-392,-1031,-572,-325,260,140,-440
0,9248519,199,-1870,-392,-1031,-572,-325,260,140,-440
0,9248526,198,-1873,-390,-1033,-566,-324,260,140,-440
0,9248533,198,-1873,-390,-1033,-566,-324,260,140,-440
0,9248541,200,-1873,-394,-1033,-566,-326,260,140,-440
0,9248547,200,-1873,-394,-1033,-566,-326,260,140,-440
0,9248556,200,-1873,-394,-1033,-566,-326,260,140,-440
0,9248562,195,-1876,-397,-1033,-565,-326,260,140,-440
0,9248570,195,-1876,-397,-1033,-565,-326,260,140,-440
0,9248576,195,-1876,-397,-1033,-565,-326,260,140,-440
0,9248582,198,-1874,-391,-1032,-565,-325,257,137,-441
0,9248588,198,-1874,-391,-1032,-565,-325,257,137,-441
0,9248596,198,-1874,-391,-1032,-565,-325,257,137,-441
0,9248603,199,-1875,-390,-1030,-564,-327,257,137,-441
0,9248610,199,-1875,-390,-1030,-564,-327,257,137,-441
0,9248618,199,-1875,-390,-1030,-564,-327,257,137,-441
0,9248625,199,-1872,-393,-1028,-560,-330,257,137,-441
0,9248630,199,-1872,-393,-1028,-560,-330,257,137,-441
0,9248637,199,-1872,-393,-1028,-560,-330,257,137,-441
0,9248647,202,-1875,-390,-1031,-566,-328,257,137,-441
0,9248653,202,-1875,-390,-1031,-566,-328,257,137,-441
0,9248660,202,-1875,-390,-1031,-566,-328,257,137,-441
0,9248667,202,-1875,-391,-1039,-566,-323,257,137,-441
0,9248674,202,-1875,-391,-1039,-566,-323,257,137,-441
0,9248680,200,-1873,-395,-1035,-567,-332,257,137,-441
0,9248688,200,-1873,-395,-1035,-567,-332,257,137,-441
0,9248695,200,-1873,-395,-1035,-567,-332,257,137,-441
0,9248702,201,-1872,-392,-1027,-566,-326,253,147,-449
0,9248708,201,-1872,-392,-1027,-566,-326,253,147,-449
0,9248714,201,-1872,-392,-1027,-566,-326,253,147,-449
0,9248722,200,-1874,-387,-1030,-571,-326,253,147,-449
0,9248729,200,-1874,-387,-1030,-571,-326,253,147,-449
0,9248736,200,-1874,-387,-1030,-571,-326,253,147,-449
0,9248742,196,-1871,-392,-1032,-576,-329,253,147,-449
0,9248747,196,-1871,-392,-1032,-576,-329,253,147,-449
0,9248752,196,-1871,-392,-1032,-576,-329,253,147,-449
0,9248759,196,-1871,-392,-1032,-576,-329,253,147,-449
0,9248765,198,-1873,-391,-1028,-578,-327,253,147,-449
0,9248774,198,-1873,-391,-1028,-578,-327,253,147,-449
0,9248779,198,-1873,-391,-1028,-578,-327,253,147,-449
0,9248784,203,-1872,-394,-1033,-568,-330,253,147,-449
0,9248789,203,-1872,-394,-1033,-568,-330,253,147,-449
0,9248794,203,-1872,-394,-1033,-568,-330,253,147,-449
0,9248802,201,-1869,-399,-1034,-568,-332,253,147,-449
0,9248808,201,-1869,-399,-1034,-568,-332,253,147,-449
0,9248816,201,-1869,-399,-1034,-568,-332,253,147,-449
0,9248821,198,-1872,-384,-1029,-560,-333,253,147,-447
0,9248828,198,-1872,-384,-1029,-560,-333,253,147,-447
0,9248836,198,-1872,-384,-1029,-560,-333,253,147,-447
0,9248844,201,-1874,-388,-1038,-567,-326,253,147,-447
0,9248852,201,-1874,-388,-1038,-567,-326,253,147,-447
0,9248860,201,-1874,-388,-1038,-567,-326,253,147,-447
0,9248865,197,-1874,-384,-1032,-570,-331,253,147,-447
0,9248871,197,-1874,-384,-1032,-570,-331,253,147,-447
0,9248876,197,-1874,-384,-1032,-570,-331,253,147,-447
0,9248883,198,-1875,-398,-1037,-567,-328,253,147,-447
0,9248888,198,-1875,-398,-1037,-567,-328,253,147,-447
0,9248896,198,-1875,-398,-1037,-567,-328,253,147,-447
0,9248904,201,-1875,-390,-1042,-567,-330,253,147,-447
0,9248911,201,-1875,-390,-1042,-567,-330,253,147,-447
0,9248916,201,-1875,-390,-1042,-567,-330,253,147,-447
0,9248922,201,-1875,-389,-1028,-569,-321,253,147,-447
0,9248929,201,-1875,-389,-1028,-569,-321,253,147,-447
0,9248936,201,-1875,-389,-1028,-569,-321,253,147,-447
0,9248945,199,-1873,-387,-1025,-564,-321,253,147,-447
0,9248952,199,-1873,-387,-1025,-564,-321,253,147,-447
0,9248960,199,-1873,-387,-1025,-564,-321,253,147,-447
0,9248966,197,-1874,-381,-1034,-571,-318,258,154,-444
0,9248972,197,-1874,-381,-1034,-571,-318,258,154,-444
0,9248979,197,-1874,-381,-1034,-571,-318,258,154,-444
0,9248988,200,-1872,-388,-1037,-567,-325,258,154,-444
0,9248996,200,-1872,-388,-1037,-567,-325,258,154,-444
0,9249003,201,-1873,-386,-1035,-566,-333,258,154,-444
0,9249011,201,-1873,-386,-1035,-566,-333,258,154,-444
0,9249018,201,-1873,-386,-1035,-566,-333,258,154,-444
0,9249026,201,-1872,-386,-1036,-567,-332,258,154,-444
0,9249033,201,-1872,-386,-1036,-567,-332,258,154,-444
0,9249041,201,-1872,-386,-1036,-567,-332,258,154,-444
0,9249046,198,-1874,-400,-1027,-566,-327,258,154,-444
0,9249054,198,-1874,-400,-1027,-566,-327,258,154,-444
0,9249061,199,-1871,-394,-1025,-573,-326,258,154,-444
0,9249070,199,-1871,-394,-1025,-573,-326,258,154,-444
0,9249077,199,-1871,-394,-1025,-573,-326,258,154,-444
0,9249085,200,-1871,-392,-1026,-569,-326,252,152,-448
0,9249091,200,-1871,-392,-1026,-569,-326,252,152,-448
0,9249099,200,-1871,-392,-1026,-569,-326,252,152,-448
0,9249105,201,-1870,-390,-1031,-570,-328,252,152,-448
0,9249113,201,-1870,-390,-1031,-570,-328,252,152,-448
0,9249120,201,-1870,-390,-1031,-570,-328,252,152,-448
0,9249126,201,-1871,-388,-1036,-569,-326,252,152,-448
0,9249134,201,-1871,-388,-1036,-569,-326,252,152,-448
0,9249141,201,-1871,-388,-1036,-569,-326,252,152,-448
0,9249149,200,-1874,-396,-1036,-569,-321,252,152,-448
0,9249156,200,-1874,-396,-1036,-569,-321,252,152,-448
0,9249164,195,-1874,-391,-1036,-567,-332,252,152,-448
0,9249172,195,-1874,-391,-1036,-567,-332,252,152,-448
0,9249179,195,-1874,-391,-1036,-567,-332,252,152,-448
0,9249186,195,-1874,-389,-1031,-570,-326,252,152,-448
0,9249192,195,-1874,-389,-1031,-570,-326,252,152,-448
0,9249199,195,-1874,-389,-1031,-570,-326,252,152,-448
0,9249204,201,-1874,-392,-1032,-570,-328,252,152,-448
0,9249209,201,-1874,-392,-1032,-570,-328,252,152,-448
0,9249214,201,-1874,-392,-1032,-570,-328,252,152,-448
0,9249220,201,-1874,-392,-1032,-570,-328,252,152,-448
0,9249225,197,-1872,-387,-1030,-570,-326,256,146,-440
0,9249231,197,-1872,-387,-1030,-570,-326,256,146,-440
0,9249235,197,-1872,-387,-1030,-570,-326,256,146,-440
0,9249241,199,-1873,-392,-1035,-570,-325,256,146,-440
0,9249248,199,-1873,-392,-1035,-570,-325,256,146,-440
0,9249255,199,-1873,-392,-1035,-570,-325,256,146,-440
0,9249262,198,-1875,-391,-1030,-561,-318,256,146,-440
0,9249269,198,-1875,-391,-1030,-561,-318,256,146,-440
0,9249274,198,-1875,-391,-1030,-561,-318,256,146,-440
0,9249280,198,-1875,-391,-1030,-561,-318,256,146,-440
0,9249288,198,-1875,-393,-1034,-559,-323,256,146,-440
0,9249296,198,-1875,-393,-1034,-559,-323,256,146,-440
0,9249301,201,-1871,-400,-1026,-570,-326,256,146,-440
0,9249307,201,-1871,-400,-1026,-570,-326,256,146,-440
0,9249315,201,-1871,-400,-1026,-570,-326,256,146,-440
0,9249323,200,-1875,-391,-1029,-574,-323,256,146,-440
0,9249330,200,-1875,-391,-1029,-574,-323,256,146,-440
0,9249338,200,-1875,-391,-1029,-574,-323,256,146,-440
0,9249345,199,-1872,-386,-1037,-578,-331,258,150,-446
0,9249352,199,-1872,-386,-1037,-578,-331,258,150,-446
0,9249359,199,-1872,-386,-1037,-578,-331,258,150,-446
0,9249368,201,-1872,-385,-1031,-566,-328,258,150,-446
0,9249374,201,-1872,-385,-1031,-566,-328,258,150,-446
0,9249380,201,-1872,-385,-1031,-566,-328,258,150,-446
0,9249394,199,-1873,-388,-1034,-565,-326,258,150,-446
0,9249408,199,-1871,-396,-1038,-561,-326,258,150,-446
0,9249418,199,-1871,-396,-1038,-561,-326,258,150,-446
0,9249432,198,-1871,-391,-1036,-571,-331,258,150,-446
0,9249444,200,-1873,-396,-1035,-568,-326,258,150,-446
0,9249455,200,-1873,-396,-1035,-568,-326,258,150,-446
0,9249465,200,-1872,-392,-1031,-573,-325,258,150,-446
0,9249480,200,-1872,-392,-1031,-573,-325,258,150,-446
0,9249495,199,-1873,-383,-1027,-571,-327,257,149,-455
0,9249503,198,-1871,-391,-1025,-572,-321,257,149,-455
0,9249514,198,-1871,-391,-1025,-572,-321,257,149,-455
0,9249529,201,-1871,-392,-1021,-574,-317,257,149,-455
0,9249544,200,-1872,-392,-1034,-570,-321,257,149,-455
0,9249554,200,-1872,-392,-1034,-570,-321,257,149,-455
0,9249563,200,-1873,-394,-1028,-569,-330,257,149,-455
0,9249579,200,-1873,-394,-1028,-569,-330,257,149,-455
0,9249592,196,-1873,-401,-1040,-572,-322,257,149,-455
0,9249602,200,-1875,-389,-1033,-578,-327,250,146,-454
0,9249615,200,-1875,-389,-1033,-578,-327,250,146,-454
0,9249629,199,-1874,-386,-1031,-568,-324,250,146,-454
0,9249642,202,-1874,-396,-1039,-568,-322,250,146,-454
0,9249651,202,-1874,-396,-1039,-568,-322,250,146,-454
0,9249665,196,-1872,-390,-1033,-571,-329,250,146,-454
0,9249676,196,-1872,-390,-1033,-571,-329,250,146,-454
0,9249690,200,-1870,-391,-1036,-569,-328,250,146,-454
0,9249701,200,-1870,-391,-1036,-569,-328,250,146,-454
0,9249716,202,-1871,-388,-1025,-563,-322,250,146,-454
0,9249728,202,-1873,-390,-1031,-568,-320,254,154,-442
0,9249741,202,-1873,-390,-1031,-568,-320,254,154,-442
0,9249755,199,-1874,-385,-1039,-569,-320,254,154,-442
0,9249768,199,-1875,-386,-1033,-564,-326,254,154,-442
0,9249776,199,-1875,-386,-1033,-564,-326,254,154,-442
0,9249784,200,-1871,-392,-1032,-570,-332,254,154,-442
0,9249793,200,-1871,-392,-1032,-570,-332,254,154,-442
0,9249801,200,-1871,-392,-1032,-570,-332,254,154,-442
0,9249813,200,-1873,-392,-1034,-575,-325,254,154,-442
0,9249823,199,-1872,-388,-1035,-571,-323,254,154,-442
0,9249833,199,-1872,-388,-1035,-571,-323,254,154,-442
0,9249843,200,-1871,-389,-1035,-570,-330,254,154,-442
0,9249853,200,-1871,-389,-1035,-570,-330,254,154,-442
0,9249862,197,-1874,-389,-1037,-571,-331,255,143,-451
0,9249870,197,-1874,-389,-1037,-571,-331,255,143,-451
0,9249882,197,-1875,-389,-1030,-572,-325,255,143,-451
0,9249891,197,-1875,-389,-1030,-572,-325,255,143,-451
0,9249900,197,-1875,-389,-1030,-572,-325,255,143,-451
0,9249908,202,-1873,-388,-1027,-571,-329,255,143,-451
0,9249917,202,-1873,-388,-1027,-571,-329,255,143,-451
0,9249927,200,-1870,-391,-1032,-571,-326,255,143,-451
0,9249937,200,-1870,-391,-1032,-571,-326,255,143,-451
0,9249947,201,-1872,-390,-1036,-567,-328,255,143,-451
0,9249956,201,-1872,-390,-1036,-567,-328,255,143,-451
0,9249965,201,-1874,-388,-1030,-565,-323,255,143,-451
0,9249973,201,-1874,-388,-1030,-565,-323,255,143,-451
0,9249983,197,-1873,-388,-1024,-568,-333,260,144,-446
0,9249992,197,-1873,-388,-1024,-568,-333,260,144,-446
0,9250003,202,-1873,-387,-1029,-562,-329,260,144,-446
0,9250018,202,-1873,-387,-1029,-562,-329,260,144,-446
0,9250032,199,-1871,-391,-1031,-562,-329,260,144,-446
0,9250044,199,-1870,-392,-1033,-558,-328,260,144,-446
0,9250056,199,-1870,-392,-1033,-558,-328,260,144,-446
0,9250069,202,-1874,-396,-1029,-564,-325,260,144,-446
0,9250084,202,-1871,-392,-1027,-562,-323,260,144,-446
0,9250096,202,-1871,-392,-1027,-562,-323,260,144,-446
0,9250105,202,-1871,-391,-1022,-563,-323,260,144,-446
0,9250117,202,-1871,-391,-1022,-563,-323,260,144,-446
0,9250130,204,-1870,-394,-1035,-572,-322,251,143,-451
0,9250144,198,-1875,-384,-1030,-572,-324,251,143,-451
0,9250154,198,-1875,-384,-1030,-572,-324,251,143,-451
0,9250167,198,-1873,-392,-1030,-567,-330,251,143,-451
0,9250180,198,-1873,-392,-1030,-567,-330,251,143,-451
0,9250193,200,-1874,-385,-1025,-566,-325,251,143,-451
0,9250202,200,-1874,-385,-1025,-566,-325,251,143,-451
0,9250210,200,-1874,-393,-1027,-573,-329,251,143,-451
0,9250219,200,-1874,-393,-1027,-573,-329,251,143,-451
0,9250227,201,-1872,-392,-1031,-572,-327,251,143,-451
0,9250234,201,-1872,-392,-1031,-572,-327,251,143,-451
0,9250242,201,-1872,-392,-1031,-572,-327,251,143,-451
0,9250249,201,-1872,-390,-1024,-568,-323,257,147,-451
0,9250257,201,-1872,-390,-1024,-568,-323,257,147,-451
0,9250267,200,-1872,-390,-1024,-562,-329,257,147,-451
0,9250274,200,-1872,-390,-1024,-562,-329,257,147,-451
0,9250282,200,-1872,-390,-1024,-562,-329,257,147,-451
0,9250290,199,-1875,-390,-1026,-567,-326,257,147,-451
0,9250302,200,-1874,-388,-1031,-564,-331,257,147,-451
0,9250315,200,-1874,-388,-1031,-564,-331,257,147,-451
0,9250328,199,-1875,-393,-1038,-568,-335,257,147,-451
0,9250341,199,-1875,-393,-1038,-568,-335,257,147,-451
0,9250354,201,-1871,-390,-1037,-570,-325,257,147,-451
0,9250366,201,-1872,-396,-1040,-569,-330,257,147,-451
0,9250377,201,-1872,-396,-1040,-569,-330,257,147,-451
0,9250387,198,-1875,-387,-1038,-566,-326,255,139,-443
0,9250395,198,-1875,-387,-1038,-566,-326,255,139,-443
0,9250402,198,-1875,-387,-1038,-566,-326,255,139,-443
0,9250407,203,-1873,-389,-1036,-564,-333,255,139,-443
0,9250413,203,-1873,-389,-1036,-564,-333,255,139,-443
0,9250419,203,-1873,-389,-1036,-564,-333,255,139,-443
0,9250427,200,-1870,-391,-1028,-568,-331,255,139,-443
0,9250434,200,-1870,-391,-1028,-568,-331,255,139,-443
0,9250440,200,-1870,-391,-1028,-568,-331,255,139,-443
0,9250448,203,-1873,-388,-1026,-566,-318,255,139,-443
0,9250456,203,-1873,-388,-1026,-566,-318,255,139,-443
0,9250463,200,-1871,-389,-1031,-566,-320,255,139,-443
0,9250470,200,-1871,-389,-1031,-566,-320,255,139,-443
0,9250478,200,-1871,-389,-1031,-566,-320,255,139,-443
0,9250484,201,-1872,-395,-1036,-562,-326,255,139,-443
0,9250491,201,-1872,-395,-1036,-562,-326,255,139,-443
0,9250496,201,-1872,-395,-1036,-562,-326,255,139,-443
0,9250501,201,-1872,-395,-1036,-562,-326,255,139,-443
0,9250507,199,-1873,-389,-1037,-573,-328,256,150,-444
0,9250514,199,-1873,-389,-1037,-573,-328,256,150,-444
0,9250523,199,-1873,-389,-1037,-573,-328,256,150,-444
0,9250530,200,-1873,-387,-1036,-569,-324,256,150,-444
0,9250536,200,-1873,-387,-1036,-569,-324,256,150,-444
0,9250545,201,-1874,-397,-1036,-567,-329,256,150,-444
0,9250552,201,-1874,-397,-1036,-567,-329,256,150,-444
0,9250561,201,-1874,-397,-1036,-567,-329,256,150,-444
0,9250567,201,-1874,-392,-1031,-574,-319,256,150,-444
0,9250572,201,-1874,-392,-1031,-574,-319,256,150,-444
0,9250580,201,-1874,-392,-1031,-574,-319,256,150,-444
0,9250587,196,-1873,-392,-1032,-558,-321,256,150,-444
0,9250595,196,-1873,-392,-1032,-558,-321,256,150,-444
0,9250603,196,-1873,-392,-1032,-558,-321,256,150,-444
0,9250608,202,-1871,-389,-1030,-558,-331,256,150,-444
0,9250615,202,-1871,-389,-1030,-558,-331,256,150,-444
0,9250621,202,-1871,-389,-1030,-558,-331,256,150,-444
0,9250629,198,-1872,-394,-1030,-567,-325,251,143,-451
0,9250635,198,-1872,-394,-1030,-567,-325,251,143,-451
0,9250642,201,-1872,-387,-1024,-568,-326,251,143,-451
0,9250651,201,-1872,-387,-1024,-568,-326,251,143,-451
0,9250658,201,-1872,-387,-1024,-568,-326,251,143,-451
0,9250665,199,-1875,-390,-1030,-565,-331,251,143,-451
0,9250670,199,-1875,-390,-1030,-565,-331,251,143,-451
0,9250678,199,-1875,-390,-1030,-565,-331,251,143,-451
0,9250685,199,-1872,-392,-1028,-574,-329,251,143,-451
0,9250691,199,-1872,-392,-1028,-574,-329,251,143,-451
0,9250698,199,-1872,-392,-1028,-574,-329,251,143,-451
0,9250705,197,-1871,-389,-1031,-575,-329,251,143,-451
0,9250713,197,-1871,-389,-1031,-575,-329,251,143,-451
0,9250720,197,-1871,-389,-1031,-575,-329,251,143,-451
0,9250728,201,-1873,-391,-1031,-569,-322,251,143,-451
0,9250735,201,-1873,-391,-1031,-569,-322,251,143,-451
0,9250742,201,-1873,-391,-1031,-569,-322,251,143,-451
0,9250748,199,-1872,-390,-1039,-573,-321,251,143,-451
0,9250755,199,-1872,-390,-1039,-573,-321,251,143,-451
0,9250763,199,-1872,-390,-1039,-573,-321,251,143,-451
0,9250770,200,-1872,-389,-1029,-568,-328,261,139,-443
0,9250777,200,-1872,-389,-1029,-568,-328,261,139,-443
0,9250781,200,-1872,-389,-1029,-568,-328,261,139,-443
0,9250786,197,-1873,-388,-1028,-573,-328,261,139,-443
0,9250791,197,-1873,-388,-1028,-573,-328,261,139,-443
0,9250796,197,-1873,-388,-1028,-573,-328,261,139,-443
0,9250802,197,-1873,-388,-1028,-573,-328,261,139,-443
0,9250807,200,-1875,-392,-1031,-563,-331,261,139,-443
0,9250814,200,-1875,-392,-1031,-563,-331,261,139,-443
0,9250821,200,-1875,-392,-1031,-563,-331,261,139,-443
0,9250829,201,-1876,-387,-1033,-568,-329,261,139,-443
0,9250836,201,-1876,-387,-1033,-568,-329,261,139,-443
0,9250843,201,-1876,-387,-1033,-568,-329,261,139,-443
0,9250850,199,-1874,-396,-1033,-569,-328,261,139,-443
0,9250856,199,-1874,-396,-1033,-569,-328,261,139,-443
0,9250864,202,-1873,-384,-1027,-563,-326,261,139,-443
0,9250873,202,-1873,-384,-1027,-563,-326,261,139,-443
0,9250881,202,-1873,-384,-1027,-563,-326,261,139,-443
0,9250886,202,-1872,-385,-1025,-567,-325,259,145,-449
0,9250891,202,-1872,-385,-1025,-567,-325,259,145,-449
0,9250897,202,-1872,-385,-1025,-567,-325,259,145,-449
0,9250906,194,-1873,-389,-1023,-568,-323,259,145,-449
0,9250913,194,-1873,-389,-1023,-568,-323,259,145,-449
0,9250919,194,-1873,-389,-1023,-568,-323,259,145,-449
0,9250926,198,-1876,-388,-1027,-570,-327,259,145,-449
0,9250933,198,-1876,-388,-1027,-570,-327,259,145,-449
0,9250939,198,-1876,-388,-1027,-570,-327,259,145,-449
0,9250948,199,-1873,-397,-1033,-567,-323,259,145,-449
0,9250956,199,-1873,-397,-1033,-567,-323,259,145,-449
0,9250963,199,-1873,-397,-1033,-567,-323,259,145,-449
0,9250970,200,-1874,-389,-1040,-575,-330,259,145,-449
0,9250975,200,-1874,-389,-1040,-575,-330,259,145,-449
0,9250982,200,-1874,-389,-1040,-575,-330,259,145,-449
0,9250990,200,-1874,-390,-1036,-566,-324,259,145,-449
0,9250998,200,-1874,-390,-1036,-566,-324,259,145,-449
0,9251006,199,-1876,-386,-1037,-570,-327,259,145,-449
0,9251013,199,-1876,-386,-1037,-570,-327,259,145,-449
0,9251019,199,-1876,-386,-1037,-570,-327,259,145,-449
0,9251026,199,-1876,-386,-1037,-570,-327,250,138,-454
0,9251033,199,-1876,-386,-1037,-570,-327,250,138,-454
0,9251038,199,-1876,-386,-1037,-570,-327,250,138,-454
0,9251043,199,-1876,-386,-1037,-570,-327,250,138,-454
0,9251051,201,-1873,-387,-1029,-564,-326,250,138,-454
0,9251059,201,-1873,-387,-1029,-564,-326,250,138,-454
0,9251065,200,-1874,-393,-1030,-570,-327,250,138,-454
0,9251072,200,-1874,-393,-1030,-570,-327,250,138,-454
0,9251078,200,-1874,-393,-1030,-570,-327,250,138,-454
0,9251085,203,-1874,-394,-1034,-570,-326,250,138,-454
0,9251091,203,-1874,-394,-1034,-570,-326,250,138,-454
0,9251099,203,-1874,-394,-1034,-570,-326,250,138,-454
0,9251106,200,-1876,-390,-1032,-567,-329,250,138,-454
0,9251113,200,-1876,-390,-1032,-567,-329,250,138,-454
0,9251121,200,-1876,-390,-1032,-567,-329,250,138,-454
0,9251127,202,-1876,-388,-1031,-567,-331,250,138,-454
0,9251134,202,-1876,-388,-1031,-567,-331,250,138,-454
0,9251142,202,-1876,-388,-1031,-567,-331,250,138,-454
0,9251149,199,-1873,-393,-1035,-568,-326,256,148,-454
0,9251155,199,-1873,-393,-1035,-568,-326,256,148,-454
0,9251163,199,-1873,-393,-1035,-568,-326,256,148,-454
0,9251171,198,-1874,-391,-1035,-577,-325,256,148,-454
0,9251177,198,-1874,-391,-1035,-577,-325,256,148,-454
0,9251185,198,-1874,-391,-1035,-577,-325,256,148,-454
0,9251193,198,-1874,-391,-1035,-577,-325,256,148,-454
0,9251198,198,-1874,-391,-1035,-577,-325,256,148,-454
0,9251204,202,-1870,-391,-1038,-570,-328,256,148,-454
0,9251209,202,-1870,-391,-1038,-570,-328,256,148,-454
0,9251215,202,-1870,-391,-1038,-570,-328,256,148,-454
0,9251219,202,-1870,-391,-1038,-570,-328,256,148,-454
0,9251225,200,-1872,-393,-1028,-570,-329,256,148,-454
0,9251230,200,-1872,-393,-1028,-570,-329,256,148,-454
0,9251235,200,-1872,-393,-1028,-570,-329,256,148,-454
0,9251244,200,-1872,-393,-1028,-570,-329,256,148,-454
0,9251250,198,-1874,-391,-1038,-576,-326,256,148,-454
0,9251257,198,-1874,-391,-1038,-576,-326,256,148,-454
0,9251265,199,-1870,-388,-1031,-570,-320,252,146,-448
0,9251272,199,-1870,-388,-1031,-570,-320,252,146,-448
0,9251278,199,-1870,-388,-1031,-570,-320,252,146,-448
0,9251287,196,-1872,-388,-1036,-570,-327,252,146,-448
0,9251294,196,-1872,-388,-1036,-570,-327,252,146,-448
0,9251300,196,-1872,-388,-1036,-570,-327,252,146,-448
0,9251307,198,-1871,-391,-1030,-569,-332,252,146,-448
0,9251313,198,-1871,-391,-1030,-569,-332,252,146,-448
0,9251321,198,-1871,-391,-1030,-569,-332,252,146,-448
0,9251329,199,-1872,-391,-1031,-565,-327,252,146,-448
0,9251337,199,-1872,-391,-1031,-565,-327,252,146,-448
0,9251344,197,-1874,-393,-1037,-573,-322,252,146,-448
0,9251352,197,-1874,-393,-1037,-573,-322,252,146,-448
0,9251359,197,-1874,-393,-1037,-573,-322,252,146,-448
0,9251366,200,-1873,-392,-1038,-566,-321,252,146,-448
0,9251374,200,-1873,-392,-1038,-566,-321,252,146,-448
0,9251382,200,-1873,-392,-1038,-566,-321,252,146,-448
0,9251389,201,-1874,-386,-1031,-578,-322,252,146,-448
0,9251396,201,-1874,-386,-1031,-578,-322,252,146,-448
0,9251409,197,-1873,-385,-1036,-571,-325,254,140,-448
0,9251424,200,-1877,-387,-1035,-571,-327,254,140,-448
0,9251434,200,-1877,-387,-1035,-571,-327,254,140,-448
0,9251444,200,-1871,-397,-1031,-575,-335,254,140,-448
0,9251458,200,-1871,-397,-1031,-575,-335,254,140,-448
0,9251471,200,-1871,-392,-1027,-559,-328,254,140,-448
0,9251484,202,-1874,-393,-1033,-565,-326,254,140,-448
0,9251494,202,-1874,-393,-1033,-565,-326,254,140,-448
0,9251507,202,-1874,-391,-1028,-571,-324,254,140,-448
0,9251519,202,-1874,-391,-1028,-571,-324,254,140,-448
0,9251531,199,-1872,-388,-1037,-567,-318,255,153,-445
0,9251544,199,-1872,-388,-1037,-567,-318,255,153,-445
0,9251558,201,-1871,-386,-1036,-562,-322,255,153,-445
0,9251570,199,-1871,-390,-1036,-565,-324,255,153,-445
0,9251586,200,-1871,-390,-1034,-574,-320,255,153,-445
0,9251599,200,-1871,-390,-1034,-574,-320,255,153,-445
0,9251611,202,-1875,-395,-1033,-568,-325,255,153,-445
0,9251623,202,-1875,-395,-1033,-568,-325,255,153,-445
0,9251638,198,-1872,-390,-1040,-568,-329,255,153,-445
0,9251648,199,-1874,-392,-1036,-555,-324,255,153,-445
0,9251661,199,-1874,-392,-1036,-555,-324,255,153,-445
0,9251674,199,-1869,-386,-1024,-563,-332,260,144,-442
0,9251682,199,-1869,-386,-1024,-563,-332,260,144,-442
0,9251691,200,-1872,-386,-1029,-568,-330,260,144,-442
0,9251699,200,-1872,-386,-1029,-568,-330,260,144,-442
0,9251710,197,-1873,-386,-1033,-570,-331,260,144,-442
0,9251723,197,-1873,-386,-1033,-570,-331,260,144,-442
0,9251733,201,-1874,-391,-1033,-569,-317,260,144,-442
0,9251744,201,-1874,-391,-1033,-569,-317,260,144,-442
0,9251760,200,-1875,-385,-1032,-563,-324,260,144,-442
0,9251774,198,-1872,-392,-1023,-562,-323,260,144,-442
0,9251782,198,-1872,-392,-1023,-562,-323,260,144,-442
0,9251790,200,-1873,-387,-1031,-568,-329,254,146,-450
0,9251799,200,-1873,-387,-1031,-568,-329,254,146,-450
0,9251811,200,-1869,-389,-1036,-568,-329,254,146,-450
0,9251826,198,-1875,-388,-1037,-564,-329,254,146,-450
0,9251838,198,-1875,-388,-1037,-564,-329,254,146,-450
0,9251851,198,-1873,-391,-1039,-567,-324,254,146,-450
0,9251864,198,-1873,-391,-1039,-567,-324,254,146,-450
0,9251877,200,-1869,-394,-1034,-564,-325,254,146,-450
0,9251890,202,-1871,-388,-1027,-560,-326,254,146,-450
0,9251903,202,-1871,-388,-1027,-560,-326,254,146,-450
0,9251915,200,-1872,-391,-1030,-561,-323,254,146,-450
0,9251929,199,-1869,-385,-1028,-567,-323,257,145,-445
0,9251943,199,-1869,-385,-1028,-567,-323,257,145,-445
0,9251956,198,-1874,-392,-1028,-561,-327,257,145,-445
0,9251969,197,-1874,-392,-1029,-571,-331,257,145,-445
0,9251980,197,-1874,-392,-1029,-571,-331,257,145,-445
0,9251992,198,-1875,-394,-1031,-569,-331,257,145,-445
0,9252004,198,-1875,-394,-1031,-569,-331,257,145,-445
0,9252019,200,-1872,-393,-1026,-569,-323,257,145,-445
0,9252030,201,-1872,-391,-1021,-568,-320,257,145,-445
0,9252044,201,-1872,-391,-1021,-568,-320,257,145,-445
0,9252056,199,-1872,-386,-1030,-561,-320,259,145,-445
0,9252070,199,-1874,-395,-1034,-566,-327,259,145,-445
0,9252083,199,-1874,-395,-1034,-566,-327,259,145,-445
0,9252096,198,-1873,-388,-1028,-567,-337,259,145,-445
0,9252108,200,-1871,-391,-1032,-571,-333,259,145,-445
0,9252121,200,-1871,-391,-1032,-571,-333,259,145,-445
0,9252133,198,-1874,-385,-1027,-575,-334,259,145,-445
0,9252146,198,-1874,-394,-1031,-570,-333,259,145,-445
0,9252159,198,-1874,-394,-1031,-570,-333,259,145,-445
0,9252172,201,-1871,-390,-1032,-571,-327,257,151,-441
0,9252186,199,-1871,-389,-1023,-568,-325,257,151,-441
0,9252197,199,-1871,-389,-1023,-568,-325,257,151,-441
0,9252205,201,-1872,-392,-1019,-569,-328,257,151,-441
0,9252213,201,-1872,-392,-1019,-569,-328,257,151,-441
0,9252221,201,-1872,-392,-1019,-569,-328,257,151,-441
0,9252230,203,-1872,-393,-1037,-567,-327,257,151,-441
0,9252238,203,-1872,-393,-1037,-567,-327,257,151,-441
0,9252245,200,-1873,-384,-1033,-568,-331,257,151,-441
0,9252253,200,-1873,-384,-1033,-568,-331,257,151,-441
0,9252261,200,-1873,-384,-1033,-568,-331,257,151,-441
0,9252270,200,-1874,-392,-1032,-570,-332,257,151,-441
0,9252278,200,-1874,-392,-1032,-570,-332,257,151,-441
0,9252286,198,-1876,-392,-1028,-572,-328,257,151,-441
0,9252295,198,-1876,-392,-1028,-572,-328,257,151,-441
0,9252310,200,-1874,-390,-1031,-568,-327,256,138,-458
0,9252320,200,-1874,-390,-1031,-568,-327,256,138,-458
0,9252328,199,-1872,-397,-1033,-563,-327,256,138,-458
0,9252337,199,-1872,-397,-1033,-563,-327,256,138,-458
0,9252344,199,-1872,-397,-1033,-563,-327,256,138,-458
0,9252353,200,-1874,-396,-1026,-563,-329,256,138,-458
0,9252365,200,-1874,-396,-1026,-563,-329,256,138,-458
0,9252378,198,-1874,-392,-1026,-569,-326,256,138,-458
0,9252391,203,-1872,-387,-1031,-566,-329,256,138,-458
0,9252405,203,-1872,-387,-1031,-566,-329,256,138,-458
0,9252411,199,-1872,-385,-1033,-571,-326,256,138,-458
0,9252418,199,-1872,-385,-1033,-571,-326,256,138,-458
0,9252425,199,-1873,-390,-1028,-566,-328,256,138,-458
0,9252431,199,-1873,-390,-1028,-566,-328,251,151,-445
0,9252439,199,-1873,-390,-1028,-566,-328,251,151,-445
0,9252446,199,-1876,-390,-1034,-562,-321,251,151,-445
0,9252453,199,-1876,-390,-1034,-562,-321,251,151,-445
0,9252459,199,-1876,-390,-1034,-562,-321,251,151,-445
0,9252464,199,-1876,-390,-1034,-562,-321,251,151,-445
0,9252472,197,-1871,-382,-1041,-567,-331,251,151,-445
0,9252480,197,-1871,-382,-1041,-567,-331,251,151,-445
0,9252486,200,-1873,-387,-1037,-562,-329,251,151,-445
0,9252493,200,-1873,-387,-1037,-562,-329,251,151,-445
0,9252501,200,-1873,-387,-1037,-562,-329,251,151,-445
0,9252507,196,-1875,-395,-1024,-562,-324,251,151,-445
0,9252514,196,-1875,-395,-1024,-562,-324,251,151,-445
0,9252521,196,-1875,-395,-1024,-562,-324,251,151,-445
0,9252528,197,-1871,-393,-1027,-560,-325,251,151,-445
0,9252535,197,-1871,-393,-1027,-560,-325,251,151,-445
0,9252542,197,-1871,-393,-1027,-560,-325,251,151,-445
0,9252548,200,-1875,-391,-1031,-563,-329,251,151,-445
0,9252557,200,-1875,-391,-1031,-563,-329,251,151,-445
0,9252563,200,-1875,-391,-1031,-563,-329,251,151,-445
0,9252571,198,-1871,-389,-1031,-565,-325,253,139,-441
0,9252578,198,-1871,-389,-1031,-565,-325,253,139,-441
0,9252585,198,-1871,-389,-1031,-565,-325,253,139,-441
0,9252592,198,-1872,-391,-1033,-567,-325,253,139,-441
0,9252598,198,-1872,-391,-1033,-567,-325,253,139,-441
0,9252606,200,-1870,-394,-1035,-560,-321,253,139,-441
0,9252614,200,-1870,-394,-1035,-560,-321,253,139,-441
0,9252621,200,-1870,-394,-1035,-560,-321,253,139,-441
0,9252628,198,-1874,-389,-1031,-569,-321,253,139,-441
0,9252635,198,-1874,-389,-1031,-569,-321,253,139,-441
0,9252642,198,-1874,-389,-1031,-569,-321,253,139,-441
0,9252648,201,-1872,-389,-1026,-569,-322,253,139,-441
0,9252657,201,-1872,-389,-1026,-569,-322,253,139,-441
0,9252664,201,-1872,-389,-1026,-569,-322,253,139,-441
0,9252671,197,-1875,-397,-1029,-570,-325,253,139,-441
0,9252677,197,-1875,-397,-1029,-570,-325,253,139,-441
0,9252682,197,-1875,-397,-1029,-570,-325,253,139,-441
0,9252690,197,-1873,-393,-1031,-567,-327,256,144,-446
0,9252699,197,-1873,-393,-1031,-567,-327,256,144,-446
0,9252706,201,-1875,-388,-1028,-570,-329,256,144,-446
0,9252714,201,-1875,-388,-1028,-570,-329,256,144,-446
0,9252721,201,-1875,-388,-1028,-570,-329,256,144,-446
0,9252728,200,-1875,-392,-1029,-570,-327,256,144,-446
0,9252734,200,-1875,-392,-1029,-570,-327,256,144,-446
0,9252743,200,-1875,-392,-1029,-570,-327,256,144,-446
0,9252749,203,-1872,-394,-1027,-565,-326,256,144,-446
0,9252757,203,-1872,-394,-1027,-565,-326,256,144,-446
0,9252765,203,-1872,-394,-1027,-565,-326,256,144,-446
0,9252772,200,-1873,-390,-1030,-562,-323,256,144,-446
0,9252777,200,-1873,-390,-1030,-562,-323,256,144,-446
0,9252783,200,-1873,-390,-1030,-562,-323,256,144,-446
0,9252788,199,-1872,-392,-1036,-569,-328,256,144,-446
0,9252793,199,-1872,-392,-1036,-569,-328,256,144,-446
0,9252798,199,-1872,-392,-1036,-569,-328,256,144,-446
0,9252803,199,-1872,-392,-1036,-569,-328,256,144,-446
0,9252809,199,-1873,-391,-1032,-574,-328,256,144,-446
0,9252816,199,-1873,-391,-1032,-574,-328,256,144,-446
0,9252824,199,-1873,-391,-1032,-574,-328,256,144,-446
0,9252831,201,-1872,-385,-1030,-572,-326,260,150,-448
0,9252838,201,-1872,-385,-1030,-572,-326,260,150,-448
0,9252844,201,-1872,-385,-1030,-572,-326,260,150,-448
0,9252851,197,-1872,-386,-1032,-573,-324,260,150,-448
0,9252857,197,-1872,-386,-1032,-573,-324,260,150,-448
0,9252864,197,-1872,-386,-1032,-573,-324,260,150,-448
0,9252871,197,-1875,-390,-1035,-566,-329,260,150,-448
0,9252876,197,-1875,-390,-1035,-566,-329,260,150,-448
0,9252881,197,-1875,-390,-1035,-566,-329,260,150,-448
0,9252888,199,-1870,-391,-1026,-568,-329,260,150,-448
0,9252895,199,-1870,-391,-1026,-568,-329,260,150,-448
0,9252900,199,-1870,-391,-1026,-568,-329,260,150,-448
0,9252909,195,-1872,-392,-1022,-572,-328,260,150,-448
0,9252916,195,-1872,-392,-1022,-572,-328,260,150,-448
0,9252925,195,-1872,-392,-1022,-572,-328,260,150,-448
0,9252931,203,-1872,-385,-1026,-565,-324,260,150,-448
0,9252937,203,-1872,-385,-1026,-565,-324,260,150,-448
0,9252944,203,-1872,-385,-1026,-565,-324,260,150,-448
0,9252953,197,-1876,-385,-1024,-565,-328,258,136,-450
0,9252959,197,-1876,-385,-1024,-565,-328,258,136,-450
0,9252965,197,-1876,-385,-1024,-565,-328,258,136,-450
0,9252971,199,-1873,-391,-1031,-568,-330,258,136,-450
0,9252979,199,-1873,-391,-1031,-568,-330,258,136,-450
0,9252984,199,-1873,-391,-1031,-568,-330,258,136,-450
0,9252993,196,-1872,-391,-1024,-564,-323,258,136,-450
0,9253000,196,-1872,-391,-1024,-564,-323,258,136,-450
0,9253007,197,-1872,-393,-1036,-566,-322,258,136,-450
0,9253014,197,-1872,-393,-1036,-566,-322,258,136,-450
0,9253021,197,-1872,-393,-1036,-566,-322,258,136,-450
0,9253028,201,-1871,-393,-1041,-568,-330,258,136,-450
0,9253035,201,-1871,-393,-1041,-568,-330,258,136,-450
0,9253043,201,-1871,-393,-1041,-568,-330,258,136,-450
0,9253050,196,-1873,-395,-1036,-564,-324,258,136,-450
0,9253058,196,-1873,-395,-1036,-564,-324,258,136,-450
0,9253064,196,-1873,-395,-1036,-564,-324,258,136,-450
0,9253071,196,-1874,-389,-1028,-562,-332,260,144,-450
0,9253079,196,-1874,-389,-1028,-562,-332,260,144,-450
0,9253085,196,-1874,-389,-1028,-562,-332,260,144,-450
0,9253093,198,-1874,-391,-1034,-569,-326,260,144,-450
0,9253100,198,-1874,-391,-1034,-569,-326,260,144,-450
0,9253106,198,-1872,-390,-1033,-571,-329,260,144,-450
0,9253112,198,-1872,-390,-1033,-571,-329,260,144,-450
0,9253117,198,-1872,-390,-1033,-571,-329,260,144,-450
0,9253126,200,-1873,-394,-1035,-572,-331,260,144,-450
0,9253134,200,-1873,-394,-1035,-572,-331,260,144,-450
0,9253141,200,-1873,-394,-1035,-572,-331,260,144,-450
0,9253149,200,-1872,-393,-1024,-554,-327,260,144,-450
0,9253157,200,-1872,-393,-1024,-554,-327,260,144,-450
0,9253165,200,-1872,-393,-1024,-554,-327,260,144,-450
0,9253172,200,-1870,-390,-1027,-566,-326,260,144,-450
0,9253181,200,-1870,-390,-1027,-566,-326,260,144,-450
0,9253186,197,-1871,-390,-1035,-562,-335,260,144,-450
0,9253194,197,-1871,-390,-1035,-562,-335,260,144,-450
0,9253199,197,-1871,-390,-1035,-562,-335,260,144,-450
0,9253204,197,-1871,-390,-1035,-562,-335,260,144,-450
0,9253210,202,-1874,-387,-1029,-565,-324,253,147,-443
0,9253215,202,-1874,-387,-1029,-565,-324,253,147,-443
0,9253220,202,-1874,-387,-1029,-565,-324,253,147,-443
0,9253225,202,-1874,-387,-1029,-565,-324,253,147,-443
0,9253230,201,-1871,-390,-1024,-566,-321,253,147,-443
0,9253235,201,-1871,-390,-1024,-566,-321,253,147,-443
0,9253243,201,-1871,-390,-1024,-566,-321,253,147,-443
0,9253252,200,-1869,-391,-1027,-564,-333,253,147,-443
0,9253260,200,-1869,-391,-1027,-564,-333,253,147,-443
0,9253267,198,-1871,-392,-1034,-569,-332,253,147,-443
0,9253272,198,-1871,-392,-1034,-569,-332,253,147,-443
0,9253278,198,-1871,-392,-1034,-569,-332,253,147,-443
0,9253285,198,-1871,-392,-1034,-569,-332,253,147,-443
0,9253292,201,-1870,-396,-1032,-570,-325,253,147,-443
0,9253300,201,-1870,-396,-1032,-570,-325,253,147,-443
0,9253307,200,-1873,-391,-1027,-568,-329,253,147,-443
0,9253314,200,-1873,-391,-1027,-568,-329,253,147,-443
0,9253322,200,-1873,-391,-1027,-568,-329,253,147,-443
0,9253328,201,-1875,-395,-1026,-565,-325,258,148,-442
0,9253336,201,-1875,-395,-1026,-565,-325,258,148,-442
0,9253344,201,-1875,-395,-1026,-565,-325,258,148,-442
0,9253351,202,-1872,-389,-1035,-565,-324,258,148,-442
0,9253356,202,-1872,-389,-1035,-565,-324,258,148,-442
0,9253363,202,-1872,-389,-1035,-565,-324,258,148,-442
0,9253369,202,-1875,-391,-1035,-571,-324,258,148,-442
0,9253374,202,-1875,-391,-1035,-571,-324,258,148,-442
0,9253380,202,-1875,-391,-1035,-571,-324,258,148,-442
0,9253386,202,-1875,-391,-1035,-571,-324,258,148,-442
0,9253394,198,-1872,-392,-1020,-568,-329,258,148,-442
0,9253401,198,-1872,-392,-1020,-568,-329,258,148,-442
0,9253410,199,-1873,-388,-1030,-575,-328,258,148,-442
0,9253423,199,-1873,-388,-1030,-575,-328,258,148,-442
0,9253436,197,-1872,-389,-1033,-567,-319,258,148,-442
0,9253451,201,-1872,-393,-1032,-567,-324,258,148,-442
0,9253464,201,-1872,-393,-1032,-567,-324,258,148,-442
0,9253476,199,-1872,-391,-1036,-566,-326,260,142,-446
0,9253489,200,-1876,-391,-1037,-567,-322,260,142,-446
0,9253504,200,-1876,-391,-1037,-567,-322,260,142,-446
0,9253516,199,-1875,-390,-1028,-573,-334,260,142,-446
0,9253530,200,-1874,-392,-1032,-575,-327,260,142,-446
0,9253542,200,-1874,-392,-1032,-575,-327,260,142,-446
0,9253555,199,-1877,-392,-1034,-571,-322,260,142,-446
0,9253570,199,-1871,-386,-1031,-575,-327,260,142,-446
0,9253582,199,-1871,-386,-1031,-575,-327,260,142,-446
0,9253596,197,-1870,-386,-1025,-573,-331,252,144,-448
0,9253608,200,-1874,-390,-1035,-575,-329,252,144,-448
0,9253621,200,-1874,-390,-1035,-575,-329,252,144,-448
0,9253635,199,-1874,-391,-1031,-573,-324,252,144,-448
0,9253649,196,-1875,-391,-1028,-570,-326,252,144,-448
0,9253662,196,-1875,-391,-1028,-570,-326,252,144,-448
0,9253673,199,-1873,-391,-1033,-568,-320,252,144,-448
0,9253685,199,-1873,-391,-1033,-568,-320,252,144,-448
0,9253700,202,-1870,-394,-1036,-565,-321,252,144,-448
0,9253713,196,-1870,-390,-1040,-567,-333,253,145,-453
0,9253724,196,-1870,-390,-1040,-567,-333,253,145,-453
0,9253737,199,-1872,-383,-1030,-568,-323,253,145,-453
0,9253750,199,-1874,-392,-1040,-564,-336,253,145,-453
0,9253764,199,-1874,-392,-1040,-564,-336,253,145,-453
0,9253775,199,-1872,-388,-1037,-564,-330,253,145,-453
0,9253782,199,-1872,-388,-1037,-564,-330,253,145,-453
0,9253790,199,-1869,-392,-1032,-563,-323,253,145,-453
0,9253798,199,-1869,-392,-1032,-563,-323,253,145,-453
0,9253807,199,-1869,-392,-1032,-563,-323,253,145,-453
0,9253820,200,-1869,-391,-1027,-564,-327,253,145,-453
0,9253832,198,-1872,-391,-1033,-565,-331,253,145,-453
0,9253841,198,-1872,-391,-1033,-565,-331,253,145,-453
0,9253854,200,-1871,-390,-1034,-565,-324,259,139,-443
0,9253868,198,-1872,-384,-1030,-570,-324,259,139,-443
0,9253881,198,-1872,-384,-1030,-570,-324,259,139,-443
0,9253891,200,-1872,-393,-1031,-570,-325,259,139,-443
0,9253903,200,-1872,-393,-1031,-570,-325,259,139,-443
0,9253917,200,-1874,-393,-1032,-571,-328,259,139,-443
0,9253931,200,-1876,-394,-1029,-569,-327,259,139,-443
0,9253941,200,-1876,-394,-1029,-569,-327,259,139,-443
0,9253954,200,-1875,-393,-1033,-570,-330,259,139,-443
0,9253968,199,-1869,-388,-1029,-562,-325,259,151,-447
0,9253983,199,-1869,-388,-1029,-562,-325,259,151,-447
0,9253992,198,-1873,-392,-1032,-569,-333,259,151,-447
0,9254005,198,-1873,-392,-1032,-569,-333,259,151,-447
0,9254018,200,-1874,-393,-1034,-567,-331,259,151,-447
0,9254031,198,-1871,-390,-1028,-564,-324,259,151,-447
0,9254041,198,-1871,-390,-1028,-564,-324,259,151,-447
0,9254054,200,-1871,-390,-1032,-571,-328,259,151,-447
0,9254067,200,-1871,-390,-1032,-571,-328,259,151,-447
0,9254080,200,-1874,-391,-1037,-573,-332,259,151,-447
0,9254091,198,-1875,-392,-1025,-567,-326,259,151,-447
0,9254106,198,-1875,-392,-1025,-567,-326,259,151,-447
0,9254118,196,-1873,-387,-1025,-563,-323,255,145,-445
0,9254127,199,-1871,-393,-1030,-575,-331,255,145,-445
0,9254135,199,-1871,-393,-1030,-575,-331,255,145,-445
0,9254144,199,-1871,-393,-1030,-575,-331,255,145,-445
0,9254154,198,-1874,-392,-1037,-574,-328,255,145,-445
0,9254164,198,-1874,-392,-1037,-574,-328,255,145,-445
0,9254173,199,-1874,-394,-1037,-574,-325,255,145,-445
0,9254189,197,-1873,-391,-1031,-569,-329,255,145,-445
0,9254198,197,-1873,-391,-1031,-569,-329,255,145,-445
0,9254207,197,-1873,-391,-1031,-569,-329,255,145,-445
0,9254215,200,-1873,-398,-1026,-571,-330,255,145,-445
0,9254223,200,-1873,-398,-1026,-571,-330,255,145,-445
0,9254232,196,-1874,-389,-1033,-571,-318,251,145,-451
0,9254240,196,-1874,-389,-1033,-571,-318,251,145,-451
0,9254248,199,-1871,-396,-1032,-569,-320,251,145,-451
0,9254255,199,-1871,-396,-1032,-569,-320,251,145,-451
0,9254264,199,-1871,-396,-1032,-569,-320,251,145,-451
0,9254273,201,-1873,-389,-1034,-575,-324,251,145,-451
0,9254282,201,-1873,-389,-1034,-575,-324,251,145,-451
0,9254289,199,-1874,-388,-1035,-570,-333,251,145,-451
0,9254298,199,-1874,-388,-1035,-570,-333,251,145,-451
0,9254307,199,-1874,-388,-1035,-570,-333,251,145,-451
0,9254317,198,-1872,-390,-1034,-562,-335,251,145,-451
0,9254326,198,-1872,-390,-1034,-562,-335,251,145,-451
0,9254339,198,-1874,-386,-1032,-567,-328,251,145,-451
0,9254351,200,-1872,-392,-1032,-569,-323,251,145,-451
0,9254363,200,-1872,-392,-1032,-569,-323,251,145,-451
0,9254376,198,-1872,-390,-1038,-571,-321,260,150,-450
0,9254387,201,-1872,-391,-1037,-565,-323,260,150,-450
0,9254402,201,-1872,-391,-1037,-565,-323,260,150,-450
0,9254414,198,-1872,-387,-1038,-567,-324,260,150,-450
0,9254422,198,-1872,-387,-1038,-567,-324,260,150,-450
0,9254428,200,-1872,-388,-1028,-569,-326,260,150,-450
0,9254435,200,-1872,-388,-1028,-569,-326,260,150,-450
0,9254441,200,-1872,-388,-1028,-569,-326,260,150,-450
0,9254450,197,-1877,-394,-1028,-565,-321,260,150,-450
0,9254456,197,-1877,-394,-1028,-565,-321,260,150,-450
0,9254463,197,-1877,-394,-1028,-565,-321,260,150,-450
0,9254470,197,-1875,-389,-1037,-570,-326,260,150,-450
0,9254475,197,-1875,-389,-1037,-570,-326,260,150,-450
0,9254483,197,-1875,-389,-1037,-570,-326,260,150,-450
0,9254491,198,-1876,-387,-1039,-575,-322,256,148,-450
0,9254498,198,-1876,-387,-1039,-575,-322,256,148,-450
0,9254504,198,-1876,-387,-1039,-575,-322,256,148,-450
0,9254511,200,-1872,-386,-1035,-572,-320,256,148,-450
0,9254519,200,-1872,-386,-1035,-572,-320,256,148,-450
0,9254525,200,-1872,-386,-1035,-572,-320,256,148,-450
0,9254534,197,-1872,-392,-1028,-565,-327,256,148,-450
0,9254541,197,-1872,-392,-1028,-565,-327,256,148,-450
0,9254549,199,-1872,-392,-1029,-572,-321,256,148,-450
0,9254556,199,-1872,-392,-1029,-572,-321,256,148,-450
0,9254563,199,-1872,-392,-1029,-572,-321,256,148,-450
0,9254572,198,-1872,-393,-1030,-572,-326,256,148,-450
0,9254577,198,-1872,-393,-1030,-572,-326,256,148,-450
0,9254585,198,-1872,-393,-1030,-572,-326,256,148,-450
0,9254593,199,-1874,-390,-1033,-564,-335,256,148,-450
0,9254600,199,-1874,-390,-1033,-564,-335,256,148,-450
0,9254607,199,-1874,-390,-1033,-564,-335,256,148,-450
0,9254614,199,-1873,-393,-1025,-565,-333,259,153,-447
0,9254619,199,-1873,-393,-1025,-565,-333,259,153,-447
0,9254626,199,-1873,-393,-1025,-565,-333,259,153,-447
0,9254634,200,-1873,-385,-1031,-560,-332,259,153,-447
0,9254640,200,-1873,-385,-1031,-560,-332,259,153,-447
0,9254646,200,-1873,-385,-1031,-560,-332,259,153,-447
0,9254653,200,-1872,-394,-1033,-572,-328,259,153,-447
0,9254661,200,-1872,-394,-1033,-572,-328,259,153,-447
0,9254668,200,-1872,-394,-1033,-572,-328,259,153,-447
0,9254675,197,-1871,-386,-1027,-570,-338,259,153,-447
0,9254681,197,-1871,-386,-1027,-570,-338,259,153,-447
0,9254686,197,-1871,-386,-1027,-570,-338,259,153,-447
0,9254691,203,-1873,-394,-1031,-571,-332,259,153,-447
0,9254699,203,-1873,-394,-1031,-571,-332,259,153,-447
0,9254706,203,-1873,-394,-1031,-571,-332,259,153,-447
0,9254713,203,-1873,-394,-1031,-571,-332,259,153,-447
0,9254720,203,-1873,-394,-1031,-571,-332,259,153,-447
0,9254726,203,-1873,-394,-1031,-571,-332,259,153,-447
0,9254734,198,-1870,-390,-1031,-564,-331,259,153,-447
0,9254742,198,-1870,-390,-1031,-564,-331,259,153,-447
0,9254749,198,-1873,-388,-1035,-564,-328,259,151,-445
0,9254756,198,-1873,-388,-1035,-564,-328,259,151,-445
0,9254764,198,-1873,-388,-1035,-564,-328,259,151,-445
0,9254771,198,-1871,-388,-1024,-570,-328,259,151,-445
0,9254776,198,-1871,-388,-1024,-570,-328,259,151,-445
0,9254781,198,-1871,-388,-1024,-570,-328,259,151,-445
0,9254787,198,-1871,-388,-1024,-570,-328,259,151,-445
0,9254792,202,-1874,-390,-1032,-573,-329,259,151,-445
0,9254797,202,-1874,-390,-1032,-573,-329,259,151,-445
0,9254802,202,-1874,-390,-1032,-573,-329,259,151,-445
0,9254807,202,-1874,-390,-1032,-573,-329,259,151,-445
0,9254814,199,-1874,-392,-1028,-575,-331,259,151,-445
0,9254821,199,-1874,-392,-1028,-575,-331,259,151,-445
0,9254828,199,-1874,-392,-1028,-575,-331,259,151,-445
0,9254836,200,-1874,-391,-1030,-576,-315,259,151,-445
0,9254844,200,-1874,-391,-1030,-576,-315,259,151,-445
0,9254851,197,-1870,-388,-1027,-570,-322,259,151,-445
0,9254859,197,-1870,-388,-1027,-570,-322,259,151,-445
0,9254866,197,-1870,-388,-1027,-570,-322,259,151,-445
0,9254875,197,-1872,-394,-1025,-573,-327,259,151,-437
0,9254880,197,-1872,-394,-1025,-573,-327,259,151,-437
0,9254886,197,-1872,-394,-1025,-573,-327,259,151,-437
0,9254892,200,-1873,-387,-1030,-570,-324,259,151,-437
0,9254899,200,-1873,-387,-1030,-570,-324,259,151,-437
0,9254907,200,-1873,-387,-1030,-570,-324,259,151,-437
0,9254913,198,-1871,-393,-1031,-568,-329,259,151,-437
0,9254920,198,-1871,-393,-1031,-568,-329,259,151,-437
0,9254927,198,-1871,-393,-1031,-568,-329,259,151,-437
0,9254934,200,-1871,-389,-1041,-573,-327,259,151,-437
0,9254941,200,-1871,-389,-1041,-573,-327,259,151,-437
0,9254948,200,-1871,-389,-1041,-573,-327,259,151,-437
0,9254956,201,-1872,-394,-1029,-566,-331,259,151,-437
0,9254963,201,-1872,-394,-1029,-566,-331,259,151,-437
0,9254970,199,-1874,-386,-1030,-565,-331,259,151,-437
0,9254977,199,-1874,-386,-1030,-565,-331,259,151,-437
0,9254985,199,-1874,-386,-1030,-565,-331,259,151,-437
0,9254992,197,-1874,-395,-1023,-563,-327,259,151,-437
0,9254999,197,-1874,-395,-1023,-563,-327,259,151,-437
0,9255006,197,-1874,-395,-1023,-563,-327,259,151,-437
0,9255014,197,-1874,-393,-1039,-570,-325,264,150,-440
0,9255021,197,-1874,-393,-1039,-570,-325,264,150,-440
0,9255027,197,-1874,-393,-1039,-570,-325,264,150,-440
0,9255033,199,-1874,-385,-1029,-569,-329,264,150,-440
0,9255041,199,-1874,-385,-1029,-569,-329,264,150,-440
0,9255048,199,-1874,-385,-1029,-569,-329,264,150,-440
0,9255056,201,-1872,-395,-1038,-563,-327,264,150,-440
0,9255062,201,-1872,-395,-1038,-563,-327,264,150,-440
0,9255070,200,-1874,-395,-1034,-568,-328,264,150,-440
0,9255078,200,-1874,-395,-1034,-568,-328,264,150,-440
0,9255087,200,-1874,-395,-1034,-568,-328,264,150,-440
0,9255093,200,-1872,-397,-1030,-567,-333,264,150,-440
0,9255098,200,-1872,-397,-1030,-567,-333,264,150,-440
0,9255105,200,-1872,-397,-1030,-567,-333,264,150,-440
0,9255112,198,-1872,-391,-1027,-569,-331,264,150,-440
0,9255120,198,-1872,-391,-1027,-569,-331,264,150,-440
0,9255128,198,-1872,-391,-1027,-569,-331,264,150,-440
0,9255136,202,-1870,-391,-1027,-566,-330,252,152,-454
0,9255145,202,-1870,-391,-1027,-566,-330,252,152,-454
0,9255151,200,-1872,-393,-1025,-569,-329,252,152,-454
0,9255159,200,-1872,-393,-1025,-569,-329,252,152,-454
0,9255166,200,-1872,-393,-1025,-569,-329,252,152,-454
0,9255173,198,-1878,-384,-1032,-570,-324,252,152,-454
0,9255180,198,-1878,-384,-1032,-570,-324,252,152,-454
0,9255188,198,-1878,-384,-1032,-570,-324,252,152,-454
0,9255194,199,-1870,-389,-1033,-568,-326,252,152,-454
0,9255200,199,-1870,-389,-1033,-568,-326,252,152,-454
0,9255205,199,-1870,-389,-1033,-568,-326,252,152,-454
0,9255211,200,-1874,-389,-1020,-565,-320,252,152,-454
0,9255217,200,-1874,-389,-1020,-565,-320,252,152,-454
0,9255223,200,-1874,-389,-1020,-565,-320,252,152,-454
0,9255228,200,-1874,-389,-1020,-565,-320,252,152,-454
0,9255233,197,-1872,-389,-1035,-565,-327,252,152,-454
0,9255238,197,-1872,-389,-1035,-565,-327,252,152,-454
0,9255245,197,-1872,-389,-1035,-565,-327,252,152,-454
0,9255252,198,-1869,-393,-1037,-564,-335,252,152,-454
0,9255260,198,-1869,-393,-1037,-564,-335,252,152,-454
0,9255266,198,-1869,-393,-1037,-564,-335,252,152,-454
0,9255272,198,-1871,-388,-1033,-571,-334,253,145,-445
0,9255280,198,-1871,-388,-1033,-571,-334,253,145,-445
0,9255288,198,-1871,-388,-1033,-571,-334,253,145,-445
0,9255297,197,-1872,-389,-1035,-567,-328,253,145,-445
0,9255303,197,-1872,-389,-1035,-567,-328,253,145,-445
0,9255310,197,-1872,-389,-1029,-563,-331,253,145,-445
0,9255315,197,-1872,-389,-1029,-563,-331,253,145,-445
0,9255321,197,-1872,-389,-1029,-563,-331,253,145,-445
0,9255326,197,-1872,-389,-1029,-563,-331,253,145,-445
0,9255331,200,-1872,-391,-1033,-565,-327,253,145,-445
0,9255340,200,-1872,-391,-1033,-565,-327,253,145,-445
0,9255348,200,-1872,-391,-1033,-565,-327,253,145,-445
0,9255355,201,-1873,-394,-1029,-565,-334,253,145,-445
0,9255361,201,-1873,-394,-1029,-565,-334,253,145,-445
0,9255366,201,-1873,-394,-1029,-565,-334,253,145,-445
0,9255372,200,-1871,-397,-1028,-572,-329,253,145,-445
0,9255379,200,-1871,-397,-1028,-572,-329,253,145,-445
0,9255388,200,-1871,-397,-1028,-572,-329,253,145,-445
0,9255395,199,-1873,-384,-1030,-571,-322,258,146,-446
0,9255400,199,-1873,-384,-1030,-571,-322,258,146,-446
0,9255406,199,-1873,-384,-1030,-571,-322,258,146,-446
0,9255412,198,-1873,-390,-1032,-566,-328,258,146,-446
0,9255420,198,-1873,-390,-1032,-566,-328,258,146,-446
0,9255432,200,-1872,-390,-1026,-572,-327,258,146,-446
0,9255443,200,-1872,-390,-1026,-572,-327,258,146,-446
0,9255456,201,-1872,-390,-1028,-567,-328,258,146,-446
0,9255470,201,-1871,-390,-1031,-571,-330,258,146,-446
0,9255482,201,-1871,-390,-1031,-571,-330,258,146,-446
0,9255494,201,-1871,-390,-1031,-571,-330,258,146,-446
0,9255507,201,-1871,-390,-1031,-571,-330,258,146,-446
0,9255521,200,-1872,-388,-1035,-571,-323,254,144,-444
0,9255533,197,-1874,-386,-1026,-570,-328,254,144,-444
0,9255544,197,-1874,-386,-1026,-570,-328,254,144,-444
0,9255560,200,-1876,-392,-1034,-570,-327,254,144,-444
0,9255573,198,-1874,-392,-1030,-573,-326,254,144,-444
0,9255583,198,-1874,-392,-1030,-573,-326,254,144,-444
0,9255593,198,-1876,-394,-1043,-567,-329,254,144,-444
0,9255607,198,-1876,-394,-1043,-567,-329,254,144,-444
0,9255619,202,-1875,-394,-1036,-566,-332,254,144,-444
0,9255632,200,-1873,-391,-1029,-572,-327,254,144,-444
0,9255646,200,-1873,-391,-1029,-572,-327,254,144,-444
0,9255660,201,-1869,-383,-1037,-562,-325,255,145,-445
0,9255672,199,-1873,-388,-1034,-565,-332,255,145,-445
0,9255684,199,-1873,-388,-1034,-565,-332,255,145,-445
0,9255695,199,-1871,-392,-1032,-565,-339,255,145,-445
0,9255708,199,-1871,-392,-1032,-565,-339,255,145,-445
0,9255721,201,-1871,-393,-1026,-565,-327,255,145,-445
0,9255733,200,-1872,-396,-1029,-564,-323,255,145,-445
0,9255748,200,-1872,-396,-1029,-564,-323,255,145,-445
0,9255759,198,-1872,-390,-1031,-562,-329,255,145,-445
0,9255773,200,-1874,-389,-1029,-567,-332,255,147,-445
0,9255781,200,-1874,-389,-1029,-567,-332,255,147,-445
0,9255789,200,-1874,-389,-1029,-567,-332,255,147,-445
0,9255796,196,-1873,-391,-1026,-573,-327,255,147,-445
0,9255805,196,-1873,-391,-1026,-573,-327,255,147,-445
0,9255816,198,-1871,-393,-1027,-567,-327,255,147,-445
0,9255829,198,-1871,-393,-1027,-567,-327,255,147,-445
0,9255843,201,-1870,-388,-1027,-572,-331,255,147,-445
0,9255853,198,-1871,-387,-1026,-569,-323,255,147,-445
0,9255865,198,-1871,-387,-1026,-569,-323,255,147,-445
0,9255879,198,-1871,-392,-1033,-570,-325,255,147,-445
0,9255887,198,-1871,-392,-1033,-570,-325,255,147,-445
0,9255896,199,-1870,-393,-1029,-567,-327,255,147,-445
0,9255905,199,-1870,-393,-1029,-567,-327,255,147,-445
0,9255915,200,-1873,-386,-1036,-566,-333,261,149,-445
0,9255928,200,-1873,-386,-1036,-566,-333,261,149,-445
0,9255942,201,-1873,-386,-1033,-572,-329,261,149,-445
0,9255953,199,-1873,-388,-1034,-571,-322,261,149,-445
0,9255966,199,-1873,-388,-1034,-571,-322,261,149,-445
0,9255979,200,-1874,-390,-1024,-566,-324,261,149,-445
0,9255988,200,-1874,-390,-1024,-566,-324,261,149,-445
0,9255995,201,-1874,-391,-1029,-569,-327,261,149,-445
0,9256003,201,-1874,-391,-1029,-569,-327,261,149,-445
0,9256014,198,-1874,-388,-1032,-569,-328,261,149,-445
0,9256025,198,-1874,-388,-1032,-569,-328,261,149,-445
0,9256034,199,-1876,-385,-1027,-569,-322,258,152,-454
0,9256047,199,-1876,-385,-1027,-569,-322,258,152,-454
0,9256062,198,-1875,-394,-1028,-570,-325,258,152,-454
0,9256071,197,-1873,-386,-1044,-575,-329,258,152,-454
0,9256083,197,-1873,-386,-1044,-575,-329,258,152,-454
0,9256096,198,-1873,-394,-1045,-576,-326,258,152,-454
0,9256111,200,-1875,-393,-1023,-564,-335,258,152,-454
0,9256120,200,-1875,-393,-1023,-564,-335,258,152,-454
0,9256132,198,-1873,-397,-1030,-568,-329,258,152,-454
0,9256144,198,-1873,-397,-1030,-568,-329,258,152,-454
0,9256159,198,-1873,-389,-1034,-573,-325,255,147,-449
0,9256171,198,-1871,-388,-1030,-564,-324,255,147,-449
0,9256184,198,-1871,-388,-1030,-564,-324,255,147,-449
0,9256196,199,-1871,-392,-1026,-570,-335,255,147,-449
0,9256205,199,-1871,-392,-1026,-570,-335,255,147,-449
0,9256213,195,-1874,-390,-1032,-567,-331,255,147,-449
0,9256221,195,-1874,-390,-1032,-567,-331,255,147,-449
0,9256229,195,-1874,-390,-1032,-567,-331,255,147,-449
0,9256238,201,-1873,-393,-1033,-567,-328,255,147,-449
0,9256246,201,-1873,-393,-1033,-567,-328,255,147,-449
0,9256254,199,-1874,-390,-1027,-570,-325,255,147,-449
0,9256262,199,-1874,-390,-1027,-570,-325,255,147,-449
0,9256270,196,-1873,-391,-1028,-566,-336,255,147,-449
0,9256278,196,-1873,-391,-1028,-566,-336,255,147,-449
0,9256287,196,-1873,-391,-1028,-566,-336,255,147,-449
0,9256297,200,-1873,-388,-1025,-573,-334,263,139,-447
0,9256308,200,-1873,-388,-1025,-573,-334,263,139,-447
0,9256321,203,-1873,-387,-1029,-568,-333,263,139,-447
0,9256334,205,-1873,-388,-1035,-573,-325,263,139,-447
0,9256346,205,-1873,-388,-1035,-573,-325,263,139,-447
0,9256355,201,-1873,-388,-1036,-566,-322,263,139,-447
0,9256368,201,-1873,-388,-1036,-566,-322,263,139,-447
0,9256381,197,-1875,-388,-1033,-568,-325,263,139,-447
0,9256394,204,-1874,-393,-1032,-571,-337,263,139,-447
0,9256404,204,-1874,-393,-1032,-571,-337,263,139,-447
0,9256417,200,-1873,-386,-1038,-576,-331,256,138,-448
0,9256428,200,-1873,-386,-1038,-576,-331,256,138,-448
0,9256436,202,-1872,-394,-1032,-569,-321,256,138,-448
0,9256443,202,-1872,-394,-1032,-569,-321,256,138,-448
0,9256451,199,-1874,-390,-1031,-564,-325,256,138,-448
0,9256459,199,-1874,-390,-1031,-564,-325,256,138,-448
0,9256466,199,-1874,-390,-1031,-564,-325,256,138,-448
0,9256472,197,-1875,-393,-1039,-572,-328,256,138,-448
0,9256480,197,-1875,-393,-1039,-572,-328,256,138,-448
0,9256488,197,-1875,-393,-1039,-572,-328,256,138,-448
0,9256495,199,-1874,-390,-1033,-571,-328,256,138,-448
0,9256501,199,-1874,-390,-1033,-571,-328,256,138,-448
0,9256506,199,-1874,-390,-1033,-571,-328,256,138,-448
0,9256512,196,-1875,-391,-1030,-570,-326,256,138,-448
0,9256519,196,-1875,-391,-1030,-570,-326,256,138,-448
0,9256526,196,-1875,-391,-1030,-570,-326,256,138,-448
0,9256534,197,-1873,-397,-1025,-575,-325,256,138,-448
0,9256541,197,-1873,-397,-1025,-575,-325,256,138,-448
0,9256547,197,-1873,-397,-1025,-575,-325,256,138,-448
0,9256552,197,-1872,-389,-1033,-572,-331,256,150,-448
0,9256559,197,-1872,-389,-1033,-572,-331,256,150,-448
0,9256565,197,-1872,-389,-1033,-572,-331,256,150,-448
0,9256570,199,-1875,-394,-1029,-569,-330,256,150,-448
0,9256579,199,-1875,-394,-1029,-569,-330,256,150,-448
0,9256586,199,-1875,-394,-1029,-569,-330,256,150,-448
0,9256593,202,-1874,-389,-1029,-563,-323,256,150,-448
0,9256600,202,-1874,-389,-1029,-563,-323,256,150,-448
0,9256606,202,-1874,-389,-1029,-563,-323,256,150,-448
0,9256613,198,-1874,-388,-1037,-568,-328,256,150,-448
0,9256620,198,-1874,-388,-1037,-568,-328,256,150,-448
0,9256628,198,-1874,-388,-1037,-568,-328,256,150,-448
0,9256636,204,-1875,-391,-1036,-557,-332,256,150,-448
0,9256642,204,-1875,-391,-1036,-557,-332,256,150,-448
0,9256648,204,-1875,-391,-1036,-557,-332,256,150,-448
0,9256656,200,-1874,-396,-1025,-565,-328,256,150,-448
0,9256663,200,-1874,-396,-1025,-565,-328,256,150,-448
0,9256670,200,-1874,-396,-1025,-565,-328,256,150,-448
0,9256677,199,-1872,-395,-1032,-562,-324,265,147,-443
0,9256684,199,-1872,-395,-1032,-562,-324,265,147,-443
0,9256692,202,-1871,-388,-1040,-569,-326,265,147,-443
0,9256698,202,-1871,-388,-1040,-569,-326,265,147,-443
0,9256706,202,-1871,-388,-1040,-569,-326,265,147,-443
0,9256714,203,-1878,-392,-1032,-574,-329,265,147,-443
0,9256722,203,-1878,-392,-1032,-574,-329,265,147,-443
0,9256729,203,-1878,-392,-1032,-574,-329,265,147,-443
0,9256736,200,-1876,-390,-1025,-567,-319,265,147,-443
0,9256743,200,-1876,-390,-1025,-567,-319,265,147,-443
0,9256751,200,-1875,-386,-1030,-559,-329,265,147,-443
0,9256758,200,-1875,-386,-1030,-559,-329,265,147,-443
0,9256765,200,-1875,-386,-1030,-559,-329,265,147,-443
0,9256773,202,-1873,-394,-1034,-572,-332,265,147,-443
0,9256778,202,-1873,-394,-1034,-572,-332,265,147,-443
0,9256782,202,-1873,-394,-1034,-572,-332,265,147,-443
0,9256788,202,-1873,-394,-1034,-572,-332,265,147,-443
0,9256794,198,-1874,-396,-1035,-566,-327,265,147,-443
0,9256799,198,-1874,-396,-1035,-566,-327,265,147,-443
0,9256805,198,-1874,-396,-1035,-566,-327,265,147,-443
0,9256811,202,-1873,-391,-1029,-570,-329,257,147,-443
0,9256817,202,-1873,-391,-1029,-570,-329,257,147,-443
0,9256824,202,-1873,-391,-1029,-570,-329,257,147,-443
0,9256832,197,-1873,-391,-1030,-572,-330,257,147,-443
0,9256838,197,-1873,-391,-1030,-572,-330,257,147,-443
0,9256845,197,-1873,-391,-1030,-572,-330,257,147,-443
0,9256853,200,-1874,-391,-1030,-571,-324,257,147,-443
0,9256860,200,-1874,-391,-1030,-571,-324,257,147,-443
0,9256867,200,-1874,-391,-1030,-571,-324,257,147,-443
0,9256875,199,-1873,-392,-1025,-566,-327,257,147,-443
0,9256882,199,-1873,-392,-1025,-566,-327,257,147,-443
0,9256888,199,-1873,-392,-1025,-566,-327,257,147,-443
0,9256896,197,-1871,-390,-1026,-566,-326,257,147,-443
0,9256903,197,-1871,-390,-1026,-566,-326,257,147,-443
0,9256910,198,-1873,-389,-1036,-575,-325,257,147,-443
0,9256918,198,-1873,-389,-1036,-575,-325,257,147,-443
0,9256924,198,-1873,-389,-1036,-575,-325,257,147,-443
0,9256932,197,-1872,-391,-1040,-573,-325,253,149,-441
0,9256938,197,-1872,-391,-1040,-573,-325,253,149,-441
0,9256946,197,-1872,-391,-1040,-573,-325,253,149,-441
0,9256953,200,-1873,-388,-1036,-566,-323,253,149,-441
0,9256961,200,-1873,-388,-1036,-566,-323,253,149,-441
0,9256967,200,-1873,-388,-1036,-566,-323,253,149,-441
0,9256974,200,-1873,-386,-1031,-564,-331,253,149,-441
0,9256980,200,-1873,-386,-1031,-564,-331,253,149,-441
0,9256985,200,-1873,-386,-1031,-564,-331,253,149,-441
0,9256991,203,-1875,-392,-1025,-570,-322,253,149,-441
0,9256998,203,-1875,-392,-1025,-570,-322,253,149,-441
0,9257006,203,-1875,-392,-1025,-570,-322,253,149,-441
0,9257013,199,-1874,-392,-1030,-572,-322,253,149,-441
0,9257020,199,-1874,-392,-1030,-572,-322,253,149,-441
0,9257027,199,-1874,-392,-1030,-572,-322,253,149,-441
0,9257033,203,-1876,-391,-1039,-570,-331,253,149,-441
0,9257039,203,-1876,-391,-1039,-570,-331,253,149,-441
0,9257044,203,-1876,-391,-1039,-570,-331,253,149,-441
0,9257053,200,-1873,-390,-1026,-574,-326,252,140,-452
0,9257059,200,-1873,-390,-1026,-574,-326,252,140,-452
0,9257066,200,-1873,-390,-1026,-574,-326,252,140,-452
0,9257071,203,-1872,-388,-1032,-568,-325,252,140,-452
0,9257076,203,-1872,-388,-1032,-568,-325,252,140,-452
0,9257081,203,-1872,-388,-1032,-568,-325,252,140,-452
0,9257089,203,-1872,-388,-1032,-568,-325,252,140,-452
0,9257097,202,-1875,-387,-1029,-567,-324,252,140,-452
0,9257104,202,-1875,-387,-1029,-567,-324,252,140,-452
0,9257110,202,-1875,-387,-1029,-567,-324,252,140,-452
0,9257117,201,-1872,-395,-1026,-567,-332,252,140,-452
0,9257125,201,-1872,-395,-1026,-567,-332,252,140,-452
0,9257134,200,-1873,-392,-1032,-563,-318,252,140,-452
0,9257141,200,-1873,-392,-1032,-563,-318,252,140,-452
0,9257148,200,-1873,-392,-1032,-563,-318,252,140,-452
0,9257154,200,-1874,-391,-1032,-567,-325,252,140,-452
0,9257163,200,-1874,-391,-1032,-567,-325,252,140,-452
0,9257169,200,-1874,-391,-1032,-567,-325,252,140,-452
0,9257176,197,-1875,-390,-1027,-565,-335,252,140,-452
0,9257183,197,-1875,-390,-1027,-565,-335,252,140,-452
0,9257192,196,-1873,-390,-1030,-567,-331,260,148,-450
0,9257197,196,-1873,-390,-1030,-567,-331,260,148,-450
0,9257202,196,-1873,-390,-1030,-567,-331,260,148,-450
0,9257207,196,-1873,-390,-1030,-567,-331,260,148,-450
0,9257212,195,-1874,-389,-1034,-569,-325,260,148,-450
0,9257218,195,-1874,-389,-1034,-569,-325,260,148,-450
0,9257222,195,-1874,-389,-1034,-569,-325,260,148,-450
0,9257228,195,-1874,-389,-1034,-569,-325,260,148,-450
0,9257233,198,-1874,-396,-1034,-565,-324,260,148,-450
0,9257238,198,-1874,-396,-1034,-565,-324,260,148,-450
0,9257245,198,-1874,-396,-1034,-565,-324,260,148,-450
0,9257252,199,-1874,-390,-1040,-565,-330,260,148,-450
0,9257261,199,-1874,-390,-1040,-565,-330,260,148,-450
0,9257268,199,-1874,-390,-1040,-565,-330,260,148,-450
0,9257274,198,-1871,-392,-1038,-568,-332,260,148,-450
0,9257282,198,-1871,-392,-1038,-568,-332,260,148,-450
0,9257289,198,-1871,-392,-1038,-568,-332,260,148,-450
0,9257296,196,-1872,-391,-1031,-572,-324,260,148,-450
0,9257304,196,-1872,-391,-1031,-572,-324,260,148,-450
0,9257310,196,-1872,-391,-1031,-572,-324,260,148,-450
0,9257317,197,-1873,-395,-1022,-568,-326,251,145,-449
0,9257323,197,-1873,-395,-1022,-568,-326,251,145,-449
0,9257331,198,-1872,-392,-1019,-567,-326,251,145,-449
0,9257339,198,-1872,-392,-1019,-567,-326,251,145,-449
0,9257346,198,-1872,-392,-1019,-567,-326,251,145,-449
0,9257354,199,-1872,-392,-1030,-569,-332,251,145,-449
0,9257360,199,-1872,-392,-1030,-569,-332,251,145,-449
0,9257366,199,-1872,-392,-1030,-569,-332,251,145,-449
0,9257373,200,-1871,-387,-1034,-566,-327,251,145,-449
0,9257381,200,-1871,-387,-1034,-566,-327,251,145,-449
0,9257389,200,-1871,-387,-1034,-566,-327,251,145,-449
0,9257395,203,-1873,-390,-1030,-571,-329,251,145,-449
0,9257403,203,-1873,-390,-1030,-571,-329,251,145,-449
0,9257410,203,-1873,-390,-1030,-571,-329,251,145,-449
0,9257416,199,-1871,-390,-1031,-573,-329,251,145,-449
0,9257423,199,-1871,-390,-1031,-573,-329,251,145,-449
0,9257431,199,-1871,-390,-1031,-573,-329,251,145,-449
0,9257437,202,-1872,-399,-1029,-568,-329,251,145,-449
0,9257445,202,-1872,-399,-1029,-568,-329,251,145,-449
0,9257457,203,-1872,-385,-1026,-567,-329,261,149,-445
0,9257470,203,-1872,-385,-1026,-567,-329,261,149,-445
0,9257485,199,-1870,-393,-1036,-564,-327,261,149,-445
0,9257494,198,-1874,-388,-1036,-570,-331,261,149,-445
0,9257507,198,-1874,-388,-1036,-570,-331,261,149,-445
0,9257521,196,-1873,-389,-1030,-566,-332,261,149,-445
0,9257535,200,-1873,-392,-1031,-569,-327,261,149,-445
0,9257544,200,-1873,-392,-1031,-569,-327,261,149,-445
0,9257556,198,-1876,-392,-1027,-566,-328,261,149,-445
0,9257569,198,-1876,-392,-1027,-566,-328,261,149,-445
0,9257582,198,-1877,-388,-1028,-572,-326,258,148,-454
0,9257596,199,-1874,-384,-1033,-574,-327,258,148,-454
0,9257609,199,-1874,-384,-1033,-574,-327,258,148,-454
0,9257621,199,-1874,-389,-1032,-574,-320,258,148,-454
0,9257632,199,-1869,-392,-1033,-568,-322,258,148,-454
0,9257646,199,-1869,-392,-1033,-568,-322,258,148,-454
0,9257659,198,-1873,-396,-1029,-570,-322,258,148,-454
0,9257671,198,-1873,-396,-1029,-570,-322,258,148,-454
0,9257680,200,-1870,-394,-1027,-573,-329,258,148,-454
0,9257688,200,-1870,-394,-1027,-573,-329,258,148,-454
0,9257696,199,-1871,-392,-1036,-569,-328,258,148,-454
0,9257708,199,-1871,-392,-1036,-569,-328,258,148,-454
0,9257720,200,-1871,-393,-1034,-569,-330,260,146,-448
0,9257734,201,-1873,-389,-1033,-570,-330,260,146,-448
0,9257748,201,-1873,-389,-1033,-570,-330,260,146,-448
0,9257760,201,-1874,-395,-1025,-569,-335,260,146,-448
0,9257772,204,-1872,-385,-1033,-565,-327,260,146,-448
0,9257780,204,-1872,-385,-1033,-565,-327,260,146,-448
0,9257788,204,-1872,-385,-1033,-565,-327,260,146,-448
0,9257796,204,-1872,-385,-1033,-565,-327,260,146,-448
0,9257809,204,-1872,-385,-1033,-565,-327,260,146,-448
0,9257825,205,-1875,-389,-1040,-572,-325,260,146,-448
0,9257836,202,-1874,-396,-1029,-570,-330,257,153,-453
0,9257848,202,-1874,-396,-1029,-570,-330,257,153,-453
0,9257861,203,-1876,-389,-1029,-563,-326,257,153,-453
0,9257875,201,-1874,-389,-1026,-575,-326,257,153,-453
0,9257887,201,-1874,-389,-1026,-575,-326,257,153,-453
0,9257900,202,-1874,-392,-1032,-571,-322,257,153,-453
0,9257913,199,-1875,-385,-1034,-568,-320,257,153,-453
0,9257926,199,-1875,-385,-1034,-568,-320,257,153,-453
0,9257938,201,-1871,-388,-1034,-564,-321,257,153,-453
0,9257949,201,-1871,-388,-1034,-564,-321,257,153,-453
0,9257962,196,-1872,-387,-1031,-566,-331,254,152,-448
0,9257976,200,-1873,-388,-1030,-569,-326,254,152,-448
0,9257989,200,-1873,-388,-1030,-569,-326,254,152,-448
0,9257997,198,-1873,-387,-1031,-566,-321,254,152,-448
0,9258009,198,-1873,-387,-1031,-566,-321,254,152,-448
0,9258023,200,-1874,-389,-1031,-573,-318,254,152,-448
0,9258036,201,-1871,-396,-1033,-564,-323,254,152,-448
0,9258046,201,-1871,-396,-1033,-564,-323,254,152,-448
0,9258059,203,-1870,-393,-1033,-565,-330,254,152,-448
0,9258076,198,-1874,-391,-1033,-561,-326,254,152,-448
0,9258086,198,-1874,-391,-1033,-561,-326,254,152,-448
0,9258096,198,-1874,-382,-1035,-563,-329,258,148,-448
0,9258108,198,-1874,-382,-1035,-563,-329,258,148,-448
0,9258123,200,-1873,-390,-1028,-565,-326,258,148,-448
0,9258136,201,-1874,-392,-1027,-568,-327,258,148,-448
0,9258147,201,-1874,-392,-1027,-568,-327,258,148,-448
0,9258160,198,-1873,-390,-1030,-576,-327,258,148,-448
0,9258174,199,-1876,-391,-1032,-572,-325,258,148,-448
0,9258187,199,-1876,-391,-1032,-572,-325,258,148,-448
0,9258198,200,-1873,-392,-1030,-565,-326,258,148,-448
0,9258206,200,-1873,-392,-1030,-565,-326,258,148,-448
0,9258214,199,-1876,-390,-1029,-575,-330,254,148,-448
0,9258221,199,-1876,-390,-1029,-575,-330,254,148,-448
0,9258229,199,-1876,-390,-1029,-575,-330,254,148,-448
0,9258237,199,-1874,-390,-1024,-574,-326,254,148,-448
0,9258246,199,-1874,-390,-1024,-574,-326,254,148,-448
0,9258255,198,-1873,-394,-1025,-576,-327,254,148,-448
0,9258263,198,-1873,-394,-1025,-576,-327,254,148,-448
0,9258271,198,-1873,-394,-1025,-576,-327,254,148,-448
0,9258279,198,-1872,-390,-1026,-563,-321,254,148,-448
0,9258289,198,-1872,-390,-1026,-563,-321,254,148,-448
0,9258302,198,-1874,-391,-1034,-563,-326,254,148,-448
0,9258314,196,-1875,-390,-1033,-562,-328,254,148,-448
0,9258324,196,-1875,-390,-1033,-562,-328,254,148,-448
0,9258333,198,-1873,-390,-1026,-570,-323,254,148,-448
0,9258341,198,-1873,-390,-1026,-570,-323,254,148,-448
0,9258349,198,-1873,-390,-1026,-570,-323,254,148,-448
0,9258357,198,-1871,-389,-1028,-568,-329,253,143,-445
0,9258366,198,-1871,-389,-1028,-568,-329,253,143,-445
0,9258379,198,-1871,-390,-1024,-569,-321,253,143,-445
0,9258393,199,-1874,-395,-1024,-567,-325,253,143,-445
0,9258405,199,-1874,-395,-1024,-567,-325,253,143,-445
0,9258416,199,-1874,-400,-1023,-569,-332,253,143,-445
0,9258429,199,-1874,-400,-1023,-569,-332,253,143,-445
0,9258441,199,-1874,-392,-1026,-563,-332,253,143,-445
0,9258450,199,-1874,-392,-1026,-563,-332,253,143,-445
0,9258458,203,-1876,-389,-1037,-568,-328,253,143,-445
0,9258463,203,-1876,-389,-1037,-568,-328,253,143,-445
0,9258472,203,-1876,-389,-1037,-568,-328,253,143,-445
0,9258479,200,-1876,-398,-1034,-571,-322,254,148,-446
0,9258487,200,-1876,-398,-1034,-571,-322,254,148,-446
0,9258496,202,-1872,-395,-1034,-573,-330,254,148,-446
0,9258503,202,-1872,-395,-1034,-573,-330,254,148,-446
0,9258510,202,-1872,-395,-1034,-573,-330,254,148,-446
0,9258516,202,-1869,-390,-1031,-568,-325,254,148,-446
0,9258523,202,-1869,-390,-1031,-568,-325,254,148,-446
0,9258530,202,-1869,-390,-1031,-568,-325,254,148,-446
0,9258537,201,-1876,-395,-1027,-566,-325,254,148,-446
0,9258546,201,-1876,-395,-1027,-566,-325,254,148,-446
0,9258553,199,-1873,-390,-1038,-565,-329,254,148,-446
0,9258559,199,-1873,-390,-1038,-565,-329,254,148,-446
0,9258566,199,-1873,-390,-1038,-565,-329,254,148,-446
0,9258573,203,-1873,-385,-1032,-565,-325,254,148,-446
0,9258582,203,-1873,-385,-1032,-565,-325,254,148,-446
0,9258588,203,-1873,-385,-1032,-565,-325,254,148,-446
0,9258594,197,-1873,-390,-1025,-565,-323,254,140,-440
0,9258601,197,-1873,-390,-1025,-565,-323,254,140,-440
0,9258608,197,-1873,-390,-1025,-565,-323,254,140,-440
0,9258616,197,-1873,-390,-1025,-565,-323,254,140,-440
0,9258622,197,-1873,-390,-1025,-565,-323,254,140,-440
0,9258630,197,-1873,-390,-1025,-565,-323,254,140,-440
0,9258637,203,-1872,-394,-1047,-567,-329,254,140,-440
0,9258643,203,-1872,-394,-1047,-567,-329,254,140,-440
0,9258651,203,-1872,-394,-1047,-567,-329,254,140,-440
0,9258658,199,-1873,-387,-1035,-567,-322,254,140,-440
0,9258665,199,-1873,-387,-1035,-567,-322,254,140,-440
0,9258674,198,-1873,-389,-1038,-568,-331,254,140,-440
0,9258679,198,-1873,-389,-1038,-568,-331,254,140,-440
0,9258687,198,-1873,-389,-1038,-568,-331,254,140,-440
0,9258696,200,-1873,-392,-1033,-567,-329,254,140,-440
0,9258702,200,-1873,-392,-1033,-567,-329,254,140,-440
0,9258710,200,-1873,-392,-1033,-567,-329,254,140,-440
0,9258717,198,-1875,-395,-1026,-565,-333,254,140,-440
0,9258723,198,-1875,-395,-1026,-565,-333,254,140,-440
0,9258730,198,-1875,-395,-1026,-565,-333,254,140,-440
0,9258737,202,-1872,-388,-1031,-566,-329,261,141,-451
0,9258744,202,-1872,-388,-1031,-566,-329,261,141,-451
0,9258752,202,-1872,-388,-1031,-566,-329,261,141,-451
0,9258760,197,-1873,-390,-1028,-565,-330,261,141,-451
0,9258765,197,-1873,-390,-1028,-565,-330,261,141,-451
0,9258773,197,-1873,-388,-1031,-566,-326,261,141,-451
0,9258778,197,-1873,-388,-1031,-566,-326,261,141,-451
0,9258783,197,-1873,-388,-1031,-566,-326,261,141,-451
0,9258788,197,-1873,-388,-1031,-566,-326,261,141,-451
0,9258793,204,-1873,-393,-1027,-570,-326,261,141,-451
0,9258799,204,-1873,-393,-1027,-570,-326,261,141,-451
0,9258805,204,-1873,-393,-1027,-570,-326,261,141,-451
0,9258810,204,-1873,-393,-1027,-570,-326,261,141,-451
0,9258815,202,-1874,-394,-1025,-564,-324,261,141,-451
0,9258820,202,-1874,-394,-1025,-564,-324,261,141,-451
0,9258827,202,-1874,-394,-1025,-564,-324,261,141,-451
0,9258835,200,-1874,-391,-1033,-572,-332,261,141,-451
0,9258843,200,-1874,-391,-1033,-572,-332,261,141,-451
0,9258851,200,-1874,-391,-1033,-572,-332,261,141,-451
0,9258858,199,-1874,-387,-1035,-571,-327,262,144,-440
0,9258865,199,-1874,-387,-1035,-571,-327,262,144,-440
0,9258873,201,-1876,-392,-1030,-571,-329,262,144,-440
0,9258881,201,-1876,-392,-1030,-571,-329,262,144,-440
0,9258888,201,-1876,-392,-1030,-571,-329,262,144,-440
0,9258895,202,-1871,-388,-1023,-561,-326,262,144,-440
0,9258902,202,-1871,-388,-1023,-561,-326,262,144,-440
0,9258909,202,-1871,-388,-1023,-561,-326,262,144,-440
0,9258915,199,-1873,-395,-1034,-569,-320,262,144,-440
0,9258924,199,-1873,-395,-1034,-569,-320,262,144,-440
0,9258931,199,-1873,-395,-1034,-569,-320,262,144,-440
0,9258937,201,-1872,-390,-1032,-567,-320,262,144,-440
0,9258944,201,-1872,-390,-1032,-567,-320,262,144,-440
0,9258949,201,-1872,-390,-1032,-567,-320,262,144,-440
0,9258956,200,-1871,-385,-1030,-564,-326,262,144,-440
0,9258964,200,-1871,-385,-1030,-564,-326,262,144,-440
0,9258973,200,-1871,-385,-1030,-564,-326,262,144,-440
0,9258980,201,-1872,-391,-1025,-567,-325,262,144,-440
0,9258986,201,-1872,-391,-1025,-567,-325,262,144,-440
0,9258993,202,-1876,-389,-1036,-569,-332,264,150,-452
0,9259000,202,-1876,-389,-1036,-569,-332,264,150,-452
0,9259009,202,-1876,-389,-1036,-569,-332,264,150,-452
0,9259016,198,-1874,-385,-1040,-569,-331,264,150,-452
0,9259023,198,-1874,-385,-1040,-569,-331,264,150,-452
0,9259030,198,-1874,-385,-1040,-569,-331,264,150,-452
0,9259036,200,-1873,-394,-1035,-565,-330,264,150,-452
0,9259044,200,-1873,-394,-1035,-565,-330,264,150,-452
0,9259053,200,-1873,-394,-1035,-565,-330,264,150,-452
0,9259059,200,-1872,-389,-1028,-566,-326,264,150,-452
0,9259066,200,-1872,-389,-1028,-566,-326,264,150,-452
0,9259073,199,-1871,-389,-1035,-566,-334,264,150,-452
0,9259080,199,-1871,-389,-1035,-566,-334,264,150,-452
0,9259087,199,-1871,-389,-1035,-566,-334,264,150,-452
0,9259096,202,-1872,-388,-1033,-563,-321,264,150,-452
0,9259103,202,-1872,-388,-1033,-563,-321,264,150,-452
0,9259111,202,-1872,-388,-1033,-563,-321,264,150,-452
0,9259118,199,-1872,-387,-1028,-569,-331,256,146,-450
0,9259125,199,-1872,-387,-1028,-569,-331,256,146,-450
0,9259132,199,-1872,-387,-1028,-569,-331,256,146,-450
0,9259141,203,-1871,-386,-1031,-573,-328,256,146,-450
0,9259148,203,-1871,-386,-1031,-573,-328,256,146,-450
0,9259156,199,-1873,-386,-1034,-570,-327,256,146,-450
0,9259163,199,-1873,-386,-1034,-570,-327,256,146,-450
0,9259169,199,-1873,-386,-1034,-570,-327,256,146,-450
0,9259176,199,-1871,-391,-1038,-574,-334,256,146,-450
0,9259184,199,-1871,-391,-1038,-574,-334,256,146,-450
0,9259191,199,-1871,-391,-1038,-574,-334,256,146,-450
0,9259196,199,-1871,-393,-1036,-568,-331,256,146,-450
0,9259201,199,-1871,-393,-1036,-568,-331,256,146,-450
0,9259206,199,-1871,-393,-1036,-568,-331,256,146,-450
0,9259211,199,-1871,-393,-1036,-568,-331,256,146,-450
0,9259217,200,-1872,-395,-1027,-561,-323,256,146,-450
0,9259223,200,-1872,-395,-1027,-561,-323,256,146,-450
0,9259229,200,-1872,-395,-1027,-561,-323,256,146,-450
0,9259234,198,-1873,-385,-1028,-559,-327,256,146,-450
0,9259239,198,-1873,-385,-1028,-559,-327,256,146,-450
0,9259246,198,-1873,-385,-1028,-559,-327,256,146,-450
0,9259253,200,-1874,-383,-1033,-569,-328,252,146,-448
0,9259260,200,-1874,-383,-1033,-569,-328,252,146,-448
0,9259268,200,-1874,-383,-1033,-569,-328,252,146,-448
0,9259274,197,-1875,-389,-1031,-567,-328,252,146,-448
0,9259280,197,-1875,-389,-1031,-567,-328,252,146,-448
0,9259286,197,-1875,-389,-1031,-567,-328,252,146,-448
0,9259293,197,-1875,-389,-1031,-567,-328,252,146,-448
0,9259300,199,-1872,-389,-1031,-564,-328,252,146,-448
0,9259308,199,-1872,-389,-1031,-564,-328,252,146,-448
0,9259314,199,-1872,-389,-1031,-564,-328,252,146,-448
0,9259321,198,-1872,-394,-1030,-569,-323,252,146,-448
0,9259327,198,-1872,-394,-1030,-569,-323,252,146,-448
0,9259335,200,-1870,-391,-1033,-567,-325,252,146,-448
0,9259341,200,-1870,-391,-1033,-567,-325,252,146,-448
0,9259350,200,-1870,-391,-1033,-567,-325,252,146,-448
0,9259359,202,-1875,-396,-1032,-566,-325,252,146,-448
0,9259365,202,-1875,-396,-1032,-566,-325,252,146,-448
0,9259372,202,-1875,-396,-1032,-566,-325,252,146,-448
0,9259379,200,-1875,-382,-1032,-570,-326,257,149,-441
0,9259384,200,-1875,-382,-1032,-570,-326,257,149,-441
0,9259393,200,-1875,-382,-1032,-570,-326,257,149,-441
0,9259400,197,-1870,-385,-1035,-569,-332,257,149,-441
0,9259409,197,-1870,-385,-1035,-569,-332,257,149,-441
0,9259417,198,-1872,-394,-1032,-568,-327,257,149,-441
0,9259423,198,-1872,-394,-1032,-568,-327,257,149,-441
0,9259430,198,-1872,-394,-1032,-568,-327,257,149,-441
0,9259439,197,-1872,-390,-1034,-569,-324,257,149,-441
0,9259446,197,-1872,-390,-1034,-569,-324,257,149,-441
0,9259452,197,-1872,-390,-1034,-569,-324,257,149,-441
0,9259464,199,-1872,-394,-1033,-576,-327,257,149,-441
0,9259472,199,-1872,-394,-1033,-576,-327,257,149,-441
0,9259485,198,-1874,-396,-1029,-566,-324,257,149,-441
0,9259500,199,-1873,-391,-1041,-570,-326,258,140,-450
0,9259512,199,-1873,-391,-1041,-570,-326,258,140,-450
0,9259524,202,-1872,-389,-1039,-568,-330,258,140,-450
0,9259537,200,-1873,-392,-1026,-564,-332,258,140,-450
0,9259550,200,-1873,-392,-1026,-564,-332,258,140,-450
0,9259561,200,-1873,-392,-1039,-571,-325,258,140,-450
0,9259574,198,-1869,-395,-1037,-571,-328,258,140,-450
0,9259588,198,-1869,-395,-1037,-571,-328,258,140,-450
0,9259601,202,-1870,-394,-1033,-566,-331,258,140,-450
0,9259615,201,-1871,-391,-1021,-567,-330,258,140,-450
0,9259624,201,-1871,-391,-1021,-567,-330,258,140,-450
0,9259635,198,-1873,-387,-1028,-565,-331,258,146,-446
0,9259649,198,-1873,-387,-1028,-565,-331,258,146,-446
0,9259662,200,-1871,-387,-1028,-568,-333,258,146,-446
0,9259672,200,-1871,-387,-1028,-568,-333,258,146,-446
0,9259684,200,-1873,-394,-1031,-565,-337,258,146,-446
0,9259699,198,-1873,-399,-1028,-569,-338,258,146,-446
0,9259713,198,-1873,-399,-1028,-569,-338,258,146,-446
0,9259722,198,-1877,-391,-1031,-574,-340,258,146,-446
0,9259735,197,-1871,-391,-1029,-569,-331,258,146,-446
0,9259750,197,-1871,-391,-1029,-569,-331,258,146,-446
0,9259764,199,-1871,-387,-1024,-567,-333,249,153,-453
0,9259773,199,-1871,-387,-1024,-567,-333,249,153,-453
0,9259781,199,-1872,-386,-1030,-566,-325,249,153,-453
0,9259790,199,-1872,-386,-1030,-566,-325,249,153,-453
0,9259799,200,-1874,-386,-1033,-562,-324,249,153,-453
0,9259808,200,-1874,-386,-1033,-562,-324,249,153,-453
0,9259816,200,-1874,-386,-1033,-562,-324,249,153,-453
0,9259826,200,-1874,-386,-1033,-562,-324,249,153,-453
0,9259835,199,-1874,-393,-1031,-567,-329,249,153,-453
0,9259843,199,-1874,-393,-1031,-567,-329,249,153,-453
0,9259852,199,-1874,-393,-1031,-567,-329,249,153,-453
0,9259863,199,-1870,-387,-1034,-571,-322,249,153,-453
0,9259873,199,-1870,-387,-1034,-571,-322,249,153,-453
0,9259887,200,-1872,-392,-1031,-564,-321,249,153,-453
0,9259899,201,-1874,-385,-1034,-569,-324,254,144,-440
0,9259914,201,-1874,-385,-1034,-569,-324,254,144,-440
0,9259927,197,-1870,-387,-1041,-569,-323,254,144,-440
0,9259938,202,-1871,-391,-1029,-569,-324,254,144,-440
0,9259952,202,-1871,-391,-1029,-569,-324,254,144,-440
0,9259966,200,-1870,-389,-1034,-570,-321,254,144,-440
0,9259978,199,-1873,-391,-1033,-566,-332,254,144,-440
0,9259990,199,-1873,-391,-1033,-566,-332,254,144,-440
0,9260002,199,-1874,-388,-1025,-566,-328,254,144,-440
0,9260017,200,-1873,-386,-1027,-561,-333,266,142,-440
0,9260030,200,-1873,-386,-1027,-561,-333,266,142,-440
0,9260041,196,-1870,-383,-1030,-565,-325,266,142,-440
0,9260053,196,-1870,-383,-1030,-565,-325,266,142,-440
0,9260066,196,-1870,-383,-1030,-565,-325,266,142,-440
0,9260080,199,-1871,-390,-1029,-574,-328,266,142,-440
0,9260089,199,-1871,-390,-1029,-574,-328,266,142,-440
0,9260101,198,-1875,-387,-1029,-574,-322,266,142,-440
0,9260111,198,-1875,-387,-1029,-574,-322,266,142,-440
0,9260122,194,-1873,-388,-1037,-568,-320,266,142,-440
0,9260135,195,-1875,-390,-1032,-570,-328,266,142,-440
0,9260147,195,-1875,-390,-1032,-570,-328,266,142,-440
0,9260157,198,-1873,-392,-1031,-572,-329,258,146,-444
0,9260170,198,-1873,-392,-1031,-572,-329,258,146,-444
0,9260183,197,-1874,-388,-1027,-571,-324,258,146,-444
0,9260195,198,-1872,-390,-1026,-564,-328,258,146,-444
0,9260204,198,-1872,-390,-1026,-564,-328,258,146,-444
0,9260212,198,-1872,-390,-1026,-564,-328,258,146,-444
0,9260220,201,-1872,-391,-1037,-566,-325,258,146,-444
0,9260228,201,-1872,-391,-1037,-566,-325,258,146,-444
0,9260236,200,-1873,-392,-1031,-565,-324,258,146,-444
0,9260244,200,-1873,-392,-1031,-565,-324,258,146,-444
0,9260253,200,-1873,-392,-1031,-565,-324,258,146,-444
0,9260261,199,-1871,-388,-1036,-566,-328,258,146,-444
0,9260269,199,-1871,-388,-1036,-566,-328,258,146,-444
0,9260277,200,-1871,-389,-1035,-568,-329,254,146,-448
0,9260289,200,-1871,-389,-1035,-568,-329,254,146,-448
0,9260303,198,-1871,-389,-1023,-566,-326,254,146,-448
0,9260313,198,-1871,-389,-1023,-566,-326,254,146,-448
0,9260323,198,-1874,-393,-1031,-572,-323,254,146,-448
0,9260336,200,-1871,-390,-1032,-572,-325,254,146,-448
0,9260349,200,-1871,-390,-1032,-572,-325,254,146,-448
0,9260360,200,-1875,-387,-1036,-564,-328,254,146,-448
0,9260374,200,-1875,-387,-1036,-564,-328,254,146,-448
0,9260386,199,-1875,-385,-1035,-571,-327,254,146,-448
0,9260398,200,-1873,-386,-1032,-567,-325,257,143,-451
0,9260411,200,-1873,-386,-1032,-567,-325,257,143,-451
0,9260424,200,-1872,-389,-1036,-566,-320,257,143,-451
0,9260436,200,-1875,-394,-1030,-574,-329,257,143,-451
0,9260449,200,-1875,-394,-1030,-574,-329,257,143,-451
0,9260462,199,-1874,-391,-1025,-574,-329,257,143,-451
0,9260469,199,-1874,-391,-1025,-574,-329,257,143,-451
0,9260475,199,-1874,-391,-1025,-574,-329,257,143,-451
0,9260480,198,-1875,-396,-1030,-571,-322,257,143,-451
0,9260485,198,-1875,-396,-1030,-571,-322,257,143,-451
0,9260490,198,-1875,-396,-1030,-571,-322,257,143,-451
0,9260498,198,-1875,-389,-1032,-562,-326,257,143,-451
0,9260506,198,-1875,-389,-1032,-562,-326,257,143,-451
0,9260514,198,-1875,-389,-1032,-562,-326,257,143,-451
0,9260520,199,-1876,-393,-1031,-559,-328,257,143,-451
0,9260527,199,-1876,-393,-1031,-559,-328,257,143,-451
0,9260534,199,-1876,-393,-1031,-559,-328,257,143,-451
0,9260540,201,-1875,-388,-1025,-564,-327,255,143,-447
0,9260549,201,-1875,-388,-1025,-564,-327,255,143,-447
0,9260554,201,-1875,-388,-1025,-564,-327,255,143,-447
0,9260561,200,-1872,-391,-1027,-566,-332,255,143,-447
0,9260568,200,-1872,-391,-1027,-566,-332,255,143,-447
0,9260574,200,-1872,-391,-1027,-566,-332,255,143,-447
0,9260581,201,-1871,-394,-1030,-566,-327,255,143,-447
0,9260590,201,-1871,-394,-1030,-566,-327,255,143,-447
0,9260597,198,-1873,-391,-1028,-572,-327,255,143,-447
0,9260604,198,-1873,-391,-1028,-572,-327,255,143,-447
0,9260611,198,-1873,-391,-1028,-572,-327,255,143,-447
0,9260618,199,-1870,-390,-1027,-566,-326,255,143,-447
0,9260624,199,-1870,-390,-1027,-566,-326,255,143,-447
0,9260633,199,-1870,-390,-1027,-566,-326,255,143,-447
0,9260641,201,-1872,-389,-1034,-568,-327,255,143,-447
0,9260649,201,-1872,-389,-1034,-568,-327,255,143,-447
0,9260656,198,-1873,-389,-1032,-569,-326,254,146,-444
0,9260662,198,-1873,-389,-1032,-569,-326,254,146,-444
0,9260667,198,-1873,-389,-1032,-569,-326,254,146,-444
0,9260675,198,-1873,-389,-1032,-569,-326,254,146,-444
0,9260681,199,-1875,-391,-1026,-564,-335,254,146,-444
0,9260688,199,-1875,-391,-1026,-564,-335,254,146,-444
0,9260694,199,-1875,-391,-1026,-564,-335,254,146,-444
0,9260701,198,-1874,-385,-1030,-568,-326,254,146,-444
0,9260707,198,-1874,-385,-1030,-568,-326,254,146,-444
0,9260715,198,-1874,-385,-1030,-568,-326,254,146,-444
0,9260721,198,-1874,-385,-1030,-568,-326,254,146,-444
0,9260729,198,-1874,-385,-1030,-568,-326,254,146,-444
0,9260735,198,-1874,-385,-1030,-568,-326,254,146,-444
0,9260742,201,-1872,-390,-1034,-567,-328,254,146,-444
0,9260750,201,-1872,-390,-1034,-567,-328,254,146,-444
0,9260758,201,-1873,-385,-1027,-564,-317,254,146,-444
0,9260765,201,-1873,-385,-1027,-564,-317,254,146,-444
0,9260772,201,-1873,-385,-1027,-564,-317,254,146,-444
0,9260777,195,-1874,-396,-1028,-569,-321,254,146,-444
0,9260782,195,-1874,-396,-1028,-569,-321,254,146,-444
0,9260787,195,-1874,-396,-1028,-569,-321,254,146,-444
0,9260792,195,-1874,-396,-1028,-569,-321,254,146,-444
0,9260798,199,-1873,-387,-1023,-569,-328,255,149,-451
0,9260804,199,-1873,-387,-1023,-569,-328,255,149,-451
0,9260811,199,-1873,-387,-1023,-569,-328,255,149,-451
0,9260818,200,-1876,-391,-1028,-571,-332,255,149,-451
0,9260826,200,-1876,-391,-1028,-571,-332,255,149,-451
0,9260832,200,-1876,-391,-1028,-571,-332,255,149,-451
0,9260838,198,-1874,-392,-1036,-570,-324,255,149,-451
0,9260846,198,-1874,-392,-1036,-570,-324,255,149,-451
0,9260854,198,-1874,-392,-1036,-570,-324,255,149,-451
0,9260859,199,-1872,-394,-1029,-567,-328,255,149,-451
0,9260868,199,-1872,-394,-1029,-567,-328,255,149,-451
0,9260874,199,-1872,-394,-1029,-567,-328,255,149,-451
0,9260881,199,-1871,-388,-1029,-562,-319,255,149,-451
0,9260887,199,-1871,-388,-1029,-562,-319,255,149,-451
0,9260894,199,-1871,-388,-1029,-562,-319,255,149,-451
0,9260899,197,-1871,-388,-1040,-570,-314,255,149,-451
0,9260904,197,-1871,-388,-1040,-570,-314,255,149,-451
0,9260909,197,-1871,-388,-1040,-570,-314,255,149,-451
0,9260917,205,-1870,-391,-1027,-563,-315,253,147,-447
0,9260924,205,-1870,-391,-1027,-563,-315,253,147,-447
0,9260932,205,-1870,-391,-1027,-563,-315,253,147,-447
0,9260939,202,-1870,-395,-1031,-562,-326,253,147,-447
0,9260947,202,-1870,-395,-1031,-562,-326,253,147,-447
0,9260952,202,-1870,-395,-1031,-562,-326,253,147,-447
0,9260959,202,-1870,-395,-1031,-562,-326,253,147,-447
0,9260967,202,-1870,-395,-1031,-562,-326,253,147,-447
0,9260974,202,-1870,-395,-1031,-562,-326,253,147,-447
0,9260980,197,-1872,-391,-1043,-566,-333,253,147,-447
0,9260987,197,-1872,-391,-1043,-566,-333,253,147,-447
0,9260993,197,-1872,-391,-1043,-566,-333,253,147,-447
0,9261000,199,-1875,-391,-1039,-572,-329,253,147,-447
0,9261007,199,-1875,-391,-1039,-572,-329,253,147,-447
0,9261016,199,-1875,-391,-1039,-572,-329,253,147,-447
0,9261022,200,-1875,-388,-1038,-576,-328,253,147,-447
0,9261027,200,-1875,-388,-1038,-576,-328,253,147,-447
0,9261034,200,-1875,-388,-1038,-576,-328,253,147,-447
0,9261040,202,-1875,-395,-1033,-572,-330,258,144,-456
0,9261047,202,-1875,-395,-1033,-572,-330,258,144,-456
0,9261054,202,-1875,-395,-1033,-572,-330,258,144,-456
0,9261061,199,-1873,-390,-1028,-567,-329,258,144,-456
0,9261066,199,-1873,-390,-1028,-567,-329,258,144,-456
0,9261072,199,-1873,-390,-1028,-567,-329,258,144,-456
0,9261077,199,-1872,-391,-1026,-569,-326,258,144,-456
0,9261084,199,-1872,-391,-1026,-569,-326,258,144,-456
0,9261091,199,-1872,-391,-1026,-569,-326,258,144,-456
0,9261096,197,-1873,-389,-1028,-571,-327,258,144,-456
0,9261103,197,-1873,-389,-1028,-571,-327,258,144,-456
0,9261109,197,-1873,-389,-1028,-571,-327,258,144,-456
0,9261116,197,-1874,-390,-1036,-572,-332,258,144,-456
0,9261124,197,-1874,-390,-1036,-572,-332,258,144,-456
0,9261130,197,-1874,-390,-1036,-572,-332,258,144,-456
0,9261137,196,-1875,-386,-1028,-568,-332,258,144,-456
0,9261146,196,-1875,-386,-1028,-568,-332,258,144,-456
0,9261152,196,-1875,-386,-1028,-568,-332,258,144,-456
0,9261159,198,-1871,-396,-1026,-572,-328,258,144,-456
0,9261166,198,-1871,-396,-1026,-572,-328,258,144,-456
0,9261173,198,-1871,-396,-1026,-572,-328,258,144,-456
0,9261179,198,-1872,-385,-1035,-564,-320,257,143,-453
0,9261188,198,-1872,-385,-1035,-564,-320,257,143,-453
0,9261195,198,-1872,-385,-1035,-564,-320,257,143,-453
0,9261200,198,-1873,-385,-1033,-565,-325,257,143,-453
0,9261205,198,-1873,-385,-1033,-565,-325,257,143,-453
0,9261210,198,-1873,-385,-1033,-565,-325,257,143,-453
0,9261215,198,-1873,-385,-1033,-565,-325,257,143,-453
0,9261220,197,-1869,-396,-1033,-572,-325,257,143,-453
0,9261227,197,-1869,-396,-1033,-572,-325,257,143,-453
0,9261232,197,-1869,-396,-1033,-572,-325,257,143,-453
0,9261237,199,-1873,-390,-1035,-563,-325,257,143,-453
0,9261244,199,-1873,-390,-1035,-563,-325,257,143,-453
0,9261251,199,-1873,-390,-1035,-563,-325,257,143,-453
0,9261258,201,-1873,-387,-1034,-566,-325,257,143,-453
0,9261266,201,-1873,-387,-1034,-566,-325,257,143,-453
0,9261274,201,-1873,-387,-1034,-566,-325,257,143,-453
0,9261280,200,-1872,-391,-1030,-568,-326,257,143,-453
0,9261287,200,-1872,-391,-1030,-568,-326,257,143,-453
0,9261294,200,-1872,-391,-1030,-568,-326,257,143,-453
0,9261302,200,-1874,-393,-1031,-566,-330,261,149,-441
0,9261308,200,-1874,-393,-1031,-566,-330,261,149,-441
0,9261315,200,-1874,-393,-1031,-566,-330,261,149,-441
0,9261322,198,-1873,-391,-1032,-564,-327,261,149,-441
0,9261329,198,-1873,-391,-1032,-564,-327,261,149,-441
0,9261336,197,-1873,-391,-1031,-566,-331,261,149,-441
0,9261343,197,-1873,-391,-1031,-566,-331,261,149,-441
0,9261350,197,-1873,-391,-1031,-566,-331,261,149,-441
0,9261359,201,-1874,-385,-1028,-570,-328,261,149,-441
0,9261366,201,-1874,-385,-1028,-570,-328,261,149,-441
0,9261373,201,-1874,-385,-1028,-570,-328,261,149,-441
0,9261380,195,-1874,-393,-1030,-567,-328,261,149,-441
0,9261387,195,-1874,-393,-1030,-567,-328,261,149,-441
0,9261393,195,-1874,-393,-1030,-567,-328,261,149,-441
0,9261402,199,-1872,-385,-1030,-562,-321,261,149,-441
0,9261408,199,-1872,-385,-1030,-562,-321,261,149,-441
0,9261413,199,-1872,-385,-1030,-562,-321,261,149,-441
0,9261421,198,-1871,-397,-1035,-565,-329,261,149,-441
0,9261429,198,-1871,-397,-1035,-565,-329,261,149,-441
0,9261435,198,-1871,-397,-1035,-565,-329,261,149,-441
0,9261442,198,-1875,-388,-1028,-565,-326,258,144,-444
0,9261449,198,-1875,-388,-1028,-565,-326,258,144,-444
0,9261456,198,-1875,-388,-1028,-565,-326,258,144,-444
0,9261462,198,-1874,-388,-1033,-568,-326,258,144,-444
0,9261473,198,-1874,-388,-1033,-568,-326,258,144,-444
0,9261485,198,-1874,-391,-1030,-562,-325,258,144,-444
0,9261497,201,-1872,-393,-1036,-568,-325,258,144,-444
0,9261509,201,-1872,-393,-1036,-568,-325,258,144,-444
0,9261519,201,-1872,-393,-1036,-568,-325,258,144,-444
0,9261530,201,-1872,-393,-1036,-568,-325,258,144,-444
0,9261545,196,-1874,-391,-1032,-570,-325,258,144,-444
0,9261556,195,-1872,-384,-1036,-571,-324,253,149,-447
0,9261569,195,-1872,-384,-1036,-571,-324,253,149,-447
0,9261582,198,-1873,-387,-1032,-571,-326,253,149,-447
0,9261595,198,-1873,-387,-1032,-571,-326,253,149,-447
0,9261607,197,-1873,-392,-1034,-566,-323,253,149,-447
0,9261616,197,-1873,-392,-1034,-566,-323,253,149,-447
0,9261624,201,-1873,-392,-1028,-565,-321,253,149,-447
0,9261632,201,-1873,-392,-1028,-565,-321,253,149,-447
0,9261642,201,-1871,-389,-1026,-566,-323,253,149,-447
0,9261650,201,-1871,-389,-1026,-566,-323,253,149,-447
0,9261663,199,-1873,-396,-1024,-566,-328,253,149,-447
0,9261677,202,-1872,-390,-1027,-566,-324,253,149,-447
0,9261692,202,-1872,-390,-1027,-566,-324,253,149,-447
0,9261704,201,-1872,-380,-1031,-568,-329,264,142,-444
0,9261714,201,-1872,-380,-1031,-568,-329,264,142,-444
0,9261726,199,-1875,-391,-1041,-570,-336,264,142,-444
0,9261741,196,-1875,-389,-1032,-566,-330,264,142,-444
0,9261754,196,-1875,-389,-1032,-566,-330,264,142,-444
0,9261765,200,-1874,-385,-1034,-564,-331,264,142,-444
0,9261776,200,-1874,-385,-1034,-564,-331,264,142,-444
0,9261784,199,-1877,-391,-1043,-570,-333,264,142,-444
0,9261792,199,-1877,-391,-1043,-570,-333,264,142,-444
0,9261801,196,-1873,-390,-1035,-571,-330,264,142,-444
0,9261811,196,-1873,-390,-1035,-571,-330,264,142,-444
0,9261822,199,-1872,-391,-1030,-568,-329,258,144,-450
0,9261833,199,-1872,-391,-1030,-568,-329,258,144,-450
0,9261846,198,-1871,-386,-1027,-566,-327,258,144,-450
0,9261860,198,-1871,-386,-1027,-566,-327,258,144,-450
0,9261869,198,-1871,-386,-1027,-566,-327,258,144,-450
0,9261880,196,-1873,-395,-1031,-569,-323,258,144,-450
0,9261893,196,-1873,-395,-1031,-569,-323,258,144,-450
0,9261907,198,-1874,-395,-1030,-560,-323,258,144,-450
0,9261917,200,-1876,-387,-1030,-563,-332,258,144,-450
0,9261930,200,-1876,-387,-1030,-563,-332,258,144,-450
0,9261941,198,-1875,-387,-1040,-563,-335,261,153,-443
0,9261955,198,-1875,-387,-1040,-563,-335,261,153,-443
0,9261966,199,-1873,-388,-1034,-568,-327,261,153,-443
0,9261980,200,-1873,-394,-1028,-575,-320,261,153,-443
0,9261992,200,-1873,-394,-1028,-575,-320,261,153,-443
0,9262006,200,-1873,-391,-1024,-577,-323,261,153,-443
0,9262019,200,-1874,-393,-1033,-575,-330,261,153,-443
0,9262032,200,-1874,-393,-1033,-575,-330,261,153,-443
0,9262043,198,-1876,-392,-1033,-570,-336,261,153,-443
0,9262055,198,-1876,-392,-1033,-570,-336,261,153,-443
0,9262069,199,-1874,-393,-1027,-561,-325,261,153,-443
0,9262082,201,-1876,-382,-1032,-570,-325,251,147,-451
0,9262094,201,-1876,-382,-1032,-570,-325,251,147,-451
0,9262106,196,-1873,-391,-1029,-563,-324,251,147,-451
0,9262118,201,-1872,-388,-1027,-566,-331,251,147,-451
0,9262133,201,-1872,-388,-1027,-566,-331,251,147,-451
0,9262145,200,-1873,-393,-1030,-566,-319,251,147,-451
0,9262158,198,-1871,-393,-1045,-570,-323,251,147,-451
0,9262171,198,-1871,-393,-1045,-570,-323,251,147,-451
0,9262183,198,-1872,-393,-1041,-578,-313,251,147,-451
0,9262195,198,-1872,-393,-1041,-578,-313,251,147,-451
0,9262203,196,-1874,-389,-1036,-574,-325,258,150,-452
0,9262212,196,-1874,-389,-1036,-574,-325,258,150,-452
0,9262220,197,-1875,-383,-1035,-572,-323,258,150,-452
0,9262228,197,-1875,-383,-1035,-572,-323,258,150,-452
0,9262236,197,-1875,-383,-1035,-572,-323,258,150,-452
0,9262244,196,-1876,-390,-1031,-566,-328,258,150,-452
0,9262254,196,-1876,-390,-1031,-566,-328,258,150,-452
0,9262262,199,-1870,-388,-1025,-569,-330,258,150,-452
0,9262270,199,-1870,-388,-1025,-569,-330,258,150,-452
0,9262278,197,-1875,-388,-1034,-573,-329,258,150,-452
0,9262286,197,-1875,-388,-1034,-573,-329,258,150,-452
0,9262295,197,-1875,-388,-1034,-573,-329,258,150,-452
0,9262303,199,-1875,-392,-1034,-565,-323,258,150,-452
0,9262311,199,-1875,-392,-1034,-565,-323,258,150,-452
0,9262320,199,-1871,-391,-1035,-570,-330,258,150,-452
0,9262328,199,-1871,-391,-1035,-570,-330,258,150,-452
0,9262338,203,-1874,-387,-1028,-567,-332,258,150,-452
0,9262347,203,-1874,-387,-1028,-567,-332,255,143,-443
0,9262356,203,-1874,-387,-1028,-567,-332,255,143,-443
0,9262367,199,-1876,-390,-1027,-573,-333,255,143,-443
0,9262383,201,-1871,-395,-1032,-569,-337,255,143,-443
0,9262395,201,-1871,-395,-1032,-569,-337,255,143,-443
0,9262404,198,-1873,-392,-1026,-564,-332,255,143,-443
0,9262415,198,-1873,-392,-1026,-564,-332,255,143,-443
0,9262429,199,-1872,-389,-1033,-570,-326,255,143,-443
0,9262442,200,-1874,-394,-1034,-567,-336,255,143,-443
0,9262451,200,-1874,-394,-1034,-567,-336,255,143,-443
0,9262465,200,-1872,-390,-1033,-563,-330,260,142,-448
0,9262478,202,-1872,-388,-1036,-567,-327,260,142,-448
0,9262486,202,-1872,-388,-1036,-567,-327,260,142,-448
0,9262492,202,-1872,-388,-1036,-567,-327,260,142,-448
0,9262499,199,-1872,-394,-1041,-579,-330,260,142,-448
0,9262508,199,-1872,-394,-1041,-579,-330,260,142,-448
0,9262515,199,-1872,-394,-1041,-579,-330,260,142,-448
0,9262522,199,-1872,-387,-1029,-565,-323,260,142,-448
0,9262529,199,-1872,-387,-1029,-565,-323,260,142,-448
0,9262537,199,-1872,-387,-1029,-565,-323,260,142,-448
0,9262543,199,-1873,-390,-1031,-562,-318,260,142,-448
0,9262552,199,-1873,-390,-1031,-562,-318,260,142,-448
0,9262559,201,-1872,-389,-1029,-566,-322,260,142,-448
0,9262566,201,-1872,-389,-1029,-566,-322,260,142,-448
0,9262572,201,-1872,-389,-1029,-566,-322,260,142,-448
0,9262580,199,-1877,-386,-1030,-570,-330,260,142,-448
0,9262588,199,-1877,-386,-1030,-570,-330,260,142,-448
0,9262595,199,-1877,-386,-1030,-570,-330,260,142,-448
0,9262602,198,-1873,-383,-1027,-567,-325,260,142,-448
0,9262610,198,-1873,-383,-1027,-567,-325,260,142,-448
0,9262617,198,-1873,-383,-1027,-567,-325,260,142,-448
0,9262625,201,-1872,-390,-1028,-570,-328,260,142,-448
0,9262632,201,-1872,-390,-1028,-570,-328,260,142,-448
0,9262640,201,-1872,-387,-1030,-568,-326,260,142,-448
0,9262647,201,-1872,-387,-1030,-568,-326,260,142,-448
0,9262652,201,-1872,-387,-1030,-568,-326,260,142,-448
0,9262659,199,-1871,-393,-1033,-571,-328,260,142,-448
0,9262667,199,-1871,-393,-1033,-571,-328,260,142,-448
0,9262675,199,-1871,-393,-1033,-571,-328,260,142,-448
0,9262683,201,-1873,-388,-1030,-563,-324,260,142,-448
0,9262688,201,-1873,-388,-1030,-563,-324,260,142,-448
0,9262695,201,-1873,-388,-1030,-563,-324,260,142,-448
0,9262702,201,-1874,-388,-1036,-565,-325,260,142,-448
0,9262709,201,-1874,-388,-1036,-565,-325,260,142,-448
