imu,time,ax,ay,az,gx,gy,gz,mx,my,mz
1,9158412,425,-1363,-502,-1494,-300,-41,438,164,-224
1,9158417,425,-1363,-502,-1494,-300,-41,438,164,-224
1,9158422,425,-1363,-502,-1494,-300,-41,438,164,-224
1,9158427,427,-1363,-500,-1494,-302,-44,438,164,-224
1,9158432,427,-1363,-500,-1494,-302,-44,438,164,-224
1,9158437,427,-1363,-500,-1494,-302,-44,438,164,-224
1,9158443,427,-1363,-500,-1494,-302,-44,438,164,-224
1,9158448,425,-1365,-497,-1496,-304,-42,433,165,-225
1,9158453,425,-1365,-497,-1496,-304,-42,433,165,-225
1,9158458,425,-1365,-497,-1496,-304,-42,433,165,-225
1,9158464,425,-1365,-497,-1496,-304,-42,433,165,-225
1,9158469,423,-1363,-500,-1492,-308,-39,433,165,-225
1,9158474,423,-1363,-500,-1492,-308,-39,433,165,-225
1,9158479,423,-1363,-500,-1492,-308,-39,433,165,-225
1,9158484,423,-1363,-500,-1492,-308,-39,433,165,-225
1,9158492,424,-1363,-493,-1490,-304,-41,433,165,-225
1,9158498,424,-1363,-493,-1490,-304,-41,433,165,-225
1,9158506,424,-1364,-497,-1497,-305,-43,433,165,-225
1,9158512,424,-1364,-497,-1497,-305,-43,433,165,-225
1,9158519,424,-1364,-497,-1497,-305,-43,433,165,-225
1,9158528,424,-1367,-494,-1494,-304,-44,433,165,-225
1,9158535,424,-1367,-494,-1494,-304,-44,433,165,-225
1,9158542,424,-1367,-494,-1494,-304,-44,433,165,-225
1,9158549,424,-1364,-501,-1490,-304,-45,433,165,-225
1,9158556,424,-1364,-501,-1490,-304,-45,433,165,-225
1,9158563,424,-1364,-501,-1490,-304,-45,433,165,-225
1,9158571,425,-1365,-498,-1496,-304,-45,444,164,-230
1,9158578,425,-1365,-498,-1496,-304,-45,444,164,-230
1,9158586,424,-1365,-500,-1488,-305,-40,444,164,-230
1,9158592,424,-1365,-500,-1488,-305,-40,444,164,-230
1,9158599,424,-1365,-500,-1488,-305,-40,444,164,-230
1,9158608,423,-1364,-500,-1485,-307,-42,444,164,-230
1,9158616,423,-1364,-500,-1485,-307,-42,444,164,-230
1,9158624,423,-1364,-500,-1485,-307,-42,444,164,-230
1,9158631,427,-1364,-501,-1490,-303,-34,444,164,-230
1,9158637,427,-1364,-501,-1490,-303,-34,444,164,-230
1,9158645,425,-1364,-500,-1495,-303,-35,444,164,-230
1,9158653,425,-1364,-500,-1495,-303,-35,444,164,-230
1,9158661,425,-1364,-500,-1495,-303,-35,444,164,-230
1,9158667,426,-1366,-501,-1492,-298,-43,444,164,-230
1,9158675,426,-1366,-501,-1492,-298,-43,444,164,-230
1,9158682,426,-1366,-501,-1492,-298,-43,444,164,-230
1,9158688,422,-1365,-499,-1495,-299,-44,440,172,-224
1,9158695,422,-1365,-499,-1495,-299,-44,440,172,-224
1,9158703,422,-1365,-499,-1495,-299,-44,440,172,-224
1,9158708,425,-1364,-497,-1493,-301,-42,440,172,-224
1,9158713,425,-1364,-497,-1493,-301,-42,440,172,-224
1,9158718,425,-1364,-497,-1493,-301,-42,440,172,-224
1,9158725,422,-1364,-502,-1500,-309,-42,440,172,-224
1,9158733,422,-1364,-502,-1500,-309,-42,440,172,-224
1,9158746,426,-1365,-493,-1491,-307,-38,440,172,-224
1,9158757,426,-1365,-493,-1491,-307,-38,440,172,-224
1,9158769,425,-1368,-495,-1495,-304,-45,440,172,-224
1,9158777,425,-1368,-495,-1495,-304,-45,440,172,-224
1,9158786,425,-1366,-496,-1497,-301,-37,440,172,-224
1,9158793,425,-1366,-496,-1497,-301,-37,440,172,-224
1,9158806,424,-1363,-497,-1493,-297,-33,440,172,-224
1,9158818,424,-1363,-497,-1493,-297,-33,440,172,-224
1,9158836,422,-1366,-497,-1487,-306,-33,440,172,-224
1,9158848,425,-1365,-499,-1488,-312,-36,440,172,-224
1,9158859,425,-1365,-499,-1488,-312,-36,440,172,-224
1,9158872,425,-1363,-497,-1482,-304,-43,440,172,-224
1,9158885,425,-1363,-497,-1482,-304,-43,440,172,-224
1,9158899,424,-1365,-502,-1488,-305,-37,440,172,-224
1,9158910,426,-1365,-494,-1488,-304,-44,440,172,-224
1,9158924,426,-1365,-494,-1488,-304,-44,440,172,-224
1,9158938,426,-1365,-494,-1488,-304,-44,440,172,-224
1,9158951,425,-1366,-495,-1489,-302,-34,437,165,-225
1,9158964,425,-1366,-495,-1489,-302,-34,437,165,-225
1,9158978,425,-1366,-499,-1490,-305,-42,437,165,-225
1,9158990,426,-1366,-501,-1496,-303,-41,437,165,-225
1,9159004,426,-1366,-501,-1496,-303,-41,437,165,-225
1,9159017,425,-1363,-500,-1495,-304,-37,437,165,-225
1,9159031,424,-1364,-501,-1487,-308,-39,437,165,-225
1,9159046,424,-1364,-501,-1487,-308,-39,437,165,-225
1,9159054,423,-1365,-500,-1487,-305,-35,437,165,-225
1,9159065,423,-1365,-500,-1487,-305,-35,437,165,-225
1,9159073,424,-1365,-497,-1489,-300,-39,428,168,-230
1,9159086,424,-1365,-497,-1489,-300,-39,428,168,-230
1,9159099,430,-1364,-500,-1489,-301,-36,428,168,-230
1,9159107,425,-1363,-506,-1488,-301,-36,428,168,-230
1,9159115,425,-1363,-506,-1488,-301,-36,428,168,-230
1,9159123,425,-1363,-506,-1488,-301,-36,428,168,-230
1,9159132,422,-1365,-501,-1484,-302,-39,428,168,-230
1,9159140,422,-1365,-501,-1484,-302,-39,428,168,-230
1,9159148,425,-1363,-500,-1493,-304,-38,428,168,-230
1,9159156,425,-1363,-500,-1493,-304,-38,428,168,-230
1,9159164,425,-1363,-500,-1493,-304,-38,428,168,-230
1,9159173,424,-1365,-499,-1489,-303,-35,428,168,-230
1,9159181,424,-1365,-499,-1489,-303,-35,428,168,-230
1,9159190,422,-1364,-500,-1489,-302,-39,433,173,-231
1,9159197,422,-1364,-500,-1489,-302,-39,433,173,-231
1,9159206,426,-1365,-494,-1496,-309,-36,433,173,-231
1,9159216,426,-1365,-494,-1496,-309,-36,433,173,-231
1,9159225,426,-1365,-494,-1496,-309,-36,433,173,-231
1,9159233,422,-1366,-500,-1490,-306,-40,433,173,-231
1,9159243,422,-1366,-500,-1490,-306,-40,433,173,-231
1,9159254,427,-1363,-499,-1493,-304,-36,433,173,-231
1,9159267,426,-1366,-503,-1498,-307,-40,433,173,-231
1,9159280,426,-1366,-503,-1498,-307,-40,433,173,-231
1,9159289,428,-1363,-499,-1489,-303,-45,433,173,-231
1,9159302,428,-1363,-499,-1489,-303,-45,433,173,-231
1,9159315,427,-1363,-503,-1493,-305,-40,442,170,-230
1,9159324,427,-1363,-503,-1493,-305,-40,442,170,-230
1,9159336,424,-1364,-498,-1490,-298,-43,442,170,-230
1,9159350,424,-1365,-500,-1489,-302,-41,442,170,-230
1,9159358,424,-1365,-500,-1489,-302,-41,442,170,-230
1,9159366,424,-1365,-499,-1479,-296,-38,442,170,-230
1,9159374,424,-1365,-499,-1479,-296,-38,442,170,-230
1,9159383,424,-1365,-499,-1479,-296,-38,442,170,-230
1,9159393,427,-1366,-498,-1486,-295,-36,442,170,-230
1,9159401,427,-1366,-498,-1486,-295,-36,442,170,-230
1,9159416,421,-1364,-502,-1486,-294,-36,442,170,-230
1,9159426,421,-1364,-502,-1486,-294,-36,442,170,-230
1,9159438,425,-1362,-498,-1489,-305,-45,442,170,-230
1,9159446,425,-1364,-497,-1485,-304,-46,433,163,-227
1,9159456,425,-1364,-497,-1485,-304,-46,433,163,-227
1,9159464,425,-1364,-497,-1485,-304,-46,433,163,-227
1,9159474,422,-1363,-502,-1487,-302,-40,433,163,-227
1,9159487,422,-1367,-497,-1489,-303,-42,433,163,-227
1,9159499,422,-1367,-497,-1489,-303,-42,433,163,-227
1,9159507,425,-1364,-501,-1490,-303,-39,433,163,-227
1,9159520,425,-1364,-501,-1490,-303,-39,433,163,-227
1,9159533,424,-1365,-499,-1490,-303,-37,433,163,-227
1,9159546,423,-1362,-501,-1491,-306,-42,433,163,-227
1,9159558,423,-1362,-501,-1491,-306,-42,433,163,-227
1,9159570,423,-1364,-497,-1494,-306,-39,436,168,-226
1,9159582,423,-1364,-497,-1494,-306,-39,436,168,-226
1,9159596,424,-1365,-500,-1485,-311,-41,436,168,-226
1,9159607,423,-1365,-497,-1487,-309,-46,436,168,-226
1,9159618,423,-1365,-497,-1487,-309,-46,436,168,-226
1,9159632,424,-1364,-500,-1487,-306,-39,436,168,-226
1,9159645,424,-1364,-500,-1487,-306,-39,436,168,-226
1,9159657,426,-1367,-499,-1486,-299,-34,436,168,-226
1,9159670,425,-1366,-500,-1486,-299,-40,436,168,-226
1,9159685,425,-1366,-500,-1486,-299,-40,436,168,-226
1,9159697,426,-1365,-501,-1490,-306,-46,436,172,-222
1,9159708,425,-1365,-499,-1491,-302,-39,436,172,-222
1,9159721,425,-1365,-499,-1491,-302,-39,436,172,-222
1,9159735,423,-1366,-498,-1487,-300,-38,436,172,-222
1,9159746,422,-1364,-494,-1489,-308,-37,436,172,-222
1,9159752,422,-1364,-494,-1489,-308,-37,436,172,-222
1,9159759,422,-1364,-494,-1489,-308,-37,436,172,-222
1,9159768,425,-1366,-500,-1489,-310,-37,436,172,-222
1,9159773,425,-1366,-500,-1489,-310,-37,436,172,-222
1,9159778,425,-1366,-500,-1489,-310,-37,436,172,-222
1,9159783,425,-1366,-500,-1489,-310,-37,436,172,-222
1,9159788,424,-1366,-498,-1491,-300,-36,436,172,-222
1,9159793,424,-1366,-498,-1491,-300,-36,436,172,-222
1,9159798,424,-1366,-498,-1491,-300,-36,436,172,-222
1,9159803,424,-1366,-498,-1491,-300,-36,436,172,-222
1,9159809,425,-1364,-498,-1498,-305,-40,438,166,-222
1,9159814,425,-1364,-498,-1498,-305,-40,438,166,-222
1,9159820,425,-1364,-498,-1498,-305,-40,438,166,-222
1,9159825,425,-1364,-498,-1498,-305,-40,438,166,-222
1,9159831,423,-1363,-496,-1499,-302,-43,438,166,-222
1,9159837,423,-1363,-496,-1499,-302,-43,438,166,-222
1,9159843,423,-1363,-496,-1499,-302,-43,438,166,-222
1,9159848,427,-1365,-495,-1496,-306,-38,438,166,-222
1,9159855,427,-1365,-495,-1496,-306,-38,438,166,-222
1,9159860,427,-1365,-495,-1496,-306,-38,438,166,-222
1,9159865,427,-1365,-495,-1496,-306,-38,438,166,-222
1,9159870,425,-1364,-498,-1494,-311,-40,438,166,-222
1,9159875,425,-1364,-498,-1494,-311,-40,438,166,-222
1,9159881,425,-1364,-498,-1494,-311,-40,438,166,-222
1,9159887,426,-1364,-499,-1491,-303,-45,438,166,-222
1,9159896,426,-1364,-499,-1491,-303,-45,438,166,-222
1,9159903,426,-1364,-499,-1491,-303,-45,438,166,-222
1,9159911,426,-1365,-496,-1487,-303,-42,438,166,-222
1,9159916,426,-1365,-496,-1487,-303,-42,438,166,-222
1,9159925,426,-1365,-496,-1487,-303,-42,438,166,-222
1,9159931,425,-1365,-498,-1491,-302,-40,438,166,-222
1,9159939,425,-1365,-498,-1491,-302,-40,438,166,-222
1,9159945,425,-1365,-498,-1491,-302,-40,438,166,-222
1,9159952,427,-1365,-495,-1495,-311,-38,439,161,-227
1,9159959,427,-1365,-495,-1495,-311,-38,439,161,-227
1,9159966,423,-1363,-496,-1489,-300,-41,439,161,-227
1,9159973,423,-1363,-496,-1489,-300,-41,439,161,-227
1,9159982,423,-1363,-496,-1489,-300,-41,439,161,-227
1,9159989,425,-1362,-499,-1491,-300,-40,439,161,-227
1,9159998,425,-1362,-499,-1491,-300,-40,439,161,-227
1,9160005,425,-1362,-499,-1491,-300,-40,439,161,-227
1,9160010,425,-1362,-499,-1491,-300,-40,439,161,-227
1,9160017,425,-1362,-499,-1491,-300,-40,439,161,-227
1,9160024,425,-1362,-499,-1491,-300,-40,439,161,-227
1,9160032,422,-1363,-498,-1487,-306,-35,439,161,-227
1,9160038,422,-1363,-498,-1487,-306,-35,439,161,-227
1,9160045,422,-1363,-498,-1487,-306,-35,439,161,-227
1,9160052,426,-1367,-500,-1491,-304,-41,439,161,-227
1,9160059,426,-1367,-500,-1491,-304,-41,439,161,-227
1,9160067,426,-1363,-496,-1489,-302,-36,436,168,-238
1,9160075,426,-1363,-496,-1489,-302,-36,436,168,-238
1,9160082,426,-1363,-496,-1489,-302,-36,436,168,-238
1,9160090,423,-1364,-494,-1485,-303,-44,436,168,-238
1,9160097,423,-1364,-494,-1485,-303,-44,436,168,-238
1,9160102,423,-1364,-494,-1485,-303,-44,436,168,-238
1,9160108,423,-1364,-499,-1491,-302,-46,436,168,-238
1,9160113,423,-1364,-499,-1491,-302,-46,436,168,-238
1,9160119,423,-1364,-499,-1491,-302,-46,436,168,-238
1,9160124,423,-1364,-499,-1491,-302,-46,436,168,-238
1,9160129,426,-1363,-502,-1492,-302,-37,436,168,-238
1,9160134,426,-1363,-502,-1492,-302,-37,436,168,-238
1,9160141,426,-1363,-502,-1492,-302,-37,436,168,-238
1,9160147,425,-1363,-498,-1487,-311,-37,436,168,-238
1,9160155,425,-1363,-498,-1487,-311,-37,436,168,-238
1,9160161,425,-1363,-498,-1487,-311,-37,436,168,-238
1,9160169,423,-1363,-500,-1491,-308,-38,436,168,-238
1,9160176,423,-1363,-500,-1491,-308,-38,436,168,-238
1,9160183,423,-1363,-500,-1491,-308,-38,436,168,-238
1,9160190,427,-1365,-497,-1492,-306,-34,429,169,-229
1,9160200,427,-1365,-497,-1492,-306,-34,429,169,-229
1,9160206,422,-1364,-503,-1498,-303,-40,429,169,-229
1,9160212,422,-1364,-503,-1498,-303,-40,429,169,-229
1,9160220,422,-1364,-503,-1498,-303,-40,429,169,-229
1,9160227,425,-1366,-498,-1496,-303,-39,429,169,-229
1,9160233,425,-1366,-498,-1496,-303,-39,429,169,-229
1,9160241,425,-1366,-498,-1496,-303,-39,429,169,-229
1,9160249,423,-1366,-499,-1495,-305,-37,429,169,-229
1,9160257,423,-1366,-499,-1495,-305,-37,429,169,-229
1,9160263,423,-1366,-499,-1495,-305,-37,429,169,-229
1,9160270,425,-1363,-499,-1482,-302,-34,429,169,-229
1,9160279,425,-1363,-499,-1482,-302,-34,429,169,-229
1,9160286,425,-1363,-499,-1482,-302,-34,429,169,-229
1,9160294,424,-1364,-497,-1488,-299,-37,429,169,-229
1,9160301,424,-1364,-497,-1488,-299,-37,429,169,-229
1,9160307,426,-1366,-495,-1492,-306,-48,436,172,-232
1,9160316,426,-1366,-495,-1492,-306,-48,436,172,-232
1,9160323,426,-1366,-495,-1492,-306,-48,436,172,-232
1,9160328,426,-1367,-497,-1483,-303,-43,436,172,-232
1,9160336,426,-1367,-497,-1483,-303,-43,436,172,-232
1,9160345,426,-1367,-497,-1483,-303,-43,436,172,-232
1,9160351,426,-1364,-500,-1489,-307,-38,436,172,-232
1,9160357,426,-1364,-500,-1489,-307,-38,436,172,-232
1,9160366,426,-1364,-500,-1489,-307,-38,436,172,-232
1,9160373,423,-1367,-498,-1491,-306,-33,436,172,-232
1,9160379,423,-1367,-498,-1491,-306,-33,436,172,-232
1,9160384,423,-1367,-498,-1491,-306,-33,436,172,-232
1,9160389,422,-1363,-497,-1491,-307,-37,436,172,-232
1,9160395,422,-1363,-497,-1491,-307,-37,436,172,-232
1,9160402,422,-1363,-497,-1491,-307,-37,436,172,-232
1,9160410,425,-1365,-499,-1496,-308,-39,436,172,-232
1,9160417,425,-1365,-499,-1496,-308,-39,436,172,-232
1,9160423,425,-1365,-499,-1496,-308,-39,436,172,-232
1,9160429,426,-1367,-498,-1494,-302,-45,432,170,-226
1,9160437,426,-1367,-498,-1494,-302,-45,432,170,-226
1,9160444,426,-1367,-498,-1494,-302,-45,432,170,-226
1,9160453,424,-1365,-497,-1489,-301,-38,432,170,-226
1,9160459,424,-1365,-497,-1489,-301,-38,432,170,-226
1,9160466,424,-1366,-495,-1483,-303,-42,432,170,-226
1,9160474,424,-1366,-495,-1483,-303,-42,432,170,-226
1,9160483,424,-1366,-495,-1483,-303,-42,432,170,-226
1,9160491,424,-1366,-495,-1483,-303,-42,432,170,-226
1,9160497,424,-1366,-495,-1483,-303,-42,432,170,-226
1,9160503,424,-1366,-495,-1483,-303,-42,432,170,-226
1,9160510,421,-1364,-501,-1493,-307,-41,432,170,-226
1,9160518,421,-1364,-501,-1493,-307,-41,432,170,-226
1,9160525,421,-1364,-501,-1493,-307,-41,432,170,-226
1,9160534,426,-1364,-500,-1497,-306,-39,432,170,-226
1,9160541,426,-1364,-500,-1497,-306,-39,432,170,-226
1,9160547,425,-1365,-498,-1501,-301,-40,432,170,-226
1,9160555,425,-1365,-498,-1501,-301,-40,432,170,-226
1,9160562,425,-1365,-498,-1501,-301,-40,432,170,-226
1,9160569,427,-1365,-498,-1503,-305,-45,440,170,-228
1,9160576,427,-1365,-498,-1503,-305,-45,440,170,-228
1,9160583,427,-1365,-498,-1503,-305,-45,440,170,-228
1,9160590,424,-1361,-495,-1496,-305,-40,440,170,-228
1,9160597,424,-1361,-495,-1496,-305,-40,440,170,-228
1,9160604,424,-1361,-495,-1496,-305,-40,440,170,-228
1,9160612,427,-1361,-495,-1487,-304,-39,440,170,-228
1,9160620,427,-1361,-495,-1487,-304,-39,440,170,-228
1,9160626,427,-1361,-495,-1487,-304,-39,440,170,-228
1,9160633,426,-1363,-497,-1491,-301,-45,440,170,-228
1,9160639,426,-1363,-497,-1491,-301,-45,440,170,-228
1,9160644,426,-1363,-497,-1491,-301,-45,440,170,-228
1,9160652,424,-1364,-501,-1490,-299,-47,440,170,-228
1,9160659,424,-1364,-501,-1490,-299,-47,440,170,-228
1,9160667,424,-1364,-506,-1499,-303,-37,440,170,-228
1,9160674,424,-1364,-506,-1499,-303,-37,440,170,-228
1,9160681,424,-1364,-506,-1499,-303,-37,440,170,-228
1,9160689,427,-1364,-492,-1499,-302,-43,443,175,-231
1,9160694,427,-1364,-492,-1499,-302,-43,443,175,-231
1,9160702,427,-1364,-492,-1499,-302,-43,443,175,-231
1,9160710,425,-1365,-496,-1497,-305,-48,443,175,-231
1,9160717,425,-1365,-496,-1497,-305,-48,443,175,-231
1,9160724,425,-1365,-496,-1497,-305,-48,443,175,-231
1,9160731,422,-1366,-495,-1495,-306,-50,443,175,-231
1,9160738,422,-1366,-495,-1495,-306,-50,443,175,-231
1,9160744,422,-1366,-495,-1495,-306,-50,443,175,-231
1,9160758,425,-1364,-501,-1491,-303,-40,443,175,-231
1,9160771,427,-1365,-499,-1493,-305,-42,443,175,-231
1,9160779,427,-1365,-499,-1493,-305,-42,443,175,-231
1,9160787,423,-1364,-502,-1490,-301,-46,443,175,-231
1,9160796,423,-1364,-502,-1490,-301,-46,443,175,-231
1,9160805,423,-1364,-502,-1490,-301,-46,443,175,-231
1,9160813,426,-1365,-499,-1496,-303,-46,442,166,-230
1,9160821,426,-1365,-499,-1496,-303,-46,442,166,-230
1,9160830,424,-1364,-495,-1493,-304,-45,442,166,-230
1,9160840,424,-1364,-495,-1493,-304,-45,442,166,-230
1,9160850,423,-1364,-499,-1490,-303,-40,442,166,-230
1,9160859,423,-1364,-499,-1490,-303,-40,442,166,-230
1,9160867,425,-1365,-499,-1493,-304,-43,442,166,-230
1,9160879,425,-1365,-499,-1493,-304,-43,442,166,-230
1,9160892,425,-1365,-500,-1494,-310,-46,442,166,-230
1,9160906,426,-1360,-500,-1495,-302,-40,442,166,-230
1,9160914,426,-1360,-500,-1495,-302,-40,442,166,-230
1,9160925,426,-1360,-500,-1495,-302,-40,442,166,-230
1,9160933,427,-1365,-498,-1493,-307,-39,437,171,-227
1,9160942,427,-1365,-498,-1493,-307,-39,437,171,-227
1,9160950,425,-1365,-495,-1495,-301,-36,437,171,-227
1,9160957,425,-1365,-495,-1495,-301,-36,437,171,-227
1,9160971,424,-1364,-505,-1491,-298,-46,437,171,-227
1,9160982,424,-1364,-505,-1491,-298,-46,437,171,-227
1,9160993,424,-1365,-498,-1489,-302,-37,437,171,-227
1,9161008,425,-1365,-506,-1489,-304,-41,437,171,-227
1,9161020,425,-1365,-506,-1489,-304,-41,437,171,-227
1,9161031,424,-1364,-500,-1494,-302,-39,437,171,-227
1,9161044,424,-1364,-500,-1494,-302,-39,437,171,-227
1,9161059,423,-1363,-499,-1489,-301,-47,437,171,-227
1,9161070,425,-1366,-493,-1487,-300,-46,435,169,-225
1,9161082,425,-1366,-493,-1487,-300,-46,435,169,-225
1,9161095,431,-1366,-499,-1486,-305,-41,435,169,-225
1,9161103,431,-1366,-499,-1486,-305,-41,435,169,-225
1,9161111,427,-1367,-500,-1498,-308,-41,435,169,-225
1,9161119,427,-1367,-500,-1498,-308,-41,435,169,-225
1,9161126,426,-1366,-500,-1493,-304,-42,435,169,-225
1,9161136,426,-1366,-500,-1493,-304,-42,435,169,-225
1,9161145,426,-1366,-500,-1493,-304,-42,435,169,-225
1,9161153,423,-1367,-505,-1495,-302,-45,435,169,-225
1,9161161,423,-1367,-505,-1495,-302,-45,435,169,-225
1,9161169,425,-1366,-504,-1494,-311,-43,435,169,-225
1,9161178,425,-1366,-504,-1494,-311,-43,435,169,-225
1,9161186,425,-1366,-504,-1494,-311,-43,435,169,-225
1,9161193,427,-1367,-494,-1488,-307,-45,437,163,-231
1,9161202,427,-1367,-494,-1488,-307,-45,437,163,-231
1,9161213,423,-1364,-493,-1487,-303,-45,437,163,-231
1,9161228,426,-1363,-502,-1482,-306,-43,437,163,-231
1,9161240,426,-1363,-502,-1482,-306,-43,437,163,-231
1,9161248,423,-1360,-501,-1494,-308,-34,437,163,-231
1,9161257,423,-1360,-501,-1494,-308,-34,437,163,-231
1,9161270,423,-1362,-502,-1488,-304,-36,437,163,-231
1,9161283,423,-1362,-502,-1488,-304,-36,437,163,-231
1,9161296,427,-1366,-501,-1490,-300,-38,437,163,-231
1,9161309,422,-1366,-498,-1492,-302,-36,445,159,-227
1,9161320,422,-1366,-498,-1492,-302,-36,445,159,-227
1,9161333,426,-1365,-499,-1493,-301,-41,445,159,-227
1,9161348,424,-1363,-498,-1482,-299,-45,445,159,-227
1,9161360,424,-1363,-498,-1482,-299,-45,445,159,-227
1,9161368,426,-1364,-501,-1495,-303,-48,445,159,-227
1,9161380,426,-1364,-501,-1495,-303,-48,445,159,-227
1,9161394,423,-1364,-502,-1489,-304,-43,445,159,-227
1,9161407,422,-1365,-495,-1496,-307,-38,445,159,-227
1,9161417,422,-1365,-495,-1496,-307,-38,445,159,-227
1,9161430,425,-1364,-495,-1492,-305,-37,440,170,-228
1,9161442,425,-1364,-495,-1492,-305,-37,440,170,-228
1,9161455,425,-1365,-496,-1492,-310,-52,440,170,-228
1,9161467,427,-1363,-498,-1489,-300,-50,440,170,-228
1,9161478,427,-1363,-498,-1489,-300,-50,440,170,-228
1,9161486,427,-1363,-498,-1489,-300,-50,440,170,-228
1,9161494,423,-1364,-497,-1492,-303,-38,440,170,-228
1,9161502,423,-1364,-497,-1492,-303,-38,440,170,-228
1,9161509,422,-1366,-495,-1492,-306,-32,440,170,-228
1,9161519,422,-1366,-495,-1492,-306,-32,440,170,-228
1,9161531,427,-1366,-496,-1488,-302,-50,440,170,-228
1,9161545,427,-1366,-496,-1488,-302,-50,440,170,-228
1,9161560,420,-1367,-497,-1491,-300,-43,440,170,-228
1,9161569,423,-1368,-496,-1489,-297,-43,433,165,-235
1,9161580,423,-1368,-496,-1489,-297,-43,433,165,-235
1,9161592,423,-1366,-503,-1494,-300,-41,433,165,-235
1,9161604,423,-1366,-503,-1494,-300,-41,433,165,-235
1,9161617,424,-1367,-497,-1494,-299,-41,433,165,-235
1,9161630,422,-1368,-496,-1493,-305,-40,433,165,-235
1,9161641,422,-1368,-496,-1493,-305,-40,433,165,-235
1,9161652,424,-1366,-503,-1495,-309,-47,433,165,-235
1,9161665,424,-1366,-503,-1495,-309,-47,433,165,-235
1,9161677,423,-1366,-500,-1495,-313,-41,433,165,-235
1,9161690,425,-1363,-499,-1484,-308,-41,436,166,-228
1,9161701,425,-1363,-499,-1484,-308,-41,436,166,-228
1,9161713,423,-1365,-498,-1487,-305,-34,436,166,-228
1,9161728,426,-1367,-499,-1495,-311,-36,436,166,-228
1,9161740,426,-1367,-499,-1495,-311,-36,436,166,-228
1,9161752,425,-1363,-498,-1489,-299,-33,436,166,-228
1,9161761,425,-1363,-498,-1489,-299,-33,436,166,-228
1,9161769,423,-1364,-501,-1489,-301,-34,436,166,-228
1,9161775,423,-1364,-501,-1489,-301,-34,436,166,-228
1,9161779,423,-1364,-501,-1489,-301,-34,436,166,-228
1,9161784,423,-1364,-501,-1489,-301,-34,436,166,-228
1,9161789,423,-1364,-504,-1485,-302,-36,436,166,-228
1,9161794,423,-1364,-504,-1485,-302,-36,436,166,-228
1,9161799,423,-1364,-504,-1485,-302,-36,436,166,-228
1,9161806,424,-1365,-499,-1486,-299,-43,437,166,-228
1,9161815,424,-1365,-499,-1486,-299,-43,437,163,-227
1,9161822,424,-1365,-499,-1486,-299,-43,437,163,-227
1,9161829,423,-1364,-500,-1495,-300,-46,437,163,-227
1,9161834,423,-1364,-500,-1495,-300,-46,437,163,-227
1,9161842,423,-1364,-500,-1495,-300,-46,437,163,-227
1,9161850,424,-1360,-504,-1488,-302,-46,437,163,-227
1,9161859,424,-1360,-504,-1488,-302,-46,437,163,-227
1,9161867,424,-1360,-504,-1488,-302,-46,437,163,-227
1,9161874,419,-1364,-493,-1480,-297,-41,437,163,-227
1,9161881,419,-1364,-493,-1480,-297,-41,437,163,-227
1,9161886,419,-1364,-493,-1480,-297,-41,437,163,-227
1,9161892,426,-1365,-500,-1489,-303,-39,437,163,-227
1,9161900,426,-1365,-500,-1489,-303,-39,437,163,-227
1,9161908,423,-1364,-500,-1494,-301,-40,437,163,-227
1,9161915,423,-1364,-500,-1494,-301,-40,437,163,-227
1,9161920,423,-1364,-500,-1494,-301,-40,437,163,-227
1,9161928,426,-1364,-499,-1495,-308,-43,435,159,-229
1,9161937,426,-1364,-499,-1495,-308,-43,435,159,-229
1,9161945,426,-1364,-499,-1495,-308,-43,435,159,-229
1,9161951,425,-1365,-505,-1485,-307,-37,435,159,-229
1,9161957,425,-1365,-505,-1485,-307,-37,435,159,-229
1,9161964,425,-1365,-505,-1485,-307,-37,435,159,-229
1,9161969,421,-1366,-501,-1480,-308,-42,435,159,-229
1,9161974,421,-1366,-501,-1480,-308,-42,435,159,-229
1,9161984,421,-1366,-501,-1480,-308,-42,435,159,-229
1,9161991,423,-1363,-500,-1490,-306,-47,435,159,-229
1,9161998,423,-1363,-500,-1490,-306,-47,435,159,-229
1,9162004,423,-1363,-500,-1490,-306,-47,435,159,-229
1,9162011,426,-1362,-500,-1488,-299,-43,435,159,-229
1,9162018,426,-1362,-500,-1488,-299,-43,435,159,-229
1,9162023,426,-1362,-500,-1488,-299,-43,435,159,-229
1,9162029,426,-1363,-498,-1489,-299,-41,435,159,-229
1,9162034,426,-1363,-498,-1489,-299,-41,435,159,-229
1,9162041,426,-1363,-498,-1489,-299,-41,435,159,-229
1,9162047,424,-1364,-500,-1484,-299,-33,440,162,-232
1,9162054,424,-1364,-500,-1484,-299,-33,440,162,-232
1,9162061,424,-1364,-500,-1484,-299,-33,440,162,-232
1,9162067,424,-1363,-494,-1488,-297,-35,440,162,-232
1,9162076,424,-1363,-494,-1488,-297,-35,440,162,-232
1,9162084,424,-1363,-494,-1488,-297,-35,440,162,-232
1,9162091,425,-1366,-498,-1499,-303,-44,440,162,-232
1,9162098,425,-1366,-498,-1499,-303,-44,440,162,-232
1,9162103,425,-1366,-498,-1499,-303,-44,440,162,-232
1,9162108,425,-1365,-500,-1494,-311,-38,440,162,-232
1,9162115,425,-1365,-500,-1494,-311,-38,440,162,-232
1,9162120,425,-1365,-500,-1494,-311,-38,440,162,-232
1,9162125,425,-1365,-500,-1494,-311,-38,440,162,-232
1,9162130,426,-1366,-500,-1488,-307,-42,440,162,-232
1,9162135,426,-1366,-500,-1488,-307,-42,440,162,-232
1,9162140,426,-1366,-500,-1488,-307,-42,440,162,-232
1,9162148,423,-1366,-504,-1489,-300,-49,440,162,-232
1,9162155,423,-1366,-504,-1489,-300,-49,440,162,-232
1,9162160,423,-1366,-504,-1489,-300,-49,440,162,-232
1,9162165,423,-1366,-504,-1489,-300,-49,440,162,-232
1,9162171,423,-1367,-500,-1488,-302,-49,440,162,-232
1,9162177,423,-1367,-500,-1488,-302,-49,440,162,-232
1,9162182,423,-1367,-500,-1488,-302,-49,440,162,-232
1,9162188,425,-1369,-497,-1490,-307,-37,440,164,-230
1,9162194,425,-1369,-497,-1490,-307,-37,440,164,-230
1,9162200,425,-1369,-497,-1490,-307,-37,440,164,-230
1,9162206,425,-1369,-497,-1490,-307,-37,440,164,-230
1,9162212,425,-1365,-500,-1484,-305,-36,440,164,-230
1,9162217,425,-1365,-500,-1484,-305,-36,440,164,-230
1,9162223,425,-1365,-500,-1484,-305,-36,440,164,-230
1,9162229,423,-1365,-500,-1489,-303,-42,440,164,-230
1,9162234,423,-1365,-500,-1489,-303,-42,440,164,-230
1,9162241,423,-1365,-500,-1489,-303,-42,440,164,-230
1,9162247,425,-1363,-502,-1493,-299,-40,440,164,-230
1,9162252,425,-1363,-502,-1493,-299,-40,440,164,-230
1,9162258,425,-1363,-502,-1493,-299,-40,440,164,-230
1,9162263,425,-1363,-502,-1493,-299,-40,440,164,-230
1,9162269,424,-1365,-501,-1485,-297,-40,440,164,-230
1,9162275,424,-1365,-501,-1485,-297,-40,440,164,-230
1,9162281,424,-1365,-501,-1485,-297,-40,440,164,-230
1,9162287,424,-1363,-501,-1492,-303,-46,440,164,-230
1,9162293,424,-1363,-501,-1492,-303,-46,440,164,-230
1,9162298,424,-1363,-501,-1492,-303,-46,440,164,-230
1,9162304,424,-1363,-501,-1492,-303,-46,440,164,-230
1,9162310,426,-1366,-494,-1488,-303,-39,426,164,-228
1,9162315,426,-1366,-494,-1488,-303,-39,426,164,-228
1,9162321,426,-1366,-494,-1488,-303,-39,426,164,-228
1,9162328,424,-1364,-502,-1493,-299,-42,426,164,-228
1,9162334,424,-1364,-502,-1493,-299,-42,426,164,-228
1,9162340,424,-1364,-502,-1493,-299,-42,426,164,-228
1,9162345,424,-1364,-502,-1493,-299,-42,426,164,-228
1,9162351,424,-1366,-498,-1495,-303,-37,426,164,-228
1,9162356,424,-1366,-498,-1495,-303,-37,426,164,-228
1,9162363,424,-1366,-498,-1495,-303,-37,426,164,-228
1,9162372,425,-1365,-499,-1494,-306,-36,426,164,-228
1,9162378,425,-1365,-499,-1494,-306,-36,426,164,-228
1,9162385,425,-1365,-499,-1494,-306,-36,426,164,-228
1,9162393,427,-1365,-501,-1491,-305,-38,426,164,-228
1,9162399,427,-1365,-501,-1491,-305,-38,426,164,-228
1,9162406,427,-1365,-501,-1491,-305,-38,426,164,-228
1,9162414,424,-1362,-500,-1493,-303,-40,426,164,-228
1,9162422,424,-1362,-500,-1493,-303,-40,426,164,-228
1,9162429,423,-1364,-497,-1494,-306,-39,444,170,-226
1,9162436,423,-1364,-497,-1494,-306,-39,444,170,-226
1,9162443,423,-1364,-497,-1494,-306,-39,444,170,-226
1,9162451,426,-1365,-493,-1499,-300,-36,444,170,-226
1,9162457,426,-1365,-493,-1499,-300,-36,444,170,-226
1,9162466,426,-1365,-493,-1499,-300,-36,444,170,-226
1,9162474,424,-1363,-500,-1501,-302,-43,444,170,-226
1,9162480,424,-1363,-500,-1501,-302,-43,444,170,-226
1,9162488,426,-1364,-496,-1490,-301,-45,444,170,-226
1,9162494,426,-1364,-496,-1490,-301,-45,444,170,-226
1,9162501,426,-1364,-496,-1490,-301,-45,444,170,-226
1,9162508,421,-1363,-501,-1489,-304,-42,444,170,-226
1,9162515,421,-1363,-501,-1489,-304,-42,444,170,-226
1,9162523,421,-1363,-501,-1489,-304,-42,444,170,-226
1,9162529,425,-1364,-506,-1487,-305,-44,444,170,-226
1,9162536,425,-1364,-506,-1487,-305,-44,444,170,-226
1,9162542,425,-1364,-506,-1487,-305,-44,444,170,-226
1,9162548,427,-1363,-499,-1492,-306,-39,442,162,-230
1,9162552,427,-1363,-499,-1492,-306,-39,442,162,-230
1,9162559,427,-1363,-499,-1492,-306,-39,442,162,-230
1,9162566,427,-1363,-499,-1492,-306,-39,442,162,-230
1,9162574,423,-1365,-496,-1493,-304,-43,442,162,-230
1,9162580,423,-1365,-496,-1493,-304,-43,442,162,-230
1,9162588,426,-1367,-494,-1489,-309,-40,442,162,-230
1,9162595,426,-1367,-494,-1489,-309,-40,442,162,-230
1,9162602,426,-1367,-494,-1489,-309,-40,442,162,-230
1,9162608,423,-1365,-501,-1490,-304,-37,442,162,-230
1,9162616,423,-1365,-501,-1490,-304,-37,442,162,-230
1,9162621,423,-1365,-501,-1490,-304,-37,442,162,-230
1,9162631,424,-1366,-499,-1493,-302,-46,442,162,-230
1,9162637,424,-1366,-499,-1493,-302,-46,442,162,-230
1,9162644,424,-1366,-499,-1493,-302,-46,442,162,-230
1,9162651,425,-1367,-496,-1485,-307,-46,442,162,-230
1,9162658,425,-1367,-496,-1485,-307,-46,442,162,-230
1,9162665,425,-1367,-496,-1485,-307,-46,442,162,-230
1,9162672,422,-1364,-500,-1494,-301,-42,442,162,-230
1,9162680,422,-1364,-500,-1494,-301,-42,442,162,-230
1,9162687,425,-1363,-500,-1495,-306,-44,432,166,-232
1,9162695,425,-1363,-500,-1495,-306,-44,432,166,-232
1,9162701,425,-1363,-500,-1495,-306,-44,432,166,-232
1,9162707,424,-1364,-499,-1496,-302,-46,432,166,-232
1,9162714,424,-1364,-499,-1496,-302,-46,432,166,-232
1,9162721,424,-1364,-499,-1496,-302,-46,432,166,-232
1,9162730,426,-1364,-497,-1488,-304,-48,432,166,-232
1,9162736,426,-1364,-497,-1488,-304,-48,432,166,-232
1,9162742,426,-1364,-497,-1488,-304,-48,432,166,-232
1,9162748,422,-1364,-499,-1492,-309,-41,432,166,-232
1,9162756,422,-1364,-499,-1492,-309,-41,432,166,-232
1,9162763,422,-1364,-499,-1492,-309,-41,432,166,-232
1,9162774,424,-1366,-503,-1489,-303,-34,432,166,-232
1,9162781,424,-1366,-503,-1489,-303,-34,432,166,-232
1,9162790,422,-1367,-502,-1489,-304,-40,432,166,-232
1,9162799,422,-1367,-502,-1489,-304,-40,432,166,-232
1,9162811,425,-1365,-498,-1489,-307,-41,437,163,-233
1,9162823,425,-1365,-498,-1489,-307,-41,437,163,-233
1,9162834,424,-1364,-500,-1493,-307,-39,437,163,-233
1,9162848,423,-1365,-501,-1490,-305,-41,437,163,-233
1,9162862,423,-1365,-501,-1490,-305,-41,437,163,-233
1,9162874,423,-1366,-502,-1496,-296,-39,437,163,-233
1,9162887,423,-1366,-502,-1496,-296,-39,437,163,-233
1,9162901,422,-1367,-501,-1498,-305,-41,437,163,-233
1,9162913,425,-1366,-503,-1490,-305,-40,437,163,-233
1,9162925,425,-1366,-503,-1490,-305,-40,437,163,-233
1,9162938,423,-1365,-501,-1485,-306,-41,437,169,-233
1,9162951,425,-1365,-499,-1493,-305,-45,437,169,-233
1,9162964,425,-1365,-499,-1493,-305,-45,437,169,-233
1,9162976,423,-1365,-501,-1492,-308,-37,437,169,-233
1,9162988,424,-1363,-502,-1497,-307,-47,437,169,-233
1,9163001,424,-1363,-502,-1497,-307,-47,437,169,-233
1,9163015,425,-1363,-499,-1492,-298,-47,437,169,-233
1,9163025,425,-1363,-499,-1492,-298,-47,437,169,-233
1,9163039,424,-1365,-500,-1488,-294,-40,437,169,-233
1,9163052,426,-1365,-497,-1496,-304,-41,437,169,-223
1,9163063,426,-1365,-497,-1496,-304,-41,437,169,-223
1,9163077,427,-1365,-495,-1497,-309,-43,437,169,-223
1,9163090,426,-1365,-501,-1496,-301,-46,437,169,-223
1,9163101,426,-1365,-501,-1496,-301,-46,437,169,-223
1,9163110,424,-1363,-505,-1494,-299,-47,437,169,-223
1,9163118,424,-1363,-505,-1494,-299,-47,437,169,-223
1,9163126,424,-1363,-505,-1494,-299,-47,437,169,-223
1,9163134,427,-1362,-504,-1496,-300,-47,437,169,-223
1,9163143,427,-1362,-504,-1496,-300,-47,437,169,-223
1,9163151,424,-1365,-497,-1487,-306,-47,437,169,-223
1,9163159,424,-1365,-497,-1487,-306,-47,437,169,-223
1,9163167,426,-1365,-496,-1493,-310,-41,437,169,-223
1,9163175,426,-1365,-496,-1493,-310,-41,437,169,-223
1,9163185,426,-1365,-496,-1493,-310,-41,437,169,-223
1,9163193,427,-1364,-500,-1490,-308,-46,436,160,-222
1,9163200,427,-1364,-500,-1490,-308,-46,436,160,-222
1,9163209,423,-1365,-502,-1491,-305,-40,436,160,-222
1,9163217,423,-1365,-502,-1491,-305,-40,436,160,-222
1,9163227,423,-1365,-502,-1491,-305,-40,436,160,-222
1,9163237,425,-1367,-505,-1488,-294,-42,436,160,-222
1,9163246,425,-1367,-505,-1488,-294,-42,436,160,-222
1,9163258,425,-1364,-500,-1489,-301,-42,436,160,-222
1,9163272,425,-1364,-502,-1490,-301,-42,436,160,-222
1,9163285,425,-1364,-502,-1490,-301,-42,436,160,-222
1,9163298,424,-1363,-503,-1491,-298,-41,436,160,-222
1,9163312,426,-1365,-494,-1485,-298,-42,439,165,-229
1,9163325,426,-1365,-494,-1485,-298,-42,439,165,-229
1,9163336,425,-1365,-496,-1488,-300,-42,439,165,-229
1,9163350,424,-1364,-499,-1486,-301,-41,439,165,-229
1,9163363,424,-1364,-499,-1486,-301,-41,439,165,-229
1,9163376,424,-1365,-500,-1484,-300,-42,439,165,-229
1,9163388,424,-1367,-501,-1487,-299,-40,439,165,-229
1,9163402,424,-1367,-501,-1487,-299,-40,439,165,-229
1,9163413,423,-1368,-501,-1490,-303,-40,439,165,-229
1,9163426,423,-1368,-501,-1490,-303,-40,439,165,-229
1,9163440,422,-1367,-497,-1492,-308,-39,437,169,-223
1,9163451,426,-1363,-501,-1491,-304,-39,437,169,-223
1,9163463,426,-1363,-501,-1491,-304,-39,437,169,-223
1,9163476,425,-1365,-498,-1484,-300,-42,437,169,-223
1,9163490,423,-1363,-496,-1483,-307,-44,437,169,-223
1,9163502,423,-1363,-496,-1483,-307,-44,437,169,-223
1,9163512,424,-1367,-500,-1482,-303,-37,437,169,-223
1,9163524,424,-1367,-500,-1482,-303,-37,437,169,-223
1,9163538,422,-1362,-498,-1493,-306,-45,437,169,-223
1,9163546,422,-1362,-498,-1493,-306,-45,437,169,-223
1,9163558,426,-1363,-498,-1496,-302,-40,439,173,-229
1,9163573,425,-1364,-493,-1494,-306,-42,439,173,-229
1,9163587,425,-1364,-493,-1494,-306,-42,439,173,-229
1,9163595,426,-1365,-499,-1492,-304,-41,439,173,-229
1,9163606,426,-1365,-499,-1492,-304,-41,439,173,-229
1,9163620,423,-1364,-503,-1485,-298,-37,439,173,-229
1,9163631,423,-1368,-501,-1493,-302,-34,439,173,-229
1,9163644,423,-1368,-501,-1493,-302,-34,439,173,-229
1,9163658,422,-1364,-501,-1487,-301,-40,439,173,-229
1,9163671,424,-1361,-501,-1486,-305,-40,436,168,-224
1,9163684,424,-1361,-501,-1486,-305,-40,436,168,-224
1,9163695,424,-1363,-497,-1492,-304,-37,436,168,-224
1,9163707,427,-1363,-497,-1492,-303,-38,436,168,-224
1,9163716,427,-1363,-497,-1492,-303,-38,436,168,-224
1,9163724,427,-1363,-497,-1492,-303,-38,436,168,-224
1,9163732,422,-1366,-502,-1489,-303,-40,436,168,-224
1,9163741,422,-1366,-502,-1489,-303,-40,436,168,-224
1,9163751,423,-1368,-505,-1491,-302,-41,436,168,-224
1,9163762,423,-1368,-505,-1491,-302,-41,436,168,-224
1,9163772,423,-1364,-496,-1492,-302,-36,436,168,-224
1,9163778,423,-1364,-496,-1492,-302,-36,436,168,-224
1,9163783,423,-1364,-496,-1492,-302,-36,436,168,-224
1,9163787,423,-1364,-496,-1492,-302,-36,436,168,-224
1,9163792,423,-1364,-496,-1492,-302,-36,436,168,-224
1,9163798,423,-1364,-496,-1492,-302,-36,436,168,-224
1,9163803,423,-1364,-496,-1492,-302,-36,436,168,-224
1,9163809,423,-1365,-497,-1487,-314,-38,436,158,-228
1,9163815,423,-1365,-497,-1487,-314,-38,436,158,-228
1,9163821,423,-1365,-497,-1487,-314,-38,436,158,-228
1,9163827,423,-1365,-497,-1487,-314,-38,436,158,-228
1,9163833,425,-1366,-498,-1489,-311,-41,436,158,-228
1,9163838,425,-1366,-498,-1489,-311,-41,436,158,-228
1,9163845,425,-1366,-498,-1489,-311,-41,436,158,-228
1,9163851,424,-1364,-503,-1488,-306,-37,436,158,-228
1,9163857,424,-1364,-503,-1488,-306,-37,436,158,-228
1,9163864,424,-1364,-503,-1488,-306,-37,436,158,-228
1,9163869,426,-1366,-507,-1492,-303,-39,436,158,-228
1,9163874,426,-1366,-507,-1492,-303,-39,436,158,-228
1,9163880,426,-1366,-507,-1492,-303,-39,436,158,-228
1,9163885,426,-1366,-507,-1492,-303,-39,436,158,-228
1,9163891,424,-1364,-505,-1489,-304,-40,436,158,-228
1,9163897,424,-1364,-505,-1489,-304,-40,436,158,-228
1,9163902,424,-1364,-505,-1489,-304,-40,436,158,-228
1,9163909,423,-1365,-496,-1495,-304,-46,436,158,-228
1,9163915,423,-1365,-496,-1495,-304,-46,436,158,-228
1,9163921,423,-1365,-496,-1495,-304,-46,436,158,-228
1,9163927,424,-1364,-499,-1493,-305,-47,436,158,-228
1,9163932,424,-1364,-499,-1493,-305,-47,436,168,-224
1,9163938,424,-1364,-499,-1493,-305,-47,436,168,-224
1,9163942,424,-1364,-499,-1493,-305,-47,436,168,-224
1,9163949,424,-1366,-503,-1491,-305,-44,436,168,-224
1,9163956,424,-1366,-503,-1491,-305,-44,436,168,-224
1,9163962,424,-1366,-503,-1491,-305,-44,436,168,-224
1,9163969,424,-1365,-501,-1486,-305,-43,436,168,-224
1,9163976,424,-1365,-501,-1486,-305,-43,436,168,-224
1,9163982,424,-1365,-501,-1486,-305,-43,436,168,-224
1,9163991,425,-1365,-498,-1490,-305,-33,436,168,-224
1,9163998,425,-1365,-498,-1490,-305,-33,436,168,-224
1,9164004,425,-1365,-498,-1490,-305,-33,436,168,-224
1,9164011,422,-1365,-498,-1487,-308,-38,436,168,-224
1,9164019,422,-1365,-498,-1487,-308,-38,436,168,-224
1,9164026,422,-1365,-498,-1487,-308,-38,436,168,-224
1,9164033,424,-1366,-500,-1486,-310,-38,436,168,-224
1,9164041,424,-1366,-500,-1486,-310,-38,436,168,-224
1,9164048,424,-1364,-499,-1491,-302,-39,439,171,-219
1,9164055,424,-1364,-499,-1491,-302,-39,439,171,-219
1,9164062,424,-1364,-499,-1491,-302,-39,439,171,-219
1,9164069,423,-1366,-497,-1493,-304,-46,439,171,-219
1,9164076,423,-1366,-497,-1493,-304,-46,439,171,-219
1,9164083,423,-1366,-497,-1493,-304,-46,439,171,-219
1,9164090,426,-1364,-501,-1487,-303,-41,439,171,-219
1,9164097,426,-1364,-501,-1487,-303,-41,439,171,-219
1,9164102,426,-1364,-501,-1487,-303,-41,439,171,-219
1,9164107,423,-1365,-504,-1488,-306,-42,439,171,-219
1,9164113,423,-1365,-504,-1488,-306,-42,439,171,-219
1,9164119,423,-1365,-504,-1488,-306,-42,439,171,-219
1,9164123,423,-1365,-504,-1488,-306,-42,439,171,-219
1,9164129,422,-1361,-504,-1492,-304,-38,439,171,-219
1,9164137,422,-1361,-504,-1492,-304,-38,439,171,-219
1,9164144,422,-1361,-504,-1492,-304,-38,439,171,-219
1,9164151,424,-1362,-504,-1492,-307,-35,439,171,-219
1,9164158,424,-1362,-504,-1492,-307,-35,439,171,-219
1,9164164,424,-1362,-504,-1492,-307,-35,439,171,-219
1,9164171,425,-1365,-500,-1488,-305,-37,439,159,-227
1,9164179,425,-1365,-500,-1488,-305,-37,439,159,-227
1,9164186,425,-1365,-500,-1488,-305,-37,439,159,-227
1,9164194,428,-1365,-497,-1495,-308,-41,439,159,-227
1,9164201,428,-1365,-497,-1495,-308,-41,439,159,-227
1,9164208,423,-1366,-496,-1489,-303,-40,439,159,-227
1,9164215,423,-1366,-496,-1489,-303,-40,439,159,-227
1,9164221,423,-1366,-496,-1489,-303,-40,439,159,-227
1,9164228,424,-1365,-499,-1487,-299,-42,439,159,-227
1,9164233,424,-1365,-499,-1487,-299,-42,439,159,-227
1,9164241,424,-1365,-499,-1487,-299,-42,439,159,-227
1,9164248,424,-1365,-499,-1487,-299,-42,439,159,-227
1,9164255,427,-1364,-503,-1492,-305,-49,439,159,-227
1,9164263,427,-1364,-503,-1492,-305,-49,439,159,-227
1,9164272,423,-1364,-502,-1487,-303,-41,439,159,-227
1,9164278,423,-1364,-502,-1487,-303,-41,439,159,-227
1,9164285,423,-1364,-502,-1487,-303,-41,439,159,-227
1,9164292,426,-1365,-504,-1484,-304,-39,439,159,-227
1,9164297,426,-1365,-504,-1484,-304,-39,439,159,-227
1,9164303,426,-1365,-504,-1484,-304,-39,439,159,-227
1,9164308,424,-1362,-498,-1483,-303,-38,440,166,-226
1,9164313,424,-1362,-498,-1483,-303,-38,440,166,-226
1,9164320,424,-1362,-498,-1483,-303,-38,440,166,-226
1,9164328,426,-1363,-499,-1492,-302,-42,440,166,-226
1,9164336,426,-1363,-499,-1492,-302,-42,440,166,-226
1,9164342,426,-1363,-499,-1492,-302,-42,440,166,-226
1,9164348,424,-1364,-505,-1487,-299,-45,440,166,-226
1,9164355,424,-1364,-505,-1487,-299,-45,440,166,-226
1,9164363,424,-1364,-505,-1487,-299,-45,440,166,-226
1,9164370,424,-1365,-497,-1491,-307,-41,440,166,-226
1,9164378,424,-1365,-497,-1491,-307,-41,440,166,-226
1,9164384,424,-1365,-497,-1491,-307,-41,440,166,-226
1,9164392,425,-1365,-497,-1494,-301,-41,440,166,-226
1,9164397,425,-1365,-497,-1494,-301,-41,440,166,-226
1,9164405,425,-1365,-497,-1494,-301,-41,440,166,-226
1,9164412,426,-1362,-497,-1493,-299,-39,440,166,-226
1,9164420,426,-1362,-497,-1493,-299,-39,440,166,-226
1,9164426,426,-1362,-497,-1493,-299,-39,440,166,-226
1,9164432,423,-1364,-500,-1489,-303,-34,436,168,-230
1,9164440,423,-1364,-500,-1489,-303,-34,436,168,-230
1,9164447,423,-1365,-496,-1493,-298,-38,436,168,-230
1,9164455,423,-1365,-496,-1493,-298,-38,436,168,-230
1,9164462,423,-1365,-496,-1493,-298,-38,436,168,-230
1,9164469,424,-1364,-503,-1484,-298,-43,436,168,-230
1,9164476,424,-1364,-503,-1484,-298,-43,436,168,-230
1,9164483,424,-1364,-503,-1484,-298,-43,436,168,-230
1,9164490,424,-1362,-495,-1480,-305,-38,436,168,-230
1,9164496,424,-1362,-495,-1480,-305,-38,436,168,-230
1,9164504,424,-1362,-495,-1480,-305,-38,436,168,-230
1,9164512,423,-1363,-504,-1488,-305,-42,436,168,-230
1,9164518,423,-1363,-504,-1488,-305,-42,436,168,-230
1,9164526,423,-1363,-504,-1488,-305,-42,436,168,-230
1,9164533,428,-1361,-500,-1489,-304,-42,436,168,-230
1,9164541,428,-1361,-500,-1489,-304,-42,436,168,-230
1,9164550,423,-1366,-498,-1486,-306,-51,439,169,-219
1,9164556,423,-1366,-498,-1486,-306,-51,439,169,-219
1,9164562,423,-1366,-498,-1486,-306,-51,439,169,-219
1,9164569,426,-1364,-499,-1497,-301,-41,439,169,-219
1,9164577,426,-1364,-499,-1497,-301,-41,439,169,-219
1,9164584,426,-1364,-499,-1497,-301,-41,439,169,-219
1,9164592,425,-1365,-503,-1493,-301,-40,439,169,-219
1,9164599,425,-1365,-503,-1493,-301,-40,439,169,-219
1,9164605,425,-1365,-503,-1493,-301,-40,439,169,-219
1,9164612,425,-1365,-494,-1500,-304,-36,439,169,-219
1,9164619,425,-1365,-494,-1500,-304,-36,439,169,-219
1,9164627,425,-1365,-494,-1500,-304,-36,439,169,-219
1,9164634,423,-1363,-499,-1491,-306,-37,439,169,-219
1,9164640,423,-1363,-499,-1491,-306,-37,439,169,-219
1,9164647,423,-1363,-499,-1491,-306,-37,439,169,-219
1,9164656,424,-1364,-504,-1488,-303,-30,439,169,-219
1,9164662,424,-1364,-504,-1488,-303,-30,439,169,-219
1,9164668,422,-1363,-499,-1484,-298,-32,439,161,-227
1,9164676,422,-1363,-499,-1484,-298,-32,439,161,-227
1,9164684,422,-1363,-499,-1484,-298,-32,439,161,-227
1,9164690,424,-1366,-496,-1490,-303,-36,439,161,-227
1,9164696,424,-1366,-496,-1490,-303,-36,439,161,-227
1,9164704,424,-1366,-496,-1490,-303,-36,439,161,-227
1,9164710,425,-1364,-500,-1490,-299,-39,439,161,-227
1,9164716,425,-1364,-500,-1490,-299,-39,439,161,-227
1,9164724,425,-1364,-500,-1490,-299,-39,439,161,-227
1,9164731,421,-1362,-499,-1489,-306,-44,439,161,-227
1,9164740,421,-1362,-499,-1489,-306,-44,439,161,-227
1,9164748,421,-1362,-499,-1489,-306,-44,439,161,-227
1,9164755,421,-1362,-499,-1489,-306,-44,439,161,-227
1,9164762,421,-1362,-499,-1489,-306,-44,439,161,-227
1,9164770,424,-1365,-497,-1493,-303,-41,439,161,-227
1,9164775,424,-1365,-497,-1493,-303,-41,439,161,-227
1,9164782,424,-1365,-497,-1493,-303,-41,439,161,-227
1,9164790,425,-1366,-502,-1485,-299,-35,439,161,-227
1,9164798,425,-1366,-502,-1485,-299,-35,439,161,-227
1,9164807,425,-1366,-502,-1485,-299,-35,439,161,-227
1,9164815,425,-1363,-501,-1487,-301,-39,438,166,-230
1,9164823,425,-1363,-501,-1487,-301,-39,438,166,-230
1,9164832,423,-1362,-498,-1493,-305,-36,438,166,-230
1,9164841,423,-1362,-498,-1493,-305,-36,438,166,-230
1,9164851,424,-1365,-499,-1489,-307,-40,438,166,-230
1,9164860,424,-1365,-499,-1489,-307,-40,438,166,-230
1,9164871,422,-1367,-498,-1483,-305,-56,438,166,-230
1,9164880,422,-1367,-498,-1483,-305,-56,438,166,-230
1,9164890,424,-1365,-500,-1494,-307,-43,438,166,-230
1,9164901,424,-1365,-500,-1494,-307,-43,438,166,-230
1,9164913,424,-1365,-503,-1488,-300,-43,438,166,-230
1,9164928,426,-1366,-501,-1486,-300,-43,444,166,-230
1,9164942,426,-1366,-501,-1486,-300,-43,444,174,-226
1,9164952,425,-1366,-496,-1492,-307,-45,444,174,-226
1,9164964,425,-1366,-496,-1492,-307,-45,444,174,-226
1,9164979,427,-1366,-503,-1496,-302,-44,444,174,-226
1,9164992,426,-1364,-500,-1493,-301,-45,444,174,-226
1,9165002,426,-1364,-500,-1493,-301,-45,444,174,-226
1,9165017,424,-1363,-501,-1493,-302,-43,444,174,-226
1,9165030,426,-1366,-499,-1490,-309,-42,444,174,-226
1,9165043,426,-1366,-499,-1490,-309,-42,444,174,-226
1,9165053,423,-1362,-496,-1491,-302,-47,435,165,-231
1,9165064,423,-1362,-496,-1491,-302,-47,435,165,-231
1,9165074,426,-1364,-498,-1490,-299,-41,435,165,-231
1,9165084,426,-1364,-498,-1490,-299,-41,435,165,-231
1,9165097,423,-1365,-499,-1491,-307,-41,435,165,-231
1,9165106,423,-1365,-499,-1491,-307,-41,435,165,-231
1,9165114,424,-1366,-501,-1495,-302,-39,435,165,-231
1,9165122,424,-1366,-501,-1495,-302,-39,435,165,-231
1,9165132,423,-1365,-500,-1487,-307,-41,435,165,-231
1,9165139,423,-1365,-500,-1487,-307,-41,435,165,-231
1,9165148,425,-1367,-504,-1492,-309,-40,435,165,-231
1,9165156,425,-1367,-504,-1492,-309,-40,435,165,-231
1,9165164,425,-1367,-504,-1492,-309,-40,435,165,-231
1,9165172,422,-1364,-502,-1502,-307,-44,434,162,-234
1,9165180,422,-1364,-502,-1502,-307,-44,434,162,-234
1,9165189,424,-1364,-498,-1497,-305,-38,434,162,-234
1,9165197,424,-1364,-498,-1497,-305,-38,434,162,-234
1,9165205,424,-1364,-498,-1497,-305,-38,434,162,-234
1,9165217,425,-1361,-501,-1494,-303,-33,434,162,-234
1,9165230,425,-1363,-496,-1497,-304,-39,434,162,-234
1,9165242,425,-1363,-496,-1497,-304,-39,434,162,-234
1,9165254,425,-1367,-501,-1492,-304,-35,434,162,-234
1,9165267,425,-1367,-501,-1492,-304,-35,434,162,-234
1,9165280,424,-1366,-502,-1491,-312,-37,434,162,-234
1,9165293,421,-1363,-502,-1492,-309,-42,437,163,-223
1,9165307,421,-1363,-502,-1492,-309,-42,437,163,-223
1,9165320,422,-1363,-500,-1494,-304,-41,437,163,-223
1,9165332,424,-1365,-497,-1491,-309,-35,437,163,-223
1,9165343,424,-1365,-497,-1491,-309,-35,437,163,-223
1,9165357,427,-1363,-500,-1488,-305,-40,437,163,-223
1,9165369,424,-1362,-501,-1491,-299,-46,437,163,-223
1,9165383,424,-1362,-501,-1491,-299,-46,437,163,-223
1,9165394,426,-1366,-500,-1483,-306,-41,437,163,-223
1,9165403,426,-1366,-500,-1483,-306,-41,437,163,-223
1,9165411,423,-1366,-501,-1492,-305,-39,437,163,-223
1,9165419,423,-1366,-501,-1492,-305,-39,437,163,-223
1,9165427,423,-1366,-501,-1492,-305,-39,437,163,-223
1,9165436,425,-1364,-492,-1490,-298,-38,435,167,-223
1,9165448,420,-1364,-495,-1493,-301,-41,435,167,-223
1,9165460,420,-1364,-495,-1493,-301,-41,435,167,-223
1,9165472,423,-1365,-498,-1490,-302,-45,435,167,-223
1,9165488,423,-1365,-498,-1490,-302,-45,435,167,-223
1,9165501,424,-1365,-504,-1490,-304,-39,435,167,-223
1,9165515,426,-1368,-504,-1491,-301,-37,435,167,-223
1,9165530,424,-1366,-504,-1493,-295,-41,435,167,-223
1,9165539,424,-1366,-504,-1493,-295,-41,435,167,-223
1,9165551,426,-1365,-493,-1487,-301,-38,432,162,-230
1,9165563,426,-1365,-493,-1487,-301,-38,432,162,-230
1,9165576,422,-1365,-498,-1486,-304,-34,432,162,-230
1,9165588,422,-1363,-498,-1481,-300,-38,432,162,-230
1,9165602,422,-1363,-498,-1481,-300,-38,432,162,-230
1,9165615,426,-1364,-496,-1493,-306,-39,432,162,-230
1,9165628,426,-1364,-496,-1486,-299,-36,432,162,-230
1,9165641,426,-1364,-496,-1486,-299,-36,432,162,-230
1,9165655,424,-1364,-496,-1488,-300,-42,432,162,-230
1,9165666,424,-1364,-496,-1488,-300,-42,432,162,-230
1,9165679,426,-1366,-497,-1497,-312,-35,437,163,-231
1,9165691,423,-1364,-497,-1490,-298,-31,437,163,-231
1,9165705,423,-1364,-497,-1490,-298,-31,437,163,-231
1,9165717,426,-1363,-502,-1488,-311,-40,437,163,-231
1,9165730,423,-1364,-500,-1495,-309,-37,437,163,-231
1,9165744,423,-1364,-500,-1495,-309,-37,437,163,-231
1,9165756,426,-1363,-505,-1487,-306,-34,437,163,-231
1,9165769,425,-1366,-502,-1495,-305,-40,437,163,-231
1,9165777,425,-1366,-502,-1495,-305,-40,437,163,-231
1,9165786,425,-1366,-502,-1495,-305,-40,437,163,-231
1,9165791,425,-1365,-501,-1483,-306,-44,441,165,-233
1,9165796,425,-1365,-501,-1483,-306,-44,441,165,-233
1,9165804,425,-1365,-501,-1483,-306,-44,441,165,-233
1,9165808,422,-1365,-499,-1487,-307,-37,441,165,-233
1,9165814,422,-1365,-499,-1487,-307,-37,441,165,-233
1,9165821,422,-1365,-499,-1487,-307,-37,441,165,-233
1,9165829,426,-1365,-498,-1492,-301,-38,441,165,-233
1,9165835,426,-1365,-498,-1492,-301,-38,441,165,-233
1,9165841,426,-1365,-498,-1492,-301,-38,441,165,-233
1,9165849,425,-1365,-501,-1482,-302,-44,441,165,-233
1,9165857,425,-1365,-501,-1482,-302,-44,441,165,-233
1,9165864,425,-1365,-501,-1482,-302,-44,441,165,-233
1,9165873,424,-1364,-503,-1488,-297,-44,441,165,-233
1,9165881,424,-1364,-503,-1488,-297,-44,441,165,-233
1,9165887,424,-1364,-503,-1488,-297,-44,441,165,-233
1,9165894,425,-1364,-503,-1496,-301,-39,441,165,-233
1,9165901,425,-1364,-503,-1496,-301,-39,441,165,-233
1,9165908,425,-1364,-504,-1495,-301,-37,441,165,-233
1,9165916,425,-1364,-504,-1495,-301,-37,441,165,-233
1,9165924,425,-1364,-504,-1495,-301,-37,441,165,-233
1,9165931,423,-1365,-496,-1490,-313,-45,441,165,-231
1,9165938,423,-1365,-496,-1490,-313,-45,441,165,-231
1,9165944,423,-1365,-496,-1490,-313,-45,441,165,-231
1,9165952,422,-1367,-496,-1490,-305,-45,441,165,-231
1,9165957,422,-1367,-496,-1490,-305,-45,441,165,-231
1,9165963,422,-1367,-496,-1490,-305,-45,441,165,-231
1,9165969,423,-1367,-503,-1491,-303,-44,441,165,-231
1,9165976,423,-1367,-503,-1491,-303,-44,441,165,-231
1,9165982,423,-1367,-503,-1491,-303,-44,441,165,-231
1,9165989,426,-1365,-498,-1496,-305,-46,441,165,-231
1,9165998,426,-1365,-498,-1496,-305,-46,441,165,-231
1,9166005,426,-1365,-498,-1496,-305,-46,441,165,-231
1,9166013,425,-1366,-495,-1494,-304,-38,441,165,-231
1,9166020,425,-1366,-495,-1494,-304,-38,441,165,-231
1,9166026,425,-1366,-495,-1494,-304,-38,441,165,-231
1,9166030,427,-1363,-498,-1492,-303,-40,441,165,-231
1,9166038,427,-1363,-498,-1492,-303,-40,441,165,-231
1,9166047,427,-1363,-498,-1492,-303,-40,441,165,-231
1,9166054,422,-1366,-498,-1489,-306,-41,440,170,-226
1,9166062,422,-1366,-498,-1489,-306,-41,440,170,-226
1,9166070,425,-1366,-501,-1488,-312,-45,440,170,-226
1,9166076,425,-1366,-501,-1488,-312,-45,440,170,-226
1,9166083,425,-1366,-501,-1488,-312,-45,440,170,-226
1,9166091,426,-1365,-501,-1489,-307,-39,440,170,-226
1,9166098,426,-1365,-501,-1489,-307,-39,440,170,-226
1,9166103,426,-1365,-501,-1489,-307,-39,440,170,-226
1,9166108,422,-1362,-504,-1488,-303,-45,440,170,-226
1,9166113,422,-1362,-504,-1488,-303,-45,440,170,-226
1,9166118,422,-1362,-504,-1488,-303,-45,440,170,-226
1,9166125,422,-1362,-504,-1488,-303,-45,440,170,-226
1,9166130,422,-1363,-501,-1490,-303,-38,440,170,-226
1,9166135,422,-1363,-501,-1490,-303,-38,440,170,-226
1,9166142,422,-1363,-501,-1490,-303,-38,440,170,-226
1,9166149,426,-1367,-499,-1488,-300,-39,440,170,-226
1,9166156,426,-1367,-499,-1488,-300,-39,440,170,-226
1,9166164,426,-1367,-499,-1488,-300,-39,440,170,-226
1,9166172,423,-1364,-495,-1493,-300,-39,439,157,-223
1,9166180,423,-1364,-495,-1493,-300,-39,439,157,-223
1,9166187,423,-1364,-495,-1493,-300,-39,439,157,-223
1,9166195,427,-1365,-497,-1495,-301,-38,439,157,-223
1,9166201,427,-1365,-497,-1495,-301,-38,439,157,-223
1,9166208,427,-1365,-497,-1495,-301,-38,439,157,-223
1,9166216,423,-1366,-497,-1489,-300,-45,439,157,-223
1,9166223,423,-1366,-497,-1489,-300,-45,439,157,-223
1,9166230,423,-1364,-497,-1481,-297,-40,439,157,-223
1,9166236,423,-1364,-497,-1481,-297,-40,439,157,-223
1,9166241,423,-1364,-497,-1481,-297,-40,439,157,-223
1,9166249,423,-1364,-502,-1490,-300,-38,439,157,-223
1,9166257,423,-1364,-502,-1490,-300,-38,439,157,-223
1,9166264,423,-1364,-502,-1490,-300,-38,439,157,-223
1,9166272,426,-1367,-499,-1493,-301,-42,439,157,-223
1,9166278,426,-1367,-499,-1493,-301,-42,439,157,-223
1,9166285,426,-1367,-499,-1493,-301,-42,439,157,-223
1,9166292,427,-1365,-500,-1491,-302,-40,436,162,-226
1,9166301,427,-1365,-500,-1491,-302,-40,436,162,-226
1,9166307,427,-1365,-500,-1491,-302,-40,436,162,-226
1,9166313,423,-1366,-498,-1493,-303,-41,436,162,-226
1,9166320,423,-1366,-498,-1493,-303,-41,436,162,-226
1,9166327,423,-1366,-498,-1493,-303,-41,436,162,-226
1,9166336,425,-1365,-496,-1493,-303,-43,436,162,-226
1,9166343,425,-1365,-496,-1493,-303,-43,436,162,-226
1,9166351,426,-1363,-497,-1487,-302,-46,436,162,-226
1,9166357,426,-1363,-497,-1487,-302,-46,436,162,-226
1,9166364,426,-1363,-497,-1487,-302,-46,436,162,-226
1,9166370,425,-1365,-499,-1490,-303,-43,436,162,-226
1,9166377,425,-1365,-499,-1490,-303,-43,436,162,-226
1,9166386,425,-1365,-499,-1490,-303,-43,436,162,-226
1,9166392,425,-1364,-504,-1486,-304,-38,436,162,-226
1,9166399,425,-1364,-504,-1486,-304,-38,436,162,-226
1,9166406,425,-1364,-504,-1486,-304,-38,436,162,-226
1,9166413,423,-1367,-497,-1492,-304,-43,436,162,-226
1,9166420,423,-1367,-497,-1492,-304,-43,436,162,-226
1,9166428,423,-1367,-497,-1492,-304,-43,436,162,-226
1,9166434,424,-1365,-497,-1496,-306,-44,432,166,-226
1,9166440,424,-1365,-497,-1496,-306,-44,432,166,-226
1,9166447,424,-1365,-497,-1496,-306,-44,432,166,-226
1,9166453,426,-1366,-497,-1491,-307,-43,432,166,-226
1,9166459,426,-1366,-497,-1491,-307,-43,432,166,-226
1,9166467,426,-1366,-497,-1491,-307,-43,432,166,-226
1,9166475,426,-1362,-499,-1495,-302,-39,432,166,-226
1,9166482,426,-1362,-499,-1495,-302,-39,432,166,-226
1,9166489,425,-1365,-504,-1487,-302,-38,432,166,-226
1,9166494,425,-1365,-504,-1487,-302,-38,432,166,-226
1,9166499,425,-1365,-504,-1487,-302,-38,432,166,-226
1,9166507,425,-1365,-504,-1487,-302,-38,432,166,-226
1,9166516,425,-1363,-504,-1494,-293,-38,432,166,-226
1,9166522,425,-1363,-504,-1494,-293,-38,432,166,-226
1,9166528,425,-1363,-504,-1494,-293,-38,432,166,-226
1,9166535,423,-1363,-498,-1488,-302,-39,432,166,-226
1,9166542,423,-1363,-498,-1488,-302,-39,432,166,-226
1,9166550,422,-1364,-496,-1491,-305,-35,437,167,-227
1,9166557,422,-1364,-496,-1491,-305,-35,437,167,-227
1,9166562,422,-1364,-496,-1491,-305,-35,437,167,-227
1,9166569,424,-1364,-499,-1492,-299,-34,437,167,-227
1,9166575,424,-1364,-499,-1492,-299,-34,437,167,-227
1,9166583,424,-1364,-499,-1492,-299,-34,437,167,-227
1,9166589,424,-1364,-500,-1488,-296,-36,437,167,-227
1,9166598,424,-1364,-500,-1488,-296,-36,437,167,-227
1,9166605,424,-1364,-500,-1488,-296,-36,437,167,-227
1,9166611,426,-1364,-499,-1493,-306,-37,437,167,-227
1,9166618,426,-1364,-499,-1493,-306,-37,437,167,-227
1,9166625,426,-1364,-499,-1493,-306,-37,437,167,-227
1,9166631,426,-1364,-503,-1490,-301,-35,437,167,-227
1,9166640,426,-1364,-503,-1490,-301,-35,437,167,-227
1,9166646,426,-1364,-503,-1490,-301,-35,437,167,-227
1,9166654,425,-1365,-502,-1497,-302,-44,437,167,-227
1,9166660,425,-1365,-502,-1497,-302,-44,437,167,-227
1,9166667,425,-1365,-502,-1497,-302,-44,437,167,-227
1,9166673,428,-1363,-501,-1486,-296,-41,437,167,-229
1,9166682,428,-1363,-501,-1486,-296,-41,437,167,-229
1,9166689,424,-1366,-498,-1491,-295,-44,437,167,-229
1,9166694,424,-1366,-498,-1491,-295,-44,437,167,-229
1,9166701,424,-1366,-498,-1491,-295,-44,437,167,-229
1,9166708,426,-1364,-499,-1489,-302,-42,437,167,-229
1,9166715,426,-1364,-499,-1489,-302,-42,437,167,-229
1,9166723,426,-1364,-499,-1489,-302,-42,437,167,-229
1,9166729,427,-1367,-498,-1491,-298,-35,437,167,-229
1,9166737,427,-1367,-498,-1491,-298,-35,437,167,-229
1,9166743,427,-1367,-498,-1491,-298,-35,437,167,-229
1,9166751,425,-1367,-496,-1491,-306,-44,437,167,-229
1,9166759,425,-1367,-496,-1491,-306,-44,437,167,-229
1,9166766,425,-1367,-496,-1491,-306,-44,437,167,-229
1,9166772,424,-1365,-497,-1486,-298,-33,437,167,-229
1,9166777,424,-1365,-497,-1486,-298,-33,437,167,-229
1,9166782,424,-1365,-497,-1486,-298,-33,437,167,-229
1,9166787,424,-1365,-497,-1486,-298,-33,437,167,-229
1,9166792,426,-1364,-497,-1493,-299,-31,434,162,-230
1,9166801,426,-1364,-497,-1493,-299,-31,434,162,-230
1,9166811,425,-1365,-499,-1487,-301,-37,434,162,-230
1,9166820,425,-1365,-499,-1487,-301,-37,434,162,-230
1,9166828,423,-1365,-501,-1492,-306,-36,434,162,-230
1,9166836,423,-1365,-501,-1492,-306,-36,434,162,-230
1,9166845,423,-1365,-501,-1492,-306,-36,434,162,-230
1,9166853,422,-1363,-500,-1491,-306,-38,434,162,-230
1,9166862,422,-1363,-500,-1491,-306,-38,434,162,-230
1,9166870,427,-1365,-498,-1494,-303,-41,434,162,-230
1,9166879,427,-1365,-498,-1494,-303,-41,434,162,-230
1,9166887,427,-1365,-498,-1494,-303,-41,434,162,-230
1,9166896,425,-1362,-501,-1488,-303,-45,434,162,-230
1,9166904,425,-1362,-501,-1488,-303,-45,434,162,-230
1,9166911,426,-1365,-502,-1494,-304,-39,437,169,-227
1,9166919,426,-1365,-502,-1494,-304,-39,437,169,-227
1,9166927,426,-1365,-502,-1494,-304,-39,437,169,-227
1,9166936,425,-1363,-494,-1490,-301,-45,437,169,-227
1,9166944,425,-1363,-494,-1490,-301,-45,437,169,-227
1,9166951,424,-1365,-496,-1486,-299,-40,437,169,-227
1,9166959,424,-1365,-496,-1486,-299,-40,437,169,-227
1,9166966,424,-1365,-496,-1486,-299,-40,437,169,-227
1,9166974,428,-1365,-498,-1486,-306,-38,437,169,-227
1,9166983,428,-1365,-498,-1486,-306,-38,437,169,-227
1,9166991,428,-1366,-500,-1489,-304,-37,437,169,-227
1,9166999,428,-1366,-500,-1489,-304,-37,437,169,-227
1,9167007,428,-1366,-500,-1489,-304,-37,437,169,-227
1,9167015,425,-1366,-503,-1496,-300,-41,437,169,-227
1,9167023,425,-1366,-503,-1496,-300,-41,437,169,-227
1,9167031,425,-1365,-504,-1494,-296,-39,437,169,-227
1,9167039,425,-1365,-504,-1494,-296,-39,437,169,-227
1,9167047,425,-1365,-504,-1494,-296,-39,437,169,-227
1,9167054,424,-1366,-495,-1486,-302,-39,441,159,-229
1,9167063,424,-1366,-495,-1486,-302,-39,441,159,-229
1,9167071,427,-1363,-504,-1495,-309,-41,441,159,-229
1,9167079,427,-1363,-504,-1495,-309,-41,441,159,-229
1,9167087,427,-1363,-504,-1495,-309,-41,441,159,-229
1,9167095,424,-1366,-500,-1495,-305,-42,441,159,-229
1,9167104,424,-1366,-500,-1495,-305,-42,441,159,-229
1,9167112,424,-1367,-501,-1486,-305,-42,441,159,-229
1,9167119,424,-1367,-501,-1486,-305,-42,441,159,-229
1,9167127,424,-1367,-501,-1486,-305,-42,441,159,-229
1,9167135,425,-1363,-495,-1491,-296,-40,441,159,-229
1,9167143,425,-1363,-495,-1491,-296,-40,441,159,-229
1,9167152,423,-1365,-499,-1488,-296,-46,441,159,-229
1,9167161,423,-1365,-499,-1488,-296,-46,441,159,-229
1,9167168,425,-1365,-499,-1488,-300,-38,441,159,-229
1,9167176,425,-1365,-499,-1488,-300,-38,438,168,-224
1,9167183,425,-1365,-499,-1488,-300,-38,438,168,-224
1,9167192,424,-1367,-497,-1489,-303,-40,438,168,-224
1,9167200,424,-1367,-497,-1489,-303,-40,438,168,-224
1,9167207,424,-1367,-497,-1489,-303,-40,438,168,-224
1,9167215,427,-1365,-499,-1488,-300,-36,438,168,-224
1,9167223,427,-1365,-499,-1488,-300,-36,438,168,-224
1,9167230,422,-1368,-498,-1490,-302,-44,438,168,-224
1,9167239,422,-1368,-498,-1490,-302,-44,438,168,-224
1,9167246,422,-1368,-498,-1490,-302,-44,438,168,-224
1,9167253,422,-1362,-499,-1494,-301,-38,438,168,-224
1,9167262,422,-1362,-499,-1494,-301,-38,438,168,-224
1,9167269,426,-1366,-499,-1490,-308,-45,438,168,-224
1,9167277,426,-1366,-499,-1490,-308,-45,438,168,-224
1,9167284,426,-1366,-499,-1490,-308,-45,438,168,-224
1,9167291,427,-1367,-497,-1489,-301,-41,437,165,-229
1,9167299,427,-1367,-497,-1489,-301,-41,437,165,-229
1,9167307,427,-1367,-497,-1489,-301,-41,437,165,-229
1,9167314,425,-1366,-504,-1498,-305,-42,437,165,-229
1,9167322,425,-1366,-504,-1498,-305,-42,437,165,-229
1,9167330,428,-1365,-500,-1494,-298,-36,437,165,-229
1,9167337,428,-1365,-500,-1494,-298,-36,437,165,-229
1,9167344,428,-1365,-500,-1494,-298,-36,437,165,-229
1,9167352,425,-1365,-497,-1492,-311,-43,437,165,-229
1,9167360,425,-1365,-497,-1492,-311,-43,437,165,-229
1,9167368,425,-1365,-497,-1492,-311,-43,437,165,-229
1,9167375,428,-1369,-500,-1483,-307,-43,437,165,-229
1,9167383,428,-1369,-500,-1483,-307,-43,437,165,-229
1,9167390,424,-1367,-499,-1485,-303,-43,437,165,-229
1,9167398,424,-1367,-499,-1485,-303,-43,437,165,-229
1,9167407,424,-1367,-499,-1485,-303,-43,437,165,-229
1,9167414,428,-1365,-497,-1489,-299,-44,443,165,-229
1,9167422,428,-1365,-497,-1489,-299,-44,443,165,-229
1,9167429,425,-1365,-494,-1490,-296,-39,443,165,-229
1,9167436,425,-1365,-494,-1490,-296,-39,443,165,-229
1,9167444,425,-1365,-494,-1490,-296,-39,443,165,-229
1,9167452,424,-1366,-497,-1492,-301,-45,443,165,-229
1,9167459,424,-1366,-497,-1492,-301,-45,443,165,-229
1,9167467,424,-1366,-497,-1492,-301,-45,443,165,-229
1,9167475,424,-1367,-499,-1496,-300,-40,443,165,-229
1,9167483,424,-1367,-499,-1496,-300,-40,443,165,-229
1,9167491,425,-1364,-500,-1488,-299,-42,443,165,-229
1,9167499,425,-1364,-500,-1488,-299,-42,443,165,-229
1,9167506,425,-1364,-500,-1488,-299,-42,443,165,-229
1,9167513,425,-1366,-500,-1490,-301,-39,443,165,-229
1,9167521,425,-1366,-500,-1490,-301,-39,443,165,-229
1,9167528,423,-1365,-499,-1492,-309,-37,443,165,-229
1,9167537,423,-1365,-499,-1492,-309,-37,443,165,-229
1,9167544,423,-1365,-499,-1492,-309,-37,443,165,-229
1,9167552,424,-1361,-495,-1491,-305,-41,434,168,-228
1,9167559,424,-1361,-495,-1491,-305,-41,434,168,-228
1,9167567,424,-1361,-495,-1491,-305,-41,434,168,-228
1,9167576,425,-1366,-496,-1489,-306,-43,434,168,-228
1,9167584,425,-1366,-496,-1489,-306,-43,434,168,-228
1,9167591,423,-1365,-499,-1490,-301,-42,434,168,-228
1,9167599,423,-1365,-499,-1490,-301,-42,434,168,-228
1,9167606,423,-1365,-499,-1490,-301,-42,434,168,-228
1,9167614,426,-1365,-499,-1485,-301,-36,434,168,-228
1,9167623,426,-1365,-499,-1485,-301,-36,434,168,-228
1,9167631,425,-1365,-498,-1483,-301,-36,434,168,-228
1,9167639,425,-1365,-498,-1483,-301,-36,434,168,-228
1,9167646,425,-1365,-498,-1483,-301,-36,434,168,-228
1,9167653,426,-1365,-496,-1489,-303,-36,434,168,-228
1,9167662,426,-1365,-496,-1489,-303,-36,434,168,-228
1,9167670,425,-1367,-497,-1481,-309,-36,426,162,-228
1,9167678,425,-1367,-497,-1481,-309,-36,426,162,-228
1,9167686,425,-1367,-497,-1481,-309,-36,426,162,-228
1,9167693,424,-1366,-495,-1493,-306,-39,426,162,-228
1,9167702,424,-1366,-495,-1493,-306,-39,426,162,-228
1,9167709,425,-1365,-502,-1500,-298,-41,426,162,-228
1,9167717,425,-1365,-502,-1500,-298,-41,426,162,-228
1,9167725,425,-1365,-502,-1500,-298,-41,426,162,-228
1,9167733,428,-1363,-500,-1495,-308,-41,426,162,-228
1,9167740,428,-1363,-500,-1495,-308,-41,426,162,-228
1,9167749,426,-1366,-499,-1491,-304,-39,426,162,-228
1,9167757,426,-1366,-499,-1491,-304,-39,426,162,-228
1,9167765,426,-1366,-499,-1491,-304,-39,426,162,-228
1,9167772,426,-1363,-501,-1488,-304,-39,426,162,-228
1,9167780,426,-1363,-501,-1488,-304,-39,426,162,-228
1,9167788,426,-1363,-501,-1488,-304,-39,426,162,-228
1,9167796,429,-1366,-499,-1490,-300,-39,434,172,-230
1,9167802,429,-1366,-499,-1490,-300,-39,434,172,-230
1,9167807,429,-1366,-499,-1490,-300,-39,434,172,-230
1,9167811,425,-1366,-496,-1494,-307,-33,434,172,-230
1,9167816,425,-1366,-496,-1494,-307,-33,434,172,-230
1,9167821,425,-1366,-496,-1494,-307,-33,434,172,-230
1,9167825,425,-1366,-496,-1494,-307,-33,434,172,-230
1,9167831,426,-1367,-503,-1495,-307,-33,434,172,-230
1,9167836,426,-1367,-503,-1495,-307,-33,434,172,-230
1,9167841,426,-1367,-503,-1495,-307,-33,434,172,-230
1,9167846,426,-1367,-503,-1495,-307,-33,434,172,-230
1,9167851,425,-1365,-498,-1491,-304,-44,434,172,-230
1,9167856,425,-1365,-498,-1491,-304,-44,434,172,-230
1,9167861,425,-1365,-498,-1491,-304,-44,434,172,-230
1,9167866,425,-1365,-498,-1491,-304,-44,434,172,-230
1,9167872,426,-1365,-504,-1492,-306,-41,434,172,-230
1,9167876,426,-1365,-504,-1492,-306,-41,434,172,-230
1,9167881,426,-1365,-504,-1492,-306,-41,434,172,-230
1,9167886,426,-1365,-504,-1492,-306,-41,434,172,-230
1,9167892,425,-1365,-499,-1495,-306,-37,434,172,-230
1,9167897,425,-1365,-499,-1495,-306,-37,434,172,-230
1,9167902,425,-1365,-499,-1495,-306,-37,434,172,-230
1,9167907,425,-1365,-499,-1495,-306,-37,434,172,-230
1,9167912,424,-1365,-496,-1493,-308,-45,433,165,-227
1,9167918,424,-1365,-496,-1493,-308,-45,433,165,-227
1,9167923,424,-1365,-496,-1493,-308,-45,433,165,-227
1,9167928,424,-1365,-496,-1493,-308,-45,433,165,-227
1,9167933,423,-1367,-498,-1496,-306,-51,433,165,-227
1,9167938,423,-1367,-498,-1496,-306,-51,433,165,-227
1,9167943,423,-1367,-498,-1496,-306,-51,433,165,-227
1,9167947,423,-1367,-498,-1496,-306,-51,433,165,-227
1,9167952,425,-1365,-498,-1493,-305,-43,433,165,-227
1,9167958,425,-1365,-498,-1493,-305,-43,433,165,-227
1,9167963,425,-1365,-498,-1493,-305,-43,433,165,-227
1,9167968,425,-1365,-498,-1493,-305,-43,433,165,-227
1,9167973,422,-1366,-504,-1493,-303,-42,433,165,-227
1,9167978,422,-1366,-504,-1493,-303,-42,433,165,-227
1,9167983,422,-1366,-504,-1493,-303,-42,433,165,-227
1,9167988,422,-1366,-504,-1493,-303,-42,433,165,-227
1,9167993,425,-1367,-505,-1495,-310,-38,433,165,-227
1,9168000,425,-1367,-505,-1495,-310,-38,433,165,-227
1,9168005,425,-1367,-505,-1495,-310,-38,433,165,-227
1,9168010,423,-1365,-498,-1496,-298,-36,433,165,-227
1,9168015,423,-1365,-498,-1496,-298,-36,433,165,-227
1,9168021,423,-1365,-498,-1496,-298,-36,433,165,-227
1,9168025,423,-1365,-498,-1496,-298,-36,433,165,-227
1,9168030,425,-1366,-494,-1489,-298,-33,433,165,-227
1,9168035,425,-1366,-494,-1489,-298,-33,433,165,-227
1,9168040,425,-1366,-494,-1489,-298,-33,433,165,-227
1,9168046,425,-1366,-494,-1489,-298,-33,433,165,-227
1,9168051,422,-1364,-495,-1486,-304,-39,440,170,-228
1,9168056,422,-1364,-495,-1486,-304,-39,440,170,-228
1,9168062,422,-1364,-495,-1486,-304,-39,440,170,-228
1,9168067,422,-1364,-495,-1486,-304,-39,440,170,-228
1,9168072,424,-1364,-499,-1489,-303,-38,440,170,-228
1,9168077,424,-1364,-499,-1489,-303,-38,440,170,-228
1,9168083,424,-1364,-499,-1489,-303,-38,440,170,-228
1,9168090,424,-1363,-500,-1490,-305,-34,440,170,-228
1,9168095,424,-1363,-500,-1490,-305,-34,440,170,-228
1,9168100,424,-1363,-500,-1490,-305,-34,440,170,-228
1,9168105,424,-1363,-500,-1490,-305,-34,440,170,-228
1,9168110,425,-1366,-501,-1494,-306,-41,440,170,-228
1,9168115,425,-1366,-501,-1494,-306,-41,440,170,-228
1,9168120,425,-1366,-501,-1494,-306,-41,440,170,-228
1,9168125,425,-1366,-501,-1494,-306,-41,440,170,-228
1,9168131,425,-1363,-503,-1491,-302,-40,440,170,-228
1,9168137,425,-1363,-503,-1491,-302,-40,440,170,-228
1,9168143,425,-1363,-503,-1491,-302,-40,440,170,-228
1,9168148,425,-1363,-503,-1491,-302,-40,440,170,-228
1,9168154,424,-1366,-500,-1500,-302,-40,440,170,-228
1,9168160,424,-1366,-500,-1500,-302,-40,440,170,-228
1,9168165,424,-1366,-500,-1500,-302,-40,440,170,-228
1,9168169,426,-1366,-499,-1496,-301,-40,438,166,-224
1,9168176,426,-1366,-499,-1496,-301,-40,438,166,-224
1,9168182,426,-1366,-499,-1496,-301,-40,438,166,-224
1,9168187,426,-1366,-499,-1496,-301,-40,438,166,-224
1,9168193,423,-1365,-498,-1488,-303,-40,438,166,-224
1,9168197,423,-1365,-498,-1488,-303,-40,438,166,-224
1,9168203,423,-1365,-498,-1488,-303,-40,438,166,-224
1,9168208,427,-1365,-499,-1492,-299,-40,438,166,-224
1,9168214,427,-1365,-499,-1492,-299,-40,438,166,-224
1,9168220,427,-1365,-499,-1492,-299,-40,438,166,-224
1,9168225,427,-1365,-499,-1492,-299,-40,438,166,-224
1,9168230,424,-1364,-503,-1493,-305,-47,438,166,-224
1,9168236,424,-1364,-503,-1493,-305,-47,438,166,-224
1,9168241,424,-1364,-503,-1493,-305,-47,438,166,-224
1,9168246,424,-1364,-503,-1493,-305,-47,438,166,-224
1,9168252,425,-1365,-498,-1493,-301,-54,438,166,-224
1,9168259,425,-1365,-498,-1493,-301,-54,438,166,-224
1,9168265,425,-1365,-498,-1493,-301,-54,438,166,-224
1,9168271,422,-1365,-503,-1496,-302,-43,438,166,-224
1,9168278,422,-1365,-503,-1496,-302,-43,438,166,-224
1,9168284,422,-1365,-503,-1496,-302,-43,438,166,-224
1,9168290,424,-1364,-499,-1499,-305,-42,443,157,-229
1,9168296,424,-1364,-499,-1499,-305,-42,443,157,-229
1,9168303,424,-1364,-499,-1499,-305,-42,443,157,-229
1,9168309,424,-1361,-497,-1501,-305,-43,443,157,-229
1,9168315,424,-1361,-497,-1501,-305,-43,443,157,-229
1,9168320,424,-1361,-497,-1501,-305,-43,443,157,-229
1,9168327,424,-1361,-497,-1501,-305,-43,443,157,-229
1,9168333,423,-1367,-498,-1493,-300,-48,443,157,-229
1,9168342,423,-1367,-498,-1493,-300,-48,443,157,-229
1,9168349,423,-1367,-498,-1493,-300,-48,443,157,-229
1,9168355,424,-1366,-501,-1485,-305,-54,443,157,-229
1,9168362,424,-1366,-501,-1485,-305,-54,443,157,-229
1,9168368,424,-1366,-501,-1485,-305,-54,443,157,-229
1,9168375,427,-1363,-499,-1493,-305,-43,443,157,-229
1,9168382,427,-1363,-499,-1493,-305,-43,443,157,-229
1,9168388,427,-1363,-499,-1493,-305,-43,443,157,-229
1,9168397,425,-1364,-502,-1487,-304,-42,443,157,-229
1,9168404,425,-1364,-502,-1487,-304,-42,443,157,-229
1,9168412,422,-1364,-497,-1486,-308,-42,445,159,-225
1,9168420,422,-1364,-497,-1486,-308,-42,445,159,-225
1,9168428,422,-1364,-497,-1486,-308,-42,445,159,-225
1,9168435,422,-1364,-497,-1486,-308,-42,445,159,-225
1,9168443,422,-1364,-497,-1486,-308,-42,445,159,-225
1,9168450,425,-1364,-497,-1488,-307,-46,445,159,-225
1,9168456,425,-1364,-497,-1488,-307,-46,445,159,-225
1,9168463,425,-1364,-497,-1488,-307,-46,445,159,-225
1,9168472,425,-1364,-497,-1488,-307,-46,445,159,-225
1,9168478,425,-1364,-497,-1488,-307,-46,445,159,-225
1,9168486,425,-1364,-497,-1488,-307,-46,445,159,-225
1,9168493,422,-1362,-499,-1489,-301,-40,445,159,-225
1,9168499,422,-1362,-499,-1489,-301,-40,445,159,-225
1,9168506,422,-1362,-499,-1489,-301,-40,445,159,-225
1,9168514,423,-1365,-502,-1495,-303,-37,445,159,-225
1,9168522,423,-1365,-502,-1495,-303,-37,445,159,-225
1,9168528,423,-1365,-502,-1495,-303,-37,445,159,-225
1,9168536,428,-1368,-496,-1494,-296,-42,434,166,-230
1,9168543,428,-1368,-496,-1494,-296,-42,434,166,-230
1,9168550,424,-1364,-493,-1491,-298,-43,434,166,-230
1,9168557,424,-1364,-493,-1491,-298,-43,434,166,-230
1,9168565,424,-1364,-493,-1491,-298,-43,434,166,-230
1,9168572,425,-1362,-500,-1494,-297,-38,434,166,-230
1,9168577,425,-1362,-500,-1494,-297,-38,434,166,-230
1,9168585,425,-1362,-500,-1494,-297,-38,434,166,-230
1,9168593,425,-1365,-501,-1490,-301,-44,434,166,-230
1,9168600,425,-1365,-501,-1490,-301,-44,434,166,-230
1,9168606,425,-1365,-501,-1490,-301,-44,434,166,-230
1,9168614,426,-1364,-497,-1492,-307,-41,434,166,-230
1,9168622,426,-1364,-497,-1492,-307,-41,434,166,-230
1,9168629,423,-1364,-503,-1494,-309,-38,434,166,-230
1,9168635,423,-1364,-503,-1494,-309,-38,434,166,-230
1,9168643,423,-1364,-503,-1494,-309,-38,434,166,-230
1,9168650,424,-1364,-501,-1492,-303,-40,434,166,-230
1,9168657,424,-1364,-501,-1492,-303,-40,434,166,-230
1,9168665,424,-1364,-501,-1492,-303,-40,434,166,-230
1,9168670,423,-1367,-495,-1495,-308,-42,435,171,-231
1,9168678,423,-1367,-495,-1495,-308,-42,435,171,-231
1,9168686,423,-1367,-495,-1495,-308,-42,435,171,-231
1,9168693,427,-1367,-501,-1494,-305,-33,435,171,-231
1,9168700,427,-1367,-501,-1494,-305,-33,435,171,-231
1,9168707,427,-1367,-501,-1494,-305,-33,435,171,-231
1,9168714,423,-1368,-501,-1488,-308,-38,435,171,-231
1,9168720,423,-1368,-501,-1488,-308,-38,435,171,-231
1,9168726,423,-1368,-501,-1488,-308,-38,435,171,-231
1,9168731,426,-1367,-499,-1487,-298,-37,435,171,-231
1,9168736,426,-1367,-499,-1487,-298,-37,435,171,-231
1,9168744,426,-1367,-499,-1487,-298,-37,435,171,-231
1,9168750,426,-1364,-499,-1485,-306,-36,435,171,-231
1,9168757,426,-1364,-499,-1485,-306,-36,435,171,-231
1,9168763,426,-1364,-499,-1485,-306,-36,435,171,-231
1,9168771,426,-1367,-500,-1489,-301,-43,435,171,-231
1,9168776,426,-1367,-500,-1489,-301,-43,435,171,-231
1,9168781,426,-1367,-500,-1489,-301,-43,435,171,-231
1,9168787,426,-1367,-500,-1489,-301,-43,435,171,-231
1,9168792,426,-1364,-497,-1487,-303,-33,443,155,-225
1,9168798,426,-1364,-497,-1487,-303,-33,443,155,-225
1,9168804,426,-1364,-497,-1487,-303,-33,443,155,-225
1,9168817,424,-1365,-501,-1494,-304,-34,443,155,-225
1,9168828,424,-1365,-501,-1494,-304,-34,443,155,-225
1,9168839,427,-1365,-506,-1499,-307,-39,443,155,-225
1,9168854,421,-1366,-500,-1497,-303,-35,443,155,-225
1,9168868,421,-1366,-500,-1497,-303,-35,443,155,-225
1,9168879,422,-1363,-497,-1495,-298,-37,443,155,-225
1,9168892,422,-1363,-497,-1495,-298,-37,443,155,-225
1,9168907,422,-1363,-497,-1495,-298,-37,443,155,-225
1,9168920,422,-1368,-494,-1497,-301,-33,442,160,-228
1,9168932,423,-1367,-503,-1502,-303,-37,442,160,-228
1,9168944,423,-1367,-503,-1502,-303,-37,442,160,-228
1,9168952,421,-1366,-501,-1497,-307,-34,442,160,-228
1,9168960,421,-1366,-501,-1497,-307,-34,442,160,-228
1,9168968,421,-1366,-501,-1497,-307,-34,442,160,-228
1,9168980,425,-1365,-503,-1492,-300,-36,442,160,-228
1,9168991,423,-1364,-497,-1483,-302,-38,442,160,-228
1,9169004,423,-1364,-497,-1483,-302,-38,442,160,-228
1,9169020,423,-1366,-501,-1488,-301,-36,442,160,-228
1,9169035,426,-1365,-501,-1492,-305,-40,439,161,-231
1,9169044,426,-1365,-501,-1492,-305,-40,439,161,-231
1,9169055,421,-1364,-496,-1486,-305,-42,439,161,-231
1,9169067,421,-1364,-496,-1486,-305,-42,439,161,-231
1,9169079,422,-1364,-503,-1495,-301,-44,439,161,-231
1,9169090,425,-1363,-504,-1491,-301,-42,439,161,-231
1,9169101,425,-1363,-504,-1491,-301,-42,439,161,-231
1,9169110,423,-1365,-498,-1493,-306,-41,439,161,-231
1,9169118,423,-1365,-498,-1493,-306,-41,439,161,-231
1,9169126,423,-1365,-498,-1493,-306,-41,439,161,-231
1,9169134,425,-1364,-500,-1488,-301,-44,439,161,-231
1,9169142,425,-1364,-500,-1488,-301,-44,439,161,-231
1,9169150,427,-1364,-503,-1487,-303,-38,439,161,-231
1,9169159,427,-1364,-503,-1487,-303,-38,439,161,-231
1,9169167,427,-1364,-503,-1487,-303,-38,439,161,-231
1,9169175,426,-1363,-497,-1487,-303,-38,437,163,-225
1,9169183,426,-1363,-497,-1487,-303,-38,437,163,-225
1,9169190,426,-1366,-502,-1492,-306,-41,437,163,-225
1,9169199,426,-1366,-502,-1492,-306,-41,437,163,-225
1,9169208,426,-1366,-502,-1492,-306,-41,437,163,-225
1,9169217,426,-1368,-503,-1501,-310,-42,437,163,-225
1,9169230,426,-1368,-500,-1501,-312,-41,437,163,-225
1,9169242,426,-1368,-500,-1501,-312,-41,437,163,-225
1,9169254,426,-1364,-499,-1492,-304,-41,437,163,-225
1,9169266,426,-1364,-499,-1492,-304,-41,437,163,-225
1,9169278,425,-1363,-502,-1487,-302,-34,437,163,-225
1,9169291,426,-1367,-494,-1494,-307,-40,446,168,-226
1,9169303,426,-1367,-494,-1494,-307,-40,446,168,-226
1,9169315,425,-1364,-496,-1483,-304,-35,446,168,-226
1,9169328,425,-1364,-496,-1483,-304,-35,446,168,-226
1,9169336,422,-1363,-500,-1493,-307,-42,446,168,-226
1,9169344,422,-1363,-500,-1493,-307,-42,446,168,-226
1,9169352,423,-1365,-503,-1500,-312,-45,446,168,-226
1,9169360,423,-1365,-503,-1500,-312,-45,446,168,-226
1,9169369,423,-1365,-503,-1500,-312,-45,446,168,-226
1,9169377,423,-1367,-500,-1493,-306,-35,446,168,-226
1,9169385,423,-1367,-500,-1493,-306,-35,446,168,-226
1,9169393,424,-1368,-505,-1490,-303,-42,446,168,-226
1,9169400,424,-1368,-505,-1490,-303,-42,446,168,-226
1,9169412,425,-1364,-499,-1487,-303,-44,434,174,-228
1,9169420,425,-1364,-499,-1487,-303,-44,434,174,-228
1,9169428,425,-1364,-499,-1487,-303,-44,434,174,-228
1,9169436,426,-1363,-497,-1489,-306,-44,434,174,-228
1,9169444,426,-1363,-497,-1489,-306,-44,434,174,-228
1,9169452,427,-1366,-497,-1490,-302,-43,434,174,-228
1,9169461,427,-1366,-497,-1490,-302,-43,434,174,-228
1,9169469,427,-1366,-497,-1490,-302,-43,434,174,-228
1,9169477,426,-1366,-504,-1491,-301,-39,434,174,-228
1,9169485,426,-1366,-504,-1491,-301,-39,434,174,-228
1,9169494,425,-1365,-501,-1489,-297,-33,434,174,-228
1,9169502,425,-1365,-501,-1489,-297,-33,434,174,-228
1,9169510,424,-1368,-504,-1501,-301,-35,434,174,-228
1,9169518,424,-1368,-504,-1501,-301,-35,434,174,-228
1,9169526,424,-1368,-504,-1501,-301,-35,434,174,-228
1,9169534,426,-1366,-499,-1502,-313,-43,430,170,-228
1,9169544,426,-1366,-499,-1502,-313,-43,430,170,-228
1,9169552,425,-1364,-501,-1488,-310,-44,430,170,-228
1,9169559,425,-1364,-501,-1488,-310,-44,430,170,-228
1,9169567,425,-1364,-501,-1488,-310,-44,430,170,-228
1,9169575,423,-1364,-500,-1486,-298,-44,430,170,-228
1,9169584,423,-1364,-500,-1486,-298,-44,430,170,-228
1,9169592,424,-1363,-497,-1495,-304,-42,430,170,-228
1,9169600,424,-1363,-497,-1495,-304,-42,430,170,-228
1,9169608,424,-1363,-497,-1495,-304,-42,430,170,-228
1,9169616,425,-1365,-503,-1489,-303,-41,430,170,-228
1,9169625,425,-1365,-503,-1489,-303,-41,430,170,-228
1,9169633,425,-1367,-501,-1491,-309,-38,430,170,-228
1,9169641,425,-1367,-501,-1491,-309,-38,430,170,-228
1,9169648,425,-1367,-501,-1491,-309,-38,430,170,-228
1,9169656,424,-1366,-507,-1495,-301,-37,430,170,-228
1,9169664,424,-1366,-507,-1495,-301,-37,430,170,-228
1,9169672,424,-1365,-496,-1493,-302,-36,435,161,-221
1,9169681,424,-1365,-496,-1493,-302,-36,435,161,-221
1,9169689,424,-1365,-496,-1493,-302,-36,435,161,-221
1,9169697,427,-1366,-500,-1486,-305,-43,435,161,-221
1,9169705,427,-1366,-500,-1486,-305,-43,435,161,-221
1,9169714,425,-1367,-499,-1492,-301,-36,435,161,-221
1,9169721,425,-1367,-499,-1492,-301,-36,435,161,-221
1,9169729,426,-1363,-506,-1496,-302,-36,435,161,-221
1,9169737,426,-1363,-506,-1496,-302,-36,435,161,-221
1,9169745,426,-1363,-506,-1496,-302,-36,435,161,-221
1,9169754,425,-1368,-506,-1490,-304,-37,435,161,-221
1,9169763,425,-1368,-506,-1490,-304,-37,435,161,-221
1,9169771,422,-1365,-504,-1483,-305,-40,435,161,-221
1,9169778,422,-1365,-504,-1483,-305,-40,435,161,-221
1,9169786,422,-1365,-504,-1483,-305,-40,435,161,-221
1,9169795,425,-1368,-498,-1486,-301,-39,433,159,-229
1,9169803,425,-1368,-498,-1486,-301,-39,433,159,-229
1,9169811,427,-1368,-498,-1490,-308,-30,433,159,-229
1,9169817,427,-1368,-498,-1490,-308,-30,433,159,-229
1,9169821,427,-1368,-498,-1490,-308,-30,433,159,-229
1,9169826,427,-1368,-498,-1490,-308,-30,433,159,-229
1,9169831,427,-1364,-503,-1497,-307,-36,433,159,-229
1,9169836,427,-1364,-503,-1497,-307,-36,433,159,-229
1,9169841,427,-1364,-503,-1497,-307,-36,433,159,-229
1,9169846,427,-1364,-503,-1497,-307,-36,433,159,-229
1,9169851,425,-1365,-503,-1490,-304,-39,433,159,-229
1,9169857,425,-1365,-503,-1490,-304,-39,433,159,-229
1,9169862,425,-1365,-503,-1490,-304,-39,433,159,-229
1,9169867,425,-1365,-503,-1490,-304,-39,433,159,-229
1,9169872,426,-1368,-502,-1494,-305,-41,433,159,-229
1,9169878,426,-1368,-502,-1494,-305,-41,433,159,-229
1,9169882,426,-1368,-502,-1494,-305,-41,433,159,-229
1,9169887,426,-1368,-502,-1494,-305,-41,433,159,-229
1,9169892,426,-1364,-503,-1492,-303,-43,433,159,-229
1,9169897,426,-1364,-503,-1492,-303,-43,433,159,-229
1,9169903,426,-1364,-503,-1492,-303,-43,433,159,-229
1,9169908,426,-1364,-503,-1492,-303,-43,433,159,-229
1,9169912,426,-1368,-498,-1481,-300,-45,436,172,-228
1,9169917,426,-1368,-498,-1481,-300,-45,436,172,-228
1,9169923,426,-1368,-498,-1481,-300,-45,436,172,-228
1,9169928,426,-1368,-498,-1481,-300,-45,436,172,-228
1,9169933,425,-1365,-497,-1491,-301,-37,436,172,-228
1,9169939,425,-1365,-497,-1491,-301,-37,436,172,-228
1,9169944,425,-1365,-497,-1491,-301,-37,436,172,-228
1,9169949,425,-1366,-499,-1490,-306,-37,436,172,-228
1,9169955,425,-1366,-499,-1490,-306,-37,436,172,-228
1,9169960,425,-1366,-499,-1490,-306,-37,436,172,-228
1,9169967,425,-1366,-499,-1490,-306,-37,436,172,-228
1,9169973,421,-1364,-500,-1493,-304,-41,436,172,-228
1,9169978,421,-1364,-500,-1493,-304,-41,436,172,-228
1,9169984,421,-1364,-500,-1493,-304,-41,436,172,-228
1,9169989,426,-1366,-507,-1492,-307,-43,436,172,-228
1,9169994,426,-1366,-507,-1492,-307,-43,436,172,-228
1,9170000,426,-1366,-507,-1492,-307,-43,436,172,-228
1,9170007,426,-1366,-507,-1492,-307,-43,436,172,-228
1,9170012,423,-1365,-505,-1493,-303,-39,436,172,-228
1,9170018,423,-1365,-505,-1493,-303,-39,436,172,-228
1,9170023,423,-1365,-505,-1493,-303,-39,436,172,-228
1,9170029,423,-1365,-505,-1493,-303,-39,436,172,-228
1,9170035,426,-1365,-497,-1493,-307,-42,432,164,-234
1,9170040,426,-1365,-497,-1493,-307,-42,432,164,-234
1,9170046,426,-1365,-497,-1493,-307,-42,432,164,-234
1,9170053,425,-1364,-495,-1494,-300,-42,432,164,-234
1,9170059,425,-1364,-495,-1494,-300,-42,432,164,-234
1,9170065,425,-1364,-495,-1494,-300,-42,432,164,-234
1,9170070,424,-1366,-500,-1495,-303,-38,432,164,-234
1,9170075,424,-1366,-500,-1495,-303,-38,432,164,-234
1,9170081,424,-1366,-500,-1495,-303,-38,432,164,-234
1,9170087,424,-1366,-500,-1495,-303,-38,432,164,-234
1,9170093,426,-1365,-501,-1493,-301,-39,432,164,-234
1,9170099,426,-1365,-501,-1493,-301,-39,432,164,-234
1,9170104,426,-1365,-501,-1493,-301,-39,432,164,-234
1,9170109,426,-1365,-501,-1493,-301,-39,432,164,-234
1,9170114,428,-1367,-497,-1493,-300,-33,432,164,-234
1,9170119,428,-1367,-497,-1493,-300,-33,432,164,-234
1,9170124,428,-1367,-497,-1493,-300,-33,432,164,-234
1,9170129,423,-1366,-505,-1489,-301,-38,432,164,-234
1,9170135,423,-1366,-505,-1489,-301,-38,432,164,-234
1,9170142,423,-1366,-505,-1489,-301,-38,432,164,-234
1,9170147,423,-1366,-505,-1489,-301,-38,432,164,-234
1,9170153,425,-1365,-499,-1493,-299,-36,432,164,-234
1,9170158,425,-1365,-499,-1493,-299,-36,432,164,-234
1,9170164,425,-1365,-499,-1493,-299,-36,432,164,-234
1,9170170,424,-1366,-497,-1488,-302,-35,434,158,-224
1,9170177,424,-1366,-497,-1488,-302,-35,434,158,-224
1,9170183,424,-1366,-497,-1488,-302,-35,434,158,-224
1,9170188,424,-1366,-497,-1488,-302,-35,434,158,-224
1,9170194,427,-1363,-500,-1483,-304,-35,434,158,-224
1,9170200,427,-1363,-500,-1483,-304,-35,434,158,-224
1,9170205,427,-1363,-500,-1483,-304,-35,434,158,-224
1,9170210,425,-1369,-501,-1487,-300,-40,434,158,-224
1,9170216,425,-1369,-501,-1487,-300,-40,434,158,-224
1,9170223,425,-1369,-501,-1487,-300,-40,434,158,-224
1,9170229,425,-1369,-501,-1487,-300,-40,434,158,-224
1,9170237,422,-1366,-497,-1488,-292,-39,434,158,-224
1,9170245,422,-1366,-497,-1488,-292,-39,434,158,-224
1,9170252,424,-1365,-500,-1491,-304,-39,434,158,-224
1,9170259,424,-1365,-500,-1491,-304,-39,434,158,-224
1,9170267,424,-1365,-500,-1491,-304,-39,434,158,-224
1,9170273,421,-1366,-503,-1494,-309,-34,434,158,-224
1,9170279,421,-1366,-503,-1494,-309,-34,434,158,-224
1,9170286,421,-1366,-503,-1494,-309,-34,434,158,-224
1,9170293,424,-1367,-497,-1497,-308,-34,439,165,-233
1,9170301,424,-1367,-497,-1497,-308,-34,439,165,-233
1,9170309,424,-1367,-497,-1497,-308,-34,439,165,-233
1,9170316,426,-1364,-497,-1497,-304,-41,439,165,-233
1,9170324,426,-1364,-497,-1497,-304,-41,439,165,-233
1,9170331,425,-1362,-500,-1491,-302,-33,439,165,-233
1,9170338,425,-1362,-500,-1491,-302,-33,439,165,-233
1,9170344,425,-1362,-500,-1491,-302,-33,439,165,-233
1,9170353,425,-1366,-505,-1487,-300,-34,439,165,-233
1,9170360,425,-1366,-505,-1487,-300,-34,439,165,-233
1,9170366,425,-1366,-505,-1487,-300,-34,439,165,-233
1,9170372,424,-1365,-501,-1488,-294,-36,439,165,-233
1,9170379,424,-1365,-501,-1488,-294,-36,439,165,-233
1,9170386,424,-1365,-501,-1488,-294,-36,439,165,-233
1,9170394,426,-1365,-500,-1498,-303,-40,439,165,-233
1,9170399,426,-1365,-500,-1498,-303,-40,439,165,-233
1,9170406,426,-1365,-500,-1498,-303,-40,439,165,-233
1,9170413,424,-1364,-492,-1494,-304,-39,441,171,-223
1,9170420,424,-1364,-492,-1494,-304,-39,441,171,-223
1,9170427,424,-1364,-492,-1494,-304,-39,441,171,-223
1,9170436,422,-1367,-497,-1499,-300,-42,441,171,-223
1,9170444,422,-1367,-497,-1499,-300,-42,441,171,-223
1,9170449,422,-1367,-497,-1499,-300,-42,441,171,-223
1,9170456,422,-1362,-503,-1491,-304,-40,441,171,-223
1,9170464,422,-1362,-503,-1491,-304,-40,441,171,-223
1,9170471,425,-1367,-501,-1487,-301,-34,441,171,-223
1,9170479,425,-1367,-501,-1487,-301,-34,441,171,-223
1,9170486,425,-1367,-501,-1487,-301,-34,441,171,-223
1,9170492,425,-1367,-494,-1488,-306,-34,441,171,-223
1,9170498,425,-1367,-494,-1488,-306,-34,441,171,-223
1,9170506,425,-1367,-494,-1488,-306,-34,441,171,-223
1,9170513,422,-1367,-500,-1489,-302,-40,441,171,-223
1,9170522,422,-1367,-500,-1489,-302,-40,441,171,-223
1,9170529,422,-1367,-500,-1489,-302,-40,441,171,-223
1,9170536,425,-1363,-498,-1483,-296,-41,436,162,-228
1,9170542,425,-1363,-498,-1483,-296,-41,436,162,-228
1,9170549,424,-1366,-497,-1492,-298,-40,436,162,-228
1,9170555,424,-1366,-497,-1492,-298,-40,436,162,-228
1,9170563,424,-1366,-497,-1492,-298,-40,436,162,-228
1,9170569,424,-1366,-497,-1492,-298,-40,436,162,-228
1,9170576,423,-1364,-499,-1489,-301,-44,436,162,-228
1,9170583,423,-1364,-499,-1489,-301,-44,436,162,-228
1,9170590,423,-1365,-502,-1491,-300,-42,436,162,-228
1,9170597,423,-1365,-502,-1491,-300,-42,436,162,-228
1,9170605,423,-1365,-502,-1491,-300,-42,436,162,-228
1,9170611,425,-1366,-505,-1487,-299,-42,436,162,-228
1,9170618,425,-1366,-505,-1487,-299,-42,436,162,-228
1,9170623,425,-1366,-505,-1487,-299,-42,436,162,-228
1,9170628,425,-1366,-505,-1487,-299,-42,436,162,-228
1,9170635,422,-1364,-505,-1486,-298,-47,436,162,-228
1,9170641,422,-1364,-505,-1486,-298,-47,436,162,-228
1,9170648,422,-1364,-505,-1486,-298,-47,436,162,-228
1,9170655,427,-1363,-503,-1483,-300,-39,439,165,-223
1,9170662,427,-1363,-503,-1483,-300,-39,439,165,-223
1,9170669,427,-1363,-503,-1483,-300,-39,439,165,-223
1,9170676,429,-1365,-495,-1488,-305,-43,439,165,-223
1,9170683,429,-1365,-495,-1488,-305,-43,439,165,-223
1,9170691,424,-1368,-500,-1488,-306,-41,439,165,-223
1,9170696,424,-1368,-500,-1488,-306,-41,439,165,-223
1,9170704,424,-1368,-500,-1488,-306,-41,439,165,-223
1,9170711,424,-1362,-499,-1491,-306,-42,439,165,-223
1,9170718,424,-1362,-499,-1491,-306,-42,439,165,-223
1,9170725,424,-1362,-499,-1491,-306,-42,439,165,-223
1,9170732,423,-1365,-500,-1489,-311,-44,439,165,-223
1,9170739,423,-1365,-500,-1489,-311,-44,439,165,-223
1,9170745,423,-1365,-500,-1489,-311,-44,439,165,-223
1,9170751,423,-1367,-495,-1487,-302,-40,439,165,-223
1,9170757,423,-1367,-495,-1487,-302,-40,439,165,-223
1,9170763,423,-1367,-495,-1487,-302,-40,439,165,-223
1,9170770,421,-1365,-499,-1493,-313,-39,439,165,-223
1,9170776,421,-1365,-499,-1493,-313,-39,439,165,-223
1,9170781,421,-1365,-499,-1493,-313,-39,439,165,-223
1,9170786,421,-1365,-499,-1493,-313,-39,439,165,-223
1,9170791,423,-1365,-500,-1495,-304,-42,435,155,-227
1,9170797,423,-1365,-500,-1495,-304,-42,435,155,-227
1,9170803,423,-1365,-500,-1495,-304,-42,435,155,-227
1,9170808,423,-1365,-500,-1495,-304,-42,435,155,-227
1,9170817,423,-1361,-498,-1491,-294,-38,435,155,-227
1,9170824,423,-1361,-498,-1491,-294,-38,435,155,-227
1,9170833,424,-1365,-497,-1493,-297,-41,435,155,-227
1,9170846,424,-1365,-497,-1493,-297,-41,435,155,-227
1,9170861,424,-1367,-504,-1499,-302,-37,435,155,-227
1,9170874,425,-1364,-504,-1490,-297,-33,435,155,-227
1,9170884,425,-1364,-504,-1490,-297,-33,435,155,-227
1,9170895,424,-1368,-501,-1487,-305,-31,435,155,-227
1,9170908,424,-1368,-501,-1487,-305,-31,435,155,-227
1,9170922,427,-1365,-496,-1489,-305,-39,434,170,-228
1,9170932,425,-1365,-498,-1486,-302,-33,434,170,-228
1,9170948,425,-1365,-498,-1486,-302,-33,434,170,-228
1,9170960,427,-1364,-497,-1489,-295,-32,434,170,-228
1,9170973,425,-1365,-504,-1491,-302,-37,434,170,-228
1,9170987,425,-1365,-504,-1491,-302,-37,434,170,-228
1,9171000,427,-1368,-497,-1489,-305,-45,434,170,-228
1,9171011,425,-1364,-501,-1489,-313,-36,434,170,-228
1,9171025,425,-1364,-501,-1489,-313,-36,434,170,-228
1,9171038,426,-1366,-499,-1487,-302,-35,439,161,-229
1,9171051,424,-1362,-500,-1491,-303,-39,439,161,-229
1,9171063,424,-1362,-500,-1491,-303,-39,439,161,-229
1,9171077,424,-1364,-499,-1498,-304,-38,439,161,-229
1,9171090,425,-1366,-502,-1496,-302,-35,439,161,-229
1,9171101,425,-1366,-502,-1496,-302,-35,439,161,-229
1,9171109,425,-1366,-502,-1496,-302,-35,439,161,-229
1,9171118,424,-1366,-497,-1484,-305,-36,439,161,-229
1,9171126,424,-1366,-497,-1484,-305,-36,439,161,-229
1,9171135,425,-1368,-496,-1494,-302,-37,439,161,-229
1,9171142,425,-1368,-496,-1494,-302,-37,439,161,-229
1,9171151,423,-1367,-500,-1492,-298,-35,436,166,-230
1,9171159,423,-1367,-500,-1492,-298,-35,436,166,-230
1,9171167,423,-1367,-500,-1492,-298,-35,436,166,-230
1,9171175,425,-1363,-494,-1479,-303,-36,436,166,-230
1,9171183,425,-1363,-494,-1479,-303,-36,436,166,-230
1,9171190,426,-1367,-500,-1489,-303,-33,436,166,-230
1,9171198,426,-1367,-500,-1489,-303,-33,436,166,-230
1,9171213,428,-1365,-496,-1494,-304,-34,436,166,-230
1,9171223,428,-1365,-496,-1494,-304,-34,436,166,-230
1,9171231,428,-1369,-501,-1495,-303,-42,436,166,-230
1,9171239,428,-1369,-501,-1495,-303,-42,436,166,-230
1,9171248,428,-1369,-501,-1495,-303,-42,436,166,-230
1,9171256,425,-1364,-500,-1491,-298,-40,436,166,-230
1,9171267,425,-1364,-500,-1491,-298,-40,436,166,-230
1,9171279,426,-1366,-501,-1489,-305,-41,436,166,-230
1,9171294,427,-1367,-497,-1487,-309,-38,435,161,-231
1,9171306,427,-1367,-497,-1487,-309,-38,435,161,-231
1,9171319,423,-1364,-503,-1494,-307,-38,435,161,-231
1,9171333,427,-1363,-501,-1490,-302,-47,435,161,-231
1,9171344,427,-1363,-501,-1490,-302,-47,435,161,-231
1,9171355,425,-1365,-500,-1484,-296,-40,435,161,-231
1,9171367,425,-1365,-500,-1484,-296,-40,435,161,-231
1,9171382,426,-1364,-502,-1491,-304,-46,435,161,-231
1,9171393,426,-1362,-503,-1487,-304,-41,435,161,-231
1,9171403,426,-1362,-503,-1487,-304,-41,435,161,-231
1,9171416,428,-1364,-494,-1493,-303,-34,441,167,-231
1,9171430,423,-1363,-493,-1490,-298,-35,441,167,-231
1,9171442,423,-1363,-493,-1490,-298,-35,441,167,-231
1,9171456,422,-1367,-501,-1494,-309,-36,441,167,-231
1,9171468,422,-1367,-501,-1494,-309,-36,441,167,-231
1,9171481,422,-1367,-501,-1494,-309,-36,441,167,-231
1,9171490,426,-1365,-499,-1490,-304,-41,441,167,-231
1,9171502,426,-1365,-499,-1490,-304,-41,441,167,-231
1,9171516,423,-1364,-501,-1493,-312,-40,441,167,-231
1,9171529,423,-1364,-501,-1493,-312,-40,441,167,-231
1,9171538,425,-1365,-496,-1498,-307,-39,436,172,-232
1,9171551,424,-1364,-499,-1496,-305,-43,436,172,-232
1,9171564,424,-1364,-499,-1496,-305,-43,436,172,-232
1,9171576,423,-1364,-498,-1493,-305,-34,436,172,-232
1,9171589,423,-1364,-498,-1493,-305,-34,436,172,-232
1,9171603,424,-1363,-500,-1492,-299,-38,436,172,-232
1,9171614,426,-1364,-498,-1490,-301,-43,436,172,-232
1,9171623,426,-1364,-498,-1490,-301,-43,436,172,-232
1,9171635,427,-1366,-498,-1488,-300,-37,436,172,-232
1,9171648,427,-1366,-498,-1488,-300,-37,436,172,-232
1,9171658,425,-1368,-495,-1489,-299,-40,434,160,-230
1,9171668,425,-1368,-495,-1489,-299,-40,434,160,-230
1,9171683,427,-1368,-493,-1490,-302,-44,434,160,-230
1,9171698,427,-1368,-500,-1490,-308,-44,434,160,-230
1,9171707,427,-1368,-500,-1490,-308,-44,434,160,-230
1,9171719,424,-1364,-503,-1489,-312,-42,434,160,-230
1,9171732,427,-1365,-497,-1492,-305,-39,434,160,-230
1,9171744,427,-1365,-497,-1492,-305,-39,434,160,-230
1,9171756,426,-1365,-500,-1493,-308,-33,434,160,-230
1,9171768,426,-1365,-500,-1493,-308,-33,434,160,-230
1,9171776,425,-1363,-501,-1486,-305,-36,434,160,-230
1,9171784,425,-1363,-501,-1486,-305,-36,434,160,-230
1,9171792,425,-1367,-492,-1491,-304,-42,443,167,-223
1,9171800,425,-1367,-492,-1491,-304,-42,443,167,-223
1,9171808,425,-1367,-492,-1491,-304,-42,443,167,-223
1,9171818,423,-1363,-499,-1496,-305,-32,443,167,-223
1,9171826,423,-1363,-499,-1496,-305,-32,443,167,-223
1,9171831,425,-1365,-498,-1492,-300,-38,443,167,-223
1,9171837,425,-1365,-498,-1492,-300,-38,443,167,-223
1,9171845,425,-1365,-498,-1492,-300,-38,443,167,-223
1,9171851,424,-1363,-505,-1492,-299,-40,443,167,-223
1,9171859,424,-1363,-505,-1492,-299,-40,443,167,-223
1,9171865,424,-1363,-505,-1492,-299,-40,443,167,-223
1,9171871,425,-1365,-503,-1492,-299,-42,443,167,-223
1,9171878,425,-1365,-503,-1492,-299,-42,443,167,-223
1,9171885,425,-1365,-503,-1492,-299,-42,443,167,-223
1,9171892,424,-1368,-503,-1488,-300,-40,443,167,-223
1,9171898,424,-1368,-503,-1488,-300,-40,443,167,-223
1,9171905,424,-1368,-503,-1488,-300,-40,443,167,-223
1,9171912,425,-1364,-497,-1492,-304,-39,442,168,-224
1,9171918,425,-1364,-497,-1492,-304,-39,442,168,-224
1,9171923,425,-1364,-497,-1492,-304,-39,442,168,-224
1,9171931,425,-1363,-496,-1484,-301,-42,442,168,-224
1,9171938,425,-1363,-496,-1484,-301,-42,442,168,-224
1,9171945,425,-1363,-496,-1484,-301,-42,442,168,-224
1,9171953,425,-1364,-497,-1492,-304,-40,442,168,-224
1,9171961,425,-1364,-497,-1492,-304,-40,442,168,-224
1,9171970,425,-1364,-497,-1492,-304,-40,442,168,-224
1,9171977,426,-1367,-498,-1490,-301,-36,442,168,-224
1,9171982,426,-1367,-498,-1490,-301,-36,442,168,-224
1,9171988,426,-1367,-498,-1490,-301,-36,442,168,-224
1,9171995,426,-1367,-498,-1490,-301,-36,442,168,-224
1,9172002,426,-1367,-498,-1490,-301,-36,442,168,-224
1,9172009,426,-1367,-498,-1490,-301,-36,442,168,-224
1,9172016,422,-1363,-498,-1494,-303,-41,442,168,-224
1,9172022,422,-1363,-498,-1494,-303,-41,442,168,-224
1,9172029,422,-1363,-498,-1494,-303,-41,442,168,-224
1,9172036,424,-1365,-496,-1494,-307,-36,437,167,-231
1,9172044,424,-1365,-496,-1494,-307,-36,437,167,-231
1,9172051,425,-1363,-500,-1493,-305,-44,437,167,-231
1,9172057,425,-1363,-500,-1493,-305,-44,437,167,-231
1,9172064,425,-1363,-500,-1493,-305,-44,437,167,-231
1,9172070,423,-1368,-501,-1496,-311,-41,437,167,-231
1,9172078,423,-1368,-501,-1496,-311,-41,437,167,-231
1,9172084,423,-1368,-501,-1496,-311,-41,437,167,-231
1,9172091,422,-1364,-503,-1498,-309,-40,437,167,-231
1,9172099,422,-1364,-503,-1498,-309,-40,437,167,-231
1,9172104,422,-1364,-503,-1498,-309,-40,437,167,-231
1,9172109,422,-1364,-503,-1498,-309,-40,437,167,-231
1,9172115,422,-1362,-503,-1490,-304,-37,437,167,-231
1,9172120,422,-1362,-503,-1490,-304,-37,437,167,-231
1,9172126,422,-1362,-503,-1490,-304,-37,437,167,-231
1,9172130,426,-1363,-501,-1483,-309,-41,437,167,-231
1,9172135,426,-1363,-501,-1483,-309,-41,437,167,-231
1,9172144,426,-1363,-501,-1483,-309,-41,437,167,-231
1,9172150,423,-1366,-498,-1485,-312,-46,447,161,-231
1,9172156,423,-1366,-498,-1485,-312,-46,447,161,-231
1,9172163,423,-1366,-498,-1485,-312,-46,447,161,-231
1,9172171,426,-1366,-497,-1491,-308,-45,447,161,-231
1,9172179,426,-1366,-497,-1491,-308,-45,447,161,-231
1,9172186,426,-1366,-497,-1491,-308,-45,447,161,-231
1,9172192,426,-1365,-506,-1495,-307,-39,447,161,-231
1,9172198,426,-1365,-506,-1495,-307,-39,447,161,-231
1,9172205,426,-1365,-506,-1495,-307,-39,447,161,-231
1,9172212,424,-1366,-500,-1489,-308,-38,447,161,-231
1,9172218,424,-1366,-500,-1489,-308,-38,447,161,-231
1,9172224,424,-1366,-500,-1489,-308,-38,447,161,-231
1,9172231,422,-1364,-498,-1493,-311,-43,447,161,-231
1,9172239,422,-1364,-498,-1493,-311,-43,447,161,-231
1,9172246,422,-1364,-498,-1493,-311,-43,447,161,-231
1,9172253,422,-1367,-505,-1488,-298,-37,447,161,-231
1,9172260,422,-1367,-505,-1488,-298,-37,447,161,-231
1,9172268,422,-1367,-505,-1488,-298,-37,447,161,-231
1,9172274,424,-1368,-502,-1487,-299,-34,437,163,-233
1,9172281,424,-1368,-502,-1487,-299,-34,437,163,-233
1,9172288,424,-1368,-502,-1487,-299,-34,437,163,-233
1,9172295,424,-1367,-498,-1490,-297,-43,437,163,-233
1,9172303,424,-1367,-498,-1490,-297,-43,437,163,-233
1,9172310,424,-1367,-498,-1490,-297,-43,437,163,-233
1,9172318,425,-1363,-502,-1490,-298,-37,437,163,-233
1,9172323,425,-1363,-502,-1490,-298,-37,437,163,-233
1,9172330,423,-1366,-497,-1491,-305,-40,437,163,-233
1,9172336,423,-1366,-497,-1491,-305,-40,437,163,-233
1,9172341,423,-1366,-497,-1491,-305,-40,437,163,-233
1,9172346,423,-1366,-497,-1491,-305,-40,437,163,-233
1,9172352,424,-1367,-497,-1486,-304,-40,437,163,-233
1,9172357,424,-1367,-497,-1486,-304,-40,437,163,-233
1,9172362,424,-1367,-497,-1486,-304,-40,437,163,-233
1,9172367,424,-1367,-497,-1486,-304,-40,437,163,-233
1,9172373,425,-1363,-501,-1494,-305,-38,437,163,-233
1,9172381,425,-1363,-501,-1494,-305,-38,437,163,-233
1,9172387,425,-1363,-501,-1494,-305,-38,437,163,-233
1,9172395,424,-1366,-504,-1494,-301,-34,437,163,-233
1,9172402,424,-1366,-504,-1494,-301,-34,437,163,-233
1,9172409,424,-1366,-504,-1494,-301,-34,437,163,-233
1,9172416,423,-1367,-495,-1491,-300,-39,436,168,-230
1,9172422,423,-1367,-495,-1491,-300,-39,436,168,-230
1,9172429,423,-1367,-495,-1491,-300,-39,436,168,-230
1,9172436,422,-1363,-501,-1489,-306,-42,436,168,-230
1,9172442,422,-1363,-501,-1489,-306,-42,436,168,-230
1,9172447,422,-1363,-501,-1489,-306,-42,436,168,-230
1,9172452,425,-1365,-499,-1495,-301,-40,436,168,-230
1,9172458,425,-1365,-499,-1495,-301,-40,436,168,-230
1,9172464,425,-1365,-499,-1495,-301,-40,436,168,-230
1,9172470,425,-1365,-499,-1495,-301,-40,436,168,-230
1,9172477,427,-1364,-501,-1495,-307,-45,436,168,-230
1,9172485,427,-1364,-501,-1495,-307,-45,436,168,-230
1,9172491,430,-1363,-500,-1502,-307,-36,436,168,-230
1,9172498,430,-1363,-500,-1502,-307,-36,436,168,-230
1,9172506,430,-1363,-500,-1502,-307,-36,436,168,-230
1,9172513,423,-1367,-503,-1490,-305,-34,436,168,-230
1,9172520,423,-1367,-503,-1490,-305,-34,436,168,-230
1,9172528,423,-1367,-503,-1490,-305,-34,436,168,-230
1,9172535,426,-1367,-495,-1490,-300,-39,440,164,-232
1,9172541,426,-1367,-495,-1490,-300,-39,440,164,-232
1,9172549,426,-1367,-495,-1490,-300,-39,440,164,-232
1,9172556,424,-1365,-498,-1492,-296,-35,440,164,-232
1,9172562,424,-1365,-498,-1492,-296,-35,440,164,-232
1,9172570,424,-1365,-498,-1492,-296,-35,440,164,-232
1,9172578,423,-1367,-496,-1489,-299,-40,440,164,-232
1,9172585,423,-1367,-496,-1489,-299,-40,440,164,-232
1,9172591,425,-1364,-502,-1500,-301,-41,440,164,-232
1,9172596,425,-1364,-502,-1500,-301,-41,440,164,-232
1,9172604,425,-1364,-502,-1500,-301,-41,440,164,-232
1,9172610,425,-1364,-502,-1500,-301,-41,440,164,-232
1,9172617,422,-1366,-498,-1488,-308,-38,440,164,-232
1,9172626,422,-1366,-498,-1488,-308,-38,440,164,-232
1,9172634,421,-1365,-498,-1492,-304,-41,440,164,-232
1,9172642,421,-1365,-498,-1492,-304,-41,440,164,-232
1,9172648,421,-1365,-498,-1492,-304,-41,440,164,-232
1,9172656,424,-1361,-498,-1492,-304,-37,434,162,-224
1,9172661,424,-1361,-498,-1492,-304,-37,434,162,-224
1,9172668,424,-1361,-498,-1492,-304,-37,434,162,-224
1,9172675,421,-1364,-497,-1493,-307,-39,434,162,-224
1,9172682,421,-1364,-497,-1493,-307,-39,434,162,-224
1,9172688,421,-1364,-497,-1493,-307,-39,434,162,-224
1,9172696,425,-1366,-500,-1497,-305,-41,434,162,-224
1,9172704,425,-1366,-500,-1497,-305,-41,434,162,-224
1,9172709,425,-1366,-500,-1497,-305,-41,434,162,-224
1,9172716,426,-1365,-496,-1495,-302,-41,434,162,-224
1,9172723,426,-1365,-496,-1495,-302,-41,434,162,-224
1,9172730,421,-1366,-502,-1491,-302,-42,434,162,-224
1,9172737,421,-1366,-502,-1491,-302,-42,434,162,-224
1,9172743,421,-1366,-502,-1491,-302,-42,434,162,-224
1,9172750,422,-1366,-495,-1486,-302,-43,434,162,-224
1,9172758,422,-1366,-495,-1486,-302,-43,434,162,-224
1,9172766,422,-1366,-495,-1486,-302,-43,434,162,-224
1,9172771,426,-1365,-499,-1492,-302,-42,432,162,-228
1,9172776,426,-1365,-499,-1492,-302,-42,432,162,-228
1,9172781,426,-1365,-499,-1492,-302,-42,432,162,-228
1,9172786,426,-1365,-499,-1492,-302,-42,432,162,-228
1,9172791,426,-1363,-498,-1497,-304,-43,432,162,-228
1,9172796,426,-1363,-498,-1497,-304,-43,432,162,-228
1,9172801,426,-1363,-498,-1497,-304,-43,432,162,-228
1,9172808,426,-1363,-498,-1497,-304,-43,432,162,-228
1,9172816,423,-1366,-501,-1492,-303,-43,432,162,-228
1,9172824,423,-1366,-501,-1492,-303,-43,432,162,-228
1,9172831,424,-1364,-498,-1489,-302,-41,432,162,-228
1,9172842,424,-1364,-498,-1489,-302,-41,432,162,-228
1,9172856,425,-1367,-501,-1484,-302,-45,432,162,-228
1,9172871,425,-1367,-500,-1485,-308,-44,432,162,-228
1,9172879,425,-1367,-500,-1485,-308,-44,432,162,-228
1,9172890,425,-1367,-500,-1485,-308,-44,432,162,-228
1,9172903,423,-1363,-500,-1489,-301,-45,432,162,-228
1,9172916,425,-1364,-497,-1495,-299,-42,440,166,-222
1,9172928,425,-1364,-497,-1495,-299,-42,440,166,-222
1,9172942,424,-1364,-499,-1494,-303,-44,440,166,-222
1,9172954,425,-1366,-500,-1491,-305,-45,440,166,-222
1,9172968,425,-1366,-500,-1491,-305,-45,440,166,-222
1,9172978,425,-1364,-502,-1487,-302,-34,440,166,-222
1,9172993,425,-1364,-500,-1486,-304,-41,440,166,-222
1,9173005,425,-1364,-500,-1486,-304,-41,440,166,-222
1,9173018,422,-1365,-499,-1490,-303,-42,440,166,-222
1,9173031,425,-1365,-496,-1497,-305,-35,435,161,-231
1,9173045,425,-1365,-496,-1497,-305,-35,435,161,-231
1,9173056,425,-1364,-500,-1498,-306,-40,435,161,-231
1,9173070,425,-1365,-501,-1493,-305,-47,435,161,-231
1,9173083,425,-1365,-501,-1493,-305,-47,435,161,-231
1,9173095,425,-1361,-496,-1491,-300,-42,435,161,-231
1,9173103,425,-1361,-496,-1491,-300,-42,435,161,-231
1,9173112,423,-1366,-494,-1489,-310,-43,435,161,-231
1,9173121,423,-1366,-494,-1489,-310,-43,435,161,-231
1,9173130,423,-1366,-494,-1489,-310,-43,435,161,-231
1,9173138,426,-1366,-499,-1490,-301,-31,435,161,-231
1,9173146,426,-1366,-499,-1490,-301,-31,435,161,-231
1,9173154,424,-1366,-497,-1493,-303,-30,433,171,-227
1,9173163,424,-1366,-497,-1493,-303,-30,433,171,-227
1,9173170,424,-1366,-497,-1493,-303,-30,433,171,-227
1,9173178,427,-1365,-498,-1488,-305,-35,433,171,-227
1,9173185,427,-1365,-498,-1488,-305,-35,433,171,-227
1,9173193,425,-1366,-501,-1489,-304,-42,433,171,-227
1,9173201,425,-1366,-501,-1489,-304,-42,433,171,-227
1,9173210,425,-1366,-501,-1489,-304,-42,433,171,-227
1,9173218,422,-1369,-501,-1493,-305,-46,433,171,-227
1,9173228,422,-1369,-501,-1493,-305,-46,433,171,-227
1,9173237,423,-1368,-501,-1490,-303,-45,433,171,-227
1,9173248,423,-1368,-501,-1490,-303,-45,433,171,-227
1,9173256,426,-1366,-500,-1484,-305,-40,433,171,-227
1,9173264,426,-1366,-500,-1484,-305,-40,433,171,-227
1,9173273,424,-1362,-495,-1486,-301,-45,441,159,-225
1,9173283,424,-1362,-495,-1486,-301,-45,441,159,-225
1,9173297,422,-1366,-497,-1502,-303,-42,441,159,-225
1,9173310,422,-1366,-497,-1502,-303,-42,441,159,-225
1,9173321,422,-1365,-498,-1498,-305,-40,441,159,-225
1,9173332,423,-1366,-500,-1492,-304,-42,441,159,-225
1,9173346,423,-1366,-500,-1492,-304,-42,441,159,-225
1,9173359,423,-1368,-504,-1493,-310,-40,441,159,-225
1,9173371,423,-1364,-497,-1496,-307,-40,441,159,-225
1,9173385,423,-1364,-497,-1496,-307,-40,441,159,-225
1,9173398,424,-1363,-501,-1493,-304,-44,441,159,-225
1,9173410,425,-1361,-504,-1489,-301,-43,432,170,-230
1,9173424,425,-1361,-504,-1489,-301,-43,432,170,-230
1,9173432,425,-1367,-501,-1495,-302,-37,432,170,-230
1,9173444,425,-1367,-501,-1495,-302,-37,432,170,-230
1,9173457,422,-1368,-498,-1491,-302,-42,432,170,-230
1,9173470,422,-1368,-498,-1491,-302,-42,432,170,-230
1,9173481,427,-1367,-496,-1492,-306,-39,432,170,-230
1,9173493,425,-1365,-507,-1491,-299,-37,432,170,-230
1,9173509,425,-1365,-507,-1491,-299,-37,432,170,-230
1,9173522,422,-1363,-503,-1494,-303,-46,432,170,-230
1,9173531,426,-1365,-499,-1498,-303,-48,427,169,-221
1,9173544,426,-1365,-499,-1498,-303,-48,427,169,-221
1,9173560,421,-1363,-502,-1501,-304,-48,427,169,-221
1,9173573,421,-1363,-500,-1492,-305,-48,427,169,-221
1,9173582,421,-1363,-500,-1492,-305,-48,427,169,-221
1,9173595,421,-1367,-497,-1491,-299,-45,427,169,-221
1,9173608,421,-1367,-497,-1491,-299,-45,427,169,-221
1,9173621,424,-1365,-498,-1495,-301,-46,427,169,-221
1,9173632,422,-1366,-498,-1495,-300,-42,427,169,-221
1,9173646,422,-1366,-498,-1495,-300,-42,427,169,-221
1,9173658,423,-1366,-495,-1490,-299,-42,438,158,-230
1,9173670,423,-1364,-498,-1490,-302,-40,438,158,-230
1,9173682,423,-1364,-498,-1490,-302,-40,438,158,-230
1,9173696,423,-1366,-503,-1497,-306,-46,438,158,-230
1,9173708,423,-1366,-503,-1497,-306,-46,438,158,-230
1,9173716,426,-1363,-505,-1492,-305,-40,438,158,-230
1,9173727,426,-1363,-505,-1492,-305,-40,438,158,-230
1,9173734,424,-1365,-501,-1491,-305,-45,438,158,-230
1,9173742,424,-1365,-501,-1491,-305,-45,438,158,-230
1,9173751,425,-1364,-497,-1492,-301,-44,438,158,-230
1,9173760,425,-1364,-497,-1492,-301,-44,438,158,-230
1,9173768,425,-1364,-497,-1492,-301,-44,438,158,-230
1,9173776,425,-1364,-499,-1487,-300,-44,445,169,-231
1,9173783,425,-1364,-499,-1487,-300,-44,445,169,-231
1,9173791,423,-1365,-497,-1488,-300,-45,445,169,-231
1,9173801,423,-1365,-497,-1488,-300,-45,445,169,-231
1,9173811,422,-1365,-500,-1491,-303,-42,445,169,-231
1,9173819,422,-1365,-500,-1491,-303,-42,445,169,-231
1,9173827,422,-1365,-500,-1491,-303,-42,445,169,-231
1,9173835,424,-1364,-502,-1489,-302,-39,445,169,-231
1,9173843,424,-1364,-502,-1489,-302,-39,445,169,-231
1,9173849,424,-1364,-502,-1489,-302,-39,445,169,-231
1,9173855,426,-1362,-495,-1491,-307,-45,445,169,-231
1,9173860,426,-1362,-495,-1491,-307,-45,445,169,-231
1,9173865,426,-1362,-495,-1491,-307,-45,445,169,-231
1,9173871,425,-1364,-496,-1488,-312,-46,445,169,-231
1,9173876,425,-1364,-496,-1488,-312,-46,445,169,-231
1,9173882,425,-1364,-496,-1488,-312,-46,445,169,-231
1,9173889,425,-1364,-496,-1488,-312,-46,445,169,-231
1,9173894,423,-1366,-502,-1488,-301,-42,434,162,-232
1,9173900,423,-1366,-502,-1488,-301,-42,434,162,-232
1,9173907,423,-1366,-502,-1488,-301,-42,434,162,-232
1,9173912,424,-1368,-500,-1490,-305,-43,434,162,-232
1,9173918,424,-1368,-500,-1490,-305,-43,434,162,-232
1,9173924,424,-1368,-500,-1490,-305,-43,434,162,-232
1,9173929,424,-1368,-500,-1490,-305,-43,434,162,-232
1,9173934,424,-1365,-502,-1496,-307,-43,434,162,-232
1,9173940,424,-1365,-502,-1496,-307,-43,434,162,-232
1,9173945,424,-1365,-502,-1496,-307,-43,434,162,-232
1,9173950,424,-1365,-502,-1496,-307,-43,434,162,-232
1,9173955,425,-1366,-501,-1494,-311,-45,434,162,-232
1,9173960,425,-1366,-501,-1494,-311,-45,434,162,-232
1,9173966,425,-1366,-501,-1494,-311,-45,434,162,-232
1,9173972,423,-1366,-495,-1499,-303,-43,434,162,-232
1,9173979,423,-1366,-495,-1499,-303,-43,434,162,-232
1,9173984,423,-1366,-495,-1499,-303,-43,434,162,-232
1,9173990,423,-1366,-495,-1499,-303,-43,434,162,-232
1,9173995,421,-1366,-501,-1485,-301,-41,434,162,-232
1,9174000,421,-1366,-501,-1485,-301,-41,434,162,-232
1,9174006,421,-1366,-501,-1485,-301,-41,434,162,-232
1,9174012,422,-1368,-504,-1486,-306,-37,434,162,-232
1,9174021,422,-1368,-504,-1486,-306,-37,434,162,-232
1,9174027,422,-1368,-504,-1486,-306,-37,434,162,-232
1,9174032,425,-1365,-495,-1492,-302,-39,434,166,-230
1,9174040,425,-1365,-495,-1492,-302,-39,434,166,-230
1,9174047,425,-1365,-495,-1492,-302,-39,434,166,-230
1,9174053,425,-1364,-498,-1489,-295,-42,434,166,-230
1,9174060,425,-1364,-498,-1489,-295,-42,434,166,-230
1,9174067,425,-1364,-498,-1489,-295,-42,434,166,-230
1,9174074,424,-1363,-502,-1492,-302,-43,434,166,-230
1,9174081,424,-1363,-502,-1492,-302,-43,434,166,-230
1,9174089,424,-1363,-502,-1492,-302,-43,434,166,-230
1,9174095,422,-1366,-501,-1495,-312,-41,434,166,-230
1,9174100,422,-1366,-501,-1495,-312,-41,434,166,-230
1,9174106,422,-1366,-501,-1495,-312,-41,434,166,-230
1,9174111,425,-1366,-496,-1485,-307,-39,434,166,-230
1,9174116,425,-1366,-496,-1485,-307,-39,434,166,-230
1,9174122,425,-1366,-496,-1485,-307,-39,434,166,-230
1,9174127,425,-1366,-496,-1485,-307,-39,434,166,-230
1,9174133,422,-1365,-500,-1490,-306,-43,434,166,-230
1,9174141,422,-1365,-500,-1490,-306,-43,434,166,-230
1,9174149,422,-1365,-500,-1490,-306,-43,434,166,-230
1,9174155,423,-1366,-491,-1491,-304,-40,436,166,-224
1,9174162,423,-1366,-491,-1491,-304,-40,436,166,-224
1,9174168,423,-1366,-491,-1491,-304,-40,436,166,-224
1,9174175,425,-1366,-500,-1487,-302,-41,436,166,-224
1,9174182,425,-1366,-500,-1487,-302,-41,436,166,-224
1,9174190,425,-1366,-500,-1487,-302,-41,436,166,-224
1,9174198,423,-1366,-498,-1478,-307,-36,436,166,-224
1,9174205,423,-1366,-498,-1478,-307,-36,436,166,-224
1,9174211,425,-1368,-502,-1486,-305,-38,436,166,-224
1,9174218,425,-1368,-502,-1486,-305,-38,436,166,-224
1,9174225,425,-1368,-502,-1486,-305,-38,436,166,-224
1,9174233,423,-1369,-502,-1494,-303,-38,436,166,-224
1,9174239,423,-1369,-502,-1494,-303,-38,436,166,-224
1,9174245,423,-1369,-502,-1494,-303,-38,436,166,-224
1,9174250,423,-1369,-502,-1494,-303,-38,436,166,-224
1,9174257,426,-1364,-502,-1496,-307,-45,436,166,-224
1,9174265,426,-1364,-502,-1496,-307,-45,436,166,-224
1,9174273,424,-1366,-499,-1492,-307,-39,439,165,-233
1,9174280,424,-1366,-499,-1492,-307,-39,439,165,-233
1,9174287,424,-1366,-499,-1492,-307,-39,439,165,-233
1,9174293,425,-1365,-502,-1495,-308,-41,439,165,-233
1,9174300,425,-1365,-502,-1495,-308,-41,439,165,-233
1,9174307,425,-1365,-502,-1495,-308,-41,439,165,-233
1,9174316,424,-1363,-498,-1487,-302,-39,439,165,-233
1,9174324,424,-1363,-498,-1487,-302,-39,439,165,-233
1,9174330,424,-1363,-498,-1487,-302,-39,439,165,-233
1,9174337,424,-1368,-498,-1494,-293,-37,439,165,-233
1,9174345,424,-1368,-498,-1494,-293,-37,439,165,-233
1,9174350,424,-1368,-498,-1494,-293,-37,439,165,-233
1,9174359,426,-1365,-504,-1492,-298,-37,439,165,-233
1,9174366,426,-1365,-504,-1492,-298,-37,439,165,-233
1,9174373,422,-1364,-496,-1487,-302,-45,439,165,-233
1,9174379,422,-1364,-496,-1487,-302,-45,439,165,-233
1,9174384,422,-1364,-496,-1487,-302,-45,439,165,-233
1,9174392,424,-1365,-498,-1492,-297,-37,440,158,-230
1,9174401,424,-1365,-498,-1492,-297,-37,440,158,-230
1,9174408,424,-1365,-498,-1492,-297,-37,440,158,-230
1,9174415,421,-1365,-499,-1493,-305,-42,440,158,-230
1,9174422,421,-1365,-499,-1493,-305,-42,440,158,-230
1,9174427,421,-1365,-499,-1493,-305,-42,440,158,-230
1,9174433,424,-1364,-500,-1489,-305,-46,440,158,-230
1,9174438,424,-1364,-500,-1489,-305,-46,440,158,-230
1,9174446,424,-1364,-500,-1489,-305,-46,440,158,-230
1,9174451,423,-1364,-500,-1484,-297,-46,440,158,-230
1,9174459,423,-1364,-500,-1484,-297,-46,440,158,-230
1,9174466,423,-1364,-500,-1484,-297,-46,440,158,-230
1,9174474,423,-1364,-500,-1484,-297,-46,440,158,-230
1,9174481,423,-1364,-500,-1484,-297,-46,440,158,-230
1,9174489,423,-1364,-500,-1484,-297,-46,440,158,-230
1,9174495,424,-1365,-498,-1485,-304,-32,440,158,-230
1,9174502,424,-1365,-498,-1485,-304,-32,440,158,-230
1,9174509,424,-1365,-498,-1485,-304,-32,440,158,-230
1,9174515,425,-1367,-499,-1494,-300,-29,440,158,-230
1,9174522,425,-1367,-499,-1494,-300,-29,440,158,-230
1,9174530,425,-1367,-499,-1494,-300,-29,440,158,-230
1,9174537,425,-1366,-497,-1485,-302,-36,438,170,-232
1,9174544,425,-1366,-497,-1485,-302,-36,438,170,-232
1,9174549,425,-1366,-497,-1485,-302,-36,438,170,-232
1,9174557,425,-1367,-500,-1487,-307,-40,438,170,-232
1,9174564,425,-1367,-500,-1487,-307,-40,438,170,-232
1,9174572,424,-1366,-499,-1488,-304,-48,438,170,-232
1,9174579,424,-1366,-499,-1488,-304,-48,438,170,-232
1,9174584,424,-1366,-499,-1488,-304,-48,438,170,-232
1,9174591,426,-1365,-496,-1496,-307,-43,438,170,-232
1,9174598,426,-1365,-496,-1496,-307,-43,438,170,-232
1,9174605,426,-1365,-496,-1496,-307,-43,438,170,-232
1,9174611,426,-1365,-496,-1491,-301,-42,438,170,-232
1,9174618,426,-1365,-496,-1491,-301,-42,438,170,-232
1,9174626,426,-1365,-496,-1491,-301,-42,438,170,-232
1,9174633,424,-1365,-505,-1490,-298,-42,438,170,-232
1,9174638,424,-1365,-505,-1490,-298,-42,438,170,-232
1,9174644,424,-1365,-505,-1490,-298,-42,438,170,-232
1,9174650,424,-1365,-505,-1490,-298,-42,438,170,-232
1,9174658,424,-1368,-500,-1493,-301,-43,437,173,-229
1,9174664,424,-1368,-500,-1493,-301,-43,437,173,-229
1,9174669,424,-1368,-500,-1493,-301,-43,437,173,-229
1,9174677,424,-1368,-500,-1493,-301,-43,437,173,-229
1,9174684,424,-1368,-500,-1493,-301,-43,437,173,-229
1,9174692,421,-1365,-499,-1487,-303,-41,437,173,-229
1,9174699,421,-1365,-499,-1487,-303,-41,437,173,-229
1,9174706,421,-1365,-499,-1487,-303,-41,437,173,-229
1,9174713,425,-1366,-499,-1487,-301,-36,437,173,-229
1,9174721,425,-1366,-499,-1487,-301,-36,437,173,-229
1,9174728,425,-1366,-499,-1487,-301,-36,437,173,-229
1,9174734,421,-1365,-501,-1489,-305,-46,437,173,-229
1,9174743,421,-1365,-501,-1489,-305,-46,437,173,-229
1,9174750,421,-1365,-501,-1489,-305,-46,437,173,-229
1,9174757,425,-1367,-502,-1497,-304,-43,437,173,-229
1,9174764,425,-1367,-502,-1497,-304,-43,437,173,-229
1,9174770,425,-1367,-502,-1497,-304,-43,437,173,-229
1,9174775,424,-1366,-498,-1496,-308,-40,441,171,-227
1,9174780,424,-1366,-498,-1496,-308,-40,441,171,-227
1,9174786,424,-1366,-498,-1496,-308,-40,441,171,-227
1,9174791,424,-1366,-498,-1496,-308,-40,441,171,-227
1,9174796,424,-1368,-501,-1494,-306,-42,441,171,-227
1,9174802,424,-1368,-501,-1494,-306,-42,441,171,-227
1,9174809,424,-1368,-501,-1494,-306,-42,441,171,-227
1,9174815,426,-1364,-500,-1498,-307,-43,441,171,-227
1,9174822,426,-1364,-500,-1498,-307,-43,441,171,-227
1,9174831,426,-1364,-500,-1498,-307,-43,441,171,-227
1,9174836,427,-1367,-494,-1496,-311,-43,441,171,-227
1,9174844,427,-1367,-494,-1496,-311,-43,441,171,-227
1,9174859,426,-1366,-502,-1488,-304,-40,441,171,-227
1,9174871,426,-1366,-502,-1488,-304,-40,441,171,-227
1,9174885,424,-1366,-497,-1493,-298,-46,441,171,-227
1,9174897,425,-1370,-495,-1494,-301,-44,436,164,-232
1,9174910,425,-1370,-495,-1494,-301,-44,436,164,-232
1,9174925,423,-1362,-500,-1493,-300,-43,436,164,-232
1,9174937,426,-1366,-500,-1499,-305,-45,436,164,-232
1,9174949,426,-1366,-500,-1499,-305,-45,436,164,-232
1,9174963,426,-1367,-497,-1492,-300,-37,436,164,-232
1,9174975,423,-1366,-495,-1490,-306,-30,436,164,-232
1,9174987,423,-1366,-495,-1490,-306,-30,436,164,-232
1,9175000,422,-1364,-505,-1491,-302,-34,436,164,-232
1,9175009,422,-1364,-505,-1491,-302,-34,436,164,-232
1,9175017,423,-1365,-503,-1490,-302,-41,436,164,-232
1,9175024,423,-1365,-503,-1490,-302,-41,436,164,-232
1,9175035,428,-1365,-499,-1484,-300,-40,436,172,-232
1,9175048,428,-1365,-499,-1484,-300,-40,436,172,-232
1,9175057,425,-1366,-499,-1487,-303,-33,436,172,-232
1,9175069,425,-1366,-499,-1487,-303,-33,436,172,-232
1,9175085,426,-1366,-500,-1495,-306,-37,436,172,-232
1,9175099,423,-1366,-500,-1492,-304,-35,436,172,-232
1,9175108,423,-1366,-500,-1492,-304,-35,436,172,-232
1,9175116,422,-1364,-498,-1491,-300,-41,436,172,-232
1,9175124,422,-1364,-498,-1491,-300,-41,436,172,-232
1,9175133,422,-1365,-501,-1488,-303,-36,436,172,-232
1,9175141,422,-1365,-501,-1488,-303,-36,436,172,-232
1,9175149,422,-1365,-501,-1488,-303,-36,436,172,-232
1,9175157,423,-1368,-502,-1493,-300,-34,436,160,-230
1,9175165,423,-1368,-502,-1493,-300,-34,436,160,-230
1,9175174,422,-1365,-502,-1486,-302,-48,436,160,-230
1,9175182,422,-1365,-502,-1486,-302,-48,436,160,-230
1,9175190,422,-1365,-502,-1486,-302,-48,436,160,-230
1,9175198,423,-1363,-498,-1489,-307,-43,436,160,-230
1,9175206,423,-1363,-498,-1489,-307,-43,436,160,-230
1,9175215,425,-1363,-500,-1495,-299,-42,436,160,-230
1,9175223,425,-1363,-500,-1495,-299,-42,436,160,-230
1,9175231,425,-1363,-500,-1495,-299,-42,436,160,-230
1,9175239,426,-1367,-500,-1490,-300,-38,436,160,-230
1,9175247,426,-1367,-500,-1490,-300,-38,436,160,-230
1,9175256,426,-1368,-505,-1496,-302,-46,436,160,-230
1,9175263,426,-1368,-505,-1496,-302,-46,436,160,-230
1,9175271,426,-1368,-505,-1496,-302,-46,436,160,-230
1,9175280,427,-1368,-495,-1484,-306,-33,431,167,-231
1,9175289,427,-1368,-495,-1484,-306,-33,431,167,-231
1,9175300,421,-1364,-497,-1486,-305,-42,431,167,-231
1,9175309,421,-1364,-497,-1486,-305,-42,431,167,-231
1,9175317,423,-1366,-497,-1496,-300,-46,431,167,-231
1,9175325,423,-1366,-497,-1496,-300,-46,431,167,-231
1,9175336,424,-1364,-501,-1489,-306,-42,431,167,-231
1,9175349,424,-1364,-501,-1489,-306,-42,431,167,-231
1,9175362,426,-1366,-500,-1493,-302,-44,431,167,-231
1,9175374,424,-1367,-499,-1493,-300,-43,431,167,-231
1,9175386,424,-1367,-499,-1493,-300,-43,431,167,-231
1,9175401,424,-1363,-499,-1494,-300,-43,432,168,-230
1,9175414,422,-1363,-501,-1494,-303,-43,432,168,-230
1,9175425,422,-1363,-501,-1494,-303,-43,432,168,-230
1,9175438,423,-1363,-500,-1491,-306,-38,432,168,-230
1,9175451,423,-1363,-500,-1491,-306,-38,432,168,-230
1,9175464,422,-1366,-502,-1490,-302,-44,432,168,-230
1,9175475,425,-1367,-498,-1489,-305,-36,432,168,-230
1,9175489,425,-1367,-498,-1489,-305,-36,432,168,-230
1,9175502,425,-1367,-499,-1497,-308,-41,432,168,-230
1,9175516,422,-1365,-499,-1488,-308,-43,438,160,-222
1,9175525,422,-1365,-499,-1488,-308,-43,438,160,-222
1,9175537,424,-1366,-495,-1488,-298,-38,438,160,-222
1,9175547,424,-1366,-495,-1488,-298,-38,438,160,-222
1,9175560,419,-1365,-500,-1488,-301,-42,438,160,-222
1,9175570,419,-1365,-500,-1488,-301,-42,438,160,-222
1,9175580,424,-1369,-501,-1491,-304,-37,438,160,-222
1,9175588,424,-1369,-501,-1491,-304,-37,438,160,-222
1,9175597,422,-1364,-502,-1488,-300,-38,438,160,-222
1,9175607,422,-1364,-502,-1488,-300,-38,438,160,-222
1,9175621,423,-1366,-505,-1492,-303,-34,438,160,-222
1,9175635,424,-1368,-500,-1493,-305,-34,438,160,-222
1,9175645,424,-1368,-500,-1493,-305,-34,438,160,-222
1,9175656,424,-1366,-494,-1490,-300,-48,437,169,-231
1,9175671,424,-1366,-494,-1490,-300,-48,437,169,-231
1,9175686,424,-1368,-499,-1495,-308,-36,437,169,-231
1,9175694,425,-1367,-506,-1491,-303,-42,437,169,-231
1,9175706,425,-1367,-506,-1491,-303,-42,437,169,-231
1,9175718,425,-1368,-495,-1490,-295,-40,437,169,-231
1,9175732,425,-1366,-504,-1493,-303,-36,437,169,-231
1,9175742,425,-1366,-504,-1493,-303,-36,437,169,-231
1,9175754,427,-1361,-499,-1492,-302,-36,437,169,-231
1,9175768,427,-1361,-499,-1492,-302,-36,437,169,-231
1,9175776,424,-1364,-495,-1491,-303,-40,436,166,-228
1,9175784,424,-1364,-495,-1491,-303,-40,436,166,-228
1,9175791,420,-1365,-499,-1492,-298,-38,436,166,-228
1,9175799,420,-1365,-499,-1492,-298,-38,436,166,-228
1,9175811,420,-1365,-499,-1492,-298,-38,436,166,-228
1,9175820,423,-1364,-499,-1488,-302,-43,436,166,-228
1,9175829,423,-1364,-499,-1488,-302,-43,436,166,-228
1,9175837,423,-1365,-500,-1494,-300,-41,436,166,-228
1,9175849,423,-1365,-500,-1494,-300,-41,436,166,-228
1,9175859,426,-1365,-503,-1495,-308,-41,436,166,-228
1,9175867,426,-1365,-503,-1495,-308,-41,436,166,-228
1,9175875,424,-1366,-498,-1494,-310,-45,436,166,-228
1,9175882,424,-1366,-498,-1494,-310,-45,436,166,-228
1,9175890,424,-1366,-498,-1494,-310,-45,436,166,-228
1,9175899,421,-1366,-497,-1492,-306,-48,440,164,-224
1,9175905,421,-1366,-497,-1492,-306,-48,440,164,-224
1,9175912,425,-1367,-499,-1495,-300,-39,440,164,-224
1,9175918,425,-1367,-499,-1495,-300,-39,440,164,-224
1,9175925,425,-1367,-499,-1495,-300,-39,440,164,-224
1,9175932,425,-1368,-498,-1491,-299,-42,440,164,-224
1,9175940,425,-1368,-498,-1491,-299,-42,440,164,-224
1,9175946,425,-1368,-498,-1491,-299,-42,440,164,-224
1,9175953,426,-1368,-499,-1486,-301,-47,440,164,-224
1,9175959,426,-1368,-499,-1486,-301,-47,440,164,-224
1,9175966,426,-1368,-499,-1486,-301,-47,440,164,-224
1,9175974,424,-1367,-499,-1487,-297,-40,440,164,-224
1,9175983,424,-1367,-499,-1487,-297,-40,440,164,-224
1,9175989,424,-1367,-499,-1487,-297,-40,440,164,-224
1,9175994,424,-1368,-492,-1486,-304,-40,440,164,-224
1,9176000,424,-1368,-492,-1486,-304,-40,440,164,-224
1,9176007,424,-1368,-492,-1486,-304,-40,440,164,-224
1,9176012,425,-1365,-501,-1486,-298,-39,431,169,-231
1,9176019,425,-1365,-501,-1486,-298,-39,431,169,-231
1,9176026,425,-1365,-501,-1486,-298,-39,431,169,-231
1,9176031,425,-1365,-501,-1486,-298,-39,431,169,-231
1,9176040,424,-1364,-498,-1494,-307,-36,431,169,-231
1,9176047,424,-1364,-498,-1494,-307,-36,431,169,-231
1,9176054,425,-1362,-500,-1494,-309,-37,431,169,-231
1,9176061,425,-1362,-500,-1494,-309,-37,431,169,-231
1,9176069,425,-1362,-500,-1494,-309,-37,431,169,-231
1,9176076,421,-1363,-505,-1491,-301,-36,431,169,-231
1,9176082,421,-1363,-505,-1491,-301,-36,431,169,-231
1,9176089,421,-1363,-505,-1491,-301,-36,431,169,-231
1,9176096,422,-1367,-501,-1491,-303,-38,431,169,-231
1,9176101,422,-1367,-501,-1491,-303,-38,431,169,-231
1,9176107,422,-1367,-501,-1491,-303,-38,431,169,-231
1,9176113,425,-1364,-500,-1481,-303,-35,431,169,-231
1,9176118,425,-1364,-500,-1481,-303,-35,431,169,-231
1,9176123,425,-1364,-500,-1481,-303,-35,431,169,-231
1,9176128,425,-1364,-500,-1481,-303,-35,431,169,-231
1,9176133,423,-1365,-499,-1484,-300,-36,431,169,-231
1,9176138,423,-1365,-499,-1484,-300,-36,431,169,-231
1,9176144,423,-1365,-499,-1484,-300,-36,431,169,-231
1,9176153,427,-1366,-497,-1493,-304,-37,441,159,-245
1,9176160,427,-1366,-497,-1493,-304,-37,441,159,-245
1,9176166,427,-1366,-497,-1493,-304,-37,441,159,-245
1,9176173,424,-1367,-498,-1490,-306,-38,441,159,-245
1,9176179,424,-1367,-498,-1490,-306,-38,441,159,-245
1,9176186,424,-1367,-498,-1490,-306,-38,441,159,-245
1,9176192,426,-1364,-495,-1487,-302,-36,441,159,-245
1,9176200,426,-1364,-495,-1487,-302,-36,441,159,-245
1,9176207,426,-1364,-495,-1487,-302,-36,441,159,-245
1,9176214,426,-1366,-504,-1490,-310,-48,441,159,-245
1,9176222,426,-1366,-504,-1490,-310,-48,441,159,-245
1,9176227,426,-1366,-504,-1490,-310,-48,441,159,-245
1,9176236,424,-1367,-501,-1488,-309,-40,441,159,-245
1,9176244,424,-1367,-501,-1488,-309,-40,441,159,-245
1,9176252,424,-1367,-501,-1488,-306,-37,441,159,-245
1,9176259,424,-1367,-501,-1488,-306,-37,441,159,-245
1,9176265,424,-1367,-501,-1488,-306,-37,441,159,-245
1,9176273,427,-1367,-495,-1491,-304,-41,435,157,-223
1,9176280,427,-1367,-495,-1491,-304,-41,435,157,-223
1,9176287,427,-1367,-495,-1491,-304,-41,435,157,-223
1,9176294,424,-1365,-497,-1496,-303,-46,435,157,-223
1,9176302,424,-1365,-497,-1496,-303,-46,435,157,-223
1,9176308,424,-1365,-497,-1496,-303,-46,435,157,-223
1,9176313,425,-1364,-503,-1490,-302,-38,435,157,-223
1,9176322,425,-1364,-503,-1490,-302,-38,435,157,-223
1,9176330,425,-1364,-503,-1490,-302,-38,435,157,-223
1,9176335,424,-1366,-503,-1493,-301,-41,435,157,-223
1,9176341,424,-1366,-503,-1493,-301,-41,435,157,-223
1,9176348,424,-1366,-503,-1493,-301,-41,435,157,-223
1,9176355,425,-1365,-499,-1487,-308,-46,435,157,-223
1,9176361,425,-1365,-499,-1487,-308,-46,435,157,-223
1,9176369,425,-1365,-499,-1487,-308,-46,435,157,-223
1,9176376,423,-1364,-502,-1487,-302,-43,435,157,-223
1,9176383,423,-1364,-502,-1487,-302,-43,435,157,-223
1,9176389,423,-1364,-502,-1487,-302,-43,435,157,-223
1,9176397,425,-1364,-494,-1490,-302,-37,440,162,-228
1,9176403,425,-1364,-494,-1490,-302,-37,440,162,-228
1,9176411,425,-1364,-494,-1490,-302,-37,440,162,-228
1,9176419,426,-1366,-496,-1496,-300,-37,440,162,-228
1,9176426,426,-1366,-496,-1496,-300,-37,440,162,-228
1,9176433,428,-1364,-498,-1496,-299,-46,440,162,-228
1,9176440,428,-1364,-498,-1496,-299,-46,440,162,-228
1,9176445,428,-1364,-498,-1496,-299,-46,440,162,-228
1,9176454,425,-1366,-498,-1485,-303,-42,440,162,-228
1,9176461,425,-1366,-498,-1485,-303,-42,440,162,-228
1,9176468,425,-1366,-498,-1485,-303,-42,440,162,-228
1,9176476,424,-1365,-502,-1494,-300,-44,440,162,-228
1,9176483,424,-1365,-502,-1494,-300,-44,440,162,-228
1,9176492,422,-1365,-498,-1489,-298,-40,440,162,-228
1,9176499,422,-1365,-498,-1489,-298,-40,440,162,-228
1,9176506,422,-1365,-498,-1489,-298,-40,440,162,-228
1,9176511,423,-1363,-504,-1492,-305,-37,440,162,-228
1,9176519,423,-1363,-504,-1492,-305,-37,432,166,-232
1,9176526,423,-1363,-504,-1492,-305,-37,432,166,-232
1,9176535,426,-1364,-502,-1495,-303,-35,432,166,-232
1,9176542,426,-1364,-502,-1495,-303,-35,432,166,-232
1,9176549,426,-1364,-502,-1495,-303,-35,432,166,-232
1,9176556,424,-1368,-500,-1497,-299,-45,432,166,-232
1,9176564,424,-1368,-500,-1497,-299,-45,432,166,-232
1,9176569,424,-1368,-500,-1497,-299,-45,432,166,-232
1,9176574,423,-1365,-498,-1491,-304,-43,432,166,-232
1,9176580,423,-1365,-498,-1491,-304,-43,432,166,-232
