imu,time,ax,ay,az,gx,gy,gz,mx,my,mz
0,5686404,197,-1875,-384,-1032,-561,-324,257,143,-443
0,5686412,197,-1875,-384,-1032,-561,-324,257,143,-443
0,5686420,199,-1878,-382,-1024,-564,-327,257,143,-443
0,5686427,199,-1878,-382,-1024,-564,-327,257,143,-443
0,5686435,198,-1873,-384,-1024,-561,-322,257,143,-443
0,5686443,198,-1873,-384,-1024,-561,-322,257,143,-443
0,5686451,198,-1873,-384,-1024,-561,-322,257,143,-443
0,5686460,198,-1875,-387,-1023,-569,-317,257,143,-443
0,5686467,198,-1875,-387,-1023,-569,-317,257,143,-443
0,5686475,197,-1874,-383,-1020,-567,-321,261,145,-447
0,5686483,197,-1874,-383,-1020,-567,-321,261,145,-447
0,5686492,197,-1874,-383,-1020,-567,-321,261,145,-447
0,5686500,197,-1874,-384,-1027,-570,-332,261,145,-447
0,5686507,197,-1874,-384,-1027,-570,-332,261,145,-447
0,5686515,196,-1875,-381,-1027,-562,-323,261,145,-447
0,5686522,196,-1875,-381,-1027,-562,-323,261,145,-447
0,5686530,196,-1875,-381,-1027,-562,-323,261,145,-447
0,5686538,197,-1877,-387,-1026,-563,-325,261,145,-447
0,5686547,197,-1877,-387,-1026,-563,-325,261,145,-447
0,5686554,200,-1872,-385,-1028,-563,-333,261,145,-447
0,5686562,200,-1872,-385,-1028,-563,-333,261,145,-447
0,5686569,200,-1872,-385,-1028,-563,-333,261,145,-447
0,5686578,202,-1874,-381,-1035,-560,-326,261,145,-447
0,5686585,202,-1874,-381,-1035,-560,-326,261,145,-447
0,5686592,199,-1873,-383,-1031,-565,-329,261,145,-447
0,5686600,199,-1873,-383,-1031,-565,-329,261,145,-447
0,5686608,199,-1873,-383,-1031,-565,-329,261,145,-447
0,5686616,199,-1876,-375,-1026,-565,-330,264,150,-448
0,5686624,199,-1876,-375,-1026,-565,-330,264,150,-448
0,5686630,199,-1876,-375,-1026,-565,-330,264,150,-448
0,5686638,198,-1875,-382,-1024,-567,-341,264,150,-448
0,5686647,198,-1875,-382,-1024,-567,-341,264,150,-448
0,5686656,201,-1876,-382,-1024,-561,-320,264,150,-448
0,5686665,201,-1876,-382,-1024,-561,-320,264,150,-448
0,5686673,203,-1874,-382,-1027,-567,-328,264,150,-448
0,5686682,203,-1874,-382,-1027,-567,-328,264,150,-448
0,5686691,203,-1874,-382,-1027,-567,-328,264,150,-448
0,5686700,197,-1871,-388,-1028,-565,-324,264,150,-448
0,5686709,197,-1871,-388,-1028,-565,-324,264,150,-448
0,5686717,200,-1872,-383,-1020,-561,-324,264,150,-448
0,5686729,200,-1872,-383,-1020,-561,-324,264,150,-448
0,5686742,198,-1872,-384,-1029,-564,-323,264,156,-440
0,5686755,198,-1873,-381,-1028,-574,-324,264,156,-440
0,5686768,198,-1873,-381,-1028,-574,-324,264,156,-440
0,5686777,200,-1875,-382,-1025,-565,-325,264,156,-440
0,5686796,197,-1874,-385,-1026,-563,-329,264,156,-440
0,5686808,197,-1874,-385,-1026,-563,-329,264,156,-440
0,5686819,200,-1874,-386,-1021,-562,-329,264,156,-440
0,5686831,200,-1874,-386,-1021,-562,-329,264,156,-440
0,5686844,201,-1875,-380,-1016,-565,-321,264,156,-440
0,5686856,196,-1874,-386,-1026,-565,-327,264,156,-440
0,5686868,196,-1874,-386,-1026,-565,-327,264,156,-440
0,5686881,199,-1875,-382,-1028,-560,-323,252,146,-444
0,5686893,198,-1875,-383,-1020,-561,-332,252,146,-444
0,5686905,198,-1875,-383,-1020,-561,-332,252,146,-444
0,5686919,199,-1877,-390,-1020,-566,-331,252,146,-444
0,5686928,199,-1877,-390,-1020,-566,-331,252,146,-444
0,5686940,197,-1872,-383,-1023,-563,-327,252,146,-444
0,5686953,199,-1873,-384,-1021,-560,-326,252,146,-444
0,5686962,199,-1873,-384,-1021,-560,-326,252,146,-444
0,5686970,199,-1873,-384,-1021,-560,-326,252,146,-444
0,5686978,199,-1875,-385,-1022,-557,-332,252,146,-444
0,5686987,199,-1875,-385,-1022,-557,-332,252,146,-444
0,5686995,201,-1874,-378,-1018,-562,-327,263,141,-443
0,5687004,201,-1874,-378,-1018,-562,-327,263,141,-443
0,5687010,201,-1874,-378,-1018,-562,-327,263,141,-443
0,5687015,198,-1877,-379,-1023,-569,-328,263,141,-443
0,5687020,198,-1877,-379,-1023,-569,-328,263,141,-443
0,5687025,198,-1877,-379,-1023,-569,-328,263,141,-443
0,5687031,198,-1877,-379,-1023,-569,-328,263,141,-443
0,5687037,197,-1874,-378,-1022,-566,-329,263,141,-443
0,5687043,197,-1874,-378,-1022,-566,-329,263,141,-443
0,5687049,197,-1874,-378,-1022,-566,-329,263,141,-443
0,5687055,197,-1875,-386,-1027,-567,-325,263,141,-443
0,5687062,197,-1875,-386,-1027,-567,-325,263,141,-443
0,5687068,197,-1875,-386,-1027,-567,-325,263,141,-443
0,5687074,197,-1874,-385,-1033,-561,-328,263,141,-443
0,5687080,197,-1874,-385,-1033,-561,-328,263,141,-443
0,5687086,197,-1874,-385,-1033,-561,-328,263,141,-443
0,5687093,197,-1874,-385,-1033,-561,-328,263,141,-443
0,5687100,198,-1875,-385,-1025,-556,-330,263,141,-443
0,5687107,198,-1875,-385,-1025,-556,-330,263,141,-443
0,5687115,200,-1877,-381,-1028,-571,-328,259,141,-453
0,5687122,200,-1877,-381,-1028,-571,-328,259,141,-453
0,5687130,200,-1877,-381,-1028,-571,-328,259,141,-453
0,5687136,200,-1876,-377,-1021,-566,-327,259,141,-453
0,5687143,200,-1876,-377,-1021,-566,-327,259,141,-453
0,5687150,200,-1876,-377,-1021,-566,-327,259,141,-453
0,5687158,200,-1874,-384,-1022,-569,-322,259,141,-453
0,5687164,200,-1874,-384,-1022,-569,-322,259,141,-453
0,5687172,200,-1874,-384,-1022,-569,-322,259,141,-453
0,5687177,197,-1874,-384,-1026,-558,-320,259,141,-453
0,5687185,197,-1874,-384,-1026,-558,-320,259,141,-453
0,5687192,197,-1874,-384,-1026,-558,-320,259,141,-453
0,5687200,199,-1872,-387,-1020,-563,-327,259,141,-453
0,5687208,199,-1872,-387,-1020,-563,-327,259,141,-453
0,5687216,204,-1873,-383,-1021,-559,-328,259,141,-453
0,5687224,204,-1873,-383,-1021,-559,-328,259,141,-453
0,5687229,204,-1873,-383,-1021,-559,-328,259,141,-453
0,5687235,200,-1872,-387,-1030,-562,-332,259,141,-453
0,5687242,200,-1872,-387,-1030,-562,-332,259,141,-453
0,5687250,200,-1872,-387,-1030,-562,-332,259,141,-453
0,5687257,198,-1874,-378,-1026,-567,-328,257,141,-445
0,5687264,198,-1874,-378,-1026,-567,-328,257,141,-445
0,5687272,198,-1874,-378,-1026,-567,-328,257,141,-445
0,5687279,201,-1875,-385,-1026,-568,-324,257,141,-445
0,5687286,201,-1875,-385,-1026,-568,-324,257,141,-445
0,5687294,199,-1872,-382,-1025,-566,-324,257,141,-445
0,5687302,199,-1872,-382,-1025,-566,-324,257,141,-445
0,5687308,199,-1872,-382,-1025,-566,-324,257,141,-445
0,5687313,199,-1875,-383,-1029,-568,-324,257,141,-445
0,5687321,199,-1875,-383,-1029,-568,-324,257,141,-445
0,5687327,199,-1875,-383,-1029,-568,-324,257,141,-445
0,5687335,199,-1875,-380,-1024,-571,-327,257,141,-445
0,5687343,199,-1875,-380,-1024,-571,-327,257,141,-445
0,5687350,199,-1875,-380,-1024,-571,-327,257,141,-445
0,5687358,198,-1874,-385,-1020,-570,-325,257,141,-445
0,5687363,198,-1874,-385,-1020,-570,-325,257,141,-445
0,5687370,198,-1874,-385,-1020,-570,-325,257,141,-445
0,5687377,199,-1877,-379,-1022,-571,-325,263,151,-447
0,5687385,199,-1877,-379,-1022,-571,-325,263,151,-447
0,5687392,199,-1877,-379,-1022,-571,-325,263,151,-447
0,5687398,197,-1873,-381,-1021,-561,-328,263,151,-447
0,5687406,197,-1873,-381,-1021,-561,-328,263,151,-447
0,5687411,197,-1873,-381,-1021,-561,-328,263,151,-447
0,5687416,200,-1874,-380,-1022,-563,-327,263,151,-447
0,5687421,200,-1874,-380,-1022,-563,-327,263,151,-447
0,5687428,200,-1874,-380,-1022,-563,-327,263,151,-447
0,5687435,198,-1875,-386,-1025,-567,-325,263,151,-447
0,5687442,198,-1875,-386,-1025,-567,-325,263,151,-447
0,5687447,198,-1875,-386,-1025,-567,-325,263,151,-447
0,5687454,197,-1873,-382,-1021,-570,-325,263,151,-447
0,5687460,197,-1873,-382,-1021,-570,-325,263,151,-447
0,5687465,197,-1873,-382,-1021,-570,-325,263,151,-447
0,5687472,197,-1873,-382,-1021,-570,-325,263,151,-447
0,5687477,198,-1875,-378,-1020,-572,-331,263,151,-447
0,5687482,198,-1875,-378,-1020,-572,-331,263,151,-447
0,5687490,198,-1875,-378,-1020,-572,-331,263,151,-447
0,5687498,201,-1874,-385,-1030,-574,-337,263,151,-447
0,5687505,201,-1874,-385,-1030,-574,-337,263,151,-447
0,5687512,201,-1874,-385,-1030,-574,-337,263,151,-447
0,5687520,199,-1875,-377,-1025,-571,-333,252,144,-440
0,5687525,199,-1875,-377,-1025,-571,-333,252,144,-440
0,5687532,199,-1875,-377,-1025,-571,-333,252,144,-440
0,5687537,199,-1876,-378,-1019,-570,-335,252,144,-440
0,5687542,199,-1876,-378,-1019,-570,-335,252,144,-440
0,5687547,199,-1876,-378,-1019,-570,-335,252,144,-440
0,5687553,199,-1876,-378,-1019,-570,-335,252,144,-440
0,5687558,201,-1875,-384,-1033,-566,-316,252,144,-440
0,5687566,201,-1875,-384,-1033,-566,-316,252,144,-440
0,5687572,201,-1875,-384,-1033,-566,-316,252,144,-440
0,5687580,198,-1874,-386,-1027,-565,-326,252,144,-440
0,5687587,198,-1874,-386,-1027,-565,-326,252,144,-440
0,5687595,198,-1874,-386,-1027,-565,-326,252,144,-440
0,5687602,198,-1874,-386,-1027,-565,-326,252,144,-440
0,5687609,198,-1874,-386,-1027,-565,-326,252,144,-440
0,5687616,198,-1869,-380,-1028,-567,-326,252,144,-440
0,5687621,198,-1869,-380,-1028,-567,-326,252,144,-440
0,5687627,198,-1869,-380,-1028,-567,-326,252,144,-440
0,5687636,200,-1875,-382,-1023,-559,-330,260,144,-442
0,5687644,200,-1875,-382,-1023,-559,-330,260,144,-442
0,5687650,200,-1875,-382,-1023,-559,-330,260,144,-442
0,5687657,199,-1877,-383,-1032,-571,-329,260,144,-442
0,5687665,199,-1877,-383,-1032,-571,-329,260,144,-442
0,5687672,199,-1877,-383,-1032,-571,-329,260,144,-442
0,5687678,198,-1873,-383,-1027,-567,-324,260,144,-442
0,5687687,198,-1873,-383,-1027,-567,-324,260,144,-442
0,5687695,200,-1873,-389,-1028,-564,-330,260,144,-442
0,5687702,200,-1873,-389,-1028,-564,-330,260,144,-442
0,5687710,200,-1873,-389,-1028,-564,-330,260,144,-442
0,5687716,198,-1874,-386,-1024,-569,-327,260,144,-442
0,5687724,198,-1874,-386,-1024,-569,-327,260,144,-442
0,5687732,198,-1874,-386,-1024,-569,-327,260,144,-442
0,5687739,199,-1874,-381,-1022,-564,-333,260,144,-442
0,5687745,199,-1874,-381,-1022,-564,-333,260,144,-442
0,5687753,199,-1874,-381,-1022,-564,-333,260,144,-442
0,5687759,199,-1876,-384,-1023,-561,-333,260,144,-442
0,5687767,199,-1876,-384,-1023,-561,-333,260,144,-442
0,5687775,199,-1875,-385,-1020,-566,-328,260,144,-438
0,5687782,199,-1875,-385,-1020,-566,-328,260,144,-438
0,5687788,199,-1875,-385,-1020,-566,-328,260,144,-438
0,5687794,203,-1875,-382,-1032,-566,-330,260,144,-438
0,5687799,203,-1875,-382,-1032,-566,-330,260,144,-438
0,5687805,203,-1875,-382,-1032,-566,-330,260,144,-438
0,5687813,203,-1875,-382,-1032,-566,-330,260,144,-438
0,5687820,199,-1873,-388,-1023,-570,-334,260,144,-438
0,5687827,199,-1873,-388,-1023,-570,-334,260,144,-438
0,5687834,199,-1875,-384,-1019,-567,-323,260,144,-438
0,5687841,199,-1875,-384,-1019,-567,-323,260,144,-438
0,5687846,199,-1875,-384,-1019,-567,-323,260,144,-438
0,5687855,198,-1876,-383,-1026,-565,-327,260,144,-438
0,5687862,198,-1876,-383,-1026,-565,-327,260,144,-438
0,5687870,198,-1876,-383,-1026,-565,-327,260,144,-438
0,5687878,200,-1873,-381,-1029,-564,-329,260,144,-438
0,5687886,200,-1873,-381,-1029,-564,-329,260,144,-438
0,5687892,200,-1873,-381,-1029,-564,-329,260,144,-438
0,5687899,198,-1875,-382,-1031,-570,-327,259,149,-443
0,5687906,198,-1875,-382,-1031,-570,-327,259,149,-443
0,5687912,198,-1875,-382,-1031,-570,-327,259,149,-443
0,5687920,197,-1871,-382,-1023,-568,-325,259,149,-443
0,5687927,197,-1871,-382,-1023,-568,-325,259,149,-443
0,5687934,201,-1875,-384,-1025,-567,-333,259,149,-443
0,5687942,201,-1875,-384,-1025,-567,-333,259,149,-443
0,5687949,201,-1875,-384,-1025,-567,-333,259,149,-443
0,5687956,199,-1872,-383,-1025,-564,-331,259,149,-443
0,5687962,199,-1872,-383,-1025,-564,-331,259,149,-443
0,5687968,199,-1872,-383,-1025,-564,-331,259,149,-443
0,5687974,198,-1874,-384,-1031,-560,-323,259,149,-443
0,5687980,198,-1874,-384,-1031,-560,-323,259,149,-443
0,5687985,198,-1874,-384,-1031,-560,-323,259,149,-443
0,5687991,198,-1874,-384,-1031,-560,-323,259,149,-443
0,5687995,196,-1877,-386,-1023,-560,-320,259,149,-443
0,5688000,196,-1877,-386,-1023,-560,-320,259,149,-443
0,5688005,196,-1877,-386,-1023,-560,-320,259,149,-443
0,5688010,196,-1877,-386,-1023,-560,-320,259,149,-443
0,5688018,198,-1876,-386,-1027,-567,-327,252,144,-446
0,5688027,198,-1876,-386,-1027,-567,-327,252,144,-446
0,5688035,198,-1877,-385,-1026,-569,-330,252,144,-446
0,5688047,198,-1877,-385,-1026,-569,-330,252,144,-446
0,5688062,200,-1876,-386,-1023,-566,-330,252,144,-446
0,5688074,200,-1876,-386,-1023,-566,-330,252,144,-446
0,5688083,200,-1875,-378,-1028,-567,-330,252,144,-446
0,5688096,198,-1879,-382,-1020,-567,-326,252,144,-446
0,5688109,198,-1879,-382,-1020,-567,-326,252,144,-446
0,5688122,198,-1875,-382,-1026,-564,-324,252,144,-446
0,5688134,198,-1875,-382,-1026,-564,-324,252,144,-446
0,5688148,201,-1873,-388,-1026,-567,-324,252,144,-446
0,5688161,198,-1876,-383,-1027,-569,-327,256,148,-446
0,5688174,197,-1873,-378,-1028,-562,-326,256,148,-446
0,5688188,197,-1873,-378,-1028,-562,-326,256,148,-446
0,5688200,198,-1872,-378,-1021,-568,-324,256,148,-446
0,5688212,198,-1872,-378,-1021,-568,-324,256,148,-446
0,5688226,198,-1872,-382,-1025,-563,-325,256,148,-446
0,5688239,197,-1874,-384,-1029,-563,-324,256,148,-446
0,5688250,197,-1874,-384,-1029,-563,-324,256,148,-446
0,5688263,199,-1871,-387,-1038,-564,-318,256,148,-446
0,5688276,198,-1877,-381,-1034,-573,-326,256,140,-446
0,5688289,198,-1877,-381,-1034,-573,-326,256,140,-446
0,5688300,199,-1875,-382,-1024,-573,-328,256,140,-446
0,5688313,199,-1875,-382,-1024,-573,-328,256,140,-446
0,5688327,200,-1876,-383,-1029,-565,-325,256,140,-446
0,5688340,198,-1876,-378,-1033,-565,-330,256,140,-446
0,5688351,198,-1876,-378,-1033,-565,-330,256,140,-446
0,5688363,199,-1875,-386,-1037,-561,-321,256,140,-446
0,5688373,199,-1875,-386,-1037,-561,-321,256,140,-446
0,5688382,199,-1872,-385,-1019,-567,-324,256,140,-446
0,5688395,200,-1875,-383,-1031,-574,-322,256,140,-446
0,5688412,200,-1875,-383,-1031,-574,-322,256,140,-446
0,5688421,198,-1874,-382,-1025,-565,-322,258,144,-444
0,5688432,198,-1874,-382,-1025,-565,-322,258,144,-444
0,5688446,201,-1874,-383,-1034,-563,-330,258,144,-444
0,5688461,198,-1875,-383,-1017,-567,-322,258,144,-444
0,5688471,198,-1875,-383,-1017,-567,-322,258,144,-444
0,5688482,201,-1874,-385,-1029,-564,-322,258,144,-444
0,5688496,197,-1875,-385,-1025,-560,-327,258,144,-444
0,5688509,197,-1875,-385,-1025,-560,-327,258,144,-444
0,5688519,202,-1875,-387,-1025,-559,-323,258,144,-444
0,5688532,202,-1875,-387,-1025,-559,-323,258,144,-444
0,5688541,200,-1872,-381,-1021,-563,-324,260,148,-442
0,5688549,200,-1872,-381,-1021,-563,-324,260,148,-442
0,5688556,201,-1875,-379,-1021,-570,-330,260,148,-442
0,5688564,201,-1875,-379,-1021,-570,-330,260,148,-442
0,5688573,201,-1875,-379,-1021,-570,-330,260,148,-442
0,5688583,198,-1874,-384,-1031,-563,-324,260,148,-442
0,5688591,198,-1874,-384,-1031,-563,-324,260,148,-442
0,5688599,199,-1872,-380,-1036,-565,-331,260,148,-442
0,5688606,199,-1872,-380,-1036,-565,-331,260,148,-442
0,5688614,198,-1872,-380,-1032,-574,-326,260,148,-442
0,5688630,198,-1872,-380,-1032,-574,-326,260,148,-442
0,5688641,201,-1874,-384,-1034,-572,-326,260,148,-442
0,5688651,201,-1874,-384,-1034,-572,-326,260,148,-442
0,5688666,199,-1873,-381,-1027,-562,-324,260,148,-442
0,5688681,202,-1878,-384,-1028,-559,-330,263,143,-449
0,5688690,202,-1878,-384,-1028,-559,-330,263,143,-449
0,5688701,198,-1876,-385,-1029,-564,-333,263,143,-449
0,5688717,201,-1875,-380,-1022,-570,-324,263,143,-449
0,5688729,201,-1875,-380,-1022,-570,-324,263,143,-449
0,5688738,201,-1875,-380,-1022,-570,-324,263,143,-449
0,5688751,201,-1875,-380,-1022,-570,-324,263,143,-449
0,5688764,200,-1873,-387,-1019,-567,-327,263,143,-449
0,5688776,198,-1872,-383,-1034,-565,-333,263,143,-449
0,5688786,198,-1872,-383,-1034,-565,-333,263,143,-449
0,5688798,198,-1873,-374,-1025,-564,-326,256,146,-452
0,5688808,198,-1873,-374,-1025,-564,-326,256,146,-452
0,5688818,199,-1874,-377,-1024,-561,-325,256,146,-452
0,5688832,199,-1874,-377,-1024,-561,-325,256,146,-452
0,5688844,199,-1873,-386,-1028,-564,-324,256,146,-452
0,5688854,199,-1873,-386,-1028,-564,-324,256,146,-452
0,5688867,197,-1869,-381,-1028,-568,-324,256,146,-452
0,5688882,200,-1871,-381,-1027,-566,-323,256,146,-452
0,5688893,200,-1871,-381,-1027,-566,-323,256,146,-452
0,5688904,200,-1872,-382,-1024,-564,-319,256,146,-452
0,5688916,197,-1874,-378,-1025,-572,-321,263,147,-447
0,5688931,197,-1874,-378,-1025,-572,-321,263,147,-447
0,5688943,198,-1872,-385,-1031,-569,-324,263,147,-447
0,5688954,198,-1872,-385,-1031,-569,-324,263,147,-447
0,5688967,199,-1876,-377,-1020,-565,-321,263,147,-447
0,5688975,199,-1876,-377,-1020,-565,-321,263,147,-447
0,5688983,200,-1875,-382,-1026,-569,-325,263,147,-447
0,5688991,200,-1875,-382,-1026,-569,-325,263,147,-447
0,5688998,197,-1873,-387,-1025,-567,-315,263,147,-447
0,5689007,197,-1873,-387,-1025,-567,-315,263,147,-447
0,5689015,197,-1873,-387,-1025,-567,-315,263,147,-447
0,5689023,198,-1878,-386,-1024,-565,-325,263,147,-447
0,5689028,198,-1878,-386,-1024,-565,-325,263,147,-447
0,5689033,198,-1878,-386,-1024,-565,-325,263,147,-447
0,5689039,196,-1876,-387,-1026,-569,-328,263,147,-447
0,5689047,196,-1876,-387,-1026,-569,-328,263,147,-447
0,5689053,196,-1876,-387,-1026,-569,-328,263,147,-447
0,5689059,199,-1875,-380,-1024,-560,-329,262,148,-444
0,5689067,199,-1875,-380,-1024,-560,-329,262,148,-444
0,5689073,199,-1875,-380,-1024,-560,-329,262,148,-444
0,5689080,200,-1876,-387,-1028,-567,-333,262,148,-444
0,5689089,200,-1876,-387,-1028,-567,-333,262,148,-444
0,5689096,200,-1875,-390,-1022,-564,-329,262,148,-444
0,5689103,200,-1875,-390,-1022,-564,-329,262,148,-444
0,5689111,200,-1875,-390,-1022,-564,-329,262,148,-444
0,5689117,199,-1874,-380,-1018,-559,-322,262,148,-444
0,5689125,199,-1874,-380,-1018,-559,-322,262,148,-444
0,5689132,199,-1874,-380,-1018,-559,-322,262,148,-444
0,5689138,201,-1873,-387,-1023,-564,-322,262,148,-444
0,5689146,201,-1873,-387,-1023,-564,-322,262,148,-444
0,5689155,201,-1873,-387,-1023,-564,-322,262,148,-444
0,5689162,201,-1874,-382,-1026,-568,-327,262,148,-444
0,5689169,201,-1874,-382,-1026,-568,-327,262,148,-444
0,5689177,198,-1873,-381,-1025,-571,-324,253,151,-437
0,5689184,198,-1873,-381,-1025,-571,-324,253,151,-437
0,5689191,198,-1873,-381,-1025,-571,-324,253,151,-437
0,5689196,201,-1873,-384,-1023,-567,-329,253,151,-437
0,5689201,201,-1873,-384,-1023,-567,-329,253,151,-437
0,5689208,201,-1873,-384,-1023,-567,-329,253,151,-437
0,5689214,201,-1873,-384,-1023,-567,-329,253,151,-437
0,5689222,199,-1873,-389,-1033,-569,-325,253,151,-437
0,5689229,199,-1873,-389,-1033,-569,-325,253,151,-437
0,5689236,197,-1874,-379,-1023,-562,-330,253,151,-437
0,5689244,197,-1874,-379,-1023,-562,-330,253,151,-437
0,5689251,197,-1874,-379,-1023,-562,-330,253,151,-437
0,5689260,197,-1872,-378,-1019,-566,-331,253,151,-437
0,5689266,197,-1872,-378,-1019,-566,-331,253,151,-437
0,5689271,197,-1872,-378,-1019,-566,-331,253,151,-437
0,5689279,201,-1873,-384,-1025,-567,-318,253,151,-437
0,5689284,201,-1873,-384,-1025,-567,-318,253,151,-437
0,5689291,201,-1873,-384,-1025,-567,-318,253,151,-437
0,5689297,201,-1873,-381,-1017,-558,-326,253,151,-437
0,5689305,201,-1873,-381,-1017,-558,-326,253,151,-437
0,5689313,201,-1873,-381,-1017,-558,-326,253,151,-437
0,5689320,199,-1874,-377,-1019,-557,-325,248,144,-442
0,5689326,199,-1874,-377,-1019,-557,-325,248,144,-442
0,5689334,199,-1874,-377,-1019,-557,-325,248,144,-442
0,5689340,196,-1875,-382,-1033,-566,-328,248,144,-442
0,5689349,196,-1875,-382,-1033,-566,-328,248,144,-442
0,5689355,196,-1875,-382,-1033,-566,-328,248,144,-442
0,5689363,196,-1874,-382,-1031,-561,-329,248,144,-442
0,5689370,196,-1874,-382,-1031,-561,-329,248,144,-442
0,5689377,197,-1873,-383,-1027,-567,-327,248,144,-442
0,5689384,197,-1873,-383,-1027,-567,-327,248,144,-442
0,5689391,197,-1873,-383,-1027,-567,-327,248,144,-442
0,5689398,201,-1875,-381,-1019,-562,-322,248,144,-442
0,5689405,201,-1875,-381,-1019,-562,-322,248,144,-442
0,5689412,201,-1875,-381,-1019,-562,-322,248,144,-442
0,5689419,197,-1874,-382,-1019,-572,-330,248,144,-442
0,5689425,197,-1874,-382,-1019,-572,-330,248,144,-442
0,5689434,197,-1874,-382,-1019,-572,-330,248,144,-442
0,5689441,198,-1872,-377,-1029,-562,-325,257,143,-441
0,5689447,198,-1872,-377,-1029,-562,-325,257,143,-441
0,5689454,198,-1872,-377,-1029,-562,-325,257,143,-441
0,5689462,197,-1878,-381,-1028,-557,-325,257,143,-441
0,5689468,197,-1878,-381,-1028,-557,-325,257,143,-441
0,5689476,197,-1878,-381,-1028,-557,-325,257,143,-441
0,5689483,200,-1874,-382,-1021,-566,-325,257,143,-441
0,5689488,200,-1874,-382,-1021,-566,-325,257,143,-441
0,5689497,198,-1874,-382,-1024,-567,-331,257,143,-441
0,5689504,198,-1874,-382,-1024,-567,-331,257,143,-441
0,5689512,198,-1874,-382,-1024,-567,-331,257,143,-441
0,5689522,202,-1873,-381,-1030,-573,-334,257,143,-441
0,5689529,202,-1873,-381,-1030,-573,-334,257,143,-441
0,5689535,202,-1873,-381,-1030,-573,-334,257,143,-441
0,5689540,200,-1873,-392,-1027,-561,-328,257,143,-441
0,5689545,200,-1873,-392,-1027,-561,-328,257,143,-441
0,5689550,200,-1873,-392,-1027,-561,-328,257,143,-441
0,5689556,197,-1873,-381,-1023,-559,-327,257,143,-441
0,5689564,197,-1873,-381,-1023,-559,-327,259,145,-443
0,5689572,197,-1873,-381,-1023,-559,-327,259,145,-443
0,5689579,196,-1875,-385,-1019,-574,-324,259,145,-443
0,5689586,196,-1875,-385,-1019,-574,-324,259,145,-443
0,5689593,196,-1875,-385,-1019,-574,-324,259,145,-443
0,5689601,197,-1873,-381,-1023,-564,-331,259,145,-443
0,5689606,197,-1873,-381,-1023,-564,-331,259,145,-443
0,5689615,197,-1873,-381,-1023,-564,-331,259,145,-443
0,5689622,198,-1871,-381,-1026,-562,-320,259,145,-443
0,5689630,198,-1871,-381,-1026,-562,-320,259,145,-443
0,5689638,197,-1874,-383,-1024,-567,-322,259,145,-443
0,5689646,197,-1874,-383,-1024,-567,-322,259,145,-443
0,5689652,197,-1874,-383,-1024,-567,-322,259,145,-443
0,5689659,200,-1874,-382,-1024,-568,-327,259,145,-443
0,5689665,200,-1874,-382,-1024,-568,-327,259,145,-443
0,5689671,200,-1874,-382,-1024,-568,-327,259,145,-443
0,5689677,197,-1874,-387,-1019,-562,-324,259,145,-443
0,5689682,197,-1874,-387,-1019,-562,-324,259,145,-443
0,5689689,197,-1874,-387,-1019,-562,-324,259,145,-443
0,5689695,197,-1874,-387,-1019,-562,-324,259,145,-443
0,5689702,200,-1871,-376,-1018,-570,-318,253,151,-443
0,5689707,200,-1871,-376,-1018,-570,-318,253,151,-443
0,5689715,200,-1871,-376,-1018,-570,-318,253,151,-443
0,5689722,197,-1876,-384,-1025,-564,-326,253,151,-443
0,5689731,197,-1876,-384,-1025,-564,-326,253,151,-443
0,5689737,197,-1876,-384,-1025,-564,-326,253,151,-443
0,5689743,197,-1876,-384,-1025,-564,-326,253,151,-443
0,5689749,197,-1876,-384,-1025,-564,-326,253,151,-443
0,5689755,197,-1876,-384,-1025,-564,-326,253,151,-443
0,5689763,199,-1877,-381,-1019,-570,-325,253,151,-443
0,5689772,199,-1877,-381,-1019,-570,-325,253,151,-443
0,5689777,200,-1877,-384,-1020,-578,-323,253,151,-443
0,5689785,200,-1877,-384,-1020,-578,-323,253,151,-443
0,5689793,200,-1877,-384,-1020,-578,-323,253,151,-443
0,5689800,200,-1876,-383,-1023,-576,-324,253,151,-443
0,5689809,200,-1876,-383,-1023,-576,-324,253,151,-443
0,5689816,200,-1876,-383,-1023,-576,-324,253,151,-443
0,5689822,201,-1873,-382,-1023,-565,-324,265,147,-449
0,5689828,201,-1873,-382,-1023,-565,-324,265,147,-449
0,5689836,201,-1873,-382,-1023,-565,-324,265,147,-449
0,5689842,198,-1875,-381,-1019,-555,-321,265,147,-449
0,5689849,198,-1875,-381,-1019,-555,-321,265,147,-449
0,5689856,198,-1875,-381,-1019,-555,-321,265,147,-449
0,5689861,200,-1876,-379,-1028,-564,-326,265,147,-449
0,5689867,200,-1876,-379,-1028,-564,-326,265,147,-449
0,5689873,200,-1876,-379,-1028,-564,-326,265,147,-449
0,5689880,200,-1871,-377,-1020,-561,-322,265,147,-449
0,5689887,200,-1871,-377,-1020,-561,-322,265,147,-449
0,5689894,200,-1871,-377,-1020,-561,-322,265,147,-449
0,5689902,201,-1874,-384,-1022,-565,-323,265,147,-449
0,5689909,201,-1874,-384,-1022,-565,-323,265,147,-449
0,5689917,199,-1873,-385,-1029,-566,-327,265,147,-449
0,5689923,199,-1873,-385,-1029,-566,-327,265,147,-449
0,5689929,199,-1873,-385,-1029,-566,-327,265,147,-449
0,5689935,199,-1873,-385,-1029,-566,-327,265,147,-449
0,5689942,198,-1875,-385,-1027,-565,-330,265,147,-449
0,5689949,198,-1875,-385,-1027,-565,-330,265,147,-449
0,5689957,199,-1870,-376,-1033,-570,-328,256,140,-442
0,5689964,199,-1870,-376,-1033,-570,-328,256,140,-442
0,5689971,199,-1870,-376,-1033,-570,-328,256,140,-442
0,5689976,199,-1870,-376,-1033,-570,-328,256,140,-442
0,5689981,200,-1875,-380,-1024,-572,-333,256,140,-442
0,5689987,200,-1875,-380,-1024,-572,-333,256,140,-442
0,5689992,200,-1875,-380,-1024,-572,-333,256,140,-442
0,5689998,196,-1877,-387,-1016,-576,-326,256,140,-442
0,5690002,196,-1877,-387,-1016,-576,-326,256,140,-442
0,5690008,196,-1877,-387,-1016,-576,-326,256,140,-442
0,5690013,196,-1877,-387,-1016,-576,-326,256,140,-442
0,5690018,200,-1878,-378,-1018,-568,-326,256,140,-442
0,5690027,200,-1878,-378,-1018,-568,-326,256,140,-442
0,5690036,200,-1878,-378,-1018,-568,-326,256,140,-442
0,5690044,201,-1876,-377,-1021,-563,-316,256,140,-442
0,5690054,201,-1876,-377,-1021,-563,-316,256,140,-442
0,5690063,199,-1875,-382,-1023,-567,-328,256,140,-442
0,5690073,199,-1875,-382,-1023,-567,-328,256,140,-442
0,5690082,199,-1875,-383,-1023,-565,-331,256,148,-448
0,5690093,199,-1875,-383,-1023,-565,-331,256,148,-448
0,5690107,199,-1879,-377,-1025,-567,-327,256,148,-448
0,5690121,197,-1874,-379,-1024,-567,-332,256,148,-448
0,5690133,197,-1874,-379,-1024,-567,-332,256,148,-448
0,5690144,198,-1872,-379,-1035,-569,-325,256,148,-448
0,5690157,200,-1872,-385,-1028,-563,-329,256,148,-448
0,5690170,200,-1872,-385,-1028,-563,-329,256,148,-448
0,5690182,203,-1873,-384,-1025,-567,-322,256,148,-448
0,5690193,203,-1873,-384,-1025,-567,-322,256,148,-448
0,5690206,199,-1874,-383,-1021,-563,-328,256,148,-448
0,5690218,202,-1876,-380,-1025,-560,-328,262,150,-446
0,5690229,202,-1876,-380,-1025,-560,-328,262,150,-446
0,5690240,202,-1877,-380,-1030,-565,-323,262,150,-446
0,5690249,202,-1877,-380,-1030,-565,-323,262,150,-446
0,5690256,202,-1877,-380,-1030,-565,-323,262,150,-446
0,5690264,198,-1874,-386,-1023,-568,-326,262,150,-446
0,5690274,198,-1874,-386,-1023,-568,-326,262,150,-446
0,5690290,197,-1874,-384,-1031,-565,-327,262,150,-446
0,5690303,198,-1875,-385,-1028,-565,-330,262,150,-446
0,5690312,198,-1875,-385,-1028,-565,-330,262,150,-446
0,5690324,201,-1876,-385,-1030,-566,-329,262,150,-446
0,5690339,202,-1870,-378,-1025,-565,-328,255,143,-443
0,5690352,202,-1870,-378,-1025,-565,-328,255,143,-443
0,5690362,201,-1871,-379,-1021,-565,-327,255,143,-443
0,5690376,201,-1871,-379,-1021,-565,-327,255,143,-443
0,5690388,199,-1873,-384,-1028,-560,-328,255,143,-443
0,5690401,197,-1878,-379,-1019,-560,-329,255,143,-443
0,5690412,197,-1878,-379,-1019,-560,-329,255,143,-443
0,5690425,202,-1875,-393,-1020,-565,-333,255,143,-443
0,5690437,202,-1875,-393,-1020,-565,-333,255,143,-443
0,5690450,196,-1875,-387,-1033,-570,-333,255,143,-443
0,5690462,198,-1871,-386,-1032,-570,-327,257,145,-445
0,5690476,198,-1871,-386,-1032,-570,-327,257,145,-445
0,5690488,198,-1877,-380,-1026,-564,-332,257,145,-445
0,5690501,199,-1876,-382,-1028,-561,-324,257,145,-445
0,5690514,199,-1876,-382,-1028,-561,-324,257,145,-445
0,5690527,199,-1875,-379,-1026,-562,-322,257,145,-445
0,5690536,199,-1875,-379,-1026,-562,-322,257,145,-445
0,5690544,199,-1874,-384,-1017,-559,-329,257,145,-445
0,5690552,199,-1874,-384,-1017,-559,-329,257,145,-445
0,5690560,198,-1873,-386,-1018,-565,-319,257,145,-445
0,5690569,198,-1873,-386,-1018,-565,-319,257,145,-445
0,5690579,199,-1873,-379,-1020,-570,-326,257,145,-445
0,5690592,199,-1873,-379,-1020,-570,-326,257,145,-445
0,5690605,198,-1873,-376,-1024,-566,-323,257,143,-445
0,5690618,199,-1873,-381,-1022,-563,-322,257,143,-445
0,5690630,199,-1873,-381,-1022,-563,-322,257,143,-445
0,5690644,199,-1873,-381,-1022,-563,-322,257,143,-445
0,5690655,199,-1873,-381,-1022,-563,-322,257,143,-445
0,5690669,202,-1875,-383,-1017,-564,-322,257,143,-445
0,5690680,201,-1874,-384,-1028,-572,-329,257,143,-445
0,5690694,201,-1874,-384,-1028,-572,-329,257,143,-445
0,5690706,198,-1876,-387,-1028,-571,-329,257,143,-445
0,5690715,198,-1876,-387,-1028,-571,-329,257,143,-445
0,5690727,199,-1875,-389,-1020,-568,-329,264,138,-444
0,5690742,197,-1875,-388,-1019,-561,-325,264,138,-444
0,5690755,197,-1875,-388,-1019,-561,-325,264,138,-444
0,5690767,200,-1875,-382,-1017,-562,-327,264,138,-444
0,5690780,193,-1873,-387,-1018,-566,-328,264,138,-444
0,5690793,193,-1873,-387,-1018,-566,-328,264,138,-444
0,5690806,198,-1878,-381,-1028,-569,-330,264,138,-444
0,5690815,198,-1878,-381,-1028,-569,-330,264,138,-444
0,5690822,199,-1872,-380,-1028,-571,-337,264,138,-444
0,5690830,199,-1872,-380,-1028,-571,-337,264,138,-444
0,5690839,198,-1875,-387,-1024,-569,-321,264,138,-444
0,5690849,198,-1875,-387,-1024,-569,-321,264,138,-444
0,5690858,198,-1873,-385,-1022,-566,-323,257,143,-449
0,5690867,198,-1873,-385,-1022,-566,-323,257,143,-449
0,5690877,199,-1877,-376,-1029,-567,-324,257,143,-449
0,5690888,199,-1877,-376,-1029,-567,-324,257,143,-449
0,5690898,198,-1876,-382,-1029,-574,-320,257,143,-449
0,5690911,198,-1876,-382,-1029,-574,-320,257,143,-449
0,5690923,196,-1877,-383,-1026,-573,-326,257,143,-449
0,5690932,196,-1877,-383,-1026,-573,-326,257,143,-449
0,5690940,199,-1875,-385,-1027,-575,-325,257,143,-449
0,5690949,199,-1875,-385,-1027,-575,-325,257,143,-449
0,5690962,199,-1876,-385,-1022,-565,-326,257,143,-449
0,5690974,199,-1876,-385,-1022,-565,-326,257,143,-449
0,5690982,193,-1875,-377,-1018,-565,-325,265,145,-445
0,5690990,193,-1875,-377,-1018,-565,-325,265,145,-445
0,5690998,196,-1874,-378,-1020,-564,-323,265,145,-445
0,5691006,196,-1874,-378,-1020,-564,-323,265,145,-445
0,5691014,196,-1874,-378,-1020,-564,-323,265,145,-445
0,5691022,193,-1875,-379,-1024,-568,-323,265,145,-445
0,5691031,193,-1875,-379,-1024,-568,-323,265,145,-445
0,5691037,193,-1875,-379,-1024,-568,-323,265,145,-445
0,5691042,197,-1872,-384,-1030,-568,-324,265,145,-445
0,5691051,197,-1872,-384,-1030,-568,-324,265,145,-445
0,5691057,197,-1872,-384,-1030,-568,-324,265,145,-445
0,5691065,199,-1873,-380,-1029,-571,-325,265,145,-445
0,5691072,199,-1873,-380,-1029,-571,-325,265,145,-445
0,5691078,199,-1873,-381,-1022,-566,-324,265,145,-445
0,5691086,199,-1873,-381,-1022,-566,-324,265,145,-445
0,5691092,199,-1873,-381,-1022,-566,-324,265,145,-445
0,5691101,199,-1875,-384,-1033,-560,-320,265,145,-445
0,5691107,199,-1875,-384,-1033,-560,-320,265,145,-445
0,5691114,199,-1875,-384,-1033,-560,-320,265,145,-445
0,5691121,199,-1872,-374,-1035,-571,-329,261,151,-445
0,5691128,199,-1872,-374,-1035,-571,-329,261,151,-445
0,5691134,199,-1872,-374,-1035,-571,-329,261,151,-445
0,5691142,199,-1870,-376,-1026,-564,-326,261,151,-445
0,5691149,199,-1870,-376,-1026,-564,-326,261,151,-445
0,5691156,199,-1870,-376,-1026,-564,-326,261,151,-445
0,5691162,198,-1874,-382,-1017,-561,-326,261,151,-445
0,5691170,198,-1874,-382,-1017,-561,-326,261,151,-445
0,5691176,198,-1874,-382,-1017,-561,-326,261,151,-445
0,5691182,201,-1874,-384,-1021,-568,-328,261,151,-445
0,5691190,201,-1874,-384,-1021,-568,-328,261,151,-445
0,5691197,201,-1874,-384,-1021,-568,-328,261,151,-445
0,5691204,200,-1875,-383,-1027,-563,-324,261,151,-445
0,5691210,200,-1875,-383,-1027,-563,-324,261,151,-445
0,5691216,200,-1875,-383,-1027,-563,-324,261,151,-445
0,5691224,197,-1873,-384,-1027,-566,-322,261,151,-445
0,5691231,197,-1873,-384,-1027,-566,-322,261,151,-445
0,5691239,196,-1874,-383,-1019,-568,-329,261,147,-443
0,5691245,196,-1874,-383,-1019,-568,-329,261,147,-443
0,5691250,196,-1874,-383,-1019,-568,-329,261,147,-443
0,5691257,196,-1874,-383,-1019,-568,-329,261,147,-443
0,5691266,201,-1874,-385,-1021,-561,-324,261,147,-443
0,5691273,201,-1874,-385,-1021,-561,-324,261,147,-443
0,5691280,201,-1873,-379,-1021,-558,-322,261,147,-443
0,5691287,201,-1873,-379,-1021,-558,-322,261,147,-443
0,5691294,201,-1873,-379,-1021,-558,-322,261,147,-443
0,5691299,201,-1875,-383,-1024,-559,-327,261,147,-443
0,5691307,201,-1875,-383,-1024,-559,-327,261,147,-443
0,5691315,201,-1875,-383,-1024,-559,-327,261,147,-443
0,5691322,202,-1876,-381,-1024,-564,-323,261,147,-443
0,5691328,202,-1876,-381,-1024,-564,-323,261,147,-443
0,5691335,202,-1876,-381,-1024,-564,-323,261,147,-443
0,5691341,198,-1879,-384,-1021,-565,-323,261,147,-443
0,5691346,198,-1879,-384,-1021,-565,-323,261,147,-443
0,5691353,198,-1879,-384,-1021,-565,-323,261,147,-443
0,5691361,199,-1877,-382,-1026,-569,-321,256,148,-442
0,5691368,199,-1877,-382,-1026,-569,-321,256,148,-442
0,5691375,199,-1877,-382,-1026,-569,-321,256,148,-442
0,5691380,198,-1873,-380,-1031,-563,-330,256,148,-442
0,5691388,198,-1873,-380,-1031,-563,-330,256,148,-442
0,5691398,198,-1873,-380,-1031,-563,-330,256,148,-442
0,5691405,197,-1873,-376,-1031,-567,-328,256,148,-442
0,5691411,197,-1873,-376,-1031,-567,-328,256,148,-442
0,5691418,198,-1872,-376,-1028,-560,-320,256,148,-442
0,5691424,198,-1872,-376,-1028,-560,-320,256,148,-442
0,5691431,198,-1872,-376,-1028,-560,-320,256,148,-442
0,5691439,198,-1871,-386,-1024,-564,-330,256,148,-442
0,5691446,198,-1871,-386,-1024,-564,-330,256,148,-442
0,5691453,198,-1871,-386,-1024,-564,-330,256,148,-442
0,5691460,195,-1874,-377,-1027,-564,-326,256,148,-442
0,5691466,195,-1874,-377,-1027,-564,-326,256,148,-442
0,5691474,195,-1874,-377,-1027,-564,-326,256,148,-442
0,5691483,202,-1877,-382,-1030,-566,-332,256,148,-442
0,5691490,202,-1877,-382,-1030,-566,-332,256,148,-442
0,5691497,202,-1877,-382,-1030,-566,-332,256,148,-442
0,5691504,198,-1875,-382,-1027,-563,-330,254,140,-446
0,5691511,198,-1875,-382,-1027,-563,-330,254,140,-446
0,5691516,198,-1875,-382,-1027,-563,-330,254,140,-446
0,5691525,199,-1875,-383,-1023,-557,-326,254,140,-446
0,5691532,199,-1875,-383,-1023,-557,-326,254,140,-446
0,5691537,199,-1875,-383,-1023,-557,-326,254,140,-446
0,5691542,197,-1873,-384,-1027,-559,-328,254,140,-446
0,5691547,197,-1873,-384,-1027,-559,-328,254,140,-446
0,5691552,197,-1873,-384,-1027,-559,-328,254,140,-446
0,5691557,197,-1873,-384,-1027,-559,-328,254,140,-446
0,5691563,197,-1876,-383,-1025,-568,-321,254,140,-446
0,5691570,197,-1876,-383,-1025,-568,-321,254,140,-446
0,5691577,197,-1876,-383,-1025,-568,-321,254,140,-446
0,5691584,201,-1874,-385,-1024,-571,-331,254,140,-446
0,5691590,201,-1874,-385,-1024,-571,-331,254,140,-446
0,5691597,201,-1874,-385,-1024,-571,-331,254,140,-446
0,5691604,200,-1874,-388,-1027,-575,-326,254,140,-446
0,5691611,200,-1874,-388,-1027,-575,-326,254,140,-446
0,5691617,200,-1874,-388,-1027,-575,-326,254,140,-446
0,5691624,198,-1874,-377,-1027,-569,-321,256,140,-444
0,5691631,198,-1874,-377,-1027,-569,-321,256,140,-444
0,5691638,198,-1874,-377,-1027,-569,-321,256,140,-444
0,5691645,197,-1875,-377,-1023,-569,-332,256,140,-444
0,5691654,197,-1875,-377,-1023,-569,-332,256,140,-444
0,5691660,199,-1876,-378,-1023,-564,-331,256,140,-444
0,5691667,199,-1876,-378,-1023,-564,-331,256,140,-444
0,5691675,199,-1876,-378,-1023,-564,-331,256,140,-444
0,5691682,199,-1877,-382,-1024,-564,-319,256,140,-444
0,5691691,199,-1877,-382,-1024,-564,-319,256,140,-444
0,5691698,199,-1877,-382,-1024,-564,-319,256,140,-444
0,5691703,199,-1876,-384,-1023,-571,-324,256,140,-444
0,5691709,199,-1876,-384,-1023,-571,-324,256,140,-444
0,5691715,199,-1876,-384,-1023,-571,-324,256,140,-444
0,5691723,197,-1874,-381,-1020,-567,-327,256,140,-444
0,5691730,197,-1874,-381,-1020,-567,-327,256,140,-444
0,5691737,197,-1874,-381,-1020,-567,-327,256,140,-444
0,5691744,202,-1873,-379,-1025,-567,-327,256,140,-444
0,5691750,202,-1873,-379,-1025,-567,-327,256,140,-444
0,5691756,202,-1873,-379,-1025,-567,-327,256,140,-444
0,5691763,199,-1875,-375,-1024,-564,-327,254,146,-442
0,5691769,199,-1875,-375,-1024,-564,-327,254,146,-442
0,5691777,199,-1875,-375,-1024,-564,-327,254,146,-442
0,5691784,197,-1876,-378,-1026,-569,-321,254,146,-442
0,5691791,197,-1876,-378,-1026,-569,-321,254,146,-442
0,5691799,198,-1876,-381,-1029,-577,-320,254,146,-442
0,5691807,198,-1876,-381,-1029,-577,-320,254,146,-442
0,5691814,198,-1876,-381,-1029,-577,-320,254,146,-442
0,5691821,200,-1872,-384,-1034,-569,-322,254,146,-442
0,5691828,200,-1872,-384,-1034,-569,-322,254,146,-442
0,5691834,200,-1872,-384,-1034,-569,-322,254,146,-442
0,5691841,200,-1874,-383,-1028,-568,-314,254,146,-442
0,5691850,200,-1874,-383,-1028,-568,-314,254,146,-442
0,5691857,200,-1874,-383,-1028,-568,-314,254,146,-442
0,5691863,202,-1873,-380,-1027,-569,-329,254,146,-442
0,5691869,202,-1873,-380,-1027,-569,-329,254,146,-442
0,5691874,202,-1873,-380,-1027,-569,-329,254,146,-442
0,5691880,197,-1873,-375,-1027,-563,-330,259,147,-445
0,5691887,197,-1873,-375,-1027,-563,-330,259,147,-445
0,5691894,197,-1873,-375,-1027,-563,-330,259,147,-445
0,5691902,199,-1874,-380,-1027,-566,-328,259,147,-445
0,5691910,199,-1874,-380,-1027,-566,-328,259,147,-445
0,5691917,199,-1874,-380,-1027,-566,-328,259,147,-445
0,5691924,199,-1874,-380,-1026,-570,-329,259,147,-445
0,5691931,199,-1874,-380,-1026,-570,-329,259,147,-445
0,5691938,199,-1874,-380,-1026,-570,-329,259,147,-445
0,5691945,198,-1875,-384,-1024,-570,-323,259,147,-445
0,5691952,198,-1875,-384,-1024,-570,-323,259,147,-445
0,5691959,198,-1875,-380,-1028,-569,-329,259,147,-445
0,5691966,198,-1875,-380,-1028,-569,-329,259,147,-445
0,5691972,198,-1875,-380,-1028,-569,-329,259,147,-445
0,5691977,198,-1875,-380,-1028,-569,-329,259,147,-445
0,5691982,203,-1874,-383,-1026,-562,-332,259,147,-445
0,5691987,203,-1874,-383,-1026,-562,-332,259,147,-445
0,5691993,203,-1874,-383,-1026,-562,-332,259,147,-445
0,5691998,203,-1874,-383,-1026,-562,-332,259,147,-445
0,5692003,200,-1875,-379,-1023,-564,-317,259,147,-445
0,5692008,200,-1875,-379,-1023,-564,-317,259,147,-445
0,5692014,200,-1875,-379,-1023,-564,-317,259,147,-445
0,5692021,198,-1870,-375,-1023,-569,-323,257,141,-445
0,5692028,198,-1870,-375,-1023,-569,-323,257,141,-445
0,5692036,198,-1870,-375,-1023,-569,-323,257,141,-445
0,5692045,198,-1873,-383,-1024,-566,-322,257,141,-445
0,5692054,198,-1873,-383,-1024,-566,-322,257,141,-445
0,5692066,194,-1876,-384,-1022,-569,-325,257,141,-445
0,5692081,194,-1876,-384,-1022,-569,-325,257,141,-445
0,5692094,194,-1876,-384,-1022,-569,-325,257,141,-445
0,5692104,200,-1873,-382,-1031,-564,-324,257,141,-445
0,5692119,200,-1873,-382,-1031,-564,-324,257,141,-445
0,5692133,198,-1873,-378,-1026,-571,-330,257,141,-445
0,5692146,200,-1875,-380,-1026,-561,-326,262,140,-448
0,5692155,200,-1875,-380,-1026,-561,-326,262,140,-448
0,5692169,199,-1874,-378,-1022,-569,-322,262,140,-448
0,5692183,202,-1876,-385,-1022,-566,-327,262,140,-448
0,5692197,202,-1876,-385,-1022,-566,-327,262,140,-448
0,5692206,201,-1873,-381,-1022,-567,-328,262,140,-448
0,5692219,201,-1873,-381,-1022,-567,-328,262,140,-448
0,5692232,198,-1876,-380,-1022,-559,-315,262,140,-448
0,5692244,200,-1874,-381,-1022,-560,-326,262,140,-448
0,5692256,200,-1874,-381,-1022,-560,-326,262,140,-448
0,5692268,199,-1875,-384,-1034,-564,-319,249,147,-439
0,5692280,200,-1873,-376,-1023,-562,-324,249,147,-439
0,5692294,200,-1873,-376,-1023,-562,-324,249,147,-439
0,5692306,199,-1873,-383,-1022,-561,-324,249,147,-439
0,5692319,200,-1871,-384,-1022,-561,-328,249,147,-439
0,5692332,200,-1871,-384,-1022,-561,-328,249,147,-439
0,5692341,198,-1874,-383,-1024,-568,-331,249,147,-439
0,5692352,198,-1874,-383,-1024,-568,-331,249,147,-439
0,5692366,199,-1875,-383,-1021,-565,-327,249,147,-439
0,5692378,199,-1875,-383,-1021,-565,-327,249,147,-439
0,5692391,198,-1874,-386,-1023,-570,-320,249,147,-439
0,5692403,199,-1877,-382,-1034,-566,-323,257,149,-451
0,5692418,199,-1877,-382,-1034,-566,-323,257,149,-451
0,5692427,198,-1872,-381,-1024,-568,-322,257,149,-451
0,5692435,198,-1872,-381,-1024,-568,-322,257,149,-451
0,5692444,197,-1875,-387,-1025,-567,-324,257,149,-451
0,5692451,197,-1875,-387,-1025,-567,-324,257,149,-451
0,5692460,197,-1875,-387,-1025,-567,-324,257,149,-451
0,5692472,197,-1875,-382,-1025,-568,-322,257,149,-451
0,5692484,200,-1876,-378,-1025,-565,-330,257,149,-451
0,5692497,200,-1876,-378,-1025,-565,-330,257,149,-451
0,5692512,196,-1872,-382,-1024,-571,-329,257,149,-451
0,5692523,196,-1873,-381,-1024,-570,-322,258,148,-448
0,5692534,196,-1873,-381,-1024,-570,-322,258,148,-448
0,5692542,199,-1873,-380,-1024,-573,-325,258,148,-448
0,5692551,199,-1873,-380,-1024,-573,-325,258,148,-448
0,5692559,199,-1873,-380,-1024,-573,-325,258,148,-448
0,5692571,198,-1875,-376,-1030,-566,-324,258,148,-448
0,5692587,198,-1876,-383,-1021,-569,-316,258,148,-448
0,5692598,198,-1876,-383,-1021,-569,-316,258,148,-448
0,5692611,199,-1878,-378,-1023,-564,-322,258,148,-448
0,5692624,198,-1871,-385,-1020,-558,-323,258,148,-448
0,5692638,198,-1871,-385,-1020,-558,-323,258,148,-448
0,5692649,204,-1872,-380,-1019,-557,-323,258,148,-448
0,5692660,198,-1874,-386,-1030,-562,-329,257,145,-447
0,5692674,198,-1874,-386,-1030,-562,-329,257,145,-447
0,5692686,200,-1873,-380,-1025,-557,-328,257,145,-447
0,5692697,200,-1873,-380,-1025,-557,-328,257,145,-447
0,5692709,201,-1874,-383,-1022,-569,-328,257,145,-447
0,5692722,200,-1877,-381,-1021,-569,-323,257,145,-447
0,5692735,200,-1877,-381,-1021,-569,-323,257,145,-447
0,5692744,199,-1874,-379,-1026,-562,-319,257,145,-447
0,5692755,199,-1874,-379,-1026,-562,-319,257,145,-447
0,5692767,201,-1873,-388,-1027,-559,-315,257,145,-447
0,5692780,201,-1873,-388,-1027,-559,-315,257,145,-447
0,5692790,197,-1872,-381,-1023,-565,-327,251,135,-447
0,5692804,202,-1872,-382,-1023,-566,-329,251,135,-447
0,5692816,202,-1872,-382,-1023,-566,-329,251,135,-447
0,5692829,199,-1872,-382,-1035,-565,-327,251,135,-447
0,5692843,197,-1873,-381,-1029,-564,-330,251,135,-447
0,5692856,197,-1873,-381,-1029,-564,-330,251,135,-447
0,5692867,198,-1872,-379,-1026,-568,-326,251,135,-447
0,5692879,198,-1872,-379,-1026,-568,-326,251,135,-447
0,5692893,202,-1874,-378,-1026,-565,-332,251,135,-447
0,5692906,199,-1872,-378,-1023,-563,-333,252,144,-444
0,5692918,199,-1872,-378,-1023,-563,-333,252,144,-444
0,5692931,198,-1871,-376,-1016,-568,-325,252,144,-444
0,5692945,196,-1876,-377,-1020,-573,-317,252,144,-444
0,5692958,196,-1876,-377,-1020,-573,-317,252,144,-444
0,5692972,197,-1875,-386,-1025,-570,-329,252,144,-444
0,5692980,197,-1875,-386,-1025,-570,-329,252,144,-444
0,5692988,198,-1873,-381,-1027,-567,-324,252,144,-444
0,5692996,198,-1873,-381,-1027,-567,-324,252,144,-444
0,5693004,198,-1870,-382,-1022,-563,-317,252,144,-444
0,5693011,198,-1870,-382,-1022,-563,-317,252,144,-444
0,5693020,198,-1870,-382,-1022,-563,-317,252,144,-444
0,5693028,199,-1874,-383,-1026,-569,-322,252,144,-444
0,5693036,199,-1874,-383,-1026,-569,-322,252,144,-444
0,5693044,201,-1871,-380,-1016,-570,-329,258,146,-436
0,5693051,201,-1871,-380,-1016,-570,-329,258,146,-436
0,5693057,201,-1871,-380,-1016,-570,-329,258,146,-436
0,5693063,202,-1873,-386,-1020,-560,-324,258,146,-436
0,5693068,202,-1873,-386,-1020,-560,-324,258,146,-436
0,5693074,202,-1873,-386,-1020,-560,-324,258,146,-436
0,5693079,202,-1873,-386,-1020,-560,-324,258,146,-436
0,5693084,198,-1870,-380,-1018,-557,-321,258,146,-436
0,5693089,198,-1870,-380,-1018,-557,-321,258,146,-436
0,5693094,198,-1870,-380,-1018,-557,-321,258,146,-436
0,5693103,196,-1872,-386,-1020,-562,-321,258,146,-436
0,5693109,196,-1872,-386,-1020,-562,-321,258,146,-436
0,5693116,196,-1872,-386,-1020,-562,-321,258,146,-436
0,5693123,198,-1878,-385,-1018,-560,-327,258,146,-436
0,5693130,198,-1878,-385,-1018,-560,-327,258,146,-436
0,5693137,198,-1878,-385,-1018,-560,-327,258,146,-436
0,5693143,197,-1877,-383,-1031,-558,-329,258,146,-436
0,5693151,197,-1877,-383,-1031,-558,-329,258,146,-436
0,5693159,197,-1877,-383,-1031,-558,-329,258,146,-436
0,5693166,200,-1875,-383,-1035,-565,-325,261,151,-445
0,5693173,200,-1875,-383,-1035,-565,-325,261,151,-445
0,5693180,203,-1876,-380,-1021,-568,-330,261,151,-445
0,5693187,203,-1876,-380,-1021,-568,-330,261,151,-445
0,5693193,203,-1876,-380,-1021,-568,-330,261,151,-445
0,5693200,203,-1876,-380,-1021,-568,-330,261,151,-445
0,5693206,198,-1872,-382,-1014,-565,-323,261,151,-445
0,5693212,198,-1872,-382,-1014,-565,-323,261,151,-445
0,5693219,198,-1872,-382,-1014,-565,-323,261,151,-445
0,5693225,200,-1874,-381,-1019,-563,-319,261,151,-445
0,5693233,200,-1874,-381,-1019,-563,-319,261,151,-445
0,5693241,197,-1876,-387,-1021,-559,-319,261,151,-445
0,5693249,197,-1876,-387,-1021,-559,-319,261,151,-445
0,5693255,197,-1876,-387,-1021,-559,-319,261,151,-445
0,5693263,197,-1876,-387,-1021,-559,-319,261,151,-445
0,5693270,197,-1876,-387,-1021,-559,-319,261,151,-445
0,5693278,197,-1876,-387,-1021,-559,-319,261,151,-445
0,5693286,200,-1875,-380,-1022,-556,-324,261,151,-445
0,5693292,200,-1875,-380,-1022,-556,-324,261,151,-445
0,5693300,200,-1875,-380,-1022,-556,-324,261,151,-445
0,5693307,197,-1875,-379,-1022,-561,-320,263,145,-447
0,5693315,197,-1875,-379,-1022,-561,-320,263,145,-447
0,5693323,199,-1874,-382,-1032,-565,-329,263,145,-447
0,5693329,199,-1874,-382,-1032,-565,-329,263,145,-447
0,5693336,199,-1874,-382,-1032,-565,-329,263,145,-447
0,5693344,201,-1870,-381,-1031,-569,-331,263,145,-447
0,5693350,201,-1870,-381,-1031,-569,-331,263,145,-447
0,5693357,201,-1870,-381,-1031,-569,-331,263,145,-447
0,5693363,201,-1873,-382,-1029,-570,-332,263,145,-447
0,5693371,201,-1873,-382,-1029,-570,-332,263,145,-447
0,5693378,201,-1873,-382,-1029,-570,-332,263,145,-447
0,5693385,198,-1875,-376,-1027,-568,-325,263,145,-447
0,5693393,198,-1875,-376,-1027,-568,-325,263,145,-447
0,5693400,198,-1875,-376,-1027,-568,-325,263,145,-447
0,5693406,197,-1871,-381,-1027,-567,-326,263,145,-447
0,5693413,197,-1871,-381,-1027,-567,-326,263,145,-447
0,5693421,199,-1874,-383,-1019,-561,-327,253,145,-445
0,5693428,199,-1874,-383,-1019,-561,-327,253,145,-445
0,5693435,199,-1874,-383,-1019,-561,-327,253,145,-445
0,5693443,197,-1873,-380,-1023,-566,-331,253,145,-445
0,5693450,197,-1873,-380,-1023,-566,-331,253,145,-445
0,5693457,197,-1873,-380,-1023,-566,-331,253,145,-445
0,5693463,198,-1875,-382,-1024,-570,-330,253,145,-445
0,5693470,198,-1875,-382,-1024,-570,-330,253,145,-445
0,5693478,198,-1875,-382,-1024,-570,-330,253,145,-445
0,5693486,199,-1874,-383,-1020,-566,-329,253,145,-445
0,5693492,199,-1874,-383,-1020,-566,-329,253,145,-445
0,5693500,199,-1874,-383,-1020,-566,-329,253,145,-445
0,5693506,198,-1876,-383,-1030,-570,-324,253,145,-445
0,5693513,198,-1876,-383,-1030,-570,-324,253,145,-445
0,5693521,201,-1873,-387,-1024,-572,-324,253,145,-445
0,5693527,201,-1873,-387,-1024,-572,-324,253,145,-445
0,5693535,201,-1873,-387,-1024,-572,-324,253,145,-445
0,5693540,201,-1873,-387,-1024,-572,-324,253,145,-445
0,5693545,201,-1875,-376,-1024,-566,-314,253,145,-445
0,5693550,201,-1875,-376,-1024,-566,-314,253,145,-445
0,5693555,201,-1875,-376,-1024,-566,-314,253,145,-445
0,5693560,201,-1875,-376,-1024,-566,-314,253,145,-445
0,5693565,198,-1875,-378,-1027,-568,-321,253,151,-447
0,5693573,198,-1875,-378,-1027,-568,-321,253,151,-447
0,5693581,198,-1875,-378,-1027,-568,-321,253,151,-447
0,5693586,203,-1876,-375,-1023,-563,-322,253,151,-447
0,5693591,203,-1876,-375,-1023,-563,-322,253,151,-447
0,5693596,203,-1876,-375,-1023,-563,-322,253,151,-447
0,5693603,198,-1876,-380,-1021,-565,-321,253,151,-447
0,5693609,198,-1876,-380,-1021,-565,-321,253,151,-447
0,5693617,198,-1876,-380,-1021,-565,-321,253,151,-447
0,5693624,200,-1875,-382,-1027,-567,-327,253,151,-447
0,5693630,200,-1875,-382,-1027,-567,-327,253,151,-447
0,5693637,200,-1875,-382,-1027,-567,-327,253,151,-447
0,5693643,197,-1875,-389,-1030,-568,-325,253,151,-447
0,5693650,197,-1875,-389,-1030,-568,-325,253,151,-447
0,5693658,197,-1875,-389,-1030,-568,-325,253,151,-447
0,5693665,201,-1877,-391,-1031,-572,-326,253,151,-447
0,5693672,201,-1877,-391,-1031,-572,-326,253,151,-447
0,5693677,201,-1877,-391,-1031,-572,-326,253,151,-447
0,5693685,201,-1870,-375,-1027,-570,-327,261,149,-445
0,5693690,201,-1870,-375,-1027,-570,-327,261,149,-445
0,5693698,201,-1870,-375,-1027,-570,-327,261,149,-445
0,5693705,198,-1872,-383,-1019,-565,-319,261,149,-445
0,5693711,198,-1872,-383,-1019,-565,-319,261,149,-445
0,5693718,198,-1872,-383,-1019,-565,-319,261,149,-445
0,5693724,199,-1875,-382,-1027,-565,-322,261,149,-445
0,5693731,199,-1875,-382,-1027,-565,-322,261,149,-445
0,5693739,199,-1875,-382,-1027,-565,-322,261,149,-445
0,5693747,197,-1873,-381,-1023,-564,-320,261,149,-445
0,5693753,197,-1873,-381,-1023,-564,-320,261,149,-445
0,5693761,197,-1873,-381,-1023,-564,-320,261,149,-445
0,5693768,200,-1875,-386,-1031,-563,-326,261,149,-445
0,5693774,200,-1875,-386,-1031,-563,-326,261,149,-445
0,5693782,198,-1874,-387,-1024,-560,-329,261,149,-445
0,5693789,198,-1874,-387,-1024,-560,-329,261,149,-445
0,5693795,198,-1874,-387,-1024,-560,-329,261,149,-445
0,5693803,201,-1875,-384,-1027,-572,-326,259,145,-441
0,5693812,201,-1875,-384,-1027,-572,-326,259,145,-441
0,5693818,201,-1875,-384,-1027,-572,-326,259,145,-441
0,5693826,198,-1874,-376,-1027,-565,-329,259,145,-441
0,5693831,198,-1874,-376,-1027,-565,-329,259,145,-441
0,5693838,198,-1874,-376,-1027,-565,-329,259,145,-441
0,5693845,199,-1874,-380,-1023,-568,-327,259,145,-441
0,5693852,199,-1874,-380,-1023,-568,-327,259,145,-441
0,5693860,199,-1874,-380,-1023,-568,-327,259,145,-441
0,5693868,198,-1874,-379,-1027,-565,-334,259,145,-441
0,5693875,198,-1874,-379,-1027,-565,-334,259,145,-441
0,5693882,201,-1874,-376,-1027,-565,-324,259,145,-441
0,5693889,201,-1874,-376,-1027,-565,-324,259,145,-441
0,5693895,201,-1874,-376,-1027,-565,-324,259,145,-441
0,5693903,200,-1872,-378,-1022,-563,-322,259,145,-441
0,5693911,200,-1872,-378,-1022,-563,-322,259,145,-441
0,5693919,200,-1872,-378,-1022,-563,-322,259,145,-441
0,5693926,199,-1874,-381,-1022,-565,-321,259,145,-441
0,5693932,199,-1874,-381,-1022,-565,-321,259,145,-441
0,5693939,199,-1874,-381,-1022,-565,-321,259,145,-441
0,5693945,202,-1871,-377,-1041,-571,-321,261,147,-443
0,5693954,202,-1871,-377,-1041,-571,-321,261,147,-443
0,5693960,202,-1871,-377,-1041,-571,-321,261,147,-443
0,5693966,197,-1873,-381,-1036,-566,-331,261,147,-443
0,5693972,197,-1873,-381,-1036,-566,-331,261,147,-443
0,5693977,197,-1873,-381,-1036,-566,-331,261,147,-443
0,5693982,202,-1875,-381,-1023,-571,-328,261,147,-443
0,5693987,202,-1875,-381,-1023,-571,-328,261,147,-443
0,5693992,202,-1875,-381,-1023,-571,-328,261,147,-443
0,5693998,202,-1875,-381,-1023,-571,-328,261,147,-443
0,5694003,198,-1875,-383,-1028,-569,-332,261,147,-443
0,5694008,198,-1875,-383,-1028,-569,-332,261,147,-443
0,5694014,198,-1875,-383,-1028,-569,-332,261,147,-443
0,5694019,198,-1875,-383,-1028,-569,-332,261,147,-443
0,5694026,200,-1872,-385,-1027,-564,-323,261,147,-443
0,5694032,200,-1872,-385,-1027,-564,-323,261,147,-443
0,5694038,200,-1872,-385,-1027,-564,-323,261,147,-443
0,5694043,199,-1873,-381,-1024,-564,-327,261,147,-443
0,5694048,199,-1873,-381,-1024,-564,-327,261,147,-443
0,5694055,199,-1873,-381,-1024,-564,-327,261,147,-443
0,5694065,197,-1875,-386,-1018,-567,-323,261,141,-439
0,5694078,197,-1875,-386,-1018,-567,-323,261,141,-439
0,5694093,198,-1872,-382,-1021,-570,-325,261,141,-439
0,5694108,199,-1875,-389,-1025,-568,-321,261,141,-439
0,5694116,199,-1875,-389,-1025,-568,-321,261,141,-439
0,5694129,200,-1872,-382,-1020,-563,-316,261,141,-439
0,5694141,200,-1872,-382,-1020,-563,-316,261,141,-439
0,5694154,203,-1875,-382,-1017,-568,-326,261,141,-439
0,5694168,199,-1875,-383,-1024,-553,-318,261,141,-439
0,5694181,199,-1875,-383,-1024,-553,-318,261,141,-439
0,5694193,199,-1875,-388,-1026,-561,-323,261,141,-439
0,5694208,198,-1872,-381,-1026,-566,-331,256,146,-442
0,5694220,198,-1872,-381,-1026,-566,-331,256,146,-442
0,5694232,199,-1878,-382,-1025,-569,-324,256,146,-442
0,5694243,197,-1873,-381,-1022,-569,-321,256,146,-442
0,5694258,197,-1873,-381,-1022,-569,-321,256,146,-442
0,5694269,196,-1874,-385,-1017,-562,-334,256,146,-442
0,5694282,199,-1871,-378,-1025,-566,-327,256,146,-442
0,5694296,199,-1871,-378,-1025,-566,-327,256,146,-442
0,5694308,201,-1871,-381,-1033,-570,-333,256,146,-442
0,5694321,201,-1871,-381,-1033,-570,-333,256,146,-442
0,5694332,199,-1872,-378,-1026,-560,-325,260,148,-452
0,5694344,201,-1871,-382,-1021,-566,-331,260,148,-452
0,5694357,201,-1871,-382,-1021,-566,-331,260,148,-452
0,5694369,200,-1874,-385,-1019,-567,-328,260,148,-452
0,5694383,199,-1870,-379,-1022,-567,-325,260,148,-452
0,5694395,199,-1870,-379,-1022,-567,-325,260,148,-452
0,5694407,196,-1872,-380,-1019,-570,-330,260,148,-452
0,5694420,196,-1872,-380,-1019,-570,-330,260,148,-452
0,5694432,200,-1873,-375,-1017,-557,-328,260,148,-452
0,5694446,197,-1873,-385,-1019,-568,-326,260,148,-452
0,5694458,197,-1873,-385,-1019,-568,-326,260,148,-452
0,5694472,202,-1871,-376,-1027,-566,-327,256,154,-444
0,5694486,199,-1874,-384,-1021,-560,-325,256,154,-444
0,5694498,199,-1874,-384,-1021,-560,-325,256,154,-444
0,5694511,197,-1872,-390,-1026,-566,-324,256,154,-444
0,5694524,199,-1875,-385,-1023,-565,-324,256,154,-444
0,5694534,199,-1875,-385,-1023,-565,-324,256,154,-444
0,5694542,200,-1874,-382,-1021,-569,-323,256,154,-444
0,5694551,200,-1874,-382,-1021,-569,-323,256,154,-444
0,5694559,200,-1874,-382,-1021,-569,-323,256,154,-444
0,5694567,198,-1873,-383,-1022,-563,-332,256,154,-444
0,5694575,198,-1873,-383,-1022,-563,-332,256,154,-444
0,5694584,199,-1875,-379,-1018,-562,-318,261,147,-451
0,5694592,199,-1875,-379,-1018,-562,-318,261,147,-451
0,5694601,199,-1875,-379,-1018,-562,-318,261,147,-451
0,5694613,199,-1876,-378,-1024,-564,-324,261,147,-451
0,5694625,198,-1876,-380,-1024,-565,-324,261,147,-451
0,5694638,198,-1876,-380,-1024,-565,-324,261,147,-451
0,5694650,199,-1876,-383,-1017,-563,-327,261,147,-451
0,5694663,202,-1875,-386,-1021,-569,-326,261,147,-451
0,5694675,202,-1875,-386,-1021,-569,-326,261,147,-451
0,5694684,197,-1871,-384,-1016,-564,-323,261,147,-451
0,5694692,197,-1871,-384,-1016,-564,-323,261,147,-451
0,5694700,197,-1871,-384,-1016,-564,-323,261,147,-451
0,5694708,197,-1874,-379,-1017,-567,-322,259,149,-441
0,5694718,197,-1874,-379,-1017,-567,-322,259,149,-441
0,5694732,199,-1875,-381,-1022,-572,-322,259,149,-441
0,5694746,199,-1876,-384,-1026,-569,-323,259,149,-441
0,5694759,199,-1876,-384,-1026,-569,-323,259,149,-441
0,5694770,199,-1873,-383,-1027,-560,-324,259,149,-441
0,5694782,201,-1872,-384,-1023,-565,-319,259,149,-441
0,5694796,201,-1872,-384,-1023,-565,-319,259,149,-441
0,5694809,196,-1874,-379,-1023,-564,-323,259,149,-441
0,5694820,196,-1874,-379,-1023,-564,-323,259,149,-441
0,5694832,201,-1871,-380,-1027,-566,-324,259,149,-441
0,5694844,198,-1870,-378,-1018,-566,-331,257,145,-445
0,5694858,198,-1870,-378,-1018,-566,-331,257,145,-445
0,5694870,201,-1874,-382,-1033,-570,-332,257,145,-445
0,5694883,197,-1873,-382,-1027,-567,-328,257,145,-445
0,5694896,197,-1873,-382,-1027,-567,-328,257,145,-445
0,5694909,199,-1874,-388,-1023,-563,-326,257,145,-445
0,5694922,199,-1874,-388,-1023,-563,-326,257,145,-445
0,5694936,197,-1873,-384,-1027,-558,-325,257,145,-445
0,5694947,198,-1875,-385,-1022,-568,-325,257,145,-445
0,5694960,198,-1875,-385,-1022,-568,-325,257,145,-445
0,5694971,197,-1872,-384,-1021,-569,-315,259,143,-447
0,5694980,197,-1872,-384,-1021,-569,-315,259,143,-447
0,5694989,198,-1876,-383,-1023,-568,-315,259,143,-447
0,5694996,198,-1876,-383,-1023,-568,-315,259,143,-447
0,5695006,198,-1876,-380,-1020,-559,-321,259,143,-447
0,5695014,198,-1876,-380,-1020,-559,-321,259,143,-447
0,5695023,198,-1876,-380,-1020,-559,-321,259,143,-447
0,5695031,200,-1875,-382,-1019,-558,-320,259,143,-447
0,5695039,200,-1875,-382,-1019,-558,-320,259,143,-447
0,5695047,200,-1872,-379,-1027,-570,-323,259,143,-447
0,5695055,200,-1872,-379,-1027,-570,-323,259,143,-447
0,5695067,200,-1876,-384,-1030,-565,-319,259,143,-447
0,5695073,200,-1876,-384,-1030,-565,-319,259,143,-447
0,5695079,200,-1876,-384,-1030,-565,-319,259,143,-447
0,5695086,194,-1873,-384,-1023,-563,-319,259,143,-447
0,5695093,194,-1873,-384,-1023,-563,-319,259,143,-447
0,5695100,194,-1873,-384,-1023,-563,-319,259,143,-447
0,5695110,199,-1873,-377,-1028,-565,-325,259,139,-443
0,5695117,199,-1873,-377,-1028,-565,-325,259,139,-443
0,5695125,199,-1874,-386,-1025,-564,-328,259,139,-443
0,5695132,199,-1874,-386,-1025,-564,-328,259,139,-443
0,5695139,199,-1874,-386,-1025,-564,-328,259,139,-443
0,5695147,199,-1875,-383,-1025,-562,-322,259,139,-443
0,5695155,199,-1875,-383,-1025,-562,-322,259,139,-443
0,5695161,199,-1875,-383,-1025,-562,-322,259,139,-443
0,5695168,202,-1873,-386,-1025,-572,-322,259,139,-443
0,5695176,202,-1873,-386,-1025,-572,-322,259,139,-443
0,5695182,202,-1873,-386,-1025,-572,-322,259,139,-443
0,5695188,199,-1876,-382,-1023,-565,-327,259,139,-443
0,5695196,199,-1876,-382,-1023,-565,-327,259,139,-443
0,5695204,199,-1871,-392,-1030,-569,-330,259,139,-443
0,5695211,199,-1871,-392,-1030,-569,-330,259,139,-443
0,5695217,199,-1871,-392,-1030,-569,-330,259,139,-443
0,5695224,197,-1873,-379,-1026,-565,-333,263,143,-441
0,5695233,197,-1873,-379,-1026,-565,-333,263,143,-441
0,5695239,197,-1873,-379,-1026,-565,-333,263,143,-441
0,5695244,198,-1873,-385,-1036,-568,-332,263,143,-441
0,5695249,198,-1873,-385,-1036,-568,-332,263,143,-441
0,5695254,198,-1873,-385,-1036,-568,-332,263,143,-441
0,5695261,198,-1873,-385,-1036,-568,-332,263,143,-441
0,5695267,196,-1871,-379,-1032,-573,-328,263,143,-441
0,5695277,196,-1871,-379,-1032,-573,-328,263,143,-441
0,5695284,198,-1872,-383,-1026,-569,-325,263,143,-441
0,5695290,198,-1872,-383,-1026,-569,-325,263,143,-441
0,5695298,198,-1872,-383,-1026,-569,-325,263,143,-441
0,5695305,201,-1875,-383,-1013,-559,-324,263,143,-441
0,5695311,201,-1875,-383,-1013,-559,-324,263,143,-441
0,5695319,201,-1875,-383,-1013,-559,-324,263,143,-441
0,5695327,201,-1875,-383,-1013,-559,-324,263,143,-441
0,5695335,201,-1875,-383,-1013,-559,-324,263,143,-441
0,5695343,198,-1874,-383,-1017,-562,-323,263,143,-441
0,5695350,198,-1874,-383,-1017,-562,-323,263,143,-441
0,5695357,198,-1874,-383,-1017,-562,-323,263,143,-441
0,5695365,197,-1872,-382,-1025,-569,-325,263,143,-441
0,5695373,197,-1872,-382,-1025,-569,-325,263,143,-441
0,5695379,197,-1872,-382,-1025,-569,-325,263,143,-441
0,5695386,201,-1874,-382,-1023,-563,-324,263,143,-441
0,5695394,201,-1874,-382,-1023,-563,-324,263,143,-441
0,5695400,201,-1874,-382,-1023,-563,-324,263,143,-441
0,5695408,199,-1876,-380,-1023,-562,-323,263,143,-441
0,5695415,199,-1876,-380,-1023,-562,-323,263,143,-441
0,5695423,199,-1876,-380,-1023,-562,-323,263,143,-441
0,5695429,199,-1875,-385,-1020,-561,-322,263,143,-441
0,5695437,199,-1875,-385,-1020,-561,-322,263,143,-441
0,5695443,198,-1874,-383,-1022,-560,-317,263,143,-441
0,5695450,198,-1874,-383,-1022,-560,-317,263,143,-441
0,5695456,198,-1874,-383,-1022,-560,-317,263,143,-441
0,5695463,199,-1874,-381,-1019,-569,-317,263,143,-441
0,5695470,199,-1874,-381,-1019,-569,-317,263,143,-441
0,5695477,199,-1874,-381,-1019,-569,-317,263,143,-441
0,5695484,197,-1875,-379,-1016,-565,-321,260,144,-450
0,5695491,197,-1875,-379,-1016,-565,-321,260,144,-450
0,5695498,197,-1875,-379,-1016,-565,-321,260,144,-450
0,5695504,197,-1873,-379,-1033,-568,-319,260,144,-450
0,5695511,197,-1873,-379,-1033,-568,-319,260,144,-450
0,5695519,197,-1873,-379,-1033,-568,-319,260,144,-450
0,5695526,198,-1872,-386,-1023,-567,-319,260,144,-450
0,5695535,198,-1872,-386,-1023,-567,-319,260,144,-450
0,5695540,198,-1872,-386,-1023,-567,-319,260,144,-450
0,5695544,200,-1872,-375,-1021,-567,-320,260,144,-450
0,5695549,200,-1872,-375,-1021,-567,-320,260,144,-450
0,5695554,200,-1872,-375,-1021,-567,-320,260,144,-450
0,5695560,200,-1872,-375,-1021,-567,-320,260,144,-450
0,5695565,200,-1875,-376,-1028,-567,-330,260,144,-450
0,5695572,200,-1875,-376,-1028,-567,-330,260,144,-450
0,5695580,200,-1875,-376,-1028,-567,-330,260,144,-450
0,5695585,199,-1873,-380,-1027,-565,-326,260,144,-450
0,5695592,199,-1873,-380,-1027,-565,-326,260,144,-450
0,5695599,199,-1873,-380,-1027,-565,-326,260,144,-450
0,5695604,199,-1872,-378,-1021,-564,-329,261,145,-437
0,5695613,199,-1872,-378,-1021,-564,-329,261,145,-437
0,5695621,199,-1872,-378,-1021,-564,-329,261,145,-437
0,5695628,201,-1869,-381,-1024,-561,-333,261,145,-437
0,5695634,201,-1869,-381,-1024,-561,-333,261,145,-437
0,5695641,201,-1869,-381,-1024,-561,-333,261,145,-437
0,5695647,203,-1874,-378,-1015,-568,-326,261,145,-437
0,5695653,203,-1874,-378,-1015,-568,-326,261,145,-437
0,5695662,203,-1874,-378,-1015,-568,-326,261,145,-437
0,5695669,199,-1874,-377,-1023,-566,-324,261,145,-437
0,5695676,199,-1874,-377,-1023,-566,-324,261,145,-437
0,5695684,201,-1874,-381,-1022,-566,-329,261,145,-437
0,5695692,201,-1874,-381,-1022,-566,-329,261,145,-437
0,5695698,201,-1874,-381,-1022,-566,-329,261,145,-437
0,5695707,199,-1873,-388,-1020,-565,-323,261,145,-437
0,5695713,199,-1873,-388,-1020,-565,-323,261,145,-437
0,5695720,199,-1873,-388,-1020,-565,-323,261,145,-437
0,5695727,202,-1873,-384,-1022,-562,-321,261,145,-437
0,5695733,202,-1873,-384,-1022,-562,-321,261,145,-437
0,5695741,202,-1873,-384,-1022,-562,-321,261,145,-437
0,5695748,201,-1873,-375,-1022,-564,-326,272,144,-444
0,5695755,201,-1873,-375,-1022,-564,-326,272,144,-444
0,5695760,201,-1873,-375,-1022,-564,-326,272,144,-444
0,5695766,199,-1873,-387,-1021,-567,-331,272,144,-444
0,5695770,199,-1873,-387,-1021,-567,-331,272,144,-444
0,5695778,199,-1873,-387,-1021,-567,-331,272,144,-444
0,5695787,199,-1870,-385,-1021,-567,-326,272,144,-444
0,5695792,199,-1870,-385,-1021,-567,-326,272,144,-444
0,5695799,199,-1870,-385,-1021,-567,-326,272,144,-444
0,5695805,195,-1874,-380,-1027,-562,-322,272,144,-444
0,5695812,195,-1874,-380,-1027,-562,-322,272,144,-444
0,5695818,195,-1874,-380,-1027,-562,-322,272,144,-444
0,5695825,196,-1872,-382,-1018,-564,-324,272,144,-444
0,5695833,196,-1872,-382,-1018,-564,-324,272,144,-444
0,5695839,196,-1872,-382,-1018,-564,-324,272,144,-444
0,5695847,201,-1874,-383,-1012,-564,-325,272,144,-444
0,5695854,201,-1874,-383,-1012,-564,-325,272,144,-444
0,5695861,201,-1874,-383,-1012,-564,-325,272,144,-444
0,5695868,201,-1872,-381,-1023,-558,-327,256,148,-448
0,5695875,201,-1872,-381,-1023,-558,-327,256,148,-448
0,5695881,201,-1872,-381,-1023,-558,-327,256,148,-448
0,5695888,198,-1874,-381,-1027,-563,-320,256,148,-448
0,5695896,198,-1874,-381,-1027,-563,-320,256,148,-448
0,5695902,198,-1874,-381,-1027,-563,-320,256,148,-448
0,5695908,201,-1877,-389,-1022,-563,-322,256,148,-448
0,5695918,201,-1877,-389,-1022,-563,-322,256,148,-448
0,5695924,197,-1873,-382,-1024,-565,-328,256,148,-448
0,5695930,197,-1873,-382,-1024,-565,-328,256,148,-448
0,5695937,197,-1873,-382,-1024,-565,-328,256,148,-448
0,5695944,196,-1873,-381,-1020,-565,-331,256,148,-448
0,5695951,196,-1873,-381,-1020,-565,-331,256,148,-448
0,5695959,196,-1873,-381,-1020,-565,-331,256,148,-448
0,5695966,201,-1876,-388,-1026,-565,-328,256,148,-448
0,5695972,201,-1876,-388,-1026,-565,-328,256,148,-448
0,5695977,201,-1876,-388,-1026,-565,-328,256,148,-448
0,5695983,201,-1876,-388,-1026,-565,-328,256,148,-448
0,5695987,201,-1875,-386,-1027,-567,-327,256,148,-448
0,5695993,201,-1875,-386,-1027,-567,-327,256,148,-448
0,5695998,201,-1875,-386,-1027,-567,-327,256,148,-448
0,5696005,197,-1873,-386,-1020,-573,-331,252,150,-444
0,5696010,197,-1873,-386,-1020,-573,-331,252,150,-444
0,5696015,197,-1873,-386,-1020,-573,-331,252,150,-444
0,5696021,197,-1873,-386,-1020,-573,-331,252,150,-444
0,5696030,199,-1874,-382,-1027,-563,-328,252,150,-444
0,5696037,199,-1874,-382,-1027,-563,-328,252,150,-444
0,5696045,200,-1875,-384,-1020,-566,-322,252,150,-444
0,5696051,200,-1875,-384,-1020,-566,-322,252,150,-444
0,5696059,200,-1875,-384,-1020,-566,-322,252,150,-444
0,5696065,199,-1871,-390,-1029,-572,-322,252,150,-444
0,5696073,199,-1871,-390,-1029,-572,-322,252,150,-444
0,5696089,199,-1871,-381,-1020,-565,-323,252,150,-444
0,5696100,199,-1871,-381,-1020,-565,-323,252,150,-444
0,5696113,199,-1871,-381,-1020,-565,-323,252,150,-444
0,5696126,200,-1873,-384,-1025,-561,-323,259,141,-439
0,5696140,200,-1873,-384,-1025,-561,-323,259,141,-439
0,5696152,201,-1874,-382,-1027,-563,-324,259,141,-439
0,5696164,199,-1875,-388,-1028,-563,-328,259,141,-439
0,5696179,199,-1875,-388,-1028,-563,-328,259,141,-439
0,5696191,198,-1874,-386,-1017,-558,-327,259,141,-439
0,5696203,198,-1874,-386,-1017,-558,-327,259,141,-439
0,5696214,199,-1875,-382,-1031,-565,-329,259,141,-439
0,5696225,200,-1875,-386,-1027,-569,-322,259,141,-439
0,5696237,200,-1875,-386,-1027,-569,-322,259,141,-439
0,5696251,202,-1873,-382,-1030,-566,-324,260,146,-442
0,5696261,202,-1873,-382,-1030,-566,-324,260,146,-442
0,5696271,199,-1874,-381,-1028,-564,-331,260,146,-442
0,5696282,199,-1874,-381,-1028,-564,-331,260,146,-442
0,5696292,198,-1873,-384,-1027,-564,-330,260,146,-442
0,5696306,200,-1875,-386,-1030,-568,-320,260,146,-442
0,5696316,200,-1875,-386,-1030,-568,-320,260,146,-442
0,5696324,200,-1872,-384,-1032,-561,-330,260,146,-442
0,5696332,200,-1872,-384,-1032,-561,-330,260,146,-442
0,5696340,200,-1872,-384,-1032,-561,-330,260,146,-442
0,5696349,202,-1874,-385,-1027,-570,-330,260,146,-442
0,5696360,202,-1874,-385,-1027,-570,-330,260,146,-442
0,5696371,198,-1875,-385,-1022,-571,-322,260,146,-442
0,5696385,198,-1875,-385,-1022,-571,-322,260,146,-442
0,5696396,200,-1875,-379,-1018,-564,-327,256,140,-442
0,5696409,198,-1872,-372,-1022,-569,-329,256,140,-442
0,5696422,198,-1872,-372,-1022,-569,-329,256,140,-442
0,5696437,199,-1871,-383,-1019,-572,-330,256,140,-442
0,5696448,201,-1875,-390,-1016,-569,-328,256,140,-442
0,5696460,201,-1875,-390,-1016,-569,-328,256,140,-442
0,5696472,198,-1875,-389,-1025,-566,-328,256,140,-442
0,5696482,198,-1875,-389,-1025,-566,-328,256,140,-442
0,5696492,198,-1875,-387,-1022,-569,-322,256,140,-442
0,5696506,201,-1875,-380,-1021,-568,-323,255,147,-439
0,5696520,201,-1875,-380,-1021,-568,-323,255,147,-439
0,5696529,198,-1874,-384,-1018,-561,-327,255,147,-439
0,5696537,198,-1874,-384,-1018,-561,-327,255,147,-439
0,5696545,199,-1875,-384,-1021,-569,-333,255,147,-439
0,5696553,199,-1875,-384,-1021,-569,-333,255,147,-439
0,5696562,199,-1875,-384,-1021,-569,-333,255,147,-439
0,5696574,199,-1876,-375,-1031,-562,-328,255,147,-439
0,5696586,200,-1877,-388,-1023,-562,-322,255,147,-439
0,5696598,200,-1877,-388,-1023,-562,-322,255,147,-439
0,5696611,199,-1872,-380,-1028,-566,-322,255,147,-439
0,5696623,199,-1872,-380,-1028,-566,-322,255,147,-439
0,5696635,199,-1875,-386,-1026,-570,-327,255,147,-439
0,5696649,197,-1874,-377,-1033,-566,-323,260,146,-442
0,5696662,197,-1874,-377,-1033,-566,-323,260,146,-442
0,5696675,200,-1875,-380,-1030,-569,-321,260,146,-442
0,5696687,196,-1874,-382,-1026,-571,-326,260,146,-442
0,5696697,196,-1874,-382,-1026,-571,-326,260,146,-442
0,5696709,199,-1878,-383,-1022,-570,-323,260,146,-442
0,5696721,199,-1878,-383,-1022,-570,-323,260,146,-442
0,5696737,196,-1876,-389,-1024,-570,-323,260,146,-442
0,5696746,201,-1872,-381,-1029,-565,-328,260,146,-442
0,5696758,201,-1872,-381,-1029,-565,-328,260,146,-442
0,5696773,198,-1873,-380,-1024,-555,-329,258,140,-440
0,5696784,198,-1873,-380,-1024,-555,-329,258,140,-440
0,5696794,199,-1872,-381,-1018,-565,-326,258,140,-440
0,5696806,201,-1875,-382,-1016,-565,-318,258,140,-440
0,5696819,201,-1875,-382,-1016,-565,-318,258,140,-440
0,5696831,201,-1871,-383,-1021,-571,-321,258,140,-440
0,5696844,201,-1871,-383,-1021,-571,-321,258,140,-440
0,5696857,198,-1877,-383,-1015,-566,-317,258,140,-440
0,5696869,199,-1877,-383,-1026,-571,-331,258,140,-440
0,5696882,199,-1877,-383,-1026,-571,-331,258,140,-440
0,5696894,198,-1876,-382,-1020,-564,-328,258,140,-440
0,5696907,199,-1874,-375,-1032,-569,-328,264,148,-446
0,5696917,199,-1874,-375,-1032,-569,-328,264,148,-446
0,5696927,196,-1874,-380,-1035,-565,-325,264,148,-446
0,5696941,196,-1874,-380,-1035,-565,-325,264,148,-446
0,5696953,200,-1876,-377,-1023,-566,-326,264,148,-446
0,5696963,200,-1876,-377,-1023,-566,-326,264,148,-446
0,5696973,198,-1874,-380,-1032,-572,-325,264,148,-446
0,5696983,198,-1874,-380,-1032,-572,-325,264,148,-446
0,5696991,202,-1877,-384,-1035,-568,-328,264,148,-446
0,5696999,202,-1877,-384,-1035,-568,-328,264,148,-446
0,5697007,200,-1871,-390,-1025,-563,-320,264,148,-446
0,5697015,200,-1871,-390,-1025,-563,-320,264,148,-446
0,5697024,200,-1871,-390,-1025,-563,-320,264,148,-446
0,5697032,199,-1872,-382,-1024,-566,-322,259,145,-443
0,5697040,199,-1872,-382,-1024,-566,-322,259,145,-443
0,5697048,197,-1876,-380,-1026,-567,-323,259,145,-443
0,5697056,197,-1876,-380,-1026,-567,-323,259,145,-443
0,5697063,197,-1876,-380,-1026,-567,-323,259,145,-443
0,5697072,197,-1876,-387,-1033,-571,-328,259,145,-443
0,5697080,197,-1876,-387,-1033,-571,-328,259,145,-443
0,5697086,199,-1874,-382,-1024,-570,-324,259,145,-443
0,5697091,199,-1874,-382,-1024,-570,-324,259,145,-443
0,5697097,199,-1874,-382,-1024,-570,-324,259,145,-443
0,5697103,199,-1874,-382,-1024,-570,-324,259,145,-443
0,5697108,199,-1875,-380,-1028,-569,-322,259,145,-443
0,5697115,199,-1875,-380,-1028,-569,-322,259,145,-443
0,5697121,199,-1875,-380,-1028,-569,-322,259,145,-443
0,5697127,199,-1872,-386,-1030,-564,-329,259,145,-443
0,5697134,199,-1872,-386,-1030,-564,-329,259,145,-443
0,5697139,199,-1872,-386,-1030,-564,-329,259,145,-443
0,5697145,199,-1872,-386,-1030,-564,-329,259,145,-443
0,5697153,201,-1874,-387,-1017,-561,-322,255,137,-441
0,5697159,201,-1874,-387,-1017,-561,-322,255,137,-441
0,5697165,201,-1874,-387,-1017,-561,-322,255,137,-441
0,5697172,199,-1873,-381,-1030,-562,-330,255,137,-441
0,5697179,199,-1873,-381,-1030,-562,-330,255,137,-441
0,5697186,199,-1872,-383,-1025,-563,-317,255,137,-441
0,5697193,199,-1872,-383,-1025,-563,-317,255,137,-441
0,5697201,199,-1872,-383,-1025,-563,-317,255,137,-441
0,5697209,199,-1877,-379,-1027,-565,-318,255,137,-441
0,5697216,199,-1877,-379,-1027,-565,-318,255,137,-441
0,5697223,199,-1877,-379,-1027,-565,-318,255,137,-441
0,5697229,198,-1875,-379,-1026,-559,-322,255,137,-441
0,5697238,198,-1875,-379,-1026,-559,-322,255,137,-441
0,5697246,198,-1875,-379,-1026,-559,-322,255,137,-441
0,5697254,201,-1876,-384,-1032,-567,-330,255,137,-441
0,5697260,201,-1876,-384,-1032,-567,-330,255,137,-441
0,5697266,201,-1875,-380,-1028,-563,-324,255,137,-441
0,5697273,201,-1875,-380,-1028,-563,-324,255,137,-441
0,5697282,201,-1875,-380,-1028,-563,-324,255,137,-441
0,5697288,200,-1872,-380,-1020,-560,-322,255,143,-441
0,5697295,200,-1872,-380,-1020,-560,-322,255,143,-441
0,5697300,200,-1872,-380,-1020,-560,-322,255,143,-441
0,5697308,200,-1874,-381,-1022,-562,-330,255,143,-441
0,5697316,200,-1874,-381,-1022,-562,-330,255,143,-441
0,5697324,200,-1874,-381,-1022,-562,-330,255,143,-441
0,5697332,197,-1873,-377,-1027,-571,-325,255,143,-441
0,5697338,197,-1873,-377,-1027,-571,-325,255,143,-441
0,5697345,197,-1873,-377,-1027,-571,-325,255,143,-441
0,5697352,197,-1878,-380,-1023,-565,-324,255,143,-441
0,5697359,197,-1878,-380,-1023,-565,-324,255,143,-441
0,5697366,202,-1875,-380,-1022,-563,-325,255,143,-441
0,5697373,202,-1875,-380,-1022,-563,-325,255,143,-441
0,5697379,202,-1875,-380,-1022,-563,-325,255,143,-441
0,5697387,201,-1875,-391,-1023,-563,-324,255,143,-441
0,5697393,201,-1875,-391,-1023,-563,-324,255,143,-441
0,5697399,201,-1875,-391,-1023,-563,-324,255,143,-441
0,5697406,200,-1870,-386,-1028,-569,-325,260,152,-444
0,5697413,200,-1870,-386,-1028,-569,-325,260,152,-444
0,5697421,200,-1870,-386,-1028,-569,-325,260,152,-444
0,5697428,201,-1873,-383,-1020,-568,-325,260,152,-444
0,5697433,201,-1873,-383,-1020,-568,-325,260,152,-444
0,5697439,201,-1873,-383,-1020,-568,-325,260,152,-444
0,5697445,201,-1873,-383,-1020,-568,-325,260,152,-444
0,5697452,198,-1871,-380,-1021,-571,-325,260,152,-444
0,5697460,198,-1871,-380,-1021,-571,-325,260,152,-444
0,5697465,198,-1871,-380,-1021,-571,-325,260,152,-444
0,5697473,199,-1874,-380,-1024,-571,-323,260,152,-444
0,5697481,199,-1874,-380,-1024,-571,-323,260,152,-444
0,5697489,199,-1875,-383,-1027,-567,-328,260,152,-444
0,5697497,199,-1875,-383,-1027,-567,-328,260,152,-444
0,5697505,199,-1875,-383,-1027,-567,-328,260,152,-444
0,5697510,201,-1873,-384,-1023,-571,-322,260,152,-444
0,5697516,201,-1873,-384,-1023,-571,-322,260,152,-444
0,5697523,201,-1873,-384,-1023,-571,-322,260,152,-444
0,5697531,198,-1874,-381,-1031,-567,-328,260,152,-444
0,5697537,198,-1874,-381,-1031,-567,-328,260,152,-444
0,5697542,198,-1874,-381,-1031,-567,-328,260,152,-444
0,5697547,195,-1874,-377,-1036,-565,-330,257,129,-445
0,5697552,195,-1874,-377,-1036,-565,-330,257,129,-445
0,5697557,195,-1874,-377,-1036,-565,-330,257,129,-445
0,5697562,195,-1874,-377,-1036,-565,-330,257,129,-445
0,5697570,199,-1868,-381,-1027,-563,-328,257,129,-445
0,5697577,199,-1868,-381,-1027,-563,-328,257,129,-445
0,5697585,199,-1868,-381,-1027,-563,-328,257,129,-445
0,5697591,201,-1877,-381,-1030,-570,-329,257,129,-445
0,5697598,201,-1877,-381,-1030,-570,-329,257,129,-445
0,5697603,201,-1877,-381,-1030,-570,-329,257,129,-445
0,5697608,198,-1874,-382,-1026,-572,-331,257,129,-445
0,5697613,198,-1874,-382,-1026,-572,-331,257,129,-445
0,5697623,198,-1874,-382,-1026,-572,-331,257,129,-445
0,5697631,200,-1876,-380,-1029,-571,-335,257,129,-445
0,5697637,200,-1876,-380,-1029,-571,-335,257,129,-445
0,5697644,200,-1876,-380,-1029,-571,-335,257,129,-445
0,5697649,201,-1873,-383,-1036,-561,-331,257,129,-445
0,5697656,201,-1873,-383,-1036,-561,-331,257,129,-445
0,5697665,201,-1873,-383,-1036,-561,-331,257,129,-445
0,5697672,198,-1871,-383,-1028,-563,-322,258,136,-446
0,5697679,198,-1871,-383,-1028,-563,-322,258,136,-446
0,5697684,198,-1871,-383,-1028,-563,-322,258,136,-446
0,5697690,199,-1873,-381,-1025,-560,-322,258,136,-446
0,5697697,199,-1873,-381,-1025,-560,-322,258,136,-446
0,5697704,199,-1873,-381,-1025,-560,-322,258,136,-446
0,5697712,200,-1874,-387,-1018,-567,-328,258,136,-446
0,5697719,200,-1874,-387,-1018,-567,-328,258,136,-446
0,5697725,200,-1874,-387,-1018,-567,-328,258,136,-446
0,5697732,199,-1873,-382,-1015,-562,-325,258,136,-446
0,5697740,199,-1873,-382,-1015,-562,-325,258,136,-446
0,5697746,200,-1874,-382,-1031,-566,-330,258,136,-446
0,5697754,200,-1874,-382,-1031,-566,-330,258,136,-446
0,5697761,200,-1874,-382,-1031,-566,-330,258,136,-446
0,5697768,200,-1874,-385,-1021,-564,-323,258,136,-446
0,5697774,200,-1874,-385,-1021,-564,-323,258,136,-446
0,5697781,200,-1874,-385,-1021,-564,-323,258,136,-446
0,5697789,200,-1872,-385,-1022,-564,-330,258,136,-446
0,5697796,200,-1872,-385,-1022,-564,-330,258,136,-446
0,5697804,200,-1872,-385,-1022,-564,-330,258,136,-446
0,5697810,200,-1874,-375,-1020,-562,-323,251,145,-445
0,5697816,200,-1874,-375,-1020,-562,-323,251,145,-445
0,5697824,200,-1874,-375,-1020,-562,-323,251,145,-445
0,5697832,198,-1875,-381,-1021,-562,-331,251,145,-445
0,5697840,198,-1875,-381,-1021,-562,-331,251,145,-445
0,5697846,198,-1875,-381,-1021,-562,-331,251,145,-445
0,5697853,198,-1875,-381,-1010,-561,-325,251,145,-445
0,5697859,198,-1875,-381,-1010,-561,-325,251,145,-445
0,5697866,202,-1876,-380,-1018,-568,-323,251,145,-445
0,5697873,202,-1876,-380,-1018,-568,-323,251,145,-445
0,5697882,202,-1876,-380,-1018,-568,-323,251,145,-445
0,5697890,197,-1873,-380,-1018,-564,-329,251,145,-445
0,5697897,197,-1873,-380,-1018,-564,-329,251,145,-445
0,5697905,197,-1873,-380,-1018,-564,-329,251,145,-445
0,5697911,199,-1872,-380,-1027,-573,-324,251,145,-445
0,5697918,199,-1872,-380,-1027,-573,-324,251,145,-445
0,5697926,199,-1872,-380,-1027,-573,-324,251,145,-445
0,5697932,201,-1874,-375,-1029,-573,-323,262,146,-442
0,5697940,201,-1874,-375,-1029,-573,-323,262,146,-442
0,5697947,197,-1876,-379,-1022,-570,-324,262,146,-442
0,5697953,197,-1876,-379,-1022,-570,-324,262,146,-442
0,5697960,197,-1876,-379,-1022,-570,-324,262,146,-442
0,5697970,198,-1876,-383,-1026,-569,-326,262,146,-442
0,5697975,198,-1876,-383,-1026,-569,-326,262,146,-442
0,5697980,198,-1876,-383,-1026,-569,-326,262,146,-442
0,5697985,198,-1876,-383,-1026,-569,-326,262,146,-442
0,5697990,201,-1875,-382,-1026,-566,-328,262,146,-442
0,5697995,201,-1875,-382,-1026,-566,-328,262,146,-442
0,5698000,201,-1875,-382,-1026,-566,-328,262,146,-442
0,5698008,198,-1875,-380,-1023,-566,-328,262,146,-442
0,5698016,198,-1875,-380,-1023,-566,-328,262,146,-442
0,5698023,198,-1875,-380,-1023,-566,-328,262,146,-442
0,5698030,201,-1874,-383,-1025,-569,-322,262,146,-442
0,5698037,201,-1874,-383,-1025,-569,-322,262,146,-442
0,5698044,201,-1874,-383,-1025,-569,-322,262,146,-442
0,5698051,201,-1877,-380,-1034,-568,-329,259,151,-445
0,5698057,201,-1877,-380,-1034,-568,-329,259,151,-445
0,5698065,201,-1877,-380,-1034,-568,-329,259,151,-445
0,5698070,199,-1875,-378,-1024,-562,-328,259,151,-445
0,5698077,199,-1875,-378,-1024,-562,-328,259,151,-445
0,5698084,199,-1875,-378,-1024,-562,-328,259,151,-445
0,5698094,200,-1873,-383,-1025,-566,-323,259,151,-445
0,5698102,200,-1873,-383,-1025,-566,-323,259,151,-445
0,5698110,196,-1875,-383,-1030,-571,-331,259,151,-445
0,5698118,196,-1875,-383,-1030,-571,-331,259,151,-445
0,5698126,196,-1875,-383,-1030,-571,-331,259,151,-445
0,5698137,203,-1874,-382,-1036,-569,-324,259,151,-445
0,5698148,198,-1873,-391,-1037,-564,-329,259,151,-445
0,5698163,198,-1873,-391,-1037,-564,-329,259,151,-445
0,5698178,199,-1871,-385,-1026,-568,-330,259,151,-445
0,5698188,197,-1877,-380,-1033,-572,-326,261,139,-443
0,5698200,197,-1877,-380,-1033,-572,-326,261,139,-443
0,5698215,202,-1873,-382,-1030,-568,-328,261,139,-443
0,5698230,199,-1873,-379,-1030,-570,-323,261,139,-443
0,5698239,199,-1873,-379,-1030,-570,-323,261,139,-443
0,5698250,201,-1875,-382,-1025,-559,-326,261,139,-443
0,5698264,201,-1875,-382,-1025,-559,-326,261,139,-443
0,5698276,198,-1874,-383,-1025,-564,-322,261,139,-443
0,5698287,198,-1872,-383,-1027,-563,-326,261,139,-443
0,5698299,198,-1872,-383,-1027,-563,-326,261,139,-443
0,5698313,199,-1875,-378,-1027,-564,-319,257,143,-441
0,5698326,199,-1875,-378,-1027,-564,-319,257,143,-441
0,5698338,196,-1873,-386,-1024,-562,-320,257,143,-441
0,5698353,199,-1876,-381,-1029,-567,-324,257,143,-441
0,5698365,199,-1876,-381,-1029,-567,-324,257,143,-441
0,5698378,201,-1874,-382,-1021,-568,-323,257,143,-441
0,5698392,199,-1873,-381,-1021,-574,-320,257,143,-441
0,5698404,199,-1873,-381,-1021,-574,-320,257,143,-441
0,5698416,199,-1877,-382,-1034,-569,-327,257,143,-441
0,5698429,200,-1875,-383,-1031,-567,-325,257,143,-441
0,5698442,200,-1875,-383,-1031,-567,-325,257,143,-441
0,5698454,196,-1874,-387,-1029,-564,-326,258,146,-438
0,5698467,198,-1872,-382,-1030,-573,-319,258,146,-438
0,5698482,198,-1872,-382,-1030,-573,-319,258,146,-438
0,5698495,198,-1875,-380,-1026,-571,-321,258,146,-438
0,5698505,198,-1875,-380,-1026,-571,-321,258,146,-438
0,5698519,199,-1874,-386,-1028,-571,-323,258,146,-438
0,5698533,200,-1873,-381,-1029,-570,-324,258,146,-438
0,5698541,200,-1873,-381,-1029,-570,-324,258,146,-438
0,5698548,197,-1875,-380,-1021,-568,-323,258,146,-438
0,5698556,197,-1875,-380,-1021,-568,-323,258,146,-438
0,5698566,197,-1875,-380,-1021,-568,-323,258,146,-438
0,5698576,197,-1875,-377,-1025,-570,-323,257,147,-447
0,5698586,197,-1875,-377,-1025,-570,-323,257,147,-447
0,5698601,201,-1874,-377,-1029,-572,-322,257,147,-447
0,5698615,200,-1873,-382,-1033,-566,-326,257,147,-447
0,5698623,200,-1873,-382,-1033,-566,-326,257,147,-447
0,5698635,199,-1874,-381,-1035,-568,-324,257,147,-447
0,5698650,199,-1874,-382,-1028,-563,-329,257,147,-447
0,5698662,199,-1874,-382,-1028,-563,-329,257,147,-447
0,5698673,197,-1872,-380,-1022,-559,-324,257,147,-447
0,5698686,197,-1872,-380,-1022,-559,-324,257,147,-447
0,5698700,200,-1873,-380,-1025,-574,-321,257,147,-447
0,5698712,198,-1874,-377,-1028,-571,-330,260,146,-442
0,5698723,198,-1874,-377,-1028,-571,-330,260,146,-442
0,5698734,201,-1871,-382,-1025,-569,-319,260,146,-442
0,5698742,201,-1871,-382,-1025,-569,-319,260,146,-442
0,5698750,197,-1874,-383,-1022,-566,-325,260,146,-442
0,5698758,197,-1874,-383,-1022,-566,-325,260,146,-442
0,5698766,197,-1874,-383,-1022,-566,-325,260,146,-442
0,5698779,198,-1875,-381,-1025,-574,-331,260,146,-442
0,5698789,200,-1873,-384,-1028,-574,-328,260,146,-442
0,5698802,200,-1873,-384,-1028,-574,-328,260,146,-442
0,5698812,202,-1873,-383,-1030,-564,-332,260,146,-442
0,5698825,202,-1873,-383,-1030,-564,-332,260,146,-442
0,5698838,201,-1872,-380,-1031,-570,-331,256,148,-440
0,5698849,200,-1874,-382,-1023,-571,-326,256,148,-440
0,5698863,200,-1874,-382,-1023,-571,-326,256,148,-440
0,5698876,200,-1877,-383,-1023,-565,-320,256,148,-440
0,5698889,201,-1873,-384,-1024,-561,-323,256,148,-440
0,5698902,201,-1873,-384,-1024,-561,-323,256,148,-440
0,5698915,199,-1875,-383,-1024,-566,-327,256,148,-440
0,5698927,199,-1875,-383,-1024,-566,-327,256,148,-440
0,5698940,198,-1877,-384,-1020,-559,-326,256,148,-440
0,5698954,199,-1871,-383,-1026,-567,-324,260,148,-442
0,5698967,199,-1871,-383,-1026,-567,-324,260,148,-442
0,5698975,201,-1873,-378,-1030,-569,-324,260,148,-442
0,5698983,201,-1873,-378,-1030,-569,-324,260,148,-442
0,5698992,199,-1874,-386,-1030,-564,-324,260,148,-442
0,5699000,199,-1874,-386,-1030,-564,-324,260,148,-442
0,5699009,200,-1874,-385,-1029,-557,-323,260,148,-442
0,5699016,200,-1874,-385,-1029,-557,-323,260,148,-442
0,5699024,200,-1874,-385,-1029,-557,-323,260,148,-442
0,5699033,199,-1874,-384,-1026,-569,-325,260,148,-442
0,5699041,199,-1874,-384,-1026,-569,-325,260,148,-442
0,5699049,202,-1873,-383,-1028,-573,-327,260,148,-442
0,5699057,202,-1873,-383,-1028,-573,-327,260,148,-442
0,5699066,202,-1873,-383,-1028,-573,-327,260,148,-442
0,5699076,198,-1873,-386,-1021,-575,-334,260,148,-442
0,5699090,199,-1872,-378,-1018,-568,-332,255,147,-439
0,5699097,199,-1872,-378,-1018,-568,-332,255,147,-439
0,5699105,199,-1872,-378,-1018,-568,-332,255,147,-439
0,5699113,200,-1876,-381,-1015,-562,-327,255,147,-439
0,5699121,200,-1876,-381,-1015,-562,-327,255,147,-439
0,5699128,200,-1874,-382,-1030,-566,-331,255,147,-439
0,5699135,200,-1874,-382,-1030,-566,-331,255,147,-439
0,5699142,200,-1874,-382,-1030,-566,-331,255,147,-439
0,5699148,200,-1876,-379,-1025,-560,-329,255,147,-439
0,5699155,200,-1876,-379,-1025,-560,-329,255,147,-439
0,5699164,200,-1876,-379,-1025,-560,-329,255,147,-439
0,5699170,199,-1874,-383,-1027,-559,-325,255,147,-439
0,5699176,199,-1874,-383,-1027,-559,-325,255,147,-439
0,5699182,199,-1874,-383,-1027,-559,-325,255,147,-439
0,5699190,203,-1873,-384,-1028,-568,-325,255,147,-439
0,5699196,203,-1873,-384,-1028,-568,-325,255,147,-439
0,5699203,203,-1873,-384,-1028,-568,-325,255,147,-439
0,5699210,201,-1874,-381,-1025,-570,-321,262,140,-442
0,5699217,201,-1874,-381,-1025,-570,-321,262,140,-442
0,5699223,201,-1874,-381,-1025,-570,-321,262,140,-442
0,5699231,201,-1874,-377,-1026,-568,-325,262,140,-442
0,5699237,201,-1874,-377,-1026,-568,-325,262,140,-442
0,5699243,201,-1874,-377,-1026,-568,-325,262,140,-442
0,5699250,200,-1875,-380,-1031,-564,-328,262,140,-442
0,5699257,200,-1875,-380,-1031,-564,-328,262,140,-442
0,5699262,200,-1875,-380,-1031,-564,-328,262,140,-442
0,5699268,200,-1875,-380,-1031,-564,-328,262,140,-442
0,5699273,196,-1874,-382,-1027,-567,-328,262,140,-442
0,5699281,196,-1874,-382,-1027,-567,-328,262,140,-442
0,5699288,196,-1874,-382,-1027,-567,-328,262,140,-442
0,5699293,199,-1874,-375,-1027,-572,-331,262,140,-442
0,5699299,199,-1874,-375,-1027,-572,-331,262,140,-442
0,5699306,199,-1874,-375,-1027,-572,-331,262,140,-442
0,5699313,202,-1872,-380,-1026,-561,-329,262,140,-442
0,5699319,202,-1872,-380,-1026,-561,-329,262,140,-442
0,5699324,202,-1872,-380,-1026,-561,-329,262,140,-442
0,5699333,197,-1876,-386,-1028,-565,-323,262,140,-442
0,5699340,197,-1876,-386,-1028,-565,-323,262,140,-442
0,5699348,197,-1876,-386,-1028,-565,-323,262,140,-442
0,5699355,198,-1872,-382,-1024,-571,-325,258,148,-448
0,5699360,198,-1872,-382,-1024,-571,-325,258,148,-448
0,5699365,198,-1872,-382,-1024,-571,-325,258,148,-448
0,5699372,200,-1870,-380,-1028,-561,-334,258,148,-448
0,5699378,200,-1870,-380,-1028,-561,-334,258,148,-448
0,5699386,200,-1870,-380,-1028,-561,-334,258,148,-448
0,5699393,200,-1873,-379,-1026,-559,-322,258,148,-448
0,5699400,200,-1873,-379,-1026,-559,-322,258,148,-448
0,5699408,200,-1873,-382,-1021,-562,-328,258,148,-448
0,5699416,200,-1873,-382,-1021,-562,-328,258,148,-448
0,5699422,200,-1873,-382,-1021,-562,-328,258,148,-448
0,5699429,198,-1874,-387,-1028,-564,-327,258,148,-448
0,5699435,198,-1874,-387,-1028,-564,-327,258,148,-448
0,5699442,198,-1874,-387,-1028,-564,-327,258,148,-448
0,5699449,200,-1875,-387,-1027,-556,-324,258,148,-448
0,5699457,200,-1875,-387,-1027,-556,-324,258,148,-448
0,5699465,200,-1875,-387,-1027,-556,-324,258,148,-448
0,5699472,199,-1874,-375,-1027,-569,-317,252,146,-446
0,5699478,199,-1874,-375,-1027,-569,-317,252,146,-446
0,5699485,199,-1874,-375,-1027,-569,-317,252,146,-446
0,5699494,202,-1872,-383,-1028,-569,-321,252,146,-446
0,5699502,202,-1872,-383,-1028,-569,-321,252,146,-446
0,5699508,202,-1872,-383,-1028,-569,-321,252,146,-446
0,5699514,196,-1873,-379,-1031,-567,-321,252,146,-446
0,5699522,196,-1873,-379,-1031,-567,-321,252,146,-446
0,5699529,197,-1872,-379,-1033,-563,-329,252,146,-446
0,5699535,197,-1872,-379,-1033,-563,-329,252,146,-446
0,5699540,197,-1872,-379,-1033,-563,-329,252,146,-446
0,5699546,197,-1872,-379,-1033,-563,-329,252,146,-446
0,5699551,201,-1874,-380,-1028,-564,-321,252,146,-446
0,5699556,201,-1874,-380,-1028,-564,-321,252,146,-446
0,5699562,201,-1874,-380,-1028,-564,-321,252,146,-446
0,5699569,200,-1874,-380,-1029,-563,-326,252,146,-446
0,5699578,200,-1874,-380,-1029,-563,-326,252,146,-446
0,5699585,200,-1874,-380,-1029,-563,-326,252,146,-446
0,5699592,201,-1871,-379,-1033,-558,-327,252,146,-446
0,5699600,201,-1871,-379,-1033,-558,-327,252,146,-446
0,5699608,201,-1871,-379,-1033,-558,-327,252,146,-446
0,5699615,200,-1873,-381,-1020,-564,-317,260,138,-444
0,5699623,200,-1873,-381,-1020,-564,-317,260,138,-444
0,5699631,201,-1871,-382,-1023,-564,-320,260,138,-444
0,5699639,201,-1871,-382,-1023,-564,-320,260,138,-444
0,5699644,201,-1871,-382,-1023,-564,-320,260,138,-444
0,5699652,197,-1871,-386,-1020,-563,-323,260,138,-444
0,5699660,197,-1871,-386,-1020,-563,-323,260,138,-444
0,5699667,197,-1871,-386,-1020,-563,-323,260,138,-444
0,5699674,196,-1874,-386,-1026,-561,-334,260,138,-444
0,5699682,196,-1874,-386,-1026,-561,-334,260,138,-444
0,5699688,196,-1874,-386,-1026,-561,-334,260,138,-444
0,5699694,199,-1876,-382,-1028,-572,-330,260,138,-444
0,5699702,199,-1876,-382,-1028,-572,-330,260,138,-444
0,5699709,200,-1874,-383,-1023,-576,-329,260,138,-444
0,5699717,200,-1874,-383,-1023,-576,-329,260,138,-444
0,5699723,200,-1874,-383,-1023,-576,-329,260,138,-444
0,5699730,197,-1874,-380,-1033,-571,-324,257,145,-443
0,5699737,197,-1874,-380,-1033,-571,-324,257,145,-443
0,5699743,197,-1874,-380,-1033,-571,-324,257,145,-443
0,5699750,202,-1875,-376,-1028,-571,-330,257,145,-443
0,5699758,202,-1875,-376,-1028,-571,-330,257,145,-443
0,5699765,202,-1875,-376,-1028,-571,-330,257,145,-443
0,5699772,201,-1873,-380,-1031,-573,-329,257,145,-443
0,5699778,201,-1873,-380,-1031,-573,-329,257,145,-443
0,5699786,201,-1873,-380,-1031,-573,-329,257,145,-443
0,5699793,202,-1875,-385,-1027,-570,-330,257,145,-443
0,5699801,202,-1875,-385,-1027,-570,-330,257,145,-443
0,5699809,202,-1875,-385,-1027,-570,-330,257,145,-443
0,5699817,204,-1874,-383,-1028,-568,-328,257,145,-443
0,5699823,204,-1874,-383,-1028,-568,-328,257,145,-443
0,5699828,199,-1875,-385,-1021,-565,-329,257,145,-443
0,5699835,199,-1875,-385,-1021,-565,-329,257,145,-443
0,5699844,199,-1875,-385,-1021,-565,-329,257,145,-443
0,5699851,199,-1873,-383,-1031,-568,-333,261,143,-445
0,5699857,199,-1873,-383,-1031,-568,-333,261,143,-445
0,5699863,199,-1873,-383,-1031,-568,-333,261,143,-445
0,5699870,199,-1875,-382,-1029,-572,-326,261,143,-445
0,5699877,199,-1875,-382,-1029,-572,-326,261,143,-445
0,5699885,199,-1875,-382,-1029,-572,-326,261,143,-445
0,5699893,203,-1873,-388,-1021,-561,-327,261,143,-445
0,5699902,203,-1873,-388,-1021,-561,-327,261,143,-445
0,5699909,200,-1875,-385,-1023,-568,-331,261,143,-445
0,5699917,200,-1875,-385,-1023,-568,-331,261,143,-445
0,5699926,200,-1875,-385,-1023,-568,-331,261,143,-445
0,5699933,202,-1873,-379,-1019,-561,-329,261,143,-445
0,5699940,202,-1873,-379,-1019,-561,-329,261,143,-445
0,5699947,202,-1873,-379,-1019,-561,-329,261,143,-445
0,5699954,202,-1872,-384,-1028,-563,-329,261,143,-445
0,5699960,202,-1872,-384,-1028,-563,-329,261,143,-445
0,5699969,202,-1872,-384,-1028,-563,-329,261,143,-445
0,5699974,200,-1873,-380,-1031,-567,-328,261,143,-445
0,5699979,200,-1873,-380,-1031,-567,-328,261,143,-445
0,5699984,200,-1873,-380,-1031,-567,-328,261,143,-445
0,5699989,200,-1873,-380,-1031,-567,-328,261,143,-445
0,5699993,197,-1871,-382,-1027,-563,-326,253,151,-443
0,5699998,197,-1871,-382,-1027,-563,-326,253,151,-443
0,5700003,197,-1871,-382,-1027,-563,-326,253,151,-443
0,5700009,199,-1873,-384,-1026,-563,-331,253,151,-443
0,5700018,199,-1873,-384,-1026,-563,-331,253,151,-443
0,5700026,199,-1873,-384,-1026,-563,-331,253,151,-443
0,5700032,197,-1879,-385,-1030,-570,-339,253,151,-443
0,5700038,197,-1879,-385,-1030,-570,-339,253,151,-443
0,5700046,197,-1879,-385,-1030,-570,-339,253,151,-443
0,5700054,200,-1873,-383,-1028,-567,-329,253,151,-443
0,5700061,200,-1873,-383,-1028,-567,-329,253,151,-443
0,5700068,200,-1873,-383,-1028,-567,-329,253,151,-443
0,5700075,198,-1876,-390,-1023,-565,-321,253,151,-443
0,5700081,198,-1876,-390,-1023,-565,-321,253,151,-443
0,5700088,198,-1876,-390,-1023,-565,-321,253,151,-443
0,5700096,197,-1876,-381,-1035,-570,-313,253,151,-443
0,5700108,197,-1876,-381,-1035,-570,-313,253,151,-443
0,5700117,198,-1872,-379,-1028,-563,-317,261,139,-451
0,5700128,198,-1872,-379,-1028,-563,-317,261,139,-451
0,5700141,201,-1875,-374,-1026,-562,-329,261,139,-451
0,5700154,203,-1870,-379,-1025,-565,-328,261,139,-451
0,5700164,203,-1870,-379,-1025,-565,-328,261,139,-451
0,5700178,199,-1873,-382,-1022,-565,-323,261,139,-451
0,5700191,199,-1875,-383,-1024,-566,-321,261,139,-451
0,5700200,199,-1875,-383,-1024,-566,-321,261,139,-451
0,5700211,198,-1874,-383,-1029,-564,-321,261,139,-451
0,5700227,198,-1874,-383,-1029,-564,-321,261,139,-451
0,5700239,201,-1873,-382,-1028,-563,-327,261,139,-451
0,5700248,201,-1873,-382,-1028,-563,-327,261,139,-451
0,5700258,200,-1873,-382,-1027,-574,-322,253,151,-447
0,5700267,200,-1873,-382,-1027,-574,-322,253,151,-447
0,5700275,202,-1872,-384,-1032,-567,-323,253,151,-447
0,5700283,202,-1872,-384,-1032,-567,-323,253,151,-447
0,5700292,203,-1873,-383,-1024,-571,-321,253,151,-447
0,5700300,203,-1873,-383,-1024,-571,-321,253,151,-447
0,5700312,204,-1873,-379,-1029,-567,-322,253,151,-447
0,5700326,204,-1873,-379,-1029,-567,-322,253,151,-447
0,5700339,198,-1872,-385,-1024,-573,-320,253,151,-447
0,5700349,198,-1872,-387,-1025,-568,-326,253,151,-447
0,5700363,198,-1872,-387,-1025,-568,-326,253,151,-447
0,5700377,200,-1873,-378,-1030,-568,-323,256,144,-450
0,5700391,199,-1873,-378,-1025,-570,-324,256,144,-450
0,5700402,199,-1873,-378,-1025,-570,-324,256,144,-450
0,5700413,198,-1874,-382,-1026,-573,-322,256,144,-450
0,5700425,198,-1874,-382,-1026,-573,-322,256,144,-450
0,5700438,198,-1873,-378,-1031,-568,-314,256,144,-450
0,5700450,198,-1874,-381,-1039,-564,-320,256,144,-450
0,5700463,198,-1874,-381,-1039,-564,-320,256,144,-450
0,5700474,199,-1875,-385,-1036,-567,-323,256,144,-450
0,5700488,199,-1875,-385,-1036,-567,-323,256,144,-450
0,5700501,196,-1875,-382,-1028,-569,-323,263,149,-443
0,5700513,201,-1876,-380,-1030,-573,-323,263,149,-443
0,5700526,201,-1876,-380,-1030,-573,-323,263,149,-443
0,5700536,198,-1874,-386,-1030,-566,-327,263,149,-443
0,5700543,198,-1874,-386,-1030,-566,-327,263,149,-443
0,5700551,198,-1874,-386,-1030,-566,-327,263,149,-443
0,5700559,198,-1874,-386,-1030,-566,-327,263,149,-443
0,5700569,198,-1874,-386,-1030,-566,-327,263,149,-443
0,5700580,201,-1874,-386,-1028,-564,-318,263,149,-443
0,5700593,200,-1876,-387,-1037,-562,-322,263,149,-443
0,5700606,200,-1876,-387,-1037,-562,-322,263,149,-443
0,5700616,200,-1877,-385,-1028,-563,-330,263,149,-443
0,5700628,200,-1877,-385,-1028,-563,-330,263,149,-443
0,5700637,202,-1875,-378,-1027,-575,-331,270,146,-442
0,5700647,202,-1875,-378,-1027,-575,-331,270,146,-442
0,5700661,199,-1873,-376,-1028,-564,-334,270,146,-442
0,5700674,199,-1872,-386,-1033,-564,-331,270,146,-442
0,5700684,199,-1872,-386,-1033,-564,-331,270,146,-442
0,5700697,200,-1874,-380,-1026,-564,-331,270,146,-442
0,5700710,203,-1875,-379,-1023,-560,-323,270,146,-442
0,5700723,203,-1875,-379,-1023,-560,-323,270,146,-442
0,5700734,200,-1873,-379,-1026,-564,-327,270,146,-442
0,5700747,200,-1873,-379,-1026,-564,-327,270,146,-442
0,5700761,200,-1875,-382,-1033,-576,-330,257,141,-443
0,5700774,200,-1876,-379,-1034,-569,-332,257,141,-443
0,5700785,200,-1876,-379,-1034,-569,-332,257,141,-443
0,5700795,199,-1871,-375,-1028,-571,-326,257,141,-443
0,5700808,199,-1871,-375,-1028,-571,-326,257,141,-443
0,5700823,201,-1871,-381,-1029,-567,-331,257,141,-443
0,5700834,200,-1875,-384,-1023,-568,-334,257,141,-443
0,5700847,200,-1875,-384,-1023,-568,-334,257,141,-443
0,5700859,203,-1874,-381,-1028,-567,-329,257,141,-443
0,5700873,202,-1875,-376,-1027,-569,-328,257,141,-443
0,5700883,202,-1875,-376,-1027,-569,-328,257,141,-443
0,5700897,200,-1873,-377,-1022,-564,-327,251,139,-441
0,5700910,200,-1873,-377,-1022,-564,-327,251,139,-441
0,5700918,199,-1876,-377,-1024,-569,-320,251,139,-441
0,5700926,199,-1876,-377,-1024,-569,-320,251,139,-441
0,5700934,198,-1875,-376,-1022,-567,-323,251,139,-441
0,5700942,198,-1875,-376,-1022,-567,-323,251,139,-441
0,5700951,199,-1873,-383,-1020,-560,-325,251,139,-441
0,5700959,199,-1873,-383,-1020,-560,-325,251,139,-441
0,5700967,199,-1873,-383,-1020,-560,-325,251,139,-441
0,5700975,195,-1875,-379,-1017,-562,-321,251,139,-441
0,5700982,195,-1875,-379,-1017,-562,-321,251,139,-441
0,5700990,200,-1876,-381,-1013,-561,-324,251,139,-441
0,5700998,200,-1876,-381,-1013,-561,-324,251,139,-441
0,5701006,200,-1876,-381,-1013,-561,-324,251,139,-441
0,5701014,197,-1875,-379,-1027,-567,-323,253,151,-447
0,5701021,197,-1875,-379,-1027,-567,-323,253,151,-447
0,5701029,197,-1875,-379,-1027,-567,-323,253,151,-447
0,5701038,198,-1871,-383,-1033,-566,-322,253,151,-447
0,5701047,198,-1871,-383,-1033,-566,-322,253,151,-447
0,5701055,199,-1874,-383,-1034,-561,-322,253,151,-447
0,5701063,199,-1874,-383,-1034,-561,-322,253,151,-447
0,5701071,199,-1872,-384,-1026,-569,-325,253,151,-447
0,5701081,199,-1872,-384,-1026,-569,-325,253,151,-447
0,5701089,199,-1872,-384,-1026,-569,-325,253,151,-447
0,5701096,199,-1876,-382,-1023,-562,-329,253,151,-447
0,5701105,199,-1876,-382,-1023,-562,-329,253,151,-447
0,5701110,200,-1875,-382,-1025,-570,-323,253,151,-447
0,5701116,200,-1875,-382,-1025,-570,-323,253,151,-447
0,5701123,200,-1875,-382,-1025,-570,-323,253,151,-447
0,5701128,200,-1875,-382,-1025,-570,-323,253,151,-447
0,5701134,201,-1878,-377,-1026,-565,-322,253,151,-447
0,5701140,201,-1878,-377,-1026,-565,-322,253,151,-447
0,5701145,201,-1878,-377,-1026,-565,-322,253,151,-447
0,5701151,199,-1875,-371,-1024,-562,-327,261,149,-443
0,5701156,199,-1875,-371,-1024,-562,-327,261,149,-443
0,5701164,199,-1875,-371,-1024,-562,-327,261,149,-443
0,5701170,199,-1875,-371,-1024,-562,-327,261,149,-443
0,5701177,199,-1875,-380,-1021,-562,-327,261,149,-443
0,5701184,199,-1875,-380,-1021,-562,-327,261,149,-443
0,5701191,200,-1872,-385,-1020,-556,-329,261,149,-443
0,5701198,200,-1872,-385,-1020,-556,-329,261,149,-443
0,5701203,200,-1872,-385,-1020,-556,-329,261,149,-443
0,5701213,198,-1876,-382,-1031,-566,-326,261,149,-443
0,5701220,198,-1876,-382,-1031,-566,-326,261,149,-443
0,5701227,198,-1876,-382,-1031,-566,-326,261,149,-443
0,5701235,201,-1874,-381,-1025,-565,-332,261,149,-443
0,5701242,201,-1874,-381,-1025,-565,-332,261,149,-443
0,5701250,201,-1874,-381,-1025,-565,-332,261,149,-443
0,5701259,201,-1874,-384,-1027,-567,-328,261,149,-443
0,5701266,201,-1874,-384,-1027,-567,-328,261,149,-443
0,5701273,203,-1872,-379,-1026,-570,-321,252,148,-444
0,5701279,203,-1872,-379,-1026,-570,-321,252,148,-444
0,5701284,203,-1872,-379,-1026,-570,-321,252,148,-444
0,5701293,199,-1874,-382,-1026,-566,-329,252,148,-444
0,5701300,199,-1874,-382,-1026,-566,-329,252,148,-444
0,5701309,199,-1874,-382,-1026,-566,-329,252,148,-444
0,5701315,198,-1874,-382,-1019,-567,-327,252,148,-444
0,5701322,198,-1874,-382,-1019,-567,-327,252,148,-444
0,5701329,198,-1874,-382,-1019,-567,-327,252,148,-444
0,5701336,200,-1877,-384,-1017,-561,-319,252,148,-444
0,5701343,200,-1877,-384,-1017,-561,-319,252,148,-444
0,5701350,200,-1877,-384,-1017,-561,-319,252,148,-444
0,5701358,199,-1874,-386,-1022,-568,-323,252,148,-444
0,5701365,199,-1874,-386,-1022,-568,-323,252,148,-444
0,5701373,201,-1873,-383,-1021,-566,-326,252,148,-444
0,5701382,201,-1873,-383,-1021,-566,-326,252,148,-444
0,5701388,201,-1873,-383,-1021,-566,-326,252,148,-444
0,5701395,201,-1872,-384,-1018,-567,-332,266,142,-448
0,5701401,201,-1872,-384,-1018,-567,-332,266,142,-448
0,5701410,201,-1872,-384,-1018,-567,-332,266,142,-448
0,5701415,198,-1873,-381,-1033,-562,-335,266,142,-448
0,5701421,198,-1873,-381,-1033,-562,-335,266,142,-448
0,5701428,198,-1873,-381,-1033,-562,-335,266,142,-448
0,5701436,198,-1874,-385,-1028,-560,-321,266,142,-448
0,5701441,198,-1874,-385,-1028,-560,-321,266,142,-448
0,5701447,198,-1874,-385,-1028,-560,-321,266,142,-448
0,5701452,199,-1874,-386,-1026,-567,-321,266,142,-448
0,5701459,199,-1874,-386,-1026,-567,-321,266,142,-448
0,5701467,199,-1874,-386,-1026,-567,-321,266,142,-448
0,5701473,202,-1874,-387,-1021,-569,-322,266,142,-448
0,5701480,202,-1874,-387,-1021,-569,-322,266,142,-448
0,5701487,202,-1874,-387,-1021,-569,-322,266,142,-448
0,5701494,200,-1878,-380,-1021,-562,-323,266,142,-448
0,5701500,200,-1878,-380,-1021,-562,-323,266,142,-448
0,5701506,200,-1878,-380,-1021,-562,-323,266,142,-448
0,5701513,199,-1877,-388,-1026,-569,-328,266,142,-448
0,5701519,199,-1877,-388,-1026,-569,-328,266,142,-448
0,5701527,199,-1877,-388,-1026,-569,-328,266,142,-448
0,5701535,200,-1871,-383,-1023,-562,-330,254,144,-438
0,5701540,200,-1871,-383,-1023,-562,-330,254,144,-438
0,5701545,200,-1871,-383,-1023,-562,-330,254,144,-438
0,5701551,200,-1871,-383,-1023,-562,-330,254,144,-438
0,5701555,202,-1874,-374,-1017,-558,-326,254,144,-438
0,5701561,202,-1874,-374,-1017,-558,-326,254,144,-438
0,5701568,202,-1874,-374,-1017,-558,-326,254,144,-438
0,5701576,200,-1872,-380,-1026,-558,-324,254,144,-438
0,5701583,200,-1872,-380,-1026,-558,-324,254,144,-438
0,5701588,200,-1872,-380,-1026,-558,-324,254,144,-438
0,5701595,197,-1875,-385,-1028,-566,-330,254,144,-438
0,5701603,197,-1875,-385,-1028,-566,-330,254,144,-438
0,5701610,197,-1875,-385,-1028,-566,-330,254,144,-438
0,5701616,197,-1874,-383,-1017,-566,-320,254,144,-438
0,5701622,197,-1874,-383,-1017,-566,-320,254,144,-438
0,5701629,197,-1874,-383,-1017,-566,-320,254,144,-438
0,5701636,200,-1872,-382,-1026,-568,-327,254,144,-438
0,5701644,200,-1872,-382,-1026,-568,-327,254,144,-438
0,5701651,200,-1872,-379,-1025,-564,-320,254,144,-438
0,5701657,200,-1872,-379,-1025,-564,-320,254,148,-440
0,5701664,200,-1872,-379,-1025,-564,-320,254,148,-440
0,5701672,200,-1875,-376,-1027,-568,-332,254,148,-440
0,5701680,200,-1875,-376,-1027,-568,-332,254,148,-440
0,5701687,200,-1875,-376,-1027,-568,-332,254,148,-440
0,5701695,195,-1874,-383,-1033,-571,-334,254,148,-440
0,5701702,195,-1874,-383,-1033,-571,-334,254,148,-440
0,5701710,195,-1874,-383,-1033,-571,-334,254,148,-440
0,5701718,200,-1873,-386,-1025,-570,-333,254,148,-440
0,5701723,200,-1873,-386,-1025,-570,-333,254,148,-440
0,5701729,200,-1873,-386,-1025,-570,-333,254,148,-440
0,5701735,202,-1873,-383,-1019,-575,-327,254,148,-440
0,5701743,202,-1873,-383,-1019,-575,-327,254,148,-440
0,5701749,202,-1873,-383,-1019,-575,-327,254,148,-440
0,5701756,198,-1873,-382,-1031,-568,-323,254,148,-440
0,5701764,198,-1873,-382,-1031,-568,-323,254,148,-440
0,5701770,198,-1873,-382,-1031,-568,-323,254,148,-440
0,5701777,197,-1876,-381,-1036,-567,-324,254,148,-440
0,5701785,197,-1876,-381,-1036,-567,-324,254,148,-440
0,5701791,200,-1877,-378,-1032,-566,-329,261,141,-437
0,5701797,200,-1877,-378,-1032,-566,-329,261,141,-437
0,5701806,200,-1877,-378,-1032,-566,-329,261,141,-437
0,5701813,200,-1876,-375,-1030,-571,-322,261,141,-437
0,5701819,200,-1876,-375,-1030,-571,-322,261,141,-437
0,5701828,200,-1876,-375,-1030,-571,-322,261,141,-437
0,5701835,199,-1877,-378,-1028,-560,-326,261,141,-437
0,5701841,199,-1877,-378,-1028,-560,-326,261,141,-437
0,5701850,199,-1877,-378,-1028,-560,-326,261,141,-437
0,5701858,201,-1873,-379,-1022,-559,-325,261,141,-437
0,5701865,201,-1873,-379,-1022,-559,-325,261,141,-437
0,5701873,199,-1875,-385,-1014,-566,-321,261,141,-437
0,5701880,199,-1875,-385,-1014,-566,-321,261,141,-437
0,5701888,199,-1875,-385,-1014,-566,-321,261,141,-437
0,5701896,200,-1874,-385,-1014,-566,-321,261,141,-437
0,5701904,200,-1874,-385,-1014,-566,-321,261,141,-437
0,5701912,202,-1874,-382,-1019,-569,-316,258,146,-440
0,5701917,202,-1874,-382,-1019,-569,-316,258,146,-440
0,5701924,202,-1874,-382,-1019,-569,-316,258,146,-440
0,5701931,202,-1874,-382,-1019,-569,-316,258,146,-440
0,5701938,200,-1874,-377,-1027,-568,-323,258,146,-440
0,5701944,200,-1874,-377,-1027,-568,-323,258,146,-440
0,5701951,200,-1874,-377,-1027,-568,-323,258,146,-440
0,5701957,199,-1873,-380,-1023,-567,-334,258,146,-440
0,5701963,199,-1873,-380,-1023,-567,-334,258,146,-440
0,5701970,199,-1873,-380,-1023,-567,-334,258,146,-440
0,5701976,203,-1873,-382,-1034,-573,-328,258,146,-440
0,5701981,203,-1873,-382,-1034,-573,-328,258,146,-440
0,5701986,203,-1873,-382,-1034,-573,-328,258,146,-440
0,5701991,203,-1873,-382,-1034,-573,-328,258,146,-440
0,5701996,199,-1874,-388,-1026,-567,-323,258,146,-440
0,5702001,199,-1874,-388,-1026,-567,-323,258,146,-440
0,5702007,199,-1874,-388,-1026,-567,-323,258,146,-440
0,5702012,199,-1873,-384,-1033,-569,-326,258,146,-440
0,5702019,199,-1873,-384,-1033,-569,-326,258,146,-440
0,5702024,199,-1873,-384,-1033,-569,-326,258,146,-440
0,5702029,199,-1873,-384,-1033,-569,-326,258,146,-440
0,5702036,199,-1872,-378,-1026,-569,-332,258,146,-440
0,5702042,199,-1872,-378,-1026,-569,-332,258,146,-440
0,5702048,199,-1872,-378,-1026,-569,-332,258,146,-440
0,5702055,198,-1870,-380,-1025,-570,-328,256,140,-446
0,5702063,198,-1870,-380,-1025,-570,-328,256,140,-446
0,5702068,198,-1870,-380,-1025,-570,-328,256,140,-446
0,5702075,202,-1872,-382,-1023,-565,-331,256,140,-446
0,5702082,202,-1872,-382,-1023,-565,-331,256,140,-446
0,5702089,202,-1872,-382,-1023,-565,-331,256,140,-446
0,5702096,198,-1874,-386,-1031,-566,-332,256,140,-446
0,5702104,198,-1874,-386,-1031,-566,-332,256,140,-446
0,5702110,198,-1874,-386,-1031,-566,-332,256,140,-446
0,5702122,198,-1871,-383,-1021,-571,-333,256,140,-446
0,5702133,202,-1875,-381,-1026,-565,-315,256,140,-446
0,5702144,202,-1875,-381,-1026,-565,-315,256,140,-446
0,5702157,201,-1873,-385,-1028,-566,-326,256,140,-446
0,5702170,201,-1873,-385,-1028,-566,-326,256,140,-446
0,5702183,201,-1873,-385,-1028,-566,-326,257,143,-445
0,5702193,199,-1876,-382,-1022,-562,-327,257,143,-445
0,5702207,199,-1876,-382,-1022,-562,-327,257,143,-445
0,5702220,200,-1870,-386,-1023,-563,-323,257,143,-445
0,5702234,200,-1872,-379,-1020,-566,-323,257,143,-445
0,5702246,200,-1872,-379,-1020,-566,-323,257,143,-445
0,5702257,200,-1874,-382,-1024,-571,-323,257,143,-445
0,5702269,200,-1874,-382,-1024,-571,-323,257,143,-445
0,5702280,198,-1877,-387,-1032,-568,-327,257,143,-445
0,5702290,198,-1877,-387,-1032,-568,-327,257,143,-445
0,5702305,197,-1876,-382,-1038,-564,-328,255,145,-443
0,5702321,202,-1873,-375,-1026,-564,-322,255,145,-443
0,5702332,202,-1873,-375,-1026,-564,-322,255,145,-443
0,5702344,198,-1869,-385,-1031,-569,-324,255,145,-443
0,5702356,195,-1875,-384,-1016,-564,-320,255,145,-443
0,5702370,195,-1875,-384,-1016,-564,-320,255,145,-443
0,5702378,199,-1872,-385,-1022,-564,-324,255,145,-443
0,5702389,199,-1872,-385,-1022,-564,-324,255,145,-443
0,5702405,198,-1874,-386,-1016,-570,-322,255,145,-443
0,5702417,198,-1876,-380,-1020,-567,-327,255,145,-443
0,5702426,198,-1876,-380,-1020,-567,-327,255,145,-443
0,5702439,197,-1875,-378,-1029,-572,-321,256,144,-450
0,5702454,198,-1872,-380,-1031,-572,-329,256,144,-450
0,5702466,198,-1872,-380,-1031,-572,-329,256,144,-450
0,5702476,200,-1873,-382,-1026,-568,-324,256,144,-450
0,5702489,200,-1873,-382,-1026,-568,-324,256,144,-450
0,5702501,200,-1873,-380,-1024,-568,-327,256,144,-450
0,5702514,199,-1873,-387,-1031,-565,-329,256,144,-450
0,5702525,199,-1873,-387,-1031,-565,-329,256,144,-450
0,5702537,199,-1875,-380,-1024,-567,-323,256,144,-450
0,5702545,199,-1875,-380,-1024,-567,-323,256,144,-450
0,5702552,198,-1873,-375,-1017,-565,-329,260,134,-440
0,5702560,198,-1873,-375,-1017,-565,-329,260,134,-440
0,5702574,198,-1875,-374,-1024,-567,-326,260,134,-440
0,5702587,198,-1875,-374,-1024,-567,-326,260,134,-440
0,5702597,197,-1875,-383,-1023,-573,-329,260,134,-440
0,5702605,197,-1875,-383,-1023,-573,-329,260,134,-440
0,5702614,200,-1876,-378,-1029,-572,-323,260,134,-440
0,5702622,200,-1876,-378,-1029,-572,-323,260,134,-440
0,5702630,200,-1876,-378,-1029,-572,-323,260,134,-440
0,5702641,197,-1874,-386,-1029,-569,-327,260,134,-440
0,5702653,199,-1875,-382,-1027,-571,-332,260,134,-440
0,5702665,199,-1875,-382,-1027,-571,-332,260,134,-440
0,5702678,201,-1875,-386,-1019,-571,-326,260,134,-440
0,5702692,201,-1875,-386,-1019,-571,-326,260,134,-440
0,5702705,201,-1873,-377,-1021,-569,-327,256,146,-442
0,5702714,197,-1873,-377,-1026,-574,-324,256,146,-442
0,5702724,197,-1873,-377,-1026,-574,-324,256,146,-442
0,5702737,200,-1876,-380,-1026,-560,-327,256,146,-442
0,5702751,200,-1876,-380,-1026,-560,-327,256,146,-442
0,5702761,198,-1875,-384,-1021,-557,-324,256,146,-442
0,5702772,198,-1875,-388,-1025,-570,-329,256,146,-442
0,5702786,198,-1875,-388,-1025,-570,-329,256,146,-442
0,5702799,196,-1872,-380,-1030,-572,-325,256,146,-442
0,5702811,196,-1872,-380,-1030,-572,-325,256,146,-442
0,5702823,201,-1875,-376,-1018,-564,-328,250,146,-442
0,5702838,198,-1874,-379,-1022,-562,-321,250,146,-442
0,5702850,198,-1874,-379,-1022,-562,-321,250,146,-442
0,5702861,201,-1879,-380,-1022,-566,-321,250,146,-442
0,5702875,202,-1876,-379,-1021,-568,-317,250,146,-442
0,5702888,202,-1876,-379,-1021,-568,-317,250,146,-442
0,5702900,202,-1875,-381,-1029,-562,-325,250,146,-442
0,5702912,202,-1875,-381,-1029,-562,-325,250,146,-442
0,5702924,199,-1877,-383,-1027,-562,-326,250,146,-442
0,5702936,201,-1874,-380,-1022,-565,-326,250,146,-442
0,5702949,201,-1874,-380,-1022,-565,-326,250,146,-442
0,5702961,200,-1872,-379,-1018,-555,-327,262,146,-446
0,5702973,201,-1873,-388,-1022,-566,-330,262,146,-446
0,5702981,201,-1873,-388,-1022,-566,-330,262,146,-446
0,5702989,201,-1873,-388,-1022,-566,-330,262,146,-446
0,5702998,198,-1876,-380,-1022,-564,-324,262,146,-446
0,5703005,198,-1876,-380,-1022,-564,-324,262,146,-446
0,5703013,196,-1875,-381,-1026,-563,-322,262,146,-446
0,5703021,196,-1875,-381,-1026,-563,-322,262,146,-446
0,5703029,196,-1875,-381,-1026,-563,-322,262,146,-446
0,5703037,198,-1876,-385,-1025,-562,-324,262,146,-446
0,5703046,198,-1876,-385,-1025,-562,-324,262,146,-446
0,5703054,199,-1875,-379,-1029,-557,-324,262,146,-446
0,5703062,199,-1875,-379,-1029,-557,-324,262,146,-446
0,5703071,199,-1875,-379,-1029,-557,-324,262,146,-446
0,5703079,199,-1873,-377,-1024,-563,-328,256,144,-448
0,5703089,199,-1873,-377,-1024,-563,-328,256,144,-448
0,5703097,198,-1874,-381,-1025,-562,-327,256,144,-448
0,5703107,198,-1874,-381,-1025,-562,-327,256,144,-448
0,5703116,199,-1873,-384,-1028,-563,-321,256,144,-448
0,5703124,199,-1873,-384,-1028,-563,-321,256,144,-448
0,5703131,199,-1873,-384,-1028,-563,-321,256,144,-448
0,5703138,197,-1875,-383,-1018,-561,-320,256,144,-448
0,5703145,197,-1875,-383,-1018,-561,-320,256,144,-448
0,5703152,197,-1875,-383,-1018,-561,-320,256,144,-448
0,5703158,197,-1875,-383,-1018,-561,-320,256,144,-448
0,5703164,197,-1875,-383,-1018,-561,-320,256,144,-448
0,5703172,197,-1875,-383,-1018,-561,-320,256,144,-448
0,5703178,197,-1875,-380,-1019,-565,-325,256,144,-448
0,5703185,197,-1875,-380,-1019,-565,-325,256,144,-448
0,5703193,199,-1874,-382,-1020,-568,-319,259,141,-443
0,5703200,199,-1874,-382,-1020,-568,-319,259,141,-443
0,5703206,199,-1874,-382,-1020,-568,-319,259,141,-443
0,5703213,199,-1874,-382,-1020,-568,-319,259,141,-443
0,5703218,198,-1877,-386,-1023,-564,-329,259,141,-443
0,5703224,198,-1877,-386,-1023,-564,-329,259,141,-443
0,5703231,198,-1877,-386,-1023,-564,-329,259,141,-443
0,5703238,198,-1874,-380,-1033,-568,-331,259,141,-443
0,5703245,198,-1874,-380,-1033,-568,-331,259,141,-443
0,5703252,198,-1874,-380,-1033,-568,-331,259,141,-443
0,5703261,199,-1876,-384,-1029,-560,-326,259,141,-443
0,5703268,199,-1876,-384,-1029,-560,-326,259,141,-443
0,5703274,199,-1876,-379,-1036,-569,-323,259,141,-443
0,5703280,199,-1876,-379,-1036,-569,-323,259,141,-443
0,5703286,199,-1876,-379,-1036,-569,-323,259,141,-443
0,5703292,199,-1876,-379,-1036,-569,-323,259,141,-443
0,5703299,201,-1875,-377,-1025,-557,-322,259,141,-443
0,5703306,201,-1875,-377,-1025,-557,-322,259,141,-443
0,5703312,201,-1875,-377,-1025,-557,-322,259,141,-443
0,5703320,200,-1874,-379,-1018,-559,-327,259,141,-443
0,5703327,200,-1874,-379,-1018,-559,-327,259,141,-443
0,5703332,200,-1874,-379,-1018,-559,-327,259,141,-443
0,5703339,199,-1872,-379,-1031,-570,-325,255,147,-447
0,5703345,199,-1872,-379,-1031,-570,-325,255,147,-447
0,5703353,199,-1872,-379,-1031,-570,-325,255,147,-447
0,5703360,199,-1872,-379,-1026,-567,-326,255,147,-447
0,5703367,199,-1872,-379,-1026,-567,-326,255,147,-447
0,5703373,204,-1873,-382,-1025,-563,-316,255,147,-447
0,5703379,204,-1873,-382,-1025,-563,-316,255,147,-447
0,5703387,204,-1873,-382,-1025,-563,-316,255,147,-447
0,5703395,198,-1872,-384,-1029,-571,-321,255,147,-447
0,5703402,198,-1872,-384,-1029,-571,-321,255,147,-447
0,5703409,198,-1872,-384,-1029,-571,-321,255,147,-447
0,5703417,200,-1874,-381,-1024,-570,-328,255,147,-447
0,5703424,200,-1874,-381,-1024,-570,-328,255,147,-447
0,5703430,200,-1874,-381,-1024,-570,-328,255,147,-447
0,5703437,202,-1873,-384,-1023,-570,-323,255,147,-447
0,5703444,202,-1873,-384,-1023,-570,-323,255,147,-447
0,5703450,202,-1873,-384,-1023,-570,-323,255,147,-447
0,5703458,202,-1874,-378,-1029,-568,-321,259,147,-443
0,5703465,202,-1874,-378,-1029,-568,-321,259,147,-443
0,5703472,202,-1874,-378,-1029,-568,-321,259,147,-443
0,5703481,199,-1875,-385,-1023,-565,-326,259,147,-443
0,5703487,199,-1875,-385,-1023,-565,-326,259,147,-443
0,5703493,200,-1874,-384,-1026,-563,-329,259,147,-443
0,5703499,200,-1874,-384,-1026,-563,-329,259,147,-443
0,5703506,200,-1874,-384,-1026,-563,-329,259,147,-443
0,5703513,200,-1874,-384,-1026,-563,-329,259,147,-443
0,5703522,198,-1874,-383,-1024,-561,-328,259,147,-443
0,5703530,198,-1874,-383,-1024,-561,-328,259,147,-443
0,5703535,200,-1875,-387,-1022,-564,-331,259,147,-443
0,5703540,200,-1875,-387,-1022,-564,-331,259,147,-443
0,5703545,200,-1875,-387,-1022,-564,-331,259,147,-443
0,5703550,200,-1875,-387,-1022,-564,-331,259,147,-443
0,5703556,202,-1871,-388,-1026,-566,-331,259,147,-443
0,5703561,202,-1871,-388,-1026,-566,-331,259,147,-443
0,5703567,202,-1871,-388,-1026,-566,-331,259,147,-443
0,5703575,201,-1875,-383,-1023,-566,-318,259,147,-443
0,5703582,201,-1875,-383,-1023,-566,-318,259,147,-443
0,5703589,201,-1875,-383,-1023,-566,-318,259,147,-443
0,5703596,201,-1875,-383,-1023,-566,-318,256,140,-444
0,5703603,201,-1875,-383,-1023,-566,-318,256,140,-444
0,5703610,201,-1875,-383,-1023,-566,-318,256,140,-444
0,5703617,201,-1875,-378,-1020,-573,-326,256,140,-444
0,5703623,201,-1875,-378,-1020,-573,-326,256,140,-444
0,5703630,201,-1875,-378,-1020,-573,-326,256,140,-444
0,5703638,200,-1877,-382,-1024,-566,-326,256,140,-444
0,5703645,200,-1877,-382,-1024,-566,-326,256,140,-444
0,5703650,200,-1877,-382,-1024,-566,-326,256,140,-444
0,5703659,201,-1874,-387,-1029,-563,-321,256,140,-444
0,5703664,201,-1874,-387,-1029,-563,-321,256,140,-444
0,5703671,201,-1874,-387,-1029,-563,-321,256,140,-444
0,5703678,200,-1872,-386,-1026,-564,-329,256,140,-444
0,5703685,200,-1872,-386,-1026,-564,-329,256,140,-444
0,5703691,200,-1872,-386,-1026,-564,-329,256,140,-444
0,5703698,199,-1874,-381,-1025,-567,-327,256,140,-444
0,5703705,199,-1874,-381,-1025,-567,-327,256,140,-444
0,5703711,199,-1874,-381,-1025,-567,-327,256,140,-444
0,5703717,198,-1876,-376,-1023,-564,-332,263,141,-443
0,5703725,198,-1876,-376,-1023,-564,-332,263,141,-443
0,5703731,198,-1876,-376,-1023,-564,-332,263,141,-443
0,5703740,204,-1873,-378,-1034,-566,-328,263,141,-443
0,5703746,204,-1873,-378,-1034,-566,-328,263,141,-443
0,5703754,200,-1874,-375,-1030,-565,-323,263,141,-443
0,5703760,200,-1874,-375,-1030,-565,-323,263,141,-443
0,5703768,200,-1874,-375,-1030,-565,-323,263,141,-443
0,5703774,200,-1873,-377,-1020,-570,-319,263,141,-443
0,5703781,200,-1873,-377,-1020,-570,-319,263,141,-443
0,5703786,200,-1873,-377,-1020,-570,-319,263,141,-443
0,5703791,200,-1873,-377,-1020,-570,-319,263,141,-443
0,5703797,203,-1876,-383,-1027,-569,-327,263,141,-443
0,5703804,203,-1876,-383,-1027,-569,-327,263,141,-443
0,5703811,203,-1876,-383,-1027,-569,-327,263,141,-443
0,5703819,202,-1875,-387,-1028,-571,-322,263,141,-443
0,5703825,202,-1875,-387,-1028,-571,-322,263,141,-443
0,5703831,202,-1875,-387,-1028,-571,-322,263,141,-443
0,5703839,201,-1872,-377,-1036,-574,-319,263,141,-443
0,5703845,201,-1872,-377,-1036,-574,-319,263,141,-443
0,5703853,201,-1872,-377,-1036,-574,-319,263,141,-443
0,5703860,199,-1874,-383,-1025,-561,-325,251,147,-459
0,5703865,199,-1874,-383,-1025,-561,-325,251,147,-459
0,5703873,199,-1874,-383,-1025,-561,-325,251,147,-459
0,5703881,203,-1871,-381,-1013,-564,-319,251,147,-459
0,5703889,203,-1871,-381,-1013,-564,-319,251,147,-459
0,5703897,203,-1872,-384,-1022,-566,-328,251,147,-459
0,5703902,203,-1872,-384,-1022,-566,-328,251,147,-459
0,5703908,203,-1872,-384,-1022,-566,-328,251,147,-459
0,5703916,200,-1873,-380,-1028,-566,-334,251,147,-459
0,5703922,200,-1873,-380,-1028,-566,-334,251,147,-459
0,5703928,200,-1873,-380,-1028,-566,-334,251,147,-459
0,5703936,200,-1877,-380,-1031,-563,-327,251,147,-459
0,5703943,200,-1877,-380,-1031,-563,-327,251,147,-459
0,5703949,200,-1877,-380,-1031,-563,-327,251,147,-459
0,5703957,199,-1876,-382,-1032,-568,-325,251,147,-459
0,5703963,199,-1876,-382,-1032,-568,-325,251,147,-459
0,5703970,199,-1876,-382,-1032,-568,-325,251,147,-459
0,5703975,200,-1870,-381,-1030,-561,-331,255,135,-441
0,5703981,200,-1870,-381,-1030,-561,-331,255,135,-441
0,5703986,200,-1870,-381,-1030,-561,-331,255,135,-441
0,5703991,200,-1870,-381,-1030,-561,-331,255,135,-441
0,5703996,200,-1874,-378,-1026,-563,-329,255,135,-441
0,5704001,200,-1874,-378,-1026,-563,-329,255,135,-441
0,5704006,200,-1874,-378,-1026,-563,-329,255,135,-441
0,5704012,200,-1874,-378,-1026,-563,-329,255,135,-441
0,5704019,201,-1872,-383,-1021,-564,-325,255,135,-441
0,5704027,201,-1872,-383,-1021,-564,-325,255,135,-441
0,5704034,199,-1872,-383,-1028,-565,-329,255,135,-441
0,5704041,199,-1872,-383,-1028,-565,-329,255,135,-441
0,5704048,199,-1872,-383,-1028,-565,-329,255,135,-441
0,5704056,199,-1874,-383,-1033,-569,-319,255,135,-441
0,5704065,199,-1874,-383,-1033,-569,-319,255,135,-441
0,5704072,199,-1874,-383,-1033,-569,-319,255,135,-441
0,5704078,198,-1873,-387,-1024,-569,-319,255,135,-441
0,5704083,198,-1873,-387,-1024,-569,-319,255,135,-441
0,5704091,198,-1873,-387,-1024,-569,-319,255,135,-441
0,5704099,202,-1874,-377,-1021,-561,-324,255,145,-447
0,5704107,202,-1874,-377,-1021,-561,-324,255,145,-447
0,5704115,199,-1874,-380,-1018,-559,-330,255,145,-447
0,5704120,199,-1874,-380,-1018,-559,-330,255,145,-447
0,5704126,199,-1874,-380,-1018,-559,-330,255,145,-447
0,5704136,203,-1874,-386,-1026,-567,-331,255,145,-447
0,5704148,203,-1874,-386,-1026,-567,-331,255,145,-447
0,5704161,200,-1874,-387,-1028,-566,-327,255,145,-447
0,5704173,200,-1874,-387,-1028,-566,-327,255,145,-447
0,5704184,197,-1874,-387,-1020,-562,-327,255,145,-447
0,5704197,199,-1874,-382,-1025,-563,-322,255,145,-447
0,5704212,199,-1874,-382,-1025,-563,-322,255,145,-447
0,5704224,200,-1873,-387,-1025,-569,-323,255,145,-447
0,5704236,199,-1872,-381,-1025,-573,-331,258,142,-442
0,5704249,199,-1872,-381,-1025,-573,-331,258,142,-442
0,5704263,198,-1873,-384,-1032,-572,-328,258,142,-442
0,5704278,200,-1878,-387,-1026,-566,-328,258,142,-442
0,5704287,200,-1878,-387,-1026,-566,-328,258,142,-442
0,5704297,195,-1876,-384,-1020,-565,-326,258,142,-442
0,5704304,195,-1876,-384,-1020,-565,-326,258,142,-442
0,5704312,195,-1876,-384,-1020,-565,-326,258,142,-442
0,5704321,199,-1874,-388,-1019,-566,-322,258,142,-442
0,5704329,199,-1874,-388,-1019,-566,-322,258,142,-442
0,5704337,199,-1874,-390,-1020,-568,-326,258,142,-442
0,5704348,199,-1874,-390,-1020,-568,-326,258,142,-442
0,5704360,201,-1872,-380,-1027,-562,-322,256,148,-448
0,5704373,201,-1872,-380,-1027,-562,-322,256,148,-448
0,5704385,198,-1873,-382,-1027,-561,-324,256,148,-448
0,5704398,200,-1874,-383,-1030,-561,-328,256,148,-448
0,5704411,200,-1874,-383,-1030,-561,-328,256,148,-448
0,5704424,201,-1875,-382,-1030,-560,-313,256,148,-448
0,5704435,198,-1873,-379,-1033,-564,-325,256,148,-448
0,5704449,198,-1873,-379,-1033,-564,-325,256,148,-448
0,5704458,199,-1874,-385,-1031,-563,-328,256,148,-448
0,5704468,199,-1874,-385,-1031,-563,-328,256,148,-448
0,5704481,200,-1872,-384,-1025,-567,-331,256,148,-448
0,5704495,200,-1872,-384,-1025,-567,-331,256,148,-448
0,5704504,201,-1873,-379,-1032,-567,-335,259,145,-439
0,5704517,202,-1873,-382,-1020,-565,-337,259,145,-439
0,5704530,202,-1873,-382,-1020,-565,-337,259,145,-439
0,5704539,201,-1876,-379,-1027,-563,-331,259,145,-439
0,5704547,201,-1876,-379,-1027,-563,-331,259,145,-439
0,5704555,203,-1873,-378,-1025,-559,-331,259,145,-439
0,5704563,203,-1873,-378,-1025,-559,-331,259,145,-439
0,5704571,203,-1873,-378,-1025,-559,-331,259,145,-439
0,5704583,197,-1873,-381,-1033,-564,-327,259,145,-439
0,5704592,197,-1873,-381,-1033,-564,-327,259,145,-439
0,5704601,198,-1876,-383,-1027,-567,-328,259,145,-439
0,5704611,198,-1876,-383,-1027,-567,-328,259,145,-439
0,5704621,197,-1873,-374,-1024,-565,-326,254,146,-438
0,5704631,197,-1873,-374,-1024,-565,-326,254,146,-438
0,5704644,198,-1873,-380,-1026,-564,-324,254,146,-438
0,5704657,196,-1872,-381,-1034,-560,-323,254,146,-438
0,5704671,196,-1872,-381,-1034,-560,-323,254,146,-438
0,5704682,198,-1874,-383,-1032,-565,-322,254,146,-438
0,5704697,199,-1875,-382,-1026,-574,-322,254,146,-438
0,5704709,199,-1875,-382,-1026,-574,-322,254,146,-438
0,5704721,198,-1875,-389,-1025,-559,-323,254,146,-438
0,5704734,198,-1875,-389,-1025,-559,-323,254,146,-438
0,5704748,200,-1875,-385,-1027,-558,-322,257,145,-441
0,5704761,200,-1873,-379,-1029,-568,-334,257,145,-441
0,5704772,200,-1873,-379,-1029,-568,-334,257,145,-441
0,5704784,199,-1875,-384,-1026,-570,-329,257,145,-441
0,5704797,199,-1876,-382,-1024,-578,-325,257,145,-441
0,5704810,199,-1876,-382,-1024,-578,-325,257,145,-441
0,5704820,200,-1873,-382,-1031,-567,-331,257,145,-441
0,5704835,199,-1873,-382,-1028,-561,-326,257,145,-441
0,5704848,199,-1873,-382,-1028,-561,-326,257,145,-441
0,5704861,199,-1873,-385,-1032,-564,-323,257,145,-441
0,5704875,199,-1873,-385,-1032,-564,-323,257,145,-441
0,5704888,201,-1875,-382,-1024,-566,-320,257,147,-443
0,5704899,200,-1871,-381,-1025,-564,-325,257,147,-443
0,5704907,200,-1871,-381,-1025,-564,-325,257,147,-443
0,5704915,198,-1874,-385,-1021,-560,-323,257,147,-443
0,5704924,198,-1874,-385,-1021,-560,-323,257,147,-443
0,5704932,198,-1874,-385,-1021,-560,-323,257,147,-443
0,5704941,197,-1874,-382,-1026,-566,-329,257,147,-443
0,5704953,197,-1874,-382,-1026,-566,-329,257,147,-443
0,5704966,198,-1872,-384,-1029,-576,-325,257,147,-443
0,5704975,198,-1872,-384,-1029,-576,-325,257,147,-443
0,5704982,200,-1872,-384,-1024,-572,-320,257,147,-443
0,5704991,200,-1872,-384,-1024,-572,-320,257,147,-443
0,5704999,198,-1873,-383,-1026,-564,-319,260,144,-444
0,5705008,198,-1873,-383,-1026,-564,-319,260,144,-444
0,5705016,199,-1873,-377,-1028,-569,-322,260,144,-444
0,5705024,199,-1873,-377,-1028,-569,-322,260,144,-444
0,5705032,199,-1873,-377,-1028,-569,-322,260,144,-444
0,5705040,200,-1872,-386,-1025,-567,-322,260,144,-444
0,5705049,200,-1872,-386,-1025,-567,-322,260,144,-444
0,5705057,201,-1874,-384,-1027,-561,-324,260,144,-444
0,5705066,201,-1874,-384,-1027,-561,-324,260,144,-444
0,5705079,197,-1876,-385,-1027,-564,-332,260,144,-444
0,5705092,197,-1876,-385,-1027,-564,-332,260,144,-444
0,5705105,197,-1876,-383,-1027,-561,-328,260,144,-444
0,5705116,201,-1876,-382,-1025,-559,-327,260,144,-444
0,5705128,201,-1876,-382,-1025,-559,-327,260,144,-444
0,5705140,201,-1874,-380,-1028,-563,-324,261,149,-453
0,5705147,201,-1874,-380,-1028,-563,-324,261,149,-453
0,5705154,201,-1874,-380,-1028,-563,-324,261,149,-453
0,5705162,201,-1872,-379,-1025,-563,-318,261,149,-453
0,5705169,201,-1872,-379,-1025,-563,-318,261,149,-453
0,5705176,201,-1872,-379,-1025,-563,-318,261,149,-453
0,5705183,201,-1874,-376,-1031,-569,-324,261,149,-453
0,5705190,201,-1874,-376,-1031,-569,-324,261,149,-453
0,5705197,199,-1874,-377,-1026,-565,-331,261,149,-453
0,5705204,199,-1874,-377,-1026,-565,-331,261,149,-453
0,5705213,199,-1874,-377,-1026,-565,-331,261,149,-453
