imu,time,ax,ay,az,gx,gy,gz,mx,my,mz
1,5076535,426,-1365,-488,-1490,-301,-38,372,146,-278
1,5076542,421,-1366,-488,-1488,-300,-41,372,146,-278
1,5076547,421,-1366,-488,-1488,-300,-41,372,146,-278
1,5076553,421,-1366,-488,-1488,-300,-41,372,146,-278
1,5076558,424,-1366,-494,-1486,-295,-45,372,146,-278
1,5076564,424,-1366,-494,-1486,-295,-45,372,146,-278
1,5076570,424,-1366,-494,-1486,-295,-45,372,146,-278
1,5076574,424,-1366,-494,-1486,-295,-45,372,146,-278
1,5076579,427,-1363,-490,-1480,-296,-43,372,146,-278
1,5076584,427,-1363,-490,-1480,-296,-43,372,146,-278
1,5076589,427,-1363,-490,-1480,-296,-43,372,146,-278
1,5076594,427,-1363,-490,-1480,-296,-43,372,146,-278
1,5076599,425,-1365,-491,-1484,-293,-42,372,146,-278
1,5076605,425,-1365,-491,-1484,-293,-42,372,146,-278
1,5076611,425,-1365,-491,-1484,-293,-42,372,146,-278
1,5076617,425,-1363,-496,-1488,-298,-32,377,155,-273
1,5076623,425,-1363,-496,-1488,-298,-32,377,155,-273
1,5076628,425,-1363,-496,-1488,-298,-32,377,155,-273
1,5076634,425,-1363,-496,-1488,-298,-32,377,155,-273
1,5076642,424,-1363,-489,-1486,-293,-35,377,155,-273
1,5076649,424,-1363,-489,-1486,-293,-35,377,155,-273
1,5076658,424,-1360,-493,-1485,-303,-41,377,155,-273
1,5076665,424,-1360,-493,-1485,-303,-41,377,155,-273
1,5076672,424,-1360,-493,-1485,-303,-41,377,155,-273
1,5076679,425,-1366,-493,-1488,-300,-36,377,155,-273
1,5076685,425,-1366,-493,-1488,-300,-36,377,155,-273
1,5076689,425,-1366,-493,-1488,-300,-36,377,155,-273
1,5076696,427,-1366,-488,-1481,-301,-30,377,155,-273
1,5076701,427,-1366,-488,-1481,-301,-30,377,155,-273
1,5076710,427,-1366,-488,-1481,-301,-30,377,155,-273
1,5076717,421,-1364,-491,-1477,-309,-40,377,155,-273
1,5076725,421,-1364,-491,-1477,-309,-40,377,155,-273
1,5076732,421,-1364,-491,-1477,-309,-40,377,155,-273
1,5076741,424,-1367,-490,-1482,-302,-41,377,155,-273
1,5076747,424,-1367,-490,-1482,-302,-41,377,155,-273
1,5076755,424,-1367,-490,-1482,-302,-41,377,155,-273
1,5076762,424,-1367,-490,-1482,-302,-41,382,154,-276
1,5076768,424,-1367,-490,-1482,-302,-41,382,154,-276
1,5076775,425,-1367,-494,-1480,-299,-44,382,154,-276
1,5076786,425,-1367,-494,-1480,-299,-44,382,154,-276
1,5076791,425,-1367,-494,-1480,-299,-44,382,154,-276
1,5076797,423,-1367,-491,-1492,-298,-45,382,154,-276
1,5076804,423,-1367,-491,-1492,-298,-45,382,154,-276
1,5076811,423,-1367,-491,-1492,-298,-45,382,154,-276
1,5076817,426,-1364,-492,-1483,-301,-38,382,154,-276
1,5076826,426,-1364,-492,-1483,-301,-38,382,154,-276
1,5076832,426,-1364,-492,-1483,-301,-38,382,154,-276
1,5076839,424,-1361,-495,-1489,-301,-36,382,154,-276
1,5076846,424,-1361,-495,-1489,-301,-36,382,154,-276
1,5076852,424,-1361,-495,-1489,-301,-36,382,154,-276
1,5076860,424,-1366,-491,-1486,-304,-40,382,154,-276
1,5076868,424,-1366,-491,-1486,-304,-40,382,154,-276
1,5076876,426,-1367,-489,-1485,-305,-46,383,157,-275
1,5076883,426,-1367,-489,-1485,-305,-46,383,157,-275
1,5076889,426,-1367,-489,-1485,-305,-46,383,157,-275
1,5076896,424,-1364,-491,-1484,-306,-43,383,157,-275
1,5076902,424,-1364,-491,-1484,-306,-43,383,157,-275
1,5076910,424,-1364,-491,-1484,-306,-43,383,157,-275
1,5076918,425,-1364,-488,-1491,-302,-39,383,157,-275
1,5076925,425,-1364,-488,-1491,-302,-39,383,157,-275
1,5076931,425,-1364,-488,-1491,-302,-39,383,157,-275
1,5076938,425,-1364,-488,-1486,-302,-37,383,157,-275
1,5076944,425,-1364,-488,-1486,-302,-37,383,157,-275
1,5076950,425,-1364,-488,-1486,-302,-37,383,157,-275
1,5076956,425,-1364,-488,-1486,-302,-37,383,157,-275
1,5076962,426,-1365,-493,-1484,-306,-41,383,157,-275
1,5076969,426,-1365,-493,-1484,-306,-41,383,157,-275
1,5076977,422,-1362,-493,-1482,-303,-46,383,157,-275
1,5076983,422,-1362,-493,-1482,-303,-46,383,157,-275
1,5076989,422,-1362,-493,-1482,-303,-46,383,157,-275
1,5076997,423,-1363,-489,-1478,-303,-41,375,153,-279
1,5077005,423,-1363,-489,-1478,-303,-41,375,153,-279
1,5077011,423,-1363,-489,-1478,-303,-41,375,153,-279
1,5077017,425,-1367,-492,-1480,-303,-42,375,153,-279
1,5077025,425,-1367,-492,-1480,-303,-42,375,153,-279
1,5077032,425,-1367,-492,-1480,-303,-42,375,153,-279
1,5077040,427,-1365,-492,-1475,-299,-40,375,153,-279
1,5077047,427,-1365,-492,-1475,-299,-40,375,153,-279
1,5077055,422,-1366,-490,-1480,-300,-33,375,153,-279
1,5077062,422,-1366,-490,-1480,-300,-33,375,153,-279
1,5077068,422,-1366,-490,-1480,-300,-33,375,153,-279
1,5077076,425,-1364,-488,-1480,-301,-44,375,153,-279
1,5077083,425,-1364,-488,-1480,-301,-44,375,153,-279
1,5077088,425,-1364,-488,-1480,-301,-44,375,153,-279
1,5077096,425,-1366,-492,-1480,-300,-38,375,153,-279
1,5077102,425,-1366,-492,-1480,-300,-38,375,153,-279
1,5077109,425,-1366,-492,-1480,-300,-38,375,153,-279
1,5077116,424,-1365,-487,-1481,-301,-39,384,156,-278
1,5077124,424,-1365,-487,-1481,-301,-39,384,156,-278
1,5077131,424,-1365,-487,-1481,-301,-39,384,156,-278
1,5077137,421,-1364,-485,-1478,-297,-42,384,156,-278
1,5077144,421,-1364,-485,-1478,-297,-42,384,156,-278
1,5077153,421,-1364,-485,-1478,-297,-42,384,156,-278
1,5077160,427,-1367,-490,-1484,-300,-46,384,156,-278
1,5077166,427,-1367,-490,-1484,-300,-46,384,156,-278
1,5077171,427,-1367,-490,-1484,-300,-46,384,156,-278
1,5077176,425,-1364,-489,-1484,-299,-37,384,156,-278
1,5077181,425,-1364,-489,-1484,-299,-37,384,156,-278
1,5077187,425,-1364,-489,-1484,-299,-37,384,156,-278
1,5077195,424,-1366,-492,-1490,-302,-35,384,156,-278
1,5077201,424,-1366,-492,-1490,-302,-35,384,156,-278
1,5077209,424,-1366,-492,-1490,-302,-35,384,156,-278
1,5077216,423,-1367,-491,-1486,-299,-40,384,156,-278
1,5077223,423,-1367,-491,-1486,-299,-40,384,156,-278
1,5077231,423,-1367,-491,-1486,-299,-40,384,156,-278
1,5077238,427,-1364,-491,-1488,-302,-43,384,158,-268
1,5077245,427,-1364,-491,-1488,-302,-43,384,158,-268
1,5077252,427,-1364,-491,-1488,-302,-43,384,158,-268
1,5077259,422,-1364,-490,-1491,-302,-40,384,158,-268
1,5077266,422,-1364,-490,-1491,-302,-40,384,158,-268
1,5077274,422,-1364,-490,-1491,-302,-40,384,158,-268
1,5077280,423,-1364,-490,-1485,-302,-32,384,158,-268
1,5077286,423,-1364,-490,-1485,-302,-32,384,158,-268
1,5077295,423,-1364,-490,-1485,-302,-32,384,158,-268
1,5077303,424,-1364,-490,-1483,-298,-38,384,158,-268
1,5077311,424,-1364,-490,-1483,-298,-38,384,158,-268
1,5077317,423,-1364,-492,-1485,-293,-41,384,158,-268
1,5077324,423,-1364,-492,-1485,-293,-41,384,158,-268
1,5077330,423,-1364,-492,-1485,-293,-41,384,158,-268
1,5077338,424,-1364,-488,-1484,-301,-42,384,158,-268
1,5077345,424,-1364,-488,-1484,-301,-42,384,158,-268
1,5077353,424,-1364,-488,-1484,-301,-42,384,158,-268
1,5077359,424,-1363,-489,-1482,-299,-42,384,158,-268
1,5077367,424,-1363,-489,-1482,-299,-42,384,158,-268
1,5077373,424,-1363,-489,-1482,-299,-42,384,158,-268
1,5077381,423,-1365,-486,-1476,-298,-48,383,155,-275
1,5077386,423,-1365,-486,-1476,-298,-48,383,155,-275
1,5077393,423,-1365,-486,-1476,-298,-48,383,155,-275
1,5077400,421,-1365,-487,-1484,-299,-41,383,155,-275
1,5077405,421,-1365,-487,-1484,-299,-41,383,155,-275
1,5077413,421,-1365,-487,-1484,-299,-41,383,155,-275
1,5077421,424,-1361,-489,-1484,-297,-36,383,155,-275
1,5077429,424,-1361,-489,-1484,-297,-36,383,155,-275
1,5077436,425,-1365,-492,-1488,-295,-33,383,155,-275
1,5077441,425,-1365,-492,-1488,-295,-33,383,155,-275
1,5077447,425,-1365,-492,-1488,-295,-33,383,155,-275
1,5077454,425,-1365,-492,-1488,-295,-33,383,155,-275
1,5077462,426,-1369,-486,-1486,-299,-37,383,155,-275
1,5077469,426,-1369,-486,-1486,-299,-37,383,155,-275
1,5077476,424,-1370,-488,-1485,-305,-38,383,155,-275
1,5077484,424,-1370,-488,-1485,-305,-38,383,155,-275
1,5077491,424,-1370,-488,-1485,-305,-38,383,155,-275
1,5077495,424,-1365,-492,-1483,-304,-36,381,155,-275
1,5077500,424,-1365,-492,-1483,-304,-36,381,151,-273
1,5077507,424,-1365,-492,-1483,-304,-36,381,151,-273
1,5077511,424,-1365,-492,-1483,-304,-36,381,151,-273
1,5077516,420,-1365,-492,-1488,-300,-43,381,151,-273
1,5077522,420,-1365,-492,-1488,-300,-43,381,151,-273
1,5077528,420,-1365,-492,-1488,-300,-43,381,151,-273
1,5077534,420,-1365,-492,-1488,-300,-43,381,151,-273
1,5077540,426,-1364,-490,-1488,-300,-36,381,151,-273
1,5077545,426,-1364,-490,-1488,-300,-36,381,151,-273
1,5077551,426,-1364,-490,-1488,-300,-36,381,151,-273
1,5077556,426,-1366,-493,-1484,-298,-38,381,151,-273
1,5077562,426,-1366,-493,-1484,-298,-38,381,151,-273
1,5077567,426,-1366,-493,-1484,-298,-38,381,151,-273
1,5077572,426,-1366,-493,-1484,-298,-38,381,151,-273
1,5077578,426,-1364,-494,-1483,-299,-40,381,151,-273
1,5077583,426,-1364,-494,-1483,-299,-40,381,151,-273
1,5077590,426,-1364,-494,-1483,-299,-40,381,151,-273
1,5077595,426,-1364,-494,-1483,-299,-40,381,151,-273
1,5077601,425,-1363,-487,-1476,-300,-43,381,151,-273
1,5077607,425,-1363,-487,-1476,-300,-43,381,151,-273
1,5077613,425,-1363,-487,-1476,-300,-43,381,151,-273
1,5077618,428,-1366,-487,-1487,-306,-41,381,161,-273
1,5077623,428,-1366,-487,-1487,-306,-41,381,161,-273
1,5077628,428,-1366,-487,-1487,-306,-41,381,161,-273
1,5077635,428,-1366,-487,-1487,-306,-41,381,161,-273
1,5077640,424,-1364,-488,-1490,-302,-31,381,161,-273
1,5077645,424,-1364,-488,-1490,-302,-31,381,161,-273
1,5077649,424,-1364,-488,-1490,-302,-31,381,161,-273
1,5077655,424,-1364,-488,-1490,-302,-31,381,161,-273
1,5077661,422,-1364,-494,-1488,-297,-34,381,161,-273
1,5077666,422,-1364,-494,-1488,-297,-34,381,161,-273
1,5077671,422,-1364,-494,-1488,-297,-34,381,161,-273
1,5077678,426,-1365,-489,-1489,-298,-32,381,161,-273
1,5077683,426,-1365,-489,-1489,-298,-32,381,161,-273
1,5077689,426,-1365,-489,-1489,-298,-32,381,161,-273
1,5077695,426,-1365,-489,-1489,-298,-32,381,161,-273
1,5077700,423,-1363,-488,-1479,-301,-41,381,161,-273
1,5077706,423,-1363,-488,-1479,-301,-41,381,161,-273
1,5077712,423,-1363,-488,-1479,-301,-41,381,161,-273
1,5077718,424,-1365,-493,-1487,-306,-47,381,161,-273
1,5077724,424,-1365,-493,-1487,-306,-47,381,161,-273
1,5077730,424,-1365,-493,-1487,-306,-47,381,161,-273
1,5077736,426,-1364,-491,-1489,-301,-38,381,161,-273
1,5077741,426,-1364,-491,-1489,-301,-38,384,156,-268
1,5077746,426,-1364,-491,-1489,-301,-38,384,156,-268
1,5077752,426,-1364,-491,-1489,-301,-38,384,156,-268
1,5077758,425,-1365,-487,-1493,-305,-41,384,156,-268
1,5077764,425,-1365,-487,-1493,-305,-41,384,156,-268
1,5077770,425,-1365,-487,-1493,-305,-41,384,156,-268
1,5077776,424,-1367,-487,-1492,-304,-40,384,156,-268
1,5077781,424,-1367,-487,-1492,-304,-40,384,156,-268
1,5077788,424,-1367,-487,-1492,-304,-40,384,156,-268
1,5077794,424,-1367,-487,-1492,-304,-40,384,156,-268
1,5077801,424,-1363,-490,-1488,-300,-37,384,156,-268
1,5077810,424,-1363,-490,-1488,-300,-37,384,156,-268
1,5077816,424,-1368,-490,-1489,-308,-37,384,156,-268
1,5077822,424,-1368,-490,-1489,-308,-37,384,156,-268
1,5077828,424,-1368,-490,-1489,-308,-37,384,156,-268
1,5077835,424,-1368,-490,-1489,-308,-37,384,156,-268
1,5077841,423,-1366,-496,-1489,-304,-40,384,156,-268
1,5077850,423,-1366,-496,-1489,-304,-40,384,156,-268
1,5077857,423,-1365,-495,-1492,-299,-38,384,156,-268
1,5077864,423,-1365,-495,-1492,-299,-38,384,156,-268
1,5077871,423,-1365,-495,-1492,-299,-38,384,156,-268
1,5077877,425,-1364,-494,-1488,-306,-38,383,155,-267
1,5077884,425,-1364,-494,-1488,-306,-38,383,155,-267
1,5077893,425,-1364,-494,-1488,-306,-38,383,155,-267
1,5077900,426,-1365,-493,-1486,-300,-36,383,155,-267
1,5077907,426,-1365,-493,-1486,-300,-36,383,155,-267
1,5077915,426,-1365,-493,-1486,-300,-36,383,155,-267
1,5077921,424,-1363,-492,-1485,-296,-39,383,155,-267
1,5077928,424,-1363,-492,-1485,-296,-39,383,155,-267
1,5077937,426,-1362,-491,-1491,-302,-38,383,155,-267
1,5077944,426,-1362,-491,-1491,-302,-38,383,155,-267
1,5077950,426,-1362,-491,-1491,-302,-38,383,155,-267
1,5077957,425,-1365,-493,-1485,-301,-37,383,155,-267
1,5077965,425,-1365,-493,-1485,-301,-37,383,155,-267
1,5077971,425,-1365,-493,-1485,-301,-37,383,155,-267
1,5077980,425,-1365,-490,-1484,-301,-45,383,155,-267
1,5077987,425,-1365,-490,-1484,-301,-45,383,155,-267
1,5077992,425,-1365,-490,-1484,-301,-45,383,155,-267
1,5078000,427,-1366,-491,-1487,-301,-46,379,161,-281
1,5078008,427,-1366,-491,-1487,-301,-46,379,161,-281
1,5078016,424,-1366,-492,-1486,-296,-41,379,161,-281
1,5078023,424,-1366,-492,-1486,-296,-41,379,161,-281
1,5078028,424,-1366,-492,-1486,-296,-41,379,161,-281
1,5078035,424,-1366,-492,-1486,-296,-41,379,161,-281
1,5078040,424,-1363,-491,-1486,-296,-34,379,161,-281
1,5078046,424,-1363,-491,-1486,-296,-34,379,161,-281
1,5078054,424,-1363,-491,-1486,-296,-34,379,161,-281
1,5078062,426,-1368,-490,-1484,-307,-34,379,161,-281
1,5078069,426,-1368,-490,-1484,-307,-34,379,161,-281
1,5078077,427,-1367,-491,-1483,-305,-35,379,161,-281
1,5078084,427,-1367,-491,-1483,-305,-35,379,161,-281
1,5078090,427,-1367,-491,-1483,-305,-35,379,161,-281
1,5078096,425,-1365,-493,-1486,-296,-38,379,161,-281
1,5078102,425,-1365,-493,-1486,-296,-38,379,161,-281
1,5078110,425,-1365,-493,-1486,-296,-38,379,161,-281
1,5078117,424,-1365,-490,-1484,-303,-40,385,155,-273
1,5078124,424,-1365,-490,-1484,-303,-40,385,155,-273
1,5078133,424,-1365,-490,-1484,-303,-40,385,155,-273
1,5078141,424,-1362,-490,-1480,-301,-36,385,155,-273
1,5078149,424,-1362,-490,-1480,-301,-36,385,155,-273
1,5078156,424,-1362,-490,-1480,-301,-36,385,155,-273
1,5078162,423,-1362,-490,-1487,-302,-31,385,155,-273
1,5078169,423,-1362,-490,-1487,-302,-31,385,155,-273
1,5078176,427,-1362,-485,-1489,-300,-39,385,155,-273
1,5078183,427,-1362,-485,-1489,-300,-39,385,155,-273
1,5078191,427,-1362,-485,-1489,-300,-39,385,155,-273
1,5078198,425,-1364,-490,-1486,-299,-35,385,155,-273
1,5078203,425,-1364,-490,-1486,-299,-35,385,155,-273
1,5078210,425,-1364,-490,-1486,-299,-35,385,155,-273
1,5078217,422,-1366,-492,-1487,-296,-36,385,155,-273
1,5078224,422,-1366,-492,-1487,-296,-36,385,155,-273
1,5078233,422,-1366,-492,-1487,-296,-36,385,155,-273
1,5078241,424,-1366,-489,-1490,-300,-33,385,159,-271
1,5078247,424,-1366,-489,-1490,-300,-33,385,159,-271
1,5078253,424,-1366,-489,-1490,-300,-33,385,159,-271
1,5078259,424,-1365,-488,-1484,-302,-37,385,159,-271
1,5078266,424,-1365,-488,-1484,-302,-37,385,159,-271
1,5078274,424,-1365,-488,-1484,-302,-37,385,159,-271
1,5078281,426,-1365,-495,-1487,-305,-41,385,159,-271
1,5078288,426,-1365,-495,-1487,-305,-41,385,159,-271
1,5078295,426,-1365,-495,-1487,-305,-41,385,159,-271
1,5078302,427,-1364,-487,-1488,-298,-43,385,159,-271
1,5078310,427,-1364,-487,-1488,-298,-43,385,159,-271
1,5078317,426,-1367,-490,-1489,-299,-41,385,159,-271
1,5078324,426,-1367,-490,-1489,-299,-41,385,159,-271
1,5078331,426,-1367,-490,-1489,-299,-41,385,159,-271
1,5078338,425,-1362,-486,-1488,-309,-40,385,159,-271
1,5078343,425,-1362,-486,-1488,-309,-40,385,159,-271
1,5078351,425,-1362,-486,-1488,-309,-40,385,159,-271
1,5078359,425,-1367,-492,-1485,-312,-44,383,143,-273
1,5078365,425,-1367,-492,-1485,-312,-44,383,143,-273
1,5078372,425,-1367,-492,-1485,-312,-44,383,143,-273
1,5078380,425,-1364,-485,-1483,-303,-37,383,143,-273
1,5078386,425,-1364,-485,-1483,-303,-37,383,143,-273
1,5078393,425,-1364,-485,-1483,-303,-37,383,143,-273
1,5078402,426,-1365,-488,-1482,-300,-37,383,143,-273
1,5078409,426,-1365,-488,-1482,-300,-37,383,143,-273
1,5078416,427,-1364,-489,-1479,-302,-46,383,143,-273
1,5078423,427,-1364,-489,-1479,-302,-46,383,143,-273
1,5078431,427,-1364,-489,-1479,-302,-46,383,143,-273
1,5078437,424,-1364,-485,-1488,-302,-39,383,143,-273
1,5078445,424,-1364,-485,-1488,-302,-39,383,143,-273
1,5078452,424,-1364,-485,-1488,-302,-39,383,143,-273
1,5078458,425,-1366,-486,-1489,-305,-47,383,143,-273
1,5078464,425,-1366,-486,-1489,-305,-47,383,143,-273
1,5078470,425,-1366,-486,-1489,-305,-47,383,143,-273
1,5078475,425,-1366,-486,-1489,-305,-47,383,143,-273
1,5078483,423,-1367,-492,-1490,-303,-36,383,143,-273
1,5078490,423,-1367,-492,-1490,-303,-36,383,143,-273
1,5078495,423,-1367,-492,-1490,-303,-36,383,143,-273
1,5078500,424,-1368,-490,-1483,-297,-40,385,153,-275
1,5078505,424,-1368,-490,-1483,-297,-40,385,153,-275
1,5078510,424,-1368,-490,-1483,-297,-40,385,153,-275
1,5078516,428,-1365,-490,-1492,-295,-39,385,153,-275
1,5078521,428,-1365,-490,-1492,-295,-39,385,153,-275
1,5078526,428,-1365,-490,-1492,-295,-39,385,153,-275
1,5078532,428,-1365,-490,-1492,-295,-39,385,153,-275
1,5078537,426,-1365,-486,-1487,-300,-37,385,153,-275
1,5078542,426,-1365,-486,-1487,-300,-37,385,153,-275
1,5078548,426,-1365,-486,-1487,-300,-37,385,153,-275
1,5078554,426,-1365,-486,-1487,-300,-37,385,153,-275
1,5078559,425,-1363,-491,-1486,-301,-36,385,153,-275
1,5078565,425,-1363,-491,-1486,-301,-36,385,153,-275
1,5078572,425,-1363,-491,-1486,-301,-36,385,153,-275
1,5078578,423,-1365,-489,-1480,-297,-38,385,153,-275
1,5078583,423,-1365,-489,-1480,-297,-38,385,153,-275
1,5078589,423,-1365,-489,-1480,-297,-38,385,153,-275
1,5078594,423,-1365,-489,-1480,-297,-38,385,153,-275
1,5078600,422,-1364,-493,-1480,-301,-40,385,153,-275
1,5078605,422,-1364,-493,-1480,-301,-40,385,153,-275
1,5078610,422,-1364,-493,-1480,-301,-40,385,153,-275
1,5078619,425,-1361,-490,-1479,-307,-39,381,147,-277
1,5078625,425,-1361,-490,-1479,-307,-39,381,147,-277
1,5078632,425,-1361,-490,-1479,-307,-39,381,147,-277
1,5078639,424,-1364,-488,-1482,-306,-41,381,147,-277
1,5078646,424,-1364,-488,-1482,-306,-41,381,147,-277
1,5078654,424,-1364,-488,-1482,-306,-41,381,147,-277
1,5078662,423,-1367,-488,-1486,-302,-38,381,147,-277
1,5078669,423,-1367,-488,-1486,-302,-38,381,147,-277
1,5078676,423,-1367,-488,-1486,-302,-38,381,147,-277
1,5078683,424,-1370,-490,-1485,-300,-41,381,147,-277
1,5078690,424,-1370,-490,-1485,-300,-41,381,147,-277
1,5078695,424,-1370,-490,-1485,-300,-41,381,147,-277
1,5078704,424,-1367,-486,-1485,-299,-39,381,147,-277
1,5078711,424,-1367,-486,-1485,-299,-39,381,147,-277
1,5078719,425,-1365,-494,-1487,-304,-40,381,147,-277
1,5078727,425,-1365,-494,-1487,-304,-40,381,147,-277
1,5078732,425,-1365,-494,-1487,-304,-40,381,147,-277
1,5078739,422,-1364,-488,-1487,-302,-37,382,156,-272
1,5078746,422,-1364,-488,-1487,-302,-37,382,156,-272
1,5078754,422,-1364,-488,-1487,-302,-37,382,156,-272
1,5078760,425,-1368,-489,-1488,-301,-35,382,156,-272
1,5078768,425,-1368,-489,-1488,-301,-35,382,156,-272
1,5078774,425,-1368,-489,-1488,-301,-35,382,156,-272
1,5078782,425,-1367,-491,-1488,-314,-31,382,156,-272
1,5078789,425,-1367,-491,-1488,-314,-31,382,156,-272
1,5078794,425,-1367,-491,-1488,-314,-31,382,156,-272
1,5078801,426,-1366,-492,-1480,-305,-33,382,156,-272
1,5078808,426,-1366,-492,-1480,-305,-33,382,156,-272
1,5078813,426,-1366,-492,-1480,-305,-33,382,156,-272
1,5078822,425,-1366,-488,-1486,-302,-39,382,156,-272
1,5078829,425,-1366,-488,-1486,-302,-39,382,156,-272
1,5078837,424,-1364,-491,-1486,-306,-41,382,156,-272
1,5078843,424,-1364,-491,-1486,-306,-41,382,156,-272
1,5078850,424,-1364,-491,-1486,-306,-41,382,156,-272
1,5078856,423,-1366,-492,-1484,-297,-35,391,163,-277
1,5078864,423,-1366,-492,-1484,-297,-35,391,163,-277
1,5078872,423,-1366,-492,-1484,-297,-35,391,163,-277
1,5078879,425,-1368,-489,-1479,-307,-32,391,163,-277
1,5078887,425,-1368,-489,-1479,-307,-32,391,163,-277
1,5078893,425,-1368,-489,-1479,-307,-32,391,163,-277
1,5078901,426,-1361,-489,-1484,-303,-41,391,163,-277
1,5078906,426,-1361,-489,-1484,-303,-41,391,163,-277
1,5078914,426,-1361,-489,-1484,-303,-41,391,163,-277
1,5078921,423,-1364,-485,-1477,-301,-41,391,163,-277
1,5078929,423,-1364,-485,-1477,-301,-41,391,163,-277
1,5078936,426,-1365,-489,-1483,-297,-39,391,163,-277
1,5078943,426,-1365,-489,-1483,-297,-39,391,163,-277
1,5078950,426,-1365,-489,-1483,-297,-39,391,163,-277
1,5078957,426,-1366,-490,-1490,-306,-39,391,163,-277
1,5078963,426,-1366,-490,-1490,-306,-39,391,163,-277
1,5078971,426,-1366,-490,-1490,-306,-39,391,163,-277
1,5078978,425,-1364,-490,-1479,-299,-40,391,163,-277
1,5078985,425,-1364,-490,-1479,-299,-40,391,163,-277
1,5078993,425,-1364,-490,-1479,-299,-40,391,163,-277
1,5079000,424,-1366,-479,-1479,-302,-42,387,159,-275
1,5079007,424,-1366,-479,-1479,-302,-42,387,159,-275
1,5079015,424,-1366,-479,-1479,-302,-42,387,159,-275
1,5079022,424,-1366,-479,-1479,-302,-42,387,159,-275
1,5079029,424,-1366,-479,-1479,-302,-42,387,159,-275
1,5079035,424,-1366,-479,-1479,-302,-42,387,159,-275
1,5079044,424,-1365,-489,-1484,-298,-38,387,159,-275
1,5079051,424,-1365,-489,-1484,-298,-38,387,159,-275
1,5079058,427,-1366,-494,-1489,-298,-42,387,159,-275
1,5079065,427,-1366,-494,-1489,-298,-42,387,159,-275
1,5079070,427,-1366,-494,-1489,-298,-42,387,159,-275
1,5079076,427,-1366,-494,-1489,-298,-42,387,159,-275
1,5079081,425,-1365,-491,-1486,-299,-39,387,159,-275
1,5079087,425,-1365,-491,-1486,-299,-39,387,159,-275
1,5079094,425,-1365,-491,-1486,-299,-39,387,159,-275
1,5079101,426,-1362,-490,-1486,-303,-45,387,159,-275
1,5079108,426,-1362,-490,-1486,-303,-45,387,159,-275
1,5079115,426,-1362,-490,-1486,-303,-45,387,159,-275
1,5079122,423,-1362,-488,-1488,-300,-41,378,156,-272
1,5079130,423,-1362,-488,-1488,-300,-41,378,156,-272
1,5079138,427,-1364,-487,-1488,-307,-42,378,156,-272
1,5079145,427,-1364,-487,-1488,-307,-42,378,156,-272
1,5079152,427,-1364,-487,-1488,-307,-42,378,156,-272
1,5079159,425,-1361,-491,-1484,-299,-35,378,156,-272
1,5079165,425,-1361,-491,-1484,-299,-35,378,156,-272
1,5079172,425,-1361,-491,-1484,-299,-35,378,156,-272
1,5079179,425,-1361,-491,-1484,-299,-35,378,156,-272
1,5079184,425,-1361,-491,-1484,-299,-35,378,156,-272
1,5079191,425,-1361,-491,-1484,-299,-35,378,156,-272
1,5079198,422,-1364,-492,-1476,-296,-38,378,156,-272
1,5079205,422,-1364,-492,-1476,-296,-38,378,156,-272
1,5079212,422,-1364,-492,-1476,-296,-38,378,156,-272
1,5079219,423,-1364,-492,-1477,-296,-41,378,156,-272
1,5079225,423,-1364,-492,-1477,-296,-41,378,156,-272
1,5079232,423,-1364,-492,-1477,-296,-41,378,156,-272
1,5079239,423,-1363,-487,-1485,-299,-40,384,148,-280
1,5079246,423,-1363,-487,-1485,-299,-40,384,148,-280
1,5079252,423,-1363,-487,-1485,-299,-40,384,148,-280
1,5079260,424,-1363,-490,-1486,-303,-36,384,148,-280
1,5079265,424,-1363,-490,-1486,-303,-36,384,148,-280
1,5079274,424,-1363,-490,-1486,-303,-36,384,148,-280
1,5079280,422,-1367,-495,-1482,-309,-43,384,148,-280
1,5079287,422,-1367,-495,-1482,-309,-43,384,148,-280
1,5079293,422,-1367,-495,-1482,-309,-43,384,148,-280
1,5079301,421,-1365,-492,-1491,-305,-46,384,148,-280
1,5079308,421,-1365,-492,-1491,-305,-46,384,148,-280
1,5079315,421,-1365,-492,-1491,-305,-46,384,148,-280
1,5079322,424,-1365,-491,-1490,-305,-42,384,148,-280
1,5079330,424,-1365,-491,-1490,-305,-42,384,148,-280
1,5079337,425,-1366,-492,-1486,-305,-40,384,148,-280
1,5079345,425,-1366,-492,-1486,-305,-40,384,148,-280
1,5079351,425,-1366,-492,-1486,-305,-40,384,148,-280
1,5079358,426,-1363,-492,-1483,-303,-35,389,141,-281
1,5079364,426,-1363,-492,-1483,-303,-35,389,141,-281
1,5079372,426,-1363,-492,-1483,-303,-35,389,141,-281
1,5079379,429,-1367,-491,-1478,-298,-41,389,141,-281
1,5079387,429,-1367,-491,-1478,-298,-41,389,141,-281
1,5079394,429,-1367,-491,-1478,-298,-41,389,141,-281
1,5079399,426,-1366,-491,-1486,-298,-43,389,141,-281
1,5079406,426,-1366,-491,-1486,-298,-43,389,141,-281
1,5079414,426,-1366,-491,-1486,-298,-43,389,141,-281
1,5079422,425,-1363,-490,-1487,-302,-39,389,141,-281
1,5079429,425,-1363,-490,-1487,-302,-39,389,141,-281
1,5079436,425,-1363,-490,-1487,-302,-39,389,141,-281
1,5079441,423,-1361,-498,-1480,-300,-42,389,141,-281
1,5079448,423,-1361,-498,-1480,-300,-42,389,141,-281
1,5079456,425,-1366,-493,-1476,-301,-37,389,141,-281
1,5079462,425,-1366,-493,-1476,-301,-37,389,141,-281
1,5079470,425,-1366,-493,-1476,-301,-37,389,141,-281
1,5079477,423,-1365,-491,-1483,-300,-37,389,141,-281
1,5079485,423,-1365,-491,-1483,-300,-37,389,141,-281
1,5079492,423,-1365,-491,-1483,-300,-37,389,141,-281
1,5079497,424,-1364,-488,-1486,-298,-38,385,147,-279
1,5079502,424,-1364,-488,-1486,-298,-38,385,147,-279
1,5079507,424,-1364,-488,-1486,-298,-38,385,147,-279
1,5079513,424,-1364,-488,-1486,-298,-38,385,147,-279
1,5079518,426,-1365,-492,-1487,-293,-37,385,147,-279
1,5079523,426,-1365,-492,-1487,-293,-37,385,147,-279
1,5079530,426,-1365,-492,-1487,-293,-37,385,147,-279
1,5079538,423,-1368,-491,-1480,-296,-35,385,147,-279
1,5079544,423,-1368,-491,-1480,-296,-35,385,147,-279
1,5079552,423,-1368,-491,-1480,-296,-35,385,147,-279
1,5079559,425,-1367,-491,-1489,-297,-44,385,147,-279
1,5079565,425,-1367,-491,-1489,-297,-44,385,147,-279
1,5079572,425,-1367,-491,-1489,-297,-44,385,147,-279
1,5079579,421,-1364,-492,-1486,-305,-38,385,147,-279
1,5079586,421,-1364,-492,-1486,-305,-38,385,147,-279
1,5079595,421,-1364,-492,-1486,-305,-38,385,147,-279
1,5079602,422,-1364,-493,-1476,-298,-37,385,147,-279
1,5079609,422,-1364,-493,-1476,-298,-37,385,147,-279
1,5079616,423,-1364,-491,-1479,-302,-41,381,151,-279
1,5079621,423,-1364,-491,-1479,-302,-41,381,151,-273
1,5079627,423,-1364,-491,-1479,-302,-41,381,151,-273
1,5079633,423,-1364,-491,-1479,-302,-41,381,151,-273
1,5079639,424,-1366,-491,-1484,-302,-42,381,151,-273
1,5079643,424,-1366,-491,-1484,-302,-42,381,151,-273
1,5079649,424,-1366,-491,-1484,-302,-42,381,151,-273
1,5079658,422,-1367,-488,-1482,-301,-41,381,151,-273
1,5079665,422,-1367,-488,-1482,-301,-41,381,151,-273
1,5079671,422,-1367,-488,-1482,-301,-41,381,151,-273
1,5079678,424,-1366,-492,-1486,-298,-39,381,151,-273
1,5079686,424,-1366,-492,-1486,-298,-39,381,151,-273
1,5079692,424,-1366,-492,-1486,-298,-39,381,151,-273
1,5079700,426,-1367,-494,-1487,-297,-40,381,151,-273
1,5079706,426,-1367,-494,-1487,-297,-40,381,151,-273
1,5079712,426,-1367,-494,-1487,-297,-40,381,151,-273
1,5079717,423,-1364,-495,-1487,-301,-33,381,151,-273
1,5079725,423,-1364,-495,-1487,-301,-33,381,151,-273
1,5079733,423,-1364,-495,-1487,-301,-33,381,151,-273
1,5079741,422,-1364,-486,-1488,-304,-40,380,148,-272
1,5079748,422,-1364,-486,-1488,-304,-40,380,148,-272
1,5079755,422,-1364,-486,-1488,-304,-40,380,148,-272
1,5079762,426,-1365,-486,-1482,-297,-39,380,148,-272
1,5079771,426,-1365,-486,-1482,-297,-39,380,148,-272
1,5079777,423,-1367,-484,-1483,-301,-38,380,148,-272
1,5079784,423,-1367,-484,-1483,-301,-38,380,148,-272
1,5079789,423,-1367,-484,-1483,-301,-38,380,148,-272
1,5079794,423,-1367,-484,-1483,-301,-38,380,148,-272
1,5079800,424,-1365,-491,-1485,-308,-41,380,148,-272
1,5079808,424,-1365,-491,-1485,-308,-41,380,148,-272
1,5079815,424,-1365,-491,-1485,-308,-41,380,148,-272
1,5079820,424,-1363,-490,-1487,-306,-37,380,148,-272
1,5079826,424,-1363,-490,-1487,-306,-37,380,148,-272
1,5079833,424,-1363,-490,-1487,-306,-37,380,148,-272
1,5079841,423,-1367,-491,-1490,-295,-28,380,148,-272
1,5079847,423,-1367,-491,-1490,-295,-28,380,148,-272
1,5079855,423,-1367,-491,-1490,-295,-28,380,148,-272
1,5079861,424,-1363,-490,-1480,-303,-38,387,143,-281
1,5079868,424,-1363,-490,-1480,-303,-38,387,143,-281
1,5079876,424,-1363,-490,-1480,-303,-38,387,143,-281
1,5079884,425,-1364,-491,-1477,-302,-38,387,143,-281
1,5079892,425,-1364,-491,-1477,-302,-38,387,143,-281
1,5079901,425,-1365,-490,-1485,-304,-38,387,143,-281
1,5079908,425,-1365,-490,-1485,-304,-38,387,143,-281
1,5079916,425,-1365,-490,-1485,-304,-38,387,143,-281
1,5079922,424,-1363,-486,-1488,-305,-41,387,143,-281
1,5079929,424,-1363,-486,-1488,-305,-41,387,143,-281
1,5079936,424,-1363,-486,-1488,-305,-41,387,143,-281
1,5079944,423,-1366,-491,-1487,-305,-40,387,143,-281
1,5079952,423,-1366,-491,-1487,-305,-40,387,143,-281
1,5079960,425,-1366,-496,-1488,-301,-37,387,143,-281
1,5079966,425,-1366,-496,-1488,-301,-37,387,143,-281
1,5079972,425,-1366,-496,-1488,-301,-37,387,143,-281
1,5079980,425,-1363,-494,-1482,-309,-38,376,156,-276
1,5079988,425,-1363,-494,-1482,-309,-38,376,156,-276
1,5079994,425,-1363,-494,-1482,-309,-38,376,156,-276
1,5080001,425,-1364,-489,-1488,-309,-43,376,156,-276
1,5080009,425,-1364,-489,-1488,-309,-43,376,156,-276
1,5080016,426,-1364,-490,-1493,-306,-36,376,156,-276
1,5080023,426,-1364,-490,-1493,-306,-36,376,156,-276
1,5080031,426,-1364,-490,-1493,-306,-36,376,156,-276
1,5080038,422,-1366,-490,-1488,-296,-41,376,156,-276
1,5080045,422,-1366,-490,-1488,-296,-41,376,156,-276
1,5080051,422,-1366,-490,-1488,-296,-41,376,156,-276
1,5080057,425,-1365,-493,-1483,-301,-45,376,156,-276
1,5080066,425,-1365,-493,-1483,-301,-45,376,156,-276
1,5080073,425,-1365,-493,-1483,-301,-45,376,156,-276
1,5080080,428,-1367,-494,-1481,-296,-48,376,156,-276
1,5080086,428,-1367,-494,-1481,-296,-48,376,156,-276
1,5080093,428,-1367,-494,-1481,-296,-48,376,156,-276
1,5080100,424,-1366,-495,-1485,-300,-38,376,156,-276
1,5080107,424,-1366,-495,-1485,-300,-38,376,156,-276
1,5080114,424,-1366,-495,-1485,-300,-38,376,156,-276
1,5080122,427,-1365,-491,-1483,-305,-32,381,153,-265
1,5080129,427,-1365,-491,-1483,-305,-32,381,153,-265
1,5080134,427,-1365,-491,-1483,-305,-32,381,153,-265
1,5080139,424,-1365,-486,-1483,-297,-39,381,153,-265
1,5080144,424,-1365,-486,-1483,-297,-39,381,153,-265
1,5080150,424,-1365,-486,-1483,-297,-39,381,153,-265
1,5080157,423,-1362,-486,-1481,-301,-51,381,153,-265
1,5080164,423,-1362,-486,-1481,-301,-51,381,153,-265
1,5080170,423,-1362,-486,-1481,-301,-51,381,153,-265
1,5080177,426,-1366,-491,-1480,-295,-39,381,153,-265
1,5080184,426,-1366,-491,-1480,-295,-39,381,153,-265
1,5080192,426,-1366,-491,-1480,-295,-39,381,153,-265
1,5080197,427,-1365,-491,-1476,-291,-35,381,153,-265
1,5080202,427,-1365,-491,-1476,-291,-35,381,153,-265
1,5080209,427,-1365,-491,-1476,-291,-35,381,153,-265
1,5080215,427,-1365,-491,-1476,-291,-35,381,153,-265
1,5080221,427,-1365,-491,-1476,-291,-35,381,153,-265
1,5080228,427,-1365,-491,-1476,-291,-35,381,153,-265
1,5080237,427,-1365,-491,-1476,-291,-35,381,153,-265
1,5080244,423,-1363,-482,-1486,-298,-41,382,150,-274
1,5080251,423,-1363,-482,-1486,-298,-41,382,150,-274
1,5080258,425,-1365,-489,-1480,-298,-36,382,150,-274
1,5080265,425,-1365,-489,-1480,-298,-36,382,150,-274
1,5080272,425,-1365,-489,-1480,-298,-36,382,150,-274
1,5080280,423,-1363,-488,-1489,-296,-38,382,150,-274
1,5080286,423,-1363,-488,-1489,-296,-38,382,150,-274
1,5080294,423,-1363,-488,-1489,-296,-38,382,150,-274
1,5080299,422,-1363,-489,-1479,-302,-34,382,150,-274
1,5080305,422,-1363,-489,-1479,-302,-34,382,150,-274
1,5080311,422,-1363,-489,-1479,-302,-34,382,150,-274
1,5080317,423,-1364,-493,-1478,-301,-33,382,150,-274
1,5080325,423,-1364,-493,-1478,-301,-33,382,150,-274
1,5080332,423,-1364,-493,-1478,-301,-33,382,150,-274
1,5080338,421,-1364,-492,-1479,-306,-35,382,150,-274
1,5080345,421,-1364,-492,-1479,-306,-35,382,150,-274
1,5080353,421,-1364,-492,-1479,-306,-35,382,150,-274
1,5080360,422,-1364,-486,-1487,-293,-41,384,146,-270
1,5080368,422,-1364,-486,-1487,-293,-41,384,146,-270
1,5080374,422,-1364,-486,-1487,-293,-41,384,146,-270
1,5080380,423,-1365,-488,-1484,-301,-35,384,146,-270
1,5080387,423,-1365,-488,-1484,-301,-35,384,146,-270
1,5080395,423,-1365,-488,-1484,-301,-35,384,146,-270
1,5080402,426,-1367,-494,-1486,-301,-34,384,146,-270
1,5080411,426,-1367,-494,-1486,-301,-34,384,146,-270
1,5080417,429,-1364,-491,-1488,-300,-41,384,146,-270
1,5080424,429,-1364,-491,-1488,-300,-41,384,146,-270
1,5080431,429,-1364,-491,-1488,-300,-41,384,146,-270
1,5080439,423,-1364,-491,-1485,-298,-41,384,146,-270
1,5080446,423,-1364,-491,-1485,-298,-41,384,146,-270
1,5080453,423,-1364,-491,-1485,-298,-41,384,146,-270
1,5080461,424,-1365,-489,-1487,-298,-37,384,146,-270
1,5080468,424,-1365,-489,-1487,-298,-37,384,146,-270
1,5080475,424,-1365,-489,-1487,-298,-37,384,146,-270
1,5080482,424,-1365,-488,-1486,-302,-33,382,158,-280
1,5080491,424,-1365,-488,-1486,-302,-33,382,158,-280
1,5080496,424,-1365,-488,-1486,-302,-33,382,158,-280
1,5080501,423,-1367,-489,-1489,-300,-39,382,158,-280
1,5080506,423,-1367,-489,-1489,-300,-39,382,158,-280
1,5080512,423,-1367,-489,-1489,-300,-39,382,158,-280
1,5080516,426,-1365,-491,-1491,-300,-38,382,158,-280
1,5080523,426,-1365,-491,-1491,-300,-38,382,158,-280
1,5080530,426,-1365,-491,-1491,-300,-38,382,158,-280
1,5080537,426,-1365,-491,-1491,-300,-38,382,158,-280
1,5080542,426,-1365,-491,-1485,-297,-45,382,158,-280
1,5080548,426,-1365,-491,-1485,-297,-45,382,158,-280
1,5080553,426,-1365,-491,-1485,-297,-45,382,158,-280
1,5080558,426,-1363,-493,-1482,-300,-45,382,158,-280
1,5080564,426,-1363,-493,-1482,-300,-45,382,158,-280
1,5080570,426,-1363,-493,-1482,-300,-45,382,158,-280
1,5080577,426,-1369,-490,-1486,-302,-42,382,158,-280
1,5080583,426,-1369,-490,-1486,-302,-42,382,158,-280
1,5080588,426,-1369,-490,-1486,-302,-42,382,158,-280
1,5080593,426,-1369,-490,-1486,-302,-42,382,158,-280
1,5080599,426,-1367,-488,-1487,-296,-38,382,158,-280
1,5080604,426,-1367,-488,-1487,-296,-38,382,158,-280
1,5080609,426,-1367,-488,-1487,-296,-38,382,158,-280
1,5080615,426,-1367,-488,-1487,-296,-38,382,158,-280
1,5080622,425,-1366,-488,-1487,-297,-41,380,160,-278
1,5080627,425,-1366,-488,-1487,-297,-41,380,160,-278
1,5080633,425,-1366,-488,-1487,-297,-41,380,160,-278
1,5080639,423,-1363,-492,-1486,-301,-40,380,160,-278
1,5080644,423,-1363,-492,-1486,-301,-40,380,160,-278
1,5080649,423,-1363,-492,-1486,-301,-40,380,160,-278
1,5080656,423,-1363,-492,-1486,-301,-40,380,160,-278
1,5080664,426,-1364,-495,-1484,-303,-39,380,160,-278
1,5080671,426,-1364,-495,-1484,-303,-39,380,160,-278
1,5080678,425,-1364,-490,-1487,-300,-35,380,160,-278
1,5080685,425,-1364,-490,-1487,-300,-35,380,160,-278
1,5080692,425,-1364,-490,-1487,-300,-35,380,160,-278
1,5080698,424,-1365,-494,-1483,-292,-39,380,160,-278
1,5080708,424,-1365,-494,-1483,-292,-39,380,160,-278
1,5080714,424,-1365,-494,-1483,-292,-39,380,160,-278
1,5080721,420,-1363,-490,-1485,-299,-42,380,160,-278
1,5080729,420,-1363,-490,-1485,-299,-42,380,160,-278
1,5080736,420,-1363,-490,-1485,-299,-42,380,160,-278
1,5080743,423,-1362,-493,-1480,-300,-40,381,153,-277
1,5080752,423,-1362,-493,-1480,-300,-40,381,153,-277
1,5080758,419,-1366,-495,-1487,-299,-34,381,153,-277
1,5080765,419,-1366,-495,-1487,-299,-34,381,153,-277
1,5080771,419,-1366,-495,-1487,-299,-34,381,153,-277
1,5080779,422,-1367,-491,-1483,-299,-37,381,153,-277
1,5080784,422,-1367,-491,-1483,-299,-37,381,153,-277
1,5080790,422,-1367,-491,-1483,-299,-37,381,153,-277
1,5080797,424,-1363,-492,-1491,-302,-44,381,153,-277
1,5080803,424,-1363,-492,-1491,-302,-44,381,153,-277
1,5080810,424,-1363,-492,-1491,-302,-44,381,153,-277
1,5080817,424,-1362,-489,-1489,-295,-44,381,153,-277
1,5080823,424,-1362,-489,-1489,-295,-44,381,153,-277
1,5080832,424,-1362,-489,-1489,-295,-44,381,153,-277
1,5080839,425,-1367,-491,-1493,-303,-41,381,153,-277
1,5080846,425,-1367,-491,-1493,-303,-41,381,153,-277
1,5080854,425,-1367,-491,-1493,-303,-41,381,153,-277
1,5080859,424,-1361,-492,-1483,-299,-41,384,156,-268
1,5080867,424,-1361,-492,-1483,-299,-41,384,156,-268
1,5080873,424,-1361,-492,-1483,-299,-41,384,156,-268
1,5080881,424,-1365,-489,-1484,-297,-41,384,156,-268
1,5080887,424,-1365,-489,-1484,-297,-41,384,156,-268
1,5080894,424,-1365,-489,-1484,-297,-41,384,156,-268
1,5080901,424,-1366,-486,-1479,-298,-40,384,156,-268
1,5080908,424,-1366,-486,-1479,-298,-40,384,156,-268
1,5080915,424,-1366,-486,-1479,-298,-40,384,156,-268
1,5080924,423,-1366,-491,-1482,-303,-44,384,156,-268
1,5080931,423,-1366,-491,-1482,-303,-44,384,156,-268
1,5080936,423,-1366,-491,-1482,-303,-44,384,156,-268
1,5080941,425,-1365,-492,-1482,-300,-46,384,156,-268
1,5080949,425,-1365,-492,-1482,-300,-46,384,156,-268
1,5080955,425,-1365,-492,-1482,-300,-46,384,156,-268
1,5080963,425,-1364,-492,-1482,-299,-48,384,156,-268
1,5080969,425,-1364,-492,-1482,-299,-48,384,156,-268
1,5080976,425,-1364,-492,-1482,-299,-48,384,156,-268
1,5080983,425,-1365,-491,-1485,-293,-46,376,158,-266
1,5080990,425,-1365,-491,-1485,-293,-46,376,158,-266
1,5080998,427,-1364,-490,-1481,-293,-42,376,158,-266
1,5081006,427,-1364,-490,-1481,-293,-42,376,158,-266
1,5081013,427,-1364,-490,-1481,-293,-42,376,158,-266
1,5081019,424,-1364,-492,-1478,-292,-42,376,158,-266
1,5081025,424,-1364,-492,-1478,-292,-42,376,158,-266
1,5081032,424,-1364,-492,-1478,-292,-42,376,158,-266
1,5081039,424,-1364,-492,-1484,-295,-39,376,158,-266
1,5081048,424,-1364,-492,-1484,-295,-39,376,158,-266
1,5081054,424,-1364,-492,-1484,-295,-39,376,158,-266
1,5081061,424,-1363,-497,-1485,-298,-43,376,158,-266
1,5081067,424,-1363,-497,-1485,-298,-43,376,158,-266
1,5081074,424,-1363,-497,-1485,-298,-43,376,158,-266
1,5081081,426,-1367,-493,-1479,-303,-43,376,158,-266
1,5081088,426,-1367,-493,-1479,-303,-43,376,158,-266
1,5081095,426,-1367,-493,-1479,-303,-43,376,158,-266
1,5081101,423,-1363,-495,-1487,-297,-38,377,151,-275
1,5081106,423,-1363,-495,-1487,-297,-38,377,151,-275
1,5081111,423,-1363,-495,-1487,-297,-38,377,151,-275
1,5081119,421,-1359,-484,-1490,-288,-43,377,151,-275
1,5081127,421,-1359,-484,-1490,-288,-43,377,151,-275
1,5081135,421,-1359,-484,-1490,-288,-43,377,151,-275
1,5081141,425,-1365,-489,-1484,-296,-45,377,151,-275
1,5081149,425,-1365,-489,-1484,-296,-45,377,151,-275
1,5081155,425,-1365,-489,-1484,-296,-45,377,151,-275
1,5081162,423,-1363,-488,-1482,-296,-43,377,151,-275
1,5081169,423,-1363,-488,-1482,-296,-43,377,151,-275
1,5081176,423,-1363,-488,-1482,-296,-43,377,151,-275
1,5081183,426,-1366,-492,-1484,-302,-28,377,151,-275
1,5081190,426,-1366,-492,-1484,-302,-28,377,151,-275
1,5081195,426,-1366,-492,-1484,-302,-28,377,151,-275
1,5081202,423,-1365,-497,-1490,-294,-36,377,151,-275
1,5081208,423,-1365,-497,-1490,-294,-36,377,151,-275
1,5081217,423,-1367,-494,-1485,-299,-38,377,151,-275
1,5081225,423,-1367,-494,-1485,-299,-38,377,151,-275
1,5081232,423,-1367,-494,-1485,-299,-38,377,151,-275
1,5081239,424,-1365,-487,-1486,-294,-41,379,155,-275
1,5081246,424,-1365,-487,-1486,-294,-41,379,155,-275
1,5081253,424,-1365,-487,-1486,-294,-41,379,155,-275
1,5081259,422,-1365,-494,-1487,-296,-40,379,155,-275
1,5081268,422,-1365,-494,-1487,-296,-40,379,155,-275
1,5081275,422,-1365,-494,-1487,-296,-40,379,155,-275
1,5081282,424,-1364,-491,-1485,-296,-37,379,155,-275
1,5081289,424,-1364,-491,-1485,-296,-37,379,155,-275
1,5081296,424,-1364,-491,-1485,-296,-37,379,155,-275
1,5081304,426,-1369,-492,-1483,-306,-33,379,155,-275
1,5081310,426,-1369,-492,-1483,-306,-33,379,155,-275
1,5081317,423,-1369,-492,-1484,-300,-31,379,155,-275
1,5081325,423,-1369,-492,-1484,-300,-31,379,155,-275
1,5081332,423,-1369,-492,-1484,-300,-31,379,155,-275
1,5081339,424,-1367,-494,-1484,-293,-35,379,155,-275
1,5081345,424,-1367,-494,-1484,-293,-35,379,155,-275
1,5081353,424,-1367,-494,-1484,-293,-35,379,155,-275
1,5081360,421,-1365,-492,-1487,-299,-37,381,155,-271
1,5081368,421,-1365,-492,-1487,-299,-37,381,155,-271
1,5081375,421,-1365,-492,-1487,-299,-37,381,155,-271
1,5081383,423,-1366,-488,-1489,-298,-40,381,155,-271
1,5081390,423,-1366,-488,-1489,-298,-40,381,155,-271
1,5081398,424,-1366,-485,-1493,-301,-38,381,155,-271
1,5081404,424,-1366,-485,-1493,-301,-38,381,155,-271
1,5081412,424,-1366,-485,-1493,-301,-38,381,155,-271
1,5081419,426,-1361,-496,-1482,-302,-36,381,155,-271
1,5081426,426,-1361,-496,-1482,-302,-36,381,155,-271
1,5081434,426,-1361,-496,-1482,-302,-36,381,155,-271
1,5081442,424,-1364,-486,-1492,-303,-35,381,155,-271
1,5081449,424,-1364,-486,-1492,-303,-35,381,155,-271
1,5081455,424,-1364,-486,-1492,-303,-35,381,155,-271
1,5081461,427,-1367,-493,-1485,-302,-39,381,155,-271
1,5081468,427,-1367,-493,-1485,-302,-39,381,155,-271
1,5081476,427,-1367,-493,-1485,-302,-39,381,155,-271
1,5081484,425,-1365,-491,-1480,-299,-41,379,155,-277
1,5081490,425,-1365,-491,-1480,-299,-41,379,155,-277
1,5081495,425,-1365,-491,-1480,-299,-41,379,155,-277
1,5081500,426,-1365,-490,-1485,-302,-37,379,155,-277
1,5081505,426,-1365,-490,-1485,-302,-37,379,155,-277
1,5081510,426,-1365,-490,-1485,-302,-37,379,155,-277
1,5081517,426,-1365,-490,-1485,-302,-37,379,155,-277
1,5081522,424,-1365,-494,-1483,-301,-45,379,155,-277
1,5081528,424,-1365,-494,-1483,-301,-45,379,155,-277
1,5081535,424,-1365,-494,-1483,-301,-45,379,155,-277
1,5081542,424,-1364,-490,-1489,-305,-43,379,155,-277
1,5081549,424,-1364,-490,-1489,-305,-43,379,155,-277
1,5081558,425,-1363,-487,-1482,-300,-35,379,155,-277
1,5081564,425,-1363,-487,-1482,-300,-35,379,155,-277
1,5081571,425,-1363,-487,-1482,-300,-35,379,155,-277
1,5081577,424,-1362,-489,-1489,-298,-37,379,155,-277
1,5081582,424,-1362,-489,-1489,-298,-37,379,155,-277
1,5081587,424,-1362,-489,-1489,-298,-37,379,155,-277
1,5081593,424,-1362,-489,-1489,-298,-37,379,155,-277
1,5081598,426,-1365,-489,-1488,-297,-41,381,155,-273
1,5081604,426,-1365,-489,-1488,-297,-41,381,155,-273
1,5081610,426,-1365,-489,-1488,-297,-41,381,155,-273
1,5081617,423,-1365,-488,-1485,-300,-43,381,155,-273
1,5081623,423,-1365,-488,-1485,-300,-43,381,155,-273
1,5081631,423,-1365,-488,-1485,-300,-43,381,155,-273
1,5081638,423,-1362,-493,-1488,-301,-36,381,155,-273
1,5081645,423,-1362,-493,-1488,-301,-36,381,155,-273
1,5081652,423,-1362,-493,-1488,-301,-36,381,155,-273
1,5081659,421,-1366,-490,-1485,-298,-39,381,155,-273
1,5081665,421,-1366,-490,-1485,-298,-39,381,155,-273
1,5081671,421,-1366,-490,-1485,-298,-39,381,155,-273
1,5081677,425,-1365,-491,-1482,-296,-41,381,155,-273
1,5081683,425,-1365,-491,-1482,-296,-41,381,155,-273
1,5081691,425,-1365,-491,-1482,-296,-41,381,155,-273
1,5081695,425,-1365,-491,-1482,-296,-41,381,155,-273
1,5081704,422,-1366,-492,-1476,-301,-37,381,155,-273
1,5081710,422,-1366,-492,-1476,-301,-37,381,155,-273
1,5081717,422,-1366,-492,-1476,-301,-37,381,155,-273
1,5081723,424,-1365,-493,-1486,-296,-37,381,155,-273
1,5081731,424,-1365,-493,-1486,-296,-37,381,155,-273
1,5081738,421,-1368,-486,-1483,-299,-42,387,153,-271
1,5081745,421,-1368,-486,-1483,-299,-42,387,153,-271
1,5081751,421,-1368,-486,-1483,-299,-42,387,153,-271
1,5081759,425,-1362,-490,-1484,-303,-46,387,153,-271
1,5081764,425,-1362,-490,-1484,-303,-46,387,153,-271
1,5081772,425,-1362,-490,-1484,-303,-46,387,153,-271
1,5081780,426,-1364,-488,-1486,-303,-40,387,153,-271
1,5081787,426,-1364,-488,-1486,-303,-40,387,153,-271
1,5081792,426,-1364,-488,-1486,-303,-40,387,153,-271
1,5081798,426,-1364,-496,-1484,-298,-45,387,153,-271
1,5081806,426,-1364,-496,-1484,-298,-45,387,153,-271
1,5081811,426,-1364,-496,-1484,-298,-45,387,153,-271
1,5081821,423,-1365,-494,-1482,-297,-42,387,153,-271
1,5081827,423,-1365,-494,-1482,-297,-42,387,153,-271
1,5081835,423,-1365,-494,-1482,-297,-42,387,153,-271
1,5081841,422,-1362,-494,-1489,-300,-38,387,153,-271
1,5081849,422,-1362,-494,-1489,-300,-38,387,153,-271
1,5081856,422,-1362,-494,-1489,-300,-38,387,153,-271
1,5081862,424,-1362,-490,-1472,-300,-40,382,166,-266
1,5081870,424,-1362,-490,-1472,-300,-40,382,166,-266
1,5081876,424,-1362,-490,-1472,-300,-40,382,166,-266
1,5081882,422,-1364,-490,-1476,-305,-42,382,166,-266
1,5081890,422,-1364,-490,-1476,-305,-42,382,166,-266
1,5081897,424,-1367,-491,-1477,-300,-46,382,166,-266
1,5081905,424,-1367,-491,-1477,-300,-46,382,166,-266
1,5081912,424,-1367,-491,-1477,-300,-46,382,166,-266
1,5081920,421,-1364,-490,-1486,-300,-37,382,166,-266
1,5081927,421,-1364,-490,-1486,-300,-37,382,166,-266
1,5081933,421,-1364,-490,-1486,-300,-37,382,166,-266
1,5081939,423,-1366,-493,-1483,-305,-47,382,166,-266
1,5081946,423,-1366,-493,-1483,-305,-47,382,166,-266
1,5081954,423,-1366,-493,-1483,-305,-47,382,166,-266
1,5081962,424,-1364,-489,-1484,-298,-45,382,166,-266
1,5081969,424,-1364,-489,-1484,-298,-45,382,166,-266
1,5081977,425,-1365,-485,-1477,-295,-44,384,150,-274
1,5081986,425,-1365,-485,-1477,-295,-44,384,150,-274
1,5081993,425,-1365,-485,-1477,-295,-44,384,150,-274
1,5082000,426,-1366,-494,-1480,-302,-45,384,150,-274
1,5082006,426,-1366,-494,-1480,-302,-45,384,150,-274
1,5082013,426,-1366,-494,-1480,-302,-45,384,150,-274
1,5082019,425,-1365,-496,-1484,-300,-50,384,150,-274
1,5082027,425,-1365,-496,-1484,-300,-50,384,150,-274
1,5082034,425,-1365,-496,-1484,-300,-50,384,150,-274
1,5082041,425,-1363,-488,-1484,-302,-44,384,150,-274
1,5082049,425,-1363,-488,-1484,-302,-44,384,150,-274
1,5082056,425,-1363,-488,-1484,-302,-44,384,150,-274
1,5082062,424,-1363,-491,-1487,-298,-41,384,150,-274
1,5082070,424,-1363,-491,-1487,-298,-41,384,150,-274
1,5082076,424,-1363,-491,-1487,-298,-41,384,150,-274
1,5082081,425,-1362,-491,-1487,-294,-40,384,150,-274
1,5082086,425,-1362,-491,-1487,-294,-40,384,150,-274
1,5082092,425,-1362,-491,-1487,-294,-40,384,150,-274
1,5082097,425,-1362,-491,-1487,-294,-40,384,150,-274
1,5082102,424,-1363,-490,-1485,-293,-43,380,156,-270
1,5082107,424,-1363,-490,-1485,-293,-43,380,156,-270
1,5082115,424,-1363,-490,-1485,-293,-43,380,156,-270
1,5082121,423,-1365,-488,-1481,-300,-43,380,156,-270
1,5082127,423,-1365,-488,-1481,-300,-43,380,156,-270
1,5082134,423,-1365,-488,-1481,-300,-43,380,156,-270
1,5082141,423,-1366,-489,-1484,-305,-42,380,156,-270
1,5082148,423,-1366,-489,-1484,-305,-42,380,156,-270
1,5082157,423,-1366,-489,-1484,-305,-42,380,156,-270
1,5082163,423,-1367,-490,-1486,-306,-35,380,156,-270
1,5082170,423,-1367,-490,-1486,-306,-35,380,156,-270
1,5082176,423,-1367,-490,-1486,-306,-35,380,156,-270
1,5082182,422,-1363,-490,-1490,-302,-37,380,156,-270
1,5082189,422,-1363,-490,-1490,-302,-37,380,156,-270
1,5082196,422,-1363,-490,-1490,-302,-37,380,156,-270
1,5082203,422,-1364,-486,-1488,-304,-43,380,156,-270
1,5082210,422,-1364,-486,-1488,-304,-43,380,156,-270
1,5082216,422,-1364,-486,-1488,-304,-43,380,156,-270
1,5082223,425,-1364,-494,-1489,-300,-40,380,156,-270
1,5082230,425,-1364,-494,-1489,-300,-40,380,156,-270
1,5082238,425,-1365,-491,-1489,-303,-43,385,153,-275
1,5082245,425,-1365,-491,-1489,-303,-43,385,153,-275
1,5082252,425,-1365,-491,-1489,-303,-43,385,153,-275
1,5082260,423,-1365,-490,-1490,-303,-40,385,153,-275
1,5082267,423,-1365,-490,-1490,-303,-40,385,153,-275
1,5082274,423,-1365,-490,-1490,-303,-40,385,153,-275
1,5082281,425,-1363,-485,-1484,-307,-44,385,153,-275
1,5082287,425,-1363,-485,-1484,-307,-44,385,153,-275
1,5082294,425,-1363,-485,-1484,-307,-44,385,153,-275
1,5082301,423,-1368,-491,-1485,-306,-43,385,153,-275
1,5082308,423,-1368,-491,-1485,-306,-43,385,153,-275
1,5082315,423,-1368,-491,-1485,-306,-43,385,153,-275
1,5082322,426,-1366,-489,-1486,-308,-39,385,153,-275
1,5082329,426,-1366,-489,-1486,-308,-39,385,153,-275
1,5082336,426,-1366,-489,-1486,-308,-39,385,153,-275
1,5082342,425,-1363,-491,-1486,-301,-41,385,153,-275
1,5082348,425,-1363,-491,-1486,-301,-41,385,153,-275
1,5082356,425,-1363,-491,-1486,-301,-41,385,153,-275
1,5082363,424,-1361,-484,-1486,-307,-44,376,154,-266
1,5082371,424,-1361,-484,-1486,-307,-44,376,154,-266
1,5082377,424,-1361,-484,-1486,-307,-44,376,154,-266
1,5082383,425,-1365,-486,-1481,-301,-45,376,154,-266
1,5082389,425,-1365,-486,-1481,-301,-45,376,154,-266
1,5082397,424,-1367,-489,-1477,-302,-48,376,154,-266
1,5082405,424,-1367,-489,-1477,-302,-48,376,154,-266
1,5082413,424,-1367,-489,-1477,-302,-48,376,154,-266
1,5082420,422,-1365,-491,-1489,-299,-43,376,154,-266
1,5082427,422,-1365,-491,-1489,-299,-43,376,154,-266
1,5082432,422,-1365,-491,-1489,-299,-43,376,154,-266
1,5082439,426,-1366,-493,-1486,-299,-42,376,154,-266
1,5082447,426,-1366,-493,-1486,-299,-42,376,154,-266
1,5082456,426,-1366,-493,-1486,-299,-42,376,154,-266
1,5082464,424,-1367,-492,-1483,-305,-41,376,154,-266
1,5082471,424,-1367,-492,-1483,-305,-41,376,154,-266
1,5082479,424,-1366,-489,-1487,-305,-39,384,146,-278
1,5082485,424,-1366,-489,-1487,-305,-39,384,146,-278
1,5082492,424,-1366,-489,-1487,-305,-39,384,146,-278
1,5082497,424,-1366,-489,-1487,-305,-39,384,146,-278
1,5082503,424,-1366,-491,-1488,-303,-44,384,146,-278
1,5082508,424,-1366,-491,-1488,-303,-44,384,146,-278
1,5082512,424,-1366,-491,-1488,-303,-44,384,146,-278
1,5082518,428,-1367,-490,-1486,-299,-36,384,146,-278
1,5082524,428,-1367,-490,-1486,-299,-36,384,146,-278
1,5082531,428,-1367,-490,-1486,-299,-36,384,146,-278
1,5082539,425,-1365,-491,-1491,-303,-37,384,146,-278
1,5082545,425,-1365,-491,-1491,-303,-37,384,146,-278
1,5082550,425,-1365,-491,-1491,-303,-37,384,146,-278
1,5082556,425,-1365,-491,-1491,-303,-37,384,146,-278
1,5082560,427,-1367,-490,-1486,-306,-33,384,146,-278
1,5082566,427,-1367,-490,-1486,-306,-33,384,146,-278
1,5082573,427,-1367,-490,-1486,-306,-33,384,146,-278
1,5082580,423,-1363,-496,-1480,-310,-38,384,146,-278
1,5082588,423,-1363,-496,-1480,-310,-38,384,146,-278
1,5082594,423,-1363,-496,-1480,-310,-38,384,146,-278
1,5082600,423,-1365,-489,-1484,-308,-42,377,147,-279
1,5082607,423,-1365,-489,-1484,-308,-42,377,147,-279
1,5082614,423,-1365,-489,-1484,-308,-42,377,147,-279
1,5082621,423,-1364,-490,-1487,-304,-45,377,147,-279
1,5082628,423,-1364,-490,-1487,-304,-45,377,147,-279
1,5082633,423,-1364,-490,-1487,-304,-45,377,147,-279
1,5082641,426,-1363,-487,-1495,-298,-39,377,147,-279
1,5082649,426,-1363,-487,-1495,-298,-39,377,147,-279
1,5082657,426,-1363,-487,-1495,-298,-39,377,147,-279
1,5082663,425,-1367,-495,-1485,-299,-43,377,147,-279
1,5082671,425,-1367,-495,-1485,-299,-43,377,147,-279
1,5082677,423,-1364,-491,-1490,-300,-41,377,147,-279
1,5082683,423,-1364,-491,-1490,-300,-41,377,147,-279
1,5082690,423,-1364,-491,-1490,-300,-41,377,147,-279
1,5082698,424,-1365,-493,-1488,-300,-47,377,147,-279
1,5082707,424,-1365,-493,-1488,-300,-47,377,147,-279
1,5082714,424,-1365,-493,-1488,-300,-47,377,147,-279
1,5082722,425,-1365,-493,-1484,-304,-40,373,155,-281
1,5082728,425,-1365,-493,-1484,-304,-40,373,155,-281
1,5082735,425,-1365,-493,-1484,-304,-40,373,155,-281
1,5082742,423,-1366,-490,-1487,-303,-36,373,155,-281
1,5082749,423,-1366,-490,-1487,-303,-36,373,155,-281
1,5082756,423,-1366,-490,-1487,-303,-36,373,155,-281
1,5082763,425,-1368,-489,-1486,-306,-38,373,155,-281
1,5082770,425,-1368,-489,-1486,-306,-38,373,155,-281
1,5082777,425,-1368,-489,-1486,-306,-38,373,155,-281
1,5082785,425,-1368,-489,-1486,-306,-38,373,155,-281
1,5082790,425,-1368,-489,-1486,-306,-38,373,155,-281
1,5082796,425,-1368,-489,-1486,-306,-38,373,155,-281
1,5082804,424,-1365,-495,-1487,-302,-37,373,155,-281
1,5082810,424,-1365,-495,-1487,-302,-37,373,155,-281
1,5082818,425,-1365,-489,-1492,-301,-34,373,155,-281
1,5082825,425,-1365,-489,-1492,-301,-34,373,155,-281
1,5082832,425,-1365,-489,-1492,-301,-34,373,155,-281
1,5082840,423,-1368,-491,-1488,-303,-34,373,155,-281
1,5082847,423,-1368,-491,-1488,-303,-34,373,155,-281
1,5082853,423,-1368,-491,-1488,-303,-34,373,155,-281
1,5082861,422,-1366,-491,-1484,-298,-39,380,162,-270
1,5082867,422,-1366,-491,-1484,-298,-39,380,162,-270
1,5082875,422,-1366,-491,-1484,-298,-39,380,162,-270
1,5082884,425,-1363,-495,-1478,-302,-41,380,162,-270
1,5082891,425,-1363,-495,-1478,-302,-41,380,162,-270
1,5082897,423,-1361,-488,-1489,-298,-32,380,162,-270
1,5082904,423,-1361,-488,-1489,-298,-32,380,162,-270
1,5082910,423,-1361,-488,-1489,-298,-32,380,162,-270
1,5082917,425,-1366,-493,-1485,-303,-44,380,162,-270
1,5082926,425,-1366,-493,-1485,-303,-44,380,162,-270
1,5082933,425,-1366,-493,-1485,-303,-44,380,162,-270
1,5082939,425,-1365,-493,-1483,-306,-38,380,162,-270
1,5082946,425,-1365,-493,-1483,-306,-38,380,162,-270
1,5082953,425,-1365,-493,-1483,-306,-38,380,162,-270
1,5082960,424,-1364,-494,-1479,-301,-40,380,162,-270
1,5082968,424,-1364,-494,-1479,-301,-40,380,162,-270
1,5082976,424,-1364,-494,-1479,-301,-40,380,162,-270
1,5082982,423,-1366,-487,-1486,-300,-34,379,153,-277
1,5082990,423,-1366,-487,-1486,-300,-34,379,153,-277
1,5082996,423,-1366,-487,-1486,-300,-34,379,153,-277
1,5083003,423,-1366,-487,-1488,-297,-39,379,153,-277
1,5083011,423,-1366,-487,-1488,-297,-39,379,153,-277
1,5083019,424,-1366,-490,-1485,-301,-38,379,153,-277
1,5083026,424,-1366,-490,-1485,-301,-38,379,153,-277
1,5083032,424,-1366,-490,-1485,-301,-38,379,153,-277
1,5083039,424,-1366,-490,-1486,-306,-37,379,153,-277
1,5083045,424,-1366,-490,-1486,-306,-37,379,153,-277
1,5083051,424,-1366,-490,-1486,-306,-37,379,153,-277
1,5083056,424,-1366,-490,-1486,-306,-37,379,153,-277
1,5083063,426,-1366,-489,-1484,-305,-41,379,153,-277
1,5083070,426,-1366,-489,-1484,-305,-41,379,153,-277
1,5083077,426,-1366,-489,-1484,-305,-41,379,153,-277
1,5083084,424,-1365,-492,-1489,-304,-38,379,153,-277
1,5083092,424,-1365,-492,-1489,-304,-38,379,153,-277
1,5083100,424,-1366,-487,-1494,-300,-43,381,155,-277
1,5083107,424,-1366,-487,-1494,-300,-43,381,155,-277
1,5083113,424,-1366,-487,-1494,-300,-43,381,155,-277
1,5083118,424,-1363,-489,-1490,-302,-34,381,155,-277
1,5083126,424,-1363,-489,-1490,-302,-34,381,155,-277
1,5083134,424,-1363,-489,-1490,-302,-34,381,155,-277
1,5083143,422,-1368,-493,-1486,-299,-44,381,155,-277
1,5083150,422,-1368,-493,-1486,-299,-44,381,155,-277
1,5083156,422,-1368,-493,-1486,-299,-44,381,155,-277
1,5083162,422,-1366,-488,-1483,-297,-39,381,155,-277
1,5083170,422,-1366,-488,-1483,-297,-39,381,155,-277
1,5083177,422,-1366,-488,-1483,-297,-39,381,155,-277
1,5083184,426,-1366,-488,-1486,-292,-38,381,155,-277
1,5083193,426,-1366,-488,-1486,-292,-38,381,155,-277
1,5083199,424,-1366,-492,-1489,-305,-37,381,155,-277
1,5083204,424,-1366,-492,-1489,-305,-37,381,155,-277
1,5083211,424,-1366,-492,-1489,-305,-37,381,155,-277
1,5083218,425,-1366,-493,-1483,-305,-38,374,156,-284
1,5083227,425,-1366,-493,-1483,-305,-38,374,156,-284
1,5083233,425,-1366,-493,-1483,-305,-38,374,156,-284
1,5083239,421,-1365,-491,-1483,-298,-42,374,156,-284
1,5083245,421,-1365,-491,-1483,-298,-42,374,156,-284
1,5083251,421,-1365,-491,-1483,-298,-42,374,156,-284
1,5083260,422,-1367,-485,-1481,-301,-49,374,156,-284
1,5083268,422,-1367,-485,-1481,-301,-49,374,156,-284
1,5083273,422,-1367,-485,-1481,-301,-49,374,156,-284
1,5083279,423,-1365,-492,-1481,-302,-47,374,156,-284
1,5083286,423,-1365,-492,-1481,-302,-47,374,156,-284
1,5083293,423,-1365,-492,-1481,-302,-47,374,156,-284
1,5083301,424,-1368,-496,-1483,-300,-32,374,156,-284
1,5083307,424,-1368,-496,-1483,-300,-32,374,156,-284
1,5083314,424,-1368,-496,-1483,-300,-32,374,156,-284
1,5083323,425,-1365,-491,-1488,-304,-39,374,156,-284
1,5083330,425,-1365,-491,-1488,-304,-39,374,156,-284
1,5083336,425,-1365,-491,-1488,-304,-39,374,156,-284
1,5083343,423,-1366,-492,-1486,-304,-39,374,156,-284
1,5083352,423,-1366,-492,-1486,-304,-39,374,156,-284
1,5083359,425,-1365,-487,-1480,-305,-42,378,148,-282
1,5083365,425,-1365,-487,-1480,-305,-42,378,148,-282
1,5083373,425,-1365,-487,-1480,-305,-42,378,148,-282
1,5083379,424,-1366,-484,-1486,-304,-36,378,148,-282
1,5083384,424,-1366,-484,-1486,-304,-36,378,148,-282
1,5083392,424,-1366,-484,-1486,-304,-36,378,148,-282
1,5083399,423,-1364,-488,-1483,-295,-41,378,148,-282
1,5083404,423,-1364,-488,-1483,-295,-41,378,148,-282
1,5083411,423,-1364,-488,-1483,-295,-41,378,148,-282
1,5083418,425,-1365,-494,-1488,-300,-35,378,148,-282
1,5083425,425,-1365,-494,-1488,-300,-35,378,148,-282
1,5083431,425,-1365,-494,-1488,-300,-35,378,148,-282
1,5083440,424,-1366,-487,-1486,-298,-41,378,148,-282
1,5083447,424,-1366,-487,-1486,-298,-41,378,148,-282
1,5083454,424,-1366,-487,-1486,-298,-41,378,148,-282
1,5083459,422,-1366,-492,-1479,-297,-43,378,148,-282
1,5083466,422,-1366,-492,-1479,-297,-43,378,148,-282
1,5083471,422,-1366,-492,-1479,-297,-43,378,148,-282
1,5083478,423,-1366,-488,-1482,-301,-38,384,154,-266
1,5083485,423,-1366,-488,-1482,-301,-38,384,154,-266
1,5083492,423,-1366,-488,-1482,-301,-38,384,154,-266
1,5083497,423,-1366,-488,-1482,-301,-38,384,154,-266
1,5083502,422,-1365,-485,-1482,-306,-42,384,154,-266
1,5083506,422,-1365,-485,-1482,-306,-42,384,154,-266
1,5083511,422,-1365,-485,-1482,-306,-42,384,154,-266
1,5083516,422,-1365,-485,-1482,-306,-42,384,154,-266
1,5083522,424,-1364,-488,-1486,-303,-41,384,154,-266
1,5083530,424,-1364,-488,-1486,-303,-41,384,154,-266
1,5083537,424,-1364,-488,-1486,-303,-41,384,154,-266
1,5083544,423,-1363,-493,-1486,-296,-41,384,154,-266
1,5083550,423,-1363,-493,-1486,-296,-41,384,154,-266
1,5083556,423,-1363,-493,-1486,-296,-41,384,154,-266
1,5083563,422,-1365,-494,-1480,-304,-43,384,154,-266
1,5083568,422,-1365,-494,-1480,-304,-43,384,154,-266
1,5083573,422,-1365,-494,-1480,-304,-43,384,154,-266
1,5083579,426,-1364,-488,-1482,-299,-40,384,154,-266
1,5083584,426,-1364,-488,-1482,-299,-40,384,154,-266
1,5083589,426,-1364,-488,-1482,-299,-40,384,154,-266
1,5083596,426,-1364,-488,-1482,-299,-40,384,154,-266
1,5083603,426,-1364,-487,-1478,-298,-45,379,157,-281
1,5083612,426,-1364,-487,-1478,-298,-45,379,157,-281
1,5083619,423,-1365,-492,-1485,-299,-42,379,157,-281
1,5083625,423,-1365,-492,-1485,-299,-42,379,157,-281
1,5083633,423,-1365,-492,-1485,-299,-42,379,157,-281
1,5083641,423,-1366,-489,-1486,-306,-36,379,157,-281
1,5083648,423,-1366,-489,-1486,-306,-36,379,157,-281
1,5083655,423,-1366,-489,-1486,-306,-36,379,157,-281
1,5083662,423,-1369,-489,-1484,-305,-40,379,157,-281
1,5083669,423,-1369,-489,-1484,-305,-40,379,157,-281
1,5083675,423,-1369,-489,-1484,-305,-40,379,157,-281
1,5083682,424,-1365,-492,-1480,-308,-41,379,157,-281
1,5083688,424,-1365,-492,-1480,-308,-41,379,157,-281
1,5083697,424,-1365,-492,-1480,-308,-41,379,157,-281
1,5083703,421,-1366,-491,-1475,-299,-42,379,157,-281
1,5083709,421,-1366,-491,-1475,-299,-42,379,157,-281
1,5083716,421,-1366,-491,-1475,-299,-42,379,157,-281
1,5083725,421,-1365,-487,-1488,-304,-38,377,157,-269
1,5083739,425,-1365,-490,-1490,-297,-37,377,157,-269
1,5083753,425,-1365,-490,-1490,-297,-37,377,157,-269
1,5083762,424,-1364,-490,-1484,-300,-36,377,157,-269
1,5083774,424,-1364,-490,-1484,-300,-36,377,157,-269
1,5083788,422,-1369,-488,-1487,-298,-40,377,157,-269
1,5083796,422,-1369,-488,-1487,-298,-40,377,157,-269
1,5083805,425,-1365,-488,-1481,-302,-39,377,157,-269
1,5083813,425,-1365,-488,-1481,-302,-39,377,157,-269
1,5083823,427,-1365,-487,-1489,-300,-43,377,157,-269
1,5083836,427,-1365,-487,-1489,-300,-43,377,157,-269
1,5083848,426,-1361,-495,-1489,-301,-47,377,157,-269
1,5083858,425,-1364,-489,-1484,-303,-44,377,157,-269
1,5083871,425,-1364,-489,-1484,-303,-44,377,157,-269
1,5083885,425,-1365,-488,-1485,-299,-37,377,157,-269
1,5083897,425,-1365,-488,-1485,-299,-37,377,157,-269
1,5083909,428,-1366,-489,-1489,-297,-40,377,157,-269
1,5083920,426,-1366,-495,-1487,-296,-43,377,157,-269
1,5083933,426,-1366,-495,-1487,-296,-43,377,157,-269
1,5083945,423,-1365,-493,-1493,-302,-39,377,157,-269
1,5083958,425,-1369,-486,-1482,-298,-43,377,157,-269
1,5083971,425,-1369,-486,-1482,-298,-43,377,157,-269
1,5083985,422,-1367,-488,-1482,-298,-44,385,149,-275
1,5083999,428,-1366,-489,-1492,-305,-39,385,149,-275
1,5084009,428,-1366,-489,-1492,-305,-39,385,149,-275
1,5084020,424,-1363,-492,-1489,-302,-42,385,149,-275
1,5084029,424,-1363,-492,-1489,-302,-42,385,149,-275
1,5084040,424,-1368,-489,-1484,-300,-36,385,149,-275
1,5084053,424,-1368,-489,-1484,-300,-36,385,149,-275
1,5084065,426,-1364,-489,-1484,-297,-46,385,149,-275
1,5084076,426,-1364,-489,-1484,-297,-46,385,149,-275
1,5084089,425,-1366,-490,-1485,-299,-43,385,149,-275
1,5084101,424,-1366,-485,-1483,-297,-34,380,158,-278
1,5084110,424,-1366,-485,-1483,-297,-34,380,158,-278
1,5084119,420,-1364,-487,-1484,-302,-37,380,158,-278
1,5084127,420,-1364,-487,-1484,-302,-37,380,158,-278
1,5084135,420,-1364,-487,-1484,-302,-37,380,158,-278
1,5084143,424,-1365,-490,-1484,-304,-41,380,158,-278
1,5084157,424,-1365,-490,-1484,-304,-41,380,158,-278
1,5084172,427,-1367,-488,-1477,-308,-36,380,158,-278
1,5084185,425,-1368,-490,-1485,-298,-40,380,158,-278
1,5084196,425,-1368,-490,-1485,-298,-40,380,158,-278
1,5084209,421,-1368,-490,-1485,-302,-46,380,158,-278
1,5084223,424,-1362,-489,-1482,-297,-38,380,154,-270
1,5084235,424,-1362,-489,-1482,-297,-38,380,154,-270
1,5084244,424,-1366,-488,-1484,-300,-34,380,154,-270
1,5084257,424,-1366,-488,-1484,-300,-34,380,154,-270
1,5084269,424,-1366,-488,-1484,-300,-34,380,154,-270
1,5084282,424,-1365,-486,-1482,-305,-44,380,154,-270
1,5084292,424,-1365,-486,-1482,-305,-44,380,154,-270
1,5084304,427,-1362,-494,-1485,-298,-47,380,154,-270
1,5084313,427,-1362,-494,-1485,-298,-47,380,154,-270
1,5084324,425,-1361,-493,-1481,-295,-38,380,154,-270
1,5084337,425,-1361,-493,-1481,-295,-38,380,154,-270
1,5084346,423,-1362,-488,-1491,-299,-39,372,150,-272
1,5084358,424,-1368,-485,-1484,-302,-39,372,150,-272
1,5084372,424,-1368,-485,-1484,-302,-39,372,150,-272
1,5084387,422,-1363,-490,-1485,-298,-46,372,150,-272
1,5084395,422,-1363,-490,-1485,-298,-46,372,150,-272
1,5084408,423,-1363,-491,-1487,-294,-42,372,150,-272
1,5084422,421,-1367,-489,-1479,-303,-38,372,150,-272
1,5084435,421,-1367,-489,-1479,-303,-38,372,150,-272
1,5084445,424,-1366,-496,-1481,-300,-32,372,150,-272
1,5084457,426,-1368,-495,-1477,-306,-41,372,150,-272
1,5084473,426,-1368,-495,-1477,-306,-41,372,150,-272
1,5084485,420,-1367,-488,-1488,-311,-37,380,158,-272
1,5084495,420,-1367,-488,-1488,-311,-37,380,158,-272
1,5084504,424,-1363,-490,-1486,-309,-31,380,158,-272
1,5084512,424,-1363,-490,-1486,-309,-31,380,158,-272
1,5084520,424,-1365,-488,-1487,-302,-41,380,158,-272
1,5084531,424,-1365,-488,-1487,-302,-41,380,158,-272
1,5084544,424,-1366,-492,-1481,-301,-43,380,158,-272
1,5084558,424,-1366,-486,-1482,-307,-48,380,158,-272
1,5084570,424,-1366,-486,-1482,-307,-48,380,158,-272
1,5084583,426,-1366,-494,-1486,-299,-45,380,158,-272
1,5084597,426,-1366,-494,-1486,-299,-45,380,158,-272
1,5084609,425,-1363,-491,-1481,-298,-42,377,155,-273
1,5084621,424,-1365,-494,-1480,-302,-35,377,155,-273
1,5084634,424,-1365,-494,-1480,-302,-35,377,155,-273
1,5084647,426,-1368,-493,-1483,-305,-31,377,155,-273
1,5084661,423,-1366,-491,-1485,-302,-36,377,155,-273
1,5084676,423,-1366,-491,-1485,-302,-36,377,155,-273
1,5084689,423,-1363,-489,-1485,-308,-35,377,155,-273
1,5084702,426,-1365,-491,-1485,-302,-39,377,155,-273
1,5084712,426,-1365,-491,-1485,-302,-39,377,155,-273
1,5084724,423,-1365,-489,-1488,-301,-43,380,156,-274
1,5084731,423,-1365,-489,-1488,-301,-43,380,156,-274
1,5084736,423,-1365,-489,-1488,-301,-43,380,156,-274
1,5084741,426,-1364,-487,-1492,-295,-42,380,156,-274
1,5084746,426,-1364,-487,-1492,-295,-42,380,156,-274
1,5084751,426,-1364,-487,-1492,-295,-42,380,156,-274
1,5084760,422,-1363,-489,-1491,-299,-40,380,156,-274
1,5084767,422,-1363,-489,-1491,-299,-40,380,156,-274
1,5084774,422,-1363,-489,-1491,-299,-40,380,156,-274
1,5084782,423,-1368,-490,-1491,-295,-35,380,156,-274
1,5084789,423,-1368,-490,-1491,-295,-35,380,156,-274
1,5084794,423,-1368,-490,-1491,-295,-35,380,156,-274
1,5084803,425,-1365,-490,-1486,-300,-36,380,156,-274
1,5084811,425,-1365,-490,-1486,-300,-36,380,156,-274
1,5084818,425,-1364,-492,-1483,-305,-39,380,156,-274
1,5084825,425,-1364,-492,-1483,-305,-39,380,156,-274
1,5084832,425,-1364,-492,-1483,-305,-39,380,156,-274
1,5084839,426,-1363,-485,-1485,-300,-37,383,155,-269
1,5084845,426,-1363,-485,-1485,-300,-37,383,155,-269
1,5084853,426,-1363,-485,-1485,-300,-37,383,155,-269
1,5084860,424,-1365,-485,-1475,-303,-38,383,155,-269
1,5084866,424,-1365,-485,-1475,-303,-38,383,155,-269
1,5084872,424,-1365,-485,-1475,-303,-38,383,155,-269
1,5084880,420,-1365,-489,-1478,-302,-40,383,155,-269
1,5084887,420,-1365,-489,-1478,-302,-40,383,155,-269
1,5084893,420,-1365,-489,-1478,-302,-40,383,155,-269
1,5084898,420,-1365,-489,-1478,-302,-40,383,155,-269
1,5084904,424,-1365,-493,-1479,-300,-40,383,155,-269
1,5084911,424,-1365,-493,-1479,-300,-40,383,155,-269
1,5084918,422,-1366,-490,-1482,-300,-42,383,155,-269
1,5084924,422,-1366,-490,-1482,-300,-42,383,155,-269
1,5084932,422,-1366,-490,-1482,-300,-42,383,155,-269
1,5084938,425,-1366,-493,-1486,-302,-42,383,155,-269
1,5084945,425,-1366,-493,-1486,-302,-42,383,155,-269
1,5084952,425,-1366,-493,-1486,-302,-42,383,155,-269
1,5084959,423,-1364,-493,-1485,-303,-41,383,155,-269
1,5084967,423,-1364,-493,-1485,-303,-41,383,155,-269
1,5084975,423,-1364,-493,-1485,-303,-41,383,155,-269
1,5084981,423,-1365,-484,-1488,-307,-40,382,150,-270
1,5084988,423,-1365,-484,-1488,-307,-40,382,150,-270
1,5084994,423,-1365,-484,-1488,-307,-40,382,150,-270
1,5085000,425,-1363,-485,-1482,-302,-46,382,150,-270
1,5085007,425,-1363,-485,-1482,-302,-46,382,150,-270
1,5085012,425,-1363,-485,-1482,-302,-46,382,150,-270
1,5085021,422,-1364,-490,-1486,-301,-35,382,150,-270
1,5085029,422,-1364,-490,-1486,-301,-35,382,150,-270
1,5085037,422,-1364,-490,-1486,-301,-35,382,150,-270
1,5085044,426,-1364,-490,-1488,-300,-37,382,150,-270
1,5085051,426,-1364,-490,-1488,-300,-37,382,150,-270
1,5085058,422,-1363,-489,-1486,-301,-37,382,150,-270
1,5085066,422,-1363,-489,-1486,-301,-37,382,150,-270
1,5085073,422,-1363,-489,-1486,-301,-37,382,150,-270
1,5085079,424,-1365,-494,-1477,-299,-43,382,150,-270
1,5085088,424,-1365,-494,-1477,-299,-43,382,150,-270
1,5085094,424,-1365,-494,-1477,-299,-43,382,150,-270
1,5085102,425,-1366,-491,-1490,-308,-39,382,152,-278
1,5085109,425,-1366,-491,-1490,-308,-39,382,152,-278
1,5085116,425,-1366,-491,-1490,-308,-39,382,152,-278
1,5085124,426,-1365,-492,-1483,-299,-35,382,152,-278
1,5085131,426,-1365,-492,-1483,-299,-35,382,152,-278
1,5085138,425,-1363,-490,-1483,-305,-42,382,152,-278
1,5085147,425,-1363,-490,-1483,-305,-42,382,152,-278
1,5085155,425,-1363,-490,-1483,-305,-42,382,152,-278
1,5085162,428,-1365,-492,-1486,-303,-35,382,152,-278
1,5085169,428,-1365,-492,-1486,-303,-35,382,152,-278
1,5085174,428,-1365,-492,-1486,-303,-35,382,152,-278
1,5085180,425,-1365,-489,-1484,-300,-37,382,152,-278
1,5085188,425,-1365,-489,-1484,-300,-37,382,152,-278
1,5085195,425,-1365,-489,-1484,-300,-37,382,152,-278
1,5085201,424,-1365,-491,-1484,-298,-38,382,152,-278
1,5085207,424,-1365,-491,-1484,-298,-38,382,152,-278
1,5085212,424,-1365,-491,-1484,-298,-38,382,152,-278
1,5085219,425,-1364,-490,-1484,-302,-40,373,153,-271
1,5085225,425,-1364,-490,-1484,-302,-40,373,153,-271
1,5085232,425,-1364,-490,-1484,-302,-40,373,153,-271
1,5085237,425,-1364,-490,-1484,-302,-40,373,153,-271
1,5085244,424,-1364,-488,-1483,-307,-46,373,153,-271
1,5085250,424,-1364,-488,-1483,-307,-46,373,153,-271
1,5085258,424,-1362,-493,-1482,-299,-39,373,153,-271
1,5085264,424,-1362,-493,-1482,-299,-39,373,153,-271
1,5085272,424,-1362,-493,-1482,-299,-39,373,153,-271
1,5085279,423,-1367,-496,-1492,-292,-37,373,153,-271
1,5085286,423,-1367,-496,-1492,-292,-37,373,153,-271
1,5085292,423,-1367,-496,-1492,-292,-37,373,153,-271
1,5085299,426,-1367,-492,-1490,-296,-42,373,153,-271
1,5085305,426,-1367,-492,-1490,-296,-42,373,153,-271
1,5085313,426,-1367,-492,-1490,-296,-42,373,153,-271
1,5085321,424,-1364,-489,-1481,-296,-36,373,153,-271
1,5085328,424,-1364,-489,-1481,-296,-36,373,153,-271
1,5085334,424,-1364,-489,-1481,-296,-36,373,153,-271
1,5085341,424,-1369,-487,-1483,-299,-34,381,157,-275
1,5085349,424,-1369,-487,-1483,-299,-34,381,157,-275
1,5085356,424,-1369,-487,-1483,-299,-34,381,157,-275
1,5085363,425,-1363,-492,-1488,-299,-34,381,157,-275
1,5085370,425,-1363,-492,-1488,-299,-34,381,157,-275
1,5085377,425,-1363,-492,-1488,-299,-34,381,157,-275
1,5085382,425,-1368,-484,-1480,-297,-35,381,157,-275
1,5085389,425,-1368,-484,-1480,-297,-35,381,157,-275
1,5085398,425,-1368,-484,-1480,-297,-35,381,157,-275
1,5085405,423,-1366,-487,-1488,-307,-39,381,157,-275
1,5085411,423,-1366,-487,-1488,-307,-39,381,157,-275
1,5085417,423,-1366,-487,-1488,-307,-39,381,157,-275
1,5085425,424,-1366,-488,-1485,-304,-37,381,157,-275
1,5085431,424,-1366,-488,-1485,-304,-37,381,157,-275
1,5085440,423,-1364,-488,-1490,-295,-41,381,157,-275
1,5085447,423,-1364,-488,-1490,-295,-41,381,157,-275
1,5085454,423,-1364,-488,-1490,-295,-41,381,157,-275
1,5085460,421,-1364,-491,-1490,-309,-37,384,150,-276
1,5085468,421,-1364,-491,-1490,-309,-37,384,150,-276
1,5085474,421,-1364,-491,-1490,-309,-37,384,150,-276
1,5085481,423,-1368,-487,-1491,-303,-42,384,150,-276
1,5085489,423,-1368,-487,-1491,-303,-42,384,150,-276
1,5085494,423,-1368,-487,-1491,-303,-42,384,150,-276
1,5085499,427,-1366,-490,-1490,-302,-36,384,150,-276
1,5085504,427,-1366,-490,-1490,-302,-36,384,150,-276
1,5085509,427,-1366,-490,-1490,-302,-36,384,150,-276
1,5085514,427,-1366,-490,-1490,-302,-36,384,150,-276
1,5085519,423,-1364,-490,-1485,-298,-36,384,150,-276
1,5085526,423,-1364,-490,-1485,-298,-36,384,150,-276
1,5085535,423,-1364,-490,-1485,-298,-36,384,150,-276
1,5085541,423,-1366,-488,-1481,-306,-37,384,150,-276
1,5085547,423,-1366,-488,-1481,-306,-37,384,150,-276
1,5085555,423,-1366,-488,-1481,-306,-37,384,150,-276
1,5085562,428,-1366,-494,-1481,-304,-38,384,150,-276
1,5085569,428,-1366,-494,-1481,-304,-38,384,150,-276
1,5085576,428,-1366,-494,-1481,-304,-38,384,150,-276
1,5085585,425,-1366,-491,-1482,-297,-45,384,150,-276
1,5085591,425,-1366,-491,-1482,-297,-45,384,150,-276
1,5085598,425,-1366,-491,-1482,-297,-45,384,150,-276
1,5085605,425,-1365,-484,-1485,-298,-44,382,156,-282
1,5085614,425,-1365,-484,-1485,-298,-44,382,156,-282
1,5085619,425,-1365,-491,-1486,-301,-43,382,156,-282
1,5085626,425,-1365,-491,-1486,-301,-43,382,156,-282
1,5085634,425,-1365,-491,-1486,-301,-43,382,156,-282
1,5085641,429,-1365,-490,-1481,-295,-53,382,156,-282
1,5085648,429,-1365,-490,-1481,-295,-53,382,156,-282
1,5085656,429,-1365,-490,-1481,-295,-53,382,156,-282
1,5085663,429,-1365,-490,-1481,-295,-53,382,156,-282
1,5085670,429,-1365,-490,-1481,-295,-53,382,156,-282
1,5085677,429,-1365,-490,-1481,-295,-53,382,156,-282
1,5085685,428,-1363,-491,-1487,-297,-38,382,156,-282
1,5085692,428,-1363,-491,-1487,-297,-38,382,156,-282
1,5085701,425,-1367,-493,-1489,-300,-31,382,156,-282
1,5085707,425,-1367,-493,-1489,-300,-31,382,156,-282
1,5085714,425,-1367,-493,-1489,-300,-31,382,156,-282
1,5085720,421,-1365,-488,-1492,-304,-33,378,148,-268
1,5085726,421,-1365,-488,-1492,-304,-33,378,148,-268
1,5085731,421,-1365,-488,-1492,-304,-33,378,148,-268
1,5085740,425,-1364,-487,-1486,-305,-41,378,148,-268
1,5085748,425,-1364,-487,-1486,-305,-41,378,148,-268
1,5085756,425,-1364,-487,-1486,-305,-41,378,148,-268
1,5085764,422,-1365,-489,-1489,-303,-41,378,148,-268
1,5085776,422,-1365,-489,-1489,-303,-41,378,148,-268
1,5085786,425,-1367,-491,-1485,-303,-35,378,148,-268
1,5085794,425,-1367,-491,-1485,-303,-35,378,148,-268
1,5085804,422,-1363,-491,-1489,-298,-26,378,148,-268
1,5085816,422,-1363,-491,-1489,-298,-26,378,148,-268
1,5085831,421,-1367,-491,-1481,-300,-41,378,148,-268
1,5085842,422,-1362,-490,-1477,-307,-39,388,160,-280
1,5085855,422,-1362,-490,-1477,-307,-39,388,160,-280
1,5085868,422,-1365,-486,-1485,-301,-32,388,160,-280
1,5085881,424,-1366,-486,-1480,-303,-42,388,160,-280
1,5085893,424,-1366,-486,-1480,-303,-42,388,160,-280
1,5085902,424,-1364,-492,-1484,-302,-43,388,160,-280
1,5085915,424,-1364,-492,-1484,-302,-43,388,160,-280
1,5085929,423,-1366,-494,-1485,-301,-36,388,160,-280
1,5085941,424,-1368,-493,-1479,-299,-34,388,160,-280
1,5085949,424,-1368,-493,-1479,-299,-34,388,160,-280
1,5085962,424,-1364,-495,-1479,-296,-48,384,162,-272
1,5085975,424,-1364,-495,-1479,-296,-48,384,162,-272
1,5085985,424,-1366,-490,-1477,-301,-35,384,162,-272
1,5085999,426,-1368,-490,-1479,-299,-43,384,162,-272
1,5086010,426,-1368,-490,-1479,-299,-43,384,162,-272
1,5086022,423,-1364,-490,-1491,-298,-41,384,162,-272
1,5086034,423,-1364,-490,-1491,-298,-41,384,162,-272
1,5086047,424,-1364,-492,-1489,-289,-43,384,162,-272
1,5086057,424,-1364,-492,-1489,-289,-43,384,162,-272
1,5086067,422,-1367,-488,-1491,-289,-43,384,162,-272
1,5086080,425,-1365,-489,-1489,-304,-38,384,162,-272
1,5086092,425,-1365,-489,-1489,-304,-38,384,162,-272
1,5086103,423,-1363,-492,-1489,-303,-37,380,148,-274
1,5086116,423,-1363,-492,-1489,-303,-37,380,148,-274
1,5086129,424,-1365,-489,-1487,-305,-41,380,148,-274
1,5086142,422,-1364,-490,-1485,-300,-43,380,148,-274
1,5086152,422,-1364,-490,-1485,-300,-43,380,148,-274
1,5086166,424,-1367,-495,-1485,-301,-31,380,148,-274
1,5086177,424,-1367,-495,-1485,-301,-31,380,148,-274
1,5086188,424,-1365,-494,-1494,-297,-33,380,148,-274
1,5086202,425,-1366,-490,-1488,-307,-39,380,148,-274
1,5086216,425,-1366,-490,-1488,-307,-39,380,148,-274
1,5086226,422,-1363,-486,-1478,-301,-38,386,156,-270
1,5086237,422,-1363,-486,-1478,-301,-38,386,156,-270
1,5086249,425,-1366,-486,-1475,-298,-40,386,156,-270
1,5086264,422,-1363,-494,-1480,-295,-40,386,156,-270
1,5086273,422,-1363,-494,-1480,-295,-40,386,156,-270
1,5086285,422,-1366,-494,-1479,-300,-37,386,156,-270
1,5086299,423,-1368,-490,-1481,-297,-41,386,156,-270
1,5086313,423,-1368,-490,-1481,-297,-41,386,156,-270
1,5086322,421,-1368,-490,-1486,-297,-37,386,156,-270
1,5086332,421,-1368,-490,-1486,-297,-37,386,156,-270
1,5086347,423,-1369,-483,-1484,-294,-38,379,153,-277
1,5086358,423,-1366,-486,-1480,-296,-40,379,153,-277
1,5086370,423,-1366,-486,-1480,-296,-40,379,153,-277
1,5086383,424,-1364,-489,-1479,-297,-39,379,153,-277
1,5086391,424,-1364,-489,-1479,-297,-39,379,153,-277
1,5086399,425,-1366,-490,-1483,-301,-34,379,153,-277
1,5086407,425,-1366,-490,-1483,-301,-34,379,153,-277
1,5086415,425,-1366,-490,-1483,-301,-34,379,153,-277
1,5086425,423,-1365,-487,-1482,-299,-39,379,153,-277
1,5086433,423,-1365,-487,-1482,-299,-39,379,153,-277
1,5086441,423,-1366,-491,-1488,-302,-48,379,153,-277
1,5086451,423,-1366,-491,-1488,-302,-48,379,153,-277
1,5086464,423,-1368,-487,-1485,-299,-39,379,155,-275
1,5086472,423,-1368,-487,-1485,-299,-39,379,155,-275
1,5086481,425,-1368,-486,-1486,-302,-42,379,155,-275
1,5086490,425,-1368,-486,-1486,-302,-42,379,155,-275
1,5086498,425,-1368,-486,-1486,-302,-42,379,155,-275
1,5086507,424,-1365,-488,-1485,-302,-41,379,155,-275
1,5086514,424,-1365,-488,-1485,-302,-41,379,155,-275
1,5086523,426,-1364,-489,-1485,-302,-40,379,155,-275
1,5086531,426,-1364,-489,-1485,-302,-40,379,155,-275
1,5086541,425,-1365,-488,-1490,-302,-41,379,155,-275
1,5086551,425,-1365,-488,-1490,-302,-41,379,155,-275
1,5086560,422,-1362,-494,-1483,-304,-46,379,155,-275
1,5086568,422,-1362,-494,-1483,-304,-46,379,155,-275
1,5086579,424,-1364,-492,-1484,-307,-42,379,155,-275
1,5086589,424,-1364,-492,-1484,-307,-42,379,155,-275
1,5086603,421,-1366,-491,-1482,-298,-40,382,150,-270
1,5086615,421,-1366,-491,-1482,-298,-40,382,150,-270
1,5086627,427,-1369,-495,-1478,-304,-40,382,150,-270
1,5086639,424,-1366,-491,-1480,-301,-41,382,150,-270
1,5086652,424,-1366,-491,-1480,-301,-41,382,150,-270
1,5086665,425,-1367,-496,-1482,-294,-33,382,150,-270
1,5086679,426,-1366,-492,-1479,-308,-43,382,150,-270
1,5086690,426,-1366,-492,-1479,-308,-43,382,150,-270
1,5086703,423,-1368,-491,-1481,-303,-45,382,150,-270
1,5086716,423,-1368,-491,-1481,-303,-45,382,150,-270
1,5086729,427,-1364,-485,-1484,-297,-44,388,150,-276
1,5086740,423,-1362,-487,-1488,-300,-43,388,150,-276
1,5086748,423,-1362,-487,-1488,-300,-43,388,150,-276
1,5086754,423,-1362,-487,-1488,-300,-43,388,150,-276
1,5086761,425,-1360,-493,-1486,-300,-47,388,150,-276
1,5086768,425,-1360,-493,-1486,-300,-47,388,150,-276
1,5086775,425,-1360,-493,-1486,-300,-47,388,150,-276
1,5086781,423,-1364,-492,-1482,-302,-37,388,150,-276
1,5086788,423,-1364,-492,-1482,-302,-37,388,150,-276
1,5086793,423,-1364,-492,-1482,-302,-37,388,150,-276
1,5086801,426,-1366,-492,-1487,-307,-42,388,150,-276
1,5086809,426,-1366,-492,-1487,-307,-42,388,150,-276
1,5086815,426,-1366,-492,-1487,-307,-42,388,150,-276
1,5086821,425,-1366,-488,-1491,-303,-38,388,150,-276
1,5086829,425,-1366,-488,-1491,-303,-38,388,150,-276
1,5086837,425,-1366,-488,-1491,-303,-38,388,150,-276
1,5086845,428,-1367,-488,-1480,-302,-41,369,155,-277
1,5086852,428,-1367,-488,-1480,-302,-41,369,155,-277
1,5086859,424,-1365,-493,-1483,-304,-37,369,155,-277
1,5086865,424,-1365,-493,-1483,-304,-37,369,155,-277
1,5086871,424,-1365,-493,-1483,-304,-37,369,155,-277
1,5086878,424,-1365,-493,-1483,-304,-37,369,155,-277
1,5086884,424,-1366,-486,-1483,-302,-37,369,155,-277
1,5086889,424,-1366,-486,-1483,-302,-37,369,155,-277
1,5086898,424,-1366,-486,-1483,-302,-37,369,155,-277
1,5086905,424,-1364,-490,-1479,-302,-38,369,155,-277
1,5086914,424,-1364,-490,-1479,-302,-38,369,155,-277
1,5086922,425,-1363,-495,-1479,-302,-37,369,155,-277
1,5086929,425,-1363,-495,-1479,-302,-37,369,155,-277
1,5086937,425,-1363,-495,-1479,-302,-37,369,155,-277
1,5086942,423,-1363,-494,-1483,-304,-39,369,155,-277
1,5086949,423,-1363,-494,-1483,-304,-39,369,155,-277
1,5086956,423,-1363,-494,-1483,-304,-39,369,155,-277
1,5086961,423,-1363,-485,-1482,-301,-38,378,152,-284
1,5086967,423,-1363,-485,-1482,-301,-38,378,152,-284
1,5086972,423,-1363,-485,-1482,-301,-38,378,152,-284
1,5086978,423,-1363,-485,-1482,-301,-38,378,152,-284
1,5086985,423,-1364,-485,-1483,-301,-38,378,152,-284
1,5086993,423,-1364,-485,-1483,-301,-38,378,152,-284
1,5086999,423,-1363,-494,-1486,-304,-40,378,152,-284
1,5087006,423,-1363,-494,-1486,-304,-40,378,152,-284
1,5087013,423,-1363,-494,-1486,-304,-40,378,152,-284
1,5087022,423,-1367,-493,-1481,-303,-36,378,152,-284
1,5087028,423,-1367,-493,-1481,-303,-36,378,152,-284
1,5087035,423,-1367,-493,-1481,-303,-36,378,152,-284
1,5087041,425,-1366,-496,-1486,-303,-44,378,152,-284
1,5087048,425,-1366,-496,-1486,-303,-44,378,152,-284
1,5087055,425,-1366,-496,-1486,-303,-44,378,152,-284
1,5087064,424,-1366,-492,-1484,-300,-43,378,152,-284
1,5087072,424,-1366,-492,-1484,-300,-43,378,152,-284
1,5087079,424,-1366,-491,-1481,-301,-46,382,152,-278
1,5087086,424,-1366,-491,-1481,-301,-46,382,152,-278
1,5087093,424,-1366,-491,-1481,-301,-46,382,152,-278
1,5087100,424,-1364,-485,-1484,-299,-40,382,152,-278
1,5087107,424,-1364,-485,-1484,-299,-40,382,152,-278
1,5087114,424,-1364,-485,-1484,-299,-40,382,152,-278
1,5087122,422,-1366,-484,-1474,-300,-43,382,152,-278
1,5087130,422,-1366,-484,-1474,-300,-43,382,152,-278
1,5087135,422,-1366,-484,-1474,-300,-43,382,152,-278
1,5087142,422,-1365,-487,-1480,-298,-36,382,152,-278
1,5087151,422,-1365,-487,-1480,-298,-36,382,152,-278
1,5087157,422,-1365,-487,-1480,-298,-36,382,152,-278
1,5087165,422,-1364,-492,-1480,-297,-40,382,152,-278
1,5087172,422,-1364,-492,-1480,-297,-40,382,152,-278
1,5087181,422,-1367,-488,-1479,-306,-37,382,152,-278
1,5087188,422,-1367,-488,-1479,-306,-37,382,152,-278
1,5087197,422,-1367,-488,-1479,-306,-37,382,152,-278
1,5087204,425,-1367,-491,-1483,-309,-32,382,152,-278
1,5087211,425,-1367,-491,-1483,-309,-32,382,152,-278
1,5087217,425,-1367,-491,-1483,-309,-32,382,152,-278
1,5087224,427,-1362,-486,-1480,-303,-37,377,153,-273
1,5087232,427,-1362,-486,-1480,-303,-37,377,153,-273
1,5087240,420,-1366,-493,-1483,-302,-40,377,153,-273
1,5087247,420,-1366,-493,-1483,-302,-40,377,153,-273
1,5087253,420,-1366,-493,-1483,-302,-40,377,153,-273
1,5087258,420,-1366,-493,-1483,-302,-40,377,153,-273
1,5087266,425,-1366,-488,-1474,-297,-42,377,153,-273
1,5087273,425,-1366,-488,-1474,-297,-42,377,153,-273
1,5087283,425,-1366,-492,-1473,-296,-38,377,153,-273
1,5087289,425,-1366,-492,-1473,-296,-38,377,153,-273
1,5087296,425,-1366,-492,-1473,-296,-38,377,153,-273
1,5087302,424,-1364,-494,-1478,-303,-26,377,153,-273
1,5087310,424,-1364,-494,-1478,-303,-26,377,153,-273
1,5087316,424,-1364,-494,-1478,-303,-26,377,153,-273
1,5087324,422,-1365,-491,-1482,-307,-29,377,153,-273
1,5087332,422,-1365,-491,-1482,-307,-29,377,153,-273
1,5087339,424,-1364,-487,-1483,-308,-38,372,156,-272
1,5087347,424,-1364,-487,-1483,-308,-38,372,156,-272
1,5087354,424,-1364,-487,-1483,-308,-38,372,156,-272
1,5087361,425,-1366,-485,-1490,-300,-40,372,156,-272
1,5087369,425,-1366,-485,-1490,-300,-40,372,156,-272
1,5087377,425,-1366,-485,-1490,-300,-40,372,156,-272
1,5087383,425,-1367,-492,-1492,-301,-44,372,156,-272
1,5087390,425,-1367,-492,-1492,-301,-44,372,156,-272
1,5087397,425,-1367,-492,-1492,-301,-44,372,156,-272
1,5087406,424,-1365,-492,-1493,-298,-43,372,156,-272
1,5087412,424,-1365,-492,-1493,-298,-43,372,156,-272
1,5087419,426,-1363,-495,-1488,-307,-34,372,156,-272
1,5087427,426,-1363,-495,-1488,-307,-34,372,156,-272
1,5087434,426,-1363,-495,-1488,-307,-34,372,156,-272
1,5087440,423,-1368,-492,-1484,-298,-41,372,156,-272
1,5087448,423,-1368,-492,-1484,-298,-41,372,156,-272
1,5087455,423,-1368,-492,-1484,-298,-41,372,156,-272
1,5087461,423,-1365,-490,-1488,-299,-39,381,161,-277
1,5087467,423,-1365,-490,-1488,-299,-39,381,161,-277
1,5087473,423,-1365,-490,-1488,-299,-39,381,161,-277
1,5087480,423,-1365,-490,-1481,-298,-47,381,161,-277
1,5087488,423,-1365,-490,-1481,-298,-47,381,161,-277
1,5087494,423,-1365,-490,-1481,-298,-47,381,161,-277
1,5087499,423,-1365,-490,-1481,-298,-47,381,161,-277
1,5087504,423,-1365,-490,-1481,-298,-47,381,161,-277
1,5087509,423,-1365,-490,-1481,-298,-47,381,161,-277
1,5087514,423,-1365,-490,-1481,-298,-47,381,161,-277
1,5087522,423,-1364,-490,-1482,-297,-37,381,161,-277
1,5087527,423,-1364,-490,-1482,-297,-37,381,161,-277
1,5087533,423,-1364,-490,-1482,-297,-37,381,161,-277
1,5087540,425,-1366,-493,-1486,-297,-32,381,161,-277
1,5087547,425,-1366,-493,-1486,-297,-32,381,161,-277
1,5087554,425,-1366,-493,-1486,-297,-32,381,161,-277
1,5087559,425,-1367,-491,-1479,-299,-35,381,161,-277
1,5087567,425,-1367,-491,-1479,-299,-35,381,161,-277
1,5087575,425,-1367,-491,-1479,-299,-35,381,161,-277
1,5087582,422,-1363,-492,-1483,-299,-32,381,155,-281
1,5087588,422,-1363,-492,-1483,-299,-32,381,155,-281
1,5087596,422,-1363,-492,-1483,-299,-32,381,155,-281
1,5087603,424,-1366,-486,-1487,-302,-33,381,155,-281
1,5087608,424,-1366,-486,-1487,-302,-33,381,155,-281
1,5087617,424,-1366,-486,-1487,-302,-33,381,155,-281
1,5087623,424,-1364,-489,-1488,-297,-34,381,155,-281
1,5087630,424,-1364,-489,-1488,-297,-34,381,155,-281
1,5087637,424,-1364,-489,-1488,-297,-34,381,155,-281
1,5087643,428,-1366,-490,-1489,-300,-34,381,155,-281
1,5087651,428,-1366,-490,-1489,-300,-34,381,155,-281
1,5087659,428,-1366,-490,-1489,-300,-34,381,155,-281
1,5087666,425,-1364,-493,-1481,-295,-43,381,155,-281
1,5087672,425,-1364,-493,-1481,-295,-43,381,155,-281
1,5087679,426,-1367,-489,-1486,-299,-43,381,155,-281
1,5087685,426,-1367,-489,-1486,-299,-43,381,155,-281
1,5087693,426,-1367,-489,-1486,-299,-43,381,155,-281
1,5087702,423,-1365,-494,-1487,-303,-43,381,155,-281
1,5087708,423,-1365,-494,-1487,-303,-43,381,155,-281
1,5087715,423,-1365,-494,-1487,-303,-43,381,155,-281
1,5087722,422,-1366,-485,-1482,-302,-40,378,154,-274
1,5087727,422,-1366,-485,-1482,-302,-40,378,154,-274
1,5087734,422,-1366,-485,-1482,-302,-40,378,154,-274
1,5087741,425,-1368,-491,-1480,-300,-40,378,154,-274
1,5087748,425,-1368,-491,-1480,-300,-40,378,154,-274
1,5087760,425,-1365,-489,-1480,-297,-41,378,154,-274
1,5087773,425,-1365,-489,-1480,-297,-41,378,154,-274
1,5087783,425,-1364,-489,-1484,-301,-36,378,154,-274
1,5087793,425,-1364,-489,-1484,-301,-36,378,154,-274
1,5087801,425,-1364,-487,-1486,-298,-39,378,154,-274
1,5087809,425,-1364,-487,-1486,-298,-39,378,154,-274
1,5087816,425,-1364,-487,-1486,-298,-39,378,154,-274
1,5087826,425,-1365,-495,-1493,-302,-37,378,154,-274
1,5087839,425,-1365,-495,-1493,-302,-37,378,154,-274
1,5087851,425,-1365,-495,-1493,-302,-37,381,151,-279
1,5087864,426,-1369,-493,-1479,-303,-41,381,151,-279
1,5087878,426,-1369,-493,-1479,-303,-41,381,151,-279
1,5087889,424,-1364,-492,-1482,-299,-32,381,151,-279
1,5087900,425,-1364,-491,-1478,-297,-37,381,151,-279
1,5087913,425,-1364,-491,-1478,-297,-37,381,151,-279
1,5087926,423,-1368,-490,-1486,-301,-33,381,151,-279
1,5087938,423,-1368,-490,-1486,-301,-33,381,151,-279
1,5087950,425,-1365,-492,-1478,-299,-38,381,151,-279
1,5087964,424,-1365,-488,-1485,-300,-35,375,153,-275
1,5087976,424,-1365,-488,-1485,-300,-35,375,153,-275
1,5087988,426,-1363,-487,-1488,-298,-40,375,153,-275
1,5087997,426,-1363,-487,-1488,-298,-40,375,153,-275
1,5088012,423,-1364,-489,-1487,-309,-41,375,153,-275
1,5088024,424,-1365,-489,-1483,-307,-39,375,153,-275
1,5088033,424,-1365,-489,-1483,-307,-39,375,153,-275
1,5088041,423,-1362,-491,-1480,-306,-39,375,153,-275
1,5088050,423,-1362,-491,-1480,-306,-39,375,153,-275
1,5088058,423,-1362,-491,-1480,-306,-39,375,153,-275
1,5088068,424,-1366,-492,-1487,-301,-33,375,153,-275
1,5088081,425,-1365,-488,-1483,-299,-39,378,160,-268
1,5088095,425,-1365,-488,-1483,-299,-39,378,160,-268
1,5088107,425,-1366,-490,-1486,-303,-41,378,160,-268
1,5088117,425,-1366,-490,-1486,-303,-41,378,160,-268
1,5088130,425,-1362,-491,-1486,-298,-41,378,160,-268
1,5088143,427,-1366,-493,-1485,-300,-39,378,160,-268
1,5088155,427,-1366,-493,-1485,-300,-39,378,160,-268
1,5088169,423,-1364,-491,-1485,-300,-33,378,160,-268
1,5088182,422,-1366,-494,-1483,-302,-36,378,160,-268
1,5088195,422,-1366,-494,-1483,-302,-36,378,160,-268
1,5088207,423,-1364,-493,-1492,-300,-41,383,157,-273
1,5088216,423,-1364,-493,-1492,-300,-41,383,157,-273
1,5088228,423,-1365,-490,-1490,-302,-37,383,157,-273
1,5088241,422,-1367,-488,-1484,-299,-38,383,157,-273
1,5088253,422,-1367,-488,-1484,-299,-38,383,157,-273
1,5088265,423,-1366,-491,-1483,-303,-44,383,157,-273
1,5088278,423,-1366,-491,-1483,-303,-44,383,157,-273
1,5088293,425,-1365,-494,-1486,-306,-42,383,157,-273
1,5088308,424,-1367,-490,-1484,-309,-42,383,157,-273
1,5088316,424,-1367,-490,-1484,-309,-42,383,157,-273
1,5088327,427,-1367,-490,-1485,-303,-37,383,157,-273
1,5088342,425,-1364,-489,-1480,-301,-30,388,154,-272
1,5088355,425,-1364,-489,-1480,-301,-30,388,154,-272
1,5088366,424,-1363,-490,-1481,-295,-36,388,154,-272
1,5088379,423,-1366,-488,-1485,-299,-38,388,154,-272
1,5088394,423,-1366,-488,-1485,-299,-38,388,154,-272
1,5088405,424,-1364,-491,-1477,-297,-36,388,154,-272
1,5088416,424,-1364,-491,-1477,-297,-36,388,154,-272
1,5088429,423,-1363,-491,-1484,-301,-35,388,154,-272
1,5088442,423,-1365,-493,-1487,-304,-33,388,154,-272
1,5088455,423,-1365,-493,-1487,-304,-33,388,154,-272
1,5088465,423,-1367,-487,-1477,-298,-38,377,159,-269
1,5088479,423,-1367,-487,-1477,-298,-38,377,159,-269
1,5088490,425,-1365,-485,-1488,-298,-45,377,159,-269
1,5088498,425,-1365,-485,-1488,-298,-45,377,159,-269
1,5088507,426,-1364,-488,-1486,-303,-42,377,159,-269
1,5088517,426,-1364,-488,-1486,-303,-42,377,159,-269
1,5088525,424,-1362,-496,-1488,-297,-36,377,159,-269
1,5088537,424,-1362,-496,-1488,-297,-36,377,159,-269
1,5088550,425,-1365,-490,-1481,-295,-45,377,159,-269
1,5088564,426,-1363,-491,-1485,-303,-42,377,159,-269
1,5088576,426,-1363,-491,-1485,-303,-42,377,159,-269
1,5088589,424,-1367,-489,-1478,-300,-41,382,152,-266
1,5088602,424,-1371,-484,-1477,-301,-39,382,152,-266
1,5088615,424,-1371,-484,-1477,-301,-39,382,152,-266
1,5088627,424,-1364,-491,-1484,-304,-43,382,152,-266
1,5088636,424,-1364,-491,-1484,-304,-43,382,152,-266
1,5088645,425,-1366,-487,-1478,-299,-39,382,152,-266
1,5088653,425,-1366,-487,-1478,-299,-39,382,152,-266
1,5088661,426,-1366,-491,-1488,-305,-41,382,152,-266
1,5088669,426,-1366,-491,-1488,-305,-41,382,152,-266
1,5088677,426,-1366,-491,-1488,-305,-41,382,152,-266
1,5088686,425,-1366,-491,-1482,-306,-41,382,152,-266
1,5088695,425,-1366,-491,-1482,-306,-41,382,152,-266
1,5088703,425,-1363,-494,-1483,-298,-37,382,154,-272
1,5088712,425,-1363,-494,-1483,-298,-37,382,154,-272
1,5088721,425,-1366,-489,-1479,-299,-41,382,154,-272
1,5088732,425,-1366,-489,-1479,-299,-41,382,154,-272
1,5088741,426,-1364,-487,-1480,-304,-43,382,154,-272
1,5088753,426,-1364,-487,-1480,-304,-43,382,154,-272
1,5088762,424,-1364,-491,-1482,-302,-46,382,154,-272
1,5088770,424,-1364,-491,-1482,-302,-46,382,154,-272
1,5088776,424,-1364,-491,-1482,-302,-46,382,154,-272
1,5088782,423,-1364,-490,-1487,-299,-43,382,154,-272
1,5088789,423,-1364,-490,-1487,-299,-43,382,154,-272
1,5088797,423,-1364,-490,-1487,-299,-43,382,154,-272
1,5088803,425,-1367,-488,-1488,-300,-44,382,154,-272
1,5088809,425,-1367,-488,-1488,-300,-44,382,154,-272
1,5088818,425,-1367,-488,-1488,-300,-44,382,154,-272
1,5088824,427,-1363,-494,-1489,-299,-40,382,154,-272
1,5088831,427,-1363,-494,-1489,-299,-40,382,154,-272
1,5088839,427,-1363,-494,-1489,-299,-40,382,154,-272
1,5088846,428,-1363,-488,-1492,-298,-37,381,149,-273
1,5088851,428,-1363,-488,-1492,-298,-37,381,149,-273
1,5088860,426,-1363,-488,-1479,-293,-44,381,149,-273
1,5088868,426,-1363,-488,-1479,-293,-44,381,149,-273
1,5088875,426,-1363,-488,-1479,-293,-44,381,149,-273
1,5088882,424,-1366,-493,-1483,-296,-41,381,149,-273
1,5088890,424,-1366,-493,-1483,-296,-41,381,149,-273
1,5088898,424,-1366,-493,-1483,-296,-41,381,149,-273
1,5088904,424,-1367,-492,-1487,-301,-32,381,149,-273
1,5088911,424,-1367,-492,-1487,-301,-32,381,149,-273
1,5088918,424,-1367,-492,-1487,-301,-32,381,149,-273
1,5088924,428,-1363,-485,-1488,-296,-36,381,149,-273
1,5088931,428,-1363,-485,-1488,-296,-36,381,149,-273
1,5088940,428,-1363,-485,-1488,-296,-36,381,149,-273
1,5088947,424,-1363,-489,-1486,-296,-35,381,149,-273
1,5088952,424,-1363,-489,-1486,-296,-35,381,149,-273
1,5088960,421,-1362,-487,-1490,-298,-36,379,151,-273
1,5088967,421,-1362,-487,-1490,-298,-36,379,151,-263
1,5088974,421,-1362,-487,-1490,-298,-36,379,151,-263
1,5088982,424,-1366,-488,-1482,-303,-37,379,151,-263
1,5088989,424,-1366,-488,-1482,-303,-37,379,151,-263
1,5088995,424,-1366,-488,-1482,-303,-37,379,151,-263
1,5089000,423,-1363,-494,-1484,-303,-35,379,151,-263
1,5089008,423,-1363,-494,-1484,-303,-35,379,151,-263
1,5089014,423,-1363,-494,-1484,-303,-35,379,151,-263
1,5089019,422,-1364,-493,-1481,-297,-37,379,151,-263
1,5089026,422,-1364,-493,-1481,-297,-37,379,151,-263
1,5089033,422,-1364,-493,-1481,-297,-37,379,151,-263
1,5089040,422,-1367,-490,-1482,-296,-39,379,151,-263
1,5089047,422,-1367,-490,-1482,-296,-39,379,151,-263
1,5089053,422,-1367,-490,-1482,-296,-39,379,151,-263
1,5089061,422,-1367,-492,-1486,-303,-42,379,151,-263
1,5089068,422,-1367,-492,-1486,-303,-42,379,151,-263
1,5089075,422,-1367,-492,-1486,-303,-42,379,151,-263
1,5089082,426,-1364,-488,-1488,-301,-48,380,156,-272
1,5089089,426,-1364,-488,-1488,-301,-48,380,156,-272
1,5089096,426,-1364,-488,-1488,-301,-48,380,156,-272
1,5089102,424,-1364,-489,-1481,-304,-40,380,156,-272
1,5089110,424,-1364,-489,-1481,-304,-40,380,156,-272
1,5089116,424,-1364,-489,-1481,-304,-40,380,156,-272
1,5089124,422,-1364,-491,-1485,-305,-49,380,156,-272
1,5089130,422,-1364,-491,-1485,-305,-49,380,156,-272
1,5089136,422,-1364,-491,-1485,-305,-49,380,156,-272
1,5089143,425,-1367,-488,-1484,-296,-40,380,156,-272
1,5089150,425,-1367,-488,-1484,-296,-40,380,156,-272
1,5089156,425,-1367,-488,-1484,-296,-40,380,156,-272
1,5089162,427,-1366,-490,-1482,-296,-37,380,156,-272
1,5089167,427,-1366,-490,-1482,-296,-37,380,156,-272
1,5089172,427,-1366,-490,-1482,-296,-37,380,156,-272
1,5089177,427,-1366,-490,-1482,-296,-37,380,156,-272
1,5089185,424,-1364,-487,-1491,-300,-36,380,156,-272
1,5089192,424,-1364,-487,-1491,-300,-36,380,156,-272
1,5089199,424,-1364,-487,-1491,-300,-36,380,156,-272
1,5089205,425,-1367,-489,-1495,-297,-38,380,160,-264
1,5089211,425,-1367,-489,-1495,-297,-38,380,160,-264
1,5089217,425,-1367,-489,-1495,-297,-38,380,160,-264
1,5089224,424,-1367,-491,-1479,-286,-33,380,160,-264
1,5089230,424,-1367,-491,-1479,-286,-33,380,160,-264
1,5089238,424,-1367,-491,-1479,-286,-33,380,160,-264
1,5089245,424,-1366,-494,-1480,-295,-33,380,160,-264
1,5089253,424,-1366,-494,-1480,-295,-33,380,160,-264
1,5089259,424,-1366,-494,-1480,-295,-33,380,160,-264
1,5089264,426,-1367,-489,-1489,-303,-36,380,160,-264
1,5089269,426,-1367,-489,-1489,-303,-36,380,160,-264
1,5089276,426,-1367,-489,-1489,-303,-36,380,160,-264
1,5089284,427,-1364,-489,-1489,-305,-41,380,160,-264
1,5089291,427,-1364,-489,-1489,-305,-41,380,160,-264
1,5089299,427,-1364,-489,-1489,-305,-41,380,160,-264
1,5089304,423,-1363,-492,-1489,-299,-39,380,160,-264
1,5089311,423,-1363,-492,-1489,-299,-39,380,160,-264
1,5089319,423,-1363,-492,-1489,-299,-39,380,160,-264
1,5089327,424,-1366,-491,-1492,-300,-39,380,160,-264
1,5089333,424,-1366,-491,-1492,-300,-39,380,160,-264
1,5089339,424,-1366,-491,-1492,-300,-39,380,160,-264
1,5089346,421,-1364,-486,-1487,-304,-36,389,155,-275
1,5089353,421,-1364,-486,-1487,-304,-36,389,155,-275
1,5089360,427,-1364,-488,-1485,-301,-39,389,155,-275
1,5089367,427,-1364,-488,-1485,-301,-39,389,155,-275
1,5089374,427,-1364,-488,-1485,-301,-39,389,155,-275
1,5089381,424,-1363,-495,-1485,-307,-40,389,155,-275
1,5089386,424,-1363,-495,-1485,-307,-40,389,155,-275
1,5089394,424,-1363,-495,-1485,-307,-40,389,155,-275
1,5089401,424,-1364,-490,-1481,-297,-39,389,155,-275
1,5089408,424,-1364,-490,-1481,-297,-39,389,155,-275
1,5089416,424,-1364,-490,-1481,-297,-39,389,155,-275
1,5089423,424,-1365,-489,-1484,-302,-42,389,155,-275
1,5089430,424,-1365,-489,-1484,-302,-42,389,155,-275
1,5089436,424,-1365,-489,-1484,-302,-42,389,155,-275
1,5089443,423,-1365,-488,-1486,-303,-37,389,155,-275
1,5089449,423,-1365,-488,-1486,-303,-37,389,155,-275
1,5089457,423,-1365,-488,-1486,-303,-37,389,155,-275
1,5089464,423,-1364,-483,-1483,-307,-39,373,151,-275
1,5089472,423,-1364,-483,-1483,-307,-39,373,151,-275
1,5089478,423,-1364,-483,-1483,-307,-39,373,151,-275
1,5089484,424,-1368,-485,-1485,-301,-42,373,151,-275
1,5089491,424,-1368,-485,-1485,-301,-42,373,151,-275
1,5089497,424,-1368,-485,-1485,-301,-42,373,151,-275
1,5089502,425,-1364,-487,-1479,-300,-43,373,151,-275
1,5089507,425,-1364,-487,-1479,-300,-43,373,151,-275
1,5089512,425,-1364,-487,-1479,-300,-43,373,151,-275
1,5089517,425,-1364,-487,-1479,-300,-43,373,151,-275
1,5089523,425,-1365,-494,-1480,-303,-43,373,151,-275
1,5089529,425,-1365,-494,-1480,-303,-43,373,151,-275
1,5089537,425,-1365,-494,-1480,-303,-43,373,151,-275
1,5089545,423,-1365,-493,-1481,-303,-34,373,151,-275
1,5089552,423,-1365,-493,-1481,-303,-34,373,151,-275
1,5089559,423,-1365,-493,-1481,-303,-34,373,151,-275
1,5089566,426,-1365,-491,-1486,-301,-44,373,151,-275
1,5089572,426,-1365,-491,-1486,-301,-44,373,151,-275
1,5089580,425,-1363,-484,-1485,-299,-34,385,157,-279
1,5089586,425,-1363,-484,-1485,-299,-34,385,157,-279
1,5089593,425,-1363,-484,-1485,-299,-34,385,157,-279
1,5089599,424,-1368,-490,-1488,-303,-44,385,157,-279
1,5089605,424,-1368,-490,-1488,-303,-44,385,157,-279
1,5089611,424,-1368,-490,-1488,-303,-44,385,157,-279
1,5089618,424,-1368,-490,-1488,-303,-44,385,157,-279
1,5089626,423,-1368,-492,-1483,-296,-43,385,157,-279
1,5089632,423,-1368,-492,-1483,-296,-43,385,157,-279
1,5089637,423,-1368,-492,-1483,-296,-43,385,157,-279
1,5089642,423,-1367,-487,-1489,-296,-43,385,157,-279
1,5089647,423,-1367,-487,-1489,-296,-43,385,157,-279
1,5089653,423,-1367,-487,-1489,-296,-43,385,157,-279
1,5089660,425,-1368,-490,-1488,-304,-39,385,157,-279
1,5089667,425,-1368,-490,-1488,-304,-39,385,157,-279
1,5089674,425,-1368,-490,-1488,-304,-39,385,157,-279
1,5089681,426,-1365,-493,-1489,-300,-38,385,157,-279
1,5089687,426,-1365,-493,-1489,-300,-38,385,157,-279
1,5089695,426,-1365,-493,-1489,-300,-38,385,157,-279
1,5089702,424,-1363,-491,-1477,-303,-42,388,154,-272
1,5089710,424,-1363,-491,-1477,-303,-42,388,154,-272
1,5089717,424,-1363,-491,-1477,-303,-42,388,154,-272
1,5089724,424,-1366,-490,-1483,-303,-35,388,154,-272
1,5089731,424,-1366,-490,-1483,-303,-35,388,154,-272
1,5089738,424,-1366,-490,-1483,-303,-35,388,154,-272
1,5089745,422,-1363,-491,-1477,-302,-42,388,154,-272
1,5089752,422,-1363,-491,-1477,-302,-42,388,154,-272
1,5089757,422,-1363,-491,-1477,-302,-42,388,154,-272
1,5089765,424,-1361,-489,-1485,-302,-42,388,154,-272
1,5089777,424,-1361,-489,-1485,-302,-42,388,154,-272
1,5089789,425,-1365,-489,-1484,-303,-39,388,154,-272
1,5089797,425,-1365,-489,-1484,-303,-39,388,154,-272
1,5089807,426,-1365,-493,-1484,-308,-41,388,154,-272
1,5089819,424,-1362,-487,-1483,-302,-45,388,154,-272
1,5089831,424,-1362,-487,-1483,-302,-45,381,149,-269
1,5089845,424,-1363,-490,-1478,-296,-46,381,149,-269
1,5089856,424,-1363,-490,-1478,-296,-46,381,149,-269
1,5089868,426,-1369,-492,-1480,-298,-37,381,149,-269
1,5089879,426,-1369,-492,-1480,-298,-37,381,149,-269
1,5089890,425,-1364,-493,-1481,-301,-37,381,149,-269
1,5089904,425,-1366,-490,-1485,-298,-45,381,149,-269
1,5089915,425,-1366,-490,-1485,-298,-45,381,149,-269
1,5089929,423,-1367,-490,-1486,-305,-39,381,149,-269
1,5089942,426,-1367,-495,-1485,-298,-44,381,149,-269
1,5089954,426,-1367,-495,-1485,-298,-44,381,149,-269
1,5089966,422,-1362,-490,-1485,-304,-39,386,154,-278
1,5089978,422,-1362,-490,-1485,-304,-39,386,154,-278
1,5089991,423,-1364,-487,-1482,-306,-36,386,154,-278
1,5090003,423,-1365,-483,-1479,-300,-46,386,154,-278
1,5090016,423,-1365,-483,-1479,-300,-46,386,154,-278
1,5090030,420,-1365,-485,-1484,-300,-47,386,154,-278
1,5090043,423,-1362,-490,-1485,-296,-43,386,154,-278
1,5090056,423,-1362,-490,-1485,-296,-43,386,154,-278
1,5090070,424,-1365,-492,-1480,-302,-38,386,154,-278
1,5090080,423,-1364,-485,-1479,-303,-45,374,154,-274
1,5090094,423,-1364,-485,-1479,-303,-45,374,154,-274
1,5090106,425,-1364,-487,-1484,-302,-45,374,154,-274
1,5090120,425,-1369,-489,-1483,-307,-48,374,154,-274
1,5090132,425,-1369,-489,-1483,-307,-48,374,154,-274
1,5090146,424,-1363,-487,-1484,-298,-31,374,154,-274
1,5090158,424,-1363,-487,-1484,-298,-31,374,154,-274
1,5090171,426,-1365,-488,-1480,-300,-41,374,154,-274
1,5090184,425,-1362,-493,-1485,-302,-40,374,154,-274
1,5090192,425,-1362,-493,-1485,-302,-40,374,154,-274
1,5090201,426,-1362,-490,-1486,-302,-36,386,152,-270
1,5090209,426,-1362,-490,-1486,-302,-36,386,152,-270
1,5090216,426,-1362,-490,-1486,-302,-36,386,152,-270
1,5090227,423,-1365,-489,-1482,-302,-33,386,152,-270
1,5090235,423,-1365,-489,-1482,-302,-33,386,152,-270
1,5090244,423,-1364,-487,-1483,-296,-47,386,152,-270
1,5090252,423,-1364,-487,-1483,-296,-47,386,152,-270
1,5090262,425,-1367,-489,-1479,-297,-46,386,152,-270
1,5090271,425,-1367,-489,-1479,-297,-46,386,152,-270
1,5090280,424,-1366,-489,-1488,-297,-48,386,152,-270
1,5090288,424,-1366,-489,-1488,-297,-48,386,152,-270
1,5090297,424,-1366,-489,-1488,-297,-48,386,152,-270
1,5090307,420,-1365,-489,-1490,-299,-40,386,152,-270
1,5090320,424,-1366,-483,-1487,-301,-40,386,152,-270
1,5090332,424,-1366,-483,-1487,-301,-40,381,159,-267
1,5090343,424,-1365,-489,-1485,-301,-50,381,159,-267
1,5090357,424,-1365,-489,-1485,-301,-50,381,159,-267
1,5090368,423,-1365,-490,-1486,-302,-47,381,159,-267
1,5090381,425,-1364,-492,-1472,-298,-41,381,159,-267
1,5090393,425,-1364,-492,-1472,-298,-41,381,159,-267
1,5090405,426,-1365,-488,-1484,-300,-39,381,159,-267
1,5090420,424,-1364,-490,-1487,-300,-40,381,159,-267
1,5090434,424,-1364,-490,-1487,-300,-40,381,159,-267
1,5090444,424,-1365,-489,-1489,-305,-35,381,159,-267
1,5090456,424,-1365,-489,-1489,-305,-35,381,159,-267
1,5090471,422,-1367,-486,-1484,-300,-37,382,156,-280
1,5090484,422,-1366,-490,-1485,-305,-37,382,156,-280
1,5090494,422,-1366,-490,-1485,-305,-37,382,156,-280
1,5090502,422,-1366,-490,-1485,-305,-37,382,156,-280
1,5090510,422,-1366,-490,-1485,-305,-37,382,156,-280
1,5090519,422,-1366,-490,-1485,-305,-37,382,156,-280
1,5090529,425,-1365,-489,-1482,-303,-38,382,156,-280
1,5090541,423,-1365,-489,-1483,-299,-40,382,156,-280
1,5090550,423,-1365,-489,-1483,-299,-40,382,156,-280
1,5090560,423,-1365,-489,-1483,-299,-40,382,156,-280
1,5090568,424,-1365,-489,-1479,-300,-37,382,156,-280
1,5090578,424,-1365,-489,-1479,-300,-37,382,156,-280
1,5090588,426,-1366,-485,-1484,-299,-32,382,152,-272
1,5090601,426,-1365,-486,-1479,-302,-40,382,152,-272
1,5090612,426,-1365,-486,-1479,-302,-40,382,152,-272
1,5090623,424,-1367,-489,-1482,-301,-40,382,152,-272
1,5090637,424,-1367,-489,-1482,-301,-40,382,152,-272
1,5090651,425,-1365,-489,-1485,-297,-35,382,152,-272
1,5090661,425,-1367,-490,-1487,-295,-36,382,152,-272
1,5090674,425,-1367,-490,-1487,-295,-36,382,152,-272
1,5090688,424,-1366,-492,-1492,-296,-38,382,152,-272
1,5090701,424,-1363,-487,-1492,-301,-41,383,155,-273
1,5090711,424,-1363,-487,-1492,-301,-41,383,155,-273
1,5090724,423,-1366,-485,-1486,-305,-40,383,155,-273
1,5090738,423,-1366,-485,-1486,-305,-40,383,155,-273
1,5090750,425,-1366,-485,-1492,-297,-38,383,155,-273
1,5090761,425,-1363,-485,-1483,-302,-35,383,155,-273
1,5090772,425,-1363,-485,-1483,-302,-35,383,155,-273
1,5090779,425,-1363,-485,-1483,-302,-35,383,155,-273
1,5090784,425,-1362,-490,-1483,-299,-39,383,155,-273
1,5090789,425,-1362,-490,-1483,-299,-39,383,155,-273
1,5090794,425,-1362,-490,-1483,-299,-39,383,155,-273
1,5090799,425,-1362,-490,-1483,-299,-39,383,155,-273
1,5090806,424,-1364,-492,-1479,-300,-42,383,155,-273
1,5090813,424,-1364,-492,-1479,-300,-42,383,155,-273
1,5090822,422,-1366,-486,-1481,-295,-37,383,155,-275
1,5090827,422,-1366,-486,-1481,-295,-37,383,155,-275
1,5090835,422,-1366,-486,-1481,-295,-37,383,155,-275
1,5090842,424,-1366,-489,-1484,-299,-40,383,155,-275
1,5090850,424,-1366,-489,-1484,-299,-40,383,155,-275
1,5090856,424,-1366,-489,-1484,-299,-40,383,155,-275
1,5090864,421,-1363,-489,-1481,-300,-41,383,155,-275
1,5090871,421,-1363,-489,-1481,-300,-41,383,155,-275
1,5090878,421,-1363,-489,-1481,-300,-41,383,155,-275
1,5090885,425,-1365,-489,-1478,-304,-36,383,155,-275
1,5090892,425,-1365,-489,-1478,-304,-36,383,155,-275
1,5090900,425,-1365,-491,-1483,-305,-32,383,155,-275
1,5090908,425,-1365,-491,-1483,-305,-32,383,155,-275
1,5090915,425,-1365,-491,-1483,-305,-32,383,155,-275
1,5090922,424,-1364,-491,-1485,-307,-39,383,155,-275
1,5090928,424,-1364,-491,-1485,-307,-39,383,155,-275
1,5090935,424,-1364,-491,-1485,-307,-39,383,155,-275
1,5090941,425,-1364,-493,-1485,-300,-42,384,152,-276
1,5090950,425,-1364,-493,-1485,-300,-42,384,152,-276
1,5090957,425,-1364,-493,-1485,-300,-42,384,152,-276
1,5090964,427,-1365,-485,-1486,-298,-40,384,152,-276
1,5090970,427,-1365,-485,-1486,-298,-40,384,152,-276
1,5090977,427,-1365,-485,-1486,-298,-40,384,152,-276
1,5090984,426,-1366,-482,-1483,-300,-44,384,152,-276
1,5090992,426,-1366,-482,-1483,-300,-44,384,152,-276
1,5090998,426,-1366,-482,-1483,-300,-44,384,152,-276
1,5091005,425,-1364,-487,-1482,-295,-45,384,152,-276
1,5091013,425,-1364,-487,-1482,-295,-45,384,152,-276
1,5091019,425,-1364,-487,-1482,-295,-45,384,152,-276
1,5091026,425,-1365,-496,-1476,-300,-52,384,152,-276
1,5091034,425,-1365,-496,-1476,-300,-52,384,152,-276
1,5091042,424,-1364,-490,-1484,-302,-34,384,152,-276
1,5091048,424,-1364,-490,-1484,-302,-34,384,152,-276
1,5091056,424,-1364,-490,-1484,-302,-34,384,152,-276
1,5091061,424,-1364,-493,-1487,-301,-39,384,152,-276
1,5091069,424,-1364,-493,-1487,-301,-39,384,152,-276
1,5091077,424,-1364,-493,-1487,-301,-39,384,152,-276
1,5091084,424,-1365,-485,-1484,-298,-41,381,155,-269
1,5091090,424,-1365,-485,-1484,-298,-41,381,155,-269
1,5091098,424,-1365,-485,-1484,-298,-41,381,155,-269
1,5091104,423,-1365,-487,-1480,-300,-37,381,155,-269
1,5091111,423,-1365,-487,-1480,-300,-37,381,155,-269
1,5091120,423,-1365,-487,-1480,-300,-37,381,155,-269
1,5091126,423,-1363,-493,-1489,-300,-40,381,155,-269
1,5091132,423,-1363,-493,-1489,-300,-40,381,155,-269
1,5091140,422,-1364,-491,-1481,-303,-36,381,155,-269
1,5091147,422,-1364,-491,-1481,-303,-36,381,155,-269
1,5091154,422,-1364,-491,-1481,-303,-36,381,155,-269
1,5091162,421,-1363,-489,-1477,-295,-40,381,155,-269
1,5091169,421,-1363,-489,-1477,-295,-40,381,155,-269
1,5091177,421,-1363,-489,-1477,-295,-40,381,155,-269
1,5091184,424,-1363,-491,-1477,-299,-42,381,155,-269
1,5091191,424,-1363,-491,-1477,-299,-42,381,155,-269
1,5091198,424,-1363,-491,-1477,-299,-42,381,155,-269
1,5091206,423,-1365,-487,-1485,-301,-39,381,161,-277
1,5091212,423,-1365,-487,-1485,-301,-39,381,161,-277
1,5091220,423,-1362,-489,-1487,-303,-33,381,161,-277
1,5091227,423,-1362,-489,-1487,-303,-33,381,161,-277
1,5091232,423,-1362,-489,-1487,-303,-33,381,161,-277
1,5091237,423,-1362,-489,-1487,-303,-33,381,161,-277
1,5091244,424,-1367,-487,-1485,-297,-27,381,161,-277
1,5091249,424,-1367,-487,-1485,-297,-27,381,161,-277
1,5091257,424,-1367,-487,-1485,-297,-27,381,161,-277
1,5091262,422,-1366,-492,-1483,-298,-41,381,161,-277
1,5091270,422,-1366,-492,-1483,-298,-41,381,161,-277
1,5091277,422,-1366,-492,-1483,-298,-41,381,161,-277
1,5091284,423,-1362,-492,-1488,-300,-42,381,161,-277
1,5091292,423,-1362,-492,-1488,-300,-42,381,161,-277
1,5091297,423,-1362,-492,-1488,-300,-42,381,161,-277
1,5091303,425,-1366,-490,-1487,-303,-34,381,161,-277
1,5091310,425,-1366,-490,-1487,-303,-34,381,161,-277
1,5091318,425,-1366,-490,-1487,-303,-34,381,161,-277
1,5091324,424,-1365,-488,-1487,-295,-42,380,148,-270
1,5091330,424,-1365,-488,-1487,-295,-42,380,148,-270
1,5091338,424,-1365,-488,-1487,-295,-42,380,148,-270
1,5091346,425,-1363,-488,-1490,-299,-42,380,148,-270
1,5091353,425,-1363,-488,-1490,-299,-42,380,148,-270
1,5091360,422,-1364,-494,-1481,-298,-44,380,148,-270
1,5091366,422,-1364,-494,-1481,-298,-44,380,148,-270
1,5091374,422,-1364,-494,-1481,-298,-44,380,148,-270
1,5091380,422,-1364,-494,-1481,-298,-44,380,148,-270
1,5091388,422,-1364,-494,-1481,-298,-44,380,148,-270
1,5091395,422,-1364,-494,-1481,-298,-44,380,148,-270
1,5091403,425,-1364,-489,-1485,-301,-39,380,148,-270
1,5091409,425,-1364,-489,-1485,-301,-39,380,148,-270
1,5091416,425,-1364,-489,-1485,-301,-39,380,148,-270
1,5091424,422,-1364,-489,-1490,-301,-33,380,148,-270
1,5091430,422,-1364,-489,-1490,-301,-33,380,148,-270
1,5091437,422,-1364,-489,-1490,-301,-33,380,148,-270
1,5091445,422,-1364,-491,-1490,-295,-38,384,152,-268
1,5091452,422,-1364,-491,-1490,-295,-38,384,152,-268
1,5091459,422,-1364,-491,-1490,-295,-38,384,152,-268
1,5091464,426,-1364,-489,-1480,-304,-35,384,152,-268
1,5091471,426,-1364,-489,-1480,-304,-35,384,152,-268
1,5091479,426,-1364,-489,-1480,-304,-35,384,152,-268
1,5091487,424,-1365,-492,-1484,-297,-35,384,152,-268
1,5091492,424,-1365,-492,-1484,-297,-35,384,152,-268
1,5091497,424,-1365,-492,-1484,-297,-35,384,152,-268
1,5091503,422,-1365,-490,-1484,-305,-34,384,152,-268
1,5091508,422,-1365,-490,-1484,-305,-34,384,152,-268
1,5091514,422,-1365,-490,-1484,-305,-34,384,152,-268
1,5091518,422,-1365,-490,-1484,-305,-34,384,152,-268
1,5091523,424,-1363,-487,-1489,-303,-40,384,152,-268
1,5091530,424,-1363,-487,-1489,-303,-40,384,152,-268
1,5091537,424,-1363,-487,-1489,-303,-40,384,152,-268
1,5091547,423,-1364,-489,-1486,-306,-36,384,152,-268
1,5091554,423,-1364,-489,-1486,-306,-36,384,152,-268
1,5091561,427,-1364,-489,-1479,-302,-39,384,152,-268
1,5091568,427,-1364,-489,-1479,-302,-39,384,152,-268
1,5091574,427,-1364,-489,-1479,-302,-39,384,152,-268
1,5091581,427,-1364,-489,-1479,-302,-39,386,154,-274
1,5091589,427,-1364,-489,-1479,-302,-39,386,154,-274
1,5091595,427,-1364,-489,-1479,-302,-39,386,154,-274
1,5091601,422,-1366,-488,-1486,-300,-40,386,154,-274
1,5091608,422,-1366,-488,-1486,-300,-40,386,154,-274
1,5091616,422,-1366,-488,-1486,-300,-40,386,154,-274
1,5091622,422,-1367,-487,-1491,-300,-44,386,154,-274
1,5091629,422,-1367,-487,-1491,-300,-44,386,154,-274
1,5091636,422,-1367,-487,-1491,-300,-44,386,154,-274
1,5091643,422,-1367,-490,-1489,-303,-41,386,154,-274
1,5091648,422,-1367,-490,-1489,-303,-41,386,154,-274
1,5091655,422,-1367,-490,-1489,-303,-41,386,154,-274
1,5091662,424,-1364,-494,-1487,-299,-41,386,154,-274
1,5091670,424,-1364,-494,-1487,-299,-41,386,154,-274
1,5091677,424,-1364,-494,-1487,-299,-41,386,154,-274
1,5091682,423,-1362,-493,-1487,-299,-39,386,154,-274
1,5091689,423,-1362,-493,-1487,-299,-39,386,154,-274
1,5091697,423,-1362,-493,-1487,-299,-39,386,154,-274
1,5091704,425,-1366,-488,-1483,-298,-39,381,153,-273
1,5091713,425,-1366,-488,-1483,-298,-39,381,153,-273
1,5091719,425,-1366,-488,-1483,-298,-39,381,153,-273
1,5091725,422,-1366,-489,-1486,-299,-39,381,153,-273
1,5091733,422,-1366,-489,-1486,-299,-39,381,153,-273
1,5091739,422,-1366,-489,-1486,-299,-39,381,153,-273
1,5091745,422,-1365,-491,-1483,-308,-36,381,153,-273
1,5091752,422,-1365,-491,-1483,-308,-36,381,153,-273
1,5091760,422,-1365,-491,-1483,-308,-36,381,153,-273
1,5091765,426,-1365,-495,-1484,-304,-45,381,153,-273
1,5091773,426,-1365,-495,-1484,-304,-45,381,153,-273
1,5091785,425,-1365,-489,-1485,-300,-46,381,153,-273
1,5091793,425,-1365,-489,-1485,-300,-46,381,153,-273
1,5091803,424,-1364,-490,-1482,-302,-43,381,153,-273
1,5091811,424,-1364,-490,-1482,-302,-43,381,153,-273
1,5091819,424,-1364,-490,-1482,-302,-43,381,153,-273
1,5091827,420,-1364,-487,-1485,-301,-41,382,152,-276
1,5091835,420,-1364,-487,-1485,-301,-41,382,152,-276
1,5091843,424,-1365,-491,-1479,-301,-41,382,152,-276
1,5091852,424,-1365,-491,-1479,-301,-41,382,152,-276
1,5091862,427,-1364,-492,-1481,-301,-41,382,152,-276
1,5091870,427,-1364,-492,-1481,-301,-41,382,152,-276
1,5091881,421,-1364,-490,-1481,-300,-39,382,152,-276
1,5091894,421,-1364,-490,-1481,-300,-39,382,152,-276
1,5091906,424,-1365,-491,-1484,-298,-46,382,152,-276
1,5091918,424,-1365,-491,-1484,-298,-46,382,152,-276
1,5091932,424,-1362,-490,-1492,-295,-43,382,152,-276
1,5091945,424,-1363,-487,-1484,-300,-37,389,165,-277
1,5091954,424,-1363,-487,-1484,-300,-37,389,165,-277
1,5091965,424,-1363,-484,-1487,-307,-38,389,165,-277
1,5091981,424,-1364,-491,-1489,-305,-34,389,165,-277
1,5091992,424,-1364,-491,-1489,-305,-34,389,165,-277
1,5092001,425,-1366,-491,-1490,-307,-37,389,165,-277
1,5092012,425,-1366,-491,-1490,-307,-37,389,165,-277
1,5092025,423,-1365,-487,-1483,-305,-41,389,165,-277
1,5092038,423,-1365,-487,-1483,-305,-41,389,165,-277
1,5092050,423,-1365,-487,-1479,-293,-39,389,165,-277
1,5092064,425,-1367,-491,-1482,-300,-38,389,165,-277
1,5092078,425,-1367,-491,-1482,-300,-38,389,165,-277
1,5092090,424,-1365,-486,-1475,-308,-41,382,158,-278
1,5092102,428,-1364,-490,-1482,-300,-42,382,158,-278
1,5092115,428,-1364,-490,-1482,-300,-42,382,158,-278
1,5092127,425,-1365,-490,-1479,-299,-36,382,158,-278
1,5092140,425,-1365,-490,-1479,-299,-36,382,158,-278
1,5092152,423,-1365,-491,-1484,-299,-38,382,158,-278
1,5092164,422,-1364,-494,-1492,-306,-36,382,158,-278
1,5092177,422,-1364,-494,-1492,-306,-36,382,158,-278
1,5092187,423,-1366,-490,-1482,-305,-39,382,158,-278
1,5092200,423,-1366,-490,-1482,-305,-39,382,158,-278
1,5092214,423,-1365,-493,-1481,-297,-37,378,156,-280
1,5092231,423,-1364,-489,-1492,-297,-42,378,156,-280
1,5092242,426,-1365,-486,-1488,-302,-37,378,156,-280
1,5092253,426,-1365,-486,-1488,-302,-37,378,156,-280
1,5092265,426,-1367,-491,-1483,-302,-38,378,156,-280
1,5092280,426,-1367,-491,-1483,-302,-38,378,156,-280
1,5092288,424,-1368,-488,-1484,-292,-34,378,156,-280
1,5092298,424,-1368,-488,-1484,-292,-34,378,156,-280
1,5092313,420,-1363,-487,-1481,-299,-38,378,156,-280
1,5092324,428,-1365,-487,-1484,-300,-34,383,161,-269
1,5092338,428,-1365,-487,-1484,-300,-34,383,161,-269
1,5092352,426,-1367,-490,-1481,-299,-29,383,161,-269
1,5092365,424,-1365,-494,-1478,-295,-33,383,161,-269
1,5092378,424,-1365,-494,-1478,-295,-33,383,161,-269
1,5092390,426,-1364,-495,-1481,-302,-40,383,161,-269
1,5092403,424,-1365,-493,-1483,-297,-37,383,161,-269
1,5092414,424,-1365,-493,-1483,-297,-37,383,161,-269
1,5092423,428,-1367,-490,-1484,-299,-34,383,161,-269
1,5092431,428,-1367,-490,-1484,-299,-34,383,161,-269
1,5092440,428,-1367,-490,-1484,-299,-34,383,161,-269
1,5092448,422,-1367,-489,-1487,-303,-31,386,150,-266
1,5092456,422,-1367,-489,-1487,-303,-31,386,150,-266
1,5092464,425,-1362,-489,-1483,-301,-38,386,150,-266
1,5092473,425,-1362,-489,-1483,-301,-38,386,150,-266
1,5092483,428,-1366,-489,-1479,-305,-40,386,150,-266
1,5092492,428,-1366,-489,-1479,-305,-40,386,150,-266
1,5092500,428,-1366,-489,-1479,-305,-40,386,150,-266
1,5092507,423,-1363,-489,-1482,-300,-41,386,150,-266
1,5092515,423,-1363,-489,-1482,-300,-41,386,150,-266
1,5092526,426,-1364,-488,-1487,-301,-38,386,150,-266
1,5092536,426,-1364,-488,-1487,-301,-38,386,150,-266
1,5092545,423,-1364,-492,-1482,-301,-41,386,150,-266
1,5092554,423,-1364,-492,-1482,-301,-41,386,150,-266
1,5092564,421,-1366,-486,-1488,-306,-40,382,154,-270
1,5092578,421,-1366,-486,-1488,-306,-40,382,154,-270
1,5092592,423,-1360,-487,-1484,-303,-39,382,154,-270
1,5092603,425,-1363,-487,-1480,-304,-33,382,154,-270
1,5092617,425,-1363,-487,-1480,-304,-33,382,154,-270
1,5092628,423,-1367,-495,-1480,-296,-44,382,154,-270
1,5092640,425,-1364,-486,-1482,-301,-37,382,154,-270
1,5092653,425,-1364,-486,-1482,-301,-37,382,154,-270
1,5092669,421,-1364,-493,-1482,-302,-41,382,154,-270
1,5092680,421,-1364,-493,-1482,-302,-41,382,154,-270
1,5092694,421,-1364,-493,-1482,-302,-41,382,154,-270
1,5092707,425,-1365,-486,-1477,-297,-38,388,146,-276
1,5092720,425,-1365,-486,-1477,-297,-38,388,146,-276
1,5092733,428,-1364,-486,-1486,-296,-40,388,146,-276
1,5092748,425,-1364,-492,-1490,-300,-40,388,146,-276
1,5092760,425,-1364,-492,-1490,-300,-40,388,146,-276
1,5092772,424,-1364,-496,-1486,-298,-44,388,146,-276
1,5092784,422,-1366,-495,-1483,-306,-42,388,146,-276
1,5092789,422,-1366,-495,-1483,-306,-42,388,146,-276
1,5092795,422,-1366,-495,-1483,-306,-42,388,146,-276
1,5092802,423,-1364,-491,-1482,-298,-40,388,146,-276
1,5092809,423,-1364,-491,-1482,-298,-40,388,146,-276
1,5092816,423,-1364,-491,-1482,-298,-40,388,146,-276
1,5092823,424,-1367,-491,-1484,-297,-37,376,160,-272
1,5092829,424,-1367,-491,-1484,-297,-37,376,160,-272
1,5092836,424,-1367,-491,-1484,-297,-37,376,160,-272
1,5092843,424,-1367,-491,-1485,-301,-39,376,160,-272
1,5092849,424,-1367,-491,-1485,-301,-39,376,160,-272
1,5092856,424,-1367,-491,-1485,-301,-39,376,160,-272
1,5092864,424,-1365,-488,-1485,-301,-38,376,160,-272
1,5092871,424,-1365,-488,-1485,-301,-38,376,160,-272
1,5092878,424,-1365,-488,-1485,-301,-38,376,160,-272
1,5092886,425,-1367,-488,-1487,-305,-42,376,160,-272
1,5092895,425,-1367,-488,-1487,-305,-42,376,160,-272
1,5092902,426,-1366,-490,-1487,-306,-40,376,160,-272
1,5092910,426,-1366,-490,-1487,-306,-40,376,160,-272
1,5092917,426,-1366,-490,-1487,-306,-40,376,160,-272
1,5092925,426,-1361,-493,-1480,-299,-43,376,160,-272
1,5092932,426,-1361,-493,-1480,-299,-43,376,160,-272
1,5092937,426,-1361,-493,-1480,-299,-43,376,160,-272
1,5092943,427,-1366,-487,-1481,-296,-48,381,157,-277
1,5092948,427,-1366,-487,-1481,-296,-48,381,157,-277
1,5092954,427,-1366,-487,-1481,-296,-48,381,157,-277
1,5092960,427,-1366,-487,-1481,-296,-48,381,157,-277
1,5092968,424,-1364,-487,-1480,-296,-42,381,157,-277
1,5092974,424,-1364,-487,-1480,-296,-42,381,157,-277
1,5092980,424,-1364,-487,-1480,-296,-42,381,157,-277
1,5092988,425,-1364,-492,-1490,-302,-43,381,157,-277
1,5092996,425,-1364,-492,-1490,-302,-43,381,157,-277
1,5093001,426,-1364,-493,-1489,-308,-42,381,157,-277
1,5093008,426,-1364,-493,-1489,-308,-42,381,157,-277
1,5093016,426,-1364,-493,-1489,-308,-42,381,157,-277
1,5093023,425,-1366,-489,-1485,-307,-42,381,157,-277
1,5093031,425,-1366,-489,-1485,-307,-42,381,157,-277
1,5093038,425,-1366,-489,-1485,-307,-42,381,157,-277
1,5093044,428,-1368,-491,-1480,-301,-39,381,157,-277
1,5093052,428,-1368,-491,-1480,-301,-39,381,157,-277
1,5093059,428,-1368,-491,-1480,-301,-39,381,157,-277
1,5093065,424,-1366,-489,-1481,-305,-37,385,151,-267
1,5093072,424,-1366,-489,-1481,-305,-37,385,151,-267
1,5093080,424,-1366,-489,-1481,-305,-37,385,151,-267
1,5093086,425,-1367,-487,-1486,-301,-40,385,151,-267
1,5093093,425,-1367,-487,-1486,-301,-40,385,151,-267
1,5093100,425,-1367,-487,-1486,-301,-40,385,151,-267
1,5093105,425,-1365,-494,-1484,-296,-29,385,151,-267
1,5093113,425,-1365,-494,-1484,-296,-29,385,151,-267
1,5093121,421,-1365,-492,-1490,-304,-34,385,151,-267
1,5093128,421,-1365,-492,-1490,-304,-34,385,151,-267
1,5093135,421,-1365,-492,-1490,-304,-34,385,151,-267
1,5093141,424,-1365,-486,-1477,-299,-43,385,151,-267
1,5093148,424,-1365,-486,-1477,-299,-43,385,151,-267
1,5093155,424,-1365,-486,-1477,-299,-43,385,151,-267
1,5093163,427,-1365,-484,-1481,-302,-41,385,151,-267
1,5093170,427,-1365,-484,-1481,-302,-41,385,151,-267
1,5093177,427,-1365,-484,-1481,-302,-41,385,151,-267
1,5093183,426,-1363,-491,-1479,-298,-36,385,151,-267
1,5093191,426,-1363,-491,-1479,-298,-36,385,151,-267
1,5093198,426,-1363,-491,-1479,-298,-36,385,151,-267
1,5093204,425,-1366,-488,-1485,-298,-37,379,153,-275
1,5093211,425,-1366,-488,-1485,-298,-37,379,153,-275
1,5093218,425,-1366,-488,-1485,-298,-37,379,153,-275
1,5093223,425,-1362,-491,-1490,-302,-38,379,153,-275
1,5093231,425,-1362,-491,-1490,-302,-38,379,153,-275
1,5093238,425,-1362,-491,-1490,-302,-38,379,153,-275
1,5093245,425,-1362,-492,-1486,-303,-32,379,153,-275
1,5093252,425,-1362,-492,-1486,-303,-32,379,153,-275
1,5093259,425,-1362,-492,-1486,-303,-32,379,153,-275
1,5093265,423,-1364,-495,-1484,-303,-43,379,153,-275
1,5093272,423,-1364,-495,-1484,-303,-43,379,153,-275
1,5093280,423,-1364,-495,-1484,-303,-43,379,153,-275
1,5093286,426,-1365,-490,-1487,-304,-39,379,153,-275
1,5093295,426,-1365,-490,-1487,-304,-39,379,153,-275
1,5093301,424,-1365,-489,-1489,-306,-44,379,153,-275
1,5093307,424,-1365,-489,-1489,-306,-44,379,153,-275
1,5093312,424,-1365,-489,-1489,-306,-44,379,153,-275
1,5093320,424,-1365,-489,-1489,-306,-44,379,153,-275
1,5093327,424,-1360,-491,-1487,-305,-44,383,157,-273
1,5093335,424,-1360,-491,-1487,-305,-44,383,157,-273
1,5093343,428,-1365,-489,-1488,-301,-41,383,157,-273
1,5093350,428,-1365,-489,-1488,-301,-41,383,157,-273
1,5093357,428,-1365,-489,-1488,-301,-41,383,157,-273
1,5093362,421,-1366,-489,-1495,-306,-40,383,157,-273
1,5093369,421,-1366,-489,-1495,-306,-40,383,157,-273
1,5093377,421,-1366,-489,-1495,-306,-40,383,157,-273
1,5093385,426,-1363,-494,-1491,-305,-42,383,157,-273
1,5093390,426,-1363,-494,-1491,-305,-42,383,157,-273
1,5093398,426,-1363,-494,-1491,-305,-42,383,157,-273
1,5093405,424,-1367,-489,-1484,-304,-40,383,157,-273
1,5093410,424,-1367,-489,-1484,-304,-40,383,157,-273
1,5093416,424,-1367,-489,-1484,-304,-40,383,157,-273
1,5093423,427,-1364,-488,-1485,-304,-38,383,157,-273
1,5093431,427,-1364,-488,-1485,-304,-38,383,157,-273
1,5093438,427,-1364,-488,-1485,-304,-38,383,157,-273
1,5093444,425,-1365,-484,-1487,-302,-42,381,149,-267
1,5093450,425,-1365,-484,-1487,-302,-42,381,149,-267
1,5093455,425,-1365,-484,-1487,-302,-42,381,149,-267
1,5093460,427,-1364,-491,-1485,-304,-45,381,149,-267
1,5093466,427,-1364,-491,-1485,-304,-45,381,149,-267
1,5093473,427,-1364,-491,-1485,-304,-45,381,149,-267
1,5093480,427,-1364,-491,-1485,-304,-45,381,149,-267
1,5093486,425,-1367,-494,-1490,-299,-46,381,149,-267
1,5093491,425,-1367,-494,-1490,-299,-46,381,149,-267
1,5093496,425,-1367,-494,-1490,-299,-46,381,149,-267
1,5093501,425,-1365,-493,-1484,-300,-40,381,149,-267
1,5093507,425,-1365,-493,-1484,-300,-40,381,149,-267
1,5093512,425,-1365,-493,-1484,-300,-40,381,149,-267
1,5093517,425,-1365,-493,-1484,-300,-40,381,149,-267
1,5093524,422,-1364,-490,-1483,-301,-41,381,149,-267
1,5093531,422,-1364,-490,-1483,-301,-41,381,149,-267
1,5093538,422,-1364,-490,-1483,-301,-41,381,149,-267
1,5093544,425,-1365,-490,-1478,-295,-38,381,149,-267
1,5093553,425,-1365,-490,-1478,-295,-38,381,149,-267
1,5093560,425,-1365,-490,-1478,-295,-38,381,149,-267
1,5093566,426,-1365,-488,-1481,-301,-39,381,153,-273
1,5093572,426,-1365,-488,-1481,-301,-39,381,153,-273
1,5093577,426,-1365,-488,-1481,-301,-39,381,153,-273
1,5093584,422,-1366,-488,-1481,-301,-37,381,153,-273
1,5093591,422,-1366,-488,-1481,-301,-37,381,153,-273
1,5093599,422,-1366,-488,-1481,-301,-37,381,153,-273
1,5093606,425,-1366,-491,-1475,-304,-38,381,153,-273
1,5093612,425,-1366,-491,-1475,-304,-38,381,153,-273
1,5093619,425,-1366,-491,-1475,-304,-38,381,153,-273
1,5093626,422,-1365,-490,-1485,-300,-36,381,153,-273
1,5093635,422,-1365,-490,-1485,-300,-36,381,153,-273
1,5093642,423,-1365,-487,-1484,-297,-45,381,153,-273
1,5093650,423,-1365,-487,-1484,-297,-45,381,153,-273
1,5093657,423,-1365,-487,-1484,-297,-45,381,153,-273
1,5093665,424,-1363,-491,-1483,-296,-38,381,153,-273
1,5093672,424,-1363,-491,-1483,-296,-38,381,153,-273
1,5093678,424,-1363,-491,-1483,-296,-38,381,153,-273
1,5093685,424,-1365,-493,-1488,-300,-39,381,153,-273
1,5093693,424,-1365,-493,-1488,-300,-39,381,153,-273
1,5093700,424,-1365,-493,-1488,-300,-39,381,153,-273
1,5093706,425,-1363,-488,-1490,-299,-36,381,153,-273
1,5093711,425,-1363,-488,-1490,-299,-36,381,153,-273
1,5093718,425,-1363,-488,-1490,-299,-36,381,153,-273
1,5093725,424,-1364,-489,-1483,-303,-34,381,153,-273
1,5093734,424,-1364,-489,-1483,-303,-34,381,153,-273
1,5093741,421,-1364,-487,-1487,-302,-44,381,153,-273
1,5093748,421,-1364,-487,-1487,-302,-44,381,153,-273
1,5093755,421,-1364,-487,-1487,-302,-44,381,153,-273
1,5093763,422,-1365,-488,-1486,-305,-42,381,153,-273
1,5093770,422,-1365,-488,-1486,-305,-42,381,153,-273
1,5093776,422,-1365,-488,-1486,-305,-42,381,153,-273
1,5093783,424,-1364,-498,-1488,-299,-41,381,153,-273
1,5093789,424,-1364,-498,-1488,-299,-41,381,153,-273
1,5093797,424,-1364,-498,-1488,-299,-41,381,153,-273
1,5093806,421,-1367,-493,-1488,-293,-38,381,153,-273
1,5093814,421,-1367,-493,-1488,-293,-38,381,153,-273
1,5093823,427,-1365,-483,-1482,-305,-42,384,148,-280
1,5093831,427,-1365,-483,-1482,-305,-42,384,148,-280
1,5093843,426,-1367,-485,-1481,-301,-38,384,148,-280
1,5093857,426,-1367,-485,-1481,-301,-38,384,148,-280
1,5093868,423,-1362,-487,-1489,-306,-38,384,148,-280
1,5093882,425,-1366,-489,-1484,-294,-50,384,148,-280
1,5093895,425,-1366,-489,-1484,-294,-50,384,148,-280
1,5093908,425,-1367,-487,-1484,-300,-43,384,148,-280
1,5093920,425,-1367,-487,-1484,-300,-43,384,148,-280
1,5093931,426,-1364,-488,-1489,-296,-46,384,148,-280
1,5093943,424,-1366,-485,-1477,-296,-41,382,148,-276
1,5093956,424,-1366,-485,-1477,-296,-41,382,148,-276
1,5093966,423,-1363,-492,-1480,-300,-41,382,148,-276
1,5093974,423,-1363,-492,-1480,-300,-41,382,148,-276
1,5093982,426,-1364,-488,-1481,-299,-41,382,148,-276
