imu,time,ax,ay,az,gx,gy,gz,mx,my,mz
1,7067121,436,-1325,-920,-1492,-295,-40,422,42,-104
1,7067126,436,-1325,-920,-1492,-295,-40,422,42,-104
1,7067132,436,-1325,-920,-1492,-295,-40,422,42,-104
1,7067137,440,-1326,-914,-1484,-303,-41,422,42,-104
1,7067142,440,-1326,-914,-1484,-303,-41,422,42,-104
1,7067147,440,-1326,-914,-1484,-303,-41,422,42,-104
1,7067152,438,-1324,-917,-1484,-304,-41,422,42,-104
1,7067158,438,-1324,-917,-1484,-304,-41,422,42,-104
1,7067163,438,-1324,-917,-1484,-304,-41,422,42,-104
1,7067168,438,-1324,-917,-1484,-304,-41,422,42,-104
1,7067173,443,-1324,-916,-1483,-302,-40,422,42,-104
1,7067179,443,-1324,-916,-1483,-302,-40,422,42,-104
1,7067184,443,-1324,-916,-1483,-302,-40,422,42,-104
1,7067189,443,-1324,-916,-1483,-302,-40,422,42,-104
1,7067195,443,-1322,-917,-1486,-298,-40,422,42,-104
1,7067200,443,-1322,-917,-1486,-298,-40,422,42,-104
1,7067205,443,-1322,-917,-1486,-298,-40,422,42,-104
1,7067211,443,-1322,-917,-1486,-298,-40,422,42,-104
1,7067216,437,-1322,-917,-1484,-303,-38,439,31,-105
1,7067224,437,-1322,-917,-1484,-303,-38,439,31,-105
1,7067231,437,-1322,-917,-1484,-303,-38,439,31,-105
1,7067236,440,-1322,-915,-1488,-308,-43,439,31,-105
1,7067244,440,-1322,-915,-1488,-308,-43,439,31,-105
1,7067251,440,-1322,-915,-1488,-308,-43,439,31,-105
1,7067259,440,-1325,-919,-1481,-299,-47,439,31,-105
1,7067268,440,-1325,-919,-1481,-299,-47,439,31,-105
1,7067277,442,-1325,-916,-1487,-302,-42,439,31,-105
1,7067284,442,-1325,-916,-1487,-302,-42,439,31,-105
1,7067292,442,-1325,-916,-1487,-302,-42,439,31,-105
1,7067299,442,-1324,-919,-1485,-298,-42,439,31,-105
1,7067307,442,-1324,-919,-1485,-298,-42,439,31,-105
1,7067314,441,-1326,-919,-1480,-297,-41,439,31,-105
1,7067320,441,-1326,-919,-1480,-297,-41,439,31,-105
1,7067328,441,-1326,-919,-1480,-297,-41,439,31,-105
1,7067335,444,-1321,-915,-1487,-299,-41,424,26,-112
1,7067343,444,-1321,-915,-1487,-299,-41,424,26,-112
1,7067350,444,-1321,-915,-1487,-299,-41,424,26,-112
1,7067355,441,-1321,-913,-1487,-297,-39,424,26,-112
1,7067362,441,-1321,-913,-1487,-297,-39,424,26,-112
1,7067368,441,-1321,-913,-1487,-297,-39,424,26,-112
1,7067375,440,-1326,-913,-1484,-298,-37,424,26,-112
1,7067383,440,-1326,-913,-1484,-298,-37,424,26,-112
1,7067390,440,-1326,-913,-1484,-298,-37,424,26,-112
1,7067398,439,-1324,-911,-1484,-300,-44,424,26,-112
1,7067404,439,-1324,-911,-1484,-300,-44,424,26,-112
1,7067409,439,-1324,-911,-1484,-300,-44,424,26,-112
1,7067414,441,-1325,-921,-1485,-297,-47,424,26,-112
1,7067419,441,-1325,-921,-1485,-297,-47,424,26,-112
1,7067425,441,-1325,-921,-1485,-297,-47,424,26,-112
1,7067430,441,-1325,-921,-1485,-297,-47,424,26,-112
1,7067436,441,-1325,-917,-1492,-296,-48,424,26,-112
1,7067441,441,-1325,-917,-1492,-296,-48,424,26,-112
1,7067446,441,-1325,-917,-1492,-296,-48,424,26,-112
1,7067453,442,-1326,-920,-1492,-309,-40,424,26,-112
1,7067460,442,-1326,-920,-1492,-309,-40,424,26,-112
1,7067469,442,-1326,-920,-1492,-309,-40,424,26,-112
1,7067478,441,-1324,-913,-1489,-303,-42,429,31,-107
1,7067486,441,-1324,-913,-1489,-303,-42,429,31,-107
1,7067493,439,-1322,-923,-1489,-301,-39,429,31,-107
1,7067501,439,-1322,-923,-1489,-301,-39,429,31,-107
1,7067507,439,-1322,-923,-1489,-301,-39,429,31,-107
1,7067514,445,-1325,-912,-1478,-299,-40,429,31,-107
1,7067521,445,-1325,-912,-1478,-299,-40,429,31,-107
1,7067529,445,-1325,-912,-1478,-299,-40,429,31,-107
1,7067536,440,-1326,-919,-1485,-301,-40,429,31,-107
1,7067543,440,-1326,-919,-1485,-301,-40,429,31,-107
1,7067551,440,-1326,-919,-1485,-301,-40,429,31,-107
1,7067556,439,-1322,-918,-1489,-302,-38,429,31,-107
1,7067561,439,-1322,-918,-1489,-302,-38,429,31,-107
1,7067567,439,-1322,-918,-1489,-302,-38,429,31,-107
1,7067572,439,-1322,-918,-1489,-302,-38,429,31,-107
1,7067578,443,-1324,-909,-1485,-299,-39,429,31,-107
1,7067585,443,-1324,-909,-1485,-299,-39,429,31,-107
1,7067593,442,-1325,-915,-1487,-305,-38,425,37,-119
1,7067600,442,-1325,-915,-1487,-305,-38,425,37,-119
1,7067607,442,-1325,-915,-1487,-305,-38,425,37,-119
1,7067615,442,-1324,-919,-1484,-300,-48,425,37,-119
1,7067622,442,-1324,-919,-1484,-300,-48,425,37,-119
1,7067627,442,-1324,-919,-1484,-300,-48,425,37,-119
1,7067632,442,-1324,-919,-1484,-300,-48,425,37,-119
1,7067637,442,-1324,-912,-1481,-302,-35,425,37,-119
1,7067642,442,-1324,-912,-1481,-302,-35,425,37,-119
1,7067648,442,-1324,-912,-1481,-302,-35,425,37,-119
1,7067655,443,-1324,-915,-1481,-305,-37,425,37,-119
1,7067663,443,-1324,-915,-1481,-305,-37,425,37,-119
1,7067669,443,-1324,-915,-1481,-305,-37,425,37,-119
1,7067678,441,-1321,-918,-1491,-303,-39,425,37,-119
1,7067684,441,-1321,-918,-1491,-303,-39,425,37,-119
1,7067692,441,-1321,-918,-1491,-303,-39,425,37,-119
1,7067700,438,-1327,-917,-1488,-300,-42,425,37,-119
1,7067707,438,-1327,-917,-1488,-300,-42,425,37,-119
1,7067713,441,-1323,-915,-1491,-302,-41,428,38,-108
1,7067720,441,-1323,-915,-1491,-302,-41,428,38,-108
1,7067729,441,-1323,-915,-1491,-302,-41,428,38,-108
1,7067737,441,-1324,-913,-1488,-303,-43,428,38,-108
1,7067745,441,-1324,-913,-1488,-303,-43,428,38,-108
1,7067753,444,-1324,-917,-1481,-296,-39,428,38,-108
1,7067760,444,-1324,-917,-1481,-296,-39,428,38,-108
1,7067767,444,-1324,-917,-1481,-296,-39,428,38,-108
1,7067774,445,-1322,-913,-1485,-294,-37,428,38,-108
1,7067782,445,-1322,-913,-1485,-294,-37,428,38,-108
1,7067789,445,-1322,-913,-1485,-294,-37,428,38,-108
1,7067796,441,-1325,-919,-1488,-300,-40,428,38,-108
1,7067802,441,-1325,-919,-1488,-300,-40,428,38,-108
1,7067809,441,-1325,-919,-1488,-300,-40,428,38,-108
1,7067816,440,-1323,-912,-1481,-307,-40,428,38,-108
1,7067825,440,-1323,-912,-1481,-307,-40,428,38,-108
1,7067831,440,-1323,-912,-1481,-307,-40,428,38,-108
1,7067843,439,-1325,-914,-1485,-306,-40,425,31,-113
1,7067855,441,-1327,-913,-1486,-300,-47,425,31,-113
1,7067869,441,-1327,-913,-1486,-300,-47,425,31,-113
1,7067882,441,-1327,-913,-1486,-300,-47,425,31,-113
1,7067895,441,-1324,-915,-1488,-301,-45,425,31,-113
1,7067908,441,-1324,-915,-1488,-301,-45,425,31,-113
1,7067918,444,-1323,-913,-1488,-306,-41,425,31,-113
1,7067926,444,-1323,-913,-1488,-306,-41,425,31,-113
1,7067938,437,-1327,-913,-1493,-305,-35,425,31,-113
1,7067952,437,-1327,-913,-1493,-305,-35,425,31,-113
1,7067965,441,-1324,-908,-1488,-309,-31,425,31,-113
1,7067975,443,-1326,-912,-1481,-300,-47,431,31,-103
1,7067987,443,-1326,-912,-1481,-300,-47,431,31,-103
1,7068003,441,-1326,-915,-1482,-301,-46,431,31,-103
1,7068017,444,-1325,-918,-1487,-297,-39,431,31,-103
1,7068026,444,-1325,-918,-1487,-297,-39,431,31,-103
1,7068039,438,-1324,-917,-1484,-298,-37,431,31,-103
1,7068052,438,-1324,-917,-1484,-298,-37,431,31,-103
1,7068066,443,-1327,-918,-1483,-301,-34,431,31,-103
1,7068077,443,-1327,-912,-1483,-306,-41,431,31,-103
1,7068089,443,-1327,-912,-1483,-306,-41,431,31,-103
1,7068102,442,-1328,-910,-1483,-302,-39,428,26,-120
1,7068111,442,-1328,-910,-1483,-302,-39,428,26,-120
1,7068121,441,-1324,-910,-1483,-300,-39,428,26,-120
1,7068129,441,-1324,-910,-1483,-300,-39,428,26,-120
1,7068139,438,-1326,-918,-1477,-306,-34,428,26,-120
1,7068147,438,-1326,-918,-1477,-306,-34,428,26,-120
1,7068155,443,-1325,-918,-1491,-310,-44,428,26,-120
1,7068163,443,-1325,-918,-1491,-310,-44,428,26,-120
1,7068176,447,-1322,-916,-1492,-297,-40,428,26,-120
1,7068184,447,-1322,-916,-1492,-297,-40,428,26,-120
1,7068192,447,-1322,-916,-1492,-297,-40,428,26,-120
1,7068201,444,-1325,-921,-1491,-302,-49,428,26,-120
1,7068210,444,-1325,-921,-1491,-302,-49,428,26,-120
1,7068219,445,-1323,-915,-1489,-302,-42,423,33,-113
1,7068227,445,-1323,-915,-1489,-302,-42,423,33,-113
1,7068236,443,-1326,-917,-1487,-298,-45,423,33,-113
1,7068244,443,-1326,-917,-1487,-298,-45,423,33,-113
1,7068252,443,-1326,-917,-1487,-298,-45,423,33,-113
1,7068260,439,-1324,-917,-1489,-300,-44,423,33,-113
1,7068269,439,-1324,-917,-1489,-300,-44,423,33,-113
1,7068278,439,-1327,-923,-1483,-304,-48,423,33,-113
1,7068286,439,-1327,-923,-1483,-304,-48,423,33,-113
1,7068295,441,-1325,-915,-1483,-303,-41,423,33,-113
1,7068304,441,-1325,-915,-1483,-303,-41,423,33,-113
1,7068315,440,-1326,-918,-1485,-302,-43,423,33,-113
1,7068324,440,-1326,-918,-1485,-302,-43,423,33,-113
1,7068335,446,-1325,-916,-1485,-297,-38,416,34,-114
1,7068343,446,-1325,-916,-1485,-297,-38,416,34,-114
1,7068352,446,-1325,-916,-1485,-297,-38,416,34,-114
1,7068360,445,-1326,-910,-1489,-298,-49,416,34,-114
1,7068370,445,-1326,-910,-1489,-298,-49,416,34,-114
1,7068380,441,-1322,-916,-1484,-294,-43,416,34,-114
1,7068391,441,-1322,-916,-1484,-294,-43,416,34,-114
1,7068401,440,-1327,-920,-1487,-300,-44,416,34,-114
1,7068408,440,-1327,-920,-1487,-300,-44,416,34,-114
1,7068417,440,-1323,-917,-1488,-295,-43,416,34,-114
1,7068425,440,-1323,-917,-1488,-295,-43,416,34,-114
1,7068433,440,-1324,-920,-1483,-302,-38,416,34,-114
1,7068441,440,-1324,-920,-1483,-302,-38,416,34,-114
1,7068448,440,-1324,-920,-1483,-302,-38,416,34,-114
1,7068456,439,-1323,-916,-1481,-296,-40,426,36,-106
1,7068465,439,-1323,-916,-1481,-296,-40,426,36,-106
1,7068472,439,-1323,-916,-1481,-296,-40,426,36,-106
1,7068480,444,-1324,-912,-1489,-300,-46,426,36,-106
1,7068487,444,-1324,-912,-1489,-300,-46,426,36,-106
1,7068495,444,-1322,-917,-1488,-308,-41,426,36,-106
1,7068504,444,-1322,-917,-1488,-308,-41,426,36,-106
1,7068512,444,-1322,-917,-1488,-308,-41,426,36,-106
1,7068520,442,-1325,-915,-1488,-306,-41,426,36,-106
1,7068529,442,-1325,-915,-1488,-306,-41,426,36,-106
1,7068538,439,-1323,-917,-1490,-304,-44,426,36,-106
1,7068549,439,-1323,-917,-1490,-304,-44,426,36,-106
1,7068558,440,-1326,-919,-1485,-297,-45,426,36,-106
1,7068567,440,-1326,-919,-1485,-297,-45,426,36,-106
1,7068577,437,-1325,-918,-1484,-299,-42,426,36,-106
1,7068585,437,-1325,-918,-1484,-299,-42,426,36,-106
1,7068595,440,-1320,-913,-1487,-294,-48,421,35,-101
1,7068604,440,-1320,-913,-1487,-294,-48,421,35,-101
1,7068612,440,-1320,-913,-1487,-294,-48,421,35,-101
1,7068623,443,-1325,-914,-1478,-296,-39,421,35,-101
1,7068632,443,-1325,-914,-1478,-296,-39,421,35,-101
1,7068640,443,-1324,-916,-1488,-296,-43,421,35,-101
1,7068648,443,-1324,-916,-1488,-296,-43,421,35,-101
1,7068657,440,-1323,-917,-1481,-293,-43,421,35,-101
1,7068669,440,-1323,-917,-1481,-293,-43,421,35,-101
1,7068680,439,-1324,-918,-1489,-302,-42,421,35,-101
1,7068692,439,-1324,-918,-1489,-302,-42,421,35,-101
1,7068706,443,-1326,-915,-1489,-300,-43,421,35,-101
1,7068721,439,-1323,-914,-1490,-300,-35,425,31,-107
1,7068730,439,-1323,-914,-1490,-300,-35,425,31,-107
1,7068742,439,-1323,-909,-1488,-301,-37,425,31,-107
1,7068756,444,-1328,-917,-1479,-304,-40,425,31,-107
1,7068770,444,-1328,-917,-1479,-304,-40,425,31,-107
1,7068780,444,-1327,-920,-1480,-304,-42,425,31,-107
1,7068792,447,-1323,-917,-1484,-300,-39,425,31,-107
1,7068806,447,-1323,-917,-1484,-300,-39,425,31,-107
1,7068819,440,-1326,-922,-1490,-304,-46,425,31,-107
1,7068828,440,-1326,-922,-1490,-304,-46,425,31,-107
1,7068841,438,-1324,-915,-1482,-300,-40,417,31,-107
1,7068849,438,-1324,-915,-1482,-300,-40,417,31,-107
1,7068856,436,-1326,-917,-1480,-301,-46,417,31,-107
1,7068863,436,-1326,-917,-1480,-301,-46,417,31,-107
1,7068869,436,-1326,-917,-1480,-301,-46,417,31,-107
1,7068876,439,-1326,-919,-1485,-298,-44,417,31,-107
1,7068883,439,-1326,-919,-1485,-298,-44,417,31,-107
1,7068891,439,-1326,-919,-1485,-298,-44,417,31,-107
1,7068898,440,-1324,-914,-1488,-302,-43,417,31,-107
1,7068906,440,-1324,-914,-1488,-302,-43,417,31,-107
1,7068911,440,-1324,-914,-1488,-302,-43,417,31,-107
1,7068919,440,-1326,-920,-1485,-303,-51,417,31,-107
1,7068928,440,-1326,-920,-1485,-303,-51,417,31,-107
1,7068934,444,-1323,-915,-1487,-302,-43,417,31,-107
1,7068942,444,-1323,-915,-1487,-302,-43,417,31,-107
1,7068949,444,-1323,-915,-1487,-302,-43,417,31,-107
1,7068955,445,-1322,-915,-1490,-303,-41,431,33,-109
1,7068961,445,-1322,-915,-1490,-303,-41,431,33,-109
1,7068969,445,-1322,-915,-1490,-303,-41,431,33,-109
1,7068978,442,-1323,-914,-1489,-306,-40,431,33,-109
1,7068986,442,-1323,-914,-1489,-306,-40,431,33,-109
1,7068995,442,-1327,-914,-1490,-302,-37,431,33,-109
1,7069002,442,-1327,-914,-1490,-302,-37,431,33,-109
1,7069009,442,-1327,-914,-1490,-302,-37,431,33,-109
1,7069017,440,-1327,-916,-1481,-295,-38,431,33,-109
1,7069024,440,-1327,-916,-1481,-295,-38,431,33,-109
1,7069029,440,-1327,-916,-1481,-295,-38,431,33,-109
1,7069036,439,-1325,-918,-1480,-294,-49,431,33,-109
1,7069045,439,-1325,-918,-1480,-294,-49,431,33,-109
1,7069052,439,-1325,-918,-1480,-294,-49,431,33,-109
1,7069059,438,-1326,-914,-1485,-306,-52,431,33,-109
1,7069064,438,-1326,-914,-1485,-306,-52,431,33,-109
1,7069072,438,-1326,-914,-1485,-306,-52,431,33,-109
1,7069078,444,-1326,-911,-1490,-306,-46,431,33,-109
1,7069086,444,-1326,-911,-1490,-306,-46,431,33,-109
1,7069094,442,-1323,-911,-1480,-305,-37,431,35,-117
1,7069102,442,-1323,-911,-1480,-305,-37,431,35,-117
1,7069109,442,-1323,-911,-1480,-305,-37,431,35,-117
1,7069116,441,-1322,-912,-1482,-304,-40,431,35,-117
1,7069123,441,-1322,-912,-1482,-304,-40,431,35,-117
1,7069129,441,-1322,-912,-1482,-304,-40,431,35,-117
1,7069136,443,-1324,-915,-1489,-296,-45,431,35,-117
1,7069144,443,-1324,-915,-1489,-296,-45,431,35,-117
1,7069149,443,-1324,-915,-1489,-296,-45,431,35,-117
1,7069157,439,-1325,-920,-1488,-300,-39,431,35,-117
1,7069163,439,-1325,-920,-1488,-300,-39,431,35,-117
1,7069170,439,-1325,-920,-1488,-300,-39,431,35,-117
1,7069177,442,-1326,-919,-1487,-296,-41,431,35,-117
1,7069186,442,-1326,-919,-1487,-296,-41,431,35,-117
1,7069193,443,-1324,-916,-1492,-298,-41,431,35,-117
1,7069201,443,-1324,-916,-1492,-298,-41,431,35,-117
1,7069207,443,-1324,-916,-1492,-298,-41,431,35,-117
1,7069215,446,-1324,-915,-1489,-297,-41,430,32,-114
1,7069222,446,-1324,-915,-1489,-297,-41,430,32,-114
1,7069229,446,-1324,-915,-1489,-297,-41,430,32,-114
1,7069235,443,-1325,-917,-1487,-297,-32,430,32,-114
1,7069242,443,-1325,-917,-1487,-297,-32,430,32,-114
1,7069247,443,-1325,-917,-1487,-297,-32,430,32,-114
1,7069253,443,-1325,-917,-1487,-297,-32,430,32,-114
1,7069258,440,-1321,-916,-1478,-300,-41,430,32,-114
1,7069263,440,-1321,-916,-1478,-300,-41,430,32,-114
1,7069271,440,-1321,-916,-1478,-300,-41,430,32,-114
1,7069278,441,-1326,-915,-1477,-306,-41,430,32,-114
1,7069285,441,-1326,-915,-1477,-306,-41,430,32,-114
1,7069292,441,-1326,-915,-1477,-306,-41,430,32,-114
1,7069297,436,-1327,-917,-1480,-304,-45,430,32,-114
1,7069305,436,-1327,-917,-1480,-304,-45,430,32,-114
1,7069313,436,-1327,-917,-1480,-304,-45,430,32,-114
1,7069320,440,-1326,-914,-1487,-301,-41,430,32,-114
1,7069328,440,-1326,-914,-1487,-301,-41,430,32,-114
1,7069335,440,-1327,-914,-1480,-304,-45,422,34,-112
1,7069343,440,-1327,-914,-1480,-304,-45,422,34,-112
1,7069349,440,-1327,-914,-1480,-304,-45,422,34,-112
1,7069357,444,-1323,-916,-1481,-299,-48,422,34,-112
1,7069364,444,-1323,-916,-1481,-299,-48,422,34,-112
1,7069371,444,-1323,-916,-1481,-299,-48,422,34,-112
1,7069378,445,-1324,-915,-1483,-301,-47,422,34,-112
1,7069385,445,-1324,-915,-1483,-301,-47,422,34,-112
1,7069390,445,-1324,-915,-1483,-301,-47,422,34,-112
1,7069396,444,-1325,-915,-1486,-294,-46,422,34,-112
1,7069405,444,-1325,-915,-1486,-294,-46,422,34,-112
1,7069410,444,-1325,-915,-1486,-294,-46,422,34,-112
1,7069415,441,-1325,-915,-1481,-300,-45,422,34,-112
1,7069420,441,-1325,-915,-1481,-300,-45,422,34,-112
1,7069425,441,-1325,-915,-1481,-300,-45,422,34,-112
1,7069431,441,-1325,-915,-1481,-300,-45,422,34,-112
1,7069436,442,-1326,-919,-1486,-303,-39,422,34,-112
1,7069443,442,-1326,-919,-1486,-303,-39,422,34,-112
1,7069450,442,-1326,-919,-1486,-303,-39,422,34,-112
1,7069456,436,-1325,-915,-1483,-306,-42,422,32,-106
1,7069463,436,-1325,-915,-1483,-306,-42,422,32,-106
1,7069470,436,-1325,-915,-1483,-306,-42,422,32,-106
1,7069477,440,-1325,-913,-1488,-297,-51,422,32,-106
1,7069485,440,-1325,-913,-1488,-297,-51,422,32,-106
1,7069492,440,-1325,-913,-1488,-297,-51,422,32,-106
1,7069499,441,-1323,-920,-1486,-300,-44,422,32,-106
1,7069506,441,-1323,-920,-1486,-300,-44,422,32,-106
1,7069513,447,-1324,-915,-1491,-301,-41,422,32,-106
1,7069521,447,-1324,-915,-1491,-301,-41,422,32,-106
1,7069529,447,-1324,-915,-1491,-301,-41,422,32,-106
1,7069534,444,-1323,-915,-1482,-293,-45,422,32,-106
1,7069541,444,-1323,-915,-1482,-293,-45,422,32,-106
1,7069548,444,-1323,-915,-1482,-293,-45,422,32,-106
1,7069556,444,-1324,-913,-1483,-292,-41,422,32,-106
1,7069563,444,-1324,-913,-1483,-292,-41,422,32,-106
1,7069572,444,-1324,-913,-1483,-292,-41,422,32,-106
1,7069579,442,-1324,-911,-1493,-291,-45,422,32,-106
1,7069586,442,-1324,-911,-1493,-291,-45,422,32,-106
1,7069593,442,-1325,-909,-1485,-303,-42,422,32,-106
1,7069600,442,-1325,-909,-1485,-303,-42,419,31,-105
1,7069607,442,-1325,-909,-1485,-303,-42,419,31,-105
1,7069615,442,-1327,-918,-1485,-304,-45,419,31,-105
1,7069623,442,-1327,-918,-1485,-304,-45,419,31,-105
1,7069628,442,-1327,-918,-1485,-304,-45,419,31,-105
1,7069633,442,-1327,-918,-1485,-304,-45,419,31,-105
1,7069638,442,-1323,-915,-1480,-300,-46,419,31,-105
1,7069643,442,-1323,-915,-1480,-300,-46,419,31,-105
1,7069649,442,-1323,-915,-1480,-300,-46,419,31,-105
1,7069655,443,-1324,-918,-1482,-301,-37,419,31,-105
1,7069662,443,-1324,-918,-1482,-301,-37,419,31,-105
1,7069669,443,-1324,-918,-1482,-301,-37,419,31,-105
1,7069676,444,-1326,-920,-1492,-305,-38,419,31,-105
1,7069682,444,-1326,-920,-1492,-305,-38,419,31,-105
1,7069689,444,-1326,-920,-1492,-305,-38,419,31,-105
1,7069698,443,-1322,-920,-1486,-303,-39,419,31,-105
1,7069704,443,-1322,-920,-1486,-303,-39,419,31,-105
1,7069712,443,-1322,-920,-1486,-303,-39,419,31,-105
1,7069719,443,-1323,-911,-1483,-302,-48,432,36,-118
1,7069726,443,-1323,-911,-1483,-302,-48,432,36,-118
1,7069732,443,-1323,-911,-1483,-302,-48,432,36,-118
1,7069741,440,-1322,-916,-1488,-300,-46,432,36,-118
1,7069748,440,-1322,-916,-1488,-300,-46,432,36,-118
1,7069755,441,-1326,-918,-1485,-297,-36,432,36,-118
1,7069761,441,-1326,-918,-1485,-297,-36,432,36,-118
1,7069766,441,-1326,-918,-1485,-297,-36,432,36,-118
1,7069774,444,-1325,-915,-1489,-297,-43,432,36,-118
1,7069782,444,-1325,-915,-1489,-297,-43,432,36,-118
1,7069790,444,-1325,-915,-1489,-297,-43,432,36,-118
1,7069798,445,-1323,-917,-1486,-296,-40,432,36,-118
1,7069805,445,-1323,-917,-1486,-296,-40,432,36,-118
1,7069812,445,-1323,-917,-1486,-296,-40,432,36,-118
1,7069819,443,-1327,-921,-1487,-302,-37,432,36,-118
1,7069828,443,-1327,-921,-1487,-302,-37,432,36,-118
1,7069833,443,-1327,-921,-1487,-302,-37,432,36,-118
1,7069841,439,-1324,-913,-1484,-301,-47,427,33,-115
1,7069853,442,-1322,-917,-1489,-304,-39,427,33,-115
1,7069861,442,-1322,-917,-1489,-304,-39,427,33,-115
1,7069871,442,-1322,-917,-1489,-304,-39,427,33,-115
1,7069878,440,-1326,-918,-1485,-301,-40,427,33,-115
1,7069886,440,-1326,-918,-1485,-301,-40,427,33,-115
1,7069895,438,-1326,-919,-1487,-296,-39,427,33,-115
1,7069907,438,-1326,-919,-1487,-296,-39,427,33,-115
1,7069920,443,-1326,-914,-1488,-295,-44,427,33,-115
1,7069933,443,-1326,-914,-1488,-295,-44,427,33,-115
1,7069945,443,-1324,-919,-1492,-302,-43,427,33,-115
1,7069960,443,-1322,-914,-1483,-298,-40,424,32,-110
1,7069971,443,-1322,-914,-1483,-298,-40,424,32,-110
1,7069984,443,-1325,-913,-1486,-294,-38,424,32,-110
1,7069998,440,-1325,-918,-1478,-299,-36,424,32,-110
1,7070010,440,-1325,-918,-1478,-299,-36,424,32,-110
1,7070022,441,-1329,-921,-1485,-311,-46,424,32,-110
1,7070034,439,-1327,-917,-1486,-300,-40,424,32,-110
1,7070050,439,-1327,-917,-1486,-300,-40,424,32,-110
1,7070062,441,-1325,-915,-1492,-294,-40,424,32,-110
1,7070075,442,-1325,-923,-1485,-301,-45,421,33,-113
1,7070088,442,-1325,-923,-1485,-301,-45,421,33,-113
1,7070101,446,-1321,-912,-1493,-301,-47,421,33,-113
1,7070112,446,-1321,-912,-1493,-301,-47,421,33,-113
1,7070126,447,-1324,-915,-1488,-300,-45,421,33,-113
1,7070139,441,-1325,-917,-1480,-307,-46,421,33,-113
1,7070151,441,-1325,-917,-1480,-307,-46,421,33,-113
1,7070163,439,-1327,-917,-1483,-304,-48,421,33,-113
1,7070176,442,-1330,-918,-1488,-304,-47,421,33,-113
1,7070190,442,-1330,-918,-1488,-304,-47,421,33,-113
1,7070202,440,-1325,-918,-1489,-302,-38,421,33,-113
1,7070216,441,-1324,-914,-1481,-305,-39,429,37,-111
1,7070229,441,-1324,-914,-1481,-305,-39,429,37,-111
1,7070241,442,-1324,-920,-1482,-299,-47,429,37,-111
1,7070253,442,-1324,-920,-1482,-299,-47,429,37,-111
1,7070267,446,-1324,-921,-1481,-305,-46,429,37,-111
1,7070279,441,-1325,-917,-1484,-303,-45,429,37,-111
1,7070288,441,-1325,-917,-1484,-303,-45,429,37,-111
1,7070301,442,-1325,-917,-1484,-298,-46,429,37,-111
1,7070315,441,-1325,-920,-1483,-299,-48,429,37,-111
1,7070326,441,-1325,-920,-1483,-299,-48,429,37,-111
1,7070338,440,-1325,-910,-1488,-305,-51,428,28,-114
1,7070351,440,-1325,-910,-1488,-305,-51,428,28,-114
1,7070365,442,-1324,-912,-1493,-307,-44,428,28,-114
1,7070374,442,-1321,-913,-1479,-298,-46,428,28,-114
1,7070386,442,-1321,-913,-1479,-298,-46,428,28,-114
1,7070399,442,-1321,-913,-1479,-298,-46,428,28,-114
1,7070407,442,-1321,-913,-1479,-298,-46,428,28,-114
1,7070415,442,-1323,-920,-1488,-302,-45,428,28,-114
1,7070424,442,-1323,-920,-1488,-302,-45,428,28,-114
1,7070432,442,-1323,-920,-1488,-302,-45,428,28,-114
1,7070441,440,-1325,-923,-1492,-302,-38,428,28,-114
1,7070448,440,-1325,-923,-1492,-302,-38,428,28,-114
1,7070456,437,-1324,-912,-1491,-304,-35,426,38,-112
1,7070465,437,-1324,-912,-1491,-304,-35,426,38,-112
1,7070474,437,-1326,-915,-1488,-306,-38,426,38,-112
1,7070483,437,-1326,-915,-1488,-306,-38,426,38,-112
1,7070490,437,-1326,-915,-1488,-306,-38,426,38,-112
1,7070499,440,-1324,-918,-1483,-301,-42,426,38,-112
1,7070508,440,-1324,-918,-1483,-301,-42,426,38,-112
1,7070516,443,-1326,-925,-1488,-305,-43,426,38,-112
1,7070524,443,-1326,-925,-1488,-305,-43,426,38,-112
1,7070533,443,-1322,-918,-1485,-294,-44,426,38,-112
1,7070543,443,-1322,-918,-1485,-294,-44,426,38,-112
1,7070553,443,-1322,-918,-1485,-294,-44,426,38,-112
1,7070567,445,-1322,-918,-1487,-293,-42,426,38,-112
1,7070578,442,-1324,-912,-1486,-305,-40,424,30,-112
1,7070590,442,-1324,-912,-1486,-305,-40,424,30,-112
1,7070605,440,-1324,-913,-1486,-301,-47,424,30,-112
1,7070617,437,-1327,-917,-1491,-298,-47,424,30,-112
1,7070625,437,-1327,-917,-1491,-298,-47,424,30,-112
1,7070633,439,-1325,-918,-1490,-302,-39,424,30,-112
1,7070642,439,-1325,-918,-1490,-302,-39,424,30,-112
1,7070649,439,-1325,-918,-1490,-302,-39,424,30,-112
1,7070658,437,-1324,-918,-1489,-307,-38,424,30,-112
1,7070671,437,-1324,-918,-1489,-307,-38,424,30,-112
1,7070685,443,-1326,-921,-1478,-300,-44,424,30,-112
1,7070695,445,-1325,-920,-1479,-300,-45,424,30,-112
1,7070707,445,-1325,-920,-1479,-300,-45,424,30,-112
1,7070721,448,-1321,-921,-1469,-294,-38,419,39,-113
1,7070737,445,-1326,-916,-1483,-300,-44,419,39,-113
1,7070749,445,-1326,-916,-1483,-300,-44,419,39,-113
1,7070761,442,-1325,-913,-1489,-296,-43,419,39,-113
1,7070775,439,-1326,-913,-1490,-293,-44,419,39,-113
1,7070787,439,-1326,-913,-1490,-293,-44,419,39,-113
1,7070799,443,-1324,-915,-1485,-303,-34,419,39,-113
1,7070813,443,-1324,-915,-1485,-303,-34,419,39,-113
1,7070826,441,-1325,-917,-1483,-300,-40,419,39,-113
1,7070838,447,-1326,-912,-1481,-301,-46,424,34,-112
1,7070853,447,-1326,-912,-1481,-301,-46,424,34,-112
1,7070860,448,-1324,-917,-1477,-298,-44,424,34,-112
1,7070866,448,-1324,-917,-1477,-298,-44,424,34,-112
1,7070874,444,-1327,-914,-1484,-296,-42,424,34,-112
1,7070881,444,-1327,-914,-1484,-296,-42,424,34,-112
1,7070888,444,-1327,-914,-1484,-296,-42,424,34,-112
1,7070896,443,-1322,-919,-1486,-305,-43,424,34,-112
1,7070903,443,-1322,-919,-1486,-305,-43,424,34,-112
1,7070910,443,-1322,-919,-1486,-305,-43,424,34,-112
1,7070917,439,-1324,-919,-1484,-300,-36,424,34,-112
1,7070924,439,-1324,-919,-1484,-300,-36,424,34,-112
1,7070931,439,-1324,-919,-1484,-300,-36,424,34,-112
1,7070938,439,-1325,-917,-1479,-294,-40,424,34,-112
1,7070946,439,-1325,-917,-1479,-294,-40,424,34,-112
1,7070954,441,-1325,-917,-1481,-299,-40,431,37,-109
1,7070962,441,-1325,-917,-1481,-299,-40,431,37,-109
1,7070970,441,-1325,-917,-1481,-299,-40,431,37,-109
1,7070978,441,-1325,-920,-1488,-297,-43,431,37,-109
1,7070985,441,-1325,-920,-1488,-297,-43,431,37,-109
1,7070992,441,-1325,-920,-1488,-297,-43,431,37,-109
1,7070998,443,-1327,-916,-1486,-299,-39,431,37,-109
1,7071005,443,-1327,-916,-1486,-299,-39,431,37,-109
1,7071012,443,-1327,-916,-1486,-299,-39,431,37,-109
1,7071021,441,-1324,-927,-1485,-301,-32,431,37,-109
1,7071029,441,-1324,-927,-1485,-301,-32,431,37,-109
1,7071036,442,-1323,-916,-1482,-302,-31,431,37,-109
1,7071043,442,-1323,-916,-1482,-302,-31,431,37,-109
1,7071049,442,-1323,-916,-1482,-302,-31,431,37,-109
1,7071058,438,-1326,-918,-1486,-311,-40,431,37,-109
1,7071065,438,-1326,-918,-1486,-311,-40,431,37,-109
1,7071073,438,-1326,-918,-1486,-311,-40,431,37,-109
1,7071078,438,-1324,-914,-1479,-304,-42,425,33,-111
1,7071084,438,-1324,-914,-1479,-304,-42,425,33,-111
1,7071089,438,-1324,-914,-1479,-304,-42,425,33,-111
1,7071096,441,-1322,-914,-1487,-300,-34,425,33,-111
1,7071104,441,-1322,-914,-1487,-300,-34,425,33,-111
1,7071111,441,-1322,-914,-1487,-300,-34,425,33,-111
1,7071117,445,-1324,-923,-1482,-298,-37,425,33,-111
1,7071123,445,-1324,-923,-1482,-298,-37,425,33,-111
1,7071131,445,-1324,-923,-1482,-298,-37,425,33,-111
1,7071138,446,-1324,-921,-1484,-297,-39,425,33,-111
1,7071144,446,-1324,-921,-1484,-297,-39,425,33,-111
1,7071151,446,-1324,-921,-1484,-297,-39,425,33,-111
1,7071157,444,-1327,-914,-1488,-304,-41,425,33,-111
1,7071165,444,-1327,-914,-1488,-304,-41,425,33,-111
1,7071173,444,-1327,-914,-1488,-304,-41,425,33,-111
1,7071180,439,-1324,-920,-1478,-293,-39,425,33,-111
1,7071188,439,-1324,-920,-1478,-293,-39,425,33,-111
1,7071196,438,-1324,-919,-1487,-299,-37,425,33,-111
1,7071203,438,-1324,-919,-1487,-299,-37,425,33,-111
1,7071210,438,-1324,-919,-1487,-299,-37,425,33,-111
1,7071216,439,-1324,-909,-1489,-303,-35,431,37,-117
1,7071223,439,-1324,-909,-1489,-303,-35,431,37,-117
1,7071232,439,-1324,-909,-1489,-303,-35,431,37,-117
1,7071239,441,-1324,-917,-1485,-297,-36,431,37,-117
1,7071247,441,-1324,-917,-1485,-297,-36,431,37,-117
1,7071254,441,-1322,-918,-1484,-299,-43,431,37,-117
1,7071260,441,-1322,-918,-1484,-299,-43,431,37,-117
1,7071266,441,-1322,-918,-1484,-299,-43,431,37,-117
1,7071273,445,-1322,-917,-1490,-298,-39,431,37,-117
1,7071282,445,-1322,-917,-1490,-298,-39,431,37,-117
1,7071289,445,-1322,-917,-1490,-298,-39,431,37,-117
1,7071297,443,-1322,-919,-1486,-300,-41,431,37,-117
1,7071304,443,-1322,-919,-1486,-300,-41,431,37,-117
1,7071310,443,-1322,-919,-1486,-300,-41,431,37,-117
1,7071318,444,-1324,-922,-1493,-304,-41,431,37,-117
1,7071326,444,-1324,-922,-1493,-304,-41,431,37,-117
1,7071333,444,-1324,-922,-1493,-304,-41,431,37,-117
1,7071340,441,-1324,-913,-1491,-303,-44,422,36,-116
1,7071348,441,-1324,-913,-1491,-303,-44,422,36,-116
1,7071354,438,-1327,-917,-1487,-297,-43,422,36,-116
1,7071360,438,-1327,-917,-1487,-297,-43,422,36,-116
1,7071366,438,-1327,-917,-1487,-297,-43,422,36,-116
1,7071373,438,-1327,-917,-1487,-297,-43,422,36,-116
1,7071381,439,-1326,-914,-1483,-300,-36,422,36,-116
1,7071388,439,-1326,-914,-1483,-300,-36,422,36,-116
1,7071394,440,-1325,-920,-1490,-299,-40,422,36,-116
1,7071401,440,-1325,-920,-1490,-299,-40,422,36,-116
1,7071408,440,-1325,-920,-1490,-299,-40,422,36,-116
1,7071413,440,-1325,-920,-1490,-299,-40,422,36,-116
1,7071417,440,-1322,-913,-1494,-305,-34,422,36,-116
1,7071423,440,-1322,-913,-1494,-305,-34,422,36,-116
1,7071428,440,-1322,-913,-1494,-305,-34,422,36,-116
1,7071432,440,-1322,-913,-1494,-305,-34,422,36,-116
1,7071439,445,-1321,-920,-1490,-304,-36,422,36,-116
1,7071448,445,-1321,-920,-1490,-304,-36,422,36,-116
1,7071454,445,-1321,-920,-1490,-304,-36,422,36,-116
1,7071459,442,-1322,-914,-1499,-306,-35,420,34,-106
1,7071467,442,-1322,-914,-1499,-306,-35,420,34,-106
1,7071476,445,-1325,-915,-1493,-309,-36,420,34,-106
1,7071482,445,-1325,-915,-1493,-309,-36,420,34,-106
1,7071490,445,-1325,-915,-1493,-309,-36,420,34,-106
1,7071496,442,-1327,-916,-1489,-308,-37,420,34,-106
1,7071502,442,-1327,-916,-1489,-308,-37,420,34,-106
1,7071508,442,-1327,-916,-1489,-308,-37,420,34,-106
1,7071517,441,-1324,-918,-1491,-305,-33,420,34,-106
1,7071524,441,-1324,-918,-1491,-305,-33,420,34,-106
1,7071533,441,-1324,-918,-1491,-305,-33,420,34,-106
1,7071539,444,-1326,-920,-1488,-304,-37,420,34,-106
1,7071544,444,-1326,-920,-1488,-304,-37,420,34,-106
1,7071551,444,-1326,-920,-1488,-304,-37,420,34,-106
1,7071557,440,-1327,-920,-1487,-298,-34,420,34,-106
1,7071564,440,-1327,-920,-1487,-298,-34,420,34,-106
1,7071571,440,-1327,-920,-1487,-298,-34,420,34,-106
1,7071579,442,-1325,-916,-1487,-303,-35,424,36,-114
1,7071584,442,-1325,-916,-1487,-303,-35,424,36,-114
1,7071589,442,-1325,-916,-1487,-303,-35,424,36,-114
1,7071594,441,-1323,-915,-1476,-301,-42,424,36,-114
1,7071601,441,-1323,-915,-1476,-301,-42,424,36,-114
1,7071607,441,-1323,-915,-1476,-301,-42,424,36,-114
1,7071617,443,-1326,-913,-1483,-307,-41,424,36,-114
1,7071623,443,-1326,-913,-1483,-307,-41,424,36,-114
1,7071628,443,-1326,-913,-1483,-307,-41,424,36,-114
1,7071633,443,-1326,-913,-1483,-307,-41,424,36,-114
1,7071638,442,-1323,-914,-1493,-303,-38,424,36,-114
1,7071643,442,-1323,-914,-1493,-303,-38,424,36,-114
1,7071648,442,-1323,-914,-1493,-303,-38,424,36,-114
1,7071655,438,-1322,-916,-1494,-305,-34,424,36,-114
1,7071662,438,-1322,-916,-1494,-305,-34,424,36,-114
1,7071669,438,-1322,-916,-1494,-305,-34,424,36,-114
1,7071676,442,-1325,-918,-1489,-300,-37,424,36,-114
1,7071683,442,-1325,-918,-1489,-300,-37,424,36,-114
1,7071690,442,-1325,-918,-1489,-300,-37,424,36,-114
1,7071697,440,-1324,-918,-1484,-298,-32,425,39,-113
1,7071704,440,-1324,-918,-1484,-298,-32,425,39,-113
1,7071712,440,-1324,-918,-1484,-298,-32,425,39,-113
1,7071719,447,-1324,-917,-1480,-299,-39,425,39,-113
1,7071724,447,-1324,-917,-1480,-299,-39,425,39,-113
1,7071732,447,-1324,-917,-1480,-299,-39,425,39,-113
1,7071738,444,-1325,-914,-1488,-301,-39,425,39,-113
1,7071745,444,-1325,-914,-1488,-301,-39,425,39,-113
1,7071753,444,-1325,-914,-1488,-301,-39,425,39,-113
1,7071759,438,-1323,-915,-1482,-303,-36,425,39,-113
1,7071767,438,-1323,-915,-1482,-303,-36,425,39,-113
1,7071772,438,-1323,-915,-1482,-303,-36,425,39,-113
1,7071779,441,-1325,-918,-1489,-302,-36,425,39,-113
1,7071785,441,-1325,-918,-1489,-302,-36,425,39,-113
1,7071795,438,-1324,-921,-1495,-310,-37,425,39,-113
1,7071802,438,-1324,-921,-1495,-310,-37,425,39,-113
1,7071809,438,-1324,-921,-1495,-310,-37,425,39,-113
1,7071817,439,-1323,-919,-1489,-305,-36,425,39,-113
1,7071823,439,-1323,-919,-1489,-305,-36,425,39,-113
1,7071831,439,-1323,-919,-1489,-305,-36,425,39,-113
1,7071837,442,-1321,-916,-1486,-305,-39,418,36,-110
1,7071843,442,-1321,-916,-1486,-305,-39,418,36,-110
1,7071851,442,-1321,-916,-1486,-305,-39,418,36,-110
1,7071858,444,-1320,-917,-1487,-303,-41,418,36,-110
1,7071874,444,-1320,-917,-1487,-303,-41,418,36,-110
1,7071886,448,-1326,-919,-1487,-298,-37,418,36,-110
1,7071896,445,-1325,-913,-1483,-301,-37,418,36,-110
1,7071910,445,-1325,-913,-1483,-301,-37,418,36,-110
1,7071922,441,-1325,-914,-1485,-306,-33,418,36,-110
1,7071935,440,-1325,-917,-1481,-305,-31,418,36,-110
1,7071948,440,-1325,-917,-1481,-305,-31,418,36,-110
1,7071961,439,-1326,-915,-1484,-308,-27,426,30,-114
1,7071973,439,-1326,-915,-1484,-308,-27,426,30,-114
1,7071986,440,-1323,-917,-1481,-296,-33,426,30,-114
1,7071998,441,-1323,-915,-1484,-303,-33,426,30,-114
1,7072012,441,-1323,-915,-1484,-303,-33,426,30,-114
1,7072024,444,-1324,-917,-1481,-297,-36,426,30,-114
1,7072037,441,-1323,-919,-1493,-300,-41,426,30,-114
1,7072052,441,-1323,-919,-1493,-300,-41,426,30,-114
1,7072063,447,-1323,-917,-1491,-298,-38,426,30,-114
1,7072076,445,-1322,-920,-1486,-307,-36,430,34,-106
1,7072089,445,-1322,-920,-1486,-307,-36,430,34,-106
1,7072102,438,-1328,-918,-1490,-302,-36,430,34,-106
1,7072113,438,-1328,-918,-1490,-302,-36,430,34,-106
1,7072128,442,-1325,-915,-1492,-306,-38,430,34,-106
1,7072140,441,-1325,-919,-1489,-307,-43,430,34,-106
1,7072148,441,-1325,-919,-1489,-307,-43,430,34,-106
1,7072158,445,-1322,-917,-1485,-295,-38,430,34,-106
1,7072173,445,-1322,-917,-1485,-295,-38,430,34,-106
1,7072182,439,-1324,-918,-1481,-298,-44,430,34,-106
1,7072191,439,-1324,-918,-1481,-298,-44,430,34,-106
1,7072199,442,-1324,-912,-1486,-302,-37,421,31,-113
1,7072207,442,-1324,-912,-1486,-302,-37,421,31,-113
1,7072216,444,-1325,-912,-1490,-304,-38,421,31,-113
1,7072227,444,-1325,-912,-1490,-304,-38,421,31,-113
1,7072238,439,-1326,-912,-1483,-296,-41,421,31,-113
1,7072248,439,-1326,-912,-1483,-296,-41,421,31,-113
1,7072262,444,-1325,-915,-1486,-297,-39,421,31,-113
1,7072277,444,-1325,-918,-1488,-305,-43,421,31,-113
1,7072288,444,-1325,-918,-1488,-305,-43,421,31,-113
1,7072301,444,-1325,-919,-1491,-308,-42,421,31,-113
1,7072313,444,-1325,-919,-1491,-308,-42,421,31,-113
1,7072326,446,-1325,-921,-1491,-299,-38,421,31,-113
1,7072338,443,-1324,-913,-1492,-303,-41,424,28,-110
1,7072349,443,-1324,-913,-1492,-303,-41,424,28,-110
1,7072362,440,-1326,-919,-1488,-299,-42,424,28,-110
1,7072377,439,-1326,-917,-1476,-303,-40,424,28,-110
1,7072391,439,-1326,-917,-1476,-303,-40,424,28,-110
1,7072399,437,-1327,-918,-1484,-303,-35,424,28,-110
1,7072408,437,-1327,-918,-1484,-303,-35,424,28,-110
1,7072416,438,-1325,-916,-1485,-303,-35,424,28,-110
1,7072424,438,-1325,-916,-1485,-303,-35,424,28,-110
1,7072433,438,-1325,-916,-1485,-303,-35,424,28,-110
1,7072441,446,-1322,-917,-1501,-303,-40,424,28,-110
1,7072449,446,-1322,-917,-1501,-303,-40,424,28,-110
1,7072457,447,-1324,-915,-1493,-301,-36,431,33,-113
1,7072465,447,-1324,-915,-1493,-301,-36,431,33,-113
1,7072474,447,-1324,-915,-1493,-301,-36,431,33,-113
1,7072483,443,-1327,-918,-1492,-300,-38,431,33,-113
1,7072492,443,-1327,-918,-1492,-300,-38,431,33,-113
1,7072500,441,-1328,-918,-1487,-307,-44,431,33,-113
1,7072513,441,-1328,-918,-1487,-307,-44,431,33,-113
1,7072525,441,-1325,-916,-1490,-309,-41,431,33,-113
1,7072537,435,-1330,-916,-1490,-307,-46,431,33,-113
1,7072549,435,-1330,-916,-1490,-307,-46,431,33,-113
1,7072563,440,-1324,-913,-1488,-307,-42,431,33,-113
1,7072576,440,-1325,-907,-1486,-299,-41,426,38,-112
1,7072585,440,-1325,-907,-1486,-299,-41,426,38,-112
1,7072596,444,-1323,-913,-1475,-304,-43,426,38,-112
1,7072613,444,-1323,-913,-1475,-304,-43,426,38,-112
1,7072625,445,-1325,-913,-1485,-309,-32,426,38,-112
1,7072633,445,-1325,-913,-1485,-309,-32,426,38,-112
1,7072642,443,-1322,-913,-1487,-305,-38,426,38,-112
1,7072650,443,-1322,-913,-1487,-305,-38,426,38,-112
1,7072659,444,-1326,-916,-1485,-305,-38,426,38,-112
1,7072671,444,-1326,-916,-1485,-305,-38,426,38,-112
1,7072683,438,-1328,-917,-1484,-299,-40,426,38,-112
1,7072697,440,-1324,-913,-1483,-299,-41,430,38,-106
1,7072710,440,-1324,-913,-1483,-299,-41,430,38,-106
1,7072723,438,-1324,-914,-1477,-295,-39,430,38,-106
1,7072734,438,-1324,-914,-1477,-295,-39,430,38,-106
1,7072747,443,-1323,-915,-1485,-305,-44,430,38,-106
1,7072760,447,-1325,-918,-1490,-306,-35,430,38,-106
1,7072774,445,-1326,-915,-1482,-296,-33,430,38,-106
1,7072784,445,-1326,-915,-1482,-296,-33,430,38,-106
1,7072796,443,-1325,-916,-1478,-302,-41,430,38,-106
1,7072808,443,-1325,-916,-1478,-302,-41,430,38,-106
1,7072822,438,-1327,-914,-1485,-306,-45,429,29,-113
1,7072831,438,-1327,-914,-1485,-306,-45,429,29,-113
1,7072838,442,-1327,-912,-1483,-300,-35,429,29,-113
1,7072846,442,-1327,-912,-1483,-300,-35,429,29,-113
1,7072855,442,-1325,-918,-1486,-301,-34,429,29,-113
1,7072865,442,-1325,-918,-1486,-301,-34,429,29,-113
1,7072873,442,-1325,-918,-1486,-301,-34,429,29,-113
1,7072879,445,-1323,-920,-1484,-306,-42,429,29,-113
1,7072887,445,-1323,-920,-1484,-306,-42,429,29,-113
1,7072893,445,-1323,-920,-1484,-306,-42,429,29,-113
1,7072899,449,-1322,-918,-1486,-302,-40,429,29,-113
1,7072908,449,-1322,-918,-1486,-302,-40,429,29,-113
1,7072915,443,-1326,-918,-1487,-301,-36,429,29,-113
1,7072923,443,-1326,-918,-1487,-301,-36,429,29,-113
1,7072931,443,-1326,-918,-1487,-301,-36,429,29,-113
1,7072939,442,-1326,-916,-1486,-297,-38,429,29,-113
1,7072945,442,-1326,-916,-1486,-297,-38,429,29,-113
1,7072952,442,-1326,-916,-1486,-297,-38,429,29,-113
1,7072959,441,-1322,-913,-1490,-303,-43,425,27,-111
1,7072966,441,-1322,-913,-1490,-303,-43,425,27,-111
1,7072974,441,-1322,-913,-1490,-303,-43,425,27,-111
1,7072982,441,-1327,-914,-1485,-305,-48,425,27,-111
1,7072989,441,-1327,-914,-1485,-305,-48,425,27,-111
1,7072996,442,-1325,-915,-1488,-300,-46,425,27,-111
1,7073002,442,-1325,-915,-1488,-300,-46,425,27,-111
1,7073010,442,-1325,-915,-1488,-300,-46,425,27,-111
1,7073016,439,-1324,-919,-1489,-299,-39,425,27,-111
1,7073025,439,-1324,-919,-1489,-299,-39,425,27,-111
1,7073033,439,-1324,-919,-1489,-299,-39,425,27,-111
1,7073040,448,-1323,-915,-1485,-310,-40,425,27,-111
1,7073047,448,-1323,-915,-1485,-310,-40,425,27,-111
1,7073052,448,-1323,-915,-1485,-310,-40,425,27,-111
1,7073060,445,-1323,-920,-1475,-307,-40,425,27,-111
1,7073067,445,-1323,-920,-1475,-307,-40,425,27,-111
1,7073074,445,-1323,-920,-1475,-307,-40,425,27,-111
1,7073082,447,-1327,-915,-1482,-305,-36,421,37,-109
1,7073089,447,-1327,-915,-1482,-305,-36,421,37,-109
1,7073096,443,-1325,-916,-1490,-300,-37,421,37,-109
1,7073103,443,-1325,-916,-1490,-300,-37,421,37,-109
1,7073108,443,-1325,-916,-1490,-300,-37,421,37,-109
1,7073115,436,-1326,-918,-1488,-303,-37,421,37,-109
1,7073121,436,-1326,-918,-1488,-303,-37,421,37,-109
1,7073129,436,-1326,-918,-1488,-303,-37,421,37,-109
1,7073136,436,-1327,-914,-1489,-306,-42,421,37,-109
1,7073144,436,-1327,-914,-1489,-306,-42,421,37,-109
1,7073149,436,-1327,-914,-1489,-306,-42,421,37,-109
1,7073157,441,-1324,-920,-1479,-303,-44,421,37,-109
1,7073164,441,-1324,-920,-1479,-303,-44,421,37,-109
1,7073172,441,-1324,-920,-1479,-303,-44,421,37,-109
1,7073179,444,-1323,-916,-1484,-295,-41,421,37,-109
1,7073184,444,-1323,-916,-1484,-295,-41,421,37,-109
1,7073191,444,-1323,-916,-1484,-295,-41,421,37,-109
1,7073200,445,-1322,-914,-1482,-296,-37,435,35,-107
1,7073207,445,-1322,-914,-1482,-296,-37,435,35,-107
1,7073214,445,-1322,-914,-1482,-296,-37,435,35,-107
1,7073221,444,-1321,-919,-1487,-306,-49,435,35,-107
1,7073228,444,-1321,-919,-1487,-306,-49,435,35,-107
1,7073234,445,-1326,-919,-1485,-304,-44,435,35,-107
1,7073243,445,-1326,-919,-1485,-304,-44,435,35,-107
1,7073250,445,-1326,-919,-1485,-304,-44,435,35,-107
1,7073257,442,-1326,-922,-1489,-300,-43,435,35,-107
1,7073263,442,-1326,-922,-1489,-300,-43,435,35,-107
1,7073270,442,-1326,-922,-1489,-300,-43,435,35,-107
1,7073277,443,-1324,-920,-1486,-301,-50,435,35,-107
1,7073285,443,-1324,-920,-1486,-301,-50,435,35,-107
1,7073292,443,-1324,-920,-1486,-301,-50,435,35,-107
1,7073299,438,-1326,-916,-1487,-301,-42,435,35,-107
1,7073304,438,-1326,-916,-1487,-301,-42,435,35,-107
1,7073312,438,-1326,-916,-1487,-301,-42,435,35,-107
1,7073320,443,-1327,-917,-1484,-300,-37,426,40,-116
1,7073328,443,-1327,-917,-1484,-300,-37,426,40,-116
1,7073334,443,-1327,-917,-1484,-300,-37,426,40,-116
1,7073340,444,-1327,-917,-1489,-298,-43,426,40,-116
1,7073345,444,-1327,-917,-1489,-298,-43,426,40,-116
1,7073350,444,-1327,-917,-1489,-298,-43,426,40,-116
1,7073358,443,-1324,-912,-1488,-297,-42,426,40,-116
1,7073366,443,-1324,-912,-1488,-297,-42,426,40,-116
1,7073373,443,-1324,-912,-1488,-297,-42,426,40,-116
1,7073380,446,-1323,-917,-1486,-296,-35,426,40,-116
1,7073388,446,-1323,-917,-1486,-296,-35,426,40,-116
1,7073395,440,-1322,-921,-1488,-309,-40,426,40,-116
1,7073401,440,-1322,-921,-1488,-309,-40,426,40,-116
1,7073408,440,-1322,-921,-1488,-309,-40,426,40,-116
1,7073413,440,-1322,-921,-1488,-309,-40,426,40,-116
1,7073418,441,-1327,-920,-1495,-302,-41,426,40,-116
1,7073423,441,-1327,-920,-1495,-302,-41,426,40,-116
1,7073428,441,-1327,-920,-1495,-302,-41,426,40,-116
1,7073433,441,-1327,-920,-1495,-302,-41,426,40,-116
1,7073438,441,-1327,-920,-1495,-302,-41,426,40,-116
1,7073443,441,-1327,-920,-1495,-302,-41,426,40,-116
1,7073451,441,-1327,-920,-1495,-302,-41,426,40,-116
1,7073459,446,-1324,-915,-1488,-305,-33,427,27,-109
1,7073465,446,-1324,-915,-1488,-305,-33,427,27,-109
1,7073471,446,-1324,-915,-1488,-305,-33,427,27,-109
1,7073478,445,-1326,-921,-1482,-300,-34,427,27,-109
1,7073485,445,-1326,-921,-1482,-300,-34,427,27,-109
1,7073494,445,-1326,-921,-1482,-300,-34,427,27,-109
1,7073502,446,-1322,-914,-1483,-300,-39,427,27,-109
1,7073509,446,-1322,-914,-1483,-300,-39,427,27,-109
1,7073517,443,-1325,-915,-1481,-308,-29,427,27,-109
1,7073524,443,-1325,-915,-1481,-308,-29,427,27,-109
1,7073532,443,-1325,-915,-1481,-308,-29,427,27,-109
1,7073538,439,-1328,-923,-1488,-300,-37,427,27,-109
1,7073545,439,-1328,-923,-1488,-300,-37,427,27,-109
1,7073551,439,-1328,-923,-1488,-300,-37,427,27,-109
1,7073560,439,-1327,-919,-1492,-300,-35,427,27,-109
1,7073567,439,-1327,-919,-1492,-300,-35,427,27,-109
1,7073574,439,-1327,-919,-1492,-300,-35,427,27,-109
1,7073582,443,-1325,-914,-1494,-304,-33,424,28,-114
1,7073589,443,-1325,-914,-1494,-304,-33,424,28,-114
1,7073595,443,-1324,-908,-1485,-297,-30,424,28,-114
1,7073602,443,-1324,-908,-1485,-297,-30,424,28,-114
1,7073609,443,-1324,-908,-1485,-297,-30,424,28,-114
1,7073616,446,-1325,-916,-1480,-300,-36,424,28,-114
1,7073624,446,-1325,-916,-1480,-300,-36,424,28,-114
1,7073628,446,-1325,-916,-1480,-300,-36,424,28,-114
1,7073633,446,-1325,-916,-1480,-300,-36,424,28,-114
1,7073638,448,-1324,-915,-1480,-302,-46,424,28,-114
1,7073643,448,-1324,-915,-1480,-302,-46,424,28,-114
1,7073648,448,-1324,-915,-1480,-302,-46,424,28,-114
1,7073654,448,-1324,-915,-1480,-302,-46,424,28,-114
1,7073662,445,-1324,-916,-1484,-307,-43,424,28,-114
1,7073670,445,-1324,-916,-1484,-307,-43,424,28,-114
1,7073678,443,-1325,-912,-1486,-302,-44,424,28,-114
1,7073686,443,-1325,-912,-1486,-302,-44,424,28,-114
1,7073693,443,-1325,-912,-1486,-302,-44,424,28,-114
1,7073700,439,-1327,-917,-1494,-302,-39,420,32,-110
1,7073705,439,-1327,-917,-1494,-302,-39,420,32,-110
1,7073713,439,-1327,-917,-1494,-302,-39,420,32,-110
1,7073720,439,-1328,-915,-1495,-300,-43,420,32,-110
1,7073728,439,-1328,-915,-1495,-300,-43,420,32,-110
1,7073735,439,-1323,-919,-1493,-304,-42,420,32,-110
1,7073743,439,-1323,-919,-1493,-304,-42,420,32,-110
1,7073751,439,-1323,-919,-1493,-304,-42,420,32,-110
1,7073758,444,-1324,-918,-1489,-305,-39,420,32,-110
1,7073765,444,-1324,-918,-1489,-305,-39,420,32,-110
1,7073770,444,-1324,-918,-1489,-305,-39,420,32,-110
1,7073779,447,-1323,-917,-1488,-298,-40,420,32,-110
1,7073786,447,-1323,-917,-1488,-298,-40,420,32,-110
1,7073795,444,-1322,-918,-1481,-301,-39,420,32,-110
1,7073803,444,-1322,-918,-1481,-301,-39,420,32,-110
1,7073810,444,-1322,-918,-1481,-301,-39,420,32,-110
1,7073816,445,-1324,-917,-1482,-301,-43,427,39,-111
1,7073823,445,-1324,-917,-1482,-301,-43,427,39,-111
1,7073830,445,-1324,-917,-1482,-301,-43,427,39,-111
1,7073838,437,-1324,-910,-1483,-306,-42,427,39,-111
1,7073845,437,-1324,-910,-1483,-306,-42,427,39,-111
1,7073852,437,-1324,-910,-1483,-306,-42,427,39,-111
1,7073859,437,-1324,-918,-1476,-304,-36,427,39,-111
1,7073864,437,-1324,-918,-1476,-304,-36,427,39,-111
1,7073869,437,-1324,-918,-1476,-304,-36,427,39,-111
1,7073878,440,-1324,-919,-1484,-298,-33,427,39,-111
1,7073889,440,-1324,-919,-1484,-298,-33,427,39,-111
1,7073902,441,-1327,-917,-1486,-304,-44,427,39,-111
1,7073917,444,-1324,-920,-1485,-303,-43,427,39,-111
1,7073932,444,-1324,-920,-1485,-303,-43,427,39,-111
1,7073941,443,-1323,-921,-1485,-307,-40,427,39,-111
1,7073952,443,-1323,-921,-1485,-307,-40,427,39,-111
1,7073965,443,-1324,-914,-1493,-295,-38,425,31,-113
1,7073978,439,-1322,-916,-1496,-308,-37,425,31,-113
1,7073990,439,-1322,-916,-1496,-308,-37,425,31,-113
1,7074004,439,-1324,-917,-1487,-306,-47,425,31,-113
1,7074017,441,-1324,-920,-1490,-305,-32,425,31,-113
1,7074029,441,-1324,-920,-1490,-305,-32,425,31,-113
1,7074043,439,-1326,-923,-1486,-299,-37,425,31,-113
1,7074056,445,-1326,-917,-1484,-302,-35,425,31,-113
1,7074069,445,-1326,-917,-1484,-302,-35,425,31,-113
1,7074082,445,-1323,-914,-1491,-300,-39,428,38,-106
1,7074094,445,-1323,-914,-1491,-300,-39,428,38,-106
1,7074103,444,-1326,-913,-1483,-305,-36,428,38,-106
1,7074116,444,-1326,-913,-1483,-305,-36,428,38,-106
1,7074127,444,-1326,-913,-1483,-305,-36,428,38,-106
1,7074141,438,-1326,-911,-1482,-295,-38,428,38,-106
1,7074155,440,-1324,-917,-1481,-303,-41,428,38,-106
1,7074167,440,-1324,-917,-1481,-303,-41,428,38,-106
1,7074176,439,-1326,-914,-1482,-304,-39,428,38,-106
1,7074188,439,-1326,-914,-1482,-304,-39,428,38,-106
1,7074201,446,-1322,-911,-1485,-301,-36,427,31,-105
1,7074214,446,-1322,-911,-1485,-301,-36,427,31,-105
1,7074225,447,-1325,-910,-1486,-300,-41,427,31,-105
1,7074238,443,-1325,-915,-1488,-298,-43,427,31,-105
1,7074253,443,-1325,-915,-1488,-298,-43,427,31,-105
1,7074266,445,-1327,-923,-1488,-305,-34,427,31,-105
1,7074276,442,-1328,-921,-1482,-308,-36,427,31,-105
1,7074289,442,-1328,-921,-1482,-308,-36,427,31,-105
1,7074304,439,-1326,-919,-1483,-302,-38,427,31,-105
1,7074318,439,-1325,-918,-1484,-300,-40,431,37,-115
1,7074327,439,-1325,-918,-1484,-300,-40,431,37,-115
1,7074339,442,-1325,-914,-1488,-302,-33,431,37,-115
1,7074353,442,-1325,-914,-1488,-302,-33,431,37,-115
1,7074366,445,-1322,-917,-1488,-300,-36,431,37,-115
1,7074376,445,-1324,-918,-1487,-295,-40,431,37,-115
1,7074388,445,-1324,-918,-1487,-295,-40,431,37,-115
1,7074401,442,-1324,-918,-1489,-299,-36,431,37,-115
1,7074410,442,-1324,-918,-1489,-299,-36,431,37,-115
1,7074417,440,-1326,-919,-1483,-300,-39,431,37,-115
1,7074426,440,-1326,-919,-1483,-300,-39,431,37,-115
1,7074434,440,-1326,-919,-1483,-300,-39,431,37,-115
1,7074443,438,-1322,-918,-1487,-302,-38,427,35,-109
1,7074451,438,-1322,-918,-1487,-302,-38,427,35,-109
1,7074460,438,-1327,-913,-1486,-302,-41,427,35,-109
1,7074468,438,-1327,-913,-1486,-302,-41,427,35,-109
1,7074478,441,-1327,-918,-1478,-303,-36,427,35,-109
1,7074486,441,-1327,-918,-1478,-303,-36,427,35,-109
1,7074494,441,-1327,-918,-1478,-303,-36,427,35,-109
1,7074502,441,-1324,-919,-1478,-306,-35,427,35,-109
1,7074510,441,-1324,-919,-1478,-306,-35,427,35,-109
1,7074519,445,-1325,-918,-1479,-302,-43,427,35,-109
1,7074527,445,-1325,-918,-1479,-302,-43,427,35,-109
1,7074535,445,-1325,-918,-1479,-302,-43,427,35,-109
1,7074543,446,-1323,-920,-1484,-297,-38,427,35,-109
1,7074552,446,-1323,-920,-1484,-297,-38,427,35,-109
1,7074562,441,-1327,-921,-1488,-299,-42,427,35,-109
1,7074571,441,-1327,-921,-1488,-299,-42,427,35,-109
1,7074580,440,-1322,-922,-1488,-305,-41,421,43,-111
1,7074589,440,-1322,-922,-1488,-305,-41,421,43,-111
1,7074600,439,-1322,-917,-1486,-304,-41,421,43,-111
1,7074614,439,-1322,-917,-1486,-304,-41,421,43,-111
1,7074626,442,-1326,-921,-1489,-303,-43,421,43,-111
1,7074634,442,-1326,-921,-1489,-303,-43,421,43,-111
1,7074641,442,-1323,-919,-1485,-306,-40,421,43,-111
1,7074650,442,-1323,-919,-1485,-306,-40,421,43,-111
1,7074658,445,-1326,-915,-1480,-300,-37,421,43,-111
1,7074670,445,-1326,-915,-1480,-300,-37,421,43,-111
1,7074683,445,-1324,-917,-1482,-300,-38,421,43,-111
1,7074697,445,-1324,-917,-1482,-300,-38,426,36,-112
1,7074710,445,-1324,-917,-1482,-300,-38,426,36,-112
1,7074721,439,-1326,-914,-1492,-299,-39,426,36,-112
1,7074735,438,-1322,-913,-1491,-303,-34,426,36,-112
1,7074748,438,-1322,-913,-1491,-303,-34,426,36,-112
1,7074760,441,-1325,-917,-1483,-297,-38,426,36,-112
1,7074774,441,-1325,-917,-1483,-297,-38,426,36,-112
1,7074787,444,-1322,-919,-1487,-303,-44,426,36,-112
1,7074799,449,-1325,-920,-1483,-303,-35,426,36,-112
1,7074810,449,-1325,-920,-1483,-303,-35,426,36,-112
1,7074824,445,-1322,-916,-1489,-301,-36,426,38,-108
1,7074837,445,-1322,-916,-1489,-301,-36,426,38,-108
1,7074850,445,-1322,-916,-1489,-301,-36,426,38,-108
1,7074861,438,-1324,-920,-1488,-301,-37,426,38,-108
1,7074873,438,-1324,-920,-1488,-301,-37,426,38,-108
1,7074884,439,-1325,-915,-1485,-301,-42,426,38,-108
1,7074892,439,-1325,-915,-1485,-301,-42,426,38,-108
1,7074899,439,-1326,-919,-1489,-298,-40,426,38,-108
1,7074906,439,-1326,-919,-1489,-298,-40,426,38,-108
1,7074913,439,-1326,-919,-1489,-298,-40,426,38,-108
1,7074921,442,-1325,-915,-1486,-305,-39,426,38,-108
1,7074926,442,-1325,-915,-1486,-305,-39,426,38,-108
1,7074935,446,-1322,-915,-1488,-303,-39,428,34,-112
1,7074942,446,-1322,-915,-1488,-303,-39,428,34,-112
1,7074951,446,-1322,-915,-1488,-303,-39,428,34,-112
1,7074958,446,-1323,-914,-1485,-296,-49,428,34,-112
1,7074966,446,-1323,-914,-1485,-296,-49,428,34,-112
1,7074973,446,-1323,-914,-1485,-296,-49,428,34,-112
1,7074980,443,-1323,-914,-1489,-305,-43,428,34,-112
1,7074987,443,-1323,-914,-1489,-305,-43,428,34,-112
1,7074994,443,-1323,-914,-1489,-305,-43,428,34,-112
1,7075002,444,-1326,-917,-1476,-302,-38,428,34,-112
1,7075008,444,-1326,-917,-1476,-302,-38,428,34,-112
1,7075015,444,-1326,-917,-1476,-302,-38,428,34,-112
1,7075020,441,-1328,-917,-1484,-302,-42,428,34,-112
1,7075025,441,-1328,-917,-1484,-302,-42,428,34,-112
1,7075033,441,-1328,-917,-1484,-302,-42,428,34,-112
1,7075040,437,-1323,-913,-1489,-298,-49,428,34,-112
1,7075047,437,-1323,-913,-1489,-298,-49,428,34,-112
1,7075053,437,-1323,-913,-1489,-298,-49,428,34,-112
1,7075062,441,-1326,-915,-1483,-299,-42,428,34,-112
1,7075068,441,-1326,-915,-1483,-299,-42,428,34,-112
1,7075075,441,-1326,-915,-1483,-299,-42,428,34,-112
1,7075083,442,-1323,-914,-1479,-299,-45,432,18,-112
1,7075089,442,-1323,-914,-1479,-299,-45,432,18,-112
1,7075094,442,-1323,-914,-1479,-299,-45,432,18,-112
1,7075101,442,-1322,-917,-1479,-303,-42,432,18,-112
1,7075109,442,-1322,-917,-1479,-303,-42,432,18,-112
1,7075117,446,-1323,-913,-1482,-301,-49,432,18,-112
1,7075123,446,-1323,-913,-1482,-301,-49,432,18,-112
1,7075128,446,-1323,-913,-1482,-301,-49,432,18,-112
1,7075136,446,-1323,-913,-1482,-301,-49,432,18,-112
1,7075144,446,-1323,-913,-1482,-301,-49,432,18,-112
1,7075152,446,-1323,-913,-1482,-301,-49,432,18,-112
1,7075160,439,-1323,-914,-1486,-295,-36,432,18,-112
1,7075167,439,-1323,-914,-1486,-295,-36,432,18,-112
1,7075173,439,-1323,-914,-1486,-295,-36,432,18,-112
1,7075180,442,-1321,-916,-1487,-300,-35,432,18,-112
1,7075187,442,-1321,-916,-1487,-300,-35,432,18,-112
1,7075194,442,-1321,-916,-1487,-300,-35,432,18,-112
1,7075201,440,-1324,-912,-1483,-306,-41,433,29,-115
1,7075209,440,-1324,-912,-1483,-306,-41,433,29,-115
1,7075216,444,-1325,-914,-1483,-302,-41,433,29,-115
1,7075222,444,-1325,-914,-1483,-302,-41,433,29,-115
1,7075230,444,-1325,-914,-1483,-302,-41,433,29,-115
1,7075237,445,-1325,-915,-1482,-304,-39,433,29,-115
1,7075245,445,-1325,-915,-1482,-304,-39,433,29,-115
1,7075251,445,-1325,-915,-1482,-304,-39,433,29,-115
1,7075259,443,-1323,-917,-1488,-308,-43,433,29,-115
1,7075265,443,-1323,-917,-1488,-308,-43,433,29,-115
1,7075274,443,-1323,-917,-1488,-308,-43,433,29,-115
1,7075281,446,-1325,-918,-1484,-299,-34,433,29,-115
1,7075288,446,-1325,-918,-1484,-299,-34,433,29,-115
1,7075295,446,-1325,-918,-1484,-299,-34,433,29,-115
1,7075303,442,-1324,-916,-1488,-300,-36,433,29,-115
1,7075310,442,-1324,-916,-1488,-300,-36,433,29,-115
1,7075319,440,-1322,-911,-1486,-303,-40,429,35,-113
1,7075325,440,-1322,-911,-1486,-303,-40,429,35,-113
1,7075332,440,-1322,-911,-1486,-303,-40,429,35,-113
1,7075338,440,-1324,-912,-1484,-306,-32,429,35,-113
1,7075345,440,-1324,-912,-1484,-306,-32,429,35,-113
1,7075353,440,-1324,-912,-1484,-306,-32,429,35,-113
1,7075360,442,-1321,-917,-1483,-299,-33,429,35,-113
1,7075369,442,-1321,-917,-1483,-299,-33,429,35,-113
1,7075376,448,-1322,-918,-1484,-297,-36,429,35,-113
1,7075383,448,-1322,-918,-1484,-297,-36,429,35,-113
1,7075389,448,-1322,-918,-1484,-297,-36,429,35,-113
1,7075396,446,-1322,-924,-1494,-307,-48,429,35,-113
1,7075404,446,-1322,-924,-1494,-307,-48,429,35,-113
1,7075409,446,-1322,-924,-1494,-307,-48,429,35,-113
1,7075415,446,-1322,-924,-1494,-307,-48,429,35,-113
1,7075420,445,-1324,-917,-1490,-298,-44,429,35,-113
1,7075425,445,-1324,-917,-1490,-298,-44,429,35,-113
1,7075431,445,-1324,-917,-1490,-298,-44,429,35,-113
1,7075436,444,-1325,-914,-1482,-300,-43,429,25,-113
1,7075441,444,-1325,-914,-1482,-300,-43,429,25,-113
1,7075446,444,-1325,-914,-1482,-300,-43,429,25,-113
1,7075454,444,-1325,-914,-1482,-300,-43,429,25,-113
1,7075462,439,-1325,-918,-1490,-302,-36,429,25,-113
1,7075467,439,-1325,-918,-1490,-302,-36,429,25,-113
1,7075475,439,-1325,-918,-1490,-302,-36,429,25,-113
1,7075480,438,-1325,-917,-1489,-300,-44,429,25,-113
1,7075487,438,-1325,-917,-1489,-300,-44,429,25,-113
1,7075495,443,-1325,-919,-1485,-303,-43,429,25,-113
1,7075503,443,-1325,-919,-1485,-303,-43,429,25,-113
1,7075509,443,-1325,-919,-1485,-303,-43,429,25,-113
1,7075516,448,-1324,-914,-1482,-301,-43,429,25,-113
1,7075523,448,-1324,-914,-1482,-301,-43,429,25,-113
1,7075529,448,-1324,-914,-1482,-301,-43,429,25,-113
1,7075534,448,-1324,-914,-1482,-301,-43,429,25,-113
1,7075540,446,-1324,-918,-1485,-296,-41,429,25,-113
1,7075546,446,-1324,-918,-1485,-296,-41,429,25,-113
1,7075553,446,-1324,-918,-1485,-296,-41,429,25,-113
1,7075559,445,-1320,-916,-1484,-308,-46,429,25,-113
1,7075566,445,-1320,-916,-1484,-308,-46,429,25,-113
1,7075573,445,-1320,-916,-1484,-308,-46,429,25,-113
1,7075579,445,-1322,-917,-1481,-297,-45,434,32,-106
1,7075588,445,-1322,-917,-1481,-297,-45,434,32,-106
1,7075594,445,-1322,-917,-1481,-297,-45,434,32,-106
1,7075601,441,-1324,-920,-1490,-302,-47,434,32,-106
1,7075608,441,-1324,-920,-1490,-302,-47,434,32,-106
1,7075615,442,-1324,-916,-1487,-301,-48,434,32,-106
1,7075622,442,-1324,-916,-1487,-301,-48,434,32,-106
1,7075628,442,-1324,-916,-1487,-301,-48,434,32,-106
1,7075633,442,-1324,-916,-1487,-301,-48,434,32,-106
1,7075638,439,-1326,-917,-1482,-299,-44,434,32,-106
1,7075643,439,-1326,-917,-1482,-299,-44,434,32,-106
1,7075648,439,-1326,-917,-1482,-299,-44,434,32,-106
1,7075653,439,-1326,-917,-1482,-299,-44,434,32,-106
1,7075659,440,-1326,-919,-1491,-301,-42,434,32,-106
1,7075667,440,-1326,-919,-1491,-301,-42,434,32,-106
1,7075674,440,-1326,-919,-1491,-301,-42,434,32,-106
1,7075683,442,-1325,-919,-1495,-307,-44,434,32,-106
1,7075689,442,-1325,-919,-1495,-307,-44,434,32,-106
1,7075695,447,-1324,-914,-1486,-301,-45,434,32,-106
1,7075703,447,-1324,-914,-1486,-301,-45,429,37,-117
1,7075709,447,-1324,-914,-1486,-301,-45,429,37,-117
1,7075715,447,-1324,-914,-1486,-301,-45,429,37,-117
1,7075723,447,-1326,-918,-1488,-302,-40,429,37,-117
1,7075732,447,-1326,-918,-1488,-302,-40,429,37,-117
1,7075739,442,-1325,-921,-1487,-307,-44,429,37,-117
1,7075745,442,-1325,-921,-1487,-307,-44,429,37,-117
1,7075753,442,-1325,-921,-1487,-307,-44,429,37,-117
1,7075760,443,-1325,-917,-1491,-310,-47,429,37,-117
1,7075768,443,-1325,-917,-1491,-310,-47,429,37,-117
1,7075774,443,-1325,-917,-1491,-310,-47,429,37,-117
1,7075781,441,-1323,-915,-1489,-302,-40,429,37,-117
1,7075788,441,-1323,-915,-1489,-302,-40,429,37,-117
1,7075798,437,-1326,-923,-1492,-307,-42,429,37,-117
1,7075805,437,-1326,-923,-1492,-307,-42,429,37,-117
1,7075813,437,-1326,-923,-1492,-307,-42,429,37,-117
1,7075820,444,-1323,-913,-1491,-308,-42,425,37,-117
1,7075828,444,-1323,-913,-1491,-308,-42,425,37,-117
1,7075834,444,-1323,-913,-1491,-308,-42,425,37,-117
1,7075841,444,-1327,-916,-1496,-301,-41,425,37,-117
1,7075848,444,-1327,-916,-1496,-301,-41,425,37,-117
1,7075856,442,-1321,-915,-1495,-306,-42,425,37,-117
1,7075863,442,-1321,-915,-1495,-306,-42,425,37,-117
1,7075872,442,-1321,-915,-1495,-306,-42,425,37,-117
1,7075879,441,-1320,-914,-1483,-303,-41,425,37,-117
1,7075885,441,-1320,-914,-1483,-303,-41,425,37,-117
1,7075896,441,-1324,-918,-1480,-305,-47,425,37,-117
1,7075909,441,-1324,-918,-1480,-305,-47,425,37,-117
1,7075918,439,-1324,-918,-1484,-304,-43,425,37,-117
1,7075931,439,-1324,-918,-1484,-304,-43,425,37,-117
1,7075944,441,-1324,-918,-1488,-299,-46,429,31,-107
1,7075957,443,-1323,-919,-1490,-303,-47,429,31,-107
1,7075968,443,-1323,-919,-1490,-303,-47,429,31,-107
1,7075981,439,-1326,-925,-1480,-305,-43,429,31,-107
1,7075995,439,-1326,-925,-1480,-305,-43,429,31,-107
1,7076008,446,-1325,-915,-1484,-301,-40,429,31,-107
1,7076018,445,-1326,-921,-1484,-306,-43,429,31,-107
1,7076030,445,-1326,-921,-1484,-306,-43,429,31,-107
1,7076041,444,-1324,-917,-1490,-305,-44,429,31,-107
1,7076055,444,-1324,-917,-1490,-305,-44,429,31,-107
1,7076066,440,-1325,-915,-1482,-304,-51,426,32,-110
1,7076080,438,-1325,-916,-1482,-293,-45,426,32,-110
1,7076092,438,-1325,-916,-1482,-293,-45,426,32,-110
1,7076105,443,-1325,-920,-1483,-307,-42,426,32,-110
1,7076119,445,-1322,-917,-1493,-306,-41,426,32,-110
1,7076131,445,-1322,-917,-1493,-306,-41,426,32,-110
1,7076144,444,-1324,-921,-1493,-307,-42,426,32,-110
1,7076153,444,-1324,-921,-1493,-307,-42,426,32,-110
1,7076160,444,-1324,-922,-1489,-306,-38,426,32,-110
1,7076168,444,-1324,-922,-1489,-306,-38,426,32,-110
1,7076176,440,-1326,-914,-1482,-298,-42,426,32,-110
1,7076186,440,-1326,-914,-1482,-298,-42,426,32,-110
1,7076199,440,-1325,-916,-1485,-298,-38,427,33,-107
1,7076212,440,-1325,-916,-1485,-298,-38,427,33,-107
1,7076227,439,-1324,-921,-1484,-298,-45,427,33,-107
1,7076237,440,-1323,-922,-1481,-300,-46,427,33,-107
1,7076248,440,-1323,-922,-1481,-300,-46,427,33,-107
1,7076260,440,-1325,-916,-1482,-298,-42,427,33,-107
1,7076272,440,-1325,-916,-1482,-298,-42,427,33,-107
1,7076285,442,-1324,-921,-1482,-305,-41,427,33,-107
1,7076299,442,-1324,-921,-1482,-305,-41,427,33,-107
1,7076312,442,-1324,-921,-1482,-305,-41,427,33,-107
1,7076325,447,-1325,-919,-1484,-306,-45,429,41,-111
1,7076338,444,-1324,-912,-1487,-299,-36,429,41,-111
1,7076352,444,-1324,-912,-1487,-299,-36,429,41,-111
1,7076364,440,-1323,-919,-1489,-299,-36,429,41,-111
1,7076376,439,-1325,-918,-1488,-298,-44,429,41,-111
1,7076389,439,-1325,-918,-1488,-298,-44,429,41,-111
1,7076402,440,-1323,-916,-1483,-298,-40,429,41,-111
1,7076410,440,-1323,-916,-1483,-298,-40,429,41,-111
1,7076419,439,-1324,-919,-1482,-293,-39,429,41,-111
1,7076426,439,-1324,-919,-1482,-293,-39,429,41,-111
1,7076434,439,-1324,-919,-1482,-293,-39,429,41,-111
1,7076443,445,-1325,-914,-1486,-291,-40,422,30,-106
1,7076451,445,-1325,-914,-1486,-291,-40,422,30,-106
1,7076458,443,-1324,-917,-1490,-299,-36,422,30,-106
1,7076467,443,-1324,-917,-1490,-299,-36,422,30,-106
1,7076475,442,-1323,-920,-1486,-305,-35,422,30,-106
1,7076484,442,-1323,-920,-1486,-305,-35,422,30,-106
1,7076491,442,-1323,-920,-1486,-305,-35,422,30,-106
1,7076499,443,-1326,-918,-1487,-301,-41,422,30,-106
1,7076509,443,-1326,-918,-1487,-301,-41,422,30,-106
1,7076519,441,-1325,-918,-1492,-298,-42,422,30,-106
1,7076530,441,-1325,-918,-1492,-298,-42,422,30,-106
1,7076538,440,-1323,-919,-1492,-302,-43,422,30,-106
1,7076548,440,-1323,-919,-1492,-302,-43,422,30,-106
1,7076557,443,-1323,-916,-1485,-304,-38,427,35,-115
1,7076567,443,-1323,-916,-1485,-304,-38,427,35,-115
1,7076580,443,-1323,-918,-1487,-301,-42,427,35,-115
1,7076589,443,-1323,-918,-1487,-301,-42,427,35,-115
1,7076601,447,-1325,-912,-1490,-305,-44,427,35,-115
1,7076615,447,-1325,-912,-1490,-305,-44,427,35,-115
1,7076625,442,-1325,-919,-1488,-303,-45,427,35,-115
1,7076634,442,-1325,-919,-1488,-303,-45,427,35,-115
1,7076642,443,-1325,-916,-1491,-298,-42,427,35,-115
1,7076651,443,-1325,-916,-1491,-298,-42,427,35,-115
1,7076659,440,-1327,-918,-1493,-306,-37,427,35,-115
1,7076670,440,-1327,-918,-1493,-306,-37,427,35,-115
1,7076683,443,-1324,-916,-1488,-299,-35,427,35,-115
1,7076696,445,-1327,-919,-1484,-304,-30,427,35,-115
1,7076705,445,-1327,-919,-1484,-304,-30,427,37,-111
1,7076717,443,-1324,-921,-1487,-304,-38,427,37,-111
1,7076730,443,-1324,-921,-1487,-304,-38,427,37,-111
1,7076743,443,-1324,-918,-1485,-299,-41,427,37,-111
1,7076754,443,-1324,-918,-1485,-299,-41,427,37,-111
1,7076768,443,-1326,-923,-1486,-296,-30,427,37,-111
1,7076781,439,-1325,-921,-1475,-299,-36,427,37,-111
1,7076793,439,-1325,-921,-1475,-299,-36,427,37,-111
1,7076805,439,-1325,-921,-1475,-299,-36,427,37,-111
1,7076815,439,-1325,-914,-1485,-301,-39,427,37,-111
1,7076825,439,-1325,-914,-1485,-301,-39,420,34,-102
1,7076832,439,-1325,-914,-1485,-301,-39,420,34,-102
1,7076840,442,-1325,-918,-1488,-304,-43,420,34,-102
1,7076849,442,-1325,-918,-1488,-304,-43,420,34,-102
1,7076857,442,-1326,-921,-1490,-306,-37,420,34,-102
1,7076870,442,-1326,-921,-1490,-306,-37,420,34,-102
1,7076884,444,-1325,-921,-1489,-304,-41,420,34,-102
1,7076897,443,-1324,-921,-1491,-305,-39,420,34,-102
1,7076904,443,-1324,-921,-1491,-305,-39,420,34,-102
1,7076913,443,-1324,-921,-1491,-305,-39,420,34,-102
1,7076920,439,-1326,-919,-1489,-304,-33,420,34,-102
1,7076927,439,-1326,-919,-1489,-304,-33,420,34,-102
1,7076933,439,-1326,-919,-1489,-304,-33,420,34,-102
1,7076940,442,-1324,-914,-1492,-300,-34,426,34,-104
1,7076947,442,-1324,-914,-1492,-300,-34,426,34,-104
1,7076954,442,-1324,-914,-1492,-300,-34,426,34,-104
1,7076962,443,-1326,-915,-1487,-305,-42,426,34,-104
1,7076970,443,-1326,-915,-1487,-305,-42,426,34,-104
1,7076977,442,-1322,-918,-1485,-303,-40,426,34,-104
1,7076984,442,-1322,-918,-1485,-303,-40,426,34,-104
1,7076992,442,-1322,-918,-1485,-303,-40,426,34,-104
1,7076999,444,-1322,-917,-1489,-304,-45,426,34,-104
1,7077005,444,-1322,-917,-1489,-304,-45,426,34,-104
1,7077012,444,-1322,-917,-1489,-304,-45,426,34,-104
1,7077020,444,-1325,-920,-1485,-309,-41,426,34,-104
1,7077026,444,-1325,-920,-1485,-309,-41,426,34,-104
1,7077033,444,-1325,-920,-1485,-309,-41,426,34,-104
1,7077041,445,-1323,-919,-1480,-298,-40,426,34,-104
1,7077049,445,-1323,-919,-1480,-298,-40,426,34,-104
1,7077054,445,-1323,-919,-1480,-298,-40,426,34,-104
1,7077062,440,-1328,-912,-1480,-296,-40,417,33,-105
1,7077070,440,-1328,-912,-1480,-296,-40,417,33,-105
1,7077079,441,-1324,-911,-1484,-304,-40,417,33,-105
1,7077086,441,-1324,-911,-1484,-304,-40,417,33,-105
1,7077092,441,-1324,-911,-1484,-304,-40,417,33,-105
1,7077098,438,-1327,-918,-1488,-307,-36,417,33,-105
1,7077104,438,-1327,-918,-1488,-307,-36,417,33,-105
1,7077113,438,-1327,-918,-1488,-307,-36,417,33,-105
1,7077121,444,-1323,-915,-1491,-300,-41,417,33,-105
1,7077128,444,-1323,-915,-1491,-300,-41,417,33,-105
1,7077135,444,-1323,-915,-1491,-300,-41,417,33,-105
1,7077142,444,-1323,-918,-1491,-294,-39,417,33,-105
1,7077148,444,-1323,-918,-1491,-294,-39,417,33,-105
1,7077155,444,-1323,-918,-1491,-294,-39,417,33,-105
1,7077163,444,-1324,-919,-1484,-301,-38,417,33,-105
1,7077171,444,-1324,-919,-1484,-301,-38,417,33,-105
1,7077178,443,-1322,-915,-1483,-305,-43,432,28,-106
1,7077185,443,-1322,-915,-1483,-305,-43,432,28,-106
1,7077192,443,-1322,-915,-1483,-305,-43,432,28,-106
1,7077199,441,-1323,-917,-1493,-307,-46,432,28,-106
1,7077206,441,-1323,-917,-1493,-307,-46,432,28,-106
1,7077213,441,-1323,-917,-1493,-307,-46,432,28,-106
1,7077221,443,-1326,-918,-1492,-301,-47,432,28,-106
1,7077227,443,-1326,-918,-1492,-301,-47,432,28,-106
1,7077235,443,-1326,-918,-1492,-301,-47,432,28,-106
1,7077242,440,-1326,-915,-1488,-301,-44,432,28,-106
1,7077250,440,-1326,-915,-1488,-301,-44,432,28,-106
1,7077256,440,-1326,-915,-1488,-301,-44,432,28,-106
1,7077264,439,-1323,-915,-1487,-305,-42,432,28,-106
1,7077272,439,-1323,-915,-1487,-305,-42,432,28,-106
1,7077280,441,-1325,-916,-1489,-301,-33,432,28,-106
1,7077288,441,-1325,-916,-1489,-301,-33,432,28,-106
1,7077296,441,-1325,-916,-1489,-301,-33,432,28,-106
1,7077303,444,-1324,-913,-1492,-306,-33,432,28,-106
1,7077308,444,-1324,-913,-1492,-306,-33,432,28,-106
1,7077315,444,-1324,-913,-1492,-306,-33,432,28,-106
1,7077322,445,-1323,-912,-1491,-295,-40,418,36,-108
1,7077330,445,-1323,-912,-1491,-295,-40,418,36,-108
1,7077338,445,-1322,-918,-1493,-296,-35,418,36,-108
1,7077346,445,-1322,-918,-1493,-296,-35,418,36,-108
1,7077353,445,-1322,-918,-1493,-296,-35,418,36,-108
1,7077361,443,-1326,-917,-1482,-303,-32,418,36,-108
1,7077367,443,-1326,-917,-1482,-303,-32,418,36,-108
1,7077373,443,-1326,-917,-1482,-303,-32,418,36,-108
1,7077381,439,-1323,-917,-1483,-302,-45,418,36,-108
1,7077389,439,-1323,-917,-1483,-302,-45,418,36,-108
1,7077396,440,-1327,-919,-1482,-300,-45,418,36,-108
1,7077402,440,-1327,-919,-1482,-300,-45,418,36,-108
1,7077407,440,-1327,-919,-1482,-300,-45,418,36,-108
1,7077413,440,-1327,-919,-1482,-300,-45,418,36,-108
1,7077420,443,-1324,-920,-1483,-303,-44,418,36,-108
1,7077425,443,-1324,-920,-1483,-303,-44,418,36,-108
1,7077430,443,-1324,-920,-1483,-303,-44,418,36,-108
1,7077436,440,-1325,-915,-1482,-300,-40,418,36,-108
1,7077441,440,-1325,-915,-1482,-300,-40,429,31,-111
1,7077446,440,-1325,-915,-1482,-300,-40,429,31,-111
1,7077451,440,-1325,-915,-1482,-300,-40,429,31,-111
1,7077457,444,-1325,-920,-1481,-297,-35,429,31,-111
1,7077464,444,-1325,-920,-1481,-297,-35,429,31,-111
1,7077471,444,-1325,-920,-1481,-297,-35,429,31,-111
1,7077477,444,-1325,-921,-1486,-295,-43,429,31,-111
1,7077486,444,-1325,-921,-1486,-295,-43,429,31,-111
1,7077490,444,-1325,-921,-1486,-295,-43,429,31,-111
1,7077498,440,-1325,-919,-1486,-292,-45,429,31,-111
1,7077506,440,-1325,-919,-1486,-292,-45,429,31,-111
1,7077514,440,-1325,-919,-1486,-292,-45,429,31,-111
1,7077520,445,-1323,-915,-1484,-299,-44,429,31,-111
1,7077525,445,-1323,-915,-1484,-299,-44,429,31,-111
1,7077532,445,-1323,-915,-1484,-299,-44,429,31,-111
1,7077538,443,-1324,-919,-1482,-293,-44,429,31,-111
1,7077543,443,-1324,-919,-1482,-293,-44,429,31,-111
1,7077552,443,-1324,-919,-1482,-293,-44,429,31,-111
1,7077557,439,-1325,-917,-1487,-304,-41,426,30,-112
1,7077564,439,-1325,-917,-1487,-304,-41,426,30,-112
1,7077572,439,-1325,-917,-1487,-304,-41,426,30,-112
1,7077579,439,-1324,-914,-1482,-302,-44,426,30,-112
1,7077586,439,-1324,-914,-1482,-302,-44,426,30,-112
1,7077594,439,-1324,-914,-1482,-302,-44,426,30,-112
1,7077600,442,-1325,-923,-1483,-301,-43,426,30,-112
1,7077607,442,-1325,-923,-1483,-301,-43,426,30,-112
1,7077615,442,-1325,-923,-1483,-301,-43,426,30,-112
1,7077623,445,-1326,-917,-1487,-302,-42,426,30,-112
1,7077628,445,-1326,-917,-1487,-302,-42,426,30,-112
1,7077634,445,-1326,-917,-1487,-302,-42,426,30,-112
1,7077639,444,-1323,-914,-1487,-302,-42,426,30,-112
1,7077644,444,-1323,-914,-1487,-302,-42,426,30,-112
1,7077649,444,-1323,-914,-1487,-302,-42,426,30,-112
1,7077655,444,-1323,-914,-1487,-302,-42,426,30,-112
1,7077661,443,-1325,-917,-1485,-301,-37,426,30,-112
1,7077668,443,-1325,-917,-1485,-301,-37,426,30,-112
1,7077676,442,-1325,-914,-1487,-301,-43,426,30,-112
1,7077683,442,-1325,-914,-1487,-301,-43,430,34,-112
1,7077689,442,-1325,-914,-1487,-301,-43,430,34,-112
1,7077698,440,-1322,-916,-1490,-300,-41,430,34,-112
1,7077705,440,-1322,-916,-1490,-300,-41,430,34,-112
1,7077712,440,-1322,-916,-1490,-300,-41,430,34,-112
1,7077721,441,-1326,-916,-1490,-298,-39,430,34,-112
1,7077728,441,-1326,-916,-1490,-298,-39,430,34,-112
1,7077735,441,-1326,-916,-1490,-298,-39,430,34,-112
1,7077743,443,-1325,-920,-1490,-297,-39,430,34,-112
1,7077750,443,-1325,-920,-1490,-297,-39,430,34,-112
1,7077757,444,-1327,-920,-1488,-297,-35,430,34,-112
1,7077766,444,-1327,-920,-1488,-297,-35,430,34,-112
1,7077773,444,-1327,-920,-1488,-297,-35,430,34,-112
1,7077782,440,-1322,-919,-1488,-302,-40,430,34,-112
1,7077789,440,-1322,-919,-1488,-302,-40,430,34,-112
1,7077795,440,-1322,-919,-1488,-302,-40,430,34,-112
1,7077801,442,-1325,-918,-1486,-303,-37,430,34,-112
1,7077811,442,-1325,-918,-1486,-303,-37,430,34,-112
1,7077817,442,-1327,-917,-1491,-304,-42,426,32,-110
1,7077825,442,-1327,-917,-1491,-304,-42,426,32,-110
1,7077832,442,-1327,-917,-1491,-304,-42,426,32,-110
1,7077840,442,-1326,-919,-1487,-301,-37,426,32,-110
1,7077848,442,-1326,-919,-1487,-301,-37,426,32,-110
1,7077854,442,-1326,-919,-1487,-301,-37,426,32,-110
1,7077859,442,-1326,-914,-1484,-301,-42,426,32,-110
1,7077867,442,-1326,-914,-1484,-301,-42,426,32,-110
1,7077875,442,-1326,-914,-1484,-301,-42,426,32,-110
1,7077882,439,-1323,-920,-1484,-305,-38,426,32,-110
1,7077891,439,-1323,-920,-1484,-305,-38,426,32,-110
1,7077898,442,-1324,-920,-1486,-305,-41,426,32,-110
1,7077905,442,-1324,-920,-1486,-305,-41,426,32,-110
1,7077916,442,-1324,-920,-1486,-305,-41,426,32,-110
1,7077926,445,-1324,-919,-1491,-297,-39,426,32,-110
1,7077940,444,-1323,-912,-1487,-299,-37,423,27,-109
1,7077953,444,-1323,-912,-1487,-299,-37,423,27,-109
1,7077962,443,-1328,-919,-1484,-300,-41,423,27,-109
1,7077975,443,-1328,-919,-1484,-300,-41,423,27,-109
1,7077989,445,-1325,-916,-1484,-305,-42,423,27,-109
1,7078003,442,-1328,-917,-1488,-306,-37,423,27,-109
1,7078012,442,-1328,-917,-1488,-306,-37,423,27,-109
1,7078025,437,-1325,-923,-1497,-301,-38,423,27,-109
1,7078038,441,-1326,-919,-1491,-301,-33,423,27,-109
1,7078051,441,-1326,-919,-1491,-301,-33,423,27,-109
1,7078062,444,-1327,-920,-1484,-302,-36,422,24,-114
1,7078076,444,-1327,-920,-1484,-302,-36,422,24,-114
1,7078088,441,-1325,-919,-1481,-302,-42,422,24,-114
1,7078102,446,-1323,-920,-1486,-300,-40,422,24,-114
1,7078112,446,-1323,-920,-1486,-300,-40,422,24,-114
1,7078124,443,-1324,-919,-1487,-299,-41,422,24,-114
1,7078133,443,-1324,-919,-1487,-299,-41,422,24,-114
1,7078141,445,-1322,-916,-1485,-301,-42,422,24,-114
1,7078154,445,-1322,-916,-1485,-301,-42,422,24,-114
1,7078168,442,-1323,-917,-1484,-306,-41,422,24,-114
1,7078179,442,-1326,-915,-1483,-297,-38,426,30,-102
1,7078191,442,-1326,-915,-1483,-297,-38,426,30,-102
1,7078206,442,-1328,-917,-1487,-302,-40,426,30,-102
1,7078219,442,-1325,-916,-1493,-302,-42,426,30,-102
1,7078230,442,-1325,-916,-1493,-302,-42,426,30,-102
1,7078243,443,-1326,-919,-1490,-302,-37,426,30,-102
1,7078256,442,-1324,-917,-1489,-294,-35,426,30,-102
1,7078270,442,-1324,-917,-1489,-294,-35,426,30,-102
1,7078281,444,-1325,-920,-1492,-303,-32,426,30,-102
1,7078293,444,-1325,-920,-1492,-303,-32,426,30,-102
1,7078306,442,-1323,-920,-1493,-303,-34,426,30,-102
1,7078320,440,-1324,-914,-1496,-307,-35,431,33,-105
1,7078330,440,-1324,-914,-1496,-307,-35,431,33,-105
1,7078342,443,-1324,-916,-1496,-306,-44,431,33,-105
1,7078353,443,-1324,-916,-1496,-306,-44,431,33,-105
1,7078366,441,-1326,-918,-1489,-309,-43,431,33,-105
1,7078378,442,-1326,-917,-1493,-312,-44,431,33,-105
1,7078392,442,-1326,-917,-1493,-312,-44,431,33,-105
1,7078405,443,-1325,-920,-1486,-309,-35,431,33,-105
1,7078413,443,-1325,-920,-1486,-309,-35,431,33,-105
1,7078422,442,-1326,-916,-1495,-302,-38,431,33,-105
1,7078430,442,-1326,-916,-1495,-302,-38,431,33,-105
1,7078438,447,-1324,-916,-1488,-299,-38,416,36,-118
1,7078447,447,-1324,-916,-1488,-299,-38,416,36,-118
1,7078455,447,-1324,-916,-1488,-299,-38,416,36,-118
1,7078463,441,-1324,-918,-1487,-300,-40,416,36,-118
1,7078471,441,-1324,-918,-1487,-300,-40,416,36,-118
1,7078478,440,-1325,-915,-1482,-304,-39,416,36,-118
1,7078487,440,-1325,-915,-1482,-304,-39,416,36,-118
1,7078495,440,-1325,-915,-1482,-304,-39,416,36,-118
1,7078503,440,-1325,-920,-1487,-300,-42,416,36,-118
1,7078511,440,-1325,-920,-1487,-300,-42,416,36,-118
1,7078520,440,-1323,-920,-1483,-300,-38,416,36,-118
1,7078530,440,-1323,-920,-1483,-300,-38,416,36,-118
1,7078542,445,-1324,-920,-1486,-307,-40,416,36,-118
1,7078553,445,-1324,-920,-1486,-307,-40,416,36,-118
1,7078564,443,-1325,-917,-1477,-306,-38,423,31,-103
1,7078577,444,-1327,-918,-1480,-300,-39,423,31,-103
1,7078590,444,-1327,-918,-1480,-300,-39,423,31,-103
1,7078602,439,-1327,-920,-1483,-302,-41,423,31,-103
1,7078614,439,-1327,-920,-1483,-302,-41,423,31,-103
1,7078625,443,-1326,-912,-1480,-303,-40,423,31,-103
1,7078634,443,-1326,-912,-1480,-303,-40,423,31,-103
1,7078642,443,-1324,-919,-1479,-303,-37,423,31,-103
1,7078651,443,-1324,-919,-1479,-303,-37,423,31,-103
1,7078660,440,-1326,-918,-1487,-302,-39,423,31,-103
1,7078669,440,-1326,-918,-1487,-302,-39,423,31,-103
1,7078677,442,-1324,-920,-1486,-307,-46,424,30,-110
1,7078685,442,-1324,-920,-1486,-307,-46,424,30,-110
1,7078694,442,-1324,-920,-1486,-307,-46,424,30,-110
1,7078706,443,-1324,-915,-1490,-303,-38,424,30,-110
1,7078716,445,-1328,-913,-1490,-301,-33,424,30,-110
1,7078730,445,-1328,-913,-1490,-301,-33,424,30,-110
1,7078742,441,-1324,-915,-1485,-303,-37,424,30,-110
1,7078755,441,-1324,-915,-1485,-303,-37,424,30,-110
1,7078766,444,-1324,-917,-1491,-303,-46,424,30,-110
1,7078779,442,-1325,-917,-1500,-308,-37,424,30,-110
1,7078792,442,-1325,-917,-1500,-308,-37,424,30,-110
1,7078801,442,-1325,-920,-1495,-302,-40,429,27,-109
1,7078812,442,-1325,-920,-1495,-302,-40,429,27,-109
1,7078827,443,-1326,-913,-1489,-301,-46,429,27,-109
1,7078839,442,-1325,-914,-1491,-297,-44,429,27,-109
1,7078849,442,-1325,-914,-1491,-297,-44,429,27,-109
1,7078863,443,-1322,-914,-1491,-298,-42,429,27,-109
1,7078876,443,-1322,-914,-1491,-298,-42,429,27,-109
1,7078888,441,-1323,-915,-1492,-304,-40,429,27,-109
1,7078899,442,-1324,-917,-1480,-304,-34,429,27,-109
1,7078908,442,-1324,-917,-1480,-304,-34,429,27,-109
1,7078917,440,-1324,-920,-1484,-309,-44,429,27,-109
1,7078924,440,-1324,-920,-1484,-309,-44,429,27,-109
1,7078932,440,-1324,-920,-1484,-309,-44,429,27,-109
1,7078938,442,-1327,-914,-1482,-306,-46,428,32,-108
1,7078944,442,-1327,-914,-1482,-306,-46,428,32,-108
1,7078951,442,-1327,-914,-1482,-306,-46,428,32,-108
1,7078959,444,-1326,-919,-1484,-298,-39,428,32,-108
1,7078967,444,-1326,-919,-1484,-298,-39,428,32,-108
1,7078974,444,-1326,-919,-1484,-298,-39,428,32,-108
1,7078982,444,-1322,-919,-1484,-303,-47,428,32,-108
1,7078989,444,-1322,-919,-1484,-303,-47,428,32,-108
1,7078996,444,-1322,-919,-1484,-303,-47,428,32,-108
1,7079003,446,-1324,-916,-1484,-304,-37,428,32,-108
1,7079010,446,-1324,-916,-1484,-304,-37,428,32,-108
1,7079017,445,-1323,-918,-1482,-303,-45,428,32,-108
1,7079023,445,-1323,-918,-1482,-303,-45,428,32,-108
1,7079030,445,-1323,-918,-1482,-303,-45,428,32,-108
1,7079038,441,-1325,-916,-1488,-305,-35,428,32,-108
1,7079047,441,-1325,-916,-1488,-305,-35,428,32,-108
1,7079056,441,-1325,-916,-1488,-305,-35,428,32,-108
1,7079064,439,-1324,-916,-1484,-301,-41,424,30,-108
1,7079071,439,-1324,-916,-1484,-301,-41,424,30,-108
1,7079079,442,-1323,-914,-1484,-302,-42,424,30,-108
1,7079087,442,-1323,-914,-1484,-302,-42,424,30,-108
1,7079094,442,-1323,-914,-1484,-302,-42,424,30,-108
1,7079100,444,-1324,-922,-1491,-303,-35,424,30,-108
1,7079107,444,-1324,-922,-1491,-303,-35,424,30,-108
1,7079114,444,-1324,-922,-1491,-303,-35,424,30,-108
1,7079122,444,-1327,-916,-1498,-299,-40,424,30,-108
1,7079131,444,-1327,-916,-1498,-299,-40,424,30,-108
1,7079137,443,-1327,-917,-1488,-298,-43,424,30,-108
1,7079143,443,-1327,-917,-1488,-298,-43,424,30,-108
1,7079151,443,-1327,-917,-1488,-298,-43,424,30,-108
1,7079157,445,-1323,-918,-1486,-298,-37,424,30,-108
1,7079163,445,-1323,-918,-1486,-298,-37,424,30,-108
1,7079171,445,-1323,-918,-1486,-298,-37,424,30,-108
1,7079176,445,-1323,-918,-1486,-298,-37,424,30,-108
1,7079181,442,-1326,-914,-1484,-304,-43,423,33,-113
1,7079187,442,-1326,-914,-1484,-304,-43,423,33,-113
1,7079194,442,-1326,-914,-1484,-304,-43,423,33,-113
1,7079202,442,-1325,-919,-1486,-298,-39,423,33,-113
1,7079208,442,-1325,-919,-1486,-298,-39,423,33,-113
1,7079215,442,-1325,-919,-1486,-298,-39,423,33,-113
1,7079223,445,-1327,-927,-1489,-296,-47,423,33,-113
1,7079230,445,-1327,-927,-1489,-296,-47,423,33,-113
1,7079237,442,-1326,-923,-1488,-298,-49,423,33,-113
1,7079242,442,-1326,-923,-1488,-298,-49,423,33,-113
1,7079249,442,-1326,-923,-1488,-298,-49,423,33,-113
1,7079258,447,-1329,-922,-1488,-302,-44,423,33,-113
1,7079264,447,-1329,-922,-1488,-302,-44,423,33,-113
1,7079271,447,-1329,-922,-1488,-302,-44,423,33,-113
1,7079278,444,-1328,-918,-1485,-300,-43,423,33,-113
1,7079284,444,-1328,-918,-1485,-300,-43,423,33,-113
1,7079291,444,-1328,-918,-1485,-300,-43,423,33,-113
1,7079299,446,-1325,-918,-1485,-301,-44,426,38,-102
1,7079307,446,-1325,-918,-1485,-301,-44,426,38,-102
1,7079314,446,-1325,-918,-1485,-301,-44,426,38,-102
1,7079321,444,-1322,-918,-1489,-301,-35,426,38,-102
1,7079328,444,-1322,-918,-1489,-301,-35,426,38,-102
1,7079335,444,-1322,-918,-1489,-301,-35,426,38,-102
1,7079343,444,-1328,-918,-1491,-306,-43,426,38,-102
1,7079351,444,-1328,-918,-1491,-306,-43,426,38,-102
1,7079358,445,-1324,-914,-1486,-307,-44,426,38,-102
1,7079364,445,-1324,-914,-1486,-307,-44,426,38,-102
1,7079371,445,-1324,-914,-1486,-307,-44,426,38,-102
1,7079378,442,-1325,-917,-1486,-306,-42,426,38,-102
1,7079384,442,-1325,-917,-1486,-306,-42,426,38,-102
1,7079393,442,-1325,-917,-1486,-306,-42,426,38,-102
1,7079402,446,-1326,-918,-1487,-306,-45,426,38,-102
1,7079407,446,-1326,-918,-1487,-306,-45,426,38,-102
1,7079411,446,-1326,-918,-1487,-306,-45,426,38,-102
1,7079417,445,-1326,-920,-1492,-303,-46,426,38,-102
1,7079422,445,-1326,-920,-1492,-303,-46,426,38,-102
1,7079427,445,-1326,-920,-1492,-303,-46,426,38,-102
1,7079432,445,-1326,-920,-1492,-303,-46,426,38,-102
1,7079438,441,-1323,-918,-1488,-305,-39,424,32,-110
1,7079443,441,-1323,-918,-1488,-305,-39,424,32,-110
1,7079449,441,-1323,-918,-1488,-305,-39,424,32,-110
1,7079456,442,-1322,-919,-1488,-307,-46,424,32,-110
1,7079463,442,-1322,-919,-1488,-307,-46,424,32,-110
1,7079471,442,-1322,-919,-1488,-307,-46,424,32,-110
1,7079478,441,-1324,-916,-1490,-303,-35,424,32,-110
1,7079484,441,-1324,-916,-1490,-303,-35,424,32,-110
1,7079491,441,-1324,-916,-1490,-303,-35,424,32,-110
1,7079499,442,-1326,-919,-1485,-303,-38,424,32,-110
1,7079507,442,-1326,-919,-1485,-303,-38,424,32,-110
1,7079515,442,-1326,-919,-1485,-303,-38,424,32,-110
1,7079522,442,-1325,-917,-1483,-300,-43,424,32,-110
1,7079530,442,-1325,-917,-1483,-300,-43,424,32,-110
1,7079537,441,-1326,-919,-1483,-296,-46,424,32,-110
1,7079544,441,-1326,-919,-1483,-296,-46,424,32,-110
1,7079553,441,-1326,-919,-1483,-296,-46,424,32,-110
1,7079559,447,-1325,-915,-1484,-296,-47,431,29,-111
1,7079566,447,-1325,-915,-1484,-296,-47,431,29,-111
1,7079573,447,-1325,-915,-1484,-296,-47,431,29,-111
1,7079580,444,-1327,-917,-1488,-300,-36,431,29,-111
1,7079585,444,-1327,-917,-1488,-300,-36,431,29,-111
1,7079593,444,-1327,-917,-1488,-300,-36,431,29,-111
1,7079601,442,-1323,-912,-1490,-302,-45,431,29,-111
1,7079609,442,-1323,-912,-1490,-302,-45,431,29,-111
1,7079615,442,-1323,-912,-1490,-302,-45,431,29,-111
1,7079622,441,-1325,-920,-1487,-302,-36,431,29,-111
1,7079627,441,-1325,-920,-1487,-302,-36,431,29,-111
1,7079632,441,-1325,-920,-1487,-302,-36,431,29,-111
1,7079638,440,-1324,-921,-1480,-305,-36,431,29,-111
1,7079643,440,-1324,-921,-1480,-305,-36,431,29,-111
1,7079649,440,-1324,-921,-1480,-305,-36,431,29,-111
1,7079654,440,-1324,-921,-1480,-305,-36,431,29,-111
1,7079662,445,-1323,-921,-1486,-309,-38,431,29,-111
1,7079670,445,-1323,-921,-1486,-309,-38,431,29,-111
1,7079677,439,-1323,-918,-1486,-303,-43,430,30,-118
1,7079685,439,-1323,-918,-1486,-303,-43,430,30,-118
1,7079691,439,-1323,-918,-1486,-303,-43,430,30,-118
1,7079698,444,-1323,-917,-1474,-303,-37,430,30,-118
1,7079705,444,-1323,-917,-1474,-303,-37,430,30,-118
1,7079713,444,-1323,-917,-1474,-303,-37,430,30,-118
1,7079720,442,-1324,-920,-1487,-304,-44,430,30,-118
1,7079727,442,-1324,-920,-1487,-304,-44,430,30,-118
1,7079733,442,-1324,-920,-1487,-304,-44,430,30,-118
1,7079741,445,-1324,-919,-1488,-303,-39,430,30,-118
1,7079748,445,-1324,-919,-1488,-303,-39,430,30,-118
1,7079755,445,-1324,-919,-1488,-303,-39,430,30,-118
1,7079762,443,-1325,-917,-1481,-300,-44,430,30,-118
1,7079771,443,-1325,-917,-1481,-300,-44,430,30,-118
1,7079777,443,-1326,-920,-1490,-300,-37,430,30,-118
1,7079783,443,-1326,-920,-1490,-300,-37,430,30,-118
1,7079789,443,-1326,-920,-1490,-300,-37,430,30,-118
1,7079795,443,-1326,-920,-1490,-300,-37,430,30,-118
1,7079802,441,-1325,-916,-1494,-299,-36,420,28,-118
1,7079810,441,-1325,-916,-1494,-299,-36,420,28,-118
1,7079817,437,-1323,-919,-1484,-301,-44,420,28,-118
1,7079823,437,-1323,-919,-1484,-301,-44,420,28,-118
1,7079831,437,-1323,-919,-1484,-301,-44,420,28,-118
1,7079838,444,-1325,-916,-1488,-300,-40,420,28,-118
1,7079844,444,-1325,-916,-1488,-300,-40,420,28,-118
1,7079851,444,-1325,-916,-1488,-300,-40,420,28,-118
1,7079859,443,-1324,-919,-1483,-303,-47,420,28,-118
1,7079865,443,-1324,-919,-1483,-303,-47,420,28,-118
1,7079872,443,-1324,-919,-1483,-303,-47,420,28,-118
1,7079879,441,-1326,-923,-1485,-306,-48,420,28,-118
1,7079885,441,-1326,-923,-1485,-306,-48,420,28,-118
1,7079891,441,-1326,-923,-1485,-306,-48,420,28,-118
1,7079899,440,-1322,-918,-1484,-300,-43,420,28,-118
1,7079906,440,-1322,-918,-1484,-300,-43,420,28,-118
1,7079912,440,-1322,-918,-1484,-300,-43,420,28,-118
1,7079920,440,-1324,-919,-1485,-310,-46,425,31,-111
1,7079934,440,-1324,-919,-1485,-310,-46,425,31,-111
1,7079948,439,-1324,-912,-1488,-308,-41,425,31,-111
1,7079961,441,-1322,-919,-1482,-296,-42,425,31,-111
1,7079971,441,-1322,-919,-1482,-296,-42,425,31,-111
1,7079984,445,-1325,-921,-1488,-301,-49,425,31,-111
1,7079996,445,-1325,-921,-1488,-301,-49,425,31,-111
1,7080008,445,-1324,-922,-1491,-298,-44,425,31,-111
1,7080017,442,-1327,-919,-1500,-300,-42,425,31,-111
1,7080034,442,-1327,-919,-1500,-300,-42,425,31,-111
1,7080045,445,-1325,-921,-1484,-304,-38,425,31,-111
1,7080056,445,-1325,-921,-1484,-304,-38,425,31,-111
1,7080070,441,-1324,-917,-1484,-307,-37,431,31,-111
1,7080084,440,-1327,-916,-1483,-308,-36,431,31,-111
1,7080093,440,-1327,-916,-1483,-308,-36,431,31,-111
1,7080103,436,-1324,-918,-1484,-301,-39,431,31,-111
1,7080118,441,-1323,-913,-1482,-298,-34,431,31,-111
1,7080131,441,-1323,-913,-1482,-298,-34,431,31,-111
1,7080140,442,-1325,-920,-1477,-307,-37,431,31,-111
1,7080151,442,-1325,-920,-1477,-307,-37,431,31,-111
1,7080164,446,-1325,-918,-1482,-305,-46,431,31,-111
1,7080177,446,-1325,-914,-1484,-305,-42,426,34,-108
1,7080189,446,-1325,-914,-1484,-305,-42,426,34,-108
1,7080202,441,-1324,-920,-1486,-307,-42,426,34,-108
1,7080213,441,-1324,-920,-1486,-307,-42,426,34,-108
1,7080225,439,-1323,-919,-1493,-304,-46,426,34,-108
1,7080238,442,-1322,-918,-1492,-301,-32,426,34,-108
1,7080252,442,-1322,-918,-1492,-301,-32,426,34,-108
1,7080264,437,-1329,-919,-1494,-306,-31,426,34,-108
1,7080275,437,-1329,-919,-1494,-306,-31,426,34,-108
1,7080289,442,-1325,-923,-1490,-303,-45,426,34,-108
1,7080302,445,-1325,-917,-1486,-302,-47,433,39,-113
1,7080314,445,-1325,-917,-1486,-302,-47,433,39,-113
1,7080323,447,-1324,-918,-1485,-297,-43,433,39,-113
1,7080331,447,-1324,-918,-1485,-297,-43,433,39,-113
1,7080339,441,-1323,-921,-1484,-298,-42,433,39,-113
1,7080347,441,-1323,-921,-1484,-298,-42,433,39,-113
1,7080357,441,-1326,-923,-1485,-303,-42,433,39,-113
1,7080371,441,-1326,-923,-1485,-303,-42,433,39,-113
1,7080385,441,-1324,-918,-1488,-305,-42,433,39,-113
1,7080398,437,-1325,-919,-1488,-295,-37,433,39,-113
1,7080408,437,-1325,-919,-1488,-295,-37,433,39,-113
1,7080416,437,-1325,-919,-1488,-295,-37,433,39,-113
1,7080424,441,-1322,-919,-1481,-299,-34,421,43,-103
1,7080432,441,-1322,-919,-1481,-299,-34,421,43,-103
1,7080440,444,-1323,-922,-1489,-300,-43,421,43,-103
1,7080449,444,-1323,-922,-1489,-300,-43,421,43,-103
1,7080457,447,-1322,-919,-1491,-303,-35,421,43,-103
1,7080465,447,-1322,-919,-1491,-303,-35,421,43,-103
1,7080473,447,-1322,-919,-1491,-303,-35,421,43,-103
1,7080481,445,-1324,-919,-1493,-298,-36,421,43,-103
1,7080489,445,-1324,-919,-1493,-298,-36,421,43,-103
1,7080498,443,-1325,-918,-1488,-305,-42,421,43,-103
1,7080506,443,-1325,-918,-1488,-305,-42,421,43,-103
1,7080516,443,-1325,-918,-1488,-305,-42,421,43,-103
1,7080525,442,-1325,-919,-1482,-302,-40,421,43,-103
1,7080538,438,-1328,-918,-1491,-303,-38,421,43,-103
1,7080552,438,-1328,-918,-1491,-303,-38,421,43,-103
1,7080566,439,-1324,-918,-1484,-302,-41,423,25,-117
1,7080576,439,-1324,-918,-1484,-302,-41,423,25,-117
1,7080588,443,-1326,-923,-1490,-304,-41,423,25,-117
1,7080601,443,-1327,-920,-1487,-303,-40,423,25,-117
1,7080613,443,-1327,-920,-1487,-303,-40,423,25,-117
1,7080625,444,-1327,-917,-1493,-303,-37,423,25,-117
1,7080633,444,-1327,-917,-1493,-303,-37,423,25,-117
1,7080641,444,-1326,-922,-1486,-302,-39,423,25,-117
1,7080649,444,-1326,-922,-1486,-302,-39,423,25,-117
1,7080658,444,-1327,-922,-1482,-302,-37,423,25,-117
1,7080673,444,-1327,-922,-1482,-302,-37,423,25,-117
1,7080687,439,-1322,-916,-1479,-306,-41,440,38,-112
1,7080698,439,-1326,-920,-1487,-302,-41,440,38,-112
1,7080708,439,-1326,-920,-1487,-302,-41,440,38,-112
1,7080721,440,-1325,-917,-1486,-304,-44,440,38,-112
1,7080736,440,-1325,-917,-1486,-304,-44,440,38,-112
1,7080745,441,-1323,-921,-1485,-299,-45,440,38,-112
1,7080757,444,-1323,-919,-1482,-300,-41,440,38,-112
1,7080772,444,-1323,-919,-1482,-300,-41,440,38,-112
1,7080788,441,-1325,-914,-1489,-309,-43,440,38,-112
1,7080800,438,-1327,-915,-1491,-310,-40,428,36,-110
1,7080812,438,-1327,-915,-1491,-310,-40,428,36,-110
1,7080825,440,-1326,-917,-1480,-304,-36,428,36,-110
1,7080839,440,-1328,-920,-1483,-303,-36,428,36,-110
1,7080849,440,-1328,-920,-1483,-303,-36,428,36,-110
1,7080859,437,-1327,-912,-1479,-298,-33,428,36,-110
1,7080871,437,-1327,-912,-1479,-298,-33,428,36,-110
1,7080886,443,-1326,-921,-1484,-298,-36,428,36,-110
1,7080894,443,-1326,-921,-1484,-298,-36,428,36,-110
1,7080906,447,-1327,-917,-1490,-302,-41,428,36,-110
1,7080919,447,-1327,-917,-1490,-302,-41,429,35,-107
1,7080930,447,-1327,-917,-1490,-302,-41,429,35,-107
1,7080936,447,-1327,-917,-1490,-302,-41,429,35,-107
1,7080942,444,-1324,-919,-1488,-300,-40,429,35,-107
1,7080947,444,-1324,-919,-1488,-300,-40,429,35,-107
1,7080953,444,-1324,-919,-1488,-300,-40,429,35,-107
1,7080960,442,-1325,-914,-1492,-295,-44,429,35,-107
1,7080967,442,-1325,-914,-1492,-295,-44,429,35,-107
1,7080974,442,-1325,-914,-1492,-295,-44,429,35,-107
1,7080982,435,-1323,-918,-1488,-302,-42,429,35,-107
1,7080989,435,-1323,-918,-1488,-302,-42,429,35,-107
1,7080996,435,-1323,-918,-1488,-302,-42,429,35,-107
1,7081003,440,-1323,-919,-1491,-299,-44,429,35,-107
1,7081010,440,-1323,-919,-1491,-299,-44,429,35,-107
1,7081017,438,-1325,-915,-1492,-296,-41,429,35,-107
1,7081023,438,-1325,-915,-1492,-296,-41,429,35,-107
1,7081029,438,-1325,-915,-1492,-296,-41,429,35,-107
1,7081037,444,-1325,-920,-1486,-304,-39,429,35,-107
1,7081042,444,-1325,-920,-1486,-304,-39,429,35,-107
1,7081051,444,-1325,-920,-1486,-304,-39,429,35,-107
1,7081058,444,-1324,-919,-1488,-304,-36,434,40,-112
1,7081065,444,-1324,-919,-1488,-304,-36,434,40,-112
1,7081072,444,-1324,-919,-1488,-304,-36,434,40,-112
1,7081079,442,-1324,-915,-1486,-303,-44,434,40,-112
1,7081086,442,-1324,-915,-1486,-303,-44,434,40,-112
1,7081095,442,-1324,-915,-1486,-303,-44,434,40,-112
1,7081101,440,-1328,-917,-1482,-306,-32,434,40,-112
1,7081108,440,-1328,-917,-1482,-306,-32,434,40,-112
1,7081116,440,-1328,-917,-1482,-306,-32,434,40,-112
1,7081122,436,-1323,-920,-1480,-304,-39,434,40,-112
1,7081129,436,-1323,-920,-1480,-304,-39,434,40,-112
1,7081137,436,-1323,-920,-1480,-304,-39,434,40,-112
1,7081145,437,-1327,-916,-1481,-304,-32,434,40,-112
1,7081151,437,-1327,-916,-1481,-304,-32,434,40,-112
1,7081158,442,-1324,-918,-1483,-306,-38,434,40,-112
1,7081165,442,-1324,-918,-1483,-306,-38,434,40,-112
1,7081172,442,-1324,-918,-1483,-306,-38,434,40,-112
1,7081180,440,-1325,-919,-1488,-304,-39,427,37,-121
1,7081187,440,-1325,-919,-1488,-304,-39,427,37,-121
1,7081193,440,-1325,-919,-1488,-304,-39,427,37,-121
1,7081201,441,-1325,-916,-1491,-308,-39,427,37,-121
1,7081209,441,-1325,-916,-1491,-308,-39,427,37,-121
1,7081216,441,-1325,-916,-1491,-308,-39,427,37,-121
1,7081223,441,-1323,-922,-1486,-300,-38,427,37,-121
1,7081229,441,-1323,-922,-1486,-300,-38,427,37,-121
1,7081236,441,-1323,-922,-1486,-300,-38,427,37,-121
1,7081243,442,-1325,-917,-1485,-301,-39,427,37,-121
1,7081251,442,-1325,-917,-1485,-301,-39,427,37,-121
1,7081257,440,-1323,-920,-1492,-304,-40,427,37,-121
1,7081263,440,-1323,-920,-1492,-304,-40,427,37,-121
1,7081270,440,-1323,-920,-1492,-304,-40,427,37,-121
1,7081278,441,-1327,-919,-1499,-304,-42,427,37,-121
1,7081284,441,-1327,-919,-1499,-304,-42,427,37,-121
1,7081290,441,-1327,-919,-1499,-304,-42,427,37,-121
1,7081295,441,-1327,-919,-1499,-304,-42,427,37,-121
1,7081303,443,-1324,-917,-1492,-303,-37,425,31,-105
1,7081309,443,-1324,-917,-1492,-303,-37,425,31,-105
1,7081318,441,-1325,-918,-1480,-307,-40,425,31,-105
1,7081325,441,-1325,-918,-1480,-307,-40,425,31,-105
1,7081332,441,-1325,-918,-1480,-307,-40,425,31,-105
1,7081338,446,-1323,-919,-1483,-298,-43,425,31,-105
1,7081344,446,-1323,-919,-1483,-298,-43,425,31,-105
1,7081352,446,-1323,-919,-1483,-298,-43,425,31,-105
1,7081360,442,-1324,-923,-1485,-307,-44,425,31,-105
1,7081368,442,-1324,-923,-1485,-307,-44,425,31,-105
1,7081376,442,-1324,-923,-1485,-307,-44,425,31,-105
1,7081383,441,-1325,-922,-1482,-295,-42,425,31,-105
1,7081391,441,-1325,-922,-1482,-295,-42,425,31,-105
1,7081398,440,-1327,-919,-1488,-301,-41,425,31,-105
1,7081406,440,-1327,-919,-1488,-301,-41,425,31,-105
1,7081411,440,-1327,-919,-1488,-301,-41,425,31,-105
1,7081416,440,-1327,-919,-1488,-301,-41,425,31,-105
1,7081422,439,-1326,-920,-1489,-299,-33,424,30,-106
1,7081427,439,-1326,-920,-1489,-299,-33,424,30,-106
1,7081434,439,-1326,-920,-1489,-299,-33,424,30,-106
1,7081438,441,-1326,-922,-1483,-297,-43,424,30,-106
1,7081443,441,-1326,-922,-1483,-297,-43,424,30,-106
1,7081448,441,-1326,-922,-1483,-297,-43,424,30,-106
1,7081455,441,-1326,-922,-1483,-297,-43,424,30,-106
1,7081461,445,-1325,-920,-1483,-299,-47,424,30,-106
1,7081469,445,-1325,-920,-1483,-299,-47,424,30,-106
1,7081477,445,-1325,-920,-1483,-299,-47,424,30,-106
1,7081486,446,-1321,-916,-1478,-300,-47,424,30,-106
1,7081492,446,-1321,-916,-1478,-300,-47,424,30,-106
1,7081498,445,-1325,-918,-1490,-300,-40,424,30,-106
1,7081505,445,-1325,-918,-1490,-300,-40,424,30,-106
1,7081512,445,-1325,-918,-1490,-300,-40,424,30,-106
1,7081519,441,-1326,-918,-1496,-306,-41,424,30,-106
1,7081526,441,-1326,-918,-1496,-306,-41,424,30,-106
1,7081532,441,-1326,-918,-1496,-306,-41,424,30,-106
1,7081539,444,-1328,-918,-1490,-301,-38,425,31,-113
1,7081546,444,-1328,-918,-1490,-301,-38,425,31,-113
1,7081553,444,-1328,-918,-1490,-301,-38,425,31,-113
1,7081560,438,-1323,-916,-1487,-300,-35,425,31,-113
1,7081568,438,-1323,-916,-1487,-300,-35,425,31,-113
1,7081574,438,-1323,-916,-1487,-300,-35,425,31,-113
1,7081579,437,-1324,-919,-1492,-305,-38,425,31,-113
1,7081587,437,-1324,-919,-1492,-305,-38,425,31,-113
1,7081594,437,-1324,-919,-1492,-305,-38,425,31,-113
1,7081602,443,-1323,-920,-1485,-299,-41,425,31,-113
1,7081609,443,-1323,-920,-1485,-299,-41,425,31,-113
1,7081617,446,-1324,-918,-1486,-304,-46,425,31,-113
1,7081623,446,-1324,-918,-1486,-304,-46,425,31,-113
1,7081628,446,-1324,-918,-1486,-304,-46,425,31,-113
1,7081633,446,-1324,-918,-1486,-304,-46,425,31,-113
1,7081639,444,-1324,-915,-1479,-302,-35,425,31,-113
1,7081645,444,-1324,-915,-1479,-302,-35,425,31,-113
1,7081650,444,-1324,-915,-1479,-302,-35,425,31,-113
1,7081655,444,-1324,-915,-1479,-302,-35,425,31,-113
1,7081664,444,-1325,-923,-1487,-299,-40,425,31,-113
1,7081670,444,-1325,-923,-1487,-299,-40,425,31,-113
1,7081677,440,-1325,-916,-1491,-305,-35,425,31,-113
1,7081686,440,-1325,-916,-1491,-305,-35,428,32,-108
1,7081693,440,-1325,-916,-1491,-305,-35,428,32,-108
1,7081700,438,-1325,-919,-1493,-299,-37,428,32,-108
1,7081707,438,-1325,-919,-1493,-299,-37,428,32,-108
1,7081714,438,-1325,-919,-1493,-299,-37,428,32,-108
1,7081721,440,-1327,-918,-1493,-304,-47,428,32,-108
1,7081729,440,-1327,-918,-1493,-304,-47,428,32,-108
1,7081736,440,-1327,-918,-1493,-304,-47,428,32,-108
1,7081743,439,-1324,-918,-1493,-300,-41,428,32,-108
1,7081749,439,-1324,-918,-1493,-300,-41,428,32,-108
1,7081756,439,-1324,-918,-1493,-300,-41,428,32,-108
1,7081764,442,-1326,-922,-1485,-299,-37,428,32,-108
1,7081772,442,-1326,-922,-1485,-299,-37,428,32,-108
1,7081778,448,-1324,-919,-1483,-306,-38,428,32,-108
1,7081785,448,-1324,-919,-1483,-306,-38,428,32,-108
1,7081792,448,-1324,-919,-1483,-306,-38,428,32,-108
1,7081798,446,-1324,-912,-1484,-305,-38,421,29,-115
1,7081805,446,-1324,-912,-1484,-305,-38,421,29,-115
1,7081812,446,-1324,-912,-1484,-305,-38,421,29,-115
1,7081820,442,-1324,-918,-1476,-305,-43,421,29,-115
1,7081827,442,-1324,-918,-1476,-305,-43,421,29,-115
1,7081833,442,-1324,-918,-1476,-305,-43,421,29,-115
1,7081840,445,-1324,-917,-1490,-310,-43,421,29,-115
1,7081846,445,-1324,-917,-1490,-310,-43,421,29,-115
1,7081854,445,-1324,-917,-1490,-310,-43,421,29,-115
1,7081862,439,-1325,-919,-1487,-303,-43,421,29,-115
1,7081869,439,-1325,-919,-1487,-303,-43,421,29,-115
1,7081877,439,-1325,-919,-1487,-303,-43,421,29,-115
1,7081883,440,-1326,-920,-1483,-300,-39,421,29,-115
1,7081890,440,-1326,-920,-1483,-300,-39,421,29,-115
1,7081896,440,-1326,-920,-1483,-300,-39,421,29,-115
1,7081905,441,-1324,-920,-1484,-301,-38,421,29,-115
1,7081913,441,-1324,-920,-1484,-301,-38,421,29,-115
1,7081921,444,-1324,-915,-1483,-304,-39,421,31,-115
1,7081927,444,-1324,-915,-1483,-304,-39,421,31,-115
1,7081934,444,-1324,-915,-1483,-304,-39,421,31,-115
1,7081943,444,-1322,-916,-1490,-301,-35,421,31,-115
1,7081951,444,-1322,-916,-1490,-301,-35,421,31,-115
1,7081958,444,-1325,-919,-1487,-299,-37,421,31,-115
1,7081967,444,-1325,-919,-1487,-299,-37,421,31,-115
1,7081979,443,-1324,-916,-1486,-304,-38,421,31,-115
1,7081993,443,-1324,-916,-1486,-304,-38,421,31,-115
1,7082006,441,-1325,-918,-1490,-307,-34,421,31,-115
1,7082017,441,-1325,-918,-1490,-307,-34,421,31,-115
1,7082030,440,-1323,-923,-1493,-302,-31,421,31,-115
1,7082042,441,-1323,-916,-1494,-302,-39,427,29,-113
1,7082053,441,-1323,-916,-1494,-302,-39,427,29,-113
1,7082065,444,-1322,-919,-1495,-301,-46,427,29,-113
1,7082081,444,-1321,-917,-1489,-301,-39,427,29,-113
1,7082093,444,-1321,-917,-1489,-301,-39,427,29,-113
1,7082102,441,-1324,-917,-1486,-299,-44,427,29,-113
1,7082114,441,-1324,-917,-1486,-299,-44,427,29,-113
1,7082129,440,-1325,-918,-1481,-295,-39,427,29,-113
1,7082139,440,-1328,-919,-1483,-295,-40,427,29,-113
1,7082148,440,-1328,-919,-1483,-295,-40,427,29,-113
1,7082163,439,-1325,-916,-1487,-299,-45,427,29,-113
1,7082173,439,-1325,-916,-1487,-299,-45,427,29,-113
1,7082184,442,-1325,-914,-1487,-308,-41,420,32,-114
1,7082198,442,-1325,-914,-1487,-308,-41,420,32,-114
1,7082212,441,-1327,-916,-1485,-306,-40,420,32,-114
1,7082225,445,-1323,-920,-1483,-307,-39,420,32,-114
1,7082234,445,-1323,-920,-1483,-307,-39,420,32,-114
1,7082248,443,-1323,-918,-1487,-300,-40,420,32,-114
1,7082261,442,-1323,-918,-1487,-296,-42,420,32,-114
1,7082274,442,-1323,-918,-1487,-296,-42,420,32,-114
1,7082285,440,-1325,-922,-1483,-300,-44,420,32,-114
1,7082297,440,-1325,-922,-1483,-300,-44,420,32,-114
1,7082307,439,-1325,-915,-1486,-302,-45,428,38,-116
1,7082318,444,-1325,-915,-1486,-303,-47,428,38,-116
1,7082332,444,-1325,-915,-1486,-303,-47,428,38,-116
1,7082347,444,-1323,-922,-1493,-301,-41,428,38,-116
1,7082359,441,-1324,-920,-1491,-305,-38,428,38,-116
1,7082373,441,-1324,-920,-1491,-305,-38,428,38,-116
1,7082385,441,-1324,-920,-1491,-305,-38,428,38,-116
1,7082397,439,-1325,-921,-1495,-302,-39,428,38,-116
1,7082406,439,-1325,-921,-1495,-302,-39,428,38,-116
1,7082415,439,-1325,-921,-1495,-302,-39,428,38,-116
1,7082423,439,-1325,-921,-1495,-302,-39,422,36,-106
1,7082431,439,-1325,-921,-1495,-302,-39,422,36,-106
1,7082439,437,-1324,-919,-1480,-305,-33,422,36,-106
1,7082446,437,-1324,-919,-1480,-305,-33,422,36,-106
1,7082455,437,-1324,-919,-1480,-305,-33,422,36,-106
1,7082463,438,-1327,-919,-1486,-303,-35,422,36,-106
1,7082471,438,-1327,-919,-1486,-303,-35,422,36,-106
1,7082478,442,-1326,-921,-1490,-307,-38,422,36,-106
1,7082487,442,-1326,-921,-1490,-307,-38,422,36,-106
1,7082496,442,-1326,-921,-1490,-307,-38,422,36,-106
1,7082505,445,-1325,-922,-1488,-301,-43,422,36,-106
1,7082513,445,-1325,-922,-1488,-301,-43,422,36,-106
1,7082522,440,-1325,-916,-1487,-300,-41,422,36,-106
1,7082531,440,-1325,-916,-1487,-300,-41,422,36,-106
1,7082546,441,-1322,-920,-1480,-302,-42,428,34,-114
1,7082554,441,-1322,-920,-1480,-302,-42,428,34,-114
1,7082563,441,-1325,-914,-1490,-297,-42,428,34,-114
1,7082573,441,-1325,-914,-1490,-297,-42,428,34,-114
1,7082580,440,-1325,-920,-1486,-300,-47,428,34,-114
1,7082589,440,-1325,-920,-1486,-300,-47,428,34,-114
1,7082599,441,-1325,-922,-1485,-300,-42,428,34,-114
1,7082610,441,-1325,-922,-1485,-300,-42,428,34,-114
1,7082621,442,-1324,-917,-1488,-305,-53,428,34,-114
1,7082630,442,-1324,-917,-1488,-305,-53,428,34,-114
1,7082638,443,-1325,-923,-1487,-308,-44,428,34,-114
1,7082646,443,-1325,-923,-1487,-308,-44,428,34,-114
1,7082654,443,-1325,-923,-1487,-308,-44,428,34,-114
1,7082667,444,-1326,-917,-1491,-308,-44,428,34,-114
1,7082681,443,-1324,-916,-1493,-306,-43,413,35,-109
1,7082694,443,-1324,-916,-1493,-306,-43,413,35,-109
1,7082703,440,-1323,-923,-1482,-301,-43,413,35,-109
1,7082718,440,-1323,-923,-1482,-301,-43,413,35,-109
1,7082729,436,-1325,-919,-1483,-302,-35,413,35,-109
1,7082742,435,-1325,-920,-1487,-303,-42,413,35,-109
1,7082754,435,-1325,-920,-1487,-303,-42,413,35,-109
1,7082768,441,-1324,-918,-1490,-299,-42,413,35,-109
1,7082781,442,-1324,-918,-1486,-302,-43,413,35,-109
1,7082790,442,-1324,-918,-1486,-302,-43,413,35,-109
1,7082802,445,-1325,-917,-1486,-303,-41,423,33,-107
1,7082816,445,-1325,-917,-1486,-303,-41,423,33,-107
1,7082827,447,-1326,-918,-1490,-297,-45,423,33,-107
1,7082838,445,-1326,-920,-1492,-301,-41,423,33,-107
1,7082850,445,-1326,-920,-1492,-301,-41,423,33,-107
1,7082863,441,-1326,-912,-1488,-301,-42,423,33,-107
1,7082875,441,-1326,-912,-1488,-301,-42,423,33,-107
1,7082887,434,-1325,-921,-1484,-298,-41,423,33,-107
1,7082898,443,-1324,-920,-1486,-296,-41,423,33,-107
1,7082911,443,-1324,-920,-1486,-296,-41,423,33,-107
1,7082923,440,-1326,-919,-1488,-303,-44,429,37,-117
1,7082936,440,-1326,-919,-1488,-303,-44,429,37,-117
1,7082944,441,-1325,-914,-1487,-306,-40,429,37,-117
1,7082952,441,-1325,-914,-1487,-306,-40,429,37,-117
1,7082959,445,-1325,-920,-1486,-304,-42,429,37,-117
1,7082967,445,-1325,-920,-1486,-304,-42,429,37,-117
1,7082973,445,-1325,-920,-1486,-304,-42,429,37,-117
1,7082981,446,-1323,-915,-1486,-304,-49,429,37,-117
1,7082986,446,-1323,-915,-1486,-304,-49,429,37,-117
1,7082994,446,-1323,-915,-1486,-304,-49,429,37,-117
1,7083001,445,-1323,-920,-1489,-300,-39,429,37,-117
1,7083009,445,-1323,-920,-1489,-300,-39,429,37,-117
1,7083017,445,-1323,-920,-1489,-300,-39,429,37,-117
1,7083023,438,-1324,-919,-1496,-302,-46,429,37,-117
1,7083029,438,-1324,-919,-1496,-302,-46,429,37,-117
1,7083035,438,-1324,-919,-1496,-302,-46,429,37,-117
1,7083042,434,-1327,-916,-1487,-301,-41,437,37,-107
1,7083049,434,-1327,-916,-1487,-301,-41,437,37,-107
1,7083057,434,-1327,-916,-1487,-301,-41,437,37,-107
1,7083064,434,-1327,-916,-1487,-301,-41,437,37,-107
1,7083070,434,-1327,-916,-1487,-301,-41,437,37,-107
1,7083078,443,-1323,-917,-1485,-302,-40,437,37,-107
1,7083085,443,-1323,-917,-1485,-302,-40,437,37,-107
1,7083094,443,-1323,-917,-1485,-302,-40,437,37,-107
1,7083101,446,-1325,-918,-1485,-304,-40,437,37,-107
1,7083106,446,-1325,-918,-1485,-304,-40,437,37,-107
1,7083113,446,-1325,-918,-1485,-304,-40,437,37,-107
1,7083120,440,-1326,-917,-1481,-300,-43,437,37,-107
1,7083129,440,-1326,-917,-1481,-300,-43,437,37,-107
1,7083136,440,-1326,-917,-1481,-300,-43,437,37,-107
1,7083142,441,-1325,-916,-1489,-303,-36,437,37,-107
1,7083147,441,-1325,-916,-1489,-303,-36,437,37,-107
1,7083154,441,-1325,-916,-1489,-303,-36,437,37,-107
1,7083161,439,-1329,-921,-1491,-305,-36,422,34,-114
1,7083168,439,-1329,-921,-1491,-305,-36,422,34,-114
1,7083175,439,-1329,-921,-1491,-305,-36,422,34,-114
1,7083181,439,-1328,-920,-1487,-298,-37,422,34,-114
1,7083186,439,-1328,-920,-1487,-298,-37,422,34,-114
1,7083193,439,-1328,-920,-1487,-298,-37,422,34,-114
1,7083199,442,-1327,-918,-1488,-308,-41,422,34,-114
1,7083204,442,-1327,-918,-1488,-308,-41,422,34,-114
1,7083212,442,-1327,-918,-1488,-308,-41,422,34,-114
1,7083218,447,-1329,-921,-1481,-308,-38,422,34,-114
1,7083226,447,-1329,-921,-1481,-308,-38,422,34,-114
1,7083234,447,-1329,-921,-1481,-308,-38,422,34,-114
1,7083240,448,-1325,-916,-1487,-310,-38,422,34,-114
1,7083247,448,-1325,-916,-1487,-310,-38,422,34,-114
1,7083255,448,-1325,-916,-1487,-310,-38,422,34,-114
1,7083262,444,-1324,-918,-1483,-307,-35,422,34,-114
1,7083269,444,-1324,-918,-1483,-307,-35,422,34,-114
1,7083278,444,-1326,-921,-1479,-307,-37,422,34,-114
1,7083285,444,-1326,-921,-1479,-307,-37,422,34,-114
1,7083294,444,-1326,-921,-1479,-307,-37,422,34,-114
1,7083300,441,-1326,-915,-1483,-303,-41,423,31,-117
1,7083308,441,-1326,-915,-1483,-303,-41,423,31,-117
1,7083315,441,-1326,-915,-1483,-303,-41,423,31,-117
1,7083323,436,-1322,-920,-1490,-303,-35,423,31,-117
1,7083330,436,-1322,-920,-1490,-303,-35,423,31,-117
1,7083337,436,-1322,-920,-1490,-303,-35,423,31,-117
1,7083346,436,-1329,-920,-1490,-305,-41,423,31,-117
1,7083354,436,-1329,-920,-1490,-305,-41,423,31,-117
1,7083362,440,-1325,-916,-1481,-307,-37,423,31,-117
1,7083369,440,-1325,-916,-1481,-307,-37,423,31,-117
1,7083374,440,-1325,-916,-1481,-307,-37,423,31,-117
1,7083381,446,-1326,-921,-1485,-311,-33,423,31,-117
1,7083388,446,-1326,-921,-1485,-311,-33,423,31,-117
1,7083396,446,-1326,-921,-1485,-311,-33,423,31,-117
1,7083404,447,-1323,-919,-1482,-306,-40,423,31,-117
1,7083410,447,-1323,-919,-1482,-306,-40,423,31,-117
1,7083414,447,-1323,-919,-1482,-306,-40,423,31,-117
1,7083419,445,-1325,-920,-1487,-306,-48,430,32,-112
1,7083424,445,-1325,-920,-1487,-306,-48,430,32,-112
1,7083429,445,-1325,-920,-1487,-306,-48,430,32,-112
1,7083435,445,-1325,-920,-1487,-306,-48,430,32,-112
1,7083441,440,-1327,-916,-1486,-300,-42,430,32,-112
1,7083445,440,-1327,-916,-1486,-300,-42,430,32,-112
1,7083452,440,-1327,-916,-1486,-300,-42,430,32,-112
1,7083459,434,-1328,-917,-1485,-309,-35,430,32,-112
1,7083465,434,-1328,-917,-1485,-309,-35,430,32,-112
1,7083473,434,-1328,-917,-1485,-309,-35,430,32,-112
1,7083480,437,-1327,-917,-1486,-301,-45,430,32,-112
1,7083486,437,-1327,-917,-1486,-301,-45,430,32,-112
1,7083491,437,-1327,-917,-1486,-301,-45,430,32,-112
1,7083499,440,-1326,-914,-1492,-302,-43,430,32,-112
1,7083505,440,-1326,-914,-1492,-302,-43,430,32,-112
1,7083513,440,-1326,-914,-1492,-302,-43,430,32,-112
1,7083521,444,-1323,-919,-1481,-301,-47,430,32,-112
1,7083527,444,-1323,-919,-1481,-301,-47,430,32,-112
1,7083534,444,-1323,-919,-1481,-301,-47,430,32,-112
1,7083541,447,-1320,-920,-1483,-303,-36,423,33,-113
1,7083548,447,-1320,-920,-1483,-303,-36,423,33,-113
1,7083554,447,-1320,-920,-1483,-303,-36,423,33,-113
1,7083561,443,-1325,-916,-1486,-305,-33,423,33,-113
1,7083570,443,-1325,-916,-1486,-305,-33,423,33,-113
1,7083577,443,-1325,-916,-1486,-305,-33,423,33,-113
1,7083584,444,-1326,-919,-1489,-306,-35,423,33,-113
1,7083592,444,-1326,-919,-1489,-306,-35,423,33,-113
1,7083598,442,-1326,-918,-1490,-299,-40,423,33,-113
1,7083606,442,-1326,-918,-1490,-299,-40,423,33,-113
1,7083613,442,-1326,-918,-1490,-299,-40,423,33,-113
1,7083619,440,-1325,-916,-1492,-302,-40,423,33,-113
1,7083625,440,-1325,-916,-1492,-302,-40,423,33,-113
1,7083630,440,-1325,-916,-1492,-302,-40,423,33,-113
1,7083635,440,-1325,-916,-1492,-302,-40,423,33,-113
1,7083640,438,-1325,-915,-1488,-298,-41,423,33,-113
1,7083645,438,-1325,-915,-1488,-298,-41,423,33,-113
1,7083651,438,-1325,-915,-1488,-298,-41,423,33,-113
1,7083657,438,-1325,-915,-1488,-298,-41,423,33,-113
1,7083665,442,-1326,-918,-1486,-295,-44,429,37,-113
1,7083672,442,-1326,-918,-1486,-295,-44,429,37,-113
1,7083680,441,-1327,-917,-1494,-303,-41,429,37,-113
1,7083688,441,-1327,-917,-1494,-303,-41,429,37,-113
1,7083696,441,-1327,-917,-1494,-303,-41,429,37,-113
1,7083703,445,-1323,-917,-1490,-310,-46,429,37,-113
1,7083710,445,-1323,-917,-1490,-310,-46,429,37,-113
1,7083715,445,-1323,-917,-1490,-310,-46,429,37,-113
1,7083720,442,-1324,-921,-1489,-308,-39,429,37,-113
1,7083725,442,-1324,-921,-1489,-308,-39,429,37,-113
1,7083734,442,-1324,-921,-1489,-308,-39,429,37,-113
1,7083741,443,-1323,-917,-1494,-302,-38,429,37,-113
1,7083748,443,-1323,-917,-1494,-302,-38,429,37,-113
1,7083756,443,-1323,-917,-1494,-302,-38,429,37,-113
1,7083763,439,-1327,-920,-1495,-303,-44,429,37,-113
1,7083770,439,-1327,-920,-1495,-303,-44,429,37,-113
1,7083778,438,-1324,-917,-1492,-301,-46,429,37,-113
1,7083784,438,-1324,-917,-1492,-301,-46,429,37,-113
1,7083790,438,-1324,-917,-1492,-301,-46,429,37,-113
1,7083798,439,-1324,-914,-1483,-298,-42,429,31,-103
1,7083805,439,-1324,-914,-1483,-298,-42,429,31,-103
1,7083812,439,-1324,-914,-1483,-298,-42,429,31,-103
1,7083820,444,-1327,-916,-1483,-295,-38,429,31,-103
1,7083827,444,-1327,-916,-1483,-295,-38,429,31,-103
1,7083834,444,-1327,-916,-1483,-295,-38,429,31,-103
1,7083840,444,-1326,-919,-1489,-302,-37,429,31,-103
1,7083848,444,-1326,-919,-1489,-302,-37,429,31,-103
1,7083855,444,-1326,-919,-1489,-302,-37,429,31,-103
1,7083864,446,-1323,-920,-1488,-303,-35,429,31,-103
1,7083871,446,-1323,-920,-1488,-303,-35,429,31,-103
1,7083878,446,-1323,-920,-1488,-303,-35,429,31,-103
1,7083885,440,-1326,-916,-1493,-296,-37,429,31,-103
1,7083891,440,-1326,-916,-1493,-296,-37,429,31,-103
1,7083898,437,-1325,-919,-1492,-304,-41,429,31,-103
1,7083907,437,-1325,-919,-1492,-304,-41,429,31,-103
1,7083914,437,-1325,-919,-1492,-304,-41,429,31,-103
1,7083922,442,-1325,-921,-1485,-301,-39,416,36,-110
1,7083930,442,-1325,-921,-1485,-301,-39,416,36,-110
1,7083937,442,-1325,-921,-1485,-301,-39,416,36,-110
1,7083943,439,-1328,-912,-1488,-307,-37,416,36,-110
1,7083957,439,-1328,-912,-1488,-307,-37,416,36,-110
1,7083971,441,-1327,-920,-1493,-306,-38,416,36,-110
1,7083985,447,-1325,-917,-1492,-303,-42,416,36,-110
1,7083994,447,-1325,-917,-1492,-303,-42,416,36,-110
1,7084006,446,-1322,-919,-1494,-300,-43,416,36,-110
1,7084020,441,-1325,-920,-1482,-301,-34,416,36,-110
1,7084035,441,-1325,-920,-1482,-301,-34,416,36,-110
1,7084044,438,-1328,-919,-1481,-305,-36,429,31,-113
1,7084057,438,-1328,-919,-1481,-305,-36,429,31,-113
1,7084070,441,-1323,-916,-1477,-306,-38,429,31,-113
1,7084084,437,-1323,-915,-1485,-299,-43,429,31,-113
1,7084094,437,-1323,-915,-1485,-299,-43,429,31,-113
1,7084107,442,-1324,-918,-1484,-306,-37,429,31,-113
1,7084122,445,-1326,-915,-1488,-306,-40,429,31,-113
1,7084135,445,-1326,-915,-1488,-306,-40,429,31,-113
1,7084144,445,-1326,-914,-1491,-293,-34,429,31,-113
1,7084156,445,-1326,-914,-1491,-293,-34,429,31,-113
1,7084167,439,-1325,-914,-1494,-298,-39,420,40,-110
1,7084179,443,-1327,-914,-1488,-302,-41,420,40,-110
1,7084192,443,-1327,-914,-1488,-302,-41,420,40,-110
1,7084208,440,-1328,-914,-1486,-301,-43,420,40,-110
1,7084220,444,-1325,-916,-1488,-303,-40,420,40,-110
1,7084231,444,-1325,-916,-1488,-303,-40,420,40,-110
1,7084246,443,-1325,-914,-1491,-297,-40,420,40,-110
1,7084259,439,-1327,-917,-1484,-302,-40,420,40,-110
1,7084271,439,-1327,-917,-1484,-302,-40,420,40,-110
1,7084283,440,-1322,-918,-1479,-303,-29,431,33,-115
1,7084296,440,-1322,-918,-1479,-303,-29,431,33,-115
1,7084309,444,-1324,-916,-1486,-306,-36,431,33,-115
1,7084321,442,-1325,-917,-1490,-310,-40,431,33,-115
1,7084335,442,-1325,-917,-1490,-310,-40,431,33,-115
1,7084349,442,-1326,-918,-1486,-304,-45,431,33,-115
1,7084361,441,-1325,-914,-1487,-306,-44,431,33,-115
1,7084374,441,-1325,-914,-1487,-306,-44,431,33,-115
1,7084386,445,-1327,-921,-1489,-304,-37,431,33,-115
1,7084400,443,-1323,-920,-1485,-304,-40,431,33,-115
1,7084408,443,-1323,-920,-1485,-304,-40,431,33,-115
1,7084416,443,-1323,-920,-1485,-304,-40,431,33,-115
1,7084424,441,-1324,-912,-1485,-298,-43,427,37,-105
1,7084432,441,-1324,-912,-1485,-298,-43,427,37,-105
1,7084440,440,-1324,-913,-1487,-301,-39,427,37,-105
1,7084448,440,-1324,-913,-1487,-301,-39,427,37,-105
1,7084455,440,-1324,-913,-1487,-301,-39,427,37,-105
1,7084465,438,-1324,-921,-1488,-305,-50,427,37,-105
1,7084472,438,-1324,-921,-1488,-305,-50,427,37,-105
1,7084480,437,-1325,-921,-1490,-307,-43,427,37,-105
1,7084488,437,-1325,-921,-1490,-307,-43,427,37,-105
1,7084497,437,-1325,-921,-1490,-307,-43,427,37,-105
1,7084505,441,-1326,-916,-1493,-304,-38,427,37,-105
1,7084513,441,-1326,-916,-1493,-304,-38,427,37,-105
1,7084521,442,-1326,-921,-1488,-297,-33,427,37,-105
1,7084530,442,-1326,-921,-1488,-297,-33,427,37,-105
1,7084538,446,-1326,-915,-1488,-300,-34,427,37,-105
1,7084548,446,-1326,-915,-1488,-300,-34,426,36,-112
1,7084560,446,-1323,-914,-1490,-300,-38,426,36,-112
1,7084573,446,-1323,-914,-1490,-300,-38,426,36,-112
1,7084582,443,-1325,-924,-1485,-299,-47,426,36,-112
1,7084594,443,-1325,-924,-1485,-299,-47,426,36,-112
1,7084606,440,-1328,-919,-1477,-301,-43,426,36,-112
1,7084618,440,-1330,-916,-1484,-299,-37,426,36,-112
1,7084627,440,-1330,-916,-1484,-299,-37,426,36,-112
1,7084636,440,-1330,-916,-1484,-299,-37,426,36,-112
1,7084643,437,-1326,-918,-1484,-311,-28,426,36,-112
1,7084652,437,-1326,-918,-1484,-311,-28,426,36,-112
1,7084661,438,-1323,-913,-1481,-306,-36,420,38,-110
1,7084675,438,-1323,-913,-1481,-306,-36,420,38,-110
1,7084689,440,-1324,-917,-1493,-306,-36,420,38,-110
1,7084698,440,-1324,-917,-1493,-306,-36,420,38,-110
1,7084710,448,-1328,-916,-1484,-303,-40,420,38,-110
1,7084725,448,-1322,-921,-1487,-299,-34,420,38,-110
1,7084740,443,-1321,-923,-1493,-303,-39,420,38,-110
1,7084748,443,-1321,-923,-1493,-303,-39,420,38,-110
1,7084761,441,-1325,-919,-1482,-299,-37,420,38,-110
1,7084774,441,-1325,-919,-1482,-299,-37,420,38,-110
1,7084787,439,-1328,-921,-1488,-303,-47,422,36,-110
1,7084797,439,-1328,-921,-1488,-303,-47,422,36,-110
1,7084811,439,-1325,-915,-1484,-301,-45,422,36,-110
1,7084823,440,-1325,-923,-1493,-307,-48,422,36,-110
1,7084836,440,-1325,-923,-1493,-307,-48,422,36,-110
1,7084847,445,-1324,-916,-1479,-302,-42,422,36,-110
1,7084862,443,-1326,-919,-1476,-301,-45,422,36,-110
1,7084874,443,-1326,-919,-1476,-301,-45,422,36,-110
1,7084882,442,-1324,-921,-1485,-306,-35,422,36,-110
1,7084894,442,-1324,-921,-1485,-306,-35,422,36,-110
1,7084908,442,-1324,-917,-1491,-303,-40,422,36,-110
1,7084918,442,-1324,-917,-1491,-303,-40,422,36,-110
1,7084930,438,-1324,-919,-1480,-303,-39,428,26,-114
1,7084943,440,-1328,-917,-1484,-301,-38,428,26,-114
1,7084957,440,-1328,-917,-1484,-301,-38,428,26,-114
1,7084962,439,-1325,-918,-1481,-299,-40,428,26,-114
1,7084971,439,-1325,-918,-1481,-299,-40,428,26,-114
1,7084978,445,-1327,-918,-1487,-300,-38,428,26,-114
1,7084987,445,-1327,-918,-1487,-300,-38,428,26,-114
1,7084995,445,-1327,-918,-1487,-300,-38,428,26,-114
1,7085001,447,-1324,-918,-1488,-300,-41,428,26,-114
1,7085007,447,-1324,-918,-1488,-300,-41,428,26,-114
1,7085014,447,-1324,-918,-1488,-300,-41,428,26,-114
1,7085022,449,-1323,-916,-1487,-304,-44,428,26,-114
1,7085029,449,-1323,-916,-1487,-304,-44,428,26,-114
1,7085036,449,-1323,-916,-1487,-304,-44,428,26,-114
1,7085043,443,-1325,-914,-1483,-297,-46,425,37,-113
1,7085048,443,-1325,-914,-1483,-297,-46,425,37,-113
1,7085056,443,-1325,-914,-1483,-297,-46,425,37,-113
1,7085062,439,-1327,-914,-1489,-312,-40,425,37,-113
1,7085070,439,-1327,-914,-1489,-312,-40,425,37,-113
1,7085075,439,-1327,-914,-1489,-312,-40,425,37,-113
1,7085083,438,-1325,-918,-1485,-308,-36,425,37,-113
1,7085089,438,-1325,-918,-1485,-308,-36,425,37,-113
1,7085095,438,-1325,-918,-1485,-308,-36,425,37,-113
1,7085102,440,-1324,-919,-1477,-303,-47,425,37,-113
1,7085108,440,-1324,-919,-1477,-303,-47,425,37,-113
1,7085113,440,-1324,-919,-1477,-303,-47,425,37,-113
1,7085121,441,-1325,-920,-1488,-302,-35,425,37,-113
1,7085127,441,-1325,-920,-1488,-302,-35,425,37,-113
1,7085135,441,-1325,-920,-1488,-302,-35,425,37,-113
1,7085142,446,-1323,-920,-1484,-296,-31,425,37,-113
1,7085148,446,-1323,-920,-1484,-296,-31,425,37,-113
1,7085156,446,-1323,-920,-1484,-296,-31,425,37,-113
1,7085162,445,-1324,-917,-1482,-299,-41,424,30,-108
1,7085170,445,-1324,-917,-1482,-299,-41,424,30,-108
1,7085176,445,-1324,-917,-1482,-299,-41,424,30,-108
1,7085184,443,-1325,-919,-1484,-301,-39,424,30,-108
1,7085191,443,-1325,-919,-1484,-301,-39,424,30,-108
1,7085198,443,-1325,-919,-1484,-301,-39,424,30,-108
1,7085205,440,-1326,-921,-1482,-299,-35,424,30,-108
1,7085212,440,-1326,-921,-1482,-299,-35,424,30,-108
1,7085219,437,-1325,-922,-1480,-292,-32,424,30,-108
1,7085227,437,-1325,-922,-1480,-292,-32,424,30,-108
1,7085232,437,-1325,-922,-1480,-292,-32,424,30,-108
1,7085240,438,-1327,-919,-1479,-300,-42,424,30,-108
1,7085247,438,-1327,-919,-1479,-300,-42,424,30,-108
1,7085254,438,-1327,-919,-1479,-300,-42,424,30,-108
1,7085260,441,-1327,-922,-1486,-303,-46,424,30,-108
1,7085267,441,-1327,-922,-1486,-303,-46,424,30,-108
1,7085274,441,-1327,-922,-1486,-303,-46,424,30,-108
1,7085281,443,-1326,-922,-1488,-300,-37,423,43,-103
1,7085289,443,-1326,-922,-1488,-300,-37,423,43,-103
1,7085297,443,-1326,-922,-1488,-300,-37,423,43,-103
1,7085303,448,-1325,-915,-1485,-301,-40,423,43,-103
1,7085309,448,-1325,-915,-1485,-301,-40,423,43,-103
1,7085315,448,-1325,-915,-1485,-301,-40,423,43,-103
1,7085323,446,-1324,-919,-1486,-300,-39,423,43,-103
1,7085331,446,-1324,-919,-1486,-300,-39,423,43,-103
1,7085339,445,-1324,-918,-1487,-303,-41,423,43,-103
1,7085346,445,-1324,-918,-1487,-303,-41,423,43,-103
1,7085352,445,-1324,-918,-1487,-303,-41,423,43,-103
1,7085360,440,-1327,-916,-1492,-301,-39,423,43,-103
1,7085367,440,-1327,-916,-1492,-301,-39,423,43,-103
1,7085375,440,-1327,-916,-1492,-301,-39,423,43,-103
1,7085382,441,-1327,-917,-1486,-296,-40,423,43,-103
1,7085390,441,-1327,-917,-1486,-296,-40,423,43,-103
1,7085396,441,-1327,-917,-1486,-296,-40,423,43,-103
1,7085403,437,-1324,-920,-1485,-302,-40,423,43,-103
1,7085409,437,-1324,-920,-1485,-302,-40,423,43,-103
1,7085413,437,-1324,-920,-1485,-302,-40,423,43,-103
1,7085418,441,-1325,-912,-1483,-303,-39,423,43,-103
1,7085423,441,-1325,-912,-1483,-303,-39,426,34,-112
1,7085428,441,-1325,-912,-1483,-303,-39,426,34,-112
1,7085433,441,-1325,-912,-1483,-303,-39,426,34,-112
1,7085440,442,-1323,-919,-1485,-298,-33,426,34,-112
1,7085446,442,-1323,-919,-1485,-298,-33,426,34,-112
1,7085452,442,-1323,-919,-1485,-298,-33,426,34,-112
1,7085460,441,-1323,-919,-1478,-302,-43,426,34,-112
1,7085467,441,-1323,-919,-1478,-302,-43,426,34,-112
1,7085473,441,-1323,-919,-1478,-302,-43,426,34,-112
1,7085479,444,-1323,-917,-1485,-303,-43,426,34,-112
1,7085485,444,-1323,-917,-1485,-303,-43,426,34,-112
1,7085493,444,-1323,-917,-1485,-303,-43,426,34,-112
1,7085499,439,-1328,-921,-1480,-298,-38,426,34,-112
1,7085507,439,-1328,-921,-1480,-298,-38,426,34,-112
1,7085513,439,-1328,-921,-1480,-298,-38,426,34,-112
1,7085519,438,-1325,-918,-1486,-306,-38,426,34,-112
1,7085527,438,-1325,-918,-1486,-306,-38,426,34,-112
1,7085533,438,-1325,-918,-1486,-306,-38,426,34,-112
1,7085541,442,-1326,-919,-1479,-295,-33,422,30,-118
1,7085549,442,-1326,-919,-1479,-295,-33,422,30,-118
1,7085557,442,-1326,-919,-1479,-295,-33,422,30,-118
1,7085564,440,-1327,-919,-1483,-297,-35,422,30,-118
1,7085570,440,-1327,-919,-1483,-297,-35,422,30,-118
1,7085578,440,-1327,-919,-1483,-297,-35,422,30,-118
1,7085585,443,-1324,-919,-1484,-301,-39,422,30,-118
1,7085592,443,-1324,-919,-1484,-301,-39,422,30,-118
1,7085599,440,-1326,-914,-1491,-300,-42,422,30,-118
1,7085606,440,-1326,-914,-1491,-300,-42,422,30,-118
1,7085615,440,-1326,-914,-1491,-300,-42,422,30,-118
1,7085621,442,-1327,-920,-1492,-301,-39,422,30,-118
1,7085626,442,-1327,-920,-1492,-301,-39,422,30,-118
1,7085630,442,-1327,-920,-1492,-301,-39,422,30,-118
1,7085635,442,-1327,-920,-1492,-301,-39,422,30,-118
1,7085641,440,-1325,-921,-1492,-297,-36,422,30,-118
1,7085646,440,-1325,-921,-1492,-297,-36,422,30,-118
1,7085655,440,-1325,-921,-1492,-297,-36,422,30,-118
1,7085662,438,-1325,-913,-1485,-303,-45,418,24,-108
1,7085667,438,-1325,-913,-1485,-303,-45,418,24,-108
1,7085674,438,-1325,-913,-1485,-303,-45,418,24,-108
1,7085681,440,-1327,-919,-1483,-301,-36,418,24,-108
1,7085688,440,-1327,-919,-1483,-301,-36,418,24,-108
1,7085696,440,-1327,-919,-1483,-301,-36,418,24,-108
1,7085704,440,-1325,-917,-1482,-303,-33,418,24,-108
1,7085711,440,-1325,-917,-1482,-303,-33,418,24,-108
1,7085717,440,-1325,-917,-1482,-303,-33,418,24,-108
1,7085725,449,-1328,-912,-1480,-295,-40,418,24,-108
1,7085733,449,-1328,-912,-1480,-295,-40,418,24,-108
1,7085741,445,-1327,-921,-1487,-303,-40,418,24,-108
1,7085748,445,-1327,-921,-1487,-303,-40,418,24,-108
1,7085756,445,-1327,-921,-1487,-303,-40,418,24,-108
1,7085762,444,-1324,-921,-1488,-303,-44,418,24,-108
1,7085767,444,-1324,-921,-1488,-303,-44,418,24,-108
1,7085775,444,-1324,-921,-1488,-303,-44,418,24,-108
1,7085784,441,-1324,-914,-1491,-303,-42,428,34,-114
1,7085791,441,-1324,-914,-1491,-303,-42,428,34,-114
1,7085797,441,-1324,-914,-1491,-303,-42,428,34,-114
1,7085803,437,-1326,-917,-1487,-300,-44,428,34,-114
1,7085810,437,-1326,-917,-1487,-300,-44,428,34,-114
1,7085817,437,-1326,-917,-1487,-300,-44,428,34,-114
1,7085825,437,-1323,-921,-1485,-303,-46,428,34,-114
1,7085833,437,-1323,-921,-1485,-303,-46,428,34,-114
1,7085840,439,-1324,-916,-1490,-300,-39,428,34,-114
1,7085846,439,-1324,-916,-1490,-300,-39,428,34,-114
1,7085854,439,-1324,-916,-1490,-300,-39,428,34,-114
1,7085861,442,-1325,-917,-1489,-305,-40,428,34,-114
1,7085868,442,-1325,-917,-1489,-305,-40,428,34,-114
1,7085876,442,-1325,-917,-1489,-305,-40,428,34,-114
1,7085883,446,-1325,-917,-1487,-308,-45,428,34,-114
1,7085889,446,-1325,-917,-1487,-308,-45,428,34,-114
1,7085897,446,-1325,-917,-1487,-308,-45,428,34,-114
1,7085904,445,-1322,-923,-1493,-307,-45,426,38,-110
1,7085911,445,-1322,-923,-1493,-307,-45,426,38,-110
1,7085919,444,-1323,-915,-1491,-300,-43,426,38,-110
1,7085926,444,-1323,-915,-1491,-300,-43,426,38,-110
1,7085932,444,-1323,-915,-1491,-300,-43,426,38,-110
1,7085938,440,-1327,-917,-1485,-301,-39,426,38,-110
1,7085946,440,-1327,-917,-1485,-301,-39,426,38,-110
1,7085955,440,-1327,-917,-1485,-301,-39,426,38,-110
1,7085961,440,-1326,-919,-1482,-308,-34,426,38,-110
1,7085971,440,-1326,-919,-1482,-308,-34,426,38,-110
1,7085983,440,-1327,-917,-1483,-295,-35,426,38,-110
1,7085995,440,-1327,-917,-1483,-295,-35,426,38,-110
1,7086009,442,-1327,-923,-1479,-302,-36,426,38,-110
1,7086019,439,-1326,-921,-1480,-301,-38,426,38,-110
1,7086034,439,-1326,-921,-1480,-301,-38,426,38,-110
1,7086047,444,-1323,-917,-1489,-297,-36,425,27,-113
1,7086058,444,-1323,-917,-1489,-297,-36,425,27,-113
1,7086072,443,-1325,-920,-1486,-299,-44,425,27,-113
1,7086086,439,-1327,-920,-1487,-292,-47,425,27,-113
1,7086098,439,-1327,-920,-1487,-292,-47,425,27,-113
1,7086110,438,-1329,-914,-1483,-297,-43,425,27,-113
1,7086124,441,-1326,-917,-1484,-304,-37,425,27,-113
1,7086137,441,-1326,-917,-1484,-304,-37,425,27,-113
1,7086149,442,-1325,-920,-1483,-309,-45,425,27,-113
1,7086162,443,-1322,-916,-1475,-299,-43,429,35,-105
1,7086177,443,-1322,-916,-1475,-299,-43,429,35,-105
1,7086188,441,-1325,-918,-1483,-302,-43,429,35,-105
1,7086201,441,-1326,-913,-1486,-302,-42,429,35,-105
1,7086214,441,-1326,-913,-1486,-302,-42,429,35,-105
1,7086227,437,-1325,-917,-1485,-304,-42,429,35,-105
1,7086237,437,-1325,-917,-1485,-304,-42,429,35,-105
1,7086244,440,-1324,-917,-1479,-302,-44,429,35,-105
1,7086254,440,-1324,-917,-1479,-302,-44,429,35,-105
1,7086261,442,-1326,-922,-1488,-298,-39,429,35,-105
1,7086270,442,-1326,-922,-1488,-298,-39,429,35,-105
1,7086285,440,-1325,-916,-1487,-297,-45,425,35,-115
1,7086301,442,-1326,-914,-1487,-298,-42,425,35,-115
1,7086311,442,-1326,-914,-1487,-298,-42,425,35,-115
1,7086324,445,-1326,-924,-1485,-298,-41,425,35,-115
1,7086338,445,-1326,-924,-1485,-298,-41,425,35,-115
1,7086353,444,-1325,-915,-1481,-306,-44,425,35,-115
1,7086364,442,-1325,-918,-1492,-302,-41,425,35,-115
1,7086377,442,-1325,-918,-1492,-302,-41,425,35,-115
1,7086390,439,-1325,-917,-1484,-300,-41,425,35,-115
1,7086403,436,-1324,-914,-1480,-302,-43,417,35,-107
1,7086411,436,-1324,-914,-1480,-302,-43,417,35,-107
1,7086419,440,-1323,-914,-1489,-297,-42,417,35,-107
1,7086428,440,-1323,-914,-1489,-297,-42,417,35,-107
1,7086436,440,-1323,-914,-1489,-297,-42,417,35,-107
1,7086444,446,-1320,-916,-1486,-306,-42,417,35,-107
1,7086452,446,-1320,-916,-1486,-306,-42,417,35,-107
1,7086460,448,-1323,-921,-1486,-311,-44,417,35,-107
1,7086469,448,-1323,-921,-1486,-311,-44,417,35,-107
1,7086477,448,-1323,-921,-1486,-311,-44,417,35,-107
1,7086484,444,-1325,-919,-1491,-304,-40,417,35,-107
1,7086493,444,-1325,-919,-1491,-304,-40,417,35,-107
1,7086500,444,-1325,-917,-1489,-302,-36,417,35,-107
1,7086509,444,-1325,-917,-1489,-302,-36,417,35,-107
1,7086522,440,-1325,-921,-1488,-296,-42,417,35,-107
1,7086534,440,-1325,-921,-1488,-296,-42,417,35,-107
1,7086548,440,-1327,-913,-1480,-302,-41,429,41,-111
1,7086561,438,-1328,-914,-1487,-300,-44,429,41,-111
1,7086573,438,-1328,-914,-1487,-300,-44,429,41,-111
1,7086586,442,-1328,-915,-1479,-300,-36,429,41,-111
1,7086602,443,-1326,-918,-1488,-304,-39,429,41,-111
1,7086615,443,-1326,-918,-1488,-304,-39,429,41,-111
1,7086624,443,-1327,-917,-1492,-299,-35,429,41,-111
1,7086632,443,-1327,-917,-1492,-299,-35,429,41,-111
1,7086643,443,-1327,-919,-1477,-298,-39,429,41,-111
1,7086650,443,-1327,-919,-1477,-298,-39,429,41,-111
1,7086661,443,-1325,-914,-1485,-303,-44,428,36,-110
1,7086673,443,-1325,-914,-1485,-303,-44,428,36,-110
1,7086686,440,-1325,-916,-1481,-302,-37,428,36,-110
1,7086698,440,-1325,-916,-1481,-302,-37,428,36,-110
1,7086710,439,-1328,-915,-1487,-301,-37,428,36,-110
1,7086723,439,-1324,-916,-1489,-301,-45,428,36,-110
1,7086737,439,-1324,-916,-1489,-301,-45,428,36,-110
1,7086748,444,-1327,-915,-1490,-300,-42,428,36,-110
1,7086761,444,-1324,-918,-1493,-303,-39,428,36,-110
1,7086776,444,-1324,-918,-1493,-303,-39,428,36,-110
1,7086789,440,-1325,-914,-1490,-303,-45,424,32,-112
