imu,time,ax,ay,az,gx,gy,gz,mx,my,mz
2,5518720,-3470,-1694,-548,-175,-258,-87,259,163,-287
2,5518725,-3471,-1692,-555,-181,-287,-89,259,163,-287
2,5518730,-3471,-1692,-555,-181,-287,-89,259,163,-287
2,5518735,-3471,-1692,-555,-181,-287,-89,259,163,-287
2,5518740,-3471,-1692,-555,-181,-287,-89,259,163,-287
2,5518746,-3478,-1692,-574,-167,-257,-90,259,163,-283
2,5518751,-3478,-1692,-574,-167,-257,-90,259,163,-283
2,5518755,-3478,-1692,-574,-167,-257,-90,259,163,-283
2,5518760,-3478,-1692,-574,-167,-257,-90,259,163,-283
2,5518767,-3470,-1694,-548,-159,-241,-91,259,163,-283
2,5518771,-3470,-1694,-548,-159,-241,-91,259,163,-283
2,5518777,-3470,-1694,-548,-159,-241,-91,259,163,-283
2,5518782,-3463,-1693,-500,-139,-188,-91,259,163,-283
2,5518790,-3463,-1693,-500,-139,-188,-91,259,163,-283
2,5518797,-3463,-1693,-500,-139,-188,-91,259,163,-283
2,5518807,-3484,-1700,-622,-169,-281,-85,259,163,-283
2,5518812,-3484,-1700,-622,-169,-281,-85,259,163,-283
2,5518820,-3484,-1700,-622,-169,-281,-85,259,163,-283
2,5518828,-3466,-1691,-519,-163,-273,-86,259,163,-283
2,5518836,-3466,-1691,-519,-163,-273,-86,259,163,-283
2,5518844,-3473,-1694,-535,-163,-247,-82,259,163,-283
2,5518853,-3473,-1694,-535,-163,-247,-82,259,163,-283
2,5518861,-3473,-1694,-535,-163,-247,-82,259,163,-283
2,5518870,-3473,-1697,-602,-162,-243,-89,254,160,-286
2,5518878,-3473,-1697,-602,-162,-243,-89,254,160,-286
2,5518886,-3473,-1697,-602,-162,-243,-89,254,160,-286
2,5518895,-3473,-1697,-602,-162,-243,-89,254,160,-286
2,5518908,-3472,-1694,-567,-159,-227,-84,254,160,-286
2,5518916,-3472,-1694,-567,-159,-227,-84,254,160,-286
2,5518931,-3471,-1695,-598,-168,-242,-83,254,160,-286
2,5518942,-3471,-1693,-529,-165,-228,-82,254,160,-286
2,5518952,-3471,-1693,-529,-165,-228,-82,254,160,-286
2,5518964,-3470,-1693,-562,-158,-235,-79,254,160,-286
2,5518977,-3470,-1693,-562,-158,-235,-79,254,160,-286
2,5518989,-3474,-1694,-566,-161,-239,-89,260,152,-284
2,5519000,-3474,-1694,-566,-161,-239,-89,260,152,-284
2,5519013,-3469,-1689,-524,-153,-249,-84,260,152,-284
2,5519024,-3469,-1694,-563,-169,-252,-81,260,152,-284
2,5519034,-3469,-1694,-563,-169,-252,-81,260,152,-284
2,5519046,-3473,-1693,-560,-165,-252,-86,260,152,-284
2,5519057,-3473,-1693,-560,-165,-252,-86,260,152,-284
2,5519068,-3466,-1693,-545,-167,-247,-78,260,152,-284
2,5519080,-3466,-1693,-545,-167,-247,-78,260,152,-284
2,5519094,-3471,-1696,-584,-163,-254,-86,260,152,-284
2,5519107,-3471,-1691,-529,-164,-243,-83,267,157,-285
2,5519117,-3471,-1691,-529,-164,-243,-83,267,157,-285
2,5519129,-3473,-1696,-568,-161,-240,-84,267,157,-285
2,5519140,-3473,-1696,-568,-161,-240,-84,267,157,-285
2,5519154,-3473,-1696,-556,-166,-237,-87,267,157,-285
2,5519168,-3471,-1692,-545,-164,-228,-85,267,157,-285
2,5519180,-3471,-1692,-545,-164,-228,-85,267,157,-285
2,5519188,-3472,-1696,-567,-167,-238,-88,267,157,-285
2,5519198,-3472,-1696,-567,-167,-238,-88,267,157,-285
2,5519206,-3471,-1694,-551,-168,-242,-86,267,157,-285
2,5519214,-3471,-1694,-551,-168,-242,-86,267,157,-285
2,5519227,-3471,-1692,-549,-163,-243,-88,260,164,-286
2,5519237,-3471,-1692,-549,-163,-243,-88,260,164,-286
2,5519250,-3469,-1689,-555,-162,-240,-89,260,164,-286
2,5519265,-3472,-1693,-551,-164,-241,-86,260,164,-286
2,5519280,-3472,-1693,-551,-164,-241,-86,260,164,-286
2,5519289,-3472,-1697,-558,-170,-235,-84,260,164,-286
2,5519299,-3472,-1697,-558,-170,-235,-84,260,164,-286
2,5519313,-3471,-1693,-552,-163,-239,-90,260,164,-286
2,5519325,-3470,-1691,-554,-158,-237,-89,260,164,-286
2,5519336,-3470,-1691,-554,-158,-237,-89,260,164,-286
2,5519349,-3470,-1692,-559,-149,-218,-91,260,164,-286
2,5519364,-3468,-1692,-549,-145,-222,-82,263,155,-281
2,5519373,-3468,-1692,-549,-145,-222,-82,263,155,-281
2,5519381,-3468,-1692,-549,-145,-222,-82,263,155,-281
2,5519390,-3470,-1693,-552,-159,-229,-88,263,155,-281
2,5519398,-3470,-1693,-552,-159,-229,-88,263,155,-281
2,5519407,-3469,-1693,-556,-146,-224,-80,263,155,-281
2,5519415,-3469,-1693,-556,-146,-224,-80,263,155,-281
2,5519423,-3471,-1694,-552,-153,-231,-86,263,155,-281
2,5519431,-3471,-1694,-552,-153,-231,-86,263,155,-281
2,5519439,-3471,-1694,-552,-153,-231,-86,263,155,-281
2,5519448,-3470,-1692,-546,-165,-246,-78,263,155,-281
2,5519456,-3470,-1692,-546,-165,-246,-78,263,155,-281
2,5519465,-3472,-1693,-559,-163,-248,-81,263,155,-281
2,5519473,-3472,-1693,-559,-163,-248,-81,263,155,-281
2,5519481,-3472,-1693,-559,-163,-248,-81,263,155,-281
2,5519490,-3473,-1691,-548,-162,-256,-87,263,163,-285
2,5519499,-3473,-1691,-548,-162,-256,-87,263,163,-285
2,5519507,-3470,-1692,-554,-167,-262,-86,263,163,-285
2,5519515,-3470,-1692,-554,-167,-262,-86,263,163,-285
2,5519524,-3472,-1695,-553,-177,-269,-90,263,163,-285
2,5519532,-3472,-1695,-553,-177,-269,-90,263,163,-285
2,5519542,-3472,-1695,-553,-177,-269,-90,263,163,-285
2,5519551,-3471,-1696,-552,-175,-258,-89,263,163,-285
2,5519559,-3471,-1696,-552,-175,-258,-89,263,163,-285
2,5519567,-3472,-1695,-560,-168,-249,-83,263,163,-285
2,5519578,-3472,-1695,-560,-168,-249,-83,263,163,-285
2,5519590,-3467,-1693,-551,-167,-255,-89,263,163,-285
2,5519603,-3473,-1692,-545,-168,-254,-87,255,165,-283
2,5519616,-3473,-1692,-545,-168,-254,-87,255,165,-283
2,5519629,-3469,-1696,-565,-166,-255,-87,255,165,-283
2,5519641,-3469,-1696,-565,-166,-255,-87,255,165,-283
2,5519654,-3477,-1695,-561,-155,-235,-85,255,165,-283
2,5519667,-3471,-1693,-541,-162,-234,-86,255,165,-283
2,5519675,-3471,-1693,-541,-162,-234,-86,255,165,-283
2,5519686,-3469,-1695,-559,-160,-232,-85,255,165,-283
2,5519699,-3469,-1695,-559,-160,-232,-85,255,165,-283
2,5519708,-3471,-1693,-559,-170,-246,-82,255,165,-283
2,5519720,-3471,-1693,-559,-170,-246,-82,255,165,-283
2,5519731,-3471,-1693,-559,-170,-246,-82,264,172,-282
2,5519741,-3471,-1693,-559,-170,-246,-82,264,172,-282
2,5519751,-3470,-1692,-571,-169,-239,-84,264,172,-282
2,5519759,-3470,-1692,-571,-169,-239,-84,264,172,-282
2,5519767,-3469,-1693,-529,-173,-248,-87,264,172,-282
2,5519777,-3469,-1693,-529,-173,-248,-87,264,172,-282
2,5519787,-3468,-1695,-565,-173,-248,-87,264,172,-282
2,5519802,-3468,-1695,-565,-173,-248,-87,264,172,-282
2,5519811,-3469,-1694,-553,-166,-253,-89,264,172,-282
2,5519819,-3469,-1694,-553,-166,-253,-89,264,172,-282
2,5519824,-3471,-1693,-552,-171,-250,-88,264,172,-282
2,5519830,-3471,-1693,-552,-171,-250,-88,264,172,-282
2,5519836,-3471,-1693,-552,-171,-250,-88,264,172,-282
2,5519842,-3471,-1693,-552,-171,-250,-88,264,172,-282
2,5519848,-3472,-1693,-562,-162,-243,-87,257,169,-287
2,5519855,-3472,-1693,-562,-162,-243,-87,257,169,-287
2,5519862,-3472,-1694,-551,-169,-246,-78,257,169,-287
2,5519869,-3472,-1694,-551,-169,-246,-78,257,169,-287
2,5519877,-3472,-1694,-551,-169,-246,-78,257,169,-287
2,5519883,-3472,-1692,-552,-161,-244,-85,257,169,-287
2,5519891,-3472,-1692,-552,-161,-244,-85,257,169,-287
2,5519897,-3472,-1692,-552,-161,-244,-85,257,169,-287
2,5519904,-3470,-1693,-558,-161,-245,-92,257,169,-287
2,5519912,-3470,-1693,-558,-161,-245,-92,257,169,-287
2,5519920,-3470,-1693,-558,-161,-245,-92,257,169,-287
2,5519927,-3471,-1695,-553,-161,-228,-82,257,169,-287
2,5519934,-3471,-1695,-553,-161,-228,-82,257,169,-287
2,5519941,-3471,-1695,-553,-161,-228,-82,257,169,-287
2,5519947,-3468,-1695,-561,-161,-226,-79,257,169,-287
2,5519952,-3468,-1695,-561,-161,-226,-79,257,169,-287
2,5519958,-3468,-1695,-561,-161,-226,-79,257,169,-287
2,5519963,-3470,-1693,-558,-158,-232,-81,257,169,-287
2,5519970,-3470,-1693,-558,-158,-232,-81,257,169,-287
2,5519979,-3470,-1693,-558,-158,-232,-81,257,169,-287
2,5519986,-3473,-1695,-550,-159,-240,-86,257,161,-287
2,5519992,-3473,-1695,-550,-159,-240,-86,257,161,-287
2,5520000,-3473,-1695,-550,-159,-240,-86,257,161,-287
2,5520008,-3471,-1692,-549,-165,-233,-80,257,161,-287
2,5520015,-3471,-1692,-549,-165,-233,-80,257,161,-287
2,5520022,-3471,-1692,-549,-165,-233,-80,257,161,-287
2,5520029,-3471,-1696,-558,-153,-239,-79,257,161,-287
2,5520036,-3471,-1696,-558,-153,-239,-79,257,161,-287
2,5520044,-3469,-1692,-556,-164,-238,-78,257,161,-287
2,5520051,-3469,-1692,-556,-164,-238,-78,257,161,-287
2,5520058,-3469,-1692,-556,-164,-238,-78,257,161,-287
2,5520064,-3471,-1693,-555,-163,-233,-81,257,161,-287
2,5520071,-3471,-1693,-555,-163,-233,-81,257,161,-287
2,5520078,-3471,-1693,-555,-163,-233,-81,257,161,-287
2,5520087,-3472,-1691,-524,-162,-242,-84,257,161,-287
2,5520091,-3472,-1691,-524,-162,-242,-84,257,161,-287
2,5520098,-3472,-1691,-524,-162,-242,-84,257,161,-287
2,5520105,-3472,-1691,-578,-175,-255,-92,256,158,-288
2,5520112,-3472,-1691,-578,-175,-255,-92,256,158,-288
2,5520119,-3472,-1691,-578,-175,-255,-92,256,158,-288
2,5520125,-3472,-1692,-537,-165,-258,-81,256,158,-288
2,5520134,-3472,-1692,-537,-165,-258,-81,256,158,-288
2,5520140,-3472,-1692,-537,-165,-258,-81,256,158,-288
2,5520147,-3472,-1695,-562,-176,-261,-84,256,158,-288
2,5520156,-3472,-1695,-562,-176,-261,-84,256,158,-288
2,5520161,-3472,-1695,-562,-176,-261,-84,256,158,-288
2,5520167,-3473,-1696,-558,-176,-262,-82,256,158,-288
2,5520175,-3473,-1696,-558,-176,-262,-82,256,158,-288
2,5520181,-3473,-1696,-558,-176,-262,-82,256,158,-288
2,5520188,-3468,-1692,-549,-163,-254,-85,256,158,-288
2,5520197,-3468,-1692,-549,-163,-254,-85,256,158,-288
2,5520204,-3472,-1691,-566,-169,-237,-82,256,158,-288
2,5520210,-3472,-1691,-566,-169,-237,-82,256,158,-288
2,5520218,-3472,-1691,-566,-169,-237,-82,256,158,-288
2,5520225,-3467,-1693,-550,-165,-227,-82,259,161,-291
2,5520233,-3467,-1693,-550,-165,-227,-82,259,161,-291
2,5520239,-3467,-1693,-550,-165,-227,-82,259,161,-291
2,5520247,-3474,-1691,-550,-160,-227,-83,259,161,-291
2,5520254,-3474,-1691,-550,-160,-227,-83,259,161,-291
2,5520262,-3474,-1691,-550,-160,-227,-83,259,161,-291
2,5520269,-3470,-1695,-556,-156,-226,-86,259,161,-291
2,5520274,-3470,-1695,-556,-156,-226,-86,259,161,-291
2,5520282,-3470,-1695,-556,-156,-226,-86,259,161,-291
2,5520290,-3470,-1692,-554,-166,-233,-88,259,161,-291
2,5520296,-3470,-1692,-554,-166,-233,-88,259,161,-291
2,5520303,-3474,-1693,-559,-164,-224,-80,259,161,-291
2,5520308,-3474,-1693,-559,-164,-224,-80,259,161,-291
2,5520315,-3474,-1693,-559,-164,-224,-80,259,161,-291
2,5520323,-3470,-1693,-561,-166,-231,-85,259,161,-291
2,5520330,-3470,-1693,-561,-166,-231,-85,259,161,-291
2,5520337,-3470,-1693,-561,-166,-231,-85,259,161,-291
2,5520345,-3470,-1695,-550,-162,-232,-84,259,163,-293
2,5520353,-3470,-1695,-550,-162,-232,-84,259,163,-293
2,5520358,-3470,-1695,-550,-162,-232,-84,259,163,-293
2,5520365,-3470,-1695,-554,-154,-236,-83,259,163,-293
2,5520373,-3470,-1695,-554,-154,-236,-83,259,163,-293
2,5520380,-3470,-1695,-554,-154,-236,-83,259,163,-293
2,5520388,-3469,-1691,-556,-161,-235,-82,259,163,-293
2,5520393,-3469,-1691,-556,-161,-235,-82,259,163,-293
2,5520400,-3469,-1691,-556,-161,-235,-82,259,163,-293
2,5520407,-3472,-1694,-551,-156,-231,-87,259,163,-293
2,5520415,-3472,-1694,-551,-156,-231,-87,259,163,-293
2,5520422,-3472,-1694,-551,-156,-231,-87,259,163,-293
2,5520431,-3471,-1692,-557,-161,-238,-83,259,163,-293
2,5520438,-3471,-1692,-557,-161,-238,-83,259,163,-293
2,5520445,-3468,-1691,-557,-160,-238,-87,259,163,-293
2,5520451,-3468,-1691,-557,-160,-238,-87,259,163,-293
2,5520458,-3468,-1691,-557,-160,-238,-87,259,163,-293
2,5520466,-3472,-1696,-558,-165,-241,-92,258,158,-290
2,5520474,-3472,-1696,-558,-165,-241,-92,258,158,-290
2,5520482,-3472,-1696,-558,-165,-241,-92,258,158,-290
2,5520489,-3470,-1693,-550,-166,-236,-88,258,158,-290
2,5520494,-3470,-1693,-550,-166,-236,-88,258,158,-290
2,5520501,-3470,-1693,-550,-166,-236,-88,258,158,-290
2,5520509,-3470,-1693,-560,-161,-237,-84,258,158,-290
2,5520515,-3470,-1693,-560,-161,-237,-84,258,158,-290
2,5520520,-3470,-1693,-560,-161,-237,-84,258,158,-290
2,5520525,-3469,-1692,-555,-164,-240,-87,258,158,-290
2,5520530,-3469,-1692,-555,-164,-240,-87,258,158,-290
2,5520535,-3469,-1692,-555,-164,-240,-87,258,158,-290
2,5520542,-3469,-1692,-555,-164,-240,-87,258,158,-290
2,5520547,-3469,-1694,-553,-162,-233,-85,258,158,-290
2,5520555,-3469,-1694,-553,-162,-233,-85,258,158,-290
2,5520561,-3469,-1694,-553,-162,-233,-85,258,158,-290
2,5520568,-3471,-1691,-547,-164,-244,-91,258,158,-290
2,5520574,-3471,-1691,-547,-164,-244,-91,258,158,-290
2,5520583,-3472,-1694,-551,-164,-247,-84,258,158,-290
2,5520591,-3472,-1694,-551,-164,-247,-84,258,158,-290
2,5520599,-3472,-1694,-551,-164,-247,-84,258,158,-290
2,5520606,-3465,-1694,-551,-165,-240,-87,264,170,-286
2,5520612,-3465,-1694,-551,-165,-240,-87,264,170,-286
2,5520620,-3465,-1694,-551,-165,-240,-87,264,170,-286
2,5520625,-3468,-1695,-566,-162,-244,-83,264,170,-286
2,5520633,-3468,-1695,-566,-162,-244,-83,264,170,-286
2,5520640,-3468,-1695,-566,-162,-244,-83,264,170,-286
2,5520647,-3468,-1694,-547,-162,-247,-89,264,170,-286
2,5520652,-3468,-1694,-547,-162,-247,-89,264,170,-286
2,5520658,-3468,-1694,-547,-162,-247,-89,264,170,-286
2,5520665,-3469,-1693,-558,-161,-250,-93,264,170,-286
2,5520672,-3469,-1693,-558,-161,-250,-93,264,170,-286
2,5520679,-3469,-1693,-558,-161,-250,-93,264,170,-286
2,5520685,-3470,-1694,-559,-166,-260,-87,264,170,-286
2,5520690,-3470,-1694,-559,-166,-260,-87,264,170,-286
2,5520697,-3470,-1694,-559,-166,-260,-87,264,170,-286
2,5520705,-3471,-1692,-545,-166,-245,-85,264,170,-286
2,5520712,-3471,-1692,-545,-166,-245,-85,264,170,-286
2,5520718,-3471,-1692,-545,-166,-245,-85,264,170,-286
2,5520724,-3470,-1696,-556,-162,-232,-79,266,158,-288
2,5520733,-3470,-1696,-556,-162,-232,-79,266,158,-288
2,5520740,-3470,-1696,-556,-162,-232,-79,266,158,-288
2,5520747,-3472,-1692,-560,-160,-230,-83,266,158,-288
2,5520754,-3472,-1692,-560,-160,-230,-83,266,158,-288
2,5520761,-3472,-1692,-560,-160,-230,-83,266,158,-288
2,5520769,-3468,-1694,-550,-151,-231,-88,266,158,-288
2,5520777,-3468,-1694,-550,-151,-231,-88,266,158,-288
2,5520783,-3472,-1691,-554,-160,-228,-88,266,158,-288
2,5520790,-3472,-1691,-554,-160,-228,-88,266,158,-288
2,5520797,-3472,-1691,-554,-160,-228,-88,266,158,-288
2,5520804,-3471,-1693,-554,-163,-237,-89,266,158,-288
2,5520809,-3471,-1693,-554,-163,-237,-89,266,158,-288
2,5520816,-3471,-1693,-554,-163,-237,-89,266,158,-288
2,5520820,-3471,-1693,-554,-163,-237,-89,266,158,-288
2,5520825,-3474,-1695,-559,-157,-236,-77,266,158,-288
2,5520833,-3474,-1695,-559,-157,-236,-77,266,158,-288
2,5520841,-3474,-1695,-559,-157,-236,-77,266,158,-288
2,5520850,-3473,-1693,-550,-164,-232,-83,252,164,-290
2,5520859,-3473,-1693,-550,-164,-232,-83,252,164,-290
2,5520867,-3473,-1692,-554,-162,-232,-87,252,164,-290
2,5520875,-3473,-1692,-554,-162,-232,-87,252,164,-290
2,5520883,-3473,-1692,-554,-162,-232,-87,252,164,-290
2,5520891,-3467,-1692,-561,-158,-232,-86,252,164,-290
2,5520900,-3467,-1692,-561,-158,-232,-86,252,164,-290
2,5520910,-3469,-1692,-566,-169,-238,-84,252,164,-290
2,5520919,-3469,-1692,-566,-169,-238,-84,252,164,-290
2,5520927,-3468,-1695,-544,-158,-232,-80,252,164,-290
2,5520939,-3468,-1695,-544,-158,-232,-80,252,164,-290
2,5520948,-3469,-1691,-561,-160,-234,-83,252,164,-290
2,5520957,-3469,-1691,-561,-160,-234,-83,252,164,-290
2,5520966,-3469,-1693,-552,-161,-231,-78,263,155,-285
2,5520975,-3469,-1693,-552,-161,-231,-78,263,155,-285
2,5520985,-3469,-1692,-545,-162,-230,-83,263,155,-285
2,5520993,-3469,-1692,-545,-162,-230,-83,263,155,-285
2,5521005,-3472,-1692,-558,-167,-227,-87,263,155,-285
2,5521018,-3472,-1692,-558,-167,-227,-87,263,155,-285
2,5521030,-3470,-1690,-556,-163,-231,-94,263,155,-285
2,5521043,-3470,-1690,-556,-163,-231,-94,263,155,-285
2,5521055,-3470,-1692,-548,-155,-230,-90,263,155,-285
2,5521067,-3470,-1694,-558,-166,-233,-83,263,155,-285
2,5521079,-3470,-1694,-558,-166,-233,-83,263,155,-285
2,5521092,-3470,-1692,-554,-167,-229,-80,260,162,-286
2,5521103,-3470,-1692,-554,-167,-229,-80,260,162,-286
2,5521114,-3471,-1694,-549,-168,-236,-90,260,162,-286
2,5521127,-3472,-1695,-557,-159,-235,-89,260,162,-286
2,5521140,-3472,-1695,-557,-159,-235,-89,260,162,-286
2,5521148,-3471,-1693,-545,-161,-243,-81,260,162,-286
2,5521159,-3471,-1693,-545,-161,-243,-81,260,162,-286
2,5521167,-3469,-1692,-559,-160,-235,-84,260,162,-286
2,5521175,-3469,-1692,-559,-160,-235,-84,260,162,-286
2,5521183,-3472,-1691,-549,-162,-238,-78,260,162,-286
2,5521195,-3472,-1691,-549,-162,-238,-78,260,162,-286
2,5521207,-3472,-1692,-555,-164,-238,-77,260,162,-286
2,5521218,-3472,-1692,-555,-164,-238,-77,260,162,-286
2,5521230,-3471,-1697,-548,-160,-246,-85,258,158,-278
2,5521245,-3471,-1694,-553,-167,-237,-84,258,158,-278
2,5521256,-3471,-1694,-553,-167,-237,-84,258,158,-278
2,5521268,-3472,-1692,-561,-163,-229,-85,258,158,-278
2,5521281,-3472,-1692,-561,-163,-229,-85,258,158,-278
2,5521294,-3470,-1690,-547,-163,-230,-89,258,158,-278
2,5521305,-3473,-1694,-560,-156,-236,-77,258,158,-278
2,5521314,-3473,-1694,-560,-156,-236,-77,258,158,-278
2,5521325,-3469,-1690,-555,-164,-238,-80,258,158,-278
2,5521337,-3469,-1690,-555,-164,-238,-80,258,158,-278
2,5521348,-3469,-1691,-545,-163,-235,-86,260,166,-282
2,5521361,-3469,-1691,-545,-163,-235,-86,260,166,-282
2,5521373,-3469,-1692,-555,-172,-241,-81,260,166,-282
2,5521384,-3469,-1692,-555,-172,-241,-81,260,166,-282
2,5521396,-3469,-1692,-555,-172,-241,-81,260,166,-282
2,5521411,-3473,-1696,-556,-168,-237,-91,260,166,-282
2,5521423,-3473,-1696,-556,-168,-237,-91,260,166,-282
2,5521434,-3471,-1692,-555,-157,-237,-87,260,166,-282
2,5521447,-3471,-1696,-549,-160,-240,-88,260,166,-282
2,5521460,-3471,-1696,-549,-160,-240,-88,260,166,-282
2,5521470,-3471,-1693,-550,-165,-240,-85,264,162,-286
2,5521480,-3471,-1693,-550,-165,-240,-85,264,162,-286
2,5521495,-3472,-1691,-552,-155,-236,-89,264,162,-286
2,5521510,-3468,-1690,-556,-161,-243,-92,264,162,-286
2,5521518,-3468,-1690,-556,-161,-243,-92,264,162,-286
2,5521525,-3472,-1693,-560,-167,-243,-86,264,162,-286
2,5521534,-3472,-1693,-560,-167,-243,-86,264,162,-286
2,5521543,-3472,-1693,-560,-167,-243,-86,264,162,-286
2,5521557,-3468,-1691,-555,-158,-245,-88,264,162,-286
2,5521567,-3472,-1693,-562,-158,-240,-93,264,162,-286
2,5521581,-3472,-1693,-562,-158,-240,-93,264,162,-286
2,5521594,-3470,-1692,-549,-156,-246,-84,264,154,-290
2,5521608,-3470,-1692,-552,-163,-246,-82,264,154,-290
2,5521619,-3470,-1692,-552,-163,-246,-82,264,154,-290
2,5521632,-3473,-1697,-558,-156,-242,-80,264,154,-290
2,5521643,-3473,-1697,-558,-156,-242,-80,264,154,-290
2,5521655,-3473,-1694,-552,-158,-236,-82,264,154,-290
2,5521668,-3470,-1692,-559,-160,-240,-86,264,154,-290
2,5521681,-3470,-1692,-559,-160,-240,-86,264,154,-290
2,5521694,-3468,-1693,-554,-170,-247,-92,264,154,-290
2,5521708,-3473,-1692,-551,-160,-240,-94,264,156,-286
2,5521719,-3473,-1692,-551,-160,-240,-94,264,156,-286
2,5521732,-3471,-1693,-560,-160,-237,-85,264,156,-286
2,5521744,-3469,-1695,-548,-156,-235,-81,264,156,-286
2,5521754,-3469,-1695,-548,-156,-235,-81,264,156,-286
2,5521764,-3473,-1690,-548,-166,-231,-85,264,156,-286
2,5521778,-3473,-1690,-548,-166,-231,-85,264,156,-286
2,5521793,-3470,-1694,-561,-166,-234,-78,264,156,-286
2,5521802,-3470,-1694,-561,-166,-234,-78,264,156,-286
2,5521811,-3467,-1693,-556,-166,-234,-83,264,156,-286
2,5521819,-3467,-1693,-556,-166,-234,-83,264,156,-286
2,5521827,-3472,-1696,-546,-163,-238,-85,264,156,-286
2,5521836,-3472,-1696,-546,-163,-238,-85,264,156,-286
2,5521840,-3472,-1696,-546,-163,-238,-85,264,156,-286
2,5521845,-3469,-1694,-554,-165,-248,-85,260,158,-284
2,5521850,-3469,-1694,-554,-165,-248,-85,260,158,-284
2,5521856,-3469,-1694,-554,-165,-248,-85,260,158,-284
2,5521863,-3469,-1694,-554,-165,-248,-85,260,158,-284
2,5521870,-3471,-1694,-560,-169,-240,-91,260,158,-284
2,5521879,-3471,-1694,-560,-169,-240,-91,260,158,-284
2,5521885,-3470,-1692,-549,-162,-236,-87,260,158,-284
2,5521890,-3470,-1692,-549,-162,-236,-87,260,158,-284
2,5521895,-3470,-1692,-549,-162,-236,-87,260,158,-284
2,5521901,-3470,-1692,-549,-162,-236,-87,260,158,-284
2,5521908,-3471,-1692,-559,-163,-238,-92,260,158,-284
2,5521914,-3471,-1692,-559,-163,-238,-92,260,158,-284
2,5521924,-3471,-1692,-559,-163,-238,-92,260,158,-284
2,5521931,-3469,-1695,-558,-163,-237,-85,260,158,-284
2,5521939,-3469,-1695,-558,-163,-237,-85,260,158,-284
2,5521946,-3472,-1692,-556,-165,-238,-88,260,158,-284
2,5521953,-3472,-1692,-556,-165,-238,-88,260,158,-284
2,5521960,-3472,-1692,-556,-165,-238,-88,260,158,-284
2,5521967,-3470,-1692,-554,-159,-236,-87,260,164,-288
2,5521975,-3470,-1692,-554,-159,-236,-87,260,164,-288
2,5521982,-3470,-1692,-554,-159,-236,-87,260,164,-288
2,5521990,-3470,-1692,-554,-159,-236,-87,260,164,-288
2,5521997,-3470,-1692,-554,-159,-236,-87,260,164,-288
2,5522006,-3472,-1693,-554,-164,-240,-85,260,164,-288
2,5522014,-3472,-1693,-554,-164,-240,-85,260,164,-288
2,5522021,-3472,-1693,-554,-164,-240,-85,260,164,-288
2,5522028,-3475,-1693,-538,-170,-248,-84,260,164,-288
2,5522035,-3475,-1693,-538,-170,-248,-84,260,164,-288
2,5522042,-3475,-1693,-538,-170,-248,-84,260,164,-288
2,5522049,-3471,-1695,-566,-168,-239,-84,260,164,-288
2,5522056,-3471,-1695,-566,-168,-239,-84,260,164,-288
2,5522063,-3471,-1695,-566,-168,-239,-84,260,164,-288
2,5522070,-3472,-1694,-573,-158,-239,-86,260,164,-288
2,5522078,-3472,-1694,-573,-158,-239,-86,260,164,-288
2,5522083,-3472,-1694,-573,-158,-239,-86,260,164,-288
2,5522092,-3469,-1691,-543,-160,-237,-88,261,163,-287
2,5522098,-3469,-1691,-543,-160,-237,-88,261,163,-287
2,5522104,-3469,-1691,-543,-160,-237,-88,261,163,-287
2,5522109,-3472,-1696,-567,-170,-234,-83,261,163,-287
2,5522116,-3472,-1696,-567,-170,-234,-83,261,163,-287
2,5522124,-3472,-1696,-567,-170,-234,-83,261,163,-287
2,5522131,-3473,-1694,-549,-166,-231,-82,261,163,-287
2,5522138,-3473,-1694,-549,-166,-231,-82,261,163,-287
2,5522145,-3473,-1693,-559,-169,-239,-89,261,163,-287
2,5522152,-3473,-1693,-559,-169,-239,-89,261,163,-287
2,5522159,-3473,-1693,-559,-169,-239,-89,261,163,-287
2,5522166,-3474,-1694,-565,-157,-238,-88,261,163,-287
2,5522173,-3474,-1694,-565,-157,-238,-88,261,163,-287
2,5522180,-3474,-1694,-565,-157,-238,-88,261,163,-287
2,5522186,-3469,-1692,-547,-162,-234,-85,261,163,-287
2,5522193,-3469,-1692,-547,-162,-234,-85,261,163,-287
2,5522200,-3469,-1692,-547,-162,-234,-85,261,163,-287
2,5522207,-3470,-1693,-559,-172,-245,-82,266,158,-286
2,5522213,-3470,-1693,-559,-172,-245,-82,266,158,-286
2,5522221,-3470,-1693,-559,-172,-245,-82,266,158,-286
2,5522228,-3468,-1694,-550,-166,-241,-80,266,158,-286
2,5522234,-3468,-1694,-550,-166,-241,-80,266,158,-286
2,5522242,-3468,-1694,-550,-166,-241,-80,266,158,-286
2,5522250,-3472,-1690,-553,-161,-242,-78,266,158,-286
2,5522256,-3472,-1690,-553,-161,-242,-78,266,158,-286
2,5522264,-3472,-1690,-553,-161,-242,-78,266,158,-286
2,5522270,-3468,-1692,-556,-168,-248,-86,266,158,-286
2,5522276,-3468,-1692,-556,-168,-248,-86,266,158,-286
2,5522282,-3468,-1692,-556,-168,-248,-86,266,158,-286
2,5522289,-3472,-1694,-555,-159,-248,-81,266,158,-286
2,5522296,-3472,-1694,-555,-159,-248,-81,266,158,-286
2,5522302,-3472,-1694,-555,-159,-248,-81,266,158,-286
2,5522311,-3469,-1694,-558,-151,-234,-84,266,158,-286
2,5522318,-3469,-1694,-558,-151,-234,-84,266,158,-286
2,5522326,-3469,-1694,-558,-151,-234,-84,265,157,-281
2,5522332,-3469,-1694,-558,-151,-234,-84,265,157,-281
2,5522339,-3469,-1694,-558,-151,-234,-84,265,157,-281
2,5522347,-3471,-1691,-557,-160,-250,-92,265,157,-281
2,5522352,-3471,-1691,-557,-160,-250,-92,265,157,-281
2,5522360,-3471,-1691,-557,-160,-250,-92,265,157,-281
2,5522366,-3471,-1692,-551,-157,-260,-84,265,157,-281
2,5522374,-3471,-1692,-551,-157,-260,-84,265,157,-281
2,5522382,-3471,-1692,-551,-157,-260,-84,265,157,-281
2,5522391,-3471,-1694,-559,-158,-246,-84,265,157,-281
2,5522397,-3471,-1694,-559,-158,-246,-84,265,157,-281
2,5522402,-3471,-1694,-559,-158,-246,-84,265,157,-281
2,5522410,-3472,-1693,-556,-160,-244,-81,265,157,-281
2,5522416,-3472,-1693,-556,-160,-244,-81,265,157,-281
2,5522423,-3472,-1693,-556,-160,-244,-81,265,157,-281
2,5522429,-3469,-1694,-548,-162,-237,-84,265,157,-281
2,5522436,-3469,-1694,-548,-162,-237,-84,265,157,-281
2,5522443,-3469,-1694,-548,-162,-237,-84,265,157,-281
2,5522451,-3470,-1692,-563,-171,-231,-81,265,157,-281
2,5522459,-3470,-1692,-563,-171,-231,-81,265,157,-281
2,5522466,-3468,-1693,-548,-164,-240,-87,265,163,-281
2,5522472,-3468,-1693,-548,-164,-240,-87,265,163,-281
2,5522479,-3468,-1693,-548,-164,-240,-87,265,163,-281
2,5522484,-3468,-1693,-548,-164,-240,-87,265,163,-281
2,5522489,-3471,-1693,-559,-169,-247,-84,265,163,-281
2,5522495,-3471,-1693,-559,-169,-247,-84,265,163,-281
2,5522502,-3471,-1693,-559,-169,-247,-84,265,163,-281
2,5522510,-3469,-1690,-551,-160,-240,-80,265,163,-281
2,5522515,-3469,-1690,-551,-160,-240,-80,265,163,-281
2,5522521,-3469,-1690,-551,-160,-240,-80,265,163,-281
2,5522526,-3472,-1691,-557,-164,-239,-86,265,163,-281
2,5522531,-3472,-1691,-557,-164,-239,-86,265,163,-281
2,5522536,-3472,-1691,-557,-164,-239,-86,265,163,-281
2,5522544,-3472,-1691,-557,-164,-239,-86,265,163,-281
2,5522549,-3469,-1695,-558,-161,-240,-86,265,163,-281
2,5522555,-3469,-1695,-558,-161,-240,-86,265,163,-281
2,5522562,-3469,-1695,-558,-161,-240,-86,265,163,-281
2,5522567,-3472,-1693,-555,-161,-237,-83,265,163,-281
2,5522572,-3472,-1693,-555,-161,-237,-83,265,163,-281
2,5522578,-3472,-1693,-555,-161,-237,-83,265,163,-281
2,5522583,-3472,-1693,-555,-161,-237,-83,265,163,-281
2,5522589,-3473,-1693,-550,-160,-241,-90,261,155,-289
2,5522595,-3473,-1693,-550,-160,-241,-90,261,155,-289
2,5522600,-3473,-1693,-550,-160,-241,-90,261,155,-289
2,5522607,-3469,-1694,-562,-168,-241,-88,261,155,-289
2,5522612,-3469,-1694,-562,-168,-241,-88,261,155,-289
2,5522617,-3469,-1694,-562,-168,-241,-88,261,155,-289
2,5522623,-3469,-1694,-562,-168,-241,-88,261,155,-289
2,5522628,-3472,-1692,-557,-169,-225,-89,261,155,-289
2,5522634,-3472,-1692,-557,-169,-225,-89,261,155,-289
2,5522639,-3472,-1692,-557,-169,-225,-89,261,155,-289
2,5522646,-3474,-1695,-550,-164,-217,-83,261,155,-289
2,5522651,-3474,-1695,-550,-164,-217,-83,261,155,-289
2,5522656,-3474,-1695,-550,-164,-217,-83,261,155,-289
2,5522663,-3474,-1695,-550,-164,-217,-83,261,155,-289
2,5522669,-3473,-1693,-550,-163,-230,-84,261,155,-289
2,5522675,-3473,-1693,-550,-163,-230,-84,261,155,-289
2,5522681,-3473,-1693,-550,-163,-230,-84,261,155,-289
2,5522688,-3469,-1694,-560,-160,-232,-84,261,155,-289
2,5522693,-3469,-1694,-560,-160,-232,-84,261,155,-289
2,5522699,-3469,-1694,-560,-160,-232,-84,261,155,-289
2,5522704,-3469,-1694,-560,-160,-232,-84,261,155,-289
2,5522709,-3471,-1691,-551,-155,-233,-85,256,162,-278
2,5522715,-3471,-1691,-551,-155,-233,-85,256,162,-278
2,5522720,-3471,-1691,-551,-155,-233,-85,256,162,-278
2,5522726,-3472,-1694,-551,-153,-222,-73,256,162,-278
2,5522733,-3472,-1694,-551,-153,-222,-73,256,162,-278
2,5522738,-3472,-1694,-551,-153,-222,-73,256,162,-278
2,5522744,-3472,-1694,-551,-153,-222,-73,256,162,-278
2,5522750,-3471,-1694,-553,-159,-211,-82,256,162,-278
2,5522755,-3471,-1694,-553,-159,-211,-82,256,162,-278
2,5522761,-3471,-1694,-553,-159,-211,-82,256,162,-278
2,5522767,-3475,-1694,-545,-160,-216,-83,256,162,-278
2,5522772,-3475,-1694,-545,-160,-216,-83,256,162,-278
2,5522779,-3475,-1694,-545,-160,-216,-83,256,162,-278
2,5522785,-3475,-1694,-545,-160,-216,-83,256,162,-278
2,5522790,-3472,-1691,-560,-163,-232,-83,256,162,-278
2,5522797,-3472,-1691,-560,-163,-232,-83,256,162,-278
2,5522803,-3472,-1691,-560,-163,-232,-83,256,162,-278
2,5522809,-3470,-1694,-551,-165,-239,-80,256,162,-278
2,5522814,-3470,-1694,-551,-165,-239,-80,256,162,-278
2,5522820,-3470,-1694,-551,-165,-239,-80,256,162,-278
2,5522825,-3470,-1694,-551,-165,-239,-80,256,162,-278
2,5522830,-3469,-1695,-563,-160,-242,-76,256,160,-284
2,5522835,-3469,-1695,-563,-160,-242,-76,256,160,-284
2,5522840,-3469,-1695,-563,-160,-242,-76,256,160,-284
2,5522848,-3474,-1694,-550,-159,-240,-80,256,160,-284
2,5522856,-3474,-1694,-550,-159,-240,-80,256,160,-284
2,5522865,-3474,-1694,-550,-159,-240,-80,256,160,-284
2,5522874,-3471,-1695,-553,-164,-239,-88,256,160,-284
2,5522884,-3471,-1695,-553,-164,-239,-88,256,160,-284
2,5522892,-3472,-1691,-531,-155,-227,-81,256,160,-284
2,5522903,-3472,-1691,-531,-155,-227,-81,256,160,-284
2,5522911,-3468,-1691,-555,-152,-235,-74,256,160,-284
2,5522922,-3468,-1691,-555,-152,-235,-74,256,160,-284
2,5522935,-3473,-1694,-551,-159,-237,-78,256,160,-284
2,5522947,-3473,-1693,-552,-156,-228,-89,262,160,-282
2,5522957,-3473,-1693,-552,-156,-228,-89,262,160,-282
2,5522970,-3475,-1692,-555,-151,-230,-87,262,160,-282
2,5522983,-3475,-1692,-555,-151,-230,-87,262,160,-282
2,5522994,-3471,-1695,-554,-154,-241,-90,262,160,-282
2,5523005,-3471,-1695,-554,-154,-241,-90,262,160,-282
2,5523018,-3472,-1694,-553,-155,-246,-84,262,160,-282
2,5523032,-3468,-1692,-546,-158,-229,-92,262,160,-282
2,5523041,-3468,-1692,-546,-158,-229,-92,262,160,-282
2,5523053,-3470,-1691,-560,-156,-229,-85,262,160,-282
2,5523067,-3468,-1692,-551,-162,-234,-88,268,162,-280
2,5523077,-3468,-1692,-551,-162,-234,-88,268,162,-280
2,5523084,-3468,-1692,-551,-162,-234,-88,268,162,-280
2,5523093,-3471,-1693,-545,-161,-238,-87,268,162,-280
2,5523103,-3471,-1693,-545,-161,-238,-87,268,162,-280
2,5523117,-3471,-1694,-551,-155,-242,-91,268,162,-280
2,5523128,-3470,-1694,-565,-157,-237,-92,268,162,-280
2,5523139,-3470,-1694,-565,-157,-237,-92,268,162,-280
2,5523151,-3473,-1694,-553,-165,-242,-81,268,162,-280
2,5523161,-3473,-1694,-553,-165,-242,-81,268,162,-280
2,5523169,-3472,-1691,-560,-159,-270,-86,268,162,-280
2,5523177,-3472,-1691,-560,-159,-270,-86,268,162,-280
2,5523185,-3472,-1691,-560,-159,-270,-86,268,162,-280
2,5523193,-3473,-1690,-559,-163,-250,-83,268,162,-280
2,5523205,-3473,-1690,-559,-163,-250,-83,268,162,-280
2,5523219,-3473,-1694,-553,-168,-228,-82,263,165,-287
2,5523233,-3475,-1692,-557,-166,-234,-85,263,165,-287
2,5523243,-3475,-1692,-557,-166,-234,-85,263,165,-287
2,5523255,-3468,-1693,-557,-163,-240,-87,263,165,-287
2,5523267,-3470,-1692,-550,-167,-244,-83,263,165,-287
2,5523277,-3470,-1692,-550,-167,-244,-83,263,165,-287
2,5523290,-3472,-1693,-560,-171,-240,-88,263,165,-287
2,5523302,-3472,-1693,-560,-171,-240,-88,263,165,-287
2,5523312,-3470,-1692,-550,-158,-237,-85,263,165,-287
2,5523324,-3470,-1692,-550,-158,-237,-85,263,165,-287
2,5523340,-3468,-1692,-557,-161,-232,-87,262,156,-290
2,5523352,-3469,-1690,-553,-166,-244,-84,262,156,-290
2,5523360,-3469,-1690,-553,-166,-244,-84,262,156,-290
2,5523373,-3468,-1694,-556,-159,-240,-81,262,156,-290
2,5523387,-3470,-1695,-559,-153,-234,-82,262,156,-290
2,5523399,-3470,-1695,-559,-153,-234,-82,262,156,-290
2,5523409,-3470,-1695,-559,-153,-234,-82,262,156,-290
2,5523423,-3470,-1695,-559,-153,-234,-82,262,156,-290
2,5523438,-3470,-1695,-559,-153,-234,-82,262,156,-290
2,5523449,-3468,-1691,-556,-156,-231,-88,260,166,-288
2,5523459,-3468,-1691,-556,-156,-231,-88,260,166,-288
2,5523470,-3471,-1692,-556,-158,-234,-79,260,166,-288
2,5523483,-3471,-1692,-556,-158,-234,-79,260,166,-288
2,5523494,-3472,-1695,-556,-158,-233,-76,260,166,-288
2,5523508,-3472,-1696,-555,-163,-241,-71,260,166,-288
2,5523516,-3472,-1696,-555,-163,-241,-71,260,166,-288
2,5523524,-3472,-1696,-555,-163,-241,-71,260,166,-288
2,5523532,-3470,-1692,-559,-159,-247,-88,260,166,-288
2,5523543,-3470,-1692,-559,-159,-247,-88,260,166,-288
2,5523557,-3472,-1691,-554,-162,-248,-86,260,166,-288
2,5523568,-3471,-1694,-549,-164,-243,-85,261,167,-291
2,5523577,-3471,-1694,-549,-164,-243,-85,261,167,-291
2,5523591,-3470,-1693,-552,-164,-236,-87,261,167,-291
2,5523604,-3470,-1693,-552,-164,-236,-87,261,167,-291
2,5523618,-3471,-1694,-556,-164,-242,-87,261,167,-291
2,5523628,-3469,-1691,-557,-163,-250,-84,261,167,-291
2,5523640,-3469,-1691,-557,-163,-250,-84,261,167,-291
2,5523651,-3471,-1694,-555,-166,-238,-83,261,167,-291
2,5523665,-3471,-1694,-555,-166,-238,-83,261,167,-291
2,5523677,-3469,-1694,-556,-164,-231,-78,261,167,-291
2,5523688,-3472,-1693,-566,-163,-230,-84,266,158,-286
2,5523701,-3472,-1693,-566,-163,-230,-84,266,158,-286
2,5523709,-3470,-1690,-557,-153,-223,-90,266,158,-286
2,5523723,-3470,-1690,-557,-153,-223,-90,266,158,-286
2,5523735,-3472,-1691,-544,-154,-218,-92,266,158,-286
2,5523743,-3472,-1691,-544,-154,-218,-92,266,158,-286
2,5523752,-3468,-1690,-555,-155,-229,-88,266,158,-286
2,5523762,-3468,-1690,-555,-155,-229,-88,266,158,-286
2,5523770,-3472,-1693,-549,-160,-248,-78,266,158,-286
2,5523778,-3472,-1693,-549,-160,-248,-78,266,158,-286
2,5523791,-3473,-1692,-558,-165,-251,-84,266,158,-286
2,5523807,-3469,-1695,-558,-155,-243,-87,266,158,-286
2,5523815,-3469,-1695,-558,-155,-243,-87,266,158,-286
2,5523824,-3469,-1695,-558,-155,-243,-87,266,158,-286
2,5523832,-3470,-1694,-550,-155,-234,-82,260,160,-284
2,5523841,-3470,-1694,-550,-155,-234,-82,260,160,-284
2,5523849,-3472,-1690,-550,-158,-247,-88,260,160,-284
2,5523854,-3472,-1690,-550,-158,-247,-88,260,160,-284
2,5523859,-3472,-1690,-550,-158,-247,-88,260,160,-284
2,5523865,-3472,-1690,-550,-158,-247,-88,260,160,-284
2,5523870,-3470,-1693,-550,-163,-250,-88,260,160,-284
2,5523876,-3470,-1693,-550,-163,-250,-88,260,160,-284
2,5523883,-3470,-1693,-550,-163,-250,-88,260,160,-284
2,5523888,-3474,-1692,-557,-168,-246,-85,260,160,-284
2,5523893,-3474,-1692,-557,-168,-246,-85,260,160,-284
2,5523899,-3474,-1692,-557,-168,-246,-85,260,160,-284
2,5523904,-3474,-1692,-557,-168,-246,-85,260,160,-284
2,5523909,-3469,-1694,-558,-168,-227,-86,260,160,-284
2,5523917,-3469,-1694,-558,-168,-227,-86,260,160,-284
2,5523926,-3469,-1694,-558,-168,-227,-86,260,160,-284
2,5523933,-3471,-1694,-551,-163,-236,-87,260,160,-284
2,5523940,-3471,-1694,-551,-163,-236,-87,260,160,-284
2,5523945,-3471,-1694,-551,-163,-236,-87,260,160,-284
2,5523952,-3473,-1692,-552,-162,-231,-91,259,165,-279
2,5523959,-3473,-1692,-552,-162,-231,-91,259,165,-279
2,5523966,-3469,-1693,-554,-160,-233,-82,259,165,-279
2,5523974,-3469,-1693,-554,-160,-233,-82,259,165,-279
2,5523981,-3469,-1693,-554,-160,-233,-82,259,165,-279
2,5523988,-3470,-1694,-554,-166,-241,-90,259,165,-279
2,5523995,-3470,-1694,-554,-166,-241,-90,259,165,-279
2,5524002,-3470,-1694,-554,-166,-241,-90,259,165,-279
2,5524008,-3471,-1692,-562,-166,-236,-86,259,165,-279
2,5524015,-3471,-1692,-562,-166,-236,-86,259,165,-279
2,5524022,-3471,-1692,-562,-166,-236,-86,259,165,-279
2,5524028,-3473,-1695,-556,-159,-235,-85,259,165,-279
2,5524036,-3473,-1695,-556,-159,-235,-85,259,165,-279
2,5524042,-3473,-1695,-556,-159,-235,-85,259,165,-279
2,5524050,-3472,-1693,-555,-156,-236,-80,259,165,-279
2,5524058,-3472,-1693,-555,-156,-236,-80,259,165,-279
2,5524065,-3472,-1693,-555,-156,-236,-80,259,165,-279
2,5524071,-3472,-1697,-555,-163,-251,-80,262,164,-284
2,5524078,-3472,-1697,-555,-163,-251,-80,262,164,-284
2,5524085,-3472,-1697,-555,-163,-251,-80,262,164,-284
2,5524092,-3472,-1694,-557,-165,-249,-83,262,164,-284
2,5524101,-3472,-1694,-557,-165,-249,-83,262,164,-284
2,5524109,-3471,-1693,-560,-163,-250,-84,262,164,-284
2,5524117,-3471,-1693,-560,-163,-250,-84,262,164,-284
2,5524122,-3471,-1693,-560,-163,-250,-84,262,164,-284
2,5524129,-3474,-1692,-558,-161,-243,-92,262,164,-284
2,5524136,-3474,-1692,-558,-161,-243,-92,262,164,-284
2,5524145,-3474,-1692,-558,-161,-243,-92,262,164,-284
2,5524152,-3472,-1691,-551,-155,-250,-90,262,164,-284
2,5524158,-3472,-1691,-551,-155,-250,-90,262,164,-284
2,5524164,-3472,-1691,-551,-155,-250,-90,262,164,-284
2,5524171,-3472,-1693,-557,-169,-235,-87,262,164,-284
2,5524177,-3472,-1693,-557,-169,-235,-87,262,164,-284
2,5524186,-3472,-1693,-557,-169,-235,-87,262,164,-284
2,5524193,-3473,-1693,-539,-157,-236,-79,257,157,-281
2,5524201,-3473,-1693,-539,-157,-236,-79,257,157,-281
2,5524208,-3468,-1691,-564,-159,-235,-92,257,157,-281
2,5524213,-3468,-1691,-564,-159,-235,-92,257,157,-281
2,5524220,-3468,-1691,-564,-159,-235,-92,257,157,-281
2,5524228,-3470,-1692,-538,-158,-237,-82,257,157,-281
2,5524235,-3470,-1692,-538,-158,-237,-82,257,157,-281
2,5524243,-3470,-1692,-538,-158,-237,-82,257,157,-281
2,5524249,-3471,-1693,-562,-153,-246,-85,257,157,-281
2,5524257,-3471,-1693,-562,-153,-246,-85,257,157,-281
2,5524263,-3471,-1693,-562,-153,-246,-85,257,157,-281
2,5524269,-3468,-1696,-547,-156,-236,-87,257,157,-281
2,5524274,-3468,-1696,-547,-156,-236,-87,257,157,-281
2,5524279,-3468,-1696,-547,-156,-236,-87,257,157,-281
2,5524288,-3471,-1696,-560,-170,-243,-84,257,157,-281
2,5524294,-3471,-1696,-560,-170,-243,-84,257,157,-281
2,5524301,-3471,-1696,-560,-170,-243,-84,257,157,-281
2,5524306,-3473,-1694,-551,-155,-241,-90,256,156,-286
2,5524313,-3473,-1694,-551,-155,-241,-90,256,156,-286
2,5524320,-3473,-1694,-551,-155,-241,-90,256,156,-286
2,5524327,-3471,-1693,-551,-162,-241,-86,256,156,-286
2,5524334,-3471,-1693,-551,-162,-241,-86,256,156,-286
2,5524340,-3471,-1693,-551,-162,-241,-86,256,156,-286
2,5524346,-3470,-1694,-550,-159,-244,-86,256,156,-286
2,5524353,-3470,-1694,-550,-159,-244,-86,256,156,-286
2,5524359,-3470,-1694,-550,-159,-244,-86,256,156,-286
2,5524364,-3470,-1694,-550,-159,-244,-86,256,156,-286
2,5524371,-3471,-1693,-554,-162,-245,-82,256,156,-286
2,5524377,-3471,-1693,-554,-162,-245,-82,256,156,-286
2,5524385,-3471,-1693,-554,-162,-245,-82,256,156,-286
2,5524392,-3466,-1692,-550,-154,-244,-81,256,156,-286
2,5524400,-3466,-1692,-550,-154,-244,-81,256,156,-286
2,5524408,-3466,-1692,-550,-154,-244,-81,256,156,-286
2,5524415,-3466,-1692,-550,-154,-244,-81,256,156,-286
2,5524421,-3466,-1692,-550,-154,-244,-81,256,156,-286
2,5524430,-3469,-1693,-553,-152,-232,-83,256,156,-286
2,5524436,-3469,-1693,-553,-152,-232,-83,256,156,-286
2,5524444,-3469,-1693,-553,-152,-232,-83,256,156,-286
2,5524450,-3469,-1693,-547,-159,-229,-86,266,158,-286
2,5524458,-3469,-1693,-547,-159,-229,-86,266,158,-286
2,5524463,-3469,-1693,-547,-159,-229,-86,266,158,-286
2,5524469,-3471,-1691,-555,-159,-241,-88,266,158,-286
2,5524474,-3471,-1691,-555,-159,-241,-88,266,158,-286
2,5524482,-3471,-1691,-555,-159,-241,-88,266,158,-286
2,5524489,-3470,-1692,-553,-158,-248,-84,266,158,-286
2,5524494,-3470,-1692,-553,-158,-248,-84,266,158,-286
2,5524499,-3470,-1692,-553,-158,-248,-84,266,158,-286
2,5524507,-3470,-1692,-563,-159,-242,-85,266,158,-286
2,5524513,-3470,-1692,-563,-159,-242,-85,266,158,-286
2,5524518,-3470,-1692,-563,-159,-242,-85,266,158,-286
2,5524524,-3470,-1692,-563,-159,-242,-85,266,158,-286
2,5524529,-3470,-1692,-555,-162,-247,-83,266,158,-286
2,5524534,-3470,-1692,-555,-162,-247,-83,266,158,-286
2,5524539,-3470,-1692,-555,-162,-247,-83,266,158,-286
2,5524544,-3470,-1692,-555,-162,-247,-83,266,158,-286
2,5524551,-3474,-1691,-562,-156,-251,-83,266,158,-286
2,5524556,-3474,-1691,-562,-156,-251,-83,266,158,-286
2,5524564,-3474,-1691,-562,-156,-251,-83,266,158,-286
2,5524572,-3469,-1692,-549,-157,-240,-90,261,167,-283
2,5524579,-3469,-1692,-549,-157,-240,-90,261,167,-283
2,5524588,-3470,-1693,-545,-163,-235,-84,261,167,-283
2,5524595,-3470,-1693,-545,-163,-235,-84,261,167,-283
2,5524601,-3470,-1693,-545,-163,-235,-84,261,167,-283
2,5524610,-3471,-1693,-560,-161,-241,-85,261,167,-283
2,5524616,-3471,-1693,-560,-161,-241,-85,261,167,-283
2,5524623,-3471,-1693,-560,-161,-241,-85,261,167,-283
2,5524630,-3472,-1694,-548,-161,-234,-88,261,167,-283
2,5524637,-3472,-1694,-548,-161,-234,-88,261,167,-283
2,5524643,-3472,-1694,-548,-161,-234,-88,261,167,-283
2,5524649,-3472,-1693,-560,-169,-238,-84,261,167,-283
2,5524656,-3472,-1693,-560,-169,-238,-84,261,167,-283
2,5524664,-3472,-1693,-560,-169,-238,-84,261,167,-283
2,5524671,-3473,-1690,-562,-161,-263,-92,261,167,-283
2,5524678,-3473,-1690,-562,-161,-263,-92,261,167,-283
2,5524684,-3473,-1690,-562,-161,-263,-92,261,167,-283
2,5524691,-3471,-1693,-547,-162,-267,-83,266,162,-282
2,5524699,-3471,-1693,-547,-162,-267,-83,266,162,-282
2,5524705,-3471,-1693,-547,-162,-267,-83,266,162,-282
2,5524712,-3470,-1692,-551,-160,-246,-77,266,162,-282
2,5524719,-3470,-1692,-551,-160,-246,-77,266,162,-282
2,5524726,-3470,-1692,-551,-160,-246,-77,266,162,-282
2,5524732,-3469,-1694,-551,-162,-240,-85,266,162,-282
2,5524740,-3469,-1694,-551,-162,-240,-85,266,162,-282
2,5524747,-3472,-1697,-560,-167,-238,-84,266,162,-282
2,5524754,-3472,-1697,-560,-167,-238,-84,266,162,-282
2,5524762,-3472,-1697,-560,-167,-238,-84,266,162,-282
2,5524770,-3472,-1695,-558,-159,-243,-83,266,162,-282
2,5524776,-3472,-1695,-558,-159,-243,-83,266,162,-282
2,5524782,-3472,-1695,-558,-159,-243,-83,266,162,-282
2,5524787,-3469,-1692,-551,-167,-241,-87,266,162,-282
2,5524792,-3469,-1692,-551,-167,-241,-87,266,162,-282
2,5524798,-3469,-1692,-551,-167,-241,-87,266,162,-282
2,5524805,-3469,-1692,-551,-167,-241,-87,266,162,-282
2,5524811,-3468,-1697,-558,-167,-236,-89,256,166,-284
2,5524816,-3468,-1697,-558,-167,-236,-89,256,166,-284
2,5524822,-3468,-1697,-558,-167,-236,-89,256,166,-284
2,5524827,-3471,-1693,-553,-162,-231,-84,256,166,-284
2,5524832,-3471,-1693,-553,-162,-231,-84,256,166,-284
2,5524837,-3471,-1693,-553,-162,-231,-84,256,166,-284
2,5524842,-3471,-1693,-553,-162,-231,-84,256,166,-284
2,5524847,-3470,-1694,-554,-168,-230,-86,256,166,-284
2,5524853,-3470,-1694,-554,-168,-230,-86,256,166,-284
2,5524866,-3470,-1694,-554,-168,-230,-86,256,166,-284
2,5524877,-3467,-1693,-561,-162,-226,-84,256,166,-284
2,5524890,-3471,-1690,-557,-162,-227,-76,256,166,-284
2,5524902,-3471,-1690,-557,-162,-227,-76,256,166,-284
2,5524915,-3473,-1692,-549,-163,-247,-87,256,166,-284
2,5524926,-3473,-1692,-549,-163,-247,-87,256,166,-284
2,5524937,-3471,-1693,-551,-154,-237,-93,267,151,-285
2,5524950,-3473,-1692,-548,-169,-238,-82,267,151,-285
2,5524963,-3473,-1692,-548,-169,-238,-82,267,151,-285
2,5524975,-3470,-1693,-557,-168,-246,-88,267,151,-285
2,5524984,-3470,-1693,-557,-168,-246,-88,267,151,-285
2,5524996,-3471,-1694,-560,-170,-242,-84,267,151,-285
2,5525009,-3470,-1692,-556,-167,-234,-82,267,151,-285
2,5525020,-3470,-1692,-556,-167,-234,-82,267,151,-285
2,5525032,-3472,-1694,-557,-165,-245,-84,267,151,-285
2,5525045,-3472,-1694,-557,-165,-245,-84,267,151,-285
2,5525057,-3470,-1696,-549,-171,-243,-80,267,151,-285
2,5525070,-3471,-1693,-553,-166,-250,-89,260,162,-284
2,5525084,-3471,-1693,-553,-166,-250,-89,260,162,-284
2,5525093,-3471,-1695,-557,-162,-242,-84,260,162,-284
2,5525105,-3471,-1695,-557,-162,-242,-84,260,162,-284
2,5525117,-3471,-1691,-554,-161,-233,-86,260,162,-284
2,5525131,-3472,-1694,-565,-163,-234,-86,260,162,-284
2,5525141,-3472,-1694,-565,-163,-234,-86,260,162,-284
2,5525154,-3471,-1695,-557,-160,-239,-84,260,162,-284
2,5525168,-3470,-1692,-553,-162,-242,-81,260,162,-284
2,5525182,-3470,-1692,-553,-162,-242,-81,260,162,-284
2,5525193,-3468,-1692,-555,-159,-243,-85,260,164,-288
2,5525203,-3468,-1692,-555,-159,-243,-85,260,164,-288
2,5525217,-3468,-1692,-555,-159,-243,-85,260,164,-288
2,5525229,-3471,-1694,-560,-165,-229,-87,260,164,-288
2,5525237,-3471,-1694,-560,-165,-229,-87,260,164,-288
2,5525249,-3469,-1693,-559,-163,-235,-87,260,164,-288
2,5525261,-3469,-1693,-559,-163,-235,-87,260,164,-288
2,5525273,-3470,-1694,-558,-160,-240,-87,260,164,-288
2,5525284,-3470,-1694,-558,-160,-240,-87,260,164,-288
2,5525299,-3469,-1695,-560,-160,-237,-86,260,164,-288
2,5525311,-3472,-1695,-549,-164,-235,-86,258,158,-294
2,5525324,-3472,-1695,-549,-164,-235,-86,258,158,-294
2,5525338,-3472,-1694,-552,-163,-235,-87,258,158,-294
2,5525351,-3469,-1695,-563,-164,-245,-90,258,158,-294
2,5525363,-3469,-1695,-563,-164,-245,-90,258,158,-294
2,5525377,-3471,-1691,-556,-157,-222,-83,258,158,-294
2,5525389,-3471,-1694,-557,-159,-233,-91,258,158,-294
2,5525401,-3471,-1694,-557,-159,-233,-91,258,158,-294
2,5525413,-3469,-1691,-550,-160,-241,-82,258,158,-294
2,5525428,-3470,-1692,-553,-162,-249,-92,266,160,-284
2,5525441,-3470,-1692,-553,-162,-249,-92,266,160,-284
2,5525452,-3471,-1693,-553,-166,-245,-84,266,160,-284
2,5525464,-3471,-1693,-553,-166,-245,-84,266,160,-284
2,5525473,-3470,-1696,-555,-166,-234,-86,266,160,-284
2,5525481,-3470,-1696,-555,-166,-234,-86,266,160,-284
2,5525488,-3472,-1694,-557,-168,-246,-83,266,160,-284
2,5525496,-3472,-1694,-557,-168,-246,-83,266,160,-284
2,5525505,-3472,-1694,-557,-168,-246,-83,266,160,-284
2,5525514,-3470,-1693,-555,-158,-241,-83,266,160,-284
2,5525521,-3470,-1693,-555,-158,-241,-83,266,160,-284
2,5525529,-3470,-1692,-556,-159,-244,-87,266,160,-284
2,5525537,-3470,-1692,-556,-159,-244,-87,266,160,-284
2,5525548,-3472,-1691,-554,-167,-246,-75,266,160,-284
2,5525557,-3472,-1691,-554,-167,-246,-75,257,157,-289
2,5525566,-3472,-1691,-554,-167,-246,-75,257,157,-289
2,5525575,-3471,-1693,-552,-166,-248,-81,257,157,-289
2,5525585,-3471,-1693,-552,-166,-248,-81,257,157,-289
2,5525595,-3469,-1694,-550,-161,-250,-90,257,157,-289
2,5525604,-3469,-1694,-550,-161,-250,-90,257,157,-289
2,5525615,-3474,-1693,-553,-166,-233,-86,257,157,-289
2,5525629,-3472,-1693,-557,-169,-222,-79,257,157,-289
2,5525642,-3472,-1693,-557,-169,-222,-79,257,157,-289
2,5525654,-3471,-1691,-557,-160,-223,-78,257,157,-289
2,5525668,-3474,-1696,-554,-153,-214,-93,257,157,-289
2,5525680,-3474,-1696,-554,-153,-214,-93,257,157,-289
2,5525693,-3468,-1692,-550,-156,-216,-90,261,155,-281
2,5525703,-3468,-1692,-550,-156,-216,-90,261,155,-281
2,5525710,-3470,-1694,-549,-157,-222,-90,261,155,-281
2,5525719,-3470,-1694,-549,-157,-222,-90,261,155,-281
2,5525732,-3471,-1694,-556,-167,-232,-80,261,155,-281
2,5525745,-3471,-1694,-556,-167,-232,-80,261,155,-281
2,5525760,-3472,-1696,-560,-161,-234,-87,261,155,-281
2,5525771,-3472,-1692,-555,-158,-229,-82,261,155,-281
2,5525781,-3472,-1692,-555,-158,-229,-82,261,155,-281
2,5525794,-3469,-1691,-555,-165,-246,-89,261,155,-281
2,5525809,-3472,-1692,-556,-164,-240,-78,265,163,-283
2,5525817,-3472,-1692,-556,-164,-240,-78,265,163,-283
2,5525826,-3472,-1692,-556,-164,-240,-78,265,163,-283
2,5525834,-3470,-1693,-557,-162,-242,-84,265,163,-283
2,5525841,-3470,-1693,-557,-162,-242,-84,265,163,-283
2,5525850,-3471,-1695,-557,-162,-264,-78,265,163,-283
2,5525858,-3471,-1695,-557,-162,-264,-78,265,163,-283
2,5525864,-3471,-1695,-557,-162,-264,-78,265,163,-283
2,5525870,-3472,-1692,-559,-158,-260,-86,265,163,-283
2,5525875,-3472,-1692,-559,-158,-260,-86,265,163,-283
2,5525881,-3472,-1692,-559,-158,-260,-86,265,163,-283
2,5525888,-3472,-1692,-559,-158,-260,-86,265,163,-283
2,5525892,-3469,-1692,-552,-156,-242,-89,265,163,-283
2,5525897,-3469,-1692,-552,-156,-242,-89,265,163,-283
2,5525902,-3469,-1692,-552,-156,-242,-89,265,163,-283
2,5525908,-3469,-1693,-553,-160,-215,-88,265,163,-283
2,5525914,-3469,-1693,-553,-160,-215,-88,265,163,-283
2,5525920,-3469,-1693,-553,-160,-215,-88,265,163,-283
2,5525926,-3469,-1693,-553,-160,-215,-88,265,163,-283
2,5525932,-3473,-1691,-550,-164,-243,-84,259,165,-289
2,5525939,-3473,-1691,-550,-164,-243,-84,259,165,-289
2,5525945,-3473,-1691,-550,-164,-243,-84,259,165,-289
2,5525950,-3473,-1690,-551,-160,-256,-87,259,165,-289
2,5525955,-3473,-1690,-551,-160,-256,-87,259,165,-289
2,5525960,-3473,-1690,-551,-160,-256,-87,259,165,-289
2,5525965,-3473,-1690,-551,-160,-256,-87,259,165,-289
2,5525970,-3472,-1693,-561,-159,-249,-90,259,165,-289
2,5525976,-3472,-1693,-561,-159,-249,-90,259,165,-289
2,5525981,-3472,-1693,-561,-159,-249,-90,259,165,-289
2,5525990,-3469,-1694,-552,-155,-244,-81,259,165,-289
2,5525998,-3469,-1694,-552,-155,-244,-81,259,165,-289
2,5526004,-3469,-1694,-552,-155,-244,-81,259,165,-289
2,5526010,-3471,-1694,-556,-163,-242,-82,259,165,-289
2,5526018,-3471,-1694,-556,-163,-242,-82,259,165,-289
2,5526025,-3471,-1694,-556,-163,-242,-82,259,165,-289
2,5526030,-3474,-1694,-550,-163,-238,-87,259,165,-289
2,5526035,-3474,-1694,-550,-163,-238,-87,259,165,-289
2,5526040,-3474,-1694,-550,-163,-238,-87,259,165,-289
2,5526048,-3471,-1694,-551,-157,-242,-77,263,161,-289
2,5526056,-3471,-1694,-551,-157,-242,-77,263,161,-289
2,5526064,-3471,-1694,-551,-157,-242,-77,263,161,-289
2,5526071,-3470,-1692,-556,-159,-240,-82,263,161,-289
2,5526078,-3470,-1692,-556,-159,-240,-82,263,161,-289
2,5526085,-3470,-1692,-556,-159,-240,-82,263,161,-289
2,5526091,-3470,-1692,-554,-154,-239,-84,263,161,-289
2,5526098,-3470,-1692,-554,-154,-239,-84,263,161,-289
2,5526106,-3470,-1692,-554,-154,-239,-84,263,161,-289
2,5526114,-3468,-1692,-550,-157,-238,-86,263,161,-289
2,5526121,-3468,-1692,-550,-157,-238,-86,263,161,-289
2,5526129,-3471,-1695,-556,-159,-236,-90,263,161,-289
2,5526136,-3471,-1695,-556,-159,-236,-90,263,161,-289
2,5526146,-3471,-1695,-556,-159,-236,-90,263,161,-289
2,5526153,-3473,-1692,-559,-159,-232,-88,263,161,-289
2,5526158,-3473,-1692,-559,-159,-232,-88,263,161,-289
2,5526164,-3473,-1692,-559,-159,-232,-88,263,161,-289
2,5526171,-3469,-1696,-562,-162,-222,-88,263,167,-289
2,5526178,-3469,-1696,-562,-162,-222,-88,263,167,-289
2,5526187,-3469,-1696,-562,-162,-222,-88,263,167,-289
2,5526195,-3469,-1693,-556,-164,-221,-90,263,167,-289
2,5526202,-3469,-1693,-556,-164,-221,-90,263,167,-289
2,5526208,-3471,-1697,-554,-166,-232,-85,263,167,-289
2,5526214,-3471,-1697,-554,-166,-232,-85,263,167,-289
2,5526220,-3471,-1697,-554,-166,-232,-85,263,167,-289
2,5526227,-3471,-1697,-554,-166,-232,-85,263,167,-289
2,5526234,-3465,-1694,-559,-157,-225,-84,263,167,-289
2,5526239,-3465,-1694,-559,-157,-225,-84,263,167,-289
2,5526247,-3465,-1694,-559,-157,-225,-84,263,167,-289
2,5526254,-3472,-1690,-558,-156,-214,-84,263,167,-289
2,5526261,-3472,-1690,-558,-156,-214,-84,263,167,-289
2,5526268,-3473,-1692,-556,-164,-226,-77,263,167,-289
2,5526277,-3473,-1692,-556,-164,-226,-77,263,167,-289
2,5526284,-3473,-1692,-556,-164,-226,-77,263,167,-289
2,5526292,-3472,-1694,-555,-159,-240,-82,263,167,-289
2,5526298,-3472,-1694,-555,-159,-240,-82,263,167,-289
2,5526305,-3472,-1694,-555,-159,-240,-82,263,167,-289
2,5526312,-3472,-1695,-559,-152,-241,-86,262,164,-288
2,5526321,-3472,-1695,-559,-152,-241,-86,262,164,-288
2,5526328,-3472,-1695,-559,-152,-241,-86,262,164,-288
2,5526333,-3471,-1693,-544,-164,-229,-90,262,164,-288
2,5526339,-3471,-1693,-544,-164,-229,-90,262,164,-288
2,5526347,-3471,-1693,-544,-164,-229,-90,262,164,-288
2,5526353,-3470,-1692,-573,-162,-234,-86,262,164,-288
2,5526361,-3470,-1692,-573,-162,-234,-86,262,164,-288
2,5526369,-3471,-1691,-547,-162,-239,-85,262,164,-288
2,5526377,-3471,-1691,-547,-162,-239,-85,262,164,-288
2,5526384,-3471,-1691,-547,-162,-239,-85,262,164,-288
2,5526390,-3471,-1692,-556,-158,-243,-77,262,164,-288
2,5526397,-3471,-1692,-556,-158,-243,-77,262,164,-288
2,5526404,-3471,-1692,-556,-158,-243,-77,262,164,-288
2,5526412,-3470,-1694,-554,-161,-256,-80,262,164,-288
2,5526418,-3470,-1694,-554,-161,-256,-80,262,164,-288
2,5526425,-3470,-1694,-554,-161,-256,-80,262,164,-288
2,5526432,-3471,-1693,-558,-166,-249,-75,259,161,-285
2,5526437,-3471,-1693,-558,-166,-249,-75,259,161,-285
2,5526444,-3471,-1693,-558,-166,-249,-75,259,161,-285
2,5526449,-3468,-1694,-553,-167,-231,-82,259,161,-285
2,5526455,-3468,-1694,-553,-167,-231,-82,259,161,-285
2,5526462,-3468,-1694,-553,-167,-231,-82,259,161,-285
2,5526467,-3468,-1694,-553,-167,-231,-82,259,161,-285
2,5526473,-3470,-1693,-549,-162,-238,-89,259,161,-285
2,5526480,-3470,-1693,-549,-162,-238,-89,259,161,-285
2,5526488,-3470,-1693,-549,-162,-238,-89,259,161,-285
2,5526493,-3472,-1691,-549,-162,-243,-85,259,161,-285
2,5526499,-3472,-1691,-549,-162,-243,-85,259,161,-285
2,5526504,-3472,-1691,-549,-162,-243,-85,259,161,-285
2,5526510,-3470,-1694,-568,-161,-237,-89,259,161,-285
2,5526515,-3470,-1694,-568,-161,-237,-89,259,161,-285
2,5526520,-3470,-1694,-568,-161,-237,-89,259,161,-285
2,5526525,-3470,-1694,-568,-161,-237,-89,259,161,-285
2,5526531,-3467,-1693,-572,-164,-234,-86,259,161,-285
2,5526536,-3467,-1693,-572,-164,-234,-86,259,161,-285
2,5526541,-3467,-1693,-572,-164,-234,-86,259,161,-285
2,5526548,-3467,-1693,-572,-164,-234,-86,259,161,-285
2,5526556,-3472,-1694,-544,-161,-236,-81,260,162,-284
2,5526563,-3472,-1694,-544,-161,-236,-81,260,162,-284
2,5526568,-3474,-1691,-562,-161,-226,-80,260,162,-284
2,5526574,-3474,-1691,-562,-161,-226,-80,260,162,-284
2,5526579,-3474,-1691,-562,-161,-226,-80,260,162,-284
2,5526585,-3474,-1691,-562,-161,-226,-80,260,162,-284
2,5526590,-3472,-1692,-554,-163,-238,-78,260,162,-284
2,5526597,-3472,-1692,-554,-163,-238,-78,260,162,-284
2,5526605,-3472,-1692,-554,-163,-238,-78,260,162,-284
2,5526611,-3471,-1693,-556,-162,-237,-84,260,162,-284
2,5526619,-3471,-1693,-556,-162,-237,-84,260,162,-284
2,5526625,-3471,-1693,-556,-162,-237,-84,260,162,-284
2,5526632,-3469,-1694,-555,-162,-234,-82,260,162,-284
2,5526640,-3469,-1694,-555,-162,-234,-82,260,162,-284
2,5526647,-3469,-1694,-555,-162,-234,-82,260,162,-284
2,5526654,-3474,-1689,-556,-160,-242,-91,260,162,-284
2,5526660,-3474,-1689,-556,-160,-242,-91,260,162,-284
2,5526665,-3474,-1689,-556,-160,-242,-91,260,162,-284
2,5526672,-3470,-1691,-552,-156,-232,-82,259,161,-285
2,5526678,-3470,-1691,-552,-156,-232,-82,259,161,-285
2,5526685,-3470,-1691,-552,-156,-232,-82,259,161,-285
2,5526691,-3468,-1694,-547,-156,-240,-82,259,161,-285
2,5526700,-3468,-1694,-547,-156,-240,-82,259,161,-285
2,5526707,-3468,-1694,-547,-156,-240,-82,259,161,-285
2,5526714,-3468,-1694,-547,-156,-240,-82,259,161,-285
2,5526721,-3468,-1694,-547,-156,-240,-82,259,161,-285
2,5526728,-3468,-1694,-547,-156,-240,-82,259,161,-285
2,5526734,-3469,-1694,-555,-161,-238,-82,259,161,-285
2,5526740,-3469,-1694,-555,-161,-238,-82,259,161,-285
2,5526749,-3470,-1695,-551,-164,-238,-82,259,161,-285
2,5526755,-3470,-1695,-551,-164,-238,-82,259,161,-285
2,5526762,-3470,-1695,-551,-164,-238,-82,259,161,-285
2,5526770,-3471,-1692,-556,-170,-250,-91,259,161,-285
2,5526776,-3471,-1692,-556,-170,-250,-91,259,161,-285
2,5526784,-3471,-1692,-556,-170,-250,-91,259,161,-285
2,5526791,-3470,-1692,-549,-175,-248,-86,267,163,-281
2,5526798,-3470,-1692,-549,-175,-248,-86,267,163,-281
2,5526805,-3470,-1692,-549,-175,-248,-86,267,163,-281
2,5526810,-3471,-1694,-552,-172,-246,-83,267,163,-281
2,5526815,-3471,-1694,-552,-172,-246,-83,267,163,-281
2,5526820,-3471,-1694,-552,-172,-246,-83,267,163,-281
2,5526825,-3471,-1694,-552,-172,-246,-83,267,163,-281
2,5526832,-3464,-1692,-551,-170,-236,-86,267,163,-281
2,5526837,-3464,-1692,-551,-170,-236,-86,267,163,-281
2,5526842,-3464,-1692,-551,-170,-236,-86,267,163,-281
2,5526848,-3464,-1692,-551,-170,-236,-86,267,163,-281
2,5526855,-3474,-1694,-545,-161,-237,-93,267,163,-281
2,5526863,-3474,-1694,-545,-161,-237,-93,267,163,-281
2,5526872,-3473,-1694,-570,-170,-241,-90,267,163,-281
2,5526885,-3473,-1694,-570,-170,-241,-90,267,163,-281
2,5526895,-3468,-1691,-554,-166,-243,-86,267,163,-281
2,5526906,-3468,-1691,-554,-166,-243,-86,267,163,-281
2,5526922,-3472,-1692,-551,-162,-235,-86,257,159,-285
2,5526935,-3470,-1691,-559,-170,-241,-75,257,159,-285
2,5526945,-3470,-1691,-559,-170,-241,-75,257,159,-285
2,5526958,-3470,-1691,-555,-161,-235,-83,257,159,-285
2,5526973,-3469,-1697,-549,-159,-233,-79,257,159,-285
2,5526987,-3469,-1697,-549,-159,-233,-79,257,159,-285
2,5526996,-3473,-1692,-555,-157,-239,-75,257,159,-285
2,5527009,-3472,-1692,-561,-152,-247,-81,257,159,-285
2,5527021,-3472,-1692,-561,-152,-247,-81,257,159,-285
2,5527033,-3472,-1694,-555,-158,-255,-86,257,159,-285
2,5527045,-3472,-1694,-555,-158,-255,-86,257,159,-285
2,5527058,-3468,-1695,-561,-170,-235,-75,262,160,-288
2,5527068,-3468,-1695,-561,-170,-235,-75,262,160,-288
2,5527081,-3465,-1691,-547,-168,-214,-73,262,160,-288
2,5527094,-3470,-1694,-543,-172,-225,-79,262,160,-288
2,5527109,-3470,-1689,-565,-172,-238,-82,262,160,-288
2,5527121,-3470,-1689,-565,-172,-238,-82,262,160,-288
2,5527130,-3470,-1695,-574,-163,-234,-81,262,160,-288
2,5527140,-3470,-1695,-574,-163,-234,-81,262,160,-288
2,5527148,-3470,-1695,-574,-163,-234,-81,262,160,-288
2,5527156,-3468,-1693,-540,-154,-228,-81,262,160,-288
2,5527164,-3468,-1693,-540,-154,-228,-81,262,160,-288
2,5527173,-3471,-1692,-565,-160,-232,-81,258,166,-286
2,5527186,-3471,-1692,-565,-160,-232,-81,258,166,-286
2,5527199,-3470,-1695,-547,-164,-237,-88,258,166,-286
2,5527212,-3470,-1697,-561,-157,-239,-83,258,166,-286
2,5527224,-3470,-1697,-561,-157,-239,-83,258,166,-286
2,5527237,-3467,-1694,-545,-160,-234,-87,258,166,-286
2,5527249,-3471,-1697,-560,-162,-230,-88,258,166,-286
2,5527262,-3471,-1697,-560,-162,-230,-88,258,166,-286
2,5527274,-3469,-1692,-557,-167,-232,-86,258,166,-286
2,5527288,-3469,-1692,-557,-167,-232,-86,258,166,-286
2,5527301,-3468,-1692,-552,-167,-240,-82,262,164,-294
2,5527312,-3468,-1693,-560,-159,-241,-85,262,164,-294
2,5527323,-3468,-1693,-560,-159,-241,-85,262,164,-294
2,5527331,-3474,-1692,-549,-161,-237,-81,262,164,-294
2,5527342,-3474,-1692,-549,-161,-237,-81,262,164,-294
2,5527350,-3471,-1693,-553,-154,-233,-85,262,164,-294
2,5527358,-3471,-1693,-553,-154,-233,-85,262,164,-294
2,5527366,-3471,-1693,-553,-154,-233,-85,262,164,-294
2,5527373,-3472,-1691,-556,-155,-224,-89,262,164,-294
2,5527383,-3472,-1691,-556,-155,-224,-89,262,164,-294
2,5527391,-3470,-1694,-557,-163,-240,-86,262,164,-294
2,5527399,-3470,-1694,-557,-163,-240,-86,262,164,-294
2,5527407,-3470,-1694,-557,-163,-240,-86,262,164,-294
2,5527415,-3468,-1693,-552,-161,-238,-90,262,164,-292
2,5527424,-3468,-1693,-552,-161,-238,-90,262,164,-292
2,5527433,-3470,-1693,-555,-161,-235,-88,262,164,-292
2,5527440,-3470,-1693,-555,-161,-235,-88,262,164,-292
2,5527449,-3472,-1692,-554,-165,-242,-86,262,164,-292
2,5527457,-3472,-1692,-554,-165,-242,-86,262,164,-292
2,5527467,-3472,-1692,-554,-165,-242,-86,262,164,-292
2,5527475,-3470,-1693,-557,-158,-235,-90,262,164,-292
2,5527483,-3470,-1693,-557,-158,-235,-90,262,164,-292
2,5527491,-3471,-1693,-556,-161,-230,-87,262,164,-292
2,5527499,-3471,-1693,-556,-161,-230,-87,262,164,-292
2,5527508,-3471,-1693,-556,-161,-230,-87,262,164,-292
2,5527517,-3471,-1695,-561,-157,-228,-85,262,164,-292
2,5527525,-3471,-1695,-561,-157,-228,-85,262,164,-292
2,5527532,-3470,-1691,-551,-155,-240,-95,261,159,-281
2,5527542,-3470,-1691,-551,-155,-240,-95,261,159,-281
2,5527550,-3471,-1694,-549,-154,-224,-88,261,159,-281
2,5527559,-3471,-1694,-549,-154,-224,-88,261,159,-281
2,5527567,-3471,-1694,-549,-154,-224,-88,261,159,-281
2,5527575,-3471,-1692,-558,-162,-229,-82,261,159,-281
2,5527582,-3471,-1692,-558,-162,-229,-82,261,159,-281
2,5527591,-3470,-1694,-555,-164,-231,-79,261,159,-281
2,5527599,-3470,-1694,-555,-164,-231,-79,261,159,-281
2,5527608,-3470,-1694,-555,-164,-231,-79,261,159,-281
2,5527617,-3468,-1696,-561,-157,-241,-89,261,159,-281
2,5527625,-3468,-1696,-561,-157,-241,-89,261,159,-281
2,5527634,-3471,-1693,-554,-162,-233,-86,261,159,-281
2,5527643,-3471,-1693,-554,-162,-233,-86,261,159,-281
2,5527654,-3469,-1693,-545,-166,-237,-89,261,159,-281
2,5527665,-3469,-1693,-545,-166,-237,-89,261,159,-281
2,5527678,-3475,-1693,-553,-155,-233,-94,260,164,-284
2,5527692,-3470,-1693,-562,-158,-235,-86,260,164,-284
2,5527701,-3470,-1693,-562,-158,-235,-86,260,164,-284
2,5527712,-3471,-1689,-546,-157,-226,-82,260,164,-284
2,5527727,-3471,-1689,-546,-157,-226,-82,260,164,-284
2,5527741,-3471,-1693,-562,-158,-219,-79,260,164,-284
2,5527750,-3469,-1694,-548,-161,-226,-89,260,164,-284
2,5527760,-3469,-1694,-548,-161,-226,-89,260,164,-284
2,5527770,-3467,-1692,-562,-166,-227,-82,260,164,-284
2,5527778,-3467,-1692,-562,-166,-227,-82,260,164,-284
2,5527786,-3467,-1692,-562,-166,-227,-82,260,164,-284
2,5527794,-3472,-1690,-558,-161,-220,-79,262,162,-288
2,5527809,-3472,-1690,-558,-161,-220,-79,262,162,-288
2,5527817,-3468,-1695,-550,-162,-234,-79,262,162,-288
2,5527825,-3468,-1695,-550,-162,-234,-79,262,162,-288
2,5527833,-3466,-1694,-558,-161,-235,-86,262,162,-288
2,5527841,-3466,-1694,-558,-161,-235,-86,262,162,-288
2,5527851,-3473,-1689,-535,-167,-244,-84,262,162,-288
2,5527858,-3473,-1689,-535,-167,-244,-84,262,162,-288
2,5527867,-3473,-1689,-535,-167,-244,-84,262,162,-288
2,5527875,-3469,-1693,-554,-172,-229,-82,262,162,-288
2,5527880,-3469,-1693,-554,-172,-229,-82,262,162,-288
2,5527885,-3469,-1693,-554,-172,-229,-82,262,162,-288
2,5527890,-3474,-1694,-571,-162,-236,-89,262,162,-288
2,5527897,-3474,-1694,-571,-162,-236,-89,262,162,-288
2,5527903,-3474,-1694,-571,-162,-236,-89,262,162,-288
2,5527908,-3474,-1694,-571,-162,-236,-89,262,162,-288
2,5527914,-3474,-1690,-529,-159,-239,-94,260,170,-282
2,5527920,-3474,-1690,-529,-159,-239,-94,260,170,-282
2,5527928,-3474,-1690,-529,-159,-239,-94,260,170,-282
2,5527934,-3474,-1696,-588,-169,-240,-89,260,170,-282
2,5527943,-3474,-1696,-588,-169,-240,-89,260,170,-282
2,5527950,-3475,-1693,-561,-165,-228,-86,260,170,-282
2,5527957,-3475,-1693,-561,-165,-228,-86,260,170,-282
2,5527963,-3475,-1693,-561,-165,-228,-86,260,170,-282
2,5527971,-3469,-1692,-535,-158,-222,-89,260,170,-282
2,5527980,-3469,-1692,-535,-158,-222,-89,260,170,-282
2,5527987,-3469,-1692,-535,-158,-222,-89,260,170,-282
2,5527994,-3468,-1692,-576,-168,-225,-78,260,170,-282
2,5528000,-3468,-1692,-576,-168,-225,-78,260,170,-282
2,5528007,-3468,-1692,-576,-168,-225,-78,260,170,-282
2,5528014,-3470,-1691,-548,-165,-229,-83,260,170,-282
2,5528023,-3470,-1691,-548,-165,-229,-83,260,170,-282
2,5528030,-3470,-1691,-548,-165,-229,-83,260,170,-282
2,5528036,-3467,-1695,-548,-166,-246,-81,260,160,-286
2,5528041,-3467,-1695,-548,-166,-246,-81,260,160,-286
2,5528048,-3467,-1695,-548,-166,-246,-81,260,160,-286
2,5528056,-3471,-1694,-569,-168,-255,-84,260,160,-286
2,5528064,-3471,-1694,-569,-168,-255,-84,260,160,-286
2,5528072,-3469,-1696,-517,-161,-267,-91,260,160,-286
2,5528080,-3469,-1696,-517,-161,-267,-91,260,160,-286
2,5528085,-3469,-1696,-517,-161,-267,-91,260,160,-286
2,5528093,-3470,-1694,-577,-161,-253,-82,260,160,-286
2,5528101,-3470,-1694,-577,-161,-253,-82,260,160,-286
2,5528109,-3470,-1694,-577,-161,-253,-82,260,160,-286
2,5528114,-3473,-1695,-556,-162,-246,-78,260,160,-286
2,5528121,-3473,-1695,-556,-162,-246,-78,260,160,-286
2,5528127,-3473,-1695,-556,-162,-246,-78,260,160,-286
2,5528132,-3470,-1691,-544,-163,-256,-79,260,160,-286
2,5528141,-3470,-1691,-544,-163,-256,-79,260,160,-286
2,5528146,-3470,-1691,-544,-163,-256,-79,260,160,-286
2,5528153,-3470,-1693,-570,-166,-243,-84,261,159,-287
2,5528160,-3470,-1693,-570,-166,-243,-84,261,159,-287
2,5528168,-3470,-1693,-570,-166,-243,-84,261,159,-287
2,5528174,-3472,-1692,-550,-165,-248,-89,261,159,-287
2,5528181,-3472,-1692,-550,-165,-248,-89,261,159,-287
2,5528188,-3472,-1692,-550,-165,-248,-89,261,159,-287
2,5528195,-3473,-1694,-553,-165,-241,-82,261,159,-287
2,5528202,-3473,-1694,-553,-165,-241,-82,261,159,-287
2,5528208,-3473,-1694,-553,-165,-241,-82,261,159,-287
2,5528214,-3469,-1693,-562,-171,-241,-82,261,159,-287
2,5528223,-3469,-1693,-562,-171,-241,-82,261,159,-287
2,5528230,-3468,-1694,-547,-169,-242,-89,261,159,-287
2,5528239,-3468,-1694,-547,-169,-242,-89,261,159,-287
2,5528245,-3468,-1694,-547,-169,-242,-89,261,159,-287
2,5528252,-3471,-1693,-561,-165,-236,-78,261,159,-287
2,5528259,-3471,-1693,-561,-165,-236,-78,261,159,-287
2,5528266,-3471,-1693,-561,-165,-236,-78,261,159,-287
2,5528274,-3470,-1693,-565,-162,-237,-87,261,159,-287
2,5528281,-3470,-1693,-565,-162,-237,-87,261,159,-287
2,5528289,-3470,-1693,-565,-162,-237,-87,261,159,-287
2,5528297,-3469,-1695,-548,-167,-233,-84,267,153,-287
2,5528302,-3469,-1695,-548,-167,-233,-84,267,153,-287
2,5528308,-3469,-1695,-548,-167,-233,-84,267,153,-287
2,5528314,-3469,-1692,-554,-162,-245,-82,267,153,-287
2,5528322,-3469,-1692,-554,-162,-245,-82,267,153,-287
2,5528329,-3469,-1692,-554,-162,-245,-82,267,153,-287
2,5528335,-3470,-1695,-558,-157,-250,-91,267,153,-287
2,5528343,-3470,-1695,-558,-157,-250,-91,267,153,-287
2,5528350,-3470,-1695,-558,-157,-250,-91,267,153,-287
2,5528358,-3469,-1693,-557,-166,-251,-92,267,153,-287
2,5528366,-3469,-1693,-557,-166,-251,-92,267,153,-287
2,5528374,-3471,-1692,-556,-169,-246,-89,267,153,-287
2,5528380,-3471,-1692,-556,-169,-246,-89,267,153,-287
2,5528388,-3471,-1692,-556,-169,-246,-89,267,153,-287
2,5528395,-3472,-1692,-555,-170,-249,-90,267,153,-287
2,5528400,-3472,-1692,-555,-170,-249,-90,267,153,-287
2,5528409,-3472,-1692,-555,-170,-249,-90,267,153,-287
2,5528414,-3470,-1695,-558,-169,-242,-81,260,174,-284
2,5528421,-3470,-1695,-558,-169,-242,-81,260,174,-284
2,5528427,-3470,-1695,-558,-169,-242,-81,260,174,-284
2,5528434,-3469,-1695,-556,-166,-227,-81,260,174,-284
2,5528439,-3469,-1695,-556,-166,-227,-81,260,174,-284
2,5528444,-3469,-1695,-556,-166,-227,-81,260,174,-284
2,5528450,-3472,-1694,-554,-165,-238,-87,260,174,-284
2,5528458,-3472,-1694,-554,-165,-238,-87,260,174,-284
2,5528465,-3472,-1694,-554,-165,-238,-87,260,174,-284
2,5528470,-3471,-1694,-558,-166,-250,-85,260,174,-284
2,5528477,-3471,-1694,-558,-166,-250,-85,260,174,-284
2,5528482,-3471,-1694,-558,-166,-250,-85,260,174,-284
2,5528492,-3469,-1693,-511,-158,-251,-85,260,174,-284
2,5528497,-3469,-1693,-511,-158,-251,-85,260,174,-284
2,5528504,-3469,-1693,-511,-158,-251,-85,260,174,-284
2,5528511,-3473,-1692,-606,-161,-243,-86,260,174,-284
2,5528516,-3473,-1692,-606,-161,-243,-86,260,174,-284
2,5528521,-3473,-1692,-606,-161,-243,-86,260,174,-284
2,5528526,-3473,-1692,-606,-161,-243,-86,260,174,-284
2,5528531,-3447,-1687,-485,-167,-221,-75,253,165,-289
2,5528537,-3447,-1687,-485,-167,-221,-75,253,165,-289
2,5528542,-3447,-1687,-485,-167,-221,-75,253,165,-289
2,5528549,-3447,-1687,-485,-167,-221,-75,253,165,-289
2,5528558,-3470,-1695,-584,-167,-215,-85,253,165,-289
2,5528564,-3470,-1695,-584,-167,-215,-85,253,165,-289
2,5528569,-3470,-1695,-584,-167,-215,-85,253,165,-289
2,5528579,-3474,-1692,-571,-152,-249,-85,253,165,-289
2,5528586,-3474,-1692,-571,-152,-249,-85,253,165,-289
2,5528593,-3474,-1689,-518,-159,-235,-90,253,165,-289
2,5528599,-3474,-1689,-518,-159,-235,-90,253,165,-289
2,5528604,-3474,-1689,-518,-159,-235,-90,253,165,-289
2,5528609,-3474,-1689,-518,-159,-235,-90,253,165,-289
2,5528616,-3469,-1692,-575,-169,-222,-93,253,165,-289
2,5528624,-3469,-1692,-575,-169,-222,-93,253,165,-289
2,5528631,-3470,-1694,-554,-159,-224,-86,253,165,-289
2,5528639,-3470,-1694,-554,-159,-224,-86,253,165,-289
2,5528645,-3470,-1694,-554,-159,-224,-86,253,165,-289
2,5528652,-3474,-1694,-552,-159,-225,-86,267,163,-283
2,5528659,-3474,-1694,-552,-159,-225,-86,267,163,-283
2,5528667,-3474,-1694,-552,-159,-225,-86,267,163,-283
2,5528674,-3471,-1693,-562,-163,-228,-82,267,163,-283
2,5528682,-3471,-1693,-562,-163,-228,-82,267,163,-283
2,5528689,-3471,-1693,-562,-163,-228,-82,267,163,-283
2,5528695,-3469,-1692,-543,-164,-238,-87,267,163,-283
2,5528701,-3469,-1692,-543,-164,-238,-87,267,163,-283
2,5528710,-3469,-1692,-543,-164,-238,-87,267,163,-283
2,5528717,-3468,-1693,-555,-163,-243,-89,267,163,-283
2,5528725,-3468,-1693,-555,-163,-243,-89,267,163,-283
2,5528732,-3468,-1694,-549,-161,-248,-87,267,163,-283
2,5528737,-3468,-1694,-549,-161,-248,-87,267,163,-283
2,5528742,-3468,-1694,-549,-161,-248,-87,267,163,-283
2,5528750,-3468,-1694,-549,-161,-248,-87,267,163,-283
2,5528756,-3471,-1694,-553,-168,-242,-84,267,163,-283
2,5528761,-3471,-1694,-553,-168,-242,-84,267,163,-283
2,5528768,-3471,-1694,-553,-168,-242,-84,267,163,-283
2,5528775,-3474,-1696,-577,-163,-233,-80,259,159,-285
2,5528783,-3474,-1696,-577,-163,-233,-80,259,159,-285
2,5528791,-3474,-1696,-577,-163,-233,-80,259,159,-285
2,5528797,-3469,-1689,-540,-168,-244,-85,259,159,-285
2,5528802,-3469,-1689,-540,-168,-244,-85,259,159,-285
2,5528809,-3469,-1689,-540,-168,-244,-85,259,159,-285
2,5528815,-3470,-1694,-563,-163,-232,-81,259,159,-285
2,5528820,-3470,-1694,-563,-163,-232,-81,259,159,-285
2,5528824,-3470,-1694,-563,-163,-232,-81,259,159,-285
2,5528829,-3470,-1694,-563,-163,-232,-81,259,159,-285
2,5528836,-3473,-1693,-574,-158,-227,-82,259,159,-285
2,5528841,-3473,-1693,-574,-158,-227,-82,259,159,-285
2,5528849,-3473,-1693,-574,-158,-227,-82,259,159,-285
2,5528854,-3468,-1691,-547,-162,-226,-80,259,159,-285
2,5528861,-3468,-1691,-547,-162,-226,-80,259,159,-285
2,5528868,-3468,-1691,-547,-162,-226,-80,259,159,-285
2,5528876,-3465,-1694,-585,-157,-229,-83,259,159,-285
2,5528885,-3465,-1694,-585,-157,-229,-83,259,159,-285
2,5528895,-3470,-1689,-495,-161,-230,-86,259,159,-285
2,5528908,-3470,-1689,-495,-161,-230,-86,259,159,-285
2,5528920,-3469,-1699,-691,-163,-233,-95,264,166,-288
2,5528933,-3472,-1693,-527,-154,-233,-82,264,166,-288
2,5528945,-3472,-1693,-527,-154,-233,-82,264,166,-288
2,5528954,-3466,-1693,-510,-150,-238,-79,264,166,-288
2,5528965,-3466,-1693,-510,-150,-238,-79,264,166,-288
2,5528978,-3471,-1693,-605,-156,-229,-87,264,166,-288
2,5528990,-3471,-1693,-605,-156,-229,-87,264,166,-288
2,5529004,-3472,-1689,-521,-156,-235,-86,264,166,-288
2,5529016,-3475,-1693,-563,-166,-241,-84,264,166,-288
2,5529024,-3475,-1693,-563,-166,-241,-84,264,166,-288
2,5529032,-3473,-1691,-574,-158,-246,-86,265,163,-285
2,5529040,-3473,-1691,-574,-158,-246,-86,265,163,-285
2,5529049,-3473,-1691,-574,-158,-246,-86,265,163,-285
2,5529058,-3470,-1693,-540,-160,-238,-82,265,163,-285
2,5529070,-3470,-1693,-540,-160,-238,-82,265,163,-285
2,5529083,-3470,-1696,-564,-162,-237,-83,265,163,-285
2,5529095,-3470,-1693,-551,-151,-242,-86,265,163,-285
2,5529106,-3470,-1693,-551,-151,-242,-86,265,163,-285
2,5529116,-3469,-1691,-554,-163,-240,-87,265,163,-285
2,5529128,-3469,-1691,-554,-163,-240,-87,265,163,-285
2,5529141,-3471,-1691,-563,-163,-234,-82,265,163,-285
2,5529153,-3468,-1692,-549,-164,-231,-80,261,159,-281
2,5529165,-3468,-1692,-549,-164,-231,-80,261,159,-281
2,5529176,-3472,-1693,-549,-147,-271,-79,261,159,-281
2,5529186,-3472,-1693,-549,-147,-271,-79,261,159,-281
2,5529198,-3468,-1692,-545,-161,-239,-85,261,159,-281
2,5529209,-3468,-1692,-545,-161,-239,-85,261,159,-281
2,5529222,-3468,-1693,-560,-162,-233,-89,261,159,-281
2,5529233,-3470,-1694,-553,-157,-245,-78,261,159,-281
2,5529246,-3470,-1694,-553,-157,-245,-78,261,159,-281
2,5529260,-3473,-1695,-550,-161,-238,-79,261,159,-281
2,5529272,-3468,-1693,-556,-162,-244,-86,264,166,-286
2,5529283,-3468,-1693,-556,-162,-244,-86,264,166,-286
2,5529297,-3468,-1692,-554,-158,-244,-87,264,166,-286
2,5529309,-3468,-1692,-554,-158,-244,-87,264,166,-286
2,5529322,-3469,-1694,-544,-162,-235,-88,264,166,-286
2,5529334,-3472,-1693,-566,-163,-224,-84,264,166,-286
2,5529348,-3472,-1693,-566,-163,-224,-84,264,166,-286
2,5529362,-3472,-1691,-551,-162,-223,-85,264,166,-286
2,5529373,-3471,-1692,-546,-161,-230,-87,264,166,-286
2,5529387,-3471,-1692,-546,-161,-230,-87,264,166,-286
2,5529399,-3470,-1692,-579,-162,-240,-92,265,161,-291
2,5529412,-3469,-1694,-543,-164,-245,-90,265,161,-291
2,5529422,-3469,-1694,-543,-164,-245,-90,265,161,-291
2,5529437,-3480,-1692,-576,-165,-238,-86,265,161,-291
2,5529448,-3480,-1692,-576,-165,-238,-86,265,161,-291
2,5529458,-3476,-1691,-551,-165,-241,-82,265,161,-291
2,5529469,-3476,-1691,-551,-165,-241,-82,265,161,-291
2,5529483,-3472,-1695,-561,-164,-247,-88,265,161,-291
2,5529492,-3468,-1695,-580,-161,-245,-86,265,161,-291
2,5529502,-3468,-1695,-580,-161,-245,-86,265,161,-291
2,5529512,-3468,-1691,-541,-156,-245,-87,265,161,-291
2,5529521,-3468,-1691,-541,-156,-245,-87,265,161,-291
2,5529529,-3468,-1691,-541,-156,-245,-87,265,161,-291
2,5529537,-3472,-1693,-551,-167,-244,-72,263,165,-279
2,5529545,-3472,-1693,-551,-167,-244,-72,263,165,-279
2,5529553,-3473,-1693,-552,-169,-242,-75,263,165,-279
2,5529562,-3473,-1693,-552,-169,-242,-75,263,165,-279
2,5529571,-3473,-1693,-552,-169,-242,-75,263,165,-279
2,5529579,-3469,-1690,-549,-168,-248,-83,263,165,-279
2,5529589,-3469,-1690,-549,-168,-248,-83,263,165,-279
2,5529597,-3469,-1690,-550,-167,-239,-89,263,165,-279
2,5529608,-3469,-1690,-550,-167,-239,-89,263,165,-279
2,5529616,-3469,-1694,-555,-158,-237,-94,263,165,-279
2,5529626,-3469,-1694,-555,-158,-237,-94,263,165,-279
2,5529639,-3472,-1692,-552,-168,-241,-90,263,165,-279
2,5529653,-3470,-1694,-554,-166,-243,-87,266,160,-282
2,5529662,-3470,-1694,-554,-166,-243,-87,266,160,-282
2,5529670,-3470,-1694,-554,-166,-243,-87,266,160,-282
2,5529678,-3471,-1692,-558,-166,-238,-83,266,160,-282
2,5529687,-3471,-1692,-558,-166,-238,-83,266,160,-282
2,5529696,-3473,-1691,-555,-162,-237,-83,266,160,-282
2,5529707,-3473,-1691,-555,-162,-237,-83,266,160,-282
2,5529722,-3472,-1694,-550,-163,-241,-79,266,160,-282
2,5529738,-3473,-1695,-552,-163,-246,-85,266,160,-282
2,5529749,-3473,-1695,-552,-163,-246,-85,266,160,-282
2,5529759,-3470,-1692,-561,-153,-245,-87,266,160,-282
2,5529774,-3471,-1694,-549,-160,-244,-89,258,154,-280
2,5529788,-3471,-1694,-549,-160,-244,-89,258,154,-280
2,5529798,-3466,-1694,-560,-168,-235,-88,258,154,-280
2,5529808,-3466,-1694,-560,-168,-235,-88,258,154,-280
2,5529817,-3466,-1694,-546,-161,-243,-81,258,154,-280
2,5529826,-3466,-1694,-546,-161,-243,-81,258,154,-280
2,5529833,-3472,-1693,-560,-159,-244,-86,258,154,-280
2,5529841,-3472,-1693,-560,-159,-244,-86,258,154,-280
2,5529849,-3472,-1693,-560,-159,-244,-86,258,154,-280
2,5529858,-3468,-1695,-549,-160,-246,-85,258,154,-280
2,5529866,-3468,-1695,-549,-160,-246,-85,258,154,-280
2,5529877,-3472,-1694,-558,-164,-240,-92,258,154,-280
2,5529884,-3472,-1694,-558,-164,-240,-92,258,154,-280
2,5529892,-3471,-1691,-557,-164,-248,-83,260,156,-284
2,5529900,-3471,-1691,-557,-164,-248,-83,260,156,-284
2,5529906,-3471,-1691,-557,-164,-248,-83,260,156,-284
2,5529912,-3472,-1691,-553,-163,-240,-87,260,156,-284
2,5529918,-3472,-1691,-553,-163,-240,-87,260,156,-284
2,5529924,-3472,-1691,-553,-163,-240,-87,260,156,-284
2,5529930,-3472,-1691,-553,-163,-240,-87,260,156,-284
2,5529935,-3470,-1694,-555,-159,-227,-85,260,156,-284
2,5529943,-3470,-1694,-555,-159,-227,-85,260,156,-284
2,5529949,-3470,-1694,-555,-159,-227,-85,260,156,-284
2,5529956,-3471,-1691,-557,-167,-235,-85,260,156,-284
2,5529962,-3471,-1691,-557,-167,-235,-85,260,156,-284
2,5529968,-3471,-1691,-557,-167,-235,-85,260,156,-284
2,5529974,-3471,-1691,-551,-162,-233,-90,260,156,-284
2,5529981,-3471,-1691,-551,-162,-233,-90,260,156,-284
2,5529989,-3471,-1691,-551,-162,-233,-90,260,156,-284
2,5529995,-3471,-1691,-551,-162,-233,-90,260,156,-284
2,5530003,-3471,-1691,-551,-162,-233,-90,260,156,-284
2,5530010,-3471,-1691,-551,-162,-233,-90,260,156,-284
2,5530017,-3472,-1692,-553,-159,-242,-84,260,160,-288
2,5530024,-3472,-1692,-553,-159,-242,-84,260,160,-288
2,5530031,-3472,-1692,-553,-159,-242,-84,260,160,-288
2,5530036,-3472,-1697,-561,-157,-242,-87,260,160,-288
2,5530043,-3472,-1697,-561,-157,-242,-87,260,160,-288
2,5530049,-3472,-1697,-561,-157,-242,-87,260,160,-288
2,5530056,-3470,-1692,-550,-163,-244,-87,260,160,-288
2,5530064,-3470,-1692,-550,-163,-244,-87,260,160,-288
2,5530070,-3470,-1692,-550,-163,-244,-87,260,160,-288
2,5530076,-3469,-1693,-554,-161,-238,-84,260,160,-288
2,5530083,-3469,-1693,-554,-161,-238,-84,260,160,-288
2,5530090,-3469,-1693,-554,-161,-238,-84,260,160,-288
2,5530096,-3468,-1695,-558,-158,-234,-87,260,160,-288
2,5530104,-3468,-1695,-558,-158,-234,-87,260,160,-288
2,5530112,-3472,-1692,-557,-158,-240,-95,260,160,-288
2,5530118,-3472,-1692,-557,-158,-240,-95,260,160,-288
2,5530125,-3472,-1692,-557,-158,-240,-95,260,160,-288
2,5530133,-3471,-1692,-556,-159,-246,-84,260,160,-288
2,5530139,-3471,-1692,-556,-159,-246,-84,260,160,-288
2,5530146,-3471,-1692,-556,-159,-246,-84,260,160,-288
2,5530152,-3468,-1694,-549,-161,-246,-86,262,156,-284
2,5530159,-3468,-1694,-549,-161,-246,-86,262,156,-284
2,5530166,-3468,-1694,-549,-161,-246,-86,262,156,-284
2,5530173,-3470,-1693,-553,-165,-246,-89,262,156,-284
2,5530179,-3470,-1693,-553,-165,-246,-89,262,156,-284
2,5530186,-3470,-1693,-553,-165,-246,-89,262,156,-284
2,5530192,-3471,-1693,-562,-160,-241,-83,262,156,-284
2,5530199,-3471,-1693,-562,-160,-241,-83,262,156,-284
2,5530204,-3471,-1693,-562,-160,-241,-83,262,156,-284
2,5530209,-3471,-1693,-562,-160,-241,-83,262,156,-284
2,5530216,-3467,-1692,-552,-153,-238,-86,262,156,-284
2,5530224,-3467,-1692,-552,-153,-238,-86,262,156,-284
2,5530231,-3467,-1692,-552,-153,-238,-86,262,156,-284
2,5530238,-3470,-1692,-563,-168,-246,-83,262,156,-284
2,5530245,-3470,-1692,-563,-168,-246,-83,262,156,-284
2,5530252,-3469,-1693,-548,-163,-253,-79,262,156,-284
2,5530258,-3469,-1693,-548,-163,-253,-79,262,156,-284
2,5530267,-3469,-1693,-548,-163,-253,-79,262,156,-284
2,5530273,-3473,-1692,-550,-163,-249,-92,255,163,-287
2,5530278,-3473,-1692,-550,-163,-249,-92,255,163,-287
2,5530285,-3473,-1692,-550,-163,-249,-92,255,163,-287
2,5530290,-3473,-1692,-550,-163,-249,-92,255,163,-287
2,5530296,-3474,-1695,-561,-167,-240,-82,255,163,-287
2,5530303,-3474,-1695,-561,-167,-240,-82,255,163,-287
2,5530309,-3474,-1695,-561,-167,-240,-82,255,163,-287
2,5530318,-3473,-1694,-529,-170,-257,-85,255,163,-287
2,5530327,-3473,-1694,-529,-170,-257,-85,255,163,-287
2,5530333,-3471,-1695,-554,-163,-240,-76,255,163,-287
2,5530342,-3471,-1695,-554,-163,-240,-76,255,163,-287
2,5530347,-3471,-1695,-554,-163,-240,-76,255,163,-287
2,5530355,-3471,-1693,-572,-164,-224,-86,255,163,-287
2,5530360,-3471,-1693,-572,-164,-224,-86,255,163,-287
2,5530368,-3471,-1693,-572,-164,-224,-86,255,163,-287
2,5530375,-3471,-1691,-550,-159,-236,-91,255,163,-287
2,5530380,-3471,-1691,-550,-159,-236,-91,255,163,-287
2,5530386,-3471,-1691,-550,-159,-236,-91,255,163,-287
2,5530394,-3471,-1692,-552,-161,-238,-88,257,163,-283
2,5530401,-3471,-1692,-552,-161,-238,-88,257,163,-283
2,5530407,-3471,-1692,-552,-161,-238,-88,257,163,-283
2,5530415,-3471,-1696,-557,-156,-226,-83,257,163,-283
2,5530423,-3471,-1696,-557,-156,-226,-83,257,163,-283
2,5530428,-3471,-1696,-557,-156,-226,-83,257,163,-283
2,5530436,-3472,-1692,-550,-160,-237,-89,257,163,-283
2,5530444,-3472,-1692,-550,-160,-237,-89,257,163,-283
2,5530452,-3465,-1693,-549,-164,-224,-84,257,163,-283
2,5530458,-3465,-1693,-549,-164,-224,-84,257,163,-283
2,5530467,-3465,-1693,-549,-164,-224,-84,257,163,-283
2,5530473,-3471,-1693,-556,-161,-227,-90,257,163,-283
2,5530479,-3471,-1693,-556,-161,-227,-90,257,163,-283
2,5530487,-3471,-1693,-556,-161,-227,-90,257,163,-283
2,5530493,-3472,-1692,-551,-161,-229,-83,257,163,-283
2,5530501,-3472,-1692,-551,-161,-229,-83,257,163,-283
2,5530508,-3472,-1692,-551,-161,-229,-83,257,163,-283
2,5530513,-3470,-1692,-559,-165,-238,-80,258,162,-290
2,5530518,-3470,-1692,-559,-165,-238,-80,258,162,-290
2,5530523,-3470,-1692,-559,-165,-238,-80,258,162,-290
2,5530528,-3470,-1692,-559,-165,-238,-80,258,162,-290
2,5530533,-3468,-1694,-547,-157,-238,-86,258,162,-290
2,5530539,-3468,-1694,-547,-157,-238,-86,258,162,-290
2,5530544,-3468,-1694,-547,-157,-238,-86,258,162,-290
2,5530552,-3472,-1693,-554,-161,-248,-80,258,162,-290
2,5530559,-3472,-1693,-554,-161,-248,-80,258,162,-290
2,5530565,-3472,-1693,-554,-161,-248,-80,258,162,-290
2,5530572,-3473,-1693,-552,-155,-246,-87,258,162,-290
2,5530578,-3473,-1693,-552,-155,-246,-87,258,162,-290
2,5530586,-3473,-1693,-552,-155,-246,-87,258,162,-290
2,5530594,-3472,-1693,-558,-160,-240,-95,258,162,-290
2,5530601,-3472,-1693,-558,-160,-240,-95,258,162,-290
2,5530608,-3472,-1693,-558,-160,-240,-95,258,162,-290
2,5530615,-3469,-1692,-557,-156,-234,-87,258,162,-290
2,5530622,-3469,-1692,-557,-156,-234,-87,258,162,-290
2,5530629,-3469,-1692,-557,-156,-234,-87,258,162,-290
2,5530636,-3473,-1693,-557,-161,-230,-86,264,162,-290
2,5530644,-3473,-1693,-557,-161,-230,-86,264,162,-290
2,5530651,-3473,-1693,-557,-161,-230,-86,264,162,-290
2,5530658,-3470,-1692,-551,-155,-228,-82,264,162,-290
2,5530667,-3470,-1692,-551,-155,-228,-82,264,162,-290
2,5530673,-3470,-1691,-554,-159,-248,-84,264,162,-290
2,5530681,-3470,-1691,-554,-159,-248,-84,264,162,-290
2,5530688,-3470,-1691,-554,-159,-248,-84,264,162,-290
2,5530695,-3467,-1694,-558,-160,-242,-81,264,162,-290
2,5530700,-3467,-1694,-558,-160,-242,-81,264,162,-290
2,5530706,-3467,-1694,-558,-160,-242,-81,264,162,-290
2,5530711,-3467,-1694,-558,-160,-242,-81,264,162,-290
2,5530717,-3469,-1693,-549,-160,-238,-81,264,162,-290
2,5530722,-3469,-1693,-549,-160,-238,-81,264,162,-290
2,5530730,-3469,-1693,-549,-160,-238,-81,264,162,-290
2,5530736,-3471,-1695,-553,-160,-233,-77,264,162,-290
2,5530742,-3471,-1695,-553,-160,-233,-77,264,162,-290
2,5530747,-3471,-1695,-553,-160,-233,-77,264,162,-290
2,5530755,-3472,-1692,-555,-164,-235,-79,264,162,-290
2,5530761,-3472,-1692,-555,-164,-235,-79,264,162,-290
2,5530768,-3472,-1692,-555,-164,-235,-79,264,162,-290
2,5530776,-3469,-1693,-559,-160,-237,-88,264,162,-290
2,5530782,-3469,-1693,-559,-160,-237,-88,264,162,-290
2,5530791,-3469,-1693,-559,-160,-237,-88,264,162,-290
2,5530797,-3469,-1689,-548,-158,-235,-86,264,162,-290
2,5530805,-3469,-1689,-548,-158,-235,-86,264,162,-290
2,5530811,-3469,-1689,-548,-158,-235,-86,264,162,-290
2,5530816,-3475,-1692,-556,-159,-236,-85,264,162,-290
2,5530820,-3475,-1692,-556,-159,-236,-85,264,162,-290
2,5530825,-3475,-1692,-556,-159,-236,-85,264,162,-290
2,5530830,-3475,-1692,-556,-159,-236,-85,264,162,-290
2,5530835,-3473,-1693,-558,-159,-247,-87,264,162,-290
2,5530841,-3473,-1693,-558,-159,-247,-87,264,162,-290
2,5530847,-3473,-1693,-558,-159,-247,-87,264,162,-290
2,5530854,-3469,-1694,-551,-166,-241,-83,264,162,-290
2,5530862,-3469,-1694,-551,-166,-241,-83,264,162,-290
2,5530870,-3469,-1694,-551,-166,-241,-83,264,162,-290
2,5530877,-3473,-1695,-563,-168,-232,-85,264,162,-290
2,5530884,-3473,-1695,-563,-168,-232,-85,264,162,-290
2,5530890,-3473,-1695,-563,-168,-232,-85,264,162,-290
2,5530896,-3472,-1690,-546,-161,-234,-79,260,162,-284
2,5530911,-3472,-1690,-546,-161,-234,-79,260,162,-284
2,5530923,-3476,-1692,-557,-162,-238,-81,260,162,-284
2,5530934,-3471,-1696,-555,-157,-236,-87,260,162,-284
2,5530947,-3471,-1696,-555,-157,-236,-87,260,162,-284
2,5530960,-3470,-1693,-531,-157,-238,-89,260,162,-284
2,5530972,-3470,-1693,-531,-157,-238,-89,260,162,-284
2,5530984,-3470,-1689,-561,-160,-232,-81,260,162,-284
2,5530997,-3470,-1690,-484,-157,-239,-94,260,162,-284
2,5531011,-3470,-1690,-484,-157,-239,-94,260,162,-284
2,5531020,-3475,-1694,-598,-158,-230,-92,260,160,-284
2,5531030,-3475,-1694,-598,-158,-230,-92,260,160,-284
2,5531043,-3470,-1690,-551,-160,-239,-82,260,160,-284
2,5531056,-3469,-1691,-521,-160,-236,-90,260,160,-284
2,5531069,-3469,-1691,-521,-160,-236,-90,260,160,-284
2,5531081,-3471,-1691,-579,-169,-236,-76,260,160,-284
2,5531094,-3470,-1693,-563,-168,-234,-84,260,160,-284
2,5531106,-3470,-1693,-563,-168,-234,-84,260,160,-284
2,5531116,-3473,-1692,-533,-150,-246,-85,260,160,-284
2,5531130,-3473,-1692,-533,-150,-246,-85,260,160,-284
2,5531142,-3474,-1694,-569,-161,-240,-81,268,166,-282
2,5531154,-3470,-1693,-557,-165,-248,-78,268,166,-282
2,5531167,-3470,-1693,-557,-165,-248,-78,268,166,-282
2,5531181,-3469,-1692,-549,-160,-239,-85,268,166,-282
2,5531189,-3469,-1692,-549,-160,-239,-85,268,166,-282
2,5531198,-3468,-1694,-564,-156,-239,-89,268,166,-282
2,5531211,-3468,-1694,-564,-156,-239,-89,268,166,-282
2,5531225,-3472,-1693,-548,-153,-231,-90,268,166,-282
2,5531235,-3471,-1692,-554,-158,-236,-90,268,166,-282
2,5531246,-3471,-1692,-554,-158,-236,-90,268,166,-282
2,5531256,-3458,-1692,-541,-165,-236,-86,259,161,-289
2,5531269,-3458,-1692,-541,-165,-236,-86,259,161,-289
2,5531282,-3470,-1692,-548,-168,-235,-81,259,161,-289
2,5531294,-3472,-1693,-555,-162,-236,-80,259,161,-289
2,5531303,-3472,-1693,-555,-162,-236,-80,259,161,-289
2,5531313,-3472,-1693,-555,-162,-236,-80,259,161,-289
2,5531325,-3471,-1693,-557,-169,-252,-79,259,161,-289
2,5531338,-3470,-1693,-554,-165,-254,-86,259,161,-289
2,5531351,-3470,-1693,-554,-165,-254,-86,259,161,-289
2,5531363,-3472,-1692,-552,-164,-252,-85,259,161,-289
2,5531377,-3472,-1693,-556,-163,-250,-86,261,153,-289
2,5531388,-3472,-1693,-556,-163,-250,-86,261,153,-289
2,5531401,-3472,-1696,-554,-161,-234,-81,261,153,-289
2,5531415,-3474,-1691,-548,-156,-229,-85,261,153,-289
2,5531429,-3474,-1691,-548,-156,-229,-85,261,153,-289
2,5531442,-3460,-1696,-627,-160,-233,-87,261,153,-289
2,5531452,-3460,-1696,-627,-160,-233,-87,261,153,-289
2,5531464,-3462,-1690,-499,-152,-237,-92,261,153,-289
2,5531472,-3462,-1690,-499,-152,-237,-92,261,153,-289
2,5531484,-3475,-1694,-546,-159,-228,-92,261,153,-289
2,5531497,-3476,-1696,-594,-153,-234,-85,261,153,-289
2,5531512,-3476,-1696,-594,-153,-234,-85,261,153,-289
2,5531521,-3473,-1690,-522,-152,-239,-87,263,161,-295
2,5531529,-3473,-1690,-522,-152,-239,-87,263,161,-295
2,5531538,-3472,-1693,-568,-160,-239,-89,263,161,-295
2,5531547,-3472,-1693,-568,-160,-239,-89,263,161,-295
2,5531561,-3468,-1691,-571,-158,-246,-87,263,161,-295
2,5531571,-3468,-1691,-571,-158,-246,-87,263,161,-295
2,5531583,-3470,-1692,-526,-162,-237,-84,263,161,-295
2,5531597,-3471,-1694,-567,-157,-240,-83,263,161,-295
2,5531612,-3471,-1694,-567,-157,-240,-83,263,161,-295
2,5531620,-3472,-1693,-569,-158,-243,-87,263,161,-295
2,5531633,-3471,-1692,-531,-159,-235,-84,263,161,-295
2,5531646,-3471,-1692,-531,-159,-235,-84,267,165,-283
2,5531661,-3469,-1692,-561,-165,-231,-92,267,165,-283
2,5531670,-3469,-1692,-561,-165,-231,-92,267,165,-283
2,5531682,-3472,-1692,-551,-168,-239,-88,267,165,-283
2,5531697,-3473,-1691,-549,-169,-240,-86,267,165,-283
2,5531710,-3473,-1691,-549,-169,-240,-86,267,165,-283
2,5531720,-3471,-1696,-556,-163,-236,-83,267,165,-283
2,5531731,-3471,-1696,-556,-163,-236,-83,267,165,-283
2,5531741,-3472,-1696,-550,-156,-231,-82,267,165,-283
2,5531749,-3472,-1696,-550,-156,-231,-82,267,165,-283
2,5531757,-3472,-1692,-542,-161,-260,-88,264,158,-288
2,5531765,-3472,-1692,-542,-161,-260,-88,264,158,-288
2,5531778,-3470,-1692,-552,-162,-259,-85,264,158,-288
2,5531789,-3470,-1692,-552,-162,-259,-85,264,158,-288
2,5531802,-3474,-1693,-571,-164,-248,-86,264,158,-288
2,5531812,-3474,-1693,-571,-164,-248,-86,264,158,-288
2,5531822,-3472,-1692,-551,-165,-242,-89,264,158,-288
2,5531830,-3472,-1692,-551,-165,-242,-89,264,158,-288
2,5531839,-3471,-1694,-556,-161,-232,-91,264,158,-288
2,5531846,-3471,-1694,-556,-161,-232,-91,264,158,-288
2,5531855,-3469,-1693,-564,-157,-240,-80,264,158,-288
2,5531864,-3469,-1693,-564,-157,-240,-80,264,158,-288
2,5531873,-3469,-1693,-564,-157,-240,-80,264,158,-288
2,5531881,-3473,-1690,-545,-164,-240,-77,258,164,-292
2,5531890,-3473,-1690,-545,-164,-240,-77,258,164,-292
2,5531901,-3469,-1692,-548,-166,-233,-75,258,164,-292
2,5531910,-3469,-1692,-548,-166,-233,-75,258,164,-292
2,5531916,-3473,-1694,-548,-160,-240,-81,258,164,-292
2,5531923,-3473,-1694,-548,-160,-240,-81,258,164,-292
2,5531930,-3473,-1694,-548,-160,-240,-81,258,164,-292
2,5531936,-3472,-1691,-548,-164,-236,-84,258,164,-292
2,5531945,-3472,-1691,-548,-164,-236,-84,258,164,-292
2,5531952,-3472,-1691,-548,-164,-236,-84,258,164,-292
2,5531959,-3473,-1693,-559,-161,-238,-80,258,164,-292
2,5531965,-3473,-1693,-559,-161,-238,-80,258,164,-292
2,5531970,-3473,-1693,-559,-161,-238,-80,258,164,-292
2,5531977,-3473,-1694,-557,-156,-246,-81,258,164,-292
2,5531984,-3473,-1694,-557,-156,-246,-81,258,164,-292
2,5531994,-3468,-1691,-554,-161,-239,-84,266,164,-286
2,5532000,-3468,-1691,-554,-161,-239,-84,266,164,-286
2,5532006,-3468,-1691,-554,-161,-239,-84,266,164,-286
2,5532011,-3468,-1691,-554,-161,-239,-84,266,164,-286
2,5532017,-3472,-1691,-555,-163,-245,-87,266,164,-286
2,5532025,-3472,-1691,-555,-163,-245,-87,266,164,-286
2,5532033,-3472,-1691,-555,-163,-245,-87,266,164,-286
2,5532039,-3470,-1689,-539,-161,-240,-79,266,164,-286
2,5532046,-3470,-1689,-539,-161,-240,-79,266,164,-286
2,5532053,-3470,-1689,-539,-161,-240,-79,266,164,-286
2,5532060,-3471,-1691,-559,-159,-240,-87,266,164,-286
2,5532066,-3471,-1691,-559,-159,-240,-87,266,164,-286
2,5532075,-3472,-1691,-554,-159,-242,-90,266,164,-286
2,5532081,-3472,-1691,-554,-159,-242,-90,266,164,-286
2,5532089,-3472,-1691,-554,-159,-242,-90,266,164,-286
2,5532096,-3467,-1691,-546,-156,-240,-90,266,164,-286
2,5532103,-3467,-1691,-546,-156,-240,-90,266,164,-286
2,5532111,-3467,-1691,-546,-156,-240,-90,266,164,-286
2,5532119,-3475,-1692,-558,-163,-235,-81,266,164,-286
2,5532126,-3475,-1692,-558,-163,-235,-81,266,164,-286
2,5532132,-3475,-1692,-558,-163,-235,-81,266,164,-286
2,5532138,-3472,-1692,-547,-162,-238,-84,263,165,-289
2,5532145,-3472,-1692,-547,-162,-238,-84,263,165,-289
2,5532153,-3472,-1692,-547,-162,-238,-84,263,165,-289
2,5532161,-3471,-1690,-552,-160,-230,-92,263,165,-289
2,5532169,-3471,-1690,-552,-160,-230,-92,263,165,-289
2,5532176,-3470,-1692,-558,-168,-234,-85,263,165,-289
2,5532184,-3470,-1692,-558,-168,-234,-85,263,165,-289
2,5532191,-3470,-1692,-558,-168,-234,-85,263,165,-289
2,5532198,-3473,-1694,-549,-163,-241,-90,263,165,-289
2,5532204,-3473,-1694,-549,-163,-241,-90,263,165,-289
2,5532212,-3473,-1694,-549,-163,-241,-90,263,165,-289
2,5532218,-3471,-1694,-559,-160,-238,-86,263,165,-289
2,5532224,-3471,-1694,-559,-160,-238,-86,263,165,-289
2,5532232,-3471,-1694,-559,-160,-238,-86,263,165,-289
2,5532239,-3472,-1695,-555,-158,-239,-89,263,165,-289
2,5532246,-3472,-1695,-555,-158,-239,-89,263,165,-289
2,5532254,-3472,-1695,-555,-158,-239,-89,263,165,-289
2,5532259,-3473,-1691,-549,-159,-247,-90,265,163,-287
2,5532264,-3473,-1691,-549,-159,-247,-90,265,163,-287
2,5532270,-3473,-1691,-549,-159,-247,-90,265,163,-287
2,5532278,-3470,-1694,-556,-163,-247,-87,265,163,-287
2,5532286,-3470,-1694,-556,-163,-247,-87,265,163,-287
2,5532293,-3470,-1694,-556,-163,-247,-87,265,163,-287
2,5532300,-3470,-1693,-553,-158,-252,-75,265,163,-287
2,5532307,-3470,-1693,-553,-158,-252,-75,265,163,-287
2,5532313,-3470,-1693,-553,-158,-252,-75,265,163,-287
2,5532319,-3470,-1694,-553,-165,-247,-81,265,163,-287
2,5532327,-3470,-1694,-553,-165,-247,-81,265,163,-287
2,5532335,-3470,-1696,-556,-167,-244,-81,265,163,-287
2,5532340,-3470,-1696,-556,-167,-244,-81,265,163,-287
2,5532347,-3470,-1696,-556,-167,-244,-81,265,163,-287
2,5532353,-3468,-1691,-552,-162,-239,-82,265,163,-287
2,5532360,-3468,-1691,-552,-162,-239,-82,265,163,-287
2,5532367,-3468,-1691,-552,-162,-239,-82,265,163,-287
2,5532375,-3468,-1691,-551,-158,-246,-85,266,166,-284
2,5532382,-3468,-1691,-551,-158,-246,-85,266,166,-284
2,5532389,-3468,-1691,-551,-158,-246,-85,266,166,-284
2,5532396,-3473,-1689,-554,-155,-239,-83,266,166,-284
2,5532401,-3473,-1689,-554,-155,-239,-83,266,166,-284
2,5532408,-3473,-1689,-554,-155,-239,-83,266,166,-284
2,5532416,-3475,-1692,-552,-164,-242,-77,266,166,-284
2,5532422,-3475,-1692,-552,-164,-242,-77,266,166,-284
2,5532430,-3475,-1692,-552,-164,-242,-77,266,166,-284
2,5532437,-3472,-1695,-553,-154,-244,-96,266,166,-284
2,5532445,-3472,-1695,-553,-154,-244,-96,266,166,-284
2,5532451,-3472,-1695,-553,-154,-244,-96,266,166,-284
2,5532456,-3470,-1695,-560,-161,-236,-87,266,166,-284
2,5532464,-3470,-1695,-560,-161,-236,-87,266,166,-284
2,5532470,-3470,-1695,-560,-161,-236,-87,266,166,-284
2,5532476,-3472,-1688,-553,-158,-238,-83,266,166,-284
2,5532484,-3472,-1688,-553,-158,-238,-83,266,166,-284
2,5532489,-3472,-1688,-553,-158,-238,-83,266,166,-284
2,5532497,-3470,-1691,-556,-159,-251,-79,254,160,-290
2,5532506,-3470,-1691,-556,-159,-251,-79,254,160,-290
2,5532513,-3470,-1691,-556,-159,-251,-79,254,160,-290
2,5532518,-3472,-1692,-549,-162,-242,-77,254,160,-290
2,5532522,-3472,-1692,-549,-162,-242,-77,254,160,-290
2,5532527,-3472,-1692,-549,-162,-242,-77,254,160,-290
2,5532532,-3472,-1692,-549,-162,-242,-77,254,160,-290
2,5532539,-3469,-1693,-553,-155,-243,-83,254,160,-290
2,5532546,-3469,-1693,-553,-155,-243,-83,254,160,-290
2,5532553,-3469,-1693,-553,-155,-243,-83,254,160,-290
2,5532559,-3468,-1692,-556,-158,-244,-77,254,160,-290
2,5532566,-3468,-1692,-556,-158,-244,-77,254,160,-290
2,5532573,-3468,-1692,-556,-158,-244,-77,254,160,-290
2,5532579,-3471,-1692,-559,-160,-235,-90,254,160,-290
2,5532587,-3471,-1692,-559,-160,-235,-90,254,160,-290
2,5532594,-3470,-1688,-555,-165,-238,-86,254,160,-290
2,5532601,-3470,-1688,-555,-165,-238,-86,254,160,-290
2,5532609,-3470,-1688,-555,-165,-238,-86,254,160,-290
2,5532616,-3471,-1692,-554,-157,-243,-81,267,165,-285
2,5532622,-3471,-1692,-554,-157,-243,-81,267,165,-285
2,5532630,-3471,-1692,-554,-157,-243,-81,267,165,-285
2,5532638,-3473,-1693,-550,-153,-240,-82,267,165,-285
2,5532646,-3473,-1693,-550,-153,-240,-82,267,165,-285
2,5532653,-3473,-1693,-550,-153,-240,-82,267,165,-285
2,5532658,-3469,-1694,-558,-153,-245,-86,267,165,-285
2,5532665,-3469,-1694,-558,-153,-245,-86,267,165,-285
2,5532673,-3469,-1694,-558,-153,-245,-86,267,165,-285
2,5532680,-3472,-1696,-556,-163,-235,-84,267,165,-285
2,5532687,-3472,-1696,-556,-163,-235,-84,267,165,-285
2,5532694,-3471,-1694,-559,-159,-238,-88,267,165,-285
2,5532701,-3471,-1694,-559,-159,-238,-88,267,165,-285
2,5532708,-3471,-1694,-559,-159,-238,-88,267,165,-285
2,5532716,-3472,-1694,-555,-164,-237,-80,267,165,-285
2,5532724,-3472,-1694,-555,-164,-237,-80,267,165,-285
2,5532730,-3472,-1694,-555,-164,-237,-80,267,165,-285
2,5532737,-3470,-1693,-556,-164,-245,-82,267,165,-285
2,5532743,-3470,-1693,-556,-164,-245,-82,267,165,-285
2,5532751,-3470,-1693,-556,-164,-245,-82,267,165,-285
2,5532756,-3473,-1695,-553,-162,-240,-90,263,159,-291
2,5532765,-3473,-1695,-553,-162,-240,-90,263,159,-291
2,5532771,-3473,-1695,-553,-162,-240,-90,263,159,-291
2,5532776,-3473,-1695,-554,-160,-240,-87,263,159,-291
2,5532782,-3473,-1695,-554,-160,-240,-87,263,159,-291
2,5532789,-3473,-1695,-554,-160,-240,-87,263,159,-291
2,5532796,-3470,-1692,-554,-162,-242,-83,263,159,-291
2,5532804,-3470,-1692,-554,-162,-242,-83,263,159,-291
2,5532809,-3470,-1692,-554,-162,-242,-83,263,159,-291
2,5532814,-3471,-1691,-556,-170,-243,-86,263,159,-291
2,5532819,-3471,-1691,-556,-170,-243,-86,263,159,-291
2,5532825,-3471,-1691,-556,-170,-243,-86,263,159,-291
2,5532829,-3471,-1691,-556,-170,-243,-86,263,159,-291
2,5532834,-3472,-1692,-554,-162,-241,-88,263,159,-291
2,5532840,-3472,-1692,-554,-162,-241,-88,263,159,-291
2,5532846,-3472,-1692,-554,-162,-241,-88,263,159,-291
2,5532853,-3472,-1692,-554,-162,-241,-88,263,159,-291
2,5532858,-3469,-1693,-556,-165,-243,-89,263,159,-291
2,5532866,-3469,-1693,-556,-165,-243,-89,263,159,-291
2,5532873,-3469,-1693,-556,-165,-243,-89,263,159,-291
2,5532880,-3470,-1693,-553,-165,-242,-83,264,158,-294
2,5532889,-3470,-1693,-553,-165,-242,-83,264,158,-294
2,5532895,-3472,-1694,-551,-157,-242,-88,264,158,-294
2,5532902,-3472,-1694,-551,-157,-242,-88,264,158,-294
2,5532907,-3472,-1694,-551,-157,-242,-88,264,158,-294
2,5532918,-3470,-1695,-552,-151,-241,-87,264,158,-294
2,5532932,-3470,-1695,-552,-151,-241,-87,264,158,-294
2,5532944,-3472,-1692,-559,-159,-245,-79,264,158,-294
2,5532957,-3471,-1693,-559,-161,-244,-84,264,158,-294
2,5532969,-3471,-1693,-559,-161,-244,-84,264,158,-294
2,5532983,-3469,-1691,-555,-160,-245,-85,264,158,-294
2,5532993,-3469,-1691,-555,-160,-245,-85,264,158,-294
2,5533005,-3470,-1692,-553,-159,-238,-85,259,163,-293
2,5533015,-3469,-1691,-554,-162,-235,-87,259,163,-293
2,5533025,-3469,-1691,-554,-162,-235,-87,259,163,-293
2,5533038,-3468,-1692,-555,-159,-232,-89,259,163,-293
2,5533051,-3468,-1692,-555,-159,-232,-89,259,163,-293
2,5533066,-3471,-1692,-558,-164,-243,-86,259,163,-293
2,5533077,-3471,-1695,-555,-161,-240,-82,259,163,-293
2,5533090,-3471,-1695,-555,-161,-240,-82,259,163,-293
2,5533104,-3472,-1695,-554,-164,-239,-81,259,163,-293
2,5533116,-3470,-1691,-555,-155,-234,-86,255,169,-285
2,5533127,-3470,-1691,-555,-155,-234,-86,255,169,-285
2,5533139,-3472,-1692,-555,-161,-235,-80,255,169,-285
2,5533152,-3472,-1692,-555,-161,-235,-80,255,169,-285
2,5533164,-3470,-1693,-558,-163,-239,-85,255,169,-285
2,5533176,-3472,-1695,-557,-159,-238,-90,255,169,-285
2,5533190,-3472,-1695,-557,-159,-238,-90,255,169,-285
2,5533200,-3473,-1691,-554,-157,-237,-96,255,169,-285
2,5533210,-3473,-1691,-554,-157,-237,-96,255,169,-285
2,5533224,-3473,-1690,-543,-151,-213,-87,255,169,-285
2,5533239,-3471,-1695,-563,-167,-267,-79,260,170,-286
2,5533250,-3471,-1695,-563,-167,-267,-79,260,170,-286
2,5533261,-3464,-1693,-546,-157,-248,-89,260,170,-286
2,5533274,-3464,-1693,-546,-157,-248,-89,260,170,-286
2,5533288,-3471,-1694,-543,-165,-247,-85,260,170,-286
2,5533296,-3473,-1695,-566,-164,-239,-88,260,170,-286
2,5533306,-3473,-1695,-566,-164,-239,-88,260,170,-286
2,5533318,-3468,-1694,-546,-159,-246,-74,260,170,-286
2,5533329,-3468,-1694,-546,-159,-246,-74,260,170,-286
2,5533342,-3470,-1691,-551,-161,-232,-83,260,170,-286
2,5533356,-3472,-1692,-569,-151,-228,-86,260,170,-286
2,5533365,-3472,-1692,-569,-151,-228,-86,260,170,-286
2,5533376,-3471,-1693,-544,-155,-226,-79,262,168,-294
2,5533388,-3471,-1693,-544,-155,-226,-79,262,168,-294
2,5533400,-3466,-1692,-548,-161,-230,-90,262,168,-294
2,5533411,-3466,-1692,-548,-161,-230,-90,262,168,-294
2,5533422,-3473,-1694,-564,-166,-232,-83,262,168,-294
2,5533431,-3473,-1694,-564,-166,-232,-83,262,168,-294
2,5533438,-3471,-1691,-544,-163,-231,-85,262,168,-294
2,5533447,-3471,-1691,-544,-163,-231,-85,262,168,-294
2,5533455,-3468,-1692,-559,-154,-235,-86,262,168,-294
2,5533463,-3468,-1692,-559,-154,-235,-86,262,168,-294
2,5533474,-3468,-1692,-559,-154,-235,-86,262,168,-294
2,5533489,-3470,-1694,-558,-157,-237,-80,262,168,-294
2,5533500,-3470,-1695,-544,-156,-232,-83,255,161,-291
2,5533512,-3470,-1695,-544,-156,-232,-83,255,161,-291
2,5533520,-3475,-1694,-558,-160,-234,-84,255,161,-291
2,5533529,-3475,-1694,-558,-160,-234,-84,255,161,-291
2,5533536,-3468,-1693,-553,-153,-235,-86,255,161,-291
2,5533546,-3468,-1693,-553,-153,-235,-86,255,161,-291
2,5533559,-3471,-1693,-551,-156,-231,-75,255,161,-291
2,5533571,-3471,-1693,-551,-156,-231,-75,255,161,-291
2,5533581,-3470,-1693,-559,-165,-237,-80,255,161,-291
2,5533592,-3470,-1693,-559,-165,-237,-80,255,161,-291
2,5533606,-3472,-1695,-546,-165,-238,-85,255,161,-291
2,5533619,-3474,-1694,-554,-156,-225,-78,260,162,-282
2,5533629,-3474,-1694,-554,-156,-225,-78,260,162,-282
2,5533641,-3471,-1695,-557,-151,-218,-83,260,162,-282
2,5533655,-3471,-1695,-557,-151,-218,-83,260,162,-282
2,5533667,-3472,-1694,-547,-165,-238,-82,260,162,-282
2,5533679,-3470,-1694,-554,-169,-240,-83,260,162,-282
2,5533690,-3470,-1694,-554,-169,-240,-83,260,162,-282
2,5533704,-3470,-1694,-553,-162,-247,-85,260,162,-282
2,5533716,-3471,-1695,-547,-162,-247,-94,260,162,-282
2,5533728,-3471,-1695,-547,-162,-247,-94,260,162,-282
2,5533739,-3471,-1692,-553,-160,-245,-88,263,155,-287
2,5533750,-3471,-1692,-553,-160,-245,-88,263,155,-287
2,5533762,-3470,-1692,-558,-162,-242,-92,263,155,-287
2,5533775,-3470,-1694,-554,-157,-246,-89,263,155,-287
2,5533786,-3470,-1694,-554,-157,-246,-89,263,155,-287
2,5533795,-3471,-1694,-558,-160,-242,-88,263,155,-287
2,5533807,-3471,-1694,-558,-160,-242,-88,263,155,-287
2,5533815,-3471,-1690,-555,-162,-249,-83,263,155,-287
2,5533824,-3471,-1690,-555,-162,-249,-83,263,155,-287
2,5533833,-3471,-1690,-555,-162,-249,-83,263,155,-287
2,5533840,-3470,-1694,-556,-162,-249,-88,263,155,-287
2,5533849,-3470,-1694,-556,-162,-249,-88,263,155,-287
2,5533857,-3470,-1696,-602,-171,-263,-89,259,171,-281
2,5533865,-3470,-1696,-602,-171,-263,-89,259,171,-281
2,5533874,-3470,-1696,-602,-171,-263,-89,259,171,-281
2,5533882,-3469,-1693,-527,-159,-237,-92,259,171,-281
2,5533890,-3469,-1693,-527,-159,-237,-92,259,171,-281
2,5533898,-3473,-1691,-564,-158,-234,-83,259,171,-281
2,5533912,-3473,-1691,-564,-158,-234,-83,259,171,-281
2,5533923,-3469,-1692,-571,-157,-239,-87,259,171,-281
2,5533931,-3469,-1692,-571,-157,-239,-87,259,171,-281
2,5533937,-3470,-1692,-529,-166,-250,-84,259,171,-281
2,5533943,-3470,-1692,-529,-166,-250,-84,259,171,-281
2,5533949,-3470,-1692,-529,-166,-250,-84,259,171,-281
2,5533958,-3471,-1691,-571,-165,-250,-87,259,171,-281
2,5533965,-3471,-1691,-571,-165,-250,-87,259,171,-281
2,5533972,-3471,-1691,-571,-165,-250,-87,259,171,-281
2,5533978,-3473,-1691,-554,-167,-248,-89,259,171,-281
2,5533985,-3473,-1691,-554,-167,-248,-89,259,171,-281
2,5533990,-3473,-1691,-554,-167,-248,-89,259,171,-281
2,5533997,-3470,-1691,-536,-168,-245,-86,267,155,-289
2,5534005,-3470,-1691,-536,-168,-245,-86,267,155,-289
2,5534012,-3470,-1691,-536,-168,-245,-86,267,155,-289
2,5534019,-3473,-1693,-569,-162,-237,-78,267,155,-289
2,5534025,-3473,-1693,-569,-162,-237,-78,267,155,-289
2,5534030,-3473,-1693,-569,-162,-237,-78,267,155,-289
2,5534039,-3472,-1691,-554,-157,-229,-86,267,155,-289
2,5534047,-3472,-1691,-554,-157,-229,-86,267,155,-289
2,5534055,-3472,-1691,-554,-157,-229,-86,267,155,-289
2,5534062,-3469,-1698,-551,-150,-231,-83,267,155,-289
2,5534069,-3469,-1698,-551,-150,-231,-83,267,155,-289
2,5534076,-3470,-1694,-570,-154,-231,-82,267,155,-289
2,5534083,-3470,-1694,-570,-154,-231,-82,267,155,-289
2,5534090,-3470,-1694,-570,-154,-231,-82,267,155,-289
2,5534096,-3474,-1694,-539,-156,-225,-83,267,155,-289
2,5534102,-3474,-1694,-539,-156,-225,-83,267,155,-289
2,5534107,-3474,-1694,-539,-156,-225,-83,267,155,-289
2,5534112,-3474,-1694,-539,-156,-225,-83,267,155,-289
2,5534120,-3469,-1695,-548,-159,-231,-81,258,164,-284
2,5534127,-3469,-1695,-548,-159,-231,-81,258,164,-284
2,5534134,-3469,-1695,-548,-159,-231,-81,258,164,-284
2,5534140,-3461,-1694,-570,-168,-263,-77,258,164,-284
2,5534146,-3461,-1694,-570,-168,-263,-77,258,164,-284
2,5534153,-3461,-1694,-570,-168,-263,-77,258,164,-284
2,5534160,-3473,-1693,-563,-152,-229,-85,258,164,-284
2,5534167,-3473,-1693,-563,-152,-229,-85,258,164,-284
2,5534173,-3473,-1693,-563,-152,-229,-85,258,164,-284
2,5534180,-3471,-1691,-540,-155,-231,-79,258,164,-284
2,5534187,-3471,-1691,-540,-155,-231,-79,258,164,-284
2,5534192,-3471,-1691,-540,-155,-231,-79,258,164,-284
2,5534199,-3472,-1692,-563,-158,-231,-85,258,164,-284
2,5534206,-3472,-1692,-563,-158,-231,-85,258,164,-284
2,5534213,-3472,-1692,-563,-158,-231,-85,258,164,-284
2,5534222,-3470,-1693,-552,-160,-243,-82,258,164,-284
2,5534228,-3470,-1693,-552,-160,-243,-82,258,164,-284
2,5534233,-3470,-1693,-552,-160,-243,-82,258,164,-284
2,5534240,-3470,-1693,-536,-164,-242,-87,255,155,-287
2,5534246,-3470,-1693,-536,-164,-242,-87,255,155,-287
2,5534255,-3470,-1693,-536,-164,-242,-87,255,155,-287
2,5534262,-3472,-1694,-566,-163,-232,-80,255,155,-287
2,5534267,-3472,-1694,-566,-163,-232,-80,255,155,-287
2,5534275,-3470,-1693,-551,-158,-235,-86,255,155,-287
2,5534282,-3470,-1693,-551,-158,-235,-86,255,155,-287
2,5534289,-3470,-1693,-551,-158,-235,-86,255,155,-287
2,5534296,-3471,-1692,-544,-161,-225,-84,255,155,-287
2,5534303,-3471,-1692,-544,-161,-225,-84,255,155,-287
2,5534311,-3471,-1692,-544,-161,-225,-84,255,155,-287
2,5534317,-3470,-1692,-569,-162,-233,-78,255,155,-287
2,5534325,-3470,-1692,-569,-162,-233,-78,255,155,-287
2,5534332,-3470,-1692,-569,-162,-233,-78,255,155,-287
2,5534340,-3471,-1694,-556,-160,-243,-79,255,155,-287
2,5534347,-3471,-1694,-556,-160,-243,-79,255,155,-287
2,5534354,-3471,-1694,-556,-160,-243,-79,255,155,-287
2,5534360,-3463,-1692,-547,-167,-264,-89,268,162,-286
2,5534365,-3463,-1692,-547,-167,-264,-89,268,162,-286
2,5534374,-3463,-1692,-547,-167,-264,-89,268,162,-286
2,5534382,-3470,-1696,-595,-159,-243,-88,268,162,-286
2,5534391,-3470,-1696,-595,-159,-243,-88,268,162,-286
2,5534396,-3470,-1687,-526,-155,-250,-82,268,162,-286
2,5534405,-3470,-1687,-526,-155,-250,-82,268,162,-286
2,5534411,-3470,-1687,-526,-155,-250,-82,268,162,-286
2,5534418,-3467,-1693,-545,-164,-243,-88,268,162,-286
2,5534426,-3467,-1693,-545,-164,-243,-88,268,162,-286
2,5534432,-3467,-1693,-545,-164,-243,-88,268,162,-286
2,5534441,-3471,-1693,-585,-164,-247,-87,268,162,-286
2,5534449,-3471,-1693,-585,-164,-247,-87,268,162,-286
2,5534456,-3469,-1689,-524,-169,-252,-81,268,162,-286
2,5534462,-3469,-1689,-524,-169,-252,-81,268,162,-286
2,5534469,-3469,-1689,-524,-169,-252,-81,268,162,-286
2,5534477,-3472,-1693,-560,-164,-252,-87,263,161,-287
2,5534483,-3472,-1693,-560,-164,-252,-87,263,161,-287
2,5534491,-3472,-1693,-560,-164,-252,-87,263,161,-287
2,5534498,-3471,-1696,-568,-160,-239,-86,263,161,-287
2,5534505,-3471,-1696,-568,-160,-239,-86,263,161,-287
2,5534513,-3471,-1696,-568,-160,-239,-86,263,161,-287
2,5534518,-3472,-1690,-536,-166,-245,-88,263,161,-287
2,5534523,-3472,-1690,-536,-166,-245,-88,263,161,-287
2,5534529,-3472,-1690,-536,-166,-245,-88,263,161,-287
2,5534533,-3472,-1690,-536,-166,-245,-88,263,161,-287
2,5534539,-3472,-1696,-581,-168,-234,-88,263,161,-287
2,5534544,-3472,-1696,-581,-168,-234,-88,263,161,-287
2,5534553,-3472,-1696,-581,-168,-234,-88,263,161,-287
2,5534560,-3471,-1692,-545,-165,-234,-90,263,161,-287
2,5534565,-3471,-1692,-545,-165,-234,-90,263,161,-287
2,5534570,-3471,-1692,-545,-165,-234,-90,263,161,-287
2,5534576,-3470,-1693,-544,-162,-236,-76,263,161,-287
2,5534583,-3470,-1693,-544,-162,-236,-76,263,161,-287
2,5534593,-3470,-1693,-544,-162,-236,-76,263,161,-287
2,5534599,-3473,-1696,-580,-153,-236,-78,263,161,-287
2,5534606,-3473,-1696,-580,-153,-236,-78,263,161,-287
2,5534614,-3473,-1696,-580,-153,-236,-78,263,161,-287
2,5534621,-3471,-1690,-536,-159,-242,-91,255,165,-283
2,5534627,-3471,-1690,-536,-159,-242,-91,255,165,-283
2,5534636,-3471,-1690,-536,-159,-242,-91,255,165,-283
2,5534643,-3472,-1692,-555,-158,-243,-89,255,165,-283
2,5534649,-3472,-1692,-555,-158,-243,-89,255,165,-283
2,5534657,-3471,-1693,-561,-160,-239,-84,255,165,-283
2,5534664,-3471,-1693,-561,-160,-239,-84,255,165,-283
2,5534671,-3471,-1693,-561,-160,-239,-84,255,165,-283
2,5534678,-3470,-1692,-545,-158,-240,-89,255,165,-283
2,5534685,-3470,-1692,-545,-158,-240,-89,255,165,-283
2,5534693,-3470,-1692,-545,-158,-240,-89,255,165,-283
2,5534699,-3470,-1693,-565,-156,-235,-86,255,165,-283
2,5534708,-3470,-1693,-565,-156,-235,-86,255,165,-283
2,5534715,-3471,-1695,-556,-157,-242,-86,255,165,-283
2,5534724,-3471,-1695,-556,-157,-242,-86,255,165,-283
2,5534731,-3471,-1695,-556,-157,-242,-86,255,165,-283
2,5534737,-3469,-1690,-544,-165,-235,-85,255,163,-279
2,5534745,-3469,-1690,-544,-165,-235,-85,255,163,-279
2,5534750,-3469,-1690,-544,-165,-235,-85,255,163,-279
2,5534758,-3470,-1696,-568,-165,-232,-83,255,163,-279
2,5534766,-3470,-1696,-568,-165,-232,-83,255,163,-279
2,5534774,-3470,-1696,-568,-165,-232,-83,255,163,-279
2,5534781,-3467,-1692,-553,-159,-239,-90,255,163,-279
2,5534788,-3467,-1692,-553,-159,-239,-90,255,163,-279
2,5534795,-3467,-1692,-553,-159,-239,-90,255,163,-279
2,5534800,-3469,-1695,-558,-164,-235,-94,255,163,-279
2,5534809,-3469,-1695,-558,-164,-235,-94,255,163,-279
2,5534814,-3469,-1695,-558,-164,-235,-94,255,163,-279
2,5534819,-3470,-1692,-560,-162,-238,-92,255,163,-279
2,5534824,-3470,-1692,-560,-162,-238,-92,255,163,-279
2,5534829,-3470,-1692,-560,-162,-238,-92,255,163,-279
2,5534834,-3470,-1692,-560,-162,-238,-92,255,163,-279
2,5534840,-3469,-1692,-553,-166,-236,-90,255,163,-279
2,5534845,-3469,-1692,-553,-166,-236,-90,255,163,-279
2,5534854,-3469,-1692,-553,-166,-236,-90,255,163,-279
2,5534860,-3472,-1695,-549,-168,-246,-84,264,166,-284
2,5534868,-3472,-1695,-549,-168,-246,-84,264,166,-284
2,5534875,-3472,-1695,-549,-168,-246,-84,264,166,-284
2,5534882,-3472,-1693,-560,-165,-240,-86,264,166,-284
2,5534889,-3472,-1693,-560,-165,-240,-86,264,166,-284
2,5534897,-3470,-1693,-556,-162,-236,-90,264,166,-284
2,5534904,-3470,-1693,-556,-162,-236,-90,264,166,-284
2,5534911,-3470,-1693,-556,-162,-236,-90,264,166,-284
2,5534917,-3471,-1692,-555,-158,-230,-92,264,166,-284
2,5534924,-3471,-1692,-555,-158,-230,-92,264,166,-284
2,5534937,-3473,-1689,-558,-157,-229,-85,264,166,-284
2,5534950,-3473,-1689,-558,-157,-229,-85,264,166,-284
2,5534962,-3471,-1689,-555,-154,-240,-77,264,166,-284
2,5534971,-3471,-1689,-555,-154,-240,-77,264,166,-284
2,5534982,-3471,-1693,-553,-162,-237,-81,257,163,-287
2,5534995,-3471,-1693,-553,-162,-237,-81,257,163,-287
2,5535007,-3472,-1692,-554,-156,-242,-93,257,163,-287
2,5535020,-3472,-1691,-549,-156,-237,-90,257,163,-287
2,5535032,-3472,-1691,-549,-156,-237,-90,257,163,-287
2,5535044,-3469,-1692,-562,-165,-239,-91,257,163,-287
2,5535055,-3469,-1692,-562,-165,-239,-91,257,163,-287
2,5535069,-3471,-1694,-554,-162,-235,-86,257,163,-287
2,5535080,-3470,-1693,-554,-162,-238,-88,257,163,-287
2,5535089,-3470,-1693,-554,-162,-238,-88,257,163,-287
2,5535097,-3470,-1693,-560,-165,-245,-83,254,158,-286
2,5535106,-3470,-1693,-560,-165,-245,-83,254,158,-286
2,5535114,-3470,-1693,-560,-165,-245,-83,254,158,-286
2,5535123,-3467,-1692,-553,-162,-235,-83,254,158,-286
2,5535135,-3467,-1692,-553,-162,-235,-83,254,158,-286
2,5535149,-3470,-1691,-554,-168,-235,-86,254,158,-286
2,5535162,-3472,-1691,-557,-162,-237,-84,254,158,-286
2,5535172,-3472,-1691,-557,-162,-237,-84,254,158,-286
2,5535184,-3469,-1692,-552,-159,-242,-81,254,158,-286
2,5535197,-3469,-1691,-562,-160,-236,-89,254,158,-286
2,5535209,-3469,-1691,-562,-160,-236,-89,254,158,-286
2,5535220,-3470,-1694,-556,-155,-236,-88,263,161,-293
2,5535235,-3470,-1694,-556,-155,-236,-88,263,161,-293
2,5535247,-3471,-1691,-555,-158,-228,-88,263,161,-293
2,5535260,-3471,-1692,-553,-162,-240,-88,263,161,-293
2,5535271,-3471,-1692,-553,-162,-240,-88,263,161,-293
2,5535286,-3473,-1694,-556,-168,-244,-92,263,161,-293
2,5535298,-3472,-1693,-557,-166,-241,-89,263,161,-293
2,5535310,-3472,-1693,-557,-166,-241,-89,263,161,-293
2,5535323,-3473,-1692,-558,-155,-238,-81,263,161,-293
2,5535337,-3469,-1691,-558,-161,-236,-86,263,161,-293
2,5535348,-3469,-1691,-558,-161,-236,-86,263,161,-293
2,5535361,-3470,-1695,-551,-165,-234,-86,260,156,-286
2,5535373,-3470,-1695,-551,-165,-234,-86,260,156,-286
2,5535387,-3469,-1692,-552,-166,-236,-81,260,156,-286
2,5535399,-3466,-1692,-555,-160,-243,-83,260,156,-286
2,5535410,-3466,-1692,-555,-160,-243,-83,260,156,-286
2,5535420,-3474,-1694,-558,-154,-235,-88,260,156,-286
2,5535434,-3474,-1694,-558,-154,-235,-88,260,156,-286
2,5535447,-3469,-1692,-559,-161,-226,-88,260,156,-286
2,5535457,-3468,-1693,-556,-171,-235,-82,260,156,-286
2,5535470,-3468,-1693,-556,-171,-235,-82,260,156,-286
2,5535480,-3471,-1693,-554,-162,-237,-84,260,154,-288
2,5535494,-3471,-1693,-554,-162,-237,-84,260,154,-288
2,5535506,-3471,-1691,-560,-163,-237,-92,260,154,-288
2,5535516,-3471,-1691,-560,-163,-237,-92,260,154,-288
2,5535524,-3472,-1697,-559,-161,-237,-88,260,154,-288
2,5535533,-3472,-1697,-559,-161,-237,-88,260,154,-288
2,5535541,-3470,-1695,-560,-159,-239,-87,260,154,-288
2,5535554,-3470,-1695,-560,-159,-239,-87,260,154,-288
2,5535566,-3470,-1693,-560,-165,-252,-85,260,154,-288
2,5535579,-3471,-1693,-549,-164,-237,-85,260,154,-288
2,5535591,-3471,-1693,-549,-164,-237,-85,260,154,-288
2,5535605,-3472,-1692,-554,-165,-232,-81,260,170,-290
2,5535618,-3477,-1694,-560,-165,-240,-78,260,170,-290
2,5535630,-3477,-1694,-560,-165,-240,-78,260,170,-290
2,5535641,-3471,-1696,-552,-167,-244,-83,260,170,-290
2,5535654,-3471,-1696,-552,-167,-244,-83,260,170,-290
2,5535666,-3472,-1693,-565,-167,-243,-87,260,170,-290
2,5535675,-3472,-1693,-565,-167,-243,-87,260,170,-290
2,5535688,-3468,-1693,-556,-160,-233,-81,260,170,-290
2,5535704,-3471,-1693,-555,-158,-241,-86,260,170,-290
2,5535715,-3471,-1693,-555,-158,-241,-86,260,170,-290
2,5535726,-3468,-1693,-553,-154,-236,-86,258,164,-292
2,5535735,-3468,-1693,-553,-154,-236,-86,258,164,-292
2,5535744,-3469,-1693,-557,-159,-239,-90,258,164,-292
2,5535753,-3469,-1693,-557,-159,-239,-90,258,164,-292
2,5535761,-3465,-1694,-552,-161,-233,-86,258,164,-292
2,5535769,-3465,-1694,-552,-161,-233,-86,258,164,-292
2,5535778,-3468,-1694,-553,-162,-241,-86,258,164,-292
2,5535787,-3468,-1694,-553,-162,-241,-86,258,164,-292
2,5535795,-3468,-1694,-553,-162,-241,-86,258,164,-292
2,5535803,-3471,-1694,-558,-167,-237,-78,258,164,-292
2,5535811,-3471,-1694,-558,-167,-237,-78,258,164,-292
2,5535819,-3471,-1693,-556,-165,-235,-86,258,164,-292
2,5535827,-3471,-1693,-556,-165,-235,-86,258,164,-292
2,5535836,-3471,-1693,-556,-165,-235,-86,258,164,-292
2,5535844,-3471,-1690,-557,-166,-237,-81,265,165,-275
2,5535852,-3471,-1690,-557,-166,-237,-81,265,165,-275
2,5535860,-3468,-1692,-550,-160,-237,-89,265,165,-275
2,5535868,-3468,-1692,-550,-160,-237,-89,265,165,-275
2,5535877,-3471,-1692,-552,-167,-237,-86,265,165,-275
2,5535885,-3471,-1692,-552,-167,-237,-86,265,165,-275
2,5535894,-3471,-1692,-552,-167,-237,-86,265,165,-275
2,5535902,-3470,-1691,-556,-160,-246,-89,265,165,-275
2,5535910,-3470,-1691,-556,-160,-246,-89,265,165,-275
2,5535920,-3469,-1693,-553,-158,-241,-79,265,165,-275
2,5535928,-3469,-1693,-553,-158,-241,-79,265,165,-275
2,5535935,-3469,-1693,-553,-158,-241,-79,265,165,-275
2,5535940,-3473,-1691,-553,-160,-238,-78,265,165,-275
2,5535945,-3473,-1691,-553,-160,-238,-78,265,165,-275
2,5535950,-3473,-1691,-553,-160,-238,-78,265,165,-275
2,5535955,-3473,-1691,-553,-160,-238,-78,265,165,-275
2,5535961,-3468,-1694,-563,-162,-238,-79,265,165,-275
2,5535966,-3468,-1694,-563,-162,-238,-79,265,165,-275
2,5535971,-3468,-1694,-563,-162,-238,-79,265,165,-275
2,5535976,-3468,-1694,-563,-162,-238,-79,265,165,-275
2,5535983,-3473,-1692,-552,-162,-249,-81,264,158,-284
2,5535989,-3473,-1692,-552,-162,-249,-81,264,158,-284
2,5535995,-3473,-1692,-552,-162,-249,-81,264,158,-284
2,5536001,-3472,-1695,-556,-159,-245,-85,264,158,-284
2,5536006,-3472,-1695,-556,-159,-245,-85,264,158,-284
2,5536011,-3472,-1695,-556,-159,-245,-85,264,158,-284
2,5536017,-3472,-1695,-556,-159,-245,-85,264,158,-284
2,5536023,-3472,-1693,-559,-149,-245,-85,264,158,-284
2,5536029,-3472,-1693,-559,-149,-245,-85,264,158,-284
2,5536036,-3472,-1693,-559,-149,-245,-85,264,158,-284
2,5536045,-3471,-1692,-556,-152,-246,-85,264,158,-284
2,5536052,-3471,-1692,-556,-152,-246,-85,264,158,-284
2,5536059,-3471,-1690,-556,-157,-233,-83,264,158,-284
2,5536066,-3471,-1690,-556,-157,-233,-83,264,158,-284
2,5536073,-3471,-1690,-556,-157,-233,-83,264,158,-284
2,5536081,-3472,-1693,-559,-166,-239,-81,264,158,-284
2,5536089,-3472,-1693,-559,-166,-239,-81,264,158,-284
2,5536094,-3472,-1693,-559,-166,-239,-81,264,158,-284
2,5536100,-3468,-1691,-553,-157,-244,-90,257,153,-283
2,5536106,-3468,-1691,-553,-157,-244,-90,257,153,-283
2,5536113,-3468,-1691,-553,-157,-244,-90,257,153,-283
2,5536122,-3471,-1693,-552,-157,-251,-95,257,153,-283
2,5536130,-3471,-1693,-552,-157,-251,-95,257,153,-283
2,5536136,-3471,-1693,-552,-157,-251,-95,257,153,-283
2,5536143,-3474,-1693,-561,-162,-255,-89,257,153,-283
2,5536150,-3474,-1693,-561,-162,-255,-89,257,153,-283
2,5536156,-3474,-1693,-561,-162,-255,-89,257,153,-283
2,5536165,-3470,-1691,-553,-162,-239,-91,257,153,-283
2,5536172,-3470,-1691,-553,-162,-239,-91,257,153,-283
2,5536179,-3468,-1691,-551,-162,-243,-91,257,153,-283
2,5536186,-3468,-1691,-551,-162,-243,-91,257,153,-283
2,5536194,-3468,-1691,-551,-162,-243,-91,257,153,-283
2,5536201,-3470,-1689,-550,-164,-256,-87,257,153,-283
2,5536209,-3470,-1689,-550,-164,-256,-87,257,153,-283
2,5536218,-3465,-1689,-451,-160,-230,-87,255,157,-287
2,5536225,-3465,-1689,-451,-160,-230,-87,255,157,-287
2,5536233,-3465,-1689,-451,-160,-230,-87,255,157,-287
2,5536240,-3469,-1695,-609,-160,-240,-85,255,157,-287
2,5536246,-3469,-1695,-609,-160,-240,-85,255,157,-287
2,5536253,-3469,-1695,-609,-160,-240,-85,255,157,-287
2,5536262,-3469,-1692,-558,-158,-240,-91,255,157,-287
2,5536269,-3469,-1692,-558,-158,-240,-91,255,157,-287
2,5536274,-3469,-1692,-558,-158,-240,-91,255,157,-287
2,5536281,-3469,-1690,-507,-164,-238,-88,255,157,-287
2,5536287,-3469,-1690,-507,-164,-238,-88,255,157,-287
2,5536292,-3469,-1690,-507,-164,-238,-88,255,157,-287
2,5536302,-3471,-1695,-611,-169,-238,-86,255,157,-287
2,5536312,-3471,-1695,-611,-169,-238,-86,255,157,-287
2,5536319,-3472,-1692,-536,-160,-244,-85,255,157,-287
2,5536325,-3472,-1692,-536,-160,-244,-85,255,157,-287
2,5536333,-3472,-1692,-536,-160,-244,-85,255,157,-287
2,5536339,-3472,-1688,-539,-163,-222,-84,262,158,-284
2,5536347,-3472,-1688,-539,-163,-222,-84,262,158,-284
2,5536354,-3472,-1688,-539,-163,-222,-84,262,158,-284
2,5536361,-3470,-1696,-587,-156,-225,-86,262,158,-284
2,5536367,-3470,-1696,-587,-156,-225,-86,262,158,-284
2,5536374,-3470,-1696,-587,-156,-225,-86,262,158,-284
2,5536382,-3469,-1688,-527,-155,-240,-86,262,158,-284
2,5536391,-3469,-1688,-527,-155,-240,-86,262,158,-284
2,5536399,-3470,-1694,-560,-159,-239,-89,262,158,-284
2,5536407,-3470,-1694,-560,-159,-239,-89,262,158,-284
2,5536411,-3470,-1694,-560,-159,-239,-89,262,158,-284
2,5536419,-3470,-1695,-577,-166,-239,-85,262,158,-284
2,5536427,-3470,-1695,-577,-166,-239,-85,262,158,-284
2,5536433,-3470,-1695,-577,-166,-239,-85,262,158,-284
2,5536439,-3470,-1692,-534,-163,-240,-92,262,158,-284
2,5536446,-3470,-1692,-534,-163,-240,-92,262,158,-284
2,5536453,-3470,-1692,-534,-163,-240,-92,262,158,-284
2,5536459,-3471,-1693,-567,-166,-241,-94,250,166,-288
2,5536467,-3471,-1693,-567,-166,-241,-94,250,166,-288
2,5536475,-3471,-1693,-567,-166,-241,-94,250,166,-288
2,5536481,-3472,-1693,-554,-165,-240,-83,250,166,-288
2,5536487,-3472,-1693,-554,-165,-240,-83,250,166,-288
2,5536495,-3472,-1693,-554,-165,-240,-83,250,166,-288
2,5536502,-3467,-1694,-541,-163,-231,-88,250,166,-288
2,5536509,-3467,-1694,-541,-163,-231,-88,250,166,-288
2,5536515,-3467,-1694,-541,-163,-231,-88,250,166,-288
2,5536520,-3468,-1690,-566,-160,-231,-89,250,166,-288
2,5536525,-3468,-1690,-566,-160,-231,-89,250,166,-288
2,5536530,-3468,-1690,-566,-160,-231,-89,250,166,-288
2,5536534,-3468,-1690,-566,-160,-231,-89,250,166,-288
2,5536540,-3472,-1695,-549,-164,-230,-82,250,166,-288
2,5536545,-3472,-1695,-549,-164,-230,-82,250,166,-288
2,5536552,-3472,-1695,-549,-164,-230,-82,250,166,-288
2,5536560,-3470,-1693,-554,-162,-227,-81,250,166,-288
2,5536565,-3470,-1693,-554,-162,-227,-81,250,166,-288
2,5536570,-3470,-1693,-554,-162,-227,-81,250,166,-288
2,5536575,-3470,-1693,-554,-162,-227,-81,250,166,-288
2,5536583,-3469,-1694,-563,-166,-239,-86,250,166,-288
2,5536589,-3469,-1694,-563,-166,-239,-86,250,166,-288
2,5536596,-3469,-1694,-563,-166,-239,-86,250,166,-288
2,5536604,-3470,-1692,-545,-161,-243,-96,266,160,-282
2,5536611,-3470,-1692,-545,-161,-243,-96,266,160,-282
2,5536618,-3470,-1692,-550,-157,-228,-88,266,160,-282
2,5536625,-3470,-1692,-550,-157,-228,-88,266,160,-282
2,5536630,-3470,-1692,-550,-157,-228,-88,266,160,-282
2,5536638,-3469,-1694,-559,-168,-227,-84,266,160,-282
2,5536645,-3469,-1694,-559,-168,-227,-84,266,160,-282
2,5536653,-3469,-1694,-559,-168,-227,-84,266,160,-282
2,5536659,-3468,-1695,-553,-154,-230,-84,266,160,-282
2,5536667,-3468,-1695,-553,-154,-230,-84,266,160,-282
2,5536676,-3468,-1695,-553,-154,-230,-84,266,160,-282
2,5536684,-3474,-1692,-554,-152,-230,-82,266,160,-282
2,5536691,-3474,-1692,-554,-152,-230,-82,266,160,-282
2,5536697,-3474,-1692,-554,-152,-230,-82,266,160,-282
2,5536704,-3469,-1693,-554,-154,-238,-89,266,160,-282
2,5536712,-3469,-1693,-554,-154,-238,-89,266,160,-282
2,5536719,-3471,-1693,-549,-164,-241,-86,260,166,-288
2,5536726,-3471,-1693,-549,-164,-241,-86,260,166,-288
2,5536732,-3471,-1693,-549,-164,-241,-86,260,166,-288
2,5536740,-3469,-1692,-558,-162,-246,-84,260,166,-288
2,5536746,-3469,-1692,-558,-162,-246,-84,260,166,-288
2,5536753,-3469,-1692,-558,-162,-246,-84,260,166,-288
2,5536761,-3470,-1692,-558,-164,-239,-79,260,166,-288
2,5536769,-3470,-1692,-558,-164,-239,-79,260,166,-288
2,5536777,-3470,-1692,-558,-164,-239,-79,260,166,-288
2,5536783,-3471,-1692,-553,-162,-250,-84,260,166,-288
2,5536790,-3471,-1692,-553,-162,-250,-84,260,166,-288
2,5536798,-3470,-1693,-548,-166,-245,-85,260,166,-288
2,5536805,-3470,-1693,-548,-166,-245,-85,260,166,-288
2,5536811,-3470,-1693,-548,-166,-245,-85,260,166,-288
2,5536816,-3470,-1693,-548,-166,-245,-85,260,166,-288
2,5536821,-3469,-1691,-559,-168,-252,-85,260,166,-288
2,5536826,-3469,-1691,-559,-168,-252,-85,260,166,-288
2,5536832,-3469,-1691,-559,-168,-252,-85,260,166,-288
2,5536837,-3469,-1691,-559,-168,-252,-85,260,166,-288
2,5536842,-3472,-1692,-554,-158,-245,-86,259,165,-273
2,5536847,-3472,-1692,-554,-158,-245,-86,259,165,-273
2,5536852,-3472,-1692,-554,-158,-245,-86,259,165,-273
2,5536860,-3471,-1694,-550,-160,-252,-84,259,165,-273
2,5536868,-3471,-1694,-550,-160,-252,-84,259,165,-273
2,5536874,-3471,-1694,-550,-160,-252,-84,259,165,-273
2,5536881,-3472,-1691,-556,-162,-251,-85,259,165,-273
2,5536888,-3472,-1691,-556,-162,-251,-85,259,165,-273
2,5536896,-3472,-1691,-556,-162,-251,-85,259,165,-273
2,5536903,-3466,-1695,-527,-156,-224,-84,259,165,-273
2,5536910,-3466,-1695,-527,-156,-224,-84,259,165,-273
2,5536917,-3466,-1695,-527,-156,-224,-84,259,165,-273
2,5536924,-3467,-1690,-550,-159,-240,-90,259,165,-273
2,5536931,-3467,-1690,-550,-159,-240,-90,259,165,-273
2,5536937,-3471,-1696,-570,-162,-240,-89,259,165,-273
2,5536948,-3471,-1696,-570,-162,-240,-89,259,165,-273
2,5536961,-3471,-1694,-531,-163,-237,-90,256,158,-282
2,5536973,-3471,-1694,-531,-163,-237,-90,256,158,-282
2,5536982,-3472,-1694,-565,-163,-237,-86,256,158,-282
2,5536995,-3472,-1694,-565,-163,-237,-86,256,158,-282
2,5537008,-3469,-1692,-560,-158,-240,-83,256,158,-282
2,5537019,-3471,-1691,-544,-162,-253,-84,256,158,-282
2,5537030,-3471,-1691,-544,-162,-253,-84,256,158,-282
2,5537039,-3472,-1693,-564,-158,-231,-85,256,158,-282
2,5537048,-3472,-1693,-564,-158,-231,-85,256,158,-282
2,5537059,-3471,-1693,-552,-159,-221,-87,256,158,-282
2,5537070,-3471,-1693,-552,-159,-221,-87,256,158,-282
2,5537080,-3471,-1692,-554,-158,-215,-88,258,170,-290
2,5537094,-3471,-1692,-554,-158,-215,-88,258,170,-290
2,5537108,-3469,-1692,-557,-158,-227,-87,258,170,-290
2,5537118,-3469,-1692,-557,-158,-227,-87,258,170,-290
