imu,time,ax,ay,az,gx,gy,gz,mx,my,mz
2,8545166,-3469,-1692,-556,-167,-250,-81,315,167,-251
2,8545173,-3469,-1692,-556,-167,-250,-81,315,167,-251
2,8545185,-3473,-1693,-562,-160,-243,-88,315,167,-251
2,8545193,-3473,-1693,-562,-160,-243,-88,315,167,-251
2,8545206,-3470,-1691,-557,-158,-241,-87,315,167,-251
2,8545215,-3470,-1691,-557,-158,-241,-87,315,167,-251
2,8545223,-3470,-1691,-557,-158,-241,-87,315,167,-251
2,8545231,-3472,-1692,-560,-161,-239,-85,316,166,-240
2,8545239,-3472,-1692,-560,-161,-239,-85,316,166,-240
2,8545247,-3473,-1692,-556,-162,-244,-90,316,166,-240
2,8545255,-3473,-1692,-556,-162,-244,-90,316,166,-240
2,8545262,-3473,-1692,-556,-162,-244,-90,316,166,-240
2,8545270,-3469,-1692,-564,-161,-250,-86,316,166,-240
2,8545277,-3469,-1692,-564,-161,-250,-86,316,166,-240
2,8545285,-3474,-1694,-559,-163,-249,-80,316,166,-240
2,8545292,-3474,-1694,-559,-163,-249,-80,316,166,-240
2,8545300,-3474,-1694,-559,-163,-249,-80,316,166,-240
2,8545308,-3472,-1691,-560,-165,-246,-93,316,166,-240
2,8545316,-3472,-1691,-560,-165,-246,-93,316,166,-240
2,8545325,-3472,-1691,-560,-165,-246,-93,316,166,-240
2,8545333,-3473,-1691,-564,-172,-244,-82,316,166,-240
2,8545340,-3473,-1691,-564,-172,-244,-82,316,166,-240
2,8545348,-3467,-1693,-560,-168,-246,-83,316,166,-240
2,8545356,-3467,-1693,-560,-168,-246,-83,316,166,-240
2,8545362,-3467,-1693,-560,-168,-246,-83,316,166,-240
2,8545368,-3472,-1692,-562,-158,-244,-80,312,172,-252
2,8545372,-3472,-1692,-562,-158,-244,-80,312,172,-252
2,8545379,-3472,-1692,-562,-158,-244,-80,312,172,-252
2,8545383,-3472,-1692,-562,-158,-244,-80,312,172,-252
2,8545387,-3473,-1691,-564,-167,-245,-79,312,172,-252
2,8545392,-3473,-1691,-564,-167,-245,-79,312,172,-252
2,8545397,-3473,-1691,-564,-167,-245,-79,312,172,-252
2,8545402,-3473,-1691,-564,-167,-245,-79,312,172,-252
2,8545408,-3474,-1691,-562,-164,-248,-80,312,172,-252
2,8545413,-3474,-1691,-562,-164,-248,-80,312,172,-252
2,8545418,-3474,-1691,-562,-164,-248,-80,312,172,-252
2,8545423,-3474,-1691,-562,-164,-248,-80,312,172,-252
2,8545428,-3472,-1692,-561,-164,-240,-94,312,172,-252
2,8545433,-3472,-1692,-561,-164,-240,-94,312,172,-252
2,8545438,-3472,-1692,-561,-164,-240,-94,312,172,-252
2,8545442,-3472,-1692,-561,-164,-240,-94,312,172,-252
2,8545447,-3468,-1695,-561,-170,-244,-83,312,172,-252
2,8545453,-3468,-1695,-561,-170,-244,-83,312,172,-252
2,8545458,-3468,-1695,-561,-170,-244,-83,312,172,-252
2,8545463,-3468,-1695,-561,-170,-244,-83,312,172,-252
2,8545468,-3472,-1690,-555,-161,-235,-85,312,172,-252
2,8545473,-3472,-1690,-555,-161,-235,-85,312,172,-252
2,8545479,-3472,-1690,-555,-161,-235,-85,312,172,-252
2,8545484,-3472,-1690,-555,-161,-235,-85,312,172,-252
2,8545489,-3469,-1690,-563,-165,-238,-81,309,169,-241
2,8545495,-3469,-1690,-563,-165,-238,-81,309,169,-241
2,8545500,-3469,-1690,-563,-165,-238,-81,309,169,-241
2,8545504,-3469,-1690,-563,-165,-238,-81,309,169,-241
2,8545510,-3470,-1694,-564,-164,-241,-79,309,169,-241
2,8545515,-3470,-1694,-564,-164,-241,-79,309,169,-241
2,8545520,-3470,-1694,-564,-164,-241,-79,309,169,-241
2,8545525,-3471,-1693,-560,-158,-246,-82,309,169,-241
2,8545530,-3471,-1693,-560,-158,-246,-82,309,169,-241
2,8545537,-3471,-1693,-560,-158,-246,-82,309,169,-241
2,8545542,-3471,-1693,-560,-158,-246,-82,309,169,-241
2,8545546,-3469,-1692,-559,-156,-241,-84,309,169,-241
2,8545552,-3469,-1692,-559,-156,-241,-84,309,169,-241
2,8545557,-3469,-1692,-559,-156,-241,-84,309,169,-241
2,8545561,-3469,-1692,-559,-156,-241,-84,309,169,-241
2,8545566,-3471,-1692,-560,-164,-239,-87,309,169,-241
2,8545572,-3471,-1692,-560,-164,-239,-87,309,169,-241
2,8545576,-3471,-1692,-560,-164,-239,-87,309,169,-241
2,8545582,-3471,-1692,-560,-164,-239,-87,309,169,-241
2,8545588,-3472,-1692,-562,-164,-236,-85,309,169,-241
2,8545592,-3472,-1692,-562,-164,-236,-85,309,169,-241
2,8545597,-3472,-1692,-562,-164,-236,-85,309,169,-241
2,8545602,-3472,-1692,-562,-164,-236,-85,309,169,-241
2,8545607,-3471,-1693,-557,-163,-240,-80,313,163,-249
2,8545612,-3471,-1693,-557,-163,-240,-80,313,163,-249
2,8545617,-3471,-1693,-557,-163,-240,-80,313,163,-249
2,8545623,-3471,-1693,-557,-163,-240,-80,313,163,-249
2,8545628,-3471,-1691,-559,-167,-245,-84,313,163,-249
2,8545634,-3471,-1691,-559,-167,-245,-84,313,163,-249
2,8545638,-3471,-1691,-559,-167,-245,-84,313,163,-249
2,8545643,-3471,-1691,-559,-167,-245,-84,313,163,-249
2,8545648,-3470,-1694,-563,-166,-239,-83,313,163,-249
2,8545653,-3470,-1694,-563,-166,-239,-83,313,163,-249
2,8545659,-3470,-1694,-563,-166,-239,-83,313,163,-249
2,8545664,-3470,-1694,-563,-166,-239,-83,313,163,-249
2,8545669,-3471,-1691,-558,-160,-240,-81,313,163,-249
2,8545674,-3471,-1691,-558,-160,-240,-81,313,163,-249
2,8545679,-3471,-1691,-558,-160,-240,-81,313,163,-249
2,8545684,-3471,-1691,-558,-160,-240,-81,313,163,-249
2,8545689,-3468,-1693,-559,-161,-242,-89,313,163,-249
2,8545695,-3468,-1693,-559,-161,-242,-89,313,163,-249
2,8545699,-3468,-1693,-559,-161,-242,-89,313,163,-249
2,8545704,-3468,-1693,-559,-161,-242,-89,313,163,-249
2,8545710,-3469,-1694,-560,-156,-237,-78,313,163,-249
2,8545715,-3469,-1694,-560,-156,-237,-78,313,163,-249
2,8545720,-3469,-1694,-560,-156,-237,-78,313,163,-249
2,8545725,-3469,-1694,-560,-156,-237,-78,313,163,-249
2,8545729,-3470,-1695,-556,-159,-240,-84,315,165,-245
2,8545734,-3470,-1695,-556,-159,-240,-84,315,165,-245
2,8545739,-3470,-1695,-556,-159,-240,-84,315,165,-245
2,8545744,-3470,-1695,-556,-159,-240,-84,315,165,-245
2,8545750,-3471,-1691,-560,-164,-252,-95,315,165,-245
2,8545755,-3471,-1691,-560,-164,-252,-95,315,165,-245
2,8545760,-3471,-1691,-560,-164,-252,-95,315,165,-245
2,8545765,-3471,-1692,-560,-160,-250,-84,315,165,-245
2,8545771,-3471,-1692,-560,-160,-250,-84,315,165,-245
2,8545776,-3471,-1692,-560,-160,-250,-84,315,165,-245
2,8545781,-3471,-1692,-560,-160,-250,-84,315,165,-245
2,8545786,-3472,-1691,-558,-162,-241,-83,315,165,-245
2,8545792,-3472,-1691,-558,-162,-241,-83,315,165,-245
2,8545797,-3472,-1691,-558,-162,-241,-83,315,165,-245
2,8545802,-3472,-1691,-558,-162,-241,-83,315,165,-245
2,8545807,-3468,-1692,-563,-167,-245,-87,315,165,-245
2,8545812,-3468,-1692,-563,-167,-245,-87,315,165,-245
2,8545817,-3468,-1692,-563,-167,-245,-87,315,165,-245
2,8545822,-3468,-1692,-563,-167,-245,-87,315,165,-245
2,8545827,-3472,-1692,-563,-159,-248,-93,315,165,-245
2,8545832,-3472,-1692,-563,-159,-248,-93,315,165,-245
2,8545838,-3472,-1692,-563,-159,-248,-93,315,165,-245
2,8545844,-3472,-1692,-563,-159,-248,-93,315,165,-245
2,8545849,-3472,-1694,-560,-157,-240,-85,319,165,-255
2,8545854,-3472,-1694,-560,-157,-240,-85,319,165,-255
2,8545859,-3472,-1694,-560,-157,-240,-85,319,165,-255
2,8545865,-3470,-1693,-557,-161,-244,-76,319,165,-255
2,8545870,-3470,-1693,-557,-161,-244,-76,319,165,-255
2,8545875,-3470,-1693,-557,-161,-244,-76,319,165,-255
2,8545881,-3470,-1693,-557,-161,-244,-76,319,165,-255
2,8545886,-3474,-1690,-559,-168,-245,-82,319,165,-255
2,8545891,-3474,-1690,-559,-168,-245,-82,319,165,-255
2,8545896,-3474,-1690,-559,-168,-245,-82,319,165,-255
2,8545901,-3474,-1690,-559,-168,-245,-82,319,165,-255
2,8545907,-3469,-1691,-565,-170,-249,-89,319,165,-255
2,8545913,-3469,-1691,-565,-170,-249,-89,319,165,-255
2,8545918,-3469,-1691,-565,-170,-249,-89,319,165,-255
2,8545925,-3469,-1691,-565,-170,-249,-89,319,165,-255
2,8545931,-3472,-1693,-565,-165,-256,-86,319,165,-255
2,8545936,-3472,-1693,-565,-165,-256,-86,319,165,-255
2,8545941,-3472,-1693,-565,-165,-256,-86,319,165,-255
2,8545947,-3474,-1692,-563,-160,-252,-76,319,165,-255
2,8545952,-3474,-1692,-563,-160,-252,-76,319,165,-255
2,8545957,-3474,-1692,-563,-160,-252,-76,319,165,-255
2,8545963,-3474,-1692,-563,-160,-252,-76,319,165,-255
2,8545968,-3471,-1696,-561,-163,-247,-77,319,165,-255
2,8545973,-3471,-1696,-561,-163,-247,-77,319,165,-255
2,8545978,-3471,-1696,-561,-163,-247,-77,319,165,-255
2,8545983,-3471,-1696,-561,-163,-247,-77,319,165,-255
2,8545989,-3471,-1693,-563,-159,-247,-78,315,175,-239
2,8545994,-3471,-1693,-563,-159,-247,-78,315,175,-239
2,8545999,-3471,-1693,-563,-159,-247,-78,315,175,-239
2,8546006,-3472,-1693,-564,-161,-245,-87,315,175,-239
2,8546012,-3472,-1693,-564,-161,-245,-87,315,175,-239
2,8546018,-3472,-1693,-564,-161,-245,-87,315,175,-239
2,8546023,-3472,-1693,-564,-161,-245,-87,315,175,-239
2,8546029,-3471,-1692,-562,-167,-247,-85,315,175,-239
2,8546034,-3471,-1692,-562,-167,-247,-85,315,175,-239
2,8546039,-3471,-1692,-562,-167,-247,-85,315,175,-239
2,8546045,-3470,-1692,-563,-166,-246,-84,315,175,-239
2,8546052,-3470,-1692,-563,-166,-246,-84,315,175,-239
2,8546057,-3470,-1692,-563,-166,-246,-84,315,175,-239
2,8546063,-3470,-1692,-563,-166,-246,-84,315,175,-239
2,8546068,-3472,-1693,-562,-171,-239,-86,315,175,-239
2,8546074,-3472,-1693,-562,-171,-239,-86,315,175,-239
2,8546080,-3472,-1693,-562,-171,-239,-86,315,175,-239
2,8546085,-3472,-1693,-558,-164,-244,-87,315,175,-239
2,8546092,-3472,-1693,-558,-164,-244,-87,315,175,-239
2,8546097,-3472,-1693,-558,-164,-244,-87,315,175,-239
2,8546103,-3472,-1693,-558,-164,-244,-87,315,175,-239
2,8546108,-3470,-1693,-553,-161,-243,-84,304,172,-242
2,8546114,-3470,-1693,-553,-161,-243,-84,304,172,-242
2,8546120,-3470,-1693,-553,-161,-243,-84,304,172,-242
2,8546125,-3471,-1690,-557,-161,-245,-80,304,172,-242
2,8546130,-3471,-1690,-557,-161,-245,-80,304,172,-242
2,8546137,-3471,-1690,-557,-161,-245,-80,304,172,-242
2,8546142,-3471,-1690,-557,-161,-245,-80,304,172,-242
2,8546147,-3469,-1693,-560,-162,-248,-84,304,172,-242
2,8546153,-3469,-1693,-560,-162,-248,-84,304,172,-242
2,8546160,-3469,-1693,-560,-162,-248,-84,304,172,-242
2,8546165,-3471,-1692,-561,-163,-242,-83,304,172,-242
2,8546170,-3471,-1692,-561,-163,-242,-83,304,172,-242
2,8546177,-3471,-1692,-561,-163,-242,-83,304,172,-242
2,8546182,-3471,-1692,-561,-163,-242,-83,304,172,-242
2,8546187,-3470,-1691,-566,-160,-244,-80,304,172,-242
2,8546193,-3470,-1691,-566,-160,-244,-80,304,172,-242
2,8546199,-3470,-1691,-566,-160,-244,-80,304,172,-242
2,8546204,-3470,-1691,-566,-160,-244,-80,304,172,-242
2,8546210,-3470,-1694,-560,-165,-242,-81,304,172,-242
2,8546216,-3470,-1694,-560,-165,-242,-81,304,172,-242
2,8546222,-3470,-1694,-560,-165,-242,-81,304,172,-242
2,8546227,-3470,-1692,-555,-168,-244,-80,315,163,-247
2,8546233,-3470,-1692,-555,-168,-244,-80,315,163,-247
2,8546238,-3470,-1692,-555,-168,-244,-80,315,163,-247
2,8546244,-3470,-1692,-555,-168,-244,-80,315,163,-247
2,8546250,-3475,-1694,-561,-165,-242,-84,315,163,-247
2,8546255,-3475,-1694,-561,-165,-242,-84,315,163,-247
2,8546262,-3475,-1694,-561,-165,-242,-84,315,163,-247
2,8546267,-3471,-1695,-559,-164,-245,-86,315,163,-247
2,8546273,-3471,-1695,-559,-164,-245,-86,315,163,-247
2,8546279,-3471,-1695,-559,-164,-245,-86,315,163,-247
2,8546285,-3471,-1692,-560,-164,-245,-85,315,163,-247
2,8546291,-3471,-1692,-560,-164,-245,-85,315,163,-247
2,8546297,-3471,-1692,-560,-164,-245,-85,315,163,-247
2,8546302,-3471,-1692,-560,-164,-245,-85,315,163,-247
2,8546308,-3473,-1691,-561,-160,-250,-86,315,163,-247
2,8546314,-3473,-1691,-561,-160,-250,-86,315,163,-247
2,8546319,-3473,-1691,-561,-160,-250,-86,315,163,-247
2,8546327,-3469,-1694,-561,-163,-241,-78,315,163,-247
2,8546334,-3469,-1694,-561,-163,-241,-78,315,163,-247
2,8546341,-3469,-1694,-561,-163,-241,-78,315,163,-247
2,8546349,-3469,-1692,-557,-161,-244,-82,314,164,-240
2,8546355,-3469,-1692,-557,-161,-244,-82,314,164,-240
2,8546362,-3469,-1692,-557,-161,-244,-82,314,164,-240
2,8546369,-3470,-1690,-559,-167,-246,-79,314,164,-240
2,8546382,-3470,-1690,-559,-167,-246,-79,314,164,-240
2,8546396,-3470,-1693,-567,-164,-239,-83,314,164,-240
2,8546405,-3470,-1693,-567,-164,-239,-83,314,164,-240
2,8546418,-3471,-1695,-564,-157,-247,-80,314,164,-240
2,8546430,-3474,-1692,-562,-163,-242,-74,314,164,-240
2,8546443,-3474,-1692,-562,-163,-242,-74,314,164,-240
2,8546454,-3472,-1691,-564,-163,-236,-79,314,164,-240
2,8546468,-3474,-1693,-555,-166,-246,-84,317,169,-247
2,8546481,-3474,-1693,-555,-166,-246,-84,317,169,-247
2,8546489,-3471,-1691,-556,-163,-249,-78,317,169,-247
2,8546501,-3471,-1691,-556,-163,-249,-78,317,169,-247
2,8546516,-3469,-1689,-556,-158,-239,-82,317,169,-247
2,8546529,-3468,-1691,-562,-161,-243,-83,317,169,-247
2,8546542,-3468,-1691,-562,-161,-243,-83,317,169,-247
2,8546555,-3472,-1694,-558,-159,-240,-85,317,169,-247
2,8546568,-3470,-1689,-559,-161,-239,-86,317,169,-247
2,8546580,-3470,-1689,-559,-161,-239,-86,317,169,-247
2,8546592,-3472,-1695,-562,-164,-238,-80,317,169,-247
2,8546606,-3471,-1695,-554,-163,-242,-80,312,166,-238
2,8546619,-3471,-1695,-554,-163,-242,-80,312,166,-238
2,8546631,-3469,-1693,-558,-164,-241,-84,312,166,-238
2,8546643,-3469,-1693,-558,-164,-241,-84,312,166,-238
2,8546656,-3472,-1691,-557,-162,-245,-80,312,166,-238
2,8546669,-3470,-1690,-561,-163,-246,-75,312,166,-238
2,8546681,-3470,-1690,-561,-163,-246,-75,312,166,-238
2,8546690,-3469,-1696,-564,-165,-245,-77,312,166,-238
2,8546702,-3469,-1696,-564,-165,-245,-77,312,166,-238
2,8546715,-3471,-1697,-556,-161,-241,-86,312,166,-238
2,8546723,-3471,-1697,-556,-161,-241,-86,312,166,-238
2,8546731,-3473,-1691,-557,-160,-237,-84,312,170,-246
2,8546740,-3473,-1691,-557,-160,-237,-84,312,170,-246
2,8546748,-3468,-1693,-562,-159,-239,-84,312,170,-246
2,8546761,-3468,-1693,-562,-159,-239,-84,312,170,-246
2,8546775,-3470,-1692,-561,-163,-242,-84,312,170,-246
2,8546787,-3471,-1696,-559,-166,-238,-81,312,170,-246
2,8546799,-3471,-1696,-559,-166,-238,-81,312,170,-246
2,8546808,-3473,-1694,-564,-159,-236,-83,312,170,-246
2,8546817,-3473,-1694,-564,-159,-236,-83,312,170,-246
2,8546825,-3473,-1694,-564,-159,-236,-83,312,170,-246
2,8546833,-3473,-1695,-566,-159,-239,-82,312,170,-246
2,8546841,-3473,-1695,-566,-159,-239,-82,312,170,-246
2,8546853,-3472,-1694,-565,-162,-245,-86,314,178,-246
2,8546867,-3471,-1696,-561,-167,-246,-80,314,178,-246
2,8546881,-3471,-1696,-561,-167,-246,-80,314,178,-246
2,8546891,-3471,-1695,-558,-163,-248,-85,314,178,-246
2,8546903,-3471,-1695,-558,-163,-248,-85,314,178,-246
2,8546915,-3472,-1696,-561,-159,-245,-88,314,178,-246
2,8546928,-3474,-1695,-563,-157,-245,-77,314,178,-246
2,8546939,-3474,-1695,-563,-157,-245,-77,314,178,-246
2,8546952,-3469,-1695,-563,-154,-235,-81,314,178,-246
2,8546960,-3469,-1695,-563,-154,-235,-81,314,178,-246
2,8546968,-3468,-1691,-558,-163,-246,-89,314,162,-244
2,8546976,-3468,-1691,-558,-163,-246,-89,314,162,-244
2,8546984,-3468,-1691,-558,-163,-246,-89,314,162,-244
2,8546993,-3473,-1694,-561,-164,-243,-88,314,162,-244
2,8547000,-3473,-1694,-561,-164,-243,-88,314,162,-244
2,8547009,-3469,-1692,-561,-163,-244,-81,314,162,-244
2,8547016,-3469,-1692,-561,-163,-244,-81,314,162,-244
2,8547025,-3469,-1692,-561,-163,-244,-81,314,162,-244
2,8547033,-3472,-1694,-562,-163,-240,-87,314,162,-244
2,8547042,-3472,-1694,-562,-163,-240,-87,314,162,-244
2,8547049,-3474,-1692,-559,-161,-240,-92,314,162,-244
2,8547058,-3474,-1692,-559,-161,-240,-92,314,162,-244
2,8547070,-3469,-1693,-563,-161,-240,-81,314,162,-244
2,8547084,-3469,-1693,-563,-161,-240,-81,314,162,-244
2,8547096,-3469,-1693,-563,-161,-240,-81,314,172,-248
2,8547107,-3471,-1692,-561,-171,-243,-80,314,172,-248
2,8547122,-3471,-1692,-561,-171,-243,-80,314,172,-248
2,8547133,-3472,-1694,-555,-162,-239,-83,314,172,-248
2,8547146,-3473,-1695,-564,-166,-240,-84,314,172,-248
2,8547156,-3473,-1695,-564,-166,-240,-84,314,172,-248
2,8547170,-3472,-1694,-560,-161,-248,-88,314,172,-248
2,8547182,-3472,-1694,-560,-161,-248,-88,314,172,-248
2,8547192,-3471,-1694,-558,-163,-240,-80,314,172,-248
2,8547204,-3471,-1694,-558,-163,-240,-80,314,172,-248
2,8547217,-3470,-1694,-562,-163,-248,-85,315,163,-241
2,8547226,-3470,-1694,-562,-163,-248,-85,315,163,-241
2,8547238,-3472,-1693,-561,-163,-245,-81,315,163,-241
2,8547252,-3470,-1692,-566,-165,-234,-89,315,163,-241
2,8547265,-3470,-1692,-566,-165,-234,-89,315,163,-241
2,8547275,-3471,-1695,-563,-162,-237,-89,315,163,-241
2,8547288,-3472,-1695,-560,-163,-238,-89,315,163,-241
2,8547301,-3472,-1695,-560,-163,-238,-89,315,163,-241
2,8547313,-3470,-1694,-560,-159,-250,-85,315,163,-241
2,8547325,-3470,-1694,-560,-159,-250,-85,315,163,-241
2,8547339,-3471,-1691,-561,-156,-244,-90,315,163,-241
2,8547353,-3472,-1692,-559,-165,-247,-80,314,172,-246
2,8547365,-3472,-1692,-559,-165,-247,-80,314,172,-246
2,8547376,-3471,-1695,-562,-161,-239,-89,314,172,-246
2,8547381,-3471,-1695,-562,-161,-239,-89,314,172,-246
2,8547387,-3471,-1692,-561,-163,-249,-86,314,172,-246
2,8547392,-3471,-1692,-561,-163,-249,-86,314,172,-246
2,8547400,-3471,-1692,-561,-163,-249,-86,314,172,-246
2,8547408,-3471,-1692,-561,-163,-249,-86,314,172,-246
2,8547416,-3471,-1692,-561,-163,-249,-86,314,172,-246
2,8547422,-3471,-1692,-561,-163,-249,-86,314,172,-246
2,8547429,-3468,-1693,-561,-162,-244,-85,314,172,-246
2,8547436,-3468,-1693,-561,-162,-244,-85,314,172,-246
2,8547442,-3468,-1693,-561,-162,-244,-85,314,172,-246
2,8547449,-3468,-1694,-564,-163,-242,-95,314,172,-246
2,8547457,-3468,-1694,-564,-163,-242,-95,314,172,-246
2,8547465,-3468,-1694,-564,-163,-242,-95,314,172,-246
2,8547473,-3471,-1696,-554,-167,-243,-92,315,167,-253
2,8547480,-3471,-1696,-554,-167,-243,-92,315,167,-253
2,8547486,-3471,-1696,-554,-167,-243,-92,315,167,-253
2,8547493,-3471,-1691,-555,-156,-240,-85,315,167,-253
2,8547500,-3471,-1691,-555,-156,-240,-85,315,167,-253
2,8547506,-3471,-1691,-555,-156,-240,-85,315,167,-253
2,8547513,-3473,-1692,-560,-152,-244,-76,315,167,-253
2,8547519,-3473,-1692,-560,-152,-244,-76,315,167,-253
2,8547527,-3471,-1694,-563,-160,-245,-80,315,167,-253
2,8547534,-3471,-1694,-563,-160,-245,-80,315,167,-253
2,8547542,-3471,-1694,-563,-160,-245,-80,315,167,-253
2,8547548,-3470,-1694,-562,-166,-233,-89,315,167,-253
2,8547555,-3470,-1694,-562,-166,-233,-89,315,167,-253
2,8547562,-3470,-1694,-562,-166,-233,-89,315,167,-253
2,8547569,-3470,-1694,-562,-166,-233,-89,315,167,-253
2,8547577,-3470,-1694,-562,-166,-233,-89,315,167,-253
2,8547584,-3470,-1694,-562,-166,-233,-89,315,167,-253
2,8547591,-3472,-1693,-556,-165,-244,-83,312,166,-248
2,8547599,-3472,-1693,-556,-165,-244,-83,312,166,-248
2,8547606,-3472,-1693,-556,-165,-244,-83,312,166,-248
2,8547612,-3470,-1694,-561,-160,-251,-83,312,166,-248
2,8547619,-3470,-1694,-561,-160,-251,-83,312,166,-248
2,8547628,-3473,-1696,-561,-165,-247,-82,312,166,-248
2,8547635,-3473,-1696,-561,-165,-247,-82,312,166,-248
2,8547641,-3473,-1696,-561,-165,-247,-82,312,166,-248
2,8547648,-3472,-1691,-560,-167,-246,-87,312,166,-248
2,8547655,-3472,-1691,-560,-167,-246,-87,312,166,-248
2,8547660,-3472,-1691,-560,-167,-246,-87,312,166,-248
2,8547670,-3468,-1694,-560,-163,-244,-80,312,166,-248
2,8547676,-3468,-1694,-560,-163,-244,-80,312,166,-248
2,8547684,-3468,-1694,-560,-163,-244,-80,312,166,-248
2,8547692,-3470,-1696,-561,-168,-249,-82,312,166,-248
2,8547699,-3470,-1696,-561,-168,-249,-82,312,166,-248
2,8547706,-3470,-1696,-561,-168,-249,-82,312,166,-248
2,8547712,-3468,-1694,-563,-162,-248,-86,316,168,-250
2,8547717,-3468,-1694,-563,-162,-248,-86,316,168,-250
2,8547722,-3468,-1694,-563,-162,-248,-86,316,168,-250
2,8547727,-3468,-1692,-556,-163,-243,-88,316,168,-250
2,8547732,-3468,-1692,-556,-163,-243,-88,316,168,-250
2,8547737,-3468,-1692,-556,-163,-243,-88,316,168,-250
2,8547742,-3468,-1692,-556,-163,-243,-88,316,168,-250
2,8547747,-3471,-1694,-564,-156,-246,-83,316,168,-250
2,8547756,-3471,-1694,-564,-156,-246,-83,316,168,-250
2,8547762,-3471,-1694,-564,-156,-246,-83,316,168,-250
2,8547769,-3471,-1694,-559,-161,-243,-87,316,168,-250
2,8547776,-3471,-1694,-559,-161,-243,-87,316,168,-250
2,8547783,-3471,-1694,-559,-161,-243,-87,316,168,-250
2,8547790,-3470,-1692,-558,-160,-246,-88,316,168,-250
2,8547796,-3470,-1692,-558,-160,-246,-88,316,168,-250
2,8547805,-3470,-1692,-558,-160,-246,-88,316,168,-250
2,8547811,-3473,-1693,-559,-163,-245,-86,316,168,-250
2,8547819,-3473,-1693,-559,-163,-245,-86,316,168,-250
2,8547826,-3473,-1693,-559,-163,-245,-86,316,168,-250
2,8547833,-3471,-1690,-558,-163,-246,-81,317,171,-251
2,8547841,-3471,-1690,-558,-163,-246,-81,317,171,-251
2,8547847,-3471,-1690,-558,-163,-246,-81,317,171,-251
2,8547854,-3471,-1690,-558,-163,-246,-81,317,171,-251
2,8547861,-3471,-1690,-558,-163,-246,-81,317,171,-251
2,8547867,-3470,-1693,-562,-165,-252,-88,317,171,-251
2,8547874,-3470,-1693,-562,-165,-252,-88,317,171,-251
2,8547881,-3470,-1693,-562,-165,-252,-88,317,171,-251
2,8547887,-3470,-1693,-562,-165,-252,-88,317,171,-251
2,8547892,-3470,-1695,-563,-164,-242,-85,317,171,-251
2,8547900,-3470,-1695,-563,-164,-242,-85,317,171,-251
2,8547906,-3470,-1695,-563,-164,-242,-85,317,171,-251
2,8547913,-3468,-1692,-559,-167,-244,-81,317,171,-251
2,8547920,-3468,-1692,-559,-167,-244,-81,317,171,-251
2,8547926,-3468,-1692,-559,-167,-244,-81,317,171,-251
2,8547933,-3471,-1692,-559,-156,-247,-85,317,171,-251
2,8547940,-3471,-1692,-559,-156,-247,-85,317,171,-251
2,8547947,-3471,-1692,-559,-156,-247,-85,317,171,-251
2,8547951,-3473,-1693,-561,-156,-247,-84,317,171,-251
2,8547957,-3473,-1693,-561,-156,-247,-84,317,171,-251
2,8547962,-3473,-1693,-561,-156,-247,-84,317,171,-251
2,8547968,-3469,-1698,-557,-159,-245,-86,321,165,-241
2,8547973,-3469,-1698,-557,-159,-245,-86,321,165,-241
2,8547978,-3469,-1698,-557,-159,-245,-86,321,165,-241
2,8547983,-3469,-1698,-557,-159,-245,-86,321,165,-241
2,8547988,-3470,-1695,-560,-162,-252,-88,321,165,-241
2,8547994,-3470,-1695,-560,-162,-252,-88,321,165,-241
2,8548002,-3470,-1695,-560,-162,-252,-88,321,165,-241
2,8548009,-3470,-1693,-562,-159,-244,-88,321,165,-241
2,8548018,-3470,-1693,-562,-159,-244,-88,321,165,-241
2,8548024,-3470,-1693,-562,-159,-244,-88,321,165,-241
2,8548031,-3467,-1692,-558,-155,-243,-79,321,165,-241
2,8548037,-3467,-1692,-558,-155,-243,-79,321,165,-241
2,8548043,-3467,-1692,-558,-155,-243,-79,321,165,-241
2,8548051,-3472,-1693,-558,-157,-242,-81,321,165,-241
2,8548060,-3472,-1693,-558,-157,-242,-81,321,165,-241
2,8548067,-3472,-1693,-558,-157,-242,-81,321,165,-241
2,8548074,-3472,-1691,-562,-163,-244,-77,321,165,-241
2,8548081,-3472,-1691,-562,-163,-244,-77,321,165,-241
2,8548089,-3473,-1694,-555,-172,-249,-79,307,169,-243
2,8548094,-3473,-1694,-555,-172,-249,-79,307,169,-243
2,8548103,-3473,-1694,-555,-172,-249,-79,307,169,-243
2,8548110,-3469,-1693,-559,-167,-240,-86,307,169,-243
2,8548117,-3469,-1693,-559,-167,-240,-86,307,169,-243
2,8548124,-3469,-1693,-559,-167,-240,-86,307,169,-243
2,8548130,-3468,-1693,-563,-171,-242,-82,307,169,-243
2,8548137,-3468,-1693,-563,-171,-242,-82,307,169,-243
2,8548145,-3468,-1693,-563,-171,-242,-82,307,169,-243
2,8548152,-3472,-1692,-560,-160,-245,-81,307,169,-243
2,8548159,-3472,-1692,-560,-160,-245,-81,307,169,-243
2,8548167,-3470,-1696,-565,-162,-244,-85,307,169,-243
2,8548175,-3470,-1696,-565,-162,-244,-85,307,169,-243
2,8548180,-3470,-1696,-565,-162,-244,-85,307,169,-243
2,8548187,-3470,-1696,-565,-162,-244,-85,307,169,-243
2,8548193,-3469,-1695,-562,-159,-250,-89,307,169,-243
2,8548199,-3469,-1695,-562,-159,-250,-89,307,169,-243
2,8548206,-3469,-1695,-562,-159,-250,-89,307,169,-243
2,8548211,-3470,-1695,-552,-162,-245,-83,314,168,-246
2,8548219,-3470,-1695,-552,-162,-245,-83,314,168,-246
2,8548228,-3472,-1695,-554,-161,-245,-87,314,168,-246
2,8548235,-3472,-1695,-554,-161,-245,-87,314,168,-246
2,8548242,-3472,-1695,-554,-161,-245,-87,314,168,-246
2,8548249,-3475,-1692,-558,-161,-250,-91,314,168,-246
2,8548256,-3475,-1692,-558,-161,-250,-91,314,168,-246
2,8548262,-3475,-1692,-558,-161,-250,-91,314,168,-246
2,8548270,-3470,-1697,-559,-159,-255,-79,314,168,-246
2,8548279,-3470,-1697,-559,-159,-255,-79,314,168,-246
2,8548286,-3470,-1697,-559,-159,-255,-79,314,168,-246
2,8548293,-3469,-1692,-560,-165,-252,-80,314,168,-246
2,8548298,-3469,-1692,-560,-165,-252,-80,314,168,-246
2,8548307,-3469,-1692,-560,-165,-252,-80,314,168,-246
2,8548313,-3469,-1693,-563,-164,-246,-90,314,168,-246
2,8548320,-3469,-1693,-563,-164,-246,-90,314,168,-246
2,8548328,-3473,-1694,-559,-166,-248,-88,311,169,-247
2,8548335,-3473,-1694,-559,-166,-248,-88,311,169,-247
2,8548342,-3473,-1694,-559,-166,-248,-88,311,169,-247
2,8548347,-3473,-1694,-559,-166,-248,-88,311,169,-247
2,8548355,-3473,-1694,-559,-166,-248,-88,311,169,-247
2,8548362,-3473,-1694,-559,-166,-248,-88,311,169,-247
2,8548367,-3469,-1698,-551,-159,-247,-87,311,169,-247
2,8548373,-3469,-1698,-551,-159,-247,-87,311,169,-247
2,8548378,-3469,-1698,-551,-159,-247,-87,311,169,-247
2,8548389,-3472,-1694,-560,-162,-245,-86,311,169,-247
2,8548401,-3472,-1694,-560,-162,-245,-86,311,169,-247
2,8548414,-3471,-1691,-563,-163,-252,-87,311,169,-247
2,8548428,-3469,-1692,-566,-164,-249,-80,311,169,-247
2,8548441,-3469,-1692,-566,-164,-249,-80,311,169,-247
2,8548453,-3470,-1691,-558,-165,-251,-80,314,166,-236
2,8548465,-3470,-1691,-558,-165,-251,-80,314,166,-236
2,8548478,-3470,-1694,-558,-164,-250,-81,314,166,-236
2,8548491,-3473,-1692,-558,-167,-255,-84,314,166,-236
2,8548503,-3473,-1692,-558,-167,-255,-84,314,166,-236
2,8548516,-3466,-1690,-559,-163,-249,-82,314,166,-236
2,8548530,-3471,-1694,-557,-166,-249,-87,314,166,-236
2,8548541,-3471,-1694,-557,-166,-249,-87,314,166,-236
2,8548549,-3471,-1695,-562,-163,-247,-88,314,166,-236
2,8548562,-3471,-1695,-562,-163,-247,-88,314,166,-236
2,8548576,-3472,-1691,-560,-160,-246,-87,314,166,-236
2,8548588,-3472,-1692,-556,-163,-250,-85,323,173,-253
2,8548599,-3472,-1692,-556,-163,-250,-85,323,173,-253
2,8548611,-3473,-1693,-561,-164,-249,-86,323,173,-253
2,8548624,-3473,-1693,-561,-164,-249,-86,323,173,-253
2,8548637,-3469,-1692,-561,-162,-252,-86,323,173,-253
2,8548648,-3470,-1690,-559,-165,-255,-82,323,173,-253
2,8548662,-3470,-1690,-559,-165,-255,-82,323,173,-253
2,8548675,-3471,-1692,-561,-160,-247,-86,323,173,-253
2,8548687,-3471,-1694,-557,-167,-243,-84,323,173,-253
2,8548700,-3471,-1694,-557,-167,-243,-84,323,173,-253
2,8548713,-3468,-1691,-560,-161,-242,-87,316,164,-250
2,8548725,-3468,-1691,-560,-161,-242,-87,316,164,-250
2,8548734,-3472,-1693,-563,-162,-247,-88,316,164,-250
2,8548743,-3472,-1693,-563,-162,-247,-88,316,164,-250
2,8548751,-3467,-1691,-563,-164,-243,-86,316,164,-250
2,8548759,-3467,-1691,-563,-164,-243,-86,316,164,-250
2,8548767,-3470,-1695,-562,-164,-247,-85,316,164,-250
2,8548780,-3470,-1695,-562,-164,-247,-85,316,164,-250
2,8548792,-3468,-1694,-565,-164,-243,-82,316,164,-250
2,8548804,-3468,-1694,-565,-164,-243,-82,316,164,-250
2,8548815,-3469,-1693,-560,-158,-245,-85,316,164,-250
2,8548829,-3467,-1690,-559,-161,-242,-79,319,173,-245
2,8548841,-3467,-1690,-559,-161,-242,-79,319,173,-245
2,8548854,-3472,-1694,-563,-164,-247,-75,319,173,-245
2,8548867,-3472,-1694,-563,-164,-247,-75,319,173,-245
2,8548878,-3471,-1691,-565,-159,-241,-88,319,173,-245
2,8548892,-3470,-1691,-561,-169,-244,-84,319,173,-245
2,8548904,-3470,-1691,-561,-169,-244,-84,319,173,-245
2,8548917,-3472,-1694,-557,-164,-246,-83,319,173,-245
2,8548930,-3471,-1693,-561,-162,-250,-83,319,173,-245
2,8548942,-3471,-1693,-561,-162,-250,-83,319,173,-245
2,8548952,-3472,-1691,-552,-167,-250,-81,309,165,-247
2,8548960,-3472,-1691,-552,-167,-250,-81,309,165,-247
2,8548968,-3473,-1695,-558,-165,-248,-80,309,165,-247
2,8548978,-3473,-1695,-558,-165,-248,-80,309,165,-247
2,8548986,-3473,-1695,-558,-165,-248,-80,309,165,-247
2,8548995,-3473,-1693,-560,-163,-252,-80,309,165,-247
2,8549003,-3473,-1693,-560,-163,-252,-80,309,165,-247
2,8549011,-3471,-1691,-559,-165,-251,-80,309,165,-247
2,8549019,-3471,-1691,-559,-165,-251,-80,309,165,-247
2,8549027,-3471,-1691,-559,-165,-251,-80,309,165,-247
2,8549036,-3471,-1690,-560,-161,-249,-90,309,165,-247
2,8549044,-3471,-1690,-560,-161,-249,-90,309,165,-247
2,8549052,-3469,-1695,-564,-166,-247,-87,309,165,-247
2,8549060,-3469,-1695,-564,-166,-247,-87,309,165,-247
2,8549069,-3472,-1691,-560,-164,-240,-87,318,170,-248
2,8549079,-3472,-1691,-560,-164,-240,-87,318,170,-248
2,8549088,-3472,-1691,-560,-164,-240,-87,318,170,-248
2,8549097,-3473,-1694,-560,-164,-238,-90,318,170,-248
2,8549107,-3473,-1694,-560,-164,-238,-90,318,170,-248
2,8549122,-3469,-1695,-559,-158,-236,-85,318,170,-248
2,8549134,-3471,-1693,-561,-158,-244,-86,318,170,-248
2,8549147,-3471,-1693,-561,-158,-244,-86,318,170,-248
2,8549160,-3468,-1692,-564,-158,-245,-86,318,170,-248
2,8549173,-3470,-1691,-564,-165,-243,-79,318,170,-248
2,8549185,-3470,-1691,-564,-165,-243,-79,318,170,-248
2,8549198,-3472,-1694,-559,-152,-242,-87,318,170,-248
2,8549212,-3472,-1695,-562,-163,-247,-85,313,171,-245
2,8549224,-3472,-1695,-562,-163,-247,-85,313,171,-245
2,8549235,-3470,-1693,-558,-162,-240,-88,313,171,-245
2,8549248,-3470,-1693,-558,-162,-240,-88,313,171,-245
2,8549257,-3472,-1695,-561,-165,-248,-85,313,171,-245
2,8549267,-3472,-1695,-561,-165,-248,-85,313,171,-245
2,8549280,-3468,-1691,-563,-166,-252,-86,313,171,-245
2,8549294,-3469,-1692,-562,-161,-249,-85,313,171,-245
2,8549303,-3469,-1692,-562,-161,-249,-85,313,171,-245
2,8549315,-3471,-1693,-565,-168,-243,-89,313,171,-245
2,8549329,-3472,-1693,-558,-162,-246,-85,318,168,-234
2,8549342,-3472,-1693,-558,-162,-246,-85,318,168,-234
2,8549353,-3473,-1693,-559,-160,-243,-79,318,168,-234
2,8549366,-3473,-1693,-559,-160,-243,-79,318,168,-234
2,8549381,-3472,-1693,-559,-164,-243,-88,318,168,-234
2,8549392,-3473,-1693,-559,-171,-249,-91,318,168,-234
2,8549399,-3473,-1693,-559,-171,-249,-91,318,168,-234
2,8549405,-3473,-1693,-559,-171,-249,-91,318,168,-234
2,8549412,-3471,-1691,-555,-158,-245,-85,318,168,-234
2,8549420,-3471,-1691,-555,-158,-245,-85,318,168,-234
2,8549427,-3471,-1691,-555,-158,-245,-85,318,168,-234
2,8549433,-3471,-1693,-562,-158,-245,-86,318,168,-234
2,8549442,-3471,-1693,-562,-158,-245,-86,318,168,-234
2,8549448,-3470,-1692,-555,-159,-242,-84,316,168,-234
2,8549454,-3470,-1692,-555,-159,-242,-84,316,170,-240
2,8549462,-3470,-1692,-555,-159,-242,-84,316,170,-240
2,8549468,-3470,-1692,-555,-159,-242,-84,316,170,-240
2,8549475,-3470,-1691,-559,-162,-249,-85,316,170,-240
2,8549481,-3470,-1691,-559,-162,-249,-85,316,170,-240
2,8549488,-3470,-1691,-559,-162,-249,-85,316,170,-240
2,8549495,-3471,-1692,-561,-163,-251,-84,316,170,-240
2,8549501,-3471,-1692,-561,-163,-251,-84,316,170,-240
2,8549510,-3469,-1698,-558,-165,-244,-80,316,170,-240
2,8549517,-3469,-1698,-558,-165,-244,-80,316,170,-240
2,8549524,-3469,-1698,-558,-165,-244,-80,316,170,-240
2,8549530,-3470,-1690,-561,-175,-245,-82,316,170,-240
2,8549537,-3470,-1690,-561,-175,-245,-82,316,170,-240
2,8549544,-3470,-1690,-561,-175,-245,-82,316,170,-240
2,8549552,-3473,-1691,-563,-166,-241,-81,316,170,-240
2,8549557,-3473,-1691,-563,-166,-241,-81,316,170,-240
2,8549562,-3473,-1691,-563,-166,-241,-81,316,170,-240
2,8549568,-3473,-1691,-563,-166,-241,-81,316,170,-240
2,8549574,-3472,-1697,-561,-158,-244,-78,314,168,-244
2,8549581,-3472,-1697,-561,-158,-244,-78,314,168,-244
2,8549588,-3473,-1695,-560,-161,-244,-83,314,168,-244
2,8549595,-3473,-1695,-560,-161,-244,-83,314,168,-244
2,8549601,-3473,-1695,-560,-161,-244,-83,314,168,-244
2,8549608,-3473,-1695,-560,-161,-244,-83,314,168,-244
2,8549615,-3473,-1693,-562,-162,-245,-82,314,168,-244
2,8549621,-3473,-1693,-562,-162,-245,-82,314,168,-244
2,8549628,-3470,-1693,-562,-163,-241,-81,314,168,-244
2,8549636,-3470,-1693,-562,-163,-241,-81,314,168,-244
2,8549643,-3470,-1693,-562,-163,-241,-81,314,168,-244
2,8549649,-3474,-1692,-562,-160,-245,-91,314,168,-244
2,8549656,-3474,-1692,-562,-160,-245,-91,314,168,-244
2,8549665,-3474,-1692,-562,-160,-245,-91,314,168,-244
2,8549669,-3472,-1692,-563,-161,-243,-87,314,168,-244
2,8549678,-3472,-1692,-563,-161,-243,-87,314,168,-244
2,8549685,-3472,-1692,-563,-161,-243,-87,314,168,-244
2,8549692,-3472,-1694,-556,-158,-240,-87,309,169,-247
2,8549699,-3472,-1694,-556,-158,-240,-87,309,169,-247
2,8549706,-3472,-1694,-556,-158,-240,-87,309,169,-247
2,8549714,-3472,-1695,-557,-167,-237,-86,309,169,-247
2,8549720,-3472,-1695,-557,-167,-237,-86,309,169,-247
2,8549727,-3472,-1695,-557,-167,-237,-86,309,169,-247
2,8549732,-3469,-1692,-562,-165,-242,-85,309,169,-247
2,8549737,-3469,-1692,-562,-165,-242,-85,309,169,-247
2,8549742,-3469,-1692,-562,-165,-242,-85,309,169,-247
2,8549747,-3469,-1692,-562,-165,-242,-85,309,169,-247
2,8549752,-3469,-1693,-555,-162,-247,-80,309,169,-247
2,8549757,-3469,-1693,-555,-162,-247,-80,309,169,-247
2,8549763,-3469,-1693,-555,-162,-247,-80,309,169,-247
2,8549770,-3470,-1696,-559,-162,-237,-75,309,169,-247
2,8549778,-3470,-1696,-559,-162,-237,-75,309,169,-247
2,8549784,-3470,-1696,-559,-162,-237,-75,309,169,-247
2,8549791,-3472,-1691,-557,-163,-238,-82,309,169,-247
2,8549799,-3472,-1691,-557,-163,-238,-82,309,169,-247
2,8549807,-3472,-1691,-557,-163,-238,-82,309,169,-247
2,8549813,-3469,-1690,-564,-154,-237,-85,309,169,-247
2,8549820,-3469,-1690,-564,-154,-237,-85,309,169,-247
2,8549828,-3469,-1690,-564,-154,-237,-85,309,169,-247
2,8549835,-3470,-1689,-559,-159,-247,-84,315,171,-243
2,8549842,-3470,-1689,-559,-159,-247,-84,315,171,-243
2,8549851,-3471,-1692,-558,-161,-242,-93,315,171,-243
2,8549858,-3471,-1692,-558,-161,-242,-93,315,171,-243
2,8549864,-3471,-1692,-558,-161,-242,-93,315,171,-243
2,8549872,-3467,-1694,-559,-160,-241,-93,315,171,-243
2,8549878,-3467,-1694,-559,-160,-241,-93,315,171,-243
2,8549885,-3467,-1694,-559,-160,-241,-93,315,171,-243
2,8549894,-3470,-1694,-557,-168,-244,-84,315,171,-243
2,8549900,-3470,-1694,-557,-168,-244,-84,315,171,-243
2,8549908,-3470,-1694,-557,-168,-244,-84,315,171,-243
2,8549915,-3470,-1692,-557,-165,-250,-89,315,171,-243
2,8549921,-3470,-1692,-557,-165,-250,-89,315,171,-243
2,8549928,-3471,-1693,-561,-169,-243,-90,315,171,-243
2,8549937,-3471,-1693,-561,-169,-243,-90,315,171,-243
2,8549945,-3471,-1693,-561,-169,-243,-90,315,171,-243
2,8549950,-3471,-1691,-558,-160,-241,-87,315,165,-249
2,8549956,-3471,-1691,-558,-160,-241,-87,315,165,-249
2,8549961,-3471,-1691,-558,-160,-241,-87,315,165,-249
2,8549966,-3471,-1691,-558,-160,-241,-87,315,165,-249
2,8549971,-3471,-1691,-558,-160,-241,-87,315,165,-249
2,8549977,-3471,-1691,-558,-160,-241,-87,315,165,-249
2,8549982,-3471,-1691,-558,-160,-241,-87,315,165,-249
2,8549987,-3471,-1691,-558,-160,-241,-87,315,165,-249
2,8549993,-3471,-1693,-565,-164,-251,-91,315,165,-249
2,8550000,-3471,-1693,-565,-164,-251,-91,315,165,-249
2,8550007,-3471,-1693,-565,-164,-251,-91,315,165,-249
2,8550014,-3469,-1693,-562,-156,-244,-87,315,165,-249
2,8550024,-3469,-1693,-562,-156,-244,-87,315,165,-249
2,8550031,-3469,-1694,-563,-164,-247,-77,315,165,-249
2,8550037,-3469,-1694,-563,-164,-247,-77,315,165,-249
2,8550044,-3469,-1694,-563,-164,-247,-77,315,165,-249
2,8550051,-3468,-1696,-559,-154,-240,-88,315,165,-249
2,8550059,-3468,-1696,-559,-154,-240,-88,315,165,-249
2,8550064,-3468,-1696,-559,-154,-240,-88,315,165,-249
2,8550069,-3468,-1696,-559,-154,-240,-88,315,165,-249
2,8550074,-3473,-1692,-560,-165,-245,-88,314,164,-250
2,8550082,-3473,-1692,-560,-165,-245,-88,314,164,-250
2,8550089,-3470,-1695,-559,-169,-250,-86,314,164,-250
2,8550096,-3470,-1695,-559,-169,-250,-86,314,164,-250
2,8550104,-3470,-1695,-559,-169,-250,-86,314,164,-250
2,8550112,-3473,-1691,-564,-163,-243,-85,314,164,-250
2,8550119,-3473,-1691,-564,-163,-243,-85,314,164,-250
2,8550124,-3473,-1691,-564,-163,-243,-85,314,164,-250
2,8550130,-3472,-1690,-561,-164,-245,-93,314,164,-250
2,8550137,-3472,-1690,-561,-164,-245,-93,314,164,-250
2,8550146,-3472,-1690,-561,-164,-245,-93,314,164,-250
2,8550151,-3470,-1695,-560,-165,-248,-90,314,164,-250
2,8550157,-3470,-1695,-560,-165,-248,-90,314,164,-250
2,8550164,-3470,-1695,-560,-165,-248,-90,314,164,-250
2,8550170,-3469,-1690,-560,-163,-245,-83,314,164,-250
2,8550177,-3469,-1690,-560,-163,-245,-83,314,164,-250
2,8550183,-3469,-1690,-560,-163,-245,-83,314,164,-250
2,8550191,-3471,-1689,-556,-168,-244,-87,316,172,-246
2,8550198,-3471,-1689,-556,-168,-244,-87,316,172,-246
2,8550205,-3471,-1689,-556,-168,-244,-87,316,172,-246
2,8550213,-3470,-1692,-556,-166,-250,-91,316,172,-246
2,8550220,-3470,-1692,-556,-166,-250,-91,316,172,-246
2,8550230,-3469,-1691,-560,-160,-244,-86,316,172,-246
2,8550237,-3469,-1691,-560,-160,-244,-86,316,172,-246
2,8550242,-3469,-1691,-560,-160,-244,-86,316,172,-246
2,8550249,-3470,-1693,-561,-160,-244,-84,316,172,-246
2,8550257,-3470,-1693,-561,-160,-244,-84,316,172,-246
2,8550264,-3470,-1693,-561,-160,-244,-84,316,172,-246
2,8550272,-3473,-1690,-562,-166,-239,-82,316,172,-246
2,8550280,-3473,-1690,-562,-166,-239,-82,316,172,-246
2,8550288,-3473,-1690,-562,-166,-239,-82,316,172,-246
2,8550296,-3468,-1697,-565,-164,-244,-80,316,172,-246
2,8550303,-3468,-1697,-565,-164,-244,-80,316,172,-246
2,8550310,-3471,-1693,-554,-167,-245,-83,316,172,-246
2,8550318,-3471,-1693,-554,-167,-245,-83,316,172,-246
2,8550323,-3471,-1693,-554,-167,-245,-83,316,172,-246
2,8550332,-3472,-1693,-558,-158,-246,-81,316,172,-246
2,8550339,-3472,-1693,-558,-158,-246,-81,316,172,-246
2,8550346,-3472,-1693,-558,-158,-246,-81,316,172,-246
2,8550352,-3469,-1692,-564,-161,-245,-82,316,172,-246
2,8550360,-3469,-1692,-564,-161,-245,-82,316,172,-246
2,8550368,-3469,-1692,-564,-161,-245,-82,316,172,-246
2,8550373,-3468,-1693,-563,-169,-244,-80,316,172,-246
2,8550381,-3468,-1693,-563,-169,-244,-80,316,172,-246
2,8550389,-3468,-1693,-563,-169,-244,-80,316,172,-246
2,8550395,-3475,-1692,-561,-160,-253,-77,316,172,-246
2,8550408,-3475,-1692,-561,-160,-253,-77,316,172,-246
2,8550420,-3471,-1691,-566,-163,-248,-86,316,172,-246
2,8550432,-3472,-1691,-561,-167,-258,-86,315,167,-247
2,8550446,-3472,-1691,-561,-167,-258,-86,315,167,-247
2,8550458,-3469,-1689,-560,-163,-248,-89,315,167,-247
2,8550470,-3471,-1695,-565,-166,-246,-83,315,167,-247
2,8550484,-3471,-1695,-565,-166,-246,-83,315,167,-247
2,8550497,-3472,-1692,-563,-163,-242,-78,315,167,-247
2,8550508,-3472,-1692,-563,-163,-242,-78,315,167,-247
2,8550519,-3470,-1696,-560,-166,-244,-84,315,167,-247
2,8550529,-3470,-1696,-560,-166,-244,-84,315,167,-247
2,8550536,-3471,-1692,-560,-157,-247,-89,315,167,-247
2,8550544,-3471,-1692,-560,-157,-247,-89,315,167,-247
2,8550555,-3472,-1693,-560,-160,-246,-89,315,167,-247
2,8550566,-3472,-1693,-560,-160,-246,-89,315,167,-247
2,8550580,-3472,-1693,-564,-156,-248,-91,317,165,-253
2,8550592,-3472,-1691,-557,-156,-252,-86,317,165,-253
2,8550604,-3472,-1691,-557,-156,-252,-86,317,165,-253
2,8550616,-3472,-1694,-561,-161,-242,-85,317,165,-253
2,8550626,-3472,-1694,-561,-161,-242,-85,317,165,-253
2,8550637,-3469,-1694,-562,-161,-246,-85,317,165,-253
2,8550650,-3470,-1692,-562,-161,-247,-85,317,165,-253
2,8550665,-3470,-1692,-562,-161,-247,-85,317,165,-253
2,8550676,-3469,-1692,-566,-166,-239,-82,317,165,-253
2,8550688,-3469,-1692,-566,-166,-239,-82,317,165,-253
2,8550701,-3471,-1690,-557,-170,-237,-84,319,169,-243
2,8550714,-3473,-1690,-559,-169,-243,-84,319,169,-243
2,8550727,-3473,-1690,-559,-169,-243,-84,319,169,-243
2,8550735,-3469,-1691,-559,-164,-244,-80,319,169,-243
2,8550743,-3469,-1691,-559,-164,-244,-80,319,169,-243
2,8550751,-3470,-1691,-557,-162,-241,-82,319,169,-243
2,8550759,-3470,-1691,-557,-162,-241,-82,319,169,-243
2,8550773,-3470,-1691,-557,-161,-240,-88,319,169,-243
2,8550785,-3470,-1691,-557,-161,-240,-88,319,169,-243
2,8550796,-3470,-1695,-562,-171,-241,-80,319,169,-243
2,8550809,-3470,-1695,-562,-171,-241,-80,319,169,-243
2,8550821,-3470,-1693,-557,-162,-240,-81,310,170,-246
2,8550831,-3469,-1692,-563,-161,-249,-88,310,170,-246
2,8550841,-3469,-1692,-563,-161,-249,-88,310,170,-246
2,8550853,-3473,-1696,-557,-162,-249,-90,310,170,-246
2,8550866,-3473,-1696,-557,-162,-249,-90,310,170,-246
2,8550877,-3471,-1692,-558,-163,-237,-86,310,170,-246
2,8550891,-3472,-1688,-552,-161,-243,-87,310,170,-246
2,8550903,-3472,-1688,-552,-161,-243,-87,310,170,-246
2,8550916,-3470,-1694,-564,-169,-248,-87,310,170,-246
2,8550929,-3470,-1694,-564,-169,-248,-87,310,170,-246
2,8550942,-3472,-1693,-552,-162,-246,-82,318,170,-246
2,8550951,-3471,-1694,-559,-159,-231,-86,318,170,-246
2,8550960,-3471,-1694,-559,-159,-231,-86,318,170,-246
2,8550968,-3471,-1694,-559,-159,-231,-86,318,170,-246
2,8550976,-3471,-1693,-559,-163,-243,-82,318,170,-246
2,8550984,-3471,-1693,-559,-163,-243,-82,318,170,-246
2,8550992,-3470,-1688,-556,-166,-244,-78,318,170,-246
2,8551001,-3470,-1688,-556,-166,-244,-78,318,170,-246
2,8551008,-3470,-1688,-556,-166,-244,-78,318,170,-246
2,8551017,-3472,-1695,-559,-166,-247,-77,318,170,-246
2,8551024,-3472,-1695,-559,-166,-247,-77,318,170,-246
2,8551032,-3469,-1694,-563,-160,-250,-84,318,170,-246
2,8551041,-3469,-1694,-563,-160,-250,-84,318,170,-246
2,8551049,-3469,-1694,-563,-160,-250,-84,318,170,-246
2,8551057,-3471,-1693,-561,-157,-249,-88,313,169,-251
2,8551065,-3471,-1693,-561,-157,-249,-88,313,169,-251
2,8551075,-3471,-1692,-559,-153,-246,-84,313,169,-251
2,8551084,-3471,-1692,-559,-153,-246,-84,313,169,-251
2,8551093,-3472,-1693,-560,-163,-242,-83,313,169,-251
2,8551106,-3472,-1693,-560,-163,-242,-83,313,169,-251
2,8551115,-3473,-1695,-560,-163,-241,-79,313,169,-251
2,8551124,-3473,-1695,-560,-163,-241,-79,313,169,-251
2,8551133,-3470,-1694,-562,-169,-244,-81,313,169,-251
2,8551141,-3470,-1694,-562,-169,-244,-81,313,169,-251
2,8551149,-3470,-1694,-562,-169,-244,-81,313,169,-251
2,8551160,-3474,-1692,-565,-158,-235,-82,313,169,-251
2,8551172,-3471,-1692,-562,-151,-240,-86,313,169,-251
2,8551184,-3471,-1692,-562,-151,-240,-86,313,169,-251
2,8551195,-3472,-1694,-558,-158,-245,-84,321,165,-247
2,8551209,-3472,-1694,-558,-158,-245,-84,321,165,-247
2,8551222,-3472,-1693,-566,-159,-239,-86,321,165,-247
2,8551233,-3471,-1692,-559,-164,-240,-84,321,165,-247
2,8551245,-3471,-1692,-559,-164,-240,-84,321,165,-247
2,8551258,-3469,-1693,-561,-168,-239,-83,321,165,-247
2,8551270,-3470,-1692,-564,-167,-238,-82,321,165,-247
2,8551283,-3470,-1692,-564,-167,-238,-82,321,165,-247
2,8551296,-3472,-1690,-559,-157,-246,-89,321,165,-247
2,8551308,-3472,-1690,-559,-157,-246,-89,321,165,-247
2,8551320,-3468,-1694,-558,-159,-246,-85,315,171,-249
2,8551330,-3472,-1689,-560,-162,-249,-90,315,171,-249
2,8551343,-3472,-1689,-560,-162,-249,-90,315,171,-249
2,8551356,-3471,-1691,-557,-160,-249,-91,315,171,-249
2,8551368,-3471,-1691,-557,-160,-249,-91,315,171,-249
2,8551379,-3475,-1693,-562,-163,-244,-84,315,171,-249
2,8551392,-3471,-1692,-560,-163,-245,-92,315,171,-249
2,8551406,-3471,-1692,-560,-163,-245,-92,315,171,-249
2,8551413,-3471,-1692,-561,-158,-241,-92,315,171,-249
2,8551420,-3471,-1692,-561,-158,-241,-92,315,171,-249
2,8551427,-3471,-1692,-561,-158,-241,-92,315,171,-249
2,8551434,-3472,-1693,-556,-154,-244,-84,320,160,-240
2,8551442,-3472,-1693,-556,-154,-244,-84,320,160,-240
2,8551449,-3472,-1693,-556,-154,-244,-84,320,160,-240
2,8551456,-3469,-1691,-558,-162,-243,-86,320,160,-240
2,8551464,-3469,-1691,-558,-162,-243,-86,320,160,-240
2,8551471,-3473,-1692,-556,-162,-244,-86,320,160,-240
2,8551478,-3473,-1692,-556,-162,-244,-86,320,160,-240
2,8551485,-3473,-1692,-556,-162,-244,-86,320,160,-240
2,8551491,-3471,-1692,-560,-161,-234,-84,320,160,-240
2,8551496,-3471,-1692,-560,-161,-234,-84,320,160,-240
2,8551504,-3471,-1692,-560,-161,-234,-84,320,160,-240
2,8551513,-3472,-1693,-562,-161,-236,-87,320,160,-240
2,8551519,-3472,-1693,-562,-161,-236,-87,320,160,-240
2,8551526,-3472,-1693,-562,-161,-236,-87,320,160,-240
2,8551533,-3470,-1696,-559,-164,-241,-94,320,160,-240
2,8551539,-3470,-1696,-559,-164,-241,-94,320,160,-240
2,8551546,-3470,-1696,-559,-164,-241,-94,320,160,-240
2,8551554,-3470,-1690,-552,-164,-246,-80,312,170,-240
2,8551562,-3470,-1690,-552,-164,-246,-80,312,170,-240
2,8551569,-3470,-1690,-552,-164,-246,-80,312,170,-240
2,8551576,-3474,-1690,-552,-165,-254,-78,312,170,-240
2,8551582,-3474,-1690,-552,-165,-254,-78,312,170,-240
2,8551590,-3474,-1691,-564,-162,-241,-78,312,170,-240
2,8551597,-3474,-1691,-564,-162,-241,-78,312,170,-240
2,8551604,-3474,-1691,-564,-162,-241,-78,312,170,-240
2,8551611,-3471,-1692,-563,-158,-244,-87,312,170,-240
2,8551618,-3471,-1692,-563,-158,-244,-87,312,170,-240
2,8551623,-3471,-1692,-563,-158,-244,-87,312,170,-240
2,8551628,-3471,-1692,-563,-158,-244,-87,312,170,-240
2,8551633,-3470,-1691,-562,-153,-234,-82,312,170,-240
2,8551641,-3470,-1691,-562,-153,-234,-82,312,170,-240
2,8551647,-3470,-1691,-562,-153,-234,-82,312,170,-240
2,8551654,-3470,-1691,-562,-165,-241,-84,312,170,-240
2,8551662,-3470,-1691,-562,-165,-241,-84,312,170,-240
2,8551669,-3470,-1691,-562,-165,-241,-84,312,170,-240
2,8551676,-3477,-1690,-563,-164,-245,-85,315,171,-247
2,8551683,-3477,-1690,-563,-164,-245,-85,315,171,-247
2,8551689,-3477,-1690,-563,-164,-245,-85,315,171,-247
2,8551696,-3474,-1695,-556,-164,-247,-87,315,171,-247
2,8551703,-3474,-1695,-556,-164,-247,-87,315,171,-247
2,8551708,-3474,-1695,-556,-164,-247,-87,315,171,-247
2,8551713,-3472,-1694,-564,-164,-246,-91,315,171,-247
2,8551721,-3472,-1694,-564,-164,-246,-91,315,171,-247
2,8551729,-3472,-1694,-564,-164,-246,-91,315,171,-247
2,8551734,-3470,-1693,-559,-165,-242,-79,315,171,-247
2,8551739,-3470,-1693,-559,-165,-242,-79,315,171,-247
2,8551744,-3470,-1693,-559,-165,-242,-79,315,171,-247
2,8551749,-3470,-1693,-559,-165,-242,-79,315,171,-247
2,8551754,-3473,-1692,-558,-163,-248,-82,315,171,-247
2,8551760,-3473,-1692,-558,-163,-248,-82,315,171,-247
2,8551768,-3473,-1692,-558,-163,-248,-82,315,171,-247
2,8551774,-3468,-1695,-563,-162,-241,-89,315,171,-247
2,8551782,-3468,-1695,-563,-162,-241,-89,315,171,-247
2,8551789,-3468,-1695,-563,-162,-241,-89,315,171,-247
2,8551796,-3473,-1694,-561,-165,-240,-83,315,171,-247
2,8551803,-3473,-1694,-561,-165,-240,-83,315,171,-247
2,8551811,-3473,-1692,-560,-155,-239,-81,305,167,-255
2,8551817,-3473,-1692,-560,-155,-239,-81,305,167,-255
2,8551825,-3473,-1692,-560,-155,-239,-81,305,167,-255
2,8551831,-3473,-1690,-567,-155,-236,-82,305,167,-255
2,8551839,-3473,-1690,-567,-155,-236,-82,305,167,-255
2,8551846,-3473,-1690,-567,-155,-236,-82,305,167,-255
2,8551854,-3473,-1692,-562,-166,-244,-82,305,167,-255
2,8551861,-3473,-1692,-562,-166,-244,-82,305,167,-255
2,8551867,-3473,-1692,-562,-166,-244,-82,305,167,-255
2,8551874,-3471,-1692,-558,-164,-242,-82,305,167,-255
2,8551881,-3471,-1692,-558,-164,-242,-82,305,167,-255
2,8551889,-3471,-1692,-558,-164,-242,-82,305,167,-255
2,8551898,-3471,-1691,-558,-163,-243,-84,305,167,-255
2,8551906,-3471,-1691,-558,-163,-243,-84,305,167,-255
2,8551913,-3473,-1690,-563,-164,-240,-86,305,167,-255
2,8551921,-3473,-1690,-563,-164,-240,-86,305,167,-255
2,8551928,-3473,-1690,-563,-164,-240,-86,305,167,-255
2,8551933,-3469,-1693,-558,-166,-238,-80,311,175,-241
2,8551941,-3469,-1693,-558,-166,-238,-80,311,175,-241
2,8551948,-3469,-1693,-558,-166,-238,-80,311,175,-241
2,8551954,-3472,-1693,-559,-167,-242,-80,311,175,-241
2,8551959,-3472,-1693,-559,-167,-242,-80,311,175,-241
2,8551965,-3472,-1693,-559,-167,-242,-80,311,175,-241
2,8551970,-3472,-1693,-559,-167,-242,-80,311,175,-241
2,8551974,-3473,-1694,-561,-166,-239,-84,311,175,-241
2,8551981,-3473,-1694,-561,-166,-239,-84,311,175,-241
2,8551986,-3473,-1694,-561,-166,-239,-84,311,175,-241
2,8551992,-3472,-1691,-561,-164,-241,-86,311,175,-241
2,8551998,-3472,-1691,-561,-164,-241,-86,311,175,-241
2,8552006,-3472,-1691,-561,-164,-241,-86,311,175,-241
2,8552014,-3471,-1693,-559,-159,-247,-86,311,175,-241
2,8552020,-3471,-1693,-559,-159,-247,-86,311,175,-241
2,8552028,-3471,-1693,-559,-159,-247,-86,311,175,-241
2,8552035,-3475,-1693,-562,-162,-241,-91,311,175,-241
2,8552042,-3475,-1693,-562,-162,-241,-91,311,175,-241
2,8552048,-3475,-1693,-562,-162,-241,-91,311,175,-241
2,8552056,-3474,-1691,-555,-158,-246,-80,317,167,-249
2,8552065,-3474,-1691,-555,-158,-246,-80,317,167,-249
2,8552071,-3474,-1694,-558,-171,-245,-80,317,167,-249
2,8552078,-3474,-1694,-558,-171,-245,-80,317,167,-249
2,8552085,-3474,-1694,-558,-171,-245,-80,317,167,-249
2,8552092,-3472,-1691,-561,-167,-235,-88,317,167,-249
2,8552098,-3472,-1691,-561,-167,-235,-88,317,167,-249
2,8552108,-3472,-1691,-561,-167,-235,-88,317,167,-249
2,8552113,-3469,-1691,-561,-165,-238,-91,317,167,-249
2,8552119,-3469,-1691,-561,-165,-238,-91,317,167,-249
2,8552126,-3469,-1691,-561,-165,-238,-91,317,167,-249
2,8552134,-3469,-1693,-563,-167,-250,-87,317,167,-249
2,8552139,-3469,-1693,-563,-167,-250,-87,317,167,-249
2,8552144,-3469,-1693,-563,-167,-250,-87,317,167,-249
2,8552150,-3469,-1693,-563,-167,-250,-87,317,167,-249
2,8552157,-3470,-1690,-565,-164,-245,-84,317,167,-249
2,8552163,-3470,-1690,-565,-164,-245,-84,317,167,-249
2,8552170,-3470,-1690,-565,-164,-245,-84,317,167,-249
2,8552177,-3468,-1694,-560,-161,-243,-82,313,163,-241
2,8552184,-3468,-1694,-560,-161,-243,-82,313,163,-241
2,8552192,-3471,-1692,-558,-164,-244,-88,313,163,-241
2,8552199,-3471,-1692,-558,-164,-244,-88,313,163,-241
2,8552205,-3471,-1692,-558,-164,-244,-88,313,163,-241
2,8552211,-3473,-1691,-564,-165,-252,-92,313,163,-241
2,8552216,-3473,-1691,-564,-165,-252,-92,313,163,-241
2,8552224,-3473,-1691,-564,-165,-252,-92,313,163,-241
2,8552232,-3470,-1691,-566,-170,-248,-91,313,163,-241
2,8552240,-3470,-1691,-566,-170,-248,-91,313,163,-241
2,8552246,-3470,-1691,-566,-170,-248,-91,313,163,-241
2,8552253,-3469,-1689,-558,-165,-244,-80,313,163,-241
2,8552260,-3469,-1689,-558,-165,-244,-80,313,163,-241
2,8552266,-3469,-1689,-558,-165,-244,-80,313,163,-241
2,8552274,-3472,-1692,-561,-170,-241,-79,313,163,-241
2,8552282,-3472,-1692,-561,-170,-241,-79,313,163,-241
2,8552289,-3472,-1692,-561,-170,-241,-79,313,163,-241
2,8552297,-3471,-1691,-558,-164,-241,-82,321,163,-245
2,8552302,-3471,-1691,-558,-164,-241,-82,321,163,-245
2,8552309,-3471,-1691,-558,-164,-241,-82,321,163,-245
2,8552315,-3469,-1688,-553,-169,-241,-76,321,163,-245
2,8552323,-3469,-1688,-553,-169,-241,-76,321,163,-245
2,8552330,-3469,-1688,-553,-169,-241,-76,321,163,-245
2,8552336,-3471,-1693,-562,-168,-254,-77,321,163,-245
2,8552343,-3471,-1693,-562,-168,-254,-77,321,163,-245
2,8552349,-3471,-1693,-562,-168,-254,-77,321,163,-245
2,8552356,-3475,-1694,-560,-163,-247,-82,321,163,-245
2,8552364,-3475,-1694,-560,-163,-247,-82,321,163,-245
2,8552370,-3475,-1694,-560,-163,-247,-82,321,163,-245
2,8552377,-3472,-1691,-556,-164,-242,-82,321,163,-245
2,8552383,-3472,-1691,-556,-164,-242,-82,321,163,-245
2,8552391,-3471,-1694,-559,-168,-246,-90,321,163,-245
2,8552399,-3471,-1694,-559,-168,-246,-90,321,163,-245
2,8552407,-3471,-1694,-559,-168,-246,-90,321,163,-245
2,8552415,-3472,-1693,-562,-164,-239,-84,321,163,-245
2,8552427,-3472,-1693,-562,-164,-239,-84,321,163,-245
2,8552437,-3474,-1692,-554,-168,-242,-83,314,170,-240
2,8552450,-3474,-1692,-554,-168,-242,-83,314,170,-240
2,8552463,-3472,-1693,-561,-169,-245,-83,314,170,-240
2,8552475,-3474,-1693,-560,-164,-249,-87,314,170,-240
2,8552486,-3474,-1693,-560,-164,-249,-87,314,170,-240
2,8552499,-3470,-1691,-563,-164,-245,-90,314,170,-240
2,8552509,-3470,-1691,-563,-164,-245,-90,314,170,-240
2,8552521,-3471,-1692,-560,-160,-243,-83,314,170,-240
2,8552534,-3472,-1694,-564,-161,-240,-77,314,170,-240
2,8552548,-3472,-1694,-564,-161,-240,-77,314,170,-240
2,8552559,-3472,-1693,-562,-162,-244,-83,320,166,-246
2,8552570,-3472,-1693,-562,-162,-244,-83,320,166,-246
2,8552584,-3469,-1693,-568,-163,-240,-77,320,166,-246
2,8552598,-3472,-1694,-558,-166,-243,-75,320,166,-246
2,8552608,-3472,-1694,-558,-166,-243,-75,320,166,-246
2,8552619,-3470,-1690,-559,-162,-239,-88,320,166,-246
2,8552632,-3474,-1690,-564,-159,-240,-82,320,166,-246
2,8552645,-3474,-1690,-564,-159,-240,-82,320,166,-246
2,8552654,-3471,-1692,-564,-162,-240,-85,320,166,-246
2,8552665,-3471,-1692,-564,-162,-240,-85,320,166,-246
2,8552673,-3471,-1690,-558,-162,-241,-78,313,165,-243
2,8552681,-3471,-1690,-558,-162,-241,-78,313,165,-243
2,8552689,-3471,-1690,-558,-162,-241,-78,313,165,-243
2,8552700,-3471,-1687,-556,-160,-248,-80,313,165,-243
2,8552714,-3469,-1694,-563,-160,-249,-77,313,165,-243
2,8552722,-3469,-1694,-563,-160,-249,-77,313,165,-243
2,8552732,-3469,-1694,-557,-159,-235,-74,313,165,-243
2,8552740,-3469,-1694,-557,-159,-235,-74,313,165,-243
2,8552749,-3469,-1694,-557,-159,-235,-74,313,165,-243
2,8552757,-3470,-1691,-558,-157,-249,-78,313,165,-243
2,8552769,-3470,-1691,-558,-157,-249,-78,313,165,-243
2,8552781,-3468,-1694,-560,-155,-237,-84,313,165,-243
2,8552794,-3472,-1691,-556,-163,-236,-84,313,165,-249
2,8552807,-3472,-1691,-556,-163,-236,-84,313,165,-249
2,8552819,-3472,-1692,-558,-164,-248,-89,313,165,-249
2,8552830,-3472,-1692,-558,-164,-248,-89,313,165,-249
2,8552843,-3474,-1695,-558,-162,-241,-86,313,165,-249
2,8552856,-3469,-1693,-558,-171,-249,-88,313,165,-249
2,8552868,-3469,-1693,-558,-171,-249,-88,313,165,-249
2,8552880,-3467,-1691,-562,-167,-245,-80,313,165,-249
2,8552893,-3471,-1691,-561,-162,-245,-83,313,165,-249
2,8552906,-3471,-1691,-561,-162,-245,-83,313,165,-249
2,8552920,-3472,-1690,-559,-163,-242,-83,313,171,-251
2,8552932,-3472,-1690,-559,-163,-242,-83,313,171,-251
2,8552940,-3472,-1690,-559,-163,-242,-83,313,171,-251
2,8552950,-3472,-1690,-559,-163,-242,-83,313,171,-251
2,8552958,-3470,-1692,-566,-163,-246,-84,313,171,-251
2,8552967,-3470,-1692,-566,-163,-246,-84,313,171,-251
2,8552975,-3473,-1693,-560,-165,-246,-88,313,171,-251
2,8552983,-3473,-1693,-560,-165,-246,-88,313,171,-251
2,8552991,-3474,-1693,-556,-165,-240,-95,313,171,-251
2,8552999,-3474,-1693,-556,-165,-240,-95,313,171,-251
2,8553009,-3474,-1693,-556,-165,-240,-95,313,171,-251
2,8553016,-3473,-1692,-563,-165,-245,-84,313,171,-251
2,8553024,-3473,-1692,-563,-165,-245,-84,313,171,-251
2,8553032,-3471,-1691,-562,-164,-240,-86,308,170,-244
2,8553041,-3471,-1691,-562,-164,-240,-86,308,170,-244
2,8553050,-3471,-1691,-562,-164,-240,-86,308,170,-244
2,8553063,-3472,-1694,-559,-167,-244,-85,308,170,-244
2,8553074,-3470,-1692,-557,-164,-243,-83,308,170,-244
2,8553088,-3470,-1692,-557,-164,-243,-83,308,170,-244
2,8553100,-3470,-1690,-557,-166,-247,-81,308,170,-244
2,8553113,-3466,-1694,-561,-163,-239,-88,308,170,-244
2,8553126,-3466,-1694,-561,-163,-239,-88,308,170,-244
2,8553139,-3469,-1693,-563,-165,-238,-86,308,170,-244
2,8553153,-3470,-1692,-559,-155,-237,-79,308,170,-244
2,8553165,-3470,-1692,-559,-155,-237,-79,308,170,-244
2,8553178,-3467,-1691,-558,-161,-232,-85,314,162,-242
2,8553189,-3467,-1691,-558,-161,-232,-85,314,162,-242
2,8553202,-3468,-1693,-558,-162,-231,-83,314,162,-242
2,8553213,-3469,-1691,-564,-163,-239,-87,314,162,-242
2,8553227,-3469,-1691,-564,-163,-239,-87,314,162,-242
2,8553240,-3470,-1694,-561,-167,-245,-91,314,162,-242
2,8553253,-3468,-1690,-562,-167,-235,-84,314,162,-242
2,8553266,-3468,-1690,-562,-167,-235,-84,314,162,-242
2,8553274,-3473,-1691,-558,-160,-237,-91,314,162,-242
2,8553282,-3473,-1691,-558,-160,-237,-91,314,162,-242
2,8553289,-3473,-1691,-558,-160,-237,-91,314,162,-242
2,8553297,-3469,-1690,-557,-160,-235,-80,317,165,-251
2,8553308,-3469,-1690,-557,-160,-235,-80,317,165,-251
2,8553320,-3472,-1693,-557,-164,-237,-83,317,165,-251
2,8553335,-3472,-1692,-562,-167,-244,-87,317,165,-251
2,8553348,-3472,-1692,-562,-167,-244,-87,317,165,-251
2,8553359,-3472,-1695,-556,-160,-246,-89,317,165,-251
2,8553371,-3472,-1695,-556,-160,-246,-89,317,165,-251
2,8553383,-3471,-1692,-560,-168,-247,-94,317,165,-251
2,8553397,-3471,-1693,-565,-162,-242,-85,317,165,-251
2,8553409,-3471,-1693,-565,-162,-242,-85,317,165,-251
2,8553421,-3470,-1691,-557,-162,-235,-86,318,170,-244
2,8553430,-3470,-1691,-557,-162,-235,-86,318,170,-244
2,8553436,-3470,-1691,-562,-160,-237,-85,318,170,-244
2,8553443,-3470,-1691,-562,-160,-237,-85,318,170,-244
2,8553450,-3470,-1691,-562,-160,-237,-85,318,170,-244
2,8553458,-3470,-1690,-562,-162,-244,-82,318,170,-244
2,8553464,-3470,-1690,-562,-162,-244,-82,318,170,-244
2,8553472,-3470,-1690,-562,-162,-244,-82,318,170,-244
2,8553479,-3471,-1695,-556,-159,-245,-85,318,170,-244
2,8553486,-3471,-1695,-556,-159,-245,-85,318,170,-244
2,8553492,-3471,-1693,-557,-163,-247,-84,318,170,-244
2,8553500,-3471,-1693,-557,-163,-247,-84,318,170,-244
2,8553506,-3471,-1693,-557,-163,-247,-84,318,170,-244
2,8553516,-3472,-1695,-558,-170,-251,-88,318,170,-244
2,8553523,-3472,-1695,-558,-170,-251,-88,318,170,-244
2,8553529,-3472,-1695,-558,-170,-251,-88,318,170,-244
2,8553536,-3472,-1691,-556,-166,-242,-85,316,164,-248
2,8553543,-3472,-1691,-556,-166,-242,-85,316,164,-248
2,8553550,-3472,-1691,-556,-166,-242,-85,316,164,-248
2,8553556,-3471,-1691,-557,-165,-249,-93,316,164,-248
2,8553564,-3471,-1691,-557,-165,-249,-93,316,164,-248
2,8553572,-3471,-1691,-557,-165,-249,-93,316,164,-248
2,8553579,-3470,-1690,-563,-163,-245,-91,316,164,-248
2,8553586,-3470,-1690,-563,-163,-245,-91,316,164,-248
2,8553593,-3471,-1692,-562,-161,-245,-89,316,164,-248
2,8553601,-3471,-1692,-562,-161,-245,-89,316,164,-248
2,8553607,-3471,-1692,-562,-161,-245,-89,316,164,-248
2,8553615,-3472,-1695,-565,-166,-248,-89,316,164,-248
2,8553623,-3472,-1695,-565,-166,-248,-89,316,164,-248
2,8553630,-3472,-1695,-565,-166,-248,-89,316,164,-248
2,8553637,-3469,-1693,-559,-162,-240,-82,316,164,-248
2,8553644,-3469,-1693,-559,-162,-240,-82,316,164,-248
2,8553652,-3469,-1693,-559,-162,-240,-82,316,164,-248
2,8553657,-3471,-1692,-565,-159,-238,-83,309,171,-249
2,8553665,-3471,-1692,-565,-159,-238,-83,309,171,-249
2,8553673,-3471,-1694,-563,-160,-241,-85,309,171,-249
2,8553680,-3471,-1694,-563,-160,-241,-85,309,171,-249
2,8553687,-3471,-1694,-563,-160,-241,-85,309,171,-249
2,8553694,-3468,-1693,-559,-163,-243,-87,309,171,-249
2,8553700,-3468,-1693,-559,-163,-243,-87,309,171,-249
2,8553707,-3468,-1693,-559,-163,-243,-87,309,171,-249
2,8553715,-3471,-1690,-563,-158,-241,-80,309,171,-249
2,8553722,-3471,-1690,-563,-158,-241,-80,309,171,-249
2,8553731,-3471,-1690,-563,-158,-241,-80,309,171,-249
2,8553736,-3471,-1693,-560,-157,-241,-84,309,171,-249
2,8553741,-3471,-1693,-560,-157,-241,-84,309,171,-249
2,8553746,-3471,-1693,-560,-157,-241,-84,309,171,-249
2,8553751,-3471,-1693,-560,-157,-241,-84,309,171,-249
2,8553758,-3470,-1691,-558,-166,-248,-93,309,171,-249
2,8553763,-3470,-1691,-558,-166,-248,-93,309,171,-249
2,8553769,-3470,-1691,-558,-166,-248,-93,309,171,-249
2,8553775,-3471,-1691,-561,-168,-250,-88,309,171,-249
2,8553781,-3471,-1691,-561,-168,-250,-88,309,171,-249
2,8553786,-3471,-1691,-561,-168,-250,-88,309,171,-249
2,8553793,-3471,-1689,-557,-171,-243,-82,317,173,-241
2,8553798,-3471,-1689,-557,-171,-243,-82,317,173,-241
2,8553803,-3471,-1689,-557,-171,-243,-82,317,173,-241
2,8553809,-3471,-1689,-557,-171,-243,-82,317,173,-241
2,8553817,-3470,-1693,-559,-165,-242,-87,317,173,-241
2,8553823,-3470,-1693,-559,-165,-242,-87,317,173,-241
2,8553831,-3470,-1693,-559,-165,-242,-87,317,173,-241
2,8553837,-3471,-1694,-559,-160,-245,-88,317,173,-241
2,8553843,-3471,-1694,-559,-160,-245,-88,317,173,-241
2,8553850,-3471,-1694,-559,-160,-245,-88,317,173,-241
2,8553858,-3469,-1693,-557,-167,-247,-83,317,173,-241
2,8553866,-3469,-1693,-557,-167,-247,-83,317,173,-241
2,8553874,-3468,-1693,-560,-166,-238,-81,317,173,-241
2,8553882,-3468,-1693,-560,-166,-238,-81,317,173,-241
2,8553888,-3468,-1693,-560,-166,-238,-81,317,173,-241
2,8553895,-3471,-1691,-553,-154,-239,-79,317,173,-241
2,8553903,-3471,-1691,-553,-154,-239,-79,317,173,-241
2,8553911,-3471,-1691,-553,-154,-239,-79,317,173,-241
2,8553917,-3472,-1691,-561,-160,-240,-81,310,168,-240
2,8553924,-3472,-1691,-561,-160,-240,-81,310,168,-240
2,8553932,-3471,-1691,-560,-162,-230,-85,310,168,-240
2,8553939,-3471,-1691,-560,-162,-230,-85,310,168,-240
2,8553947,-3471,-1691,-560,-162,-230,-85,310,168,-240
2,8553952,-3471,-1691,-560,-162,-230,-85,310,168,-240
2,8553957,-3470,-1692,-558,-161,-240,-81,310,168,-240
2,8553962,-3470,-1692,-558,-161,-240,-81,310,168,-240
2,8553967,-3470,-1692,-558,-161,-240,-81,310,168,-240
2,8553972,-3473,-1692,-563,-161,-245,-83,310,168,-240
2,8553977,-3473,-1692,-563,-161,-245,-83,310,168,-240
2,8553982,-3473,-1692,-563,-161,-245,-83,310,168,-240
2,8553989,-3473,-1692,-563,-161,-245,-83,310,168,-240
2,8553996,-3470,-1692,-562,-165,-247,-85,310,168,-240
2,8554003,-3470,-1692,-562,-165,-247,-85,310,168,-240
2,8554009,-3470,-1692,-562,-165,-247,-85,310,168,-240
2,8554017,-3469,-1691,-564,-165,-239,-86,310,168,-240
2,8554024,-3469,-1691,-564,-165,-239,-86,310,168,-240
2,8554032,-3469,-1691,-564,-165,-239,-86,310,168,-240
2,8554038,-3473,-1688,-554,-166,-237,-89,322,170,-248
2,8554045,-3473,-1688,-554,-166,-237,-89,322,170,-248
2,8554052,-3473,-1688,-554,-166,-237,-89,322,170,-248
2,8554058,-3473,-1693,-557,-174,-234,-91,322,170,-248
2,8554065,-3473,-1693,-557,-174,-234,-91,322,170,-248
2,8554072,-3473,-1693,-557,-174,-234,-91,322,170,-248
2,8554079,-3471,-1693,-558,-171,-240,-92,322,170,-248
2,8554086,-3471,-1693,-558,-171,-240,-92,322,170,-248
2,8554092,-3471,-1693,-558,-171,-240,-92,322,170,-248
2,8554100,-3471,-1693,-562,-166,-247,-86,322,170,-248
2,8554108,-3471,-1693,-562,-166,-247,-86,322,170,-248
2,8554116,-3472,-1691,-559,-169,-242,-83,322,170,-248
2,8554122,-3472,-1691,-559,-169,-242,-83,322,170,-248
2,8554129,-3472,-1691,-559,-169,-242,-83,322,170,-248
2,8554136,-3471,-1693,-559,-168,-243,-78,322,170,-248
2,8554143,-3471,-1693,-559,-168,-243,-78,322,170,-248
2,8554150,-3471,-1693,-559,-168,-243,-78,322,170,-248
2,8554159,-3471,-1693,-559,-168,-243,-78,317,171,-247
2,8554166,-3471,-1693,-559,-168,-243,-78,317,171,-247
2,8554171,-3471,-1693,-559,-168,-243,-78,317,171,-247
2,8554176,-3474,-1693,-557,-170,-250,-82,317,171,-247
2,8554181,-3474,-1693,-557,-170,-250,-82,317,171,-247
2,8554187,-3474,-1693,-557,-170,-250,-82,317,171,-247
2,8554193,-3469,-1689,-557,-170,-247,-81,317,171,-247
2,8554202,-3469,-1689,-557,-170,-247,-81,317,171,-247
2,8554209,-3469,-1689,-557,-170,-247,-81,317,171,-247
2,8554216,-3473,-1690,-560,-172,-246,-85,317,171,-247
2,8554223,-3473,-1690,-560,-172,-246,-85,317,171,-247
2,8554230,-3473,-1690,-560,-172,-246,-85,317,171,-247
2,8554237,-3468,-1690,-561,-170,-241,-85,317,171,-247
2,8554247,-3468,-1690,-561,-170,-241,-85,317,171,-247
2,8554253,-3472,-1695,-559,-164,-246,-82,317,171,-247
2,8554259,-3472,-1695,-559,-164,-246,-82,317,171,-247
2,8554267,-3472,-1695,-559,-164,-246,-82,317,171,-247
2,8554275,-3470,-1693,-561,-163,-244,-75,313,167,-245
2,8554280,-3470,-1693,-561,-163,-244,-75,313,167,-245
2,8554288,-3470,-1693,-561,-163,-244,-75,313,167,-245
2,8554294,-3474,-1692,-563,-163,-242,-86,313,167,-245
2,8554302,-3474,-1692,-563,-163,-242,-86,313,167,-245
2,8554310,-3474,-1692,-563,-163,-242,-86,313,167,-245
2,8554318,-3470,-1694,-559,-161,-252,-86,313,167,-245
2,8554324,-3470,-1694,-559,-161,-252,-86,313,167,-245
2,8554332,-3470,-1694,-559,-161,-252,-86,313,167,-245
2,8554339,-3471,-1692,-561,-162,-249,-81,313,167,-245
2,8554344,-3471,-1692,-561,-162,-249,-81,313,167,-245
2,8554352,-3471,-1692,-561,-162,-249,-81,313,167,-245
2,8554359,-3470,-1692,-561,-160,-244,-87,313,167,-245
2,8554368,-3470,-1692,-561,-160,-244,-87,313,167,-245
2,8554375,-3473,-1693,-560,-158,-239,-85,313,167,-245
2,8554380,-3473,-1693,-560,-158,-239,-85,313,167,-245
2,8554387,-3473,-1693,-560,-158,-239,-85,313,167,-245
2,8554395,-3471,-1693,-567,-159,-246,-87,313,167,-245
2,8554402,-3471,-1693,-567,-159,-246,-87,313,167,-245
2,8554409,-3471,-1693,-567,-159,-246,-87,313,167,-245
2,8554418,-3469,-1693,-555,-164,-250,-84,312,170,-250
2,8554425,-3469,-1693,-555,-164,-250,-84,312,170,-250
2,8554436,-3472,-1691,-557,-160,-241,-86,312,170,-250
2,8554448,-3472,-1691,-557,-160,-241,-86,312,170,-250
2,8554462,-3471,-1689,-558,-162,-247,-87,312,170,-250
2,8554474,-3471,-1691,-562,-165,-243,-80,312,170,-250
2,8554486,-3471,-1691,-562,-165,-243,-80,312,170,-250
2,8554499,-3470,-1693,-559,-165,-248,-92,312,170,-250
2,8554512,-3470,-1693,-559,-165,-248,-92,312,170,-250
2,8554524,-3473,-1690,-562,-157,-243,-82,312,170,-250
2,8554536,-3474,-1691,-558,-160,-238,-87,311,173,-249
2,8554549,-3474,-1691,-558,-160,-238,-87,311,173,-249
2,8554562,-3471,-1693,-558,-167,-241,-92,311,173,-249
2,8554574,-3473,-1690,-558,-167,-239,-86,311,173,-249
2,8554585,-3473,-1690,-558,-167,-239,-86,311,173,-249
2,8554595,-3471,-1691,-560,-159,-242,-79,311,173,-249
2,8554609,-3471,-1691,-560,-159,-242,-79,311,173,-249
2,8554621,-3469,-1693,-558,-164,-250,-79,311,173,-249
2,8554632,-3469,-1693,-558,-164,-250,-79,311,173,-249
2,8554644,-3471,-1697,-561,-162,-246,-83,311,173,-249
2,8554657,-3473,-1694,-557,-162,-246,-86,316,174,-240
2,8554670,-3473,-1694,-557,-162,-246,-86,316,174,-240
2,8554681,-3471,-1694,-560,-164,-247,-89,316,174,-240
2,8554692,-3471,-1694,-560,-164,-247,-89,316,174,-240
2,8554700,-3473,-1691,-560,-163,-239,-83,316,174,-240
2,8554708,-3473,-1691,-560,-163,-239,-83,316,174,-240
2,8554717,-3471,-1692,-562,-163,-242,-79,316,174,-240
2,8554729,-3471,-1692,-562,-163,-242,-79,316,174,-240
2,8554737,-3472,-1692,-560,-173,-245,-79,316,174,-240
2,8554745,-3472,-1692,-560,-173,-245,-79,316,174,-240
2,8554754,-3472,-1693,-562,-166,-251,-84,316,174,-240
2,8554762,-3472,-1693,-562,-166,-251,-84,316,174,-240
2,8554771,-3472,-1693,-562,-166,-251,-84,316,174,-240
2,8554780,-3472,-1693,-558,-156,-247,-78,310,170,-242
2,8554790,-3472,-1693,-558,-156,-247,-78,310,170,-242
2,8554799,-3468,-1693,-561,-163,-237,-86,310,170,-242
2,8554809,-3468,-1693,-561,-163,-237,-86,310,170,-242
2,8554822,-3473,-1695,-560,-159,-240,-83,310,170,-242
2,8554831,-3473,-1695,-560,-159,-240,-83,310,170,-242
2,8554846,-3472,-1692,-559,-153,-246,-81,310,170,-242
2,8554857,-3471,-1691,-559,-160,-250,-80,310,170,-242
2,8554870,-3471,-1691,-559,-160,-250,-80,310,170,-242
2,8554884,-3469,-1690,-563,-164,-244,-87,310,170,-242
2,8554898,-3470,-1690,-559,-162,-253,-87,313,161,-251
2,8554910,-3470,-1690,-559,-162,-253,-87,313,161,-251
2,8554925,-3473,-1693,-555,-162,-249,-80,313,161,-251
2,8554937,-3470,-1692,-559,-162,-246,-78,313,161,-251
2,8554949,-3470,-1692,-559,-162,-246,-78,313,161,-251
2,8554958,-3471,-1690,-560,-154,-240,-77,313,161,-251
2,8554967,-3471,-1690,-560,-154,-240,-77,313,161,-251
2,8554975,-3472,-1694,-561,-164,-239,-92,313,161,-251
2,8554983,-3472,-1694,-561,-164,-239,-92,313,161,-251
2,8554991,-3472,-1694,-561,-164,-239,-92,313,161,-251
2,8554999,-3471,-1693,-558,-162,-244,-86,313,161,-251
2,8555008,-3471,-1693,-558,-162,-244,-86,313,161,-251
2,8555016,-3472,-1692,-559,-155,-247,-81,313,161,-251
2,8555024,-3472,-1692,-559,-155,-247,-81,313,161,-251
2,8555032,-3472,-1692,-559,-155,-247,-81,313,161,-251
2,8555040,-3471,-1690,-558,-164,-249,-86,312,172,-248
2,8555048,-3471,-1690,-558,-164,-249,-86,312,172,-248
2,8555057,-3472,-1695,-563,-168,-244,-88,312,172,-248
2,8555065,-3472,-1695,-563,-168,-244,-88,312,172,-248
2,8555073,-3472,-1695,-563,-168,-244,-88,312,172,-248
2,8555081,-3471,-1694,-564,-162,-249,-90,312,172,-248
2,8555090,-3471,-1694,-564,-162,-249,-90,312,172,-248
2,8555099,-3469,-1690,-560,-163,-238,-89,312,172,-248
2,8555108,-3469,-1690,-560,-163,-238,-89,312,172,-248
2,8555117,-3473,-1693,-564,-161,-252,-86,312,172,-248
2,8555127,-3473,-1693,-564,-161,-252,-86,312,172,-248
2,8555137,-3472,-1691,-568,-161,-247,-89,312,172,-248
2,8555147,-3472,-1691,-568,-161,-247,-89,312,172,-248
2,8555160,-3470,-1693,-561,-168,-249,-82,315,167,-243
2,8555169,-3470,-1693,-561,-168,-249,-82,315,167,-243
2,8555182,-3475,-1694,-559,-159,-241,-78,315,167,-243
2,8555194,-3469,-1692,-564,-160,-241,-80,315,167,-243
2,8555207,-3469,-1692,-564,-160,-241,-80,315,167,-243
2,8555217,-3469,-1692,-561,-158,-241,-87,315,167,-243
2,8555230,-3469,-1692,-561,-158,-241,-87,315,167,-243
2,8555243,-3473,-1692,-563,-161,-241,-80,315,167,-243
2,8555256,-3471,-1692,-562,-162,-244,-76,315,167,-243
2,8555267,-3471,-1692,-562,-162,-244,-76,315,167,-243
2,8555279,-3472,-1691,-561,-162,-240,-77,309,171,-247
2,8555287,-3472,-1691,-561,-162,-240,-77,309,171,-247
2,8555296,-3473,-1693,-558,-164,-244,-83,309,171,-247
2,8555304,-3473,-1693,-558,-164,-244,-83,309,171,-247
2,8555313,-3473,-1693,-558,-164,-244,-83,309,171,-247
2,8555321,-3472,-1693,-561,-163,-243,-81,309,171,-247
2,8555331,-3472,-1693,-561,-163,-243,-81,309,171,-247
2,8555340,-3470,-1692,-559,-167,-237,-84,309,171,-247
2,8555350,-3470,-1692,-559,-167,-237,-84,309,171,-247
2,8555361,-3470,-1691,-563,-165,-235,-84,309,171,-247
2,8555369,-3470,-1691,-563,-165,-235,-84,309,171,-247
2,8555378,-3468,-1693,-565,-161,-235,-85,309,171,-247
2,8555390,-3468,-1693,-565,-161,-235,-85,309,171,-247
2,8555403,-3470,-1692,-554,-164,-233,-84,317,177,-243
2,8555416,-3470,-1695,-556,-166,-240,-85,317,177,-243
2,8555428,-3470,-1695,-556,-166,-240,-85,317,177,-243
2,8555438,-3472,-1693,-555,-169,-248,-82,317,177,-243
2,8555445,-3472,-1693,-555,-169,-248,-82,317,177,-243
2,8555452,-3472,-1693,-555,-169,-248,-82,317,177,-243
2,8555459,-3471,-1695,-565,-165,-252,-88,317,177,-243
2,8555466,-3471,-1695,-565,-165,-252,-88,317,177,-243
2,8555474,-3467,-1693,-558,-162,-246,-90,317,177,-243
2,8555483,-3467,-1693,-558,-162,-246,-90,317,177,-243
2,8555491,-3467,-1693,-558,-162,-246,-90,317,177,-243
2,8555499,-3470,-1693,-561,-160,-250,-86,317,177,-243
2,8555505,-3470,-1693,-561,-160,-250,-86,317,177,-243
2,8555513,-3470,-1693,-561,-160,-250,-86,317,177,-243
2,8555521,-3468,-1692,-558,-161,-238,-79,312,168,-248
2,8555527,-3468,-1692,-558,-161,-238,-79,312,168,-248
2,8555535,-3471,-1692,-557,-160,-238,-79,312,168,-248
2,8555543,-3471,-1692,-557,-160,-238,-79,312,168,-248
2,8555550,-3471,-1692,-557,-160,-238,-79,312,168,-248
2,8555557,-3470,-1693,-558,-160,-239,-80,312,168,-248
2,8555565,-3470,-1693,-558,-160,-239,-80,312,168,-248
2,8555572,-3470,-1693,-558,-160,-239,-80,312,168,-248
2,8555579,-3471,-1694,-561,-162,-247,-81,312,168,-248
2,8555584,-3471,-1694,-561,-162,-247,-81,312,168,-248
2,8555592,-3471,-1694,-561,-162,-247,-81,312,168,-248
2,8555599,-3472,-1691,-559,-164,-248,-85,312,168,-248
2,8555608,-3472,-1691,-559,-164,-248,-85,312,168,-248
2,8555616,-3470,-1692,-560,-160,-247,-88,312,168,-248
2,8555621,-3470,-1692,-560,-160,-247,-88,312,168,-248
2,8555628,-3470,-1692,-560,-160,-247,-88,312,168,-248
2,8555636,-3471,-1694,-563,-165,-251,-82,312,168,-248
2,8555643,-3471,-1694,-563,-165,-251,-82,312,168,-248
2,8555650,-3471,-1694,-563,-165,-251,-82,312,168,-248
2,8555659,-3468,-1694,-556,-166,-243,-79,319,167,-249
2,8555666,-3468,-1694,-556,-166,-243,-79,319,167,-249
2,8555673,-3468,-1694,-556,-166,-243,-79,319,167,-249
2,8555679,-3469,-1691,-558,-170,-248,-85,319,167,-249
2,8555685,-3469,-1691,-558,-170,-248,-85,319,167,-249
2,8555693,-3469,-1691,-558,-170,-248,-85,319,167,-249
2,8555701,-3472,-1692,-562,-168,-246,-83,319,167,-249
2,8555708,-3472,-1692,-562,-168,-246,-83,319,167,-249
2,8555714,-3475,-1691,-566,-164,-246,-82,319,167,-249
2,8555722,-3475,-1691,-566,-164,-246,-82,319,167,-249
2,8555728,-3475,-1691,-566,-164,-246,-82,319,167,-249
2,8555735,-3473,-1690,-563,-174,-249,-84,319,167,-249
2,8555740,-3473,-1690,-563,-174,-249,-84,319,167,-249
2,8555745,-3473,-1690,-563,-174,-249,-84,319,167,-249
2,8555750,-3473,-1690,-563,-174,-249,-84,319,167,-249
2,8555756,-3471,-1689,-561,-165,-240,-85,319,167,-249
2,8555762,-3471,-1689,-561,-165,-240,-85,319,167,-249
2,8555768,-3471,-1689,-561,-165,-240,-85,319,167,-249
2,8555776,-3470,-1692,-561,-159,-245,-81,315,155,-245
2,8555782,-3470,-1692,-561,-159,-245,-81,315,155,-245
2,8555789,-3470,-1692,-561,-159,-245,-81,315,155,-245
2,8555796,-3471,-1695,-558,-157,-242,-85,315,155,-245
2,8555802,-3471,-1695,-558,-157,-242,-85,315,155,-245
2,8555810,-3471,-1695,-558,-157,-242,-85,315,155,-245
2,8555817,-3471,-1692,-561,-165,-245,-81,315,155,-245
2,8555826,-3471,-1692,-561,-165,-245,-81,315,155,-245
2,8555834,-3471,-1692,-561,-165,-245,-81,315,155,-245
2,8555841,-3473,-1692,-562,-163,-237,-84,315,155,-245
2,8555847,-3473,-1692,-562,-163,-237,-84,315,155,-245
2,8555854,-3472,-1692,-558,-164,-240,-81,315,155,-245
2,8555862,-3472,-1692,-558,-164,-240,-81,315,155,-245
2,8555869,-3472,-1692,-558,-164,-240,-81,315,155,-245
2,8555874,-3472,-1692,-558,-164,-240,-81,315,155,-245
2,8555879,-3472,-1694,-564,-167,-243,-83,315,155,-245
2,8555885,-3472,-1694,-564,-167,-243,-83,315,155,-245
2,8555892,-3472,-1694,-564,-167,-243,-83,315,155,-245
2,8555899,-3471,-1690,-558,-169,-245,-92,319,169,-243
2,8555908,-3471,-1690,-558,-169,-245,-92,319,169,-243
2,8555914,-3471,-1690,-558,-169,-245,-92,319,169,-243
2,8555920,-3472,-1692,-562,-174,-248,-82,319,169,-243
2,8555927,-3472,-1692,-562,-174,-248,-82,319,169,-243
2,8555935,-3469,-1691,-559,-167,-246,-83,319,169,-243
2,8555942,-3469,-1691,-559,-167,-246,-83,319,169,-243
2,8555950,-3469,-1691,-559,-167,-246,-83,319,169,-243
2,8555955,-3473,-1694,-558,-165,-245,-81,319,169,-243
2,8555961,-3473,-1694,-558,-165,-245,-81,319,169,-243
2,8555966,-3473,-1694,-558,-165,-245,-81,319,169,-243
2,8555971,-3473,-1694,-558,-165,-245,-81,319,169,-243
2,8555976,-3471,-1690,-560,-168,-250,-85,319,169,-243
2,8555981,-3471,-1690,-560,-168,-250,-85,319,169,-243
2,8555987,-3471,-1690,-560,-168,-250,-85,319,169,-243
2,8555994,-3471,-1690,-560,-168,-250,-85,319,169,-243
2,8556001,-3472,-1693,-560,-169,-255,-79,319,169,-243
2,8556007,-3472,-1693,-560,-169,-255,-79,319,169,-243
2,8556014,-3472,-1693,-560,-169,-255,-79,319,169,-243
2,8556019,-3472,-1695,-552,-165,-240,-80,311,159,-249
2,8556026,-3472,-1695,-552,-165,-240,-80,311,159,-249
2,8556034,-3472,-1695,-552,-165,-240,-80,311,159,-249
2,8556042,-3469,-1693,-558,-165,-240,-75,311,159,-249
2,8556049,-3469,-1693,-558,-165,-240,-75,311,159,-249
2,8556056,-3472,-1692,-559,-165,-238,-72,311,159,-249
2,8556063,-3472,-1692,-559,-165,-238,-72,311,159,-249
2,8556071,-3472,-1692,-559,-165,-238,-72,311,159,-249
2,8556078,-3473,-1694,-559,-162,-240,-74,311,159,-249
2,8556085,-3473,-1694,-559,-162,-240,-74,311,159,-249
2,8556091,-3473,-1694,-559,-162,-240,-74,311,159,-249
2,8556099,-3474,-1695,-564,-167,-248,-75,311,159,-249
2,8556106,-3474,-1695,-564,-167,-248,-75,311,159,-249
2,8556113,-3474,-1695,-564,-167,-248,-75,311,159,-249
2,8556121,-3471,-1692,-563,-170,-247,-75,311,159,-249
2,8556128,-3471,-1692,-563,-170,-247,-75,311,159,-249
2,8556135,-3472,-1693,-561,-161,-245,-79,311,159,-249
2,8556141,-3472,-1693,-561,-161,-245,-79,311,173,-247
2,8556148,-3472,-1693,-561,-161,-245,-79,311,173,-247
2,8556156,-3473,-1694,-558,-160,-245,-89,311,173,-247
2,8556163,-3473,-1694,-558,-160,-245,-89,311,173,-247
2,8556170,-3473,-1694,-558,-160,-245,-89,311,173,-247
2,8556178,-3470,-1693,-559,-161,-245,-92,311,173,-247
2,8556185,-3470,-1693,-559,-161,-245,-92,311,173,-247
2,8556194,-3470,-1693,-559,-161,-245,-92,311,173,-247
2,8556201,-3473,-1693,-560,-156,-242,-83,311,173,-247
2,8556207,-3473,-1693,-560,-156,-242,-83,311,173,-247
2,8556214,-3473,-1693,-560,-156,-242,-83,311,173,-247
2,8556220,-3473,-1694,-563,-164,-246,-90,311,173,-247
2,8556227,-3473,-1694,-563,-164,-246,-90,311,173,-247
2,8556234,-3471,-1692,-557,-162,-244,-88,311,173,-247
2,8556239,-3471,-1692,-557,-162,-244,-88,311,173,-247
2,8556248,-3471,-1692,-557,-162,-244,-88,311,173,-247
2,8556254,-3471,-1692,-557,-162,-244,-88,311,173,-247
2,8556262,-3470,-1695,-563,-160,-241,-87,317,167,-247
2,8556270,-3470,-1695,-563,-160,-241,-87,317,167,-247
2,8556276,-3470,-1694,-555,-163,-243,-82,317,167,-247
2,8556282,-3470,-1694,-555,-163,-243,-82,317,167,-247
2,8556290,-3470,-1694,-555,-163,-243,-82,317,167,-247
2,8556297,-3468,-1695,-560,-166,-246,-76,317,167,-247
2,8556304,-3468,-1695,-560,-166,-246,-76,317,167,-247
2,8556312,-3468,-1695,-560,-166,-246,-76,317,167,-247
2,8556318,-3472,-1694,-567,-167,-246,-79,317,167,-247
2,8556325,-3472,-1694,-567,-167,-246,-79,317,167,-247
2,8556333,-3472,-1694,-567,-167,-246,-79,317,167,-247
2,8556340,-3472,-1695,-562,-167,-244,-85,317,167,-247
2,8556347,-3472,-1695,-562,-167,-244,-85,317,167,-247
2,8556354,-3472,-1695,-562,-167,-244,-85,317,167,-247
2,8556359,-3469,-1692,-558,-169,-249,-83,317,167,-247
2,8556364,-3469,-1692,-558,-169,-249,-83,317,167,-247
2,8556369,-3469,-1692,-558,-169,-249,-83,317,167,-247
2,8556377,-3471,-1691,-560,-163,-247,-83,317,167,-247
2,8556383,-3471,-1691,-560,-163,-247,-83,317,167,-247
2,8556389,-3471,-1691,-560,-163,-247,-83,317,167,-247
2,8556396,-3470,-1692,-557,-164,-244,-88,316,162,-244
2,8556404,-3470,-1692,-557,-164,-244,-88,316,162,-244
2,8556411,-3470,-1692,-557,-164,-244,-88,316,162,-244
2,8556420,-3471,-1692,-558,-166,-243,-84,316,162,-244
2,8556425,-3471,-1692,-558,-166,-243,-84,316,162,-244
2,8556432,-3471,-1692,-558,-166,-243,-84,316,162,-244
2,8556439,-3471,-1692,-558,-166,-243,-84,316,162,-244
2,8556451,-3471,-1692,-558,-166,-243,-84,316,162,-244
2,8556462,-3470,-1693,-559,-158,-241,-83,316,162,-244
2,8556475,-3470,-1693,-559,-158,-241,-83,316,162,-244
2,8556488,-3466,-1693,-564,-162,-241,-83,316,162,-244
2,8556503,-3471,-1694,-557,-163,-244,-88,316,162,-244
2,8556515,-3471,-1694,-557,-163,-244,-88,316,162,-244
2,8556528,-3471,-1694,-557,-163,-244,-88,309,169,-253
2,8556541,-3470,-1690,-554,-166,-242,-86,309,169,-253
2,8556555,-3470,-1690,-554,-166,-242,-86,309,169,-253
2,8556567,-3471,-1693,-558,-168,-250,-83,309,169,-253
2,8556579,-3470,-1694,-561,-157,-252,-84,309,169,-253
2,8556593,-3470,-1694,-561,-157,-252,-84,309,169,-253
2,8556606,-3473,-1691,-561,-159,-242,-84,309,169,-253
2,8556619,-3473,-1692,-562,-164,-247,-82,309,169,-253
2,8556632,-3473,-1692,-562,-164,-247,-82,309,169,-253
2,8556644,-3471,-1691,-557,-169,-249,-81,323,163,-253
2,8556656,-3474,-1693,-556,-167,-244,-85,323,163,-253
2,8556672,-3474,-1693,-556,-167,-244,-85,323,163,-253
2,8556684,-3473,-1693,-559,-160,-243,-88,323,163,-253
2,8556693,-3473,-1693,-559,-160,-243,-88,323,163,-253
2,8556705,-3471,-1694,-559,-158,-252,-83,323,163,-253
2,8556720,-3473,-1694,-560,-160,-239,-82,323,163,-253
2,8556729,-3473,-1694,-560,-160,-239,-82,323,163,-253
2,8556737,-3470,-1695,-562,-162,-236,-82,323,163,-253
2,8556744,-3470,-1695,-562,-162,-236,-82,323,163,-253
2,8556752,-3470,-1695,-562,-162,-236,-82,323,163,-253
2,8556761,-3471,-1694,-562,-156,-235,-78,322,164,-246
2,8556771,-3471,-1694,-562,-156,-235,-78,322,164,-246
2,8556780,-3470,-1693,-563,-163,-234,-81,322,164,-246
2,8556788,-3470,-1693,-563,-163,-234,-81,322,164,-246
2,8556797,-3471,-1690,-564,-170,-244,-92,322,164,-246
2,8556806,-3471,-1690,-564,-170,-244,-92,322,164,-246
2,8556815,-3471,-1690,-564,-170,-244,-92,322,164,-246
2,8556826,-3472,-1692,-556,-160,-238,-86,322,164,-246
2,8556839,-3471,-1693,-563,-165,-246,-80,322,164,-246
2,8556853,-3471,-1693,-563,-165,-246,-80,322,164,-246
2,8556865,-3470,-1693,-561,-159,-245,-81,322,164,-246
2,8556875,-3471,-1690,-560,-155,-240,-78,322,164,-246
2,8556887,-3471,-1690,-560,-155,-240,-78,319,167,-249
2,8556896,-3472,-1695,-556,-163,-235,-82,319,167,-249
2,8556907,-3472,-1695,-556,-163,-235,-82,319,167,-249
2,8556919,-3470,-1695,-559,-159,-239,-84,319,167,-249
2,8556929,-3470,-1695,-559,-159,-239,-84,319,167,-249
2,8556937,-3474,-1690,-560,-161,-246,-83,319,167,-249
2,8556945,-3474,-1690,-560,-161,-246,-83,319,167,-249
2,8556953,-3474,-1690,-560,-161,-246,-83,319,167,-249
2,8556961,-3474,-1690,-563,-166,-241,-78,319,167,-249
2,8556968,-3474,-1690,-563,-166,-241,-78,319,167,-249
2,8556977,-3470,-1692,-561,-162,-237,-88,319,167,-249
2,8556985,-3470,-1692,-561,-162,-237,-88,319,167,-249
2,8556994,-3470,-1692,-561,-162,-237,-88,319,167,-249
2,8557001,-3474,-1691,-561,-157,-240,-81,319,167,-249
2,8557009,-3474,-1691,-561,-157,-240,-81,319,167,-249
2,8557018,-3469,-1695,-560,-165,-240,-85,317,175,-245
2,8557026,-3469,-1695,-560,-165,-240,-85,317,175,-245
2,8557033,-3469,-1695,-560,-165,-240,-85,317,175,-245
2,8557041,-3470,-1693,-562,-167,-239,-92,317,175,-245
2,8557049,-3470,-1693,-562,-167,-239,-92,317,175,-245
2,8557058,-3475,-1691,-560,-163,-231,-88,317,175,-245
2,8557067,-3475,-1691,-560,-163,-231,-88,317,175,-245
2,8557075,-3475,-1691,-560,-163,-231,-88,317,175,-245
2,8557083,-3474,-1692,-558,-158,-246,-84,317,175,-245
2,8557091,-3474,-1692,-558,-158,-246,-84,317,175,-245
2,8557101,-3473,-1694,-558,-153,-249,-88,317,175,-245
2,8557110,-3473,-1694,-558,-153,-249,-88,317,175,-245
2,8557118,-3469,-1697,-568,-158,-242,-80,317,175,-245
2,8557127,-3469,-1697,-568,-158,-242,-80,317,175,-245
2,8557137,-3471,-1690,-559,-161,-239,-80,325,173,-239
2,8557147,-3471,-1690,-559,-161,-239,-80,325,173,-239
2,8557157,-3471,-1691,-558,-162,-245,-84,325,173,-239
2,8557169,-3471,-1691,-558,-162,-245,-84,325,173,-239
2,8557181,-3473,-1692,-565,-166,-240,-81,325,173,-239
2,8557195,-3473,-1692,-565,-166,-240,-81,325,173,-239
2,8557208,-3472,-1692,-562,-164,-245,-75,325,173,-239
2,8557219,-3469,-1690,-562,-167,-250,-88,325,173,-239
2,8557231,-3469,-1690,-562,-167,-250,-88,325,173,-239
2,8557243,-3473,-1694,-560,-163,-247,-85,325,173,-239
2,8557256,-3472,-1693,-557,-157,-240,-85,315,163,-245
2,8557267,-3472,-1693,-557,-157,-240,-85,315,163,-245
2,8557278,-3470,-1693,-560,-158,-241,-83,315,163,-245
2,8557291,-3470,-1693,-560,-158,-241,-83,315,163,-245
2,8557304,-3470,-1694,-560,-164,-236,-84,315,163,-245
2,8557313,-3470,-1694,-560,-164,-236,-84,315,163,-245
2,8557325,-3471,-1694,-561,-158,-240,-84,315,163,-245
2,8557337,-3471,-1695,-563,-160,-242,-84,315,163,-245
2,8557350,-3471,-1695,-563,-160,-242,-84,315,163,-245
2,8557361,-3469,-1692,-559,-161,-243,-82,315,163,-245
2,8557374,-3469,-1692,-559,-161,-243,-82,315,163,-245
2,8557386,-3471,-1692,-557,-158,-248,-83,314,174,-248
2,8557395,-3473,-1694,-562,-162,-240,-79,314,174,-248
2,8557408,-3473,-1694,-562,-162,-240,-79,314,174,-248
2,8557422,-3471,-1691,-559,-168,-240,-85,314,174,-248
2,8557430,-3471,-1691,-559,-168,-240,-85,314,174,-248
2,8557443,-3473,-1694,-560,-165,-242,-84,314,174,-248
2,8557452,-3473,-1694,-560,-165,-242,-84,314,174,-248
2,8557458,-3472,-1695,-562,-167,-246,-84,314,174,-248
2,8557464,-3472,-1695,-562,-167,-246,-84,314,174,-248
2,8557471,-3472,-1695,-562,-167,-246,-84,314,174,-248
2,8557477,-3471,-1692,-562,-162,-246,-89,314,174,-248
2,8557484,-3471,-1692,-562,-162,-246,-89,314,174,-248
2,8557488,-3471,-1692,-562,-162,-246,-89,314,174,-248
2,8557494,-3471,-1692,-562,-162,-246,-89,314,174,-248
2,8557503,-3470,-1689,-556,-162,-244,-83,316,166,-246
2,8557510,-3470,-1689,-556,-162,-244,-83,316,166,-246
2,8557517,-3474,-1692,-556,-164,-241,-81,316,166,-246
2,8557523,-3474,-1692,-556,-164,-241,-81,316,166,-246
2,8557530,-3474,-1692,-556,-164,-241,-81,316,166,-246
2,8557537,-3471,-1693,-561,-160,-245,-86,316,166,-246
2,8557545,-3471,-1693,-561,-160,-245,-86,316,166,-246
2,8557551,-3471,-1693,-561,-160,-245,-86,316,166,-246
2,8557557,-3473,-1691,-563,-169,-240,-86,316,166,-246
2,8557564,-3473,-1691,-563,-169,-240,-86,316,166,-246
2,8557572,-3473,-1691,-563,-169,-240,-86,316,166,-246
2,8557578,-3469,-1691,-563,-168,-247,-88,316,166,-246
2,8557585,-3469,-1691,-563,-168,-247,-88,316,166,-246
2,8557593,-3469,-1691,-563,-168,-247,-88,316,166,-246
2,8557600,-3471,-1694,-562,-164,-241,-84,316,166,-246
2,8557607,-3471,-1694,-562,-164,-241,-84,316,166,-246
2,8557615,-3471,-1694,-562,-164,-241,-84,316,166,-246
2,8557622,-3472,-1694,-563,-167,-241,-83,316,166,-246
2,8557628,-3472,-1694,-563,-167,-241,-83,316,166,-246
2,8557636,-3471,-1694,-557,-167,-246,-83,315,173,-249
2,8557643,-3471,-1694,-557,-167,-246,-83,315,173,-249
2,8557650,-3471,-1694,-557,-167,-246,-83,315,173,-249
2,8557658,-3470,-1693,-561,-161,-244,-80,315,173,-249
2,8557665,-3470,-1693,-561,-161,-244,-80,315,173,-249
2,8557672,-3470,-1693,-561,-161,-244,-80,315,173,-249
2,8557678,-3473,-1690,-558,-160,-250,-84,315,173,-249
2,8557686,-3473,-1690,-558,-160,-250,-84,315,173,-249
2,8557694,-3473,-1690,-558,-160,-250,-84,315,173,-249
2,8557703,-3472,-1689,-560,-164,-243,-81,315,173,-249
2,8557710,-3472,-1689,-560,-164,-243,-81,315,173,-249
2,8557717,-3472,-1692,-558,-163,-238,-76,315,173,-249
2,8557723,-3472,-1692,-558,-163,-238,-76,315,173,-249
2,8557730,-3472,-1692,-558,-163,-238,-76,315,173,-249
2,8557735,-3472,-1692,-558,-163,-238,-76,315,173,-249
2,8557741,-3471,-1692,-565,-160,-242,-77,315,173,-249
2,8557747,-3471,-1692,-565,-160,-242,-77,315,173,-249
2,8557752,-3471,-1692,-565,-160,-242,-77,315,173,-249
2,8557757,-3473,-1692,-556,-167,-241,-85,316,170,-250
2,8557763,-3473,-1692,-556,-167,-241,-85,316,170,-250
2,8557770,-3473,-1692,-556,-167,-241,-85,316,170,-250
2,8557777,-3477,-1693,-561,-165,-246,-82,316,170,-250
2,8557786,-3477,-1693,-561,-165,-246,-82,316,170,-250
2,8557792,-3477,-1693,-561,-165,-246,-82,316,170,-250
2,8557799,-3478,-1695,-560,-158,-243,-77,316,170,-250
2,8557807,-3478,-1695,-560,-158,-243,-77,316,170,-250
2,8557814,-3478,-1695,-560,-158,-243,-77,316,170,-250
2,8557821,-3469,-1692,-558,-166,-248,-82,316,170,-250
2,8557828,-3469,-1692,-558,-166,-248,-82,316,170,-250
2,8557836,-3471,-1696,-563,-166,-247,-77,316,170,-250
2,8557843,-3471,-1696,-563,-166,-247,-77,316,170,-250
2,8557849,-3471,-1696,-563,-166,-247,-77,316,170,-250
2,8557857,-3470,-1692,-571,-164,-248,-76,316,170,-250
2,8557865,-3470,-1692,-571,-164,-248,-76,316,170,-250
2,8557872,-3470,-1692,-571,-164,-248,-76,316,170,-250
2,8557879,-3471,-1693,-560,-162,-243,-87,316,166,-242
2,8557886,-3471,-1693,-560,-162,-243,-87,316,166,-242
2,8557892,-3471,-1693,-560,-162,-243,-87,316,166,-242
2,8557899,-3471,-1693,-561,-170,-244,-82,316,166,-242
2,8557906,-3471,-1693,-561,-170,-244,-82,316,166,-242
2,8557913,-3471,-1693,-561,-170,-244,-82,316,166,-242
2,8557921,-3468,-1692,-564,-166,-239,-87,316,166,-242
2,8557929,-3468,-1692,-564,-166,-239,-87,316,166,-242
2,8557935,-3468,-1692,-564,-166,-239,-87,316,166,-242
2,8557940,-3470,-1695,-563,-162,-235,-85,316,166,-242
2,8557945,-3470,-1695,-563,-162,-235,-85,316,166,-242
2,8557950,-3470,-1695,-563,-162,-235,-85,316,166,-242
2,8557956,-3470,-1695,-563,-162,-235,-85,316,166,-242
2,8557961,-3474,-1692,-564,-163,-237,-79,316,166,-242
2,8557966,-3474,-1692,-564,-163,-237,-79,316,166,-242
2,8557971,-3474,-1692,-564,-163,-237,-79,316,166,-242
2,8557977,-3473,-1690,-563,-169,-243,-83,316,166,-242
2,8557982,-3473,-1690,-563,-169,-243,-83,316,166,-242
2,8557987,-3473,-1690,-563,-169,-243,-83,316,166,-242
2,8557993,-3473,-1690,-563,-169,-243,-83,316,166,-242
2,8558002,-3470,-1694,-562,-167,-244,-81,323,169,-245
2,8558009,-3470,-1694,-562,-167,-244,-81,323,169,-245
2,8558014,-3470,-1694,-562,-167,-244,-81,323,169,-245
2,8558022,-3471,-1692,-565,-162,-242,-86,323,169,-245
2,8558029,-3471,-1692,-565,-162,-242,-86,323,169,-245
2,8558036,-3474,-1691,-562,-162,-243,-93,323,169,-245
2,8558045,-3474,-1691,-562,-162,-243,-93,323,169,-245
2,8558051,-3474,-1691,-562,-162,-243,-93,323,169,-245
2,8558058,-3469,-1695,-562,-160,-244,-86,323,169,-245
2,8558064,-3469,-1695,-562,-160,-244,-86,323,169,-245
2,8558071,-3469,-1695,-562,-160,-244,-86,323,169,-245
2,8558080,-3470,-1695,-562,-161,-247,-81,323,169,-245
2,8558085,-3470,-1695,-562,-161,-247,-81,323,169,-245
2,8558092,-3470,-1695,-562,-161,-247,-81,323,169,-245
2,8558100,-3473,-1694,-562,-158,-248,-87,323,169,-245
2,8558107,-3473,-1694,-562,-158,-248,-87,323,169,-245
2,8558113,-3473,-1694,-562,-158,-248,-87,323,169,-245
2,8558121,-3473,-1697,-558,-167,-240,-84,308,172,-248
2,8558129,-3473,-1697,-558,-167,-240,-84,308,172,-248
2,8558136,-3473,-1697,-558,-167,-240,-84,308,172,-248
2,8558143,-3468,-1695,-560,-161,-242,-87,308,172,-248
2,8558150,-3468,-1695,-560,-161,-242,-87,308,172,-248
2,8558155,-3468,-1695,-560,-161,-242,-87,308,172,-248
2,8558162,-3473,-1691,-562,-164,-251,-88,308,172,-248
2,8558171,-3473,-1691,-562,-164,-251,-88,308,172,-248
2,8558178,-3475,-1693,-564,-164,-246,-86,308,172,-248
2,8558184,-3475,-1693,-564,-164,-246,-86,308,172,-248
2,8558191,-3475,-1693,-564,-164,-246,-86,308,172,-248
2,8558199,-3473,-1699,-561,-164,-243,-89,308,172,-248
2,8558206,-3473,-1699,-561,-164,-243,-89,308,172,-248
2,8558213,-3473,-1699,-561,-164,-243,-89,308,172,-248
2,8558220,-3473,-1693,-559,-169,-234,-85,308,172,-248
2,8558227,-3473,-1693,-559,-169,-234,-85,308,172,-248
2,8558233,-3473,-1693,-559,-169,-234,-85,308,172,-248
2,8558240,-3471,-1692,-561,-168,-239,-80,308,172,-248
2,8558247,-3471,-1692,-561,-168,-239,-80,308,172,-248
2,8558255,-3471,-1692,-561,-168,-239,-80,308,172,-248
2,8558262,-3471,-1693,-553,-160,-243,-88,321,165,-241
2,8558269,-3471,-1693,-553,-160,-243,-88,321,165,-241
2,8558275,-3471,-1693,-553,-160,-243,-88,321,165,-241
2,8558281,-3470,-1691,-561,-162,-241,-89,321,165,-241
2,8558289,-3470,-1691,-561,-162,-241,-89,321,165,-241
2,8558298,-3473,-1692,-564,-166,-241,-88,321,165,-241
2,8558305,-3473,-1692,-564,-166,-241,-88,321,165,-241
2,8558311,-3473,-1692,-564,-166,-241,-88,321,165,-241
2,8558318,-3471,-1695,-564,-170,-244,-86,321,165,-241
2,8558324,-3471,-1695,-564,-170,-244,-86,321,165,-241
2,8558331,-3471,-1695,-564,-170,-244,-86,321,165,-241
2,8558340,-3470,-1696,-561,-167,-243,-83,321,165,-241
2,8558348,-3470,-1696,-561,-167,-243,-83,321,165,-241
2,8558355,-3470,-1696,-561,-167,-243,-83,321,165,-241
2,8558363,-3470,-1693,-564,-163,-251,-80,321,165,-241
2,8558369,-3470,-1693,-564,-163,-251,-80,321,165,-241
2,8558377,-3473,-1692,-557,-160,-249,-78,307,167,-247
2,8558385,-3473,-1692,-557,-160,-249,-78,307,167,-247
2,8558392,-3473,-1692,-557,-160,-249,-78,307,167,-247
2,8558399,-3474,-1693,-562,-166,-252,-84,307,167,-247
2,8558404,-3474,-1693,-562,-166,-252,-84,307,167,-247
2,8558409,-3474,-1693,-562,-166,-252,-84,307,167,-247
2,8558414,-3474,-1693,-562,-166,-252,-84,307,167,-247
2,8558422,-3472,-1693,-559,-161,-248,-89,307,167,-247
2,8558428,-3472,-1693,-559,-161,-248,-89,307,167,-247
2,8558436,-3472,-1693,-559,-161,-248,-89,307,167,-247
2,8558442,-3474,-1695,-559,-160,-241,-85,307,167,-247
2,8558449,-3474,-1695,-559,-160,-241,-85,307,167,-247
2,8558461,-3471,-1695,-560,-161,-244,-88,307,167,-247
2,8558475,-3471,-1695,-560,-161,-244,-88,307,167,-247
2,8558485,-3472,-1695,-562,-163,-248,-84,307,167,-247
2,8558496,-3472,-1690,-560,-161,-252,-92,317,165,-243
2,8558508,-3472,-1690,-560,-161,-252,-92,317,165,-243
2,8558520,-3470,-1693,-558,-160,-248,-84,317,165,-243
2,8558533,-3470,-1693,-558,-160,-248,-84,317,165,-243
2,8558545,-3472,-1695,-559,-160,-243,-84,317,165,-243
2,8558556,-3472,-1695,-559,-160,-243,-84,317,165,-243
2,8558566,-3475,-1691,-558,-160,-245,-84,317,165,-243
2,8558581,-3472,-1694,-559,-169,-243,-83,317,165,-243
2,8558593,-3472,-1694,-559,-169,-243,-83,317,165,-243
2,8558603,-3470,-1694,-557,-164,-239,-79,317,165,-243
2,8558615,-3470,-1694,-557,-164,-239,-79,317,165,-243
2,8558629,-3470,-1693,-559,-168,-239,-88,316,168,-246
2,8558644,-3472,-1691,-559,-166,-238,-87,316,168,-246
2,8558653,-3472,-1691,-559,-166,-238,-87,316,168,-246
2,8558666,-3474,-1694,-556,-161,-242,-84,316,168,-246
2,8558679,-3469,-1693,-556,-159,-245,-80,316,168,-246
2,8558692,-3469,-1693,-556,-159,-245,-80,316,168,-246
2,8558702,-3472,-1691,-562,-158,-244,-84,316,168,-246
2,8558715,-3472,-1691,-562,-158,-244,-84,316,168,-246
2,8558727,-3470,-1693,-563,-158,-236,-88,316,168,-246
2,8558735,-3470,-1693,-563,-158,-236,-88,316,168,-246
2,8558742,-3473,-1691,-558,-160,-248,-82,311,171,-241
2,8558750,-3473,-1691,-558,-160,-248,-82,311,171,-241
2,8558758,-3470,-1690,-558,-169,-242,-79,311,171,-241
2,8558768,-3470,-1690,-558,-169,-242,-79,311,171,-241
2,8558779,-3469,-1690,-558,-167,-249,-79,311,171,-241
2,8558792,-3469,-1690,-558,-167,-249,-79,311,171,-241
2,8558804,-3470,-1693,-564,-165,-253,-82,311,171,-241
2,8558818,-3470,-1691,-557,-163,-239,-79,311,171,-241
2,8558829,-3470,-1691,-557,-163,-239,-79,311,171,-241
2,8558842,-3469,-1690,-562,-162,-242,-75,311,171,-241
2,8558856,-3469,-1690,-562,-162,-242,-75,311,171,-241
2,8558868,-3472,-1693,-560,-167,-241,-83,311,171,-241
2,8558882,-3471,-1689,-559,-160,-241,-81,311,171,-241
2,8558896,-3471,-1689,-559,-160,-241,-81,311,171,-241
2,8558907,-3471,-1694,-553,-169,-244,-84,311,171,-241
2,8558919,-3470,-1694,-559,-167,-240,-80,311,171,-241
2,8558932,-3470,-1694,-559,-167,-240,-80,311,171,-241
2,8558945,-3472,-1694,-560,-158,-244,-79,311,171,-241
2,8558953,-3472,-1694,-560,-158,-244,-79,311,171,-241
2,8558961,-3469,-1692,-562,-168,-248,-87,311,171,-241
2,8558969,-3469,-1692,-562,-168,-248,-87,311,171,-241
2,8558978,-3471,-1692,-556,-159,-243,-86,311,171,-241
2,8558987,-3471,-1692,-556,-159,-243,-86,311,171,-241
2,8558995,-3471,-1692,-556,-159,-243,-86,311,171,-241
2,8559004,-3471,-1694,-552,-167,-239,-85,319,171,-243
2,8559012,-3471,-1694,-552,-167,-239,-85,319,171,-243
2,8559021,-3472,-1694,-552,-160,-243,-83,319,171,-243
2,8559029,-3472,-1694,-552,-160,-243,-83,319,171,-243
2,8559037,-3471,-1694,-560,-161,-250,-80,319,171,-243
2,8559045,-3471,-1694,-560,-161,-250,-80,319,171,-243
2,8559054,-3471,-1694,-560,-161,-250,-80,319,171,-243
2,8559063,-3470,-1695,-559,-160,-244,-82,319,171,-243
2,8559071,-3470,-1695,-559,-160,-244,-82,319,171,-243
2,8559080,-3469,-1693,-559,-159,-243,-80,319,171,-243
2,8559088,-3469,-1693,-559,-159,-243,-80,319,171,-243
2,8559096,-3469,-1693,-559,-159,-243,-80,319,171,-243
2,8559107,-3470,-1690,-559,-167,-245,-91,319,171,-243
2,8559115,-3470,-1690,-559,-167,-245,-91,319,171,-243
2,8559123,-3471,-1691,-557,-169,-249,-87,320,170,-248
2,8559133,-3471,-1691,-557,-169,-249,-87,320,170,-248
2,8559141,-3473,-1692,-557,-165,-247,-81,320,170,-248
2,8559151,-3473,-1692,-557,-165,-247,-81,320,170,-248
2,8559162,-3471,-1693,-561,-167,-243,-86,320,170,-248
2,8559172,-3471,-1693,-561,-167,-243,-86,320,170,-248
2,8559184,-3469,-1691,-561,-169,-246,-79,320,170,-248
2,8559197,-3469,-1691,-561,-169,-246,-79,320,170,-248
2,8559210,-3471,-1693,-560,-162,-240,-86,320,170,-248
2,8559220,-3471,-1691,-563,-159,-236,-79,320,170,-248
2,8559236,-3471,-1691,-563,-159,-236,-79,320,170,-248
2,8559247,-3473,-1692,-556,-161,-241,-82,311,175,-243
2,8559260,-3472,-1692,-560,-166,-242,-86,311,175,-243
2,8559273,-3472,-1692,-560,-166,-242,-86,311,175,-243
2,8559287,-3470,-1693,-563,-162,-248,-88,311,175,-243
2,8559297,-3470,-1693,-563,-162,-248,-88,311,175,-243
2,8559309,-3473,-1692,-562,-164,-243,-79,311,175,-243
2,8559322,-3469,-1693,-564,-163,-232,-84,311,175,-243
2,8559335,-3469,-1693,-564,-163,-232,-84,311,175,-243
2,8559346,-3471,-1694,-559,-165,-233,-85,311,175,-243
2,8559358,-3471,-1691,-557,-162,-242,-89,316,164,-246
2,8559371,-3471,-1691,-557,-162,-242,-89,316,164,-246
2,8559383,-3470,-1693,-558,-167,-239,-84,316,164,-246
2,8559392,-3470,-1693,-558,-167,-239,-84,316,164,-246
2,8559404,-3470,-1692,-559,-163,-239,-77,316,164,-246
2,8559416,-3470,-1692,-559,-163,-239,-77,316,164,-246
2,8559428,-3472,-1694,-556,-160,-245,-83,316,164,-246
2,8559439,-3471,-1690,-560,-169,-243,-84,316,164,-246
2,8559452,-3471,-1690,-560,-169,-243,-84,316,164,-246
2,8559464,-3468,-1695,-556,-163,-243,-85,316,164,-246
2,8559471,-3468,-1695,-556,-163,-243,-85,316,164,-246
2,8559478,-3471,-1693,-559,-165,-236,-84,318,168,-244
2,8559486,-3471,-1693,-559,-165,-236,-84,318,168,-244
2,8559493,-3471,-1693,-559,-165,-236,-84,318,168,-244
2,8559500,-3470,-1693,-557,-167,-241,-77,318,168,-244
2,8559507,-3470,-1693,-557,-167,-241,-77,318,168,-244
2,8559514,-3470,-1693,-557,-167,-241,-77,318,168,-244
2,8559521,-3472,-1691,-562,-165,-243,-83,318,168,-244
2,8559527,-3472,-1691,-562,-165,-243,-83,318,168,-244
2,8559533,-3472,-1691,-562,-165,-243,-83,318,168,-244
2,8559538,-3471,-1692,-561,-157,-240,-79,318,168,-244
2,8559546,-3471,-1692,-561,-157,-240,-79,318,168,-244
2,8559554,-3471,-1692,-561,-157,-240,-79,318,168,-244
2,8559561,-3469,-1693,-562,-159,-244,-81,318,168,-244
2,8559567,-3469,-1693,-562,-159,-244,-81,318,168,-244
2,8559575,-3469,-1693,-562,-159,-244,-81,318,168,-244
2,8559583,-3470,-1689,-561,-163,-242,-79,318,168,-244
2,8559589,-3470,-1689,-561,-163,-242,-79,318,168,-244
2,8559597,-3470,-1689,-561,-163,-242,-79,318,168,-244
2,8559604,-3473,-1694,-564,-166,-244,-84,318,168,-244
2,8559611,-3473,-1694,-564,-166,-244,-84,318,168,-244
2,8559619,-3469,-1693,-555,-161,-247,-87,314,168,-240
2,8559626,-3469,-1693,-555,-161,-247,-87,314,168,-240
2,8559633,-3469,-1693,-555,-161,-247,-87,314,168,-240
2,8559639,-3472,-1695,-564,-167,-244,-84,314,168,-240
2,8559646,-3472,-1695,-564,-167,-244,-84,314,168,-240
2,8559654,-3472,-1695,-564,-167,-244,-84,314,168,-240
2,8559662,-3469,-1694,-560,-164,-240,-85,314,168,-240
2,8559669,-3469,-1694,-560,-164,-240,-85,314,168,-240
2,8559676,-3469,-1694,-560,-164,-240,-85,314,168,-240
2,8559683,-3469,-1694,-563,-158,-231,-85,314,168,-240
2,8559689,-3469,-1694,-563,-158,-231,-85,314,168,-240
2,8559697,-3469,-1694,-563,-158,-231,-85,314,168,-240
2,8559705,-3472,-1692,-563,-165,-238,-89,314,168,-240
2,8559712,-3472,-1692,-563,-165,-238,-89,314,168,-240
2,8559719,-3472,-1694,-562,-155,-234,-84,314,168,-240
2,8559724,-3472,-1694,-562,-155,-234,-84,314,168,-240
2,8559731,-3472,-1694,-562,-155,-234,-84,314,168,-240
2,8559736,-3472,-1694,-562,-155,-234,-84,314,168,-240
2,8559741,-3473,-1693,-556,-162,-235,-82,316,168,-248
2,8559747,-3473,-1693,-556,-162,-235,-82,316,168,-248
2,8559752,-3473,-1693,-556,-162,-235,-82,316,168,-248
2,8559759,-3474,-1694,-557,-171,-235,-89,316,168,-248
2,8559767,-3474,-1694,-557,-171,-235,-89,316,168,-248
2,8559774,-3474,-1694,-557,-171,-235,-89,316,168,-248
2,8559780,-3469,-1696,-560,-165,-241,-90,316,168,-248
2,8559789,-3469,-1696,-560,-165,-241,-90,316,168,-248
2,8559796,-3469,-1696,-560,-165,-241,-90,316,168,-248
2,8559803,-3471,-1690,-567,-164,-239,-87,316,168,-248
2,8559809,-3471,-1690,-567,-164,-239,-87,316,168,-248
2,8559817,-3471,-1690,-567,-164,-239,-87,316,168,-248
2,8559824,-3469,-1690,-560,-164,-235,-87,316,168,-248
2,8559832,-3469,-1690,-560,-164,-235,-87,316,168,-248
2,8559839,-3470,-1692,-563,-158,-232,-87,316,168,-248
2,8559846,-3470,-1692,-563,-158,-232,-87,316,168,-248
2,8559853,-3470,-1692,-563,-158,-232,-87,316,168,-248
2,8559860,-3474,-1694,-561,-165,-237,-90,307,169,-249
2,8559867,-3474,-1694,-561,-165,-237,-90,307,169,-249
2,8559875,-3474,-1694,-561,-165,-237,-90,307,169,-249
2,8559882,-3470,-1692,-556,-165,-240,-85,307,169,-249
2,8559889,-3470,-1692,-556,-165,-240,-85,307,169,-249
2,8559897,-3470,-1692,-556,-165,-240,-85,307,169,-249
2,8559906,-3472,-1694,-565,-167,-239,-88,307,169,-249
2,8559913,-3472,-1694,-565,-167,-239,-88,307,169,-249
2,8559922,-3468,-1692,-562,-163,-237,-88,307,169,-249
2,8559928,-3468,-1692,-562,-163,-237,-88,307,169,-249
2,8559935,-3468,-1692,-562,-163,-237,-88,307,169,-249
2,8559943,-3471,-1693,-558,-163,-241,-80,307,169,-249
2,8559950,-3471,-1693,-558,-163,-241,-80,307,169,-249
2,8559955,-3471,-1693,-558,-163,-241,-80,307,169,-249
2,8559961,-3471,-1695,-564,-168,-250,-84,307,169,-249
2,8559966,-3471,-1695,-564,-168,-250,-84,307,169,-249
2,8559971,-3471,-1695,-564,-168,-250,-84,307,169,-249
2,8559976,-3471,-1695,-564,-168,-250,-84,307,169,-249
2,8559981,-3470,-1695,-554,-172,-244,-89,317,169,-243
2,8559986,-3470,-1695,-554,-172,-244,-89,317,169,-243
2,8559993,-3470,-1695,-554,-172,-244,-89,317,169,-243
2,8559998,-3469,-1690,-557,-167,-246,-80,317,169,-243
2,8560005,-3469,-1690,-557,-167,-246,-80,317,169,-243
2,8560010,-3469,-1690,-557,-167,-246,-80,317,169,-243
2,8560017,-3469,-1690,-557,-167,-246,-80,317,169,-243
2,8560023,-3475,-1687,-562,-168,-240,-84,317,169,-243
2,8560031,-3475,-1687,-562,-168,-240,-84,317,169,-243
2,8560038,-3475,-1687,-562,-168,-240,-84,317,169,-243
2,8560047,-3475,-1687,-562,-168,-240,-84,317,169,-243
2,8560053,-3475,-1687,-562,-168,-240,-84,317,169,-243
2,8560061,-3472,-1694,-558,-159,-242,-86,317,169,-243
2,8560066,-3472,-1694,-558,-159,-242,-86,317,169,-243
2,8560073,-3472,-1694,-558,-159,-242,-86,317,169,-243
2,8560081,-3470,-1695,-562,-161,-239,-87,317,169,-243
2,8560088,-3470,-1695,-562,-161,-239,-87,317,169,-243
2,8560095,-3470,-1695,-562,-161,-239,-87,317,169,-243
2,8560101,-3471,-1695,-561,-162,-247,-86,321,169,-237
2,8560108,-3471,-1695,-561,-162,-247,-86,321,169,-237
2,8560115,-3471,-1695,-561,-162,-247,-86,321,169,-237
2,8560123,-3470,-1693,-560,-154,-244,-89,321,169,-237
2,8560133,-3470,-1693,-560,-154,-244,-89,321,169,-237
2,8560140,-3473,-1691,-559,-162,-257,-79,321,169,-237
2,8560147,-3473,-1691,-559,-162,-257,-79,321,169,-237
2,8560155,-3473,-1691,-559,-162,-257,-79,321,169,-237
2,8560162,-3475,-1695,-560,-156,-251,-72,321,169,-237
2,8560169,-3475,-1695,-560,-156,-251,-72,321,169,-237
2,8560175,-3475,-1695,-560,-156,-251,-72,321,169,-237
2,8560183,-3469,-1691,-561,-163,-254,-78,321,169,-237
2,8560191,-3469,-1691,-561,-163,-254,-78,321,169,-237
2,8560199,-3468,-1692,-560,-163,-241,-83,321,169,-237
2,8560207,-3468,-1692,-560,-163,-241,-83,321,169,-237
2,8560214,-3468,-1692,-560,-163,-241,-83,321,169,-237
2,8560221,-3473,-1694,-565,-167,-243,-81,321,169,-237
2,8560228,-3473,-1694,-565,-167,-243,-81,321,169,-237
2,8560235,-3473,-1694,-565,-167,-243,-81,321,169,-237
2,8560242,-3471,-1693,-555,-162,-244,-86,317,169,-247
2,8560250,-3471,-1693,-555,-162,-244,-86,317,169,-247
2,8560259,-3471,-1692,-557,-165,-241,-80,317,169,-247
2,8560266,-3471,-1692,-557,-165,-241,-80,317,169,-247
2,8560273,-3471,-1692,-557,-165,-241,-80,317,169,-247
2,8560280,-3472,-1693,-558,-172,-238,-91,317,169,-247
2,8560287,-3472,-1693,-558,-172,-238,-91,317,169,-247
2,8560293,-3472,-1693,-558,-172,-238,-91,317,169,-247
2,8560301,-3470,-1694,-565,-166,-246,-87,317,169,-247
2,8560309,-3470,-1694,-565,-166,-246,-87,317,169,-247
2,8560316,-3470,-1694,-565,-166,-246,-87,317,169,-247
2,8560323,-3470,-1694,-565,-160,-249,-89,317,169,-247
2,8560331,-3470,-1694,-565,-160,-249,-89,317,169,-247
2,8560337,-3470,-1694,-565,-160,-249,-89,317,169,-247
2,8560343,-3471,-1697,-567,-166,-247,-88,317,169,-247
2,8560351,-3471,-1697,-567,-166,-247,-88,317,169,-247
2,8560358,-3472,-1691,-558,-167,-248,-87,311,169,-247
2,8560365,-3472,-1691,-558,-167,-248,-87,311,163,-253
2,8560372,-3472,-1691,-558,-167,-248,-87,311,163,-253
2,8560379,-3471,-1690,-560,-162,-252,-90,311,163,-253
2,8560387,-3471,-1690,-560,-162,-252,-90,311,163,-253
2,8560393,-3471,-1690,-560,-162,-252,-90,311,163,-253
2,8560401,-3469,-1692,-560,-169,-244,-87,311,163,-253
2,8560409,-3469,-1692,-560,-169,-244,-87,311,163,-253
2,8560416,-3469,-1692,-560,-169,-244,-87,311,163,-253
2,8560421,-3471,-1693,-560,-168,-247,-82,311,163,-253
2,8560427,-3471,-1693,-560,-168,-247,-82,311,163,-253
2,8560431,-3471,-1693,-560,-168,-247,-82,311,163,-253
2,8560438,-3469,-1694,-561,-166,-243,-88,311,163,-253
2,8560444,-3469,-1694,-561,-166,-243,-88,311,163,-253
2,8560451,-3469,-1694,-561,-166,-243,-88,311,163,-253
2,8560458,-3473,-1696,-561,-163,-242,-90,311,163,-253
2,8560465,-3473,-1696,-561,-163,-242,-90,311,163,-253
2,8560479,-3471,-1693,-562,-165,-245,-88,313,171,-243
2,8560492,-3471,-1693,-562,-165,-245,-88,313,171,-243
2,8560505,-3475,-1693,-561,-160,-245,-84,313,171,-243
2,8560517,-3475,-1693,-561,-160,-245,-84,313,171,-243
2,8560530,-3472,-1691,-558,-164,-238,-87,313,171,-243
2,8560543,-3471,-1691,-560,-153,-237,-93,313,171,-243
2,8560556,-3471,-1691,-560,-153,-237,-93,313,171,-243
2,8560569,-3470,-1691,-562,-159,-239,-83,313,171,-243
2,8560581,-3470,-1693,-563,-166,-246,-84,313,171,-243
2,8560593,-3470,-1693,-563,-166,-246,-84,313,171,-243
2,8560607,-3472,-1694,-558,-168,-250,-83,313,165,-247
2,8560616,-3472,-1694,-558,-168,-250,-83,313,165,-247
2,8560627,-3472,-1694,-558,-168,-250,-83,313,165,-247
2,8560640,-3468,-1693,-560,-160,-239,-90,313,165,-247
2,8560653,-3468,-1693,-560,-160,-239,-90,313,165,-247
2,8560663,-3470,-1692,-565,-159,-244,-83,313,165,-247
2,8560675,-3470,-1692,-565,-159,-244,-83,313,165,-247
2,8560690,-3472,-1692,-562,-155,-244,-83,313,165,-247
2,8560702,-3473,-1693,-560,-162,-243,-82,313,165,-247
2,8560713,-3473,-1693,-560,-162,-243,-82,313,165,-247
2,8560727,-3470,-1690,-559,-158,-252,-87,315,167,-245
2,8560735,-3470,-1690,-559,-158,-252,-87,315,167,-245
2,8560742,-3472,-1695,-559,-165,-249,-87,315,167,-245
2,8560750,-3472,-1695,-559,-165,-249,-87,315,167,-245
2,8560758,-3472,-1695,-559,-165,-249,-87,315,167,-245
2,8560771,-3474,-1690,-565,-159,-238,-86,315,167,-245
2,8560782,-3471,-1691,-562,-160,-243,-95,315,167,-245
2,8560791,-3471,-1691,-562,-160,-243,-95,315,167,-245
2,8560799,-3473,-1692,-563,-158,-238,-85,315,167,-245
2,8560808,-3473,-1692,-563,-158,-238,-85,315,167,-245
2,8560818,-3473,-1692,-563,-158,-238,-85,315,167,-245
2,8560827,-3468,-1692,-560,-162,-246,-83,315,167,-245
2,8560839,-3473,-1692,-561,-165,-251,-82,315,167,-245
2,8560851,-3473,-1692,-561,-165,-251,-82,315,167,-245
2,8560863,-3475,-1694,-554,-159,-249,-71,318,164,-240
2,8560877,-3475,-1694,-554,-159,-249,-71,318,164,-240
2,8560889,-3471,-1693,-564,-162,-248,-77,318,164,-240
2,8560901,-3471,-1692,-560,-164,-242,-90,318,164,-240
2,8560915,-3471,-1692,-560,-164,-242,-90,318,164,-240
2,8560927,-3471,-1691,-565,-164,-240,-79,318,164,-240
2,8560940,-3473,-1692,-562,-160,-239,-90,318,164,-240
2,8560948,-3473,-1692,-562,-160,-239,-90,318,164,-240
2,8560956,-3473,-1692,-562,-160,-239,-90,318,164,-240
2,8560964,-3470,-1695,-560,-161,-247,-89,318,164,-240
2,8560972,-3470,-1695,-560,-161,-247,-89,318,164,-240
2,8560980,-3469,-1693,-558,-168,-249,-91,316,170,-242
2,8560989,-3469,-1693,-558,-168,-249,-91,316,170,-242
2,8560998,-3469,-1693,-558,-168,-249,-91,316,170,-242
2,8561005,-3473,-1693,-564,-174,-245,-85,316,170,-242
2,8561014,-3473,-1693,-564,-174,-245,-85,316,170,-242
2,8561021,-3471,-1691,-564,-161,-244,-87,316,170,-242
2,8561030,-3471,-1691,-564,-161,-244,-87,316,170,-242
2,8561038,-3471,-1691,-564,-161,-244,-87,316,170,-242
2,8561046,-3471,-1693,-563,-161,-251,-90,316,170,-242
2,8561054,-3471,-1693,-563,-161,-251,-90,316,170,-242
2,8561062,-3469,-1693,-562,-163,-246,-82,316,170,-242
2,8561071,-3469,-1693,-562,-163,-246,-82,316,170,-242
2,8561079,-3470,-1693,-565,-160,-243,-77,316,170,-242
2,8561088,-3470,-1693,-565,-160,-243,-77,316,170,-242
2,8561097,-3470,-1693,-565,-160,-243,-77,316,170,-242
2,8561104,-3472,-1693,-560,-168,-246,-87,318,164,-244
2,8561112,-3472,-1693,-560,-168,-246,-87,318,164,-244
2,8561122,-3470,-1694,-560,-164,-243,-91,318,164,-244
2,8561131,-3470,-1694,-560,-164,-243,-91,318,164,-244
2,8561140,-3472,-1693,-561,-163,-246,-88,318,164,-244
2,8561149,-3472,-1693,-561,-163,-246,-88,318,164,-244
2,8561160,-3470,-1692,-563,-168,-238,-85,318,164,-244
2,8561169,-3470,-1692,-563,-168,-238,-85,318,164,-244
2,8561178,-3470,-1692,-563,-168,-238,-85,318,164,-244
2,8561188,-3473,-1693,-562,-164,-242,-83,318,164,-244
2,8561200,-3469,-1694,-560,-165,-246,-81,318,164,-244
2,8561213,-3469,-1694,-560,-165,-246,-81,318,164,-244
2,8561225,-3472,-1693,-558,-159,-250,-82,319,167,-247
2,8561240,-3467,-1691,-562,-156,-246,-92,319,167,-247
2,8561250,-3467,-1691,-562,-156,-246,-92,319,167,-247
2,8561260,-3471,-1694,-559,-157,-249,-94,319,167,-247
2,8561269,-3471,-1694,-559,-157,-249,-94,319,167,-247
2,8561281,-3470,-1691,-563,-157,-247,-85,319,167,-247
2,8561293,-3470,-1691,-563,-157,-247,-85,319,167,-247
2,8561305,-3470,-1692,-556,-154,-250,-79,319,167,-247
2,8561316,-3470,-1692,-556,-154,-250,-79,319,167,-247
2,8561330,-3470,-1695,-559,-161,-242,-81,319,167,-247
2,8561341,-3471,-1693,-563,-159,-245,-85,328,170,-248
2,8561354,-3471,-1693,-563,-159,-245,-85,328,170,-248
2,8561367,-3472,-1693,-562,-158,-254,-88,328,170,-248
2,8561378,-3472,-1693,-562,-158,-254,-88,328,170,-248
2,8561391,-3471,-1692,-558,-166,-242,-89,328,170,-248
2,8561404,-3469,-1691,-564,-163,-242,-87,328,170,-248
2,8561417,-3469,-1691,-564,-163,-242,-87,328,170,-248
2,8561430,-3473,-1691,-562,-168,-244,-79,328,170,-248
2,8561442,-3472,-1691,-563,-162,-246,-82,328,170,-248
2,8561455,-3472,-1691,-563,-162,-246,-82,328,170,-248
2,8561467,-3472,-1692,-561,-169,-244,-79,328,170,-248
2,8561479,-3472,-1692,-561,-164,-240,-81,313,169,-239
2,8561487,-3472,-1692,-561,-164,-240,-81,313,169,-239
2,8561495,-3472,-1692,-561,-164,-240,-81,313,169,-239
2,8561500,-3467,-1693,-558,-168,-233,-86,313,169,-239
2,8561505,-3467,-1693,-558,-168,-233,-86,313,169,-239
2,8561510,-3467,-1693,-558,-168,-233,-86,313,169,-239
2,8561516,-3467,-1693,-558,-168,-233,-86,313,169,-239
2,8561523,-3470,-1694,-562,-169,-247,-77,313,169,-239
2,8561530,-3470,-1694,-562,-169,-247,-77,313,169,-239
2,8561538,-3470,-1694,-562,-169,-247,-77,313,169,-239
2,8561546,-3470,-1695,-561,-171,-241,-83,313,169,-239
2,8561553,-3470,-1695,-561,-171,-241,-83,313,169,-239
2,8561559,-3470,-1695,-561,-171,-241,-83,313,169,-239
2,8561565,-3472,-1694,-566,-165,-239,-93,313,169,-239
2,8561572,-3472,-1694,-566,-165,-239,-93,313,169,-239
2,8561580,-3471,-1693,-566,-165,-238,-79,313,169,-239
2,8561588,-3471,-1693,-566,-165,-238,-79,313,169,-239
2,8561596,-3471,-1693,-566,-165,-238,-79,313,169,-239
2,8561603,-3472,-1691,-560,-161,-244,-80,310,174,-250
2,8561610,-3472,-1691,-560,-161,-244,-80,310,174,-250
2,8561618,-3472,-1691,-560,-161,-244,-80,310,174,-250
2,8561625,-3470,-1695,-563,-161,-253,-89,310,174,-250
2,8561631,-3470,-1695,-563,-161,-253,-89,310,174,-250
2,8561639,-3470,-1695,-563,-161,-253,-89,310,174,-250
2,8561645,-3473,-1692,-559,-168,-249,-86,310,174,-250
2,8561650,-3473,-1692,-559,-168,-249,-86,310,174,-250
2,8561658,-3473,-1692,-559,-168,-249,-86,310,174,-250
2,8561667,-3473,-1694,-562,-162,-242,-86,310,174,-250
2,8561673,-3473,-1694,-562,-162,-242,-86,310,174,-250
2,8561680,-3472,-1695,-558,-168,-237,-87,310,174,-250
2,8561687,-3472,-1695,-558,-168,-237,-87,310,174,-250
2,8561693,-3472,-1695,-558,-168,-237,-87,310,174,-250
2,8561699,-3471,-1694,-564,-161,-242,-84,310,174,-250
2,8561708,-3471,-1694,-564,-161,-242,-84,310,174,-250
2,8561716,-3471,-1694,-564,-161,-242,-84,310,174,-250
2,8561723,-3471,-1692,-558,-166,-244,-84,316,162,-246
2,8561729,-3471,-1692,-558,-166,-244,-84,316,162,-246
2,8561735,-3471,-1692,-558,-166,-244,-84,316,162,-246
2,8561739,-3471,-1694,-562,-169,-244,-79,316,162,-246
2,8561744,-3471,-1694,-562,-169,-244,-79,316,162,-246
2,8561750,-3471,-1694,-562,-169,-244,-79,316,162,-246
2,8561756,-3471,-1694,-562,-169,-244,-79,316,162,-246
2,8561761,-3471,-1691,-563,-168,-245,-89,316,162,-246
2,8561768,-3471,-1691,-563,-168,-245,-89,316,162,-246
2,8561775,-3471,-1691,-563,-168,-245,-89,316,162,-246
2,8561781,-3469,-1691,-561,-161,-242,-82,316,162,-246
2,8561788,-3469,-1691,-561,-161,-242,-82,316,162,-246
2,8561796,-3469,-1691,-561,-161,-242,-82,316,162,-246
2,8561803,-3475,-1692,-564,-165,-246,-81,316,162,-246
2,8561810,-3475,-1692,-564,-165,-246,-81,316,162,-246
2,8561817,-3475,-1692,-564,-165,-246,-81,316,162,-246
2,8561825,-3470,-1692,-562,-165,-242,-88,316,162,-246
2,8561832,-3470,-1692,-562,-165,-242,-88,316,162,-246
2,8561840,-3470,-1692,-562,-165,-242,-88,316,162,-246
2,8561846,-3471,-1692,-561,-164,-243,-80,314,160,-240
2,8561853,-3471,-1692,-561,-164,-243,-80,314,160,-240
2,8561859,-3471,-1692,-561,-164,-243,-80,314,160,-240
2,8561866,-3470,-1692,-562,-167,-240,-86,314,160,-240
2,8561875,-3470,-1692,-562,-167,-240,-86,314,160,-240
2,8561883,-3468,-1693,-561,-168,-238,-82,314,160,-240
2,8561890,-3468,-1693,-561,-168,-238,-82,314,160,-240
2,8561898,-3468,-1693,-561,-168,-238,-82,314,160,-240
2,8561905,-3470,-1691,-562,-162,-242,-86,314,160,-240
2,8561911,-3470,-1691,-562,-162,-242,-86,314,160,-240
2,8561917,-3470,-1691,-562,-162,-242,-86,314,160,-240
2,8561926,-3471,-1693,-564,-166,-242,-89,314,160,-240
2,8561934,-3471,-1693,-564,-166,-242,-89,314,160,-240
2,8561940,-3472,-1692,-564,-166,-240,-86,314,160,-240
2,8561946,-3472,-1692,-564,-166,-240,-86,314,160,-240
2,8561952,-3472,-1692,-564,-166,-240,-86,314,160,-240
2,8561957,-3472,-1692,-564,-166,-240,-86,314,160,-240
2,8561964,-3470,-1691,-563,-163,-242,-86,320,170,-240
2,8561969,-3470,-1691,-563,-163,-242,-86,320,170,-240
2,8561975,-3470,-1691,-563,-163,-242,-86,320,170,-240
2,8561979,-3470,-1691,-563,-163,-242,-86,320,170,-240
2,8561985,-3468,-1694,-555,-164,-244,-90,320,170,-240
2,8561990,-3468,-1694,-555,-164,-244,-90,320,170,-240
2,8561994,-3468,-1694,-555,-164,-244,-90,320,170,-240
2,8562002,-3470,-1697,-557,-161,-240,-79,320,170,-240
2,8562009,-3470,-1697,-557,-161,-240,-79,320,170,-240
2,8562014,-3470,-1697,-557,-161,-240,-79,320,170,-240
2,8562021,-3471,-1691,-561,-168,-236,-86,320,170,-240
2,8562029,-3471,-1691,-561,-168,-236,-86,320,170,-240
2,8562035,-3471,-1691,-561,-168,-236,-86,320,170,-240
2,8562043,-3469,-1693,-563,-162,-240,-84,320,170,-240
2,8562051,-3469,-1693,-563,-162,-240,-84,320,170,-240
2,8562058,-3469,-1693,-563,-162,-240,-84,320,170,-240
2,8562064,-3470,-1689,-561,-161,-239,-84,320,170,-240
2,8562071,-3470,-1689,-561,-161,-239,-84,320,170,-240
2,8562077,-3470,-1689,-561,-161,-239,-84,320,170,-240
2,8562084,-3471,-1691,-563,-162,-239,-85,320,170,-240
2,8562092,-3471,-1691,-563,-162,-239,-85,320,170,-240
2,8562100,-3471,-1691,-563,-162,-239,-85,320,170,-240
2,8562106,-3470,-1691,-561,-164,-244,-89,308,168,-246
2,8562113,-3470,-1691,-561,-164,-244,-89,308,168,-246
2,8562121,-3471,-1691,-562,-167,-239,-84,308,168,-246
2,8562127,-3471,-1691,-562,-167,-239,-84,308,168,-246
2,8562135,-3471,-1691,-562,-167,-239,-84,308,168,-246
2,8562142,-3472,-1694,-563,-160,-240,-81,308,168,-246
2,8562148,-3472,-1694,-563,-160,-240,-81,308,168,-246
2,8562154,-3472,-1694,-563,-160,-240,-81,308,168,-246
2,8562162,-3471,-1694,-564,-158,-240,-89,308,168,-246
2,8562169,-3471,-1694,-564,-158,-240,-89,308,168,-246
2,8562178,-3471,-1694,-564,-158,-240,-89,308,168,-246
2,8562185,-3473,-1691,-565,-162,-241,-82,308,168,-246
2,8562193,-3473,-1691,-565,-162,-241,-82,308,168,-246
2,8562201,-3472,-1695,-558,-170,-244,-83,308,168,-246
2,8562209,-3472,-1695,-558,-170,-244,-83,308,168,-246
2,8562217,-3472,-1695,-558,-170,-244,-83,308,168,-246
2,8562223,-3471,-1692,-557,-168,-244,-92,308,166,-236
2,8562229,-3471,-1692,-557,-168,-244,-92,308,166,-236
2,8562236,-3471,-1692,-557,-168,-244,-92,308,166,-236
2,8562244,-3472,-1692,-557,-160,-243,-85,308,166,-236
2,8562251,-3472,-1692,-557,-160,-243,-85,308,166,-236
2,8562257,-3472,-1692,-557,-160,-243,-85,308,166,-236
2,8562267,-3469,-1691,-563,-162,-245,-85,308,166,-236
2,8562273,-3469,-1691,-563,-162,-245,-85,308,166,-236
2,8562281,-3471,-1692,-559,-168,-243,-86,308,166,-236
2,8562288,-3471,-1692,-559,-168,-243,-86,308,166,-236
2,8562295,-3471,-1692,-559,-168,-243,-86,308,166,-236
2,8562302,-3472,-1697,-563,-167,-245,-80,308,166,-236
2,8562310,-3472,-1697,-563,-167,-245,-80,308,166,-236
2,8562317,-3472,-1697,-563,-167,-245,-80,308,166,-236
2,8562323,-3472,-1694,-561,-167,-242,-84,308,166,-236
2,8562331,-3472,-1694,-561,-167,-242,-84,308,166,-236
2,8562338,-3472,-1694,-561,-167,-242,-84,308,166,-236
2,8562345,-3472,-1693,-558,-163,-239,-83,315,167,-241
2,8562353,-3472,-1693,-558,-163,-239,-83,315,167,-241
2,8562360,-3472,-1693,-558,-163,-239,-83,315,167,-241
2,8562367,-3469,-1694,-560,-164,-235,-84,315,167,-241
2,8562372,-3469,-1694,-560,-164,-235,-84,315,167,-241
2,8562380,-3470,-1693,-562,-168,-244,-90,315,167,-241
2,8562386,-3470,-1693,-562,-168,-244,-90,315,167,-241
2,8562394,-3470,-1693,-562,-168,-244,-90,315,167,-241
2,8562400,-3471,-1696,-562,-164,-243,-79,315,167,-241
2,8562407,-3471,-1696,-562,-164,-243,-79,315,167,-241
2,8562416,-3471,-1696,-562,-164,-243,-79,315,167,-241
2,8562422,-3471,-1693,-558,-158,-241,-82,315,167,-241
2,8562430,-3471,-1693,-558,-158,-241,-82,315,167,-241
2,8562436,-3471,-1693,-558,-158,-241,-82,315,167,-241
2,8562441,-3470,-1692,-560,-162,-237,-86,315,167,-241
2,8562446,-3470,-1692,-560,-162,-237,-86,315,167,-241
2,8562454,-3470,-1692,-560,-162,-237,-86,315,167,-241
2,8562461,-3470,-1691,-558,-160,-245,-85,321,165,-245
2,8562469,-3470,-1691,-558,-160,-245,-85,321,165,-245
2,8562478,-3470,-1691,-558,-160,-245,-85,321,165,-245
2,8562489,-3471,-1693,-561,-158,-240,-90,321,165,-245
2,8562503,-3472,-1692,-569,-163,-242,-95,321,165,-245
2,8562519,-3472,-1692,-569,-163,-242,-95,321,165,-245
2,8562530,-3470,-1693,-560,-165,-246,-87,321,165,-245
2,8562542,-3470,-1691,-565,-169,-244,-84,321,165,-245
2,8562555,-3470,-1691,-565,-169,-244,-84,321,165,-245
2,8562569,-3472,-1691,-564,-167,-248,-81,321,165,-245
2,8562580,-3468,-1694,-556,-167,-247,-83,321,165,-245
2,8562591,-3468,-1694,-556,-167,-247,-83,319,167,-253
2,8562605,-3471,-1691,-558,-167,-247,-82,319,167,-253
2,8562618,-3471,-1691,-558,-167,-247,-82,319,167,-253
2,8562629,-3474,-1695,-561,-167,-239,-85,319,167,-253
2,8562641,-3473,-1695,-563,-159,-242,-87,319,167,-253
2,8562655,-3473,-1695,-563,-159,-242,-87,319,167,-253
2,8562668,-3472,-1694,-563,-159,-242,-83,319,167,-253
2,8562679,-3472,-1694,-563,-159,-242,-83,319,167,-253
2,8562690,-3470,-1693,-563,-157,-243,-86,319,167,-253
2,8562703,-3469,-1695,-563,-163,-246,-84,327,163,-249
2,8562716,-3469,-1695,-563,-163,-246,-84,327,163,-249
2,8562729,-3472,-1692,-558,-163,-248,-85,327,163,-249
2,8562738,-3472,-1692,-558,-163,-248,-85,327,163,-249
2,8562745,-3468,-1693,-560,-163,-249,-80,327,163,-249
2,8562753,-3468,-1693,-560,-163,-249,-80,327,163,-249
2,8562761,-3471,-1694,-556,-165,-253,-83,327,163,-249
2,8562774,-3471,-1694,-556,-165,-253,-83,327,163,-249
2,8562784,-3472,-1693,-561,-162,-247,-84,327,163,-249
2,8562792,-3472,-1693,-561,-162,-247,-84,327,163,-249
2,8562800,-3471,-1690,-559,-160,-245,-92,327,163,-249
2,8562811,-3471,-1690,-559,-160,-245,-92,327,163,-249
2,8562820,-3471,-1690,-559,-160,-245,-92,327,163,-249
2,8562829,-3469,-1693,-565,-162,-239,-85,327,163,-249
2,8562840,-3472,-1690,-557,-160,-235,-80,317,163,-249
2,8562853,-3472,-1690,-557,-160,-235,-80,317,173,-247
2,8562867,-3469,-1690,-567,-156,-248,-83,317,173,-247
2,8562879,-3469,-1690,-567,-156,-248,-83,317,173,-247
2,8562890,-3467,-1689,-565,-164,-243,-82,317,173,-247
2,8562904,-3472,-1694,-565,-162,-249,-84,317,173,-247
2,8562915,-3472,-1694,-565,-162,-249,-84,317,173,-247
2,8562927,-3473,-1693,-561,-172,-243,-83,317,173,-247
2,8562939,-3473,-1693,-561,-172,-243,-83,317,173,-247
2,8562952,-3470,-1693,-561,-166,-245,-82,317,173,-247
2,8562960,-3470,-1693,-561,-166,-245,-82,317,173,-247
2,8562968,-3471,-1694,-557,-163,-243,-77,316,160,-240
2,8562976,-3471,-1694,-557,-163,-243,-77,316,160,-240
2,8562984,-3471,-1694,-559,-166,-250,-77,316,160,-240
2,8562993,-3471,-1694,-559,-166,-250,-77,316,160,-240
2,8563001,-3470,-1691,-560,-164,-238,-85,316,160,-240
2,8563011,-3470,-1691,-560,-164,-238,-85,316,160,-240
2,8563019,-3470,-1691,-560,-164,-238,-85,316,160,-240
2,8563028,-3469,-1693,-561,-155,-244,-81,316,160,-240
2,8563037,-3469,-1693,-561,-155,-244,-81,316,160,-240
2,8563045,-3473,-1691,-559,-168,-243,-79,316,160,-240
2,8563053,-3473,-1691,-559,-168,-243,-79,316,160,-240
2,8563062,-3470,-1693,-559,-166,-252,-88,316,160,-240
2,8563070,-3470,-1693,-559,-166,-252,-88,316,160,-240
2,8563079,-3470,-1693,-559,-166,-252,-88,316,160,-240
2,8563086,-3472,-1691,-552,-166,-248,-89,321,167,-243
2,8563094,-3472,-1691,-552,-166,-248,-89,321,167,-243
2,8563103,-3469,-1691,-562,-163,-239,-81,321,167,-243
2,8563111,-3469,-1691,-562,-163,-239,-81,321,167,-243
2,8563121,-3470,-1690,-559,-167,-233,-90,321,167,-243
2,8563130,-3470,-1690,-559,-167,-233,-90,321,167,-243
2,8563138,-3470,-1690,-559,-167,-233,-90,321,167,-243
2,8563149,-3472,-1691,-560,-159,-241,-95,321,167,-243
2,8563162,-3469,-1693,-562,-163,-248,-78,321,167,-243
2,8563175,-3469,-1693,-562,-163,-248,-78,321,167,-243
2,8563187,-3470,-1695,-565,-162,-241,-81,321,167,-243
2,8563200,-3470,-1695,-565,-162,-241,-81,321,167,-243
2,8563213,-3472,-1691,-557,-165,-243,-85,311,171,-243
2,8563226,-3472,-1694,-560,-161,-244,-84,311,171,-243
2,8563238,-3472,-1694,-560,-161,-244,-84,311,171,-243
2,8563253,-3470,-1692,-563,-157,-237,-83,311,171,-243
2,8563264,-3469,-1693,-564,-163,-246,-81,311,171,-243
2,8563276,-3469,-1693,-564,-163,-246,-81,311,171,-243
2,8563288,-3472,-1692,-563,-162,-238,-89,311,171,-243
2,8563300,-3472,-1692,-563,-162,-238,-89,311,171,-243
2,8563309,-3471,-1690,-563,-158,-245,-81,311,171,-243
2,8563321,-3469,-1689,-557,-159,-246,-83,318,164,-242
2,8563334,-3469,-1689,-557,-159,-246,-83,318,164,-242
2,8563344,-3470,-1689,-558,-165,-250,-81,318,164,-242
2,8563356,-3470,-1689,-558,-165,-250,-81,318,164,-242
2,8563369,-3468,-1689,-565,-168,-244,-80,318,164,-242
2,8563382,-3472,-1692,-559,-161,-240,-79,318,164,-242
2,8563393,-3472,-1692,-559,-161,-240,-79,318,164,-242
2,8563406,-3473,-1691,-561,-161,-246,-81,318,164,-242
2,8563419,-3473,-1691,-561,-161,-246,-81,318,164,-242
2,8563431,-3472,-1690,-561,-165,-244,-83,318,164,-242
2,8563443,-3470,-1693,-561,-162,-245,-81,318,164,-242
2,8563456,-3470,-1693,-561,-162,-245,-81,318,164,-242
2,8563469,-3470,-1691,-552,-163,-245,-87,322,166,-238
2,8563481,-3471,-1691,-561,-152,-247,-86,322,166,-238
2,8563492,-3471,-1691,-561,-152,-247,-86,322,166,-238
2,8563500,-3471,-1691,-561,-152,-247,-86,322,166,-238
2,8563508,-3472,-1692,-560,-156,-240,-80,322,166,-238
2,8563516,-3472,-1692,-560,-156,-240,-80,322,166,-238
2,8563523,-3471,-1692,-564,-161,-241,-96,322,166,-238
2,8563530,-3471,-1692,-564,-161,-241,-96,322,166,-238
2,8563537,-3471,-1692,-564,-161,-241,-96,322,166,-238
2,8563544,-3469,-1692,-561,-164,-239,-90,322,166,-238
2,8563549,-3469,-1692,-561,-164,-239,-90,322,166,-238
2,8563557,-3469,-1692,-561,-164,-239,-90,322,166,-238
2,8563564,-3471,-1693,-565,-171,-247,-84,322,166,-238
2,8563571,-3471,-1693,-565,-171,-247,-84,322,166,-238
2,8563576,-3471,-1693,-565,-171,-247,-84,322,166,-238
