imu,time,ax,ay,az,gx,gy,gz,mx,my,mz
1,5858845,425,-1362,-489,-1482,-299,-43,435,167,-225
1,5858854,424,-1368,-492,-1483,-300,-43,435,167,-225
1,5858860,424,-1368,-492,-1483,-300,-43,435,167,-225
1,5858865,424,-1368,-492,-1483,-300,-43,435,167,-225
1,5858870,424,-1368,-492,-1483,-300,-43,435,167,-225
1,5858875,428,-1365,-496,-1489,-299,-43,435,167,-225
1,5858880,428,-1365,-496,-1489,-299,-43,435,167,-225
1,5858885,428,-1365,-496,-1489,-299,-43,435,167,-225
1,5858893,424,-1366,-491,-1493,-298,-45,435,167,-225
1,5858898,424,-1366,-491,-1493,-298,-45,435,167,-225
1,5858904,424,-1366,-491,-1493,-298,-45,435,167,-225
1,5858909,424,-1366,-491,-1493,-298,-45,435,167,-225
1,5858914,425,-1363,-484,-1490,-299,-34,432,168,-226
1,5858920,425,-1363,-484,-1490,-299,-34,432,168,-226
1,5858926,425,-1363,-484,-1490,-299,-34,432,168,-226
1,5858932,425,-1363,-484,-1490,-299,-34,432,168,-226
1,5858937,425,-1365,-490,-1486,-305,-39,432,168,-226
1,5858942,425,-1365,-490,-1486,-305,-39,432,168,-226
1,5858949,425,-1365,-490,-1486,-305,-39,432,168,-226
1,5858955,424,-1364,-491,-1490,-296,-39,432,168,-226
1,5858962,424,-1364,-491,-1490,-296,-39,432,168,-226
1,5858968,424,-1364,-491,-1490,-296,-39,432,168,-226
1,5858974,425,-1366,-489,-1491,-301,-40,432,168,-226
1,5858979,425,-1366,-489,-1491,-301,-40,432,168,-226
1,5858984,425,-1366,-489,-1491,-301,-40,432,168,-226
1,5858990,425,-1366,-489,-1491,-301,-40,432,168,-226
1,5858995,425,-1361,-492,-1490,-302,-41,432,168,-226
1,5859000,425,-1361,-492,-1490,-302,-41,432,168,-226
1,5859005,425,-1361,-492,-1490,-302,-41,432,168,-226
1,5859010,425,-1361,-492,-1490,-302,-41,432,168,-226
1,5859015,424,-1365,-488,-1486,-300,-38,432,168,-226
1,5859021,424,-1365,-488,-1486,-300,-38,432,168,-226
1,5859027,424,-1365,-488,-1486,-300,-38,432,168,-226
1,5859033,424,-1365,-488,-1486,-300,-38,432,168,-226
1,5859039,423,-1367,-488,-1484,-301,-40,438,168,-220
1,5859044,423,-1367,-488,-1484,-301,-40,438,168,-220
1,5859050,423,-1367,-488,-1484,-301,-40,438,168,-220
1,5859056,424,-1367,-488,-1488,-303,-43,438,168,-220
1,5859062,424,-1367,-488,-1488,-303,-43,438,168,-220
1,5859069,424,-1367,-488,-1488,-303,-43,438,168,-220
1,5859077,423,-1364,-493,-1490,-300,-43,438,168,-220
1,5859083,423,-1364,-493,-1490,-300,-43,438,168,-220
1,5859090,423,-1364,-493,-1490,-300,-43,438,168,-220
1,5859096,424,-1367,-490,-1491,-302,-32,438,168,-220
1,5859103,424,-1367,-490,-1491,-302,-32,438,168,-220
1,5859109,424,-1367,-490,-1491,-302,-32,438,168,-220
1,5859118,425,-1366,-493,-1489,-299,-47,438,168,-220
1,5859123,425,-1366,-493,-1489,-299,-47,438,168,-220
1,5859130,425,-1366,-493,-1489,-299,-47,438,168,-220
1,5859138,426,-1365,-488,-1490,-295,-41,438,168,-220
1,5859144,426,-1365,-488,-1490,-295,-41,438,168,-220
1,5859151,426,-1365,-488,-1490,-295,-41,438,168,-220
1,5859160,422,-1365,-491,-1495,-300,-42,439,167,-227
1,5859166,422,-1365,-491,-1495,-300,-42,439,167,-227
1,5859173,422,-1365,-491,-1495,-300,-42,439,167,-227
1,5859180,423,-1365,-491,-1489,-299,-46,439,167,-227
1,5859187,423,-1365,-491,-1489,-299,-46,439,167,-227
1,5859192,426,-1366,-490,-1486,-304,-43,439,167,-227
1,5859201,426,-1366,-490,-1486,-304,-43,439,167,-227
1,5859209,426,-1366,-490,-1486,-304,-43,439,167,-227
1,5859216,424,-1367,-488,-1488,-298,-42,439,167,-227
1,5859223,424,-1367,-488,-1488,-298,-42,439,167,-227
1,5859230,424,-1367,-488,-1488,-298,-42,439,167,-227
1,5859241,423,-1367,-487,-1491,-306,-41,439,167,-227
1,5859255,423,-1369,-491,-1489,-306,-41,439,167,-227
1,5859268,423,-1369,-491,-1489,-306,-41,439,167,-227
1,5859281,426,-1360,-498,-1487,-305,-41,439,167,-227
1,5859293,426,-1360,-498,-1487,-305,-41,439,167,-227
1,5859306,423,-1365,-490,-1490,-295,-34,440,154,-224
1,5859319,424,-1365,-495,-1488,-300,-36,440,154,-224
1,5859333,424,-1366,-492,-1492,-302,-43,440,154,-224
1,5859343,424,-1366,-492,-1492,-302,-43,440,154,-224
1,5859355,425,-1365,-488,-1494,-298,-39,440,154,-224
1,5859367,425,-1365,-488,-1494,-298,-39,440,154,-224
1,5859381,422,-1361,-489,-1487,-304,-40,440,154,-224
1,5859391,422,-1361,-489,-1487,-304,-40,440,154,-224
1,5859406,423,-1364,-488,-1488,-300,-40,440,154,-224
1,5859419,423,-1367,-490,-1488,-298,-40,443,169,-225
1,5859432,423,-1367,-490,-1488,-298,-40,443,169,-225
1,5859445,420,-1361,-494,-1494,-298,-35,443,169,-225
1,5859458,420,-1364,-492,-1492,-301,-33,443,169,-225
1,5859471,420,-1364,-492,-1492,-301,-33,443,169,-225
1,5859485,424,-1366,-495,-1486,-298,-42,443,169,-225
1,5859497,423,-1364,-491,-1492,-302,-38,443,169,-225
1,5859510,423,-1364,-491,-1492,-302,-38,443,169,-225
1,5859522,425,-1364,-489,-1487,-301,-33,443,169,-225
1,5859530,425,-1364,-489,-1487,-301,-33,443,169,-225
1,5859538,423,-1364,-487,-1485,-300,-27,439,171,-225
1,5859547,423,-1364,-487,-1485,-300,-27,439,171,-225
1,5859554,424,-1365,-492,-1481,-297,-37,439,171,-225
1,5859562,424,-1365,-492,-1481,-297,-37,439,171,-225
1,5859572,424,-1365,-492,-1481,-297,-37,439,171,-225
1,5859581,424,-1366,-493,-1481,-300,-32,439,171,-225
1,5859590,424,-1366,-493,-1481,-300,-32,439,171,-225
1,5859598,425,-1363,-491,-1488,-299,-40,439,171,-225
1,5859606,425,-1363,-491,-1488,-299,-40,439,171,-225
1,5859615,425,-1365,-491,-1489,-300,-38,439,171,-225
1,5859625,425,-1365,-491,-1489,-300,-38,439,171,-225
1,5859636,425,-1363,-494,-1488,-301,-38,439,171,-225
1,5859649,425,-1363,-494,-1488,-301,-38,439,171,-225
1,5859662,424,-1363,-488,-1488,-295,-36,437,167,-229
1,5859676,427,-1364,-486,-1492,-300,-37,437,167,-229
1,5859687,427,-1364,-486,-1492,-300,-37,437,167,-229
1,5859699,424,-1363,-491,-1495,-302,-31,437,167,-229
1,5859712,424,-1363,-491,-1495,-302,-31,437,167,-229
1,5859724,424,-1367,-493,-1487,-298,-33,437,167,-229
1,5859736,424,-1362,-485,-1485,-300,-35,437,167,-229
1,5859749,424,-1362,-485,-1485,-300,-35,437,167,-229
1,5859762,423,-1364,-493,-1485,-298,-30,437,167,-229
1,5859775,424,-1364,-495,-1483,-297,-37,437,167,-229
1,5859787,424,-1364,-495,-1483,-297,-37,437,167,-229
1,5859796,424,-1363,-491,-1484,-301,-36,434,168,-226
1,5859809,424,-1363,-491,-1484,-301,-36,434,168,-226
1,5859821,424,-1365,-490,-1485,-305,-39,434,168,-226
1,5859834,422,-1364,-490,-1483,-301,-41,434,168,-226
1,5859843,422,-1364,-490,-1483,-301,-41,434,168,-226
1,5859854,422,-1365,-490,-1488,-301,-36,434,168,-226
1,5859865,422,-1365,-490,-1488,-301,-36,434,168,-226
1,5859879,422,-1365,-493,-1488,-295,-41,434,168,-226
1,5859888,422,-1365,-493,-1488,-295,-41,434,168,-226
1,5859898,424,-1366,-487,-1487,-302,-34,434,168,-226
1,5859906,424,-1366,-487,-1487,-302,-34,434,168,-226
1,5859914,421,-1365,-490,-1494,-304,-31,440,168,-224
1,5859924,421,-1365,-490,-1494,-304,-31,440,168,-224
1,5859939,427,-1363,-496,-1489,-296,-37,440,168,-224
1,5859952,427,-1363,-496,-1489,-296,-37,440,168,-224
1,5859963,425,-1364,-493,-1493,-295,-43,440,168,-224
1,5859976,424,-1363,-492,-1483,-296,-37,440,168,-224
1,5859984,424,-1363,-492,-1483,-296,-37,440,168,-224
1,5859992,424,-1363,-492,-1483,-296,-37,440,168,-224
1,5859999,423,-1362,-485,-1492,-302,-44,440,168,-224
1,5860007,423,-1362,-485,-1492,-302,-44,440,168,-224
1,5860016,422,-1365,-492,-1484,-299,-35,440,168,-224
1,5860025,422,-1365,-492,-1484,-299,-35,440,168,-224
1,5860033,422,-1365,-492,-1484,-299,-35,440,168,-224
1,5860041,424,-1363,-489,-1482,-303,-41,437,163,-225
1,5860048,424,-1363,-489,-1482,-303,-41,437,163,-225
1,5860058,425,-1365,-491,-1486,-298,-36,437,163,-225
1,5860066,425,-1365,-491,-1486,-298,-36,437,163,-225
1,5860078,423,-1363,-489,-1491,-305,-33,437,163,-225
1,5860090,423,-1363,-489,-1491,-305,-33,437,163,-225
1,5860104,423,-1364,-490,-1492,-304,-35,437,163,-225
1,5860118,423,-1367,-492,-1485,-302,-43,437,163,-225
1,5860130,423,-1367,-492,-1485,-302,-43,437,163,-225
1,5860143,424,-1364,-490,-1486,-302,-37,437,163,-225
1,5860158,423,-1363,-489,-1491,-302,-36,438,168,-218
1,5860172,423,-1363,-489,-1491,-302,-36,438,168,-218
1,5860182,422,-1364,-491,-1486,-302,-35,438,168,-218
1,5860192,422,-1364,-491,-1486,-302,-35,438,168,-218
1,5860200,420,-1365,-491,-1482,-301,-46,438,168,-218
1,5860207,420,-1365,-491,-1482,-301,-46,438,168,-218
1,5860216,424,-1364,-492,-1490,-294,-40,438,168,-218
1,5860225,424,-1364,-492,-1490,-294,-40,438,168,-218
1,5860234,425,-1362,-489,-1485,-302,-40,438,168,-218
1,5860243,425,-1362,-489,-1485,-302,-40,438,168,-218
1,5860249,425,-1362,-489,-1485,-302,-40,438,168,-218
1,5860255,424,-1367,-493,-1481,-310,-31,438,168,-218
1,5860262,424,-1367,-493,-1481,-310,-31,438,168,-218
1,5860269,424,-1367,-493,-1481,-310,-31,438,168,-218
1,5860276,424,-1365,-495,-1488,-302,-35,438,168,-218
1,5860282,424,-1365,-495,-1488,-302,-35,438,168,-218
1,5860289,424,-1365,-495,-1488,-302,-35,438,168,-218
1,5860295,425,-1364,-490,-1488,-303,-41,437,167,-223
1,5860303,425,-1364,-490,-1488,-303,-41,437,167,-223
1,5860311,425,-1364,-490,-1488,-303,-41,437,167,-223
1,5860316,426,-1363,-491,-1486,-301,-34,437,167,-223
1,5860323,426,-1363,-491,-1486,-301,-34,437,167,-223
1,5860330,426,-1363,-491,-1486,-301,-34,437,167,-223
1,5860338,424,-1364,-490,-1484,-306,-38,437,167,-223
1,5860345,424,-1364,-490,-1484,-306,-38,437,167,-223
1,5860352,424,-1364,-490,-1484,-306,-38,437,167,-223
1,5860359,425,-1363,-494,-1492,-304,-38,437,167,-223
1,5860365,425,-1363,-494,-1492,-304,-38,437,167,-223
1,5860371,425,-1363,-494,-1492,-304,-38,437,167,-223
1,5860378,424,-1366,-491,-1490,-298,-33,437,167,-223
1,5860386,424,-1366,-491,-1490,-298,-33,437,167,-223
1,5860393,424,-1366,-491,-1490,-298,-33,437,167,-223
1,5860400,427,-1366,-489,-1491,-298,-37,437,167,-223
1,5860407,427,-1366,-489,-1491,-298,-37,437,167,-223
1,5860413,427,-1366,-489,-1491,-298,-37,437,167,-223
1,5860420,428,-1363,-491,-1484,-304,-42,437,173,-231
1,5860426,428,-1363,-491,-1484,-304,-42,437,173,-231
1,5860434,424,-1365,-489,-1492,-308,-37,437,173,-231
1,5860441,424,-1365,-489,-1492,-308,-37,437,173,-231
1,5860448,424,-1365,-489,-1492,-308,-37,437,173,-231
1,5860455,424,-1365,-494,-1492,-295,-38,437,173,-231
1,5860462,424,-1365,-494,-1492,-295,-38,437,173,-231
1,5860470,424,-1365,-494,-1492,-295,-38,437,173,-231
1,5860477,423,-1364,-494,-1501,-296,-36,437,173,-231
1,5860485,423,-1364,-494,-1501,-296,-36,437,173,-231
1,5860491,423,-1364,-494,-1501,-296,-36,437,173,-231
1,5860497,425,-1366,-493,-1494,-298,-40,437,173,-231
1,5860504,425,-1366,-493,-1494,-298,-40,437,173,-231
1,5860512,425,-1366,-493,-1494,-298,-40,437,173,-231
1,5860521,427,-1364,-484,-1497,-296,-40,437,173,-231
1,5860529,427,-1364,-484,-1497,-296,-40,437,173,-231
1,5860537,423,-1364,-487,-1490,-305,-38,436,168,-228
1,5860542,423,-1364,-487,-1490,-305,-38,436,168,-228
1,5860547,423,-1364,-487,-1490,-305,-38,436,168,-228
1,5860552,423,-1364,-487,-1490,-305,-38,436,168,-228
1,5860557,422,-1363,-488,-1496,-307,-37,436,168,-228
1,5860562,422,-1363,-488,-1496,-307,-37,436,168,-228
1,5860568,422,-1363,-488,-1496,-307,-37,436,168,-228
1,5860573,422,-1363,-488,-1496,-307,-37,436,168,-228
1,5860580,424,-1362,-485,-1492,-304,-34,436,168,-228
1,5860587,424,-1362,-485,-1492,-304,-34,436,168,-228
1,5860594,422,-1365,-490,-1487,-309,-38,436,168,-228
1,5860601,422,-1365,-490,-1487,-309,-38,436,168,-228
1,5860606,422,-1365,-490,-1487,-309,-38,436,168,-228
1,5860615,426,-1366,-486,-1487,-308,-39,436,168,-228
1,5860622,426,-1366,-486,-1487,-308,-39,436,168,-228
1,5860628,426,-1366,-486,-1487,-308,-39,436,168,-228
1,5860635,424,-1363,-485,-1486,-306,-36,436,168,-228
1,5860641,424,-1363,-485,-1486,-306,-36,436,168,-228
1,5860647,424,-1363,-485,-1486,-306,-36,436,168,-228
1,5860656,426,-1365,-492,-1489,-300,-38,437,163,-221
1,5860663,426,-1365,-492,-1489,-300,-38,437,163,-221
1,5860670,426,-1365,-492,-1489,-300,-38,437,163,-221
1,5860676,424,-1365,-489,-1494,-302,-38,437,163,-221
1,5860681,424,-1365,-489,-1494,-302,-38,437,163,-221
1,5860689,424,-1365,-489,-1494,-302,-38,437,163,-221
1,5860697,428,-1365,-486,-1491,-299,-32,437,163,-221
1,5860704,428,-1365,-486,-1491,-299,-32,437,163,-221
1,5860710,428,-1365,-486,-1491,-299,-32,437,163,-221
1,5860715,426,-1364,-490,-1488,-303,-35,437,163,-221
1,5860721,426,-1364,-490,-1488,-303,-35,437,163,-221
1,5860726,426,-1364,-490,-1488,-303,-35,437,163,-221
1,5860731,426,-1364,-490,-1488,-303,-35,437,163,-221
1,5860740,426,-1365,-488,-1489,-300,-39,437,163,-221
1,5860748,426,-1365,-488,-1489,-300,-39,437,163,-221
1,5860755,424,-1365,-487,-1490,-301,-36,437,163,-221
1,5860762,424,-1365,-487,-1490,-301,-36,437,163,-221
1,5860767,424,-1365,-487,-1490,-301,-36,437,163,-221
1,5860773,422,-1366,-492,-1493,-297,-40,437,163,-221
1,5860779,422,-1366,-492,-1493,-297,-40,437,163,-221
1,5860787,422,-1366,-492,-1493,-297,-40,437,163,-221
1,5860794,423,-1364,-488,-1494,-308,-39,431,167,-221
1,5860799,423,-1364,-488,-1494,-308,-39,431,167,-227
1,5860807,423,-1364,-488,-1494,-308,-39,431,167,-227
1,5860815,424,-1365,-488,-1492,-305,-30,431,167,-227
1,5860823,424,-1365,-488,-1492,-305,-30,431,167,-227
1,5860829,424,-1365,-488,-1492,-305,-30,431,167,-227
1,5860835,425,-1365,-490,-1490,-304,-32,431,167,-227
1,5860842,425,-1365,-490,-1490,-304,-32,431,167,-227
1,5860848,425,-1365,-490,-1490,-304,-32,431,167,-227
1,5860856,426,-1364,-490,-1494,-298,-38,431,167,-227
1,5860864,426,-1364,-490,-1494,-298,-38,431,167,-227
1,5860873,426,-1364,-490,-1494,-298,-38,431,167,-227
1,5860880,424,-1362,-494,-1488,-300,-28,431,167,-227
1,5860887,424,-1362,-494,-1488,-300,-28,431,167,-227
1,5860893,426,-1367,-492,-1486,-302,-36,431,167,-227
1,5860898,426,-1367,-492,-1486,-302,-36,431,167,-227
1,5860907,426,-1367,-492,-1486,-302,-36,431,167,-227
1,5860914,424,-1367,-489,-1488,-307,-41,440,164,-228
1,5860921,424,-1367,-489,-1488,-307,-41,440,164,-228
1,5860928,424,-1367,-489,-1488,-307,-41,440,164,-228
1,5860934,428,-1366,-489,-1483,-300,-45,440,164,-228
1,5860941,428,-1366,-489,-1483,-300,-45,440,164,-228
1,5860948,428,-1366,-489,-1483,-300,-45,440,164,-228
1,5860957,423,-1362,-488,-1486,-312,-36,440,164,-228
1,5860964,423,-1362,-488,-1486,-312,-36,440,164,-228
1,5860970,423,-1362,-488,-1486,-312,-36,440,164,-228
1,5860977,423,-1364,-485,-1481,-304,-39,440,164,-228
1,5860982,423,-1364,-485,-1481,-304,-39,440,164,-228
1,5860987,423,-1364,-485,-1481,-304,-39,440,164,-228
1,5860993,423,-1364,-485,-1481,-304,-39,440,164,-228
1,5860998,425,-1364,-490,-1484,-298,-38,440,164,-228
1,5861003,425,-1364,-490,-1484,-298,-38,440,164,-228
1,5861008,425,-1364,-490,-1484,-298,-38,440,164,-228
1,5861013,425,-1364,-490,-1484,-298,-38,440,164,-228
1,5861018,427,-1366,-491,-1490,-301,-40,440,164,-228
1,5861024,427,-1366,-491,-1490,-301,-40,440,164,-228
1,5861030,427,-1366,-491,-1490,-301,-40,440,164,-228
1,5861039,427,-1366,-491,-1490,-301,-40,433,171,-235
1,5861045,427,-1366,-491,-1490,-301,-40,433,171,-235
1,5861051,427,-1366,-491,-1490,-301,-40,433,171,-235
1,5861059,422,-1364,-489,-1487,-299,-39,433,171,-235
1,5861066,422,-1364,-489,-1487,-299,-39,433,171,-235
1,5861074,424,-1365,-491,-1489,-301,-34,433,171,-235
1,5861082,424,-1365,-491,-1489,-301,-34,433,171,-235
1,5861090,424,-1365,-491,-1489,-301,-34,433,171,-235
1,5861095,426,-1362,-493,-1491,-301,-40,433,171,-235
1,5861103,426,-1362,-493,-1491,-301,-40,433,171,-235
1,5861108,426,-1362,-493,-1491,-301,-40,433,171,-235
1,5861114,423,-1363,-489,-1492,-310,-45,433,171,-235
1,5861122,423,-1363,-489,-1492,-310,-45,433,171,-235
1,5861130,423,-1363,-489,-1492,-310,-45,433,171,-235
1,5861138,424,-1367,-491,-1499,-305,-36,433,171,-235
1,5861144,424,-1367,-491,-1499,-305,-36,433,171,-235
1,5861152,424,-1367,-491,-1499,-305,-36,433,171,-235
1,5861159,422,-1362,-485,-1494,-303,-40,439,161,-227
1,5861167,422,-1362,-485,-1494,-303,-40,439,161,-227
1,5861175,423,-1366,-490,-1493,-301,-38,439,161,-227
1,5861183,423,-1366,-490,-1493,-301,-38,439,161,-227
1,5861189,423,-1366,-490,-1493,-301,-38,439,161,-227
1,5861196,421,-1364,-489,-1488,-295,-42,439,161,-227
1,5861201,421,-1364,-489,-1488,-295,-42,439,161,-227
1,5861207,421,-1364,-489,-1488,-295,-42,439,161,-227
1,5861215,423,-1366,-489,-1486,-296,-36,439,161,-227
1,5861223,423,-1366,-489,-1486,-296,-36,439,161,-227
1,5861230,423,-1366,-489,-1486,-296,-36,439,161,-227
1,5861236,422,-1367,-492,-1488,-302,-38,439,161,-227
1,5861243,422,-1367,-492,-1488,-302,-38,439,161,-227
1,5861256,425,-1363,-494,-1483,-310,-38,439,161,-227
1,5861268,425,-1363,-494,-1483,-310,-38,439,161,-227
1,5861278,426,-1365,-489,-1487,-305,-40,431,167,-227
1,5861287,426,-1365,-489,-1487,-305,-40,431,167,-227
1,5861296,422,-1365,-489,-1482,-304,-46,431,167,-227
1,5861304,422,-1365,-489,-1482,-304,-46,431,167,-227
1,5861312,422,-1365,-489,-1482,-304,-46,431,167,-227
1,5861320,424,-1366,-485,-1487,-303,-44,431,167,-227
1,5861334,424,-1366,-485,-1487,-303,-44,431,167,-227
1,5861347,425,-1364,-491,-1487,-300,-44,431,167,-227
1,5861361,422,-1366,-487,-1495,-301,-46,431,167,-227
1,5861370,422,-1366,-487,-1495,-301,-46,431,167,-227
1,5861384,421,-1367,-488,-1494,-300,-41,431,167,-227
1,5861395,421,-1363,-491,-1488,-302,-41,431,167,-227
1,5861409,421,-1363,-491,-1488,-302,-41,431,167,-227
1,5861421,424,-1363,-488,-1488,-298,-40,443,169,-223
1,5861434,427,-1365,-494,-1489,-296,-36,443,169,-223
1,5861447,427,-1365,-494,-1489,-296,-36,443,169,-223
1,5861456,427,-1365,-491,-1489,-303,-37,443,169,-223
1,5861468,427,-1365,-491,-1489,-303,-37,443,169,-223
1,5861483,427,-1362,-491,-1486,-311,-41,443,169,-223
1,5861498,422,-1368,-495,-1481,-299,-40,443,169,-223
1,5861508,422,-1368,-495,-1481,-299,-40,443,169,-223
1,5861519,424,-1366,-490,-1493,-296,-39,443,169,-223
1,5861533,424,-1366,-490,-1493,-296,-39,443,169,-223
1,5861543,425,-1365,-490,-1493,-300,-36,443,171,-227
1,5861552,425,-1365,-490,-1493,-300,-36,443,171,-227
1,5861559,424,-1364,-492,-1486,-302,-38,443,171,-227
1,5861568,424,-1364,-492,-1486,-302,-38,443,171,-227
1,5861580,425,-1365,-488,-1486,-304,-40,443,171,-227
1,5861593,425,-1365,-488,-1486,-304,-40,443,171,-227
1,5861606,425,-1363,-496,-1488,-300,-43,443,171,-227
1,5861619,425,-1363,-496,-1488,-300,-43,443,171,-227
1,5861633,425,-1363,-496,-1488,-300,-43,443,171,-227
1,5861646,424,-1361,-488,-1490,-308,-41,443,171,-227
1,5861658,425,-1364,-487,-1492,-299,-48,439,171,-223
1,5861670,425,-1364,-487,-1492,-299,-48,439,171,-223
1,5861683,425,-1367,-494,-1481,-300,-39,439,171,-223
1,5861694,425,-1365,-488,-1494,-301,-40,439,171,-223
1,5861704,425,-1365,-488,-1494,-301,-40,439,171,-223
1,5861718,422,-1364,-487,-1491,-301,-38,439,171,-223
1,5861731,422,-1364,-487,-1491,-301,-38,439,171,-223
1,5861744,424,-1363,-490,-1487,-299,-33,439,171,-223
1,5861757,425,-1364,-493,-1486,-296,-31,439,171,-223
1,5861771,425,-1364,-493,-1486,-296,-31,439,171,-223
1,5861784,426,-1362,-489,-1491,-297,-38,434,172,-226
1,5861798,425,-1363,-488,-1487,-309,-40,434,172,-226
1,5861811,425,-1363,-488,-1487,-309,-40,434,172,-226
1,5861822,424,-1365,-491,-1481,-301,-32,434,172,-226
1,5861833,424,-1365,-491,-1481,-301,-32,434,172,-226
1,5861847,425,-1364,-486,-1483,-304,-37,434,172,-226
1,5861860,425,-1365,-490,-1490,-305,-42,434,172,-226
1,5861872,425,-1365,-490,-1490,-305,-42,434,172,-226
1,5861884,424,-1365,-491,-1491,-304,-39,434,172,-226
1,5861897,424,-1364,-497,-1491,-299,-37,434,172,-226
1,5861909,424,-1364,-497,-1491,-299,-37,434,172,-226
1,5861919,423,-1365,-490,-1486,-304,-39,434,166,-220
1,5861927,423,-1365,-490,-1486,-304,-39,434,166,-220
1,5861935,424,-1364,-490,-1489,-306,-39,434,166,-220
1,5861944,424,-1364,-490,-1489,-306,-39,434,166,-220
1,5861952,424,-1364,-490,-1489,-306,-39,434,166,-220
1,5861966,425,-1366,-488,-1488,-302,-42,434,166,-220
1,5861979,423,-1363,-492,-1490,-299,-43,434,166,-220
1,5861987,423,-1363,-492,-1490,-299,-43,434,166,-220
1,5861995,424,-1365,-489,-1492,-304,-35,434,166,-220
1,5862003,424,-1365,-489,-1492,-304,-35,434,166,-220
1,5862011,424,-1365,-489,-1492,-304,-35,434,166,-220
1,5862020,424,-1364,-496,-1495,-302,-39,434,166,-220
1,5862028,424,-1364,-496,-1495,-302,-39,434,166,-220
1,5862036,424,-1364,-490,-1492,-298,-38,431,167,-227
1,5862044,424,-1364,-490,-1492,-298,-38,431,167,-227
1,5862052,424,-1364,-490,-1492,-298,-38,431,167,-227
1,5862061,421,-1367,-491,-1488,-302,-42,431,167,-227
1,5862069,421,-1367,-491,-1488,-302,-42,431,167,-227
1,5862078,424,-1363,-487,-1487,-302,-36,431,167,-227
1,5862087,424,-1363,-487,-1487,-302,-36,431,167,-227
1,5862097,422,-1363,-489,-1495,-301,-32,431,167,-227
1,5862107,422,-1363,-489,-1495,-301,-32,431,167,-227
1,5862116,425,-1365,-496,-1486,-306,-36,431,167,-227
1,5862126,425,-1365,-496,-1486,-306,-36,431,167,-227
1,5862139,425,-1363,-490,-1489,-312,-39,431,167,-227
1,5862154,425,-1363,-490,-1489,-312,-39,431,167,-227
1,5862166,423,-1365,-488,-1486,-302,-39,435,169,-233
1,5862175,422,-1365,-491,-1482,-305,-38,435,169,-233
1,5862188,422,-1365,-491,-1482,-305,-38,435,169,-233
1,5862202,423,-1362,-492,-1484,-302,-40,435,169,-233
1,5862211,423,-1362,-492,-1484,-302,-40,435,169,-233
1,5862222,424,-1363,-490,-1491,-299,-34,435,169,-233
1,5862237,426,-1366,-490,-1487,-299,-36,435,169,-233
1,5862249,426,-1366,-490,-1487,-299,-36,435,169,-233
1,5862256,423,-1367,-488,-1487,-301,-41,435,169,-233
1,5862263,423,-1367,-488,-1487,-301,-41,435,169,-233
1,5862272,423,-1367,-488,-1487,-301,-41,435,169,-233
1,5862280,423,-1367,-488,-1487,-301,-41,436,172,-228
1,5862288,423,-1367,-488,-1487,-301,-41,436,172,-228
1,5862295,423,-1363,-493,-1489,-301,-37,436,172,-228
1,5862301,423,-1363,-493,-1489,-301,-37,436,172,-228
1,5862306,423,-1363,-493,-1489,-301,-37,436,172,-228
1,5862315,423,-1363,-484,-1485,-299,-41,436,172,-228
1,5862322,423,-1363,-484,-1485,-299,-41,436,172,-228
1,5862329,423,-1363,-484,-1485,-299,-41,436,172,-228
1,5862335,426,-1362,-491,-1485,-295,-42,436,172,-228
1,5862341,426,-1362,-491,-1485,-295,-42,436,172,-228
1,5862348,426,-1362,-491,-1485,-295,-42,436,172,-228
1,5862355,426,-1364,-487,-1482,-300,-41,436,172,-228
1,5862363,426,-1364,-487,-1482,-300,-41,436,172,-228
1,5862372,426,-1364,-487,-1482,-300,-41,436,172,-228
1,5862378,427,-1364,-489,-1485,-300,-41,436,172,-228
1,5862385,427,-1364,-489,-1485,-300,-41,436,172,-228
1,5862394,424,-1361,-488,-1487,-299,-47,436,172,-228
1,5862401,424,-1361,-488,-1487,-299,-47,436,172,-228
1,5862407,424,-1361,-488,-1487,-299,-47,436,172,-228
1,5862415,423,-1365,-488,-1488,-301,-44,440,176,-228
1,5862421,423,-1365,-488,-1488,-301,-44,440,176,-228
1,5862427,423,-1365,-488,-1488,-301,-44,440,176,-228
1,5862434,422,-1364,-488,-1484,-305,-41,440,176,-228
1,5862443,422,-1364,-488,-1484,-305,-41,440,176,-228
1,5862449,422,-1364,-488,-1484,-305,-41,440,176,-228
1,5862454,422,-1364,-488,-1484,-305,-41,440,176,-228
1,5862459,424,-1364,-491,-1488,-305,-35,440,176,-228
1,5862466,424,-1364,-491,-1488,-305,-35,440,176,-228
1,5862472,424,-1364,-491,-1488,-305,-35,440,176,-228
1,5862480,424,-1366,-490,-1489,-303,-40,440,176,-228
1,5862487,424,-1366,-490,-1489,-303,-40,440,176,-228
1,5862493,424,-1366,-490,-1489,-303,-40,440,176,-228
1,5862500,426,-1364,-493,-1486,-300,-44,440,176,-228
1,5862507,426,-1364,-493,-1486,-300,-44,440,176,-228
1,5862514,424,-1364,-494,-1490,-304,-42,440,176,-228
1,5862520,424,-1364,-494,-1490,-304,-42,440,176,-228
1,5862528,424,-1364,-494,-1490,-304,-42,440,176,-228
1,5862535,422,-1364,-485,-1490,-307,-45,438,168,-228
1,5862541,422,-1364,-485,-1490,-307,-45,438,168,-228
1,5862546,422,-1364,-485,-1490,-307,-45,438,168,-228
1,5862551,422,-1364,-485,-1490,-307,-45,438,168,-228
1,5862556,425,-1366,-490,-1488,-306,-40,438,168,-228
1,5862561,425,-1366,-490,-1488,-306,-40,438,168,-228
1,5862566,425,-1366,-490,-1488,-306,-40,438,168,-228
1,5862574,425,-1366,-490,-1488,-306,-40,438,168,-228
1,5862582,423,-1368,-489,-1492,-303,-33,438,168,-228
1,5862590,423,-1368,-489,-1492,-303,-33,438,168,-228
1,5862596,423,-1366,-488,-1496,-299,-40,438,168,-228
1,5862603,423,-1366,-488,-1496,-299,-40,438,168,-228
1,5862609,423,-1366,-488,-1496,-299,-40,438,168,-228
1,5862617,422,-1367,-494,-1493,-297,-32,438,168,-228
1,5862624,422,-1367,-494,-1493,-297,-32,438,168,-228
1,5862632,422,-1367,-494,-1493,-297,-32,438,168,-228
1,5862639,423,-1366,-488,-1486,-300,-37,438,168,-228
1,5862646,423,-1366,-488,-1486,-300,-37,438,168,-228
1,5862653,423,-1366,-488,-1486,-300,-37,438,168,-228
1,5862661,424,-1363,-488,-1486,-303,-36,437,167,-231
1,5862669,424,-1363,-488,-1486,-303,-36,437,167,-231
1,5862676,423,-1366,-488,-1494,-302,-36,437,167,-231
1,5862683,423,-1366,-488,-1494,-302,-36,437,167,-231
1,5862690,423,-1366,-488,-1494,-302,-36,437,167,-231
1,5862697,424,-1363,-491,-1494,-299,-44,437,167,-231
1,5862706,424,-1363,-491,-1494,-299,-44,437,167,-231
1,5862712,424,-1363,-491,-1494,-299,-44,437,167,-231
1,5862718,426,-1366,-487,-1485,-300,-35,437,167,-231
1,5862725,426,-1366,-487,-1485,-300,-35,437,167,-231
1,5862731,426,-1366,-487,-1485,-300,-35,437,167,-231
1,5862738,424,-1365,-494,-1486,-296,-40,437,167,-231
1,5862746,424,-1365,-494,-1486,-296,-40,437,167,-231
1,5862752,424,-1365,-494,-1486,-296,-40,437,167,-231
1,5862759,423,-1362,-492,-1480,-301,-41,437,167,-231
1,5862766,423,-1362,-492,-1480,-301,-41,437,167,-231
1,5862772,423,-1362,-492,-1480,-301,-41,437,167,-231
1,5862779,422,-1364,-492,-1483,-293,-39,442,164,-234
1,5862788,422,-1364,-492,-1483,-293,-39,442,164,-234
1,5862793,422,-1364,-492,-1483,-293,-39,442,164,-234
1,5862800,425,-1365,-487,-1487,-301,-43,442,164,-234
1,5862808,425,-1365,-487,-1487,-301,-43,442,164,-234
1,5862815,425,-1364,-491,-1482,-300,-42,442,164,-234
1,5862822,425,-1364,-491,-1482,-300,-42,442,164,-234
1,5862830,425,-1364,-491,-1482,-300,-42,442,164,-234
1,5862838,424,-1363,-489,-1483,-302,-45,442,164,-234
1,5862843,424,-1363,-489,-1483,-302,-45,442,164,-234
1,5862851,424,-1363,-489,-1483,-302,-45,442,164,-234
1,5862859,427,-1365,-490,-1494,-306,-42,442,164,-234
1,5862866,427,-1365,-490,-1494,-306,-42,442,164,-234
1,5862873,427,-1365,-490,-1494,-306,-42,442,164,-234
1,5862879,427,-1366,-493,-1491,-302,-39,442,164,-234
1,5862886,427,-1366,-493,-1491,-302,-39,442,164,-234
1,5862893,427,-1366,-493,-1491,-302,-39,442,164,-234
1,5862901,424,-1366,-493,-1482,-301,-38,442,164,-234
1,5862907,424,-1366,-493,-1482,-301,-38,442,164,-234
1,5862915,422,-1367,-486,-1484,-295,-34,437,161,-229
1,5862923,422,-1367,-486,-1484,-295,-34,437,161,-229
1,5862929,422,-1367,-486,-1484,-295,-34,437,161,-229
1,5862934,425,-1365,-494,-1486,-296,-38,437,161,-229
1,5862939,425,-1365,-494,-1486,-296,-38,437,161,-229
1,5862944,425,-1365,-494,-1486,-296,-38,437,161,-229
1,5862951,425,-1365,-494,-1486,-296,-38,437,161,-229
1,5862959,421,-1362,-494,-1491,-299,-42,437,161,-229
1,5862965,421,-1362,-494,-1491,-299,-42,437,161,-229
1,5862973,421,-1362,-494,-1491,-299,-42,437,161,-229
1,5862979,424,-1365,-488,-1492,-307,-42,437,161,-229
1,5862984,424,-1365,-488,-1492,-307,-42,437,161,-229
1,5862989,424,-1365,-488,-1492,-307,-42,437,161,-229
1,5862994,423,-1368,-491,-1491,-301,-38,437,161,-229
1,5863000,423,-1368,-491,-1491,-301,-38,437,161,-229
1,5863005,423,-1368,-491,-1491,-301,-38,437,161,-229
1,5863010,423,-1368,-491,-1491,-301,-38,437,161,-229
1,5863016,427,-1363,-492,-1485,-303,-41,437,161,-229
1,5863021,427,-1363,-492,-1485,-303,-41,437,161,-229
1,5863028,427,-1363,-492,-1485,-303,-41,437,161,-229
1,5863035,425,-1366,-487,-1486,-304,-39,445,167,-225
1,5863043,425,-1366,-487,-1486,-304,-39,445,167,-225
1,5863051,425,-1366,-487,-1486,-304,-39,445,167,-225
1,5863059,423,-1366,-489,-1491,-301,-42,445,167,-225
1,5863065,423,-1366,-489,-1491,-301,-42,445,167,-225
1,5863072,423,-1366,-489,-1491,-301,-42,445,167,-225
1,5863078,421,-1365,-485,-1488,-303,-40,445,167,-225
1,5863086,421,-1365,-485,-1488,-303,-40,445,167,-225
1,5863092,421,-1365,-485,-1488,-303,-40,445,167,-225
1,5863099,422,-1365,-491,-1487,-307,-40,445,167,-225
1,5863106,422,-1365,-491,-1487,-307,-40,445,167,-225
1,5863113,422,-1365,-491,-1487,-307,-40,445,167,-225
1,5863120,421,-1364,-486,-1487,-296,-37,445,167,-225
1,5863128,421,-1364,-486,-1487,-296,-37,445,167,-225
1,5863136,421,-1364,-486,-1487,-296,-37,445,167,-225
1,5863142,421,-1364,-486,-1487,-296,-37,445,167,-225
1,5863150,421,-1364,-486,-1487,-296,-37,445,167,-225
1,5863156,423,-1365,-491,-1491,-310,-36,438,166,-222
1,5863164,423,-1365,-491,-1491,-310,-36,438,166,-222
1,5863171,423,-1365,-491,-1491,-310,-36,438,166,-222
1,5863178,423,-1366,-486,-1494,-303,-36,438,166,-222
1,5863185,423,-1366,-486,-1494,-303,-36,438,166,-222
1,5863192,423,-1366,-486,-1494,-303,-36,438,166,-222
1,5863198,424,-1364,-489,-1494,-299,-38,438,166,-222
1,5863206,424,-1364,-489,-1494,-299,-38,438,166,-222
1,5863214,424,-1364,-489,-1494,-299,-38,438,166,-222
1,5863220,420,-1366,-490,-1489,-302,-39,438,166,-222
1,5863228,420,-1366,-490,-1489,-302,-39,438,166,-222
1,5863235,422,-1362,-484,-1492,-305,-38,438,166,-222
1,5863243,422,-1362,-484,-1492,-305,-38,438,166,-222
1,5863250,422,-1362,-484,-1492,-305,-38,438,166,-222
1,5863258,421,-1365,-492,-1491,-300,-44,438,166,-222
1,5863268,421,-1365,-492,-1491,-300,-44,438,166,-222
1,5863279,425,-1366,-486,-1487,-298,-41,438,162,-230
1,5863291,425,-1366,-486,-1487,-298,-41,438,162,-230
1,5863305,424,-1363,-488,-1491,-298,-38,438,162,-230
1,5863317,424,-1366,-488,-1490,-298,-35,438,162,-230
1,5863329,424,-1366,-488,-1490,-298,-35,438,162,-230
1,5863343,420,-1363,-492,-1491,-291,-38,438,162,-230
1,5863356,423,-1363,-486,-1483,-300,-36,438,162,-230
1,5863369,423,-1363,-486,-1483,-300,-36,438,162,-230
1,5863380,424,-1365,-489,-1484,-303,-34,438,162,-230
1,5863393,424,-1365,-489,-1484,-303,-34,438,162,-230
1,5863407,423,-1364,-491,-1484,-304,-35,436,160,-230
1,5863420,423,-1365,-481,-1483,-301,-36,436,160,-230
1,5863431,423,-1365,-481,-1483,-301,-36,436,160,-230
1,5863444,421,-1363,-488,-1491,-302,-38,436,160,-230
1,5863457,424,-1366,-493,-1491,-300,-38,436,160,-230
1,5863472,424,-1366,-493,-1491,-300,-38,436,160,-230
1,5863482,424,-1363,-492,-1489,-301,-41,436,160,-230
1,5863493,424,-1363,-492,-1489,-301,-41,436,160,-230
1,5863501,424,-1365,-493,-1492,-299,-43,436,160,-230
1,5863510,424,-1365,-493,-1492,-299,-43,436,160,-230
1,5863518,426,-1363,-489,-1484,-302,-40,436,160,-230
1,5863527,426,-1363,-489,-1484,-302,-40,436,160,-230
1,5863541,424,-1366,-490,-1481,-298,-35,435,165,-223
1,5863549,424,-1366,-490,-1481,-298,-35,435,165,-223
1,5863558,421,-1366,-493,-1489,-300,-32,435,165,-223
1,5863566,421,-1366,-493,-1489,-300,-32,435,165,-223
1,5863579,423,-1364,-490,-1487,-301,-41,435,165,-223
1,5863595,424,-1365,-492,-1491,-299,-41,435,165,-223
1,5863607,424,-1365,-492,-1491,-299,-41,435,165,-223
1,5863618,420,-1364,-488,-1486,-305,-36,435,165,-223
1,5863631,420,-1364,-488,-1486,-305,-36,435,165,-223
1,5863646,426,-1363,-496,-1480,-301,-40,435,165,-223
1,5863658,421,-1364,-490,-1487,-297,-43,434,170,-230
1,5863670,421,-1364,-490,-1487,-297,-43,434,170,-230
1,5863682,425,-1364,-486,-1491,-299,-42,434,170,-230
1,5863696,425,-1365,-491,-1485,-299,-41,434,170,-230
1,5863707,425,-1365,-491,-1485,-299,-41,434,170,-230
1,5863716,424,-1366,-489,-1487,-302,-37,434,170,-230
1,5863730,424,-1366,-489,-1487,-302,-37,434,170,-230
1,5863742,423,-1365,-491,-1491,-301,-37,434,170,-230
1,5863754,423,-1365,-491,-1491,-301,-37,434,170,-230
1,5863766,423,-1362,-486,-1489,-297,-41,434,170,-230
1,5863780,423,-1364,-486,-1480,-305,-42,446,158,-228
1,5863791,423,-1364,-486,-1480,-305,-42,446,158,-228
1,5863801,423,-1364,-487,-1494,-294,-44,446,158,-228
1,5863815,424,-1365,-490,-1495,-297,-44,446,158,-228
1,5863828,424,-1365,-490,-1495,-297,-44,446,158,-228
1,5863841,424,-1364,-491,-1488,-300,-39,446,158,-228
1,5863854,424,-1364,-491,-1488,-300,-39,446,158,-228
1,5863866,424,-1367,-495,-1490,-297,-32,446,158,-228
1,5863880,425,-1367,-491,-1485,-307,-36,446,158,-228
1,5863894,425,-1367,-491,-1485,-307,-36,446,158,-228
1,5863907,422,-1366,-494,-1483,-299,-37,435,165,-223
1,5863917,424,-1367,-489,-1478,-302,-35,435,165,-223
1,5863931,424,-1367,-489,-1478,-302,-35,435,165,-223
1,5863944,427,-1364,-487,-1490,-302,-34,435,165,-223
1,5863957,423,-1366,-492,-1493,-303,-39,435,165,-223
1,5863966,423,-1366,-492,-1493,-303,-39,435,165,-223
1,5863979,421,-1365,-490,-1492,-305,-39,435,165,-223
1,5863987,421,-1365,-490,-1492,-305,-39,435,165,-223
1,5863995,423,-1365,-493,-1487,-302,-36,435,165,-223
1,5864003,423,-1365,-493,-1487,-302,-36,435,165,-223
1,5864011,423,-1365,-493,-1487,-302,-36,435,165,-223
1,5864019,423,-1365,-492,-1490,-293,-37,435,165,-223
1,5864028,423,-1365,-492,-1490,-293,-37,435,165,-223
1,5864036,422,-1362,-489,-1486,-302,-36,439,159,-229
1,5864044,422,-1362,-489,-1486,-302,-36,439,159,-229
1,5864052,422,-1362,-489,-1486,-302,-36,439,159,-229
1,5864066,424,-1365,-488,-1491,-300,-41,439,159,-229
1,5864079,425,-1367,-489,-1492,-302,-46,439,159,-229
1,5864089,425,-1367,-489,-1492,-302,-46,439,159,-229
1,5864097,423,-1366,-487,-1495,-304,-46,439,159,-229
1,5864107,423,-1366,-487,-1495,-304,-46,439,159,-229
1,5864114,423,-1366,-487,-1495,-304,-46,439,159,-229
1,5864122,423,-1364,-495,-1482,-304,-33,439,159,-229
1,5864133,423,-1364,-495,-1482,-304,-33,439,159,-229
1,5864145,424,-1366,-494,-1489,-304,-39,439,159,-229
1,5864159,424,-1365,-488,-1494,-299,-42,433,165,-227
1,5864170,424,-1365,-488,-1494,-299,-42,433,165,-227
1,5864184,426,-1368,-491,-1488,-300,-38,433,165,-227
1,5864197,425,-1365,-495,-1488,-303,-37,433,165,-227
1,5864207,425,-1365,-495,-1488,-303,-37,433,165,-227
1,5864220,422,-1367,-490,-1491,-295,-37,433,165,-227
1,5864233,422,-1367,-490,-1491,-295,-37,433,165,-227
1,5864248,422,-1366,-489,-1488,-299,-40,433,165,-227
1,5864259,422,-1367,-492,-1483,-300,-37,433,165,-227
1,5864271,422,-1367,-492,-1483,-300,-37,433,165,-227
1,5864278,426,-1365,-488,-1487,-301,-43,438,160,-224
1,5864286,426,-1365,-488,-1487,-301,-43,438,160,-224
1,5864293,426,-1365,-488,-1487,-301,-43,438,160,-224
1,5864299,425,-1365,-487,-1484,-301,-41,438,160,-224
1,5864307,425,-1365,-487,-1484,-301,-41,438,160,-224
1,5864314,422,-1366,-489,-1489,-306,-46,438,160,-224
1,5864323,422,-1366,-489,-1489,-306,-46,438,160,-224
1,5864330,422,-1366,-489,-1489,-306,-46,438,160,-224
1,5864337,422,-1366,-489,-1489,-306,-46,438,160,-224
1,5864344,422,-1366,-489,-1489,-306,-46,438,160,-224
1,5864352,422,-1366,-489,-1489,-306,-46,438,160,-224
1,5864359,426,-1366,-491,-1487,-300,-39,438,160,-224
1,5864367,426,-1366,-491,-1487,-300,-39,438,160,-224
1,5864373,426,-1366,-491,-1487,-300,-39,438,160,-224
1,5864379,424,-1367,-490,-1477,-290,-42,438,160,-224
1,5864388,424,-1367,-490,-1477,-290,-42,438,160,-224
1,5864395,424,-1364,-493,-1484,-301,-38,444,168,-228
1,5864400,424,-1364,-493,-1484,-301,-38,444,168,-228
1,5864408,424,-1364,-493,-1484,-301,-38,444,168,-228
1,5864416,423,-1364,-481,-1481,-302,-38,444,168,-228
1,5864423,423,-1364,-481,-1481,-302,-38,444,168,-228
1,5864431,423,-1364,-481,-1481,-302,-38,444,168,-228
1,5864438,423,-1369,-488,-1481,-302,-36,444,168,-228
1,5864445,423,-1369,-488,-1481,-302,-36,444,168,-228
1,5864452,423,-1369,-488,-1481,-302,-36,444,168,-228
1,5864459,425,-1366,-489,-1489,-301,-37,444,168,-228
1,5864467,425,-1366,-489,-1489,-301,-37,444,168,-228
1,5864475,423,-1363,-493,-1492,-298,-36,444,168,-228
1,5864482,423,-1363,-493,-1492,-298,-36,444,168,-228
1,5864489,423,-1363,-493,-1492,-298,-36,444,168,-228
1,5864498,425,-1363,-487,-1489,-306,-42,444,168,-228
1,5864504,425,-1363,-487,-1489,-306,-42,444,168,-228
1,5864511,425,-1363,-487,-1489,-306,-42,444,168,-228
1,5864517,421,-1363,-492,-1489,-306,-45,444,168,-228
1,5864524,421,-1363,-492,-1489,-306,-45,444,168,-228
1,5864532,421,-1363,-492,-1489,-306,-45,444,168,-228
1,5864540,422,-1369,-488,-1495,-303,-41,438,168,-226
1,5864545,422,-1369,-488,-1495,-303,-41,438,168,-226
1,5864550,422,-1369,-488,-1495,-303,-41,438,168,-226
1,5864555,422,-1363,-492,-1484,-303,-36,438,168,-226
1,5864560,422,-1363,-492,-1484,-303,-36,438,168,-226
1,5864565,422,-1363,-492,-1484,-303,-36,438,168,-226
1,5864570,422,-1363,-492,-1484,-303,-36,438,168,-226
1,5864578,423,-1363,-491,-1494,-295,-40,438,168,-226
1,5864585,423,-1363,-491,-1494,-295,-40,438,168,-226
1,5864590,423,-1363,-491,-1494,-295,-40,438,168,-226
1,5864595,424,-1364,-488,-1491,-307,-43,438,168,-226
1,5864601,424,-1364,-488,-1491,-307,-43,438,168,-226
1,5864607,424,-1364,-488,-1491,-307,-43,438,168,-226
1,5864612,424,-1364,-488,-1491,-307,-43,438,168,-226
1,5864620,424,-1367,-493,-1496,-300,-33,438,168,-226
1,5864628,424,-1367,-493,-1496,-300,-33,438,168,-226
1,5864635,425,-1366,-494,-1486,-302,-30,438,168,-226
1,5864643,425,-1366,-494,-1486,-302,-30,438,168,-226
1,5864649,425,-1366,-494,-1486,-302,-30,438,168,-226
1,5864655,425,-1363,-487,-1490,-310,-29,441,165,-225
1,5864663,425,-1363,-487,-1490,-310,-29,441,165,-225
1,5864669,425,-1363,-487,-1490,-310,-29,441,165,-225
1,5864676,422,-1367,-492,-1491,-303,-35,441,165,-225
1,5864684,422,-1367,-492,-1491,-303,-35,441,165,-225
1,5864692,422,-1367,-492,-1491,-303,-35,441,165,-225
1,5864699,423,-1363,-495,-1483,-306,-33,441,165,-225
1,5864707,423,-1363,-495,-1483,-306,-33,441,165,-225
1,5864714,423,-1363,-495,-1483,-306,-33,441,165,-225
1,5864721,424,-1364,-486,-1482,-304,-36,441,165,-225
1,5864728,424,-1364,-486,-1482,-304,-36,441,165,-225
1,5864735,421,-1364,-487,-1486,-299,-36,441,165,-225
1,5864743,421,-1364,-487,-1486,-299,-36,441,165,-225
1,5864751,421,-1364,-487,-1486,-299,-36,441,165,-225
1,5864759,426,-1367,-491,-1483,-295,-40,441,165,-225
1,5864766,426,-1367,-491,-1483,-295,-40,441,165,-225
1,5864772,426,-1367,-491,-1483,-295,-40,441,165,-225
1,5864779,423,-1364,-485,-1490,-304,-45,441,167,-231
1,5864786,423,-1364,-485,-1490,-304,-45,441,167,-231
1,5864795,423,-1364,-485,-1490,-304,-45,441,167,-231
1,5864801,425,-1367,-484,-1486,-305,-39,441,167,-231
1,5864807,425,-1367,-484,-1486,-305,-39,441,167,-231
1,5864814,425,-1367,-484,-1486,-305,-39,441,167,-231
1,5864822,423,-1367,-490,-1485,-307,-36,441,167,-231
1,5864829,423,-1367,-490,-1485,-307,-36,441,167,-231
1,5864836,422,-1367,-490,-1485,-307,-39,441,167,-231
1,5864843,422,-1367,-490,-1485,-307,-39,441,167,-231
1,5864850,422,-1367,-490,-1485,-307,-39,441,167,-231
1,5864857,422,-1367,-490,-1485,-307,-39,441,167,-231
1,5864864,422,-1367,-490,-1485,-307,-39,441,167,-231
1,5864872,422,-1367,-490,-1485,-307,-39,441,167,-231
1,5864879,424,-1366,-493,-1488,-295,-44,441,167,-231
1,5864886,424,-1366,-493,-1488,-295,-44,441,167,-231
1,5864894,424,-1366,-493,-1488,-295,-44,441,167,-231
1,5864901,422,-1364,-491,-1485,-302,-39,435,169,-233
1,5864909,422,-1364,-491,-1485,-302,-39,435,169,-233
1,5864915,422,-1365,-485,-1486,-298,-40,435,169,-233
1,5864923,422,-1365,-485,-1486,-298,-40,435,169,-233
1,5864930,422,-1365,-485,-1486,-298,-40,435,169,-233
1,5864937,424,-1367,-490,-1487,-301,-37,435,169,-233
1,5864944,424,-1367,-490,-1487,-301,-37,435,169,-233
1,5864952,424,-1367,-490,-1487,-301,-37,435,169,-233
1,5864961,422,-1367,-491,-1496,-298,-37,435,169,-233
1,5864968,422,-1367,-491,-1496,-298,-37,435,169,-233
1,5864975,424,-1364,-492,-1501,-309,-36,435,169,-233
1,5864980,424,-1364,-492,-1501,-309,-36,435,169,-233
1,5864985,424,-1364,-492,-1501,-309,-36,435,169,-233
1,5864990,424,-1364,-492,-1501,-309,-36,435,169,-233
1,5864994,422,-1368,-493,-1488,-304,-40,435,169,-233
1,5864999,422,-1368,-493,-1488,-304,-40,435,169,-233
1,5865006,422,-1368,-493,-1488,-304,-40,435,169,-233
1,5865010,422,-1368,-493,-1488,-304,-40,435,169,-233
1,5865017,425,-1366,-495,-1493,-302,-37,431,159,-229
1,5865024,425,-1366,-495,-1493,-302,-37,431,159,-229
1,5865031,425,-1366,-495,-1493,-302,-37,431,159,-229
1,5865037,423,-1369,-487,-1491,-304,-34,431,159,-229
1,5865046,423,-1369,-487,-1491,-304,-34,431,159,-229
1,5865053,423,-1369,-487,-1491,-304,-34,431,159,-229
1,5865060,421,-1367,-490,-1488,-299,-44,431,159,-229
1,5865067,421,-1367,-490,-1488,-299,-44,431,159,-229
1,5865073,421,-1367,-490,-1488,-299,-44,431,159,-229
1,5865080,426,-1364,-495,-1483,-307,-45,431,159,-229
1,5865088,426,-1364,-495,-1483,-307,-45,431,159,-229
1,5865093,426,-1364,-495,-1483,-307,-45,431,159,-229
1,5865098,428,-1363,-487,-1483,-309,-44,431,159,-229
1,5865104,428,-1363,-487,-1483,-309,-44,431,159,-229
1,5865111,428,-1363,-487,-1483,-309,-44,431,159,-229
1,5865118,424,-1365,-488,-1488,-304,-49,431,159,-229
1,5865125,424,-1365,-488,-1488,-304,-49,431,159,-229
1,5865133,424,-1365,-488,-1488,-304,-49,431,159,-229
1,5865139,423,-1364,-491,-1485,-302,-43,431,159,-229
1,5865146,423,-1364,-491,-1485,-302,-43,431,159,-229
1,5865154,423,-1364,-491,-1485,-302,-43,431,159,-229
1,5865161,423,-1365,-488,-1490,-299,-42,436,166,-230
1,5865167,423,-1365,-488,-1490,-299,-42,436,166,-230
1,5865176,423,-1364,-486,-1485,-298,-38,436,166,-230
1,5865183,423,-1364,-486,-1485,-298,-38,436,166,-230
1,5865189,423,-1364,-486,-1485,-298,-38,436,166,-230
1,5865196,424,-1364,-490,-1487,-296,-39,436,166,-230
1,5865203,424,-1364,-490,-1487,-296,-39,436,166,-230
1,5865210,424,-1364,-490,-1487,-296,-39,436,166,-230
1,5865218,421,-1365,-492,-1485,-297,-40,436,166,-230
1,5865225,421,-1365,-492,-1485,-297,-40,436,166,-230
1,5865231,421,-1365,-492,-1485,-297,-40,436,166,-230
1,5865238,422,-1363,-492,-1479,-298,-40,436,166,-230
1,5865246,422,-1363,-492,-1479,-298,-40,436,166,-230
1,5865253,422,-1363,-492,-1479,-298,-40,436,166,-230
1,5865263,425,-1364,-494,-1482,-294,-33,436,166,-230
1,5865269,425,-1364,-494,-1482,-294,-33,436,166,-230
1,5865275,425,-1365,-488,-1495,-298,-37,442,164,-224
1,5865289,425,-1365,-488,-1495,-298,-37,442,164,-224
1,5865302,421,-1365,-486,-1491,-300,-40,442,164,-224
1,5865314,421,-1365,-486,-1491,-300,-40,442,164,-224
1,5865328,425,-1363,-486,-1490,-306,-38,442,164,-224
1,5865341,427,-1364,-491,-1489,-299,-31,442,164,-224
1,5865355,427,-1364,-491,-1489,-299,-31,442,164,-224
1,5865367,423,-1365,-495,-1483,-304,-42,442,164,-224
1,5865375,425,-1365,-489,-1487,-307,-42,442,164,-224
1,5865388,425,-1365,-489,-1487,-307,-42,442,164,-224
1,5865401,423,-1364,-486,-1479,-305,-48,436,164,-230
1,5865414,423,-1364,-486,-1479,-305,-48,436,164,-230
1,5865424,426,-1366,-489,-1489,-301,-42,436,164,-230
1,5865437,423,-1364,-488,-1488,-301,-38,436,164,-230
1,5865451,423,-1364,-488,-1488,-301,-38,436,164,-230
1,5865464,422,-1364,-490,-1488,-303,-44,436,164,-230
1,5865475,422,-1364,-490,-1488,-303,-44,436,164,-230
1,5865488,425,-1365,-488,-1485,-301,-39,436,164,-230
1,5865501,424,-1366,-498,-1494,-296,-47,436,164,-230
1,5865513,424,-1366,-498,-1494,-296,-47,436,164,-230
1,5865526,421,-1366,-491,-1493,-304,-40,437,167,-229
1,5865539,424,-1366,-489,-1499,-306,-41,437,167,-229
1,5865546,424,-1366,-489,-1499,-306,-41,437,167,-229
1,5865554,424,-1366,-489,-1499,-306,-41,437,167,-229
1,5865563,426,-1365,-489,-1484,-301,-40,437,167,-229
1,5865571,426,-1365,-489,-1484,-301,-40,437,167,-229
1,5865581,423,-1365,-488,-1485,-302,-42,437,167,-229
1,5865590,423,-1365,-488,-1485,-302,-42,437,167,-229
1,5865604,422,-1364,-487,-1480,-294,-33,437,167,-229
1,5865617,423,-1363,-490,-1475,-297,-38,437,167,-229
1,5865630,423,-1363,-490,-1475,-297,-38,437,167,-229
1,5865641,425,-1364,-496,-1483,-293,-39,437,167,-229
1,5865653,425,-1364,-496,-1483,-293,-39,437,167,-229
1,5865661,423,-1364,-488,-1485,-308,-38,438,166,-216
1,5865669,423,-1364,-488,-1485,-308,-38,438,166,-216
1,5865677,420,-1363,-492,-1485,-302,-38,438,166,-216
1,5865689,420,-1363,-492,-1485,-302,-38,438,166,-216
1,5865701,426,-1366,-492,-1491,-307,-38,438,166,-216
1,5865713,426,-1366,-492,-1491,-307,-38,438,166,-216
1,5865726,424,-1367,-495,-1491,-300,-33,438,166,-216
1,5865741,425,-1364,-492,-1487,-305,-37,438,166,-216
1,5865752,425,-1364,-492,-1487,-305,-37,438,166,-216
1,5865763,423,-1364,-491,-1491,-307,-41,438,166,-216
1,5865776,423,-1364,-491,-1491,-307,-41,438,166,-226
1,5865790,423,-1364,-491,-1491,-307,-41,438,166,-226
1,5865802,423,-1363,-487,-1487,-308,-33,438,166,-226
1,5865810,423,-1363,-487,-1487,-308,-33,438,166,-226
1,5865824,425,-1365,-493,-1487,-307,-36,438,166,-226
1,5865838,424,-1367,-490,-1500,-311,-35,438,166,-226
1,5865850,424,-1367,-490,-1500,-311,-35,438,166,-226
1,5865861,425,-1363,-492,-1493,-301,-38,438,166,-226
1,5865874,425,-1363,-492,-1493,-301,-38,438,166,-226
1,5865886,425,-1364,-492,-1488,-302,-38,438,166,-226
1,5865901,421,-1365,-486,-1486,-299,-33,444,168,-230
1,5865911,421,-1365,-486,-1486,-299,-33,444,168,-230
1,5865921,423,-1364,-490,-1482,-301,-36,444,168,-230
1,5865932,423,-1364,-490,-1482,-301,-36,444,168,-230
1,5865946,425,-1364,-488,-1489,-301,-38,444,168,-230
1,5865959,424,-1362,-492,-1489,-294,-39,444,168,-230
1,5865971,424,-1362,-492,-1489,-294,-39,444,168,-230
1,5865980,424,-1367,-492,-1492,-301,-43,444,168,-230
1,5865989,424,-1367,-492,-1492,-301,-43,444,168,-230
1,5865997,424,-1365,-490,-1491,-299,-38,444,168,-230
1,5866005,424,-1365,-490,-1491,-299,-38,444,168,-230
1,5866013,424,-1365,-490,-1491,-299,-38,444,168,-230
1,5866021,423,-1365,-488,-1493,-297,-33,429,163,-229
1,5866030,423,-1365,-488,-1493,-297,-33,429,163,-229
1,5866038,426,-1364,-485,-1489,-300,-34,429,163,-229
1,5866046,426,-1364,-485,-1489,-300,-34,429,163,-229
1,5866054,426,-1364,-485,-1489,-300,-34,429,163,-229
1,5866062,427,-1365,-491,-1486,-301,-38,429,163,-229
1,5866071,427,-1365,-491,-1486,-301,-38,429,163,-229
1,5866079,424,-1363,-491,-1490,-306,-32,429,163,-229
1,5866092,424,-1363,-491,-1490,-306,-32,429,163,-229
1,5866105,426,-1365,-490,-1496,-303,-36,429,163,-229
1,5866119,424,-1365,-489,-1493,-303,-39,429,163,-229
1,5866129,424,-1365,-489,-1493,-303,-39,429,163,-229
1,5866140,425,-1362,-497,-1495,-305,-33,429,163,-229
1,5866155,425,-1362,-497,-1495,-305,-33,429,163,-229
1,5866167,427,-1363,-489,-1491,-297,-41,438,162,-228
1,5866178,423,-1366,-494,-1486,-303,-35,438,162,-228
1,5866191,423,-1366,-494,-1486,-303,-35,438,162,-228
1,5866201,424,-1363,-489,-1485,-304,-38,438,162,-228
1,5866209,424,-1363,-489,-1485,-304,-38,438,162,-228
1,5866217,424,-1363,-493,-1490,-295,-42,438,162,-228
1,5866228,424,-1363,-493,-1490,-295,-42,438,162,-228
1,5866242,423,-1367,-493,-1487,-302,-48,438,162,-228
1,5866254,423,-1367,-493,-1487,-302,-48,438,162,-228
1,5866268,424,-1363,-488,-1480,-297,-41,438,162,-228
1,5866279,427,-1364,-490,-1490,-306,-43,441,161,-227
1,5866286,427,-1364,-490,-1490,-306,-43,441,161,-227
1,5866291,427,-1364,-490,-1490,-306,-43,441,161,-227
1,5866297,423,-1365,-488,-1494,-307,-46,441,161,-227
1,5866304,423,-1365,-488,-1494,-307,-46,441,161,-227
1,5866312,423,-1365,-488,-1494,-307,-46,441,161,-227
1,5866318,423,-1366,-487,-1492,-295,-37,441,161,-227
1,5866324,423,-1366,-487,-1492,-295,-37,441,161,-227
1,5866333,423,-1366,-487,-1492,-295,-37,441,161,-227
1,5866341,427,-1364,-491,-1484,-301,-35,441,161,-227
1,5866347,427,-1364,-491,-1484,-301,-35,441,161,-227
1,5866353,427,-1364,-491,-1484,-301,-35,441,161,-227
1,5866360,426,-1368,-493,-1488,-297,-36,441,161,-227
1,5866369,426,-1368,-493,-1488,-297,-36,441,161,-227
1,5866376,423,-1368,-491,-1484,-303,-39,441,161,-227
1,5866383,423,-1368,-491,-1484,-303,-39,441,161,-227
1,5866391,423,-1368,-491,-1484,-303,-39,441,161,-227
1,5866398,423,-1365,-486,-1485,-299,-43,440,162,-226
1,5866405,423,-1365,-486,-1485,-299,-43,440,162,-226
1,5866412,423,-1365,-486,-1485,-299,-43,440,162,-226
1,5866420,424,-1363,-485,-1493,-302,-37,440,162,-226
1,5866427,424,-1363,-485,-1493,-302,-37,440,162,-226
1,5866435,426,-1364,-488,-1485,-303,-44,440,162,-226
1,5866442,426,-1364,-488,-1485,-303,-44,440,162,-226
1,5866449,426,-1364,-488,-1485,-303,-44,440,162,-226
1,5866456,425,-1367,-488,-1485,-305,-36,440,162,-226
1,5866462,425,-1367,-488,-1485,-305,-36,440,162,-226
1,5866470,425,-1367,-488,-1485,-305,-36,440,162,-226
1,5866478,424,-1364,-487,-1486,-298,-41,440,162,-226
1,5866485,424,-1364,-487,-1486,-298,-41,440,162,-226
1,5866491,424,-1364,-487,-1486,-298,-41,440,162,-226
1,5866499,419,-1366,-492,-1480,-300,-44,440,162,-226
1,5866505,419,-1366,-492,-1480,-300,-44,440,162,-226
1,5866512,419,-1366,-492,-1480,-300,-44,440,162,-226
1,5866520,423,-1365,-486,-1488,-307,-41,436,164,-222
1,5866527,423,-1365,-486,-1488,-307,-41,436,164,-222
1,5866533,423,-1365,-486,-1488,-307,-41,436,164,-222
1,5866541,424,-1366,-486,-1485,-310,-45,436,164,-222
1,5866546,424,-1366,-486,-1485,-310,-45,436,164,-222
1,5866552,424,-1366,-486,-1485,-310,-45,436,164,-222
1,5866557,426,-1363,-491,-1486,-309,-47,436,164,-222
1,5866562,426,-1363,-491,-1486,-309,-47,436,164,-222
1,5866567,426,-1363,-491,-1486,-309,-47,436,164,-222
1,5866573,426,-1363,-491,-1486,-309,-47,436,164,-222
1,5866580,422,-1363,-493,-1485,-301,-41,436,164,-222
1,5866588,422,-1363,-493,-1485,-301,-41,436,164,-222
1,5866594,422,-1363,-493,-1485,-301,-41,436,164,-222
1,5866601,422,-1363,-493,-1485,-301,-41,436,164,-222
1,5866607,422,-1363,-493,-1485,-301,-41,436,164,-222
1,5866612,422,-1363,-493,-1485,-301,-41,436,164,-222
1,5866620,424,-1365,-491,-1488,-298,-41,436,164,-222
1,5866629,424,-1365,-491,-1488,-298,-41,436,164,-222
1,5866637,425,-1367,-489,-1488,-308,-38,436,164,-222
1,5866645,425,-1367,-489,-1488,-308,-38,436,164,-222
1,5866652,425,-1367,-489,-1488,-308,-38,436,164,-222
1,5866659,424,-1366,-488,-1486,-308,-43,434,168,-224
1,5866667,424,-1366,-488,-1486,-308,-43,434,168,-224
1,5866673,424,-1366,-488,-1486,-308,-43,434,168,-224
1,5866679,422,-1366,-491,-1491,-302,-43,434,168,-224
1,5866688,422,-1366,-491,-1491,-302,-43,434,168,-224
1,5866696,425,-1366,-491,-1488,-306,-41,434,168,-224
1,5866702,425,-1366,-491,-1488,-306,-41,434,168,-224
1,5866710,425,-1366,-491,-1488,-306,-41,434,168,-224
1,5866716,423,-1364,-485,-1493,-302,-39,434,168,-224
1,5866723,423,-1364,-485,-1493,-302,-39,434,168,-224
1,5866729,423,-1364,-485,-1493,-302,-39,434,168,-224
1,5866737,424,-1366,-489,-1486,-302,-42,434,168,-224
1,5866745,424,-1366,-489,-1486,-302,-42,434,168,-224
1,5866753,424,-1366,-489,-1486,-302,-42,434,168,-224
1,5866760,423,-1364,-492,-1489,-306,-39,434,168,-224
1,5866767,423,-1364,-492,-1489,-306,-39,434,168,-224
1,5866772,423,-1364,-492,-1489,-306,-39,434,168,-224
1,5866777,426,-1364,-490,-1483,-304,-37,438,170,-230
1,5866783,426,-1364,-490,-1483,-304,-37,438,170,-230
1,5866790,426,-1364,-490,-1483,-304,-37,438,170,-230
1,5866799,423,-1366,-487,-1486,-301,-40,438,170,-230
1,5866806,423,-1366,-487,-1486,-301,-40,438,170,-230
1,5866811,423,-1366,-487,-1486,-301,-40,438,170,-230
1,5866819,424,-1367,-488,-1490,-306,-37,438,170,-230
1,5866825,424,-1367,-488,-1490,-306,-37,438,170,-230
1,5866830,424,-1367,-488,-1490,-306,-37,438,170,-230
1,5866838,422,-1366,-490,-1489,-304,-42,438,170,-230
1,5866846,422,-1366,-490,-1489,-304,-42,438,170,-230
1,5866853,422,-1366,-490,-1489,-304,-42,438,170,-230
1,5866861,423,-1363,-491,-1487,-296,-40,438,170,-230
1,5866868,423,-1363,-491,-1487,-296,-40,438,170,-230
1,5866876,424,-1364,-499,-1491,-303,-40,438,170,-230
1,5866884,424,-1364,-499,-1491,-303,-40,438,170,-230
1,5866889,424,-1364,-499,-1491,-303,-40,438,170,-230
1,5866895,424,-1364,-499,-1491,-303,-40,438,170,-230
1,5866900,424,-1362,-490,-1495,-300,-45,437,169,-223
1,5866907,424,-1362,-490,-1495,-300,-45,437,169,-223
1,5866915,421,-1365,-493,-1484,-301,-37,437,169,-223
1,5866924,421,-1365,-493,-1484,-301,-37,437,169,-223
1,5866931,421,-1365,-493,-1484,-301,-37,437,169,-223
1,5866938,425,-1365,-493,-1486,-298,-41,437,169,-223
1,5866945,425,-1365,-493,-1486,-298,-41,437,169,-223
1,5866952,425,-1365,-493,-1486,-298,-41,437,169,-223
1,5866959,422,-1362,-488,-1490,-295,-38,437,169,-223
1,5866967,422,-1362,-488,-1490,-295,-38,437,169,-223
1,5866973,422,-1362,-488,-1490,-295,-38,437,169,-223
1,5866980,425,-1364,-493,-1486,-295,-40,437,169,-223
1,5866985,425,-1364,-493,-1486,-295,-40,437,169,-223
1,5866990,425,-1364,-493,-1486,-295,-40,437,169,-223
1,5866995,424,-1364,-493,-1495,-297,-37,437,169,-223
1,5867000,424,-1364,-493,-1495,-297,-37,437,169,-223
1,5867005,424,-1364,-493,-1495,-297,-37,437,169,-223
1,5867012,424,-1364,-493,-1495,-297,-37,437,169,-223
1,5867017,424,-1363,-492,-1489,-300,-44,447,155,-231
1,5867022,424,-1363,-492,-1489,-300,-44,447,155,-231
1,5867029,424,-1363,-492,-1489,-300,-44,447,155,-231
1,5867035,428,-1365,-492,-1486,-304,-38,447,155,-231
1,5867043,428,-1365,-492,-1486,-304,-38,447,155,-231
1,5867048,428,-1365,-492,-1486,-304,-38,447,155,-231
1,5867057,423,-1363,-493,-1483,-305,-41,447,155,-231
1,5867064,423,-1363,-493,-1483,-305,-41,447,155,-231
1,5867072,423,-1363,-493,-1483,-305,-41,447,155,-231
1,5867078,425,-1362,-493,-1486,-297,-38,447,155,-231
1,5867085,425,-1362,-493,-1486,-297,-38,447,155,-231
1,5867094,425,-1362,-493,-1486,-297,-38,447,155,-231
1,5867100,422,-1363,-491,-1487,-299,-38,447,155,-231
1,5867107,422,-1363,-491,-1487,-299,-38,447,155,-231
1,5867113,422,-1363,-491,-1487,-299,-38,447,155,-231
1,5867121,426,-1364,-490,-1489,-302,-39,447,155,-231
1,5867128,426,-1364,-490,-1489,-302,-39,447,155,-231
1,5867136,426,-1364,-490,-1489,-302,-39,447,155,-231
1,5867143,423,-1365,-489,-1489,-302,-36,434,176,-224
1,5867150,423,-1365,-489,-1489,-302,-36,434,176,-224
1,5867157,423,-1364,-492,-1490,-307,-34,434,176,-224
1,5867163,423,-1364,-492,-1490,-307,-34,434,176,-224
1,5867169,423,-1364,-492,-1490,-307,-34,434,176,-224
1,5867176,425,-1364,-489,-1487,-306,-36,434,176,-224
1,5867184,425,-1364,-489,-1487,-306,-36,434,176,-224
1,5867190,425,-1364,-489,-1487,-306,-36,434,176,-224
1,5867197,423,-1363,-494,-1497,-301,-33,434,176,-224
1,5867206,423,-1363,-494,-1497,-301,-33,434,176,-224
1,5867212,423,-1363,-494,-1497,-301,-33,434,176,-224
1,5867219,425,-1366,-490,-1499,-304,-38,434,176,-224
1,5867226,425,-1366,-490,-1499,-304,-38,434,176,-224
1,5867235,425,-1366,-490,-1499,-304,-38,434,176,-224
1,5867241,426,-1365,-493,-1490,-304,-37,434,176,-224
1,5867247,426,-1365,-493,-1490,-304,-37,434,176,-224
1,5867254,426,-1365,-493,-1490,-304,-37,434,176,-224
1,5867259,424,-1363,-492,-1490,-301,-41,434,176,-224
1,5867265,424,-1363,-492,-1490,-301,-41,434,176,-224
1,5867273,424,-1363,-492,-1490,-301,-41,434,176,-224
1,5867280,422,-1366,-488,-1483,-301,-44,438,168,-222
1,5867287,422,-1366,-488,-1483,-301,-44,438,168,-222
1,5867300,424,-1364,-489,-1487,-304,-40,438,168,-222
1,5867315,424,-1364,-489,-1487,-304,-40,438,168,-222
1,5867326,428,-1363,-493,-1492,-301,-39,438,168,-222
1,5867338,426,-1363,-485,-1491,-298,-41,438,168,-222
1,5867351,426,-1363,-485,-1491,-298,-41,438,168,-222
1,5867366,422,-1368,-491,-1493,-301,-41,438,168,-222
1,5867378,425,-1365,-491,-1488,-294,-37,438,168,-222
1,5867390,425,-1365,-491,-1488,-294,-37,438,168,-222
1,5867405,425,-1365,-489,-1482,-302,-39,440,164,-226
1,5867417,422,-1364,-489,-1483,-301,-34,440,164,-226
1,5867429,422,-1364,-489,-1483,-301,-34,440,164,-226
1,5867441,422,-1362,-496,-1487,-298,-38,440,164,-226
1,5867452,422,-1362,-496,-1487,-298,-38,440,164,-226
1,5867466,422,-1362,-496,-1487,-298,-38,440,164,-226
1,5867481,425,-1367,-490,-1486,-297,-39,440,164,-226
1,5867492,425,-1367,-490,-1486,-297,-39,440,164,-226
1,5867503,424,-1360,-490,-1485,-300,-43,440,164,-226
1,5867514,424,-1360,-490,-1485,-300,-43,440,164,-226
1,5867530,424,-1362,-486,-1476,-301,-39,438,156,-228
1,5867539,424,-1364,-492,-1487,-305,-40,438,156,-228
1,5867546,424,-1364,-492,-1487,-305,-40,438,156,-228
1,5867554,424,-1364,-492,-1487,-305,-40,438,156,-228
1,5867563,425,-1366,-493,-1488,-306,-38,438,156,-228
1,5867571,425,-1366,-493,-1488,-306,-38,438,156,-228
1,5867584,423,-1365,-491,-1491,-301,-44,438,156,-228
1,5867596,423,-1365,-486,-1484,-302,-36,438,156,-228
1,5867610,423,-1365,-486,-1484,-302,-36,438,156,-228
1,5867625,422,-1365,-492,-1490,-301,-37,438,156,-228
1,5867636,422,-1363,-490,-1491,-299,-35,430,166,-220
1,5867650,422,-1363,-490,-1491,-299,-35,430,166,-220
1,5867662,423,-1363,-489,-1484,-300,-35,430,166,-220
1,5867674,423,-1363,-489,-1484,-300,-35,430,166,-220
1,5867686,424,-1365,-496,-1487,-306,-36,430,166,-220
1,5867701,425,-1366,-494,-1494,-304,-37,430,166,-220
1,5867713,425,-1366,-494,-1494,-304,-37,430,166,-220
1,5867721,423,-1363,-492,-1492,-300,-35,430,166,-220
1,5867734,423,-1363,-492,-1492,-300,-35,430,166,-220
1,5867748,423,-1366,-488,-1484,-297,-39,430,166,-220
1,5867760,421,-1363,-489,-1487,-300,-41,430,166,-220
1,5867768,421,-1363,-489,-1487,-300,-41,430,166,-220
1,5867777,426,-1363,-484,-1482,-300,-33,438,160,-228
1,5867784,426,-1363,-484,-1482,-300,-33,438,160,-228
1,5867792,426,-1363,-484,-1482,-300,-33,438,160,-228
1,5867803,426,-1367,-488,-1495,-300,-33,438,160,-228
1,5867815,426,-1367,-488,-1495,-300,-33,438,160,-228
1,5867829,422,-1368,-490,-1491,-295,-41,438,160,-228
1,5867840,422,-1365,-492,-1490,-298,-35,438,160,-228
1,5867853,422,-1365,-492,-1490,-298,-35,438,160,-228
1,5867867,426,-1364,-490,-1488,-305,-39,438,160,-228
1,5867881,426,-1364,-491,-1487,-298,-42,438,160,-228
1,5867894,426,-1364,-491,-1487,-298,-42,438,160,-228
1,5867905,425,-1363,-489,-1496,-308,-41,438,162,-230
1,5867916,424,-1364,-494,-1490,-301,-35,438,162,-230
1,5867928,424,-1364,-494,-1490,-301,-35,438,162,-230
1,5867940,425,-1363,-492,-1484,-304,-39,438,162,-230
1,5867953,425,-1363,-492,-1484,-304,-39,438,162,-230
1,5867967,422,-1366,-489,-1481,-297,-44,438,162,-230
1,5867979,425,-1365,-491,-1480,-304,-30,438,162,-230
1,5867987,425,-1365,-491,-1480,-304,-30,438,162,-230
1,5867995,425,-1365,-491,-1480,-304,-30,438,162,-230
1,5868003,421,-1366,-492,-1489,-301,-42,438,162,-230
1,5868011,421,-1366,-492,-1489,-301,-42,438,162,-230
1,5868019,424,-1364,-492,-1487,-307,-37,437,167,-223
1,5868027,424,-1364,-492,-1487,-307,-37,437,167,-223
1,5868035,424,-1364,-492,-1487,-307,-37,437,167,-223
1,5868043,422,-1366,-490,-1492,-304,-39,437,167,-223
1,5868051,422,-1366,-490,-1492,-304,-39,437,167,-223
1,5868059,421,-1367,-495,-1493,-304,-38,437,167,-223
1,5868066,421,-1367,-495,-1493,-304,-38,437,167,-223
1,5868076,421,-1367,-495,-1493,-304,-38,437,167,-223
1,5868084,420,-1363,-492,-1490,-300,-43,437,167,-223
1,5868097,420,-1367,-492,-1486,-307,-32,437,167,-223
1,5868111,420,-1367,-492,-1486,-307,-32,437,167,-223
1,5868122,424,-1365,-492,-1484,-295,-31,437,167,-223
1,5868135,424,-1365,-492,-1484,-295,-31,437,167,-223
1,5868147,425,-1365,-489,-1488,-297,-31,437,167,-227
1,5868162,423,-1366,-490,-1490,-306,-42,437,167,-227
1,5868172,423,-1366,-490,-1490,-306,-42,437,167,-227
1,5868187,423,-1367,-490,-1492,-311,-40,437,167,-227
1,5868199,425,-1364,-485,-1492,-303,-42,437,167,-227
1,5868212,425,-1364,-485,-1492,-303,-42,437,167,-227
1,5868226,424,-1364,-490,-1485,-301,-43,437,167,-227
1,5868238,423,-1366,-494,-1490,-302,-37,437,167,-227
1,5868251,423,-1366,-494,-1490,-302,-37,437,167,-227
1,5868264,422,-1365,-489,-1488,-300,-37,437,167,-227
1,5868276,425,-1367,-490,-1491,-306,-37,438,160,-226
1,5868290,425,-1367,-490,-1491,-306,-37,438,160,-226
1,5868300,424,-1367,-497,-1489,-300,-35,438,160,-226
1,5868306,424,-1367,-497,-1489,-300,-35,438,160,-226
1,5868313,424,-1367,-497,-1489,-300,-35,438,160,-226
1,5868320,425,-1362,-490,-1493,-297,-30,438,160,-226
1,5868327,425,-1362,-490,-1493,-297,-30,438,160,-226
1,5868335,425,-1362,-490,-1493,-297,-30,438,160,-226
1,5868342,425,-1366,-493,-1486,-296,-38,438,160,-226
1,5868349,425,-1366,-493,-1486,-296,-38,438,160,-226
1,5868357,423,-1364,-487,-1492,-298,-35,438,160,-226
1,5868363,423,-1364,-487,-1492,-298,-35,438,160,-226
1,5868370,423,-1364,-487,-1492,-298,-35,438,160,-226
1,5868379,422,-1364,-487,-1498,-300,-33,438,160,-226
1,5868387,422,-1364,-487,-1498,-300,-33,438,160,-226
1,5868394,422,-1364,-487,-1498,-300,-33,438,160,-226
1,5868402,425,-1362,-484,-1501,-309,-37,440,162,-224
1,5868407,425,-1362,-484,-1501,-309,-37,440,162,-224
1,5868414,425,-1362,-484,-1501,-309,-37,440,162,-224
1,5868420,424,-1365,-488,-1499,-294,-38,440,162,-224
1,5868425,424,-1365,-488,-1499,-294,-38,440,162,-224
1,5868430,424,-1365,-488,-1499,-294,-38,440,162,-224
1,5868438,425,-1365,-493,-1486,-301,-36,440,162,-224
1,5868445,425,-1365,-493,-1486,-301,-36,440,162,-224
1,5868453,425,-1365,-493,-1486,-301,-36,440,162,-224
1,5868459,424,-1366,-491,-1487,-305,-41,440,162,-224
1,5868466,424,-1366,-491,-1487,-305,-41,440,162,-224
1,5868473,424,-1366,-491,-1487,-305,-41,440,162,-224
1,5868479,423,-1369,-491,-1493,-307,-36,440,162,-224
1,5868485,423,-1369,-491,-1493,-307,-36,440,162,-224
1,5868492,423,-1369,-491,-1493,-307,-36,440,162,-224
1,5868500,424,-1364,-490,-1494,-302,-37,440,162,-224
1,5868506,424,-1364,-490,-1494,-302,-37,440,162,-224
1,5868514,424,-1364,-490,-1494,-302,-37,440,162,-224
1,5868521,421,-1363,-486,-1484,-299,-40,435,163,-233
1,5868528,421,-1363,-486,-1484,-299,-40,435,163,-233
1,5868536,424,-1364,-494,-1486,-302,-38,435,163,-233
1,5868541,424,-1364,-494,-1486,-302,-38,435,163,-233
1,5868547,424,-1364,-494,-1486,-302,-38,435,163,-233
1,5868552,424,-1364,-494,-1486,-302,-38,435,163,-233
1,5868557,425,-1364,-493,-1485,-304,-37,435,163,-233
1,5868562,425,-1364,-493,-1485,-304,-37,435,163,-233
1,5868567,425,-1364,-493,-1485,-304,-37,435,163,-233
1,5868572,425,-1364,-493,-1485,-304,-37,435,163,-233
1,5868579,424,-1367,-491,-1489,-307,-40,435,163,-233
1,5868585,424,-1367,-491,-1489,-307,-40,435,163,-233
1,5868593,424,-1367,-491,-1489,-307,-40,435,163,-233
1,5868599,422,-1365,-487,-1484,-293,-37,435,163,-233
1,5868606,422,-1365,-487,-1484,-293,-37,435,163,-233
1,5868613,422,-1365,-487,-1484,-293,-37,435,163,-233
1,5868621,422,-1365,-487,-1484,-293,-37,435,163,-233
1,5868628,422,-1365,-487,-1484,-293,-37,435,163,-233
1,5868636,422,-1365,-487,-1484,-293,-37,435,163,-233
1,5868643,421,-1365,-493,-1490,-297,-40,445,165,-223
1,5868650,421,-1365,-493,-1490,-297,-40,445,165,-223
1,5868656,423,-1363,-486,-1495,-302,-46,445,165,-223
1,5868664,423,-1363,-486,-1495,-302,-46,445,165,-223
1,5868670,423,-1363,-486,-1495,-302,-46,445,165,-223
1,5868678,421,-1368,-491,-1494,-307,-41,445,165,-223
1,5868685,421,-1368,-491,-1494,-307,-41,445,165,-223
1,5868693,421,-1368,-491,-1494,-307,-41,445,165,-223
1,5868700,424,-1367,-487,-1491,-306,-37,445,165,-223
1,5868708,424,-1367,-487,-1491,-306,-37,445,165,-223
1,5868717,423,-1367,-491,-1489,-304,-44,445,165,-223
1,5868723,423,-1367,-491,-1489,-304,-44,445,165,-223
1,5868732,423,-1367,-491,-1489,-304,-44,445,165,-223
1,5868738,424,-1364,-488,-1486,-305,-44,445,165,-223
1,5868744,424,-1364,-488,-1486,-305,-44,445,165,-223
1,5868751,424,-1364,-488,-1486,-305,-44,445,165,-223
1,5868760,423,-1361,-490,-1483,-303,-41,439,171,-223
1,5868767,423,-1361,-490,-1483,-303,-41,439,171,-223
1,5868775,423,-1361,-490,-1483,-303,-41,439,171,-223
1,5868782,422,-1363,-489,-1492,-300,-34,439,171,-223
1,5868788,422,-1363,-489,-1492,-300,-34,439,171,-223
1,5868796,424,-1367,-496,-1491,-300,-32,439,171,-223
1,5868804,424,-1367,-496,-1491,-300,-32,439,171,-223
1,5868811,424,-1367,-496,-1491,-300,-32,439,171,-223
1,5868817,422,-1365,-494,-1495,-296,-40,439,171,-223
1,5868824,422,-1365,-494,-1495,-296,-40,439,171,-223
1,5868831,422,-1365,-494,-1495,-296,-40,439,171,-223
1,5868839,424,-1366,-488,-1493,-298,-44,439,171,-223
1,5868848,424,-1366,-488,-1493,-298,-44,439,171,-223
1,5868856,424,-1366,-488,-1493,-298,-44,439,171,-223
1,5868862,425,-1364,-489,-1497,-303,-38,439,171,-223
1,5868868,425,-1364,-489,-1497,-303,-38,439,171,-223
1,5868874,425,-1364,-489,-1497,-303,-38,439,171,-223
1,5868882,422,-1365,-492,-1489,-300,-36,439,171,-223
1,5868890,422,-1365,-492,-1489,-300,-36,439,171,-223
1,5868898,422,-1362,-486,-1484,-306,-38,436,162,-226
1,5868905,422,-1362,-486,-1484,-306,-38,436,162,-226
1,5868911,422,-1362,-486,-1484,-306,-38,436,162,-226
1,5868918,423,-1364,-489,-1481,-304,-37,436,162,-226
1,5868926,423,-1364,-489,-1481,-304,-37,436,162,-226
1,5868933,423,-1364,-489,-1481,-304,-37,436,162,-226
1,5868939,424,-1366,-490,-1492,-299,-38,436,162,-226
1,5868945,424,-1366,-490,-1492,-299,-38,436,162,-226
1,5868950,424,-1366,-490,-1492,-299,-38,436,162,-226
1,5868955,424,-1366,-490,-1492,-299,-38,436,162,-226
1,5868962,425,-1365,-489,-1492,-300,-33,436,162,-226
1,5868971,425,-1365,-489,-1492,-300,-33,436,162,-226
1,5868978,422,-1367,-496,-1483,-294,-33,436,162,-226
1,5868983,422,-1367,-496,-1483,-294,-33,436,162,-226
1,5868988,422,-1367,-496,-1483,-294,-33,436,162,-226
1,5868993,422,-1367,-496,-1483,-294,-33,436,162,-226
1,5868998,422,-1366,-490,-1486,-302,-37,436,162,-226
1,5869004,422,-1366,-490,-1486,-302,-37,436,162,-226
1,5869009,422,-1366,-490,-1486,-302,-37,436,162,-226
1,5869015,422,-1366,-490,-1486,-302,-37,436,162,-226
1,5869022,424,-1365,-488,-1478,-297,-35,435,169,-223
1,5869029,424,-1365,-488,-1478,-297,-35,435,169,-223
1,5869036,424,-1365,-488,-1478,-297,-35,435,169,-223
1,5869042,423,-1364,-491,-1489,-299,-41,435,169,-223
1,5869049,423,-1364,-491,-1489,-299,-41,435,169,-223
1,5869056,423,-1364,-491,-1489,-299,-41,435,169,-223
1,5869063,424,-1366,-495,-1492,-301,-44,435,169,-223
1,5869070,424,-1366,-495,-1492,-301,-44,435,169,-223
1,5869077,422,-1367,-491,-1490,-303,-43,435,169,-223
1,5869083,422,-1367,-491,-1490,-303,-43,435,169,-223
1,5869090,422,-1367,-491,-1490,-303,-43,435,169,-223
1,5869100,425,-1366,-496,-1489,-303,-42,435,169,-223
1,5869107,425,-1366,-496,-1489,-303,-42,435,169,-223
1,5869112,425,-1366,-496,-1489,-303,-42,435,169,-223
1,5869120,423,-1366,-489,-1488,-299,-40,435,169,-223
1,5869128,423,-1366,-489,-1488,-299,-40,435,169,-223
1,5869135,423,-1366,-489,-1488,-299,-40,435,169,-223
1,5869142,424,-1365,-489,-1487,-299,-40,440,172,-224
1,5869149,424,-1365,-489,-1487,-299,-40,440,172,-224
1,5869155,424,-1365,-489,-1487,-299,-40,440,172,-224
1,5869161,425,-1363,-488,-1494,-299,-32,440,172,-224
1,5869170,425,-1363,-488,-1494,-299,-32,440,172,-224
1,5869176,425,-1363,-488,-1494,-299,-32,440,172,-224
1,5869184,426,-1365,-490,-1489,-305,-40,440,172,-224
1,5869191,426,-1365,-490,-1489,-305,-40,440,172,-224
1,5869197,423,-1367,-495,-1488,-301,-41,440,172,-224
1,5869203,423,-1367,-495,-1488,-301,-41,440,172,-224
1,5869211,423,-1367,-495,-1488,-301,-41,440,172,-224
1,5869217,426,-1364,-490,-1486,-306,-38,440,172,-224
1,5869224,426,-1364,-490,-1486,-306,-38,440,172,-224
1,5869232,426,-1364,-490,-1486,-306,-38,440,172,-224
1,5869240,422,-1364,-490,-1490,-307,-38,440,172,-224
1,5869247,422,-1364,-490,-1490,-307,-38,440,172,-224
1,5869254,422,-1364,-490,-1490,-307,-38,440,172,-224
1,5869262,421,-1364,-491,-1487,-302,-40,429,169,-233
1,5869268,421,-1364,-491,-1487,-302,-40,429,169,-233
1,5869274,421,-1364,-491,-1487,-302,-40,429,169,-233
1,5869282,423,-1363,-487,-1488,-301,-41,429,169,-233
1,5869289,423,-1363,-487,-1488,-301,-41,429,169,-233
1,5869296,423,-1363,-487,-1488,-301,-41,429,169,-233
1,5869302,426,-1367,-490,-1484,-303,-47,429,169,-233
1,5869312,426,-1367,-490,-1484,-303,-47,429,169,-233
1,5869323,424,-1364,-489,-1482,-306,-38,429,169,-233
1,5869333,424,-1364,-489,-1482,-306,-38,429,169,-233
1,5869345,423,-1365,-494,-1483,-308,-36,429,169,-233
1,5869360,424,-1364,-492,-1482,-305,-40,429,169,-233
1,5869374,424,-1364,-492,-1482,-305,-40,429,169,-233
1,5869385,425,-1364,-491,-1485,-298,-40,429,169,-233
1,5869399,421,-1367,-485,-1484,-296,-41,441,165,-229
1,5869412,421,-1367,-485,-1484,-296,-41,441,165,-229
1,5869425,424,-1365,-491,-1487,-290,-39,441,165,-229
1,5869437,422,-1365,-486,-1490,-293,-41,441,165,-229
1,5869450,422,-1365,-486,-1490,-293,-41,441,165,-229
1,5869463,424,-1366,-491,-1490,-301,-46,441,165,-229
1,5869475,424,-1366,-491,-1490,-301,-46,441,165,-229
1,5869489,426,-1366,-495,-1488,-296,-39,441,165,-229
1,5869498,423,-1366,-493,-1494,-298,-42,441,165,-229
1,5869506,423,-1366,-493,-1494,-298,-42,441,165,-229
1,5869514,423,-1366,-493,-1494,-298,-42,441,165,-229
1,5869522,424,-1368,-485,-1491,-302,-36,443,167,-233
1,5869531,424,-1368,-485,-1491,-302,-36,443,167,-233
1,5869542,422,-1365,-489,-1486,-301,-40,443,167,-233
1,5869550,422,-1365,-489,-1486,-301,-40,443,167,-233
1,5869558,422,-1366,-494,-1486,-294,-36,443,167,-233
1,5869565,422,-1366,-494,-1486,-294,-36,443,167,-233
1,5869577,422,-1363,-491,-1483,-300,-41,443,167,-233
1,5869586,422,-1363,-491,-1483,-300,-41,443,167,-233
1,5869596,422,-1363,-491,-1483,-300,-41,443,167,-233
1,5869605,422,-1364,-493,-1493,-299,-42,443,167,-233
1,5869615,422,-1364,-493,-1493,-299,-42,443,167,-233
1,5869625,423,-1363,-490,-1486,-295,-43,443,167,-233
1,5869634,423,-1363,-490,-1486,-295,-43,443,167,-233
1,5869644,425,-1365,-491,-1489,-302,-37,435,165,-223
1,5869656,425,-1365,-491,-1489,-302,-37,435,165,-223
1,5869668,423,-1365,-490,-1491,-301,-37,435,165,-223
1,5869681,423,-1364,-492,-1486,-299,-38,435,165,-223
1,5869694,423,-1364,-492,-1486,-299,-38,435,165,-223
1,5869707,423,-1364,-492,-1494,-299,-39,435,165,-223
1,5869720,424,-1368,-494,-1491,-299,-40,435,165,-223
1,5869733,424,-1368,-494,-1491,-299,-40,435,165,-223
1,5869747,428,-1365,-498,-1483,-300,-43,435,165,-223
1,5869760,424,-1364,-494,-1483,-298,-36,446,162,-220
1,5869772,424,-1364,-494,-1483,-298,-36,446,162,-220
1,5869786,423,-1363,-492,-1486,-299,-39,446,162,-220
1,5869797,423,-1363,-492,-1486,-299,-39,446,162,-220
1,5869811,423,-1363,-492,-1486,-299,-39,446,162,-220
1,5869824,423,-1367,-494,-1486,-305,-36,446,162,-220
1,5869837,423,-1367,-489,-1487,-306,-43,446,162,-220
1,5869850,423,-1367,-489,-1487,-306,-43,446,162,-220
1,5869863,424,-1364,-492,-1491,-304,-42,446,162,-220
1,5869876,424,-1364,-492,-1491,-304,-42,446,162,-220
1,5869889,422,-1367,-490,-1491,-302,-41,446,162,-220
1,5869900,423,-1365,-487,-1486,-306,-41,440,162,-226
1,5869914,423,-1365,-487,-1486,-306,-41,440,162,-226
1,5869927,425,-1366,-489,-1493,-299,-44,440,162,-226
1,5869940,422,-1367,-489,-1489,-299,-38,440,162,-226
1,5869954,422,-1367,-489,-1489,-299,-38,440,162,-226
1,5869966,424,-1367,-489,-1488,-301,-39,440,162,-226
1,5869979,425,-1365,-492,-1486,-303,-39,440,162,-226
1,5869986,425,-1365,-492,-1486,-303,-39,440,162,-226
1,5869995,425,-1365,-492,-1486,-303,-39,440,162,-226
1,5870003,424,-1366,-491,-1487,-303,-37,440,162,-226
1,5870010,424,-1366,-491,-1487,-303,-37,440,162,-226
1,5870018,423,-1367,-485,-1491,-301,-39,436,164,-232
1,5870026,423,-1367,-485,-1491,-301,-39,436,164,-232
1,5870034,423,-1367,-485,-1491,-301,-39,436,164,-232
1,5870043,424,-1366,-492,-1491,-296,-37,436,164,-232
1,5870051,424,-1366,-492,-1491,-296,-37,436,164,-232
1,5870059,423,-1366,-492,-1488,-298,-39,436,164,-232
1,5870067,423,-1366,-492,-1488,-298,-39,436,164,-232
1,5870081,426,-1365,-494,-1484,-303,-33,436,164,-232
1,5870092,426,-1365,-494,-1484,-303,-33,436,164,-232
1,5870104,425,-1363,-492,-1486,-306,-40,436,164,-232
1,5870118,423,-1368,-490,-1490,-298,-41,436,164,-232
1,5870131,423,-1368,-490,-1490,-298,-41,436,164,-232
1,5870143,425,-1367,-487,-1493,-294,-41,434,170,-224
1,5870157,424,-1365,-489,-1491,-298,-39,434,170,-224
1,5870168,424,-1365,-489,-1491,-298,-39,434,170,-224
1,5870181,424,-1364,-493,-1487,-303,-45,434,170,-224
1,5870193,424,-1364,-493,-1487,-303,-45,434,170,-224
1,5870203,424,-1364,-487,-1486,-301,-38,434,170,-224
1,5870212,424,-1364,-487,-1486,-301,-38,434,170,-224
1,5870219,424,-1365,-491,-1484,-296,-33,434,170,-224
1,5870227,424,-1365,-491,-1484,-296,-33,434,170,-224
1,5870240,426,-1363,-492,-1484,-296,-37,434,170,-224
1,5870249,426,-1363,-492,-1484,-296,-37,434,170,-224
1,5870264,423,-1363,-483,-1486,-293,-41,441,161,-223
1,5870276,423,-1363,-483,-1486,-293,-41,441,161,-223
1,5870288,423,-1366,-490,-1487,-298,-39,441,161,-223
1,5870301,424,-1366,-489,-1485,-307,-36,441,161,-223
1,5870313,424,-1366,-489,-1485,-307,-36,441,161,-223
1,5870320,422,-1365,-489,-1490,-307,-39,441,161,-223
1,5870326,422,-1365,-489,-1490,-307,-39,441,161,-223
1,5870334,422,-1365,-489,-1490,-307,-39,441,161,-223
1,5870342,422,-1365,-489,-1490,-307,-39,441,161,-223
1,5870349,422,-1365,-489,-1490,-307,-39,441,161,-223
1,5870357,426,-1366,-495,-1494,-297,-37,441,161,-223
1,5870364,426,-1366,-495,-1494,-297,-37,441,161,-223
1,5870371,426,-1366,-495,-1494,-297,-37,441,161,-223
1,5870380,424,-1367,-496,-1492,-298,-43,441,161,-223
1,5870385,424,-1367,-496,-1492,-298,-43,441,161,-223
1,5870392,424,-1367,-496,-1492,-298,-43,441,161,-223
1,5870399,422,-1367,-487,-1485,-301,-43,440,166,-220
1,5870407,422,-1367,-487,-1485,-301,-43,440,166,-220
1,5870414,422,-1367,-487,-1485,-301,-43,440,166,-220
1,5870419,426,-1363,-496,-1480,-303,-37,440,166,-220
1,5870427,426,-1363,-496,-1480,-303,-37,440,166,-220
1,5870433,426,-1363,-496,-1480,-303,-37,440,166,-220
1,5870441,423,-1366,-490,-1487,-305,-36,440,166,-220
1,5870448,423,-1366,-490,-1487,-305,-36,440,166,-220
1,5870455,423,-1366,-490,-1487,-305,-36,440,166,-220
1,5870464,425,-1364,-490,-1485,-301,-37,440,166,-220
1,5870471,425,-1364,-490,-1485,-301,-37,440,166,-220
1,5870478,425,-1364,-492,-1487,-298,-41,440,166,-220
1,5870486,425,-1364,-492,-1487,-298,-41,440,166,-220
1,5870493,425,-1364,-492,-1487,-298,-41,440,166,-220
1,5870499,426,-1365,-496,-1488,-302,-35,440,166,-220
1,5870508,426,-1365,-496,-1488,-302,-35,440,166,-220
1,5870515,426,-1365,-496,-1488,-302,-35,440,166,-220
1,5870523,426,-1363,-487,-1488,-299,-44,435,167,-223
1,5870530,426,-1363,-487,-1488,-299,-44,435,167,-223
1,5870536,426,-1363,-487,-1488,-299,-44,435,167,-223
1,5870541,426,-1364,-492,-1484,-297,-38,435,167,-223
1,5870546,426,-1364,-492,-1484,-297,-38,435,167,-223
1,5870552,426,-1364,-492,-1484,-297,-38,435,167,-223
1,5870557,424,-1363,-494,-1491,-300,-35,435,167,-223
1,5870562,424,-1363,-494,-1491,-300,-35,435,167,-223
1,5870569,424,-1363,-494,-1491,-300,-35,435,167,-223
1,5870574,424,-1363,-494,-1491,-300,-35,435,167,-223
1,5870579,423,-1366,-488,-1489,-300,-35,435,167,-223
1,5870585,423,-1366,-488,-1489,-300,-35,435,167,-223
1,5870592,423,-1366,-488,-1489,-300,-35,435,167,-223
1,5870598,422,-1365,-493,-1489,-304,-39,435,167,-223
1,5870604,422,-1365,-493,-1489,-304,-39,435,167,-223
1,5870609,422,-1365,-493,-1489,-304,-39,435,167,-223
1,5870614,422,-1365,-493,-1489,-304,-39,435,167,-223
1,5870620,424,-1364,-494,-1493,-302,-43,435,167,-223
1,5870625,424,-1364,-494,-1493,-302,-43,435,167,-223
1,5870631,424,-1364,-494,-1493,-302,-43,435,167,-223
1,5870639,426,-1365,-487,-1484,-303,-43,439,163,-227
1,5870644,426,-1365,-487,-1484,-303,-43,439,163,-227
1,5870650,426,-1365,-487,-1484,-303,-43,439,163,-227
1,5870655,426,-1365,-487,-1484,-303,-43,439,163,-227
1,5870661,423,-1366,-488,-1483,-305,-37,439,163,-227
1,5870667,423,-1366,-488,-1483,-305,-37,439,163,-227
1,5870673,423,-1366,-488,-1483,-305,-37,439,163,-227
1,5870680,422,-1365,-497,-1490,-304,-36,439,163,-227
1,5870685,422,-1365,-497,-1490,-304,-36,439,163,-227
1,5870690,422,-1365,-497,-1490,-304,-36,439,163,-227
1,5870696,422,-1365,-497,-1490,-304,-36,439,163,-227
1,5870701,423,-1366,-495,-1491,-303,-35,439,163,-227
1,5870706,423,-1366,-495,-1491,-303,-35,439,163,-227
1,5870712,423,-1366,-495,-1491,-303,-35,439,163,-227
1,5870717,422,-1365,-491,-1490,-295,-38,439,163,-227
1,5870724,422,-1365,-491,-1490,-295,-38,439,163,-227
1,5870729,422,-1365,-491,-1490,-295,-38,439,163,-227
1,5870734,422,-1365,-491,-1490,-295,-38,439,163,-227
1,5870742,425,-1365,-494,-1494,-299,-45,439,163,-227
1,5870749,425,-1365,-494,-1494,-299,-45,439,163,-227
1,5870756,424,-1365,-488,-1498,-305,-40,439,163,-227
1,5870764,424,-1365,-488,-1498,-305,-40,437,165,-231
1,5870771,424,-1365,-488,-1498,-305,-40,437,165,-231
1,5870778,424,-1362,-490,-1487,-303,-38,437,165,-231
1,5870785,424,-1362,-490,-1487,-303,-38,437,165,-231
1,5870792,424,-1362,-490,-1487,-303,-38,437,165,-231
1,5870800,424,-1366,-489,-1490,-297,-46,437,165,-231
1,5870809,424,-1366,-489,-1490,-297,-46,437,165,-231
1,5870815,424,-1366,-489,-1490,-297,-46,437,165,-231
1,5870822,425,-1364,-490,-1488,-302,-41,437,165,-231
1,5870827,425,-1364,-490,-1488,-302,-41,437,165,-231
1,5870832,425,-1364,-490,-1488,-302,-41,437,165,-231
1,5870839,423,-1367,-494,-1491,-305,-43,437,165,-231
1,5870846,423,-1367,-494,-1491,-305,-43,437,165,-231
1,5870852,423,-1367,-494,-1491,-305,-43,437,165,-231
1,5870860,426,-1366,-496,-1492,-298,-39,437,165,-231
1,5870867,426,-1366,-496,-1492,-298,-39,437,165,-231
1,5870874,426,-1366,-496,-1492,-298,-39,437,165,-231
1,5870880,425,-1366,-493,-1487,-301,-42,442,170,-220
1,5870888,425,-1366,-493,-1487,-301,-42,442,170,-220
1,5870895,425,-1366,-493,-1487,-301,-42,442,170,-220
1,5870901,425,-1365,-490,-1488,-299,-44,442,170,-220
1,5870909,425,-1365,-490,-1488,-299,-44,442,170,-220
1,5870916,425,-1365,-490,-1488,-299,-44,442,170,-220
1,5870922,425,-1363,-485,-1489,-304,-40,442,170,-220
1,5870927,425,-1363,-485,-1489,-304,-40,442,170,-220
1,5870935,425,-1363,-485,-1489,-304,-40,442,170,-220
1,5870943,425,-1365,-484,-1493,-301,-42,442,170,-220
1,5870950,425,-1365,-484,-1493,-301,-42,442,170,-220
1,5870956,425,-1365,-484,-1493,-301,-42,442,170,-220
1,5870963,423,-1365,-490,-1492,-307,-39,442,170,-220
1,5870971,423,-1365,-490,-1492,-307,-39,442,170,-220
1,5870979,425,-1364,-495,-1491,-303,-36,442,170,-220
1,5870983,425,-1364,-495,-1491,-303,-36,442,170,-220
1,5870988,425,-1364,-495,-1491,-303,-36,442,170,-220
1,5870993,425,-1364,-495,-1491,-303,-36,442,170,-220
1,5870998,422,-1365,-494,-1481,-295,-34,442,170,-220
1,5871003,422,-1365,-494,-1481,-295,-34,442,170,-220
1,5871009,422,-1365,-494,-1481,-295,-34,442,170,-220
1,5871016,423,-1366,-491,-1490,-294,-38,432,170,-220
1,5871022,423,-1366,-491,-1490,-294,-38,432,166,-226
1,5871030,423,-1366,-491,-1490,-294,-38,432,166,-226
1,5871038,425,-1364,-489,-1494,-303,-37,432,166,-226
1,5871044,425,-1364,-489,-1494,-303,-37,432,166,-226
1,5871050,425,-1364,-489,-1494,-303,-37,432,166,-226
1,5871058,425,-1365,-490,-1494,-302,-45,432,166,-226
1,5871065,425,-1365,-490,-1494,-302,-45,432,166,-226
1,5871070,425,-1365,-490,-1494,-302,-45,432,166,-226
1,5871078,425,-1367,-490,-1490,-300,-37,432,166,-226
1,5871087,425,-1367,-490,-1490,-300,-37,432,166,-226
1,5871094,425,-1367,-490,-1490,-300,-37,432,166,-226
1,5871100,423,-1364,-491,-1483,-303,-40,432,166,-226
1,5871108,423,-1364,-491,-1483,-303,-40,432,166,-226
1,5871114,423,-1364,-491,-1483,-303,-40,432,166,-226
1,5871120,424,-1364,-488,-1480,-298,-43,432,166,-226
1,5871128,424,-1364,-488,-1480,-298,-43,432,166,-226
1,5871136,424,-1364,-488,-1480,-298,-43,432,166,-226
1,5871143,426,-1366,-486,-1488,-296,-38,432,158,-226
1,5871151,426,-1366,-486,-1488,-296,-38,432,158,-226
1,5871158,424,-1362,-488,-1492,-297,-46,432,158,-226
1,5871166,424,-1362,-488,-1492,-297,-46,432,158,-226
1,5871171,424,-1362,-488,-1492,-297,-46,432,158,-226
1,5871178,426,-1362,-489,-1488,-302,-46,432,158,-226
1,5871187,426,-1362,-489,-1488,-302,-46,432,158,-226
1,5871195,426,-1362,-489,-1488,-302,-46,432,158,-226
1,5871201,422,-1361,-491,-1494,-304,-46,432,158,-226
1,5871206,422,-1361,-491,-1494,-304,-46,432,158,-226
1,5871213,422,-1361,-491,-1494,-304,-46,432,158,-226
1,5871218,422,-1365,-495,-1487,-300,-43,432,158,-226
1,5871223,422,-1365,-495,-1487,-300,-43,432,158,-226
1,5871233,422,-1365,-495,-1487,-300,-43,432,158,-226
1,5871239,423,-1365,-493,-1484,-302,-39,432,158,-226
1,5871246,423,-1365,-493,-1484,-302,-39,432,158,-226
1,5871252,423,-1365,-493,-1484,-302,-39,432,158,-226
1,5871259,424,-1365,-486,-1483,-309,-41,437,161,-227
1,5871266,424,-1365,-486,-1483,-309,-41,437,161,-227
1,5871273,424,-1365,-486,-1483,-309,-41,437,161,-227
1,5871282,425,-1364,-486,-1482,-302,-38,437,161,-227
1,5871288,425,-1364,-486,-1482,-302,-38,437,161,-227
1,5871295,425,-1364,-486,-1482,-302,-38,437,161,-227
1,5871301,425,-1365,-491,-1483,-302,-45,437,161,-227
1,5871307,425,-1365,-491,-1483,-302,-45,437,161,-227
1,5871314,425,-1365,-491,-1483,-302,-45,437,161,-227
1,5871326,426,-1366,-489,-1498,-301,-43,437,161,-227
1,5871338,425,-1367,-493,-1490,-304,-39,437,161,-227
1,5871352,425,-1367,-493,-1490,-304,-39,437,161,-227
1,5871367,423,-1364,-491,-1494,-302,-47,437,161,-227
1,5871380,425,-1366,-490,-1489,-301,-41,434,160,-228
1,5871389,425,-1366,-490,-1489,-301,-41,434,160,-228
1,5871400,426,-1367,-486,-1487,-301,-43,434,160,-228
1,5871410,426,-1367,-486,-1487,-301,-43,434,160,-228
1,5871418,424,-1367,-492,-1485,-304,-38,434,160,-228
1,5871426,424,-1367,-492,-1485,-304,-38,434,160,-228
1,5871434,424,-1367,-492,-1485,-304,-38,434,160,-228
1,5871448,427,-1365,-489,-1492,-300,-40,434,160,-228
1,5871457,424,-1367,-494,-1488,-294,-44,434,160,-228
1,5871470,424,-1367,-494,-1488,-294,-44,434,160,-228
1,5871485,425,-1366,-494,-1492,-298,-40,434,160,-228
1,5871500,425,-1366,-494,-1486,-298,-32,434,160,-228
1,5871509,425,-1366,-494,-1486,-298,-32,434,160,-228
1,5871521,424,-1365,-488,-1485,-298,-39,435,165,-223
1,5871535,424,-1365,-488,-1485,-298,-39,435,165,-223
1,5871544,425,-1364,-489,-1491,-304,-41,435,165,-223
1,5871552,425,-1364,-489,-1491,-304,-41,435,165,-223
1,5871560,424,-1367,-492,-1487,-304,-46,435,165,-223
1,5871569,424,-1367,-492,-1487,-304,-46,435,165,-223
1,5871584,423,-1364,-490,-1491,-300,-42,435,165,-223
1,5871592,423,-1364,-490,-1491,-300,-42,435,165,-223
1,5871604,424,-1363,-488,-1486,-297,-47,435,165,-223
1,5871617,424,-1363,-488,-1486,-297,-47,435,165,-223
1,5871625,424,-1365,-491,-1487,-295,-40,435,165,-223
1,5871638,422,-1365,-491,-1486,-297,-42,440,174,-226
1,5871651,422,-1365,-491,-1486,-297,-42,440,174,-226
1,5871665,425,-1363,-485,-1484,-304,-43,440,174,-226
1,5871675,425,-1363,-485,-1484,-304,-43,440,174,-226
1,5871689,425,-1363,-485,-1484,-304,-43,440,174,-226
1,5871703,425,-1366,-493,-1482,-296,-34,440,174,-226
1,5871717,425,-1369,-492,-1486,-304,-37,440,174,-226
1,5871726,425,-1369,-492,-1486,-304,-37,440,174,-226
1,5871738,423,-1364,-489,-1483,-300,-39,440,174,-226
1,5871748,423,-1364,-489,-1483,-300,-39,440,174,-226
1,5871757,423,-1364,-489,-1483,-300,-39,440,174,-226
1,5871769,426,-1366,-488,-1482,-300,-35,441,163,-223
1,5871781,425,-1365,-491,-1489,-297,-48,441,163,-223
1,5871795,425,-1365,-491,-1489,-297,-48,441,163,-223
1,5871808,424,-1366,-488,-1491,-297,-43,441,163,-223
1,5871820,423,-1364,-491,-1485,-294,-42,441,163,-223
1,5871833,423,-1364,-491,-1485,-294,-42,441,163,-223
1,5871843,430,-1363,-494,-1486,-299,-43,441,163,-223
1,5871855,430,-1363,-494,-1486,-299,-43,441,163,-223
1,5871868,427,-1363,-489,-1483,-301,-43,441,163,-223
1,5871881,426,-1364,-489,-1491,-304,-42,439,171,-233
1,5871892,426,-1364,-489,-1491,-304,-42,439,171,-233
1,5871904,426,-1365,-486,-1484,-307,-40,439,171,-233
1,5871918,423,-1362,-491,-1486,-299,-41,439,171,-233
1,5871931,423,-1362,-491,-1486,-299,-41,439,171,-233
1,5871942,424,-1365,-490,-1490,-301,-42,439,171,-233
1,5871954,424,-1365,-490,-1490,-301,-42,439,171,-233
1,5871969,424,-1365,-490,-1490,-301,-42,439,171,-233
1,5871980,422,-1363,-489,-1490,-301,-42,439,171,-233
1,5871988,422,-1363,-489,-1490,-301,-42,439,171,-233
1,5871995,422,-1363,-489,-1490,-301,-42,439,171,-233
1,5872004,423,-1367,-491,-1501,-304,-36,439,171,-233
1,5872012,423,-1367,-491,-1501,-304,-36,439,171,-233
1,5872019,424,-1363,-489,-1494,-300,-36,444,158,-228
1,5872028,424,-1363,-489,-1494,-300,-36,444,158,-228
1,5872035,424,-1363,-489,-1494,-300,-36,444,158,-228
1,5872045,425,-1367,-488,-1486,-302,-40,444,158,-228
1,5872052,425,-1367,-488,-1486,-302,-40,444,158,-228
1,5872061,423,-1365,-495,-1485,-299,-40,444,158,-228
1,5872069,423,-1365,-495,-1485,-299,-40,444,158,-228
1,5872078,424,-1363,-494,-1482,-300,-41,444,158,-228
1,5872087,424,-1363,-494,-1482,-300,-41,444,158,-228
1,5872095,424,-1363,-494,-1482,-300,-41,444,158,-228
1,5872105,424,-1367,-491,-1481,-306,-41,444,158,-228
1,5872114,424,-1367,-491,-1481,-306,-41,444,158,-228
1,5872125,425,-1365,-493,-1480,-304,-46,444,158,-228
1,5872137,425,-1365,-493,-1480,-304,-46,444,158,-228
1,5872146,423,-1365,-485,-1486,-297,-40,434,162,-230
1,5872154,423,-1365,-485,-1486,-297,-40,434,162,-230
1,5872162,424,-1367,-490,-1487,-302,-44,434,162,-230
1,5872171,424,-1367,-490,-1487,-302,-44,434,162,-230
1,5872180,424,-1363,-492,-1492,-300,-43,434,162,-230
1,5872188,424,-1363,-492,-1492,-300,-43,434,162,-230
1,5872198,424,-1365,-492,-1490,-299,-37,434,162,-230
1,5872207,424,-1365,-492,-1490,-299,-37,434,162,-230
1,5872217,422,-1364,-491,-1490,-304,-32,434,162,-230
1,5872226,422,-1364,-491,-1490,-304,-32,434,162,-230
1,5872239,422,-1364,-491,-1490,-304,-32,434,162,-230
1,5872253,422,-1364,-491,-1490,-304,-32,434,162,-230
1,5872263,424,-1365,-484,-1483,-298,-43,450,162,-226
1,5872275,424,-1365,-484,-1483,-298,-43,450,162,-226
1,5872287,425,-1365,-487,-1491,-301,-37,450,162,-226
1,5872301,423,-1363,-489,-1488,-300,-37,450,162,-226
1,5872311,423,-1363,-489,-1488,-300,-37,450,162,-226
1,5872323,424,-1362,-491,-1490,-306,-38,450,162,-226
1,5872329,424,-1362,-491,-1490,-306,-38,450,162,-226
1,5872337,424,-1362,-491,-1490,-306,-38,450,162,-226
1,5872345,422,-1363,-488,-1492,-295,-41,450,162,-226
1,5872351,422,-1363,-488,-1492,-295,-41,450,162,-226
1,5872357,422,-1363,-488,-1492,-295,-41,450,162,-226
1,5872362,422,-1364,-493,-1487,-300,-38,450,162,-226
1,5872370,422,-1364,-493,-1487,-300,-38,450,162,-226
1,5872376,422,-1364,-493,-1487,-300,-38,450,162,-226
1,5872385,424,-1365,-491,-1487,-304,-39,444,164,-222
1,5872393,424,-1365,-491,-1487,-304,-39,444,164,-222
1,5872401,423,-1365,-486,-1496,-300,-38,444,164,-222
1,5872407,423,-1365,-486,-1496,-300,-38,444,164,-222
1,5872414,423,-1365,-486,-1496,-300,-38,444,164,-222
1,5872420,423,-1364,-491,-1487,-298,-42,444,164,-222
1,5872430,423,-1364,-491,-1487,-298,-42,444,164,-222
1,5872436,423,-1364,-491,-1487,-298,-42,444,164,-222
1,5872442,424,-1361,-492,-1490,-296,-43,444,164,-222
1,5872450,424,-1361,-492,-1490,-296,-43,444,164,-222
1,5872456,424,-1361,-492,-1490,-296,-43,444,164,-222
1,5872463,423,-1363,-491,-1483,-302,-46,444,164,-222
1,5872471,423,-1363,-491,-1483,-302,-46,444,164,-222
1,5872478,424,-1365,-488,-1488,-297,-47,444,164,-222
1,5872485,424,-1365,-488,-1488,-297,-47,444,164,-222
1,5872492,424,-1365,-488,-1488,-297,-47,444,164,-222
1,5872500,424,-1368,-490,-1488,-300,-41,430,166,-228
1,5872507,424,-1368,-490,-1488,-300,-41,430,166,-228
1,5872514,424,-1368,-490,-1488,-300,-41,430,166,-228
1,5872520,423,-1367,-488,-1492,-304,-35,430,166,-228
1,5872527,423,-1367,-488,-1492,-304,-35,430,166,-228
1,5872535,423,-1367,-488,-1492,-304,-35,430,166,-228
1,5872541,425,-1365,-490,-1486,-304,-47,430,166,-228
1,5872546,425,-1365,-490,-1486,-304,-47,430,166,-228
1,5872551,425,-1365,-490,-1486,-304,-47,430,166,-228
1,5872558,425,-1365,-490,-1486,-304,-47,430,166,-228
1,5872562,425,-1367,-490,-1493,-309,-47,430,166,-228
1,5872567,425,-1367,-490,-1493,-309,-47,430,166,-228
1,5872573,425,-1367,-490,-1493,-309,-47,430,166,-228
1,5872580,426,-1365,-492,-1490,-305,-38,430,166,-228
1,5872587,426,-1365,-492,-1490,-305,-38,430,166,-228
1,5872594,426,-1365,-492,-1490,-305,-38,430,166,-228
1,5872601,423,-1365,-487,-1489,-310,-43,430,166,-228
1,5872609,423,-1365,-487,-1489,-310,-43,430,166,-228
1,5872614,423,-1365,-487,-1489,-310,-43,430,166,-228
1,5872622,422,-1364,-492,-1488,-311,-42,430,166,-228
1,5872629,422,-1364,-492,-1488,-311,-42,430,166,-228
1,5872636,422,-1364,-492,-1488,-311,-42,430,166,-228
1,5872644,423,-1362,-487,-1484,-307,-41,439,171,-229
1,5872650,423,-1362,-487,-1484,-307,-41,439,171,-229
1,5872656,423,-1362,-487,-1484,-307,-41,439,171,-229
1,5872662,424,-1369,-493,-1490,-303,-37,439,171,-229
1,5872670,424,-1369,-493,-1490,-303,-37,439,171,-229
1,5872677,426,-1366,-492,-1491,-299,-35,439,171,-229
1,5872686,426,-1366,-492,-1491,-299,-35,439,171,-229
1,5872694,426,-1366,-492,-1491,-299,-35,439,171,-229
1,5872700,424,-1366,-493,-1491,-305,-30,439,171,-229
1,5872706,424,-1366,-493,-1491,-305,-30,439,171,-229
1,5872713,424,-1366,-493,-1491,-305,-30,439,171,-229
1,5872720,426,-1367,-491,-1489,-306,-41,439,171,-229
1,5872727,426,-1367,-491,-1489,-306,-41,439,171,-229
1,5872735,426,-1367,-491,-1489,-306,-41,439,171,-229
1,5872742,424,-1365,-491,-1485,-295,-42,439,171,-229
1,5872748,424,-1365,-491,-1485,-295,-42,439,171,-229
1,5872754,424,-1365,-491,-1485,-295,-42,439,171,-229
1,5872761,425,-1366,-490,-1484,-302,-36,440,162,-238
1,5872769,425,-1366,-490,-1484,-302,-36,440,162,-238
1,5872777,425,-1366,-490,-1484,-302,-36,440,162,-238
1,5872785,426,-1363,-491,-1482,-301,-39,440,162,-238
1,5872791,426,-1363,-491,-1482,-301,-39,440,162,-238
1,5872797,427,-1366,-489,-1486,-302,-38,440,162,-238
1,5872804,427,-1366,-489,-1486,-302,-38,440,162,-238
1,5872812,427,-1366,-489,-1486,-302,-38,440,162,-238
1,5872819,423,-1363,-488,-1488,-303,-42,440,162,-238
1,5872827,423,-1363,-488,-1488,-303,-42,440,162,-238
1,5872832,423,-1363,-488,-1488,-303,-42,440,162,-238
1,5872839,426,-1363,-489,-1495,-302,-45,440,162,-238
1,5872848,426,-1363,-489,-1495,-302,-45,440,162,-238
1,5872854,426,-1363,-489,-1495,-302,-45,440,162,-238
1,5872861,423,-1366,-491,-1495,-305,-48,440,162,-238
1,5872868,423,-1366,-491,-1495,-305,-48,440,162,-238
1,5872875,423,-1366,-491,-1495,-305,-48,440,162,-238
1,5872882,424,-1363,-491,-1492,-297,-40,444,162,-224
1,5872889,424,-1363,-491,-1492,-297,-40,444,162,-224
1,5872896,424,-1363,-491,-1492,-297,-40,444,162,-224
1,5872904,423,-1364,-490,-1484,-302,-41,444,162,-224
1,5872911,423,-1364,-490,-1484,-302,-41,444,162,-224
1,5872919,424,-1363,-487,-1493,-297,-41,444,162,-224
1,5872926,424,-1363,-487,-1493,-297,-41,444,162,-224
1,5872932,424,-1363,-487,-1493,-297,-41,444,162,-224
1,5872940,422,-1364,-492,-1491,-302,-43,444,162,-224
1,5872946,422,-1364,-492,-1491,-302,-43,444,162,-224
1,5872953,422,-1364,-492,-1491,-302,-43,444,162,-224
1,5872961,423,-1364,-487,-1486,-302,-36,444,162,-224
1,5872968,423,-1364,-487,-1486,-302,-36,444,162,-224
1,5872974,423,-1364,-487,-1486,-302,-36,444,162,-224
1,5872979,425,-1364,-488,-1486,-297,-38,444,162,-224
1,5872985,425,-1364,-488,-1486,-297,-38,444,162,-224
1,5872990,425,-1364,-488,-1486,-297,-38,444,162,-224
1,5872996,425,-1364,-488,-1486,-297,-38,444,162,-224
1,5873001,425,-1362,-491,-1485,-298,-39,438,158,-224
1,5873006,425,-1362,-491,-1485,-298,-39,438,158,-224
1,5873011,425,-1362,-491,-1485,-298,-39,438,158,-224
1,5873016,425,-1362,-491,-1485,-298,-39,438,158,-224
1,5873021,422,-1364,-486,-1484,-296,-35,438,158,-224
1,5873029,422,-1364,-486,-1484,-296,-35,438,158,-224
1,5873037,422,-1364,-486,-1484,-296,-35,438,158,-224
1,5873045,425,-1365,-488,-1486,-295,-40,438,158,-224
1,5873053,425,-1365,-488,-1486,-295,-40,438,158,-224
1,5873060,421,-1366,-489,-1491,-302,-40,438,158,-224
1,5873069,421,-1366,-489,-1491,-302,-40,438,158,-224
1,5873076,421,-1366,-489,-1491,-302,-40,438,158,-224
1,5873083,423,-1364,-491,-1493,-297,-43,438,158,-224
1,5873090,423,-1364,-491,-1493,-297,-43,438,158,-224
1,5873097,423,-1364,-491,-1493,-297,-43,438,158,-224
1,5873103,422,-1365,-493,-1492,-299,-45,438,158,-224
1,5873111,422,-1365,-493,-1492,-299,-45,438,158,-224
1,5873118,423,-1363,-492,-1496,-298,-41,438,158,-224
1,5873125,423,-1363,-492,-1496,-298,-41,438,158,-224
1,5873133,423,-1363,-492,-1496,-298,-41,438,158,-224
1,5873139,427,-1364,-485,-1490,-297,-40,431,167,-225
1,5873145,427,-1364,-485,-1490,-297,-40,431,167,-225
1,5873150,427,-1364,-485,-1490,-297,-40,431,167,-225
1,5873157,427,-1364,-485,-1490,-297,-40,431,167,-225
1,5873164,427,-1371,-493,-1483,-302,-42,431,167,-225
1,5873172,427,-1371,-493,-1483,-302,-42,431,167,-225
1,5873178,425,-1368,-492,-1488,-300,-44,431,167,-225
1,5873184,425,-1368,-492,-1488,-300,-44,431,167,-225
1,5873190,425,-1368,-492,-1488,-300,-44,431,167,-225
1,5873199,423,-1362,-489,-1496,-306,-44,431,167,-225
1,5873205,423,-1362,-489,-1496,-306,-44,431,167,-225
1,5873212,423,-1362,-489,-1496,-306,-44,431,167,-225
1,5873218,422,-1365,-487,-1487,-294,-38,431,167,-225
1,5873223,422,-1365,-487,-1487,-294,-38,431,167,-225
1,5873228,422,-1365,-487,-1487,-294,-38,431,167,-225
1,5873235,422,-1365,-487,-1487,-294,-38,431,167,-225
1,5873243,422,-1365,-490,-1484,-298,-47,431,167,-225
1,5873248,422,-1365,-490,-1484,-298,-47,431,167,-225
1,5873255,422,-1365,-490,-1484,-298,-47,431,167,-225
1,5873262,424,-1366,-485,-1482,-297,-41,435,163,-227
1,5873269,424,-1366,-485,-1482,-297,-41,435,163,-227
1,5873275,424,-1366,-485,-1482,-297,-41,435,163,-227
1,5873284,423,-1366,-493,-1490,-303,-39,435,163,-227
1,5873291,423,-1366,-493,-1490,-303,-39,435,163,-227
1,5873297,423,-1366,-493,-1490,-303,-39,435,163,-227
1,5873304,422,-1364,-494,-1486,-300,-38,435,163,-227
1,5873311,422,-1364,-494,-1486,-300,-38,435,163,-227
1,5873318,426,-1365,-493,-1489,-299,-42,435,163,-227
1,5873326,426,-1365,-493,-1489,-299,-42,435,163,-227
1,5873332,426,-1365,-493,-1489,-299,-42,435,163,-227
1,5873343,424,-1364,-490,-1494,-310,-42,435,163,-227
1,5873354,424,-1364,-490,-1494,-310,-42,435,163,-227
1,5873367,424,-1367,-495,-1494,-304,-38,435,163,-227
1,5873381,427,-1365,-486,-1488,-305,-39,439,167,-219
1,5873394,427,-1365,-486,-1488,-305,-39,439,167,-219
1,5873406,424,-1364,-492,-1489,-303,-43,439,167,-219
1,5873418,426,-1366,-487,-1488,-299,-46,439,167,-219
1,5873431,426,-1366,-487,-1488,-299,-46,439,167,-219
1,5873443,424,-1367,-492,-1486,-297,-46,439,167,-219
1,5873458,424,-1367,-492,-1486,-297,-46,439,167,-219
1,5873467,423,-1366,-488,-1492,-302,-41,439,167,-219
1,5873479,423,-1364,-491,-1488,-302,-46,439,167,-219
1,5873492,423,-1364,-491,-1488,-302,-46,439,167,-219
1,5873506,421,-1366,-490,-1489,-298,-52,445,159,-217
1,5873516,421,-1366,-490,-1489,-298,-52,445,159,-217
1,5873530,421,-1364,-488,-1484,-302,-42,445,159,-217
1,5873542,425,-1364,-490,-1482,-298,-41,445,159,-217
1,5873550,425,-1364,-490,-1482,-298,-41,445,159,-217
1,5873558,424,-1364,-494,-1487,-295,-49,445,159,-217
1,5873566,424,-1364,-494,-1487,-295,-49,445,159,-217
1,5873574,424,-1364,-494,-1487,-295,-49,445,159,-217
1,5873585,421,-1365,-487,-1493,-296,-42,445,159,-217
1,5873598,424,-1364,-492,-1485,-298,-45,445,159,-217
1,5873613,424,-1364,-492,-1485,-298,-45,445,159,-217
1,5873627,422,-1364,-488,-1490,-299,-47,445,159,-217
1,5873636,422,-1364,-488,-1490,-299,-47,445,159,-217
1,5873648,424,-1367,-483,-1494,-301,-44,444,162,-234
1,5873662,424,-1366,-489,-1497,-300,-45,444,162,-234
1,5873676,424,-1366,-489,-1497,-300,-45,444,162,-234
1,5873685,424,-1365,-489,-1490,-297,-43,444,162,-234
1,5873696,424,-1365,-489,-1490,-297,-43,444,162,-234
1,5873709,422,-1367,-493,-1490,-305,-46,444,162,-234
1,5873721,425,-1367,-489,-1494,-304,-37,444,162,-234
1,5873733,425,-1367,-489,-1494,-304,-37,444,162,-234
1,5873748,423,-1364,-492,-1486,-301,-36,444,162,-234
1,5873761,425,-1364,-485,-1486,-299,-42,441,163,-223
1,5873773,425,-1364,-485,-1486,-299,-42,441,163,-223
1,5873787,425,-1367,-490,-1486,-298,-46,441,163,-223
1,5873800,426,-1366,-489,-1487,-305,-41,441,163,-223
1,5873812,426,-1366,-489,-1487,-305,-41,441,163,-223
1,5873823,425,-1366,-490,-1479,-304,-34,441,163,-223
1,5873837,425,-1366,-490,-1479,-304,-34,441,163,-223
1,5873849,425,-1367,-489,-1484,-304,-38,441,163,-223
1,5873861,424,-1365,-491,-1493,-298,-42,441,163,-223
1,5873870,424,-1365,-491,-1493,-298,-42,441,163,-223
1,5873879,424,-1367,-487,-1488,-302,-46,439,163,-225
1,5873887,424,-1367,-487,-1488,-302,-46,439,163,-225
1,5873896,424,-1367,-487,-1488,-302,-46,439,163,-225
1,5873904,424,-1363,-490,-1486,-304,-39,439,163,-225
1,5873916,424,-1363,-490,-1486,-304,-39,439,163,-225
1,5873929,424,-1363,-492,-1485,-298,-38,439,163,-225
1,5873942,421,-1363,-489,-1487,-304,-35,439,163,-225
1,5873954,421,-1363,-489,-1487,-304,-35,439,163,-225
1,5873968,425,-1366,-489,-1490,-307,-38,439,163,-225
1,5873980,422,-1368,-492,-1488,-305,-40,439,163,-225
1,5873988,422,-1368,-492,-1488,-305,-40,439,163,-225
1,5873996,422,-1368,-492,-1488,-305,-40,439,163,-225
1,5874004,426,-1362,-488,-1495,-300,-49,443,171,-225
1,5874013,426,-1362,-488,-1495,-300,-49,443,171,-225
1,5874021,428,-1364,-489,-1491,-302,-48,443,171,-225
1,5874029,428,-1364,-489,-1491,-302,-48,443,171,-225
1,5874037,428,-1364,-489,-1491,-302,-48,443,171,-225
1,5874045,423,-1366,-491,-1487,-302,-36,443,171,-225
1,5874054,423,-1366,-491,-1487,-302,-36,443,171,-225
1,5874062,425,-1365,-491,-1490,-299,-38,443,171,-225
1,5874070,425,-1365,-491,-1490,-299,-38,443,171,-225
1,5874081,428,-1365,-488,-1495,-307,-36,443,171,-225
1,5874095,428,-1365,-488,-1495,-307,-36,443,171,-225
1,5874107,424,-1366,-491,-1487,-306,-40,443,171,-225
1,5874120,425,-1365,-490,-1496,-302,-42,441,165,-227
1,5874134,425,-1365,-490,-1496,-302,-42,441,165,-227
1,5874146,424,-1367,-490,-1483,-304,-38,441,165,-227
1,5874158,424,-1367,-490,-1483,-304,-38,441,165,-227
1,5874169,423,-1364,-489,-1480,-301,-33,441,165,-227
1,5874183,421,-1367,-490,-1488,-302,-42,441,165,-227
1,5874195,421,-1367,-490,-1488,-302,-42,441,165,-227
1,5874205,426,-1364,-489,-1488,-309,-38,441,165,-227
1,5874217,425,-1365,-492,-1486,-304,-43,441,165,-227
1,5874233,425,-1365,-492,-1486,-304,-43,441,165,-227
1,5874242,425,-1361,-492,-1485,-303,-39,441,165,-227
1,5874252,425,-1361,-492,-1485,-303,-39,441,165,-227
1,5874267,424,-1366,-488,-1490,-303,-41,435,167,-227
1,5874281,425,-1365,-490,-1484,-303,-36,435,167,-227
1,5874289,425,-1365,-490,-1484,-303,-36,435,167,-227
1,5874302,422,-1363,-490,-1487,-306,-39,435,167,-227
1,5874316,422,-1363,-490,-1487,-306,-39,435,167,-227
1,5874329,422,-1369,-496,-1494,-305,-41,435,167,-227
1,5874339,422,-1366,-490,-1486,-304,-46,435,167,-227
1,5874348,422,-1366,-490,-1486,-304,-46,435,167,-227
1,5874355,422,-1366,-490,-1486,-304,-46,435,167,-227
1,5874362,423,-1366,-492,-1486,-310,-37,435,167,-227
1,5874368,423,-1366,-492,-1486,-310,-37,435,167,-227
1,5874376,423,-1366,-492,-1486,-310,-37,435,167,-227
1,5874383,425,-1366,-489,-1487,-305,-40,434,162,-224
1,5874390,425,-1366,-489,-1487,-305,-40,434,162,-224
1,5874397,425,-1366,-489,-1487,-305,-40,434,162,-224
1,5874403,425,-1365,-486,-1494,-304,-42,434,162,-224
1,5874410,425,-1365,-486,-1494,-304,-42,434,162,-224
1,5874417,425,-1365,-486,-1494,-304,-42,434,162,-224
1,5874425,421,-1365,-491,-1491,-298,-46,434,162,-224
1,5874433,421,-1365,-491,-1491,-298,-46,434,162,-224
1,5874438,421,-1365,-491,-1491,-298,-46,434,162,-224
1,5874445,425,-1362,-493,-1492,-301,-45,434,162,-224
1,5874452,425,-1362,-493,-1492,-301,-45,434,162,-224
1,5874458,425,-1365,-490,-1484,-306,-39,434,162,-224
1,5874465,425,-1365,-490,-1484,-306,-39,434,162,-224
1,5874473,425,-1365,-490,-1484,-306,-39,434,162,-224
1,5874481,425,-1363,-489,-1482,-306,-43,434,162,-224
1,5874488,425,-1363,-489,-1482,-306,-43,434,162,-224
1,5874493,425,-1363,-489,-1482,-306,-43,434,162,-224
1,5874498,423,-1364,-489,-1487,-298,-50,440,160,-228
1,5874503,423,-1364,-489,-1487,-298,-50,440,160,-228
1,5874510,423,-1364,-489,-1487,-298,-50,440,160,-228
1,5874519,426,-1366,-490,-1486,-299,-48,440,160,-228
1,5874526,426,-1366,-490,-1486,-299,-48,440,160,-228
1,5874533,426,-1366,-490,-1486,-299,-48,440,160,-228
1,5874540,423,-1366,-490,-1484,-299,-50,440,160,-228
1,5874545,423,-1366,-490,-1484,-299,-50,440,160,-228
1,5874550,423,-1366,-490,-1484,-299,-50,440,160,-228
1,5874555,423,-1366,-490,-1484,-299,-50,440,160,-228
1,5874561,424,-1366,-494,-1492,-302,-40,440,160,-228
1,5874566,424,-1366,-494,-1492,-302,-40,440,160,-228
1,5874573,424,-1366,-494,-1492,-302,-40,440,160,-228
1,5874580,423,-1367,-493,-1490,-305,-36,440,160,-228
1,5874587,423,-1367,-493,-1490,-305,-36,440,160,-228
1,5874595,423,-1367,-493,-1490,-305,-36,440,160,-228
1,5874603,423,-1367,-490,-1487,-301,-38,440,160,-228
1,5874610,423,-1367,-490,-1487,-301,-38,440,160,-228
1,5874616,423,-1367,-490,-1487,-301,-38,440,160,-228
1,5874624,422,-1367,-495,-1488,-304,-42,435,163,-231
1,5874630,422,-1367,-495,-1488,-304,-42,435,163,-231
1,5874638,425,-1364,-492,-1488,-304,-41,435,163,-231
1,5874646,425,-1364,-492,-1488,-304,-41,435,163,-231
1,5874654,425,-1364,-492,-1488,-304,-41,435,163,-231
1,5874662,424,-1366,-490,-1488,-300,-44,435,163,-231
1,5874669,424,-1366,-490,-1488,-300,-44,435,163,-231
1,5874676,424,-1366,-490,-1488,-300,-44,435,163,-231
1,5874682,424,-1365,-492,-1490,-306,-40,435,163,-231
1,5874691,424,-1365,-492,-1490,-306,-40,435,163,-231
1,5874698,424,-1365,-492,-1490,-306,-40,435,163,-231
1,5874705,424,-1365,-492,-1493,-298,-38,435,163,-231
1,5874713,424,-1365,-492,-1493,-298,-38,435,163,-231
1,5874720,426,-1366,-496,-1485,-298,-41,435,163,-231
1,5874727,426,-1366,-496,-1485,-298,-41,435,163,-231
1,5874735,426,-1366,-496,-1485,-298,-41,435,163,-231
1,5874742,423,-1364,-495,-1481,-300,-40,435,163,-231
1,5874748,423,-1364,-495,-1481,-300,-40,435,163,-231
1,5874756,423,-1364,-495,-1481,-300,-40,435,163,-231
1,5874763,423,-1363,-484,-1495,-303,-37,439,167,-219
1,5874770,423,-1363,-484,-1495,-303,-37,439,167,-219
1,5874778,423,-1363,-484,-1495,-303,-37,439,167,-219
1,5874786,422,-1362,-487,-1496,-307,-34,439,167,-219
1,5874794,422,-1362,-487,-1496,-307,-34,439,167,-219
1,5874801,425,-1365,-488,-1493,-302,-41,439,167,-219
1,5874808,425,-1365,-488,-1493,-302,-41,439,167,-219
1,5874814,425,-1365,-488,-1493,-302,-41,439,167,-219
1,5874822,426,-1363,-489,-1493,-304,-46,439,167,-219
1,5874828,426,-1363,-489,-1493,-304,-46,439,167,-219
1,5874835,426,-1363,-489,-1493,-304,-46,439,167,-219
1,5874843,425,-1364,-486,-1491,-306,-42,439,167,-219
1,5874849,425,-1364,-486,-1491,-306,-42,439,167,-219
1,5874855,425,-1364,-486,-1491,-306,-42,439,167,-219
1,5874864,423,-1365,-491,-1491,-306,-35,439,167,-219
1,5874872,423,-1365,-491,-1491,-306,-35,439,167,-219
1,5874880,426,-1362,-491,-1492,-302,-45,439,171,-221
1,5874888,426,-1362,-491,-1492,-302,-45,439,171,-221
1,5874895,426,-1362,-491,-1492,-302,-45,439,171,-221
1,5874903,424,-1364,-487,-1488,-305,-39,439,171,-221
1,5874911,424,-1364,-487,-1488,-305,-39,439,171,-221
1,5874919,425,-1365,-490,-1489,-306,-42,439,171,-221
1,5874926,425,-1365,-490,-1489,-306,-42,439,171,-221
1,5874934,425,-1365,-490,-1489,-306,-42,439,171,-221
1,5874939,423,-1365,-491,-1486,-306,-41,439,171,-221
1,5874948,423,-1365,-491,-1486,-306,-41,439,171,-221
1,5874955,423,-1365,-491,-1486,-306,-41,439,171,-221
1,5874960,422,-1368,-490,-1487,-306,-40,439,171,-221
1,5874966,422,-1368,-490,-1487,-306,-40,439,171,-221
1,5874973,422,-1368,-490,-1487,-306,-40,439,171,-221
1,5874979,424,-1366,-490,-1488,-306,-41,439,171,-221
1,5874984,424,-1366,-490,-1488,-306,-41,439,171,-221
1,5874991,424,-1366,-490,-1488,-306,-41,439,171,-221
1,5874996,424,-1366,-490,-1488,-306,-41,439,171,-221
1,5875001,427,-1363,-488,-1487,-309,-39,441,167,-225
1,5875006,427,-1363,-488,-1487,-309,-39,441,167,-225
1,5875011,427,-1363,-488,-1487,-309,-39,441,167,-225
1,5875016,427,-1363,-488,-1487,-309,-39,441,167,-225
1,5875023,424,-1367,-490,-1491,-301,-40,441,167,-225
1,5875030,424,-1367,-490,-1491,-301,-40,441,167,-225
1,5875037,424,-1367,-490,-1491,-301,-40,441,167,-225
1,5875044,423,-1363,-487,-1485,-306,-41,441,167,-225
1,5875051,423,-1363,-487,-1485,-306,-41,441,167,-225
1,5875059,422,-1365,-488,-1490,-306,-43,441,167,-225
1,5875065,422,-1365,-488,-1490,-306,-43,441,167,-225
1,5875072,422,-1365,-488,-1490,-306,-43,441,167,-225
1,5875079,422,-1363,-497,-1489,-301,-44,441,167,-225
1,5875086,422,-1363,-497,-1489,-301,-44,441,167,-225
1,5875091,422,-1363,-497,-1489,-301,-44,441,167,-225
1,5875098,425,-1367,-492,-1485,-301,-45,441,167,-225
1,5875104,425,-1367,-492,-1485,-301,-45,441,167,-225
1,5875110,425,-1367,-492,-1485,-301,-45,441,167,-225
1,5875116,425,-1367,-492,-1485,-301,-45,441,167,-225
1,5875122,426,-1365,-489,-1485,-302,-51,434,168,-228
1,5875128,426,-1365,-489,-1485,-302,-51,434,168,-228
1,5875136,426,-1365,-489,-1485,-302,-51,434,168,-228
1,5875141,425,-1362,-485,-1482,-298,-34,434,168,-228
1,5875149,425,-1362,-485,-1482,-298,-34,434,168,-228
1,5875158,425,-1362,-485,-1482,-298,-34,434,168,-228
1,5875164,424,-1361,-496,-1488,-304,-40,434,168,-228
1,5875171,424,-1361,-496,-1488,-304,-40,434,168,-228
1,5875178,424,-1361,-496,-1488,-304,-40,434,168,-228
1,5875184,424,-1365,-487,-1489,-303,-41,434,168,-228
1,5875190,424,-1365,-487,-1489,-303,-41,434,168,-228
1,5875197,424,-1365,-487,-1489,-303,-41,434,168,-228
1,5875205,422,-1365,-489,-1486,-307,-38,434,168,-228
1,5875212,422,-1365,-489,-1486,-307,-38,434,168,-228
1,5875218,422,-1365,-489,-1486,-307,-38,434,168,-228
1,5875226,422,-1365,-489,-1486,-307,-38,434,168,-228
1,5875233,422,-1365,-489,-1486,-307,-38,434,168,-228
1,5875240,423,-1365,-497,-1490,-306,-40,434,168,-228
1,5875248,423,-1365,-497,-1490,-306,-40,434,168,-228
1,5875255,423,-1365,-497,-1490,-306,-40,434,168,-228
1,5875260,425,-1367,-486,-1489,-307,-45,444,178,-226
1,5875268,425,-1367,-486,-1489,-307,-45,444,178,-226
1,5875275,425,-1367,-486,-1489,-307,-45,444,178,-226
1,5875282,425,-1364,-490,-1492,-301,-50,444,178,-226
1,5875290,425,-1364,-490,-1492,-301,-50,444,178,-226
1,5875297,425,-1364,-490,-1492,-301,-50,444,178,-226
1,5875304,426,-1364,-488,-1493,-304,-43,444,178,-226
1,5875309,426,-1364,-488,-1493,-304,-43,444,178,-226
1,5875316,426,-1364,-488,-1493,-304,-43,444,178,-226
1,5875324,426,-1365,-487,-1495,-307,-46,444,178,-226
1,5875332,426,-1365,-487,-1495,-307,-46,444,178,-226
1,5875339,422,-1365,-486,-1489,-302,-49,444,178,-226
1,5875345,422,-1365,-486,-1489,-302,-49,444,178,-226
1,5875359,421,-1364,-493,-1488,-300,-40,444,178,-226
1,5875371,421,-1364,-493,-1488,-300,-40,444,178,-226
1,5875381,427,-1362,-491,-1493,-299,-45,440,166,-228
1,5875394,427,-1362,-491,-1493,-299,-45,440,166,-228
1,5875405,424,-1364,-489,-1483,-300,-44,440,166,-228
1,5875421,427,-1365,-491,-1484,-304,-43,440,166,-228
1,5875432,427,-1365,-491,-1484,-304,-43,440,166,-228
1,5875444,424,-1365,-494,-1491,-306,-46,440,166,-228
1,5875457,424,-1365,-494,-1491,-306,-46,440,166,-228
1,5875471,424,-1362,-492,-1485,-308,-45,440,166,-228
1,5875485,423,-1366,-495,-1490,-300,-41,440,166,-228
1,5875495,423,-1366,-495,-1490,-300,-41,440,166,-228
1,5875509,422,-1365,-492,-1496,-303,-38,438,170,-226
1,5875523,425,-1366,-491,-1493,-303,-41,438,170,-226
1,5875536,425,-1366,-491,-1493,-303,-41,438,170,-226
1,5875546,421,-1365,-488,-1493,-301,-40,438,170,-226
1,5875553,421,-1365,-488,-1493,-301,-40,438,170,-226
1,5875561,424,-1364,-490,-1492,-297,-44,438,170,-226
1,5875569,424,-1364,-490,-1492,-297,-44,438,170,-226
1,5875578,424,-1365,-492,-1484,-300,-43,438,170,-226
1,5875591,424,-1365,-492,-1484,-300,-43,438,170,-226
1,5875604,424,-1365,-491,-1492,-302,-45,438,170,-226
1,5875613,424,-1365,-491,-1492,-302,-45,438,170,-226
1,5875622,425,-1363,-490,-1486,-309,-48,440,172,-218
1,5875631,425,-1363,-490,-1486,-309,-48,440,172,-218
1,5875639,424,-1365,-488,-1484,-310,-43,440,172,-218
1,5875647,424,-1365,-488,-1484,-310,-43,440,172,-218
1,5875656,424,-1365,-488,-1484,-310,-43,440,172,-218
1,5875665,425,-1364,-488,-1492,-309,-38,440,172,-218
1,5875677,425,-1364,-488,-1492,-309,-38,440,172,-218
1,5875692,423,-1366,-489,-1485,-301,-43,440,172,-218
1,5875706,422,-1364,-495,-1493,-299,-38,440,172,-218
1,5875715,422,-1364,-495,-1493,-299,-38,440,172,-218
1,5875727,426,-1364,-494,-1490,-302,-42,440,172,-218
1,5875742,424,-1364,-494,-1484,-295,-46,440,172,-218
1,5875755,424,-1364,-494,-1484,-295,-46,440,172,-218
1,5875764,426,-1365,-485,-1486,-298,-41,435,161,-227
1,5875776,426,-1365,-485,-1486,-298,-41,435,161,-227
1,5875788,423,-1364,-487,-1482,-304,-43,435,161,-227
1,5875802,425,-1364,-490,-1493,-301,-45,435,161,-227
1,5875814,425,-1364,-490,-1493,-301,-45,435,161,-227
1,5875827,425,-1364,-490,-1493,-301,-45,435,161,-227
1,5875841,424,-1367,-488,-1490,-299,-50,435,161,-227
1,5875849,424,-1367,-488,-1490,-299,-50,435,161,-227
1,5875860,424,-1367,-488,-1490,-299,-50,435,161,-227
1,5875873,424,-1367,-488,-1490,-299,-50,435,161,-227
1,5875883,423,-1363,-484,-1489,-303,-45,442,168,-226
1,5875895,423,-1363,-484,-1489,-303,-45,442,168,-226
1,5875908,425,-1363,-486,-1482,-302,-38,442,168,-226
1,5875921,423,-1365,-491,-1484,-304,-42,442,168,-226
1,5875932,423,-1365,-491,-1484,-304,-42,442,168,-226
1,5875944,422,-1364,-488,-1491,-311,-48,442,168,-226
1,5875957,422,-1364,-488,-1491,-311,-48,442,168,-226
1,5875970,424,-1363,-495,-1489,-307,-41,442,168,-226
1,5875981,421,-1364,-489,-1489,-305,-42,442,168,-226
1,5875989,421,-1364,-489,-1489,-305,-42,442,168,-226
1,5875996,421,-1364,-489,-1489,-305,-42,442,168,-226
1,5876004,421,-1365,-489,-1483,-303,-48,437,167,-225
1,5876014,421,-1365,-489,-1483,-303,-48,437,167,-225
1,5876021,425,-1364,-495,-1485,-296,-47,437,167,-225
1,5876029,425,-1364,-495,-1485,-296,-47,437,167,-225
1,5876037,425,-1364,-495,-1485,-296,-47,437,167,-225
1,5876044,425,-1368,-491,-1494,-299,-38,437,167,-225
1,5876052,425,-1368,-491,-1494,-299,-38,437,167,-225
1,5876061,424,-1366,-488,-1488,-304,-46,437,167,-225
1,5876069,424,-1366,-488,-1488,-304,-46,437,167,-225
1,5876077,424,-1366,-488,-1488,-304,-46,437,167,-225
1,5876090,424,-1367,-493,-1490,-298,-44,437,167,-225
1,5876099,425,-1366,-493,-1488,-302,-38,437,167,-225
1,5876110,425,-1366,-493,-1488,-302,-38,437,167,-225
1,5876125,424,-1364,-482,-1492,-302,-34,436,164,-222
1,5876139,424,-1364,-482,-1492,-302,-34,436,164,-222
1,5876149,424,-1365,-490,-1495,-307,-38,436,164,-222
1,5876162,424,-1363,-490,-1485,-303,-40,436,164,-222
1,5876176,424,-1363,-490,-1485,-303,-40,436,164,-222
1,5876190,421,-1364,-492,-1489,-303,-37,436,164,-222
1,5876199,426,-1363,-492,-1494,-298,-40,436,164,-222
1,5876212,426,-1363,-492,-1494,-298,-40,436,164,-222
1,5876226,423,-1365,-493,-1490,-309,-44,436,164,-222
1,5876234,423,-1365,-493,-1490,-309,-44,436,164,-222
1,5876242,424,-1366,-488,-1491,-298,-44,441,169,-231
1,5876251,424,-1366,-488,-1491,-298,-44,441,169,-231
1,5876262,421,-1364,-488,-1492,-290,-32,441,169,-231
1,5876275,421,-1364,-488,-1492,-290,-32,441,169,-231
1,5876287,424,-1369,-490,-1490,-303,-43,441,169,-231
1,5876295,424,-1369,-490,-1490,-303,-43,441,169,-231
1,5876303,422,-1365,-490,-1488,-300,-44,441,169,-231
1,5876311,422,-1365,-490,-1488,-300,-44,441,169,-231
1,5876319,425,-1364,-495,-1489,-306,-43,441,169,-231
1,5876327,425,-1364,-495,-1489,-306,-43,441,169,-231
1,5876334,425,-1364,-495,-1489,-306,-43,441,169,-231
1,5876342,421,-1367,-492,-1494,-299,-40,441,169,-231
1,5876350,421,-1367,-492,-1494,-299,-40,441,169,-231
1,5876357,421,-1367,-492,-1494,-299,-40,441,169,-231
1,5876362,423,-1367,-495,-1493,-298,-35,441,169,-231
1,5876367,423,-1367,-495,-1493,-298,-35,441,169,-231
1,5876372,423,-1367,-495,-1493,-298,-35,441,169,-231
1,5876377,423,-1367,-495,-1493,-298,-35,441,169,-231
1,5876382,423,-1365,-485,-1488,-306,-41,444,166,-230
1,5876387,423,-1365,-485,-1488,-306,-41,444,166,-230
1,5876392,423,-1365,-485,-1488,-306,-41,444,166,-230
1,5876398,423,-1365,-485,-1488,-306,-41,444,166,-230
1,5876403,425,-1363,-488,-1491,-308,-39,444,166,-230
1,5876407,425,-1363,-488,-1491,-308,-39,444,166,-230
1,5876412,425,-1363,-488,-1491,-308,-39,444,166,-230
1,5876417,425,-1363,-488,-1491,-308,-39,444,166,-230
1,5876422,422,-1365,-487,-1492,-303,-40,444,166,-230
1,5876427,422,-1365,-487,-1492,-303,-40,444,166,-230
1,5876432,422,-1365,-487,-1492,-303,-40,444,166,-230
1,5876438,422,-1365,-487,-1492,-303,-40,444,166,-230
1,5876442,424,-1365,-492,-1488,-303,-44,444,166,-230
1,5876448,424,-1365,-492,-1488,-303,-44,444,166,-230
1,5876453,424,-1365,-492,-1488,-303,-44,444,166,-230
1,5876458,424,-1365,-492,-1488,-303,-44,444,166,-230
1,5876464,426,-1365,-490,-1486,-299,-41,444,166,-230
1,5876469,426,-1365,-490,-1486,-299,-41,444,166,-230
1,5876474,426,-1365,-490,-1486,-299,-41,444,166,-230
1,5876481,422,-1363,-492,-1497,-293,-44,444,166,-230
1,5876486,422,-1363,-492,-1497,-293,-44,444,166,-230
1,5876491,422,-1363,-492,-1497,-293,-44,444,166,-230
1,5876495,422,-1363,-492,-1497,-293,-44,444,166,-230
1,5876500,423,-1363,-488,-1494,-298,-40,431,175,-223
1,5876506,423,-1363,-488,-1494,-298,-40,431,175,-223
1,5876511,423,-1363,-488,-1494,-298,-40,431,175,-223
1,5876516,423,-1363,-488,-1494,-298,-40,431,175,-223
1,5876521,423,-1363,-489,-1490,-303,-47,431,175,-223
1,5876526,423,-1363,-489,-1490,-303,-47,431,175,-223
1,5876532,423,-1363,-489,-1490,-303,-47,431,175,-223
1,5876537,423,-1363,-489,-1490,-303,-47,431,175,-223
1,5876541,423,-1367,-491,-1491,-298,-38,431,175,-223
1,5876546,423,-1367,-491,-1491,-298,-38,431,175,-223
1,5876551,423,-1367,-491,-1491,-298,-38,431,175,-223
1,5876556,423,-1367,-491,-1491,-298,-38,431,175,-223
1,5876561,425,-1367,-488,-1491,-300,-44,431,175,-223
1,5876567,425,-1367,-488,-1491,-300,-44,431,175,-223
1,5876572,425,-1367,-488,-1491,-300,-44,431,175,-223
1,5876578,425,-1367,-488,-1491,-300,-44,431,175,-223
1,5876583,424,-1364,-489,-1491,-302,-45,431,175,-223
1,5876588,424,-1364,-489,-1491,-302,-45,431,175,-223
1,5876593,424,-1364,-489,-1491,-302,-45,431,175,-223
1,5876600,422,-1368,-490,-1493,-302,-44,431,175,-223
1,5876605,422,-1368,-490,-1493,-302,-44,431,175,-223
1,5876611,422,-1368,-490,-1493,-302,-44,431,175,-223
1,5876617,422,-1368,-490,-1493,-302,-44,431,175,-223
1,5876622,424,-1362,-488,-1492,-303,-40,435,167,-227
1,5876628,424,-1362,-488,-1492,-303,-40,435,167,-227
1,5876634,424,-1362,-488,-1492,-303,-40,435,167,-227
1,5876640,423,-1366,-491,-1492,-304,-44,435,167,-227
1,5876646,423,-1366,-491,-1492,-304,-44,435,167,-227
1,5876651,423,-1366,-491,-1492,-304,-44,435,167,-227
1,5876657,423,-1366,-491,-1492,-304,-44,435,167,-227
1,5876662,423,-1362,-486,-1492,-300,-44,435,167,-227
1,5876668,423,-1362,-486,-1492,-300,-44,435,167,-227
1,5876674,423,-1362,-486,-1492,-300,-44,435,167,-227
1,5876679,422,-1362,-491,-1495,-297,-42,435,167,-227
1,5876685,422,-1362,-491,-1495,-297,-42,435,167,-227
1,5876690,422,-1362,-491,-1495,-297,-42,435,167,-227
1,5876697,422,-1362,-491,-1495,-297,-42,435,167,-227
1,5876702,424,-1362,-492,-1492,-298,-46,435,167,-227
1,5876707,424,-1362,-492,-1492,-298,-46,435,167,-227
1,5876713,424,-1362,-492,-1492,-298,-46,435,167,-227
1,5876718,424,-1362,-492,-1492,-298,-46,435,167,-227
1,5876724,423,-1366,-495,-1484,-300,-44,435,167,-227
1,5876731,423,-1366,-495,-1484,-300,-44,435,167,-227
1,5876737,423,-1366,-495,-1484,-300,-44,435,167,-227
1,5876743,425,-1367,-490,-1487,-304,-45,432,170,-228
1,5876749,425,-1367,-490,-1487,-304,-45,432,170,-228
1,5876754,425,-1367,-490,-1487,-304,-45,432,170,-228
1,5876760,423,-1364,-489,-1483,-306,-37,432,170,-228
1,5876765,423,-1364,-489,-1483,-306,-37,432,170,-228
1,5876771,423,-1364,-489,-1483,-306,-37,432,170,-228
1,5876777,423,-1364,-489,-1483,-306,-37,432,170,-228
1,5876783,423,-1365,-488,-1488,-306,-41,432,170,-228
1,5876791,423,-1365,-488,-1488,-306,-41,432,170,-228
1,5876799,421,-1364,-491,-1486,-301,-40,432,170,-228
1,5876807,421,-1364,-491,-1486,-301,-40,432,170,-228
1,5876814,421,-1364,-491,-1486,-301,-40,432,170,-228
1,5876822,424,-1367,-489,-1485,-301,-42,432,170,-228
1,5876828,424,-1367,-489,-1485,-301,-42,432,170,-228
1,5876836,424,-1367,-489,-1485,-301,-42,432,170,-228
1,5876842,422,-1366,-489,-1489,-294,-45,432,170,-228
1,5876850,422,-1366,-489,-1489,-294,-45,432,170,-228
1,5876855,422,-1366,-489,-1489,-294,-45,432,170,-228
1,5876861,422,-1367,-492,-1486,-299,-35,432,170,-228
1,5876866,422,-1367,-492,-1486,-299,-35,432,170,-228
1,5876874,422,-1367,-492,-1486,-299,-35,432,170,-228
1,5876882,422,-1368,-488,-1491,-306,-37,434,160,-224
1,5876889,422,-1368,-488,-1491,-306,-37,434,160,-224
1,5876896,422,-1368,-488,-1491,-306,-37,434,160,-224
1,5876901,426,-1368,-488,-1491,-300,-42,434,160,-224
1,5876909,426,-1368,-488,-1491,-300,-42,434,160,-224
1,5876916,426,-1368,-488,-1491,-300,-42,434,160,-224
1,5876924,426,-1364,-491,-1487,-301,-41,434,160,-224
1,5876930,426,-1364,-491,-1487,-301,-41,434,160,-224
1,5876937,426,-1364,-491,-1487,-301,-41,434,160,-224
1,5876944,425,-1365,-492,-1485,-302,-40,434,160,-224
1,5876951,425,-1365,-492,-1485,-302,-40,434,160,-224
1,5876958,425,-1365,-492,-1485,-302,-40,434,160,-224
1,5876966,425,-1364,-491,-1484,-302,-41,434,160,-224
1,5876971,425,-1364,-491,-1484,-302,-41,434,160,-224
1,5876978,425,-1364,-491,-1484,-302,-41,434,160,-224
1,5876983,424,-1362,-489,-1489,-308,-45,434,160,-224
1,5876988,424,-1362,-489,-1489,-308,-45,434,160,-224
1,5876994,424,-1362,-489,-1489,-308,-45,434,160,-224
1,5876999,424,-1361,-489,-1492,-301,-41,434,160,-224
1,5877004,424,-1361,-489,-1492,-301,-41,432,166,-222
1,5877010,424,-1361,-489,-1492,-301,-41,432,166,-222
1,5877015,424,-1361,-489,-1492,-301,-41,432,166,-222
1,5877020,423,-1363,-484,-1493,-295,-43,432,166,-222
1,5877028,423,-1363,-484,-1493,-295,-43,432,166,-222
1,5877037,423,-1363,-484,-1493,-295,-43,432,166,-222
1,5877044,423,-1363,-484,-1493,-295,-43,432,166,-222
1,5877051,423,-1363,-484,-1493,-295,-43,432,166,-222
1,5877059,425,-1364,-485,-1489,-299,-33,432,166,-222
1,5877065,425,-1364,-485,-1489,-299,-33,432,166,-222
1,5877071,425,-1364,-485,-1489,-299,-33,432,166,-222
1,5877079,423,-1363,-493,-1486,-297,-39,432,166,-222
1,5877087,423,-1363,-493,-1486,-297,-39,432,166,-222
1,5877093,423,-1363,-493,-1486,-297,-39,432,166,-222
1,5877099,421,-1364,-494,-1494,-307,-52,432,166,-222
1,5877106,421,-1364,-494,-1494,-307,-52,432,166,-222
1,5877112,421,-1364,-494,-1494,-307,-52,432,166,-222
1,5877117,421,-1364,-494,-1494,-307,-52,432,166,-222
1,5877126,424,-1364,-491,-1492,-302,-42,442,160,-220
1,5877133,424,-1364,-491,-1492,-302,-42,442,160,-220
1,5877139,425,-1366,-493,-1491,-300,-41,442,160,-220
1,5877146,425,-1366,-493,-1491,-300,-41,442,160,-220
1,5877151,425,-1366,-493,-1491,-300,-41,442,160,-220
1,5877159,422,-1365,-491,-1482,-295,-41,442,160,-220
1,5877168,422,-1365,-491,-1482,-295,-41,442,160,-220
1,5877176,422,-1365,-491,-1482,-295,-41,442,160,-220
1,5877184,426,-1364,-490,-1487,-294,-38,442,160,-220
1,5877191,426,-1364,-490,-1487,-294,-38,442,160,-220
1,5877199,425,-1365,-490,-1489,-307,-36,442,160,-220
1,5877204,425,-1365,-490,-1489,-307,-36,442,160,-220
1,5877213,425,-1365,-490,-1489,-307,-36,442,160,-220
1,5877219,424,-1363,-490,-1492,-303,-42,442,160,-220
1,5877227,424,-1363,-490,-1492,-303,-42,442,160,-220
1,5877233,424,-1363,-490,-1492,-303,-42,442,160,-220
1,5877241,424,-1367,-484,-1484,-296,-36,441,171,-227
1,5877249,424,-1367,-484,-1484,-296,-36,441,171,-227
1,5877256,424,-1367,-484,-1484,-296,-36,441,171,-227
1,5877263,423,-1366,-492,-1487,-295,-41,441,171,-227
1,5877269,423,-1366,-492,-1487,-295,-41,441,171,-227
1,5877276,423,-1366,-492,-1487,-295,-41,441,171,-227
1,5877284,425,-1365,-490,-1482,-297,-38,441,171,-227
1,5877293,425,-1365,-490,-1482,-297,-38,441,171,-227
1,5877300,427,-1366,-490,-1485,-299,-40,441,171,-227
1,5877305,427,-1366,-490,-1485,-299,-40,441,171,-227
1,5877311,427,-1366,-490,-1485,-299,-40,441,171,-227
1,5877318,427,-1366,-490,-1485,-299,-40,441,171,-227
1,5877325,425,-1364,-488,-1486,-307,-39,441,171,-227
1,5877334,425,-1364,-488,-1486,-307,-39,441,171,-227
1,5877340,423,-1367,-490,-1488,-302,-46,441,171,-227
1,5877348,423,-1367,-490,-1488,-302,-46,441,171,-227
1,5877355,423,-1367,-490,-1488,-302,-46,441,171,-227
1,5877366,422,-1366,-494,-1492,-307,-39,441,171,-227
1,5877378,422,-1366,-494,-1492,-307,-39,441,171,-227
1,5877387,422,-1367,-486,-1489,-308,-41,443,163,-219
1,5877395,422,-1367,-486,-1489,-308,-41,443,163,-219
1,5877403,422,-1366,-487,-1493,-302,-44,443,163,-219
1,5877411,422,-1366,-487,-1493,-302,-44,443,163,-219
1,5877422,426,-1363,-490,-1486,-295,-43,443,163,-219
1,5877436,426,-1363,-490,-1486,-295,-43,443,163,-219
1,5877448,422,-1363,-492,-1486,-296,-43,443,163,-219
1,5877462,422,-1365,-487,-1481,-298,-48,443,163,-219
1,5877476,422,-1365,-487,-1481,-298,-48,443,163,-219
1,5877487,421,-1364,-490,-1486,-302,-46,443,163,-219
1,5877499,424,-1364,-486,-1487,-297,-43,440,166,-222
1,5877513,424,-1364,-486,-1487,-297,-43,440,166,-222
1,5877526,422,-1362,-482,-1486,-301,-44,440,166,-222
1,5877538,422,-1362,-482,-1486,-301,-44,440,166,-222
1,5877547,424,-1363,-486,-1484,-294,-42,440,166,-222
1,5877554,424,-1363,-486,-1484,-294,-42,440,166,-222
1,5877562,425,-1366,-491,-1487,-305,-40,440,166,-222
1,5877570,425,-1366,-491,-1487,-305,-40,440,166,-222
1,5877583,422,-1365,-493,-1482,-304,-50,440,166,-222
1,5877594,422,-1365,-493,-1482,-304,-50,440,166,-222
1,5877605,424,-1363,-490,-1488,-308,-37,440,166,-222
1,5877618,424,-1363,-490,-1488,-308,-37,440,166,-222
1,5877632,424,-1364,-481,-1483,-304,-43,434,162,-228
1,5877641,422,-1361,-491,-1488,-301,-43,434,162,-228
1,5877653,422,-1361,-491,-1488,-301,-43,434,162,-228
1,5877665,422,-1363,-490,-1488,-300,-37,434,162,-228
1,5877679,422,-1363,-490,-1488,-300,-37,434,162,-228
1,5877693,425,-1364,-492,-1490,-301,-43,434,162,-228
1,5877705,424,-1364,-491,-1489,-298,-38,434,162,-228
1,5877718,424,-1364,-491,-1489,-298,-38,434,162,-228
1,5877733,425,-1366,-491,-1491,-298,-36,434,162,-228
1,5877745,425,-1364,-488,-1484,-292,-31,431,165,-223
1,5877757,425,-1364,-488,-1484,-292,-31,431,165,-223
1,5877771,423,-1367,-486,-1484,-304,-39,431,165,-223
1,5877784,425,-1365,-490,-1491,-315,-43,431,165,-223
1,5877797,425,-1365,-490,-1491,-315,-43,431,165,-223
1,5877808,424,-1364,-491,-1495,-308,-41,431,165,-223
1,5877821,425,-1365,-494,-1496,-298,-46,431,165,-223
1,5877833,425,-1365,-494,-1496,-298,-46,431,165,-223
1,5877847,426,-1366,-492,-1487,-298,-41,431,165,-223
1,5877857,426,-1366,-492,-1487,-298,-41,431,165,-223
1,5877869,426,-1366,-493,-1490,-305,-38,436,164,-226
1,5877882,427,-1366,-487,-1490,-302,-39,436,164,-226
1,5877896,427,-1366,-487,-1490,-302,-39,436,164,-226
1,5877906,423,-1364,-494,-1489,-304,-42,436,164,-226
1,5877921,421,-1364,-493,-1490,-303,-49,436,164,-226
