imu,time,ax,ay,az,gx,gy,gz,mx,my,mz
0,5076535,198,-1874,-380,-1029,-575,-327,262,134,-444
0,5076542,198,-1874,-380,-1029,-575,-327,262,134,-444
0,5076547,197,-1876,-379,-1029,-572,-326,262,134,-444
0,5076553,197,-1876,-379,-1029,-572,-326,262,134,-444
0,5076558,197,-1876,-379,-1029,-572,-326,262,134,-444
0,5076563,200,-1872,-385,-1030,-570,-327,262,134,-444
0,5076569,200,-1872,-385,-1030,-570,-327,262,134,-444
0,5076574,200,-1872,-385,-1030,-570,-327,262,134,-444
0,5076579,200,-1872,-385,-1030,-570,-327,262,134,-444
0,5076584,198,-1874,-384,-1031,-568,-321,262,134,-444
0,5076589,198,-1874,-384,-1031,-568,-321,262,134,-444
0,5076594,198,-1874,-384,-1031,-568,-321,262,134,-444
0,5076599,198,-1874,-384,-1031,-568,-321,262,134,-444
0,5076605,199,-1874,-382,-1036,-569,-326,262,134,-444
0,5076611,199,-1874,-382,-1036,-569,-326,262,134,-444
0,5076617,199,-1874,-382,-1036,-569,-326,262,134,-444
0,5076623,199,-1874,-382,-1036,-569,-326,262,134,-444
0,5076628,198,-1873,-386,-1027,-570,-322,262,134,-444
0,5076634,198,-1873,-386,-1027,-570,-322,262,134,-444
0,5076642,198,-1873,-386,-1027,-570,-322,262,134,-444
0,5076649,201,-1872,-378,-1032,-569,-323,262,134,-444
0,5076658,201,-1872,-378,-1032,-569,-323,262,134,-444
0,5076665,201,-1873,-379,-1031,-570,-323,263,147,-447
0,5076672,201,-1873,-379,-1031,-570,-323,263,147,-447
0,5076679,201,-1873,-379,-1031,-570,-323,263,147,-447
0,5076684,203,-1873,-385,-1027,-567,-324,263,147,-447
0,5076689,203,-1873,-385,-1027,-567,-324,263,147,-447
0,5076696,203,-1873,-385,-1027,-567,-324,263,147,-447
0,5076701,203,-1873,-385,-1027,-567,-324,263,147,-447
0,5076709,201,-1873,-384,-1032,-567,-318,263,147,-447
0,5076717,201,-1873,-384,-1032,-567,-318,263,147,-447
0,5076725,201,-1875,-380,-1024,-569,-319,263,147,-447
0,5076732,201,-1875,-380,-1024,-569,-319,263,147,-447
0,5076740,201,-1875,-380,-1024,-569,-319,263,147,-447
0,5076747,201,-1874,-387,-1031,-567,-327,263,147,-447
0,5076755,201,-1874,-387,-1031,-567,-327,263,147,-447
0,5076762,201,-1874,-387,-1031,-567,-327,263,147,-447
0,5076768,203,-1875,-380,-1027,-570,-331,263,147,-447
0,5076775,203,-1875,-380,-1027,-570,-331,263,147,-447
0,5076786,200,-1873,-383,-1031,-568,-322,254,138,-448
0,5076791,200,-1873,-383,-1031,-568,-322,254,138,-448
0,5076797,200,-1873,-383,-1031,-568,-322,254,138,-448
0,5076803,200,-1872,-378,-1035,-569,-323,254,138,-448
0,5076811,200,-1872,-378,-1035,-569,-323,254,138,-448
0,5076817,200,-1872,-378,-1035,-569,-323,254,138,-448
0,5076826,201,-1874,-383,-1034,-570,-321,254,138,-448
0,5076832,201,-1874,-383,-1034,-570,-321,254,138,-448
0,5076839,201,-1874,-383,-1034,-570,-321,254,138,-448
0,5076845,201,-1872,-381,-1029,-559,-333,254,138,-448
0,5076852,201,-1872,-381,-1029,-559,-333,254,138,-448
0,5076860,201,-1872,-381,-1029,-559,-333,254,138,-448
0,5076868,201,-1877,-386,-1028,-558,-326,254,138,-448
0,5076876,201,-1877,-386,-1028,-558,-326,254,138,-448
0,5076883,200,-1874,-388,-1026,-564,-326,254,138,-448
0,5076889,200,-1874,-388,-1026,-564,-326,254,138,-448
0,5076896,200,-1874,-388,-1026,-564,-326,254,138,-448
0,5076902,200,-1874,-388,-1026,-564,-326,254,138,-448
0,5076910,203,-1871,-382,-1027,-565,-316,254,138,-448
0,5076918,203,-1871,-382,-1027,-565,-316,254,138,-448
0,5076925,202,-1869,-380,-1019,-560,-317,260,148,-442
0,5076931,202,-1869,-380,-1019,-560,-317,260,148,-442
0,5076937,202,-1869,-380,-1019,-560,-317,260,148,-442
0,5076944,199,-1874,-383,-1024,-564,-323,260,148,-442
0,5076950,199,-1874,-383,-1024,-564,-323,260,148,-442
0,5076955,199,-1874,-383,-1024,-564,-323,260,148,-442
0,5076962,199,-1874,-383,-1024,-564,-323,260,148,-442
0,5076969,199,-1875,-382,-1029,-570,-324,260,148,-442
0,5076977,199,-1875,-382,-1029,-570,-324,260,148,-442
0,5076983,199,-1875,-382,-1029,-570,-324,260,148,-442
0,5076989,199,-1875,-382,-1029,-570,-324,260,148,-442
0,5076997,199,-1875,-382,-1029,-570,-324,260,148,-442
0,5077005,200,-1871,-382,-1027,-565,-325,260,148,-442
0,5077011,200,-1871,-382,-1027,-565,-325,260,148,-442
0,5077017,200,-1871,-382,-1027,-565,-325,260,148,-442
0,5077025,200,-1874,-388,-1024,-567,-328,260,148,-442
0,5077032,200,-1874,-388,-1024,-567,-328,260,148,-442
0,5077040,200,-1874,-388,-1024,-567,-328,260,148,-442
0,5077047,200,-1876,-382,-1024,-572,-321,267,145,-447
0,5077055,200,-1876,-382,-1024,-572,-321,267,145,-447
0,5077062,200,-1876,-382,-1024,-572,-321,267,145,-447
0,5077068,201,-1873,-373,-1024,-563,-327,267,145,-447
0,5077076,201,-1873,-373,-1024,-563,-327,267,145,-447
0,5077083,201,-1873,-373,-1024,-563,-327,267,145,-447
0,5077088,201,-1875,-385,-1030,-565,-332,267,145,-447
0,5077095,201,-1875,-385,-1030,-565,-332,267,145,-447
0,5077102,201,-1875,-385,-1030,-565,-332,267,145,-447
0,5077109,202,-1875,-380,-1028,-564,-315,267,145,-447
0,5077116,202,-1875,-380,-1028,-564,-315,267,145,-447
0,5077124,199,-1873,-381,-1020,-570,-321,267,145,-447
0,5077131,199,-1873,-381,-1020,-570,-321,267,145,-447
0,5077137,199,-1873,-381,-1020,-570,-321,267,145,-447
0,5077144,201,-1874,-385,-1024,-567,-321,267,145,-447
0,5077152,201,-1874,-385,-1024,-567,-321,267,145,-447
0,5077160,201,-1874,-385,-1024,-567,-321,267,145,-447
0,5077166,202,-1875,-388,-1022,-564,-316,267,145,-447
0,5077171,202,-1875,-388,-1022,-564,-316,267,145,-447
0,5077176,202,-1875,-388,-1022,-564,-316,267,145,-447
0,5077181,202,-1875,-388,-1022,-564,-316,267,145,-447
0,5077187,200,-1875,-382,-1024,-559,-325,260,142,-440
0,5077195,200,-1875,-382,-1024,-559,-325,260,142,-440
0,5077201,200,-1875,-382,-1024,-559,-325,260,142,-440
0,5077209,201,-1876,-380,-1025,-558,-323,260,142,-440
0,5077216,201,-1876,-380,-1025,-558,-323,260,142,-440
0,5077223,201,-1876,-380,-1025,-558,-323,260,142,-440
0,5077231,201,-1874,-380,-1029,-565,-320,260,142,-440
0,5077238,201,-1874,-380,-1029,-565,-320,260,142,-440
0,5077245,200,-1874,-387,-1019,-567,-327,260,142,-440
0,5077252,200,-1874,-387,-1019,-567,-327,260,142,-440
0,5077259,200,-1874,-387,-1019,-567,-327,260,142,-440
0,5077266,201,-1877,-386,-1018,-564,-329,260,142,-440
0,5077273,201,-1877,-386,-1018,-564,-329,260,142,-440
0,5077280,201,-1877,-386,-1018,-564,-329,260,142,-440
0,5077286,197,-1877,-382,-1023,-560,-330,260,142,-440
0,5077295,197,-1877,-382,-1023,-560,-330,260,142,-440
0,5077303,197,-1877,-382,-1023,-560,-330,260,142,-440
0,5077311,199,-1874,-379,-1023,-561,-331,261,147,-439
0,5077317,199,-1874,-379,-1023,-561,-331,261,147,-439
0,5077324,200,-1874,-375,-1028,-568,-327,261,147,-439
0,5077330,200,-1874,-375,-1028,-568,-327,261,147,-439
0,5077338,200,-1874,-375,-1028,-568,-327,261,147,-439
0,5077345,200,-1873,-382,-1026,-569,-326,261,147,-439
0,5077353,200,-1873,-382,-1026,-569,-326,261,147,-439
0,5077359,200,-1873,-382,-1026,-569,-326,261,147,-439
0,5077367,199,-1876,-384,-1026,-569,-328,261,147,-439
0,5077373,199,-1876,-384,-1026,-569,-328,261,147,-439
0,5077381,199,-1876,-384,-1026,-569,-328,261,147,-439
0,5077386,201,-1874,-379,-1027,-563,-331,261,147,-439
0,5077393,201,-1874,-379,-1027,-563,-331,261,147,-439
0,5077400,201,-1874,-379,-1027,-563,-331,261,147,-439
0,5077405,200,-1876,-383,-1023,-559,-327,261,147,-439
0,5077413,200,-1876,-383,-1023,-559,-327,261,147,-439
0,5077421,200,-1876,-383,-1023,-559,-327,261,147,-439
0,5077429,198,-1872,-385,-1021,-563,-324,260,138,-446
0,5077436,198,-1872,-385,-1021,-563,-324,260,138,-446
0,5077441,198,-1872,-385,-1021,-563,-324,260,138,-446
0,5077447,200,-1876,-381,-1024,-570,-321,260,138,-446
0,5077454,200,-1876,-381,-1024,-570,-321,260,138,-446
0,5077462,200,-1876,-381,-1024,-570,-321,260,138,-446
0,5077469,198,-1875,-377,-1031,-571,-328,260,138,-446
0,5077476,198,-1875,-377,-1031,-571,-328,260,138,-446
0,5077484,198,-1875,-377,-1031,-571,-328,260,138,-446
0,5077490,198,-1874,-380,-1026,-563,-333,260,138,-446
0,5077495,198,-1874,-380,-1026,-563,-333,260,138,-446
0,5077500,198,-1874,-380,-1026,-563,-333,260,138,-446
0,5077506,202,-1875,-386,-1026,-561,-328,260,138,-446
0,5077511,202,-1875,-386,-1026,-561,-328,260,138,-446
0,5077516,202,-1875,-386,-1026,-561,-328,260,138,-446
0,5077522,202,-1875,-386,-1026,-561,-328,260,138,-446
0,5077528,202,-1874,-383,-1026,-566,-324,260,138,-446
0,5077534,202,-1874,-383,-1026,-566,-324,260,138,-446
0,5077540,202,-1874,-383,-1026,-566,-324,260,138,-446
0,5077545,200,-1872,-389,-1029,-570,-325,260,138,-446
0,5077551,200,-1872,-389,-1029,-570,-325,260,138,-446
0,5077556,200,-1872,-389,-1029,-570,-325,260,138,-446
0,5077562,200,-1872,-389,-1029,-570,-325,260,138,-446
0,5077567,200,-1876,-383,-1023,-566,-323,257,141,-449
0,5077572,200,-1876,-383,-1023,-566,-323,257,141,-449
0,5077578,200,-1876,-383,-1023,-566,-323,257,141,-449
0,5077583,200,-1876,-383,-1023,-566,-323,257,141,-449
0,5077590,201,-1874,-379,-1025,-570,-327,257,141,-449
0,5077595,201,-1874,-379,-1025,-570,-327,257,141,-449
0,5077600,201,-1874,-379,-1025,-570,-327,257,141,-449
0,5077607,199,-1877,-381,-1033,-572,-331,257,141,-449
0,5077613,199,-1877,-381,-1033,-572,-331,257,141,-449
0,5077618,199,-1877,-381,-1033,-572,-331,257,141,-449
0,5077623,199,-1877,-381,-1033,-572,-331,257,141,-449
0,5077628,199,-1872,-381,-1024,-569,-325,257,141,-449
0,5077635,199,-1872,-381,-1024,-569,-325,257,141,-449
0,5077640,199,-1872,-381,-1024,-569,-325,257,141,-449
0,5077644,199,-1874,-383,-1032,-570,-325,257,141,-449
0,5077649,199,-1874,-383,-1032,-570,-325,257,141,-449
0,5077655,199,-1874,-383,-1032,-570,-325,257,141,-449
0,5077661,199,-1874,-383,-1032,-570,-325,257,141,-449
0,5077666,201,-1871,-388,-1033,-568,-328,257,141,-449
0,5077671,201,-1871,-388,-1033,-568,-328,257,141,-449
0,5077678,201,-1871,-388,-1033,-568,-328,257,141,-449
0,5077683,201,-1871,-388,-1033,-568,-328,257,141,-449
0,5077688,203,-1874,-383,-1026,-571,-332,259,147,-449
0,5077695,203,-1874,-383,-1026,-571,-332,259,147,-449
0,5077700,203,-1874,-383,-1026,-571,-332,259,147,-449
0,5077706,201,-1873,-380,-1029,-570,-331,259,147,-449
0,5077712,201,-1873,-380,-1029,-570,-331,259,147,-449
0,5077718,201,-1873,-380,-1029,-570,-331,259,147,-449
0,5077724,199,-1876,-387,-1030,-565,-322,259,147,-449
0,5077730,199,-1876,-387,-1030,-565,-322,259,147,-449
0,5077736,199,-1876,-387,-1030,-565,-322,259,147,-449
0,5077741,199,-1876,-387,-1030,-565,-322,259,147,-449
0,5077746,200,-1875,-383,-1030,-564,-328,259,147,-449
0,5077751,200,-1875,-383,-1030,-564,-328,259,147,-449
0,5077758,200,-1875,-383,-1030,-564,-328,259,147,-449
0,5077764,200,-1875,-383,-1030,-564,-328,259,147,-449
0,5077770,200,-1875,-383,-1030,-564,-328,259,147,-449
0,5077776,200,-1875,-383,-1030,-564,-328,259,147,-449
0,5077781,200,-1875,-383,-1030,-564,-328,259,147,-449
0,5077788,200,-1875,-385,-1034,-571,-325,259,147,-449
0,5077793,200,-1875,-385,-1034,-571,-325,259,147,-449
0,5077801,200,-1875,-385,-1034,-571,-325,259,147,-449
0,5077810,203,-1875,-386,-1029,-566,-319,259,147,-449
0,5077816,203,-1875,-386,-1029,-566,-319,259,147,-449
0,5077822,203,-1875,-386,-1029,-566,-319,259,147,-449
0,5077828,201,-1876,-374,-1032,-564,-324,260,154,-446
0,5077835,201,-1876,-374,-1032,-564,-324,260,154,-446
0,5077841,201,-1876,-374,-1032,-564,-324,260,154,-446
0,5077850,200,-1871,-378,-1034,-567,-332,260,154,-446
0,5077857,200,-1871,-378,-1034,-567,-332,260,154,-446
0,5077864,200,-1871,-378,-1034,-567,-332,260,154,-446
0,5077870,198,-1873,-378,-1032,-567,-318,260,154,-446
0,5077877,198,-1873,-378,-1032,-567,-318,260,154,-446
0,5077884,200,-1871,-387,-1019,-566,-324,260,154,-446
0,5077893,200,-1871,-387,-1019,-566,-324,260,154,-446
0,5077900,200,-1871,-387,-1019,-566,-324,260,154,-446
0,5077907,200,-1877,-386,-1023,-569,-324,260,154,-446
0,5077915,200,-1877,-386,-1023,-569,-324,260,154,-446
0,5077921,200,-1877,-386,-1023,-569,-324,260,154,-446
0,5077928,204,-1875,-390,-1022,-571,-323,260,154,-446
0,5077937,204,-1875,-390,-1022,-571,-323,260,154,-446
0,5077944,204,-1875,-390,-1022,-571,-323,260,154,-446
0,5077950,200,-1872,-381,-1024,-569,-331,261,147,-445
0,5077956,200,-1872,-381,-1024,-569,-331,261,147,-445
0,5077965,202,-1875,-381,-1018,-565,-326,261,147,-445
0,5077971,202,-1875,-381,-1018,-565,-326,261,147,-445
0,5077980,202,-1875,-381,-1018,-565,-326,261,147,-445
0,5077987,199,-1871,-385,-1022,-560,-326,261,147,-445
0,5077992,199,-1871,-385,-1022,-560,-326,261,147,-445
0,5078000,199,-1871,-385,-1022,-560,-326,261,147,-445
0,5078008,201,-1877,-388,-1034,-566,-321,261,147,-445
0,5078016,201,-1877,-388,-1034,-566,-321,261,147,-445
0,5078022,201,-1877,-388,-1034,-566,-321,261,147,-445
0,5078028,201,-1873,-387,-1017,-574,-330,261,147,-445
0,5078035,201,-1873,-387,-1017,-574,-330,261,147,-445
0,5078040,201,-1873,-387,-1017,-574,-330,261,147,-445
0,5078046,202,-1871,-385,-1018,-572,-325,261,147,-445
0,5078054,202,-1871,-385,-1018,-572,-325,261,147,-445
0,5078062,202,-1871,-385,-1018,-572,-325,261,147,-445
0,5078069,200,-1875,-391,-1027,-570,-323,261,147,-445
0,5078077,200,-1875,-391,-1027,-570,-323,261,147,-445
0,5078084,200,-1875,-391,-1027,-570,-323,261,147,-445
0,5078090,198,-1875,-374,-1028,-569,-322,256,152,-448
0,5078096,198,-1875,-374,-1028,-569,-322,256,152,-448
0,5078102,198,-1875,-374,-1028,-569,-322,256,152,-448
0,5078110,202,-1874,-381,-1020,-564,-321,256,152,-448
0,5078117,202,-1874,-381,-1020,-564,-321,256,152,-448
0,5078124,202,-1874,-381,-1020,-564,-321,256,152,-448
0,5078133,198,-1873,-381,-1030,-570,-323,256,152,-448
0,5078140,198,-1873,-381,-1030,-570,-323,256,152,-448
0,5078149,201,-1874,-385,-1027,-564,-317,256,152,-448
0,5078156,201,-1874,-385,-1027,-564,-317,256,152,-448
0,5078162,201,-1874,-385,-1027,-564,-317,256,152,-448
0,5078169,199,-1876,-382,-1029,-563,-318,256,152,-448
0,5078175,199,-1876,-382,-1029,-563,-318,256,152,-448
0,5078183,199,-1876,-382,-1029,-563,-318,256,152,-448
0,5078191,202,-1876,-380,-1020,-564,-322,256,152,-448
0,5078198,202,-1876,-380,-1020,-564,-322,256,152,-448
0,5078203,202,-1876,-380,-1020,-564,-322,256,152,-448
0,5078210,200,-1874,-383,-1027,-566,-326,254,146,-440
0,5078217,200,-1874,-383,-1027,-566,-326,254,146,-440
0,5078224,200,-1874,-383,-1027,-566,-326,254,146,-440
0,5078233,200,-1874,-384,-1024,-568,-319,254,146,-440
0,5078241,200,-1874,-384,-1024,-568,-319,254,146,-440
0,5078246,201,-1873,-390,-1028,-566,-322,254,146,-440
0,5078253,201,-1873,-390,-1028,-566,-322,254,146,-440
0,5078259,201,-1873,-390,-1028,-566,-322,254,146,-440
0,5078266,200,-1877,-385,-1027,-562,-324,254,146,-440
0,5078274,200,-1877,-385,-1027,-562,-324,254,146,-440
0,5078281,200,-1877,-385,-1027,-562,-324,254,146,-440
0,5078288,202,-1874,-387,-1031,-567,-323,254,146,-440
0,5078295,202,-1874,-387,-1031,-567,-323,254,146,-440
0,5078302,202,-1874,-387,-1031,-567,-323,254,146,-440
0,5078309,201,-1875,-387,-1023,-567,-323,254,146,-440
0,5078317,201,-1875,-387,-1023,-567,-323,254,146,-440
0,5078324,201,-1875,-387,-1023,-567,-323,254,146,-440
0,5078331,201,-1875,-380,-1023,-567,-325,259,145,-449
0,5078338,201,-1875,-380,-1023,-567,-325,259,145,-449
0,5078343,201,-1875,-380,-1023,-567,-325,259,145,-449
0,5078351,200,-1871,-381,-1023,-561,-323,259,145,-449
0,5078358,200,-1871,-381,-1023,-561,-323,259,145,-449
0,5078365,200,-1871,-381,-1023,-561,-323,259,145,-449
0,5078371,198,-1873,-382,-1031,-569,-327,259,145,-449
0,5078380,198,-1873,-382,-1031,-569,-327,259,145,-449
0,5078386,201,-1875,-382,-1025,-569,-326,259,145,-449
0,5078393,201,-1875,-382,-1025,-569,-326,259,145,-449
0,5078402,201,-1875,-382,-1025,-569,-326,259,145,-449
0,5078409,200,-1875,-376,-1023,-575,-328,259,145,-449
0,5078416,200,-1875,-376,-1023,-575,-328,259,145,-449
0,5078423,200,-1875,-376,-1023,-575,-328,259,145,-449
0,5078430,198,-1872,-382,-1025,-572,-323,259,145,-449
0,5078437,198,-1872,-382,-1025,-572,-323,259,145,-449
0,5078444,198,-1872,-382,-1025,-572,-323,259,145,-449
0,5078452,202,-1873,-388,-1027,-572,-321,259,145,-449
0,5078458,202,-1873,-388,-1027,-572,-321,259,145,-449
0,5078463,202,-1873,-388,-1027,-572,-321,259,145,-449
0,5078470,199,-1875,-381,-1027,-569,-325,258,134,-450
0,5078475,199,-1875,-381,-1027,-569,-325,258,134,-450
0,5078483,199,-1875,-381,-1027,-569,-325,258,134,-450
0,5078490,202,-1873,-388,-1027,-564,-316,258,134,-450
0,5078495,202,-1873,-388,-1027,-564,-316,258,134,-450
0,5078500,202,-1873,-388,-1027,-564,-316,258,134,-450
0,5078505,201,-1873,-385,-1030,-564,-319,258,134,-450
0,5078510,201,-1873,-385,-1030,-564,-319,258,134,-450
0,5078516,201,-1873,-385,-1030,-564,-319,258,134,-450
0,5078520,201,-1873,-385,-1030,-564,-319,258,134,-450
0,5078526,201,-1875,-387,-1032,-561,-329,258,134,-450
0,5078532,201,-1875,-387,-1032,-561,-329,258,134,-450
0,5078536,201,-1875,-387,-1032,-561,-329,258,134,-450
0,5078542,201,-1875,-387,-1032,-561,-329,258,134,-450
0,5078548,203,-1873,-383,-1028,-566,-320,258,134,-450
0,5078553,203,-1873,-383,-1028,-566,-320,258,134,-450
0,5078559,203,-1873,-383,-1028,-566,-320,258,134,-450
0,5078565,200,-1874,-385,-1023,-564,-318,258,134,-450
0,5078572,200,-1874,-385,-1023,-564,-318,258,134,-450
0,5078578,200,-1874,-385,-1023,-564,-318,258,134,-450
0,5078583,200,-1874,-385,-1023,-564,-318,258,134,-450
0,5078589,202,-1875,-386,-1027,-569,-324,254,138,-446
0,5078594,202,-1875,-386,-1027,-569,-324,254,138,-446
0,5078600,202,-1875,-386,-1027,-569,-324,254,138,-446
0,5078605,202,-1875,-386,-1027,-569,-324,254,138,-446
0,5078610,200,-1877,-379,-1026,-571,-324,254,138,-446
0,5078619,200,-1877,-379,-1026,-571,-324,254,138,-446
0,5078625,200,-1877,-379,-1026,-571,-324,254,138,-446
0,5078632,200,-1872,-379,-1030,-570,-327,254,138,-446
0,5078639,200,-1872,-379,-1030,-570,-327,254,138,-446
0,5078646,201,-1872,-386,-1027,-564,-324,254,138,-446
0,5078654,201,-1872,-386,-1027,-564,-324,254,138,-446
0,5078661,201,-1872,-386,-1027,-564,-324,254,138,-446
0,5078669,198,-1874,-380,-1031,-556,-319,254,138,-446
0,5078676,198,-1874,-380,-1031,-556,-319,254,138,-446
0,5078683,198,-1874,-380,-1031,-556,-319,254,138,-446
0,5078689,201,-1874,-383,-1029,-564,-323,254,138,-446
0,5078695,201,-1874,-383,-1029,-564,-323,254,138,-446
0,5078704,201,-1874,-383,-1029,-564,-323,254,138,-446
0,5078711,199,-1873,-385,-1033,-566,-324,254,138,-446
0,5078718,199,-1873,-385,-1033,-566,-324,254,138,-446
0,5078727,199,-1873,-378,-1024,-567,-326,265,147,-449
0,5078732,199,-1873,-378,-1024,-567,-326,265,147,-449
0,5078739,199,-1873,-378,-1024,-567,-326,265,147,-449
0,5078746,198,-1875,-386,-1022,-568,-320,265,147,-449
0,5078754,198,-1875,-386,-1022,-568,-320,265,147,-449
0,5078760,198,-1875,-386,-1022,-568,-320,265,147,-449
0,5078768,199,-1874,-387,-1020,-566,-321,265,147,-449
0,5078774,199,-1874,-387,-1020,-566,-321,265,147,-449
0,5078781,199,-1874,-387,-1020,-566,-321,265,147,-449
0,5078789,200,-1876,-378,-1024,-573,-322,265,147,-449
0,5078794,200,-1876,-378,-1024,-573,-322,265,147,-449
0,5078801,200,-1876,-378,-1024,-573,-322,265,147,-449
0,5078808,201,-1874,-383,-1025,-560,-321,265,147,-449
0,5078813,201,-1874,-383,-1025,-560,-321,265,147,-449
0,5078821,201,-1874,-383,-1025,-560,-321,265,147,-449
0,5078829,198,-1875,-384,-1016,-563,-323,265,147,-449
0,5078837,198,-1875,-384,-1016,-563,-323,265,147,-449
0,5078843,198,-1875,-384,-1016,-563,-323,265,147,-449
0,5078850,201,-1875,-380,-1012,-559,-319,266,146,-442
0,5078856,201,-1875,-380,-1012,-559,-319,266,146,-442
0,5078864,201,-1875,-380,-1012,-559,-319,266,146,-442
0,5078872,198,-1875,-380,-1025,-563,-320,266,146,-442
0,5078879,198,-1875,-380,-1025,-563,-320,266,146,-442
0,5078887,197,-1873,-383,-1020,-568,-324,266,146,-442
0,5078893,197,-1873,-383,-1020,-568,-324,266,146,-442
0,5078900,197,-1873,-383,-1020,-568,-324,266,146,-442
0,5078906,201,-1876,-378,-1029,-570,-317,266,146,-442
0,5078914,201,-1876,-378,-1029,-570,-317,266,146,-442
0,5078921,201,-1876,-378,-1029,-570,-317,266,146,-442
0,5078929,201,-1873,-384,-1029,-563,-319,266,146,-442
0,5078936,201,-1873,-384,-1029,-563,-319,266,146,-442
0,5078943,201,-1873,-384,-1029,-563,-319,266,146,-442
0,5078950,202,-1875,-383,-1020,-560,-323,266,146,-442
0,5078957,202,-1875,-383,-1020,-560,-323,266,146,-442
0,5078963,202,-1875,-383,-1020,-560,-323,266,146,-442
0,5078971,202,-1873,-387,-1024,-568,-326,262,146,-438
0,5078978,202,-1873,-387,-1024,-568,-326,262,146,-438
0,5078985,202,-1873,-387,-1024,-568,-326,262,146,-438
0,5078992,203,-1874,-385,-1023,-570,-318,262,146,-438
0,5079000,203,-1874,-385,-1023,-570,-318,262,146,-438
0,5079007,201,-1873,-381,-1036,-567,-323,262,146,-438
0,5079015,201,-1873,-381,-1036,-567,-323,262,146,-438
0,5079022,201,-1873,-381,-1036,-567,-323,262,146,-438
0,5079029,202,-1872,-385,-1023,-567,-318,262,146,-438
0,5079035,202,-1872,-385,-1023,-567,-318,262,146,-438
0,5079044,202,-1872,-385,-1023,-567,-318,262,146,-438
0,5079051,199,-1873,-387,-1021,-572,-326,262,146,-438
0,5079058,199,-1873,-387,-1021,-572,-326,262,146,-438
0,5079065,199,-1873,-387,-1021,-572,-326,262,146,-438
0,5079070,201,-1870,-380,-1025,-566,-321,262,146,-438
0,5079075,201,-1870,-380,-1025,-566,-321,262,146,-438
0,5079081,201,-1870,-380,-1025,-566,-321,262,146,-438
0,5079087,199,-1877,-388,-1031,-570,-325,262,146,-438
0,5079094,199,-1877,-388,-1031,-570,-325,262,146,-438
0,5079101,199,-1877,-388,-1031,-570,-325,262,146,-438
0,5079108,200,-1877,-378,-1017,-567,-325,255,145,-441
0,5079115,200,-1877,-378,-1017,-567,-325,255,145,-441
0,5079122,200,-1877,-378,-1017,-567,-325,255,145,-441
0,5079130,200,-1873,-383,-1029,-566,-322,255,145,-441
0,5079137,200,-1873,-383,-1029,-566,-322,255,145,-441
0,5079145,200,-1873,-383,-1029,-566,-322,255,145,-441
0,5079152,200,-1873,-381,-1023,-562,-325,255,145,-441
0,5079159,200,-1873,-381,-1023,-562,-325,255,145,-441
0,5079165,200,-1873,-381,-1023,-562,-325,255,145,-441
0,5079172,198,-1872,-381,-1025,-563,-332,255,145,-441
0,5079179,198,-1872,-381,-1025,-563,-332,255,145,-441
0,5079184,198,-1872,-381,-1025,-563,-332,255,145,-441
0,5079191,199,-1874,-383,-1020,-570,-323,255,145,-441
0,5079198,199,-1874,-383,-1020,-570,-323,255,145,-441
0,5079205,199,-1874,-383,-1020,-570,-323,255,145,-441
0,5079212,201,-1876,-383,-1026,-567,-325,255,145,-441
0,5079219,201,-1876,-383,-1026,-567,-325,255,145,-441
0,5079225,201,-1876,-383,-1026,-567,-325,255,145,-441
0,5079232,199,-1870,-383,-1023,-573,-329,258,148,-450
0,5079238,199,-1870,-383,-1023,-573,-329,258,148,-450
0,5079246,200,-1872,-379,-1021,-571,-320,258,148,-450
0,5079252,200,-1872,-379,-1021,-571,-320,258,148,-450
0,5079260,200,-1872,-379,-1021,-571,-320,258,148,-450
0,5079265,200,-1872,-379,-1021,-571,-320,258,148,-450
0,5079274,201,-1875,-378,-1022,-565,-326,258,148,-450
0,5079280,201,-1875,-378,-1022,-565,-326,258,148,-450
0,5079287,199,-1874,-386,-1029,-564,-322,258,148,-450
0,5079293,199,-1874,-386,-1029,-564,-322,258,148,-450
0,5079301,199,-1874,-386,-1029,-564,-322,258,148,-450
0,5079308,201,-1875,-381,-1032,-570,-319,258,148,-450
0,5079315,201,-1875,-381,-1032,-570,-319,258,148,-450
0,5079322,201,-1875,-381,-1032,-570,-319,258,148,-450
0,5079330,197,-1875,-378,-1031,-571,-323,258,148,-450
0,5079336,197,-1875,-378,-1031,-571,-323,258,148,-450
0,5079344,197,-1875,-378,-1031,-571,-323,258,148,-450
0,5079351,200,-1873,-386,-1026,-564,-317,258,148,-450
0,5079358,200,-1873,-386,-1026,-564,-317,258,148,-450
0,5079364,200,-1873,-386,-1026,-564,-317,258,148,-450
0,5079372,202,-1877,-381,-1024,-571,-327,259,139,-451
0,5079378,202,-1877,-381,-1024,-571,-327,259,139,-451
0,5079387,199,-1874,-384,-1027,-573,-330,259,139,-451
0,5079394,199,-1874,-384,-1027,-573,-330,259,139,-451
0,5079399,199,-1874,-384,-1027,-573,-330,259,139,-451
0,5079406,201,-1872,-388,-1024,-564,-325,259,139,-451
0,5079414,201,-1872,-388,-1024,-564,-325,259,139,-451
0,5079422,201,-1872,-388,-1024,-564,-325,259,139,-451
0,5079429,201,-1875,-384,-1033,-565,-328,259,139,-451
0,5079436,201,-1875,-384,-1033,-565,-328,259,139,-451
0,5079441,201,-1875,-384,-1033,-565,-328,259,139,-451
0,5079448,201,-1872,-386,-1029,-562,-319,259,139,-451
0,5079456,201,-1872,-386,-1029,-562,-319,259,139,-451
0,5079462,201,-1872,-386,-1029,-562,-319,259,139,-451
0,5079470,200,-1877,-382,-1027,-563,-322,259,139,-451
0,5079477,200,-1877,-382,-1027,-563,-322,259,139,-451
0,5079485,200,-1877,-382,-1027,-563,-322,259,139,-451
0,5079492,201,-1877,-387,-1023,-567,-326,259,135,-449
0,5079497,201,-1877,-387,-1023,-567,-326,259,135,-449
0,5079502,201,-1877,-387,-1023,-567,-326,259,135,-449
0,5079507,197,-1876,-385,-1028,-568,-327,259,135,-449
0,5079513,197,-1876,-385,-1028,-568,-327,259,135,-449
0,5079518,197,-1876,-385,-1028,-568,-327,259,135,-449
0,5079523,197,-1876,-385,-1028,-568,-327,259,135,-449
0,5079530,199,-1875,-387,-1032,-568,-320,259,135,-449
0,5079538,199,-1875,-387,-1032,-568,-320,259,135,-449
0,5079544,199,-1875,-387,-1032,-568,-320,259,135,-449
0,5079552,197,-1876,-381,-1030,-564,-326,259,135,-449
0,5079559,197,-1876,-381,-1030,-564,-326,259,135,-449
0,5079565,197,-1876,-381,-1030,-564,-326,259,135,-449
0,5079572,200,-1875,-386,-1027,-563,-323,259,135,-449
0,5079579,200,-1875,-386,-1027,-563,-323,259,135,-449
0,5079586,200,-1873,-386,-1031,-573,-321,259,135,-449
0,5079595,200,-1873,-386,-1031,-573,-321,259,135,-449
0,5079602,200,-1873,-386,-1031,-573,-321,259,135,-449
0,5079609,199,-1873,-384,-1021,-566,-324,259,135,-449
0,5079616,199,-1873,-384,-1021,-566,-324,259,135,-449
0,5079621,199,-1873,-384,-1021,-566,-324,259,135,-449
0,5079627,199,-1873,-383,-1025,-565,-320,267,147,-445
0,5079633,199,-1873,-383,-1025,-565,-320,267,147,-445
0,5079638,199,-1873,-383,-1025,-565,-320,267,147,-445
0,5079643,199,-1873,-383,-1025,-565,-320,267,147,-445
0,5079649,200,-1874,-382,-1033,-568,-325,267,147,-445
0,5079657,200,-1874,-382,-1033,-568,-325,267,147,-445
0,5079665,200,-1874,-382,-1033,-568,-325,267,147,-445
0,5079671,202,-1874,-380,-1025,-565,-328,267,147,-445
0,5079678,202,-1874,-380,-1025,-565,-328,267,147,-445
0,5079686,202,-1874,-380,-1025,-565,-328,267,147,-445
0,5079692,201,-1875,-378,-1027,-565,-325,267,147,-445
0,5079699,201,-1875,-378,-1027,-565,-325,267,147,-445
0,5079706,201,-1875,-378,-1027,-565,-325,267,147,-445
0,5079712,204,-1874,-381,-1034,-571,-320,267,147,-445
0,5079717,204,-1874,-381,-1034,-571,-320,267,147,-445
0,5079725,204,-1874,-381,-1034,-571,-320,267,147,-445
0,5079733,202,-1872,-382,-1027,-561,-323,267,147,-445
0,5079741,202,-1872,-382,-1027,-561,-323,267,147,-445
0,5079748,199,-1873,-379,-1025,-557,-319,256,144,-444
0,5079755,199,-1873,-379,-1025,-557,-319,256,144,-444
0,5079762,199,-1873,-379,-1025,-557,-319,256,144,-444
0,5079771,200,-1875,-385,-1022,-570,-320,256,144,-444
0,5079777,200,-1875,-385,-1022,-570,-320,256,144,-444
0,5079784,200,-1875,-385,-1022,-570,-320,256,144,-444
0,5079789,197,-1873,-386,-1027,-567,-321,256,144,-444
0,5079794,197,-1873,-386,-1027,-567,-321,256,144,-444
0,5079800,197,-1873,-386,-1027,-567,-321,256,144,-444
0,5079808,201,-1874,-388,-1026,-570,-321,256,144,-444
0,5079815,201,-1874,-388,-1026,-570,-321,256,144,-444
0,5079820,201,-1874,-388,-1026,-570,-321,256,144,-444
0,5079826,201,-1874,-388,-1026,-570,-321,256,144,-444
0,5079833,200,-1874,-382,-1017,-569,-318,256,144,-444
0,5079841,200,-1874,-382,-1017,-569,-318,256,144,-444
0,5079847,200,-1873,-386,-1025,-572,-326,256,144,-444
0,5079855,200,-1873,-386,-1025,-572,-326,256,144,-444
0,5079861,200,-1873,-386,-1025,-572,-326,256,144,-444
0,5079868,200,-1877,-384,-1025,-566,-319,255,157,-443
0,5079876,200,-1877,-384,-1025,-566,-319,255,157,-443
0,5079883,200,-1877,-384,-1025,-566,-319,255,157,-443
0,5079892,199,-1877,-377,-1026,-566,-321,255,157,-443
0,5079901,199,-1877,-377,-1026,-566,-321,255,157,-443
0,5079908,202,-1874,-382,-1028,-563,-317,255,157,-443
0,5079916,202,-1874,-382,-1028,-563,-317,255,157,-443
0,5079922,202,-1874,-382,-1028,-563,-317,255,157,-443
0,5079929,198,-1874,-382,-1028,-563,-323,255,157,-443
0,5079936,198,-1874,-382,-1028,-563,-323,255,157,-443
0,5079944,198,-1874,-382,-1028,-563,-323,255,157,-443
0,5079952,200,-1875,-385,-1028,-566,-323,255,157,-443
0,5079960,200,-1875,-385,-1028,-566,-323,255,157,-443
0,5079966,200,-1875,-385,-1028,-566,-323,255,157,-443
0,5079972,201,-1875,-386,-1025,-564,-321,255,157,-443
0,5079980,201,-1875,-386,-1025,-564,-321,255,157,-443
0,5079987,201,-1877,-386,-1027,-571,-335,255,157,-443
0,5079994,201,-1877,-386,-1027,-571,-335,255,157,-443
0,5080001,201,-1877,-386,-1027,-571,-335,255,157,-443
0,5080009,199,-1876,-384,-1029,-572,-329,266,144,-452
0,5080016,199,-1876,-384,-1029,-572,-329,266,144,-452
0,5080023,199,-1876,-384,-1029,-572,-329,266,144,-452
0,5080031,199,-1873,-377,-1030,-571,-326,266,144,-452
0,5080038,199,-1873,-377,-1030,-571,-326,266,144,-452
0,5080045,199,-1873,-377,-1030,-571,-326,266,144,-452
0,5080051,198,-1874,-383,-1034,-564,-318,266,144,-452
0,5080057,198,-1874,-383,-1034,-564,-318,266,144,-452
0,5080066,198,-1874,-383,-1034,-564,-318,266,144,-452
0,5080073,199,-1877,-388,-1031,-567,-327,266,144,-452
0,5080080,199,-1877,-388,-1031,-567,-327,266,144,-452
0,5080086,199,-1877,-388,-1031,-567,-327,266,144,-452
0,5080093,201,-1877,-385,-1026,-567,-325,266,144,-452
0,5080100,201,-1877,-385,-1026,-567,-325,266,144,-452
0,5080107,201,-1877,-385,-1026,-567,-325,266,144,-452
0,5080114,204,-1874,-384,-1026,-565,-328,266,144,-452
0,5080122,204,-1874,-384,-1026,-565,-328,266,144,-452
0,5080129,201,-1875,-379,-1030,-564,-332,255,145,-443
0,5080134,201,-1875,-379,-1030,-564,-332,255,145,-443
0,5080139,201,-1875,-379,-1030,-564,-332,255,145,-443
0,5080144,201,-1875,-379,-1030,-564,-332,255,145,-443
0,5080150,201,-1875,-385,-1026,-571,-322,255,145,-443
0,5080157,201,-1875,-385,-1026,-571,-322,255,145,-443
0,5080164,201,-1875,-385,-1026,-571,-322,255,145,-443
0,5080170,199,-1874,-385,-1024,-561,-323,255,145,-443
0,5080177,199,-1874,-385,-1024,-561,-323,255,145,-443
0,5080184,199,-1874,-385,-1024,-561,-323,255,145,-443
0,5080192,197,-1876,-379,-1034,-569,-321,255,145,-443
0,5080197,197,-1876,-379,-1034,-569,-321,255,145,-443
0,5080202,197,-1876,-379,-1034,-569,-321,255,145,-443
0,5080209,202,-1874,-384,-1025,-575,-323,255,145,-443
0,5080215,202,-1874,-384,-1025,-575,-323,255,145,-443
0,5080221,202,-1874,-384,-1025,-575,-323,255,145,-443
0,5080228,202,-1873,-386,-1023,-567,-326,255,145,-443
0,5080237,202,-1873,-386,-1023,-567,-326,255,145,-443
0,5080244,202,-1873,-386,-1023,-567,-326,255,145,-443
0,5080251,199,-1874,-383,-1034,-565,-322,255,145,-443
0,5080258,199,-1874,-383,-1034,-565,-322,255,145,-443
0,5080265,199,-1874,-383,-1034,-565,-322,255,145,-443
0,5080272,201,-1876,-379,-1027,-565,-323,253,141,-437
0,5080280,201,-1876,-379,-1027,-565,-323,253,141,-437
0,5080286,201,-1876,-379,-1027,-565,-323,253,141,-437
0,5080294,197,-1876,-384,-1028,-563,-323,253,141,-437
0,5080299,197,-1876,-384,-1028,-563,-323,253,141,-437
0,5080305,197,-1876,-384,-1028,-563,-323,253,141,-437
0,5080311,203,-1872,-381,-1030,-562,-324,253,141,-437
0,5080317,203,-1872,-381,-1030,-562,-324,253,141,-437
0,5080325,203,-1872,-381,-1030,-562,-324,253,141,-437
0,5080332,203,-1872,-381,-1030,-562,-324,253,141,-437
0,5080338,203,-1872,-381,-1030,-562,-324,253,141,-437
0,5080345,203,-1872,-381,-1030,-562,-324,253,141,-437
0,5080353,199,-1876,-384,-1031,-565,-322,253,141,-437
0,5080359,199,-1876,-384,-1031,-565,-322,253,141,-437
0,5080368,199,-1875,-382,-1032,-566,-326,253,141,-437
0,5080374,199,-1875,-382,-1032,-566,-326,253,141,-437
0,5080380,199,-1875,-382,-1032,-566,-326,253,141,-437
0,5080387,201,-1873,-379,-1029,-568,-321,253,141,-437
0,5080395,201,-1873,-379,-1029,-568,-321,257,145,-445
0,5080402,201,-1873,-379,-1029,-568,-321,257,145,-445
0,5080411,198,-1871,-382,-1024,-560,-320,257,145,-445
0,5080417,198,-1871,-382,-1024,-560,-320,257,145,-445
0,5080424,198,-1871,-382,-1024,-560,-320,257,145,-445
0,5080431,197,-1874,-385,-1020,-564,-324,257,145,-445
0,5080439,197,-1874,-385,-1020,-564,-324,257,145,-445
0,5080446,197,-1874,-385,-1020,-564,-324,257,145,-445
0,5080453,201,-1874,-381,-1033,-575,-326,257,145,-445
0,5080461,201,-1874,-381,-1033,-575,-326,257,145,-445
0,5080468,200,-1873,-384,-1028,-564,-321,257,145,-445
0,5080475,200,-1873,-384,-1028,-564,-321,257,145,-445
0,5080482,200,-1873,-384,-1028,-564,-321,257,145,-445
0,5080491,201,-1875,-384,-1023,-560,-320,257,145,-445
0,5080496,201,-1875,-384,-1023,-560,-320,257,145,-445
0,5080501,201,-1875,-384,-1023,-560,-320,257,145,-445
0,5080506,201,-1875,-384,-1023,-560,-320,257,145,-445
0,5080511,199,-1873,-382,-1028,-564,-331,263,143,-445
0,5080516,199,-1873,-382,-1028,-564,-331,263,143,-445
0,5080522,199,-1873,-382,-1028,-564,-331,263,143,-445
0,5080530,199,-1874,-381,-1023,-566,-328,263,143,-445
0,5080536,199,-1874,-381,-1023,-566,-328,263,143,-445
0,5080542,199,-1874,-381,-1023,-566,-328,263,143,-445
0,5080548,199,-1875,-381,-1027,-567,-328,263,143,-445
0,5080553,199,-1875,-381,-1027,-567,-328,263,143,-445
0,5080558,199,-1875,-381,-1027,-567,-328,263,143,-445
0,5080564,199,-1875,-381,-1027,-567,-328,263,143,-445
0,5080570,198,-1875,-384,-1028,-562,-321,263,143,-445
0,5080577,198,-1875,-384,-1028,-562,-321,263,143,-445
0,5080582,198,-1875,-384,-1028,-562,-321,263,143,-445
0,5080588,198,-1875,-384,-1028,-562,-321,263,143,-445
0,5080593,200,-1874,-386,-1034,-561,-325,263,143,-445
0,5080599,200,-1874,-386,-1034,-561,-325,263,143,-445
0,5080604,200,-1874,-386,-1034,-561,-325,263,143,-445
0,5080609,200,-1873,-382,-1024,-570,-320,263,143,-445
0,5080614,200,-1873,-382,-1024,-570,-320,263,143,-445
0,5080622,200,-1873,-382,-1024,-570,-320,263,143,-445
0,5080627,200,-1873,-382,-1024,-570,-320,263,143,-445
0,5080633,201,-1874,-389,-1032,-565,-325,263,143,-445
0,5080638,201,-1874,-389,-1032,-565,-325,263,143,-445
0,5080644,201,-1874,-389,-1032,-565,-325,263,143,-445
0,5080649,198,-1872,-378,-1023,-565,-325,268,144,-446
0,5080656,198,-1872,-378,-1023,-565,-325,268,144,-446
0,5080663,198,-1872,-378,-1023,-565,-325,268,144,-446
0,5080671,201,-1875,-378,-1033,-570,-323,268,144,-446
0,5080678,201,-1875,-378,-1033,-570,-323,268,144,-446
0,5080685,201,-1875,-378,-1033,-570,-323,268,144,-446
0,5080691,200,-1876,-383,-1030,-563,-316,268,144,-446
0,5080698,200,-1876,-383,-1030,-563,-316,268,144,-446
0,5080707,200,-1876,-383,-1030,-563,-316,268,144,-446
0,5080714,202,-1876,-385,-1029,-562,-311,268,144,-446
0,5080721,202,-1876,-385,-1029,-562,-311,268,144,-446
0,5080728,203,-1875,-388,-1026,-565,-316,268,144,-446
0,5080736,203,-1875,-388,-1026,-565,-316,268,144,-446
0,5080743,203,-1875,-388,-1026,-565,-316,268,144,-446
0,5080751,201,-1874,-381,-1021,-563,-324,268,144,-446
0,5080757,201,-1874,-381,-1021,-563,-324,268,144,-446
0,5080764,201,-1874,-381,-1021,-563,-324,268,144,-446
0,5080771,200,-1872,-382,-1028,-569,-319,255,153,-445
0,5080779,200,-1872,-382,-1028,-569,-319,255,153,-445
0,5080784,200,-1872,-382,-1028,-569,-319,255,153,-445
0,5080790,200,-1875,-385,-1023,-564,-321,255,153,-445
0,5080797,200,-1875,-385,-1023,-564,-321,255,153,-445
0,5080803,200,-1875,-385,-1023,-564,-321,255,153,-445
0,5080810,202,-1873,-384,-1022,-559,-322,255,153,-445
0,5080817,202,-1873,-384,-1022,-559,-322,255,153,-445
0,5080823,202,-1873,-384,-1022,-559,-322,255,153,-445
0,5080832,201,-1875,-387,-1022,-571,-321,255,153,-445
0,5080839,201,-1875,-387,-1022,-571,-321,255,153,-445
0,5080846,201,-1875,-387,-1022,-571,-321,255,153,-445
0,5080854,200,-1876,-381,-1036,-579,-319,255,153,-445
0,5080859,200,-1876,-381,-1036,-579,-319,255,153,-445
0,5080867,200,-1876,-381,-1036,-579,-319,255,153,-445
0,5080873,200,-1876,-383,-1024,-569,-322,255,153,-445
0,5080881,200,-1876,-383,-1024,-569,-322,255,153,-445
0,5080887,200,-1876,-383,-1024,-569,-322,255,153,-445
0,5080894,201,-1875,-382,-1031,-571,-317,255,153,-445
0,5080900,201,-1875,-382,-1031,-571,-317,255,153,-445
0,5080908,199,-1872,-384,-1032,-564,-322,255,153,-445
0,5080915,199,-1872,-384,-1032,-564,-322,252,146,-448
0,5080924,199,-1872,-384,-1032,-564,-322,252,146,-448
0,5080931,201,-1874,-379,-1029,-567,-322,252,146,-448
0,5080936,201,-1874,-379,-1029,-567,-322,252,146,-448
0,5080941,201,-1874,-379,-1029,-567,-322,252,146,-448
0,5080948,202,-1872,-386,-1027,-567,-327,252,146,-448
0,5080955,202,-1872,-386,-1027,-567,-327,252,146,-448
0,5080963,202,-1872,-386,-1027,-567,-327,252,146,-448
0,5080969,194,-1875,-389,-1033,-571,-320,252,146,-448
0,5080976,194,-1875,-389,-1033,-571,-320,252,146,-448
0,5080983,194,-1875,-389,-1033,-571,-320,252,146,-448
0,5080990,199,-1873,-384,-1032,-573,-320,252,146,-448
0,5080998,199,-1873,-384,-1032,-573,-320,252,146,-448
0,5081006,199,-1873,-384,-1032,-573,-320,252,146,-448
0,5081013,200,-1874,-386,-1033,-570,-328,252,146,-448
0,5081019,200,-1874,-386,-1033,-570,-328,252,146,-448
0,5081025,200,-1874,-386,-1033,-570,-328,252,146,-448
0,5081032,198,-1874,-381,-1031,-571,-327,258,148,-454
0,5081039,198,-1874,-381,-1031,-571,-327,258,148,-454
0,5081048,198,-1874,-381,-1031,-571,-327,258,148,-454
0,5081054,198,-1875,-382,-1026,-573,-330,258,148,-454
0,5081061,198,-1875,-382,-1026,-573,-330,258,148,-454
0,5081067,198,-1875,-382,-1026,-573,-330,258,148,-454
0,5081074,200,-1873,-383,-1030,-560,-328,258,148,-454
0,5081081,200,-1873,-383,-1030,-560,-328,258,148,-454
0,5081088,200,-1873,-383,-1030,-560,-328,258,148,-454
0,5081095,200,-1876,-387,-1033,-568,-328,258,148,-454
0,5081101,200,-1876,-387,-1033,-568,-328,258,148,-454
0,5081106,200,-1876,-387,-1033,-568,-328,258,148,-454
0,5081111,201,-1872,-390,-1027,-559,-332,258,148,-454
0,5081119,201,-1872,-390,-1027,-559,-332,258,148,-454
0,5081127,201,-1872,-390,-1027,-559,-332,258,148,-454
0,5081135,202,-1874,-381,-1036,-562,-327,258,148,-454
0,5081141,202,-1874,-381,-1036,-562,-327,258,148,-454
0,5081148,202,-1875,-388,-1033,-566,-326,258,148,-454
0,5081155,202,-1875,-388,-1033,-566,-326,258,148,-454
0,5081162,202,-1875,-388,-1033,-566,-326,258,148,-454
0,5081169,204,-1877,-384,-1023,-564,-321,257,141,-447
0,5081176,204,-1877,-384,-1023,-564,-321,257,141,-447
0,5081183,204,-1877,-384,-1023,-564,-321,257,141,-447
0,5081190,203,-1875,-381,-1029,-570,-326,257,141,-447
0,5081195,203,-1875,-381,-1029,-570,-326,257,141,-447
0,5081202,203,-1875,-381,-1029,-570,-326,257,141,-447
0,5081208,204,-1875,-384,-1024,-567,-319,257,141,-447
0,5081217,204,-1875,-384,-1024,-567,-319,257,141,-447
0,5081225,204,-1875,-384,-1024,-567,-319,257,141,-447
0,5081232,202,-1875,-385,-1030,-573,-326,257,141,-447
0,5081239,202,-1875,-385,-1030,-573,-326,257,141,-447
0,5081246,202,-1875,-385,-1030,-573,-326,257,141,-447
0,5081253,199,-1877,-388,-1033,-570,-325,257,141,-447
0,5081259,199,-1877,-388,-1033,-570,-325,257,141,-447
0,5081267,199,-1877,-388,-1033,-570,-325,257,141,-447
0,5081275,202,-1873,-384,-1024,-567,-319,257,141,-447
0,5081282,202,-1873,-384,-1024,-567,-319,257,141,-447
0,5081289,201,-1874,-382,-1021,-562,-325,258,152,-448
0,5081296,201,-1874,-382,-1021,-562,-325,258,152,-448
0,5081304,201,-1874,-382,-1021,-562,-325,258,152,-448
0,5081310,197,-1876,-384,-1025,-564,-325,258,152,-448
0,5081317,197,-1876,-384,-1025,-564,-325,258,152,-448
0,5081325,197,-1876,-384,-1025,-564,-325,258,152,-448
0,5081332,201,-1873,-380,-1021,-570,-312,258,152,-448
0,5081339,201,-1873,-380,-1021,-570,-312,258,152,-448
0,5081345,201,-1873,-380,-1021,-570,-312,258,152,-448
0,5081353,201,-1872,-386,-1024,-569,-324,258,152,-448
0,5081359,201,-1872,-386,-1024,-569,-324,258,152,-448
0,5081368,201,-1872,-386,-1024,-569,-324,258,152,-448
0,5081375,201,-1873,-385,-1024,-563,-324,258,152,-448
0,5081383,201,-1873,-385,-1024,-563,-324,258,152,-448
0,5081390,202,-1874,-389,-1022,-567,-323,258,152,-448
0,5081398,202,-1874,-389,-1022,-567,-323,258,152,-448
0,5081404,202,-1874,-389,-1022,-567,-323,258,152,-448
0,5081412,199,-1875,-380,-1034,-568,-314,264,136,-448
0,5081418,199,-1875,-380,-1034,-568,-314,264,136,-448
0,5081426,199,-1875,-380,-1034,-568,-314,264,136,-448
0,5081434,196,-1871,-379,-1026,-569,-326,264,136,-448
0,5081442,196,-1871,-379,-1026,-569,-326,264,136,-448
0,5081449,199,-1872,-383,-1023,-565,-332,264,136,-448
0,5081455,199,-1872,-383,-1023,-565,-332,264,136,-448
0,5081461,199,-1872,-383,-1023,-565,-332,264,136,-448
0,5081468,199,-1872,-383,-1023,-565,-332,264,136,-448
0,5081476,198,-1873,-383,-1031,-567,-327,264,136,-448
0,5081484,198,-1873,-383,-1031,-567,-327,264,136,-448
0,5081490,201,-1872,-385,-1033,-568,-321,264,136,-448
0,5081495,201,-1872,-385,-1033,-568,-321,264,136,-448
0,5081500,201,-1872,-385,-1033,-568,-321,264,136,-448
0,5081505,201,-1872,-385,-1033,-568,-321,264,136,-448
0,5081510,201,-1877,-389,-1024,-571,-323,264,136,-448
0,5081517,201,-1877,-389,-1024,-571,-323,264,136,-448
0,5081522,201,-1877,-389,-1024,-571,-323,264,136,-448
0,5081528,201,-1877,-389,-1024,-571,-323,264,136,-448
0,5081535,202,-1873,-384,-1025,-573,-324,264,136,-448
0,5081542,202,-1873,-384,-1025,-573,-324,264,136,-448
0,5081549,198,-1876,-377,-1027,-572,-328,256,148,-446
0,5081556,198,-1876,-377,-1027,-572,-328,256,148,-446
0,5081564,198,-1876,-377,-1027,-572,-328,256,148,-446
0,5081571,202,-1875,-381,-1020,-565,-328,256,148,-446
0,5081577,202,-1875,-381,-1020,-565,-328,256,148,-446
0,5081582,202,-1875,-381,-1020,-565,-328,256,148,-446
0,5081587,202,-1875,-381,-1020,-565,-328,256,148,-446
0,5081593,205,-1874,-386,-1026,-562,-322,256,148,-446
0,5081598,205,-1874,-386,-1026,-562,-322,256,148,-446
0,5081604,205,-1874,-386,-1026,-562,-322,256,148,-446
0,5081609,205,-1873,-378,-1018,-570,-322,256,148,-446
0,5081617,205,-1873,-378,-1018,-570,-322,256,148,-446
0,5081623,205,-1873,-378,-1018,-570,-322,256,148,-446
0,5081630,200,-1875,-384,-1026,-568,-322,256,148,-446
0,5081637,200,-1875,-384,-1026,-568,-322,256,148,-446
0,5081645,200,-1875,-384,-1026,-568,-322,256,148,-446
0,5081652,202,-1876,-386,-1025,-567,-324,256,148,-446
0,5081659,202,-1876,-386,-1025,-567,-324,256,148,-446
0,5081665,202,-1876,-386,-1025,-567,-324,256,148,-446
0,5081671,202,-1873,-384,-1032,-567,-324,253,139,-447
0,5081677,202,-1873,-384,-1032,-567,-324,253,139,-447
0,5081683,202,-1873,-384,-1032,-567,-324,253,139,-447
0,5081690,200,-1872,-384,-1030,-566,-324,253,139,-447
0,5081695,200,-1872,-384,-1030,-566,-324,253,139,-447
0,5081703,200,-1872,-384,-1030,-566,-324,253,139,-447
0,5081710,200,-1873,-384,-1030,-575,-322,253,139,-447
0,5081716,200,-1873,-384,-1030,-575,-322,253,139,-447
0,5081723,200,-1873,-384,-1030,-575,-322,253,139,-447
0,5081731,199,-1877,-382,-1028,-570,-332,253,139,-447
0,5081738,199,-1877,-382,-1028,-570,-332,253,139,-447
0,5081745,199,-1877,-382,-1028,-570,-332,253,139,-447
0,5081751,201,-1875,-388,-1033,-571,-326,253,139,-447
0,5081759,201,-1875,-388,-1033,-571,-326,253,139,-447
0,5081764,201,-1875,-388,-1033,-571,-326,253,139,-447
0,5081772,200,-1873,-385,-1029,-575,-320,253,139,-447
0,5081780,200,-1873,-385,-1029,-575,-320,253,139,-447
0,5081787,200,-1873,-385,-1029,-575,-320,253,139,-447
0,5081791,201,-1874,-388,-1021,-565,-317,253,139,-447
0,5081798,201,-1874,-388,-1021,-565,-317,253,139,-447
0,5081806,201,-1874,-388,-1021,-565,-317,253,139,-447
0,5081811,200,-1873,-377,-1025,-565,-320,260,140,-440
0,5081820,200,-1873,-377,-1025,-565,-320,260,140,-440
0,5081827,200,-1873,-377,-1025,-565,-320,260,140,-440
0,5081835,200,-1875,-390,-1032,-566,-324,260,140,-440
0,5081841,200,-1875,-390,-1032,-566,-324,260,140,-440
0,5081848,200,-1875,-390,-1032,-566,-324,260,140,-440
0,5081854,201,-1874,-384,-1034,-565,-326,260,140,-440
0,5081862,201,-1874,-384,-1034,-565,-326,260,140,-440
0,5081870,199,-1875,-385,-1030,-573,-328,260,140,-440
0,5081876,199,-1875,-385,-1030,-573,-328,260,140,-440
0,5081882,199,-1875,-385,-1030,-573,-328,260,140,-440
0,5081890,199,-1875,-383,-1027,-567,-332,260,140,-440
0,5081897,199,-1875,-383,-1027,-567,-332,260,140,-440
0,5081905,199,-1875,-383,-1027,-567,-332,260,140,-440
0,5081912,201,-1879,-391,-1031,-568,-323,260,140,-440
0,5081920,201,-1879,-391,-1031,-568,-323,260,140,-440
0,5081927,201,-1879,-391,-1031,-568,-323,260,140,-440
0,5081933,201,-1877,-383,-1035,-565,-320,254,154,-444
0,5081939,201,-1877,-383,-1035,-565,-320,254,154,-444
0,5081946,201,-1877,-383,-1035,-565,-320,254,154,-444
0,5081954,199,-1874,-386,-1028,-568,-329,254,154,-444
0,5081962,199,-1874,-386,-1028,-568,-329,254,154,-444
0,5081969,199,-1873,-383,-1030,-566,-327,254,154,-444
0,5081977,199,-1873,-383,-1030,-566,-327,254,154,-444
0,5081986,199,-1873,-383,-1030,-566,-327,254,154,-444
0,5081993,202,-1874,-385,-1025,-568,-323,254,154,-444
0,5082000,202,-1874,-385,-1025,-568,-323,254,154,-444
0,5082006,202,-1874,-385,-1025,-568,-323,254,154,-444
0,5082013,199,-1877,-382,-1024,-566,-325,254,154,-444
0,5082019,199,-1877,-382,-1024,-566,-325,254,154,-444
0,5082027,199,-1877,-382,-1024,-566,-325,254,154,-444
0,5082034,201,-1879,-383,-1027,-563,-320,254,154,-444
0,5082041,201,-1879,-383,-1027,-563,-320,254,154,-444
0,5082049,201,-1879,-383,-1027,-563,-320,254,154,-444
0,5082056,202,-1875,-383,-1030,-562,-325,254,154,-444
0,5082062,202,-1875,-383,-1030,-562,-325,254,154,-444
0,5082070,202,-1875,-383,-1030,-562,-325,254,154,-444
0,5082076,199,-1876,-384,-1024,-571,-328,258,138,-448
0,5082081,199,-1876,-384,-1024,-571,-328,258,138,-448
0,5082086,199,-1876,-384,-1024,-571,-328,258,138,-448
0,5082092,199,-1877,-381,-1028,-557,-329,258,138,-448
0,5082096,199,-1877,-381,-1028,-557,-329,258,138,-448
0,5082102,199,-1877,-381,-1028,-557,-329,258,138,-448
0,5082107,199,-1877,-381,-1028,-557,-329,258,138,-448
0,5082115,201,-1872,-383,-1034,-571,-333,258,138,-448
0,5082121,201,-1872,-383,-1034,-571,-333,258,138,-448
0,5082127,201,-1872,-383,-1034,-571,-333,258,138,-448
0,5082134,199,-1874,-386,-1029,-572,-326,258,138,-448
0,5082141,199,-1874,-386,-1029,-572,-326,258,138,-448
0,5082148,199,-1874,-386,-1029,-572,-326,258,138,-448
0,5082156,199,-1876,-383,-1026,-559,-324,258,138,-448
0,5082163,199,-1876,-383,-1026,-559,-324,258,138,-448
0,5082170,202,-1872,-385,-1022,-561,-327,258,138,-448
0,5082176,202,-1872,-385,-1022,-561,-327,258,138,-448
0,5082182,202,-1872,-385,-1022,-561,-327,258,138,-448
0,5082189,200,-1873,-384,-1025,-574,-329,266,142,-448
0,5082196,200,-1873,-384,-1025,-574,-329,266,142,-442
0,5082203,200,-1873,-384,-1025,-574,-329,266,142,-442
0,5082210,200,-1873,-384,-1025,-574,-329,266,142,-442
0,5082215,197,-1873,-383,-1035,-569,-322,266,142,-442
0,5082223,197,-1873,-383,-1035,-569,-322,266,142,-442
0,5082230,200,-1874,-386,-1027,-575,-321,266,142,-442
0,5082238,200,-1874,-386,-1027,-575,-321,266,142,-442
0,5082245,200,-1874,-386,-1027,-575,-321,266,142,-442
0,5082252,203,-1875,-384,-1027,-575,-322,266,142,-442
0,5082260,203,-1875,-384,-1027,-575,-322,266,142,-442
0,5082267,203,-1875,-384,-1027,-575,-322,266,142,-442
0,5082274,200,-1876,-388,-1025,-569,-321,266,142,-442
0,5082280,200,-1876,-388,-1025,-569,-321,266,142,-442
0,5082287,200,-1876,-388,-1025,-569,-321,266,142,-442
0,5082294,200,-1876,-380,-1020,-572,-322,266,142,-442
0,5082301,200,-1876,-380,-1020,-572,-322,266,142,-442
0,5082307,200,-1876,-380,-1020,-572,-322,266,142,-442
0,5082315,200,-1877,-380,-1015,-563,-324,262,140,-446
0,5082322,200,-1877,-380,-1015,-563,-324,262,140,-446
0,5082329,200,-1877,-380,-1015,-563,-324,262,140,-446
0,5082336,200,-1876,-384,-1026,-566,-315,262,140,-446
0,5082342,200,-1876,-384,-1026,-566,-315,262,140,-446
0,5082348,200,-1876,-384,-1026,-566,-315,262,140,-446
0,5082355,204,-1871,-379,-1023,-561,-321,262,140,-446
0,5082363,204,-1871,-379,-1023,-561,-321,262,140,-446
0,5082371,199,-1875,-386,-1020,-563,-325,262,140,-446
0,5082377,199,-1875,-386,-1020,-563,-325,262,140,-446
0,5082382,199,-1875,-386,-1020,-563,-325,262,140,-446
0,5082389,199,-1875,-386,-1020,-563,-325,262,140,-446
0,5082397,200,-1875,-387,-1023,-572,-322,262,140,-446
0,5082405,200,-1875,-387,-1023,-572,-322,262,140,-446
0,5082413,202,-1875,-383,-1021,-568,-321,262,140,-446
0,5082420,202,-1875,-383,-1021,-568,-321,262,140,-446
0,5082427,202,-1875,-383,-1021,-568,-321,262,140,-446
0,5082432,201,-1875,-382,-1020,-569,-329,262,140,-446
0,5082439,201,-1875,-382,-1020,-569,-329,262,140,-446
0,5082447,201,-1875,-382,-1020,-569,-329,262,140,-446
0,5082456,200,-1874,-378,-1028,-570,-326,258,142,-444
0,5082464,200,-1874,-378,-1028,-570,-326,258,142,-444
0,5082471,202,-1874,-381,-1028,-564,-321,258,142,-444
0,5082478,202,-1874,-381,-1028,-564,-321,258,142,-444
0,5082485,202,-1874,-381,-1028,-564,-321,258,142,-444
0,5082491,201,-1874,-383,-1030,-563,-327,258,142,-444
0,5082497,201,-1874,-383,-1030,-563,-327,258,142,-444
0,5082503,201,-1874,-383,-1030,-563,-327,258,142,-444
0,5082507,201,-1874,-383,-1030,-563,-327,258,142,-444
0,5082512,200,-1873,-386,-1026,-569,-330,258,142,-444
0,5082518,200,-1873,-386,-1026,-569,-330,258,142,-444
0,5082524,200,-1873,-386,-1026,-569,-330,258,142,-444
0,5082531,200,-1874,-384,-1020,-572,-323,258,142,-444
0,5082539,200,-1874,-384,-1020,-572,-323,258,142,-444
0,5082545,200,-1874,-384,-1020,-572,-323,258,142,-444
0,5082550,200,-1874,-384,-1020,-572,-323,258,142,-444
0,5082555,199,-1876,-383,-1022,-570,-323,258,142,-444
0,5082560,199,-1876,-383,-1022,-570,-323,258,142,-444
0,5082566,199,-1876,-383,-1022,-570,-323,258,142,-444
0,5082573,197,-1873,-385,-1025,-571,-325,250,150,-440
0,5082580,197,-1873,-385,-1025,-571,-325,250,150,-440
0,5082588,197,-1873,-385,-1025,-571,-325,250,150,-440
0,5082594,201,-1872,-378,-1018,-570,-326,250,150,-440
0,5082599,201,-1872,-378,-1018,-570,-326,250,150,-440
0,5082607,201,-1872,-378,-1018,-570,-326,250,150,-440
0,5082614,200,-1873,-387,-1029,-570,-325,250,150,-440
0,5082621,200,-1873,-387,-1029,-570,-325,250,150,-440
0,5082628,200,-1873,-387,-1029,-570,-325,250,150,-440
0,5082633,200,-1873,-388,-1025,-565,-326,250,150,-440
0,5082641,200,-1873,-388,-1025,-565,-326,250,150,-440
0,5082649,200,-1873,-388,-1025,-565,-326,250,150,-440
0,5082656,202,-1872,-384,-1028,-565,-321,250,150,-440
0,5082663,202,-1872,-384,-1028,-565,-321,250,150,-440
0,5082671,200,-1874,-387,-1032,-567,-319,250,150,-440
0,5082677,200,-1874,-387,-1032,-567,-319,250,150,-440
0,5082683,200,-1874,-387,-1032,-567,-319,250,150,-440
0,5082690,201,-1873,-373,-1029,-563,-321,250,150,-440
0,5082698,201,-1873,-373,-1029,-563,-321,250,150,-440
0,5082707,201,-1873,-373,-1029,-563,-321,250,150,-440
0,5082714,203,-1873,-383,-1029,-569,-325,253,139,-447
0,5082722,203,-1873,-383,-1029,-569,-325,253,139,-447
0,5082728,203,-1873,-383,-1029,-569,-325,253,139,-447
0,5082735,202,-1872,-383,-1024,-564,-326,253,139,-447
0,5082742,202,-1872,-383,-1024,-564,-326,253,139,-447
0,5082748,202,-1872,-383,-1024,-564,-326,253,139,-447
0,5082755,202,-1875,-380,-1033,-564,-333,253,139,-447
0,5082763,202,-1875,-380,-1033,-564,-333,253,139,-447
0,5082770,202,-1875,-380,-1033,-564,-333,253,139,-447
0,5082777,200,-1874,-384,-1030,-567,-328,253,139,-447
0,5082785,200,-1874,-384,-1030,-567,-328,253,139,-447
0,5082790,200,-1874,-384,-1030,-567,-328,253,139,-447
0,5082795,200,-1873,-386,-1027,-564,-323,253,139,-447
0,5082804,200,-1873,-386,-1027,-564,-323,253,139,-447
0,5082810,200,-1873,-386,-1027,-564,-323,253,139,-447
0,5082818,200,-1871,-385,-1030,-568,-323,253,139,-447
0,5082825,200,-1871,-385,-1030,-568,-323,253,139,-447
0,5082832,201,-1872,-383,-1029,-569,-331,253,141,-443
0,5082840,201,-1872,-383,-1029,-569,-331,253,141,-443
0,5082847,201,-1872,-383,-1029,-569,-331,253,141,-443
0,5082853,201,-1869,-387,-1030,-567,-321,253,141,-443
0,5082860,201,-1869,-387,-1030,-567,-321,253,141,-443
0,5082867,201,-1869,-387,-1030,-567,-321,253,141,-443
0,5082875,204,-1873,-384,-1027,-569,-330,253,141,-443
0,5082884,204,-1873,-384,-1027,-569,-330,253,141,-443
0,5082891,201,-1872,-383,-1028,-569,-322,253,141,-443
0,5082897,201,-1872,-383,-1028,-569,-322,253,141,-443
0,5082904,201,-1872,-383,-1028,-569,-322,253,141,-443
0,5082910,201,-1872,-386,-1025,-562,-327,253,141,-443
0,5082917,201,-1872,-386,-1025,-562,-327,253,141,-443
0,5082926,201,-1872,-386,-1025,-562,-327,253,141,-443
0,5082933,202,-1876,-385,-1027,-567,-322,253,141,-443
0,5082939,202,-1876,-385,-1027,-567,-322,253,141,-443
0,5082946,202,-1876,-385,-1027,-567,-322,253,141,-443
0,5082953,202,-1874,-385,-1030,-567,-319,257,149,-449
0,5082960,202,-1874,-385,-1030,-567,-319,257,149,-449
0,5082968,202,-1874,-385,-1030,-567,-319,257,149,-449
0,5082976,198,-1874,-377,-1030,-573,-318,257,149,-449
0,5082982,198,-1874,-377,-1030,-573,-318,257,149,-449
0,5082990,198,-1874,-377,-1030,-573,-318,257,149,-449
0,5082996,202,-1870,-388,-1024,-568,-323,257,149,-449
0,5083003,202,-1870,-388,-1024,-568,-323,257,149,-449
0,5083011,202,-1870,-388,-1024,-568,-323,257,149,-449
0,5083019,203,-1872,-388,-1022,-562,-324,257,149,-449
0,5083026,203,-1872,-388,-1022,-562,-324,257,149,-449
0,5083032,200,-1874,-387,-1023,-567,-327,257,149,-449
0,5083039,200,-1874,-387,-1023,-567,-327,257,149,-449
0,5083044,200,-1874,-387,-1023,-567,-327,257,149,-449
0,5083051,200,-1874,-387,-1023,-567,-327,257,149,-449
0,5083056,200,-1873,-385,-1030,-572,-323,257,149,-449
0,5083063,200,-1873,-385,-1030,-572,-323,257,149,-449
0,5083070,200,-1873,-385,-1030,-572,-323,257,149,-449
0,5083077,200,-1873,-385,-1032,-571,-322,257,149,-449
0,5083084,200,-1873,-385,-1032,-571,-322,257,149,-449
0,5083092,199,-1875,-381,-1032,-570,-328,252,142,-446
0,5083100,199,-1875,-381,-1032,-570,-328,252,142,-446
0,5083107,199,-1875,-381,-1032,-570,-328,252,142,-446
0,5083113,203,-1874,-376,-1027,-569,-330,252,142,-446
0,5083118,203,-1874,-376,-1027,-569,-330,252,142,-446
0,5083126,203,-1874,-376,-1027,-569,-330,252,142,-446
0,5083134,201,-1873,-383,-1027,-569,-324,252,142,-446
0,5083143,201,-1873,-383,-1027,-569,-324,252,142,-446
0,5083150,201,-1873,-383,-1027,-569,-324,252,142,-446
0,5083156,203,-1873,-386,-1023,-559,-319,252,142,-446
0,5083162,203,-1873,-386,-1023,-559,-319,252,142,-446
0,5083170,203,-1873,-386,-1023,-559,-319,252,142,-446
0,5083176,198,-1875,-379,-1023,-567,-320,252,142,-446
0,5083184,198,-1875,-379,-1023,-567,-320,252,142,-446
0,5083193,202,-1872,-381,-1033,-568,-328,252,142,-446
0,5083198,202,-1872,-381,-1033,-568,-328,252,142,-446
0,5083204,202,-1872,-381,-1033,-568,-328,252,142,-446
0,5083211,202,-1871,-384,-1033,-565,-327,256,140,-442
0,5083218,202,-1871,-384,-1033,-565,-327,256,140,-442
0,5083227,202,-1871,-384,-1033,-565,-327,256,140,-442
0,5083233,201,-1872,-383,-1030,-564,-327,256,140,-442
0,5083238,201,-1872,-383,-1030,-564,-327,256,140,-442
0,5083245,201,-1872,-383,-1030,-564,-327,256,140,-442
0,5083251,200,-1871,-387,-1028,-567,-321,256,140,-442
0,5083259,200,-1871,-387,-1028,-567,-321,256,140,-442
0,5083268,200,-1871,-387,-1028,-567,-321,256,140,-442
0,5083273,199,-1872,-380,-1033,-570,-323,256,140,-442
0,5083279,199,-1872,-380,-1033,-570,-323,256,140,-442
0,5083286,199,-1872,-380,-1033,-570,-323,256,140,-442
0,5083293,202,-1875,-389,-1027,-563,-329,256,140,-442
0,5083301,202,-1875,-389,-1027,-563,-329,256,140,-442
0,5083307,202,-1875,-389,-1027,-563,-329,256,140,-442
0,5083314,202,-1874,-385,-1027,-564,-330,256,140,-442
0,5083323,202,-1874,-385,-1027,-564,-330,256,140,-442
0,5083330,202,-1874,-385,-1027,-564,-330,256,140,-442
0,5083336,200,-1874,-393,-1035,-569,-328,256,140,-442
0,5083343,200,-1874,-393,-1035,-569,-328,256,140,-442
0,5083352,198,-1873,-381,-1035,-566,-322,260,144,-446
0,5083359,198,-1873,-381,-1035,-566,-322,260,144,-446
0,5083365,198,-1873,-381,-1035,-566,-322,260,144,-446
0,5083373,199,-1872,-382,-1035,-571,-321,260,144,-446
0,5083379,199,-1872,-382,-1035,-571,-321,260,144,-446
0,5083384,199,-1872,-382,-1035,-571,-321,260,144,-446
0,5083392,202,-1873,-384,-1025,-567,-321,260,144,-446
0,5083399,202,-1873,-384,-1025,-567,-321,260,144,-446
0,5083404,202,-1873,-384,-1025,-567,-321,260,144,-446
0,5083411,199,-1872,-391,-1025,-566,-319,260,144,-446
0,5083418,199,-1872,-391,-1025,-566,-319,260,144,-446
0,5083424,199,-1872,-391,-1025,-566,-319,260,144,-446
0,5083431,201,-1872,-389,-1020,-563,-326,260,144,-446
0,5083440,201,-1872,-389,-1020,-563,-326,260,144,-446
0,5083447,201,-1872,-389,-1020,-563,-326,260,144,-446
0,5083454,204,-1874,-385,-1028,-566,-325,260,144,-446
0,5083459,204,-1874,-385,-1028,-566,-325,260,144,-446
0,5083466,204,-1874,-385,-1028,-566,-325,260,144,-446
0,5083471,203,-1876,-383,-1027,-566,-324,506,144,-446
0,5083478,203,-1876,-383,-1027,-566,-324,250,140,-448
0,5083485,203,-1876,-383,-1027,-566,-324,250,140,-448
0,5083492,199,-1872,-381,-1025,-563,-325,250,140,-448
0,5083497,199,-1872,-381,-1025,-563,-325,250,140,-448
0,5083501,199,-1872,-381,-1025,-563,-325,250,140,-448
0,5083506,199,-1872,-381,-1025,-563,-325,250,140,-448
0,5083511,199,-1875,-381,-1033,-571,-324,250,140,-448
0,5083516,199,-1875,-381,-1033,-571,-324,250,140,-448
0,5083522,199,-1875,-381,-1033,-571,-324,250,140,-448
0,5083530,199,-1875,-381,-1033,-571,-324,250,140,-448
0,5083537,198,-1874,-383,-1030,-570,-327,250,140,-448
0,5083543,198,-1874,-383,-1030,-570,-327,250,140,-448
0,5083550,198,-1874,-383,-1030,-570,-327,250,140,-448
0,5083556,199,-1872,-383,-1025,-565,-322,250,140,-448
0,5083563,199,-1872,-383,-1025,-565,-322,250,140,-448
0,5083568,199,-1872,-383,-1025,-565,-322,250,140,-448
0,5083573,199,-1872,-383,-1025,-565,-322,250,140,-448
0,5083578,199,-1872,-383,-1025,-565,-322,250,140,-448
0,5083584,199,-1872,-383,-1025,-565,-322,250,140,-448
0,5083589,199,-1872,-383,-1025,-565,-322,250,140,-448
0,5083596,198,-1874,-386,-1031,-567,-326,250,140,-448
0,5083603,198,-1874,-386,-1031,-567,-326,250,140,-448
0,5083612,198,-1875,-382,-1035,-575,-325,250,146,-446
0,5083619,198,-1875,-382,-1035,-575,-325,250,146,-446
0,5083625,198,-1875,-382,-1035,-575,-325,250,146,-446
0,5083633,202,-1873,-383,-1025,-573,-330,250,146,-446
0,5083641,202,-1873,-383,-1025,-573,-330,250,146,-446
0,5083648,202,-1873,-383,-1025,-573,-330,250,146,-446
0,5083655,200,-1876,-390,-1026,-567,-322,250,146,-446
0,5083662,200,-1876,-390,-1026,-567,-322,250,146,-446
0,5083668,200,-1876,-390,-1026,-567,-322,250,146,-446
0,5083675,202,-1875,-384,-1028,-561,-327,250,146,-446
0,5083681,202,-1875,-384,-1028,-561,-327,250,146,-446
0,5083688,202,-1875,-384,-1028,-561,-327,250,146,-446
0,5083697,201,-1873,-386,-1028,-567,-320,250,146,-446
0,5083703,201,-1873,-386,-1028,-567,-320,250,146,-446
0,5083709,201,-1873,-386,-1028,-567,-320,250,146,-446
0,5083716,202,-1875,-387,-1020,-566,-313,250,146,-446
0,5083725,202,-1875,-387,-1020,-566,-313,250,146,-446
0,5083739,202,-1871,-380,-1019,-571,-320,261,141,-445
0,5083753,200,-1875,-386,-1024,-570,-326,261,141,-445
0,5083762,200,-1875,-386,-1024,-570,-326,261,141,-445
0,5083774,200,-1873,-386,-1028,-570,-324,261,141,-445
0,5083788,200,-1873,-386,-1028,-570,-324,261,141,-445
0,5083796,199,-1875,-389,-1024,-573,-324,261,141,-445
0,5083804,199,-1875,-389,-1024,-573,-324,261,141,-445
0,5083813,198,-1876,-381,-1023,-571,-325,261,141,-445
0,5083823,198,-1876,-381,-1023,-571,-325,261,141,-445
0,5083835,197,-1875,-385,-1018,-567,-325,261,141,-445
0,5083848,197,-1875,-385,-1018,-567,-325,261,141,-445
0,5083858,200,-1874,-385,-1032,-567,-319,259,143,-441
0,5083871,200,-1874,-385,-1032,-567,-319,259,143,-441
0,5083885,200,-1874,-385,-1032,-567,-319,259,143,-441
0,5083897,201,-1873,-388,-1023,-567,-314,259,143,-441
0,5083909,201,-1873,-388,-1023,-567,-314,259,143,-441
0,5083920,198,-1878,-388,-1029,-569,-318,259,143,-441
0,5083933,197,-1876,-388,-1027,-563,-320,259,143,-441
0,5083945,197,-1876,-388,-1027,-563,-320,259,143,-441
0,5083958,203,-1874,-384,-1021,-561,-324,259,143,-441
0,5083971,203,-1874,-384,-1021,-561,-324,259,143,-441
0,5083985,203,-1872,-381,-1027,-570,-316,259,143,-441
0,5083999,199,-1874,-377,-1028,-568,-325,257,151,-447
0,5084009,199,-1874,-377,-1028,-568,-325,257,151,-447
0,5084020,201,-1876,-378,-1033,-562,-331,257,151,-447
0,5084029,201,-1876,-378,-1033,-562,-331,257,151,-447
0,5084040,200,-1875,-382,-1028,-568,-318,257,151,-447
0,5084053,202,-1872,-379,-1027,-567,-320,257,151,-447
0,5084065,202,-1872,-379,-1027,-567,-320,257,151,-447
0,5084076,199,-1875,-391,-1025,-567,-324,257,151,-447
0,5084089,199,-1875,-391,-1025,-567,-324,257,151,-447
0,5084101,198,-1875,-385,-1029,-578,-325,257,151,-447
0,5084109,198,-1875,-385,-1029,-578,-325,257,151,-447
0,5084119,201,-1875,-384,-1030,-570,-322,253,149,-449
0,5084127,201,-1875,-384,-1030,-570,-322,253,149,-449
0,5084135,200,-1874,-386,-1028,-568,-322,253,149,-449
0,5084143,200,-1874,-386,-1028,-568,-322,253,149,-449
0,5084157,197,-1873,-384,-1028,-567,-323,253,149,-449
0,5084172,201,-1875,-381,-1028,-567,-332,253,149,-449
0,5084185,201,-1875,-381,-1028,-567,-332,253,149,-449
0,5084196,201,-1873,-391,-1029,-571,-324,253,149,-449
0,5084209,201,-1873,-391,-1029,-571,-324,253,149,-449
0,5084222,200,-1875,-385,-1026,-571,-326,253,149,-449
0,5084235,200,-1874,-383,-1029,-569,-320,253,149,-449
0,5084244,200,-1874,-383,-1029,-569,-320,253,149,-449
0,5084257,201,-1874,-377,-1036,-576,-318,255,139,-443
0,5084269,201,-1874,-377,-1036,-576,-318,255,139,-443
0,5084282,200,-1870,-385,-1039,-571,-322,255,139,-443
0,5084292,200,-1870,-385,-1039,-571,-322,255,139,-443
0,5084304,201,-1875,-385,-1030,-569,-323,255,139,-443
0,5084312,200,-1873,-381,-1027,-566,-323,255,139,-443
0,5084324,200,-1873,-381,-1027,-566,-323,255,139,-443
0,5084337,200,-1873,-383,-1031,-565,-322,255,139,-443
0,5084346,200,-1873,-383,-1031,-565,-322,255,139,-443
0,5084358,200,-1874,-379,-1028,-557,-323,255,139,-443
0,5084372,201,-1875,-380,-1025,-569,-326,255,147,-447
0,5084387,201,-1875,-380,-1025,-569,-326,255,147,-447
0,5084395,202,-1875,-386,-1028,-564,-321,255,147,-447
0,5084408,202,-1875,-386,-1028,-564,-321,255,147,-447
0,5084422,202,-1875,-386,-1028,-564,-321,255,147,-447
0,5084435,200,-1876,-382,-1026,-563,-330,255,147,-447
0,5084445,200,-1876,-382,-1026,-563,-330,255,147,-447
0,5084457,198,-1876,-388,-1023,-563,-321,255,147,-447
0,5084473,201,-1871,-384,-1028,-568,-330,255,147,-447
0,5084485,201,-1871,-384,-1028,-568,-330,255,147,-447
0,5084495,202,-1874,-386,-1029,-566,-330,255,147,-447
0,5084504,202,-1874,-386,-1029,-566,-330,255,147,-447
0,5084512,202,-1874,-386,-1029,-566,-330,255,147,-447
0,5084519,204,-1875,-378,-1015,-564,-328,255,139,-445
0,5084531,204,-1875,-378,-1015,-564,-328,255,139,-445
0,5084544,203,-1876,-382,-1018,-570,-327,255,139,-445
0,5084558,203,-1874,-385,-1020,-575,-322,255,139,-445
0,5084570,203,-1874,-385,-1020,-575,-322,255,139,-445
0,5084582,200,-1877,-382,-1021,-567,-325,255,139,-445
0,5084597,200,-1874,-386,-1028,-561,-323,255,139,-445
0,5084609,200,-1874,-386,-1028,-561,-323,255,139,-445
0,5084621,202,-1875,-388,-1029,-566,-324,255,139,-445
0,5084633,200,-1875,-382,-1032,-573,-332,258,136,-448
0,5084647,200,-1875,-382,-1032,-573,-332,258,136,-448
0,5084661,199,-1874,-385,-1021,-569,-330,258,136,-448
0,5084675,199,-1875,-384,-1017,-561,-322,258,136,-448
0,5084688,199,-1875,-384,-1017,-561,-322,258,136,-448
0,5084701,200,-1873,-382,-1022,-562,-321,258,136,-448
0,5084712,200,-1873,-382,-1022,-562,-321,258,136,-448
0,5084724,201,-1875,-387,-1021,-567,-320,258,136,-448
0,5084731,201,-1875,-387,-1021,-567,-320,258,136,-448
0,5084736,202,-1874,-392,-1032,-564,-324,258,136,-448
0,5084741,202,-1874,-392,-1032,-564,-324,258,136,-448
0,5084746,202,-1874,-392,-1032,-564,-324,258,136,-448
0,5084751,202,-1874,-392,-1032,-564,-324,258,136,-448
0,5084760,201,-1873,-389,-1020,-564,-315,257,153,-449
0,5084767,201,-1873,-389,-1020,-564,-315,257,153,-449
0,5084774,201,-1874,-380,-1031,-568,-319,257,153,-449
0,5084782,201,-1874,-380,-1031,-568,-319,257,153,-449
0,5084789,201,-1874,-380,-1031,-568,-319,257,153,-449
0,5084794,203,-1874,-382,-1033,-568,-322,257,153,-449
0,5084803,203,-1874,-382,-1033,-568,-322,257,153,-449
0,5084811,203,-1874,-382,-1033,-568,-322,257,153,-449
0,5084818,204,-1876,-379,-1038,-561,-325,257,153,-449
0,5084825,204,-1876,-379,-1038,-561,-325,257,153,-449
0,5084832,204,-1876,-379,-1038,-561,-325,257,153,-449
0,5084839,203,-1874,-387,-1027,-561,-324,257,153,-449
0,5084845,203,-1874,-387,-1027,-561,-324,257,153,-449
0,5084853,203,-1874,-387,-1027,-561,-324,257,153,-449
0,5084859,203,-1876,-383,-1018,-563,-322,257,153,-449
0,5084866,203,-1876,-383,-1018,-563,-322,257,153,-449
0,5084872,203,-1876,-383,-1018,-563,-322,257,153,-449
0,5084880,202,-1872,-387,-1024,-574,-327,257,153,-449
0,5084887,202,-1872,-387,-1024,-574,-327,257,153,-449
0,5084893,202,-1872,-387,-1024,-574,-327,257,153,-449
0,5084898,199,-1873,-380,-1022,-570,-321,252,148,-452
0,5084903,199,-1873,-380,-1022,-570,-321,252,148,-452
0,5084911,199,-1873,-380,-1022,-570,-321,252,148,-452
0,5084918,198,-1873,-377,-1019,-568,-327,252,148,-452
0,5084924,198,-1873,-377,-1019,-568,-327,252,148,-452
0,5084932,198,-1873,-377,-1019,-568,-327,252,148,-452
0,5084938,198,-1873,-377,-1019,-568,-327,252,148,-452
0,5084945,198,-1873,-377,-1019,-568,-327,252,148,-452
0,5084952,198,-1873,-377,-1019,-568,-327,252,148,-452
0,5084959,201,-1874,-384,-1025,-562,-326,252,148,-452
0,5084967,201,-1874,-384,-1025,-562,-326,252,148,-452
0,5084975,201,-1873,-386,-1026,-563,-319,252,148,-452
0,5084981,201,-1873,-386,-1026,-563,-319,252,148,-452
0,5084987,201,-1873,-386,-1026,-563,-319,252,148,-452
0,5084994,197,-1875,-380,-1026,-560,-321,252,148,-452
0,5085000,197,-1875,-380,-1026,-560,-321,252,148,-452
0,5085007,197,-1875,-380,-1026,-560,-321,252,148,-452
0,5085012,197,-1875,-380,-1026,-560,-321,252,148,-452
0,5085021,198,-1873,-382,-1029,-576,-321,257,139,-441
0,5085029,198,-1873,-382,-1029,-576,-321,257,139,-441
0,5085037,199,-1872,-383,-1031,-574,-321,257,139,-441
0,5085044,199,-1872,-383,-1031,-574,-321,257,139,-441
0,5085050,199,-1872,-383,-1031,-574,-321,257,139,-441
0,5085058,201,-1878,-387,-1025,-565,-321,257,139,-441
0,5085066,201,-1878,-387,-1025,-565,-321,257,139,-441
0,5085073,201,-1878,-387,-1025,-565,-321,257,139,-441
0,5085079,198,-1874,-384,-1028,-565,-325,257,139,-441
0,5085087,198,-1874,-384,-1028,-565,-325,257,139,-441
0,5085094,199,-1870,-389,-1023,-563,-329,257,139,-441
0,5085102,199,-1870,-389,-1023,-563,-329,257,139,-441
0,5085109,199,-1870,-389,-1023,-563,-329,257,139,-441
0,5085116,200,-1872,-379,-1020,-567,-329,257,139,-441
0,5085123,200,-1872,-379,-1020,-567,-329,257,139,-441
0,5085131,200,-1872,-379,-1020,-567,-329,257,139,-441
0,5085138,199,-1873,-385,-1025,-565,-329,257,139,-441
0,5085147,199,-1873,-385,-1025,-565,-329,257,139,-441
0,5085154,198,-1874,-377,-1027,-561,-323,264,136,-446
0,5085162,198,-1874,-377,-1027,-561,-323,264,136,-446
0,5085169,198,-1874,-377,-1027,-561,-323,264,136,-446
0,5085174,200,-1874,-382,-1024,-568,-324,264,136,-446
0,5085179,200,-1874,-382,-1024,-568,-324,264,136,-446
0,5085188,200,-1874,-382,-1024,-568,-324,264,136,-446
0,5085195,200,-1874,-384,-1021,-568,-323,264,136,-446
0,5085201,200,-1874,-384,-1021,-568,-323,264,136,-446
0,5085206,200,-1874,-384,-1021,-568,-323,264,136,-446
0,5085212,200,-1874,-384,-1021,-568,-323,264,136,-446
0,5085219,197,-1873,-387,-1020,-563,-322,264,136,-446
0,5085225,197,-1873,-387,-1020,-563,-322,264,136,-446
0,5085232,197,-1873,-387,-1020,-563,-322,264,136,-446
0,5085237,198,-1872,-384,-1023,-564,-323,264,136,-446
0,5085244,198,-1872,-384,-1023,-564,-323,264,136,-446
0,5085250,198,-1872,-384,-1023,-564,-323,264,136,-446
0,5085258,202,-1874,-386,-1025,-564,-324,264,136,-446
0,5085263,202,-1874,-386,-1025,-564,-324,264,136,-446
0,5085272,202,-1874,-386,-1025,-564,-324,264,136,-446
0,5085279,198,-1873,-381,-1030,-570,-326,258,142,-442
0,5085286,198,-1873,-381,-1030,-570,-326,258,142,-442
0,5085292,198,-1873,-381,-1030,-570,-326,258,142,-442
0,5085299,199,-1875,-383,-1033,-563,-329,258,142,-442
0,5085305,199,-1875,-383,-1033,-563,-329,258,142,-442
0,5085313,199,-1875,-383,-1033,-563,-329,258,142,-442
0,5085321,199,-1875,-383,-1033,-563,-329,258,142,-442
0,5085328,199,-1875,-383,-1033,-563,-329,258,142,-442
0,5085333,200,-1872,-390,-1025,-574,-326,258,142,-442
0,5085341,200,-1872,-390,-1025,-574,-326,258,142,-442
0,5085349,200,-1872,-390,-1025,-574,-326,258,142,-442
0,5085356,201,-1874,-384,-1024,-562,-321,258,142,-442
0,5085363,201,-1874,-384,-1024,-562,-321,258,142,-442
0,5085370,201,-1874,-384,-1024,-562,-321,258,142,-442
0,5085377,201,-1873,-382,-1025,-558,-319,258,142,-442
0,5085382,201,-1873,-382,-1025,-558,-319,258,142,-442
0,5085389,201,-1873,-382,-1025,-558,-319,258,142,-442
0,5085398,201,-1874,-387,-1028,-564,-320,266,150,-440
0,5085405,201,-1874,-387,-1028,-564,-320,266,150,-440
0,5085411,201,-1874,-387,-1028,-564,-320,266,150,-440
0,5085417,197,-1873,-378,-1023,-565,-324,266,150,-440
0,5085425,197,-1873,-378,-1023,-565,-324,266,150,-440
0,5085431,197,-1873,-378,-1023,-565,-324,266,150,-440
0,5085440,202,-1874,-382,-1027,-566,-326,266,150,-440
0,5085447,202,-1874,-382,-1027,-566,-326,266,150,-440
0,5085454,202,-1874,-382,-1027,-566,-326,266,150,-440
0,5085460,198,-1874,-385,-1025,-571,-320,266,150,-440
0,5085467,198,-1874,-385,-1025,-571,-320,266,150,-440
0,5085474,196,-1873,-388,-1020,-566,-325,266,150,-440
0,5085480,196,-1873,-388,-1020,-566,-325,266,150,-440
0,5085489,196,-1873,-388,-1020,-566,-325,266,150,-440
0,5085494,196,-1873,-388,-1020,-566,-325,266,150,-440
0,5085498,201,-1872,-386,-1016,-566,-323,266,150,-440
0,5085504,201,-1872,-386,-1016,-566,-323,266,150,-440
0,5085509,201,-1872,-386,-1016,-566,-323,266,150,-440
0,5085514,202,-1874,-385,-1025,-569,-323,266,150,-440
0,5085519,202,-1874,-385,-1025,-569,-323,266,150,-440
0,5085526,202,-1874,-385,-1025,-569,-323,266,150,-440
0,5085534,199,-1873,-385,-1023,-569,-325,257,141,-439
0,5085541,199,-1873,-385,-1023,-569,-325,257,141,-439
0,5085547,199,-1873,-385,-1023,-569,-325,257,141,-439
0,5085555,200,-1871,-385,-1025,-560,-318,257,141,-439
0,5085562,200,-1871,-385,-1025,-560,-318,257,141,-439
0,5085569,200,-1871,-385,-1025,-560,-318,257,141,-439
0,5085576,201,-1874,-382,-1023,-566,-321,257,141,-439
0,5085584,201,-1874,-382,-1023,-566,-321,257,141,-439
0,5085591,201,-1874,-382,-1023,-566,-321,257,141,-439
0,5085597,199,-1875,-384,-1023,-568,-318,257,141,-439
0,5085605,199,-1875,-384,-1023,-568,-318,257,141,-439
0,5085613,199,-1875,-384,-1023,-568,-318,257,141,-439
0,5085619,200,-1877,-385,-1021,-566,-320,257,141,-439
0,5085626,200,-1877,-385,-1021,-566,-320,257,141,-439
0,5085634,200,-1873,-381,-1033,-564,-321,257,141,-439
0,5085641,200,-1873,-381,-1033,-564,-321,257,141,-439
0,5085648,200,-1873,-381,-1033,-564,-321,257,141,-439
0,5085656,198,-1875,-385,-1024,-562,-322,261,141,-449
0,5085663,198,-1875,-385,-1024,-562,-322,261,141,-449
0,5085670,198,-1875,-385,-1024,-562,-322,261,141,-449
0,5085676,200,-1871,-377,-1024,-561,-323,261,141,-449
0,5085685,200,-1871,-377,-1024,-561,-323,261,141,-449
0,5085691,200,-1871,-377,-1024,-561,-323,261,141,-449
0,5085701,200,-1874,-382,-1024,-562,-324,261,141,-449
0,5085707,200,-1874,-382,-1024,-562,-324,261,141,-449
0,5085714,199,-1877,-384,-1029,-564,-323,261,141,-449
0,5085720,199,-1877,-384,-1029,-564,-323,261,141,-449
0,5085726,199,-1877,-384,-1029,-564,-323,261,141,-449
0,5085731,199,-1877,-384,-1029,-564,-323,261,141,-449
0,5085740,198,-1876,-384,-1019,-566,-330,261,141,-449
0,5085748,198,-1876,-384,-1019,-566,-330,261,141,-449
0,5085756,200,-1873,-387,-1029,-565,-320,261,141,-449
0,5085764,200,-1873,-387,-1029,-565,-320,261,141,-449
0,5085776,199,-1875,-388,-1031,-563,-326,261,141,-449
0,5085786,199,-1875,-388,-1031,-563,-326,261,141,-449
0,5085794,199,-1875,-388,-1031,-563,-326,261,141,-449
0,5085804,200,-1873,-382,-1021,-561,-322,257,147,-447
0,5085816,200,-1873,-386,-1024,-560,-324,257,147,-447
0,5085831,200,-1873,-386,-1024,-560,-324,257,147,-447
0,5085842,198,-1877,-381,-1025,-569,-321,257,147,-447
0,5085855,200,-1876,-376,-1026,-565,-319,257,147,-447
0,5085868,200,-1876,-376,-1026,-565,-319,257,147,-447
0,5085881,202,-1874,-385,-1024,-567,-320,257,147,-447
0,5085893,202,-1874,-385,-1024,-567,-320,257,147,-447
0,5085902,199,-1874,-383,-1024,-570,-326,257,147,-447
0,5085915,201,-1875,-384,-1025,-569,-326,263,151,-441
0,5085929,201,-1875,-384,-1025,-569,-326,263,151,-441
0,5085941,200,-1872,-384,-1035,-571,-324,263,151,-441
0,5085949,200,-1872,-384,-1035,-571,-324,263,151,-441
0,5085962,202,-1875,-386,-1025,-563,-323,263,151,-441
0,5085975,199,-1875,-386,-1029,-565,-326,263,151,-441
0,5085985,199,-1875,-386,-1029,-565,-326,263,151,-441
0,5085999,202,-1876,-383,-1031,-565,-323,263,151,-441
0,5086010,202,-1876,-383,-1031,-565,-323,263,151,-441
0,5086022,197,-1874,-386,-1023,-562,-317,263,151,-441
0,5086034,201,-1873,-381,-1021,-559,-322,263,151,-441
0,5086047,201,-1873,-381,-1021,-559,-322,263,151,-441
0,5086057,199,-1876,-379,-1030,-566,-320,252,146,-450
0,5086067,199,-1876,-379,-1030,-566,-320,252,146,-450
0,5086080,200,-1876,-382,-1027,-565,-321,252,146,-450
0,5086092,200,-1876,-382,-1027,-565,-321,252,146,-450
0,5086103,199,-1876,-384,-1025,-565,-322,252,146,-450
0,5086116,201,-1876,-380,-1031,-571,-321,252,146,-450
0,5086129,201,-1876,-380,-1031,-571,-321,252,146,-450
0,5086142,199,-1875,-388,-1032,-568,-317,252,146,-450
0,5086152,199,-1875,-388,-1032,-568,-317,252,146,-450
0,5086166,199,-1873,-392,-1026,-564,-321,252,146,-450
0,5086177,196,-1873,-378,-1024,-562,-318,257,141,-445
0,5086188,196,-1873,-378,-1024,-562,-318,257,141,-445
0,5086201,203,-1873,-385,-1026,-566,-324,257,141,-445
0,5086216,199,-1873,-392,-1023,-572,-332,257,141,-445
0,5086226,199,-1873,-392,-1023,-572,-332,257,141,-445
0,5086236,202,-1874,-390,-1031,-571,-324,257,141,-445
0,5086249,202,-1874,-390,-1031,-571,-324,257,141,-445
0,5086264,200,-1874,-387,-1024,-565,-326,257,141,-445
0,5086273,200,-1874,-387,-1024,-565,-326,257,141,-445
0,5086285,198,-1872,-387,-1034,-563,-320,257,141,-445
0,5086299,198,-1871,-380,-1026,-567,-326,260,142,-442
0,5086313,198,-1871,-380,-1026,-567,-326,260,142,-442
0,5086322,199,-1875,-381,-1030,-567,-325,260,142,-442
0,5086332,199,-1875,-381,-1030,-567,-325,260,142,-442
0,5086347,198,-1872,-382,-1018,-570,-315,260,142,-442
0,5086358,201,-1872,-385,-1024,-569,-320,260,142,-442
0,5086370,201,-1872,-385,-1024,-569,-320,260,142,-442
0,5086383,201,-1874,-390,-1024,-572,-327,260,142,-442
0,5086391,201,-1874,-390,-1024,-572,-327,260,142,-442
0,5086399,199,-1874,-388,-1032,-565,-327,260,142,-442
0,5086407,199,-1874,-388,-1032,-565,-327,260,142,-442
0,5086415,202,-1876,-385,-1026,-570,-322,260,142,-442
0,5086425,202,-1876,-385,-1026,-570,-322,260,142,-442
0,5086433,202,-1876,-385,-1026,-570,-322,260,142,-442
0,5086441,203,-1875,-376,-1028,-577,-322,266,152,-446
0,5086451,203,-1875,-376,-1028,-577,-322,266,152,-446
0,5086462,202,-1875,-383,-1020,-564,-322,266,152,-446
0,5086472,202,-1875,-383,-1020,-564,-322,266,152,-446
0,5086481,196,-1873,-385,-1018,-569,-327,266,152,-446
0,5086490,196,-1873,-385,-1018,-569,-327,266,152,-446
0,5086497,202,-1875,-381,-1018,-563,-323,266,152,-446
0,5086507,202,-1875,-381,-1018,-563,-323,266,152,-446
0,5086514,202,-1875,-381,-1018,-563,-323,266,152,-446
0,5086522,201,-1874,-384,-1030,-569,-323,266,152,-446
0,5086531,201,-1874,-384,-1030,-569,-323,266,152,-446
0,5086541,201,-1872,-388,-1025,-568,-324,266,152,-446
0,5086551,201,-1872,-388,-1025,-568,-324,266,152,-446
0,5086560,202,-1876,-382,-1025,-570,-314,264,152,-446
0,5086568,202,-1876,-382,-1025,-570,-314,264,152,-446
0,5086579,201,-1873,-382,-1024,-564,-321,264,152,-446
0,5086589,201,-1873,-382,-1024,-564,-321,264,152,-446
0,5086603,202,-1876,-379,-1024,-565,-324,264,152,-446
0,5086615,203,-1875,-383,-1024,-564,-319,264,152,-446
0,5086627,203,-1875,-383,-1024,-564,-319,264,152,-446
0,5086639,200,-1876,-387,-1024,-566,-321,264,152,-446
0,5086652,200,-1876,-387,-1024,-566,-321,264,152,-446
0,5086665,201,-1875,-386,-1023,-567,-317,264,152,-446
0,5086679,202,-1875,-383,-1028,-572,-326,264,152,-446
0,5086690,202,-1875,-383,-1028,-572,-326,264,152,-446
0,5086702,202,-1876,-381,-1025,-570,-315,256,144,-446
0,5086716,196,-1875,-383,-1028,-564,-323,256,144,-446
0,5086729,196,-1875,-383,-1028,-564,-323,256,144,-446
0,5086740,200,-1876,-384,-1027,-576,-327,256,144,-446
0,5086748,200,-1876,-384,-1027,-576,-327,256,144,-446
0,5086754,200,-1876,-384,-1027,-576,-327,256,144,-446
0,5086761,198,-1874,-386,-1029,-568,-331,256,144,-446
0,5086768,198,-1874,-386,-1029,-568,-331,256,144,-446
0,5086775,198,-1874,-386,-1029,-568,-331,256,144,-446
0,5086781,202,-1875,-386,-1032,-567,-322,256,144,-446
0,5086788,202,-1875,-386,-1032,-567,-322,256,144,-446
0,5086793,202,-1875,-386,-1032,-567,-322,256,144,-446
0,5086801,200,-1875,-386,-1032,-573,-323,256,144,-446
0,5086809,200,-1875,-386,-1032,-573,-323,256,144,-446
0,5086815,200,-1875,-386,-1032,-573,-323,256,144,-446
0,5086821,200,-1872,-377,-1025,-562,-320,264,144,-436
0,5086829,200,-1872,-377,-1025,-562,-320,264,144,-436
0,5086837,203,-1874,-384,-1026,-565,-322,264,144,-436
0,5086844,203,-1874,-384,-1026,-565,-322,264,144,-436
0,5086852,203,-1874,-384,-1026,-565,-322,264,144,-436
0,5086859,200,-1874,-383,-1030,-570,-323,264,144,-436
0,5086865,200,-1874,-383,-1030,-570,-323,264,144,-436
0,5086871,200,-1874,-383,-1030,-570,-323,264,144,-436
0,5086878,199,-1873,-384,-1029,-563,-318,264,144,-436
0,5086884,199,-1873,-384,-1029,-563,-318,264,144,-436
0,5086889,199,-1873,-384,-1029,-563,-318,264,144,-436
0,5086898,201,-1875,-381,-1027,-567,-325,264,144,-436
0,5086905,201,-1875,-381,-1027,-567,-325,264,144,-436
0,5086914,201,-1875,-381,-1027,-567,-325,264,144,-436
0,5086922,198,-1875,-381,-1022,-566,-324,264,144,-436
0,5086929,198,-1875,-381,-1022,-566,-324,264,144,-436
0,5086937,201,-1875,-387,-1024,-559,-323,264,144,-436
0,5086942,201,-1875,-387,-1024,-559,-323,264,144,-436
0,5086949,201,-1875,-387,-1024,-559,-323,264,144,-436
0,5086956,199,-1873,-385,-1032,-566,-323,254,144,-448
0,5086961,199,-1873,-385,-1032,-566,-323,254,144,-448
0,5086967,199,-1873,-385,-1032,-566,-323,254,144,-448
0,5086972,199,-1873,-385,-1032,-566,-323,254,144,-448
0,5086978,202,-1873,-385,-1035,-562,-323,254,144,-448
0,5086985,202,-1873,-385,-1035,-562,-323,254,144,-448
0,5086993,202,-1873,-385,-1035,-562,-323,254,144,-448
0,5086999,202,-1871,-383,-1029,-564,-317,254,144,-448
0,5087006,202,-1871,-383,-1029,-564,-317,254,144,-448
0,5087013,202,-1871,-383,-1029,-564,-317,254,144,-448
0,5087022,197,-1873,-386,-1028,-574,-318,254,144,-448
0,5087028,197,-1873,-386,-1028,-574,-318,254,144,-448
0,5087035,197,-1873,-386,-1028,-574,-318,254,144,-448
0,5087040,200,-1873,-382,-1017,-564,-324,254,144,-448
0,5087048,200,-1873,-382,-1017,-564,-324,254,144,-448
0,5087055,197,-1874,-382,-1022,-561,-316,254,144,-448
0,5087064,197,-1874,-382,-1022,-561,-316,254,144,-448
0,5087072,197,-1874,-382,-1022,-561,-316,254,144,-448
0,5087079,197,-1873,-382,-1023,-563,-318,258,142,-446
0,5087086,197,-1873,-382,-1023,-563,-318,258,142,-446
0,5087092,197,-1873,-382,-1023,-563,-318,258,142,-446
0,5087100,199,-1874,-385,-1024,-566,-328,258,142,-446
0,5087107,199,-1874,-385,-1024,-566,-328,258,142,-446
0,5087114,199,-1874,-385,-1024,-566,-328,258,142,-446
0,5087122,201,-1873,-379,-1026,-565,-324,258,142,-446
0,5087130,201,-1873,-379,-1026,-565,-324,258,142,-446
0,5087135,201,-1873,-379,-1026,-565,-324,258,142,-446
0,5087142,199,-1875,-385,-1021,-566,-322,258,142,-446
0,5087150,199,-1875,-385,-1021,-566,-322,258,142,-446
0,5087157,201,-1874,-385,-1017,-562,-329,258,142,-446
0,5087165,201,-1874,-385,-1017,-562,-329,258,142,-446
0,5087172,201,-1874,-385,-1017,-562,-329,258,142,-446
0,5087180,201,-1874,-388,-1021,-566,-325,258,142,-446
0,5087188,201,-1874,-388,-1021,-566,-325,258,142,-446
0,5087197,201,-1873,-380,-1026,-572,-322,257,149,-445
0,5087204,201,-1873,-380,-1026,-572,-322,257,149,-445
0,5087211,201,-1873,-380,-1026,-572,-322,257,149,-445
0,5087217,197,-1874,-386,-1031,-570,-325,257,149,-445
0,5087224,197,-1874,-386,-1031,-570,-325,257,149,-445
0,5087232,197,-1874,-386,-1031,-570,-325,257,149,-445
0,5087240,200,-1878,-388,-1025,-563,-322,257,149,-445
0,5087246,200,-1878,-388,-1025,-563,-322,257,149,-445
0,5087253,200,-1878,-388,-1025,-563,-322,257,149,-445
0,5087258,200,-1874,-391,-1020,-557,-325,257,149,-445
0,5087266,200,-1874,-391,-1020,-557,-325,257,149,-445
0,5087273,200,-1874,-391,-1020,-557,-325,257,149,-445
0,5087282,202,-1872,-385,-1018,-563,-329,257,149,-445
0,5087289,202,-1872,-385,-1018,-563,-329,257,149,-445
0,5087296,202,-1872,-385,-1018,-563,-329,257,149,-445
0,5087301,197,-1875,-387,-1027,-565,-321,257,149,-445
0,5087310,197,-1875,-387,-1027,-565,-321,257,149,-445
0,5087316,200,-1877,-386,-1023,-566,-320,257,149,-445
0,5087324,200,-1877,-386,-1023,-566,-320,257,149,-445
0,5087332,200,-1877,-386,-1023,-566,-320,257,149,-445
0,5087339,200,-1874,-387,-1031,-567,-322,257,141,-447
0,5087347,200,-1874,-387,-1031,-567,-322,257,141,-447
0,5087354,200,-1874,-387,-1031,-567,-322,257,141,-447
0,5087361,199,-1872,-384,-1031,-568,-321,257,141,-447
0,5087369,199,-1872,-384,-1031,-568,-321,257,141,-447
0,5087376,200,-1873,-381,-1025,-568,-323,257,141,-447
0,5087383,200,-1873,-381,-1025,-568,-323,257,141,-447
0,5087389,200,-1873,-381,-1025,-568,-323,257,141,-447
0,5087397,197,-1876,-385,-1029,-569,-324,257,141,-447
0,5087405,197,-1876,-385,-1029,-569,-324,257,141,-447
0,5087412,197,-1876,-385,-1029,-569,-324,257,141,-447
0,5087419,196,-1876,-389,-1025,-571,-318,257,141,-447
0,5087427,196,-1876,-389,-1025,-571,-318,257,141,-447
0,5087433,196,-1876,-389,-1025,-571,-318,257,141,-447
0,5087440,201,-1873,-384,-1031,-561,-319,257,141,-447
0,5087448,201,-1873,-384,-1031,-561,-319,257,141,-447
0,5087455,201,-1873,-384,-1031,-561,-319,257,141,-447
0,5087460,199,-1875,-379,-1022,-569,-323,257,147,-449
0,5087467,199,-1875,-379,-1022,-569,-323,257,147,-449
0,5087473,199,-1875,-379,-1022,-569,-323,257,147,-449
0,5087480,200,-1875,-384,-1022,-565,-322,257,147,-449
0,5087488,200,-1875,-384,-1022,-565,-322,257,147,-449
0,5087494,200,-1875,-384,-1022,-565,-322,257,147,-449
0,5087499,199,-1874,-379,-1026,-566,-320,257,147,-449
0,5087504,199,-1874,-379,-1026,-566,-320,257,147,-449
0,5087509,199,-1874,-379,-1026,-566,-320,257,147,-449
0,5087514,199,-1874,-379,-1026,-566,-320,257,147,-449
0,5087522,199,-1874,-379,-1026,-566,-320,257,147,-449
0,5087527,199,-1874,-379,-1026,-566,-320,257,147,-449
0,5087533,199,-1874,-379,-1026,-566,-320,257,147,-449
0,5087540,201,-1876,-379,-1023,-569,-321,257,147,-449
0,5087547,201,-1876,-379,-1023,-569,-321,257,147,-449
0,5087554,201,-1876,-379,-1023,-569,-321,257,147,-449
0,5087559,201,-1874,-383,-1021,-561,-319,257,147,-449
0,5087567,201,-1874,-383,-1021,-561,-319,257,147,-449
0,5087575,201,-1874,-383,-1021,-561,-319,257,147,-449
0,5087582,202,-1875,-384,-1028,-563,-316,257,147,-449
0,5087588,202,-1875,-384,-1028,-563,-316,257,147,-449
0,5087596,202,-1875,-384,-1028,-563,-316,257,147,-449
0,5087603,199,-1873,-380,-1033,-569,-317,258,144,-442
0,5087608,199,-1873,-380,-1033,-569,-317,258,144,-442
0,5087616,199,-1873,-380,-1033,-569,-317,258,144,-442
0,5087623,200,-1875,-382,-1027,-566,-329,258,144,-442
0,5087630,200,-1875,-382,-1027,-566,-329,258,144,-442
0,5087637,201,-1873,-381,-1027,-569,-323,258,144,-442
0,5087643,201,-1873,-381,-1027,-569,-323,258,144,-442
0,5087650,201,-1873,-381,-1027,-569,-323,258,144,-442
0,5087659,200,-1873,-386,-1030,-568,-320,258,144,-442
0,5087666,200,-1873,-386,-1030,-568,-320,258,144,-442
0,5087672,200,-1873,-386,-1030,-568,-320,258,144,-442
0,5087679,200,-1873,-388,-1030,-563,-327,258,144,-442
0,5087685,200,-1873,-388,-1030,-563,-327,258,144,-442
0,5087692,200,-1873,-388,-1030,-563,-327,258,144,-442
0,5087702,201,-1873,-388,-1025,-561,-324,258,144,-442
0,5087708,201,-1873,-388,-1025,-561,-324,258,144,-442
0,5087714,201,-1873,-388,-1025,-561,-324,258,144,-442
0,5087721,202,-1876,-379,-1025,-562,-324,256,144,-444
0,5087727,202,-1876,-379,-1025,-562,-324,256,144,-444
0,5087734,202,-1876,-379,-1025,-562,-324,256,144,-444
0,5087741,203,-1874,-382,-1028,-562,-326,256,144,-444
0,5087747,203,-1874,-382,-1028,-562,-326,256,144,-444
0,5087760,199,-1875,-383,-1027,-561,-323,256,144,-444
0,5087773,199,-1875,-383,-1027,-561,-323,256,144,-444
0,5087783,202,-1871,-377,-1029,-563,-316,256,144,-444
0,5087793,202,-1871,-377,-1029,-563,-316,256,144,-444
0,5087801,199,-1874,-382,-1023,-569,-320,256,144,-444
0,5087809,199,-1874,-382,-1023,-569,-320,256,144,-444
0,5087816,201,-1871,-387,-1031,-574,-323,256,144,-444
0,5087826,201,-1871,-387,-1031,-574,-323,256,144,-444
0,5087839,200,-1873,-385,-1032,-570,-319,259,143,-449
0,5087851,200,-1873,-385,-1032,-570,-319,259,143,-449
0,5087864,199,-1873,-382,-1024,-565,-322,259,143,-449
0,5087877,200,-1876,-386,-1032,-566,-326,259,143,-449
0,5087889,200,-1876,-386,-1032,-566,-326,259,143,-449
0,5087900,204,-1873,-392,-1025,-570,-321,259,143,-449
0,5087913,204,-1873,-392,-1025,-570,-321,259,143,-449
0,5087926,200,-1874,-386,-1018,-569,-318,259,143,-449
0,5087938,198,-1875,-387,-1018,-558,-318,259,143,-449
0,5087950,198,-1875,-387,-1018,-558,-318,259,143,-449
0,5087964,199,-1874,-385,-1029,-568,-317,259,143,-449
0,5087976,199,-1874,-385,-1029,-568,-317,259,143,-449
0,5087988,199,-1874,-378,-1029,-567,-317,257,143,-445
0,5087997,202,-1873,-377,-1024,-571,-321,257,143,-445
0,5088012,202,-1873,-377,-1024,-571,-321,257,143,-445
0,5088024,200,-1872,-380,-1025,-562,-322,257,143,-445
0,5088033,200,-1872,-380,-1025,-562,-322,257,143,-445
0,5088041,203,-1871,-383,-1030,-564,-320,257,143,-445
0,5088050,203,-1871,-383,-1030,-564,-320,257,143,-445
0,5088058,199,-1872,-381,-1027,-568,-328,257,143,-445
0,5088068,199,-1872,-381,-1027,-568,-328,257,143,-445
0,5088080,200,-1870,-386,-1023,-569,-332,257,143,-445
0,5088095,200,-1870,-386,-1023,-569,-332,257,143,-445
0,5088107,200,-1870,-386,-1023,-569,-332,261,149,-443
0,5088117,199,-1874,-383,-1026,-566,-324,261,149,-443
0,5088130,199,-1874,-383,-1026,-566,-324,261,149,-443
0,5088143,200,-1874,-374,-1028,-564,-325,261,149,-443
0,5088155,200,-1874,-374,-1028,-564,-325,261,149,-443
0,5088168,201,-1876,-383,-1035,-565,-327,261,149,-443
0,5088182,200,-1874,-377,-1031,-564,-331,261,149,-443
0,5088195,200,-1874,-377,-1031,-564,-331,261,149,-443
0,5088207,200,-1875,-384,-1030,-557,-326,261,149,-443
0,5088216,200,-1875,-384,-1030,-557,-326,261,149,-443
0,5088228,198,-1873,-383,-1023,-565,-322,261,149,-443
0,5088241,200,-1874,-379,-1034,-564,-324,252,142,-448
0,5088253,200,-1874,-379,-1034,-564,-324,252,142,-448
0,5088265,198,-1873,-383,-1033,-561,-324,252,142,-448
0,5088278,199,-1879,-381,-1026,-568,-319,252,142,-448
0,5088293,199,-1879,-381,-1026,-568,-319,252,142,-448
0,5088308,200,-1875,-385,-1025,-567,-315,252,142,-448
0,5088316,200,-1875,-385,-1025,-567,-315,252,142,-448
0,5088327,199,-1874,-386,-1022,-562,-318,252,142,-448
0,5088342,200,-1876,-388,-1023,-569,-320,252,142,-448
0,5088355,200,-1876,-388,-1023,-569,-320,252,142,-448
0,5088366,202,-1874,-383,-1022,-564,-316,258,144,-448
0,5088379,203,-1876,-383,-1030,-559,-319,258,144,-448
0,5088394,203,-1876,-383,-1030,-559,-319,258,144,-448
0,5088405,202,-1875,-387,-1025,-562,-318,258,144,-448
0,5088416,202,-1875,-387,-1025,-562,-318,258,144,-448
0,5088429,202,-1875,-383,-1021,-565,-320,258,144,-448
0,5088442,197,-1872,-382,-1034,-566,-317,258,144,-448
0,5088454,197,-1872,-382,-1034,-566,-317,258,144,-448
0,5088465,200,-1873,-383,-1024,-559,-326,258,144,-448
0,5088479,202,-1873,-388,-1018,-562,-323,258,144,-448
0,5088490,202,-1873,-388,-1018,-562,-323,258,144,-448
0,5088498,198,-1875,-377,-1024,-561,-314,257,135,-447
0,5088506,198,-1875,-377,-1024,-561,-314,257,135,-447
0,5088516,198,-1875,-377,-1024,-561,-314,257,135,-447
0,5088525,201,-1872,-387,-1023,-567,-316,257,135,-447
0,5088537,201,-1872,-387,-1023,-567,-316,257,135,-447
0,5088550,201,-1872,-387,-1023,-567,-316,257,135,-447
0,5088564,201,-1872,-387,-1023,-567,-316,257,135,-447
0,5088576,201,-1872,-387,-1023,-567,-316,257,135,-447
0,5088588,201,-1874,-380,-1026,-567,-324,257,135,-447
0,5088602,200,-1874,-381,-1023,-566,-319,257,135,-447
0,5088615,200,-1874,-381,-1023,-566,-319,257,135,-447
0,5088627,198,-1876,-382,-1022,-565,-326,258,148,-446
0,5088636,198,-1876,-382,-1022,-565,-326,258,148,-446
0,5088645,200,-1874,-385,-1028,-564,-321,258,148,-446
0,5088653,200,-1874,-385,-1028,-564,-321,258,148,-446
0,5088661,201,-1876,-383,-1029,-566,-321,258,148,-446
0,5088669,201,-1876,-383,-1029,-566,-321,258,148,-446
0,5088677,201,-1876,-383,-1029,-566,-321,258,148,-446
0,5088686,200,-1875,-382,-1024,-570,-316,258,148,-446
0,5088695,200,-1875,-382,-1024,-570,-316,258,148,-446
0,5088703,200,-1875,-383,-1027,-574,-318,258,148,-446
0,5088712,200,-1875,-383,-1027,-574,-318,258,148,-446
0,5088721,201,-1874,-381,-1030,-567,-316,258,148,-446
0,5088732,201,-1874,-381,-1030,-567,-316,258,148,-446
0,5088741,203,-1870,-385,-1030,-568,-326,259,137,-439
0,5088753,203,-1870,-385,-1030,-568,-326,259,137,-439
0,5088762,202,-1872,-385,-1021,-567,-325,259,137,-439
0,5088770,202,-1872,-385,-1021,-567,-325,259,137,-439
0,5088775,202,-1872,-385,-1021,-567,-325,259,137,-439
0,5088782,203,-1874,-388,-1017,-562,-327,259,137,-439
0,5088788,203,-1874,-388,-1017,-562,-327,259,137,-439
0,5088797,203,-1874,-388,-1017,-562,-327,259,137,-439
0,5088803,200,-1875,-381,-1024,-565,-321,259,137,-439
0,5088809,200,-1875,-381,-1024,-565,-321,259,137,-439
0,5088818,200,-1875,-381,-1024,-565,-321,259,137,-439
0,5088824,201,-1873,-380,-1026,-569,-321,259,137,-439
0,5088831,201,-1873,-380,-1026,-569,-321,259,137,-439
0,5088839,200,-1875,-387,-1024,-560,-325,259,137,-439
0,5088846,200,-1875,-387,-1024,-560,-325,259,137,-439
0,5088851,200,-1875,-387,-1024,-560,-325,259,137,-439
0,5088860,201,-1873,-383,-1024,-561,-326,259,137,-439
0,5088868,201,-1873,-383,-1024,-561,-326,259,137,-439
0,5088875,201,-1873,-383,-1024,-561,-326,259,137,-439
0,5088882,200,-1875,-379,-1037,-566,-328,260,150,-440
0,5088890,200,-1875,-379,-1037,-566,-328,260,150,-440
0,5088898,200,-1875,-379,-1037,-566,-328,260,150,-440
0,5088904,201,-1875,-384,-1025,-567,-324,260,150,-440
0,5088911,201,-1875,-384,-1025,-567,-324,260,150,-440
0,5088917,201,-1875,-384,-1025,-567,-324,260,150,-440
0,5088924,202,-1872,-384,-1018,-558,-317,260,150,-440
0,5088931,202,-1872,-384,-1018,-558,-317,260,150,-440
0,5088940,200,-1872,-381,-1021,-565,-316,260,150,-440
0,5088947,200,-1872,-381,-1021,-565,-316,260,150,-440
0,5088952,200,-1872,-381,-1021,-565,-316,260,150,-440
0,5088959,201,-1876,-381,-1028,-566,-322,260,150,-440
0,5088967,201,-1876,-381,-1028,-566,-322,260,150,-440
0,5088974,201,-1876,-381,-1028,-566,-322,260,150,-440
0,5088982,201,-1874,-384,-1026,-565,-322,260,150,-440
0,5088989,201,-1874,-384,-1026,-565,-322,260,150,-440
0,5088995,201,-1874,-384,-1026,-565,-322,260,150,-440
0,5089000,199,-1874,-384,-1022,-567,-327,255,143,-445
0,5089008,199,-1874,-384,-1022,-567,-327,255,143,-445
0,5089014,199,-1874,-384,-1022,-567,-327,255,143,-445
0,5089019,200,-1874,-383,-1027,-570,-328,255,143,-445
0,5089026,200,-1874,-383,-1027,-570,-328,255,143,-445
0,5089033,200,-1874,-383,-1027,-570,-328,255,143,-445
0,5089040,200,-1874,-383,-1027,-570,-328,255,143,-445
0,5089047,200,-1874,-383,-1027,-570,-328,255,143,-445
0,5089053,200,-1874,-383,-1027,-570,-328,255,143,-445
0,5089060,200,-1873,-382,-1020,-558,-328,255,143,-445
0,5089067,200,-1873,-382,-1020,-558,-328,255,143,-445
0,5089075,200,-1873,-382,-1020,-558,-328,255,143,-445
0,5089082,198,-1875,-386,-1025,-560,-325,255,143,-445
0,5089089,198,-1875,-386,-1025,-560,-325,255,143,-445
0,5089095,198,-1875,-386,-1025,-560,-325,255,143,-445
0,5089102,200,-1875,-381,-1025,-567,-324,255,143,-445
0,5089110,200,-1875,-381,-1025,-567,-324,255,143,-445
0,5089116,200,-1875,-381,-1025,-567,-324,255,143,-445
0,5089124,199,-1875,-383,-1025,-563,-324,255,143,-445
0,5089130,199,-1875,-383,-1025,-563,-324,255,143,-445
0,5089136,199,-1875,-383,-1025,-563,-324,255,143,-445
0,5089143,199,-1874,-379,-1033,-565,-320,263,145,-449
0,5089150,199,-1874,-379,-1033,-565,-320,263,145,-449
0,5089156,199,-1874,-379,-1033,-565,-320,263,145,-449
0,5089162,201,-1874,-379,-1031,-570,-319,263,145,-449
0,5089167,201,-1874,-379,-1031,-570,-319,263,145,-449
0,5089172,201,-1874,-379,-1031,-570,-319,263,145,-449
0,5089177,201,-1874,-379,-1031,-570,-319,263,145,-449
0,5089185,199,-1875,-377,-1035,-569,-326,263,145,-449
0,5089192,199,-1875,-377,-1035,-569,-326,263,145,-449
0,5089199,199,-1876,-377,-1021,-568,-322,263,145,-449
0,5089205,199,-1876,-377,-1021,-568,-322,263,145,-449
0,5089211,199,-1876,-377,-1021,-568,-322,263,145,-449
0,5089217,199,-1876,-377,-1021,-568,-322,263,145,-449
0,5089224,199,-1875,-384,-1026,-571,-325,263,145,-449
0,5089230,199,-1875,-384,-1026,-571,-325,263,145,-449
0,5089238,199,-1875,-384,-1026,-571,-325,263,145,-449
0,5089245,201,-1878,-382,-1027,-571,-324,263,145,-449
0,5089253,201,-1878,-382,-1027,-571,-324,263,145,-449
0,5089258,203,-1875,-384,-1022,-572,-322,263,145,-449
0,5089264,203,-1875,-384,-1022,-572,-322,258,142,-442
0,5089269,203,-1875,-384,-1022,-572,-322,258,142,-442
0,5089276,203,-1875,-384,-1022,-572,-322,258,142,-442
0,5089284,201,-1875,-382,-1024,-565,-319,258,142,-442
0,5089291,201,-1875,-382,-1024,-565,-319,258,142,-442
0,5089299,197,-1877,-384,-1030,-571,-322,258,142,-442
0,5089304,197,-1877,-384,-1030,-571,-322,258,142,-442
0,5089311,197,-1877,-384,-1030,-571,-322,258,142,-442
0,5089319,201,-1874,-385,-1027,-567,-319,258,142,-442
0,5089326,201,-1874,-385,-1027,-567,-319,258,142,-442
0,5089333,201,-1874,-385,-1027,-567,-319,258,142,-442
0,5089339,201,-1872,-380,-1023,-563,-322,258,142,-442
0,5089346,201,-1872,-380,-1023,-563,-322,258,142,-442
0,5089353,201,-1872,-380,-1023,-563,-322,258,142,-442
0,5089360,200,-1874,-384,-1028,-562,-325,258,142,-442
0,5089367,200,-1874,-384,-1028,-562,-325,258,142,-442
0,5089374,200,-1874,-384,-1028,-562,-325,258,142,-442
0,5089381,203,-1872,-382,-1031,-564,-323,258,142,-442
0,5089386,203,-1872,-382,-1031,-564,-323,258,142,-442
0,5089394,203,-1872,-382,-1031,-564,-323,258,142,-442
0,5089401,198,-1874,-376,-1033,-563,-326,257,137,-445
0,5089408,198,-1874,-376,-1033,-563,-326,257,137,-445
0,5089416,198,-1874,-376,-1033,-563,-326,257,137,-445
0,5089423,199,-1873,-374,-1023,-555,-322,257,137,-445
0,5089430,199,-1873,-374,-1023,-555,-322,257,137,-445
0,5089436,199,-1873,-374,-1023,-555,-322,257,137,-445
0,5089442,203,-1874,-385,-1024,-566,-320,257,137,-445
0,5089449,203,-1874,-385,-1024,-566,-320,257,137,-445
0,5089457,203,-1874,-385,-1024,-566,-320,257,137,-445
0,5089464,204,-1873,-381,-1026,-561,-326,257,137,-445
0,5089472,204,-1873,-381,-1026,-561,-326,257,137,-445
0,5089478,204,-1873,-381,-1026,-561,-326,257,137,-445
0,5089484,201,-1873,-384,-1025,-565,-325,257,137,-445
0,5089491,201,-1873,-384,-1025,-565,-325,257,137,-445
0,5089497,201,-1873,-384,-1025,-565,-325,257,137,-445
0,5089502,199,-1875,-383,-1031,-563,-323,257,137,-445
0,5089507,199,-1875,-383,-1031,-563,-323,257,137,-445
0,5089512,199,-1875,-383,-1031,-563,-323,257,137,-445
0,5089517,199,-1875,-383,-1031,-563,-323,257,137,-445
0,5089523,199,-1873,-382,-1023,-560,-322,258,142,-444
0,5089529,199,-1873,-382,-1023,-560,-322,258,142,-444
0,5089537,199,-1873,-382,-1023,-560,-322,258,142,-444
0,5089545,200,-1875,-384,-1022,-565,-325,258,142,-444
0,5089552,200,-1875,-384,-1022,-565,-325,258,142,-444
0,5089559,203,-1876,-380,-1027,-563,-323,258,142,-444
0,5089565,203,-1876,-380,-1027,-563,-323,258,142,-444
0,5089572,203,-1876,-380,-1027,-563,-323,258,142,-444
0,5089580,200,-1874,-382,-1017,-563,-322,258,142,-444
0,5089586,200,-1874,-382,-1017,-563,-322,258,142,-444
0,5089593,200,-1874,-382,-1017,-563,-322,258,142,-444
0,5089599,201,-1872,-385,-1021,-567,-319,258,142,-444
0,5089605,201,-1872,-385,-1021,-567,-319,258,142,-444
0,5089611,201,-1872,-385,-1021,-567,-319,258,142,-444
0,5089618,201,-1872,-385,-1021,-567,-319,258,142,-444
0,5089626,201,-1875,-381,-1017,-565,-317,258,142,-444
0,5089632,201,-1875,-381,-1017,-565,-317,258,142,-444
0,5089637,201,-1875,-381,-1017,-565,-317,258,142,-444
0,5089642,202,-1870,-384,-1022,-566,-320,256,146,-442
0,5089647,202,-1870,-384,-1022,-566,-320,256,146,-442
0,5089653,202,-1870,-384,-1022,-566,-320,256,146,-442
0,5089659,201,-1873,-378,-1024,-563,-319,256,146,-442
0,5089667,201,-1873,-378,-1024,-563,-319,256,146,-442
0,5089674,201,-1873,-378,-1024,-563,-319,256,146,-442
0,5089681,201,-1873,-379,-1022,-564,-328,256,146,-442
0,5089687,201,-1873,-379,-1022,-564,-328,256,146,-442
0,5089694,201,-1873,-379,-1022,-564,-328,256,146,-442
0,5089701,199,-1875,-380,-1031,-563,-324,256,146,-442
0,5089710,199,-1875,-380,-1031,-563,-324,256,146,-442
0,5089717,199,-1875,-380,-1031,-563,-324,256,146,-442
0,5089724,203,-1873,-384,-1027,-561,-321,256,146,-442
0,5089731,203,-1873,-384,-1027,-561,-321,256,146,-442
0,5089738,203,-1873,-384,-1027,-561,-321,256,146,-442
0,5089745,199,-1875,-383,-1026,-568,-318,256,146,-442
0,5089752,199,-1875,-383,-1026,-568,-318,256,146,-442
0,5089757,199,-1875,-383,-1026,-568,-318,256,146,-442
0,5089765,199,-1875,-389,-1018,-568,-323,256,146,-442
0,5089777,199,-1875,-389,-1018,-568,-323,256,146,-442
0,5089789,200,-1876,-380,-1016,-567,-321,258,142,-448
0,5089797,200,-1876,-380,-1016,-567,-321,258,142,-448
0,5089807,200,-1874,-384,-1024,-566,-316,258,142,-448
0,5089819,202,-1873,-386,-1025,-564,-321,258,142,-448
0,5089831,202,-1873,-386,-1025,-564,-321,258,142,-448
0,5089845,201,-1876,-383,-1027,-565,-323,258,142,-448
0,5089856,201,-1876,-383,-1027,-565,-323,258,142,-448
0,5089868,201,-1874,-384,-1032,-570,-321,258,142,-448
0,5089879,201,-1874,-384,-1032,-570,-321,258,142,-448
0,5089890,197,-1873,-385,-1024,-567,-311,258,142,-448
0,5089904,202,-1874,-376,-1020,-565,-317,259,145,-443
0,5089915,202,-1874,-376,-1020,-565,-317,259,145,-443
0,5089928,200,-1874,-383,-1031,-576,-321,259,145,-443
0,5089942,201,-1872,-385,-1031,-570,-323,259,145,-443
0,5089954,201,-1872,-385,-1031,-570,-323,259,145,-443
0,5089966,199,-1871,-381,-1026,-565,-322,259,145,-443
0,5089978,199,-1871,-381,-1026,-565,-322,259,145,-443
0,5089991,204,-1873,-385,-1024,-565,-330,259,145,-443
0,5090003,202,-1876,-383,-1027,-574,-323,259,145,-443
0,5090016,202,-1876,-383,-1027,-574,-323,259,145,-443
0,5090030,199,-1871,-387,-1032,-567,-317,259,145,-443
0,5090043,201,-1875,-383,-1029,-562,-320,258,148,-442
0,5090056,201,-1875,-383,-1029,-562,-320,258,148,-442
0,5090070,204,-1874,-380,-1026,-569,-323,258,148,-442
0,5090080,198,-1875,-386,-1030,-567,-323,258,148,-442
0,5090093,198,-1875,-386,-1030,-567,-323,258,148,-442
0,5090106,198,-1874,-380,-1030,-569,-323,258,148,-442
0,5090120,201,-1875,-380,-1023,-571,-320,258,148,-442
0,5090132,201,-1875,-380,-1023,-571,-320,258,148,-442
0,5090145,199,-1871,-382,-1019,-571,-325,258,148,-442
0,5090158,199,-1871,-382,-1019,-571,-325,258,148,-442
0,5090171,198,-1872,-378,-1028,-567,-327,258,150,-446
0,5090184,202,-1874,-378,-1024,-568,-326,258,150,-446
0,5090192,202,-1874,-378,-1024,-568,-326,258,150,-446
0,5090200,197,-1874,-385,-1020,-565,-326,258,150,-446
0,5090208,197,-1874,-385,-1020,-565,-326,258,150,-446
0,5090216,197,-1874,-385,-1020,-565,-326,258,150,-446
0,5090227,199,-1873,-378,-1026,-559,-324,258,150,-446
0,5090235,199,-1873,-378,-1026,-559,-324,258,150,-446
0,5090244,202,-1872,-388,-1029,-561,-323,258,150,-446
0,5090252,202,-1872,-388,-1029,-561,-323,258,150,-446
0,5090262,202,-1877,-385,-1020,-560,-326,258,150,-446
0,5090271,202,-1877,-385,-1020,-560,-326,258,150,-446
0,5090280,203,-1877,-386,-1021,-572,-323,257,151,-445
0,5090288,203,-1877,-386,-1021,-572,-323,257,151,-445
0,5090297,203,-1877,-386,-1021,-572,-323,257,151,-445
0,5090307,199,-1876,-382,-1020,-566,-319,257,151,-445
0,5090320,201,-1873,-380,-1028,-564,-324,257,151,-445
0,5090332,201,-1873,-380,-1028,-564,-324,257,151,-445
0,5090342,199,-1875,-382,-1028,-568,-325,257,151,-445
0,5090357,199,-1875,-382,-1028,-568,-325,257,151,-445
0,5090368,200,-1873,-381,-1024,-572,-328,257,151,-445
0,5090380,203,-1874,-382,-1022,-570,-325,257,151,-445
0,5090393,203,-1874,-382,-1022,-570,-325,257,151,-445
0,5090405,203,-1874,-382,-1024,-559,-328,257,151,-445
0,5090420,200,-1873,-383,-1027,-564,-325,257,151,-445
0,5090433,200,-1873,-383,-1027,-564,-325,254,140,-446
0,5090444,201,-1879,-385,-1025,-563,-327,254,140,-446
0,5090456,201,-1879,-385,-1025,-563,-327,254,140,-446
0,5090471,200,-1871,-379,-1022,-563,-325,254,140,-446
0,5090484,199,-1872,-383,-1024,-563,-325,254,140,-446
0,5090494,199,-1872,-383,-1024,-563,-325,254,140,-446
0,5090502,199,-1877,-383,-1018,-565,-322,254,140,-446
0,5090510,199,-1877,-383,-1018,-565,-322,254,140,-446
0,5090519,199,-1877,-383,-1018,-565,-322,254,140,-446
0,5090529,198,-1872,-392,-1022,-567,-319,254,140,-446
0,5090541,199,-1877,-385,-1024,-566,-329,254,148,-444
0,5090550,199,-1877,-385,-1024,-566,-329,254,148,-444
0,5090560,199,-1877,-385,-1024,-566,-329,254,148,-444
0,5090568,200,-1874,-384,-1028,-570,-325,254,148,-444
0,5090578,200,-1874,-384,-1028,-570,-325,254,148,-444
0,5090588,196,-1876,-384,-1020,-569,-327,254,148,-444
0,5090601,199,-1871,-384,-1029,-570,-325,254,148,-444
0,5090611,199,-1871,-384,-1029,-570,-325,254,148,-444
0,5090623,200,-1871,-386,-1026,-572,-319,254,148,-444
0,5090637,200,-1871,-386,-1026,-572,-319,254,148,-444
0,5090651,200,-1873,-385,-1028,-573,-332,254,148,-444
0,5090661,200,-1873,-390,-1029,-575,-330,254,148,-444
0,5090674,200,-1873,-390,-1029,-575,-330,254,148,-444
0,5090688,202,-1871,-379,-1030,-570,-327,258,152,-446
0,5090701,199,-1872,-386,-1028,-571,-328,258,152,-446
0,5090711,199,-1872,-386,-1028,-571,-328,258,152,-446
0,5090724,201,-1876,-385,-1027,-560,-323,258,152,-446
0,5090738,201,-1876,-385,-1027,-560,-323,258,152,-446
0,5090750,201,-1874,-383,-1018,-560,-325,258,152,-446
0,5090761,201,-1872,-386,-1025,-558,-320,258,152,-446
0,5090772,201,-1872,-386,-1025,-558,-320,258,152,-446
0,5090779,201,-1872,-386,-1025,-558,-320,258,152,-446
0,5090784,200,-1872,-387,-1024,-559,-318,258,152,-446
0,5090789,200,-1872,-387,-1024,-559,-318,258,152,-446
0,5090794,200,-1872,-387,-1024,-559,-318,258,152,-446
0,5090799,200,-1872,-387,-1024,-559,-318,258,152,-446
0,5090806,203,-1874,-382,-1033,-559,-316,264,142,-444
0,5090813,203,-1874,-382,-1033,-559,-316,264,142,-444
0,5090822,202,-1876,-378,-1030,-563,-326,264,142,-444
0,5090827,202,-1876,-378,-1030,-563,-326,264,142,-444
0,5090835,202,-1876,-378,-1030,-563,-326,264,142,-444
0,5090842,199,-1875,-386,-1021,-570,-319,264,142,-444
0,5090850,199,-1875,-386,-1021,-570,-319,264,142,-444
0,5090856,199,-1875,-386,-1021,-570,-319,264,142,-444
0,5090864,203,-1877,-386,-1025,-566,-327,264,142,-444
0,5090870,203,-1877,-386,-1025,-566,-327,264,142,-444
0,5090878,203,-1877,-386,-1025,-566,-327,264,142,-444
0,5090885,199,-1874,-386,-1029,-568,-321,264,142,-444
0,5090892,199,-1874,-386,-1029,-568,-321,264,142,-444
0,5090900,201,-1873,-386,-1033,-569,-318,264,142,-444
0,5090908,201,-1873,-386,-1033,-569,-318,264,142,-444
0,5090915,201,-1873,-386,-1033,-569,-318,264,142,-444
0,5090922,201,-1874,-384,-1027,-569,-320,264,142,-444
0,5090928,201,-1874,-384,-1027,-569,-320,264,142,-444
0,5090935,201,-1874,-384,-1027,-569,-320,264,142,-444
0,5090941,201,-1876,-380,-1029,-564,-324,252,146,-444
0,5090950,201,-1876,-380,-1029,-564,-324,252,146,-444
0,5090957,201,-1876,-380,-1029,-564,-324,252,146,-444
0,5090964,200,-1873,-381,-1031,-566,-326,252,146,-444
0,5090970,200,-1873,-381,-1031,-566,-326,252,146,-444
0,5090977,200,-1873,-381,-1031,-566,-326,252,146,-444
0,5090984,203,-1874,-380,-1025,-562,-323,252,146,-444
0,5090992,203,-1874,-380,-1025,-562,-323,252,146,-444
0,5090998,203,-1874,-380,-1025,-562,-323,252,146,-444
0,5091005,202,-1873,-382,-1033,-568,-321,252,146,-444
0,5091013,202,-1873,-382,-1033,-568,-321,252,146,-444
0,5091019,202,-1873,-382,-1033,-568,-321,252,146,-444
0,5091026,200,-1874,-384,-1027,-570,-319,252,146,-444
0,5091034,200,-1874,-384,-1027,-570,-319,252,146,-444
0,5091041,198,-1874,-385,-1026,-569,-317,252,146,-444
0,5091047,198,-1874,-385,-1026,-569,-317,252,146,-444
0,5091056,198,-1874,-385,-1026,-569,-317,252,146,-444
0,5091061,200,-1876,-381,-1012,-569,-321,259,147,-445
0,5091069,200,-1876,-381,-1012,-569,-321,259,147,-445
0,5091077,200,-1876,-381,-1012,-569,-321,259,147,-445
0,5091083,200,-1873,-382,-1026,-564,-319,259,147,-445
0,5091090,200,-1873,-382,-1026,-564,-319,259,147,-445
0,5091098,200,-1873,-382,-1026,-564,-319,259,147,-445
0,5091104,201,-1876,-383,-1031,-572,-320,259,147,-445
0,5091111,201,-1876,-383,-1031,-572,-320,259,147,-445
0,5091120,201,-1876,-383,-1031,-572,-320,259,147,-445
0,5091126,200,-1875,-384,-1031,-572,-319,259,147,-445
0,5091132,200,-1875,-384,-1031,-572,-319,259,147,-445
0,5091140,200,-1875,-384,-1031,-572,-319,259,147,-445
0,5091147,200,-1872,-385,-1033,-571,-322,259,147,-445
0,5091154,200,-1872,-385,-1033,-571,-322,259,147,-445
0,5091162,201,-1872,-385,-1033,-568,-329,259,147,-445
0,5091169,201,-1872,-385,-1033,-568,-329,259,147,-445
0,5091177,201,-1872,-385,-1033,-568,-329,259,147,-445
0,5091184,201,-1875,-385,-1021,-572,-328,254,140,-442
0,5091191,201,-1875,-385,-1021,-572,-328,254,140,-442
0,5091198,201,-1875,-385,-1021,-572,-328,254,140,-442
0,5091206,202,-1874,-376,-1038,-567,-319,254,140,-442
0,5091212,202,-1874,-376,-1038,-567,-319,254,140,-442
0,5091220,202,-1874,-376,-1038,-567,-319,254,140,-442
0,5091227,200,-1874,-380,-1035,-566,-320,254,140,-442
0,5091232,200,-1874,-380,-1035,-566,-320,254,140,-442
0,5091237,200,-1874,-380,-1035,-566,-320,254,140,-442
0,5091243,203,-1872,-379,-1025,-566,-321,254,140,-442
0,5091249,203,-1872,-379,-1025,-566,-321,254,140,-442
0,5091257,203,-1872,-379,-1025,-566,-321,254,140,-442
0,5091262,201,-1878,-386,-1028,-568,-327,254,140,-442
0,5091270,201,-1878,-386,-1028,-568,-327,254,140,-442
0,5091277,201,-1878,-386,-1028,-568,-327,254,140,-442
0,5091284,201,-1874,-386,-1027,-562,-321,254,140,-442
0,5091292,201,-1874,-386,-1027,-562,-321,254,140,-442
0,5091297,201,-1874,-386,-1027,-562,-321,254,140,-442
0,5091303,203,-1873,-387,-1029,-562,-327,254,140,-442
0,5091310,203,-1873,-387,-1029,-562,-327,254,140,-442
0,5091318,203,-1873,-387,-1029,-562,-327,254,140,-442
0,5091324,202,-1874,-383,-1028,-567,-327,263,145,-445
0,5091330,202,-1874,-383,-1028,-567,-327,263,145,-445
0,5091338,202,-1874,-383,-1028,-567,-327,263,145,-445
0,5091346,203,-1875,-382,-1026,-570,-326,263,145,-445
0,5091353,203,-1875,-382,-1026,-570,-326,263,145,-445
0,5091360,203,-1875,-382,-1026,-570,-326,263,145,-445
0,5091366,204,-1872,-382,-1022,-569,-322,263,145,-445
0,5091374,204,-1872,-382,-1022,-569,-322,263,145,-445
0,5091380,204,-1872,-382,-1022,-569,-322,263,145,-445
0,5091388,199,-1876,-386,-1025,-561,-314,263,145,-445
0,5091395,199,-1876,-386,-1025,-561,-314,263,145,-445
0,5091403,201,-1876,-383,-1026,-562,-319,263,145,-445
0,5091409,201,-1876,-383,-1026,-562,-319,263,145,-445
0,5091416,201,-1876,-383,-1026,-562,-319,263,145,-445
0,5091423,201,-1876,-385,-1024,-567,-332,263,145,-445
0,5091430,201,-1876,-385,-1024,-567,-332,263,145,-445
0,5091437,201,-1876,-385,-1024,-567,-332,263,145,-445
0,5091445,199,-1875,-378,-1028,-572,-321,260,140,-452
0,5091451,199,-1875,-378,-1028,-572,-321,260,140,-452
0,5091459,199,-1875,-378,-1028,-572,-321,260,140,-452
0,5091464,200,-1876,-376,-1027,-566,-319,260,140,-452
0,5091471,200,-1876,-376,-1027,-566,-319,260,140,-452
0,5091479,200,-1876,-376,-1027,-566,-319,260,140,-452
0,5091487,201,-1876,-387,-1024,-562,-326,260,140,-452
0,5091492,201,-1876,-387,-1024,-562,-326,260,140,-452
0,5091497,201,-1876,-387,-1024,-562,-326,260,140,-452
0,5091503,199,-1879,-384,-1028,-569,-332,260,140,-452
0,5091508,199,-1879,-384,-1028,-569,-332,260,140,-452
0,5091513,199,-1879,-384,-1028,-569,-332,260,140,-452
0,5091518,199,-1879,-384,-1028,-569,-332,260,140,-452
0,5091523,200,-1872,-385,-1024,-565,-324,260,140,-452
0,5091530,200,-1872,-385,-1024,-565,-324,260,140,-452
0,5091537,200,-1872,-385,-1024,-565,-324,260,140,-452
0,5091546,196,-1874,-381,-1028,-566,-330,260,140,-452
0,5091554,196,-1874,-381,-1028,-566,-330,260,140,-452
0,5091561,200,-1874,-382,-1034,-568,-319,260,140,-452
0,5091568,200,-1874,-382,-1034,-568,-319,260,140,-452
0,5091574,200,-1874,-382,-1034,-568,-319,260,140,-452
0,5091581,201,-1874,-376,-1032,-560,-319,258,142,-448
0,5091588,201,-1874,-376,-1032,-560,-319,258,142,-448
0,5091595,201,-1874,-376,-1032,-560,-319,258,142,-448
0,5091601,201,-1874,-376,-1032,-560,-319,258,142,-448
0,5091608,201,-1875,-381,-1034,-561,-317,258,142,-448
0,5091616,201,-1875,-381,-1034,-561,-317,258,142,-448
0,5091622,198,-1872,-387,-1024,-568,-319,258,142,-448
0,5091629,198,-1872,-387,-1024,-568,-319,258,142,-448
0,5091636,198,-1872,-387,-1024,-568,-319,258,142,-448
0,5091642,200,-1873,-385,-1021,-564,-324,258,142,-448
0,5091648,200,-1873,-385,-1021,-564,-324,258,142,-448
0,5091655,200,-1873,-385,-1021,-564,-324,258,142,-448
0,5091662,200,-1874,-385,-1024,-568,-325,258,142,-448
0,5091670,200,-1874,-385,-1024,-568,-325,258,142,-448
0,5091677,200,-1874,-385,-1024,-568,-325,258,142,-448
0,5091682,201,-1872,-385,-1025,-563,-319,258,142,-448
0,5091689,201,-1872,-385,-1025,-563,-319,258,142,-448
0,5091697,201,-1872,-385,-1025,-563,-319,258,142,-448
0,5091704,202,-1874,-386,-1022,-559,-316,256,140,-444
0,5091713,202,-1874,-386,-1022,-559,-316,256,140,-444
0,5091719,202,-1874,-386,-1022,-559,-316,256,140,-444
0,5091725,199,-1873,-383,-1029,-563,-323,256,140,-444
0,5091733,199,-1873,-383,-1029,-563,-323,256,140,-444
0,5091739,199,-1873,-383,-1029,-563,-323,256,140,-444
0,5091745,199,-1873,-383,-1029,-563,-323,256,140,-444
0,5091752,199,-1873,-383,-1029,-563,-323,256,140,-444
0,5091760,199,-1873,-383,-1029,-563,-323,256,140,-444
0,5091765,200,-1873,-388,-1023,-566,-321,256,140,-444
0,5091772,200,-1873,-388,-1023,-566,-321,256,140,-444
0,5091785,199,-1872,-389,-1031,-569,-324,256,140,-444
0,5091793,199,-1872,-389,-1031,-569,-324,256,140,-444
0,5091803,203,-1873,-381,-1027,-570,-329,256,140,-444
0,5091811,203,-1873,-381,-1027,-570,-329,256,140,-444
0,5091818,203,-1873,-381,-1027,-570,-329,256,140,-444
0,5091827,199,-1873,-387,-1022,-571,-312,256,140,-444
0,5091835,199,-1873,-387,-1022,-571,-312,256,140,-444
0,5091843,201,-1874,-379,-1034,-566,-321,254,156,-446
0,5091852,201,-1874,-379,-1034,-566,-321,254,156,-446
0,5091862,199,-1874,-383,-1036,-567,-320,254,156,-446
0,5091870,199,-1874,-383,-1036,-567,-320,254,156,-446
0,5091881,199,-1874,-383,-1036,-567,-320,254,156,-446
0,5091893,199,-1872,-385,-1029,-564,-316,254,156,-446
0,5091906,198,-1874,-384,-1023,-566,-322,254,156,-446
0,5091918,198,-1874,-384,-1023,-566,-322,254,156,-446
0,5091932,200,-1874,-384,-1028,-568,-323,254,156,-446
0,5091945,200,-1875,-385,-1026,-567,-320,254,156,-446
0,5091954,200,-1875,-385,-1026,-567,-320,254,156,-446
0,5091965,201,-1874,-377,-1031,-567,-322,260,150,-446
0,5091981,201,-1874,-377,-1031,-567,-322,260,150,-446
0,5091991,203,-1876,-383,-1032,-566,-324,260,150,-446
0,5092001,199,-1873,-392,-1030,-576,-319,260,150,-446
0,5092012,199,-1873,-392,-1030,-576,-319,260,150,-446
0,5092025,199,-1875,-387,-1029,-572,-323,260,150,-446
0,5092038,199,-1875,-387,-1029,-572,-323,260,150,-446
0,5092050,202,-1875,-378,-1029,-563,-325,260,150,-446
0,5092064,198,-1876,-385,-1033,-568,-323,260,150,-446
0,5092078,198,-1876,-385,-1033,-568,-323,260,150,-446
0,5092090,199,-1874,-380,-1033,-566,-323,262,136,-452
0,5092102,201,-1876,-379,-1037,-561,-326,262,136,-452
0,5092115,201,-1876,-379,-1037,-561,-326,262,136,-452
0,5092127,199,-1876,-387,-1027,-567,-330,262,136,-452
0,5092140,199,-1876,-387,-1027,-567,-330,262,136,-452
0,5092152,202,-1873,-380,-1026,-566,-326,262,136,-452
0,5092164,201,-1874,-379,-1030,-569,-327,262,136,-452
0,5092176,201,-1874,-379,-1030,-569,-327,262,136,-452
0,5092187,202,-1875,-389,-1025,-569,-328,262,136,-452
0,5092200,202,-1875,-389,-1025,-569,-328,262,136,-452
0,5092214,198,-1875,-384,-1020,-565,-318,262,136,-452
0,5092231,200,-1873,-374,-1021,-569,-323,257,145,-445
0,5092242,200,-1873,-374,-1021,-569,-323,257,145,-445
0,5092253,200,-1879,-383,-1018,-564,-324,257,145,-445
0,5092265,202,-1879,-388,-1024,-560,-325,257,145,-445
0,5092280,202,-1879,-388,-1024,-560,-325,257,145,-445
0,5092288,198,-1875,-388,-1023,-566,-320,257,145,-445
0,5092298,198,-1875,-388,-1023,-566,-320,257,145,-445
0,5092313,197,-1873,-386,-1021,-572,-321,257,145,-445
0,5092324,199,-1875,-382,-1030,-574,-320,257,145,-445
0,5092338,199,-1875,-382,-1030,-574,-320,257,145,-445
0,5092352,200,-1874,-376,-1023,-573,-325,257,147,-447
0,5092365,201,-1876,-385,-1025,-568,-328,257,147,-447
0,5092378,201,-1876,-385,-1025,-568,-328,257,147,-447
0,5092390,199,-1875,-383,-1028,-576,-326,257,147,-447
0,5092403,201,-1875,-388,-1025,-566,-328,257,147,-447
0,5092414,201,-1875,-388,-1025,-566,-328,257,147,-447
0,5092422,200,-1876,-387,-1018,-572,-326,257,147,-447
0,5092431,200,-1876,-387,-1018,-572,-326,257,147,-447
0,5092440,200,-1876,-387,-1018,-572,-326,257,147,-447
0,5092448,199,-1873,-382,-1021,-564,-319,257,147,-447
0,5092456,199,-1873,-382,-1021,-564,-319,257,147,-447
0,5092464,201,-1876,-383,-1029,-562,-324,257,147,-447
0,5092473,201,-1876,-383,-1029,-562,-324,257,147,-447
0,5092483,199,-1876,-376,-1028,-564,-325,257,147,-447
0,5092492,199,-1876,-376,-1028,-564,-325,261,141,-441
0,5092500,199,-1876,-376,-1028,-564,-325,261,141,-441
0,5092507,198,-1874,-385,-1024,-567,-323,261,141,-441
0,5092515,198,-1874,-385,-1024,-567,-323,261,141,-441
0,5092526,199,-1872,-380,-1028,-570,-324,261,141,-441
0,5092536,199,-1872,-380,-1028,-570,-324,261,141,-441
0,5092545,201,-1875,-383,-1024,-574,-322,261,141,-441
0,5092554,201,-1875,-383,-1024,-574,-322,261,141,-441
0,5092564,200,-1875,-389,-1026,-563,-322,261,141,-441
0,5092578,200,-1875,-389,-1026,-563,-322,261,141,-441
0,5092591,201,-1871,-386,-1024,-562,-324,261,141,-441
0,5092603,197,-1875,-382,-1027,-563,-320,254,142,-444
0,5092617,197,-1875,-382,-1027,-563,-320,254,142,-444
0,5092628,200,-1873,-375,-1030,-562,-316,254,142,-444
0,5092640,200,-1873,-375,-1030,-562,-316,254,142,-444
0,5092653,197,-1874,-380,-1021,-562,-323,254,142,-444
0,5092668,198,-1873,-384,-1025,-569,-324,254,142,-444
0,5092680,198,-1873,-384,-1025,-569,-324,254,142,-444
0,5092694,200,-1873,-383,-1031,-568,-324,254,142,-444
0,5092707,197,-1877,-382,-1029,-567,-327,254,142,-444
0,5092720,197,-1877,-382,-1029,-567,-327,254,142,-444
0,5092733,200,-1875,-387,-1021,-564,-319,254,142,-444
0,5092748,197,-1874,-385,-1036,-575,-321,254,142,-444
0,5092760,197,-1874,-385,-1036,-575,-321,254,142,-444
0,5092771,202,-1875,-384,-1039,-574,-319,254,142,-444
0,5092784,200,-1876,-380,-1033,-568,-324,254,142,-444
0,5092789,200,-1876,-380,-1033,-568,-324,254,142,-444
0,5092795,200,-1876,-380,-1033,-568,-324,254,142,-444
0,5092802,200,-1876,-380,-1033,-568,-324,254,142,-444
0,5092809,202,-1874,-384,-1026,-563,-321,254,142,-444
0,5092816,202,-1874,-384,-1026,-563,-321,254,142,-444
0,5092823,202,-1874,-384,-1026,-563,-321,254,142,-444
0,5092829,201,-1877,-388,-1016,-563,-325,254,142,-444
0,5092835,201,-1877,-388,-1016,-563,-325,254,142,-444
0,5092843,200,-1872,-388,-1021,-565,-324,254,142,-444
0,5092849,200,-1872,-388,-1021,-565,-324,254,142,-444
0,5092856,200,-1872,-388,-1021,-565,-324,254,142,-444
0,5092864,200,-1873,-380,-1019,-566,-321,256,140,-450
0,5092871,200,-1873,-380,-1019,-566,-321,256,140,-450
0,5092878,200,-1873,-380,-1019,-566,-321,256,140,-450
0,5092886,201,-1871,-381,-1024,-567,-315,256,140,-450
0,5092895,201,-1871,-381,-1024,-567,-315,256,140,-450
0,5092902,201,-1871,-381,-1024,-567,-315,256,140,-450
0,5092910,197,-1874,-386,-1029,-568,-319,256,140,-450
0,5092917,197,-1874,-386,-1029,-568,-319,256,140,-450
0,5092925,199,-1872,-380,-1019,-565,-325,256,140,-450
0,5092931,199,-1872,-380,-1019,-565,-325,256,140,-450
0,5092937,199,-1872,-380,-1019,-565,-325,256,140,-450
0,5092942,197,-1875,-384,-1022,-560,-326,256,140,-450
0,5092948,197,-1875,-384,-1022,-560,-326,256,140,-450
0,5092954,197,-1875,-384,-1022,-560,-326,256,140,-450
0,5092960,197,-1875,-384,-1022,-560,-326,256,140,-450
0,5092968,198,-1874,-384,-1027,-564,-325,256,140,-450
0,5092974,198,-1874,-384,-1027,-564,-325,256,140,-450
0,5092980,198,-1874,-384,-1027,-564,-325,256,140,-450
0,5092988,202,-1873,-384,-1029,-565,-325,262,146,-442
0,5092996,202,-1873,-384,-1029,-565,-325,262,146,-442
0,5093001,202,-1873,-384,-1029,-565,-325,262,146,-442
0,5093008,201,-1874,-385,-1027,-570,-323,262,146,-442
0,5093015,201,-1874,-385,-1027,-570,-323,262,146,-442
0,5093023,200,-1875,-385,-1029,-569,-326,262,146,-442
0,5093030,200,-1875,-385,-1029,-569,-326,262,146,-442
0,5093037,200,-1875,-385,-1029,-569,-326,262,146,-442
0,5093044,200,-1874,-386,-1029,-569,-325,262,146,-442
0,5093052,200,-1874,-386,-1029,-569,-325,262,146,-442
0,5093059,200,-1874,-386,-1029,-569,-325,262,146,-442
0,5093065,203,-1874,-390,-1029,-571,-318,262,146,-442
0,5093072,203,-1874,-390,-1029,-571,-318,262,146,-442
0,5093080,203,-1874,-390,-1029,-571,-318,262,146,-442
0,5093086,197,-1873,-387,-1034,-570,-328,262,146,-442
0,5093093,197,-1873,-387,-1034,-570,-328,262,146,-442
0,5093100,197,-1873,-387,-1034,-570,-328,262,146,-442
0,5093105,200,-1870,-387,-1025,-567,-324,262,146,-442
0,5093113,200,-1870,-387,-1025,-567,-324,262,146,-442
0,5093121,200,-1870,-387,-1025,-567,-324,262,146,-442
0,5093128,199,-1871,-381,-1031,-563,-324,254,142,-442
0,5093135,199,-1871,-381,-1031,-563,-324,254,142,-442
0,5093141,199,-1871,-381,-1031,-563,-324,254,142,-442
0,5093148,199,-1875,-383,-1031,-569,-322,254,142,-442
0,5093155,199,-1875,-383,-1031,-569,-322,254,142,-442
0,5093163,199,-1875,-383,-1031,-569,-322,254,142,-442
0,5093169,200,-1873,-388,-1023,-571,-324,254,142,-442
0,5093177,200,-1873,-388,-1023,-571,-324,254,142,-442
0,5093183,200,-1873,-388,-1023,-571,-324,254,142,-442
0,5093191,196,-1873,-387,-1024,-568,-320,254,142,-442
0,5093197,196,-1873,-387,-1024,-568,-320,254,142,-442
0,5093203,202,-1872,-381,-1023,-569,-318,254,142,-442
0,5093211,202,-1872,-381,-1023,-569,-318,254,142,-442
0,5093218,202,-1872,-381,-1023,-569,-318,254,142,-442
0,5093223,202,-1872,-381,-1023,-569,-318,254,142,-442
0,5093230,199,-1876,-386,-1028,-573,-321,254,142,-442
0,5093238,199,-1876,-386,-1028,-573,-321,254,142,-442
0,5093245,199,-1874,-382,-1026,-567,-324,262,146,-444
0,5093252,199,-1874,-382,-1026,-567,-324,262,146,-444
0,5093259,199,-1874,-382,-1026,-567,-324,262,146,-444
0,5093265,199,-1874,-385,-1024,-566,-323,262,146,-444
0,5093272,199,-1874,-385,-1024,-566,-323,262,146,-444
0,5093280,199,-1874,-385,-1024,-566,-323,262,146,-444
0,5093286,201,-1876,-385,-1023,-561,-326,262,146,-444
0,5093294,201,-1876,-385,-1023,-561,-326,262,146,-444
0,5093301,201,-1876,-385,-1023,-561,-326,262,146,-444
0,5093307,197,-1876,-386,-1033,-562,-325,262,146,-444
0,5093312,197,-1876,-386,-1033,-562,-325,262,146,-444
0,5093320,197,-1876,-386,-1033,-562,-325,262,146,-444
0,5093326,197,-1876,-386,-1030,-559,-324,262,146,-444
0,5093335,197,-1876,-386,-1030,-559,-324,262,146,-444
0,5093343,197,-1876,-386,-1030,-559,-324,262,146,-444
0,5093349,199,-1872,-393,-1030,-564,-324,262,146,-444
0,5093357,199,-1872,-393,-1030,-564,-324,262,146,-444
0,5093362,199,-1872,-393,-1030,-564,-324,262,146,-444
0,5093369,200,-1875,-388,-1024,-565,-318,262,146,-444
0,5093377,200,-1875,-388,-1024,-565,-318,262,146,-444
0,5093384,197,-1875,-379,-1020,-566,-322,258,148,-444
0,5093390,197,-1875,-379,-1020,-566,-322,258,148,-444
0,5093398,197,-1875,-379,-1020,-566,-322,258,148,-444
0,5093405,200,-1871,-384,-1018,-566,-329,258,148,-444
0,5093410,200,-1871,-384,-1018,-566,-329,258,148,-444
0,5093416,200,-1871,-384,-1018,-566,-329,258,148,-444
0,5093423,200,-1871,-384,-1018,-566,-329,258,148,-444
0,5093431,200,-1873,-385,-1015,-563,-322,258,148,-444
0,5093438,200,-1873,-385,-1015,-563,-322,258,148,-444
0,5093444,202,-1875,-382,-1024,-562,-323,258,148,-444
0,5093450,202,-1875,-382,-1024,-562,-323,258,148,-444
0,5093455,202,-1875,-382,-1024,-562,-323,258,148,-444
0,5093460,202,-1875,-382,-1024,-562,-323,258,148,-444
0,5093466,200,-1873,-385,-1034,-563,-322,258,148,-444
0,5093473,200,-1873,-385,-1034,-563,-322,258,148,-444
0,5093480,200,-1873,-385,-1034,-563,-322,258,148,-444
0,5093486,199,-1872,-384,-1035,-566,-321,258,148,-444
0,5093491,199,-1872,-384,-1035,-566,-321,258,148,-444
0,5093496,199,-1872,-384,-1035,-566,-321,258,148,-444
0,5093501,199,-1872,-384,-1035,-566,-321,258,148,-444
0,5093507,199,-1873,-380,-1025,-563,-323,258,138,-444
0,5093512,199,-1873,-380,-1025,-563,-323,258,138,-444
0,5093517,199,-1873,-380,-1025,-563,-323,258,138,-444
0,5093524,200,-1870,-383,-1031,-562,-317,258,138,-444
0,5093531,200,-1870,-383,-1031,-562,-317,258,138,-444
0,5093538,200,-1870,-383,-1031,-562,-317,258,138,-444
0,5093544,199,-1872,-382,-1028,-563,-314,258,138,-444
0,5093553,199,-1872,-382,-1028,-563,-314,258,138,-444
0,5093560,199,-1872,-382,-1028,-563,-314,258,138,-444
0,5093566,203,-1872,-387,-1031,-571,-317,258,138,-444
0,5093572,203,-1872,-387,-1031,-571,-317,258,138,-444
0,5093577,203,-1872,-387,-1031,-571,-317,258,138,-444
0,5093583,201,-1876,-389,-1023,-564,-318,258,138,-444
0,5093591,201,-1876,-389,-1023,-564,-318,258,138,-444
0,5093599,201,-1876,-389,-1023,-564,-318,258,138,-444
0,5093606,199,-1872,-390,-1026,-568,-320,258,138,-444
0,5093612,199,-1872,-390,-1026,-568,-320,258,138,-444
0,5093619,199,-1872,-390,-1026,-568,-320,258,138,-444
