imu,time,ax,ay,az,gx,gy,gz,mx,my,mz
1,5009129,422,-1364,-488,-1477,-308,-42,380,152,-274
1,5009134,425,-1362,-492,-1483,-303,-42,380,152,-274
1,5009138,425,-1362,-492,-1483,-303,-42,380,152,-274
1,5009143,425,-1362,-492,-1483,-303,-42,380,152,-274
1,5009148,425,-1362,-492,-1483,-303,-42,380,152,-274
1,5009154,423,-1366,-491,-1486,-304,-42,380,152,-274
1,5009159,423,-1366,-491,-1486,-304,-42,380,152,-274
1,5009164,423,-1366,-491,-1486,-304,-42,380,152,-274
1,5009169,423,-1366,-491,-1486,-304,-42,380,152,-274
1,5009174,422,-1366,-488,-1488,-304,-38,380,154,-274
1,5009179,422,-1366,-488,-1488,-304,-38,380,154,-274
1,5009184,422,-1366,-488,-1488,-304,-38,380,154,-274
1,5009189,422,-1366,-488,-1488,-304,-38,380,154,-274
1,5009195,425,-1367,-488,-1485,-299,-36,380,154,-274
1,5009200,425,-1367,-488,-1485,-299,-36,380,154,-274
1,5009206,425,-1367,-488,-1485,-299,-36,380,154,-274
1,5009213,425,-1367,-488,-1485,-299,-36,380,154,-274
1,5009220,424,-1362,-492,-1487,-297,-38,380,154,-274
1,5009226,424,-1362,-492,-1487,-297,-38,380,154,-274
1,5009234,424,-1366,-488,-1483,-298,-40,380,154,-274
1,5009241,424,-1366,-488,-1483,-298,-40,380,154,-274
1,5009247,424,-1366,-488,-1483,-298,-40,380,154,-274
1,5009253,424,-1367,-493,-1485,-302,-41,380,154,-274
1,5009260,424,-1367,-493,-1485,-302,-41,380,154,-274
1,5009266,424,-1367,-493,-1485,-302,-41,380,154,-274
1,5009274,424,-1365,-491,-1480,-300,-35,380,154,-274
1,5009281,424,-1365,-491,-1480,-300,-35,380,154,-274
1,5009288,424,-1365,-491,-1480,-300,-35,380,154,-274
1,5009296,422,-1365,-488,-1479,-305,-41,381,145,-281
1,5009303,422,-1365,-488,-1479,-305,-41,381,145,-281
1,5009311,422,-1365,-488,-1479,-305,-41,381,145,-281
1,5009321,422,-1366,-488,-1479,-302,-45,381,145,-281
1,5009328,422,-1366,-488,-1479,-302,-45,381,145,-281
1,5009333,422,-1366,-488,-1479,-302,-45,381,145,-281
1,5009341,425,-1365,-493,-1485,-301,-35,381,145,-281
1,5009348,425,-1365,-493,-1485,-301,-35,381,145,-281
1,5009355,423,-1364,-490,-1481,-307,-40,381,145,-281
1,5009360,423,-1364,-490,-1481,-307,-40,381,145,-281
1,5009369,423,-1364,-490,-1481,-307,-40,381,145,-281
1,5009377,424,-1363,-489,-1483,-306,-48,381,145,-281
1,5009385,424,-1363,-489,-1483,-306,-48,381,145,-281
1,5009393,424,-1364,-491,-1486,-297,-44,381,145,-281
1,5009400,424,-1364,-491,-1486,-297,-44,381,145,-281
1,5009408,424,-1364,-491,-1486,-297,-44,381,145,-281
1,5009414,422,-1366,-485,-1484,-304,-40,381,145,-281
1,5009421,422,-1366,-485,-1484,-304,-40,381,145,-281
1,5009428,422,-1366,-485,-1484,-304,-40,381,145,-281
1,5009435,424,-1366,-488,-1488,-300,-37,382,154,-266
1,5009442,424,-1366,-488,-1488,-300,-37,382,154,-266
1,5009448,424,-1366,-488,-1488,-300,-37,382,154,-266
1,5009454,423,-1366,-493,-1497,-309,-43,382,154,-266
1,5009459,423,-1366,-493,-1497,-309,-43,382,154,-266
1,5009464,423,-1366,-493,-1497,-309,-43,382,154,-266
1,5009471,423,-1366,-493,-1497,-309,-43,382,154,-266
1,5009477,425,-1366,-490,-1491,-302,-36,382,154,-266
1,5009483,425,-1366,-490,-1491,-302,-36,382,154,-266
1,5009488,425,-1366,-490,-1491,-302,-36,382,154,-266
1,5009494,420,-1364,-488,-1483,-298,-41,382,154,-266
1,5009499,420,-1364,-488,-1483,-298,-41,382,154,-266
1,5009505,420,-1364,-488,-1483,-298,-41,382,154,-266
1,5009510,420,-1364,-488,-1483,-298,-41,382,154,-266
1,5009517,421,-1364,-491,-1485,-300,-41,382,154,-266
1,5009523,421,-1364,-491,-1485,-300,-41,382,154,-266
1,5009530,421,-1364,-491,-1485,-300,-41,382,154,-266
1,5009538,424,-1365,-493,-1480,-306,-42,382,154,-266
1,5009545,424,-1365,-493,-1480,-306,-42,382,154,-266
1,5009552,424,-1365,-493,-1480,-306,-42,382,154,-266
1,5009560,422,-1361,-489,-1480,-304,-50,386,150,-278
1,5009566,422,-1361,-489,-1480,-304,-50,386,150,-278
1,5009573,422,-1361,-489,-1480,-304,-50,386,150,-278
1,5009579,423,-1365,-490,-1481,-303,-41,386,150,-278
1,5009587,423,-1365,-490,-1481,-303,-41,386,150,-278
1,5009594,423,-1366,-494,-1483,-305,-44,386,150,-278
1,5009602,423,-1366,-494,-1483,-305,-44,386,150,-278
1,5009608,423,-1366,-494,-1483,-305,-44,386,150,-278
1,5009614,423,-1365,-490,-1484,-303,-42,386,150,-278
1,5009620,423,-1365,-490,-1484,-303,-42,386,150,-278
1,5009627,423,-1365,-490,-1484,-303,-42,386,150,-278
1,5009633,425,-1363,-488,-1483,-302,-41,386,150,-278
1,5009639,425,-1363,-488,-1483,-302,-41,386,150,-278
1,5009645,425,-1363,-488,-1483,-302,-41,386,150,-278
1,5009653,423,-1364,-490,-1477,-301,-41,386,150,-278
1,5009661,423,-1364,-490,-1477,-301,-41,386,150,-278
1,5009669,423,-1364,-490,-1477,-301,-41,386,150,-278
1,5009675,423,-1366,-485,-1483,-309,-43,388,146,-276
1,5009681,423,-1366,-485,-1483,-309,-43,388,146,-276
1,5009688,423,-1366,-485,-1483,-309,-43,388,146,-276
1,5009692,423,-1366,-485,-1483,-309,-43,388,146,-276
1,5009697,423,-1366,-491,-1487,-311,-42,388,146,-276
1,5009702,423,-1366,-491,-1487,-311,-42,388,146,-276
1,5009708,423,-1366,-491,-1487,-311,-42,388,146,-276
1,5009713,423,-1366,-491,-1487,-311,-42,388,146,-276
1,5009719,421,-1362,-489,-1484,-300,-37,388,146,-276
1,5009724,421,-1362,-489,-1484,-300,-37,388,146,-276
1,5009729,421,-1362,-489,-1484,-300,-37,388,146,-276
1,5009737,424,-1366,-490,-1487,-303,-42,388,146,-276
1,5009744,424,-1366,-490,-1487,-303,-42,388,146,-276
1,5009751,424,-1366,-490,-1487,-303,-42,388,146,-276
1,5009758,424,-1362,-489,-1495,-306,-42,388,146,-276
1,5009765,424,-1362,-489,-1495,-306,-42,388,146,-276
1,5009771,424,-1362,-489,-1495,-306,-42,388,146,-276
1,5009778,423,-1363,-488,-1485,-299,-45,388,146,-276
1,5009786,423,-1363,-488,-1485,-299,-45,388,146,-276
1,5009794,423,-1363,-488,-1485,-299,-45,388,146,-276
1,5009800,426,-1362,-494,-1474,-298,-39,393,149,-279
1,5009806,426,-1362,-494,-1474,-298,-39,393,149,-279
1,5009813,426,-1362,-494,-1474,-298,-39,393,149,-279
1,5009820,426,-1366,-489,-1484,-304,-39,393,149,-279
1,5009827,426,-1366,-489,-1484,-304,-39,393,149,-279
1,5009833,421,-1366,-483,-1486,-312,-41,393,149,-279
1,5009840,421,-1366,-483,-1486,-312,-41,393,149,-279
1,5009849,421,-1366,-483,-1486,-312,-41,393,149,-279
1,5009856,423,-1364,-491,-1484,-307,-43,393,149,-279
1,5009863,423,-1364,-491,-1484,-307,-43,393,149,-279
1,5009870,423,-1364,-491,-1484,-307,-43,393,149,-279
1,5009876,423,-1364,-495,-1490,-302,-45,393,149,-279
1,5009884,423,-1364,-495,-1490,-302,-45,393,149,-279
1,5009891,423,-1364,-495,-1490,-302,-45,393,149,-279
1,5009899,424,-1364,-495,-1480,-309,-41,393,149,-279
1,5009905,424,-1364,-495,-1480,-309,-41,393,149,-279
1,5009910,424,-1364,-495,-1480,-309,-41,393,149,-279
1,5009915,423,-1365,-496,-1484,-304,-39,393,149,-279
1,5009924,423,-1365,-496,-1484,-304,-39,393,149,-279
1,5009930,423,-1365,-496,-1484,-304,-39,393,149,-279
1,5009938,425,-1363,-490,-1485,-304,-36,380,158,-272
1,5009944,425,-1363,-490,-1485,-304,-36,380,158,-272
1,5009951,425,-1363,-490,-1485,-304,-36,380,158,-272
1,5009958,425,-1363,-491,-1482,-301,-35,380,158,-272
1,5009966,425,-1363,-491,-1482,-301,-35,380,158,-272
1,5009973,425,-1363,-491,-1482,-301,-35,380,158,-272
1,5009980,422,-1363,-489,-1486,-301,-31,380,158,-272
1,5009987,422,-1363,-489,-1486,-301,-31,380,158,-272
1,5009993,422,-1363,-489,-1486,-301,-31,380,158,-272
1,5009997,424,-1366,-489,-1484,-302,-30,380,158,-272
1,5010006,424,-1366,-489,-1484,-302,-30,380,158,-272
1,5010014,424,-1363,-491,-1482,-296,-31,380,158,-272
1,5010020,424,-1363,-491,-1482,-296,-31,380,158,-272
1,5010028,424,-1363,-491,-1482,-296,-31,380,158,-272
1,5010034,425,-1364,-484,-1487,-303,-36,380,158,-272
1,5010041,425,-1364,-484,-1487,-303,-36,380,158,-272
1,5010048,425,-1364,-484,-1487,-303,-36,380,158,-272
1,5010056,426,-1367,-483,-1490,-305,-37,387,153,-271
1,5010062,426,-1367,-483,-1490,-305,-37,387,153,-271
1,5010068,426,-1367,-483,-1490,-305,-37,387,153,-271
1,5010074,427,-1364,-491,-1490,-307,-37,387,153,-271
1,5010081,427,-1364,-491,-1490,-307,-37,387,153,-271
1,5010088,427,-1364,-491,-1490,-307,-37,387,153,-271
1,5010097,425,-1365,-486,-1487,-309,-36,387,153,-271
1,5010105,425,-1365,-486,-1487,-309,-36,387,153,-271
1,5010112,425,-1365,-486,-1487,-309,-36,387,153,-271
1,5010119,424,-1363,-491,-1482,-299,-30,387,153,-271
1,5010125,424,-1363,-491,-1482,-299,-30,387,153,-271
1,5010134,424,-1363,-491,-1482,-299,-30,387,153,-271
1,5010140,425,-1365,-489,-1479,-314,-40,387,153,-271
1,5010146,425,-1365,-489,-1479,-314,-40,387,153,-271
1,5010152,425,-1365,-489,-1479,-314,-40,387,153,-271
1,5010160,422,-1366,-493,-1482,-307,-39,387,153,-271
1,5010165,422,-1366,-493,-1482,-307,-39,387,153,-271
1,5010172,422,-1366,-493,-1482,-307,-39,387,153,-271
1,5010178,423,-1366,-488,-1484,-302,-39,379,153,-273
1,5010183,423,-1366,-488,-1484,-302,-39,379,153,-273
1,5010188,423,-1366,-488,-1484,-302,-39,379,153,-273
1,5010193,423,-1366,-488,-1484,-302,-39,379,153,-273
1,5010201,422,-1363,-495,-1485,-303,-42,379,153,-273
1,5010206,422,-1363,-495,-1485,-303,-42,379,153,-273
1,5010214,424,-1362,-485,-1484,-297,-42,379,153,-273
1,5010223,424,-1362,-485,-1484,-297,-42,379,153,-273
1,5010229,424,-1362,-485,-1484,-297,-42,379,153,-273
1,5010234,424,-1364,-494,-1478,-300,-48,379,153,-273
1,5010240,424,-1364,-494,-1478,-300,-48,379,153,-273
1,5010246,424,-1364,-494,-1478,-300,-48,379,153,-273
1,5010251,424,-1364,-494,-1478,-300,-48,379,153,-273
1,5010257,424,-1363,-494,-1485,-302,-38,379,153,-273
1,5010265,424,-1363,-494,-1485,-302,-38,379,153,-273
1,5010273,424,-1363,-494,-1485,-302,-38,379,153,-273
1,5010280,424,-1364,-491,-1483,-301,-41,379,153,-273
1,5010287,424,-1364,-491,-1483,-301,-41,379,153,-273
1,5010294,424,-1367,-490,-1480,-306,-37,379,151,-269
1,5010300,424,-1367,-490,-1480,-306,-37,379,151,-269
1,5010308,424,-1367,-490,-1480,-306,-37,379,151,-269
1,5010315,424,-1363,-489,-1482,-302,-40,379,151,-269
1,5010323,424,-1363,-489,-1482,-302,-40,379,151,-269
1,5010331,424,-1363,-489,-1482,-302,-40,379,151,-269
1,5010338,424,-1364,-492,-1479,-303,-31,379,151,-269
1,5010345,424,-1364,-492,-1479,-303,-31,379,151,-269
1,5010353,424,-1364,-492,-1479,-303,-31,379,151,-269
1,5010361,421,-1366,-493,-1475,-306,-39,379,151,-269
1,5010366,421,-1366,-493,-1475,-306,-39,379,151,-269
1,5010371,421,-1366,-493,-1475,-306,-39,379,151,-269
1,5010377,423,-1367,-493,-1478,-303,-38,379,151,-269
1,5010381,423,-1367,-493,-1478,-303,-38,379,151,-269
1,5010390,423,-1367,-493,-1478,-303,-38,379,151,-269
1,5010398,422,-1364,-486,-1479,-303,-41,379,151,-269
1,5010404,422,-1364,-486,-1479,-303,-41,379,151,-269
1,5010410,422,-1364,-486,-1479,-303,-41,379,151,-269
1,5010418,422,-1365,-486,-1483,-303,-42,379,159,-269
1,5010424,422,-1365,-486,-1483,-303,-42,379,159,-269
1,5010432,422,-1365,-486,-1483,-303,-42,379,159,-269
1,5010440,423,-1363,-490,-1485,-310,-38,379,159,-269
1,5010447,423,-1363,-490,-1485,-310,-38,379,159,-269
1,5010454,422,-1367,-491,-1480,-303,-46,379,159,-269
1,5010461,422,-1367,-491,-1480,-303,-46,379,159,-269
1,5010467,422,-1367,-491,-1480,-303,-46,379,159,-269
1,5010475,423,-1367,-490,-1482,-307,-47,379,159,-269
1,5010481,423,-1367,-490,-1482,-307,-47,379,159,-269
1,5010486,423,-1367,-490,-1482,-307,-47,379,159,-269
1,5010491,423,-1367,-490,-1482,-307,-47,379,159,-269
1,5010497,422,-1364,-489,-1487,-303,-39,379,159,-269
1,5010502,422,-1364,-489,-1487,-303,-39,379,159,-269
1,5010507,422,-1364,-489,-1487,-303,-39,379,159,-269
1,5010512,422,-1364,-489,-1487,-303,-39,379,159,-269
1,5010520,425,-1364,-494,-1489,-306,-38,379,159,-269
1,5010527,425,-1364,-494,-1489,-306,-38,379,159,-269
1,5010533,425,-1364,-494,-1489,-306,-38,379,159,-269
1,5010541,420,-1365,-490,-1489,-305,-36,379,159,-269
1,5010549,420,-1365,-490,-1489,-305,-36,379,159,-269
1,5010556,424,-1363,-489,-1474,-305,-41,382,148,-274
1,5010564,424,-1363,-489,-1474,-305,-41,382,148,-274
1,5010571,424,-1363,-489,-1474,-305,-41,382,148,-274
1,5010579,422,-1363,-491,-1478,-300,-34,382,148,-274
1,5010584,422,-1363,-491,-1478,-300,-34,382,148,-274
1,5010591,422,-1363,-491,-1478,-300,-34,382,148,-274
1,5010599,423,-1365,-489,-1488,-298,-32,382,148,-274
1,5010607,423,-1365,-489,-1488,-298,-32,382,148,-274
1,5010613,423,-1365,-489,-1488,-298,-32,382,148,-274
1,5010620,423,-1364,-493,-1483,-302,-34,382,148,-274
1,5010627,423,-1364,-493,-1483,-302,-34,382,148,-274
1,5010633,423,-1364,-493,-1483,-302,-34,382,148,-274
1,5010641,422,-1365,-492,-1483,-303,-37,382,148,-274
1,5010649,422,-1365,-492,-1483,-303,-37,382,148,-274
1,5010655,422,-1365,-491,-1487,-309,-35,382,148,-274
1,5010662,422,-1365,-491,-1487,-309,-35,382,148,-274
1,5010671,422,-1365,-491,-1487,-309,-35,382,148,-274
1,5010677,424,-1364,-490,-1484,-306,-36,387,155,-263
1,5010685,424,-1364,-490,-1484,-306,-36,387,155,-263
1,5010691,424,-1364,-490,-1484,-306,-36,387,155,-263
1,5010695,423,-1366,-491,-1480,-299,-41,387,155,-263
1,5010700,423,-1366,-491,-1480,-299,-41,387,155,-263
1,5010706,423,-1366,-491,-1480,-299,-41,387,155,-263
1,5010710,423,-1366,-491,-1480,-299,-41,387,155,-263
1,5010715,424,-1365,-496,-1489,-301,-35,387,155,-263
1,5010720,424,-1365,-496,-1489,-301,-35,387,155,-263
1,5010725,424,-1365,-496,-1489,-301,-35,387,155,-263
1,5010733,424,-1365,-496,-1489,-301,-35,387,155,-263
1,5010740,426,-1367,-490,-1484,-309,-40,387,155,-263
1,5010746,426,-1367,-490,-1484,-309,-40,387,155,-263
1,5010751,426,-1367,-490,-1484,-309,-40,387,155,-263
1,5010758,421,-1363,-491,-1487,-307,-30,387,155,-263
1,5010765,421,-1363,-491,-1487,-307,-30,387,155,-263
1,5010772,421,-1363,-491,-1487,-307,-30,387,155,-263
1,5010779,424,-1364,-488,-1488,-306,-44,387,155,-263
1,5010785,424,-1364,-488,-1488,-306,-44,387,155,-263
1,5010793,424,-1364,-488,-1488,-306,-44,387,155,-263
1,5010800,423,-1364,-489,-1485,-308,-37,387,153,-271
1,5010808,423,-1364,-489,-1485,-308,-37,387,153,-271
1,5010816,422,-1365,-493,-1484,-305,-38,387,153,-271
1,5010821,422,-1365,-493,-1484,-305,-38,387,153,-271
1,5010828,422,-1365,-493,-1484,-305,-38,387,153,-271
1,5010834,423,-1366,-493,-1482,-304,-39,387,153,-271
1,5010840,423,-1366,-493,-1482,-304,-39,387,153,-271
1,5010847,423,-1366,-493,-1482,-304,-39,387,153,-271
1,5010853,423,-1366,-493,-1482,-304,-39,387,153,-271
1,5010861,425,-1364,-493,-1487,-304,-43,387,153,-271
1,5010868,425,-1364,-493,-1487,-304,-43,387,153,-271
1,5010875,425,-1363,-492,-1482,-306,-44,387,153,-271
1,5010882,425,-1363,-492,-1482,-306,-44,387,153,-271
1,5010888,425,-1363,-492,-1482,-306,-44,387,153,-271
1,5010895,423,-1365,-491,-1481,-307,-41,387,153,-271
1,5010904,423,-1365,-491,-1481,-307,-41,387,153,-271
1,5010911,423,-1365,-491,-1481,-307,-41,387,153,-271
1,5010918,423,-1366,-490,-1482,-302,-48,382,152,-276
1,5010926,423,-1366,-490,-1482,-302,-48,382,152,-276
1,5010933,423,-1366,-490,-1482,-302,-48,382,152,-276
1,5010938,423,-1363,-489,-1473,-305,-42,382,152,-276
1,5010946,423,-1363,-489,-1473,-305,-42,382,152,-276
1,5010954,423,-1363,-489,-1473,-305,-42,382,152,-276
1,5010960,424,-1366,-487,-1483,-301,-33,382,152,-276
1,5010967,424,-1366,-487,-1483,-301,-33,382,152,-276
1,5010975,425,-1361,-490,-1487,-301,-37,382,152,-276
1,5010982,425,-1361,-490,-1487,-301,-37,382,152,-276
1,5010990,425,-1361,-490,-1487,-301,-37,382,152,-276
1,5010997,424,-1366,-493,-1484,-303,-36,382,152,-276
1,5011003,424,-1366,-493,-1484,-303,-36,382,152,-276
1,5011011,424,-1366,-493,-1484,-303,-36,382,152,-276
1,5011018,427,-1363,-491,-1481,-305,-34,382,152,-276
1,5011026,427,-1363,-491,-1481,-305,-34,382,152,-276
1,5011033,427,-1363,-491,-1481,-305,-34,382,152,-276
1,5011040,422,-1367,-493,-1486,-310,-39,382,152,-276
1,5011047,422,-1367,-493,-1486,-310,-39,382,152,-276
1,5011055,422,-1367,-493,-1486,-310,-39,385,149,-273
1,5011062,422,-1367,-493,-1486,-310,-39,385,149,-273
1,5011068,422,-1367,-493,-1486,-310,-39,385,149,-273
1,5011075,422,-1365,-486,-1478,-302,-52,385,149,-273
1,5011082,422,-1365,-486,-1478,-302,-52,385,149,-273
1,5011089,422,-1365,-486,-1478,-302,-52,385,149,-273
1,5011096,425,-1363,-491,-1483,-300,-41,385,149,-273
1,5011102,425,-1363,-491,-1483,-300,-41,385,149,-273
1,5011110,425,-1363,-491,-1483,-300,-41,385,149,-273
1,5011118,423,-1366,-491,-1482,-298,-44,385,149,-273
1,5011123,423,-1366,-491,-1482,-298,-44,385,149,-273
1,5011129,423,-1366,-491,-1482,-298,-44,385,149,-273
1,5011136,422,-1366,-491,-1486,-297,-40,385,149,-273
1,5011144,422,-1366,-491,-1486,-297,-40,385,149,-273
1,5011151,422,-1366,-491,-1486,-297,-40,385,149,-273
1,5011159,424,-1361,-490,-1482,-304,-38,385,149,-273
1,5011165,424,-1361,-490,-1482,-304,-38,385,149,-273
1,5011172,424,-1361,-490,-1482,-304,-38,385,149,-273
1,5011179,424,-1360,-485,-1476,-305,-40,383,151,-275
1,5011186,424,-1360,-485,-1476,-305,-40,383,151,-275
1,5011194,425,-1364,-487,-1482,-299,-37,383,151,-275
1,5011203,425,-1364,-487,-1482,-299,-37,383,151,-275
1,5011209,425,-1364,-487,-1482,-299,-37,383,151,-275
1,5011216,424,-1360,-491,-1491,-298,-43,383,151,-275
1,5011222,424,-1360,-491,-1491,-298,-43,383,151,-275
1,5011230,424,-1360,-491,-1491,-298,-43,383,151,-275
1,5011237,425,-1363,-492,-1487,-301,-39,383,151,-275
1,5011245,425,-1363,-492,-1487,-301,-39,383,151,-275
1,5011253,425,-1363,-492,-1487,-301,-39,383,151,-275
1,5011259,424,-1367,-491,-1484,-304,-42,383,151,-275
1,5011267,424,-1367,-491,-1484,-304,-42,383,151,-275
1,5011272,424,-1367,-491,-1484,-304,-42,383,151,-275
1,5011280,423,-1365,-490,-1485,-301,-38,383,151,-275
1,5011288,423,-1365,-490,-1485,-301,-38,383,151,-275
1,5011296,423,-1364,-484,-1477,-308,-43,380,150,-272
1,5011303,423,-1364,-484,-1477,-308,-43,380,150,-272
1,5011310,423,-1364,-484,-1477,-308,-43,380,150,-272
1,5011316,425,-1366,-489,-1492,-308,-41,380,150,-272
1,5011323,425,-1366,-489,-1492,-308,-41,380,150,-272
1,5011330,425,-1366,-489,-1492,-308,-41,380,150,-272
1,5011337,426,-1364,-487,-1488,-301,-42,380,150,-272
1,5011343,426,-1364,-487,-1488,-301,-42,380,150,-272
1,5011350,426,-1364,-487,-1488,-301,-42,380,150,-272
1,5011356,426,-1367,-494,-1478,-297,-39,380,150,-272
1,5011363,426,-1367,-494,-1478,-297,-39,380,150,-272
1,5011371,426,-1367,-494,-1478,-297,-39,380,150,-272
1,5011376,422,-1368,-490,-1481,-303,-42,380,150,-272
1,5011381,422,-1368,-490,-1481,-303,-42,380,150,-272
1,5011386,422,-1368,-490,-1481,-303,-42,380,150,-272
1,5011393,422,-1368,-490,-1481,-303,-42,380,150,-272
1,5011399,424,-1363,-489,-1487,-300,-34,380,150,-272
1,5011405,424,-1363,-489,-1487,-300,-34,380,150,-272
1,5011412,424,-1363,-489,-1487,-300,-34,380,150,-272
1,5011420,423,-1362,-489,-1498,-297,-33,373,151,-273
1,5011427,423,-1362,-489,-1498,-297,-33,373,151,-273
1,5011433,423,-1362,-489,-1498,-297,-33,373,151,-273
1,5011439,425,-1363,-489,-1492,-298,-41,373,151,-273
1,5011446,425,-1363,-489,-1492,-298,-41,373,151,-273
1,5011454,427,-1368,-495,-1477,-307,-42,373,151,-273
1,5011463,427,-1368,-495,-1477,-307,-42,373,151,-273
1,5011471,427,-1368,-495,-1477,-307,-42,373,151,-273
1,5011478,426,-1366,-492,-1477,-304,-33,373,151,-273
1,5011484,426,-1366,-492,-1477,-304,-33,373,151,-273
1,5011489,426,-1366,-492,-1477,-304,-33,373,151,-273
1,5011494,423,-1363,-491,-1486,-297,-39,373,151,-273
1,5011501,423,-1363,-491,-1486,-297,-39,373,151,-273
1,5011506,423,-1363,-491,-1486,-297,-39,373,151,-273
1,5011511,423,-1363,-491,-1486,-297,-39,373,151,-273
1,5011516,424,-1364,-489,-1481,-298,-38,373,151,-273
1,5011523,424,-1364,-489,-1481,-298,-38,373,151,-273
1,5011530,424,-1364,-489,-1481,-298,-38,373,151,-273
1,5011537,423,-1365,-493,-1482,-304,-45,373,151,-273
1,5011545,423,-1365,-493,-1482,-304,-45,373,151,-273
1,5011551,423,-1365,-493,-1482,-304,-45,373,151,-273
1,5011556,426,-1365,-487,-1481,-304,-39,382,156,-272
1,5011565,426,-1365,-487,-1481,-304,-39,382,156,-272
1,5011572,426,-1365,-487,-1481,-304,-39,382,156,-272
1,5011579,425,-1363,-488,-1488,-302,-41,382,156,-272
1,5011588,425,-1363,-488,-1488,-302,-41,382,156,-272
1,5011595,427,-1365,-486,-1482,-296,-46,382,156,-272
1,5011601,427,-1365,-486,-1482,-296,-46,382,156,-272
1,5011608,427,-1365,-486,-1482,-296,-46,382,156,-272
1,5011615,425,-1367,-489,-1483,-300,-39,382,156,-272
1,5011622,425,-1367,-489,-1483,-300,-39,382,156,-272
1,5011631,425,-1367,-489,-1483,-300,-39,382,156,-272
1,5011638,424,-1365,-490,-1478,-305,-45,382,156,-272
1,5011645,424,-1365,-490,-1478,-305,-45,382,156,-272
1,5011652,424,-1365,-490,-1478,-305,-45,382,156,-272
1,5011659,426,-1364,-492,-1480,-298,-36,382,156,-272
1,5011666,426,-1364,-492,-1480,-298,-36,382,156,-272
1,5011673,426,-1364,-492,-1480,-298,-36,382,156,-272
1,5011681,425,-1362,-488,-1485,-303,-40,375,153,-283
1,5011687,425,-1362,-488,-1485,-303,-40,375,153,-283
1,5011692,425,-1362,-488,-1485,-303,-40,375,153,-283
1,5011697,425,-1363,-491,-1485,-305,-32,375,153,-283
1,5011702,425,-1363,-491,-1485,-305,-32,375,153,-283
1,5011707,425,-1363,-491,-1485,-305,-32,375,153,-283
1,5011714,425,-1363,-491,-1485,-305,-32,375,153,-283
1,5011719,429,-1366,-493,-1481,-306,-40,375,153,-283
1,5011724,429,-1366,-493,-1481,-306,-40,375,153,-283
1,5011729,429,-1366,-493,-1481,-306,-40,375,153,-283
1,5011734,424,-1363,-491,-1479,-308,-42,375,153,-283
1,5011742,424,-1363,-491,-1479,-308,-42,375,153,-283
1,5011748,424,-1363,-491,-1479,-308,-42,375,153,-283
1,5011755,423,-1367,-494,-1471,-302,-44,375,153,-283
1,5011762,423,-1367,-494,-1471,-302,-44,375,153,-283
1,5011768,423,-1367,-494,-1471,-302,-44,375,153,-283
1,5011773,423,-1367,-494,-1471,-302,-44,375,153,-283
1,5011782,424,-1365,-491,-1485,-307,-41,375,153,-283
1,5011789,424,-1365,-491,-1485,-307,-41,375,153,-283
1,5011798,424,-1365,-491,-1485,-307,-41,388,152,-270
1,5011805,424,-1365,-491,-1485,-307,-41,388,152,-270
1,5011810,424,-1365,-491,-1485,-307,-41,388,152,-270
1,5011817,424,-1364,-491,-1475,-306,-35,388,152,-270
1,5011825,424,-1364,-491,-1475,-306,-35,388,152,-270
1,5011832,424,-1364,-491,-1475,-306,-35,388,152,-270
1,5011838,426,-1362,-488,-1481,-303,-42,388,152,-270
1,5011846,426,-1362,-488,-1481,-303,-42,388,152,-270
1,5011854,426,-1362,-488,-1481,-303,-42,388,152,-270
1,5011861,423,-1366,-490,-1484,-301,-41,388,152,-270
1,5011868,423,-1366,-490,-1484,-301,-41,388,152,-270
1,5011875,424,-1364,-490,-1487,-308,-43,388,152,-270
1,5011883,424,-1364,-490,-1487,-308,-43,388,152,-270
1,5011890,424,-1364,-490,-1487,-308,-43,388,152,-270
1,5011896,425,-1363,-494,-1487,-305,-41,388,152,-270
1,5011901,425,-1363,-494,-1487,-305,-41,388,152,-270
1,5011906,425,-1363,-494,-1487,-305,-41,388,152,-270
1,5011914,426,-1365,-487,-1478,-304,-41,381,159,-273
1,5011921,426,-1365,-487,-1478,-304,-41,381,159,-273
1,5011928,426,-1365,-487,-1478,-304,-41,381,159,-273
1,5011936,426,-1365,-490,-1476,-308,-48,381,159,-273
1,5011941,426,-1365,-490,-1476,-308,-48,381,159,-273
1,5011949,426,-1365,-490,-1476,-308,-48,381,159,-273
1,5011955,422,-1364,-493,-1485,-305,-40,381,159,-273
1,5011961,422,-1364,-493,-1485,-305,-40,381,159,-273
1,5011970,422,-1364,-493,-1485,-305,-40,381,159,-273
1,5011976,424,-1365,-492,-1488,-307,-39,381,159,-273
1,5011982,424,-1365,-492,-1488,-307,-39,381,159,-273
1,5011988,424,-1365,-492,-1488,-307,-39,381,159,-273
1,5011995,426,-1365,-488,-1486,-306,-39,381,159,-273
1,5012003,426,-1365,-488,-1486,-306,-39,381,159,-273
1,5012008,426,-1365,-488,-1486,-306,-39,381,159,-273
1,5012015,424,-1364,-491,-1483,-301,-45,381,159,-273
1,5012023,424,-1364,-491,-1483,-301,-45,381,159,-273
1,5012029,424,-1364,-491,-1483,-301,-45,381,159,-273
1,5012036,424,-1363,-487,-1480,-304,-38,381,159,-273
1,5012044,424,-1363,-487,-1480,-304,-38,381,159,-273
1,5012050,424,-1363,-487,-1480,-304,-38,381,159,-273
1,5012057,425,-1365,-489,-1470,-299,-37,381,159,-273
1,5012063,425,-1365,-489,-1470,-299,-37,381,159,-273
1,5012071,425,-1365,-489,-1470,-299,-37,381,159,-273
1,5012079,424,-1364,-492,-1471,-305,-47,381,159,-273
1,5012086,424,-1364,-492,-1471,-305,-47,381,159,-273
1,5012092,424,-1364,-492,-1471,-305,-47,381,159,-273
1,5012100,424,-1365,-488,-1483,-309,-48,381,159,-273
1,5012107,424,-1365,-488,-1483,-309,-48,381,159,-273
1,5012115,423,-1365,-495,-1473,-309,-44,381,159,-273
1,5012120,423,-1365,-495,-1473,-309,-44,381,159,-273
1,5012127,423,-1365,-495,-1473,-309,-44,381,159,-273
1,5012134,425,-1367,-494,-1482,-306,-47,381,159,-273
1,5012141,425,-1367,-494,-1482,-306,-47,381,159,-273
1,5012150,425,-1367,-494,-1482,-306,-47,381,159,-273
1,5012157,425,-1367,-494,-1482,-306,-47,381,159,-273
1,5012165,425,-1367,-494,-1482,-306,-47,381,159,-273
1,5012173,425,-1367,-494,-1482,-306,-47,381,159,-273
1,5012179,424,-1365,-485,-1483,-305,-42,381,151,-275
1,5012187,424,-1365,-485,-1483,-305,-42,381,151,-275
1,5012194,423,-1364,-489,-1479,-304,-44,381,151,-275
1,5012201,423,-1364,-489,-1479,-304,-44,381,151,-275
1,5012208,423,-1364,-489,-1479,-304,-44,381,151,-275
1,5012216,426,-1361,-490,-1482,-307,-47,381,151,-275
1,5012222,426,-1361,-490,-1482,-307,-47,381,151,-275
1,5012230,426,-1361,-490,-1482,-307,-47,381,151,-275
1,5012237,423,-1363,-495,-1486,-309,-40,381,151,-275
1,5012245,423,-1363,-495,-1486,-309,-40,381,151,-275
1,5012252,423,-1363,-495,-1486,-309,-40,381,151,-275
1,5012260,426,-1366,-494,-1485,-309,-39,381,151,-275
1,5012268,426,-1366,-494,-1485,-309,-39,381,151,-275
1,5012274,426,-1366,-494,-1485,-309,-39,381,151,-275
1,5012280,423,-1367,-496,-1481,-295,-37,381,151,-275
1,5012287,423,-1367,-496,-1481,-295,-37,381,151,-275
1,5012293,423,-1367,-496,-1481,-295,-37,381,151,-275
1,5012301,424,-1363,-487,-1485,-310,-48,385,151,-269
1,5012308,424,-1363,-487,-1485,-310,-48,385,151,-269
1,5012316,424,-1362,-491,-1484,-308,-43,385,151,-269
1,5012322,424,-1362,-491,-1484,-308,-43,385,151,-269
1,5012328,424,-1362,-491,-1484,-308,-43,385,151,-269
1,5012335,423,-1362,-490,-1490,-308,-46,385,151,-269
1,5012343,423,-1362,-490,-1490,-308,-46,385,151,-269
1,5012350,423,-1362,-490,-1490,-308,-46,385,151,-269
1,5012357,422,-1365,-491,-1484,-302,-41,385,151,-269
1,5012364,422,-1365,-491,-1484,-302,-41,385,151,-269
1,5012370,422,-1365,-491,-1484,-302,-41,385,151,-269
1,5012374,422,-1365,-494,-1482,-305,-35,385,151,-269
1,5012380,422,-1365,-494,-1482,-305,-35,385,151,-269
1,5012387,422,-1365,-494,-1482,-305,-35,385,151,-269
1,5012395,423,-1368,-492,-1483,-303,-42,385,151,-269
1,5012403,423,-1368,-492,-1483,-303,-42,385,151,-269
1,5012409,423,-1368,-492,-1483,-303,-42,385,151,-269
1,5012417,422,-1365,-492,-1486,-301,-36,375,155,-275
1,5012424,422,-1365,-492,-1486,-301,-36,375,155,-275
1,5012431,422,-1365,-492,-1486,-301,-36,375,155,-275
1,5012439,420,-1365,-491,-1491,-300,-42,375,155,-275
1,5012446,420,-1365,-491,-1491,-300,-42,375,155,-275
1,5012453,420,-1365,-491,-1491,-300,-42,375,155,-275
1,5012460,427,-1366,-491,-1485,-299,-37,375,155,-275
1,5012466,427,-1366,-491,-1485,-299,-37,375,155,-275
1,5012473,427,-1366,-491,-1485,-299,-37,375,155,-275
1,5012481,425,-1364,-493,-1484,-304,-48,375,155,-275
1,5012486,425,-1364,-493,-1484,-304,-48,375,155,-275
1,5012491,425,-1364,-493,-1484,-304,-48,375,155,-275
1,5012495,422,-1364,-491,-1482,-295,-44,375,155,-275
1,5012501,422,-1364,-491,-1482,-295,-44,375,155,-275
1,5012506,422,-1364,-491,-1482,-295,-44,375,155,-275
1,5012512,422,-1364,-491,-1482,-295,-44,375,155,-275
1,5012517,424,-1364,-489,-1482,-296,-38,375,155,-275
1,5012525,424,-1364,-489,-1482,-296,-38,375,155,-275
1,5012532,424,-1364,-489,-1482,-296,-38,375,155,-275
1,5012538,423,-1366,-488,-1484,-300,-43,380,150,-278
1,5012544,423,-1366,-488,-1484,-300,-43,380,150,-278
1,5012551,423,-1366,-488,-1484,-300,-43,380,150,-278
1,5012558,425,-1364,-486,-1480,-307,-35,380,150,-278
1,5012566,425,-1364,-486,-1480,-307,-35,380,150,-278
1,5012572,425,-1364,-486,-1480,-307,-35,380,150,-278
1,5012578,423,-1366,-491,-1483,-303,-43,380,150,-278
1,5012585,423,-1366,-491,-1483,-303,-43,380,150,-278
1,5012593,423,-1366,-491,-1483,-303,-43,380,150,-278
1,5012601,423,-1368,-490,-1495,-301,-43,380,150,-278
1,5012608,423,-1368,-490,-1495,-301,-43,380,150,-278
1,5012616,425,-1364,-487,-1484,-300,-41,380,150,-278
1,5012623,425,-1364,-487,-1484,-300,-41,380,150,-278
1,5012628,425,-1364,-487,-1484,-300,-41,380,150,-278
1,5012635,422,-1365,-493,-1483,-299,-41,380,150,-278
1,5012644,422,-1365,-493,-1483,-299,-41,380,150,-278
1,5012652,422,-1365,-493,-1483,-299,-41,380,150,-278
1,5012659,426,-1368,-494,-1485,-306,-37,380,150,-278
1,5012664,426,-1368,-494,-1485,-306,-37,380,150,-278
1,5012671,426,-1368,-494,-1485,-306,-37,380,150,-278
1,5012678,423,-1366,-486,-1486,-312,-42,380,158,-274
1,5012684,423,-1366,-486,-1486,-312,-42,380,158,-274
1,5012689,423,-1366,-486,-1486,-312,-42,380,158,-274
1,5012695,424,-1364,-488,-1485,-314,-40,380,158,-274
1,5012701,424,-1364,-488,-1485,-314,-40,380,158,-274
1,5012706,424,-1364,-488,-1485,-314,-40,380,158,-274
1,5012711,424,-1364,-488,-1485,-314,-40,380,158,-274
1,5012716,422,-1368,-491,-1482,-304,-33,380,158,-274
1,5012721,422,-1368,-491,-1482,-304,-33,380,158,-274
1,5012726,422,-1368,-491,-1482,-304,-33,380,158,-274
1,5012731,422,-1368,-491,-1482,-304,-33,380,158,-274
1,5012739,423,-1363,-487,-1481,-299,-40,380,158,-274
1,5012747,423,-1363,-487,-1481,-299,-40,380,158,-274
1,5012754,423,-1363,-487,-1481,-299,-40,380,158,-274
1,5012761,422,-1362,-491,-1482,-300,-37,380,158,-274
1,5012766,422,-1362,-491,-1482,-300,-37,380,158,-274
1,5012774,424,-1366,-492,-1480,-301,-33,380,158,-274
1,5012782,424,-1366,-492,-1480,-301,-33,380,158,-274
1,5012789,424,-1366,-492,-1480,-301,-33,380,158,-274
1,5012796,425,-1366,-489,-1485,-301,-41,376,160,-274
1,5012803,425,-1366,-489,-1485,-301,-41,376,160,-274
1,5012810,425,-1366,-489,-1485,-301,-41,376,160,-274
1,5012815,424,-1365,-493,-1487,-298,-38,376,160,-274
1,5012823,424,-1365,-493,-1487,-298,-38,376,160,-274
1,5012831,424,-1365,-493,-1487,-298,-38,376,160,-274
1,5012837,425,-1366,-488,-1494,-302,-37,376,160,-274
1,5012844,425,-1366,-488,-1494,-302,-37,376,160,-274
1,5012850,425,-1366,-488,-1494,-302,-37,376,160,-274
1,5012856,425,-1366,-487,-1486,-296,-43,376,160,-274
1,5012861,425,-1366,-487,-1486,-296,-43,376,160,-274
1,5012870,425,-1366,-487,-1486,-296,-43,376,160,-274
1,5012877,424,-1366,-492,-1482,-306,-41,376,160,-274
1,5012883,424,-1366,-492,-1482,-306,-41,376,160,-274
1,5012889,424,-1366,-492,-1482,-306,-41,376,160,-274
1,5012896,426,-1365,-495,-1481,-301,-37,376,160,-274
1,5012903,426,-1365,-495,-1481,-301,-37,376,160,-274
1,5012910,426,-1365,-495,-1481,-301,-37,376,160,-274
1,5012917,423,-1365,-489,-1481,-304,-43,375,159,-277
1,5012925,423,-1365,-489,-1481,-304,-43,375,159,-277
1,5012930,423,-1365,-489,-1481,-304,-43,375,159,-277
1,5012938,424,-1367,-483,-1480,-302,-38,375,159,-277
1,5012945,424,-1367,-483,-1480,-302,-38,375,159,-277
1,5012953,424,-1367,-483,-1480,-302,-38,375,159,-277
1,5012959,423,-1365,-490,-1474,-301,-33,375,159,-277
1,5012966,423,-1365,-490,-1474,-301,-33,375,159,-277
1,5012973,423,-1365,-490,-1474,-301,-33,375,159,-277
1,5012979,423,-1361,-490,-1485,-302,-40,375,159,-277
1,5012987,423,-1361,-490,-1485,-302,-40,375,159,-277
1,5012996,423,-1364,-490,-1485,-301,-41,375,159,-277
1,5013004,423,-1364,-490,-1485,-301,-41,375,159,-277
1,5013010,423,-1364,-490,-1485,-301,-41,375,159,-277
1,5013017,422,-1363,-493,-1478,-301,-40,375,159,-277
1,5013024,422,-1363,-493,-1478,-301,-40,375,159,-277
1,5013030,422,-1363,-493,-1478,-301,-40,375,159,-277
1,5013037,422,-1363,-493,-1478,-301,-40,383,153,-273
1,5013044,422,-1363,-493,-1478,-301,-40,383,153,-273
1,5013049,422,-1363,-493,-1478,-301,-40,383,153,-273
1,5013056,424,-1365,-490,-1478,-303,-42,383,153,-273
1,5013063,424,-1365,-490,-1478,-303,-42,383,153,-273
1,5013071,424,-1365,-490,-1478,-303,-42,383,153,-273
1,5013079,421,-1364,-493,-1486,-303,-35,383,153,-273
1,5013088,421,-1364,-493,-1486,-303,-35,383,153,-273
1,5013096,424,-1365,-488,-1489,-301,-40,383,153,-273
1,5013102,424,-1365,-488,-1489,-301,-40,383,153,-273
1,5013109,424,-1365,-488,-1489,-301,-40,383,153,-273
1,5013113,424,-1365,-488,-1489,-301,-40,383,153,-273
1,5013123,425,-1362,-490,-1488,-298,-37,383,153,-273
1,5013130,425,-1362,-490,-1488,-298,-37,383,153,-273
1,5013138,424,-1364,-486,-1482,-303,-41,383,153,-273
1,5013145,424,-1364,-486,-1482,-303,-41,383,153,-273
1,5013151,424,-1364,-486,-1482,-303,-41,383,153,-273
1,5013158,424,-1365,-493,-1479,-300,-41,383,153,-273
1,5013168,424,-1365,-493,-1479,-300,-41,383,153,-273
1,5013175,423,-1362,-486,-1483,-302,-42,372,148,-276
1,5013181,423,-1362,-486,-1483,-302,-42,372,148,-276
1,5013189,423,-1362,-486,-1483,-302,-42,372,148,-276
1,5013196,423,-1365,-486,-1487,-303,-42,372,148,-276
1,5013204,423,-1365,-486,-1487,-303,-42,372,148,-276
1,5013211,423,-1365,-486,-1487,-303,-42,372,148,-276
1,5013218,424,-1363,-487,-1484,-307,-40,372,148,-276
1,5013225,424,-1363,-487,-1484,-307,-40,372,148,-276
1,5013233,424,-1363,-487,-1484,-307,-40,372,148,-276
1,5013240,424,-1363,-488,-1487,-301,-42,372,148,-276
1,5013248,424,-1363,-488,-1487,-301,-42,372,148,-276
1,5013256,425,-1364,-496,-1485,-296,-44,372,148,-276
1,5013264,425,-1364,-496,-1485,-296,-44,372,148,-276
1,5013271,425,-1364,-496,-1485,-296,-44,372,148,-276
1,5013277,421,-1364,-490,-1484,-296,-39,372,148,-276
1,5013282,421,-1364,-490,-1484,-296,-39,372,148,-276
1,5013287,421,-1364,-490,-1484,-296,-39,372,148,-276
1,5013293,421,-1364,-490,-1484,-296,-39,372,148,-276
1,5013299,424,-1364,-486,-1482,-300,-44,373,155,-271
1,5013307,424,-1364,-486,-1482,-300,-44,373,155,-271
1,5013314,424,-1364,-486,-1482,-300,-44,373,155,-271
1,5013321,425,-1365,-490,-1479,-305,-33,373,155,-271
1,5013327,425,-1365,-490,-1479,-305,-33,373,155,-271
1,5013332,425,-1365,-490,-1479,-305,-33,373,155,-271
1,5013340,425,-1364,-492,-1482,-307,-37,373,155,-271
1,5013345,425,-1364,-492,-1482,-307,-37,373,155,-271
1,5013352,425,-1364,-492,-1482,-307,-37,373,155,-271
1,5013359,426,-1367,-489,-1483,-298,-40,373,155,-271
1,5013367,426,-1367,-489,-1483,-298,-40,373,155,-271
1,5013374,426,-1367,-489,-1483,-298,-40,373,155,-271
1,5013381,423,-1363,-493,-1493,-298,-38,373,155,-271
1,5013388,423,-1363,-493,-1493,-298,-38,373,155,-271
1,5013394,423,-1363,-493,-1493,-298,-38,373,155,-271
1,5013399,423,-1367,-489,-1482,-306,-44,373,155,-271
1,5013408,423,-1367,-489,-1482,-306,-44,373,155,-271
1,5013415,424,-1363,-490,-1485,-302,-42,380,154,-276
1,5013424,424,-1363,-490,-1485,-302,-42,380,154,-276
1,5013432,424,-1363,-490,-1485,-302,-42,380,154,-276
1,5013439,425,-1363,-490,-1481,-306,-46,380,154,-276
1,5013445,425,-1363,-490,-1481,-306,-46,380,154,-276
1,5013452,425,-1363,-490,-1481,-306,-46,380,154,-276
1,5013459,425,-1364,-490,-1483,-304,-40,380,154,-276
1,5013466,425,-1364,-490,-1483,-304,-40,380,154,-276
1,5013474,425,-1364,-490,-1483,-304,-40,380,154,-276
1,5013481,418,-1364,-491,-1489,-298,-46,380,154,-276
1,5013486,418,-1364,-491,-1489,-298,-46,380,154,-276
1,5013491,418,-1364,-491,-1489,-298,-46,380,154,-276
1,5013496,426,-1364,-489,-1480,-298,-38,380,154,-276
1,5013501,426,-1364,-489,-1480,-298,-38,380,154,-276
1,5013507,426,-1364,-489,-1480,-298,-38,380,154,-276
1,5013512,426,-1364,-489,-1480,-298,-38,380,154,-276
1,5013520,423,-1365,-494,-1483,-296,-42,380,154,-276
1,5013526,423,-1365,-494,-1483,-296,-42,380,154,-276
1,5013533,423,-1365,-494,-1483,-296,-42,380,154,-276
1,5013541,424,-1362,-487,-1485,-299,-40,381,145,-269
1,5013549,424,-1362,-487,-1485,-299,-40,381,145,-269
1,5013557,425,-1369,-491,-1481,-299,-39,381,145,-269
1,5013563,425,-1369,-491,-1481,-299,-39,381,145,-269
1,5013570,425,-1369,-491,-1481,-299,-39,381,145,-269
1,5013577,423,-1361,-494,-1480,-296,-34,381,145,-269
1,5013585,423,-1361,-494,-1480,-296,-34,381,145,-269
1,5013592,423,-1361,-494,-1480,-296,-34,381,145,-269
1,5013599,425,-1362,-490,-1484,-298,-40,381,145,-269
1,5013606,425,-1362,-490,-1484,-298,-40,381,145,-269
1,5013612,425,-1362,-490,-1484,-298,-40,381,145,-269
1,5013619,423,-1361,-494,-1477,-304,-38,381,145,-269
1,5013627,423,-1361,-494,-1477,-304,-38,381,145,-269
1,5013634,423,-1361,-494,-1477,-304,-38,381,145,-269
1,5013642,425,-1363,-488,-1489,-300,-40,381,145,-269
1,5013649,425,-1363,-488,-1489,-300,-40,381,145,-269
1,5013657,425,-1367,-486,-1485,-301,-36,381,145,-269
1,5013664,425,-1367,-486,-1485,-301,-36,381,145,-269
1,5013671,425,-1367,-486,-1485,-301,-36,381,145,-269
1,5013678,424,-1367,-488,-1486,-297,-38,377,147,-275
1,5013684,424,-1367,-488,-1486,-297,-38,377,147,-275
1,5013689,424,-1367,-488,-1486,-297,-38,377,147,-275
1,5013694,424,-1367,-488,-1486,-297,-38,377,147,-275
1,5013699,425,-1368,-492,-1486,-306,-38,377,147,-275
1,5013704,425,-1368,-492,-1486,-306,-38,377,147,-275
1,5013709,425,-1368,-492,-1486,-306,-38,377,147,-275
1,5013714,425,-1368,-492,-1486,-306,-38,377,147,-275
1,5013720,424,-1367,-494,-1492,-296,-41,377,147,-275
1,5013725,424,-1367,-494,-1492,-296,-41,377,147,-275
1,5013732,424,-1367,-494,-1492,-296,-41,377,147,-275
1,5013739,424,-1366,-492,-1488,-298,-39,377,147,-275
1,5013744,424,-1366,-492,-1488,-298,-39,377,147,-275
1,5013752,424,-1366,-492,-1488,-298,-39,377,147,-275
1,5013758,423,-1366,-490,-1486,-302,-43,377,147,-275
1,5013767,423,-1366,-490,-1486,-302,-43,377,147,-275
1,5013772,423,-1366,-490,-1486,-302,-43,377,147,-275
1,5013777,424,-1365,-489,-1484,-307,-39,377,147,-275
1,5013782,424,-1365,-489,-1484,-307,-39,377,147,-275
1,5013790,424,-1365,-489,-1484,-307,-39,377,147,-275
1,5013798,425,-1364,-491,-1487,-305,-38,381,161,-277
1,5013805,425,-1364,-491,-1487,-305,-38,381,161,-277
1,5013811,425,-1364,-491,-1487,-305,-38,381,161,-277
1,5013819,423,-1365,-492,-1482,-305,-43,381,161,-277
1,5013826,423,-1365,-492,-1482,-305,-43,381,161,-277
1,5013832,423,-1365,-492,-1482,-305,-43,381,161,-277
1,5013839,423,-1364,-491,-1487,-300,-35,381,161,-277
1,5013847,423,-1364,-491,-1487,-300,-35,381,161,-277
1,5013853,423,-1364,-491,-1487,-300,-35,381,161,-277
1,5013861,423,-1364,-491,-1487,-300,-35,381,161,-277
1,5013868,423,-1364,-491,-1487,-300,-35,381,161,-277
1,5013876,423,-1365,-494,-1491,-303,-33,381,161,-277
1,5013883,423,-1365,-494,-1491,-303,-33,381,161,-277
1,5013891,423,-1365,-494,-1491,-303,-33,381,161,-277
1,5013897,422,-1366,-496,-1482,-307,-41,381,161,-277
1,5013905,422,-1366,-496,-1482,-307,-41,381,161,-277
1,5013912,422,-1366,-496,-1482,-307,-41,381,161,-277
1,5013918,422,-1366,-491,-1483,-309,-41,385,145,-275
1,5013926,422,-1366,-491,-1483,-309,-41,385,145,-275
1,5013935,422,-1366,-491,-1483,-309,-41,385,145,-275
1,5013941,423,-1366,-485,-1484,-307,-42,385,145,-275
1,5013947,423,-1366,-485,-1484,-307,-42,385,145,-275
1,5013953,423,-1366,-485,-1484,-307,-42,385,145,-275
1,5013960,426,-1364,-489,-1488,-303,-37,385,145,-275
1,5013969,426,-1364,-489,-1488,-303,-37,385,145,-275
1,5013977,423,-1365,-486,-1490,-306,-44,385,145,-275
1,5013984,423,-1365,-486,-1490,-306,-44,385,145,-275
1,5013993,423,-1365,-486,-1490,-306,-44,385,145,-275
1,5013999,425,-1364,-490,-1488,-303,-40,385,145,-275
1,5014006,425,-1364,-490,-1488,-303,-40,385,145,-275
1,5014012,425,-1364,-490,-1488,-303,-40,385,145,-275
1,5014021,425,-1367,-494,-1482,-306,-39,385,145,-275
1,5014027,425,-1367,-494,-1482,-306,-39,385,145,-275
1,5014034,425,-1367,-494,-1482,-306,-39,385,145,-275
1,5014042,425,-1365,-485,-1479,-303,-37,376,152,-272
1,5014049,425,-1365,-485,-1479,-303,-37,376,152,-272
1,5014055,422,-1368,-489,-1488,-302,-38,376,152,-272
1,5014063,422,-1368,-489,-1488,-302,-38,376,152,-272
1,5014071,422,-1368,-489,-1488,-302,-38,376,152,-272
1,5014078,426,-1365,-484,-1479,-304,-42,376,152,-272
1,5014085,426,-1365,-484,-1479,-304,-42,376,152,-272
1,5014092,426,-1365,-484,-1479,-304,-42,376,152,-272
1,5014100,425,-1364,-490,-1489,-302,-38,376,152,-272
1,5014108,425,-1364,-490,-1489,-302,-38,376,152,-272
1,5014114,425,-1364,-490,-1489,-302,-38,376,152,-272
1,5014119,424,-1367,-493,-1492,-299,-41,376,152,-272
1,5014128,424,-1367,-493,-1492,-299,-41,376,152,-272
1,5014136,425,-1368,-493,-1484,-298,-40,376,152,-272
1,5014144,425,-1368,-493,-1484,-298,-40,376,152,-272
1,5014151,425,-1368,-493,-1484,-298,-40,376,152,-272
1,5014159,425,-1368,-493,-1484,-298,-40,375,149,-271
1,5014165,425,-1368,-493,-1484,-298,-40,375,149,-271
1,5014171,425,-1368,-493,-1484,-298,-40,375,149,-271
1,5014178,425,-1365,-487,-1482,-305,-44,375,149,-271
1,5014185,425,-1365,-487,-1482,-305,-44,375,149,-271
1,5014194,425,-1365,-487,-1482,-305,-44,375,149,-271
1,5014200,422,-1367,-487,-1486,-309,-34,375,149,-271
1,5014207,422,-1367,-487,-1486,-309,-34,375,149,-271
1,5014212,422,-1367,-487,-1486,-309,-34,375,149,-271
1,5014217,425,-1363,-490,-1481,-302,-35,375,149,-271
1,5014224,425,-1363,-490,-1481,-302,-35,375,149,-271
1,5014231,425,-1363,-490,-1481,-302,-35,375,149,-271
1,5014239,424,-1366,-494,-1478,-305,-32,375,149,-271
1,5014245,424,-1366,-494,-1478,-305,-32,375,149,-271
1,5014252,424,-1366,-494,-1478,-305,-32,375,149,-271
1,5014260,425,-1361,-490,-1486,-304,-31,375,149,-271
1,5014267,425,-1361,-490,-1486,-304,-31,375,149,-271
1,5014275,425,-1361,-490,-1486,-304,-31,375,149,-271
1,5014281,424,-1366,-489,-1479,-299,-34,375,149,-271
1,5014288,424,-1366,-489,-1479,-299,-34,375,149,-271
1,5014295,424,-1368,-487,-1487,-302,-31,375,149,-271
1,5014301,424,-1368,-487,-1487,-302,-31,381,151,-267
1,5014306,424,-1368,-487,-1487,-302,-31,381,151,-267
1,5014313,424,-1368,-487,-1487,-302,-31,381,151,-267
1,5014321,427,-1366,-486,-1488,-304,-34,381,151,-267
1,5014328,427,-1366,-486,-1488,-304,-34,381,151,-267
1,5014335,423,-1365,-491,-1482,-303,-38,381,151,-267
1,5014343,423,-1365,-491,-1482,-303,-38,381,151,-267
1,5014351,423,-1365,-491,-1482,-303,-38,381,151,-267
1,5014359,424,-1364,-493,-1481,-300,-43,381,151,-267
1,5014365,424,-1364,-493,-1481,-300,-43,381,151,-267
1,5014373,424,-1364,-493,-1481,-300,-43,381,151,-267
1,5014379,426,-1363,-492,-1490,-297,-38,381,151,-267
1,5014386,426,-1363,-492,-1490,-297,-38,381,151,-267
1,5014393,426,-1363,-492,-1490,-297,-38,381,151,-267
1,5014401,426,-1363,-492,-1490,-297,-38,381,151,-267
1,5014408,426,-1363,-492,-1490,-297,-38,381,151,-267
1,5014415,424,-1366,-489,-1485,-302,-37,381,151,-267
1,5014423,424,-1366,-489,-1485,-302,-37,383,157,-271
1,5014430,424,-1366,-489,-1485,-302,-37,383,157,-271
1,5014437,424,-1365,-489,-1478,-300,-38,383,157,-271
1,5014445,424,-1365,-489,-1478,-300,-38,383,157,-271
1,5014453,424,-1365,-489,-1478,-300,-38,383,157,-271
1,5014460,422,-1366,-492,-1488,-306,-36,383,157,-271
1,5014466,422,-1366,-492,-1488,-306,-36,383,157,-271
1,5014471,422,-1366,-492,-1488,-306,-36,383,157,-271
1,5014478,423,-1365,-492,-1485,-301,-40,383,157,-271
1,5014484,423,-1365,-492,-1485,-301,-40,383,157,-271
1,5014490,423,-1365,-492,-1485,-301,-40,383,157,-271
1,5014495,424,-1365,-489,-1487,-300,-42,383,157,-271
1,5014500,424,-1365,-489,-1487,-300,-42,383,157,-271
1,5014505,424,-1365,-489,-1487,-300,-42,383,157,-271
1,5014510,424,-1365,-489,-1487,-300,-42,383,157,-271
1,5014516,424,-1365,-491,-1490,-303,-44,383,157,-271
1,5014522,424,-1365,-491,-1490,-303,-44,383,157,-271
1,5014530,424,-1365,-491,-1490,-303,-44,383,157,-271
1,5014536,424,-1361,-485,-1493,-302,-38,377,147,-265
1,5014542,424,-1361,-485,-1493,-302,-38,377,147,-265
1,5014550,424,-1361,-485,-1493,-302,-38,377,147,-265
1,5014556,425,-1364,-485,-1493,-298,-42,377,147,-265
1,5014564,425,-1364,-485,-1493,-298,-42,377,147,-265
1,5014571,425,-1364,-485,-1493,-298,-42,377,147,-265
1,5014578,423,-1364,-489,-1495,-295,-38,377,147,-265
1,5014585,423,-1364,-489,-1495,-295,-38,377,147,-265
1,5014591,423,-1364,-489,-1495,-295,-38,377,147,-265
1,5014598,424,-1365,-494,-1490,-305,-35,377,147,-265
1,5014605,424,-1365,-494,-1490,-305,-35,377,147,-265
1,5014612,424,-1365,-494,-1490,-305,-35,377,147,-265
1,5014620,426,-1367,-488,-1484,-307,-40,377,147,-265
1,5014626,426,-1367,-488,-1484,-307,-40,377,147,-265
1,5014635,426,-1367,-488,-1484,-307,-40,377,147,-265
1,5014641,424,-1369,-493,-1483,-304,-40,377,147,-265
1,5014648,424,-1369,-493,-1483,-304,-40,377,147,-265
1,5014656,425,-1363,-489,-1483,-301,-39,375,157,-271
1,5014663,425,-1363,-489,-1483,-301,-39,375,157,-271
1,5014671,425,-1363,-489,-1483,-301,-39,375,157,-271
1,5014678,424,-1364,-488,-1484,-300,-43,375,157,-271
1,5014684,424,-1364,-488,-1484,-300,-43,375,157,-271
1,5014689,424,-1364,-488,-1484,-300,-43,375,157,-271
1,5014694,424,-1364,-488,-1484,-300,-43,375,157,-271
1,5014701,426,-1361,-489,-1481,-306,-42,375,157,-271
1,5014706,426,-1361,-489,-1481,-306,-42,375,157,-271
1,5014711,426,-1361,-489,-1481,-306,-42,375,157,-271
1,5014716,424,-1365,-488,-1483,-303,-39,375,157,-271
1,5014721,424,-1365,-488,-1483,-303,-39,375,157,-271
1,5014726,424,-1365,-488,-1483,-303,-39,375,157,-271
1,5014731,424,-1365,-488,-1483,-303,-39,375,157,-271
1,5014737,425,-1364,-488,-1485,-305,-42,375,157,-271
1,5014743,425,-1364,-488,-1485,-305,-42,375,157,-271
1,5014748,425,-1364,-488,-1485,-305,-42,375,157,-271
1,5014755,425,-1364,-488,-1485,-305,-42,375,157,-271
1,5014763,425,-1364,-488,-1485,-305,-42,375,157,-271
1,5014769,425,-1364,-488,-1485,-305,-42,375,157,-271
1,5014775,423,-1365,-489,-1481,-302,-38,375,157,-271
1,5014784,423,-1365,-489,-1481,-302,-38,375,157,-271
1,5014791,423,-1365,-489,-1481,-302,-38,375,157,-271
1,5014798,425,-1363,-496,-1489,-303,-41,378,148,-272
1,5014804,425,-1363,-496,-1489,-303,-41,378,148,-272
1,5014809,425,-1363,-496,-1489,-303,-41,378,148,-272
1,5014816,426,-1364,-494,-1485,-302,-36,378,148,-272
1,5014823,426,-1364,-494,-1485,-302,-36,378,148,-272
1,5014832,426,-1364,-494,-1485,-302,-36,378,148,-272
1,5014839,424,-1365,-491,-1487,-304,-38,378,148,-272
1,5014846,424,-1365,-491,-1487,-304,-38,378,148,-272
1,5014852,424,-1365,-491,-1487,-304,-38,378,148,-272
1,5014860,425,-1365,-493,-1483,-303,-41,378,148,-272
1,5014866,425,-1365,-493,-1483,-303,-41,378,148,-272
1,5014873,425,-1365,-493,-1483,-303,-41,378,148,-272
1,5014881,425,-1359,-491,-1490,-306,-43,378,148,-272
1,5014887,425,-1359,-491,-1490,-306,-43,378,148,-272
1,5014894,425,-1359,-491,-1490,-306,-43,378,148,-272
1,5014901,426,-1364,-493,-1482,-303,-31,378,148,-272
1,5014906,426,-1364,-493,-1482,-303,-31,378,148,-272
1,5014915,426,-1364,-493,-1482,-303,-31,378,148,-272
1,5014923,423,-1363,-484,-1481,-294,-36,381,153,-271
1,5014931,423,-1363,-484,-1481,-294,-36,381,153,-271
1,5014939,424,-1364,-492,-1475,-299,-36,381,153,-271
1,5014946,424,-1364,-492,-1475,-299,-36,381,153,-271
1,5014955,424,-1364,-492,-1475,-299,-36,381,153,-271
1,5014962,425,-1365,-485,-1491,-298,-41,381,153,-271
1,5014969,425,-1365,-485,-1491,-298,-41,381,153,-271
1,5014974,425,-1365,-485,-1491,-298,-41,381,153,-271
1,5014982,421,-1363,-488,-1486,-301,-37,381,153,-271
1,5014989,421,-1363,-488,-1486,-301,-37,381,153,-271
1,5014996,421,-1362,-492,-1491,-301,-38,381,153,-271
1,5015003,421,-1362,-492,-1491,-301,-38,381,153,-271
1,5015010,421,-1362,-492,-1491,-301,-38,381,153,-271
1,5015018,422,-1364,-493,-1489,-304,-38,381,153,-271
1,5015024,422,-1364,-493,-1489,-304,-38,381,153,-271
1,5015032,422,-1364,-493,-1489,-304,-38,381,153,-271
1,5015040,425,-1363,-487,-1487,-299,-32,380,152,-274
1,5015049,425,-1363,-487,-1487,-299,-32,380,152,-274
1,5015055,425,-1363,-487,-1487,-299,-32,380,152,-274
1,5015062,423,-1367,-488,-1483,-296,-36,380,152,-274
1,5015067,423,-1367,-488,-1483,-296,-36,380,152,-274
1,5015073,423,-1367,-488,-1483,-296,-36,380,152,-274
1,5015081,424,-1365,-487,-1484,-305,-42,380,152,-274
1,5015087,424,-1365,-487,-1484,-305,-42,380,152,-274
1,5015093,424,-1365,-487,-1484,-305,-42,380,152,-274
1,5015100,427,-1363,-494,-1486,-300,-43,380,152,-274
1,5015108,427,-1363,-494,-1486,-300,-43,380,152,-274
1,5015115,424,-1364,-489,-1489,-299,-37,380,152,-274
1,5015122,424,-1364,-489,-1489,-299,-37,380,152,-274
1,5015129,424,-1364,-489,-1489,-299,-37,380,152,-274
1,5015136,426,-1362,-494,-1495,-299,-36,380,152,-274
1,5015141,426,-1362,-494,-1495,-299,-36,380,152,-274
1,5015149,426,-1362,-494,-1495,-299,-36,380,152,-274
1,5015157,426,-1366,-491,-1485,-300,-43,374,154,-280
1,5015164,426,-1366,-491,-1485,-300,-43,374,154,-280
1,5015172,426,-1366,-491,-1485,-300,-43,374,154,-280
1,5015178,425,-1365,-487,-1482,-300,-40,374,154,-280
1,5015186,425,-1365,-487,-1482,-300,-40,374,154,-280
1,5015191,425,-1365,-487,-1482,-300,-40,374,154,-280
1,5015196,423,-1368,-490,-1481,-305,-37,374,154,-280
1,5015201,423,-1368,-490,-1481,-305,-37,374,154,-280
1,5015207,423,-1368,-490,-1481,-305,-37,374,154,-280
1,5015213,423,-1368,-490,-1481,-305,-37,374,154,-280
1,5015219,426,-1362,-490,-1484,-302,-44,374,154,-280
1,5015225,426,-1362,-490,-1484,-302,-44,374,154,-280
1,5015229,426,-1362,-490,-1484,-302,-44,374,154,-280
1,5015236,424,-1362,-484,-1483,-302,-36,374,154,-280
1,5015242,424,-1362,-484,-1483,-302,-36,374,154,-280
1,5015249,424,-1362,-484,-1483,-302,-36,374,154,-280
1,5015257,424,-1365,-492,-1487,-305,-41,374,154,-280
1,5015263,424,-1365,-492,-1487,-305,-41,374,154,-280
1,5015269,424,-1365,-492,-1487,-305,-41,374,154,-280
1,5015276,423,-1367,-490,-1485,-305,-41,374,154,-280
1,5015284,423,-1367,-490,-1485,-305,-41,374,154,-280
1,5015290,423,-1367,-490,-1485,-305,-41,374,154,-280
1,5015298,426,-1364,-492,-1487,-303,-36,380,156,-270
1,5015305,426,-1364,-492,-1487,-303,-36,380,156,-270
1,5015312,426,-1364,-492,-1487,-303,-36,380,156,-270
1,5015320,422,-1367,-493,-1487,-297,-38,380,156,-270
1,5015327,422,-1367,-493,-1487,-297,-38,380,156,-270
1,5015334,422,-1367,-493,-1487,-297,-38,380,156,-270
1,5015342,423,-1362,-491,-1486,-305,-38,380,156,-270
1,5015348,423,-1362,-491,-1486,-305,-38,380,156,-270
1,5015355,424,-1364,-491,-1488,-303,-38,380,156,-270
1,5015362,424,-1364,-491,-1488,-303,-38,380,156,-270
1,5015369,424,-1364,-491,-1488,-303,-38,380,156,-270
1,5015376,425,-1366,-491,-1485,-308,-36,380,156,-270
1,5015384,425,-1366,-491,-1485,-308,-36,380,156,-270
1,5015391,425,-1366,-491,-1485,-308,-36,380,156,-270
1,5015397,423,-1368,-491,-1484,-305,-37,380,156,-270
1,5015405,423,-1368,-491,-1484,-305,-37,380,156,-270
1,5015410,423,-1368,-491,-1484,-305,-37,380,156,-270
1,5015418,426,-1364,-488,-1479,-308,-38,379,155,-277
1,5015425,426,-1364,-488,-1479,-308,-38,379,155,-277
1,5015432,426,-1364,-488,-1479,-308,-38,379,155,-277
1,5015440,422,-1366,-493,-1480,-309,-42,379,155,-277
1,5015445,422,-1366,-493,-1480,-309,-42,379,155,-277
1,5015453,422,-1366,-493,-1480,-309,-42,379,155,-277
1,5015459,429,-1363,-491,-1492,-307,-41,379,155,-277
1,5015468,429,-1363,-491,-1492,-307,-41,379,155,-277
1,5015476,424,-1364,-490,-1490,-299,-42,379,155,-277
1,5015484,424,-1364,-490,-1490,-299,-42,379,155,-277
1,5015489,424,-1364,-490,-1490,-299,-42,379,155,-277
1,5015494,424,-1364,-490,-1490,-299,-42,379,155,-277
1,5015499,425,-1365,-491,-1489,-305,-38,379,155,-277
1,5015504,425,-1365,-491,-1489,-305,-38,379,155,-277
1,5015511,425,-1365,-491,-1489,-305,-38,379,155,-277
1,5015517,423,-1364,-490,-1490,-303,-42,379,155,-277
1,5015525,423,-1364,-490,-1490,-303,-42,379,155,-277
1,5015532,423,-1364,-490,-1490,-303,-42,379,155,-277
1,5015539,427,-1366,-490,-1493,-306,-42,380,150,-274
1,5015546,427,-1366,-490,-1493,-306,-42,380,150,-274
1,5015553,427,-1366,-490,-1493,-306,-42,380,150,-274
1,5015559,426,-1366,-489,-1484,-300,-42,380,150,-274
1,5015566,426,-1366,-489,-1484,-300,-42,380,150,-274
1,5015573,426,-1366,-489,-1484,-300,-42,380,150,-274
1,5015580,421,-1366,-489,-1482,-300,-38,380,150,-274
1,5015587,421,-1366,-489,-1482,-300,-38,380,150,-274
1,5015596,423,-1368,-488,-1486,-303,-42,380,150,-274
1,5015603,423,-1368,-488,-1486,-303,-42,380,150,-274
1,5015609,423,-1368,-488,-1486,-303,-42,380,150,-274
1,5015616,426,-1367,-492,-1490,-304,-34,380,150,-274
1,5015622,426,-1367,-492,-1490,-304,-34,380,150,-274
1,5015627,426,-1367,-492,-1490,-304,-34,380,150,-274
1,5015635,426,-1367,-492,-1490,-304,-34,380,150,-274
1,5015643,425,-1364,-492,-1484,-299,-41,380,150,-274
1,5015650,425,-1364,-492,-1484,-299,-41,380,150,-274
1,5015658,426,-1365,-487,-1485,-303,-39,380,160,-272
1,5015664,426,-1365,-487,-1485,-303,-39,380,160,-272
1,5015672,426,-1365,-487,-1485,-303,-39,380,160,-272
1,5015677,423,-1366,-490,-1484,-306,-41,380,160,-272
1,5015686,423,-1366,-490,-1484,-306,-41,380,160,-272
1,5015691,423,-1366,-490,-1484,-306,-41,380,160,-272
1,5015696,426,-1366,-494,-1484,-297,-41,380,160,-272
1,5015701,426,-1366,-494,-1484,-297,-41,380,160,-272
1,5015706,426,-1366,-494,-1484,-297,-41,380,160,-272
1,5015712,426,-1366,-494,-1484,-297,-41,380,160,-272
1,5015717,422,-1362,-494,-1488,-299,-45,380,160,-272
1,5015723,422,-1362,-494,-1488,-299,-45,380,160,-272
1,5015728,422,-1362,-494,-1488,-299,-45,380,160,-272
1,5015735,422,-1362,-494,-1488,-299,-45,380,160,-272
1,5015743,425,-1363,-492,-1491,-307,-42,380,160,-272
1,5015750,425,-1363,-492,-1491,-307,-42,380,160,-272
1,5015756,423,-1365,-489,-1492,-312,-42,380,160,-272
1,5015763,423,-1365,-489,-1492,-312,-42,380,160,-272
1,5015769,423,-1365,-489,-1492,-312,-42,380,160,-272
1,5015776,424,-1363,-490,-1491,-308,-38,380,160,-272
1,5015782,424,-1363,-490,-1491,-308,-38,380,160,-272
1,5015789,424,-1363,-490,-1491,-308,-38,380,160,-272
1,5015795,424,-1363,-490,-1491,-308,-38,380,160,-272
1,5015802,424,-1365,-485,-1489,-304,-42,380,160,-272
1,5015810,424,-1365,-485,-1489,-304,-42,380,160,-272
1,5015816,424,-1365,-490,-1485,-305,-34,380,160,-272
1,5015821,424,-1365,-490,-1485,-305,-34,380,160,-272
1,5015828,424,-1365,-490,-1485,-305,-34,380,160,-272
1,5015836,424,-1365,-492,-1487,-301,-33,380,160,-272
1,5015844,424,-1365,-492,-1487,-301,-33,380,160,-272
1,5015852,424,-1365,-492,-1487,-301,-33,380,160,-272
1,5015860,422,-1363,-493,-1488,-308,-36,380,160,-272
1,5015867,422,-1363,-493,-1488,-308,-36,380,160,-272
1,5015874,422,-1363,-493,-1488,-308,-36,380,160,-272
1,5015879,424,-1364,-490,-1491,-308,-33,380,160,-272
1,5015887,424,-1364,-490,-1491,-308,-33,380,160,-272
1,5015895,424,-1364,-490,-1491,-308,-33,380,160,-272
1,5015903,423,-1365,-489,-1487,-310,-32,380,160,-272
1,5015911,423,-1365,-489,-1487,-310,-32,380,160,-272
1,5015918,424,-1364,-486,-1487,-304,-32,378,152,-266
1,5015924,424,-1364,-486,-1487,-304,-32,378,152,-266
1,5015932,424,-1364,-486,-1487,-304,-32,378,152,-266
1,5015939,425,-1365,-489,-1477,-302,-41,378,152,-266
1,5015945,425,-1365,-489,-1477,-302,-41,378,152,-266
1,5015952,425,-1365,-489,-1477,-302,-41,378,152,-266
1,5015960,428,-1366,-487,-1490,-301,-40,378,152,-266
1,5015966,428,-1366,-487,-1490,-301,-40,378,152,-266
1,5015973,428,-1366,-487,-1490,-301,-40,378,152,-266
1,5015982,424,-1365,-492,-1489,-298,-40,378,152,-266
1,5015988,424,-1365,-492,-1489,-298,-40,378,152,-266
1,5015994,424,-1365,-492,-1489,-298,-40,378,152,-266
1,5016002,424,-1367,-491,-1485,-301,-41,378,152,-266
1,5016008,424,-1367,-491,-1485,-301,-41,378,152,-266
1,5016015,424,-1367,-491,-1485,-301,-41,378,152,-266
1,5016024,426,-1364,-493,-1482,-304,-35,378,152,-266
1,5016031,426,-1364,-493,-1482,-304,-35,378,152,-266
1,5016038,424,-1365,-488,-1484,-305,-36,376,150,-272
1,5016044,424,-1365,-488,-1484,-305,-36,376,150,-272
1,5016049,424,-1365,-488,-1484,-305,-36,376,150,-272
1,5016056,422,-1363,-488,-1483,-304,-41,376,150,-272
1,5016062,422,-1363,-488,-1483,-304,-41,376,150,-272
1,5016071,422,-1363,-488,-1483,-304,-41,376,150,-272
1,5016078,425,-1363,-491,-1485,-306,-43,376,150,-272
1,5016085,425,-1363,-491,-1485,-306,-43,376,150,-272
1,5016092,425,-1363,-491,-1485,-306,-43,376,150,-272
1,5016098,422,-1366,-494,-1485,-310,-44,376,150,-272
1,5016105,422,-1366,-494,-1485,-310,-44,376,150,-272
1,5016113,422,-1366,-494,-1485,-310,-44,376,150,-272
1,5016121,424,-1368,-491,-1481,-303,-39,376,150,-272
1,5016128,424,-1368,-491,-1481,-303,-39,376,150,-272
1,5016135,424,-1368,-491,-1481,-303,-39,376,150,-272
1,5016143,425,-1365,-488,-1483,-305,-39,376,150,-272
1,5016151,425,-1365,-488,-1483,-305,-39,376,150,-272
1,5016158,424,-1364,-487,-1477,-302,-31,383,157,-273
1,5016164,424,-1364,-487,-1477,-302,-31,383,157,-273
1,5016169,424,-1364,-487,-1477,-302,-31,383,157,-273
1,5016174,424,-1364,-487,-1477,-302,-31,383,157,-273
1,5016179,423,-1365,-491,-1486,-304,-31,383,157,-273
1,5016187,423,-1365,-491,-1486,-304,-31,383,157,-273
1,5016196,422,-1366,-491,-1487,-301,-31,383,157,-273
1,5016203,422,-1366,-491,-1487,-301,-31,383,157,-273
1,5016209,422,-1366,-491,-1487,-301,-31,383,157,-273
1,5016216,426,-1365,-492,-1483,-305,-33,383,157,-273
1,5016224,426,-1365,-492,-1483,-305,-33,383,157,-273
1,5016230,426,-1365,-492,-1483,-305,-33,383,157,-273
1,5016238,423,-1365,-490,-1487,-308,-38,383,157,-273
1,5016245,423,-1365,-490,-1487,-308,-38,383,157,-273
1,5016252,423,-1365,-490,-1487,-308,-38,383,157,-273
1,5016258,424,-1366,-487,-1487,-308,-38,383,157,-273
1,5016265,424,-1366,-487,-1487,-308,-38,383,157,-273
1,5016272,424,-1366,-487,-1487,-308,-38,383,157,-273
1,5016279,423,-1365,-489,-1487,-301,-41,382,150,-280
1,5016287,423,-1365,-489,-1487,-301,-41,382,150,-280
1,5016293,423,-1365,-489,-1487,-301,-41,382,150,-280
1,5016300,426,-1368,-491,-1480,-300,-38,382,150,-280
1,5016306,426,-1368,-491,-1480,-300,-38,382,150,-280
1,5016313,426,-1368,-491,-1480,-300,-38,382,150,-280
1,5016322,423,-1369,-493,-1488,-300,-35,382,150,-280
1,5016329,423,-1369,-493,-1488,-300,-35,382,150,-280
1,5016335,423,-1369,-493,-1488,-300,-35,382,150,-280
1,5016342,424,-1365,-492,-1485,-305,-40,382,150,-280
1,5016350,424,-1365,-492,-1485,-305,-40,382,150,-280
1,5016356,421,-1365,-490,-1491,-299,-43,382,150,-280
1,5016363,421,-1365,-490,-1491,-299,-43,382,150,-280
1,5016372,421,-1365,-490,-1491,-299,-43,382,150,-280
1,5016378,424,-1366,-490,-1492,-306,-38,382,150,-280
1,5016385,424,-1366,-490,-1492,-306,-38,382,150,-280
1,5016392,424,-1366,-490,-1492,-306,-38,382,150,-280
1,5016399,422,-1365,-490,-1484,-305,-41,382,150,-280
1,5016408,422,-1365,-490,-1484,-305,-41,382,150,-280
1,5016414,422,-1365,-490,-1484,-305,-41,382,150,-280
1,5016421,421,-1363,-484,-1484,-308,-43,381,157,-277
1,5016429,421,-1363,-484,-1484,-308,-43,381,157,-277
1,5016434,421,-1363,-484,-1484,-308,-43,381,157,-277
1,5016442,423,-1365,-485,-1481,-303,-46,381,157,-277
1,5016449,423,-1365,-485,-1481,-303,-46,381,157,-277
1,5016457,426,-1363,-490,-1494,-302,-39,381,157,-277
1,5016465,426,-1363,-490,-1494,-302,-39,381,157,-277
1,5016472,426,-1363,-490,-1494,-302,-39,381,157,-277
1,5016479,426,-1362,-494,-1492,-302,-31,381,157,-277
1,5016484,426,-1362,-494,-1492,-302,-31,381,157,-277
1,5016489,426,-1362,-494,-1492,-302,-31,381,157,-277
1,5016495,426,-1362,-494,-1492,-302,-31,381,157,-277
1,5016500,421,-1365,-494,-1484,-300,-32,381,157,-277
1,5016506,421,-1365,-494,-1484,-300,-32,381,157,-277
1,5016511,421,-1365,-494,-1484,-300,-32,381,157,-277
1,5016516,424,-1367,-492,-1486,-304,-43,381,157,-277
1,5016523,424,-1367,-492,-1486,-304,-43,381,157,-277
1,5016531,424,-1367,-492,-1486,-304,-43,381,157,-277
1,5016540,421,-1361,-485,-1483,-301,-46,379,157,-275
1,5016548,421,-1361,-485,-1483,-301,-46,379,157,-275
1,5016557,422,-1366,-491,-1481,-303,-41,379,157,-275
1,5016563,422,-1366,-491,-1481,-303,-41,379,157,-275
1,5016570,422,-1366,-491,-1481,-303,-41,379,157,-275
1,5016577,425,-1363,-487,-1483,-300,-39,379,157,-275
1,5016583,425,-1363,-487,-1483,-300,-39,379,157,-275
1,5016591,425,-1363,-487,-1483,-300,-39,379,157,-275
1,5016598,426,-1366,-489,-1481,-297,-33,379,157,-275
1,5016605,426,-1366,-489,-1481,-297,-33,379,157,-275
1,5016612,426,-1366,-489,-1481,-297,-33,379,157,-275
1,5016620,427,-1365,-491,-1482,-304,-42,379,157,-275
1,5016628,427,-1365,-491,-1482,-304,-42,379,157,-275
1,5016635,427,-1365,-491,-1482,-304,-42,379,157,-275
1,5016642,423,-1364,-486,-1482,-308,-44,379,157,-275
1,5016649,423,-1364,-486,-1482,-308,-44,379,157,-275
1,5016655,423,-1364,-486,-1482,-308,-44,379,157,-275
1,5016660,425,-1366,-490,-1485,-296,-38,380,152,-276
1,5016666,425,-1366,-490,-1485,-296,-38,380,152,-276
1,5016675,425,-1366,-490,-1485,-296,-38,380,152,-276
1,5016680,426,-1364,-488,-1479,-305,-38,380,152,-276
1,5016687,426,-1364,-488,-1479,-305,-38,380,152,-276
1,5016692,426,-1364,-488,-1479,-305,-38,380,152,-276
1,5016697,425,-1364,-495,-1477,-299,-44,380,152,-276
1,5016702,425,-1364,-495,-1477,-299,-44,380,152,-276
1,5016708,425,-1364,-495,-1477,-299,-44,380,152,-276
1,5016713,425,-1364,-495,-1477,-299,-44,380,152,-276
1,5016719,424,-1366,-492,-1488,-299,-38,380,152,-276
1,5016723,424,-1366,-492,-1488,-299,-38,380,152,-276
1,5016728,424,-1366,-492,-1488,-299,-38,380,152,-276
1,5016736,426,-1367,-492,-1490,-303,-37,380,152,-276
1,5016742,426,-1367,-492,-1490,-303,-37,380,152,-276
1,5016750,426,-1367,-492,-1490,-303,-37,380,152,-276
1,5016756,425,-1362,-494,-1488,-305,-43,380,152,-276
1,5016763,425,-1362,-494,-1488,-305,-43,380,152,-276
1,5016770,425,-1362,-494,-1488,-305,-43,380,152,-276
1,5016777,425,-1366,-488,-1484,-303,-44,383,157,-269
1,5016783,425,-1366,-488,-1484,-303,-44,383,157,-269
1,5016791,425,-1366,-488,-1484,-303,-44,383,157,-269
1,5016797,426,-1367,-485,-1479,-304,-38,383,157,-269
1,5016804,426,-1367,-485,-1479,-304,-38,383,157,-269
1,5016813,426,-1367,-485,-1479,-304,-38,383,157,-269
1,5016819,425,-1363,-487,-1489,-315,-43,383,157,-269
1,5016825,425,-1363,-487,-1489,-315,-43,383,157,-269
1,5016832,425,-1363,-487,-1489,-315,-43,383,157,-269
1,5016838,423,-1366,-490,-1490,-312,-43,383,157,-269
1,5016845,423,-1366,-490,-1490,-312,-43,383,157,-269
1,5016853,423,-1366,-490,-1490,-312,-43,383,157,-269
1,5016860,424,-1365,-490,-1488,-306,-43,383,157,-269
1,5016867,424,-1365,-490,-1488,-306,-43,383,157,-269
1,5016876,424,-1365,-490,-1488,-306,-43,383,157,-269
1,5016882,425,-1362,-489,-1491,-301,-42,383,157,-269
1,5016888,425,-1362,-489,-1491,-301,-42,383,157,-269
1,5016895,425,-1362,-489,-1491,-301,-42,383,157,-269
1,5016903,425,-1363,-493,-1481,-301,-47,383,157,-269
1,5016909,425,-1363,-493,-1481,-301,-47,383,157,-269
1,5016916,425,-1364,-487,-1480,-302,-40,376,156,-276
1,5016924,425,-1364,-487,-1480,-302,-40,376,156,-276
1,5016931,425,-1364,-487,-1480,-302,-40,376,156,-276
1,5016937,425,-1365,-490,-1485,-298,-39,376,156,-276
1,5016945,425,-1365,-490,-1485,-298,-39,376,156,-276
1,5016952,425,-1365,-490,-1485,-298,-39,376,156,-276
1,5016960,426,-1364,-492,-1490,-304,-39,376,156,-276
1,5016966,426,-1364,-492,-1490,-304,-39,376,156,-276
1,5016971,426,-1364,-492,-1490,-304,-39,376,156,-276
1,5016978,426,-1368,-488,-1488,-307,-39,376,156,-276
1,5016984,426,-1368,-488,-1488,-307,-39,376,156,-276
1,5016992,426,-1368,-488,-1488,-307,-39,376,156,-276
1,5017000,423,-1366,-498,-1485,-308,-43,376,156,-276
1,5017008,423,-1366,-498,-1485,-308,-43,376,156,-276
1,5017014,423,-1366,-498,-1485,-308,-43,376,156,-276
1,5017021,425,-1363,-492,-1480,-306,-29,376,156,-276
1,5017028,425,-1363,-492,-1480,-306,-29,376,156,-276
1,5017034,425,-1363,-492,-1480,-306,-29,376,156,-276
1,5017042,423,-1363,-487,-1483,-307,-33,375,151,-281
1,5017050,423,-1363,-487,-1483,-307,-33,375,151,-281
1,5017057,425,-1365,-490,-1486,-308,-44,375,151,-281
1,5017065,425,-1365,-490,-1486,-308,-44,375,151,-281
1,5017072,425,-1365,-490,-1486,-308,-44,375,151,-281
1,5017078,425,-1362,-492,-1484,-304,-39,375,151,-281
1,5017085,425,-1362,-492,-1484,-304,-39,375,151,-281
1,5017093,425,-1362,-492,-1484,-304,-39,375,151,-281
1,5017101,425,-1364,-494,-1484,-308,-39,375,151,-281
1,5017108,425,-1364,-494,-1484,-308,-39,375,151,-281
1,5017115,425,-1364,-494,-1484,-308,-39,375,151,-281
1,5017120,424,-1367,-487,-1484,-304,-40,375,151,-281
1,5017127,424,-1367,-487,-1484,-304,-40,375,151,-281
1,5017135,424,-1367,-487,-1484,-304,-40,375,151,-281
1,5017142,426,-1364,-491,-1481,-303,-39,375,151,-281
1,5017149,426,-1364,-491,-1481,-303,-39,375,151,-281
1,5017156,424,-1365,-488,-1487,-299,-44,375,151,-281
1,5017163,424,-1365,-488,-1487,-299,-44,382,152,-272
1,5017170,424,-1365,-488,-1487,-299,-44,382,152,-272
1,5017178,425,-1364,-489,-1487,-298,-35,382,152,-272
1,5017185,425,-1364,-489,-1487,-298,-35,382,152,-272
1,5017192,425,-1364,-489,-1487,-298,-35,382,152,-272
1,5017199,425,-1364,-489,-1489,-298,-40,382,152,-272
1,5017206,425,-1364,-489,-1489,-298,-40,382,152,-272
1,5017211,425,-1364,-489,-1489,-298,-40,382,152,-272
1,5017217,429,-1364,-492,-1498,-304,-45,382,152,-272
1,5017224,429,-1364,-492,-1498,-304,-45,382,152,-272
1,5017230,429,-1364,-492,-1498,-304,-45,382,152,-272
1,5017236,429,-1364,-492,-1498,-304,-45,382,152,-272
1,5017243,424,-1366,-490,-1493,-309,-40,382,152,-272
1,5017251,424,-1366,-490,-1493,-309,-40,382,152,-272
1,5017259,424,-1364,-493,-1488,-306,-38,382,152,-272
1,5017266,424,-1364,-493,-1488,-306,-38,382,152,-272
1,5017271,424,-1364,-493,-1488,-306,-38,382,152,-272
1,5017277,426,-1364,-487,-1487,-300,-37,375,155,-269
1,5017284,426,-1364,-487,-1487,-300,-37,375,155,-269
1,5017291,426,-1364,-487,-1487,-300,-37,375,155,-269
1,5017299,422,-1366,-484,-1483,-296,-38,375,155,-269
1,5017306,422,-1366,-484,-1483,-296,-38,375,155,-269
1,5017314,422,-1366,-484,-1483,-296,-38,375,155,-269
1,5017322,424,-1363,-490,-1484,-303,-41,375,155,-269
1,5017329,424,-1363,-490,-1484,-303,-41,375,155,-269
1,5017337,425,-1364,-490,-1485,-304,-43,375,155,-269
1,5017345,425,-1364,-490,-1485,-304,-43,375,155,-269
1,5017352,425,-1364,-490,-1485,-304,-43,375,155,-269
1,5017360,425,-1367,-490,-1487,-307,-34,375,155,-269
1,5017366,425,-1367,-490,-1487,-307,-34,375,155,-269
1,5017373,425,-1367,-490,-1487,-307,-34,375,155,-269
1,5017380,426,-1364,-493,-1482,-303,-39,375,155,-269
1,5017389,426,-1364,-493,-1482,-303,-39,375,155,-269
1,5017395,426,-1364,-493,-1482,-303,-39,375,155,-269
1,5017401,423,-1363,-491,-1482,-304,-43,375,155,-269
1,5017408,423,-1363,-491,-1482,-304,-43,375,155,-269
1,5017414,423,-1363,-491,-1482,-304,-43,375,155,-269
1,5017420,423,-1363,-491,-1482,-304,-43,380,152,-274
1,5017428,423,-1363,-491,-1482,-304,-43,380,152,-274
1,5017437,420,-1367,-492,-1484,-302,-37,380,152,-274
1,5017443,420,-1367,-492,-1484,-302,-37,380,152,-274
1,5017450,420,-1367,-492,-1484,-302,-37,380,152,-274
1,5017457,426,-1363,-493,-1484,-304,-37,380,152,-274
1,5017464,426,-1363,-493,-1484,-304,-37,380,152,-274
1,5017470,426,-1363,-493,-1484,-304,-37,380,152,-274
1,5017479,424,-1368,-490,-1493,-305,-37,380,152,-274
1,5017485,424,-1368,-490,-1493,-305,-37,380,152,-274
1,5017490,424,-1368,-490,-1493,-305,-37,380,152,-274
1,5017495,424,-1368,-490,-1493,-305,-37,380,152,-274
1,5017500,423,-1363,-490,-1489,-302,-36,380,152,-274
1,5017505,423,-1363,-490,-1489,-302,-36,380,152,-274
1,5017510,423,-1363,-490,-1489,-302,-36,380,152,-274
1,5017517,422,-1362,-493,-1480,-303,-37,380,152,-274
1,5017522,422,-1362,-493,-1480,-303,-37,380,152,-274
1,5017529,422,-1362,-493,-1480,-303,-37,380,152,-274
1,5017536,422,-1367,-490,-1478,-301,-27,379,157,-277
1,5017543,422,-1367,-490,-1478,-301,-27,379,157,-277
1,5017549,422,-1367,-490,-1478,-301,-27,379,157,-277
1,5017556,425,-1365,-493,-1485,-299,-46,379,157,-277
1,5017564,425,-1365,-493,-1485,-299,-46,379,157,-277
1,5017571,425,-1365,-493,-1485,-299,-46,379,157,-277
1,5017579,424,-1363,-497,-1484,-293,-42,379,157,-277
1,5017586,424,-1363,-497,-1484,-293,-42,379,157,-277
1,5017592,424,-1363,-497,-1484,-293,-42,379,157,-277
1,5017598,423,-1363,-491,-1488,-300,-30,379,157,-277
1,5017606,423,-1363,-491,-1488,-300,-30,379,157,-277
1,5017612,423,-1363,-491,-1488,-300,-30,379,157,-277
1,5017619,424,-1365,-493,-1484,-301,-33,379,157,-277
1,5017627,424,-1365,-493,-1484,-301,-33,379,157,-277
1,5017633,424,-1365,-493,-1484,-301,-33,379,157,-277
1,5017638,424,-1365,-498,-1482,-300,-39,379,157,-277
1,5017646,424,-1365,-498,-1482,-300,-39,379,157,-277
1,5017653,424,-1365,-498,-1482,-300,-39,379,157,-277
1,5017660,426,-1367,-485,-1486,-303,-37,385,155,-269
1,5017667,426,-1367,-485,-1486,-303,-37,385,155,-269
1,5017674,426,-1367,-485,-1486,-303,-37,385,155,-269
1,5017681,428,-1366,-486,-1488,-305,-30,385,155,-269
1,5017688,428,-1366,-486,-1488,-305,-30,385,155,-269
1,5017694,428,-1366,-486,-1488,-305,-30,385,155,-269
1,5017699,423,-1365,-489,-1487,-302,-40,385,155,-269
1,5017704,423,-1365,-489,-1487,-302,-40,385,155,-269
1,5017709,423,-1365,-489,-1487,-302,-40,385,155,-269
1,5017714,423,-1365,-489,-1487,-302,-40,385,155,-269
1,5017719,424,-1367,-494,-1488,-299,-42,385,155,-269
1,5017724,424,-1367,-494,-1488,-299,-42,385,155,-269
1,5017731,424,-1367,-494,-1488,-299,-42,385,155,-269
1,5017736,424,-1367,-494,-1488,-299,-42,385,155,-269
1,5017741,424,-1365,-490,-1483,-297,-34,385,155,-269
1,5017748,424,-1365,-490,-1483,-297,-34,385,155,-269
1,5017754,424,-1365,-490,-1483,-297,-34,385,155,-269
1,5017762,423,-1362,-487,-1483,-307,-38,385,155,-269
1,5017769,423,-1362,-487,-1483,-307,-38,385,155,-269
1,5017776,424,-1365,-489,-1482,-297,-42,385,155,-269
1,5017783,424,-1365,-489,-1482,-297,-42,380,152,-282
1,5017789,424,-1365,-489,-1482,-297,-42,380,152,-282
1,5017797,425,-1366,-490,-1484,-298,-38,380,152,-282
1,5017805,425,-1366,-490,-1484,-298,-38,380,152,-282
1,5017814,425,-1366,-490,-1484,-298,-38,380,152,-282
1,5017820,426,-1365,-491,-1485,-299,-35,380,152,-282
1,5017826,426,-1365,-491,-1485,-299,-35,380,152,-282
1,5017831,426,-1365,-491,-1485,-299,-35,380,152,-282
1,5017838,426,-1365,-491,-1493,-303,-42,380,152,-282
1,5017845,426,-1365,-491,-1493,-303,-42,380,152,-282
1,5017851,426,-1365,-491,-1493,-303,-42,380,152,-282
1,5017859,427,-1367,-494,-1486,-302,-41,380,152,-282
1,5017866,427,-1367,-494,-1486,-302,-41,380,152,-282
1,5017874,427,-1367,-494,-1486,-302,-41,380,152,-282
1,5017881,424,-1363,-493,-1481,-302,-32,380,152,-282
1,5017888,424,-1363,-493,-1481,-302,-32,380,152,-282
1,5017895,424,-1363,-493,-1481,-302,-32,380,152,-282
1,5017902,426,-1362,-490,-1487,-308,-36,381,157,-265
1,5017909,426,-1362,-490,-1487,-308,-36,381,157,-265
1,5017916,426,-1362,-490,-1487,-308,-36,381,157,-265
1,5017922,426,-1365,-489,-1488,-306,-41,381,157,-265
1,5017929,426,-1365,-489,-1488,-306,-41,381,157,-265
1,5017935,426,-1365,-489,-1488,-306,-41,381,157,-265
1,5017943,425,-1367,-489,-1488,-300,-39,381,157,-265
1,5017950,425,-1367,-489,-1488,-300,-39,381,157,-265
1,5017956,425,-1365,-493,-1490,-301,-37,381,157,-265
1,5017964,425,-1365,-493,-1490,-301,-37,381,157,-265
1,5017972,425,-1365,-493,-1490,-301,-37,381,157,-265
1,5017978,421,-1366,-493,-1488,-299,-34,381,157,-265
1,5017986,421,-1366,-493,-1488,-299,-34,381,157,-265
1,5017993,421,-1366,-493,-1488,-299,-34,381,157,-265
1,5018000,422,-1364,-492,-1489,-300,-33,381,157,-265
1,5018007,422,-1364,-492,-1489,-300,-33,381,157,-265
1,5018015,422,-1364,-492,-1489,-300,-33,381,157,-265
1,5018023,426,-1362,-488,-1477,-304,-34,381,157,-265
1,5018031,426,-1362,-488,-1477,-304,-34,381,157,-265
1,5018038,425,-1364,-487,-1484,-302,-39,379,157,-267
1,5018045,425,-1364,-487,-1484,-302,-39,379,157,-267
1,5018051,425,-1364,-487,-1484,-302,-39,379,157,-267
1,5018057,423,-1365,-493,-1483,-302,-35,379,157,-267
1,5018065,423,-1365,-493,-1483,-302,-35,379,157,-267
1,5018074,423,-1365,-493,-1483,-302,-35,379,157,-267
1,5018081,423,-1364,-490,-1490,-310,-40,379,157,-267
1,5018089,423,-1364,-490,-1490,-310,-40,379,157,-267
1,5018097,425,-1365,-491,-1482,-305,-39,379,157,-267
1,5018103,425,-1365,-491,-1482,-305,-39,379,157,-267
1,5018110,425,-1365,-491,-1482,-305,-39,379,157,-267
1,5018118,424,-1364,-492,-1486,-301,-43,379,157,-267
1,5018124,424,-1364,-492,-1486,-301,-43,379,157,-267
1,5018132,424,-1364,-492,-1486,-301,-43,379,157,-267
1,5018139,422,-1364,-490,-1480,-296,-40,379,157,-267
1,5018146,422,-1364,-490,-1480,-296,-40,379,157,-267
1,5018153,422,-1364,-490,-1480,-296,-40,379,157,-267
1,5018159,424,-1364,-485,-1483,-302,-41,379,151,-273
1,5018166,424,-1364,-485,-1483,-302,-41,379,151,-273
1,5018174,424,-1364,-485,-1483,-302,-41,379,151,-273
1,5018181,424,-1366,-487,-1485,-302,-45,379,151,-273
1,5018189,424,-1366,-487,-1485,-302,-45,379,151,-273
1,5018196,422,-1364,-494,-1485,-302,-41,379,151,-273
1,5018205,422,-1364,-494,-1485,-302,-41,379,151,-273
1,5018211,422,-1364,-494,-1485,-302,-41,379,151,-273
1,5018217,425,-1365,-486,-1489,-298,-36,379,151,-273
1,5018222,425,-1365,-486,-1489,-298,-36,379,151,-273
1,5018227,425,-1365,-486,-1489,-298,-36,379,151,-273
1,5018235,425,-1365,-486,-1489,-298,-36,379,151,-273
1,5018244,425,-1364,-492,-1486,-303,-45,379,151,-273
1,5018250,425,-1364,-492,-1486,-303,-45,379,151,-273
1,5018256,424,-1364,-490,-1490,-299,-36,379,151,-273
1,5018263,424,-1364,-490,-1490,-299,-36,379,151,-273
1,5018269,424,-1364,-490,-1490,-299,-36,379,151,-273
1,5018275,424,-1364,-490,-1490,-299,-36,379,151,-273
1,5018283,424,-1364,-488,-1487,-305,-35,385,155,-267
1,5018291,424,-1364,-488,-1487,-305,-35,385,155,-267
1,5018299,424,-1364,-488,-1485,-308,-39,385,155,-267
1,5018305,424,-1364,-488,-1485,-308,-39,385,155,-267
1,5018311,424,-1364,-488,-1485,-308,-39,385,155,-267
1,5018317,424,-1363,-488,-1488,-306,-34,385,155,-267
1,5018323,424,-1363,-488,-1488,-306,-34,385,155,-267
1,5018331,424,-1363,-488,-1488,-306,-34,385,155,-267
1,5018337,425,-1364,-486,-1478,-301,-34,385,155,-267
1,5018343,425,-1364,-486,-1478,-301,-34,385,155,-267
1,5018350,425,-1364,-486,-1478,-301,-34,385,155,-267
1,5018357,421,-1364,-496,-1481,-303,-36,385,155,-267
1,5018365,421,-1364,-496,-1481,-303,-36,385,155,-267
1,5018372,421,-1364,-496,-1481,-303,-36,385,155,-267
1,5018379,426,-1364,-489,-1489,-297,-33,385,155,-267
1,5018386,426,-1364,-489,-1489,-297,-33,385,155,-267
1,5018392,426,-1364,-489,-1489,-297,-33,385,155,-267
1,5018400,423,-1365,-491,-1483,-303,-31,381,155,-273
1,5018408,423,-1365,-491,-1483,-303,-31,381,155,-273
1,5018416,423,-1365,-491,-1483,-303,-31,381,155,-273
1,5018423,422,-1363,-488,-1479,-296,-28,381,155,-273
1,5018429,422,-1363,-488,-1479,-296,-28,381,155,-273
1,5018436,422,-1363,-488,-1479,-296,-28,381,155,-273
1,5018442,425,-1365,-489,-1485,-301,-30,381,155,-273
1,5018449,425,-1365,-489,-1485,-301,-30,381,155,-273
1,5018457,426,-1365,-490,-1488,-306,-45,381,155,-273
1,5018463,426,-1365,-490,-1488,-306,-45,381,155,-273
1,5018470,426,-1365,-490,-1488,-306,-45,381,155,-273
1,5018478,427,-1363,-491,-1483,-307,-46,381,155,-273
1,5018485,427,-1363,-491,-1483,-307,-46,381,155,-273
1,5018490,427,-1363,-491,-1483,-307,-46,381,155,-273
1,5018496,427,-1363,-491,-1483,-307,-46,381,155,-273
1,5018501,425,-1363,-496,-1490,-301,-40,381,155,-273
1,5018506,425,-1363,-496,-1490,-301,-40,381,155,-273
1,5018512,425,-1363,-496,-1490,-301,-40,381,155,-273
1,5018518,425,-1365,-491,-1490,-302,-33,381,155,-273
1,5018526,425,-1365,-491,-1490,-302,-33,381,155,-273
1,5018534,425,-1365,-491,-1490,-302,-33,381,155,-273
1,5018541,422,-1365,-488,-1489,-300,-35,384,156,-284
1,5018549,422,-1365,-488,-1489,-300,-35,384,156,-284
1,5018555,422,-1365,-488,-1489,-300,-35,384,156,-284
1,5018560,422,-1366,-491,-1487,-298,-39,384,156,-284
1,5018567,422,-1366,-491,-1487,-298,-39,384,156,-284
1,5018575,422,-1366,-491,-1487,-298,-39,384,156,-284
1,5018583,426,-1365,-491,-1484,-300,-37,384,156,-284
1,5018590,426,-1365,-491,-1484,-300,-37,384,156,-284
1,5018597,426,-1362,-489,-1491,-303,-32,384,156,-284
1,5018604,426,-1362,-489,-1491,-303,-32,384,156,-284
1,5018610,426,-1362,-489,-1491,-303,-32,384,156,-284
1,5018617,423,-1364,-494,-1483,-306,-38,384,156,-284
1,5018626,423,-1364,-494,-1483,-306,-38,384,156,-284
1,5018633,423,-1364,-494,-1483,-306,-38,384,156,-284
1,5018639,425,-1366,-497,-1482,-306,-42,384,156,-284
1,5018645,425,-1366,-497,-1482,-306,-42,384,156,-284
1,5018652,425,-1366,-497,-1482,-306,-42,384,156,-284
1,5018658,423,-1367,-484,-1486,-307,-41,380,154,-276
1,5018667,423,-1367,-484,-1486,-307,-41,380,154,-276
1,5018675,423,-1367,-484,-1486,-307,-41,380,154,-276
1,5018680,425,-1365,-490,-1484,-307,-44,380,154,-276
1,5018687,425,-1365,-490,-1484,-307,-44,380,154,-276
1,5018692,425,-1365,-490,-1484,-307,-44,380,154,-276
1,5018697,425,-1363,-486,-1487,-303,-43,380,154,-276
1,5018702,425,-1363,-486,-1487,-303,-43,380,154,-276
1,5018707,425,-1363,-486,-1487,-303,-43,380,154,-276
1,5018713,425,-1363,-486,-1487,-303,-43,380,154,-276
1,5018718,424,-1364,-491,-1489,-301,-36,380,154,-276
1,5018723,424,-1364,-491,-1489,-301,-36,380,154,-276
1,5018729,424,-1364,-491,-1489,-301,-36,380,154,-276
1,5018735,424,-1364,-491,-1489,-301,-36,380,154,-276
1,5018744,423,-1368,-487,-1485,-307,-29,380,154,-276
1,5018750,423,-1368,-487,-1485,-307,-29,380,154,-276
1,5018756,423,-1368,-487,-1485,-307,-29,380,154,-276
1,5018761,426,-1365,-490,-1486,-300,-38,380,154,-276
1,5018768,426,-1365,-490,-1486,-300,-38,380,154,-276
1,5018774,426,-1365,-490,-1486,-300,-38,380,154,-276
1,5018780,422,-1364,-485,-1484,-307,-41,383,153,-269
1,5018787,422,-1364,-485,-1484,-307,-41,383,153,-269
1,5018796,422,-1364,-485,-1484,-307,-41,383,153,-269
1,5018803,422,-1367,-496,-1483,-302,-42,383,153,-269
1,5018809,422,-1367,-496,-1483,-302,-42,383,153,-269
1,5018816,423,-1365,-493,-1482,-305,-45,383,153,-269
1,5018822,423,-1365,-493,-1482,-305,-45,383,153,-269
1,5018828,423,-1365,-493,-1482,-305,-45,383,153,-269
1,5018835,423,-1365,-493,-1482,-305,-45,383,153,-269
1,5018841,425,-1368,-491,-1482,-304,-36,383,153,-269
1,5018848,425,-1368,-491,-1482,-304,-36,383,153,-269
1,5018855,425,-1368,-491,-1482,-304,-36,383,153,-269
1,5018861,425,-1365,-489,-1484,-307,-43,383,153,-269
1,5018869,425,-1365,-489,-1484,-307,-43,383,153,-269
1,5018877,424,-1368,-489,-1483,-299,-49,383,153,-269
1,5018886,424,-1368,-489,-1483,-299,-49,383,153,-269
1,5018892,424,-1368,-489,-1483,-299,-49,383,153,-269
1,5018899,423,-1365,-489,-1485,-301,-43,380,158,-272
1,5018905,423,-1365,-489,-1485,-301,-43,380,158,-272
1,5018911,423,-1365,-489,-1485,-301,-43,380,158,-272
1,5018919,420,-1362,-487,-1482,-304,-42,380,158,-272
1,5018928,420,-1362,-487,-1482,-304,-42,380,158,-272
1,5018936,420,-1362,-487,-1482,-304,-42,380,158,-272
1,5018944,424,-1361,-487,-1487,-304,-39,380,158,-272
1,5018950,424,-1361,-487,-1487,-304,-39,380,158,-272
1,5018956,424,-1361,-487,-1487,-304,-39,380,158,-272
1,5018963,422,-1362,-492,-1491,-296,-36,380,158,-272
1,5018971,422,-1362,-492,-1491,-296,-36,380,158,-272
1,5018978,423,-1365,-494,-1489,-299,-34,380,158,-272
1,5018986,423,-1365,-494,-1489,-299,-34,380,158,-272
1,5018993,423,-1365,-494,-1489,-299,-34,380,158,-272
1,5019002,422,-1365,-494,-1490,-302,-38,380,158,-272
1,5019010,422,-1365,-494,-1490,-302,-38,380,158,-272
1,5019018,426,-1363,-492,-1487,-300,-39,380,158,-272
1,5019025,426,-1363,-492,-1487,-300,-39,380,158,-272
1,5019032,426,-1363,-492,-1487,-300,-39,380,158,-272
1,5019039,425,-1366,-484,-1485,-299,-38,386,154,-278
1,5019045,425,-1366,-484,-1485,-299,-38,386,154,-278
1,5019053,425,-1366,-484,-1485,-299,-38,386,154,-278
1,5019061,423,-1362,-487,-1483,-303,-37,386,154,-278
1,5019068,423,-1362,-487,-1483,-303,-37,386,154,-278
1,5019074,423,-1362,-487,-1483,-303,-37,386,154,-278
1,5019081,427,-1364,-494,-1484,-304,-42,386,154,-278
1,5019088,427,-1364,-494,-1484,-304,-42,386,154,-278
1,5019096,427,-1364,-494,-1484,-304,-42,386,154,-278
1,5019103,424,-1365,-489,-1484,-304,-37,386,154,-278
1,5019111,424,-1365,-489,-1484,-304,-37,386,154,-278
1,5019118,425,-1365,-488,-1488,-299,-37,386,154,-278
1,5019124,425,-1365,-488,-1488,-299,-37,386,154,-278
1,5019130,425,-1365,-488,-1488,-299,-37,386,154,-278
1,5019137,423,-1363,-494,-1492,-297,-34,386,154,-278
1,5019145,423,-1363,-494,-1492,-297,-34,386,154,-278
1,5019152,423,-1363,-494,-1492,-297,-34,386,154,-278
1,5019159,423,-1365,-489,-1485,-304,-36,378,156,-264
1,5019166,423,-1365,-489,-1485,-304,-36,378,156,-264
1,5019173,423,-1365,-489,-1485,-304,-36,378,156,-264
1,5019182,425,-1366,-492,-1488,-307,-36,378,156,-264
1,5019189,425,-1366,-492,-1488,-307,-36,378,156,-264
1,5019195,425,-1366,-492,-1488,-307,-36,378,156,-264
1,5019201,425,-1363,-495,-1486,-314,-31,378,156,-264
1,5019206,425,-1363,-495,-1486,-314,-31,378,156,-264
1,5019211,425,-1363,-495,-1486,-314,-31,378,156,-264
1,5019218,425,-1362,-491,-1480,-306,-35,378,156,-264
1,5019226,425,-1362,-491,-1480,-306,-35,378,156,-264
1,5019233,425,-1362,-491,-1480,-306,-35,378,156,-264
1,5019240,424,-1364,-492,-1479,-305,-43,378,156,-264
1,5019248,424,-1364,-492,-1479,-305,-43,378,156,-264
1,5019254,424,-1364,-492,-1479,-305,-43,378,156,-264
1,5019261,424,-1365,-487,-1479,-304,-48,378,156,-264
1,5019269,424,-1365,-487,-1479,-304,-48,378,156,-264
1,5019276,424,-1365,-487,-1479,-304,-48,378,156,-264
1,5019283,426,-1364,-491,-1491,-299,-42,381,161,-273
1,5019289,426,-1364,-491,-1491,-299,-42,381,161,-273
1,5019296,426,-1364,-491,-1491,-299,-42,381,161,-273
1,5019304,424,-1364,-490,-1490,-303,-37,381,161,-273
1,5019312,424,-1364,-490,-1490,-303,-37,381,161,-273
1,5019319,423,-1366,-494,-1485,-303,-38,381,161,-273
1,5019326,423,-1366,-494,-1485,-303,-38,381,161,-273
1,5019333,423,-1366,-494,-1485,-303,-38,381,161,-273
1,5019339,424,-1365,-488,-1490,-298,-42,381,161,-273
1,5019347,424,-1365,-488,-1490,-298,-42,381,161,-273
1,5019356,424,-1365,-488,-1490,-298,-42,381,161,-273
1,5019363,422,-1364,-490,-1484,-301,-42,381,161,-273
1,5019371,422,-1364,-490,-1484,-301,-42,381,161,-273
1,5019377,426,-1365,-490,-1487,-297,-42,381,161,-273
1,5019385,426,-1365,-490,-1487,-297,-42,381,161,-273
1,5019393,426,-1365,-490,-1487,-297,-42,381,161,-273
1,5019401,425,-1367,-486,-1484,-294,-35,384,152,-272
1,5019407,425,-1367,-486,-1484,-294,-35,384,152,-272
1,5019414,425,-1367,-486,-1484,-294,-35,384,152,-272
1,5019421,424,-1366,-490,-1487,-299,-34,384,152,-272
1,5019429,424,-1366,-490,-1487,-299,-34,384,152,-272
1,5019437,425,-1365,-490,-1481,-297,-32,384,152,-272
1,5019444,425,-1365,-490,-1481,-297,-32,384,152,-272
1,5019451,425,-1365,-490,-1481,-297,-32,384,152,-272
1,5019457,425,-1366,-491,-1480,-300,-41,384,152,-272
1,5019464,425,-1366,-491,-1480,-300,-41,384,152,-272
1,5019471,425,-1366,-491,-1480,-300,-41,384,152,-272
1,5019479,424,-1367,-490,-1487,-299,-40,384,152,-272
1,5019485,424,-1367,-490,-1487,-299,-40,384,152,-272
1,5019490,424,-1367,-490,-1487,-299,-40,384,152,-272
1,5019495,424,-1367,-490,-1487,-299,-40,384,152,-272
1,5019500,425,-1366,-496,-1489,-301,-44,384,152,-272
1,5019505,425,-1366,-496,-1489,-301,-44,384,152,-272
1,5019510,425,-1366,-496,-1489,-301,-44,384,152,-272
1,5019516,425,-1366,-496,-1489,-301,-44,384,152,-272
1,5019524,426,-1364,-492,-1492,-306,-39,384,152,-272
1,5019531,426,-1364,-492,-1492,-306,-39,384,152,-272
1,5019538,423,-1367,-489,-1484,-300,-33,385,157,-281
1,5019546,423,-1367,-489,-1484,-300,-33,385,157,-281
1,5019551,423,-1367,-489,-1484,-300,-33,385,157,-281
1,5019558,423,-1366,-489,-1482,-299,-39,385,157,-281
1,5019564,423,-1366,-489,-1482,-299,-39,385,157,-281
1,5019572,423,-1366,-489,-1482,-299,-39,385,157,-281
1,5019579,425,-1366,-497,-1488,-310,-35,385,157,-281
1,5019586,425,-1366,-497,-1488,-310,-35,385,157,-281
1,5019593,425,-1366,-497,-1488,-310,-35,385,157,-281
1,5019600,426,-1363,-492,-1485,-307,-37,385,157,-281
1,5019608,426,-1363,-492,-1485,-307,-37,385,157,-281
1,5019615,426,-1363,-492,-1485,-307,-37,385,157,-281
1,5019621,425,-1361,-492,-1486,-294,-40,385,157,-281
1,5019627,425,-1361,-492,-1486,-294,-40,385,157,-281
1,5019634,425,-1361,-492,-1486,-294,-40,385,157,-281
1,5019641,424,-1364,-490,-1485,-299,-36,385,157,-281
1,5019649,424,-1364,-490,-1485,-299,-36,385,157,-281
1,5019657,425,-1365,-485,-1483,-300,-36,385,157,-281
1,5019664,425,-1365,-485,-1483,-300,-36,383,147,-277
1,5019671,425,-1365,-485,-1483,-300,-36,383,147,-277
1,5019677,426,-1365,-490,-1485,-305,-36,383,147,-277
1,5019684,426,-1365,-490,-1485,-305,-36,383,147,-277
1,5019689,426,-1365,-490,-1485,-305,-36,383,147,-277
1,5019695,426,-1365,-490,-1485,-305,-36,383,147,-277
1,5019700,426,-1365,-496,-1479,-307,-48,383,147,-277
1,5019705,426,-1365,-496,-1479,-307,-48,383,147,-277
1,5019711,426,-1365,-496,-1479,-307,-48,383,147,-277
1,5019716,426,-1365,-496,-1479,-307,-48,383,147,-277
1,5019722,423,-1363,-492,-1486,-306,-44,383,147,-277
1,5019726,423,-1363,-492,-1486,-306,-44,383,147,-277
1,5019732,423,-1363,-492,-1486,-306,-44,383,147,-277
1,5019739,421,-1367,-495,-1489,-311,-39,383,147,-277
1,5019746,421,-1367,-495,-1489,-311,-39,383,147,-277
1,5019753,421,-1367,-495,-1489,-311,-39,383,147,-277
1,5019759,426,-1366,-488,-1491,-302,-44,383,147,-277
1,5019766,426,-1366,-488,-1491,-302,-44,383,147,-277
1,5019773,426,-1366,-488,-1491,-302,-44,383,147,-277
1,5019781,426,-1364,-491,-1488,-298,-41,379,153,-273
1,5019789,426,-1364,-491,-1488,-298,-41,379,153,-273
1,5019794,426,-1364,-491,-1488,-298,-41,379,153,-273
1,5019800,424,-1366,-487,-1489,-305,-43,379,153,-273
1,5019808,424,-1366,-487,-1489,-305,-43,379,153,-273
1,5019817,424,-1363,-492,-1484,-301,-41,379,153,-273
1,5019825,424,-1363,-492,-1484,-301,-41,379,153,-273
1,5019830,424,-1363,-492,-1484,-301,-41,379,153,-273
1,5019837,425,-1364,-486,-1490,-302,-39,379,153,-273
1,5019844,425,-1364,-486,-1490,-302,-39,379,153,-273
1,5019849,425,-1364,-486,-1490,-302,-39,379,153,-273
1,5019857,426,-1364,-496,-1492,-305,-40,379,153,-273
1,5019865,426,-1364,-496,-1492,-305,-40,379,153,-273
1,5019872,426,-1364,-496,-1492,-305,-40,379,153,-273
1,5019879,424,-1366,-490,-1487,-298,-40,379,153,-273
1,5019886,424,-1366,-490,-1487,-298,-40,379,153,-273
1,5019893,424,-1366,-490,-1487,-298,-40,379,153,-273
1,5019899,426,-1362,-487,-1488,-299,-38,377,155,-277
1,5019908,426,-1362,-487,-1488,-299,-38,377,155,-277
1,5019914,426,-1362,-487,-1488,-299,-38,377,155,-277
1,5019920,422,-1365,-489,-1486,-301,-45,377,155,-277
1,5019928,422,-1365,-489,-1486,-301,-45,377,155,-277
1,5019935,422,-1365,-489,-1486,-301,-45,377,155,-277
1,5019941,425,-1366,-487,-1485,-304,-46,377,155,-277
1,5019949,425,-1366,-487,-1485,-304,-46,377,155,-277
1,5019956,425,-1366,-487,-1485,-304,-46,377,155,-277
1,5019963,427,-1364,-492,-1487,-307,-40,377,155,-277
1,5019968,427,-1364,-492,-1487,-307,-40,377,155,-277
1,5019976,427,-1364,-492,-1487,-307,-40,377,155,-277
1,5019983,425,-1365,-492,-1486,-301,-37,377,155,-277
1,5019991,425,-1365,-492,-1486,-301,-37,377,155,-277
1,5019997,422,-1365,-484,-1484,-304,-43,377,155,-277
1,5020004,422,-1365,-484,-1484,-304,-43,377,155,-277
1,5020011,422,-1365,-484,-1484,-304,-43,377,155,-277
1,5020017,425,-1368,-493,-1481,-312,-40,376,156,-278
1,5020024,425,-1368,-493,-1481,-312,-40,376,156,-278
1,5020032,425,-1368,-493,-1481,-312,-40,376,156,-278
1,5020038,422,-1367,-489,-1484,-306,-39,376,156,-278
1,5020046,422,-1367,-489,-1484,-306,-39,376,156,-278
1,5020052,422,-1367,-489,-1484,-306,-39,376,156,-278
1,5020059,425,-1363,-492,-1484,-304,-39,376,156,-278
1,5020065,425,-1363,-492,-1484,-304,-39,376,156,-278
1,5020071,425,-1363,-492,-1484,-304,-39,376,156,-278
1,5020079,426,-1363,-492,-1483,-303,-40,376,156,-278
1,5020084,426,-1363,-492,-1483,-303,-40,376,156,-278
1,5020091,426,-1363,-492,-1483,-303,-40,376,156,-278
1,5020097,424,-1368,-494,-1486,-303,-34,376,156,-278
1,5020104,424,-1368,-494,-1486,-303,-34,376,156,-278
1,5020112,424,-1368,-494,-1486,-303,-34,376,156,-278
1,5020120,424,-1365,-492,-1488,-305,-49,376,156,-278
1,5020127,424,-1365,-492,-1488,-305,-49,376,156,-278
1,5020133,424,-1365,-492,-1488,-305,-49,376,156,-278
1,5020140,425,-1367,-491,-1486,-302,-43,376,156,-278
1,5020147,425,-1367,-491,-1486,-302,-43,376,156,-278
1,5020154,425,-1367,-491,-1486,-302,-43,376,156,-278
1,5020162,424,-1367,-490,-1487,-295,-40,368,156,-272
1,5020168,424,-1367,-490,-1487,-295,-40,368,156,-272
1,5020175,424,-1367,-490,-1487,-295,-40,368,156,-272
1,5020182,424,-1364,-485,-1487,-302,-42,368,156,-272
1,5020188,424,-1364,-485,-1487,-302,-42,368,156,-272
1,5020194,424,-1364,-485,-1487,-302,-42,368,156,-272
1,5020201,426,-1366,-496,-1480,-309,-38,368,156,-272
1,5020207,426,-1366,-496,-1480,-309,-38,368,156,-272
1,5020212,426,-1366,-496,-1480,-309,-38,368,156,-272
1,5020217,422,-1365,-496,-1487,-300,-42,368,156,-272
1,5020224,422,-1365,-496,-1487,-300,-42,368,156,-272
1,5020231,422,-1365,-496,-1487,-300,-42,368,156,-272
1,5020238,424,-1364,-493,-1496,-308,-47,368,156,-272
1,5020244,424,-1364,-493,-1496,-308,-47,368,156,-272
1,5020252,424,-1364,-493,-1496,-308,-47,368,156,-272
1,5020260,425,-1367,-490,-1490,-310,-50,368,156,-272
1,5020267,425,-1367,-490,-1490,-310,-50,368,156,-272
1,5020274,425,-1367,-490,-1490,-310,-50,368,156,-272
1,5020281,423,-1364,-489,-1475,-299,-50,390,154,-278
1,5020289,423,-1364,-489,-1475,-299,-50,390,154,-278
1,5020296,423,-1364,-489,-1475,-299,-50,390,154,-278
1,5020302,424,-1367,-492,-1472,-295,-46,390,154,-278
1,5020310,424,-1367,-492,-1472,-295,-46,390,154,-278
1,5020317,426,-1365,-485,-1486,-300,-45,390,154,-278
1,5020324,426,-1365,-485,-1486,-300,-45,390,154,-278
1,5020332,426,-1365,-485,-1486,-300,-45,390,154,-278
1,5020339,425,-1362,-491,-1490,-302,-44,390,154,-278
1,5020346,425,-1362,-491,-1490,-302,-44,390,154,-278
1,5020352,425,-1362,-491,-1490,-302,-44,390,154,-278
1,5020361,425,-1364,-492,-1489,-309,-40,390,154,-278
1,5020368,425,-1364,-492,-1489,-309,-40,390,154,-278
1,5020377,425,-1364,-492,-1489,-309,-40,390,154,-278
1,5020383,426,-1364,-490,-1495,-297,-45,390,154,-278
1,5020390,426,-1364,-490,-1495,-297,-45,390,154,-278
1,5020397,424,-1364,-486,-1484,-301,-38,382,150,-268
1,5020405,424,-1364,-486,-1484,-301,-38,382,150,-268
1,5020411,424,-1364,-486,-1484,-301,-38,382,150,-268
1,5020419,424,-1365,-489,-1485,-300,-45,382,150,-268
1,5020427,424,-1365,-489,-1485,-300,-45,382,150,-268
1,5020434,424,-1365,-489,-1485,-300,-45,382,150,-268
1,5020440,425,-1367,-485,-1488,-301,-41,382,150,-268
1,5020447,425,-1367,-485,-1488,-301,-41,382,150,-268
1,5020453,425,-1367,-485,-1488,-301,-41,382,150,-268
1,5020461,425,-1366,-487,-1488,-301,-40,382,150,-268
1,5020469,425,-1366,-487,-1488,-301,-40,382,150,-268
1,5020477,422,-1364,-491,-1479,-308,-43,382,150,-268
1,5020485,422,-1364,-491,-1479,-308,-43,382,150,-268
1,5020490,422,-1364,-491,-1479,-308,-43,382,150,-268
1,5020494,422,-1364,-491,-1479,-308,-43,382,150,-268
1,5020499,427,-1365,-492,-1480,-302,-46,382,150,-268
1,5020505,427,-1365,-492,-1480,-302,-46,382,150,-268
1,5020510,427,-1365,-492,-1480,-302,-46,382,150,-268
1,5020515,427,-1365,-492,-1480,-302,-46,382,150,-268
1,5020521,426,-1365,-489,-1493,-300,-47,380,154,-274
1,5020528,426,-1365,-489,-1493,-300,-47,380,154,-274
1,5020535,426,-1365,-489,-1493,-300,-47,380,154,-274
1,5020542,425,-1363,-486,-1492,-298,-47,380,154,-274
1,5020550,425,-1363,-486,-1492,-298,-47,380,154,-274
1,5020557,422,-1364,-491,-1483,-302,-32,380,154,-274
1,5020564,422,-1364,-491,-1483,-302,-32,380,154,-274
1,5020570,422,-1364,-491,-1483,-302,-32,380,154,-274
1,5020578,427,-1363,-488,-1487,-307,-42,380,154,-274
1,5020584,427,-1363,-488,-1487,-307,-42,380,154,-274
1,5020592,427,-1363,-488,-1487,-307,-42,380,154,-274
1,5020599,424,-1364,-493,-1487,-306,-44,380,154,-274
1,5020606,424,-1364,-493,-1487,-306,-44,380,154,-274
1,5020612,424,-1364,-493,-1487,-306,-44,380,154,-274
1,5020618,425,-1364,-491,-1486,-300,-41,380,154,-274
1,5020626,425,-1364,-491,-1486,-300,-41,380,154,-274
1,5020633,425,-1364,-491,-1486,-300,-41,380,154,-274
1,5020638,426,-1361,-488,-1484,-297,-45,380,154,-274
1,5020646,426,-1361,-488,-1484,-297,-45,380,154,-274
1,5020654,426,-1361,-488,-1484,-297,-45,380,154,-274
1,5020661,427,-1366,-486,-1475,-299,-43,378,152,-280
1,5020667,427,-1366,-486,-1475,-299,-43,378,152,-280
1,5020674,427,-1366,-486,-1475,-299,-43,378,152,-280
1,5020681,422,-1366,-492,-1481,-300,-43,378,152,-280
1,5020687,422,-1366,-492,-1481,-300,-43,378,152,-280
1,5020692,422,-1366,-492,-1481,-300,-43,378,152,-280
1,5020697,424,-1367,-488,-1493,-303,-40,378,152,-280
1,5020703,424,-1367,-488,-1493,-303,-40,378,152,-280
1,5020707,424,-1367,-488,-1493,-303,-40,378,152,-280
1,5020712,424,-1367,-488,-1493,-303,-40,378,152,-280
1,5020719,423,-1366,-494,-1495,-306,-50,378,152,-280
1,5020724,423,-1366,-494,-1495,-306,-50,378,152,-280
1,5020729,423,-1366,-494,-1495,-306,-50,378,152,-280
1,5020736,423,-1366,-494,-1495,-306,-50,378,152,-280
1,5020744,425,-1369,-495,-1487,-307,-43,378,152,-280
1,5020751,425,-1369,-495,-1487,-307,-43,378,152,-280
1,5020758,427,-1367,-496,-1484,-307,-36,378,152,-280
1,5020765,427,-1367,-496,-1484,-307,-36,378,152,-280
1,5020770,427,-1367,-496,-1484,-307,-36,378,152,-280
1,5020775,427,-1367,-496,-1484,-307,-36,378,152,-280
1,5020780,423,-1367,-489,-1485,-300,-47,372,148,-270
1,5020787,423,-1367,-489,-1485,-300,-47,372,148,-270
1,5020795,423,-1367,-489,-1485,-300,-47,372,148,-270
1,5020804,424,-1365,-487,-1486,-296,-45,372,148,-270
1,5020812,424,-1365,-487,-1486,-296,-45,372,148,-270
1,5020819,423,-1368,-488,-1483,-301,-41,372,148,-270
1,5020826,423,-1368,-488,-1483,-301,-41,372,148,-270
1,5020833,423,-1368,-488,-1483,-301,-41,372,148,-270
1,5020840,423,-1368,-488,-1483,-301,-41,372,148,-270
1,5020847,423,-1368,-488,-1483,-301,-41,372,148,-270
1,5020854,423,-1368,-488,-1483,-301,-41,372,148,-270
1,5020863,422,-1364,-488,-1479,-306,-43,372,148,-270
1,5020870,422,-1364,-488,-1479,-306,-43,372,148,-270
1,5020876,422,-1364,-488,-1479,-306,-43,372,148,-270
1,5020883,423,-1366,-493,-1484,-296,-45,372,148,-270
1,5020892,423,-1366,-493,-1484,-296,-45,372,148,-270
1,5020898,423,-1365,-485,-1490,-302,-46,388,158,-278
1,5020905,423,-1365,-485,-1490,-302,-46,388,158,-278
1,5020913,423,-1365,-485,-1490,-302,-46,388,158,-278
1,5020919,426,-1366,-484,-1489,-301,-41,388,158,-278
1,5020926,426,-1366,-484,-1489,-301,-41,388,158,-278
1,5020934,426,-1366,-484,-1489,-301,-41,388,158,-278
1,5020939,427,-1367,-492,-1487,-305,-37,388,158,-278
1,5020947,427,-1367,-492,-1487,-305,-37,388,158,-278
1,5020954,427,-1367,-492,-1487,-305,-37,388,158,-278
1,5020962,423,-1366,-493,-1484,-301,-34,388,158,-278
1,5020968,423,-1366,-493,-1484,-301,-34,388,158,-278
1,5020974,423,-1366,-493,-1484,-301,-34,388,158,-278
1,5020981,425,-1368,-490,-1491,-301,-36,388,158,-278
1,5020986,425,-1368,-490,-1491,-301,-36,388,158,-278
1,5020993,425,-1368,-490,-1491,-301,-36,388,158,-278
1,5021001,424,-1365,-486,-1485,-301,-44,388,158,-278
1,5021006,424,-1365,-486,-1485,-301,-44,388,158,-278
1,5021014,424,-1365,-486,-1485,-301,-44,388,158,-278
1,5021022,422,-1366,-487,-1480,-302,-38,388,154,-284
1,5021028,422,-1366,-487,-1480,-302,-38,388,154,-284
1,5021035,422,-1366,-487,-1480,-302,-38,388,154,-284
1,5021041,422,-1367,-486,-1483,-300,-34,388,154,-284
1,5021049,422,-1367,-486,-1483,-300,-34,388,154,-284
1,5021057,422,-1367,-486,-1483,-300,-34,388,154,-284
1,5021065,423,-1365,-490,-1489,-296,-50,388,154,-284
1,5021072,423,-1365,-490,-1489,-296,-50,388,154,-284
1,5021081,427,-1362,-491,-1482,-302,-48,388,154,-284
1,5021088,427,-1362,-491,-1482,-302,-48,388,154,-284
1,5021096,427,-1362,-491,-1482,-302,-48,388,154,-284
1,5021104,426,-1367,-490,-1485,-301,-39,388,154,-284
1,5021109,426,-1367,-490,-1485,-301,-39,388,154,-284
1,5021116,426,-1367,-490,-1485,-301,-39,388,154,-284
1,5021122,425,-1365,-487,-1491,-298,-40,388,154,-284
1,5021130,425,-1365,-487,-1491,-298,-40,388,154,-284
1,5021136,425,-1365,-487,-1491,-298,-40,388,154,-284
1,5021144,423,-1362,-491,-1484,-302,-45,388,154,-284
1,5021151,423,-1362,-491,-1484,-302,-45,388,154,-284
1,5021157,423,-1362,-491,-1484,-302,-45,388,154,-284
1,5021164,426,-1364,-489,-1484,-306,-43,380,156,-284
1,5021172,426,-1364,-489,-1484,-306,-43,380,156,-284
1,5021179,425,-1366,-488,-1476,-303,-42,380,156,-284
1,5021188,425,-1366,-488,-1476,-303,-42,380,156,-284
1,5021195,425,-1366,-488,-1476,-303,-42,380,156,-284
1,5021201,424,-1368,-490,-1482,-301,-42,380,156,-284
1,5021206,424,-1368,-490,-1482,-301,-42,380,156,-284
1,5021212,424,-1368,-490,-1482,-301,-42,380,156,-284
1,5021217,424,-1366,-490,-1483,-298,-42,380,156,-284
1,5021223,424,-1366,-490,-1483,-298,-42,380,156,-284
1,5021232,424,-1366,-490,-1483,-298,-42,380,156,-284
1,5021238,425,-1366,-490,-1484,-298,-41,380,156,-284
1,5021243,425,-1366,-490,-1484,-298,-41,380,156,-284
1,5021250,425,-1366,-490,-1484,-298,-41,380,156,-284
1,5021258,425,-1365,-484,-1487,-296,-42,380,156,-284
1,5021265,425,-1365,-484,-1487,-296,-42,380,156,-284
1,5021273,425,-1365,-484,-1487,-296,-42,380,156,-284
1,5021281,423,-1366,-485,-1492,-301,-41,387,153,-271
1,5021287,423,-1366,-485,-1492,-301,-41,387,153,-271
1,5021294,423,-1366,-485,-1492,-301,-41,387,153,-271
1,5021301,427,-1365,-491,-1484,-305,-40,387,153,-271
1,5021308,427,-1365,-491,-1484,-305,-40,387,153,-271
1,5021316,427,-1365,-491,-1484,-305,-40,387,153,-271
1,5021322,424,-1364,-487,-1484,-307,-46,387,153,-271
1,5021329,424,-1364,-487,-1484,-307,-46,387,153,-271
1,5021336,424,-1364,-487,-1484,-307,-46,387,153,-271
1,5021341,425,-1366,-489,-1480,-306,-43,387,153,-271
1,5021349,425,-1366,-489,-1480,-306,-43,387,153,-271
1,5021358,426,-1363,-492,-1482,-304,-36,387,153,-271
1,5021364,426,-1363,-492,-1482,-304,-36,387,153,-271
1,5021371,426,-1363,-492,-1482,-304,-36,387,153,-271
1,5021376,426,-1363,-492,-1482,-304,-36,387,153,-271
1,5021382,420,-1365,-494,-1487,-300,-38,387,153,-271
1,5021389,420,-1365,-494,-1487,-300,-38,387,153,-271
1,5021398,420,-1367,-487,-1494,-309,-45,379,161,-275
1,5021404,420,-1367,-487,-1494,-309,-45,379,161,-275
1,5021411,420,-1367,-487,-1494,-309,-45,379,161,-275
1,5021418,422,-1365,-488,-1484,-308,-40,379,161,-275
1,5021424,422,-1365,-488,-1484,-308,-40,379,161,-275
1,5021432,422,-1365,-488,-1484,-308,-40,379,161,-275
1,5021440,425,-1364,-491,-1486,-305,-47,379,161,-275
1,5021448,425,-1364,-491,-1486,-305,-47,379,161,-275
1,5021454,425,-1364,-491,-1486,-305,-47,379,161,-275
1,5021462,424,-1366,-495,-1485,-308,-42,379,161,-275
1,5021469,424,-1366,-495,-1485,-308,-42,379,161,-275
1,5021477,424,-1366,-495,-1485,-308,-42,379,161,-275
1,5021484,425,-1365,-493,-1483,-301,-34,379,161,-275
1,5021489,425,-1365,-493,-1483,-301,-34,379,161,-275
1,5021494,425,-1365,-493,-1483,-301,-34,379,161,-275
1,5021500,427,-1364,-492,-1481,-301,-38,379,161,-275
1,5021505,427,-1364,-492,-1481,-301,-38,379,161,-275
1,5021511,427,-1364,-492,-1481,-301,-38,379,161,-275
1,5021517,427,-1364,-492,-1481,-301,-38,379,161,-275
1,5021524,424,-1366,-489,-1477,-303,-43,381,149,-269
1,5021532,424,-1366,-489,-1477,-303,-43,381,149,-269
1,5021539,425,-1365,-488,-1482,-300,-49,381,149,-269
1,5021546,425,-1365,-488,-1482,-300,-49,381,149,-269
1,5021552,425,-1365,-488,-1482,-300,-49,381,149,-269
1,5021558,424,-1365,-492,-1483,-298,-44,381,149,-269
1,5021566,424,-1365,-492,-1483,-298,-44,381,149,-269
1,5021575,424,-1365,-492,-1483,-298,-44,381,149,-269
1,5021581,424,-1367,-491,-1484,-304,-45,381,149,-269
1,5021588,424,-1367,-491,-1484,-304,-45,381,149,-269
1,5021595,424,-1367,-491,-1484,-304,-45,381,149,-269
1,5021601,424,-1363,-492,-1483,-303,-41,381,149,-269
1,5021608,424,-1363,-492,-1483,-303,-41,381,149,-269
1,5021617,424,-1363,-492,-1483,-303,-41,381,149,-269
1,5021625,423,-1362,-490,-1480,-298,-38,381,149,-269
1,5021631,423,-1362,-490,-1480,-298,-38,381,149,-269
1,5021638,423,-1363,-493,-1483,-306,-46,382,144,-272
1,5021644,423,-1363,-493,-1483,-306,-46,382,144,-272
1,5021652,423,-1363,-493,-1483,-306,-46,382,144,-272
1,5021659,425,-1365,-488,-1479,-303,-41,382,144,-272
1,5021667,425,-1365,-488,-1479,-303,-41,382,144,-272
1,5021675,425,-1365,-488,-1479,-303,-41,382,144,-272
1,5021682,425,-1364,-488,-1484,-302,-41,382,144,-272
1,5021688,425,-1364,-488,-1484,-302,-41,382,144,-272
1,5021693,425,-1364,-488,-1484,-302,-41,382,144,-272
1,5021699,426,-1368,-491,-1488,-314,-40,382,144,-272
1,5021704,426,-1368,-491,-1488,-314,-40,382,144,-272
1,5021709,426,-1368,-491,-1488,-314,-40,382,144,-272
1,5021715,426,-1368,-491,-1488,-314,-40,382,144,-272
1,5021720,428,-1365,-488,-1483,-306,-41,382,144,-272
1,5021727,428,-1365,-488,-1483,-306,-41,382,144,-272
1,5021735,428,-1365,-488,-1483,-306,-41,382,144,-272
1,5021743,424,-1365,-492,-1478,-297,-38,382,144,-272
1,5021750,424,-1365,-492,-1478,-297,-38,382,144,-272
1,5021757,424,-1365,-492,-1478,-297,-38,382,144,-272
1,5021763,427,-1364,-492,-1484,-300,-39,382,144,-272
1,5021768,427,-1364,-492,-1484,-300,-39,382,144,-272
1,5021773,427,-1364,-492,-1484,-300,-39,382,144,-272
1,5021778,426,-1364,-486,-1475,-307,-39,373,167,-271
1,5021787,426,-1364,-486,-1475,-307,-39,373,167,-271
1,5021795,426,-1364,-486,-1475,-307,-39,373,167,-271
1,5021802,426,-1365,-488,-1480,-296,-43,373,167,-271
1,5021809,426,-1365,-488,-1480,-296,-43,373,167,-271
1,5021816,426,-1365,-488,-1480,-296,-43,373,167,-271
1,5021824,424,-1363,-486,-1485,-304,-43,373,167,-271
1,5021831,424,-1363,-486,-1485,-304,-43,373,167,-271
1,5021838,425,-1365,-492,-1485,-309,-43,373,167,-271
1,5021845,425,-1365,-492,-1485,-309,-43,373,167,-271
1,5021851,425,-1365,-492,-1485,-309,-43,373,167,-271
1,5021857,422,-1364,-491,-1481,-310,-42,373,167,-271
1,5021865,422,-1364,-491,-1481,-310,-42,373,167,-271
1,5021872,422,-1364,-491,-1481,-310,-42,373,167,-271
1,5021878,423,-1364,-493,-1481,-307,-38,373,167,-271
1,5021885,423,-1364,-493,-1481,-307,-38,373,167,-271
1,5021893,423,-1364,-493,-1481,-307,-38,373,167,-271
1,5021900,424,-1365,-486,-1478,-303,-35,383,155,-271
1,5021907,424,-1365,-486,-1478,-303,-35,383,155,-271
1,5021913,424,-1365,-486,-1478,-303,-35,383,155,-271
1,5021922,424,-1368,-492,-1484,-298,-39,383,155,-271
1,5021927,424,-1368,-492,-1484,-298,-39,383,155,-271
1,5021935,424,-1368,-492,-1484,-298,-39,383,155,-271
1,5021943,428,-1367,-496,-1486,-302,-37,383,155,-271
1,5021949,428,-1367,-496,-1486,-302,-37,383,155,-271
1,5021957,428,-1367,-496,-1486,-302,-37,383,155,-271
1,5021964,422,-1369,-491,-1491,-304,-34,383,155,-271
1,5021971,422,-1369,-491,-1491,-304,-34,383,155,-271
1,5021977,426,-1366,-490,-1481,-297,-41,383,155,-271
1,5021985,426,-1366,-490,-1481,-297,-41,383,155,-271
1,5021993,426,-1366,-490,-1481,-297,-41,383,155,-271
1,5022001,426,-1365,-490,-1481,-300,-36,383,155,-271
1,5022008,426,-1365,-490,-1481,-300,-36,383,155,-271
1,5022014,426,-1365,-490,-1481,-300,-36,383,155,-271
1,5022021,426,-1363,-490,-1475,-300,-41,378,150,-266
1,5022027,426,-1363,-490,-1475,-300,-41,378,150,-266
1,5022035,426,-1363,-490,-1475,-300,-41,378,150,-266
1,5022043,424,-1365,-489,-1483,-306,-41,378,150,-266
1,5022050,424,-1365,-489,-1483,-306,-41,378,150,-266
1,5022058,425,-1365,-492,-1478,-300,-42,378,150,-266
1,5022064,425,-1365,-492,-1478,-300,-42,378,150,-266
1,5022071,425,-1365,-492,-1478,-300,-42,378,150,-266
1,5022078,423,-1364,-488,-1473,-304,-41,378,150,-266
1,5022087,423,-1364,-488,-1473,-304,-41,378,150,-266
1,5022094,423,-1364,-488,-1473,-304,-41,378,150,-266
1,5022101,422,-1365,-491,-1488,-301,-46,378,150,-266
1,5022108,422,-1365,-491,-1488,-301,-46,378,150,-266
1,5022115,422,-1365,-491,-1488,-301,-46,378,150,-266
1,5022123,423,-1364,-491,-1487,-298,-34,378,150,-266
1,5022129,423,-1364,-491,-1487,-298,-34,378,150,-266
1,5022137,423,-1364,-491,-1487,-298,-34,378,150,-266
1,5022144,422,-1366,-487,-1488,-307,-42,378,154,-270
1,5022151,422,-1366,-487,-1488,-307,-42,378,154,-270
1,5022158,423,-1364,-489,-1483,-309,-44,378,154,-270
1,5022164,423,-1364,-489,-1483,-309,-44,378,154,-270
1,5022171,423,-1364,-489,-1483,-309,-44,378,154,-270
1,5022177,423,-1364,-489,-1483,-309,-44,378,154,-270
1,5022183,424,-1363,-491,-1479,-302,-49,378,154,-270
1,5022188,424,-1363,-491,-1479,-302,-49,378,154,-270
1,5022194,424,-1363,-491,-1479,-302,-49,378,154,-270
1,5022202,424,-1364,-492,-1486,-299,-41,378,154,-270
1,5022210,424,-1364,-492,-1486,-299,-41,378,154,-270
1,5022217,424,-1364,-492,-1486,-299,-41,378,154,-270
1,5022222,422,-1365,-489,-1485,-305,-40,378,154,-270
1,5022229,422,-1365,-489,-1485,-305,-40,378,154,-270
1,5022236,422,-1365,-489,-1485,-305,-40,378,154,-270
1,5022242,423,-1366,-492,-1486,-311,-43,378,154,-270
1,5022249,423,-1366,-492,-1486,-311,-43,378,154,-270
1,5022256,423,-1366,-492,-1486,-311,-43,378,154,-270
1,5022260,423,-1366,-491,-1488,-309,-45,378,154,-270
1,5022266,423,-1366,-491,-1488,-309,-45,378,154,-270
1,5022273,423,-1366,-491,-1488,-309,-45,378,154,-270
1,5022280,423,-1365,-488,-1484,-304,-50,372,160,-284
1,5022287,423,-1365,-488,-1484,-304,-50,372,160,-284
1,5022295,423,-1365,-488,-1484,-304,-50,372,160,-284
1,5022303,423,-1366,-488,-1484,-305,-39,372,160,-284
1,5022310,423,-1366,-488,-1484,-305,-39,372,160,-284
1,5022317,423,-1364,-488,-1490,-303,-44,372,160,-284
1,5022323,423,-1364,-488,-1490,-303,-44,372,160,-284
1,5022329,423,-1364,-488,-1490,-303,-44,372,160,-284
1,5022338,423,-1364,-488,-1490,-303,-44,372,160,-284
1,5022346,423,-1365,-493,-1482,-302,-43,372,160,-284
1,5022354,423,-1365,-493,-1482,-302,-43,372,160,-284
1,5022359,425,-1364,-492,-1490,-303,-43,372,160,-284
1,5022366,425,-1364,-492,-1490,-303,-43,372,160,-284
1,5022372,425,-1364,-492,-1490,-303,-43,372,160,-284
1,5022380,424,-1365,-487,-1486,-304,-34,372,160,-284
1,5022386,424,-1365,-487,-1486,-304,-34,372,160,-284
1,5022394,424,-1365,-487,-1486,-304,-34,372,160,-284
1,5022400,426,-1365,-490,-1488,-306,-37,382,148,-270
1,5022407,426,-1365,-490,-1488,-306,-37,382,148,-270
1,5022413,426,-1365,-490,-1488,-306,-37,382,148,-270
1,5022422,425,-1364,-490,-1483,-300,-43,382,148,-270
1,5022429,425,-1364,-490,-1483,-300,-43,382,148,-270
1,5022436,425,-1364,-490,-1483,-300,-43,382,148,-270
1,5022442,423,-1367,-492,-1485,-299,-43,382,148,-270
1,5022450,423,-1367,-492,-1485,-299,-43,382,148,-270
1,5022456,423,-1367,-492,-1485,-299,-43,382,148,-270
1,5022464,423,-1363,-495,-1485,-301,-39,382,148,-270
1,5022472,423,-1363,-495,-1485,-301,-39,382,148,-270
1,5022480,422,-1365,-492,-1488,-299,-35,382,148,-270
1,5022485,422,-1365,-492,-1488,-299,-35,382,148,-270
1,5022490,422,-1365,-492,-1488,-299,-35,382,148,-270
1,5022495,422,-1365,-492,-1488,-299,-35,382,148,-270
1,5022499,422,-1366,-491,-1489,-299,-31,382,148,-270
1,5022504,422,-1366,-491,-1489,-299,-31,382,148,-270
1,5022511,422,-1366,-491,-1489,-299,-31,382,148,-270
1,5022516,422,-1366,-491,-1489,-299,-31,382,148,-270
1,5022523,424,-1362,-490,-1482,-305,-40,373,151,-279
1,5022529,424,-1362,-490,-1482,-305,-40,373,151,-279
1,5022536,424,-1362,-490,-1482,-305,-40,373,151,-279
1,5022542,427,-1365,-490,-1478,-300,-42,373,151,-279
1,5022550,427,-1365,-490,-1478,-300,-42,373,151,-279
1,5022557,427,-1365,-490,-1478,-300,-42,373,151,-279
1,5022565,422,-1368,-490,-1482,-296,-39,373,151,-279
1,5022573,422,-1368,-490,-1482,-296,-39,373,151,-279
1,5022580,425,-1367,-491,-1487,-293,-38,373,151,-279
1,5022588,425,-1367,-491,-1487,-293,-38,373,151,-279
1,5022597,425,-1367,-491,-1487,-293,-38,373,151,-279
1,5022603,424,-1365,-497,-1486,-301,-39,373,151,-279
1,5022611,424,-1365,-497,-1486,-301,-39,373,151,-279
1,5022617,424,-1365,-497,-1486,-301,-39,373,151,-279
1,5022624,422,-1366,-490,-1485,-302,-40,373,151,-279
1,5022631,422,-1366,-490,-1485,-302,-40,373,151,-279
1,5022639,425,-1367,-489,-1483,-314,-41,382,150,-280
1,5022646,425,-1367,-489,-1483,-314,-41,382,150,-280
1,5022652,425,-1367,-489,-1483,-314,-41,382,150,-280
1,5022659,426,-1367,-489,-1482,-309,-46,382,150,-280
1,5022666,426,-1367,-489,-1482,-309,-46,382,150,-280
1,5022673,426,-1367,-489,-1482,-309,-46,382,150,-280
1,5022680,427,-1366,-493,-1484,-305,-38,382,150,-280
1,5022687,427,-1366,-493,-1484,-305,-38,382,150,-280
1,5022693,427,-1366,-493,-1484,-305,-38,382,150,-280
1,5022697,427,-1366,-493,-1484,-305,-38,382,150,-280
1,5022703,423,-1365,-493,-1485,-303,-39,382,150,-280
1,5022708,423,-1365,-493,-1485,-303,-39,382,150,-280
1,5022712,423,-1365,-493,-1485,-303,-39,382,150,-280
1,5022718,425,-1365,-488,-1488,-302,-38,382,150,-280
1,5022724,425,-1365,-488,-1488,-302,-38,382,150,-280
1,5022729,425,-1365,-488,-1488,-302,-38,382,150,-280
1,5022734,425,-1365,-488,-1488,-302,-38,382,150,-280
1,5022739,426,-1365,-487,-1483,-304,-45,382,150,-280
1,5022747,426,-1365,-487,-1483,-304,-45,382,150,-280
1,5022755,426,-1365,-487,-1483,-304,-45,382,150,-280
1,5022760,426,-1366,-492,-1484,-306,-44,382,150,-280
1,5022768,426,-1366,-492,-1484,-306,-44,382,150,-280
1,5022775,426,-1366,-492,-1484,-306,-44,382,150,-280
1,5022782,425,-1364,-488,-1486,-303,-42,385,159,-263
1,5022789,425,-1364,-488,-1486,-303,-42,385,159,-263
1,5022795,425,-1364,-488,-1486,-303,-42,385,159,-263
1,5022802,424,-1364,-487,-1477,-306,-34,385,159,-263
1,5022810,424,-1364,-487,-1477,-306,-34,385,159,-263
1,5022818,426,-1365,-487,-1486,-305,-41,385,159,-263
1,5022824,426,-1365,-487,-1486,-305,-41,385,159,-263
1,5022831,426,-1365,-487,-1486,-305,-41,385,159,-263
1,5022837,426,-1364,-490,-1473,-304,-42,385,159,-263
1,5022845,426,-1364,-490,-1473,-304,-42,385,159,-263
1,5022853,426,-1364,-490,-1473,-304,-42,385,159,-263
1,5022860,425,-1365,-490,-1477,-301,-43,385,159,-263
1,5022866,425,-1365,-490,-1477,-301,-43,385,159,-263
1,5022874,425,-1365,-490,-1477,-301,-43,385,159,-263
1,5022881,425,-1366,-494,-1476,-306,-41,385,159,-263
1,5022888,425,-1366,-494,-1476,-306,-41,385,159,-263
1,5022895,425,-1366,-494,-1476,-306,-41,385,159,-263
1,5022903,424,-1364,-489,-1488,-297,-44,375,157,-275
1,5022909,424,-1364,-489,-1488,-297,-44,375,157,-275
1,5022916,424,-1364,-489,-1488,-297,-44,375,157,-275
1,5022924,425,-1366,-492,-1479,-309,-39,375,157,-275
1,5022931,425,-1366,-492,-1479,-309,-39,375,157,-275
1,5022940,423,-1365,-492,-1483,-297,-43,375,157,-275
1,5022946,423,-1365,-492,-1483,-297,-43,375,157,-275
1,5022952,423,-1365,-492,-1483,-297,-43,375,157,-275
1,5022959,424,-1365,-491,-1488,-300,-40,375,157,-275
1,5022967,424,-1365,-491,-1488,-300,-40,375,157,-275
1,5022973,424,-1365,-491,-1488,-300,-40,375,157,-275
1,5022981,426,-1364,-496,-1488,-303,-37,375,157,-275
1,5022989,426,-1364,-496,-1488,-303,-37,375,157,-275
1,5022996,426,-1364,-496,-1488,-303,-37,375,157,-275
1,5023003,425,-1365,-491,-1490,-302,-41,375,157,-275
1,5023010,425,-1365,-491,-1490,-302,-41,375,157,-275
1,5023016,425,-1365,-491,-1490,-302,-41,375,157,-275
1,5023025,426,-1365,-491,-1492,-305,-43,375,141,-271
1,5023031,426,-1365,-491,-1492,-305,-43,375,141,-271
1,5023039,426,-1367,-490,-1488,-304,-42,375,141,-271
1,5023045,426,-1367,-490,-1488,-304,-42,375,141,-271
1,5023053,426,-1367,-490,-1488,-304,-42,375,141,-271
1,5023059,422,-1367,-491,-1491,-305,-35,375,141,-271
1,5023067,422,-1367,-491,-1491,-305,-35,375,141,-271
1,5023074,422,-1367,-491,-1491,-305,-35,375,141,-271
1,5023081,422,-1364,-491,-1483,-310,-41,375,141,-271
1,5023088,422,-1364,-491,-1483,-310,-41,375,141,-271
1,5023095,422,-1364,-491,-1483,-310,-41,375,141,-271
1,5023104,428,-1366,-491,-1487,-305,-37,375,141,-271
1,5023111,428,-1366,-491,-1487,-305,-37,375,141,-271
1,5023119,424,-1364,-495,-1484,-304,-43,375,141,-271
1,5023126,424,-1364,-495,-1484,-304,-43,375,141,-271
1,5023132,424,-1364,-495,-1484,-304,-43,375,141,-271
1,5023140,425,-1367,-489,-1485,-299,-39,377,157,-273
1,5023148,425,-1367,-489,-1485,-299,-39,377,157,-273
1,5023154,425,-1367,-489,-1485,-299,-39,377,157,-273
1,5023161,425,-1365,-488,-1486,-309,-37,377,157,-273
1,5023169,425,-1365,-488,-1486,-309,-37,377,157,-273
1,5023174,425,-1365,-488,-1486,-309,-37,377,157,-273
1,5023179,424,-1366,-493,-1486,-307,-40,377,157,-273
1,5023184,424,-1366,-493,-1486,-307,-40,377,157,-273
1,5023192,424,-1366,-493,-1486,-307,-40,377,157,-273
1,5023199,426,-1363,-492,-1486,-310,-36,377,157,-273
1,5023206,426,-1363,-492,-1486,-310,-36,377,157,-273
1,5023213,426,-1363,-492,-1486,-310,-36,377,157,-273
1,5023220,425,-1366,-494,-1485,-309,-37,377,157,-273
1,5023226,425,-1366,-494,-1485,-309,-37,377,157,-273
1,5023233,425,-1366,-494,-1485,-309,-37,377,157,-273
1,5023241,427,-1366,-493,-1489,-308,-45,377,157,-273
1,5023247,427,-1366,-493,-1489,-308,-45,377,157,-273
1,5023254,427,-1366,-493,-1489,-308,-45,377,157,-273
1,5023261,425,-1367,-495,-1478,-310,-44,377,157,-273
1,5023268,425,-1367,-495,-1478,-310,-44,377,157,-273
1,5023276,425,-1367,-495,-1478,-310,-44,377,157,-273
1,5023281,423,-1364,-488,-1486,-307,-42,374,146,-278
1,5023288,423,-1364,-488,-1486,-307,-42,374,146,-278
1,5023295,423,-1364,-488,-1486,-307,-42,374,146,-278
1,5023301,425,-1365,-486,-1488,-303,-37,374,146,-278
1,5023309,425,-1365,-486,-1488,-303,-37,374,146,-278
1,5023318,425,-1365,-486,-1488,-303,-37,374,146,-278
1,5023325,422,-1369,-490,-1487,-305,-36,374,146,-278
1,5023331,422,-1369,-490,-1487,-305,-36,374,146,-278
1,5023338,423,-1366,-493,-1487,-306,-42,374,146,-278
1,5023345,423,-1366,-493,-1487,-306,-42,374,146,-278
1,5023351,423,-1366,-493,-1487,-306,-42,374,146,-278
1,5023360,423,-1367,-485,-1487,-306,-39,374,146,-278
1,5023367,423,-1367,-485,-1487,-306,-39,374,146,-278
1,5023376,423,-1367,-485,-1487,-306,-39,374,146,-278
1,5023383,422,-1367,-487,-1489,-309,-34,374,146,-278
1,5023390,422,-1367,-487,-1489,-309,-34,374,146,-278
1,5023397,422,-1367,-487,-1489,-309,-34,374,146,-278
1,5023405,423,-1366,-487,-1481,-299,-36,377,155,-273
1,5023411,423,-1366,-487,-1481,-299,-36,377,155,-273
1,5023418,423,-1366,-487,-1481,-299,-36,377,155,-273
1,5023424,424,-1363,-487,-1484,-298,-42,377,155,-273
1,5023431,424,-1363,-487,-1484,-298,-42,377,155,-273
1,5023438,424,-1363,-487,-1484,-298,-42,377,155,-273
1,5023446,424,-1363,-487,-1484,-298,-42,377,155,-273
1,5023452,424,-1363,-487,-1484,-298,-42,377,155,-273
1,5023459,424,-1365,-491,-1485,-311,-41,377,155,-273
1,5023466,424,-1365,-491,-1485,-311,-41,377,155,-273
1,5023472,424,-1365,-491,-1485,-311,-41,377,155,-273
1,5023481,424,-1367,-494,-1480,-309,-41,377,155,-273
1,5023486,424,-1367,-494,-1480,-309,-41,377,155,-273
1,5023492,424,-1367,-494,-1480,-309,-41,377,155,-273
1,5023497,424,-1367,-494,-1480,-309,-41,377,155,-273
1,5023502,423,-1368,-486,-1483,-306,-41,377,155,-273
1,5023507,423,-1368,-486,-1483,-306,-41,377,155,-273
1,5023512,423,-1368,-486,-1483,-306,-41,377,155,-273
1,5023516,423,-1368,-486,-1483,-306,-41,377,155,-273
1,5023523,425,-1363,-486,-1483,-299,-40,380,154,-280
1,5023531,425,-1363,-486,-1483,-299,-40,380,154,-280
1,5023537,425,-1363,-486,-1483,-299,-40,380,154,-280
1,5023542,422,-1363,-491,-1482,-301,-40,380,154,-280
1,5023548,422,-1363,-491,-1482,-301,-40,380,154,-280
1,5023553,422,-1363,-491,-1482,-301,-40,380,154,-280
1,5023558,423,-1364,-492,-1484,-298,-38,380,154,-280
1,5023564,423,-1364,-492,-1484,-298,-38,380,154,-280
1,5023569,423,-1364,-492,-1484,-298,-38,380,154,-280
1,5023576,423,-1364,-492,-1484,-298,-38,380,154,-280
1,5023581,424,-1365,-492,-1475,-302,-47,380,154,-280
1,5023587,424,-1365,-492,-1475,-302,-47,380,154,-280
1,5023594,424,-1365,-492,-1475,-302,-47,380,154,-280
1,5023601,426,-1367,-490,-1480,-302,-36,380,154,-280
1,5023608,426,-1367,-490,-1480,-302,-36,380,154,-280
1,5023616,426,-1367,-490,-1480,-302,-36,380,154,-280
1,5023624,422,-1369,-493,-1486,-296,-38,380,154,-280
1,5023629,422,-1369,-493,-1486,-296,-38,380,154,-280
1,5023635,422,-1369,-493,-1486,-296,-38,380,154,-280
1,5023641,424,-1363,-489,-1485,-297,-39,387,155,-273
1,5023646,424,-1363,-489,-1485,-297,-39,387,155,-273
1,5023651,424,-1363,-489,-1485,-297,-39,387,155,-273
1,5023659,424,-1365,-490,-1488,-301,-48,387,155,-273
1,5023667,424,-1365,-490,-1488,-301,-48,387,155,-273
1,5023674,424,-1365,-490,-1488,-301,-48,387,155,-273
1,5023681,426,-1366,-485,-1483,-303,-45,387,155,-273
1,5023687,426,-1366,-485,-1483,-303,-45,387,155,-273
1,5023692,426,-1366,-485,-1483,-303,-45,387,155,-273
1,5023697,426,-1366,-485,-1483,-303,-45,387,155,-273
1,5023703,426,-1365,-492,-1485,-304,-40,387,155,-273
1,5023708,426,-1365,-492,-1485,-304,-40,387,155,-273
1,5023713,426,-1365,-492,-1485,-304,-40,387,155,-273
1,5023718,424,-1368,-488,-1485,-300,-42,387,155,-273
1,5023724,424,-1368,-488,-1485,-300,-42,387,155,-273
1,5023729,424,-1368,-488,-1485,-300,-42,387,155,-273
1,5023734,424,-1368,-488,-1485,-300,-42,387,155,-273
1,5023742,423,-1367,-490,-1482,-303,-35,387,155,-273
1,5023749,423,-1367,-490,-1482,-303,-35,387,155,-273
1,5023756,423,-1367,-490,-1482,-303,-35,387,155,-273
1,5023762,425,-1365,-489,-1485,-301,-35,375,155,-271
1,5023768,425,-1365,-489,-1485,-301,-35,375,155,-271
1,5023773,425,-1365,-489,-1485,-301,-35,375,155,-271
1,5023779,424,-1367,-489,-1482,-297,-32,375,155,-271
1,5023787,424,-1367,-489,-1482,-297,-32,375,155,-271
1,5023794,424,-1367,-489,-1482,-297,-32,375,155,-271
1,5023800,424,-1365,-488,-1481,-304,-43,375,155,-271
1,5023807,424,-1365,-488,-1481,-304,-43,375,155,-271
1,5023814,424,-1365,-488,-1481,-304,-43,375,155,-271
1,5023823,423,-1367,-490,-1477,-299,-42,375,155,-271
1,5023831,423,-1367,-490,-1477,-299,-42,375,155,-271
1,5023839,423,-1364,-490,-1482,-302,-39,375,155,-271
1,5023846,423,-1364,-490,-1482,-302,-39,375,155,-271
1,5023852,423,-1364,-490,-1482,-302,-39,375,155,-271
1,5023858,422,-1363,-490,-1485,-295,-45,375,155,-271
1,5023865,422,-1363,-490,-1485,-295,-45,375,155,-271
1,5023872,422,-1363,-490,-1485,-295,-45,375,155,-271
1,5023879,425,-1363,-491,-1480,-293,-36,375,155,-271
1,5023886,425,-1363,-491,-1480,-293,-36,375,155,-271
1,5023894,425,-1363,-491,-1480,-293,-36,375,155,-271
1,5023900,424,-1365,-490,-1490,-308,-38,377,161,-265
1,5023906,424,-1365,-490,-1490,-308,-38,377,161,-265
1,5023913,424,-1365,-490,-1490,-308,-38,377,161,-265
1,5023920,427,-1367,-486,-1485,-308,-46,377,161,-265
1,5023927,427,-1367,-486,-1485,-308,-46,377,161,-265
1,5023934,427,-1367,-486,-1485,-308,-46,377,161,-265
1,5023940,427,-1366,-488,-1488,-303,-35,377,161,-265
1,5023947,427,-1366,-488,-1488,-303,-35,377,161,-265
1,5023954,427,-1366,-488,-1488,-303,-35,377,161,-265
1,5023962,423,-1366,-490,-1488,-298,-39,377,161,-265
1,5023970,423,-1366,-490,-1488,-298,-39,377,161,-265
1,5023975,423,-1366,-490,-1488,-298,-39,377,161,-265
1,5023982,424,-1364,-492,-1491,-299,-40,377,161,-265
1,5023988,424,-1364,-492,-1491,-299,-40,377,161,-265
1,5023997,424,-1364,-492,-1491,-299,-40,377,161,-265
1,5024005,423,-1366,-491,-1484,-306,-42,377,161,-265
1,5024013,423,-1366,-491,-1484,-306,-42,377,161,-265
1,5024020,425,-1365,-488,-1484,-303,-42,384,160,-272
1,5024027,425,-1365,-488,-1484,-303,-42,384,160,-272
1,5024033,425,-1365,-488,-1484,-303,-42,384,160,-272
1,5024040,423,-1362,-485,-1483,-303,-44,384,160,-272
1,5024048,423,-1362,-485,-1483,-303,-44,384,160,-272
1,5024055,423,-1362,-485,-1483,-303,-44,384,160,-272
1,5024060,422,-1363,-495,-1483,-300,-35,384,160,-272
1,5024066,422,-1363,-495,-1483,-300,-35,384,160,-272
1,5024071,422,-1363,-495,-1483,-300,-35,384,160,-272
1,5024078,423,-1365,-491,-1483,-307,-38,384,160,-272
1,5024087,423,-1365,-491,-1483,-307,-38,384,160,-272
1,5024094,423,-1365,-491,-1483,-307,-38,384,160,-272
1,5024100,423,-1363,-489,-1487,-304,-39,384,160,-272
1,5024107,423,-1363,-489,-1487,-304,-39,384,160,-272
1,5024114,423,-1363,-489,-1487,-304,-39,384,160,-272
1,5024121,424,-1365,-487,-1481,-304,-34,384,160,-272
1,5024130,424,-1365,-487,-1481,-304,-34,384,160,-272
1,5024137,424,-1365,-487,-1481,-304,-34,384,160,-272
1,5024142,421,-1365,-487,-1478,-300,-37,384,154,-272
1,5024149,421,-1365,-487,-1478,-300,-37,384,154,-272
1,5024155,421,-1365,-487,-1478,-300,-37,384,154,-272
1,5024161,425,-1367,-489,-1487,-304,-41,384,154,-272
1,5024168,425,-1367,-489,-1487,-304,-41,384,154,-272
1,5024176,425,-1367,-489,-1487,-304,-41,384,154,-272
1,5024183,421,-1364,-495,-1491,-295,-38,384,154,-272
1,5024190,421,-1364,-495,-1491,-295,-38,384,154,-272
1,5024197,421,-1364,-495,-1491,-295,-38,384,154,-272
1,5024203,424,-1367,-492,-1482,-300,-45,384,154,-272
1,5024209,424,-1367,-492,-1482,-300,-45,384,154,-272
1,5024217,424,-1367,-492,-1482,-300,-45,384,154,-272
1,5024223,425,-1366,-493,-1482,-296,-40,384,154,-272
1,5024230,425,-1366,-493,-1482,-296,-40,384,154,-272
1,5024238,425,-1366,-493,-1482,-296,-40,384,154,-272
1,5024245,427,-1367,-492,-1494,-299,-39,384,154,-272
1,5024252,427,-1367,-492,-1494,-299,-39,384,154,-272
1,5024259,424,-1364,-488,-1486,-307,-39,374,146,-272
1,5024265,424,-1364,-488,-1486,-307,-39,374,146,-278
1,5024272,424,-1364,-488,-1486,-307,-39,374,146,-278
1,5024281,425,-1366,-492,-1488,-306,-42,374,146,-278
1,5024289,425,-1366,-492,-1488,-306,-42,374,146,-278
1,5024296,425,-1366,-492,-1488,-306,-42,374,146,-278
1,5024303,424,-1367,-489,-1484,-305,-37,374,146,-278
1,5024309,424,-1367,-489,-1484,-305,-37,374,146,-278
1,5024315,424,-1367,-489,-1484,-305,-37,374,146,-278
1,5024322,423,-1363,-494,-1485,-300,-34,374,146,-278
1,5024329,423,-1363,-494,-1485,-300,-34,374,146,-278
1,5024336,423,-1363,-494,-1485,-300,-34,374,146,-278
1,5024344,424,-1362,-490,-1485,-295,-39,374,146,-278
1,5024351,424,-1362,-490,-1485,-295,-39,374,146,-278
1,5024359,422,-1364,-490,-1483,-308,-46,374,146,-278
1,5024366,422,-1364,-490,-1483,-308,-46,374,146,-278
1,5024373,422,-1364,-490,-1483,-308,-46,374,146,-278
1,5024380,424,-1363,-493,-1485,-310,-45,374,146,-278
1,5024387,424,-1363,-493,-1485,-310,-45,374,146,-278
1,5024394,424,-1363,-493,-1485,-310,-45,374,146,-278
1,5024402,423,-1364,-486,-1483,-307,-39,379,153,-271
1,5024409,423,-1364,-486,-1483,-307,-39,379,153,-271
1,5024416,423,-1364,-486,-1483,-307,-39,379,153,-271
1,5024423,425,-1366,-490,-1491,-305,-37,379,153,-271
1,5024432,425,-1366,-490,-1491,-305,-37,379,153,-271
1,5024440,425,-1366,-487,-1482,-300,-36,379,153,-271
1,5024448,425,-1366,-487,-1482,-300,-36,379,153,-271
1,5024456,425,-1366,-487,-1482,-300,-36,379,153,-271
1,5024464,423,-1364,-494,-1486,-304,-34,379,153,-271
1,5024472,423,-1364,-494,-1486,-304,-34,379,153,-271
1,5024478,423,-1364,-494,-1486,-304,-34,379,153,-271
1,5024485,425,-1365,-495,-1481,-301,-38,379,153,-271
1,5024490,425,-1365,-495,-1481,-301,-38,379,153,-271
1,5024495,425,-1365,-495,-1481,-301,-38,379,153,-271
1,5024500,423,-1366,-497,-1486,-309,-37,379,153,-271
1,5024505,423,-1366,-497,-1486,-309,-37,379,153,-271
1,5024512,423,-1366,-497,-1486,-309,-37,379,153,-271
