imu,time,ax,ay,az,gx,gy,gz,mx,my,mz
0,6217799,198,-1876,-381,-1027,-568,-332,313,147,-409
0,6217807,198,-1877,-386,-1027,-567,-320,313,147,-409
0,6217816,198,-1877,-386,-1027,-567,-320,313,147,-409
0,6217824,198,-1877,-386,-1027,-567,-320,313,147,-409
0,6217833,201,-1877,-377,-1022,-566,-325,312,144,-404
0,6217841,201,-1877,-377,-1022,-566,-325,312,144,-404
0,6217849,196,-1875,-380,-1028,-560,-321,312,144,-404
0,6217858,196,-1875,-380,-1028,-560,-321,312,144,-404
0,6217866,196,-1875,-380,-1028,-560,-321,312,144,-404
0,6217874,198,-1877,-383,-1032,-566,-325,312,144,-404
0,6217881,198,-1877,-383,-1032,-566,-325,312,144,-404
0,6217889,201,-1873,-389,-1027,-565,-331,312,144,-404
0,6217897,201,-1873,-389,-1027,-565,-331,312,144,-404
0,6217905,201,-1873,-389,-1027,-565,-331,312,144,-404
0,6217913,200,-1872,-386,-1024,-560,-332,312,144,-404
0,6217921,200,-1872,-386,-1024,-560,-332,312,144,-404
0,6217929,199,-1872,-386,-1028,-570,-320,312,144,-404
0,6217936,199,-1872,-386,-1028,-570,-320,312,144,-404
0,6217945,199,-1872,-386,-1028,-570,-320,312,144,-404
0,6217953,200,-1877,-383,-1031,-574,-325,310,146,-404
0,6217960,200,-1877,-383,-1031,-574,-325,310,146,-404
0,6217968,200,-1876,-391,-1029,-569,-320,310,146,-404
0,6217975,200,-1876,-391,-1029,-569,-320,310,146,-404
0,6217984,200,-1876,-391,-1029,-569,-320,310,146,-404
0,6217997,198,-1870,-391,-1023,-570,-319,310,146,-404
0,6218005,198,-1870,-391,-1023,-570,-319,310,146,-404
0,6218014,198,-1874,-384,-1033,-571,-325,310,146,-404
0,6218022,198,-1874,-384,-1033,-571,-325,310,146,-404
0,6218031,199,-1877,-382,-1024,-579,-324,310,146,-404
0,6218040,199,-1877,-382,-1024,-579,-324,310,146,-404
0,6218048,198,-1872,-383,-1032,-572,-323,310,146,-404
0,6218060,198,-1872,-383,-1032,-572,-323,310,146,-404
0,6218074,197,-1875,-385,-1037,-571,-322,312,148,-404
0,6218088,199,-1875,-378,-1026,-560,-323,312,148,-404
0,6218097,199,-1875,-378,-1026,-560,-323,312,148,-404
0,6218109,198,-1878,-380,-1022,-562,-324,312,148,-404
0,6218124,198,-1878,-380,-1022,-562,-324,312,148,-404
0,6218137,200,-1877,-384,-1023,-565,-322,312,148,-404
0,6218145,200,-1877,-384,-1023,-565,-322,312,148,-404
0,6218153,197,-1876,-385,-1033,-566,-330,312,148,-404
0,6218162,197,-1876,-385,-1033,-566,-330,312,148,-404
0,6218169,196,-1876,-379,-1032,-562,-331,312,148,-404
0,6218177,196,-1876,-379,-1032,-562,-331,312,148,-404
0,6218185,196,-1876,-379,-1032,-562,-331,312,148,-404
0,6218192,201,-1875,-386,-1026,-555,-327,312,148,-404
0,6218201,201,-1875,-386,-1026,-555,-327,312,148,-404
0,6218209,200,-1876,-384,-1022,-568,-331,309,145,-413
0,6218217,200,-1876,-384,-1022,-568,-331,309,145,-413
0,6218225,200,-1876,-384,-1022,-568,-331,309,145,-413
0,6218234,201,-1875,-380,-1027,-567,-338,309,145,-413
0,6218247,201,-1874,-383,-1027,-569,-329,309,145,-413
0,6218261,201,-1874,-383,-1027,-569,-329,309,145,-413
0,6218273,199,-1873,-389,-1033,-569,-328,309,145,-413
0,6218287,199,-1873,-389,-1033,-569,-328,309,145,-413
0,6218297,200,-1879,-386,-1029,-564,-329,309,145,-413
0,6218310,202,-1874,-388,-1022,-563,-328,309,145,-413
0,6218323,202,-1874,-388,-1022,-563,-328,309,145,-413
0,6218333,201,-1874,-388,-1023,-567,-328,312,144,-410
0,6218345,201,-1874,-388,-1023,-567,-328,312,144,-410
0,6218359,199,-1875,-386,-1023,-568,-328,312,144,-410
0,6218369,203,-1879,-386,-1030,-570,-323,312,144,-410
0,6218379,203,-1879,-386,-1030,-570,-323,312,144,-410
0,6218393,198,-1874,-389,-1035,-566,-325,312,144,-410
0,6218407,201,-1872,-385,-1032,-561,-326,312,144,-410
0,6218416,201,-1872,-385,-1032,-561,-326,312,144,-410
0,6218426,201,-1872,-385,-1032,-561,-326,312,144,-410
0,6218435,204,-1874,-381,-1030,-562,-331,312,144,-410
0,6218442,204,-1874,-381,-1030,-562,-331,312,144,-410
0,6218451,205,-1873,-384,-1034,-566,-328,312,144,-410
0,6218463,205,-1873,-384,-1034,-566,-328,312,144,-410
0,6218475,199,-1877,-383,-1033,-568,-338,311,153,-403
0,6218487,199,-1875,-388,-1025,-572,-326,311,153,-403
0,6218500,199,-1875,-388,-1025,-572,-326,311,153,-403
0,6218513,202,-1873,-387,-1020,-570,-318,311,153,-403
0,6218525,202,-1873,-387,-1020,-570,-318,311,153,-403
0,6218533,200,-1876,-380,-1027,-562,-330,311,153,-403
0,6218546,200,-1876,-380,-1027,-562,-330,311,153,-403
0,6218559,201,-1877,-388,-1028,-566,-327,311,153,-403
0,6218572,198,-1871,-386,-1029,-571,-331,311,153,-403
0,6218580,198,-1871,-386,-1029,-571,-331,311,153,-403
0,6218589,198,-1878,-383,-1021,-568,-326,315,147,-415
0,6218597,198,-1878,-383,-1021,-568,-326,315,147,-415
0,6218605,198,-1878,-383,-1021,-568,-326,315,147,-415
0,6218618,201,-1875,-388,-1026,-567,-325,315,147,-415
0,6218632,199,-1874,-387,-1023,-567,-325,315,147,-415
0,6218645,199,-1874,-387,-1023,-567,-325,315,147,-415
0,6218659,199,-1875,-384,-1027,-571,-323,315,147,-415
0,6218673,202,-1873,-384,-1026,-567,-327,315,147,-415
0,6218684,202,-1873,-384,-1026,-567,-327,315,147,-415
0,6218697,201,-1875,-384,-1030,-561,-323,315,147,-415
0,6218711,199,-1873,-382,-1022,-560,-326,322,154,-402
0,6218726,199,-1873,-382,-1022,-560,-326,322,154,-402
0,6218734,197,-1876,-382,-1027,-567,-325,322,154,-402
0,6218746,197,-1876,-382,-1027,-567,-325,322,154,-402
0,6218759,201,-1875,-380,-1030,-565,-325,322,154,-402
0,6218768,200,-1874,-382,-1025,-561,-324,322,154,-402
0,6218781,200,-1874,-382,-1025,-561,-324,322,154,-402
0,6218792,203,-1875,-383,-1022,-566,-323,322,154,-402
0,6218799,203,-1875,-383,-1022,-566,-323,322,154,-402
0,6218807,203,-1875,-383,-1022,-566,-323,322,154,-402
0,6218812,199,-1877,-388,-1024,-569,-335,322,154,-402
0,6218818,199,-1877,-388,-1024,-569,-335,322,154,-402
0,6218823,199,-1877,-388,-1024,-569,-335,322,154,-402
0,6218831,201,-1875,-387,-1021,-566,-326,322,154,-402
0,6218838,201,-1875,-387,-1021,-566,-326,322,154,-402
0,6218845,201,-1875,-387,-1021,-566,-326,322,154,-402
0,6218852,201,-1878,-390,-1024,-563,-326,318,146,-410
0,6218858,201,-1878,-390,-1024,-563,-326,318,146,-410
0,6218865,201,-1878,-390,-1024,-563,-326,318,146,-410
0,6218870,201,-1875,-383,-1026,-565,-329,318,146,-410
0,6218877,201,-1875,-383,-1026,-565,-329,318,146,-410
0,6218884,201,-1875,-383,-1026,-565,-329,318,146,-410
0,6218891,201,-1875,-383,-1026,-565,-329,318,146,-410
0,6218900,201,-1875,-383,-1026,-565,-329,318,146,-410
0,6218906,201,-1875,-383,-1026,-565,-329,318,146,-410
0,6218912,197,-1877,-388,-1032,-570,-327,318,146,-410
0,6218919,197,-1877,-388,-1032,-570,-327,318,146,-410
0,6218928,197,-1877,-388,-1032,-570,-327,318,146,-410
0,6218935,198,-1875,-388,-1029,-560,-320,318,146,-410
0,6218941,198,-1875,-388,-1029,-560,-320,318,146,-410
0,6218948,200,-1876,-385,-1027,-568,-326,318,146,-410
0,6218956,200,-1876,-385,-1027,-568,-326,318,146,-410
0,6218964,200,-1876,-385,-1027,-568,-326,318,146,-410
0,6218972,201,-1873,-383,-1024,-566,-328,317,151,-411
0,6218978,201,-1873,-383,-1024,-566,-328,317,151,-411
0,6218985,201,-1873,-383,-1024,-566,-328,317,151,-411
0,6218992,201,-1873,-383,-1024,-566,-328,317,151,-411
0,6218998,201,-1873,-383,-1024,-566,-328,317,151,-411
0,6219006,201,-1873,-383,-1024,-566,-328,317,151,-411
0,6219014,203,-1877,-381,-1021,-568,-330,317,151,-411
0,6219020,203,-1877,-381,-1021,-568,-330,317,151,-411
0,6219027,203,-1877,-381,-1021,-568,-330,317,151,-411
0,6219035,197,-1877,-384,-1028,-563,-327,317,151,-411
0,6219042,197,-1877,-384,-1028,-563,-327,317,151,-411
0,6219048,198,-1874,-388,-1026,-561,-329,317,151,-411
0,6219055,198,-1874,-388,-1026,-561,-329,317,151,-411
0,6219062,198,-1874,-388,-1026,-561,-329,317,151,-411
0,6219068,200,-1876,-390,-1037,-561,-330,317,151,-411
0,6219073,200,-1876,-390,-1037,-561,-330,317,151,-411
0,6219078,200,-1876,-390,-1037,-561,-330,317,151,-411
0,6219084,200,-1876,-390,-1037,-561,-330,317,151,-411
0,6219091,199,-1878,-384,-1020,-564,-330,317,151,-411
0,6219099,199,-1878,-384,-1020,-564,-330,317,151,-411
0,6219106,199,-1878,-384,-1020,-564,-330,317,151,-411
0,6219113,196,-1874,-384,-1028,-571,-332,311,147,-405
0,6219120,196,-1874,-384,-1028,-571,-332,311,147,-405
0,6219126,196,-1874,-384,-1028,-571,-332,311,147,-405
0,6219132,198,-1876,-383,-1029,-564,-328,311,147,-405
0,6219139,198,-1876,-383,-1029,-564,-328,311,147,-405
0,6219144,198,-1876,-383,-1029,-564,-328,311,147,-405
0,6219149,199,-1876,-388,-1036,-566,-323,311,147,-405
0,6219154,199,-1876,-388,-1036,-566,-323,311,147,-405
0,6219159,199,-1876,-388,-1036,-566,-323,311,147,-405
0,6219164,199,-1876,-388,-1036,-566,-323,311,147,-405
0,6219169,200,-1876,-389,-1030,-565,-332,311,147,-405
0,6219175,200,-1876,-389,-1030,-565,-332,311,147,-405
0,6219183,200,-1876,-389,-1030,-565,-332,311,147,-405
0,6219192,201,-1876,-387,-1024,-570,-324,311,147,-405
0,6219198,201,-1876,-387,-1024,-570,-324,311,147,-405
0,6219207,201,-1876,-387,-1024,-570,-324,311,147,-405
0,6219213,199,-1874,-381,-1030,-566,-327,311,147,-405
0,6219220,199,-1874,-381,-1030,-566,-327,311,147,-405
0,6219228,198,-1875,-386,-1028,-569,-323,311,147,-405
0,6219235,198,-1875,-386,-1028,-569,-323,307,141,-407
0,6219242,198,-1875,-386,-1028,-569,-323,307,141,-407
0,6219249,197,-1877,-384,-1030,-563,-322,307,141,-407
0,6219257,197,-1877,-384,-1030,-563,-322,307,141,-407
0,6219264,197,-1877,-384,-1030,-563,-322,307,141,-407
0,6219271,199,-1876,-389,-1018,-557,-328,307,141,-407
0,6219279,199,-1876,-389,-1018,-557,-328,307,141,-407
0,6219285,199,-1876,-389,-1018,-557,-328,307,141,-407
0,6219292,202,-1877,-385,-1019,-559,-322,307,141,-407
0,6219299,202,-1877,-385,-1019,-559,-322,307,141,-407
0,6219309,204,-1877,-385,-1025,-566,-329,307,141,-407
0,6219316,204,-1877,-385,-1025,-566,-329,307,141,-407
0,6219321,204,-1877,-385,-1025,-566,-329,307,141,-407
0,6219327,204,-1877,-385,-1025,-566,-329,307,141,-407
0,6219333,198,-1873,-383,-1025,-570,-332,307,141,-407
0,6219340,198,-1873,-383,-1025,-570,-332,307,141,-407
0,6219346,198,-1873,-383,-1025,-570,-332,307,141,-407
0,6219352,199,-1878,-384,-1031,-569,-327,307,141,-407
0,6219359,199,-1878,-384,-1031,-569,-327,307,141,-407
0,6219366,199,-1878,-384,-1031,-569,-327,307,141,-407
0,6219372,200,-1877,-376,-1031,-573,-326,301,149,-401
0,6219379,200,-1877,-376,-1031,-573,-326,301,149,-401
0,6219386,200,-1877,-376,-1031,-573,-326,301,149,-401
0,6219394,198,-1877,-383,-1026,-566,-326,301,149,-401
0,6219402,198,-1877,-383,-1026,-566,-326,301,149,-401
0,6219410,198,-1877,-383,-1030,-570,-321,301,149,-401
0,6219418,198,-1877,-383,-1030,-570,-321,301,149,-401
0,6219425,198,-1877,-383,-1030,-570,-321,301,149,-401
0,6219431,199,-1874,-385,-1034,-570,-322,301,149,-401
0,6219439,199,-1874,-385,-1034,-570,-322,301,149,-401
0,6219446,199,-1874,-385,-1034,-570,-322,301,149,-401
0,6219452,200,-1876,-390,-1028,-566,-326,301,149,-401
0,6219460,200,-1876,-390,-1028,-566,-326,301,149,-401
0,6219468,200,-1876,-390,-1028,-566,-326,301,149,-401
0,6219475,199,-1874,-387,-1024,-565,-320,301,149,-401
0,6219484,199,-1874,-387,-1024,-565,-320,301,149,-401
0,6219489,199,-1874,-384,-1021,-565,-326,309,149,-401
0,6219495,199,-1874,-384,-1021,-565,-326,309,149,-401
0,6219502,199,-1874,-384,-1021,-565,-326,309,149,-401
0,6219510,199,-1873,-382,-1031,-575,-324,309,149,-401
0,6219516,199,-1873,-382,-1031,-575,-324,309,149,-401
0,6219524,199,-1873,-382,-1031,-575,-324,309,149,-401
0,6219530,199,-1874,-389,-1023,-572,-322,309,149,-401
0,6219538,199,-1874,-389,-1023,-572,-322,309,149,-401
0,6219544,199,-1874,-389,-1023,-572,-322,309,149,-401
0,6219551,200,-1874,-385,-1024,-563,-328,309,149,-401
0,6219558,200,-1874,-385,-1024,-563,-328,309,149,-401
0,6219567,200,-1874,-385,-1024,-563,-328,309,149,-401
0,6219572,199,-1876,-381,-1029,-564,-329,309,149,-401
0,6219577,199,-1876,-381,-1029,-564,-329,309,149,-401
0,6219582,199,-1876,-381,-1029,-564,-329,309,149,-401
0,6219588,199,-1876,-381,-1029,-564,-329,309,149,-401
0,6219593,202,-1875,-392,-1031,-568,-326,309,149,-401
0,6219598,202,-1875,-392,-1031,-568,-326,309,149,-401
0,6219604,202,-1875,-392,-1031,-568,-326,309,149,-401
0,6219612,197,-1870,-383,-1031,-561,-329,313,147,-393
0,6219619,197,-1870,-383,-1031,-561,-329,313,147,-393
0,6219627,197,-1870,-383,-1031,-561,-329,313,147,-393
0,6219634,202,-1873,-379,-1038,-563,-330,313,147,-393
0,6219641,202,-1873,-379,-1038,-563,-330,313,147,-393
0,6219649,202,-1873,-379,-1038,-563,-330,313,147,-393
0,6219654,199,-1874,-378,-1029,-563,-320,313,147,-393
0,6219661,199,-1874,-378,-1029,-563,-320,313,147,-393
0,6219670,198,-1877,-384,-1024,-565,-327,313,147,-393
0,6219678,198,-1877,-384,-1024,-565,-327,313,147,-393
0,6219685,198,-1877,-384,-1024,-565,-327,313,147,-393
0,6219694,196,-1875,-382,-1020,-562,-333,313,147,-393
0,6219701,196,-1875,-382,-1020,-562,-333,313,147,-393
0,6219707,196,-1875,-382,-1020,-562,-333,313,147,-393
0,6219714,199,-1875,-383,-1024,-560,-328,313,147,-393
0,6219720,199,-1875,-383,-1024,-560,-328,313,147,-393
0,6219728,199,-1875,-383,-1024,-560,-328,313,147,-393
0,6219735,197,-1875,-384,-1020,-562,-327,313,147,-393
0,6219740,197,-1875,-384,-1020,-562,-327,313,147,-393
0,6219747,197,-1875,-384,-1020,-562,-327,313,147,-393
0,6219754,196,-1873,-379,-1022,-563,-325,308,142,-402
0,6219761,196,-1873,-379,-1022,-563,-325,308,142,-402
0,6219769,203,-1875,-378,-1029,-575,-325,308,142,-402
0,6219778,203,-1875,-378,-1029,-575,-325,308,142,-402
0,6219786,203,-1875,-378,-1029,-575,-325,308,142,-402
0,6219794,198,-1875,-385,-1028,-569,-325,308,142,-402
0,6219807,198,-1875,-385,-1028,-569,-325,308,142,-402
0,6219821,199,-1876,-389,-1027,-565,-320,308,142,-402
0,6219833,202,-1874,-385,-1025,-563,-316,308,142,-402
0,6219841,202,-1874,-385,-1025,-563,-316,308,142,-402
0,6219852,199,-1873,-387,-1030,-566,-325,308,142,-402
0,6219866,199,-1873,-387,-1030,-566,-325,308,142,-402
0,6219878,201,-1878,-381,-1021,-569,-322,309,147,-399
0,6219889,201,-1874,-381,-1025,-570,-325,309,147,-399
0,6219901,201,-1874,-381,-1025,-570,-325,309,147,-399
0,6219914,202,-1877,-387,-1025,-564,-328,309,147,-399
0,6219927,202,-1877,-387,-1025,-564,-328,309,147,-399
0,6219938,202,-1877,-387,-1025,-564,-328,309,147,-399
0,6219953,201,-1875,-382,-1027,-565,-325,309,147,-399
0,6219965,201,-1875,-382,-1027,-565,-325,309,147,-399
0,6219977,201,-1873,-385,-1026,-567,-324,309,147,-399
0,6219991,201,-1873,-385,-1026,-567,-324,309,147,-399
0,6220004,201,-1873,-385,-1026,-567,-324,309,147,-399
0,6220016,198,-1873,-377,-1030,-565,-333,308,150,-398
0,6220027,198,-1873,-377,-1030,-565,-333,308,150,-398
0,6220041,200,-1877,-382,-1024,-571,-336,308,150,-398
0,6220054,196,-1877,-379,-1025,-562,-333,308,150,-398
0,6220066,196,-1877,-379,-1025,-562,-333,308,150,-398
0,6220079,200,-1875,-388,-1024,-570,-336,308,150,-398
0,6220091,198,-1874,-389,-1029,-564,-326,308,150,-398
0,6220105,198,-1874,-389,-1029,-564,-326,308,150,-398
0,6220118,201,-1877,-388,-1026,-569,-329,308,150,-398
0,6220126,201,-1877,-388,-1026,-569,-329,308,150,-398
0,6220134,199,-1876,-386,-1027,-568,-329,307,155,-399
0,6220142,199,-1876,-386,-1027,-568,-329,307,155,-399
0,6220150,197,-1876,-382,-1026,-574,-329,307,155,-399
0,6220158,197,-1876,-382,-1026,-574,-329,307,155,-399
0,6220168,197,-1876,-382,-1026,-574,-329,307,155,-399
0,6220176,201,-1874,-377,-1031,-565,-332,307,155,-399
0,6220184,201,-1874,-377,-1031,-565,-332,307,155,-399
0,6220193,202,-1872,-384,-1029,-570,-328,307,155,-399
0,6220201,202,-1872,-384,-1029,-570,-328,307,155,-399
0,6220210,201,-1874,-386,-1027,-567,-332,307,155,-399
0,6220218,201,-1874,-386,-1027,-567,-332,307,155,-399
0,6220226,201,-1874,-386,-1027,-567,-332,307,155,-399
0,6220234,200,-1871,-385,-1027,-567,-329,307,155,-399
0,6220243,200,-1871,-385,-1027,-567,-329,307,155,-399
0,6220252,199,-1873,-385,-1028,-565,-334,307,155,-399
0,6220262,199,-1873,-385,-1028,-565,-334,307,155,-399
0,6220270,200,-1877,-386,-1022,-564,-332,315,145,-397
0,6220280,200,-1877,-386,-1022,-564,-332,315,145,-397
0,6220291,197,-1877,-382,-1025,-572,-328,315,145,-397
0,6220305,197,-1877,-382,-1025,-572,-328,315,145,-397
0,6220318,197,-1876,-388,-1025,-570,-323,315,145,-397
0,6220326,197,-1876,-388,-1025,-570,-323,315,145,-397
0,6220340,198,-1877,-382,-1021,-567,-323,315,145,-397
0,6220355,202,-1877,-382,-1032,-577,-330,315,145,-397
0,6220368,202,-1877,-382,-1032,-577,-330,315,145,-397
0,6220380,201,-1876,-386,-1030,-568,-332,315,145,-397
0,6220392,200,-1875,-377,-1028,-567,-333,311,157,-397
0,6220406,200,-1875,-377,-1028,-567,-333,311,157,-397
0,6220419,198,-1876,-385,-1016,-564,-330,311,157,-397
0,6220431,198,-1874,-383,-1022,-565,-330,311,157,-397
0,6220442,198,-1874,-383,-1022,-565,-330,311,157,-397
0,6220455,197,-1875,-378,-1022,-568,-328,311,157,-397
0,6220471,197,-1875,-378,-1022,-568,-328,311,157,-397
0,6220485,197,-1875,-378,-1022,-568,-328,311,157,-397
0,6220494,201,-1873,-381,-1031,-569,-330,311,157,-397
0,6220507,201,-1873,-381,-1031,-569,-330,311,157,-397
0,6220520,200,-1875,-379,-1028,-575,-325,314,150,-394
0,6220533,200,-1874,-378,-1026,-567,-322,314,150,-394
0,6220544,200,-1874,-378,-1026,-567,-322,314,150,-394
0,6220558,201,-1874,-381,-1035,-568,-335,314,150,-394
0,6220570,201,-1878,-385,-1027,-565,-324,314,150,-394
0,6220579,201,-1878,-385,-1027,-565,-324,314,150,-394
0,6220587,201,-1878,-385,-1027,-565,-324,314,150,-394
0,6220595,200,-1876,-383,-1024,-571,-334,314,150,-394
0,6220603,200,-1876,-383,-1024,-571,-334,314,150,-394
0,6220612,198,-1876,-386,-1031,-565,-334,314,150,-394
0,6220623,198,-1876,-386,-1031,-565,-334,314,150,-394
0,6220637,201,-1877,-382,-1032,-572,-333,314,150,-394
0,6220649,201,-1877,-382,-1032,-572,-333,314,150,-394
0,6220660,196,-1874,-379,-1024,-571,-322,310,150,-404
0,6220674,196,-1874,-379,-1024,-571,-322,310,150,-404
0,6220689,196,-1874,-379,-1024,-571,-322,310,150,-404
0,6220703,204,-1878,-384,-1027,-570,-331,310,150,-404
0,6220711,199,-1877,-384,-1025,-561,-329,310,150,-404
0,6220725,199,-1877,-384,-1025,-561,-329,310,150,-404
0,6220738,198,-1880,-388,-1023,-572,-326,310,150,-404
0,6220752,202,-1876,-388,-1025,-572,-322,310,150,-404
0,6220762,202,-1876,-388,-1025,-572,-322,310,150,-404
0,6220773,198,-1879,-387,-1022,-570,-325,316,148,-408
0,6220781,198,-1879,-387,-1022,-570,-325,316,148,-408
0,6220789,198,-1879,-387,-1022,-570,-325,316,148,-408
0,6220797,199,-1874,-383,-1019,-569,-332,316,148,-408
0,6220807,199,-1874,-383,-1019,-569,-332,316,148,-408
0,6220812,198,-1878,-387,-1023,-571,-327,316,148,-408
0,6220820,198,-1878,-387,-1023,-571,-327,316,148,-408
0,6220826,198,-1878,-387,-1023,-571,-327,316,148,-408
0,6220834,197,-1873,-385,-1023,-566,-324,316,148,-408
0,6220840,197,-1873,-385,-1023,-566,-324,316,148,-408
0,6220848,197,-1873,-385,-1023,-566,-324,316,148,-408
0,6220854,197,-1876,-387,-1025,-566,-326,316,148,-408
0,6220862,197,-1876,-387,-1025,-566,-326,316,148,-408
0,6220868,197,-1876,-387,-1025,-566,-326,316,148,-408
0,6220874,200,-1873,-388,-1029,-559,-330,316,148,-408
0,6220882,200,-1873,-388,-1029,-559,-330,316,148,-408
0,6220889,200,-1873,-388,-1029,-559,-330,316,148,-408
0,6220895,199,-1872,-383,-1034,-565,-327,316,148,-408
0,6220902,199,-1872,-383,-1034,-565,-327,316,148,-408
0,6220909,199,-1872,-383,-1034,-565,-327,316,148,-408
0,6220915,199,-1873,-377,-1035,-568,-323,313,151,-395
0,6220922,199,-1873,-377,-1035,-568,-323,313,151,-395
0,6220931,197,-1874,-380,-1035,-562,-332,313,151,-395
0,6220937,197,-1874,-380,-1035,-562,-332,313,151,-395
0,6220943,197,-1874,-380,-1035,-562,-332,313,151,-395
0,6220951,199,-1873,-383,-1027,-566,-330,313,151,-395
0,6220959,199,-1873,-383,-1027,-566,-330,313,151,-395
0,6220971,199,-1873,-383,-1027,-566,-330,313,151,-395
0,6220980,199,-1877,-386,-1015,-566,-328,313,151,-395
0,6220988,199,-1877,-386,-1015,-566,-328,313,151,-395
0,6220997,198,-1874,-383,-1024,-560,-329,313,151,-395
0,6221007,198,-1874,-383,-1024,-560,-329,313,151,-395
0,6221017,198,-1877,-383,-1027,-562,-319,313,151,-395
0,6221027,198,-1877,-383,-1027,-562,-319,313,151,-395
0,6221038,202,-1874,-378,-1021,-571,-326,307,149,-405
0,6221045,202,-1874,-378,-1021,-571,-326,307,149,-405
0,6221056,200,-1874,-385,-1020,-567,-329,307,149,-405
0,6221063,200,-1874,-385,-1020,-567,-329,307,149,-405
0,6221074,200,-1874,-384,-1023,-562,-324,307,149,-405
0,6221083,200,-1874,-384,-1023,-562,-324,307,149,-405
0,6221093,201,-1875,-384,-1033,-570,-324,307,149,-405
0,6221105,201,-1875,-384,-1033,-570,-324,307,149,-405
0,6221112,201,-1875,-387,-1029,-566,-328,307,149,-405
0,6221124,201,-1875,-387,-1029,-566,-328,307,149,-405
0,6221131,201,-1874,-381,-1025,-568,-335,307,149,-405
0,6221137,201,-1874,-381,-1025,-568,-335,307,149,-405
0,6221144,201,-1874,-381,-1025,-568,-335,307,149,-405
0,6221150,201,-1874,-381,-1025,-568,-335,307,149,-405
0,6221156,201,-1875,-387,-1029,-563,-332,307,149,-405
0,6221162,201,-1875,-387,-1029,-563,-332,307,149,-405
0,6221168,201,-1875,-387,-1029,-563,-332,307,149,-405
0,6221174,199,-1872,-379,-1036,-561,-328,307,149,-399
0,6221181,199,-1872,-379,-1036,-561,-328,307,149,-399
0,6221193,199,-1874,-381,-1033,-565,-325,307,149,-399
0,6221200,199,-1874,-381,-1033,-565,-325,307,149,-399
0,6221211,197,-1874,-383,-1037,-568,-323,307,149,-399
0,6221221,197,-1874,-383,-1037,-568,-323,307,149,-399
0,6221230,197,-1874,-383,-1037,-568,-323,307,149,-399
0,6221241,200,-1875,-389,-1026,-565,-332,307,149,-399
0,6221252,199,-1877,-386,-1031,-570,-329,307,149,-399
0,6221262,199,-1877,-386,-1031,-570,-329,307,149,-399
0,6221273,198,-1875,-388,-1032,-571,-328,307,149,-399
0,6221280,198,-1875,-388,-1032,-571,-328,307,149,-399
0,6221290,198,-1875,-388,-1032,-571,-328,307,149,-399
0,6221300,199,-1874,-381,-1035,-569,-325,314,144,-408
0,6221308,199,-1874,-381,-1035,-569,-325,314,144,-408
0,6221315,198,-1877,-386,-1033,-570,-329,314,144,-408
0,6221321,198,-1877,-386,-1033,-570,-329,314,144,-408
0,6221327,198,-1877,-386,-1033,-570,-329,314,144,-408
0,6221335,199,-1877,-385,-1037,-568,-322,314,144,-408
0,6221345,199,-1877,-385,-1037,-568,-322,314,144,-408
0,6221358,200,-1874,-380,-1030,-565,-325,314,144,-408
0,6221369,200,-1874,-380,-1030,-565,-325,314,144,-408
0,6221376,202,-1878,-379,-1025,-569,-333,314,144,-408
0,6221384,202,-1878,-379,-1025,-569,-333,314,144,-408
0,6221394,202,-1878,-379,-1025,-569,-333,314,144,-408
0,6221404,202,-1878,-379,-1025,-569,-333,314,144,-408
0,6221415,201,-1876,-384,-1023,-569,-327,304,150,-406
0,6221425,201,-1876,-384,-1023,-569,-327,304,150,-406
0,6221436,200,-1873,-384,-1031,-566,-327,304,150,-406
0,6221447,200,-1873,-384,-1031,-566,-327,304,150,-406
0,6221462,199,-1874,-389,-1028,-562,-328,304,150,-406
0,6221477,199,-1876,-386,-1036,-565,-324,304,150,-406
0,6221487,199,-1876,-386,-1036,-565,-324,304,150,-406
0,6221497,198,-1875,-385,-1033,-568,-328,304,150,-406
0,6221511,199,-1875,-385,-1031,-567,-326,304,150,-406
0,6221528,199,-1875,-385,-1031,-567,-326,304,150,-406
0,6221544,197,-1878,-386,-1024,-564,-324,304,150,-406
0,6221553,201,-1874,-382,-1031,-556,-332,309,143,-399
0,6221564,201,-1874,-382,-1031,-556,-332,309,143,-399
0,6221575,196,-1876,-384,-1030,-560,-321,309,143,-399
0,6221583,196,-1876,-384,-1030,-560,-321,309,143,-399
0,6221590,196,-1876,-384,-1030,-560,-321,309,143,-399
0,6221598,201,-1875,-395,-1023,-560,-328,309,143,-399
0,6221605,201,-1875,-395,-1023,-560,-328,309,143,-399
0,6221614,201,-1876,-389,-1028,-565,-326,309,143,-399
0,6221624,201,-1876,-389,-1028,-565,-326,309,143,-399
0,6221631,197,-1877,-387,-1031,-569,-328,309,143,-399
0,6221641,197,-1877,-387,-1031,-569,-328,309,143,-399
0,6221651,199,-1878,-386,-1032,-566,-328,309,143,-399
0,6221660,199,-1878,-386,-1032,-566,-328,309,143,-399
0,6221673,198,-1876,-384,-1029,-564,-327,305,149,-407
0,6221683,198,-1876,-384,-1029,-564,-327,305,149,-407
0,6221697,200,-1875,-383,-1027,-569,-329,305,149,-407
0,6221710,200,-1875,-383,-1027,-569,-329,305,149,-407
0,6221718,197,-1874,-381,-1027,-565,-324,305,149,-407
0,6221730,197,-1874,-381,-1027,-565,-324,305,149,-407
0,6221741,199,-1876,-389,-1022,-560,-324,305,149,-407
0,6221750,199,-1876,-389,-1022,-560,-324,305,149,-407
0,6221758,200,-1877,-383,-1024,-570,-331,305,149,-407
0,6221767,200,-1877,-383,-1024,-570,-331,305,149,-407
0,6221780,200,-1877,-384,-1022,-568,-323,305,149,-407
0,6221791,200,-1877,-384,-1022,-568,-323,305,149,-407
0,6221800,199,-1874,-388,-1020,-567,-326,305,149,-407
0,6221813,199,-1872,-381,-1028,-572,-333,310,146,-398
0,6221829,199,-1872,-381,-1028,-572,-333,310,146,-398
0,6221844,199,-1875,-388,-1024,-573,-325,310,146,-398
0,6221852,200,-1875,-383,-1027,-567,-318,310,146,-398
0,6221861,200,-1875,-383,-1027,-567,-318,310,146,-398
0,6221871,200,-1875,-383,-1027,-567,-318,310,146,-398
0,6221878,199,-1875,-386,-1027,-571,-331,310,146,-398
0,6221886,199,-1875,-386,-1027,-571,-331,310,146,-398
0,6221898,199,-1877,-389,-1022,-562,-322,310,146,-398
0,6221911,199,-1877,-389,-1022,-562,-322,310,146,-398
0,6221924,198,-1875,-387,-1020,-554,-325,310,146,-398
0,6221937,201,-1875,-383,-1022,-563,-328,302,148,-408
0,6221950,201,-1875,-383,-1022,-563,-328,302,148,-408
0,6221963,200,-1871,-386,-1022,-565,-320,302,148,-408
0,6221974,198,-1877,-388,-1023,-566,-326,302,148,-408
0,6221985,198,-1877,-388,-1023,-566,-326,302,148,-408
0,6221999,200,-1877,-381,-1030,-570,-331,302,148,-408
0,6222012,200,-1877,-386,-1024,-563,-325,302,148,-408
0,6222022,200,-1877,-386,-1024,-563,-325,302,148,-408
0,6222033,202,-1875,-382,-1021,-563,-328,302,148,-408
0,6222046,202,-1875,-382,-1021,-563,-328,302,148,-408
0,6222059,200,-1874,-384,-1023,-568,-321,313,151,-409
0,6222068,200,-1874,-384,-1023,-568,-321,313,151,-409
0,6222082,197,-1875,-380,-1027,-570,-321,313,151,-409
0,6222096,202,-1872,-387,-1022,-570,-322,313,151,-409
0,6222110,202,-1872,-387,-1022,-570,-322,313,151,-409
0,6222119,201,-1873,-386,-1025,-568,-324,313,151,-409
0,6222132,199,-1876,-393,-1022,-574,-328,313,151,-409
0,6222141,199,-1876,-393,-1022,-574,-328,313,151,-409
0,6222149,199,-1876,-393,-1022,-574,-328,313,151,-409
0,6222156,200,-1876,-385,-1032,-575,-330,313,151,-409
0,6222164,200,-1876,-385,-1032,-575,-330,313,151,-409
0,6222173,200,-1880,-383,-1024,-569,-330,313,151,-409
0,6222181,200,-1880,-383,-1024,-569,-330,313,151,-409
0,6222189,200,-1880,-383,-1024,-569,-330,313,151,-409
0,6222197,200,-1874,-387,-1028,-568,-327,312,146,-404
0,6222205,200,-1874,-387,-1028,-568,-327,312,146,-404
0,6222213,199,-1873,-387,-1025,-569,-324,312,146,-404
0,6222222,199,-1873,-387,-1025,-569,-324,312,146,-404
0,6222230,199,-1873,-387,-1025,-569,-324,312,146,-404
0,6222241,198,-1874,-381,-1032,-568,-323,312,146,-404
0,6222253,198,-1875,-386,-1032,-569,-328,312,146,-404
0,6222266,198,-1875,-386,-1032,-569,-328,312,146,-404
0,6222280,200,-1877,-392,-1026,-572,-319,312,146,-404
0,6222292,196,-1874,-385,-1032,-570,-327,312,146,-404
0,6222306,196,-1874,-385,-1032,-570,-327,312,146,-404
0,6222319,199,-1872,-387,-1031,-576,-322,311,143,-411
0,6222332,198,-1873,-390,-1032,-570,-332,311,143,-411
0,6222345,198,-1873,-390,-1032,-570,-332,311,143,-411
0,6222356,200,-1876,-385,-1036,-572,-329,311,143,-411
0,6222369,200,-1876,-385,-1036,-572,-329,311,143,-411
0,6222383,197,-1872,-384,-1027,-568,-327,311,143,-411
0,6222395,199,-1875,-382,-1029,-567,-317,311,143,-411
0,6222409,199,-1875,-382,-1029,-567,-317,311,143,-411
0,6222422,196,-1874,-390,-1033,-564,-321,311,143,-411
0,6222435,198,-1874,-387,-1028,-565,-322,311,143,-411
0,6222447,198,-1874,-387,-1028,-565,-322,311,143,-411
0,6222456,199,-1876,-378,-1025,-565,-321,314,150,-394
0,6222467,199,-1876,-378,-1025,-565,-321,314,150,-394
0,6222481,198,-1875,-375,-1031,-569,-329,314,150,-394
0,6222489,198,-1875,-375,-1031,-569,-329,314,150,-394
0,6222497,202,-1875,-386,-1024,-565,-323,314,150,-394
0,6222505,202,-1875,-386,-1024,-565,-323,314,150,-394
0,6222514,200,-1875,-386,-1021,-571,-317,314,150,-394
0,6222527,200,-1875,-386,-1021,-571,-317,314,150,-394
0,6222539,200,-1875,-380,-1023,-572,-324,314,150,-394
0,6222553,201,-1874,-387,-1030,-565,-328,314,150,-394
0,6222565,201,-1874,-387,-1030,-565,-328,314,150,-394
0,6222575,197,-1873,-381,-1026,-565,-328,309,149,-411
0,6222582,197,-1873,-381,-1026,-565,-328,309,149,-411
0,6222590,197,-1873,-381,-1026,-565,-328,309,149,-411
0,6222599,199,-1874,-382,-1023,-561,-336,309,149,-411
0,6222608,199,-1874,-382,-1023,-561,-336,309,149,-411
0,6222616,198,-1878,-383,-1020,-569,-329,309,149,-411
0,6222625,198,-1878,-383,-1020,-569,-329,309,149,-411
0,6222632,200,-1878,-381,-1034,-573,-330,309,149,-411
0,6222643,200,-1878,-381,-1034,-573,-330,309,149,-411
0,6222652,200,-1878,-381,-1034,-573,-330,309,149,-411
0,6222661,201,-1873,-387,-1030,-571,-328,309,149,-411
0,6222672,201,-1873,-387,-1030,-571,-328,309,149,-411
0,6222682,200,-1873,-383,-1021,-564,-325,309,149,-411
0,6222691,200,-1873,-383,-1021,-564,-325,309,149,-411
0,6222700,198,-1872,-385,-1022,-573,-319,309,149,-411
0,6222709,198,-1872,-385,-1022,-573,-319,309,149,-411
0,6222717,199,-1872,-380,-1030,-566,-326,300,148,-398
0,6222728,199,-1872,-380,-1030,-566,-326,300,148,-398
0,6222739,197,-1874,-383,-1025,-563,-324,300,148,-398
0,6222753,198,-1875,-386,-1027,-560,-320,300,148,-398
0,6222766,198,-1875,-386,-1027,-560,-320,300,148,-398
0,6222778,197,-1876,-385,-1031,-564,-321,300,148,-398
0,6222791,197,-1876,-385,-1031,-564,-321,300,148,-398
0,6222804,204,-1878,-385,-1031,-575,-325,300,148,-398
0,6222818,201,-1874,-386,-1025,-573,-326,300,148,-398
0,6222830,201,-1874,-386,-1025,-573,-326,300,148,-398
0,6222839,202,-1874,-382,-1020,-571,-324,311,147,-405
0,6222850,202,-1874,-382,-1020,-571,-324,311,147,-405
0,6222858,197,-1878,-387,-1023,-563,-324,311,147,-405
0,6222869,197,-1878,-387,-1023,-563,-324,311,147,-405
0,6222880,200,-1876,-384,-1022,-568,-324,311,147,-405
0,6222887,200,-1876,-384,-1022,-568,-324,311,147,-405
0,6222899,198,-1871,-390,-1028,-569,-331,311,147,-405
0,6222905,198,-1871,-390,-1028,-569,-331,311,147,-405
0,6222916,200,-1873,-386,-1024,-569,-323,311,147,-405
0,6222925,200,-1873,-386,-1024,-569,-323,311,147,-405
0,6222937,199,-1875,-386,-1034,-567,-324,311,147,-405
0,6222946,199,-1875,-386,-1034,-567,-324,311,147,-405
0,6222955,196,-1874,-380,-1028,-568,-315,314,142,-410
0,6222964,196,-1874,-380,-1028,-568,-315,314,142,-410
0,6222976,197,-1874,-384,-1029,-570,-326,314,142,-410
0,6222986,197,-1874,-384,-1029,-570,-326,314,142,-410
0,6222995,200,-1872,-388,-1035,-568,-322,314,142,-410
0,6223005,200,-1872,-388,-1035,-568,-322,314,142,-410
0,6223011,200,-1872,-388,-1035,-568,-322,314,142,-410
0,6223017,200,-1875,-386,-1032,-566,-329,314,142,-410
0,6223024,200,-1875,-386,-1032,-566,-329,314,142,-410
0,6223030,200,-1875,-386,-1032,-566,-329,314,142,-410
0,6223040,201,-1874,-385,-1032,-567,-327,314,142,-410
0,6223051,201,-1874,-385,-1032,-567,-327,314,142,-410
0,6223063,198,-1878,-385,-1039,-575,-319,314,142,-410
0,6223072,198,-1878,-385,-1039,-575,-319,314,142,-410
0,6223082,200,-1880,-382,-1028,-570,-324,314,142,-410
0,6223091,200,-1880,-382,-1028,-570,-324,314,142,-410
0,6223102,198,-1876,-386,-1024,-566,-326,312,150,-402
0,6223110,198,-1876,-386,-1024,-566,-326,312,150,-402
0,6223120,200,-1877,-383,-1034,-572,-326,312,150,-402
0,6223128,200,-1877,-383,-1034,-572,-326,312,150,-402
0,6223137,200,-1875,-388,-1029,-562,-323,312,150,-402
0,6223143,200,-1875,-388,-1029,-562,-323,312,150,-402
0,6223150,200,-1875,-388,-1029,-562,-323,312,150,-402
0,6223156,199,-1877,-387,-1027,-562,-330,312,150,-402
0,6223163,199,-1877,-387,-1027,-562,-330,312,150,-402
0,6223169,199,-1877,-387,-1027,-562,-330,312,150,-402
0,6223175,197,-1874,-386,-1029,-566,-326,312,150,-402
0,6223181,197,-1874,-386,-1029,-566,-326,312,150,-402
0,6223187,197,-1874,-386,-1029,-566,-326,312,150,-402
0,6223194,198,-1876,-389,-1027,-567,-330,312,150,-402
0,6223204,198,-1876,-389,-1027,-567,-330,312,150,-402
0,6223214,200,-1872,-384,-1030,-563,-331,306,150,-398
0,6223223,200,-1872,-384,-1030,-563,-331,306,150,-398
0,6223234,198,-1874,-386,-1027,-559,-329,306,150,-398
0,6223240,198,-1874,-386,-1027,-559,-329,306,150,-398
0,6223252,198,-1874,-386,-1027,-559,-329,306,150,-398
0,6223261,198,-1872,-385,-1034,-563,-330,306,150,-398
0,6223272,198,-1872,-385,-1034,-563,-330,306,150,-398
0,6223284,198,-1875,-383,-1023,-565,-326,306,150,-398
0,6223290,198,-1875,-383,-1023,-565,-326,306,150,-398
0,6223301,199,-1874,-387,-1029,-555,-327,306,150,-398
0,6223312,199,-1874,-387,-1029,-555,-327,306,150,-398
0,6223322,201,-1876,-388,-1027,-566,-328,306,150,-398
0,6223333,201,-1876,-388,-1027,-566,-328,306,150,-398
0,6223340,197,-1875,-388,-1026,-569,-330,306,150,-398
0,6223350,197,-1875,-388,-1026,-569,-330,306,150,-398
0,6223362,198,-1875,-379,-1027,-568,-322,306,144,-402
0,6223371,198,-1875,-379,-1027,-568,-322,306,144,-402
0,6223379,199,-1875,-379,-1026,-566,-324,306,144,-402
0,6223389,199,-1875,-379,-1026,-566,-324,306,144,-402
0,6223400,200,-1876,-385,-1027,-565,-329,306,144,-402
0,6223410,200,-1876,-385,-1027,-565,-329,306,144,-402
0,6223417,199,-1876,-384,-1024,-571,-329,306,144,-402
0,6223428,199,-1876,-384,-1024,-571,-329,306,144,-402
0,6223439,200,-1876,-388,-1030,-569,-324,306,144,-402
0,6223449,200,-1876,-388,-1030,-569,-324,306,144,-402
0,6223458,200,-1875,-389,-1023,-563,-321,306,144,-402
0,6223469,200,-1875,-389,-1023,-563,-321,306,144,-402
0,6223478,200,-1874,-382,-1029,-559,-321,311,151,-391
0,6223489,200,-1874,-382,-1029,-559,-321,311,151,-391
0,6223500,198,-1875,-380,-1031,-561,-324,311,151,-391
0,6223508,198,-1875,-380,-1031,-561,-324,311,151,-391
0,6223519,201,-1872,-386,-1023,-561,-317,311,151,-391
0,6223531,201,-1872,-386,-1023,-561,-317,311,151,-391
0,6223540,201,-1875,-383,-1020,-565,-323,311,151,-391
0,6223551,201,-1875,-383,-1020,-565,-323,311,151,-391
0,6223559,198,-1873,-386,-1021,-561,-320,311,151,-391
0,6223569,198,-1873,-386,-1021,-561,-320,311,151,-391
0,6223576,199,-1874,-387,-1032,-570,-329,311,151,-391
0,6223582,199,-1874,-387,-1032,-570,-329,311,151,-391
0,6223588,199,-1874,-387,-1032,-570,-329,311,151,-391
0,6223594,199,-1872,-389,-1035,-565,-328,311,151,-391
0,6223600,199,-1872,-389,-1035,-565,-328,311,151,-391
0,6223607,199,-1872,-389,-1035,-565,-328,311,151,-391
0,6223612,199,-1872,-389,-1035,-565,-328,311,151,-391
0,6223619,202,-1874,-373,-1027,-564,-326,312,150,-410
0,6223626,202,-1874,-373,-1027,-564,-326,312,150,-410
0,6223632,202,-1874,-373,-1027,-564,-326,312,150,-410
0,6223641,201,-1876,-385,-1028,-566,-323,312,150,-410
0,6223651,201,-1876,-385,-1028,-566,-323,312,150,-410
0,6223659,198,-1873,-384,-1029,-570,-324,312,150,-410
0,6223670,198,-1873,-384,-1029,-570,-324,312,150,-410
0,6223676,199,-1876,-390,-1025,-571,-318,312,150,-410
0,6223688,199,-1876,-390,-1025,-571,-318,312,150,-410
0,6223698,197,-1874,-384,-1029,-561,-315,312,150,-410
0,6223708,197,-1874,-384,-1029,-561,-315,312,150,-410
0,6223720,195,-1874,-390,-1027,-566,-323,312,150,-410
0,6223727,195,-1874,-390,-1027,-566,-323,312,150,-410
0,6223738,198,-1872,-381,-1024,-560,-327,305,149,-399
0,6223746,198,-1872,-381,-1024,-560,-327,305,149,-399
0,6223757,199,-1874,-386,-1029,-556,-324,305,149,-399
0,6223768,199,-1874,-386,-1029,-556,-324,305,149,-399
0,6223776,201,-1876,-388,-1022,-564,-324,305,149,-399
0,6223787,201,-1876,-388,-1022,-564,-324,305,149,-399
0,6223798,198,-1875,-386,-1023,-564,-326,305,149,-399
0,6223808,198,-1875,-386,-1023,-564,-326,305,149,-399
0,6223818,197,-1874,-390,-1022,-568,-327,305,149,-399
0,6223827,197,-1874,-390,-1022,-568,-327,305,149,-399
0,6223840,198,-1879,-383,-1028,-570,-325,305,149,-399
0,6223853,198,-1879,-383,-1028,-570,-325,305,149,-399
0,6223866,197,-1873,-383,-1035,-563,-326,310,140,-406
0,6223878,196,-1876,-384,-1033,-563,-324,310,140,-406
0,6223890,196,-1876,-384,-1033,-563,-324,310,140,-406
0,6223902,198,-1876,-384,-1028,-563,-322,310,140,-406
0,6223916,200,-1879,-391,-1030,-565,-326,310,140,-406
0,6223928,200,-1879,-391,-1030,-565,-326,310,140,-406
0,6223939,197,-1877,-385,-1027,-575,-326,310,140,-406
0,6223954,200,-1876,-394,-1025,-568,-318,310,140,-406
0,6223967,200,-1876,-394,-1025,-568,-318,310,140,-406
0,6223978,197,-1876,-392,-1026,-558,-323,310,140,-406
0,6223991,197,-1876,-392,-1026,-558,-323,310,140,-406
0,6224006,196,-1872,-379,-1029,-564,-328,322,148,-402
0,6224019,198,-1874,-390,-1021,-564,-318,322,148,-402
0,6224029,198,-1874,-390,-1021,-564,-318,322,148,-402
0,6224041,198,-1876,-384,-1027,-560,-323,322,148,-402
0,6224055,198,-1876,-383,-1027,-565,-318,322,148,-402
0,6224068,198,-1876,-383,-1027,-565,-318,322,148,-402
0,6224078,198,-1874,-385,-1028,-565,-323,322,148,-402
0,6224091,198,-1874,-385,-1028,-565,-323,322,148,-402
0,6224103,198,-1875,-383,-1028,-567,-333,322,148,-402
0,6224116,198,-1876,-382,-1026,-563,-327,306,150,-404
0,6224124,198,-1876,-382,-1026,-563,-327,306,150,-404
0,6224133,198,-1876,-382,-1026,-563,-327,306,150,-404
0,6224141,198,-1873,-384,-1026,-571,-326,306,150,-404
0,6224149,198,-1873,-384,-1026,-571,-326,306,150,-404
0,6224156,200,-1874,-391,-1024,-568,-324,306,150,-404
0,6224165,200,-1874,-391,-1024,-568,-324,306,150,-404
0,6224173,200,-1874,-391,-1024,-568,-324,306,150,-404
0,6224181,198,-1875,-382,-1041,-572,-318,306,150,-404
0,6224189,198,-1875,-382,-1041,-572,-318,306,150,-404
0,6224197,199,-1873,-387,-1036,-568,-324,306,150,-404
0,6224205,199,-1873,-387,-1036,-568,-324,306,150,-404
0,6224215,199,-1875,-383,-1028,-567,-322,306,150,-404
0,6224223,199,-1875,-383,-1028,-567,-322,306,150,-404
0,6224231,199,-1875,-383,-1028,-567,-322,306,150,-404
0,6224239,199,-1876,-385,-1020,-575,-325,306,150,-404
0,6224248,199,-1876,-385,-1020,-575,-325,306,150,-404
0,6224262,199,-1874,-384,-1027,-572,-325,309,143,-405
0,6224275,200,-1877,-381,-1025,-561,-333,309,143,-405
0,6224288,200,-1877,-381,-1025,-561,-333,309,143,-405
0,6224300,199,-1875,-379,-1028,-568,-331,309,143,-405
0,6224312,199,-1875,-379,-1028,-568,-331,309,143,-405
0,6224324,198,-1873,-389,-1029,-571,-332,309,143,-405
0,6224334,200,-1875,-382,-1025,-564,-333,309,143,-405
0,6224346,200,-1875,-382,-1025,-564,-333,309,143,-405
0,6224360,198,-1876,-383,-1031,-570,-325,309,143,-405
0,6224374,201,-1873,-384,-1028,-574,-326,312,134,-408
0,6224386,201,-1873,-384,-1028,-574,-326,312,134,-408
0,6224398,201,-1875,-387,-1030,-572,-326,312,134,-408
0,6224411,201,-1875,-387,-1030,-572,-326,312,134,-408
0,6224424,201,-1874,-381,-1028,-566,-322,312,134,-408
0,6224434,201,-1874,-381,-1028,-566,-322,312,134,-408
0,6224443,200,-1876,-379,-1026,-573,-319,312,134,-408
0,6224457,197,-1873,-383,-1030,-567,-329,312,134,-408
0,6224471,197,-1873,-383,-1030,-567,-329,312,134,-408
0,6224481,198,-1876,-387,-1030,-567,-323,312,134,-408
0,6224494,198,-1876,-387,-1030,-567,-323,312,134,-408
0,6224508,199,-1874,-383,-1026,-564,-321,313,147,-399
0,6224521,199,-1875,-379,-1027,-559,-330,313,147,-399
0,6224532,199,-1875,-379,-1027,-559,-330,313,147,-399
0,6224544,199,-1876,-385,-1021,-563,-332,313,147,-399
0,6224557,198,-1874,-385,-1027,-564,-325,313,147,-399
0,6224570,198,-1874,-385,-1027,-564,-325,313,147,-399
0,6224578,199,-1873,-382,-1029,-569,-329,313,147,-399
0,6224586,199,-1873,-382,-1029,-569,-329,313,147,-399
0,6224593,199,-1873,-382,-1029,-569,-329,313,147,-399
0,6224603,200,-1874,-382,-1034,-564,-330,313,147,-399
0,6224613,200,-1874,-382,-1034,-564,-330,313,147,-399
0,6224627,198,-1875,-381,-1020,-566,-320,313,147,-399
0,6224640,197,-1876,-384,-1011,-564,-322,315,143,-401
0,6224649,197,-1876,-384,-1011,-564,-322,315,143,-401
0,6224662,198,-1872,-385,-1021,-561,-326,315,143,-401
0,6224675,201,-1876,-383,-1028,-566,-327,315,143,-401
0,6224690,201,-1876,-383,-1028,-566,-327,315,143,-401
0,6224699,202,-1876,-384,-1027,-569,-330,315,143,-401
0,6224712,202,-1876,-384,-1027,-569,-330,315,143,-401
0,6224724,202,-1876,-384,-1027,-569,-330,315,143,-401
0,6224738,200,-1876,-387,-1023,-566,-320,315,143,-401
0,6224749,200,-1876,-387,-1023,-566,-320,315,143,-401
0,6224761,197,-1871,-379,-1022,-568,-322,315,153,-409
0,6224773,197,-1871,-379,-1022,-568,-322,315,153,-409
0,6224785,200,-1874,-387,-1031,-558,-325,315,153,-409
0,6224795,197,-1875,-385,-1028,-555,-330,315,153,-409
0,6224804,197,-1875,-385,-1028,-555,-330,315,153,-409
0,6224812,197,-1875,-385,-1028,-555,-330,315,153,-409
0,6224820,199,-1872,-383,-1025,-561,-329,315,153,-409
0,6224828,199,-1872,-383,-1025,-561,-329,315,153,-409
0,6224840,199,-1874,-383,-1028,-570,-321,315,153,-409
0,6224850,199,-1874,-383,-1028,-570,-321,315,153,-409
0,6224862,202,-1871,-384,-1021,-567,-319,315,153,-409
0,6224869,202,-1871,-384,-1021,-567,-319,315,153,-409
0,6224879,198,-1876,-382,-1032,-569,-320,315,153,-409
0,6224886,198,-1876,-382,-1032,-569,-320,315,153,-409
0,6224898,199,-1875,-379,-1021,-567,-325,311,151,-407
0,6224909,199,-1875,-379,-1021,-567,-325,311,151,-407
0,6224917,198,-1875,-384,-1028,-566,-323,311,151,-407
0,6224928,198,-1875,-384,-1028,-566,-323,311,151,-407
0,6224936,199,-1878,-386,-1022,-556,-324,311,151,-407
0,6224947,199,-1878,-386,-1022,-556,-324,311,151,-407
0,6224957,201,-1874,-385,-1029,-559,-328,311,151,-407
0,6224965,201,-1874,-385,-1029,-559,-328,311,151,-407
0,6224976,205,-1878,-390,-1029,-565,-327,311,151,-407
0,6224983,205,-1878,-390,-1029,-565,-327,311,151,-407
0,6224993,205,-1878,-390,-1029,-565,-327,311,151,-407
0,6225003,199,-1872,-387,-1027,-568,-321,311,151,-407
0,6225014,199,-1872,-387,-1027,-568,-321,311,151,-407
0,6225024,200,-1871,-373,-1031,-571,-328,314,140,-398
0,6225032,200,-1871,-373,-1031,-571,-328,314,140,-398
0,6225042,198,-1874,-380,-1024,-577,-328,314,140,-398
0,6225052,198,-1874,-380,-1024,-577,-328,314,140,-398
0,6225064,198,-1876,-383,-1027,-564,-328,314,140,-398
0,6225076,199,-1877,-386,-1029,-571,-322,314,140,-398
0,6225083,199,-1877,-386,-1029,-571,-322,314,140,-398
0,6225094,199,-1877,-386,-1029,-571,-322,314,140,-398
0,6225100,199,-1875,-384,-1031,-570,-327,314,140,-398
0,6225112,199,-1875,-384,-1031,-570,-327,314,140,-398
0,6225124,198,-1873,-389,-1032,-560,-329,314,140,-398
0,6225132,198,-1873,-389,-1032,-560,-329,314,140,-398
0,6225138,201,-1876,-384,-1031,-566,-321,314,140,-398
0,6225144,201,-1876,-384,-1031,-566,-321,314,140,-398
0,6225152,201,-1876,-384,-1031,-566,-321,314,140,-398
0,6225158,195,-1874,-385,-1034,-569,-330,307,151,-399
0,6225163,195,-1874,-385,-1034,-569,-330,307,151,-399
0,6225169,195,-1874,-385,-1034,-569,-330,307,151,-399
0,6225175,199,-1876,-383,-1030,-574,-324,307,151,-399
0,6225183,199,-1876,-383,-1030,-574,-324,307,151,-399
0,6225192,199,-1876,-383,-1030,-574,-324,307,151,-399
0,6225201,199,-1876,-383,-1028,-569,-327,307,151,-399
0,6225211,199,-1876,-383,-1028,-569,-327,307,151,-399
0,6225221,199,-1875,-385,-1025,-563,-324,307,151,-399
0,6225228,199,-1875,-385,-1025,-563,-324,307,151,-399
0,6225235,200,-1877,-384,-1026,-565,-323,307,151,-399
0,6225248,200,-1877,-384,-1026,-565,-323,307,151,-399
0,6225255,200,-1874,-378,-1030,-560,-324,307,151,-399
0,6225266,200,-1874,-378,-1030,-560,-324,307,151,-399
0,6225276,199,-1876,-378,-1025,-566,-325,313,145,-405
0,6225284,199,-1876,-378,-1025,-566,-325,313,145,-405
0,6225290,199,-1876,-378,-1025,-566,-325,313,145,-405
0,6225296,199,-1877,-383,-1031,-560,-324,313,145,-405
0,6225303,199,-1877,-383,-1031,-560,-324,313,145,-405
0,6225314,199,-1877,-383,-1031,-560,-324,313,145,-405
0,6225321,197,-1874,-382,-1023,-570,-326,313,145,-405
0,6225332,197,-1874,-382,-1023,-570,-326,313,145,-405
0,6225343,199,-1878,-385,-1027,-565,-324,313,145,-405
0,6225352,199,-1878,-385,-1027,-565,-324,313,145,-405
0,6225362,199,-1875,-387,-1026,-570,-322,313,145,-405
0,6225370,199,-1875,-387,-1026,-570,-322,313,145,-405
0,6225381,197,-1875,-387,-1023,-566,-321,313,145,-405
0,6225392,197,-1875,-387,-1023,-566,-321,313,145,-405
0,6225401,198,-1872,-380,-1030,-568,-328,304,148,-402
0,6225410,198,-1872,-380,-1030,-568,-328,304,148,-402
0,6225418,199,-1876,-386,-1020,-566,-329,304,148,-402
0,6225429,199,-1876,-386,-1020,-566,-329,304,148,-402
0,6225439,199,-1876,-383,-1028,-569,-331,304,148,-402
0,6225446,199,-1876,-383,-1028,-569,-331,304,148,-402
0,6225454,199,-1876,-383,-1028,-569,-331,304,148,-402
0,6225465,198,-1873,-384,-1032,-570,-329,304,148,-402
0,6225472,198,-1873,-384,-1032,-570,-329,304,148,-402
0,6225483,198,-1877,-389,-1030,-565,-330,304,148,-402
0,6225494,198,-1877,-389,-1030,-565,-330,304,148,-402
0,6225505,199,-1872,-386,-1025,-559,-328,304,148,-402
0,6225516,199,-1877,-387,-1023,-566,-319,304,148,-402
0,6225526,199,-1877,-387,-1023,-566,-319,304,148,-402
0,6225536,199,-1877,-387,-1023,-566,-319,304,148,-402
0,6225546,201,-1872,-379,-1029,-568,-322,308,150,-390
0,6225557,200,-1874,-383,-1028,-571,-320,308,150,-390
0,6225566,200,-1874,-383,-1028,-571,-320,308,150,-390
0,6225575,200,-1874,-383,-1028,-571,-320,308,150,-390
0,6225582,199,-1875,-379,-1028,-575,-325,308,150,-390
0,6225588,199,-1875,-379,-1028,-575,-325,308,150,-390
0,6225594,199,-1875,-379,-1028,-575,-325,308,150,-390
0,6225600,196,-1875,-383,-1021,-565,-322,308,150,-390
0,6225606,196,-1875,-383,-1021,-565,-322,308,150,-390
0,6225617,198,-1875,-383,-1025,-566,-325,308,150,-390
0,6225627,198,-1875,-383,-1025,-566,-325,308,150,-390
0,6225636,198,-1875,-383,-1025,-566,-325,308,150,-390
0,6225646,200,-1872,-386,-1023,-567,-323,308,150,-390
0,6225656,197,-1876,-384,-1031,-572,-331,308,150,-390
0,6225665,197,-1876,-384,-1031,-572,-331,306,152,-396
0,6225673,197,-1876,-384,-1031,-572,-331,306,152,-396
0,6225683,198,-1874,-381,-1027,-561,-321,306,152,-396
0,6225691,198,-1874,-381,-1027,-561,-321,306,152,-396
0,6225701,197,-1873,-383,-1031,-561,-325,306,152,-396
0,6225713,197,-1873,-383,-1031,-561,-325,306,152,-396
0,6225723,199,-1873,-382,-1031,-569,-329,306,152,-396
0,6225734,199,-1873,-382,-1031,-569,-329,306,152,-396
0,6225743,200,-1872,-383,-1024,-568,-324,306,152,-396
0,6225752,200,-1872,-383,-1024,-568,-324,306,152,-396
0,6225762,199,-1872,-383,-1023,-563,-324,306,152,-396
0,6225773,199,-1872,-383,-1023,-563,-324,306,152,-396
0,6225783,198,-1876,-384,-1023,-562,-325,306,152,-396
0,6225790,198,-1876,-384,-1023,-562,-325,306,152,-396
0,6225801,201,-1873,-382,-1029,-568,-324,321,149,-403
0,6225810,201,-1873,-382,-1029,-568,-324,321,149,-403
0,6225819,203,-1875,-385,-1022,-562,-320,321,149,-403
0,6225830,203,-1875,-385,-1022,-562,-320,321,149,-403
0,6225840,200,-1872,-383,-1015,-561,-320,321,149,-403
0,6225848,200,-1872,-383,-1015,-561,-320,321,149,-403
0,6225857,201,-1876,-384,-1028,-563,-326,321,149,-403
0,6225864,201,-1876,-384,-1028,-563,-326,321,149,-403
0,6225873,201,-1876,-384,-1028,-563,-326,321,149,-403
0,6225886,199,-1874,-383,-1023,-569,-326,321,149,-403
0,6225901,200,-1875,-387,-1019,-559,-329,321,149,-403
0,6225917,199,-1875,-385,-1023,-567,-330,320,148,-412
0,6225930,199,-1875,-385,-1023,-567,-330,320,148,-412
0,6225939,203,-1876,-384,-1022,-571,-323,320,148,-412
0,6225952,203,-1876,-384,-1022,-571,-323,320,148,-412
0,6225967,198,-1877,-381,-1023,-564,-326,320,148,-412
0,6225980,201,-1879,-385,-1025,-563,-315,320,148,-412
0,6225989,201,-1879,-385,-1025,-563,-315,320,148,-412
0,6226001,199,-1874,-386,-1030,-565,-323,320,148,-412
0,6226017,201,-1876,-389,-1022,-567,-329,320,148,-412
0,6226031,201,-1876,-389,-1022,-567,-329,320,148,-412
0,6226040,199,-1878,-389,-1033,-570,-320,314,146,-402
0,6226053,199,-1878,-389,-1033,-570,-320,314,146,-402
0,6226067,200,-1874,-381,-1024,-560,-322,314,146,-402
0,6226081,200,-1875,-389,-1017,-569,-314,314,146,-402
0,6226091,200,-1875,-389,-1017,-569,-314,314,146,-402
0,6226103,202,-1876,-385,-1029,-565,-323,314,146,-402
0,6226116,201,-1873,-384,-1028,-560,-320,314,146,-402
0,6226127,201,-1873,-384,-1028,-560,-320,314,146,-402
0,6226140,200,-1875,-382,-1029,-572,-327,314,146,-402
0,6226147,200,-1875,-382,-1029,-572,-327,314,146,-402
0,6226156,200,-1875,-382,-1029,-572,-327,314,146,-402
0,6226164,196,-1875,-386,-1024,-570,-324,314,146,-402
0,6226172,196,-1875,-386,-1024,-570,-324,314,146,-402
0,6226181,203,-1878,-388,-1023,-571,-325,311,145,-403
0,6226189,203,-1878,-388,-1023,-571,-325,311,145,-403
0,6226196,203,-1878,-388,-1023,-571,-325,311,145,-403
0,6226204,199,-1876,-381,-1018,-570,-327,311,145,-403
0,6226212,199,-1876,-381,-1018,-570,-327,311,145,-403
0,6226221,201,-1877,-387,-1034,-569,-330,311,145,-403
0,6226228,201,-1877,-387,-1034,-569,-330,311,145,-403
0,6226236,201,-1877,-387,-1034,-569,-330,311,145,-403
0,6226244,200,-1872,-387,-1028,-568,-331,311,145,-403
0,6226252,200,-1872,-387,-1028,-568,-331,311,145,-403
0,6226262,202,-1875,-388,-1026,-569,-332,311,145,-403
0,6226272,202,-1875,-388,-1026,-569,-332,311,145,-403
0,6226281,200,-1874,-381,-1030,-574,-320,311,145,-403
0,6226289,200,-1874,-381,-1030,-574,-320,311,145,-403
0,6226297,197,-1875,-379,-1029,-571,-316,317,145,-403
0,6226308,197,-1875,-379,-1029,-571,-316,317,145,-403
0,6226321,202,-1875,-381,-1026,-560,-323,317,145,-403
0,6226333,202,-1875,-381,-1026,-560,-323,317,145,-403
0,6226348,201,-1878,-377,-1028,-569,-323,317,145,-403
0,6226358,201,-1873,-386,-1024,-565,-321,317,145,-403
0,6226371,201,-1873,-386,-1024,-565,-321,317,145,-403
0,6226383,202,-1875,-383,-1030,-560,-325,317,145,-403
0,6226397,202,-1875,-383,-1030,-560,-325,317,145,-403
0,6226407,198,-1876,-384,-1021,-561,-322,317,145,-403
0,6226420,200,-1874,-382,-1015,-556,-325,317,145,-403
0,6226432,200,-1874,-382,-1015,-556,-325,317,145,-403
0,6226442,197,-1878,-379,-1023,-564,-320,311,155,-405
0,6226455,197,-1878,-379,-1023,-564,-320,311,155,-405
0,6226469,200,-1873,-380,-1023,-565,-326,311,155,-405
0,6226481,196,-1873,-382,-1033,-571,-327,311,155,-405
0,6226492,196,-1873,-382,-1033,-571,-327,311,155,-405
0,6226506,200,-1872,-379,-1027,-564,-327,311,155,-405
0,6226521,201,-1873,-387,-1024,-565,-323,311,155,-405
0,6226533,201,-1873,-387,-1024,-565,-323,311,155,-405
0,6226541,203,-1877,-386,-1018,-571,-320,311,155,-405
0,6226549,203,-1877,-386,-1018,-571,-320,311,155,-405
0,6226557,200,-1876,-383,-1022,-565,-323,311,153,-399
0,6226566,200,-1876,-383,-1022,-565,-323,311,153,-399
0,6226576,200,-1876,-383,-1022,-565,-323,311,153,-399
0,6226583,200,-1874,-385,-1023,-573,-330,311,153,-399
0,6226591,200,-1874,-385,-1023,-573,-330,311,153,-399
0,6226599,199,-1874,-378,-1035,-568,-323,311,153,-399
0,6226611,199,-1874,-378,-1035,-568,-323,311,153,-399
0,6226621,198,-1872,-384,-1031,-564,-324,311,153,-399
0,6226630,198,-1872,-384,-1031,-564,-324,311,153,-399
0,6226640,202,-1875,-381,-1029,-567,-323,311,153,-399
0,6226650,202,-1875,-381,-1029,-567,-323,311,153,-399
0,6226660,200,-1876,-385,-1031,-576,-319,311,153,-399
0,6226671,200,-1876,-385,-1031,-576,-319,311,153,-399
0,6226685,202,-1871,-385,-1026,-567,-319,311,153,-399
0,6226698,202,-1871,-385,-1026,-567,-319,307,153,-405
0,6226709,202,-1871,-385,-1026,-567,-319,307,153,-405
0,6226721,199,-1876,-378,-1034,-564,-328,307,153,-405
0,6226737,199,-1876,-378,-1034,-564,-328,307,153,-405
0,6226747,201,-1873,-388,-1020,-558,-324,307,153,-405
0,6226755,201,-1873,-388,-1020,-558,-324,307,153,-405
0,6226763,199,-1874,-387,-1023,-559,-325,307,153,-405
0,6226774,199,-1874,-387,-1023,-559,-325,307,153,-405
0,6226787,202,-1874,-384,-1029,-564,-330,307,153,-405
0,6226800,197,-1874,-388,-1029,-560,-327,307,153,-405
0,6226809,197,-1874,-388,-1029,-560,-327,307,153,-405
0,6226824,198,-1874,-380,-1037,-561,-322,309,135,-401
0,6226836,198,-1874,-380,-1037,-561,-322,309,135,-401
0,6226849,201,-1879,-379,-1030,-562,-328,309,135,-401
0,6226859,202,-1872,-382,-1030,-569,-328,309,135,-401
0,6226869,202,-1872,-382,-1030,-569,-328,309,135,-401
0,6226876,202,-1872,-382,-1030,-569,-328,309,135,-401
0,6226886,200,-1877,-384,-1030,-573,-322,309,135,-401
0,6226893,200,-1877,-384,-1030,-573,-322,309,135,-401
0,6226906,201,-1876,-383,-1028,-562,-320,309,135,-401
0,6226916,201,-1876,-383,-1028,-562,-320,309,135,-401
0,6226927,201,-1874,-384,-1021,-561,-333,309,135,-401
0,6226939,201,-1873,-383,-1025,-567,-326,308,144,-402
0,6226948,201,-1873,-383,-1025,-567,-326,308,144,-402
0,6226958,201,-1876,-380,-1023,-562,-326,308,144,-402
0,6226968,201,-1876,-380,-1023,-562,-326,308,144,-402
0,6226978,201,-1876,-384,-1037,-561,-314,308,144,-402
0,6226990,201,-1876,-384,-1037,-561,-314,308,144,-402
0,6227001,197,-1877,-386,-1032,-567,-320,308,144,-402
0,6227009,197,-1877,-386,-1032,-567,-320,308,144,-402
0,6227020,199,-1878,-383,-1030,-560,-324,308,144,-402
0,6227027,199,-1878,-383,-1030,-560,-324,308,144,-402
0,6227034,199,-1878,-383,-1030,-560,-324,308,144,-402
0,6227040,203,-1875,-382,-1031,-564,-327,308,144,-402
0,6227046,203,-1875,-382,-1031,-564,-327,308,144,-402
0,6227052,203,-1875,-382,-1031,-564,-327,308,144,-402
0,6227058,203,-1874,-383,-1027,-571,-328,308,144,-402
0,6227064,203,-1874,-383,-1027,-571,-328,308,144,-402
0,6227070,203,-1874,-383,-1027,-571,-328,308,144,-402
0,6227077,203,-1874,-383,-1027,-571,-328,308,144,-402
0,6227083,199,-1875,-380,-1025,-561,-322,309,147,-407
0,6227090,199,-1875,-380,-1025,-561,-322,309,147,-407
0,6227096,199,-1875,-380,-1025,-561,-322,309,147,-407
0,6227102,200,-1875,-379,-1024,-570,-323,309,147,-407
0,6227108,200,-1875,-379,-1024,-570,-323,309,147,-407
0,6227113,200,-1875,-379,-1024,-570,-323,309,147,-407
0,6227120,197,-1874,-378,-1023,-567,-319,309,147,-407
0,6227126,197,-1874,-378,-1023,-567,-319,309,147,-407
0,6227132,197,-1874,-378,-1023,-567,-319,309,147,-407
0,6227138,199,-1874,-381,-1025,-561,-322,309,147,-407
0,6227144,199,-1874,-381,-1025,-561,-322,309,147,-407
0,6227150,199,-1874,-381,-1025,-561,-322,309,147,-407
0,6227156,199,-1874,-381,-1025,-561,-322,309,147,-407
0,6227163,199,-1876,-387,-1027,-564,-318,309,147,-407
0,6227168,199,-1876,-387,-1027,-564,-318,309,147,-407
0,6227174,199,-1876,-387,-1027,-564,-318,309,147,-407
0,6227181,200,-1873,-384,-1020,-560,-321,309,147,-407
0,6227186,200,-1873,-384,-1020,-560,-321,309,147,-407
0,6227191,200,-1873,-384,-1020,-560,-321,309,147,-407
0,6227196,200,-1873,-384,-1020,-560,-321,309,147,-407
0,6227202,203,-1876,-380,-1022,-571,-328,303,145,-403
0,6227207,203,-1876,-380,-1022,-571,-328,303,145,-403
0,6227214,203,-1876,-380,-1022,-571,-328,303,145,-403
0,6227218,198,-1873,-381,-1018,-563,-324,303,145,-403
0,6227223,198,-1873,-381,-1018,-563,-324,303,145,-403
0,6227228,198,-1873,-381,-1018,-563,-324,303,145,-403
0,6227233,198,-1873,-381,-1018,-563,-324,303,145,-403
0,6227238,198,-1876,-383,-1027,-567,-326,303,145,-403
0,6227244,198,-1876,-383,-1027,-567,-326,303,145,-403
0,6227249,198,-1876,-383,-1027,-567,-326,303,145,-403
0,6227254,198,-1876,-383,-1027,-567,-326,303,145,-403
0,6227259,200,-1873,-388,-1032,-567,-321,303,145,-403
0,6227264,200,-1873,-388,-1032,-567,-321,303,145,-403
0,6227268,200,-1873,-388,-1032,-567,-321,303,145,-403
0,6227273,200,-1873,-388,-1032,-567,-321,303,145,-403
0,6227278,202,-1874,-385,-1018,-564,-322,303,145,-403
0,6227283,202,-1874,-385,-1018,-564,-322,303,145,-403
0,6227289,202,-1874,-385,-1018,-564,-322,303,145,-403
0,6227295,202,-1874,-385,-1018,-564,-322,303,145,-403
0,6227299,201,-1873,-381,-1017,-567,-329,303,145,-403
0,6227304,201,-1873,-381,-1017,-567,-329,303,145,-403
0,6227309,201,-1873,-381,-1017,-567,-329,303,145,-403
0,6227313,201,-1873,-381,-1017,-567,-329,303,145,-403
0,6227318,198,-1873,-381,-1029,-567,-332,303,145,-403
0,6227323,198,-1873,-381,-1029,-567,-332,303,145,-403
0,6227329,198,-1873,-381,-1029,-567,-332,303,145,-403
0,6227334,198,-1873,-381,-1029,-567,-332,303,145,-403
0,6227339,201,-1873,-380,-1022,-565,-332,309,149,-405
0,6227343,201,-1873,-380,-1022,-565,-332,309,149,-405
0,6227349,201,-1873,-380,-1022,-565,-332,309,149,-405
0,6227354,201,-1873,-380,-1022,-565,-332,309,149,-405
0,6227358,198,-1876,-385,-1023,-570,-332,309,149,-405
0,6227363,198,-1876,-385,-1023,-570,-332,309,149,-405
0,6227368,198,-1876,-385,-1023,-570,-332,309,149,-405
0,6227374,198,-1876,-385,-1023,-570,-332,309,149,-405
0,6227379,201,-1874,-383,-1020,-560,-324,309,149,-405
0,6227383,201,-1874,-383,-1020,-560,-324,309,149,-405
0,6227388,201,-1874,-383,-1020,-560,-324,309,149,-405
0,6227393,201,-1874,-383,-1020,-560,-324,309,149,-405
0,6227398,200,-1876,-387,-1033,-562,-321,309,149,-405
0,6227403,200,-1876,-387,-1033,-562,-321,309,149,-405
0,6227408,200,-1876,-387,-1033,-562,-321,309,149,-405
0,6227414,200,-1876,-387,-1033,-562,-321,309,149,-405
0,6227418,200,-1874,-384,-1022,-565,-322,309,149,-405
0,6227423,200,-1874,-384,-1022,-565,-322,309,149,-405
0,6227428,200,-1874,-384,-1022,-565,-322,309,149,-405
0,6227433,200,-1874,-384,-1022,-565,-322,309,149,-405
0,6227438,200,-1874,-384,-1022,-565,-322,309,149,-405
0,6227443,201,-1876,-386,-1021,-569,-331,309,149,-405
0,6227448,201,-1876,-386,-1021,-569,-331,309,149,-405
0,6227453,201,-1876,-386,-1021,-569,-331,309,149,-405
0,6227459,199,-1875,-376,-1025,-566,-329,316,146,-406
0,6227464,199,-1875,-376,-1025,-566,-329,316,146,-406
0,6227470,199,-1875,-376,-1025,-566,-329,316,146,-406
0,6227475,199,-1875,-376,-1025,-566,-329,316,146,-406
0,6227480,199,-1875,-382,-1026,-566,-330,316,146,-406
0,6227485,199,-1875,-382,-1026,-566,-330,316,146,-406
0,6227489,199,-1875,-382,-1026,-566,-330,316,146,-406
0,6227494,199,-1875,-382,-1026,-566,-330,316,146,-406
0,6227501,200,-1875,-385,-1028,-564,-328,316,146,-406
0,6227505,200,-1875,-385,-1028,-564,-328,316,146,-406
0,6227510,200,-1875,-385,-1028,-564,-328,316,146,-406
0,6227515,200,-1875,-385,-1028,-564,-328,316,146,-406
0,6227520,198,-1874,-381,-1023,-563,-319,316,146,-406
0,6227525,198,-1874,-381,-1023,-563,-319,316,146,-406
0,6227530,198,-1874,-381,-1023,-563,-319,316,146,-406
0,6227536,198,-1874,-381,-1023,-563,-319,316,146,-406
0,6227540,199,-1873,-387,-1027,-567,-327,316,146,-406
0,6227547,199,-1873,-387,-1027,-567,-327,316,146,-406
0,6227553,199,-1873,-387,-1027,-567,-327,316,146,-406
0,6227559,199,-1875,-381,-1026,-569,-329,316,146,-406
0,6227565,199,-1875,-381,-1026,-569,-329,316,146,-406
0,6227571,199,-1875,-381,-1026,-569,-329,316,146,-406
0,6227576,199,-1875,-381,-1026,-569,-329,316,146,-406
0,6227581,196,-1873,-385,-1022,-571,-331,316,146,-406
0,6227587,196,-1873,-385,-1022,-571,-331,316,146,-406
0,6227592,196,-1873,-385,-1022,-571,-331,316,146,-406
0,6227596,196,-1873,-385,-1022,-571,-331,316,146,-406
0,6227602,198,-1873,-375,-1030,-573,-330,306,152,-402
0,6227609,198,-1873,-375,-1030,-573,-330,306,152,-402
0,6227615,198,-1873,-375,-1030,-573,-330,306,152,-402
0,6227623,199,-1876,-373,-1035,-571,-327,306,152,-402
0,6227629,199,-1876,-373,-1035,-571,-327,306,152,-402
0,6227638,199,-1876,-373,-1035,-571,-327,306,152,-402
0,6227644,197,-1875,-386,-1033,-569,-325,306,152,-402
0,6227651,197,-1875,-386,-1033,-569,-325,306,152,-402
0,6227658,197,-1875,-386,-1033,-569,-325,306,152,-402
0,6227665,200,-1875,-387,-1023,-565,-323,306,152,-402
0,6227672,200,-1875,-387,-1023,-565,-323,306,152,-402
0,6227679,201,-1875,-382,-1023,-570,-328,306,152,-402
0,6227687,201,-1875,-382,-1023,-570,-328,306,152,-402
0,6227695,201,-1875,-382,-1023,-570,-328,306,152,-402
0,6227702,196,-1876,-387,-1021,-565,-321,306,152,-402
0,6227710,196,-1876,-387,-1021,-565,-321,306,152,-402
0,6227717,196,-1876,-387,-1021,-565,-321,306,152,-402
0,6227724,201,-1874,-383,-1018,-563,-330,308,150,-414
0,6227730,201,-1874,-383,-1018,-563,-330,308,150,-414
0,6227738,201,-1874,-383,-1018,-563,-330,308,150,-414
0,6227745,200,-1874,-382,-1015,-561,-329,308,150,-414
0,6227752,200,-1874,-382,-1015,-561,-329,308,150,-414
0,6227760,201,-1874,-382,-1025,-563,-326,308,150,-414
0,6227766,201,-1874,-382,-1025,-563,-326,308,150,-414
0,6227772,201,-1874,-382,-1025,-563,-326,308,150,-414
0,6227777,201,-1874,-382,-1025,-563,-326,308,150,-414
0,6227782,203,-1878,-380,-1028,-571,-325,308,150,-414
0,6227789,203,-1878,-380,-1028,-571,-325,308,150,-414
0,6227795,203,-1878,-380,-1028,-571,-325,308,150,-414
0,6227802,200,-1874,-385,-1018,-567,-331,308,150,-414
0,6227809,200,-1874,-385,-1018,-567,-331,308,150,-414
0,6227816,200,-1874,-385,-1018,-567,-331,308,150,-414
0,6227823,199,-1875,-383,-1023,-567,-331,308,150,-414
0,6227828,199,-1875,-383,-1023,-567,-331,308,150,-414
0,6227834,199,-1875,-383,-1023,-567,-331,308,150,-414
0,6227842,199,-1874,-385,-1023,-566,-325,317,149,-401
0,6227848,199,-1874,-385,-1023,-566,-325,317,149,-401
0,6227858,199,-1874,-385,-1023,-566,-325,317,149,-401
0,6227870,201,-1874,-386,-1026,-567,-322,317,149,-401
0,6227884,197,-1878,-386,-1035,-568,-321,317,149,-401
0,6227897,197,-1878,-386,-1035,-568,-321,317,149,-401
0,6227909,199,-1873,-389,-1020,-566,-328,317,149,-401
0,6227920,197,-1874,-390,-1025,-567,-326,317,149,-401
0,6227934,197,-1874,-390,-1025,-567,-326,317,149,-401
0,6227946,201,-1872,-381,-1027,-570,-327,317,149,-401
0,6227955,201,-1872,-381,-1027,-570,-327,317,149,-401
0,6227965,199,-1875,-382,-1029,-571,-325,317,149,-401
0,6227980,196,-1872,-381,-1032,-570,-325,317,143,-415
0,6227993,196,-1872,-381,-1032,-570,-325,317,143,-415
0,6228006,200,-1877,-386,-1032,-571,-316,317,143,-415
0,6228017,200,-1877,-386,-1032,-571,-316,317,143,-415
0,6228029,201,-1877,-385,-1030,-567,-321,317,143,-415
0,6228041,199,-1878,-384,-1027,-562,-327,317,143,-415
0,6228055,199,-1878,-384,-1027,-562,-327,317,143,-415
0,6228067,201,-1877,-386,-1019,-566,-323,317,143,-415
0,6228081,200,-1875,-391,-1020,-571,-324,317,143,-415
0,6228092,200,-1875,-391,-1020,-571,-324,317,143,-415
0,6228106,200,-1874,-378,-1026,-568,-322,318,152,-402
0,6228120,200,-1875,-386,-1028,-566,-325,318,152,-402
0,6228132,200,-1875,-386,-1028,-566,-325,318,152,-402
0,6228142,199,-1874,-378,-1026,-565,-322,318,152,-402
0,6228150,199,-1874,-378,-1026,-565,-322,318,152,-402
0,6228158,199,-1874,-378,-1026,-565,-322,318,152,-402
0,6228165,197,-1875,-379,-1025,-569,-321,318,152,-402
0,6228173,197,-1875,-379,-1025,-569,-321,318,152,-402
0,6228182,201,-1874,-386,-1029,-566,-326,318,152,-402
0,6228189,201,-1874,-386,-1029,-566,-326,318,152,-402
0,6228198,201,-1874,-386,-1029,-566,-326,318,152,-402
0,6228205,198,-1877,-382,-1035,-567,-328,318,152,-402
0,6228213,198,-1877,-382,-1035,-567,-328,318,152,-402
0,6228221,200,-1877,-383,-1030,-569,-329,318,152,-402
0,6228230,200,-1877,-383,-1030,-569,-329,318,152,-402
0,6228238,200,-1877,-383,-1030,-569,-329,318,152,-402
0,6228247,199,-1875,-385,-1026,-566,-327,311,143,-399
0,6228256,199,-1875,-385,-1026,-566,-327,311,143,-399
0,6228265,197,-1876,-385,-1025,-565,-324,311,143,-399
0,6228275,197,-1876,-385,-1025,-565,-324,311,143,-399
0,6228284,198,-1873,-384,-1026,-568,-327,311,143,-399
0,6228298,198,-1873,-384,-1026,-568,-327,311,143,-399
0,6228311,199,-1874,-381,-1021,-565,-330,311,143,-399
0,6228324,201,-1876,-388,-1028,-561,-325,311,143,-399
0,6228337,201,-1876,-388,-1028,-561,-325,311,143,-399
0,6228350,201,-1874,-377,-1034,-572,-327,311,143,-399
0,6228361,199,-1876,-376,-1020,-563,-328,317,145,-401
0,6228372,199,-1876,-376,-1020,-563,-328,317,145,-401
0,6228384,197,-1876,-378,-1028,-556,-319,317,145,-401
0,6228398,197,-1876,-378,-1028,-556,-319,317,145,-401
0,6228409,201,-1877,-383,-1036,-566,-331,317,145,-401
0,6228422,200,-1875,-386,-1027,-565,-329,317,145,-401
0,6228435,200,-1875,-386,-1027,-565,-329,317,145,-401
0,6228449,198,-1877,-391,-1027,-562,-324,317,145,-401
0,6228461,200,-1873,-387,-1025,-560,-322,317,145,-401
0,6228470,200,-1873,-387,-1025,-560,-322,317,145,-401
0,6228483,200,-1875,-378,-1029,-566,-325,314,142,-410
0,6228495,200,-1875,-378,-1029,-566,-325,314,142,-410
0,6228504,199,-1876,-381,-1031,-570,-323,314,142,-410
0,6228512,199,-1876,-381,-1031,-570,-323,314,142,-410
0,6228520,200,-1873,-384,-1027,-573,-328,314,142,-410
0,6228529,200,-1873,-384,-1027,-573,-328,314,142,-410
0,6228543,195,-1876,-380,-1030,-567,-321,314,142,-410
0,6228556,195,-1876,-380,-1030,-567,-321,314,142,-410
0,6228569,200,-1876,-381,-1032,-570,-321,314,142,-410
0,6228578,200,-1876,-381,-1032,-570,-321,314,142,-410
0,6228585,199,-1877,-383,-1028,-565,-326,314,142,-410
0,6228593,199,-1877,-383,-1028,-565,-326,314,142,-410
0,6228601,198,-1876,-384,-1027,-559,-323,314,142,-410
0,6228615,198,-1876,-384,-1027,-559,-323,314,142,-410
0,6228626,199,-1876,-378,-1029,-565,-325,314,150,-404
0,6228638,199,-1876,-378,-1029,-565,-325,314,150,-404
0,6228651,198,-1875,-381,-1030,-563,-328,314,150,-404
0,6228664,200,-1878,-378,-1020,-564,-325,314,150,-404
0,6228674,200,-1878,-378,-1020,-564,-325,314,150,-404
0,6228685,197,-1877,-389,-1024,-561,-321,314,150,-404
0,6228698,197,-1877,-389,-1024,-561,-321,314,150,-404
0,6228710,201,-1875,-381,-1029,-564,-324,314,150,-404
0,6228720,200,-1874,-383,-1035,-559,-326,314,150,-404
0,6228731,200,-1874,-383,-1035,-559,-326,314,150,-404
0,6228744,199,-1876,-383,-1025,-563,-323,315,145,-405
0,6228756,199,-1876,-383,-1025,-563,-323,315,145,-405
0,6228769,200,-1872,-379,-1022,-566,-327,315,145,-405
0,6228783,200,-1872,-379,-1022,-566,-327,315,145,-405
0,6228795,200,-1872,-379,-1022,-566,-327,315,145,-405
0,6228808,198,-1871,-385,-1028,-564,-323,315,145,-405
0,6228822,198,-1876,-381,-1017,-562,-320,315,145,-405
0,6228835,198,-1876,-381,-1017,-562,-320,315,145,-405
0,6228847,200,-1874,-385,-1023,-567,-319,315,145,-405
0,6228859,197,-1875,-387,-1027,-564,-327,315,145,-405
0,6228868,197,-1875,-387,-1027,-564,-327,315,145,-405
0,6228875,197,-1875,-387,-1027,-564,-327,315,145,-405
0,6228882,197,-1873,-380,-1026,-560,-323,305,149,-407
0,6228889,197,-1873,-380,-1026,-560,-323,305,149,-407
0,6228896,197,-1873,-380,-1026,-560,-323,305,149,-407
0,6228904,197,-1876,-386,-1023,-570,-324,305,149,-407
0,6228912,197,-1876,-386,-1023,-570,-324,305,149,-407
0,6228918,197,-1876,-386,-1023,-570,-324,305,149,-407
0,6228926,199,-1877,-386,-1023,-565,-323,305,149,-407
0,6228934,199,-1877,-386,-1023,-565,-323,305,149,-407
0,6228941,198,-1873,-379,-1031,-566,-325,305,149,-407
0,6228948,198,-1873,-379,-1031,-566,-325,305,149,-407
0,6228956,198,-1873,-379,-1031,-566,-325,305,149,-407
0,6228963,198,-1876,-380,-1032,-566,-334,305,149,-407
0,6228969,198,-1876,-380,-1032,-566,-334,305,149,-407
0,6228978,198,-1876,-380,-1032,-566,-334,305,149,-407
0,6228985,199,-1874,-380,-1023,-565,-332,305,149,-407
0,6228994,199,-1874,-380,-1023,-565,-332,305,149,-407
0,6229002,199,-1874,-378,-1022,-561,-329,311,151,-401
0,6229009,199,-1874,-378,-1022,-561,-329,311,151,-401
0,6229015,199,-1874,-378,-1022,-561,-329,311,151,-401
0,6229023,199,-1873,-383,-1026,-565,-321,311,151,-401
0,6229030,199,-1873,-383,-1026,-565,-321,311,151,-401
0,6229037,199,-1873,-383,-1026,-565,-321,311,151,-401
0,6229046,199,-1876,-384,-1034,-562,-320,311,151,-401
0,6229053,199,-1876,-384,-1034,-562,-320,311,151,-401
0,6229061,201,-1875,-384,-1026,-564,-325,311,151,-401
0,6229067,201,-1875,-384,-1026,-564,-325,311,151,-401
0,6229072,201,-1875,-384,-1026,-564,-325,311,151,-401
0,6229080,201,-1875,-384,-1026,-564,-325,311,151,-401
0,6229088,200,-1874,-382,-1033,-569,-322,311,151,-401
0,6229095,200,-1874,-382,-1033,-569,-322,311,151,-401
0,6229102,201,-1877,-381,-1029,-572,-328,311,151,-401
0,6229109,201,-1877,-381,-1029,-572,-328,311,151,-401
0,6229118,201,-1877,-381,-1029,-572,-328,311,151,-401
0,6229124,200,-1873,-386,-1034,-570,-325,311,151,-401
0,6229130,200,-1873,-386,-1034,-570,-325,311,151,-401
0,6229137,200,-1873,-386,-1034,-570,-325,311,151,-401
0,6229142,201,-1875,-382,-1026,-568,-331,308,144,-402
0,6229147,201,-1875,-382,-1026,-568,-331,308,144,-402
0,6229152,201,-1875,-382,-1026,-568,-331,308,144,-402
0,6229157,201,-1875,-382,-1026,-568,-331,308,144,-402
0,6229164,199,-1875,-380,-1038,-567,-330,308,144,-402
0,6229169,199,-1875,-380,-1038,-567,-330,308,144,-402
0,6229174,199,-1875,-380,-1038,-567,-330,308,144,-402
0,6229180,199,-1875,-380,-1038,-567,-330,308,144,-402
0,6229187,200,-1877,-385,-1032,-568,-328,308,144,-402
0,6229193,200,-1877,-385,-1032,-568,-328,308,144,-402
0,6229200,201,-1875,-380,-1028,-564,-324,308,144,-402
0,6229206,201,-1875,-380,-1028,-564,-324,308,144,-402
0,6229214,201,-1875,-380,-1028,-564,-324,308,144,-402
0,6229221,198,-1876,-382,-1033,-568,-325,308,144,-402
0,6229229,198,-1876,-382,-1033,-568,-325,308,144,-402
0,6229236,198,-1876,-382,-1033,-568,-325,308,144,-402
0,6229243,200,-1876,-380,-1033,-566,-324,308,144,-402
0,6229249,200,-1876,-380,-1033,-566,-324,308,144,-402
0,6229254,200,-1876,-380,-1033,-566,-324,308,144,-402
0,6229259,200,-1876,-380,-1033,-566,-324,308,144,-402
0,6229265,200,-1876,-384,-1030,-567,-326,306,152,-410
0,6229271,200,-1876,-384,-1030,-567,-326,306,152,-410
0,6229278,200,-1876,-384,-1030,-567,-326,306,152,-410
0,6229286,199,-1877,-379,-1027,-566,-333,306,152,-410
0,6229294,199,-1877,-379,-1027,-566,-333,306,152,-410
0,6229301,199,-1877,-379,-1027,-566,-333,306,152,-410
0,6229307,199,-1875,-384,-1032,-567,-335,306,152,-410
0,6229314,199,-1875,-384,-1032,-567,-335,306,152,-410
0,6229321,201,-1874,-386,-1031,-562,-327,306,152,-410
0,6229328,201,-1874,-386,-1031,-562,-327,306,152,-410
0,6229335,201,-1874,-386,-1031,-562,-327,306,152,-410
0,6229341,198,-1875,-387,-1024,-555,-324,306,152,-410
0,6229348,198,-1875,-387,-1024,-555,-324,306,152,-410
0,6229355,198,-1875,-387,-1024,-555,-324,306,152,-410
0,6229362,200,-1876,-389,-1024,-565,-330,306,152,-410
0,6229369,200,-1876,-389,-1024,-565,-330,306,152,-410
0,6229374,200,-1876,-389,-1024,-565,-330,306,152,-410
0,6229383,200,-1875,-383,-1029,-565,-330,312,152,-404
0,6229388,200,-1875,-383,-1029,-565,-330,312,152,-404
0,6229397,200,-1875,-383,-1029,-565,-330,312,152,-404
0,6229404,195,-1875,-379,-1029,-565,-323,312,152,-404
0,6229411,195,-1875,-379,-1029,-565,-323,312,152,-404
0,6229419,195,-1875,-379,-1029,-565,-323,312,152,-404
0,6229425,199,-1874,-387,-1025,-564,-329,312,152,-404
0,6229432,199,-1874,-387,-1025,-564,-329,312,152,-404
0,6229438,199,-1874,-387,-1025,-564,-329,312,152,-404
0,6229447,200,-1872,-383,-1030,-567,-326,312,152,-404
0,6229454,200,-1872,-383,-1030,-567,-326,312,152,-404
0,6229462,200,-1876,-387,-1031,-565,-325,312,152,-404
0,6229469,200,-1876,-387,-1031,-565,-325,312,152,-404
0,6229474,200,-1876,-387,-1031,-565,-325,312,152,-404
0,6229481,199,-1876,-380,-1029,-568,-322,312,152,-404
0,6229487,199,-1876,-380,-1029,-568,-322,312,152,-404
0,6229494,199,-1876,-380,-1029,-568,-322,312,152,-404
0,6229501,197,-1879,-382,-1031,-575,-322,312,152,-404
0,6229509,197,-1879,-382,-1031,-575,-322,312,152,-404
0,6229515,197,-1879,-382,-1031,-575,-322,312,152,-404
0,6229523,197,-1874,-377,-1035,-568,-321,313,141,-401
0,6229530,197,-1874,-377,-1035,-568,-321,313,141,-401
0,6229537,197,-1874,-377,-1035,-568,-321,313,141,-401
0,6229543,199,-1874,-381,-1028,-566,-321,313,141,-401
0,6229550,199,-1874,-381,-1028,-566,-321,313,141,-401
0,6229556,199,-1874,-381,-1028,-566,-321,313,141,-401
0,6229564,202,-1876,-385,-1025,-561,-324,313,141,-401
0,6229571,202,-1876,-385,-1025,-561,-324,313,141,-401
0,6229576,202,-1876,-385,-1025,-561,-324,313,141,-401
0,6229581,200,-1875,-385,-1026,-561,-332,313,141,-401
0,6229586,200,-1875,-385,-1026,-561,-332,313,141,-401
0,6229592,200,-1875,-385,-1026,-561,-332,313,141,-401
0,6229597,200,-1875,-385,-1026,-561,-332,313,141,-401
0,6229602,198,-1873,-389,-1016,-569,-333,313,141,-401
0,6229610,198,-1873,-389,-1016,-569,-333,313,141,-401
0,6229617,198,-1873,-389,-1016,-569,-333,313,141,-401
0,6229625,198,-1876,-383,-1022,-568,-334,313,141,-401
0,6229632,198,-1876,-383,-1022,-568,-334,313,141,-401
0,6229639,198,-1876,-383,-1022,-568,-334,313,141,-401
0,6229647,197,-1873,-380,-1027,-570,-324,316,142,-402
0,6229655,197,-1873,-380,-1027,-570,-324,316,142,-402
0,6229662,199,-1876,-381,-1028,-566,-317,316,142,-402
0,6229670,199,-1876,-381,-1028,-566,-317,316,142,-402
0,6229678,199,-1876,-381,-1028,-566,-317,316,142,-402
0,6229685,201,-1875,-380,-1024,-574,-330,316,142,-402
0,6229692,201,-1875,-380,-1024,-574,-330,316,142,-402
0,6229699,201,-1875,-380,-1024,-574,-330,316,142,-402
0,6229705,200,-1875,-390,-1026,-572,-329,316,142,-402
0,6229713,200,-1875,-390,-1026,-572,-329,316,142,-402
0,6229721,200,-1875,-390,-1026,-572,-329,316,142,-402
0,6229728,198,-1876,-387,-1029,-563,-325,316,142,-402
0,6229735,198,-1876,-387,-1029,-563,-325,316,142,-402
0,6229742,199,-1874,-390,-1025,-564,-332,316,142,-402
0,6229749,199,-1874,-390,-1025,-564,-332,316,142,-402
0,6229756,199,-1874,-390,-1025,-564,-332,316,142,-402
0,6229764,200,-1876,-389,-1025,-571,-331,316,142,-402
0,6229771,200,-1876,-389,-1025,-571,-331,316,142,-402
0,6229777,200,-1876,-389,-1025,-571,-331,316,142,-402
0,6229785,199,-1878,-389,-1015,-571,-322,313,157,-401
0,6229792,199,-1878,-389,-1015,-571,-322,313,157,-401
0,6229799,199,-1878,-389,-1015,-571,-322,313,157,-401
0,6229806,200,-1875,-383,-1023,-564,-322,313,157,-401
0,6229813,200,-1875,-383,-1023,-564,-322,313,157,-401
0,6229820,200,-1875,-383,-1023,-564,-322,313,157,-401
0,6229825,200,-1874,-387,-1024,-567,-327,313,157,-401
0,6229833,200,-1874,-387,-1024,-567,-327,313,157,-401
0,6229839,200,-1874,-387,-1024,-567,-327,313,157,-401
0,6229847,198,-1876,-381,-1030,-570,-319,313,157,-401
0,6229854,198,-1876,-381,-1030,-570,-319,313,157,-401
0,6229861,198,-1876,-381,-1030,-570,-319,313,157,-401
0,6229868,195,-1877,-387,-1025,-567,-322,313,157,-401
0,6229877,195,-1877,-387,-1025,-567,-322,313,157,-401
0,6229890,197,-1876,-389,-1030,-565,-322,313,157,-401
0,6229903,199,-1875,-382,-1027,-569,-325,307,155,-401
0,6229915,199,-1875,-382,-1027,-569,-325,307,155,-401
0,6229925,198,-1875,-378,-1023,-565,-329,307,155,-401
0,6229938,198,-1875,-378,-1023,-565,-329,307,155,-401
0,6229952,200,-1873,-377,-1027,-566,-322,307,155,-401
0,6229963,196,-1873,-383,-1028,-564,-326,307,155,-401
0,6229977,196,-1873,-383,-1028,-564,-326,307,155,-401
0,6229987,200,-1876,-383,-1041,-572,-327,307,155,-401
0,6229996,200,-1876,-383,-1041,-572,-327,307,155,-401
0,6230004,201,-1875,-383,-1031,-574,-325,307,155,-401
0,6230012,201,-1875,-383,-1031,-574,-325,307,155,-401
0,6230026,198,-1877,-378,-1022,-567,-332,307,155,-401
0,6230038,198,-1877,-378,-1022,-567,-332,307,155,-401
0,6230052,199,-1875,-380,-1025,-571,-324,308,152,-406
0,6230065,196,-1875,-383,-1029,-562,-329,308,152,-406
0,6230077,196,-1875,-383,-1029,-562,-329,308,152,-406
0,6230090,202,-1875,-386,-1028,-552,-319,308,152,-406
0,6230103,197,-1875,-384,-1031,-555,-320,308,152,-406
0,6230116,197,-1875,-384,-1031,-555,-320,308,152,-406
0,6230128,200,-1874,-385,-1025,-563,-325,308,152,-406
0,6230139,200,-1874,-385,-1025,-563,-325,308,152,-406
0,6230148,201,-1873,-386,-1026,-565,-327,308,152,-406
0,6230156,201,-1873,-386,-1026,-565,-327,308,152,-406
0,6230164,198,-1877,-382,-1026,-561,-323,311,155,-403
0,6230172,198,-1877,-382,-1026,-561,-323,311,155,-403
0,6230180,198,-1877,-382,-1026,-561,-323,311,155,-403
0,6230189,200,-1874,-385,-1027,-565,-322,311,155,-403
0,6230197,200,-1874,-385,-1027,-565,-322,311,155,-403
0,6230204,200,-1874,-388,-1027,-567,-332,311,155,-403
0,6230213,200,-1874,-388,-1027,-567,-332,311,155,-403
0,6230221,200,-1874,-388,-1027,-567,-332,311,155,-403
0,6230230,201,-1877,-378,-1027,-561,-326,311,155,-403
0,6230242,200,-1876,-385,-1030,-570,-335,311,155,-403
0,6230254,200,-1876,-385,-1030,-570,-335,311,155,-403
0,6230266,200,-1873,-385,-1019,-566,-320,311,155,-403
0,6230279,200,-1873,-385,-1019,-566,-320,311,155,-403
0,6230293,199,-1873,-384,-1022,-570,-323,305,159,-403
0,6230305,199,-1873,-382,-1024,-571,-321,305,159,-403
0,6230315,199,-1873,-382,-1024,-571,-321,305,159,-403
0,6230326,199,-1873,-386,-1025,-572,-323,305,159,-403
0,6230340,199,-1873,-386,-1025,-572,-323,305,159,-403
0,6230353,202,-1878,-391,-1035,-569,-321,305,159,-403
0,6230363,198,-1875,-384,-1025,-561,-331,305,159,-403
0,6230376,198,-1875,-384,-1025,-561,-331,305,159,-403
0,6230384,200,-1876,-388,-1026,-569,-321,305,159,-403
0,6230394,200,-1876,-388,-1026,-569,-321,305,159,-403
0,6230409,199,-1875,-387,-1019,-568,-327,305,159,-403
0,6230421,199,-1875,-387,-1019,-568,-327,305,159,-403
0,6230433,199,-1875,-379,-1030,-565,-318,313,147,-403
0,6230448,201,-1875,-384,-1039,-571,-334,313,147,-403
0,6230460,201,-1875,-384,-1039,-571,-334,313,147,-403
0,6230472,198,-1875,-382,-1031,-572,-322,313,147,-403
0,6230486,198,-1873,-386,-1029,-572,-322,313,147,-403
0,6230497,198,-1873,-386,-1029,-572,-322,313,147,-403
0,6230510,200,-1874,-387,-1027,-567,-326,313,147,-403
0,6230522,198,-1876,-384,-1036,-561,-328,313,147,-403
0,6230536,198,-1876,-384,-1036,-561,-328,313,147,-403
0,6230548,198,-1874,-385,-1025,-571,-326,304,148,-394
0,6230561,198,-1874,-385,-1025,-571,-326,304,148,-394
0,6230574,198,-1872,-383,-1030,-571,-326,304,148,-394
0,6230584,198,-1873,-381,-1027,-566,-323,304,148,-394
0,6230591,198,-1873,-381,-1027,-566,-323,304,148,-394
0,6230599,198,-1873,-381,-1027,-566,-323,304,148,-394
0,6230608,197,-1877,-385,-1015,-563,-317,304,148,-394
0,6230619,197,-1877,-385,-1015,-563,-317,304,148,-394
0,6230627,198,-1873,-383,-1023,-570,-331,304,148,-394
0,6230637,198,-1873,-383,-1023,-570,-331,304,148,-394
0,6230647,200,-1875,-383,-1022,-565,-324,304,148,-394
0,6230657,200,-1875,-383,-1022,-565,-324,304,148,-394
0,6230666,195,-1876,-383,-1026,-564,-324,304,148,-394
0,6230678,195,-1876,-383,-1026,-564,-324,304,148,-394
0,6230690,199,-1876,-381,-1022,-565,-315,313,151,-401
0,6230703,199,-1874,-380,-1025,-573,-322,313,151,-401
0,6230716,199,-1874,-380,-1025,-573,-322,313,151,-401
0,6230728,198,-1877,-381,-1024,-570,-333,313,151,-401
0,6230740,198,-1877,-381,-1024,-570,-333,313,151,-401
0,6230749,200,-1875,-388,-1031,-570,-330,313,151,-401
0,6230757,200,-1875,-388,-1031,-570,-330,313,151,-401
0,6230765,199,-1877,-387,-1031,-570,-319,313,151,-401
0,6230774,199,-1877,-387,-1031,-570,-319,313,151,-401
0,6230782,201,-1872,-387,-1035,-564,-324,313,151,-401
0,6230795,201,-1872,-387,-1035,-564,-324,313,151,-401
0,6230807,198,-1874,-379,-1028,-567,-322,307,153,-405
0,6230819,198,-1874,-379,-1028,-567,-322,307,153,-405
0,6230831,199,-1874,-382,-1020,-564,-330,307,153,-405
0,6230845,200,-1876,-386,-1031,-566,-330,307,153,-405
0,6230856,200,-1876,-386,-1031,-566,-330,307,153,-405
0,6230870,200,-1873,-381,-1026,-562,-332,307,153,-405
0,6230879,200,-1873,-381,-1026,-562,-332,307,153,-405
0,6230885,202,-1876,-386,-1021,-562,-333,307,153,-405
0,6230892,202,-1876,-386,-1021,-562,-333,307,153,-405
0,6230898,202,-1876,-386,-1021,-562,-333,307,153,-405
0,6230905,198,-1872,-387,-1031,-564,-329,307,153,-405
0,6230912,198,-1872,-387,-1031,-564,-329,307,153,-405
0,6230919,198,-1872,-387,-1031,-564,-329,307,153,-405
0,6230926,198,-1875,-385,-1030,-570,-319,315,145,-399
0,6230933,198,-1875,-385,-1030,-570,-319,315,145,-399
0,6230939,198,-1875,-385,-1030,-570,-319,315,145,-399
0,6230947,197,-1871,-384,-1036,-567,-329,315,145,-399
0,6230953,197,-1871,-384,-1036,-567,-329,315,145,-399
0,6230960,197,-1871,-384,-1036,-567,-329,315,145,-399
0,6230967,201,-1872,-383,-1033,-567,-327,315,145,-399
0,6230974,201,-1872,-383,-1033,-567,-327,315,145,-399
0,6230980,201,-1872,-383,-1033,-567,-327,315,145,-399
0,6230987,198,-1874,-380,-1026,-565,-329,315,145,-399
0,6230994,198,-1874,-380,-1026,-565,-329,315,145,-399
0,6231001,198,-1874,-380,-1026,-565,-329,315,145,-399
0,6231008,201,-1872,-380,-1037,-572,-329,315,145,-399
0,6231014,201,-1872,-380,-1037,-572,-329,315,145,-399
0,6231021,201,-1872,-380,-1037,-572,-329,315,145,-399
0,6231029,197,-1875,-381,-1034,-572,-321,315,145,-399
0,6231037,197,-1875,-381,-1034,-572,-321,315,145,-399
0,6231045,201,-1873,-383,-1023,-567,-321,315,145,-399
0,6231051,201,-1873,-383,-1023,-567,-321,315,145,-399
0,6231058,201,-1873,-383,-1023,-567,-321,315,145,-399
0,6231064,198,-1870,-384,-1027,-560,-325,311,153,-401
0,6231071,198,-1870,-384,-1027,-560,-325,311,153,-401
0,6231079,198,-1870,-384,-1027,-560,-325,311,153,-401
0,6231088,198,-1876,-385,-1033,-564,-320,311,153,-401
0,6231094,198,-1876,-385,-1033,-564,-320,311,153,-401
0,6231101,198,-1876,-385,-1033,-564,-320,311,153,-401
0,6231109,201,-1873,-383,-1032,-570,-321,311,153,-401
0,6231114,201,-1873,-383,-1032,-570,-321,311,153,-401
0,6231122,200,-1873,-385,-1031,-570,-322,311,153,-401
0,6231130,200,-1873,-385,-1031,-570,-322,311,153,-401
0,6231137,200,-1873,-385,-1031,-570,-322,311,153,-401
0,6231142,200,-1873,-385,-1031,-570,-322,311,153,-401
0,6231147,199,-1875,-379,-1024,-564,-327,311,153,-401
0,6231153,199,-1875,-379,-1024,-564,-327,311,153,-401
0,6231158,199,-1875,-379,-1024,-564,-327,311,153,-401
0,6231163,199,-1875,-385,-1029,-568,-326,311,153,-401
0,6231169,199,-1875,-385,-1029,-568,-326,311,153,-401
0,6231174,199,-1875,-385,-1029,-568,-326,311,153,-401
0,6231181,199,-1875,-385,-1029,-568,-326,311,153,-401
0,6231189,199,-1875,-377,-1033,-568,-330,314,146,-408
0,6231197,199,-1875,-377,-1033,-568,-330,314,146,-408
0,6231204,196,-1875,-385,-1028,-562,-337,314,146,-408
0,6231212,196,-1875,-385,-1028,-562,-337,314,146,-408
0,6231219,196,-1875,-385,-1028,-562,-337,314,146,-408
0,6231226,200,-1876,-381,-1026,-555,-328,314,146,-408
0,6231231,200,-1876,-381,-1026,-555,-328,314,146,-408
0,6231239,200,-1876,-381,-1026,-555,-328,314,146,-408
0,6231247,198,-1876,-385,-1029,-565,-331,314,146,-408
0,6231255,198,-1876,-385,-1029,-565,-331,314,146,-408
0,6231262,198,-1876,-385,-1029,-565,-331,314,146,-408
0,6231269,201,-1873,-379,-1039,-571,-332,314,146,-408
0,6231276,201,-1873,-379,-1039,-571,-332,314,146,-408
0,6231281,201,-1873,-379,-1039,-571,-332,314,146,-408
0,6231289,202,-1874,-390,-1032,-566,-327,314,146,-408
0,6231297,202,-1874,-390,-1032,-566,-327,314,146,-408
0,6231304,202,-1874,-385,-1027,-566,-326,314,146,-408
0,6231311,202,-1874,-385,-1027,-566,-326,314,146,-408
0,6231318,202,-1874,-385,-1027,-566,-326,314,146,-408
0,6231325,199,-1873,-384,-1027,-568,-329,315,143,-403
0,6231331,199,-1873,-384,-1027,-568,-329,315,143,-403
0,6231340,199,-1873,-384,-1027,-568,-329,315,143,-403
0,6231346,203,-1876,-379,-1030,-564,-322,315,143,-403
0,6231352,203,-1876,-379,-1030,-564,-322,315,143,-403
0,6231359,203,-1876,-379,-1030,-564,-322,315,143,-403
0,6231366,200,-1876,-384,-1031,-568,-325,315,143,-403
0,6231372,200,-1876,-384,-1031,-568,-325,315,143,-403
0,6231377,200,-1876,-384,-1031,-568,-325,315,143,-403
0,6231383,200,-1876,-384,-1031,-568,-325,315,143,-403
0,6231390,200,-1873,-385,-1030,-564,-321,315,143,-403
0,6231396,200,-1873,-385,-1030,-564,-321,315,143,-403
0,6231403,198,-1874,-392,-1031,-561,-323,315,143,-403
0,6231411,198,-1874,-392,-1031,-561,-323,315,143,-403
0,6231417,198,-1874,-392,-1031,-561,-323,315,143,-403
0,6231425,199,-1875,-388,-1027,-569,-323,315,143,-403
0,6231432,199,-1875,-388,-1027,-569,-323,315,143,-403
0,6231439,199,-1875,-388,-1027,-569,-323,315,143,-403
0,6231444,200,-1874,-384,-1020,-566,-329,307,155,-409
0,6231449,200,-1874,-384,-1020,-566,-329,307,155,-409
0,6231457,200,-1874,-384,-1020,-566,-329,307,155,-409
0,6231464,199,-1871,-382,-1025,-565,-332,307,155,-409
0,6231472,199,-1871,-382,-1025,-565,-332,307,155,-409
0,6231478,199,-1871,-382,-1025,-565,-332,307,155,-409
0,6231483,199,-1874,-388,-1024,-561,-331,307,155,-409
0,6231491,199,-1874,-388,-1024,-561,-331,307,155,-409
0,6231499,199,-1874,-388,-1024,-561,-331,307,155,-409
0,6231506,200,-1875,-382,-1025,-564,-323,307,155,-409
0,6231515,200,-1875,-382,-1025,-564,-323,307,155,-409
0,6231522,200,-1875,-382,-1025,-564,-323,307,155,-409
0,6231528,198,-1874,-386,-1033,-567,-326,307,155,-409
0,6231533,198,-1874,-386,-1033,-567,-326,307,155,-409
0,6231540,198,-1874,-386,-1033,-567,-326,307,155,-409
0,6231548,198,-1874,-386,-1033,-567,-326,307,155,-409
0,6231556,198,-1874,-386,-1033,-567,-326,307,155,-409
0,6231564,197,-1872,-383,-1026,-565,-333,307,155,-409
0,6231569,197,-1872,-383,-1026,-565,-333,307,155,-409
0,6231575,197,-1872,-383,-1026,-565,-333,307,155,-409
0,6231580,197,-1872,-383,-1026,-565,-333,307,155,-409
0,6231585,198,-1877,-378,-1021,-565,-330,301,153,-399
0,6231590,198,-1877,-378,-1021,-565,-330,301,153,-399
0,6231595,198,-1877,-378,-1021,-565,-330,301,153,-399
0,6231602,198,-1877,-378,-1021,-565,-330,301,153,-399
0,6231608,199,-1873,-376,-1026,-566,-322,301,153,-399
0,6231616,199,-1873,-376,-1026,-566,-322,301,153,-399
0,6231624,199,-1877,-379,-1027,-561,-330,301,153,-399
0,6231631,199,-1877,-379,-1027,-561,-330,301,153,-399
0,6231638,199,-1877,-379,-1027,-561,-330,301,153,-399
0,6231644,197,-1874,-380,-1032,-567,-331,301,153,-399
0,6231652,197,-1874,-380,-1032,-567,-331,301,153,-399
0,6231659,197,-1874,-380,-1032,-567,-331,301,153,-399
0,6231666,198,-1874,-386,-1027,-562,-330,301,153,-399
0,6231674,198,-1874,-386,-1027,-562,-330,301,153,-399
0,6231681,198,-1874,-386,-1027,-562,-330,301,153,-399
0,6231688,198,-1876,-386,-1029,-567,-325,301,153,-399
0,6231694,198,-1876,-386,-1029,-567,-325,301,153,-399
0,6231700,198,-1876,-386,-1029,-567,-325,301,153,-399
0,6231708,200,-1876,-377,-1033,-571,-331,311,153,-413
0,6231716,200,-1876,-377,-1033,-571,-331,311,153,-413
0,6231724,199,-1873,-382,-1035,-569,-319,311,153,-413
0,6231733,199,-1873,-382,-1035,-569,-319,311,153,-413
0,6231740,199,-1873,-382,-1035,-569,-319,311,153,-413
0,6231747,199,-1875,-385,-1028,-574,-323,311,153,-413
0,6231754,199,-1875,-385,-1028,-574,-323,311,153,-413
0,6231761,199,-1875,-385,-1028,-574,-323,311,153,-413
0,6231768,198,-1874,-388,-1028,-571,-323,311,153,-413
0,6231776,198,-1874,-388,-1028,-571,-323,311,153,-413
0,6231783,198,-1875,-383,-1024,-568,-327,311,153,-413
0,6231790,198,-1875,-383,-1024,-568,-327,311,153,-413
0,6231796,198,-1875,-383,-1024,-568,-327,311,153,-413
0,6231803,196,-1876,-384,-1033,-564,-324,311,153,-413
0,6231810,196,-1876,-384,-1033,-564,-324,311,153,-413
0,6231818,196,-1876,-384,-1033,-564,-324,311,153,-413
0,6231825,199,-1873,-385,-1024,-570,-322,313,145,-401
0,6231832,199,-1873,-385,-1024,-570,-322,313,145,-401
0,6231838,199,-1873,-385,-1024,-570,-322,313,145,-401
0,6231845,197,-1872,-384,-1028,-568,-326,313,145,-401
0,6231854,197,-1872,-384,-1028,-568,-326,313,145,-401
0,6231859,197,-1872,-384,-1028,-568,-326,313,145,-401
0,6231864,197,-1876,-382,-1029,-567,-325,313,145,-401
0,6231869,197,-1876,-382,-1029,-567,-325,313,145,-401
0,6231876,197,-1876,-382,-1029,-567,-325,313,145,-401
0,6231883,196,-1876,-380,-1029,-565,-319,313,145,-401
0,6231896,196,-1876,-380,-1029,-565,-319,313,145,-401
0,6231908,201,-1876,-387,-1030,-567,-327,313,145,-401
0,6231919,201,-1876,-387,-1030,-567,-327,313,145,-401
0,6231932,199,-1874,-382,-1021,-560,-324,313,145,-401
0,6231946,196,-1872,-381,-1032,-563,-322,313,145,-401
0,6231954,196,-1872,-381,-1032,-563,-322,313,145,-401
0,6231966,200,-1874,-373,-1023,-569,-326,310,150,-400
0,6231981,200,-1874,-373,-1023,-569,-326,310,150,-400
0,6231994,200,-1876,-383,-1025,-568,-322,310,150,-400
0,6232004,198,-1874,-381,-1030,-568,-324,310,150,-400
0,6232017,198,-1874,-381,-1030,-568,-324,310,150,-400
0,6232032,201,-1875,-382,-1036,-563,-326,310,150,-400
0,6232044,198,-1874,-386,-1036,-568,-323,310,150,-400
0,6232054,198,-1874,-386,-1036,-568,-323,310,150,-400
0,6232067,198,-1874,-386,-1025,-563,-330,310,150,-400
0,6232081,198,-1874,-386,-1025,-563,-330,310,150,-400
0,6232093,201,-1876,-378,-1022,-565,-327,313,155,-405
0,6232104,201,-1873,-376,-1030,-565,-324,313,155,-405
0,6232118,201,-1873,-376,-1030,-565,-324,313,155,-405
0,6232131,200,-1874,-380,-1027,-559,-329,313,155,-405
0,6232139,200,-1874,-380,-1027,-559,-329,313,155,-405
0,6232147,201,-1875,-377,-1025,-567,-331,313,155,-405
0,6232156,201,-1875,-377,-1025,-567,-331,313,155,-405
0,6232164,200,-1876,-381,-1027,-568,-321,313,155,-405
0,6232172,200,-1876,-381,-1027,-568,-321,313,155,-405
0,6232180,200,-1876,-381,-1027,-568,-321,313,155,-405
0,6232189,199,-1872,-387,-1024,-562,-321,313,155,-405
0,6232197,199,-1872,-387,-1024,-562,-321,313,155,-405
0,6232205,199,-1873,-387,-1030,-560,-321,313,155,-405
0,6232213,199,-1873,-387,-1030,-560,-321,313,155,-405
0,6232221,199,-1873,-387,-1030,-560,-321,313,155,-405
0,6232229,200,-1875,-381,-1028,-559,-326,309,147,-405
0,6232239,200,-1875,-381,-1028,-559,-326,309,147,-405
0,6232247,201,-1877,-384,-1030,-565,-328,309,147,-405
0,6232255,201,-1877,-384,-1030,-565,-328,309,147,-405
0,6232265,197,-1875,-380,-1028,-570,-328,309,147,-405
0,6232273,197,-1875,-380,-1028,-570,-328,309,147,-405
0,6232283,197,-1875,-380,-1028,-570,-328,309,147,-405
0,6232293,201,-1874,-381,-1034,-560,-326,309,147,-405
0,6232301,201,-1874,-381,-1034,-560,-326,309,147,-405
0,6232310,201,-1873,-387,-1033,-565,-324,309,147,-405
0,6232320,201,-1873,-387,-1033,-565,-324,309,147,-405
0,6232329,200,-1876,-389,-1028,-567,-325,309,147,-405
0,6232341,200,-1876,-389,-1028,-567,-325,309,147,-405
0,6232353,200,-1876,-381,-1027,-566,-323,318,144,-400
0,6232367,198,-1874,-380,-1020,-567,-319,318,144,-400
0,6232377,198,-1874,-380,-1020,-567,-319,318,144,-400
0,6232387,201,-1876,-386,-1026,-571,-321,318,144,-400
0,6232400,201,-1876,-386,-1026,-571,-321,318,144,-400
0,6232414,196,-1873,-385,-1027,-570,-324,318,144,-400
0,6232423,196,-1873,-385,-1027,-570,-324,318,144,-400
0,6232433,202,-1874,-382,-1022,-570,-320,318,144,-400
0,6232441,202,-1874,-382,-1022,-570,-320,318,144,-400
0,6232454,200,-1873,-386,-1028,-562,-319,318,144,-400
0,6232469,202,-1873,-381,-1027,-558,-322,318,144,-400
0,6232484,202,-1873,-381,-1027,-558,-322,318,144,-400
0,6232495,199,-1871,-376,-1031,-567,-320,318,144,-400
0,6232506,197,-1874,-385,-1033,-569,-324,318,144,-400
0,6232520,197,-1874,-385,-1033,-569,-324,318,144,-400
0,6232535,196,-1874,-385,-1032,-560,-333,318,144,-400
0,6232545,199,-1876,-390,-1037,-565,-333,318,144,-400
0,6232553,199,-1876,-390,-1037,-565,-333,318,144,-400
0,6232561,199,-1876,-390,-1037,-565,-333,318,144,-400
0,6232569,200,-1874,-388,-1025,-561,-317,318,144,-400
0,6232578,200,-1874,-388,-1025,-561,-317,318,144,-400
0,6232585,196,-1876,-383,-1033,-570,-323,318,144,-400
0,6232593,196,-1876,-383,-1033,-570,-323,318,144,-400
0,6232601,196,-1876,-383,-1033,-570,-323,318,144,-400
0,6232610,198,-1875,-377,-1019,-561,-330,308,146,-408
0,6232620,198,-1875,-377,-1019,-561,-330,308,146,-408
0,6232629,199,-1876,-382,-1021,-561,-324,308,146,-408
0,6232639,199,-1876,-382,-1021,-561,-324,308,146,-408
0,6232652,204,-1870,-379,-1022,-567,-318,308,146,-408
0,6232665,199,-1875,-386,-1024,-565,-332,308,146,-408
0,6232678,199,-1875,-386,-1024,-565,-332,308,146,-408
0,6232690,201,-1874,-383,-1025,-569,-324,308,146,-408
0,6232705,201,-1874,-383,-1025,-569,-324,308,146,-408
0,6232716,200,-1876,-385,-1023,-573,-323,308,146,-408
0,6232729,200,-1874,-379,-1028,-561,-326,309,145,-403
0,6232743,200,-1874,-379,-1028,-561,-326,309,145,-403
0,6232757,201,-1871,-380,-1031,-567,-320,309,145,-403
0,6232769,200,-1874,-383,-1029,-566,-323,309,145,-403
0,6232783,200,-1874,-383,-1029,-566,-323,309,145,-403
0,6232796,199,-1878,-387,-1026,-567,-320,309,145,-403
0,6232808,195,-1874,-380,-1022,-561,-324,309,145,-403
0,6232820,195,-1874,-380,-1022,-561,-324,309,145,-403
0,6232834,200,-1875,-386,-1028,-566,-328,309,145,-403
0,6232848,199,-1874,-379,-1024,-572,-324,309,145,-403
0,6232858,199,-1874,-379,-1024,-572,-324,309,145,-403
0,6232871,198,-1874,-381,-1027,-569,-326,308,146,-402
0,6232884,198,-1874,-381,-1027,-569,-326,308,146,-402
0,6232894,196,-1872,-389,-1026,-570,-330,308,146,-402
0,6232901,196,-1872,-389,-1026,-570,-330,308,146,-402
0,6232908,198,-1874,-382,-1020,-570,-319,308,146,-402
0,6232915,198,-1874,-382,-1020,-570,-319,308,146,-402
0,6232923,198,-1874,-382,-1020,-570,-319,308,146,-402
0,6232932,199,-1876,-387,-1028,-573,-321,308,146,-402
0,6232939,199,-1876,-387,-1028,-573,-321,308,146,-402
0,6232947,202,-1875,-387,-1024,-570,-330,308,146,-402
0,6232954,202,-1875,-387,-1024,-570,-330,308,146,-402
0,6232962,202,-1875,-387,-1024,-570,-330,308,146,-402
0,6232968,198,-1872,-387,-1021,-570,-330,308,146,-402
0,6232976,198,-1872,-387,-1021,-570,-330,308,146,-402
0,6232983,198,-1872,-387,-1021,-570,-330,308,146,-402
0,6232990,200,-1875,-378,-1031,-568,-324,313,141,-405
0,6232998,200,-1875,-378,-1031,-568,-324,313,141,-405
0,6233006,198,-1876,-382,-1036,-565,-322,313,141,-405
0,6233015,198,-1876,-382,-1036,-565,-322,313,141,-405
0,6233022,198,-1876,-382,-1036,-565,-322,313,141,-405
0,6233027,198,-1873,-380,-1025,-565,-326,313,141,-405
0,6233032,198,-1873,-380,-1025,-565,-326,313,141,-405
0,6233039,198,-1873,-380,-1025,-565,-326,313,141,-405
0,6233047,198,-1874,-383,-1028,-565,-326,313,141,-405
0,6233054,198,-1874,-383,-1028,-565,-326,313,141,-405
0,6233059,198,-1874,-383,-1028,-565,-326,313,141,-405
0,6233066,199,-1873,-388,-1030,-569,-329,313,141,-405
0,6233074,199,-1873,-388,-1030,-569,-329,313,141,-405
0,6233081,199,-1873,-388,-1030,-569,-329,313,141,-405
0,6233089,198,-1878,-391,-1030,-560,-327,313,141,-405
0,6233096,198,-1878,-391,-1030,-560,-327,313,141,-405
0,6233103,198,-1878,-391,-1030,-560,-327,313,141,-405
0,6233108,200,-1875,-387,-1023,-569,-327,313,141,-405
0,6233116,200,-1875,-387,-1023,-569,-327,313,141,-405
0,6233123,200,-1875,-387,-1023,-569,-327,313,141,-405
0,6233131,197,-1876,-385,-1029,-569,-331,308,150,-404
0,6233138,197,-1876,-385,-1029,-569,-331,308,150,-404
0,6233143,197,-1876,-385,-1029,-569,-331,308,150,-404
0,6233149,200,-1875,-385,-1027,-565,-324,308,150,-404
0,6233155,200,-1875,-385,-1027,-565,-324,308,150,-404
0,6233160,200,-1875,-385,-1027,-565,-324,308,150,-404
0,6233165,197,-1877,-387,-1029,-569,-328,308,150,-404
0,6233170,197,-1877,-387,-1029,-569,-328,308,150,-404
0,6233176,197,-1877,-387,-1029,-569,-328,308,150,-404
0,6233181,197,-1877,-387,-1029,-569,-328,308,150,-404
0,6233188,201,-1879,-385,-1033,-564,-329,308,150,-404
0,6233195,201,-1879,-385,-1033,-564,-329,308,150,-404
0,6233201,201,-1879,-385,-1033,-564,-329,308,150,-404
0,6233208,196,-1870,-385,-1032,-561,-318,308,150,-404
0,6233217,196,-1870,-385,-1032,-561,-318,308,150,-404
0,6233223,196,-1870,-385,-1032,-561,-318,308,150,-404
0,6233229,199,-1871,-384,-1031,-568,-327,308,150,-404
0,6233237,199,-1871,-384,-1031,-568,-327,308,150,-404
0,6233244,199,-1871,-384,-1031,-568,-327,308,150,-404
0,6233251,195,-1871,-373,-1022,-565,-337,320,148,-404
0,6233259,195,-1871,-373,-1022,-565,-337,320,148,-404
0,6233265,195,-1871,-373,-1022,-565,-337,320,148,-404
0,6233272,197,-1877,-379,-1018,-562,-326,320,148,-404
0,6233277,197,-1877,-379,-1018,-562,-326,320,148,-404
0,6233284,197,-1877,-379,-1018,-562,-326,320,148,-404
0,6233292,200,-1877,-387,-1022,-566,-324,320,148,-404
0,6233299,200,-1877,-387,-1022,-566,-324,320,148,-404
0,6233306,199,-1875,-382,-1027,-567,-322,320,148,-404
0,6233313,199,-1875,-382,-1027,-567,-322,320,148,-404
0,6233320,199,-1875,-382,-1027,-567,-322,320,148,-404
0,6233325,198,-1874,-389,-1021,-564,-322,320,148,-404
0,6233333,198,-1874,-389,-1021,-564,-322,320,148,-404
0,6233340,198,-1874,-389,-1021,-564,-322,320,148,-404
0,6233347,198,-1871,-388,-1031,-571,-320,320,148,-404
0,6233354,198,-1871,-388,-1031,-571,-320,320,148,-404
0,6233360,198,-1871,-388,-1031,-571,-320,320,148,-404
0,6233366,198,-1873,-386,-1027,-563,-320,308,144,-402
0,6233374,198,-1873,-386,-1027,-563,-320,308,144,-402
0,6233381,198,-1873,-386,-1027,-563,-320,308,144,-402
0,6233391,197,-1874,-385,-1026,-565,-328,308,144,-402
0,6233396,197,-1874,-385,-1026,-565,-328,308,144,-402
0,6233402,197,-1874,-385,-1026,-565,-328,308,144,-402
0,6233409,196,-1875,-383,-1024,-563,-321,308,144,-402
0,6233415,196,-1875,-383,-1024,-563,-321,308,144,-402
0,6233421,196,-1875,-383,-1024,-563,-321,308,144,-402
0,6233426,200,-1876,-383,-1028,-566,-327,308,144,-402
0,6233435,200,-1876,-383,-1028,-566,-327,308,144,-402
0,6233443,200,-1876,-383,-1028,-566,-327,308,144,-402
0,6233451,198,-1874,-374,-1036,-566,-332,308,144,-402
0,6233457,198,-1874,-374,-1036,-566,-332,308,144,-402
0,6233462,198,-1874,-374,-1036,-566,-332,308,144,-402
0,6233469,198,-1875,-388,-1024,-564,-328,308,144,-402
0,6233476,198,-1875,-388,-1024,-564,-328,308,144,-402
0,6233483,198,-1875,-388,-1024,-564,-328,308,144,-402
0,6233491,202,-1876,-390,-1024,-567,-333,308,144,-402
0,6233496,202,-1876,-390,-1024,-567,-333,308,144,-402
0,6233505,202,-1876,-390,-1024,-567,-333,308,144,-402
0,6233511,195,-1876,-381,-1033,-564,-325,308,150,-410
0,6233519,195,-1876,-381,-1033,-564,-325,308,150,-410
0,6233527,200,-1871,-382,-1021,-571,-322,308,150,-410
0,6233534,200,-1871,-382,-1021,-571,-322,308,150,-410
0,6233540,200,-1871,-382,-1021,-571,-322,308,150,-410
0,6233547,202,-1872,-385,-1013,-567,-332,308,150,-410
0,6233554,202,-1872,-385,-1013,-567,-332,308,150,-410
0,6233563,202,-1872,-385,-1013,-567,-332,308,150,-410
0,6233570,199,-1876,-389,-1018,-566,-329,308,150,-410
0,6233575,199,-1876,-389,-1018,-566,-329,308,150,-410
0,6233580,199,-1876,-389,-1018,-566,-329,308,150,-410
0,6233585,199,-1876,-389,-1018,-566,-329,308,150,-410
0,6233590,200,-1878,-382,-1022,-561,-326,308,150,-410
0,6233595,200,-1878,-382,-1022,-561,-326,308,150,-410
0,6233602,200,-1878,-382,-1022,-561,-326,308,150,-410
0,6233608,200,-1878,-382,-1022,-561,-326,308,150,-410
0,6233613,200,-1878,-382,-1022,-561,-326,308,150,-410
0,6233618,200,-1878,-382,-1022,-561,-326,308,150,-410
0,6233624,200,-1878,-382,-1022,-561,-326,308,150,-410
0,6233630,201,-1874,-381,-1026,-561,-327,314,150,-412
0,6233636,201,-1874,-381,-1026,-561,-327,314,150,-412
0,6233643,201,-1874,-381,-1026,-561,-327,314,150,-412
0,6233649,200,-1877,-379,-1025,-563,-322,314,150,-412
0,6233655,200,-1877,-379,-1025,-563,-322,314,150,-412
0,6233660,200,-1877,-379,-1025,-563,-322,314,150,-412
0,6233668,200,-1875,-387,-1020,-565,-327,314,150,-412
0,6233675,200,-1875,-387,-1020,-565,-327,314,150,-412
0,6233682,200,-1875,-387,-1020,-565,-327,314,150,-412
0,6233688,200,-1877,-383,-1025,-567,-332,314,150,-412
0,6233693,200,-1877,-383,-1025,-567,-332,314,150,-412
0,6233698,200,-1877,-383,-1025,-567,-332,314,150,-412
0,6233706,198,-1877,-383,-1031,-575,-317,314,150,-412
0,6233711,198,-1877,-383,-1031,-575,-317,314,150,-412
0,6233719,198,-1877,-383,-1031,-575,-317,314,150,-412
0,6233726,198,-1878,-391,-1028,-576,-320,314,150,-412
0,6233735,198,-1878,-391,-1028,-576,-320,314,150,-412
0,6233741,198,-1878,-391,-1028,-576,-320,314,150,-412
0,6233748,199,-1875,-385,-1021,-571,-329,314,150,-412
0,6233755,199,-1875,-385,-1021,-571,-329,314,150,-412
0,6233761,199,-1875,-385,-1021,-571,-329,314,150,-412
0,6233769,200,-1875,-381,-1031,-563,-324,305,141,-399
0,6233776,200,-1875,-381,-1031,-563,-324,305,141,-399
0,6233783,200,-1875,-381,-1031,-563,-324,305,141,-399
0,6233790,199,-1876,-382,-1027,-566,-316,305,141,-399
0,6233795,199,-1876,-382,-1027,-566,-316,305,141,-399
0,6233802,199,-1876,-382,-1027,-566,-316,305,141,-399
0,6233810,200,-1875,-382,-1033,-571,-324,305,141,-399
0,6233819,200,-1875,-382,-1033,-571,-324,305,141,-399
0,6233825,200,-1875,-382,-1033,-571,-324,305,141,-399
0,6233832,201,-1877,-386,-1031,-565,-322,305,141,-399
0,6233839,201,-1877,-386,-1031,-565,-322,305,141,-399
0,6233847,202,-1877,-384,-1033,-563,-320,305,141,-399
0,6233853,202,-1877,-384,-1033,-563,-320,305,141,-399
0,6233860,202,-1877,-384,-1033,-563,-320,305,141,-399
0,6233866,202,-1877,-384,-1033,-563,-320,305,141,-399
0,6233873,199,-1875,-382,-1028,-564,-323,305,141,-399
0,6233879,199,-1875,-382,-1028,-564,-323,305,141,-399
0,6233887,199,-1877,-380,-1030,-566,-321,313,149,-401
0,6233894,199,-1877,-380,-1030,-566,-321,313,149,-401
0,6233909,198,-1874,-383,-1018,-562,-320,313,149,-401
0,6233923,198,-1874,-383,-1018,-562,-320,313,149,-401
0,6233932,197,-1872,-379,-1014,-565,-318,313,149,-401
0,6233945,197,-1872,-379,-1014,-565,-318,313,149,-401
0,6233958,199,-1875,-381,-1027,-563,-321,313,149,-401
0,6233971,200,-1877,-385,-1029,-562,-320,313,149,-401
0,6233982,200,-1877,-385,-1029,-562,-320,313,149,-401
0,6233995,198,-1877,-387,-1033,-564,-323,313,149,-401
0,6234009,201,-1876,-390,-1032,-568,-324,313,149,-401
0,6234022,201,-1876,-390,-1032,-568,-324,313,149,-401
0,6234032,202,-1877,-384,-1027,-564,-328,311,137,-403
0,6234044,202,-1877,-384,-1027,-564,-328,311,137,-403
0,6234055,201,-1873,-387,-1031,-561,-322,311,137,-403
0,6234068,201,-1874,-381,-1028,-558,-325,311,137,-403
0,6234080,201,-1874,-381,-1028,-558,-325,311,137,-403
0,6234095,200,-1875,-382,-1032,-566,-319,311,137,-403
0,6234107,203,-1877,-379,-1027,-571,-320,311,137,-403
0,6234120,203,-1877,-379,-1027,-571,-320,311,137,-403
0,6234133,201,-1872,-385,-1026,-570,-322,311,137,-403
0,6234141,201,-1872,-385,-1026,-570,-322,311,137,-403
0,6234150,200,-1875,-378,-1030,-571,-322,304,148,-400
0,6234159,200,-1875,-378,-1030,-571,-322,304,148,-400
0,6234167,199,-1874,-382,-1027,-573,-325,304,148,-400
0,6234174,199,-1874,-382,-1027,-573,-325,304,148,-400
0,6234183,199,-1874,-382,-1027,-573,-325,304,148,-400
0,6234191,200,-1872,-385,-1026,-563,-321,304,148,-400
0,6234200,200,-1872,-385,-1026,-563,-321,304,148,-400
0,6234208,201,-1874,-380,-1026,-566,-322,304,148,-400
0,6234216,201,-1874,-380,-1026,-566,-322,304,148,-400
0,6234224,201,-1874,-380,-1026,-566,-322,304,148,-400
0,6234232,201,-1877,-382,-1028,-566,-314,304,148,-400
0,6234241,201,-1877,-382,-1028,-566,-314,304,148,-400
0,6234250,200,-1876,-386,-1025,-566,-317,304,148,-400
0,6234260,200,-1876,-386,-1025,-566,-317,304,148,-400
0,6234268,197,-1873,-382,-1024,-568,-328,317,153,-397
0,6234277,197,-1873,-382,-1024,-568,-328,317,153,-397
0,6234286,197,-1873,-382,-1024,-568,-328,317,153,-397
0,6234296,196,-1872,-379,-1031,-577,-327,317,153,-397
0,6234310,197,-1874,-380,-1027,-563,-328,317,153,-397
0,6234321,197,-1874,-380,-1027,-563,-328,317,153,-397
0,6234334,200,-1873,-381,-1030,-561,-318,317,153,-397
0,6234348,198,-1872,-386,-1031,-569,-317,317,153,-397
0,6234363,198,-1872,-386,-1031,-569,-317,317,153,-397
0,6234376,199,-1876,-382,-1034,-567,-324,317,153,-397
0,6234387,199,-1877,-384,-1037,-564,-329,317,153,-397
0,6234399,199,-1877,-384,-1037,-564,-329,317,153,-397
0,6234413,197,-1874,-385,-1028,-574,-325,311,151,-405
0,6234425,197,-1874,-385,-1028,-574,-325,311,151,-405
0,6234436,201,-1875,-384,-1028,-562,-330,311,151,-405
0,6234449,199,-1872,-379,-1016,-566,-326,311,151,-405
0,6234463,199,-1872,-379,-1016,-566,-326,311,151,-405
0,6234475,199,-1875,-386,-1024,-560,-324,311,151,-405
0,6234484,199,-1875,-386,-1024,-560,-324,311,151,-405
0,6234497,201,-1873,-385,-1024,-558,-323,311,151,-405
0,6234510,200,-1874,-384,-1021,-561,-320,311,151,-405
0,6234522,200,-1874,-384,-1021,-561,-320,311,151,-405
0,6234533,197,-1872,-388,-1021,-568,-317,311,147,-405
0,6234546,197,-1872,-388,-1021,-568,-317,311,147,-405
0,6234557,199,-1874,-383,-1024,-573,-323,311,147,-405
0,6234569,199,-1875,-384,-1025,-570,-325,311,147,-405
0,6234577,199,-1875,-384,-1025,-570,-325,311,147,-405
0,6234586,199,-1875,-384,-1025,-570,-325,311,147,-405
0,6234594,200,-1873,-381,-1028,-562,-319,311,147,-405
0,6234603,200,-1873,-381,-1028,-562,-319,311,147,-405
0,6234616,199,-1875,-386,-1028,-566,-327,311,147,-405
0,6234625,199,-1875,-386,-1028,-566,-327,311,147,-405
0,6234634,199,-1876,-388,-1028,-571,-322,311,147,-405
0,6234648,199,-1875,-383,-1026,-566,-323,311,147,-405
0,6234662,199,-1875,-383,-1026,-566,-323,311,147,-405
0,6234675,199,-1874,-376,-1024,-561,-324,322,154,-408
0,6234685,199,-1874,-376,-1024,-561,-324,322,154,-408
0,6234698,199,-1873,-385,-1029,-558,-328,322,154,-408
0,6234711,200,-1874,-383,-1025,-562,-325,322,154,-408
0,6234723,200,-1874,-383,-1025,-562,-325,322,154,-408
0,6234734,203,-1876,-384,-1027,-561,-322,322,154,-408
0,6234749,201,-1875,-387,-1027,-563,-329,322,154,-408
0,6234762,201,-1875,-387,-1027,-563,-329,322,154,-408
0,6234771,201,-1872,-382,-1029,-561,-327,322,154,-408
0,6234783,201,-1872,-382,-1029,-561,-327,322,154,-408
0,6234798,198,-1876,-378,-1025,-562,-323,308,152,-406
0,6234812,200,-1875,-389,-1030,-567,-326,308,152,-406
0,6234820,200,-1875,-389,-1030,-567,-326,308,152,-406
0,6234832,197,-1872,-385,-1037,-570,-324,308,152,-406
0,6234848,197,-1875,-391,-1034,-564,-315,308,152,-406
0,6234860,197,-1875,-391,-1034,-564,-315,308,152,-406
0,6234870,195,-1875,-381,-1026,-558,-324,308,152,-406
0,6234883,195,-1875,-381,-1026,-558,-324,308,152,-406
0,6234896,198,-1877,-383,-1029,-565,-330,308,152,-406
0,6234907,198,-1877,-383,-1029,-565,-330,308,152,-406
0,6234912,199,-1874,-383,-1032,-573,-324,307,153,-405
0,6234918,199,-1874,-383,-1032,-573,-324,307,153,-405
0,6234924,199,-1874,-383,-1032,-573,-324,307,153,-405
0,6234929,201,-1877,-378,-1031,-574,-317,307,153,-405
0,6234934,201,-1877,-378,-1031,-574,-317,307,153,-405
0,6234941,201,-1877,-378,-1031,-574,-317,307,153,-405
0,6234948,199,-1873,-383,-1022,-568,-317,307,153,-405
0,6234956,199,-1873,-383,-1022,-568,-317,307,153,-405
0,6234963,199,-1873,-383,-1022,-568,-317,307,153,-405
0,6234970,200,-1877,-391,-1024,-571,-331,307,153,-405
0,6234978,200,-1877,-391,-1024,-571,-331,307,153,-405
0,6234986,200,-1877,-391,-1024,-571,-331,307,153,-405
0,6234992,199,-1877,-385,-1021,-566,-327,307,153,-405
0,6234999,199,-1877,-385,-1021,-566,-327,307,153,-405
0,6235006,199,-1877,-385,-1021,-566,-327,307,153,-405
0,6235015,200,-1876,-387,-1028,-567,-326,307,153,-405
0,6235021,200,-1876,-387,-1028,-567,-326,307,153,-405
0,6235029,200,-1876,-386,-1032,-564,-321,307,153,-405
0,6235035,200,-1876,-386,-1032,-564,-321,307,153,-405
0,6235043,200,-1876,-386,-1032,-564,-321,307,153,-405
0,6235051,200,-1875,-383,-1027,-565,-322,314,138,-410
0,6235058,200,-1875,-383,-1027,-565,-322,314,138,-410
0,6235064,200,-1875,-383,-1027,-565,-322,314,138,-410
0,6235072,201,-1877,-384,-1031,-561,-326,314,138,-410
0,6235078,201,-1877,-384,-1031,-561,-326,314,138,-410
0,6235085,201,-1877,-384,-1031,-561,-326,314,138,-410
0,6235094,201,-1872,-381,-1029,-570,-322,314,138,-410
0,6235100,201,-1872,-381,-1029,-570,-322,314,138,-410
0,6235105,201,-1872,-381,-1029,-570,-322,314,138,-410
0,6235113,198,-1875,-389,-1027,-570,-320,314,138,-410
0,6235120,198,-1875,-389,-1027,-570,-320,314,138,-410
0,6235127,198,-1875,-389,-1027,-570,-320,314,138,-410
0,6235133,197,-1874,-387,-1031,-569,-322,314,138,-410
0,6235140,197,-1874,-387,-1031,-569,-322,314,138,-410
0,6235145,197,-1874,-387,-1031,-569,-322,314,138,-410
0,6235150,200,-1872,-386,-1025,-572,-323,314,138,-410
0,6235155,200,-1872,-386,-1025,-572,-323,314,138,-410
0,6235160,200,-1872,-386,-1025,-572,-323,314,138,-410
0,6235164,200,-1872,-386,-1025,-572,-323,314,138,-410
0,6235170,197,-1876,-378,-1028,-568,-322,319,151,-399
0,6235177,197,-1876,-378,-1028,-568,-322,319,151,-399
0,6235186,197,-1876,-378,-1028,-568,-322,319,151,-399
0,6235193,200,-1873,-375,-1032,-567,-323,319,151,-399
0,6235201,200,-1873,-375,-1032,-567,-323,319,151,-399
0,6235208,204,-1875,-384,-1021,-565,-322,319,151,-399
0,6235214,204,-1875,-384,-1021,-565,-322,319,151,-399
0,6235222,204,-1875,-384,-1021,-565,-322,319,151,-399
0,6235230,199,-1876,-382,-1024,-562,-322,319,151,-399
0,6235236,199,-1876,-382,-1024,-562,-322,319,151,-399
0,6235244,199,-1876,-382,-1024,-562,-322,319,151,-399
0,6235252,198,-1876,-389,-1026,-567,-316,319,151,-399
0,6235258,198,-1876,-389,-1026,-567,-316,319,151,-399
0,6235266,198,-1876,-389,-1026,-567,-316,319,151,-399
0,6235274,198,-1874,-382,-1022,-569,-326,319,151,-399
0,6235281,198,-1874,-382,-1022,-569,-326,319,151,-399
0,6235286,198,-1874,-382,-1022,-569,-326,319,151,-399
0,6235294,200,-1877,-385,-1020,-570,-329,319,151,-399
0,6235302,200,-1877,-385,-1020,-570,-329,319,151,-399
0,6235311,199,-1871,-381,-1026,-567,-321,311,143,-403
0,6235318,199,-1871,-381,-1026,-567,-321,311,143,-403
0,6235324,199,-1871,-381,-1026,-567,-321,311,143,-403
0,6235330,196,-1872,-387,-1029,-559,-320,311,143,-403
0,6235336,196,-1872,-387,-1029,-559,-320,311,143,-403
0,6235342,196,-1872,-387,-1029,-559,-320,311,143,-403
0,6235350,196,-1873,-390,-1032,-562,-326,311,143,-403
0,6235356,196,-1873,-390,-1032,-562,-326,311,143,-403
0,6235364,196,-1873,-390,-1032,-562,-326,311,143,-403
0,6235371,198,-1876,-380,-1025,-560,-330,311,143,-403
0,6235378,198,-1876,-380,-1025,-560,-330,311,143,-403
0,6235385,198,-1876,-380,-1025,-560,-330,311,143,-403
0,6235394,198,-1876,-380,-1025,-560,-330,311,143,-403
0,6235401,198,-1876,-380,-1025,-560,-330,311,143,-403
0,6235408,198,-1876,-380,-1025,-560,-330,311,143,-403
0,6235415,199,-1876,-380,-1032,-570,-325,311,143,-403
0,6235423,199,-1876,-380,-1032,-570,-325,311,143,-403
0,6235430,198,-1876,-378,-1033,-570,-329,322,146,-404
0,6235437,198,-1876,-378,-1033,-570,-329,322,146,-404
0,6235444,198,-1876,-378,-1033,-570,-329,322,146,-404
0,6235452,201,-1875,-383,-1021,-567,-319,322,146,-404
0,6235459,201,-1875,-383,-1021,-567,-319,322,146,-404
0,6235467,201,-1875,-383,-1021,-567,-319,322,146,-404
0,6235474,200,-1874,-384,-1024,-570,-324,322,146,-404
0,6235481,200,-1874,-384,-1024,-570,-324,322,146,-404
0,6235489,202,-1874,-388,-1022,-571,-328,322,146,-404
0,6235495,202,-1874,-388,-1022,-571,-328,322,146,-404
0,6235502,202,-1874,-388,-1022,-571,-328,322,146,-404
0,6235511,200,-1878,-385,-1025,-568,-325,322,146,-404
0,6235518,200,-1878,-385,-1025,-568,-325,322,146,-404
0,6235525,200,-1878,-385,-1025,-568,-325,322,146,-404
0,6235533,199,-1879,-384,-1035,-562,-322,322,146,-404
0,6235540,199,-1879,-384,-1035,-562,-322,322,146,-404
0,6235547,199,-1879,-384,-1035,-562,-322,322,146,-404
0,6235555,198,-1875,-386,-1028,-564,-323,322,146,-404
0,6235561,198,-1875,-386,-1028,-564,-323,322,146,-404
0,6235569,197,-1878,-381,-1026,-568,-331,314,146,-396
0,6235575,197,-1878,-381,-1026,-568,-331,314,146,-396
0,6235580,197,-1878,-381,-1026,-568,-331,314,146,-396
0,6235585,197,-1878,-381,-1026,-568,-331,314,146,-396
0,6235590,198,-1875,-385,-1022,-562,-331,314,146,-396
0,6235595,198,-1875,-385,-1022,-562,-331,314,146,-396
0,6235600,198,-1875,-385,-1022,-562,-331,314,146,-396
0,6235607,198,-1875,-385,-1022,-562,-331,314,146,-396
0,6235614,201,-1875,-388,-1019,-568,-328,314,146,-396
0,6235619,201,-1875,-388,-1019,-568,-328,314,146,-396
0,6235627,201,-1875,-388,-1019,-568,-328,314,146,-396
0,6235634,200,-1875,-389,-1025,-567,-328,314,146,-396
0,6235641,200,-1875,-389,-1025,-567,-328,314,146,-396
0,6235649,198,-1878,-382,-1024,-565,-326,314,146,-396
0,6235655,198,-1878,-382,-1024,-565,-326,314,146,-396
0,6235662,198,-1878,-382,-1024,-565,-326,314,146,-396
0,6235670,198,-1874,-386,-1018,-566,-322,314,146,-396
0,6235678,198,-1874,-386,-1018,-566,-322,314,146,-396
0,6235685,198,-1874,-386,-1018,-566,-322,314,146,-396
0,6235693,199,-1876,-384,-1026,-567,-321,304,152,-406
0,6235700,199,-1876,-384,-1026,-567,-321,304,152,-406
0,6235707,199,-1876,-384,-1026,-567,-321,304,152,-406
0,6235714,197,-1877,-381,-1024,-562,-322,304,152,-406
0,6235721,197,-1877,-381,-1024,-562,-322,304,152,-406
0,6235728,203,-1874,-384,-1029,-564,-322,304,152,-406
0,6235737,203,-1874,-384,-1029,-564,-322,304,152,-406
0,6235745,203,-1874,-384,-1029,-564,-322,304,152,-406
0,6235752,201,-1877,-384,-1023,-563,-320,304,152,-406
0,6235759,201,-1877,-384,-1023,-563,-320,304,152,-406
0,6235765,201,-1877,-384,-1023,-563,-320,304,152,-406
0,6235774,199,-1876,-385,-1026,-559,-324,304,152,-406
0,6235781,199,-1876,-385,-1026,-559,-324,304,152,-406
0,6235787,199,-1876,-385,-1026,-559,-324,304,152,-406
0,6235795,201,-1875,-387,-1031,-565,-333,304,152,-406
0,6235802,201,-1875,-387,-1031,-565,-333,304,152,-406
0,6235809,204,-1873,-390,-1030,-562,-335,315,139,-401
0,6235819,204,-1873,-390,-1030,-562,-335,315,139,-401
0,6235826,204,-1873,-390,-1030,-562,-335,315,139,-401
0,6235834,200,-1876,-387,-1029,-563,-319,315,139,-401
0,6235840,200,-1876,-387,-1029,-563,-319,315,139,-401
0,6235847,200,-1876,-387,-1029,-563,-319,315,139,-401
0,6235855,199,-1875,-382,-1036,-569,-323,315,139,-401
0,6235862,199,-1875,-382,-1036,-569,-323,315,139,-401
0,6235868,199,-1875,-382,-1036,-569,-323,315,139,-401
0,6235873,199,-1875,-379,-1031,-562,-325,315,139,-401
0,6235881,199,-1875,-379,-1031,-562,-325,315,139,-401
0,6235889,198,-1873,-380,-1022,-568,-330,315,139,-401
0,6235896,198,-1873,-380,-1022,-568,-330,315,139,-401
0,6235905,198,-1873,-380,-1022,-568,-330,315,139,-401
0,6235914,199,-1875,-387,-1025,-563,-320,315,139,-401
0,6235925,199,-1875,-387,-1025,-563,-320,315,139,-401
0,6235937,200,-1874,-383,-1024,-560,-324,315,139,-401
0,6235951,200,-1875,-381,-1028,-563,-322,311,149,-407
0,6235964,200,-1875,-381,-1028,-563,-322,311,149,-407
0,6235975,200,-1875,-381,-1020,-567,-326,311,149,-407
0,6235986,200,-1875,-381,-1020,-567,-326,311,149,-407
0,6236002,196,-1871,-381,-1030,-562,-324,311,149,-407
0,6236015,198,-1875,-385,-1028,-556,-322,311,149,-407
0,6236025,198,-1875,-385,-1028,-556,-322,311,149,-407
0,6236039,197,-1873,-379,-1027,-561,-329,311,149,-407
0,6236054,198,-1873,-388,-1023,-569,-329,311,149,-407
0,6236068,198,-1873,-388,-1023,-569,-329,311,149,-407
0,6236077,197,-1874,-382,-1024,-563,-319,313,151,-409
0,6236090,200,-1874,-384,-1022,-564,-321,313,151,-409
0,6236104,200,-1874,-384,-1022,-564,-321,313,151,-409
0,6236118,197,-1874,-381,-1021,-562,-323,313,151,-409
0,6236126,197,-1874,-381,-1021,-562,-323,313,151,-409
0,6236137,199,-1876,-385,-1031,-565,-324,313,151,-409
0,6236145,199,-1876,-385,-1031,-565,-324,313,151,-409
0,6236153,201,-1877,-384,-1031,-567,-322,313,151,-409
0,6236162,201,-1877,-384,-1031,-567,-322,313,151,-409
0,6236170,199,-1876,-383,-1028,-569,-325,313,151,-409
0,6236179,199,-1876,-383,-1028,-569,-325,313,151,-409
0,6236187,199,-1876,-383,-1028,-569,-325,313,151,-409
0,6236194,198,-1877,-385,-1027,-563,-317,313,151,-409
0,6236203,198,-1877,-385,-1027,-563,-317,313,151,-409
0,6236211,201,-1874,-382,-1021,-565,-317,315,149,-407
0,6236219,201,-1874,-382,-1021,-565,-317,315,149,-407
0,6236227,201,-1874,-382,-1021,-565,-317,315,149,-407
0,6236235,200,-1875,-383,-1026,-560,-326,315,149,-407
0,6236243,200,-1875,-383,-1026,-560,-326,315,149,-407
0,6236253,199,-1875,-381,-1024,-567,-314,315,149,-407
0,6236261,199,-1875,-381,-1024,-567,-314,315,149,-407
0,6236268,199,-1875,-381,-1024,-567,-314,315,149,-407
0,6236277,199,-1875,-380,-1020,-567,-319,315,149,-407
0,6236290,201,-1875,-377,-1032,-562,-330,315,149,-407
0,6236304,201,-1875,-377,-1032,-562,-330,315,149,-407
0,6236318,201,-1875,-381,-1027,-561,-326,315,149,-407
0,6236327,201,-1875,-381,-1027,-561,-326,315,149,-407
0,6236340,201,-1877,-382,-1031,-565,-334,306,146,-412
0,6236352,204,-1874,-383,-1031,-578,-331,306,146,-412
0,6236364,204,-1874,-383,-1031,-578,-331,306,146,-412
0,6236377,199,-1874,-389,-1030,-569,-325,306,146,-412
0,6236392,198,-1873,-381,-1020,-568,-319,306,146,-412
0,6236404,198,-1873,-381,-1020,-568,-319,306,146,-412
0,6236418,198,-1875,-383,-1015,-568,-317,306,146,-412
0,6236431,199,-1873,-383,-1022,-571,-325,306,146,-412
0,6236444,199,-1873,-383,-1022,-571,-325,306,146,-412
0,6236455,196,-1875,-384,-1023,-559,-321,306,146,-412
0,6236470,199,-1877,-381,-1022,-558,-330,324,138,-406
0,6236482,199,-1877,-381,-1022,-558,-330,324,138,-406
0,6236494,200,-1874,-382,-1024,-562,-325,324,138,-406
0,6236509,200,-1874,-382,-1024,-562,-325,324,138,-406
0,6236522,201,-1875,-389,-1028,-562,-322,324,138,-406
0,6236535,201,-1876,-384,-1032,-570,-322,324,138,-406
0,6236546,201,-1876,-384,-1032,-570,-322,324,138,-406
0,6236559,201,-1875,-388,-1030,-568,-317,324,138,-406
0,6236574,199,-1875,-385,-1028,-567,-327,324,138,-406
0,6236582,199,-1875,-385,-1028,-567,-327,324,138,-406
0,6236591,202,-1875,-381,-1030,-571,-326,314,146,-408
0,6236598,202,-1875,-381,-1030,-571,-326,314,146,-408
0,6236607,202,-1875,-381,-1030,-571,-326,314,146,-408
0,6236616,203,-1877,-380,-1031,-567,-322,314,146,-408
0,6236626,203,-1877,-380,-1031,-567,-322,314,146,-408
0,6236642,202,-1874,-380,-1023,-562,-319,314,146,-408
0,6236657,196,-1874,-386,-1024,-565,-324,314,146,-408
0,6236668,196,-1874,-386,-1024,-565,-324,314,146,-408
0,6236682,198,-1875,-381,-1028,-567,-322,314,146,-408
0,6236695,200,-1875,-381,-1031,-570,-324,314,146,-408
0,6236709,200,-1875,-381,-1031,-570,-324,314,146,-408
0,6236722,199,-1875,-383,-1027,-569,-327,308,138,-404
0,6236733,200,-1875,-376,-1028,-568,-325,308,138,-404
0,6236746,200,-1875,-376,-1028,-568,-325,308,138,-404
0,6236760,203,-1875,-381,-1028,-568,-325,308,138,-404
0,6236772,198,-1881,-384,-1029,-573,-321,308,138,-404
0,6236780,198,-1881,-384,-1029,-573,-321,308,138,-404
0,6236789,198,-1881,-384,-1029,-573,-321,308,138,-404
0,6236797,199,-1876,-385,-1032,-571,-324,308,138,-404
0,6236811,199,-1870,-388,-1028,-577,-322,308,138,-404
0,6236823,199,-1870,-388,-1028,-577,-322,308,138,-404
0,6236832,199,-1874,-381,-1021,-564,-322,308,138,-404
0,6236844,199,-1874,-381,-1021,-564,-322,308,138,-404
0,6236857,199,-1876,-378,-1033,-567,-339,312,142,-402
0,6236866,199,-1876,-378,-1033,-567,-339,312,142,-402
0,6236874,199,-1876,-384,-1029,-565,-326,312,142,-402
0,6236882,199,-1876,-384,-1029,-565,-326,312,142,-402
0,6236891,197,-1875,-382,-1031,-559,-324,312,142,-402
0,6236903,197,-1875,-382,-1031,-559,-324,312,142,-402
0,6236915,201,-1873,-386,-1030,-566,-318,312,142,-402
0,6236922,201,-1873,-386,-1030,-566,-318,312,142,-402
0,6236929,201,-1873,-386,-1030,-566,-318,312,142,-402
0,6236937,200,-1875,-384,-1021,-567,-328,312,142,-402
0,6236944,200,-1875,-384,-1021,-567,-328,312,142,-402
0,6236952,199,-1872,-387,-1014,-560,-323,312,142,-402
0,6236959,199,-1872,-387,-1014,-560,-323,312,142,-402
0,6236966,199,-1872,-387,-1014,-560,-323,312,142,-402
0,6236973,200,-1873,-381,-1019,-567,-320,320,144,-402
0,6236978,200,-1873,-381,-1019,-567,-320,320,144,-402
0,6236987,200,-1873,-381,-1019,-567,-320,320,144,-402
0,6236994,201,-1874,-383,-1021,-569,-324,320,144,-402
0,6237001,201,-1874,-383,-1021,-569,-324,320,144,-402
0,6237008,201,-1874,-383,-1021,-569,-324,320,144,-402
0,6237015,197,-1875,-380,-1025,-562,-327,320,144,-402
0,6237022,197,-1875,-380,-1025,-562,-327,320,144,-402
0,6237028,197,-1875,-380,-1025,-562,-327,320,144,-402
0,6237036,197,-1875,-382,-1020,-570,-331,320,144,-402
0,6237044,197,-1875,-382,-1020,-570,-331,320,144,-402
0,6237051,197,-1875,-383,-1020,-566,-322,320,144,-402
0,6237059,197,-1875,-383,-1020,-566,-322,320,144,-402
0,6237064,197,-1875,-383,-1020,-566,-322,320,144,-402
0,6237071,201,-1875,-380,-1026,-571,-314,320,144,-402
0,6237079,201,-1875,-380,-1026,-571,-314,320,144,-402
0,6237086,201,-1875,-380,-1026,-571,-314,320,144,-402
0,6237094,201,-1873,-390,-1018,-565,-321,320,144,-402
0,6237102,201,-1873,-390,-1018,-565,-321,320,144,-402
0,6237109,201,-1873,-390,-1018,-565,-321,320,144,-402
0,6237115,199,-1875,-385,-1029,-570,-329,306,150,-402
0,6237120,199,-1875,-385,-1029,-570,-329,306,150,-402
0,6237127,199,-1875,-385,-1029,-570,-329,306,150,-402
0,6237132,199,-1875,-382,-1027,-565,-323,306,150,-402
0,6237138,199,-1875,-382,-1027,-565,-323,306,150,-402
0,6237144,199,-1875,-382,-1027,-565,-323,306,150,-402
0,6237149,199,-1875,-382,-1027,-565,-323,306,150,-402
0,6237155,199,-1875,-385,-1029,-564,-327,306,150,-402
0,6237160,199,-1875,-385,-1029,-564,-327,306,150,-402
0,6237165,199,-1875,-385,-1029,-564,-327,306,150,-402
0,6237170,197,-1874,-387,-1023,-561,-322,306,150,-402
0,6237176,197,-1874,-387,-1023,-561,-322,306,150,-402
0,6237184,197,-1874,-387,-1023,-561,-322,306,150,-402
0,6237191,200,-1874,-392,-1021,-564,-323,306,150,-402
0,6237197,200,-1874,-392,-1021,-564,-323,306,150,-402
0,6237205,200,-1874,-392,-1021,-564,-323,306,150,-402
0,6237212,200,-1872,-384,-1025,-564,-322,306,150,-402
0,6237219,200,-1872,-384,-1025,-564,-322,306,150,-402
0,6237227,200,-1872,-384,-1025,-564,-322,306,150,-402
0,6237232,200,-1874,-386,-1025,-566,-320,314,150,-402
0,6237239,200,-1874,-386,-1025,-566,-320,314,150,-402
0,6237246,200,-1874,-386,-1025,-566,-320,314,150,-402
0,6237254,199,-1874,-382,-1025,-565,-322,314,150,-402
0,6237261,199,-1874,-382,-1025,-565,-322,314,150,-402
0,6237267,199,-1874,-382,-1025,-565,-322,314,150,-402
0,6237275,201,-1875,-378,-1025,-565,-320,314,150,-402
0,6237281,201,-1875,-378,-1025,-565,-320,314,150,-402
0,6237288,201,-1875,-378,-1025,-565,-320,314,150,-402
0,6237296,199,-1878,-382,-1030,-559,-316,314,150,-402
0,6237304,199,-1878,-382,-1030,-559,-316,314,150,-402
0,6237312,198,-1872,-383,-1032,-564,-321,314,150,-402
0,6237319,198,-1872,-383,-1032,-564,-321,314,150,-402
0,6237326,198,-1872,-383,-1032,-564,-321,314,150,-402
0,6237333,201,-1877,-383,-1031,-564,-319,314,150,-402
0,6237341,201,-1877,-383,-1031,-564,-319,314,150,-402
0,6237347,201,-1877,-383,-1031,-564,-319,314,150,-402
0,6237356,198,-1874,-385,-1020,-566,-320,306,150,-408
0,6237363,198,-1874,-385,-1020,-566,-320,306,150,-408
0,6237369,198,-1874,-385,-1020,-566,-320,306,150,-408
0,6237375,198,-1874,-385,-1020,-566,-320,306,150,-408
0,6237380,198,-1874,-385,-1020,-566,-320,306,150,-408
0,6237387,198,-1874,-385,-1020,-566,-320,306,150,-408
0,6237394,198,-1874,-382,-1027,-566,-326,306,150,-408
0,6237401,198,-1874,-382,-1027,-566,-326,306,150,-408
0,6237408,198,-1874,-382,-1027,-566,-326,306,150,-408
0,6237414,198,-1875,-382,-1019,-565,-330,306,150,-408
0,6237422,198,-1875,-382,-1019,-565,-330,306,150,-408
0,6237430,198,-1875,-382,-1019,-565,-330,306,150,-408
0,6237438,199,-1877,-386,-1024,-570,-327,306,150,-408
0,6237446,199,-1877,-386,-1024,-570,-327,306,150,-408
0,6237453,197,-1876,-386,-1028,-568,-324,306,150,-408
0,6237458,197,-1876,-386,-1028,-568,-324,306,150,-408
0,6237465,197,-1876,-386,-1028,-568,-324,306,150,-408
0,6237472,197,-1875,-384,-1027,-565,-319,306,150,-408
0,6237480,197,-1875,-384,-1027,-565,-319,306,150,-408
0,6237488,197,-1875,-384,-1027,-565,-319,306,150,-408
0,6237495,200,-1874,-386,-1028,-571,-321,308,148,-406
0,6237501,200,-1874,-386,-1028,-571,-321,308,148,-406
