imu,time,ax,ay,az,gx,gy,gz,mx,my,mz
1,9071425,437,-1322,-954,-1492,-313,-46,419,39,-125
1,9071429,437,-1322,-954,-1492,-313,-46,419,39,-125
1,9071434,437,-1322,-954,-1492,-313,-46,419,39,-125
1,9071439,439,-1319,-936,-1500,-317,-49,417,51,-113
1,9071444,439,-1319,-936,-1500,-317,-49,417,51,-113
1,9071450,439,-1319,-936,-1500,-317,-49,417,51,-113
1,9071455,439,-1319,-936,-1500,-317,-49,417,51,-113
1,9071461,436,-1326,-931,-1498,-316,-43,417,51,-113
1,9071466,436,-1326,-931,-1498,-316,-43,417,51,-113
1,9071471,436,-1326,-931,-1498,-316,-43,417,51,-113
1,9071476,436,-1326,-931,-1498,-316,-43,417,51,-113
1,9071480,439,-1318,-938,-1493,-319,-40,417,51,-113
1,9071486,439,-1318,-938,-1493,-319,-40,417,51,-113
1,9071492,439,-1318,-938,-1493,-319,-40,417,51,-113
1,9071497,445,-1316,-944,-1490,-316,-38,417,51,-113
1,9071503,445,-1316,-944,-1490,-316,-38,417,51,-113
1,9071509,445,-1316,-944,-1490,-316,-38,417,51,-113
1,9071514,445,-1316,-944,-1490,-316,-38,417,51,-113
1,9071520,442,-1320,-942,-1490,-307,-44,417,51,-113
1,9071527,442,-1320,-942,-1490,-307,-44,417,51,-113
1,9071536,442,-1320,-942,-1490,-307,-44,417,51,-113
1,9071542,443,-1326,-937,-1485,-303,-37,417,51,-113
1,9071550,443,-1326,-937,-1485,-303,-37,417,51,-113
1,9071557,436,-1321,-930,-1491,-307,-42,420,40,-118
1,9071564,436,-1321,-930,-1491,-307,-42,420,40,-118
1,9071571,436,-1321,-930,-1491,-307,-42,420,40,-118
1,9071579,440,-1324,-931,-1493,-313,-37,420,40,-118
1,9071586,440,-1324,-931,-1493,-313,-37,420,40,-118
1,9071592,440,-1324,-931,-1493,-313,-37,420,40,-118
1,9071597,441,-1322,-936,-1489,-308,-43,420,40,-118
1,9071604,441,-1322,-936,-1489,-308,-43,420,40,-118
1,9071611,441,-1322,-936,-1489,-308,-43,420,40,-118
1,9071619,438,-1318,-935,-1496,-305,-41,420,40,-118
1,9071625,438,-1318,-935,-1496,-305,-41,420,40,-118
1,9071633,438,-1318,-935,-1496,-305,-41,420,40,-118
1,9071640,442,-1322,-933,-1494,-305,-47,420,40,-118
1,9071646,442,-1322,-933,-1494,-305,-47,420,40,-118
1,9071654,442,-1322,-933,-1494,-305,-47,420,40,-118
1,9071661,441,-1325,-934,-1492,-306,-38,420,40,-118
1,9071668,441,-1325,-934,-1492,-306,-38,420,40,-118
1,9071674,441,-1325,-934,-1492,-306,-38,420,40,-118
1,9071681,441,-1320,-936,-1494,-307,-46,423,51,-121
1,9071689,441,-1320,-936,-1494,-307,-46,423,51,-121
1,9071695,441,-1320,-936,-1494,-307,-46,423,51,-121
1,9071703,440,-1321,-938,-1494,-298,-43,423,51,-121
1,9071710,440,-1321,-938,-1494,-298,-43,423,51,-121
1,9071716,440,-1321,-938,-1494,-298,-43,423,51,-121
1,9071720,439,-1323,-932,-1498,-302,-46,423,51,-121
1,9071726,439,-1323,-932,-1498,-302,-46,423,51,-121
1,9071733,439,-1323,-932,-1498,-302,-46,423,51,-121
1,9071741,442,-1320,-931,-1494,-307,-40,423,51,-121
1,9071749,442,-1320,-931,-1494,-307,-40,423,51,-121
1,9071757,439,-1322,-937,-1496,-304,-39,423,51,-121
1,9071765,439,-1322,-937,-1496,-304,-39,423,51,-121
1,9071773,439,-1322,-937,-1496,-304,-39,423,51,-121
1,9071781,441,-1319,-942,-1491,-302,-43,423,51,-121
1,9071791,441,-1319,-942,-1491,-302,-43,423,51,-121
1,9071802,437,-1322,-939,-1489,-303,-43,423,51,-121
1,9071809,437,-1322,-939,-1489,-303,-43,423,51,-121
1,9071818,442,-1323,-930,-1489,-301,-40,425,49,-119
1,9071825,442,-1323,-930,-1489,-301,-40,425,49,-119
1,9071837,442,-1323,-930,-1489,-301,-40,425,49,-119
1,9071844,440,-1318,-932,-1500,-300,-39,425,49,-119
1,9071854,440,-1318,-932,-1500,-300,-39,425,49,-119
1,9071865,442,-1322,-935,-1498,-300,-43,425,49,-119
1,9071874,442,-1322,-935,-1498,-300,-43,425,49,-119
1,9071887,442,-1324,-922,-1493,-297,-35,425,49,-119
1,9071899,440,-1332,-887,-1492,-297,-37,425,49,-119
1,9071909,440,-1332,-887,-1492,-297,-37,425,49,-119
1,9071922,445,-1317,-950,-1489,-304,-47,425,49,-119
1,9071931,445,-1317,-950,-1489,-304,-47,425,49,-119
1,9071943,441,-1326,-906,-1495,-298,-42,426,40,-124
1,9071956,441,-1326,-906,-1495,-298,-42,426,40,-124
1,9071969,437,-1322,-930,-1491,-291,-41,426,40,-124
1,9071978,443,-1334,-880,-1488,-295,-42,426,40,-124
1,9071990,443,-1334,-880,-1488,-295,-42,426,40,-124
1,9072002,438,-1325,-912,-1494,-304,-48,426,40,-124
1,9072013,438,-1325,-912,-1494,-304,-48,426,40,-124
1,9072026,444,-1325,-913,-1496,-301,-46,426,40,-124
1,9072039,440,-1323,-907,-1485,-301,-49,426,40,-124
1,9072049,440,-1323,-907,-1485,-301,-49,426,40,-124
1,9072062,445,-1330,-889,-1487,-303,-44,428,46,-110
1,9072075,445,-1330,-889,-1487,-303,-44,428,46,-110
1,9072088,442,-1325,-902,-1490,-300,-43,428,46,-110
1,9072096,442,-1325,-902,-1490,-300,-43,428,46,-110
1,9072104,444,-1328,-913,-1488,-300,-44,428,46,-110
1,9072113,444,-1328,-913,-1488,-300,-44,428,46,-110
1,9072121,444,-1327,-924,-1485,-304,-41,428,46,-110
1,9072130,444,-1327,-924,-1485,-304,-41,428,46,-110
1,9072138,440,-1328,-895,-1488,-307,-43,428,46,-110
1,9072146,440,-1328,-895,-1488,-307,-43,428,46,-110
1,9072154,440,-1328,-895,-1488,-307,-43,428,46,-110
1,9072162,439,-1328,-919,-1495,-304,-41,428,46,-110
1,9072171,439,-1328,-919,-1495,-304,-41,428,46,-110
1,9072179,439,-1321,-933,-1497,-306,-40,429,45,-119
1,9072186,439,-1321,-933,-1497,-306,-40,429,45,-119
1,9072195,439,-1321,-933,-1497,-306,-40,429,45,-119
1,9072203,442,-1322,-930,-1498,-306,-45,429,45,-119
1,9072211,442,-1322,-930,-1498,-306,-45,429,45,-119
1,9072221,442,-1322,-930,-1498,-306,-45,429,45,-119
1,9072230,442,-1322,-930,-1498,-306,-45,429,45,-119
1,9072240,439,-1322,-928,-1497,-304,-39,429,45,-119
1,9072250,439,-1322,-928,-1497,-304,-39,429,45,-119
1,9072264,443,-1319,-944,-1495,-301,-38,429,45,-119
1,9072277,439,-1322,-942,-1490,-302,-30,429,45,-119
1,9072290,439,-1322,-942,-1490,-302,-30,429,45,-119
1,9072303,442,-1327,-922,-1492,-306,-35,429,45,-119
1,9072314,442,-1327,-922,-1492,-306,-35,429,45,-119
1,9072326,438,-1324,-923,-1494,-301,-42,422,44,-114
1,9072340,442,-1323,-929,-1494,-302,-38,422,44,-114
1,9072353,442,-1323,-929,-1494,-302,-38,422,44,-114
1,9072361,440,-1324,-919,-1491,-304,-44,422,44,-114
1,9072369,440,-1324,-919,-1491,-304,-44,422,44,-114
1,9072378,447,-1329,-900,-1486,-305,-41,422,44,-114
1,9072386,447,-1329,-900,-1486,-305,-41,422,44,-114
1,9072395,447,-1329,-900,-1486,-305,-41,422,44,-114
1,9072406,437,-1328,-902,-1492,-303,-37,422,44,-114
1,9072418,441,-1330,-914,-1489,-305,-40,422,44,-114
1,9072427,441,-1330,-914,-1489,-305,-40,422,44,-114
1,9072438,440,-1329,-899,-1490,-299,-43,420,46,-120
1,9072450,440,-1329,-899,-1490,-299,-43,420,46,-120
1,9072461,442,-1331,-896,-1490,-300,-36,420,46,-120
1,9072472,442,-1331,-896,-1490,-300,-36,420,46,-120
1,9072481,446,-1324,-896,-1492,-298,-40,420,46,-120
1,9072489,446,-1324,-896,-1492,-298,-40,420,46,-120
1,9072498,441,-1326,-913,-1492,-310,-51,420,46,-120
1,9072509,441,-1326,-913,-1492,-310,-51,420,46,-120
1,9072522,444,-1324,-909,-1495,-304,-45,420,46,-120
1,9072533,444,-1324,-909,-1495,-304,-45,420,46,-120
1,9072545,438,-1325,-913,-1498,-301,-44,420,46,-120
1,9072560,435,-1324,-923,-1494,-310,-48,420,48,-126
1,9072572,435,-1324,-923,-1494,-310,-48,420,48,-126
1,9072585,443,-1326,-928,-1490,-310,-43,420,48,-126
1,9072599,437,-1320,-934,-1496,-301,-40,420,48,-126
1,9072612,437,-1320,-934,-1496,-301,-40,420,48,-126
1,9072625,443,-1321,-927,-1496,-299,-34,420,48,-126
1,9072638,444,-1322,-937,-1493,-299,-41,420,48,-126
1,9072652,444,-1322,-937,-1493,-299,-41,420,48,-126
1,9072664,446,-1322,-941,-1496,-302,-39,420,48,-126
1,9072677,444,-1325,-937,-1488,-309,-42,424,42,-124
1,9072690,444,-1325,-937,-1488,-309,-42,424,42,-124
1,9072703,443,-1327,-917,-1490,-301,-41,424,42,-124
1,9072717,440,-1330,-921,-1490,-304,-49,424,42,-124
1,9072729,440,-1330,-921,-1490,-304,-49,424,42,-124
1,9072741,441,-1327,-923,-1493,-301,-42,424,42,-124
1,9072751,441,-1327,-923,-1493,-301,-42,424,42,-124
1,9072759,445,-1326,-917,-1489,-306,-45,424,42,-124
1,9072768,445,-1326,-917,-1489,-306,-45,424,42,-124
1,9072775,445,-1326,-917,-1489,-306,-45,424,42,-124
1,9072787,439,-1329,-911,-1490,-305,-44,424,42,-124
1,9072799,442,-1324,-903,-1493,-301,-42,424,42,-124
1,9072813,442,-1324,-903,-1493,-301,-42,424,42,-124
1,9072825,444,-1327,-909,-1492,-301,-45,431,41,-119
1,9072836,444,-1327,-909,-1492,-301,-45,431,41,-119
1,9072848,441,-1331,-900,-1494,-297,-44,431,41,-119
1,9072861,444,-1330,-900,-1488,-299,-48,431,41,-119
1,9072875,444,-1330,-900,-1488,-299,-48,431,41,-119
1,9072889,438,-1327,-905,-1486,-301,-46,431,41,-119
1,9072899,446,-1325,-911,-1491,-305,-43,431,41,-119
1,9072911,446,-1325,-911,-1491,-305,-43,431,41,-119
1,9072923,440,-1323,-917,-1485,-300,-44,431,41,-119
1,9072936,440,-1323,-917,-1485,-300,-44,431,41,-119
1,9072949,446,-1324,-911,-1495,-300,-46,425,47,-119
1,9072962,443,-1324,-920,-1491,-304,-43,425,47,-119
1,9072974,443,-1324,-920,-1491,-304,-43,425,47,-119
1,9072987,437,-1322,-928,-1493,-308,-40,425,47,-119
1,9073001,438,-1323,-929,-1489,-307,-38,425,47,-119
1,9073013,438,-1323,-929,-1489,-307,-38,425,47,-119
1,9073027,439,-1326,-933,-1489,-300,-35,425,47,-119
1,9073040,446,-1324,-931,-1485,-300,-39,425,47,-119
1,9073053,446,-1324,-931,-1485,-300,-39,425,47,-119
1,9073064,444,-1320,-932,-1486,-300,-49,425,39,-111
1,9073078,445,-1325,-933,-1502,-300,-44,425,39,-111
1,9073090,445,-1325,-933,-1502,-300,-44,425,39,-111
1,9073098,444,-1324,-931,-1492,-297,-41,425,39,-111
1,9073106,444,-1324,-931,-1492,-297,-41,425,39,-111
1,9073115,444,-1324,-931,-1492,-297,-41,425,39,-111
1,9073122,441,-1327,-924,-1492,-299,-38,425,39,-111
1,9073128,441,-1327,-924,-1492,-299,-38,425,39,-111
1,9073134,441,-1327,-924,-1492,-299,-38,425,39,-111
1,9073141,445,-1323,-921,-1492,-300,-42,425,39,-111
1,9073147,445,-1323,-921,-1492,-300,-42,425,39,-111
1,9073154,445,-1323,-921,-1492,-300,-42,425,39,-111
1,9073159,441,-1327,-909,-1492,-305,-41,425,39,-111
1,9073170,441,-1327,-909,-1492,-305,-41,425,39,-111
1,9073176,441,-1327,-909,-1492,-305,-41,425,39,-111
1,9073182,444,-1326,-907,-1495,-299,-40,416,38,-120
1,9073188,444,-1326,-907,-1495,-299,-40,416,38,-120
1,9073198,442,-1327,-904,-1499,-299,-45,416,38,-120
1,9073206,442,-1327,-904,-1499,-299,-45,416,38,-120
1,9073214,442,-1327,-904,-1499,-299,-45,416,38,-120
1,9073225,443,-1328,-903,-1495,-307,-45,416,38,-120
1,9073234,443,-1328,-903,-1495,-307,-45,416,38,-120
1,9073245,445,-1327,-904,-1495,-309,-40,416,38,-120
1,9073257,441,-1330,-905,-1490,-304,-38,416,38,-120
1,9073264,441,-1330,-905,-1490,-304,-38,416,38,-120
1,9073275,441,-1330,-905,-1490,-304,-38,416,38,-120
1,9073285,442,-1328,-906,-1491,-304,-42,416,38,-120
1,9073295,442,-1328,-906,-1491,-304,-42,416,38,-120
1,9073303,439,-1326,-909,-1486,-306,-39,410,42,-122
1,9073313,439,-1326,-909,-1486,-306,-39,410,42,-122
1,9073325,444,-1324,-911,-1484,-305,-44,410,42,-122
1,9073334,444,-1324,-911,-1484,-305,-44,410,42,-122
1,9073344,443,-1324,-916,-1491,-306,-40,410,42,-122
1,9073352,443,-1324,-916,-1491,-306,-40,410,42,-122
1,9073363,446,-1325,-925,-1486,-302,-47,410,42,-122
1,9073372,446,-1325,-925,-1486,-302,-47,410,42,-122
1,9073379,443,-1322,-929,-1490,-301,-35,410,42,-122
1,9073389,443,-1322,-929,-1490,-301,-35,410,42,-122
1,9073400,439,-1322,-931,-1496,-299,-38,410,42,-122
1,9073412,439,-1322,-931,-1496,-299,-38,410,42,-122
1,9073419,441,-1326,-931,-1491,-300,-38,410,42,-122
1,9073431,441,-1326,-931,-1491,-300,-38,410,42,-122
1,9073438,439,-1322,-929,-1493,-313,-36,429,43,-119
1,9073449,439,-1322,-929,-1493,-313,-36,429,43,-119
1,9073461,443,-1322,-930,-1487,-294,-40,429,43,-119
1,9073468,443,-1322,-930,-1487,-294,-40,429,43,-119
1,9073479,444,-1326,-929,-1490,-303,-42,429,43,-119
1,9073486,444,-1326,-929,-1490,-303,-42,429,43,-119
1,9073498,443,-1326,-926,-1496,-298,-37,429,43,-119
1,9073507,443,-1326,-926,-1496,-298,-37,429,43,-119
1,9073520,446,-1326,-923,-1496,-303,-40,429,43,-119
1,9073531,446,-1326,-923,-1496,-303,-40,429,43,-119
1,9073542,440,-1327,-917,-1491,-306,-40,429,43,-119
1,9073551,440,-1327,-917,-1491,-306,-40,429,43,-119
1,9073561,442,-1324,-909,-1487,-302,-43,420,44,-116
1,9073567,442,-1324,-909,-1487,-302,-43,420,44,-116
1,9073579,436,-1328,-908,-1486,-304,-43,420,44,-116
1,9073587,436,-1328,-908,-1486,-304,-43,420,44,-116
1,9073598,443,-1329,-909,-1486,-300,-39,420,44,-116
1,9073607,443,-1329,-909,-1486,-300,-39,420,44,-116
1,9073617,443,-1325,-903,-1489,-297,-46,420,44,-116
1,9073630,443,-1325,-903,-1489,-297,-46,420,44,-116
1,9073637,444,-1325,-903,-1495,-303,-40,420,44,-116
1,9073648,444,-1325,-903,-1495,-303,-40,420,44,-116
1,9073658,444,-1325,-903,-1488,-302,-41,420,44,-116
1,9073670,444,-1325,-903,-1488,-302,-41,420,44,-116
1,9073680,438,-1325,-902,-1489,-304,-45,423,43,-119
1,9073691,438,-1325,-902,-1489,-304,-45,423,43,-119
1,9073700,443,-1324,-912,-1493,-304,-51,423,43,-119
1,9073712,443,-1324,-912,-1493,-304,-51,423,43,-119
1,9073722,437,-1324,-910,-1487,-307,-38,423,43,-119
1,9073732,437,-1324,-910,-1487,-307,-38,423,43,-119
1,9073744,444,-1322,-919,-1487,-302,-43,423,43,-119
1,9073754,444,-1322,-919,-1487,-302,-43,423,43,-119
1,9073761,441,-1322,-922,-1485,-296,-40,423,43,-119
1,9073769,441,-1322,-922,-1485,-296,-40,423,43,-119
1,9073776,441,-1322,-922,-1485,-296,-40,423,43,-119
1,9073787,444,-1323,-931,-1492,-303,-39,423,43,-119
1,9073801,449,-1325,-931,-1493,-301,-32,429,47,-125
1,9073809,449,-1325,-931,-1493,-301,-32,429,47,-125
1,9073818,439,-1326,-925,-1488,-304,-41,429,47,-125
1,9073823,439,-1326,-925,-1488,-304,-41,429,47,-125
1,9073831,439,-1326,-925,-1488,-304,-41,429,47,-125
1,9073840,443,-1323,-936,-1489,-304,-35,429,47,-125
1,9073851,443,-1323,-936,-1489,-304,-35,429,47,-125
1,9073866,437,-1326,-936,-1488,-306,-34,429,47,-125
1,9073875,437,-1326,-936,-1488,-306,-34,429,47,-125
1,9073886,442,-1325,-928,-1492,-304,-42,429,47,-125
1,9073899,442,-1324,-923,-1501,-300,-37,429,47,-125
1,9073912,442,-1324,-923,-1501,-300,-37,429,47,-125
1,9073926,445,-1327,-920,-1497,-301,-41,429,47,-125
1,9073935,445,-1327,-920,-1497,-301,-41,429,47,-125
1,9073947,448,-1324,-917,-1496,-301,-42,423,45,-121
1,9073960,439,-1325,-913,-1494,-303,-32,423,45,-121
1,9073972,439,-1325,-913,-1494,-303,-32,423,45,-121
1,9073985,442,-1326,-907,-1494,-307,-36,423,45,-121
1,9073997,438,-1329,-902,-1491,-301,-40,423,45,-121
1,9074011,438,-1329,-902,-1491,-301,-40,423,45,-121
1,9074020,442,-1329,-905,-1488,-302,-41,423,45,-121
1,9074032,442,-1329,-905,-1488,-302,-41,423,45,-121
1,9074041,443,-1325,-904,-1494,-301,-36,423,45,-121
1,9074054,443,-1325,-904,-1494,-301,-36,423,45,-121
1,9074067,442,-1326,-905,-1492,-300,-41,426,46,-118
1,9074081,446,-1322,-907,-1488,-307,-43,426,46,-118
1,9074091,446,-1322,-907,-1488,-307,-43,426,46,-118
1,9074099,442,-1325,-914,-1488,-312,-44,426,46,-118
1,9074107,442,-1325,-914,-1488,-312,-44,426,46,-118
1,9074115,442,-1325,-914,-1488,-312,-44,426,46,-118
1,9074123,442,-1323,-911,-1491,-309,-43,426,46,-118
1,9074129,442,-1323,-911,-1491,-309,-43,426,46,-118
1,9074138,442,-1325,-916,-1491,-309,-47,426,46,-118
1,9074145,442,-1325,-916,-1491,-309,-47,426,46,-118
1,9074154,442,-1325,-916,-1491,-309,-47,426,46,-118
1,9074162,441,-1325,-922,-1492,-308,-39,426,46,-118
1,9074170,441,-1325,-922,-1492,-308,-39,426,46,-118
1,9074178,445,-1322,-922,-1489,-307,-39,421,45,-113
1,9074186,445,-1322,-922,-1489,-307,-39,421,45,-113
1,9074195,445,-1322,-922,-1489,-307,-39,421,45,-113
1,9074206,439,-1325,-929,-1491,-303,-31,421,45,-113
1,9074214,439,-1325,-929,-1491,-303,-31,421,45,-113
1,9074224,445,-1324,-930,-1489,-307,-39,421,45,-113
1,9074233,445,-1324,-930,-1489,-307,-39,421,45,-113
1,9074246,439,-1322,-932,-1489,-300,-41,421,45,-113
1,9074255,439,-1322,-932,-1489,-300,-41,421,45,-113
1,9074268,445,-1322,-931,-1488,-304,-33,421,45,-113
1,9074280,438,-1325,-928,-1485,-300,-36,421,45,-113
1,9074293,438,-1325,-928,-1485,-300,-36,421,45,-113
1,9074302,439,-1325,-924,-1482,-300,-36,414,50,-112
1,9074318,441,-1326,-916,-1488,-304,-36,414,50,-112
1,9074330,441,-1326,-916,-1488,-304,-36,414,50,-112
1,9074343,443,-1327,-915,-1501,-308,-40,414,50,-112
1,9074357,443,-1327,-915,-1501,-308,-40,414,50,-112
1,9074370,444,-1324,-908,-1493,-301,-37,414,50,-112
1,9074381,442,-1324,-910,-1487,-297,-38,414,50,-112
1,9074395,442,-1324,-910,-1487,-297,-38,414,50,-112
1,9074407,441,-1326,-910,-1494,-303,-39,414,50,-112
1,9074420,440,-1328,-904,-1495,-306,-41,414,50,-112
1,9074433,440,-1328,-904,-1495,-306,-41,414,50,-112
1,9074441,439,-1325,-904,-1493,-303,-45,424,48,-114
1,9074449,439,-1325,-904,-1493,-303,-45,424,48,-114
1,9074457,439,-1325,-904,-1493,-303,-45,424,48,-114
1,9074466,445,-1327,-907,-1495,-301,-40,424,48,-114
1,9074476,445,-1327,-907,-1495,-301,-40,424,48,-114
1,9074487,441,-1325,-910,-1495,-303,-39,424,48,-114
1,9074499,445,-1325,-913,-1491,-302,-42,424,48,-114
1,9074512,445,-1325,-913,-1491,-302,-42,424,48,-114
1,9074527,445,-1325,-913,-1491,-302,-42,424,48,-114
1,9074537,445,-1325,-913,-1491,-302,-42,424,48,-114
1,9074549,442,-1323,-925,-1483,-305,-43,424,48,-114
1,9074558,438,-1323,-924,-1479,-310,-43,422,46,-128
1,9074572,438,-1323,-924,-1479,-310,-43,422,46,-128
1,9074586,442,-1325,-925,-1488,-307,-38,422,46,-128
1,9074597,444,-1321,-929,-1498,-302,-34,422,46,-128
1,9074610,444,-1321,-929,-1498,-302,-34,422,46,-128
1,9074622,444,-1324,-929,-1491,-307,-34,422,46,-128
1,9074635,444,-1324,-929,-1491,-307,-34,422,46,-128
1,9074648,445,-1324,-933,-1488,-304,-40,422,46,-128
1,9074660,443,-1325,-933,-1495,-305,-41,422,46,-128
1,9074673,443,-1325,-933,-1495,-305,-41,422,46,-128
1,9074686,443,-1324,-918,-1489,-301,-45,424,44,-122
1,9074699,441,-1331,-918,-1500,-294,-39,424,44,-122
1,9074707,441,-1331,-918,-1500,-294,-39,424,44,-122
1,9074720,439,-1324,-924,-1494,-307,-41,424,44,-122
1,9074734,439,-1324,-924,-1494,-307,-41,424,44,-122
1,9074745,446,-1324,-913,-1494,-311,-45,424,44,-122
1,9074754,446,-1324,-913,-1494,-311,-45,424,44,-122
1,9074762,436,-1328,-909,-1490,-309,-47,424,44,-122
1,9074770,436,-1328,-909,-1490,-309,-47,424,44,-122
1,9074779,446,-1328,-904,-1498,-307,-45,424,44,-122
1,9074789,446,-1328,-904,-1498,-307,-45,424,44,-122
1,9074803,440,-1325,-907,-1492,-307,-46,422,42,-122
1,9074816,440,-1325,-907,-1492,-307,-46,422,42,-122
1,9074829,441,-1327,-906,-1487,-302,-37,422,42,-122
1,9074842,443,-1324,-906,-1484,-301,-38,422,42,-122
1,9074854,443,-1324,-906,-1484,-301,-38,422,42,-122
1,9074868,440,-1323,-908,-1488,-300,-46,422,42,-122
1,9074880,444,-1325,-915,-1497,-306,-45,422,42,-122
1,9074892,444,-1325,-915,-1497,-306,-45,422,42,-122
1,9074906,443,-1326,-914,-1499,-311,-49,422,42,-122
1,9074918,444,-1325,-918,-1493,-305,-42,419,41,-115
1,9074928,444,-1325,-918,-1493,-305,-42,419,41,-115
1,9074938,442,-1325,-921,-1496,-303,-48,419,41,-115
1,9074952,442,-1325,-921,-1496,-303,-48,419,41,-115
1,9074967,440,-1323,-923,-1490,-300,-47,419,41,-115
1,9074975,440,-1323,-923,-1490,-300,-47,419,41,-115
1,9074989,439,-1323,-926,-1487,-302,-38,419,41,-115
1,9075002,437,-1322,-932,-1495,-300,-45,419,41,-115
1,9075015,437,-1322,-932,-1495,-300,-45,419,41,-115
1,9075028,442,-1323,-928,-1488,-300,-42,419,41,-115
1,9075042,446,-1326,-932,-1490,-302,-46,419,41,-115
1,9075054,446,-1326,-932,-1490,-302,-46,419,41,-115
1,9075068,444,-1325,-928,-1491,-309,-46,425,45,-119
1,9075081,442,-1321,-927,-1493,-310,-48,425,45,-119
1,9075092,442,-1321,-927,-1493,-310,-48,425,45,-119
1,9075100,442,-1326,-924,-1492,-303,-40,425,45,-119
1,9075108,442,-1326,-924,-1492,-303,-40,425,45,-119
1,9075117,442,-1326,-924,-1492,-303,-40,425,45,-119
1,9075126,443,-1325,-922,-1484,-297,-48,425,45,-119
1,9075134,443,-1325,-922,-1484,-297,-48,425,45,-119
1,9075141,436,-1326,-916,-1487,-303,-42,425,45,-119
1,9075147,436,-1326,-916,-1487,-303,-42,425,45,-119
1,9075153,436,-1326,-916,-1487,-303,-42,425,45,-119
1,9075160,443,-1326,-910,-1496,-304,-47,425,45,-119
1,9075170,443,-1326,-910,-1496,-304,-47,425,45,-119
1,9075178,443,-1326,-910,-1496,-304,-47,425,45,-119
1,9075189,438,-1329,-907,-1498,-305,-45,422,42,-124
1,9075200,442,-1328,-906,-1496,-305,-48,422,42,-124
1,9075208,442,-1328,-906,-1496,-305,-48,422,42,-124
1,9075219,446,-1327,-912,-1488,-302,-40,422,42,-124
1,9075228,446,-1327,-912,-1488,-302,-40,422,42,-124
1,9075241,440,-1326,-907,-1492,-307,-43,422,42,-124
1,9075253,440,-1326,-907,-1492,-307,-43,422,42,-124
1,9075261,440,-1325,-907,-1492,-310,-51,422,42,-124
1,9075273,440,-1325,-907,-1492,-310,-51,422,42,-124
1,9075284,440,-1325,-914,-1487,-308,-47,422,42,-124
1,9075294,440,-1325,-914,-1487,-308,-47,422,42,-124
1,9075302,442,-1324,-915,-1486,-306,-38,420,50,-122
1,9075309,442,-1324,-915,-1486,-306,-38,420,50,-122
1,9075317,442,-1324,-915,-1486,-306,-38,420,50,-122
1,9075329,442,-1321,-923,-1490,-297,-38,420,50,-122
1,9075342,443,-1322,-922,-1491,-301,-39,420,50,-122
1,9075357,443,-1322,-922,-1491,-301,-39,420,50,-122
1,9075366,441,-1323,-922,-1494,-304,-43,420,50,-122
1,9075378,439,-1324,-927,-1492,-307,-40,420,50,-122
1,9075392,439,-1324,-927,-1492,-307,-40,420,50,-122
1,9075402,442,-1320,-931,-1490,-314,-42,420,50,-122
1,9075410,442,-1320,-931,-1490,-314,-42,420,50,-122
1,9075424,445,-1323,-928,-1486,-314,-39,424,48,-118
1,9075437,445,-1323,-928,-1486,-314,-39,424,48,-118
1,9075449,447,-1322,-923,-1492,-306,-42,424,48,-118
1,9075461,444,-1326,-929,-1498,-300,-41,424,48,-118
1,9075474,444,-1326,-929,-1498,-300,-41,424,48,-118
1,9075483,443,-1327,-924,-1490,-301,-39,424,48,-118
1,9075496,443,-1327,-924,-1490,-301,-39,424,48,-118
1,9075509,445,-1327,-923,-1485,-299,-38,424,48,-118
1,9075523,439,-1326,-920,-1489,-300,-41,424,48,-118
1,9075532,439,-1326,-920,-1489,-300,-41,424,48,-118
1,9075545,441,-1328,-911,-1495,-303,-43,424,48,-118
1,9075558,439,-1326,-910,-1487,-306,-42,423,49,-125
1,9075571,439,-1326,-910,-1487,-306,-42,423,49,-125
1,9075580,444,-1325,-911,-1499,-305,-44,423,49,-125
1,9075593,444,-1325,-911,-1499,-305,-44,423,49,-125
1,9075606,447,-1326,-907,-1492,-313,-42,423,49,-125
1,9075615,447,-1326,-907,-1492,-313,-42,423,49,-125
1,9075628,445,-1325,-909,-1494,-307,-44,423,49,-125
1,9075634,445,-1325,-909,-1494,-307,-44,423,49,-125
1,9075642,445,-1325,-909,-1494,-307,-44,423,49,-125
1,9075654,445,-1325,-909,-1494,-307,-44,423,49,-125
1,9075667,437,-1325,-912,-1488,-301,-47,423,49,-125
1,9075679,440,-1324,-906,-1492,-304,-41,423,39,-121
1,9075691,440,-1324,-906,-1492,-304,-41,423,39,-121
1,9075700,437,-1324,-915,-1492,-303,-40,423,39,-121
1,9075714,437,-1324,-915,-1492,-303,-40,423,39,-121
1,9075727,443,-1324,-921,-1494,-302,-42,423,39,-121
1,9075741,443,-1323,-919,-1485,-307,-34,423,39,-121
1,9075750,443,-1323,-919,-1485,-307,-34,423,39,-121
1,9075759,443,-1324,-924,-1487,-310,-41,423,39,-121
1,9075766,443,-1324,-924,-1487,-310,-41,423,39,-121
1,9075774,443,-1324,-924,-1487,-310,-41,423,39,-121
1,9075782,446,-1322,-928,-1488,-308,-43,423,39,-121
1,9075791,446,-1322,-928,-1488,-308,-43,423,39,-121
1,9075799,441,-1324,-926,-1488,-302,-41,427,43,-127
1,9075809,441,-1324,-926,-1488,-302,-41,427,43,-127
1,9075817,441,-1324,-926,-1488,-302,-41,427,43,-127
1,9075826,444,-1325,-926,-1493,-299,-45,427,43,-127
1,9075835,444,-1325,-926,-1493,-299,-45,427,43,-127
1,9075845,440,-1325,-932,-1489,-310,-40,427,43,-127
1,9075850,440,-1325,-932,-1489,-310,-40,427,43,-127
1,9075856,440,-1325,-932,-1489,-310,-40,427,43,-127
1,9075862,442,-1323,-923,-1485,-303,-41,427,43,-127
1,9075869,442,-1323,-923,-1485,-303,-41,427,43,-127
1,9075877,442,-1323,-923,-1485,-303,-41,427,43,-127
1,9075887,442,-1326,-922,-1488,-299,-39,427,43,-127
1,9075895,442,-1326,-922,-1488,-299,-39,427,43,-127
1,9075904,439,-1326,-918,-1488,-297,-39,427,43,-127
1,9075912,439,-1326,-918,-1488,-297,-39,427,43,-127
1,9075921,444,-1324,-914,-1490,-300,-35,424,50,-116
1,9075931,444,-1324,-914,-1490,-300,-35,424,50,-116
1,9075941,443,-1325,-915,-1486,-298,-39,424,50,-116
1,9075948,443,-1325,-915,-1486,-298,-39,424,50,-116
1,9075958,443,-1327,-905,-1487,-303,-45,424,50,-116
1,9075965,443,-1327,-905,-1487,-303,-45,424,50,-116
1,9075974,443,-1327,-905,-1487,-303,-45,424,50,-116
1,9075983,440,-1325,-908,-1495,-300,-37,424,50,-116
1,9075992,440,-1325,-908,-1495,-300,-37,424,50,-116
1,9075998,443,-1324,-910,-1490,-297,-41,424,50,-116
1,9076007,443,-1324,-910,-1490,-297,-41,424,50,-116
1,9076014,443,-1324,-910,-1490,-297,-41,424,50,-116
1,9076024,445,-1325,-907,-1489,-296,-38,424,50,-116
1,9076030,445,-1325,-907,-1489,-296,-38,424,50,-116
1,9076039,442,-1328,-914,-1493,-303,-41,424,50,-116
1,9076047,442,-1328,-914,-1493,-303,-41,424,50,-116
1,9076057,442,-1328,-914,-1493,-303,-41,424,50,-116
1,9076063,446,-1326,-910,-1497,-309,-34,427,43,-119
1,9076072,446,-1326,-910,-1497,-309,-34,427,43,-119
1,9076082,439,-1325,-915,-1502,-303,-37,427,43,-119
1,9076091,439,-1325,-915,-1502,-303,-37,427,43,-119
1,9076098,439,-1325,-915,-1502,-303,-37,427,43,-119
1,9076103,442,-1321,-916,-1485,-300,-45,427,43,-119
1,9076109,442,-1321,-916,-1485,-300,-45,427,43,-119
1,9076115,442,-1321,-916,-1485,-300,-45,427,43,-119
1,9076120,439,-1322,-915,-1488,-304,-38,427,43,-119
1,9076126,439,-1322,-915,-1488,-304,-38,427,43,-119
1,9076131,439,-1322,-915,-1488,-304,-38,427,43,-119
1,9076137,439,-1322,-915,-1488,-304,-38,427,43,-119
1,9076144,440,-1325,-918,-1492,-304,-43,427,43,-119
1,9076151,440,-1325,-918,-1492,-304,-43,427,43,-119
1,9076162,443,-1321,-925,-1491,-302,-43,427,43,-119
1,9076174,443,-1321,-925,-1491,-302,-43,427,43,-119
1,9076188,443,-1323,-924,-1499,-302,-43,431,39,-115
1,9076201,445,-1322,-929,-1492,-293,-46,431,39,-115
1,9076213,445,-1322,-929,-1492,-293,-46,431,39,-115
1,9076226,441,-1322,-926,-1494,-292,-47,431,39,-115
1,9076238,442,-1325,-922,-1488,-299,-41,431,39,-115
1,9076251,442,-1325,-922,-1488,-299,-41,431,39,-115
1,9076263,437,-1327,-923,-1487,-301,-32,431,39,-115
1,9076276,437,-1327,-923,-1487,-301,-32,431,39,-115
1,9076289,440,-1323,-922,-1492,-298,-34,431,39,-115
1,9076302,442,-1324,-916,-1488,-298,-38,427,41,-117
1,9076316,442,-1324,-916,-1488,-298,-38,427,41,-117
1,9076329,441,-1324,-910,-1490,-300,-41,427,41,-117
1,9076341,445,-1325,-917,-1486,-295,-37,427,41,-117
1,9076354,445,-1325,-917,-1486,-295,-37,427,41,-117
1,9076364,443,-1327,-910,-1488,-298,-36,427,41,-117
1,9076378,443,-1327,-910,-1488,-298,-36,427,41,-117
1,9076390,442,-1327,-909,-1494,-295,-33,427,41,-117
1,9076400,446,-1325,-908,-1484,-292,-38,427,41,-117
1,9076408,446,-1325,-908,-1484,-292,-38,427,41,-117
1,9076416,446,-1325,-908,-1484,-292,-38,427,41,-117
1,9076424,439,-1327,-909,-1486,-298,-38,420,48,-122
1,9076433,439,-1327,-909,-1486,-298,-38,420,48,-122
1,9076446,442,-1327,-908,-1493,-307,-38,420,48,-122
1,9076460,439,-1325,-910,-1491,-301,-42,420,48,-122
1,9076473,439,-1325,-910,-1491,-301,-42,420,48,-122
1,9076484,443,-1325,-915,-1495,-308,-43,420,48,-122
1,9076495,443,-1325,-915,-1495,-308,-43,420,48,-122
1,9076510,444,-1323,-914,-1490,-307,-44,420,48,-122
1,9076521,441,-1324,-918,-1493,-302,-52,420,48,-122
1,9076534,441,-1324,-918,-1493,-302,-52,420,48,-122
1,9076547,441,-1319,-921,-1489,-304,-39,424,48,-120
1,9076560,439,-1323,-918,-1488,-314,-42,424,48,-120
1,9076573,439,-1323,-918,-1488,-314,-42,424,48,-120
1,9076583,443,-1321,-923,-1488,-308,-31,424,48,-120
1,9076595,443,-1321,-923,-1488,-308,-31,424,48,-120
1,9076608,441,-1325,-921,-1496,-305,-44,424,48,-120
1,9076621,445,-1325,-926,-1496,-295,-40,424,48,-120
1,9076632,445,-1325,-926,-1496,-295,-40,424,48,-120
1,9076646,444,-1326,-927,-1492,-297,-48,424,48,-120
1,9076657,444,-1326,-927,-1492,-297,-48,424,48,-120
1,9076669,439,-1325,-923,-1492,-305,-50,424,48,-120
1,9076681,440,-1322,-919,-1487,-303,-43,423,43,-121
1,9076696,440,-1322,-919,-1487,-303,-43,423,43,-121
1,9076706,439,-1324,-916,-1495,-301,-47,423,43,-121
1,9076718,441,-1328,-916,-1490,-302,-49,423,43,-121
1,9076731,441,-1328,-916,-1490,-302,-49,423,43,-121
1,9076746,444,-1325,-913,-1490,-302,-44,423,43,-121
1,9076754,444,-1325,-913,-1490,-302,-44,423,43,-121
1,9076762,442,-1329,-914,-1484,-302,-38,423,43,-121
1,9076769,442,-1329,-914,-1484,-302,-38,423,43,-121
1,9076777,442,-1329,-914,-1484,-302,-38,423,43,-121
1,9076792,448,-1327,-906,-1484,-306,-38,423,43,-121
1,9076801,440,-1330,-907,-1494,-302,-38,422,48,-120
1,9076813,440,-1330,-907,-1494,-302,-38,422,48,-120
1,9076825,442,-1327,-910,-1491,-303,-36,422,48,-120
1,9076837,442,-1327,-910,-1491,-303,-36,422,48,-120
1,9076849,440,-1327,-909,-1492,-309,-39,422,48,-120
1,9076862,441,-1325,-908,-1485,-308,-46,422,48,-120
1,9076873,441,-1325,-908,-1485,-308,-46,422,48,-120
1,9076885,442,-1325,-914,-1496,-301,-46,422,48,-120
1,9076899,445,-1321,-917,-1495,-303,-41,422,48,-120
1,9076914,445,-1321,-917,-1495,-303,-41,422,48,-120
1,9076926,447,-1323,-917,-1491,-306,-44,424,40,-118
1,9076938,446,-1321,-917,-1490,-302,-38,424,40,-118
1,9076952,446,-1321,-917,-1490,-302,-38,424,40,-118
1,9076966,444,-1322,-922,-1496,-303,-44,424,40,-118
1,9076978,444,-1322,-922,-1496,-303,-44,424,40,-118
1,9076990,440,-1324,-924,-1482,-304,-41,424,40,-118
1,9077003,441,-1324,-930,-1494,-306,-29,424,40,-118
1,9077016,441,-1324,-930,-1494,-306,-29,424,40,-118
1,9077029,442,-1323,-926,-1495,-310,-36,424,40,-118
1,9077038,442,-1323,-926,-1495,-310,-36,424,40,-118
1,9077050,437,-1322,-922,-1491,-304,-38,418,42,-114
1,9077063,443,-1325,-915,-1494,-306,-39,418,42,-114
1,9077076,443,-1325,-915,-1494,-306,-39,418,42,-114
1,9077086,443,-1325,-924,-1492,-300,-37,418,42,-114
1,9077097,443,-1325,-924,-1492,-300,-37,418,42,-114
1,9077105,446,-1326,-919,-1486,-300,-33,418,42,-114
1,9077113,446,-1326,-919,-1486,-300,-33,418,42,-114
1,9077122,445,-1329,-915,-1481,-305,-38,418,42,-114
1,9077130,445,-1329,-915,-1481,-305,-38,418,42,-114
1,9077138,445,-1329,-915,-1481,-305,-38,418,42,-114
1,9077146,442,-1328,-917,-1485,-298,-42,418,42,-114
1,9077154,442,-1328,-917,-1485,-298,-42,418,42,-114
1,9077163,444,-1324,-914,-1493,-303,-45,418,42,-114
1,9077171,444,-1324,-914,-1493,-303,-45,418,42,-114
1,9077179,439,-1326,-909,-1495,-301,-43,426,48,-114
1,9077188,439,-1326,-909,-1495,-301,-43,426,48,-114
1,9077202,441,-1328,-911,-1495,-302,-39,426,48,-114
1,9077215,441,-1328,-911,-1495,-302,-39,426,48,-114
1,9077224,441,-1328,-911,-1495,-302,-39,426,48,-114
1,9077236,441,-1328,-911,-1495,-302,-39,426,48,-114
1,9077249,441,-1327,-916,-1491,-298,-47,426,48,-114
1,9077262,444,-1326,-917,-1492,-302,-42,426,48,-114
1,9077270,444,-1326,-917,-1492,-302,-42,426,48,-114
1,9077282,438,-1322,-915,-1487,-303,-45,426,48,-114
1,9077291,438,-1322,-915,-1487,-303,-45,426,48,-114
1,9077299,445,-1325,-915,-1491,-303,-44,420,44,-124
1,9077307,445,-1325,-915,-1491,-303,-44,420,44,-124
1,9077314,445,-1325,-915,-1491,-303,-44,420,44,-124
1,9077322,442,-1324,-918,-1494,-308,-41,420,44,-124
1,9077336,442,-1324,-918,-1494,-308,-41,420,44,-124
1,9077346,442,-1325,-927,-1486,-300,-42,420,44,-124
1,9077355,442,-1325,-927,-1486,-300,-42,420,44,-124
1,9077368,443,-1323,-925,-1486,-304,-47,420,44,-124
1,9077383,441,-1322,-929,-1491,-307,-41,420,44,-124
1,9077397,441,-1322,-929,-1491,-307,-41,420,44,-124
1,9077405,442,-1324,-922,-1490,-302,-44,420,44,-124
1,9077419,437,-1323,-921,-1491,-298,-42,423,43,-117
1,9077433,437,-1323,-921,-1491,-298,-42,423,43,-117
1,9077447,442,-1322,-920,-1482,-295,-41,423,43,-117
1,9077456,442,-1322,-920,-1482,-295,-41,423,43,-117
1,9077470,441,-1325,-917,-1485,-296,-41,423,43,-117
1,9077483,441,-1326,-920,-1491,-310,-43,423,43,-117
1,9077492,441,-1326,-920,-1491,-310,-43,423,43,-117
1,9077504,446,-1325,-920,-1488,-311,-38,423,43,-117
1,9077516,446,-1325,-920,-1488,-311,-38,423,43,-117
1,9077529,442,-1331,-914,-1489,-301,-45,423,43,-117
1,9077542,445,-1328,-908,-1481,-303,-41,433,49,-115
1,9077555,445,-1328,-908,-1481,-303,-41,433,49,-115
1,9077565,443,-1327,-907,-1491,-302,-41,433,49,-115
1,9077573,443,-1327,-907,-1491,-302,-41,433,49,-115
1,9077586,439,-1326,-914,-1498,-304,-44,433,49,-115
1,9077602,439,-1325,-911,-1492,-298,-39,433,49,-115
1,9077616,439,-1325,-911,-1492,-298,-39,433,49,-115
1,9077625,441,-1327,-908,-1490,-302,-43,433,49,-115
1,9077638,441,-1327,-908,-1490,-302,-43,433,49,-115
1,9077651,444,-1327,-918,-1492,-303,-45,433,49,-115
1,9077665,440,-1323,-917,-1497,-310,-46,433,49,-115
1,9077673,440,-1323,-917,-1497,-310,-46,433,49,-115
1,9077687,442,-1326,-914,-1484,-305,-44,424,42,-114
1,9077700,443,-1324,-915,-1494,-302,-42,424,42,-114
1,9077709,443,-1324,-915,-1494,-302,-42,424,42,-114
1,9077721,442,-1325,-919,-1498,-311,-48,424,42,-114
1,9077730,442,-1325,-919,-1498,-311,-48,424,42,-114
1,9077743,443,-1323,-920,-1495,-309,-48,424,42,-114
1,9077753,443,-1323,-920,-1495,-309,-48,424,42,-114
1,9077761,442,-1323,-923,-1493,-302,-40,424,42,-114
1,9077769,442,-1323,-923,-1493,-302,-40,424,42,-114
1,9077776,442,-1323,-923,-1493,-302,-40,424,42,-114
1,9077783,444,-1324,-925,-1496,-306,-37,424,42,-114
1,9077789,444,-1324,-925,-1496,-306,-37,424,42,-114
1,9077799,443,-1322,-920,-1490,-301,-35,420,44,-124
1,9077809,443,-1322,-920,-1490,-301,-35,420,44,-124
1,9077817,443,-1322,-920,-1490,-301,-35,420,44,-124
1,9077826,443,-1320,-923,-1495,-300,-39,420,44,-124
1,9077835,443,-1320,-923,-1495,-300,-39,420,44,-124
1,9077842,441,-1324,-921,-1488,-305,-46,420,44,-124
1,9077853,441,-1324,-921,-1488,-305,-46,420,44,-124
1,9077860,440,-1322,-921,-1490,-304,-37,420,44,-124
1,9077869,440,-1322,-921,-1490,-304,-37,420,44,-124
1,9077879,445,-1327,-919,-1484,-303,-41,420,44,-124
1,9077888,445,-1327,-919,-1484,-303,-41,420,44,-124
1,9077896,445,-1327,-919,-1484,-303,-41,420,44,-124
1,9077906,443,-1326,-915,-1492,-302,-36,420,44,-124
1,9077915,443,-1326,-915,-1492,-302,-36,420,44,-124
1,9077924,446,-1326,-913,-1492,-305,-42,426,40,-116
1,9077934,446,-1326,-913,-1492,-305,-42,426,40,-116
1,9077943,443,-1325,-908,-1484,-301,-41,426,40,-116
1,9077951,443,-1325,-908,-1484,-301,-41,426,40,-116
1,9077959,438,-1328,-913,-1484,-304,-40,426,40,-116
1,9077967,438,-1328,-913,-1484,-304,-40,426,40,-116
1,9077976,438,-1328,-913,-1484,-304,-40,426,40,-116
1,9077989,443,-1323,-910,-1484,-309,-44,426,40,-116
1,9077999,440,-1324,-911,-1493,-309,-39,426,40,-116
1,9078008,440,-1324,-911,-1493,-309,-39,426,40,-116
1,9078021,439,-1326,-913,-1491,-300,-47,426,40,-116
1,9078036,439,-1326,-913,-1491,-300,-47,426,40,-116
1,9078048,439,-1325,-911,-1490,-308,-37,428,36,-116
1,9078059,439,-1325,-911,-1490,-308,-37,428,36,-116
1,9078072,443,-1324,-910,-1489,-309,-43,428,36,-116
1,9078081,443,-1323,-921,-1497,-309,-38,428,36,-116
1,9078094,443,-1323,-921,-1497,-309,-38,428,36,-116
1,9078103,443,-1325,-919,-1492,-305,-32,428,36,-116
1,9078111,443,-1325,-919,-1492,-305,-32,428,36,-116
1,9078117,443,-1325,-919,-1492,-305,-32,428,36,-116
1,9078123,446,-1323,-923,-1492,-304,-37,428,36,-116
1,9078129,446,-1323,-923,-1492,-304,-37,428,36,-116
1,9078134,446,-1323,-923,-1492,-304,-37,428,36,-116
1,9078141,440,-1324,-928,-1492,-309,-45,428,36,-116
1,9078148,440,-1324,-928,-1492,-309,-45,428,36,-116
1,9078154,440,-1324,-928,-1492,-309,-45,428,36,-116
1,9078160,440,-1323,-922,-1488,-303,-40,425,47,-127
1,9078169,440,-1323,-922,-1488,-303,-40,425,47,-127
1,9078178,440,-1323,-922,-1488,-303,-40,425,47,-127
1,9078189,440,-1325,-924,-1491,-299,-42,425,47,-127
1,9078197,440,-1325,-924,-1491,-299,-42,425,47,-127
1,9078207,440,-1322,-924,-1493,-299,-44,425,47,-127
1,9078216,440,-1322,-924,-1493,-299,-44,425,47,-127
1,9078226,443,-1325,-924,-1489,-303,-40,425,47,-127
1,9078236,443,-1325,-924,-1489,-303,-40,425,47,-127
1,9078245,440,-1321,-924,-1495,-301,-46,425,47,-127
1,9078254,440,-1321,-924,-1495,-301,-46,425,47,-127
1,9078266,445,-1325,-919,-1492,-305,-43,425,47,-127
1,9078280,442,-1330,-922,-1490,-306,-39,425,47,-127
1,9078293,442,-1330,-922,-1490,-306,-39,425,47,-127
1,9078306,442,-1327,-912,-1492,-307,-42,422,38,-124
1,9078319,442,-1327,-912,-1492,-307,-42,422,38,-124
1,9078330,442,-1327,-912,-1492,-303,-44,422,38,-124
1,9078343,442,-1327,-910,-1493,-306,-44,422,38,-124
1,9078356,442,-1327,-910,-1493,-306,-44,422,38,-124
1,9078369,444,-1327,-914,-1496,-305,-45,422,38,-124
1,9078382,437,-1326,-908,-1494,-308,-40,422,38,-124
1,9078395,437,-1326,-908,-1494,-308,-40,422,38,-124
1,9078408,443,-1326,-913,-1487,-304,-43,422,38,-124
1,9078422,439,-1325,-912,-1494,-302,-41,419,37,-115
1,9078434,439,-1325,-912,-1494,-302,-41,419,37,-115
1,9078446,441,-1325,-919,-1493,-304,-40,419,37,-115
1,9078458,441,-1325,-919,-1493,-304,-40,419,37,-115
1,9078472,444,-1323,-915,-1497,-302,-47,419,37,-115
1,9078482,439,-1325,-922,-1489,-306,-44,419,37,-115
1,9078494,439,-1325,-922,-1489,-306,-44,419,37,-115
1,9078508,444,-1326,-925,-1497,-305,-43,419,37,-115
1,9078522,441,-1322,-922,-1498,-307,-48,419,37,-115
1,9078534,441,-1322,-922,-1498,-307,-48,419,37,-115
1,9078547,441,-1323,-921,-1491,-308,-46,418,42,-118
1,9078561,440,-1324,-923,-1490,-303,-40,418,42,-118
1,9078576,440,-1324,-923,-1490,-303,-40,418,42,-118
1,9078588,440,-1322,-918,-1491,-309,-46,418,42,-118
1,9078597,440,-1322,-918,-1491,-309,-46,418,42,-118
1,9078605,441,-1321,-921,-1489,-301,-44,418,42,-118
1,9078612,441,-1321,-921,-1489,-301,-44,418,42,-118
1,9078625,440,-1323,-925,-1481,-302,-38,418,42,-118
1,9078637,440,-1323,-925,-1481,-302,-38,418,42,-118
1,9078645,444,-1325,-922,-1489,-305,-40,418,42,-118
1,9078658,444,-1325,-922,-1489,-305,-40,418,42,-118
1,9078671,441,-1326,-920,-1492,-309,-36,426,40,-126
1,9078682,442,-1324,-914,-1483,-308,-41,426,40,-126
1,9078692,442,-1324,-914,-1483,-308,-41,426,40,-126
1,9078705,443,-1324,-913,-1488,-296,-41,426,40,-126
1,9078719,440,-1328,-910,-1493,-299,-42,426,40,-126
1,9078733,440,-1328,-910,-1493,-299,-42,426,40,-126
1,9078745,441,-1325,-912,-1490,-301,-37,426,40,-126
1,9078754,441,-1325,-912,-1490,-301,-37,426,40,-126
1,9078762,439,-1326,-910,-1492,-303,-40,426,40,-126
1,9078770,439,-1326,-910,-1492,-303,-40,426,40,-126
1,9078779,442,-1324,-913,-1485,-308,-46,426,40,-126
1,9078793,442,-1324,-913,-1485,-308,-46,426,40,-126
1,9078805,442,-1327,-907,-1487,-311,-42,429,43,-113
1,9078817,442,-1327,-907,-1487,-311,-42,429,43,-113
1,9078830,441,-1324,-919,-1480,-307,-37,429,43,-113
1,9078843,443,-1325,-911,-1484,-306,-39,429,43,-113
1,9078855,443,-1325,-911,-1484,-306,-39,429,43,-113
1,9078868,441,-1323,-916,-1489,-301,-42,429,43,-113
1,9078881,447,-1325,-923,-1493,-298,-43,429,43,-113
1,9078894,447,-1325,-923,-1493,-298,-43,429,43,-113
1,9078907,440,-1325,-919,-1493,-302,-40,429,43,-113
1,9078919,440,-1325,-919,-1493,-302,-40,429,43,-113
1,9078931,442,-1325,-918,-1496,-304,-51,417,49,-123
1,9078944,446,-1323,-924,-1488,-301,-48,417,49,-123
1,9078959,446,-1323,-924,-1488,-301,-48,417,49,-123
1,9078970,439,-1323,-923,-1487,-304,-42,417,49,-123
1,9078983,442,-1326,-925,-1483,-304,-40,417,49,-123
1,9078998,442,-1326,-925,-1483,-304,-40,417,49,-123
1,9079010,440,-1326,-925,-1485,-303,-39,417,49,-123
1,9079022,447,-1323,-919,-1490,-304,-46,417,49,-123
1,9079034,447,-1323,-919,-1490,-304,-46,417,49,-123
1,9079048,444,-1324,-918,-1481,-298,-45,425,47,-121
1,9079061,443,-1329,-913,-1490,-303,-34,425,47,-121
1,9079073,443,-1329,-913,-1490,-303,-34,425,47,-121
1,9079087,442,-1325,-913,-1496,-300,-39,425,47,-121
1,9079096,442,-1325,-913,-1496,-300,-39,425,47,-121
1,9079104,443,-1329,-916,-1502,-302,-36,425,47,-121
1,9079112,443,-1329,-916,-1502,-302,-36,425,47,-121
1,9079120,441,-1326,-911,-1503,-304,-38,425,47,-121
1,9079129,441,-1326,-911,-1503,-304,-38,425,47,-121
1,9079137,441,-1326,-911,-1503,-304,-38,425,47,-121
1,9079145,441,-1327,-911,-1489,-300,-41,425,47,-121
1,9079153,441,-1327,-911,-1489,-300,-41,425,47,-121
1,9079161,442,-1326,-910,-1492,-304,-37,415,37,-123
1,9079169,442,-1326,-910,-1492,-304,-37,415,37,-123
1,9079175,442,-1326,-910,-1492,-304,-37,415,37,-123
1,9079182,443,-1325,-911,-1492,-306,-46,415,37,-123
1,9079192,443,-1325,-911,-1492,-306,-46,415,37,-123
1,9079199,441,-1327,-915,-1490,-304,-41,415,37,-123
1,9079209,441,-1327,-915,-1490,-304,-41,415,37,-123
1,9079219,444,-1325,-913,-1497,-311,-44,415,37,-123
1,9079229,444,-1325,-913,-1497,-311,-44,415,37,-123
1,9079241,443,-1325,-921,-1493,-303,-44,415,37,-123
1,9079250,443,-1325,-921,-1493,-303,-44,415,37,-123
1,9079263,447,-1325,-922,-1491,-310,-46,415,37,-123
1,9079276,447,-1325,-922,-1491,-310,-46,415,37,-123
1,9079289,442,-1324,-920,-1501,-310,-39,415,37,-123
1,9079299,442,-1324,-920,-1501,-310,-39,415,37,-123
1,9079312,438,-1326,-920,-1496,-303,-40,427,47,-125
1,9079325,442,-1326,-921,-1490,-299,-44,427,47,-125
1,9079333,442,-1326,-921,-1490,-299,-44,427,47,-125
1,9079346,438,-1326,-918,-1488,-302,-40,427,47,-125
1,9079356,438,-1326,-918,-1488,-302,-40,427,47,-125
1,9079368,441,-1326,-927,-1487,-302,-42,427,47,-125
1,9079379,441,-1322,-925,-1492,-306,-43,427,47,-125
1,9079395,441,-1322,-925,-1492,-306,-43,427,47,-125
1,9079404,442,-1324,-924,-1494,-311,-35,427,47,-125
1,9079412,442,-1324,-924,-1494,-311,-35,427,47,-125
1,9079419,443,-1323,-918,-1489,-309,-47,424,48,-122
1,9079428,443,-1323,-918,-1489,-309,-47,424,48,-122
1,9079436,443,-1323,-918,-1489,-309,-47,424,48,-122
1,9079448,441,-1325,-914,-1490,-298,-35,424,48,-122
1,9079459,445,-1327,-918,-1485,-298,-40,424,48,-122
1,9079470,445,-1327,-918,-1485,-298,-40,424,48,-122
1,9079482,439,-1327,-915,-1488,-298,-42,424,48,-122
1,9079496,439,-1327,-915,-1488,-298,-42,424,48,-122
1,9079505,440,-1327,-917,-1493,-303,-42,424,48,-122
1,9079517,440,-1327,-917,-1493,-303,-42,424,48,-122
1,9079530,440,-1327,-917,-1493,-303,-42,424,48,-122
1,9079544,440,-1328,-908,-1495,-304,-38,432,36,-122
1,9079554,440,-1328,-908,-1495,-304,-38,432,36,-122
1,9079568,444,-1327,-910,-1490,-296,-40,432,36,-122
1,9079581,442,-1326,-915,-1491,-301,-33,432,36,-122
1,9079592,442,-1326,-915,-1491,-301,-33,432,36,-122
1,9079601,446,-1324,-917,-1496,-301,-41,432,36,-122
1,9079614,446,-1324,-917,-1496,-301,-41,432,36,-122
1,9079629,444,-1322,-919,-1499,-305,-42,432,36,-122
1,9079642,442,-1326,-917,-1486,-304,-38,432,36,-122
1,9079651,442,-1326,-917,-1486,-304,-38,432,36,-122
1,9079663,444,-1325,-918,-1487,-304,-46,418,50,-116
1,9079672,444,-1325,-918,-1487,-304,-46,418,50,-116
1,9079686,441,-1325,-919,-1488,-304,-45,418,50,-116
1,9079699,441,-1325,-919,-1488,-304,-45,418,50,-116
1,9079712,448,-1322,-921,-1492,-302,-32,418,50,-116
1,9079721,438,-1323,-925,-1497,-311,-35,418,50,-116
1,9079734,438,-1323,-925,-1497,-311,-35,418,50,-116
1,9079747,442,-1323,-922,-1486,-311,-33,418,50,-116
1,9079755,442,-1323,-922,-1486,-311,-33,418,50,-116
1,9079762,445,-1320,-926,-1487,-309,-36,418,50,-116
1,9079770,445,-1320,-926,-1487,-309,-36,418,50,-116
1,9079779,445,-1320,-926,-1487,-309,-36,418,50,-116
1,9079791,438,-1323,-920,-1494,-304,-43,423,45,-123
1,9079805,442,-1325,-925,-1496,-307,-35,423,45,-123
1,9079817,442,-1325,-925,-1496,-307,-35,423,45,-123
1,9079829,441,-1325,-917,-1488,-298,-38,423,45,-123
1,9079838,441,-1325,-917,-1488,-298,-38,423,45,-123
1,9079851,442,-1326,-918,-1492,-304,-43,423,45,-123
1,9079865,444,-1325,-923,-1494,-307,-35,423,45,-123
1,9079879,444,-1326,-914,-1497,-304,-38,423,45,-123
1,9079888,444,-1326,-914,-1497,-304,-38,423,45,-123
1,9079900,439,-1325,-913,-1491,-306,-43,423,45,-123
1,9079912,439,-1325,-913,-1491,-306,-43,423,45,-123
1,9079926,443,-1324,-908,-1491,-303,-45,428,48,-116
1,9079939,443,-1324,-908,-1491,-303,-45,428,48,-116
1,9079951,441,-1329,-916,-1493,-301,-38,428,48,-116
1,9079959,440,-1326,-919,-1493,-302,-41,428,48,-116
1,9079967,440,-1326,-919,-1493,-302,-41,428,48,-116
1,9079975,440,-1326,-919,-1493,-302,-41,428,48,-116
1,9079984,440,-1326,-919,-1493,-302,-41,428,48,-116
1,9079996,440,-1326,-919,-1493,-302,-41,428,48,-116
1,9080004,444,-1321,-917,-1488,-306,-43,428,48,-116
1,9080016,444,-1321,-917,-1488,-306,-43,428,48,-116
1,9080032,445,-1323,-917,-1498,-304,-44,428,48,-116
1,9080041,440,-1326,-914,-1500,-301,-44,423,35,-123
1,9080051,440,-1326,-914,-1500,-301,-44,423,35,-123
1,9080064,442,-1326,-925,-1494,-306,-37,423,35,-123
1,9080077,442,-1326,-925,-1494,-306,-37,423,35,-123
1,9080089,440,-1322,-920,-1487,-292,-51,423,35,-123
1,9080098,440,-1322,-920,-1487,-292,-51,423,35,-123
1,9080105,443,-1325,-923,-1492,-296,-39,423,35,-123
1,9080114,443,-1325,-923,-1492,-296,-39,423,35,-123
1,9080123,439,-1321,-921,-1492,-300,-37,423,35,-123
1,9080131,439,-1321,-921,-1492,-300,-37,423,35,-123
1,9080139,439,-1321,-921,-1492,-300,-37,423,35,-123
1,9080147,444,-1324,-922,-1494,-302,-44,423,35,-123
1,9080156,444,-1324,-922,-1494,-302,-44,423,35,-123
1,9080163,444,-1324,-923,-1499,-301,-43,420,40,-120
1,9080172,444,-1324,-923,-1499,-301,-43,420,40,-120
1,9080179,445,-1323,-914,-1495,-294,-44,420,40,-120
1,9080188,445,-1323,-914,-1495,-294,-44,420,40,-120
1,9080196,445,-1323,-914,-1495,-294,-44,420,40,-120
1,9080209,441,-1329,-909,-1499,-306,-48,420,40,-120
1,9080220,440,-1333,-906,-1531,-305,-47,420,40,-120
1,9080232,440,-1333,-906,-1531,-305,-47,420,40,-120
1,9080246,442,-1334,-901,-1574,-302,-44,420,40,-120
1,9080259,442,-1334,-901,-1574,-302,-44,420,40,-120
1,9080269,439,-1333,-909,-1613,-305,-40,420,40,-120
1,9080280,439,-1329,-909,-1634,-304,-39,418,46,-120
1,9080289,439,-1329,-909,-1634,-304,-39,418,46,-120
1,9080300,440,-1329,-904,-1649,-309,-48,418,46,-120
1,9080314,440,-1329,-904,-1649,-309,-48,418,46,-120
1,9080329,444,-1337,-905,-1675,-302,-44,418,46,-120
1,9080338,444,-1337,-905,-1675,-302,-44,418,46,-120
1,9080350,445,-1332,-911,-1727,-304,-45,418,46,-120
1,9080365,444,-1326,-913,-1770,-306,-44,418,46,-120
1,9080379,444,-1326,-913,-1770,-306,-44,418,46,-120
1,9080388,438,-1320,-933,-1777,-305,-37,418,46,-120
1,9080400,441,-1318,-929,-1770,-309,-38,418,46,-120
1,9080415,441,-1318,-929,-1770,-309,-38,418,46,-120
1,9080429,435,-1320,-926,-1766,-302,-42,406,50,-112
1,9080438,435,-1320,-926,-1766,-302,-42,406,50,-112
1,9080451,443,-1321,-940,-1748,-300,-51,406,50,-112
1,9080465,434,-1316,-932,-1740,-304,-54,406,50,-112
1,9080476,434,-1316,-932,-1740,-304,-54,406,50,-112
1,9080488,448,-1308,-970,-1711,-308,-52,406,50,-112
1,9080501,433,-1301,-984,-1639,-302,-44,406,50,-112
1,9080515,433,-1301,-984,-1639,-302,-44,406,50,-112
1,9080527,445,-1312,-943,-1587,-294,-41,406,50,-112
1,9080538,445,-1312,-943,-1587,-294,-41,406,50,-112
1,9080549,436,-1318,-937,-1557,-298,-30,415,45,-121
1,9080558,436,-1318,-937,-1557,-298,-30,415,45,-121
1,9080566,442,-1311,-958,-1528,-300,-38,415,45,-121
1,9080574,442,-1311,-958,-1528,-300,-38,415,45,-121
1,9080583,444,-1315,-958,-1505,-297,-39,415,45,-121
1,9080592,444,-1315,-958,-1505,-297,-39,415,45,-121
1,9080603,441,-1319,-928,-1486,-302,-33,415,45,-121
1,9080617,441,-1319,-928,-1486,-302,-33,415,45,-121
1,9080632,446,-1321,-935,-1471,-295,-33,415,45,-121
1,9080641,437,-1311,-948,-1452,-297,-32,415,45,-121
1,9080649,437,-1311,-948,-1452,-297,-32,415,45,-121
1,9080657,437,-1311,-948,-1452,-297,-32,415,45,-121
1,9080669,439,-1315,-950,-1409,-301,-35,416,44,-122
1,9080683,437,-1326,-932,-1385,-302,-39,416,44,-122
1,9080694,437,-1326,-932,-1385,-302,-39,416,44,-122
1,9080705,434,-1323,-926,-1365,-298,-39,416,44,-122
1,9080719,434,-1323,-926,-1365,-298,-39,416,44,-122
1,9080730,447,-1318,-940,-1353,-297,-41,416,44,-122
1,9080739,447,-1318,-940,-1353,-297,-41,416,44,-122
1,9080751,450,-1324,-927,-1362,-302,-41,416,44,-122
1,9080759,450,-1324,-927,-1362,-302,-41,416,44,-122
1,9080767,442,-1331,-909,-1382,-300,-47,416,44,-122
1,9080775,442,-1331,-909,-1382,-300,-47,416,44,-122
1,9080783,443,-1330,-908,-1407,-301,-44,413,41,-115
1,9080798,443,-1330,-908,-1407,-301,-44,413,41,-115
1,9080807,439,-1330,-904,-1441,-302,-47,413,41,-115
1,9080817,439,-1330,-904,-1441,-302,-47,413,41,-115
1,9080830,440,-1332,-926,-1495,-304,-48,413,41,-115
1,9080844,440,-1329,-911,-1554,-306,-46,413,41,-115
1,9080855,440,-1329,-911,-1554,-306,-46,413,41,-115
1,9080869,443,-1321,-930,-1585,-303,-44,413,41,-115
1,9080884,441,-1320,-951,-1575,-294,-46,413,41,-115
1,9080898,441,-1320,-951,-1575,-294,-46,413,41,-115
1,9080907,441,-1313,-945,-1572,-302,-40,413,41,-115
1,9080921,443,-1321,-921,-1560,-294,-42,413,41,-115
1,9080934,443,-1321,-921,-1560,-294,-42,413,41,-115
1,9080947,443,-1327,-921,-1581,-302,-32,413,41,-115
1,9080958,443,-1327,-921,-1581,-302,-32,413,41,-115
1,9080970,437,-1324,-935,-1609,-297,-39,413,41,-115
1,9080982,440,-1318,-956,-1625,-301,-37,413,41,-115
1,9080995,440,-1318,-956,-1625,-301,-37,413,41,-115
1,9081009,441,-1322,-932,-1626,-301,-41,413,41,-115
1,9081022,443,-1324,-934,-1614,-297,-43,413,41,-115
1,9081033,443,-1324,-934,-1614,-297,-43,413,41,-115
1,9081048,441,-1318,-938,-1608,-298,-41,396,42,-120
1,9081061,444,-1322,-935,-1600,-304,-44,396,42,-120
1,9081072,444,-1322,-935,-1600,-304,-44,396,42,-120
1,9081085,446,-1328,-930,-1607,-298,-38,396,42,-120
1,9081097,446,-1328,-930,-1607,-298,-38,396,42,-120
1,9081105,439,-1318,-931,-1617,-305,-37,396,42,-120
1,9081113,439,-1318,-931,-1617,-305,-37,396,42,-120
1,9081121,443,-1313,-954,-1596,-309,-37,396,42,-120
1,9081128,443,-1313,-954,-1596,-309,-37,396,42,-120
1,9081137,443,-1313,-954,-1596,-309,-37,396,42,-120
1,9081145,438,-1321,-946,-1573,-303,-36,396,42,-120
1,9081153,438,-1321,-946,-1573,-303,-36,396,42,-120
1,9081161,445,-1328,-918,-1577,-306,-38,412,42,-122
1,9081168,445,-1328,-918,-1577,-306,-38,412,42,-122
1,9081179,445,-1328,-918,-1577,-306,-38,412,42,-122
1,9081189,440,-1319,-934,-1582,-304,-41,412,42,-122
1,9081198,440,-1319,-934,-1582,-304,-41,412,42,-122
1,9081207,438,-1314,-951,-1574,-300,-38,412,42,-122
1,9081217,438,-1314,-951,-1574,-300,-38,412,42,-122
1,9081224,443,-1313,-961,-1537,-294,-38,412,42,-122
1,9081233,443,-1313,-961,-1537,-294,-38,412,42,-122
1,9081240,436,-1325,-933,-1530,-301,-37,412,42,-122
1,9081251,436,-1325,-933,-1530,-301,-37,412,42,-122
1,9081262,439,-1324,-939,-1541,-300,-38,412,42,-122
1,9081271,439,-1324,-939,-1541,-300,-38,412,42,-122
1,9081277,439,-1324,-939,-1541,-300,-38,412,42,-122
1,9081287,437,-1312,-945,-1557,-303,-38,413,41,-127
1,9081294,437,-1312,-945,-1557,-303,-38,413,41,-127
1,9081306,444,-1315,-953,-1553,-301,-37,413,41,-127
1,9081316,444,-1315,-953,-1553,-301,-37,413,41,-127
1,9081326,441,-1320,-948,-1552,-294,-35,413,41,-127
1,9081339,441,-1320,-948,-1552,-294,-35,413,41,-127
1,9081353,445,-1316,-939,-1545,-301,-43,413,41,-127
1,9081362,439,-1318,-958,-1536,-303,-41,413,41,-127
1,9081375,439,-1318,-958,-1536,-303,-41,413,41,-127
1,9081389,437,-1322,-946,-1538,-293,-39,413,41,-127
1,9081402,441,-1327,-933,-1549,-295,-37,404,46,-124
1,9081411,441,-1327,-933,-1549,-295,-37,404,46,-124
1,9081423,434,-1320,-935,-1562,-300,-36,404,46,-124
1,9081437,434,-1320,-935,-1562,-300,-36,404,46,-124
1,9081445,447,-1319,-949,-1560,-292,-42,404,46,-124
1,9081457,447,-1319,-949,-1560,-292,-42,404,46,-124
1,9081467,441,-1318,-952,-1556,-296,-31,404,46,-124
1,9081481,443,-1320,-936,-1545,-298,-37,404,46,-124
1,9081492,443,-1320,-936,-1545,-298,-37,404,46,-124
1,9081506,438,-1321,-935,-1532,-292,-44,404,46,-124
1,9081517,438,-1321,-935,-1532,-292,-44,404,46,-124
1,9081527,442,-1317,-948,-1522,-291,-48,404,46,-124
1,9081540,439,-1321,-940,-1533,-296,-42,404,46,-124
1,9081554,439,-1321,-940,-1533,-296,-42,405,43,-115
1,9081569,440,-1323,-934,-1544,-303,-42,405,43,-115
1,9081578,440,-1323,-934,-1544,-303,-42,405,43,-115
1,9081590,442,-1320,-942,-1550,-302,-36,405,43,-115
1,9081604,440,-1315,-958,-1554,-299,-38,405,43,-115
1,9081617,440,-1315,-958,-1554,-299,-38,405,43,-115
1,9081627,443,-1318,-962,-1548,-297,-36,405,43,-115
1,9081640,434,-1319,-940,-1539,-304,-38,405,43,-115
1,9081654,434,-1319,-940,-1539,-304,-38,405,43,-115
1,9081663,440,-1319,-937,-1540,-303,-45,402,40,-124
1,9081675,440,-1319,-937,-1540,-303,-45,402,40,-124
1,9081688,441,-1317,-960,-1544,-300,-35,402,40,-124
1,9081703,444,-1314,-953,-1553,-292,-34,402,40,-124
1,9081715,444,-1314,-953,-1553,-292,-34,402,40,-124
1,9081728,443,-1317,-949,-1556,-293,-42,402,40,-124
1,9081736,443,-1317,-949,-1556,-293,-42,402,40,-124
1,9081746,445,-1318,-953,-1558,-288,-38,402,40,-124
1,9081754,445,-1318,-953,-1558,-288,-38,402,40,-124
1,9081762,441,-1317,-954,-1549,-294,-30,402,40,-124
1,9081769,441,-1317,-954,-1549,-294,-30,402,40,-124
1,9081778,441,-1317,-954,-1549,-294,-30,402,40,-124
1,9081785,440,-1321,-945,-1550,-298,-41,409,45,-123
1,9081793,440,-1321,-945,-1550,-298,-41,409,45,-123
1,9081801,435,-1319,-944,-1551,-290,-42,409,45,-123
1,9081808,435,-1319,-944,-1551,-290,-42,409,45,-123
1,9081816,435,-1319,-944,-1551,-290,-42,409,45,-123
1,9081825,438,-1317,-948,-1553,-293,-47,409,45,-123
1,9081834,438,-1317,-948,-1553,-293,-47,409,45,-123
1,9081843,439,-1320,-952,-1547,-295,-43,409,45,-123
1,9081856,439,-1320,-952,-1547,-295,-43,409,45,-123
1,9081869,445,-1318,-946,-1549,-291,-32,409,45,-123
1,9081879,445,-1318,-946,-1549,-291,-32,409,45,-123
1,9081891,447,-1324,-941,-1561,-295,-36,409,45,-123
1,9081901,445,-1318,-939,-1569,-301,-38,401,43,-119
1,9081913,445,-1318,-939,-1569,-301,-38,401,43,-119
1,9081926,440,-1315,-952,-1563,-298,-36,401,43,-119
1,9081942,436,-1313,-961,-1549,-291,-40,401,43,-119
1,9081951,436,-1313,-961,-1549,-291,-40,401,43,-119
1,9081962,431,-1317,-944,-1550,-294,-40,401,43,-119
1,9081971,431,-1317,-944,-1550,-294,-40,401,43,-119
1,9081985,438,-1321,-955,-1554,-300,-32,401,43,-119
1,9081998,438,-1321,-955,-1554,-300,-32,401,43,-119
1,9082010,435,-1316,-964,-1560,-303,-40,401,43,-119
1,9082019,435,-1316,-964,-1560,-303,-40,401,43,-119
1,9082032,441,-1315,-967,-1557,-300,-41,401,43,-119
1,9082045,447,-1316,-951,-1552,-294,-43,397,43,-123
1,9082058,447,-1316,-951,-1552,-294,-43,397,43,-123
1,9082067,451,-1320,-941,-1551,-300,-44,397,43,-123
1,9082079,451,-1320,-941,-1551,-300,-44,397,43,-123
1,9082092,444,-1315,-959,-1558,-300,-45,397,43,-123
1,9082100,439,-1317,-959,-1562,-303,-45,397,43,-123
1,9082107,439,-1317,-959,-1562,-303,-45,397,43,-123
1,9082116,439,-1317,-959,-1562,-303,-45,397,43,-123
1,9082124,439,-1317,-959,-1562,-303,-45,397,43,-123
1,9082132,439,-1317,-959,-1562,-303,-45,397,43,-123
1,9082140,435,-1317,-959,-1558,-296,-39,397,43,-123
1,9082146,435,-1317,-959,-1558,-296,-39,397,43,-123
1,9082152,435,-1317,-959,-1558,-296,-39,397,43,-123
1,9082159,435,-1317,-959,-1558,-296,-39,397,43,-123
1,9082165,435,-1314,-950,-1547,-293,-43,406,52,-122
1,9082171,435,-1314,-950,-1547,-293,-43,406,52,-122
1,9082179,435,-1314,-950,-1547,-293,-43,406,52,-122
1,9082190,440,-1316,-948,-1546,-295,-45,406,52,-122
1,9082203,439,-1315,-949,-1564,-296,-47,406,52,-122
1,9082216,439,-1315,-949,-1564,-296,-47,406,52,-122
1,9082229,446,-1315,-950,-1575,-303,-43,406,52,-122
1,9082241,446,-1318,-952,-1562,-295,-40,406,52,-122
1,9082255,446,-1318,-952,-1562,-295,-40,406,52,-122
1,9082267,447,-1322,-954,-1575,-301,-40,406,52,-122
1,9082279,447,-1322,-954,-1575,-301,-40,406,52,-122
1,9082291,447,-1320,-948,-1579,-297,-44,404,40,-124
1,9082304,443,-1317,-965,-1576,-298,-44,404,40,-124
1,9082316,443,-1317,-965,-1576,-298,-44,404,40,-124
1,9082330,442,-1314,-965,-1565,-293,-43,404,40,-124
1,9082343,446,-1318,-955,-1561,-295,-39,404,40,-124
1,9082355,446,-1318,-955,-1561,-295,-39,404,40,-124
1,9082368,445,-1322,-953,-1573,-290,-45,404,40,-124
1,9082380,445,-1322,-953,-1573,-290,-45,404,40,-124
1,9082392,445,-1316,-962,-1577,-295,-43,404,40,-124
1,9082401,440,-1312,-970,-1575,-299,-43,415,43,-123
1,9082414,440,-1312,-970,-1575,-299,-43,415,43,-123
1,9082428,440,-1314,-974,-1561,-293,-37,415,43,-123
1,9082442,437,-1316,-958,-1565,-295,-43,415,43,-123
1,9082455,437,-1316,-958,-1565,-295,-43,415,43,-123
1,9082463,442,-1315,-971,-1564,-294,-43,415,43,-123
1,9082471,442,-1315,-971,-1564,-294,-43,415,43,-123
1,9082479,442,-1315,-971,-1564,-294,-43,415,43,-123
1,9082487,450,-1314,-972,-1560,-298,-39,415,43,-123
1,9082499,450,-1314,-972,-1560,-298,-39,415,43,-123
1,9082511,441,-1314,-966,-1556,-296,-34,415,43,-123
1,9082525,436,-1318,-982,-1543,-294,-34,395,45,-117
1,9082539,436,-1318,-982,-1543,-294,-34,395,45,-117
1,9082549,446,-1317,-958,-1540,-298,-43,395,45,-117
1,9082562,440,-1313,-952,-1548,-297,-48,395,45,-117
1,9082575,440,-1313,-952,-1548,-297,-48,395,45,-117
1,9082589,432,-1315,-979,-1544,-291,-47,395,45,-117
1,9082597,432,-1315,-979,-1544,-291,-47,395,45,-117
1,9082609,455,-1316,-963,-1525,-294,-43,395,45,-117
1,9082620,442,-1322,-952,-1537,-291,-42,395,45,-117
1,9082631,442,-1322,-952,-1537,-291,-42,395,45,-117
1,9082646,450,-1313,-980,-1552,-294,-37,395,45,-117
1,9082659,450,-1313,-980,-1552,-294,-37,395,45,-117
1,9082668,436,-1315,-951,-1554,-296,-43,404,48,-126
1,9082679,436,-1315,-951,-1554,-296,-43,404,48,-126
1,9082693,447,-1317,-965,-1561,-292,-41,404,48,-126
1,9082707,438,-1312,-983,-1550,-295,-34,404,48,-126
1,9082717,438,-1312,-983,-1550,-295,-34,404,48,-126
1,9082729,437,-1313,-953,-1541,-303,-38,404,48,-126
1,9082743,444,-1313,-970,-1541,-289,-40,404,48,-126
1,9082753,444,-1313,-970,-1541,-289,-40,404,48,-126
1,9082761,440,-1317,-968,-1542,-296,-37,404,48,-126
1,9082769,440,-1317,-968,-1542,-296,-37,404,48,-126
1,9082778,440,-1317,-968,-1542,-296,-37,404,48,-126
1,9082788,452,-1309,-956,-1553,-294,-42,405,45,-125
1,9082800,452,-1309,-956,-1553,-294,-42,405,45,-125
1,9082808,452,-1309,-956,-1553,-294,-42,405,45,-125
1,9082817,452,-1309,-956,-1553,-294,-42,405,45,-125
1,9082827,433,-1310,-975,-1552,-301,-34,405,45,-125
1,9082835,433,-1310,-975,-1552,-301,-34,405,45,-125
1,9082845,447,-1311,-968,-1551,-294,-35,405,45,-125
1,9082859,447,-1311,-968,-1551,-294,-35,405,45,-125
1,9082871,436,-1317,-989,-1556,-294,-36,405,45,-125
1,9082883,445,-1314,-965,-1567,-298,-40,405,45,-125
1,9082896,445,-1314,-965,-1567,-298,-40,405,45,-125
1,9082909,448,-1311,-967,-1582,-294,-34,401,43,-125
1,9082923,442,-1312,-984,-1584,-293,-37,401,43,-125
1,9082934,442,-1312,-984,-1584,-293,-37,401,43,-125
1,9082945,445,-1312,-973,-1566,-294,-48,401,43,-125
1,9082959,445,-1312,-973,-1566,-294,-48,401,43,-125
1,9082972,444,-1312,-973,-1553,-292,-38,401,43,-125
1,9082983,436,-1312,-975,-1548,-295,-36,401,43,-125
1,9082997,436,-1312,-975,-1548,-295,-36,401,43,-125
1,9083010,445,-1314,-962,-1549,-300,-45,401,43,-125
1,9083019,445,-1314,-962,-1549,-300,-45,401,43,-125
1,9083029,447,-1309,-978,-1553,-303,-47,404,44,-128
1,9083038,447,-1309,-978,-1553,-303,-47,404,44,-128
1,9083046,437,-1315,-969,-1540,-298,-39,404,44,-128
1,9083054,437,-1315,-969,-1540,-298,-39,404,44,-128
1,9083062,446,-1313,-957,-1546,-297,-37,404,44,-128
1,9083076,446,-1313,-957,-1546,-297,-37,404,44,-128
1,9083085,447,-1311,-974,-1537,-301,-40,404,44,-128
1,9083096,447,-1311,-974,-1537,-301,-40,404,44,-128
1,9083104,441,-1316,-963,-1532,-297,-43,404,44,-128
1,9083112,441,-1316,-963,-1532,-297,-43,404,44,-128
1,9083120,439,-1318,-972,-1541,-294,-42,404,44,-128
1,9083128,439,-1318,-972,-1541,-294,-42,404,44,-128
1,9083137,439,-1318,-972,-1541,-294,-42,404,44,-128
1,9083147,435,-1314,-978,-1559,-292,-45,404,44,-128
1,9083155,435,-1314,-978,-1559,-292,-45,404,44,-128
1,9083163,436,-1311,-966,-1560,-296,-45,407,35,-131
1,9083171,436,-1311,-966,-1560,-296,-45,407,35,-131
1,9083179,436,-1311,-966,-1560,-296,-45,407,35,-131
1,9083188,442,-1313,-987,-1559,-298,-36,407,35,-131
1,9083197,442,-1313,-987,-1559,-298,-36,407,35,-131
1,9083204,442,-1313,-987,-1559,-298,-36,407,35,-131
1,9083210,442,-1313,-987,-1559,-298,-36,407,35,-131
1,9083217,442,-1313,-987,-1559,-298,-36,407,35,-131
1,9083223,443,-1309,-970,-1567,-297,-36,407,35,-131
1,9083230,443,-1309,-970,-1567,-297,-36,407,35,-131
1,9083236,443,-1309,-970,-1567,-297,-36,407,35,-131
1,9083241,435,-1305,-991,-1563,-292,-39,407,35,-131
1,9083249,435,-1305,-991,-1563,-292,-39,407,35,-131
1,9083256,435,-1305,-991,-1563,-292,-39,407,35,-131
1,9083262,439,-1312,-991,-1559,-294,-41,407,35,-131
1,9083270,439,-1312,-991,-1559,-294,-41,407,35,-131
1,9083278,439,-1312,-991,-1559,-294,-41,407,35,-131
1,9083284,437,-1314,-965,-1562,-300,-43,396,36,-124
1,9083292,437,-1314,-965,-1562,-300,-43,396,36,-124
1,9083300,437,-1314,-965,-1562,-300,-43,396,36,-124
1,9083311,435,-1318,-979,-1578,-293,-45,396,36,-124
1,9083318,435,-1318,-979,-1578,-293,-45,396,36,-124
1,9083324,439,-1310,-982,-1594,-295,-42,396,36,-124
1,9083334,439,-1310,-982,-1594,-295,-42,396,36,-124
1,9083344,443,-1309,-978,-1593,-298,-45,396,36,-124
1,9083355,443,-1309,-978,-1593,-298,-45,396,36,-124
1,9083366,450,-1311,-992,-1587,-288,-42,396,36,-124
1,9083377,450,-1311,-992,-1587,-288,-42,396,36,-124
1,9083385,449,-1305,-973,-1573,-292,-40,396,36,-124
1,9083396,449,-1305,-973,-1573,-292,-40,396,36,-124
1,9083402,447,-1309,-979,-1564,-290,-33,400,48,-126
1,9083413,447,-1309,-979,-1564,-290,-33,400,48,-126
1,9083423,438,-1310,-982,-1544,-293,-40,400,48,-126
1,9083433,438,-1310,-982,-1544,-293,-40,400,48,-126
1,9083444,436,-1312,-973,-1538,-290,-36,400,48,-126
1,9083452,436,-1312,-973,-1538,-290,-36,400,48,-126
1,9083462,434,-1314,-981,-1538,-297,-39,400,48,-126
1,9083472,434,-1314,-981,-1538,-297,-39,400,48,-126
1,9083484,440,-1316,-981,-1545,-291,-29,400,48,-126
1,9083494,440,-1316,-981,-1545,-291,-29,400,48,-126
1,9083502,447,-1312,-976,-1562,-290,-32,400,48,-126
1,9083513,447,-1312,-976,-1562,-290,-32,400,48,-126
1,9083525,441,-1310,-974,-1559,-288,-39,407,35,-123
1,9083534,441,-1310,-974,-1559,-288,-39,407,35,-123
1,9083541,441,-1308,-982,-1545,-290,-33,407,35,-123
1,9083547,441,-1308,-982,-1545,-290,-33,407,35,-123
1,9083553,441,-1308,-982,-1545,-290,-33,407,35,-123
1,9083559,441,-1308,-982,-1545,-290,-33,407,35,-123
1,9083571,441,-1310,-993,-1526,-286,-39,407,35,-123
1,9083582,444,-1311,-982,-1517,-286,-36,407,35,-123
1,9083593,444,-1311,-982,-1517,-286,-36,407,35,-123
1,9083602,444,-1313,-984,-1532,-290,-37,407,35,-123
1,9083612,444,-1313,-984,-1532,-290,-37,407,35,-123
1,9083620,444,-1313,-984,-1532,-290,-37,407,35,-123
1,9083631,441,-1309,-989,-1543,-296,-38,407,35,-123
1,9083639,441,-1309,-989,-1543,-296,-38,407,35,-123
1,9083650,441,-1311,-991,-1525,-292,-41,407,35,-123
1,9083657,441,-1311,-991,-1525,-292,-41,407,35,-123
1,9083668,442,-1311,-975,-1525,-292,-35,401,45,-111
1,9083675,442,-1311,-975,-1525,-292,-35,401,45,-111
1,9083685,443,-1315,-979,-1533,-292,-37,401,45,-111
1,9083697,443,-1315,-979,-1533,-292,-37,401,45,-111
1,9083707,441,-1311,-985,-1552,-290,-33,401,45,-111
1,9083717,441,-1311,-985,-1552,-290,-33,401,45,-111
1,9083725,438,-1305,-996,-1553,-298,-32,401,45,-111
1,9083736,438,-1305,-996,-1553,-298,-32,401,45,-111
1,9083747,444,-1309,-991,-1542,-295,-38,401,45,-111
1,9083754,444,-1309,-991,-1542,-295,-38,401,45,-111
1,9083760,444,-1309,-991,-1542,-295,-38,401,45,-111
1,9083766,443,-1313,-985,-1538,-296,-34,401,45,-111
1,9083772,443,-1313,-985,-1538,-296,-34,401,45,-111
1,9083779,443,-1313,-985,-1538,-296,-34,401,45,-111
1,9083784,447,-1314,-982,-1549,-289,-34,399,43,-125
1,9083791,447,-1314,-982,-1549,-289,-34,399,43,-125
1,9083798,447,-1314,-982,-1549,-289,-34,399,43,-125
1,9083805,434,-1316,-995,-1571,-293,-36,399,43,-125
1,9083812,434,-1316,-995,-1571,-293,-36,399,43,-125
1,9083820,434,-1316,-995,-1571,-293,-36,399,43,-125
1,9083827,444,-1307,-967,-1585,-294,-35,399,43,-125
1,9083835,444,-1307,-967,-1585,-294,-35,399,43,-125
1,9083844,435,-1311,-991,-1574,-288,-37,399,43,-125
1,9083851,435,-1311,-991,-1574,-288,-37,399,43,-125
1,9083858,435,-1311,-991,-1574,-288,-37,399,43,-125
1,9083865,442,-1303,-996,-1562,-291,-33,399,43,-125
1,9083873,442,-1303,-996,-1562,-291,-33,399,43,-125
1,9083879,442,-1303,-996,-1562,-291,-33,399,43,-125
1,9083886,437,-1309,-982,-1555,-293,-35,399,43,-125
1,9083894,437,-1309,-982,-1555,-293,-35,399,43,-125
1,9083902,441,-1319,-976,-1564,-289,-39,399,45,-117
1,9083909,441,-1319,-976,-1564,-289,-39,399,45,-117
1,9083917,441,-1319,-976,-1564,-289,-39,399,45,-117
1,9083924,446,-1313,-987,-1589,-292,-35,399,45,-117
1,9083931,446,-1313,-987,-1589,-292,-35,399,45,-117
1,9083937,446,-1313,-987,-1589,-292,-35,399,45,-117
1,9083944,434,-1309,-992,-1601,-301,-36,399,45,-117
1,9083953,434,-1309,-992,-1601,-301,-36,399,45,-117
1,9083960,434,-1309,-992,-1601,-301,-36,399,45,-117
1,9083967,449,-1298,-994,-1590,-296,-37,399,45,-117
1,9083973,449,-1298,-994,-1590,-296,-37,399,45,-117
1,9083980,437,-1311,-997,-1581,-288,-39,399,45,-117
1,9083986,437,-1311,-997,-1581,-288,-39,399,45,-117
1,9083996,437,-1311,-997,-1581,-288,-39,399,45,-117
1,9084003,439,-1309,-989,-1574,-291,-34,399,45,-117
1,9084010,439,-1309,-989,-1574,-291,-34,399,45,-117
1,9084017,439,-1309,-989,-1574,-291,-34,399,45,-117
1,9084022,447,-1304,-996,-1566,-284,-35,404,48,-130
1,9084028,447,-1304,-996,-1566,-284,-35,404,48,-130
1,9084034,447,-1304,-996,-1566,-284,-35,404,48,-130
1,9084041,434,-1317,-994,-1564,-298,-34,404,48,-130
1,9084048,434,-1317,-994,-1564,-298,-34,404,48,-130
1,9084056,434,-1317,-994,-1564,-298,-34,404,48,-130
1,9084063,442,-1310,-994,-1573,-288,-37,404,48,-130
1,9084069,442,-1310,-994,-1573,-288,-37,404,48,-130
1,9084077,442,-1310,-994,-1573,-288,-37,404,48,-130
1,9084084,449,-1302,-990,-1582,-288,-35,404,48,-130
1,9084091,449,-1302,-990,-1582,-288,-35,404,48,-130
1,9084096,449,-1302,-990,-1582,-288,-35,404,48,-130
1,9084101,442,-1310,-997,-1571,-293,-34,404,48,-130
1,9084107,442,-1310,-997,-1571,-293,-34,404,48,-130
1,9084112,442,-1310,-997,-1571,-293,-34,404,48,-130
1,9084118,442,-1310,-997,-1571,-293,-34,404,48,-130
1,9084123,435,-1309,-1010,-1558,-291,-35,404,48,-130
1,9084128,435,-1309,-1010,-1558,-291,-35,404,48,-130
1,9084133,435,-1309,-1010,-1558,-291,-35,404,48,-130
1,9084138,435,-1309,-1010,-1558,-291,-35,404,48,-130
1,9084145,442,-1311,-981,-1559,-289,-33,399,49,-119
1,9084152,442,-1311,-981,-1559,-289,-33,399,49,-119
1,9084158,442,-1311,-981,-1559,-289,-33,399,49,-119
1,9084166,434,-1304,-988,-1564,-287,-33,399,49,-119
1,9084173,434,-1304,-988,-1564,-287,-33,399,49,-119
1,9084180,434,-1304,-988,-1564,-287,-33,399,49,-119
1,9084187,441,-1309,-1006,-1554,-288,-39,399,49,-119
1,9084194,441,-1309,-1006,-1554,-288,-39,399,49,-119
1,9084203,447,-1307,-990,-1549,-296,-34,399,49,-119
1,9084215,447,-1307,-990,-1549,-296,-34,399,49,-119
1,9084227,445,-1305,-994,-1544,-296,-35,399,49,-119
1,9084239,445,-1305,-994,-1544,-296,-35,399,49,-119
1,9084252,434,-1317,-1008,-1534,-293,-38,399,49,-119
1,9084264,441,-1315,-1014,-1534,-291,-31,399,49,-119
1,9084274,441,-1315,-1014,-1534,-291,-31,399,49,-119
1,9084286,443,-1307,-993,-1553,-288,-30,400,42,-122
1,9084301,446,-1300,-984,-1542,-286,-31,400,42,-122
1,9084309,446,-1300,-984,-1542,-286,-31,400,42,-122
1,9084321,447,-1303,-989,-1517,-288,-37,400,42,-122
1,9084335,447,-1303,-989,-1517,-288,-37,400,42,-122
1,9084349,448,-1305,-999,-1484,-290,-30,400,42,-122
1,9084358,448,-1305,-999,-1484,-290,-30,400,42,-122
1,9084371,440,-1314,-996,-1481,-291,-35,400,42,-122
1,9084385,432,-1313,-1011,-1519,-292,-39,400,42,-122
1,9084397,432,-1313,-1011,-1519,-292,-39,400,42,-122
1,9084408,433,-1306,-998,-1552,-299,-37,405,43,-127
1,9084422,437,-1304,-992,-1557,-289,-36,405,43,-127
1,9084435,437,-1304,-992,-1557,-289,-36,405,43,-127
1,9084448,443,-1300,-1007,-1551,-287,-25,405,43,-127
1,9084456,443,-1300,-1007,-1551,-287,-25,405,43,-127
1,9084470,442,-1303,-990,-1531,-287,-31,405,43,-127
1,9084481,442,-1303,-990,-1531,-287,-31,405,43,-127
1,9084492,443,-1314,-994,-1538,-288,-37,405,43,-127
1,9084507,444,-1323,-984,-1560,-281,-24,405,43,-127
1,9084521,444,-1323,-984,-1560,-281,-24,405,43,-127
1,9084532,441,-1311,-997,-1618,-294,-27,397,39,-129
1,9084540,441,-1311,-997,-1618,-294,-27,397,39,-129
1,9084549,437,-1305,-1001,-1625,-292,-28,397,39,-129
1,9084557,437,-1305,-1001,-1625,-292,-28,397,39,-129
1,9084565,443,-1303,-1023,-1601,-290,-28,397,39,-129
1,9084575,443,-1303,-1023,-1601,-290,-28,397,39,-129
1,9084589,436,-1306,-997,-1596,-283,-28,397,39,-129
1,9084604,437,-1307,-1003,-1587,-292,-26,397,39,-129
1,9084617,437,-1307,-1003,-1587,-292,-26,397,39,-129
1,9084627,440,-1303,-1003,-1574,-295,-27,397,39,-129
1,9084640,440,-1303,-1003,-1574,-295,-27,397,39,-129
1,9084654,443,-1307,-998,-1566,-286,-36,397,39,-129
1,9084667,438,-1301,-1007,-1554,-293,-34,397,39,-129
1,9084677,438,-1301,-1007,-1554,-293,-34,397,39,-129
1,9084689,444,-1308,-998,-1539,-291,-36,397,39,-129
1,9084701,441,-1310,-1007,-1556,-287,-33,397,39,-129
1,9084715,441,-1310,-1007,-1556,-287,-33,397,39,-129
1,9084726,438,-1300,-1011,-1567,-293,-40,397,39,-129
1,9084740,438,-1300,-1011,-1567,-293,-40,397,39,-129
1,9084752,431,-1297,-1019,-1552,-294,-32,397,39,-129
1,9084761,431,-1297,-1019,-1552,-294,-32,397,39,-129
1,9084769,433,-1297,-1031,-1519,-289,-35,397,39,-129
1,9084777,433,-1297,-1031,-1519,-289,-35,397,39,-129
1,9084786,438,-1309,-996,-1496,-287,-32,405,39,-119
1,9084795,438,-1309,-996,-1496,-287,-32,405,39,-119
1,9084805,435,-1305,-1006,-1506,-286,-24,405,39,-119
1,9084815,435,-1305,-1006,-1506,-286,-24,405,39,-119
1,9084824,434,-1302,-1015,-1510,-288,-26,405,39,-119
1,9084833,434,-1302,-1015,-1510,-288,-26,405,39,-119
1,9084843,439,-1302,-1014,-1494,-288,-34,405,39,-119
1,9084852,439,-1302,-1014,-1494,-288,-34,405,39,-119
1,9084862,439,-1302,-1014,-1494,-288,-34,405,39,-119
1,9084870,439,-1302,-1014,-1494,-288,-34,405,39,-119
1,9084879,439,-1302,-1014,-1494,-288,-34,405,39,-119
1,9084888,439,-1306,-1001,-1502,-293,-36,405,39,-119
1,9084898,439,-1306,-1001,-1502,-293,-36,405,39,-119
1,9084909,436,-1308,-995,-1518,-291,-37,399,43,-125
1,9084921,440,-1302,-1020,-1519,-299,-36,399,43,-125
1,9084934,440,-1302,-1020,-1519,-299,-36,399,43,-125
1,9084944,444,-1304,-1005,-1508,-293,-34,399,43,-125
1,9084958,444,-1304,-1005,-1508,-293,-34,399,43,-125
1,9084975,439,-1307,-1007,-1496,-289,-37,399,43,-125
1,9084990,438,-1303,-1015,-1485,-289,-35,399,43,-125
1,9085004,438,-1307,-1003,-1477,-295,-29,399,43,-125
1,9085012,438,-1307,-1003,-1477,-295,-29,399,43,-125
1,9085022,440,-1318,-989,-1481,-289,-22,407,49,-121
1,9085034,440,-1318,-989,-1481,-289,-22,407,49,-121
1,9085047,446,-1310,-1008,-1528,-293,-31,407,49,-121
1,9085061,446,-1310,-1008,-1528,-293,-31,407,49,-121
1,9085074,447,-1304,-994,-1541,-290,-36,407,49,-121
1,9085087,445,-1303,-1014,-1533,-282,-33,407,49,-121
1,9085096,445,-1303,-1014,-1533,-282,-33,407,49,-121
1,9085104,442,-1308,-1011,-1529,-289,-35,407,49,-121
1,9085113,442,-1308,-1011,-1529,-289,-35,407,49,-121
1,9085120,442,-1308,-1011,-1529,-289,-35,407,49,-121
1,9085129,433,-1300,-997,-1515,-296,-27,407,49,-121
1,9085136,433,-1300,-997,-1515,-296,-27,407,49,-121
1,9085145,436,-1301,-1020,-1502,-289,-26,403,43,-129
1,9085153,436,-1301,-1020,-1502,-289,-26,403,43,-129
1,9085161,435,-1308,-1006,-1492,-293,-23,403,43,-129
1,9085169,435,-1308,-1006,-1492,-293,-23,403,43,-129
1,9085177,435,-1308,-1006,-1492,-293,-23,403,43,-129
1,9085187,439,-1307,-1008,-1479,-289,-31,403,43,-129
1,9085195,439,-1307,-1008,-1479,-289,-31,403,43,-129
1,9085204,439,-1305,-1003,-1487,-284,-29,403,43,-129
1,9085212,439,-1305,-1003,-1487,-284,-29,403,43,-129
1,9085218,439,-1305,-1003,-1487,-284,-29,403,43,-129
1,9085224,442,-1310,-1011,-1494,-291,-30,403,43,-129
1,9085231,442,-1310,-1011,-1494,-291,-30,403,43,-129
1,9085237,442,-1310,-1011,-1494,-291,-30,403,43,-129
1,9085242,438,-1296,-1023,-1493,-287,-28,403,43,-129
1,9085247,438,-1296,-1023,-1493,-287,-28,403,43,-129
1,9085253,438,-1296,-1023,-1493,-287,-28,403,43,-129
1,9085258,438,-1296,-1023,-1493,-287,-28,403,43,-129
1,9085263,441,-1305,-1005,-1477,-295,-27,407,43,-123
1,9085271,441,-1305,-1005,-1477,-295,-27,407,43,-123
1,9085278,441,-1305,-1005,-1477,-295,-27,407,43,-123
1,9085284,433,-1307,-1006,-1461,-290,-28,407,43,-123
1,9085291,433,-1307,-1006,-1461,-290,-28,407,43,-123
1,9085298,433,-1307,-1006,-1461,-290,-28,407,43,-123
1,9085304,440,-1307,-1018,-1445,-285,-32,407,43,-123
1,9085313,440,-1307,-1018,-1445,-285,-32,407,43,-123
1,9085320,440,-1307,-1018,-1445,-285,-32,407,43,-123
1,9085328,440,-1310,-1007,-1446,-288,-42,407,43,-123
1,9085335,440,-1310,-1007,-1446,-288,-42,407,43,-123
1,9085342,440,-1311,-997,-1457,-289,-31,407,43,-123
1,9085350,440,-1311,-997,-1457,-289,-31,407,43,-123
1,9085358,440,-1311,-997,-1457,-289,-31,407,43,-123
1,9085363,443,-1309,-1003,-1459,-288,-34,407,43,-123
1,9085371,443,-1309,-1003,-1459,-288,-34,407,43,-123
1,9085378,443,-1309,-1003,-1459,-288,-34,407,43,-123
1,9085385,445,-1310,-994,-1471,-289,-30,407,43,-123
1,9085393,445,-1310,-994,-1471,-289,-30,407,43,-123
1,9085401,445,-1310,-994,-1471,-289,-30,407,43,-123
1,9085408,442,-1308,-1007,-1482,-291,-28,405,47,-119
1,9085415,442,-1308,-1007,-1482,-291,-28,405,47,-119
1,9085422,441,-1306,-1008,-1474,-285,-32,405,47,-119
1,9085428,441,-1306,-1008,-1474,-285,-32,405,47,-119
1,9085436,441,-1306,-1008,-1474,-285,-32,405,47,-119
1,9085445,439,-1310,-991,-1467,-283,-33,405,47,-119
1,9085452,439,-1310,-991,-1467,-283,-33,405,47,-119
1,9085458,439,-1310,-991,-1467,-283,-33,405,47,-119
1,9085464,438,-1307,-1014,-1477,-286,-28,405,47,-119
1,9085470,438,-1307,-1014,-1477,-286,-28,405,47,-119
1,9085476,438,-1307,-1014,-1477,-286,-28,405,47,-119
1,9085483,435,-1308,-1000,-1477,-286,-32,405,47,-119
1,9085491,435,-1308,-1000,-1477,-286,-32,405,47,-119
1,9085496,435,-1308,-1000,-1477,-286,-32,405,47,-119
1,9085504,440,-1307,-996,-1485,-291,-33,405,47,-119
1,9085511,440,-1307,-996,-1485,-291,-33,405,47,-119
1,9085519,440,-1307,-996,-1485,-291,-33,405,47,-119
1,9085526,435,-1309,-995,-1513,-294,-24,410,40,-128
1,9085531,435,-1309,-995,-1513,-294,-24,410,40,-128
1,9085538,435,-1309,-995,-1513,-294,-24,410,40,-128
1,9085545,437,-1303,-1014,-1514,-289,-27,410,40,-128
1,9085551,437,-1303,-1014,-1514,-289,-27,410,40,-128
1,9085559,437,-1303,-1014,-1514,-289,-27,410,40,-128
1,9085564,437,-1303,-1006,-1503,-292,-29,410,40,-128
1,9085572,437,-1303,-1006,-1503,-292,-29,410,40,-128
1,9085579,437,-1303,-1006,-1503,-292,-29,410,40,-128
1,9085587,434,-1304,-1013,-1485,-287,-28,410,40,-128
1,9085594,434,-1304,-1013,-1485,-287,-28,410,40,-128
1,9085602,437,-1301,-1014,-1476,-289,-34,410,40,-128
1,9085609,437,-1301,-1014,-1476,-289,-34,410,40,-128
1,9085617,437,-1301,-1014,-1476,-289,-34,410,40,-128
1,9085624,435,-1306,-997,-1465,-295,-31,410,40,-128
1,9085629,435,-1306,-997,-1465,-295,-31,410,40,-128
1,9085637,435,-1306,-997,-1465,-295,-31,410,40,-128
1,9085642,441,-1311,-1002,-1477,-288,-28,403,47,-131
1,9085648,441,-1311,-1002,-1477,-288,-28,403,47,-131
1,9085654,441,-1311,-1002,-1477,-288,-28,403,47,-131
1,9085661,443,-1307,-999,-1503,-289,-29,403,47,-131
1,9085668,443,-1307,-999,-1503,-289,-29,403,47,-131
1,9085674,443,-1307,-999,-1503,-289,-29,403,47,-131
1,9085679,443,-1307,-999,-1503,-289,-29,403,47,-131
1,9085684,440,-1304,-1007,-1509,-293,-36,403,47,-131
1,9085691,440,-1304,-1007,-1509,-293,-36,403,47,-131
1,9085697,440,-1304,-1007,-1509,-293,-36,403,47,-131
1,9085706,436,-1305,-1012,-1506,-290,-31,403,47,-131
1,9085713,436,-1305,-1012,-1506,-290,-31,403,47,-131
1,9085721,436,-1305,-1012,-1506,-290,-31,403,47,-131
1,9085727,431,-1310,-1007,-1494,-294,-27,403,47,-131
1,9085733,431,-1310,-1007,-1494,-294,-27,403,47,-131
1,9085741,431,-1310,-1007,-1494,-294,-27,403,47,-131
1,9085746,438,-1301,-1014,-1483,-293,-25,403,47,-131
1,9085752,438,-1301,-1014,-1483,-293,-25,403,47,-131
1,9085757,438,-1301,-1014,-1483,-293,-25,403,47,-131
1,9085761,434,-1302,-1006,-1477,-282,-24,407,45,-123
1,9085767,434,-1302,-1006,-1477,-282,-24,407,45,-123
1,9085772,434,-1302,-1006,-1477,-282,-24,407,45,-123
1,9085777,434,-1302,-1006,-1477,-282,-24,407,45,-123
1,9085785,440,-1309,-998,-1471,-287,-32,407,45,-123
1,9085791,440,-1309,-998,-1471,-287,-32,407,45,-123
1,9085798,440,-1309,-998,-1471,-287,-32,407,45,-123
1,9085805,440,-1308,-1005,-1488,-296,-28,407,45,-123
1,9085811,440,-1308,-1005,-1488,-296,-28,407,45,-123
1,9085819,440,-1308,-1005,-1488,-296,-28,407,45,-123
1,9085827,444,-1306,-1009,-1502,-291,-32,407,45,-123
1,9085834,444,-1306,-1009,-1502,-291,-32,407,45,-123
1,9085840,444,-1306,-1009,-1502,-291,-32,407,45,-123
1,9085847,438,-1305,-1013,-1486,-285,-33,407,45,-123
1,9085854,438,-1305,-1013,-1486,-285,-33,407,45,-123
1,9085862,440,-1305,-997,-1471,-289,-31,407,45,-123
1,9085872,440,-1305,-997,-1471,-289,-31,407,45,-123
1,9085880,440,-1305,-997,-1471,-289,-31,407,45,-123
1,9085887,436,-1309,-1011,-1472,-288,-26,407,45,-123
1,9085894,436,-1309,-1011,-1472,-288,-26,407,45,-123
1,9085899,436,-1309,-1011,-1472,-288,-26,407,45,-123
1,9085906,438,-1308,-1001,-1468,-291,-34,414,40,-126
1,9085913,438,-1308,-1001,-1468,-291,-34,414,40,-126
1,9085922,438,-1309,-1006,-1483,-289,-33,414,40,-126
1,9085928,438,-1309,-1006,-1483,-289,-33,414,40,-126
1,9085936,438,-1309,-1006,-1483,-289,-33,414,40,-126
1,9085942,440,-1307,-1001,-1502,-288,-32,414,40,-126
1,9085950,440,-1307,-1001,-1502,-288,-32,414,40,-126
1,9085957,440,-1307,-1001,-1502,-288,-32,414,40,-126
1,9085963,436,-1305,-997,-1509,-298,-28,414,40,-126
1,9085970,436,-1305,-997,-1509,-298,-28,414,40,-126
1,9085977,436,-1305,-997,-1509,-298,-28,414,40,-126
1,9085985,442,-1304,-1019,-1499,-296,-19,414,40,-126
1,9085991,442,-1304,-1019,-1499,-296,-19,414,40,-126
1,9086001,442,-1304,-1019,-1499,-296,-19,414,40,-126
1,9086007,432,-1306,-1007,-1502,-298,-24,414,40,-126
1,9086016,432,-1306,-1007,-1502,-298,-24,414,40,-126
1,9086022,432,-1306,-1007,-1502,-298,-24,414,46,-120
1,9086029,432,-1306,-1007,-1502,-298,-24,414,46,-120
1,9086035,432,-1306,-1007,-1502,-298,-24,414,46,-120
1,9086044,434,-1309,-1001,-1510,-286,-29,414,46,-120
1,9086051,434,-1309,-1001,-1510,-286,-29,414,46,-120
1,9086057,434,-1309,-1001,-1510,-286,-29,414,46,-120
1,9086064,434,-1303,-1003,-1523,-287,-33,414,46,-120
1,9086072,434,-1303,-1003,-1523,-287,-33,414,46,-120
1,9086081,434,-1303,-1003,-1523,-287,-33,414,46,-120
1,9086089,436,-1307,-1002,-1528,-289,-28,414,46,-120
1,9086095,436,-1307,-1002,-1528,-289,-28,414,46,-120
1,9086100,436,-1307,-1002,-1528,-289,-28,414,46,-120
1,9086105,442,-1307,-1022,-1525,-290,-30,414,46,-120
1,9086110,442,-1307,-1022,-1525,-290,-30,414,46,-120
1,9086115,442,-1307,-1022,-1525,-290,-30,414,46,-120
1,9086121,442,-1307,-1022,-1525,-290,-30,414,46,-120
1,9086127,433,-1305,-1007,-1518,-288,-33,414,46,-120
1,9086132,433,-1305,-1007,-1518,-288,-33,414,46,-120
1,9086137,433,-1305,-1007,-1518,-288,-33,414,46,-120
1,9086144,435,-1301,-1009,-1506,-291,-34,405,45,-117
1,9086152,435,-1301,-1009,-1506,-291,-34,405,45,-117
1,9086159,435,-1301,-1009,-1506,-291,-34,405,45,-117
1,9086167,437,-1305,-998,-1492,-292,-30,405,45,-117
1,9086174,437,-1305,-998,-1492,-292,-30,405,45,-117
1,9086181,437,-1305,-998,-1492,-292,-30,405,45,-117
1,9086187,435,-1304,-998,-1488,-290,-27,405,45,-117
1,9086192,435,-1304,-998,-1488,-290,-27,405,45,-117
1,9086198,435,-1304,-998,-1488,-290,-27,405,45,-117
1,9086208,439,-1304,-1012,-1485,-294,-30,405,45,-117
1,9086214,439,-1304,-1012,-1485,-294,-30,405,45,-117
1,9086229,434,-1307,-1008,-1486,-299,-35,405,45,-117
1,9086243,435,-1307,-1004,-1496,-290,-29,405,45,-117
1,9086253,435,-1307,-1004,-1496,-290,-29,405,45,-117
1,9086264,439,-1305,-1008,-1497,-295,-29,413,53,-117
1,9086277,439,-1305,-1008,-1497,-295,-29,413,53,-117
1,9086290,433,-1304,-1009,-1492,-293,-20,413,53,-117
1,9086301,433,-1304,-1009,-1492,-293,-20,413,53,-117
1,9086312,439,-1305,-1010,-1482,-297,-25,413,53,-117
1,9086321,439,-1305,-1010,-1482,-297,-25,413,53,-117
1,9086332,434,-1308,-999,-1481,-294,-33,413,53,-117
1,9086345,438,-1303,-1006,-1481,-288,-30,413,53,-117
1,9086357,438,-1303,-1006,-1481,-288,-30,413,53,-117
1,9086368,443,-1304,-1000,-1481,-290,-26,413,53,-117
1,9086381,443,-1304,-1000,-1481,-290,-26,413,53,-117
1,9086394,438,-1303,-1016,-1474,-287,-31,413,53,-117
1,9086406,438,-1302,-1008,-1454,-290,-28,411,33,-121
1,9086418,438,-1302,-1008,-1454,-290,-28,411,33,-121
1,9086430,438,-1306,-1008,-1454,-288,-23,411,33,-121
1,9086444,435,-1308,-1008,-1447,-289,-27,411,33,-121
1,9086455,435,-1308,-1008,-1447,-289,-27,411,33,-121
1,9086469,433,-1308,-998,-1457,-290,-28,411,33,-121
1,9086482,438,-1306,-997,-1459,-292,-27,411,33,-121
1,9086494,438,-1306,-997,-1459,-292,-27,411,33,-121
1,9086508,440,-1308,-1009,-1459,-290,-30,411,33,-121
1,9086520,440,-1308,-1009,-1459,-290,-30,411,33,-121
1,9086532,435,-1303,-1009,-1473,-293,-28,408,54,-122
1,9086544,439,-1302,-998,-1474,-300,-23,408,54,-122
1,9086558,439,-1302,-998,-1474,-300,-23,408,54,-122
1,9086567,439,-1302,-998,-1474,-300,-23,408,54,-122
1,9086580,439,-1302,-998,-1474,-300,-23,408,54,-122
1,9086589,432,-1309,-1005,-1470,-294,-27,408,54,-122
1,9086601,432,-1309,-1005,-1470,-294,-27,408,54,-122
1,9086614,433,-1309,-1010,-1479,-289,-27,408,54,-122
1,9086628,437,-1308,-1010,-1491,-293,-26,408,54,-122
1,9086638,437,-1308,-1010,-1491,-293,-26,408,54,-122
1,9086650,433,-1309,-985,-1507,-300,-25,412,40,-118
1,9086664,442,-1309,-1006,-1519,-291,-26,412,40,-118
1,9086679,442,-1309,-1006,-1519,-291,-26,412,40,-118
1,9086690,435,-1305,-1010,-1537,-293,-25,412,40,-118
1,9086701,435,-1305,-1010,-1537,-293,-25,412,40,-118
1,9086714,439,-1306,-1003,-1527,-298,-34,412,40,-118
1,9086725,432,-1305,-1013,-1519,-290,-30,412,40,-118
1,9086736,432,-1305,-1013,-1519,-290,-30,412,40,-118
1,9086748,431,-1311,-1002,-1516,-300,-29,412,40,-118
1,9086756,431,-1311,-1002,-1516,-300,-29,412,40,-118
1,9086764,432,-1302,-1020,-1532,-299,-30,410,50,-124
1,9086773,432,-1302,-1020,-1532,-299,-30,410,50,-124
1,9086784,433,-1308,-1002,-1538,-297,-33,410,50,-124
1,9086791,433,-1308,-1002,-1538,-297,-33,410,50,-124
1,9086799,433,-1308,-1002,-1538,-297,-33,410,50,-124
1,9086808,437,-1305,-1004,-1541,-295,-32,410,50,-124
1,9086819,437,-1305,-1004,-1541,-295,-32,410,50,-124
1,9086834,433,-1299,-1016,-1534,-294,-31,410,50,-124
1,9086845,435,-1306,-1007,-1522,-299,-23,410,50,-124
1,9086858,435,-1306,-1007,-1522,-299,-23,410,50,-124
1,9086871,433,-1301,-1019,-1503,-291,-26,410,50,-124
1,9086885,434,-1306,-1007,-1495,-283,-29,410,44,-126
1,9086898,434,-1306,-1007,-1495,-283,-29,410,44,-126
1,9086910,429,-1305,-995,-1485,-290,-31,410,44,-126
1,9086923,434,-1308,-1016,-1476,-289,-29,410,44,-126
1,9086936,434,-1308,-1016,-1476,-289,-29,410,44,-126
1,9086948,439,-1309,-1009,-1481,-294,-28,410,44,-126
1,9086962,437,-1302,-991,-1484,-296,-27,410,44,-126
1,9086976,437,-1302,-991,-1484,-296,-27,410,44,-126
1,9086988,437,-1303,-1009,-1468,-293,-28,410,44,-126
1,9087001,437,-1303,-1009,-1468,-293,-28,410,44,-126
1,9087013,434,-1308,-1014,-1473,-289,-31,410,44,-126
1,9087026,426,-1307,-996,-1474,-290,-28,415,41,-123
1,9087036,426,-1307,-996,-1474,-290,-28,415,41,-123
1,9087049,430,-1306,-1004,-1481,-292,-30,415,41,-123
1,9087058,430,-1306,-1004,-1481,-292,-30,415,41,-123
1,9087070,432,-1306,-1008,-1472,-293,-32,415,41,-123
1,9087083,437,-1305,-1013,-1469,-293,-31,415,41,-123
1,9087096,437,-1305,-1013,-1469,-293,-31,415,41,-123
1,9087105,432,-1310,-995,-1481,-297,-30,415,41,-123
1,9087113,432,-1310,-995,-1481,-297,-30,415,41,-123
1,9087121,432,-1310,-995,-1481,-297,-30,415,41,-123
1,9087129,434,-1308,-1008,-1481,-294,-25,415,41,-123
1,9087136,434,-1308,-1008,-1481,-294,-25,415,41,-123
1,9087144,437,-1306,-1007,-1496,-298,-30,425,47,-119
1,9087153,437,-1306,-1007,-1496,-298,-30,425,47,-119
1,9087161,437,-1306,-1007,-1496,-298,-30,425,47,-119
1,9087169,437,-1306,-1007,-1496,-298,-30,425,47,-119
1,9087176,437,-1306,-1007,-1496,-298,-30,425,47,-119
1,9087184,427,-1308,-987,-1499,-291,-26,425,47,-119
1,9087195,427,-1308,-987,-1499,-291,-26,425,47,-119
1,9087206,440,-1309,-1007,-1497,-295,-28,425,47,-119
1,9087219,440,-1309,-1007,-1497,-295,-28,425,47,-119
1,9087228,437,-1307,-1006,-1499,-289,-24,425,47,-119
1,9087236,437,-1307,-1006,-1499,-289,-24,425,47,-119
1,9087243,440,-1309,-996,-1512,-290,-26,425,47,-119
1,9087250,440,-1309,-996,-1512,-290,-26,425,47,-119
1,9087257,440,-1309,-996,-1512,-290,-26,425,47,-119
1,9087264,434,-1308,-1009,-1510,-293,-33,413,45,-123
1,9087271,434,-1308,-1009,-1510,-293,-33,413,45,-123
1,9087279,434,-1308,-1009,-1510,-293,-33,413,45,-123
1,9087286,436,-1305,-996,-1501,-298,-29,413,45,-123
1,9087291,436,-1305,-996,-1501,-298,-29,413,45,-123
1,9087299,436,-1305,-996,-1501,-298,-29,413,45,-123
1,9087307,431,-1305,-999,-1502,-296,-26,413,45,-123
1,9087313,431,-1305,-999,-1502,-296,-26,413,45,-123
1,9087321,431,-1305,-999,-1502,-296,-26,413,45,-123
1,9087328,432,-1310,-1020,-1500,-292,-29,413,45,-123
1,9087334,432,-1310,-1020,-1500,-292,-29,413,45,-123
1,9087340,432,-1310,-1020,-1500,-292,-29,413,45,-123
1,9087345,435,-1302,-1001,-1496,-290,-32,413,45,-123
1,9087351,435,-1302,-1001,-1496,-290,-32,413,45,-123
1,9087356,435,-1302,-1001,-1496,-290,-32,413,45,-123
1,9087364,432,-1304,-1004,-1495,-294,-26,413,45,-123
1,9087371,432,-1304,-1004,-1495,-294,-26,413,45,-123
1,9087378,432,-1304,-1004,-1495,-294,-26,413,45,-123
1,9087384,431,-1310,-1010,-1493,-300,-30,426,54,-122
1,9087389,431,-1310,-1010,-1493,-300,-30,426,54,-122
1,9087397,431,-1310,-1010,-1493,-300,-30,426,54,-122
1,9087405,436,-1305,-999,-1495,-295,-27,426,54,-122
1,9087413,436,-1305,-999,-1495,-295,-27,426,54,-122
1,9087419,436,-1305,-999,-1495,-295,-27,426,54,-122
1,9087425,427,-1309,-1008,-1502,-291,-25,426,54,-122
1,9087432,427,-1309,-1008,-1502,-291,-25,426,54,-122
1,9087439,427,-1309,-1008,-1502,-291,-25,426,54,-122
1,9087448,434,-1306,-1014,-1503,-299,-26,426,54,-122
1,9087455,434,-1306,-1014,-1503,-299,-26,426,54,-122
1,9087461,434,-1306,-1014,-1503,-299,-26,426,54,-122
1,9087468,425,-1304,-1005,-1492,-299,-24,426,54,-122
1,9087473,425,-1304,-1005,-1492,-299,-24,426,54,-122
1,9087481,425,-1304,-1005,-1492,-299,-24,426,54,-122
1,9087489,426,-1298,-1007,-1482,-297,-28,426,54,-122
1,9087497,426,-1298,-1007,-1482,-297,-28,426,54,-122
1,9087505,427,-1305,-1002,-1475,-298,-26,426,54,-122
1,9087512,427,-1305,-1002,-1475,-298,-26,426,54,-122
1,9087519,427,-1305,-1002,-1475,-298,-26,426,54,-122
1,9087526,431,-1302,-1006,-1475,-298,-26,420,42,-120
1,9087533,431,-1302,-1006,-1475,-298,-26,420,42,-120
1,9087540,431,-1302,-1006,-1475,-298,-26,420,42,-120
1,9087547,433,-1308,-1008,-1482,-295,-22,420,42,-120
1,9087555,433,-1308,-1008,-1482,-295,-22,420,42,-120
1,9087562,435,-1305,-1008,-1498,-292,-31,420,42,-120
1,9087568,435,-1305,-1008,-1498,-292,-31,420,42,-120
1,9087576,435,-1305,-1008,-1498,-292,-31,420,42,-120
1,9087583,430,-1307,-1004,-1506,-296,-26,420,42,-120
1,9087590,430,-1307,-1004,-1506,-296,-26,420,42,-120
1,9087597,430,-1307,-1004,-1506,-296,-26,420,42,-120
1,9087603,431,-1310,-1017,-1494,-294,-26,420,42,-120
1,9087610,431,-1310,-1017,-1494,-294,-26,420,42,-120
1,9087618,431,-1310,-1017,-1494,-294,-26,420,42,-120
1,9087626,429,-1303,-1009,-1493,-288,-22,420,42,-120
1,9087633,429,-1303,-1009,-1493,-288,-22,420,42,-120
1,9087641,429,-1303,-1009,-1493,-288,-22,420,42,-120
1,9087647,433,-1307,-997,-1485,-294,-27,419,37,-121
1,9087654,433,-1307,-997,-1485,-294,-27,419,37,-121
1,9087662,433,-1307,-997,-1485,-294,-27,419,37,-121
1,9087669,435,-1304,-1005,-1484,-292,-29,419,37,-121
1,9087676,435,-1304,-1005,-1484,-292,-29,419,37,-121
1,9087683,437,-1307,-1004,-1497,-296,-26,419,37,-121
1,9087690,437,-1307,-1004,-1497,-296,-26,419,37,-121
1,9087698,437,-1307,-1004,-1497,-296,-26,419,37,-121
1,9087707,434,-1305,-1010,-1490,-295,-26,419,37,-121
1,9087714,434,-1305,-1010,-1490,-295,-26,419,37,-121
1,9087723,427,-1308,-1012,-1481,-293,-23,419,37,-121
1,9087729,427,-1308,-1012,-1481,-293,-23,419,37,-121
1,9087735,427,-1308,-1012,-1481,-293,-23,419,37,-121
1,9087741,427,-1308,-1012,-1481,-293,-23,419,37,-121
1,9087749,430,-1311,-1006,-1485,-302,-25,419,37,-121
1,9087754,430,-1311,-1006,-1485,-302,-25,419,37,-121
1,9087759,430,-1311,-1006,-1485,-302,-25,419,37,-121
1,9087764,426,-1304,-1002,-1480,-299,-25,425,53,-125
1,9087770,426,-1304,-1002,-1480,-299,-25,425,53,-125
1,9087774,426,-1304,-1002,-1480,-299,-25,425,53,-125
1,9087779,426,-1304,-1002,-1480,-299,-25,425,53,-125
1,9087785,430,-1304,-1005,-1469,-294,-28,425,53,-125
1,9087793,430,-1304,-1005,-1469,-294,-28,425,53,-125
1,9087801,430,-1304,-1005,-1469,-294,-28,425,53,-125
1,9087807,426,-1303,-1007,-1464,-301,-26,425,53,-125
1,9087816,426,-1303,-1007,-1464,-301,-26,425,53,-125
1,9087822,433,-1306,-1009,-1470,-295,-33,425,53,-125
1,9087832,433,-1306,-1009,-1470,-295,-33,425,53,-125
1,9087838,433,-1306,-1009,-1470,-295,-33,425,53,-125
1,9087845,434,-1303,-998,-1463,-290,-30,425,53,-125
1,9087851,434,-1303,-998,-1463,-290,-30,425,53,-125
1,9087859,434,-1303,-998,-1463,-290,-30,425,53,-125
1,9087866,433,-1301,-1012,-1461,-292,-30,425,53,-125
1,9087873,433,-1301,-1012,-1461,-292,-30,425,53,-125
1,9087879,433,-1301,-1012,-1461,-292,-30,425,53,-125
1,9087886,432,-1305,-1010,-1453,-301,-28,427,49,-129
1,9087893,432,-1305,-1010,-1453,-301,-28,427,49,-129
1,9087900,432,-1305,-1010,-1453,-301,-28,427,49,-129
1,9087906,429,-1304,-1001,-1438,-299,-29,427,49,-129
1,9087915,429,-1304,-1001,-1438,-299,-29,427,49,-129
1,9087923,419,-1301,-1016,-1422,-296,-27,427,49,-129
1,9087929,419,-1301,-1016,-1422,-296,-27,427,49,-129
1,9087936,419,-1301,-1016,-1422,-296,-27,427,49,-129
1,9087944,422,-1299,-1007,-1402,-301,-27,427,49,-129
1,9087950,422,-1299,-1007,-1402,-301,-27,427,49,-129
1,9087958,422,-1299,-1007,-1402,-301,-27,427,49,-129
1,9087966,428,-1309,-1009,-1386,-302,-29,427,49,-129
1,9087974,428,-1309,-1009,-1386,-302,-29,427,49,-129
1,9087982,428,-1301,-1012,-1371,-299,-33,427,49,-129
1,9087988,428,-1301,-1012,-1371,-299,-33,427,49,-129
1,9087996,428,-1301,-1012,-1371,-299,-33,427,49,-129
1,9088004,429,-1305,-1003,-1363,-299,-34,427,49,-129
1,9088011,429,-1305,-1003,-1363,-299,-34,427,49,-129
1,9088018,429,-1305,-1003,-1363,-299,-34,427,49,-129
1,9088025,433,-1300,-1001,-1349,-296,-27,427,49,-129
1,9088034,433,-1300,-1001,-1349,-296,-27,427,49,-129
1,9088041,433,-1300,-1001,-1349,-296,-27,427,49,-129
1,9088049,433,-1305,-999,-1340,-292,-31,427,49,-129
1,9088056,433,-1305,-999,-1340,-292,-31,427,49,-129
1,9088062,424,-1306,-995,-1325,-301,-28,427,49,-129
1,9088069,424,-1306,-995,-1325,-301,-28,427,49,-129
1,9088077,424,-1306,-995,-1325,-301,-28,427,49,-129
1,9088084,426,-1311,-1013,-1321,-301,-29,427,49,-129
1,9088092,426,-1311,-1013,-1321,-301,-29,427,49,-129
1,9088097,426,-1311,-1013,-1321,-301,-29,427,49,-129
1,9088102,422,-1306,-993,-1317,-299,-26,427,49,-129
1,9088108,422,-1306,-993,-1317,-299,-26,427,49,-129
1,9088112,422,-1306,-993,-1317,-299,-26,427,49,-129
1,9088118,422,-1306,-993,-1317,-299,-26,427,49,-129
1,9088123,428,-1309,-983,-1316,-294,-26,427,49,-129
1,9088129,428,-1309,-983,-1316,-294,-26,427,49,-129
1,9088134,428,-1309,-983,-1316,-294,-26,427,49,-129
1,9088140,428,-1309,-983,-1316,-294,-26,427,49,-129
1,9088147,429,-1314,-986,-1327,-299,-27,425,45,-121
1,9088154,429,-1314,-986,-1327,-299,-27,425,45,-121
1,9088161,429,-1314,-986,-1327,-299,-27,425,45,-121
1,9088167,430,-1316,-998,-1328,-296,-29,425,45,-121
1,9088175,430,-1316,-998,-1328,-296,-29,425,45,-121
1,9088183,426,-1312,-991,-1329,-301,-37,425,45,-121
1,9088190,426,-1312,-991,-1329,-301,-37,425,45,-121
1,9088196,426,-1312,-991,-1329,-301,-37,425,45,-121
1,9088203,438,-1313,-978,-1350,-302,-21,425,45,-121
1,9088211,438,-1313,-978,-1350,-302,-21,425,45,-121
1,9088218,438,-1313,-978,-1350,-302,-21,425,45,-121
1,9088223,424,-1311,-980,-1388,-294,-30,425,45,-121
1,9088229,424,-1311,-980,-1388,-294,-30,425,45,-121
1,9088238,424,-1311,-980,-1388,-294,-30,425,45,-121
1,9088246,432,-1302,-994,-1394,-290,-30,425,45,-121
1,9088259,432,-1302,-994,-1394,-290,-30,425,45,-121
1,9088273,424,-1305,-1001,-1386,-294,-21,425,47,-123
1,9088286,427,-1305,-1003,-1372,-301,-27,425,47,-123
1,9088296,427,-1305,-1003,-1372,-301,-27,425,47,-123
1,9088309,423,-1308,-997,-1363,-302,-28,425,47,-123
1,9088323,434,-1302,-984,-1347,-293,-27,425,47,-123
1,9088337,434,-1302,-984,-1347,-293,-27,425,47,-123
1,9088347,434,-1305,-980,-1341,-300,-29,425,47,-123
1,9088359,434,-1305,-980,-1341,-300,-29,425,47,-123
1,9088371,433,-1311,-993,-1331,-302,-28,425,47,-123
1,9088384,422,-1307,-1003,-1307,-297,-24,422,40,-126
1,9088396,422,-1307,-1003,-1307,-297,-24,422,40,-126
1,9088407,429,-1309,-1001,-1290,-300,-24,422,40,-126
1,9088415,429,-1309,-1001,-1290,-300,-24,422,40,-126
1,9088428,430,-1304,-984,-1266,-295,-25,422,40,-126
1,9088441,430,-1304,-984,-1266,-295,-25,422,40,-126
1,9088454,439,-1308,-992,-1244,-302,-22,422,40,-126
1,9088463,429,-1308,-987,-1206,-299,-23,422,40,-126
1,9088476,429,-1308,-987,-1206,-299,-23,422,40,-126
1,9088490,433,-1313,-985,-1178,-293,-18,422,40,-126
1,9088503,424,-1309,-995,-1165,-296,-20,424,52,-132
1,9088514,424,-1309,-995,-1165,-296,-20,424,52,-132
1,9088527,422,-1311,-974,-1163,-301,-23,424,52,-132
1,9088540,422,-1311,-974,-1163,-301,-23,424,52,-132
1,9088553,423,-1312,-983,-1142,-300,-27,424,52,-132
1,9088564,425,-1312,-977,-1136,-300,-25,424,52,-132
1,9088577,425,-1312,-977,-1136,-300,-25,424,52,-132
1,9088589,429,-1311,-965,-1112,-295,-28,424,52,-132
1,9088603,431,-1325,-960,-1106,-296,-23,424,52,-132
1,9088614,431,-1325,-960,-1106,-296,-23,424,52,-132
1,9088626,435,-1329,-952,-1130,-295,-29,424,52,-132
1,9088638,435,-1329,-952,-1130,-295,-29,424,52,-132
1,9088652,433,-1317,-954,-1172,-298,-23,426,50,-124
1,9088663,430,-1317,-960,-1218,-297,-26,426,50,-124
1,9088677,430,-1317,-960,-1218,-297,-26,426,50,-124
1,9088690,430,-1323,-934,-1239,-296,-26,426,50,-124
1,9088704,423,-1319,-960,-1258,-294,-27,426,50,-124
1,9088717,423,-1319,-960,-1258,-294,-27,426,50,-124
1,9088731,420,-1316,-974,-1266,-296,-23,426,50,-124
1,9088742,420,-1316,-974,-1266,-296,-23,426,50,-124
1,9088752,423,-1313,-960,-1266,-302,-29,426,50,-124
1,9088760,423,-1313,-960,-1266,-302,-29,426,50,-124
1,9088769,431,-1316,-955,-1259,-303,-22,428,52,-116
1,9088776,431,-1316,-955,-1259,-303,-22,428,52,-116
1,9088787,425,-1317,-955,-1246,-302,-25,428,52,-116
1,9088797,425,-1317,-955,-1246,-302,-25,428,52,-116
1,9088809,428,-1314,-958,-1242,-294,-25,428,52,-116
1,9088824,429,-1314,-957,-1227,-298,-23,428,52,-116
1,9088833,429,-1314,-957,-1227,-298,-23,428,52,-116
1,9088845,424,-1317,-943,-1220,-298,-20,428,52,-116
1,9088858,424,-1317,-943,-1220,-298,-20,428,52,-116
1,9088870,428,-1316,-942,-1212,-298,-30,428,52,-116
1,9088882,428,-1316,-942,-1212,-298,-30,428,52,-116
1,9088897,426,-1320,-952,-1201,-300,-26,428,44,-120
1,9088909,421,-1321,-937,-1200,-302,-27,428,44,-120
1,9088918,421,-1321,-937,-1200,-302,-27,428,44,-120
1,9088929,424,-1321,-946,-1199,-296,-34,428,44,-120
1,9088944,427,-1319,-941,-1198,-293,-28,428,44,-120
1,9088954,427,-1319,-941,-1198,-293,-28,428,44,-120
1,9088965,432,-1314,-939,-1196,-295,-28,428,44,-120
1,9088978,432,-1314,-939,-1196,-295,-28,428,44,-120
1,9088994,434,-1315,-944,-1180,-299,-30,428,44,-120
1,9089005,431,-1313,-941,-1153,-306,-27,432,46,-118
1,9089017,431,-1313,-941,-1153,-306,-27,432,46,-118
1,9089031,425,-1315,-944,-1134,-295,-30,432,46,-118
1,9089044,421,-1319,-941,-1113,-292,-29,432,46,-118
1,9089056,421,-1319,-941,-1113,-292,-29,432,46,-118
1,9089067,419,-1323,-937,-1103,-300,-21,432,46,-118
1,9089080,419,-1323,-937,-1103,-300,-21,432,46,-118
1,9089093,419,-1323,-937,-1103,-300,-21,432,46,-118
1,9089101,419,-1323,-937,-1103,-300,-21,432,46,-118
1,9089110,427,-1322,-930,-1105,-299,-27,432,46,-118
1,9089118,427,-1322,-930,-1105,-299,-27,432,46,-118
1,9089126,434,-1320,-920,-1101,-300,-28,432,46,-118
1,9089135,434,-1320,-920,-1101,-300,-28,432,46,-118
1,9089142,434,-1322,-917,-1091,-298,-26,433,49,-121
1,9089152,434,-1322,-917,-1091,-298,-26,433,49,-121
1,9089159,434,-1322,-917,-1091,-298,-26,433,49,-121
1,9089168,427,-1320,-916,-1084,-295,-27,433,49,-121
1,9089176,427,-1320,-916,-1084,-295,-27,433,49,-121
1,9089185,412,-1327,-919,-1082,-294,-30,433,49,-121
1,9089196,412,-1327,-919,-1082,-294,-30,433,49,-121
1,9089211,410,-1329,-911,-1085,-287,-24,433,49,-121
1,9089220,410,-1329,-911,-1085,-287,-24,433,49,-121
1,9089231,425,-1331,-907,-1116,-293,-33,433,49,-121
1,9089243,422,-1327,-905,-1158,-301,-31,433,49,-121
1,9089250,422,-1327,-905,-1158,-301,-31,433,49,-121
1,9089257,422,-1327,-905,-1158,-301,-31,433,49,-121
1,9089264,436,-1322,-894,-1181,-303,-29,428,46,-120
1,9089272,436,-1322,-894,-1181,-303,-29,428,46,-120
1,9089280,436,-1322,-894,-1181,-303,-29,428,46,-120
1,9089285,425,-1326,-897,-1180,-300,-26,428,46,-120
1,9089291,425,-1326,-897,-1180,-300,-26,428,46,-120
1,9089298,425,-1326,-897,-1180,-300,-26,428,46,-120
1,9089306,427,-1323,-917,-1173,-302,-26,428,46,-120
1,9089313,427,-1323,-917,-1173,-302,-26,428,46,-120
1,9089318,427,-1323,-917,-1173,-302,-26,428,46,-120
1,9089327,418,-1327,-915,-1160,-298,-20,428,46,-120
1,9089334,418,-1327,-915,-1160,-298,-20,428,46,-120
1,9089341,418,-1327,-915,-1160,-298,-20,428,46,-120
1,9089347,420,-1328,-898,-1157,-302,-24,428,46,-120
1,9089355,420,-1328,-898,-1157,-302,-24,428,46,-120
1,9089363,417,-1330,-895,-1158,-292,-25,428,46,-120
1,9089370,417,-1330,-895,-1158,-292,-25,428,46,-120
1,9089377,417,-1330,-895,-1158,-292,-25,428,46,-120
1,9089385,421,-1333,-891,-1163,-289,-20,435,47,-119
1,9089391,421,-1333,-891,-1163,-289,-20,435,47,-119
1,9089398,421,-1333,-891,-1163,-289,-20,435,47,-119
1,9089404,421,-1326,-911,-1172,-296,-22,435,47,-119
1,9089411,421,-1326,-911,-1172,-296,-22,435,47,-119
1,9089417,421,-1326,-911,-1172,-296,-22,435,47,-119
1,9089424,426,-1332,-893,-1176,-300,-25,435,47,-119
1,9089432,426,-1332,-893,-1176,-300,-25,435,47,-119
1,9089440,426,-1332,-893,-1176,-300,-25,435,47,-119
1,9089447,428,-1325,-894,-1171,-300,-28,435,47,-119
1,9089453,428,-1325,-894,-1171,-300,-28,435,47,-119
1,9089458,428,-1325,-894,-1171,-300,-28,435,47,-119
1,9089463,434,-1326,-900,-1176,-299,-31,435,47,-119
1,9089468,434,-1326,-900,-1176,-299,-31,435,47,-119
1,9089475,434,-1326,-900,-1176,-299,-31,435,47,-119
1,9089482,425,-1329,-906,-1161,-298,-25,435,47,-119
1,9089491,425,-1329,-906,-1161,-298,-25,435,47,-119
1,9089498,425,-1329,-906,-1161,-298,-25,435,47,-119
1,9089504,432,-1327,-891,-1145,-295,-22,429,49,-121
1,9089510,432,-1327,-891,-1145,-295,-22,429,49,-121
1,9089517,432,-1327,-891,-1145,-295,-22,429,49,-121
1,9089524,422,-1327,-905,-1110,-299,-21,429,49,-121
1,9089531,422,-1327,-905,-1110,-299,-21,429,49,-121
1,9089540,422,-1327,-905,-1110,-299,-21,429,49,-121
1,9089547,434,-1326,-889,-1067,-303,-27,429,49,-121
1,9089555,434,-1326,-889,-1067,-303,-27,429,49,-121
1,9089561,434,-1326,-889,-1067,-303,-27,429,49,-121
1,9089567,431,-1335,-869,-1046,-297,-28,429,49,-121
1,9089574,431,-1335,-869,-1046,-297,-28,429,49,-121
1,9089583,420,-1332,-892,-1051,-290,-24,429,49,-121
1,9089590,420,-1332,-892,-1051,-290,-24,429,49,-121
1,9089597,420,-1332,-892,-1051,-290,-24,429,49,-121
1,9089603,427,-1335,-865,-1063,-295,-29,429,49,-121
1,9089610,427,-1335,-865,-1063,-295,-29,429,49,-121
1,9089616,427,-1335,-865,-1063,-295,-29,429,49,-121
1,9089624,420,-1331,-883,-1067,-300,-28,437,47,-117
1,9089631,420,-1331,-883,-1067,-300,-28,437,47,-117
1,9089637,420,-1331,-883,-1067,-300,-28,437,47,-117
1,9089645,419,-1337,-872,-1071,-301,-21,437,47,-117
1,9089651,419,-1337,-872,-1071,-301,-21,437,47,-117
1,9089658,419,-1337,-872,-1071,-301,-21,437,47,-117
1,9089666,423,-1336,-848,-1077,-302,-25,437,47,-117
1,9089674,423,-1336,-848,-1077,-302,-25,437,47,-117
1,9089681,423,-1336,-848,-1077,-302,-25,437,47,-117
1,9089688,420,-1333,-883,-1078,-297,-20,437,47,-117
1,9089695,420,-1333,-883,-1078,-297,-20,437,47,-117
1,9089701,420,-1333,-883,-1078,-297,-20,437,47,-117
1,9089709,437,-1336,-855,-1071,-292,-31,437,47,-117
1,9089717,437,-1336,-855,-1071,-292,-31,437,47,-117
1,9089723,418,-1345,-849,-1085,-298,-35,437,47,-117
1,9089729,418,-1345,-849,-1085,-298,-35,437,47,-117
1,9089736,418,-1345,-849,-1085,-298,-35,437,47,-117
1,9089743,422,-1338,-861,-1125,-292,-23,437,47,-117
1,9089750,422,-1338,-861,-1125,-292,-23,437,47,-117
1,9089755,422,-1338,-861,-1125,-292,-23,437,47,-117
1,9089760,422,-1338,-861,-1125,-292,-23,437,47,-117
1,9089765,427,-1346,-838,-1166,-311,-25,441,43,-113
1,9089770,427,-1346,-838,-1166,-311,-25,441,43,-113
1,9089775,427,-1346,-838,-1166,-311,-25,441,43,-113
1,9089780,427,-1346,-838,-1166,-311,-25,441,43,-113
1,9089785,414,-1335,-859,-1186,-305,-19,441,43,-113
1,9089794,414,-1335,-859,-1186,-305,-19,441,43,-113
1,9089801,414,-1335,-859,-1186,-305,-19,441,43,-113
1,9089809,425,-1338,-848,-1187,-298,-19,441,43,-113
1,9089816,425,-1338,-848,-1187,-298,-19,441,43,-113
1,9089822,425,-1338,-848,-1187,-298,-19,441,43,-113
1,9089828,419,-1338,-876,-1180,-303,-27,441,43,-113
1,9089835,419,-1338,-876,-1180,-303,-27,441,43,-113
1,9089843,426,-1333,-852,-1171,-305,-21,441,43,-113
1,9089850,426,-1333,-852,-1171,-305,-21,441,43,-113
1,9089858,426,-1333,-852,-1171,-305,-21,441,43,-113
1,9089866,416,-1340,-837,-1164,-296,-22,441,43,-113
1,9089872,416,-1340,-837,-1164,-296,-22,441,43,-113
1,9089880,416,-1340,-837,-1164,-296,-22,441,43,-113
1,9089888,431,-1337,-842,-1184,-302,-21,432,52,-100
1,9089894,431,-1337,-842,-1184,-302,-21,432,52,-100
1,9089901,431,-1337,-842,-1184,-302,-21,432,52,-100
1,9089908,411,-1342,-852,-1203,-302,-32,432,52,-100
1,9089915,411,-1342,-852,-1203,-302,-32,432,52,-100
1,9089923,411,-1342,-852,-1203,-302,-32,432,52,-100
1,9089930,421,-1334,-855,-1221,-301,-31,432,52,-100
1,9089938,421,-1334,-855,-1221,-301,-31,432,52,-100
1,9089944,423,-1334,-826,-1208,-298,-26,432,52,-100
1,9089952,423,-1334,-826,-1208,-298,-26,432,52,-100
1,9089959,423,-1334,-826,-1208,-298,-26,432,52,-100
1,9089967,416,-1343,-863,-1210,-299,-35,432,52,-100
1,9089972,416,-1343,-863,-1210,-299,-35,432,52,-100
1,9089980,416,-1343,-863,-1210,-299,-35,432,52,-100
1,9089988,432,-1329,-827,-1199,-301,-36,432,52,-100
1,9089995,432,-1329,-827,-1199,-301,-36,432,52,-100
1,9090002,432,-1329,-827,-1199,-301,-36,432,52,-100
1,9090008,427,-1334,-840,-1181,-301,-33,429,45,-117
1,9090013,427,-1334,-840,-1181,-301,-33,429,45,-117
1,9090018,427,-1334,-840,-1181,-301,-33,429,45,-117
1,9090023,411,-1336,-881,-1160,-305,-32,429,45,-117
1,9090031,411,-1336,-881,-1160,-305,-32,429,45,-117
1,9090038,411,-1336,-881,-1160,-305,-32,429,45,-117
1,9090044,429,-1330,-824,-1136,-299,-31,429,45,-117
1,9090052,429,-1330,-824,-1136,-299,-31,429,45,-117
1,9090058,429,-1330,-824,-1136,-299,-31,429,45,-117
1,9090065,425,-1339,-838,-1116,-295,-27,429,45,-117
1,9090071,425,-1339,-838,-1116,-295,-27,429,45,-117
1,9090078,425,-1339,-838,-1116,-295,-27,429,45,-117
1,9090085,420,-1339,-866,-1087,-303,-22,429,45,-117
1,9090094,420,-1339,-866,-1087,-303,-22,429,45,-117
1,9090099,420,-1339,-866,-1087,-303,-22,429,45,-117
1,9090104,424,-1342,-793,-1076,-299,-24,429,45,-117
1,9090109,424,-1342,-793,-1076,-299,-24,429,45,-117
1,9090114,424,-1342,-793,-1076,-299,-24,429,45,-117
1,9090119,424,-1342,-793,-1076,-299,-24,429,45,-117
1,9090125,422,-1338,-845,-1089,-300,-27,427,49,-107
1,9090130,422,-1338,-845,-1089,-300,-27,427,49,-107
1,9090136,422,-1338,-845,-1089,-300,-27,427,49,-107
1,9090144,423,-1341,-834,-1088,-294,-25,427,49,-107
1,9090151,423,-1341,-834,-1088,-294,-25,427,49,-107
1,9090157,423,-1341,-834,-1088,-294,-25,427,49,-107
1,9090165,430,-1338,-797,-1095,-299,-26,427,49,-107
1,9090172,430,-1338,-797,-1095,-299,-26,427,49,-107
1,9090180,430,-1338,-797,-1095,-299,-26,427,49,-107
1,9090187,429,-1342,-837,-1089,-297,-16,427,49,-107
1,9090194,429,-1342,-837,-1089,-297,-16,427,49,-107
1,9090201,429,-1342,-837,-1089,-297,-16,427,49,-107
1,9090208,427,-1350,-807,-1069,-299,-26,427,49,-107
1,9090215,427,-1350,-807,-1069,-299,-26,427,49,-107
1,9090224,429,-1348,-803,-1067,-301,-23,427,49,-107
1,9090231,429,-1348,-803,-1067,-301,-23,427,49,-107
1,9090237,429,-1348,-803,-1067,-301,-23,427,49,-107
1,9090245,435,-1349,-833,-1065,-301,-26,427,49,-107
1,9090255,435,-1349,-833,-1065,-301,-26,427,49,-107
1,9090269,438,-1352,-790,-1075,-294,-27,432,50,-94
1,9090282,438,-1352,-790,-1075,-294,-27,432,50,-94
1,9090295,431,-1352,-800,-1096,-299,-28,432,50,-94
1,9090306,435,-1344,-818,-1108,-303,-26,432,50,-94
1,9090319,435,-1344,-818,-1108,-303,-26,432,50,-94
1,9090333,424,-1350,-789,-1114,-301,-19,432,50,-94
1,9090347,427,-1345,-806,-1112,-293,-25,432,50,-94
1,9090357,427,-1345,-806,-1112,-293,-25,432,50,-94
1,9090369,418,-1349,-803,-1109,-301,-25,432,50,-94
1,9090382,418,-1349,-803,-1109,-301,-25,432,50,-94
1,9090395,422,-1345,-796,-1123,-305,-28,434,46,-100
1,9090407,415,-1346,-802,-1144,-302,-29,434,46,-100
1,9090419,415,-1346,-802,-1144,-302,-29,434,46,-100
1,9090433,421,-1344,-786,-1156,-306,-28,434,46,-100
1,9090446,414,-1345,-798,-1167,-308,-30,434,46,-100
1,9090457,414,-1345,-798,-1167,-308,-30,434,46,-100
1,9090470,421,-1345,-802,-1168,-296,-28,434,46,-100
1,9090483,424,-1347,-778,-1162,-300,-27,434,46,-100
1,9090496,424,-1347,-778,-1162,-300,-27,434,46,-100
1,9090506,425,-1352,-785,-1161,-301,-27,440,52,-108
1,9090521,425,-1352,-785,-1161,-301,-27,440,52,-108
1,9090534,426,-1349,-788,-1154,-299,-27,440,52,-108
1,9090546,422,-1344,-783,-1151,-305,-29,440,52,-108
1,9090560,422,-1344,-783,-1151,-305,-29,440,52,-108
1,9090573,419,-1350,-789,-1153,-301,-34,440,52,-108
1,9090584,415,-1345,-774,-1163,-300,-34,440,52,-108
1,9090597,415,-1345,-774,-1163,-300,-34,440,52,-108
1,9090611,411,-1341,-781,-1159,-295,-35,440,52,-108
1,9090623,417,-1344,-790,-1149,-299,-23,433,49,-105
1,9090636,417,-1344,-790,-1149,-299,-23,433,49,-105
1,9090644,420,-1350,-761,-1141,-299,-32,433,49,-105
1,9090653,420,-1350,-761,-1141,-299,-32,433,49,-105
1,9090661,420,-1350,-761,-1141,-299,-32,433,49,-105
1,9090670,423,-1344,-772,-1136,-301,-28,433,49,-105
1,9090678,423,-1344,-772,-1136,-301,-28,433,49,-105
1,9090690,422,-1343,-782,-1115,-294,-33,433,49,-105
1,9090702,422,-1343,-782,-1115,-294,-33,433,49,-105
1,9090715,420,-1346,-770,-1102,-297,-31,433,49,-105
1,9090727,420,-1346,-770,-1102,-297,-31,433,49,-105
1,9090740,420,-1346,-770,-1102,-297,-31,433,49,-105
1,9090752,418,-1345,-762,-1089,-302,-28,433,49,-105
1,9090760,418,-1345,-762,-1089,-302,-28,433,49,-105
1,9090768,416,-1345,-773,-1085,-300,-26,433,45,-97
1,9090777,416,-1345,-773,-1085,-300,-26,433,45,-97
1,9090790,419,-1351,-764,-1073,-297,-32,433,45,-97
1,9090802,419,-1351,-764,-1073,-297,-32,433,45,-97
1,9090814,417,-1354,-752,-1081,-300,-31,433,45,-97
1,9090828,421,-1356,-760,-1088,-294,-32,433,45,-97
1,9090841,421,-1356,-760,-1088,-294,-32,433,45,-97
1,9090855,426,-1352,-746,-1095,-301,-24,433,45,-97
1,9090870,426,-1352,-746,-1095,-301,-24,433,45,-97
1,9090883,427,-1349,-741,-1104,-303,-28,441,45,-101
1,9090893,427,-1349,-741,-1104,-303,-28,441,45,-101
1,9090907,418,-1354,-737,-1121,-298,-28,441,45,-101
1,9090920,418,-1354,-737,-1121,-298,-28,441,45,-101
1,9090934,420,-1353,-740,-1138,-297,-24,441,45,-101
1,9090944,419,-1355,-736,-1155,-302,-30,441,45,-101
1,9090956,419,-1355,-736,-1155,-302,-30,441,45,-101
1,9090967,420,-1350,-735,-1161,-302,-31,441,45,-101
1,9090980,420,-1350,-735,-1161,-302,-31,441,45,-101
1,9090992,420,-1353,-747,-1157,-299,-30,441,45,-101
1,9091007,416,-1355,-738,-1152,-302,-21,438,50,-100
1,9091019,416,-1355,-738,-1152,-302,-21,438,50,-100
1,9091033,415,-1353,-723,-1144,-305,-33,438,50,-100
1,9091046,420,-1356,-732,-1148,-298,-34,438,50,-100
1,9091059,420,-1356,-732,-1148,-298,-34,438,50,-100
1,9091072,421,-1353,-738,-1153,-300,-33,438,50,-100
1,9091086,418,-1353,-732,-1152,-297,-35,438,50,-100
1,9091096,418,-1353,-732,-1152,-297,-35,438,50,-100
1,9091104,420,-1351,-720,-1160,-303,-33,438,50,-100
1,9091112,420,-1351,-720,-1160,-303,-33,438,50,-100
1,9091122,420,-1351,-720,-1160,-303,-33,438,50,-100
1,9091130,420,-1351,-724,-1154,-293,-30,444,52,-104
1,9091138,420,-1351,-724,-1154,-293,-30,444,52,-104
1,9091146,423,-1352,-734,-1147,-296,-30,444,52,-104
1,9091154,423,-1352,-734,-1147,-296,-30,444,52,-104
1,9091163,423,-1352,-734,-1147,-296,-30,444,52,-104
1,9091171,420,-1354,-730,-1129,-303,-28,444,52,-104
1,9091179,420,-1354,-730,-1129,-303,-28,444,52,-104
1,9091187,414,-1352,-715,-1107,-300,-32,444,52,-104
1,9091196,414,-1352,-715,-1107,-300,-32,444,52,-104
1,9091206,416,-1353,-720,-1084,-300,-29,444,52,-104
1,9091214,416,-1353,-720,-1084,-300,-29,444,52,-104
1,9091222,416,-1353,-720,-1084,-300,-29,444,52,-104
1,9091231,418,-1348,-724,-1071,-295,-34,444,52,-104
1,9091239,418,-1348,-724,-1071,-295,-34,444,52,-104
1,9091249,416,-1353,-717,-1050,-299,-29,437,47,-97
1,9091256,416,-1353,-717,-1050,-299,-29,437,47,-97
1,9091261,416,-1353,-717,-1050,-299,-29,437,47,-97
1,9091267,422,-1357,-695,-1049,-300,-29,437,47,-97
1,9091272,422,-1357,-695,-1049,-300,-29,437,47,-97
1,9091278,422,-1357,-695,-1049,-300,-29,437,47,-97
1,9091284,422,-1358,-712,-1061,-301,-30,437,47,-97
1,9091290,422,-1358,-712,-1061,-301,-30,437,47,-97
1,9091296,422,-1358,-712,-1061,-301,-30,437,47,-97
1,9091303,421,-1357,-710,-1073,-297,-30,437,47,-97
1,9091311,421,-1357,-710,-1073,-297,-30,437,47,-97
1,9091316,421,-1357,-710,-1073,-297,-30,437,47,-97
1,9091321,421,-1357,-710,-1073,-297,-30,437,47,-97
1,9091326,417,-1352,-713,-1085,-299,-35,437,47,-97
1,9091334,417,-1352,-713,-1085,-299,-35,437,47,-97
1,9091340,417,-1352,-713,-1085,-299,-35,437,47,-97
1,9091347,417,-1352,-713,-1085,-299,-35,437,47,-97
1,9091354,417,-1352,-713,-1085,-299,-35,437,47,-97
1,9091361,417,-1352,-713,-1085,-299,-35,437,47,-97
1,9091368,418,-1358,-694,-1079,-304,-33,437,47,-97
1,9091375,418,-1358,-694,-1079,-304,-33,437,47,-97
1,9091382,418,-1358,-694,-1079,-304,-33,437,47,-97
1,9091390,419,-1358,-700,-1088,-309,-28,437,45,-97
1,9091397,419,-1358,-700,-1088,-309,-28,437,45,-97
1,9091404,417,-1360,-673,-1113,-308,-29,437,45,-97
1,9091412,417,-1360,-673,-1113,-308,-29,437,45,-97
1,9091419,417,-1360,-673,-1113,-308,-29,437,45,-97
1,9091426,417,-1353,-687,-1121,-299,-29,437,45,-97
1,9091434,417,-1353,-687,-1121,-299,-29,437,45,-97
1,9091441,417,-1353,-687,-1121,-299,-29,437,45,-97
1,9091448,418,-1357,-695,-1117,-294,-30,437,45,-97
1,9091456,418,-1357,-695,-1117,-294,-30,437,45,-97
1,9091463,418,-1357,-695,-1117,-294,-30,437,45,-97
1,9091470,423,-1365,-690,-1125,-301,-32,437,45,-97
1,9091478,423,-1365,-690,-1125,-301,-32,437,45,-97
1,9091484,423,-1360,-676,-1140,-300,-36,437,45,-97
1,9091491,423,-1360,-676,-1140,-300,-36,437,45,-97
1,9091499,423,-1360,-676,-1140,-300,-36,437,45,-97
1,9091506,416,-1357,-676,-1165,-301,-32,436,54,-94
1,9091512,416,-1357,-676,-1165,-301,-32,436,54,-94
1,9091520,416,-1357,-676,-1165,-301,-32,436,54,-94
1,9091528,419,-1359,-696,-1158,-301,-27,436,54,-94
1,9091536,419,-1359,-696,-1158,-301,-27,436,54,-94
1,9091544,417,-1359,-683,-1152,-300,-29,436,54,-94
1,9091551,417,-1359,-683,-1152,-300,-29,436,54,-94
1,9091557,417,-1359,-683,-1152,-300,-29,436,54,-94
1,9091564,421,-1358,-660,-1157,-304,-42,436,54,-94
1,9091571,421,-1358,-660,-1157,-304,-42,436,54,-94
1,9091579,421,-1358,-660,-1157,-304,-42,436,54,-94
1,9091586,420,-1357,-683,-1161,-299,-30,436,54,-94
1,9091592,420,-1357,-683,-1161,-299,-30,436,54,-94
1,9091597,420,-1357,-683,-1161,-299,-30,436,54,-94
1,9091604,420,-1359,-683,-1161,-298,-28,436,54,-94
1,9091611,420,-1359,-683,-1161,-298,-28,436,54,-94
1,9091619,420,-1359,-683,-1161,-298,-28,436,54,-94
1,9091625,417,-1362,-668,-1167,-305,-34,440,44,-90
1,9091633,417,-1362,-668,-1167,-305,-34,440,44,-90
1,9091639,417,-1362,-668,-1167,-305,-34,440,44,-90
1,9091645,414,-1356,-668,-1168,-305,-25,440,44,-90
1,9091653,414,-1356,-668,-1168,-305,-25,440,44,-90
1,9091660,414,-1356,-668,-1168,-305,-25,440,44,-90
1,9091668,421,-1352,-684,-1154,-308,-37,440,44,-90
1,9091677,421,-1352,-684,-1154,-308,-37,440,44,-90
1,9091682,421,-1352,-684,-1154,-308,-37,440,44,-90
1,9091689,416,-1361,-688,-1146,-304,-33,440,44,-90
1,9091696,416,-1361,-688,-1146,-304,-33,440,44,-90
1,9091703,418,-1356,-653,-1129,-305,-35,440,44,-90
1,9091710,418,-1356,-653,-1129,-305,-35,440,44,-90
1,9091719,418,-1356,-653,-1129,-305,-35,440,44,-90
1,9091726,413,-1362,-656,-1110,-305,-32,440,44,-90
1,9091733,413,-1362,-656,-1110,-305,-32,440,44,-90
1,9091739,413,-1362,-656,-1110,-305,-32,440,44,-90
1,9091747,422,-1363,-677,-1119,-302,-34,443,43,-83
1,9091752,422,-1363,-677,-1119,-302,-34,443,43,-83
1,9091758,422,-1363,-677,-1119,-302,-34,443,43,-83
1,9091764,415,-1359,-656,-1127,-303,-24,443,43,-83
1,9091769,415,-1359,-656,-1127,-303,-24,443,43,-83
1,9091773,415,-1359,-656,-1127,-303,-24,443,43,-83
1,9091780,415,-1359,-656,-1127,-303,-24,443,43,-83
1,9091787,420,-1355,-654,-1132,-303,-32,443,43,-83
1,9091794,420,-1355,-654,-1132,-303,-32,443,43,-83
1,9091802,420,-1355,-654,-1132,-303,-32,443,43,-83
1,9091808,415,-1357,-643,-1113,-303,-30,443,43,-83
1,9091816,415,-1357,-643,-1113,-303,-30,443,43,-83
1,9091823,415,-1357,-643,-1113,-303,-30,443,43,-83
1,9091829,420,-1360,-674,-1097,-302,-35,443,43,-83
1,9091837,420,-1360,-674,-1097,-302,-35,443,43,-83
1,9091845,417,-1359,-651,-1089,-304,-28,443,43,-83
1,9091852,417,-1359,-651,-1089,-304,-28,443,43,-83
1,9091859,417,-1359,-651,-1089,-304,-28,443,43,-83
1,9091865,414,-1362,-643,-1098,-302,-37,443,43,-83
1,9091871,414,-1362,-643,-1098,-302,-37,443,43,-83
1,9091876,414,-1362,-643,-1098,-302,-37,443,43,-83
1,9091881,414,-1362,-643,-1098,-302,-37,443,43,-83
1,9091889,418,-1360,-648,-1108,-303,-35,435,51,-87
1,9091897,418,-1360,-648,-1108,-303,-35,435,51,-87
1,9091904,415,-1358,-636,-1109,-306,-31,435,51,-87
1,9091910,415,-1358,-636,-1109,-306,-31,435,51,-87
1,9091915,415,-1358,-636,-1109,-306,-31,435,51,-87
1,9091922,415,-1358,-636,-1109,-306,-31,435,51,-87
1,9091929,414,-1362,-646,-1104,-300,-27,435,51,-87
1,9091937,414,-1362,-646,-1104,-300,-27,435,51,-87
1,9091943,414,-1362,-646,-1104,-300,-27,435,51,-87
1,9091950,418,-1361,-638,-1099,-304,-36,435,51,-87
1,9091958,418,-1361,-638,-1099,-304,-36,435,51,-87
1,9091968,417,-1359,-643,-1092,-300,-34,435,51,-87
1,9091973,417,-1359,-643,-1092,-300,-34,435,51,-87
1,9091979,417,-1359,-643,-1092,-300,-34,435,51,-87
1,9091986,420,-1362,-649,-1087,-301,-33,435,51,-87
1,9091992,420,-1362,-649,-1087,-301,-33,435,51,-87
1,9091999,420,-1362,-649,-1087,-301,-33,435,51,-87
1,9092006,417,-1358,-616,-1077,-304,-35,434,50,-86
1,9092014,417,-1358,-616,-1077,-304,-35,434,50,-86
1,9092022,417,-1358,-616,-1077,-304,-35,434,50,-86
1,9092028,418,-1361,-630,-1074,-304,-27,434,50,-86
1,9092035,418,-1361,-630,-1074,-304,-27,434,50,-86
1,9092040,418,-1361,-630,-1074,-304,-27,434,50,-86
1,9092047,416,-1359,-638,-1074,-307,-31,434,50,-86
1,9092056,416,-1359,-638,-1074,-307,-31,434,50,-86
1,9092063,416,-1359,-638,-1074,-307,-31,434,50,-86
1,9092069,415,-1358,-614,-1073,-309,-40,434,50,-86
1,9092076,415,-1358,-614,-1073,-309,-40,434,50,-86
1,9092081,415,-1358,-614,-1073,-309,-40,434,50,-86
1,9092088,412,-1368,-599,-1072,-303,-37,434,50,-86
1,9092096,412,-1368,-599,-1072,-303,-37,434,50,-86
1,9092102,412,-1368,-599,-1072,-303,-37,434,50,-86
1,9092107,419,-1366,-640,-1092,-305,-36,434,50,-86
1,9092112,419,-1366,-640,-1092,-305,-36,434,50,-86
1,9092117,419,-1366,-640,-1092,-305,-36,434,50,-86
1,9092122,419,-1366,-640,-1092,-305,-36,434,50,-86
1,9092127,414,-1367,-611,-1124,-306,-29,444,48,-76
1,9092132,414,-1367,-611,-1124,-306,-29,444,48,-76
1,9092137,414,-1367,-611,-1124,-306,-29,444,48,-76
1,9092145,414,-1364,-616,-1149,-302,-27,444,48,-76
1,9092152,414,-1364,-616,-1149,-302,-27,444,48,-76
1,9092159,414,-1364,-616,-1149,-302,-27,444,48,-76
1,9092166,415,-1362,-608,-1140,-304,-30,444,48,-76
1,9092172,415,-1362,-608,-1140,-304,-30,444,48,-76
1,9092179,415,-1362,-608,-1140,-304,-30,444,48,-76
1,9092187,417,-1363,-623,-1141,-300,-37,444,48,-76
1,9092194,417,-1363,-623,-1141,-300,-37,444,48,-76
1,9092201,417,-1363,-623,-1141,-300,-37,444,48,-76
1,9092208,422,-1359,-624,-1134,-300,-33,444,48,-76
1,9092214,422,-1359,-624,-1134,-300,-33,444,48,-76
1,9092224,422,-1359,-624,-1134,-300,-33,444,48,-76
1,9092232,422,-1359,-624,-1134,-300,-33,444,48,-76
1,9092239,422,-1359,-624,-1134,-300,-33,444,48,-76
1,9092245,418,-1364,-598,-1129,-302,-39,435,47,-73
1,9092253,418,-1364,-598,-1129,-302,-39,435,47,-73
1,9092260,418,-1364,-598,-1129,-302,-39,435,47,-73
1,9092272,416,-1364,-600,-1125,-302,-34,435,47,-73
1,9092282,416,-1364,-600,-1125,-302,-34,435,47,-73
1,9092295,416,-1367,-604,-1123,-295,-40,435,47,-73
1,9092308,415,-1365,-594,-1137,-301,-33,435,47,-73
1,9092318,415,-1365,-594,-1137,-301,-33,435,47,-73
1,9092328,412,-1362,-592,-1155,-299,-34,435,47,-73
1,9092339,412,-1362,-592,-1155,-299,-34,435,47,-73
1,9092353,413,-1362,-598,-1171,-298,-40,435,47,-73
1,9092365,414,-1361,-602,-1170,-309,-43,435,47,-73
1,9092379,414,-1361,-602,-1170,-309,-43,435,47,-73
1,9092390,423,-1362,-589,-1163,-309,-32,435,51,-83
1,9092399,423,-1362,-589,-1163,-309,-32,435,51,-83
1,9092408,420,-1363,-583,-1159,-301,-35,435,51,-83
1,9092416,420,-1363,-583,-1159,-301,-35,435,51,-83
1,9092424,420,-1365,-595,-1170,-297,-37,435,51,-83
1,9092434,420,-1365,-595,-1170,-297,-37,435,51,-83
1,9092447,418,-1364,-583,-1176,-297,-32,435,51,-83
1,9092462,418,-1364,-583,-1176,-297,-32,435,51,-83
1,9092475,417,-1363,-592,-1178,-299,-36,435,51,-83
1,9092486,416,-1356,-598,-1176,-305,-39,435,51,-83
1,9092497,416,-1356,-598,-1176,-305,-39,435,51,-83
1,9092509,416,-1362,-581,-1161,-305,-38,432,54,-78
1,9092521,416,-1362,-581,-1161,-305,-38,432,54,-78
1,9092535,415,-1359,-586,-1145,-305,-38,432,54,-78
1,9092548,416,-1358,-590,-1126,-299,-38,432,54,-78
1,9092563,416,-1358,-590,-1126,-299,-38,432,54,-78
1,9092576,418,-1363,-590,-1099,-298,-32,432,54,-78
1,9092586,419,-1362,-575,-1093,-299,-36,432,54,-78
1,9092596,419,-1362,-575,-1093,-299,-36,432,54,-78
1,9092605,416,-1364,-575,-1091,-295,-31,432,54,-78
1,9092617,416,-1364,-575,-1091,-295,-31,432,54,-78
1,9092632,417,-1360,-577,-1086,-299,-33,444,56,-78
1,9092646,413,-1368,-553,-1089,-306,-27,444,56,-78
1,9092656,413,-1368,-553,-1089,-306,-27,444,56,-78
1,9092667,415,-1368,-559,-1113,-294,-33,444,56,-78
1,9092680,415,-1368,-559,-1113,-294,-33,444,56,-78
1,9092694,421,-1364,-573,-1114,-304,-31,444,56,-78
1,9092703,421,-1364,-573,-1114,-304,-31,444,56,-78
1,9092716,416,-1365,-563,-1123,-303,-35,444,56,-78
1,9092728,417,-1362,-560,-1116,-295,-36,444,56,-78
1,9092742,417,-1362,-560,-1116,-295,-36,444,56,-78
1,9092753,419,-1363,-556,-1115,-298,-36,443,51,-87
1,9092761,419,-1363,-556,-1115,-298,-36,443,51,-87
1,9092768,419,-1364,-561,-1118,-300,-43,443,51,-87
1,9092776,419,-1364,-561,-1118,-300,-43,443,51,-87
1,9092786,416,-1364,-558,-1121,-306,-39,443,51,-87
1,9092799,416,-1364,-558,-1121,-306,-39,443,51,-87
1,9092811,416,-1364,-546,-1125,-304,-40,443,51,-87
1,9092820,416,-1364,-546,-1125,-304,-40,443,51,-87
1,9092833,416,-1367,-544,-1142,-304,-38,443,51,-87
1,9092846,413,-1367,-551,-1157,-305,-45,443,51,-87
1,9092858,413,-1367,-551,-1157,-305,-45,443,51,-87
1,9092870,413,-1365,-545,-1169,-302,-43,446,52,-76
1,9092882,413,-1365,-545,-1169,-302,-43,446,52,-76
1,9092896,417,-1367,-540,-1179,-302,-39,446,52,-76
1,9092909,412,-1365,-540,-1184,-302,-37,446,52,-76
1,9092920,412,-1365,-540,-1184,-302,-37,446,52,-76
1,9092933,417,-1367,-540,-1186,-306,-39,446,52,-76
1,9092946,415,-1368,-539,-1195,-307,-38,446,52,-76
1,9092959,415,-1368,-539,-1195,-307,-38,446,52,-76
1,9092970,417,-1366,-532,-1205,-302,-37,446,52,-76
1,9092983,417,-1366,-532,-1205,-302,-37,446,52,-76
1,9092996,416,-1364,-532,-1222,-299,-35,446,52,-76
1,9093009,418,-1364,-534,-1229,-307,-39,446,52,-78
1,9093020,418,-1364,-534,-1229,-307,-39,446,52,-78
1,9093031,416,-1365,-529,-1249,-308,-32,446,52,-78
1,9093041,416,-1365,-529,-1249,-308,-32,446,52,-78
1,9093049,414,-1367,-536,-1253,-301,-36,446,52,-78
1,9093056,414,-1367,-536,-1253,-301,-36,446,52,-78
1,9093064,414,-1369,-533,-1252,-299,-31,446,52,-78
1,9093079,414,-1369,-533,-1252,-299,-31,446,52,-78
1,9093089,418,-1367,-529,-1259,-303,-33,446,52,-78
1,9093098,418,-1367,-529,-1259,-303,-33,446,52,-78
1,9093107,417,-1362,-528,-1259,-306,-37,446,52,-78
1,9093114,417,-1362,-528,-1259,-306,-37,446,52,-78
1,9093124,417,-1362,-528,-1259,-306,-37,446,52,-78
1,9093132,419,-1363,-522,-1265,-303,-43,440,48,-70
1,9093140,419,-1363,-522,-1265,-303,-43,440,48,-70
1,9093148,420,-1365,-528,-1280,-308,-43,440,48,-70
1,9093156,420,-1365,-528,-1280,-308,-43,440,48,-70
1,9093165,418,-1368,-523,-1284,-303,-33,440,48,-70
1,9093173,418,-1368,-523,-1284,-303,-33,440,48,-70
1,9093181,418,-1368,-523,-1284,-303,-33,440,48,-70
1,9093189,414,-1367,-517,-1288,-302,-39,440,48,-70
1,9093198,414,-1367,-517,-1288,-302,-39,440,48,-70
1,9093209,416,-1363,-523,-1296,-306,-31,440,48,-70
1,9093217,416,-1363,-523,-1296,-306,-31,440,48,-70
1,9093230,416,-1364,-526,-1296,-301,-29,440,48,-70
1,9093239,416,-1364,-526,-1296,-301,-29,440,48,-70
1,9093252,417,-1366,-515,-1292,-308,-39,437,45,-77
1,9093264,414,-1365,-514,-1301,-303,-37,437,45,-77
1,9093273,414,-1365,-514,-1301,-303,-37,437,45,-77
1,9093280,414,-1365,-514,-1301,-303,-37,437,45,-77
1,9093286,416,-1365,-523,-1296,-301,-33,437,45,-77
1,9093292,416,-1365,-523,-1296,-301,-33,437,45,-77
1,9093300,416,-1365,-523,-1296,-301,-33,437,45,-77
1,9093307,419,-1365,-522,-1283,-306,-36,437,45,-77
1,9093315,419,-1365,-522,-1283,-306,-36,437,45,-77
1,9093320,419,-1365,-522,-1283,-306,-36,437,45,-77
1,9093327,415,-1365,-511,-1279,-300,-39,437,45,-77
1,9093335,415,-1365,-511,-1279,-300,-39,437,45,-77
1,9093341,415,-1365,-511,-1279,-300,-39,437,45,-77
1,9093348,416,-1367,-509,-1288,-300,-39,437,45,-77
1,9093356,416,-1367,-509,-1288,-300,-39,437,45,-77
1,9093363,416,-1367,-509,-1288,-300,-39,437,45,-77
1,9093370,414,-1363,-514,-1292,-298,-36,445,45,-71
1,9093379,414,-1363,-514,-1292,-298,-36,445,45,-71
1,9093387,414,-1364,-510,-1307,-304,-36,445,45,-71
