imu,time,ax,ay,az,gx,gy,gz,mx,my,mz
0,5246071,199,-1874,-384,-1029,-567,-324,257,151,-445
0,5246081,199,-1874,-384,-1029,-567,-324,257,151,-445
0,5246086,199,-1874,-384,-1029,-567,-324,257,151,-445
0,5246091,198,-1874,-386,-1026,-565,-328,257,151,-445
0,5246096,198,-1874,-386,-1026,-565,-328,257,151,-445
0,5246101,198,-1874,-386,-1026,-565,-328,257,151,-445
0,5246106,198,-1874,-386,-1026,-565,-328,257,151,-445
0,5246111,198,-1873,-382,-1024,-571,-327,257,151,-445
0,5246119,198,-1873,-382,-1024,-571,-327,257,151,-445
0,5246125,198,-1873,-382,-1024,-571,-327,257,151,-445
0,5246130,198,-1873,-382,-1024,-571,-327,257,151,-445
0,5246135,202,-1875,-383,-1033,-571,-324,257,151,-445
0,5246141,202,-1875,-383,-1033,-571,-324,257,151,-445
0,5246146,202,-1875,-383,-1033,-571,-324,257,151,-445
0,5246152,199,-1873,-380,-1029,-566,-320,259,141,-445
0,5246157,199,-1873,-380,-1029,-566,-320,259,141,-445
0,5246166,199,-1873,-380,-1029,-566,-320,259,141,-445
0,5246174,200,-1875,-384,-1022,-571,-312,259,141,-445
0,5246180,200,-1875,-384,-1022,-571,-312,259,141,-445
0,5246185,200,-1875,-384,-1022,-571,-312,259,141,-445
0,5246193,201,-1876,-386,-1031,-568,-319,259,141,-445
0,5246200,201,-1876,-386,-1031,-568,-319,259,141,-445
0,5246208,201,-1876,-386,-1031,-568,-319,259,141,-445
0,5246214,199,-1874,-389,-1034,-572,-323,259,141,-445
0,5246220,199,-1874,-389,-1034,-572,-323,259,141,-445
0,5246227,199,-1874,-389,-1034,-572,-323,259,141,-445
0,5246234,202,-1877,-385,-1024,-564,-327,259,141,-445
0,5246242,202,-1877,-385,-1024,-564,-327,259,141,-445
0,5246251,202,-1877,-385,-1024,-564,-327,259,141,-445
0,5246258,200,-1873,-385,-1022,-570,-329,259,141,-445
0,5246264,200,-1873,-385,-1022,-570,-329,259,141,-445
0,5246270,200,-1873,-385,-1022,-570,-329,259,141,-445
0,5246277,197,-1874,-381,-1021,-575,-322,259,141,-445
0,5246285,197,-1874,-381,-1021,-575,-322,259,141,-445
0,5246292,202,-1872,-384,-1026,-563,-318,258,142,-442
0,5246300,202,-1872,-384,-1026,-563,-318,258,142,-442
0,5246306,202,-1872,-384,-1026,-563,-318,258,142,-442
0,5246313,200,-1872,-382,-1024,-562,-318,258,142,-442
0,5246321,200,-1872,-382,-1024,-562,-318,258,142,-442
0,5246327,200,-1872,-382,-1024,-562,-318,258,142,-442
0,5246333,199,-1873,-382,-1028,-571,-323,258,142,-442
0,5246342,199,-1873,-382,-1028,-571,-323,258,142,-442
0,5246349,199,-1873,-382,-1028,-571,-323,258,142,-442
0,5246355,201,-1873,-381,-1029,-570,-325,258,142,-442
0,5246362,201,-1873,-381,-1029,-570,-325,258,142,-442
0,5246370,201,-1873,-381,-1029,-570,-325,258,142,-442
0,5246379,197,-1871,-385,-1024,-571,-329,258,142,-442
0,5246385,197,-1871,-385,-1024,-571,-329,258,142,-442
0,5246392,198,-1876,-379,-1032,-572,-323,258,142,-442
0,5246398,198,-1876,-379,-1032,-572,-323,258,142,-442
0,5246404,198,-1876,-379,-1032,-572,-323,258,142,-442
0,5246411,198,-1876,-379,-1032,-572,-323,258,142,-442
0,5246418,200,-1874,-379,-1029,-571,-323,254,140,-440
0,5246426,200,-1874,-379,-1029,-571,-323,254,140,-440
0,5246432,200,-1872,-384,-1029,-563,-326,254,140,-440
0,5246439,200,-1872,-384,-1029,-563,-326,254,140,-440
0,5246446,200,-1872,-384,-1029,-563,-326,254,140,-440
0,5246452,197,-1875,-384,-1031,-568,-316,254,140,-440
0,5246460,197,-1875,-384,-1031,-568,-316,254,140,-440
0,5246468,197,-1875,-384,-1031,-568,-316,254,140,-440
0,5246473,202,-1874,-380,-1034,-580,-323,254,140,-440
0,5246478,202,-1874,-380,-1034,-580,-323,254,140,-440
0,5246485,202,-1874,-380,-1034,-580,-323,254,140,-440
0,5246492,197,-1874,-387,-1033,-569,-326,254,140,-440
0,5246498,197,-1874,-387,-1033,-569,-326,254,140,-440
0,5246503,197,-1874,-387,-1033,-569,-326,254,140,-440
0,5246509,197,-1874,-387,-1033,-569,-326,254,140,-440
0,5246514,196,-1871,-382,-1029,-569,-319,254,140,-440
0,5246519,196,-1871,-382,-1029,-569,-319,254,140,-440
0,5246524,196,-1871,-382,-1029,-569,-319,254,140,-440
0,5246532,198,-1873,-383,-1033,-575,-324,267,147,-443
0,5246539,198,-1873,-383,-1033,-575,-324,267,147,-443
0,5246546,198,-1873,-383,-1033,-575,-324,267,147,-443
0,5246554,199,-1873,-380,-1028,-567,-323,267,147,-443
0,5246561,199,-1873,-380,-1028,-567,-323,267,147,-443
0,5246569,199,-1873,-380,-1028,-567,-323,267,147,-443
0,5246576,199,-1872,-382,-1029,-562,-329,267,147,-443
0,5246584,199,-1872,-382,-1029,-562,-329,267,147,-443
0,5246592,199,-1872,-382,-1029,-562,-329,267,147,-443
0,5246599,197,-1875,-381,-1033,-570,-327,267,147,-443
0,5246607,197,-1875,-381,-1033,-570,-327,267,147,-443
0,5246613,197,-1874,-385,-1025,-568,-331,267,147,-443
0,5246620,197,-1874,-385,-1025,-568,-331,267,147,-443
0,5246627,197,-1874,-385,-1025,-568,-331,267,147,-443
0,5246635,202,-1873,-382,-1023,-570,-324,267,147,-443
0,5246642,202,-1873,-382,-1023,-570,-324,267,147,-443
0,5246649,202,-1873,-382,-1023,-570,-324,267,147,-443
0,5246656,199,-1874,-381,-1017,-559,-316,267,147,-443
0,5246663,199,-1874,-381,-1017,-559,-316,267,147,-443
0,5246670,199,-1874,-381,-1017,-559,-316,267,147,-443
0,5246678,202,-1877,-378,-1034,-574,-315,259,133,-447
0,5246686,202,-1877,-378,-1034,-574,-315,259,133,-447
0,5246694,199,-1875,-382,-1031,-574,-318,259,133,-447
0,5246700,199,-1875,-382,-1031,-574,-318,259,133,-447
0,5246707,199,-1875,-382,-1031,-574,-318,259,133,-447
0,5246714,202,-1874,-379,-1026,-567,-319,259,133,-447
0,5246721,202,-1874,-379,-1026,-567,-319,259,133,-447
0,5246728,202,-1874,-379,-1026,-567,-319,259,133,-447
0,5246736,203,-1875,-387,-1028,-566,-322,259,133,-447
0,5246743,203,-1875,-387,-1028,-566,-322,259,133,-447
0,5246750,203,-1875,-387,-1028,-566,-322,259,133,-447
0,5246756,199,-1875,-387,-1031,-565,-315,259,133,-447
0,5246764,199,-1875,-387,-1031,-565,-315,259,133,-447
0,5246771,199,-1875,-387,-1031,-565,-315,259,133,-447
0,5246776,200,-1873,-384,-1028,-565,-328,259,133,-447
0,5246784,200,-1873,-384,-1028,-565,-328,259,133,-447
0,5246790,200,-1873,-384,-1028,-565,-328,259,133,-447
0,5246795,200,-1875,-380,-1016,-571,-322,265,145,-443
0,5246802,200,-1875,-380,-1016,-571,-322,265,145,-443
0,5246809,200,-1875,-380,-1016,-571,-322,265,145,-443
0,5246815,200,-1875,-378,-1026,-573,-326,265,145,-443
0,5246823,200,-1875,-378,-1026,-573,-326,265,145,-443
0,5246829,200,-1875,-378,-1026,-573,-326,265,145,-443
0,5246836,200,-1873,-381,-1034,-567,-329,265,145,-443
0,5246843,200,-1873,-381,-1034,-567,-329,265,145,-443
0,5246851,200,-1873,-381,-1034,-567,-329,265,145,-443
0,5246859,202,-1873,-382,-1029,-568,-326,265,145,-443
0,5246865,202,-1873,-382,-1029,-568,-326,265,145,-443
0,5246872,201,-1877,-385,-1028,-568,-325,265,145,-443
0,5246881,201,-1877,-385,-1028,-568,-325,265,145,-443
0,5246892,201,-1877,-385,-1028,-568,-325,265,145,-443
0,5246905,201,-1877,-385,-1026,-569,-323,265,145,-443
0,5246920,202,-1876,-384,-1022,-568,-324,265,145,-443
0,5246931,202,-1876,-384,-1022,-568,-324,265,145,-443
0,5246941,197,-1874,-379,-1024,-564,-315,256,146,-446
0,5246952,200,-1873,-385,-1022,-558,-319,256,146,-446
0,5246965,200,-1873,-385,-1022,-558,-319,256,146,-446
0,5246979,201,-1873,-376,-1027,-566,-322,256,146,-446
0,5246990,201,-1873,-376,-1027,-566,-322,256,146,-446
0,5247005,200,-1875,-384,-1032,-574,-324,256,146,-446
0,5247017,201,-1875,-382,-1025,-570,-325,256,146,-446
0,5247030,201,-1875,-382,-1025,-570,-325,256,146,-446
0,5247043,196,-1873,-386,-1028,-570,-323,256,146,-446
0,5247056,199,-1875,-381,-1027,-567,-321,246,146,-450
0,5247065,199,-1875,-381,-1027,-567,-321,246,146,-450
0,5247074,197,-1875,-384,-1033,-575,-315,246,146,-450
0,5247087,197,-1875,-384,-1033,-575,-315,246,146,-450
0,5247100,201,-1873,-383,-1026,-563,-314,246,146,-450
0,5247110,201,-1873,-383,-1026,-563,-314,246,146,-450
0,5247121,198,-1873,-387,-1034,-569,-324,246,146,-450
0,5247130,198,-1873,-387,-1034,-569,-324,246,146,-450
0,5247140,200,-1874,-385,-1026,-567,-318,246,146,-450
0,5247149,200,-1874,-385,-1026,-567,-318,246,146,-450
0,5247158,199,-1875,-385,-1027,-573,-318,246,146,-450
0,5247167,199,-1875,-385,-1027,-573,-318,246,146,-450
0,5247175,199,-1871,-382,-1033,-572,-325,246,146,-450
0,5247183,199,-1871,-382,-1033,-572,-325,246,146,-450
0,5247193,201,-1874,-379,-1025,-566,-327,246,146,-450
0,5247202,201,-1874,-379,-1025,-566,-327,249,139,-435
0,5247211,201,-1874,-379,-1025,-566,-327,249,139,-435
0,5247223,201,-1874,-381,-1028,-565,-324,249,139,-435
0,5247236,198,-1876,-380,-1025,-568,-329,249,139,-435
0,5247248,198,-1876,-380,-1025,-568,-329,249,139,-435
0,5247262,200,-1875,-379,-1027,-564,-321,249,139,-435
0,5247275,201,-1873,-383,-1029,-566,-325,249,139,-435
0,5247287,201,-1873,-383,-1029,-566,-325,249,139,-435
0,5247301,201,-1874,-382,-1025,-570,-320,249,139,-435
0,5247312,200,-1872,-378,-1027,-565,-318,0,139,-435
0,5247327,200,-1872,-378,-1027,-565,-318,256,146,-444
0,5247339,201,-1872,-384,-1031,-569,-321,256,146,-444
0,5247352,201,-1872,-384,-1031,-569,-321,256,146,-444
0,5247365,203,-1874,-380,-1029,-572,-322,256,146,-444
0,5247376,199,-1873,-381,-1019,-566,-320,256,146,-444
0,5247388,199,-1873,-381,-1019,-566,-320,256,146,-444
0,5247401,200,-1874,-385,-1030,-566,-321,256,146,-444
0,5247416,200,-1874,-386,-1029,-571,-324,256,146,-444
0,5247426,200,-1874,-386,-1029,-571,-324,256,146,-444
0,5247440,201,-1874,-389,-1030,-575,-325,255,141,-439
0,5247453,204,-1875,-374,-1026,-571,-325,255,141,-439
0,5247466,204,-1875,-374,-1026,-571,-325,255,141,-439
0,5247479,200,-1876,-379,-1030,-566,-322,255,141,-439
0,5247493,201,-1875,-381,-1028,-570,-320,255,141,-439
0,5247502,201,-1875,-381,-1028,-570,-320,255,141,-439
0,5247510,201,-1875,-381,-1028,-570,-320,255,141,-439
0,5247517,200,-1875,-382,-1028,-566,-326,255,141,-439
0,5247526,200,-1875,-382,-1028,-566,-326,255,141,-439
0,5247541,200,-1875,-381,-1027,-569,-323,255,141,-439
0,5247553,198,-1877,-386,-1023,-559,-321,255,141,-439
0,5247565,198,-1877,-386,-1023,-559,-321,255,141,-439
0,5247579,199,-1876,-379,-1025,-571,-324,254,144,-448
0,5247592,199,-1876,-379,-1025,-571,-324,254,144,-448
0,5247604,200,-1873,-374,-1024,-572,-328,254,144,-448
0,5247616,195,-1872,-383,-1027,-568,-324,254,144,-448
0,5247627,195,-1872,-383,-1027,-568,-324,254,144,-448
0,5247640,200,-1874,-381,-1031,-571,-327,254,144,-448
0,5247649,200,-1874,-381,-1031,-571,-327,254,144,-448
0,5247661,201,-1875,-381,-1029,-573,-325,254,144,-448
0,5247673,202,-1873,-379,-1025,-573,-324,254,144,-448
0,5247684,202,-1873,-379,-1025,-573,-324,254,144,-448
0,5247695,199,-1873,-375,-1021,-570,-330,252,146,-442
0,5247710,199,-1873,-375,-1021,-570,-330,252,146,-442
0,5247721,200,-1878,-377,-1022,-577,-324,252,146,-442
0,5247729,200,-1878,-377,-1022,-577,-324,252,146,-442
0,5247737,199,-1876,-383,-1022,-571,-330,252,146,-442
0,5247746,199,-1876,-383,-1022,-571,-330,252,146,-442
0,5247755,201,-1875,-381,-1026,-566,-322,252,146,-442
0,5247764,201,-1875,-381,-1026,-566,-322,252,146,-442
0,5247775,205,-1877,-384,-1023,-566,-319,252,146,-442
0,5247791,205,-1877,-384,-1023,-566,-319,252,146,-442
0,5247799,200,-1874,-381,-1018,-566,-326,252,146,-442
0,5247811,200,-1874,-381,-1018,-566,-326,252,146,-442
0,5247824,199,-1873,-388,-1023,-564,-327,252,146,-442
0,5247837,201,-1873,-384,-1030,-574,-319,260,146,-442
0,5247848,201,-1873,-384,-1030,-574,-319,260,146,-442
0,5247860,201,-1875,-376,-1023,-570,-323,260,146,-442
0,5247874,197,-1876,-384,-1018,-572,-324,260,146,-442
0,5247885,197,-1876,-384,-1018,-572,-324,260,146,-442
0,5247892,197,-1876,-384,-1018,-572,-324,260,146,-442
0,5247898,199,-1877,-385,-1023,-566,-317,260,146,-442
0,5247906,199,-1877,-385,-1023,-566,-317,260,146,-442
0,5247913,199,-1877,-385,-1023,-566,-317,260,146,-442
0,5247920,199,-1874,-382,-1020,-567,-325,260,146,-442
0,5247927,199,-1874,-382,-1020,-567,-325,260,146,-442
0,5247934,200,-1875,-386,-1027,-566,-323,260,146,-442
0,5247941,200,-1875,-386,-1027,-566,-323,260,146,-442
0,5247946,200,-1875,-386,-1027,-566,-323,260,146,-442
0,5247954,199,-1873,-378,-1022,-569,-329,262,136,-452
0,5247961,199,-1873,-378,-1022,-569,-329,262,136,-452
0,5247969,199,-1873,-378,-1022,-569,-329,262,136,-452
0,5247977,196,-1876,-382,-1024,-572,-331,262,136,-452
0,5247984,196,-1876,-382,-1024,-572,-331,262,136,-452
0,5247991,196,-1876,-382,-1024,-572,-331,262,136,-452
0,5247996,199,-1874,-381,-1025,-568,-323,262,136,-452
0,5248004,199,-1874,-381,-1025,-568,-323,262,136,-452
0,5248010,199,-1874,-381,-1025,-568,-323,262,136,-452
0,5248016,201,-1871,-385,-1034,-561,-321,262,136,-452
0,5248024,201,-1871,-385,-1034,-561,-321,262,136,-452
0,5248032,201,-1871,-385,-1034,-561,-321,262,136,-452
0,5248039,200,-1872,-382,-1024,-563,-314,262,136,-452
0,5248047,200,-1872,-382,-1024,-563,-314,262,136,-452
0,5248053,200,-1872,-382,-1024,-563,-314,262,136,-452
0,5248060,202,-1874,-385,-1031,-572,-323,262,136,-452
0,5248067,202,-1874,-385,-1031,-572,-323,262,136,-452
0,5248074,199,-1876,-382,-1030,-576,-329,255,157,-441
0,5248081,199,-1876,-382,-1030,-576,-329,255,157,-441
0,5248088,199,-1876,-382,-1030,-576,-329,255,157,-441
0,5248095,200,-1872,-383,-1025,-577,-330,255,157,-441
0,5248102,200,-1872,-383,-1025,-577,-330,255,157,-441
0,5248110,200,-1872,-383,-1025,-577,-330,255,157,-441
0,5248119,201,-1876,-385,-1026,-568,-329,255,157,-441
0,5248125,201,-1876,-385,-1026,-568,-329,255,157,-441
0,5248133,201,-1876,-385,-1026,-568,-329,255,157,-441
0,5248140,197,-1874,-383,-1029,-565,-319,255,157,-441
0,5248148,197,-1874,-383,-1029,-565,-319,255,157,-441
0,5248154,197,-1876,-384,-1025,-572,-327,255,157,-441
0,5248161,197,-1876,-384,-1025,-572,-327,255,157,-441
0,5248168,197,-1876,-384,-1025,-572,-327,255,157,-441
0,5248177,199,-1874,-380,-1031,-560,-322,255,157,-441
0,5248185,199,-1874,-380,-1031,-560,-322,255,157,-441
0,5248191,199,-1874,-380,-1031,-560,-322,255,157,-441
0,5248198,199,-1875,-385,-1024,-564,-328,255,157,-441
0,5248204,199,-1875,-385,-1024,-564,-328,255,157,-441
0,5248211,199,-1875,-385,-1024,-564,-328,255,157,-441
0,5248219,199,-1873,-382,-1029,-569,-320,254,146,-452
0,5248226,199,-1873,-382,-1029,-569,-320,254,146,-452
0,5248232,199,-1873,-382,-1029,-569,-320,254,146,-452
0,5248239,202,-1873,-386,-1034,-568,-321,254,146,-452
0,5248247,202,-1873,-386,-1034,-568,-321,254,146,-452
0,5248254,201,-1875,-381,-1028,-564,-320,254,146,-452
0,5248262,201,-1875,-381,-1028,-564,-320,254,146,-452
0,5248269,201,-1875,-381,-1028,-564,-320,254,146,-452
0,5248275,196,-1874,-388,-1023,-566,-320,254,146,-452
0,5248282,196,-1874,-388,-1023,-566,-320,254,146,-452
0,5248289,196,-1874,-388,-1023,-566,-320,254,146,-452
0,5248299,203,-1875,-385,-1022,-563,-318,254,146,-452
0,5248305,203,-1875,-385,-1022,-563,-318,254,146,-452
0,5248313,203,-1875,-385,-1022,-563,-318,254,146,-452
0,5248318,200,-1872,-384,-1027,-562,-322,254,146,-452
0,5248323,200,-1872,-384,-1027,-562,-322,254,146,-452
0,5248328,200,-1872,-384,-1027,-562,-322,254,146,-452
0,5248335,200,-1873,-379,-1028,-566,-318,258,140,-440
0,5248344,200,-1873,-379,-1028,-566,-318,258,140,-440
0,5248350,200,-1873,-379,-1028,-566,-318,258,140,-440
0,5248357,201,-1873,-382,-1024,-572,-308,258,140,-440
0,5248365,201,-1873,-382,-1024,-572,-308,258,140,-440
0,5248371,201,-1873,-382,-1024,-572,-308,258,140,-440
0,5248378,202,-1874,-381,-1035,-569,-319,258,140,-440
0,5248387,202,-1874,-381,-1035,-569,-319,258,140,-440
0,5248394,202,-1874,-381,-1035,-569,-319,258,140,-440
0,5248401,202,-1874,-380,-1030,-568,-329,258,140,-440
0,5248408,202,-1874,-380,-1030,-568,-329,258,140,-440
0,5248415,201,-1874,-384,-1030,-568,-326,258,140,-440
0,5248422,201,-1874,-384,-1030,-568,-326,258,140,-440
0,5248429,201,-1874,-384,-1030,-568,-326,258,140,-440
0,5248436,202,-1874,-381,-1032,-572,-329,258,140,-440
0,5248442,202,-1874,-381,-1032,-572,-329,258,140,-440
0,5248447,202,-1874,-381,-1032,-572,-329,258,140,-440
0,5248455,202,-1878,-385,-1031,-575,-314,258,140,-440
0,5248462,202,-1878,-385,-1031,-575,-314,258,140,-440
0,5248470,202,-1878,-385,-1031,-575,-314,258,140,-440
0,5248477,197,-1873,-384,-1026,-571,-319,256,142,-446
0,5248484,197,-1873,-384,-1026,-571,-319,256,142,-446
0,5248491,197,-1873,-384,-1026,-571,-319,256,142,-446
0,5248497,200,-1874,-386,-1019,-569,-321,256,142,-446
0,5248502,200,-1874,-386,-1019,-569,-321,256,142,-446
0,5248507,200,-1874,-386,-1019,-569,-321,256,142,-446
0,5248513,200,-1874,-386,-1019,-569,-321,256,142,-446
0,5248518,197,-1874,-387,-1024,-565,-325,256,142,-446
0,5248523,197,-1874,-387,-1024,-565,-325,256,142,-446
0,5248528,197,-1874,-387,-1024,-565,-325,256,142,-446
0,5248532,197,-1874,-387,-1024,-565,-325,256,142,-446
0,5248540,197,-1872,-387,-1020,-562,-322,256,142,-446
0,5248547,197,-1872,-387,-1020,-562,-322,256,142,-446
0,5248555,199,-1874,-386,-1021,-559,-318,256,142,-446
0,5248563,199,-1874,-386,-1021,-559,-318,256,142,-446
0,5248569,199,-1874,-386,-1021,-559,-318,256,142,-446
0,5248576,200,-1872,-382,-1028,-569,-326,256,142,-446
0,5248582,200,-1872,-382,-1028,-569,-326,256,142,-446
0,5248589,200,-1872,-382,-1028,-569,-326,256,142,-446
0,5248595,199,-1874,-379,-1039,-570,-320,261,147,-443
0,5248604,199,-1874,-379,-1039,-570,-320,261,147,-443
0,5248611,199,-1874,-379,-1039,-570,-320,261,147,-443
0,5248617,198,-1875,-386,-1031,-563,-323,261,147,-443
0,5248624,198,-1875,-386,-1031,-563,-323,261,147,-443
0,5248631,198,-1875,-386,-1031,-563,-323,261,147,-443
0,5248638,196,-1874,-387,-1034,-570,-324,261,147,-443
0,5248646,196,-1874,-387,-1034,-570,-324,261,147,-443
0,5248652,196,-1874,-387,-1034,-570,-324,261,147,-443
0,5248659,201,-1873,-382,-1028,-567,-322,261,147,-443
0,5248665,201,-1873,-382,-1028,-567,-322,261,147,-443
0,5248672,201,-1873,-382,-1028,-567,-322,261,147,-443
0,5248679,199,-1876,-381,-1023,-573,-314,261,147,-443
0,5248688,199,-1876,-381,-1023,-573,-314,261,147,-443
0,5248694,199,-1876,-381,-1023,-573,-314,261,147,-443
0,5248701,202,-1874,-381,-1024,-568,-313,261,147,-443
0,5248708,202,-1874,-381,-1024,-568,-313,261,147,-443
0,5248714,199,-1873,-379,-1029,-571,-321,261,147,-443
0,5248722,199,-1873,-379,-1029,-571,-321,261,147,-443
0,5248730,199,-1873,-379,-1029,-571,-321,261,147,-443
0,5248735,201,-1874,-384,-1032,-564,-323,256,152,-440
0,5248742,201,-1874,-384,-1032,-564,-323,256,152,-440
0,5248748,201,-1874,-384,-1032,-564,-323,256,152,-440
0,5248756,197,-1876,-379,-1031,-569,-324,256,152,-440
0,5248762,197,-1876,-379,-1031,-569,-324,256,152,-440
0,5248770,197,-1876,-379,-1031,-569,-324,256,152,-440
0,5248777,199,-1874,-380,-1031,-575,-320,256,152,-440
0,5248784,199,-1874,-380,-1031,-575,-320,256,152,-440
0,5248791,199,-1874,-380,-1031,-575,-320,256,152,-440
0,5248796,200,-1875,-385,-1025,-575,-326,256,152,-440
0,5248803,200,-1875,-385,-1025,-575,-326,256,152,-440
0,5248811,200,-1875,-385,-1025,-575,-326,256,152,-440
0,5248816,199,-1874,-384,-1030,-572,-328,256,152,-440
0,5248823,199,-1874,-384,-1030,-572,-328,256,152,-440
0,5248831,199,-1874,-384,-1030,-572,-328,256,152,-440
0,5248837,199,-1873,-382,-1027,-571,-326,256,152,-440
0,5248843,199,-1873,-382,-1027,-571,-326,256,152,-440
0,5248848,199,-1873,-382,-1027,-571,-326,256,152,-440
0,5248854,199,-1873,-382,-1027,-571,-326,256,152,-440
0,5248860,197,-1873,-385,-1030,-565,-328,258,142,-444
0,5248866,197,-1873,-385,-1030,-565,-328,258,142,-444
0,5248874,197,-1873,-385,-1030,-565,-328,258,142,-444
0,5248880,199,-1874,-389,-1023,-561,-323,258,142,-444
0,5248888,199,-1874,-389,-1023,-561,-323,258,142,-444
0,5248896,198,-1873,-385,-1021,-561,-322,258,142,-444
0,5248909,198,-1873,-385,-1021,-561,-322,258,142,-444
0,5248921,201,-1873,-384,-1027,-565,-327,258,142,-444
0,5248933,201,-1873,-384,-1027,-565,-327,258,142,-444
0,5248946,199,-1875,-386,-1030,-569,-317,258,142,-444
0,5248960,199,-1873,-386,-1024,-562,-330,258,142,-444
0,5248972,199,-1873,-386,-1024,-562,-330,258,142,-444
0,5248985,203,-1875,-381,-1028,-571,-323,259,145,-449
0,5248997,201,-1871,-383,-1032,-566,-327,259,145,-449
0,5249009,201,-1871,-383,-1032,-566,-327,259,145,-449
0,5249021,196,-1876,-386,-1029,-572,-326,259,145,-449
0,5249034,196,-1876,-386,-1029,-572,-326,259,145,-449
0,5249049,199,-1870,-383,-1029,-570,-333,259,145,-449
0,5249061,199,-1872,-380,-1033,-571,-320,259,145,-449
0,5249071,199,-1872,-380,-1033,-571,-320,259,145,-449
0,5249082,199,-1876,-383,-1031,-568,-314,259,145,-449
0,5249097,202,-1874,-381,-1027,-571,-322,259,145,-449
0,5249110,202,-1874,-381,-1027,-571,-322,259,145,-449
0,5249123,199,-1874,-382,-1032,-570,-324,249,141,-443
0,5249137,197,-1872,-380,-1026,-563,-329,249,141,-443
0,5249150,197,-1872,-380,-1026,-563,-329,249,141,-443
0,5249162,199,-1876,-383,-1029,-564,-326,249,141,-443
0,5249174,199,-1876,-383,-1029,-564,-326,249,141,-443
0,5249186,200,-1874,-378,-1018,-559,-326,249,141,-443
0,5249200,198,-1876,-387,-1021,-559,-329,249,141,-443
0,5249212,198,-1876,-387,-1021,-559,-329,249,141,-443
0,5249220,198,-1872,-385,-1032,-568,-323,249,141,-443
0,5249232,198,-1872,-385,-1032,-568,-323,249,141,-443
0,5249246,200,-1873,-384,-1031,-572,-320,255,143,-445
0,5249258,199,-1872,-380,-1024,-570,-322,255,143,-445
0,5249269,199,-1872,-380,-1024,-570,-322,255,143,-445
0,5249281,200,-1874,-382,-1021,-565,-323,255,143,-445
0,5249291,200,-1874,-382,-1021,-565,-323,255,143,-445
0,5249302,201,-1873,-382,-1028,-564,-321,255,143,-445
0,5249314,201,-1873,-382,-1028,-564,-321,255,143,-445
0,5249328,198,-1872,-385,-1023,-558,-321,255,143,-445
0,5249337,198,-1873,-384,-1020,-564,-329,255,143,-445
0,5249348,198,-1873,-384,-1020,-564,-329,255,143,-445
0,5249362,200,-1875,-377,-1029,-565,-330,255,143,-445
0,5249375,201,-1876,-386,-1019,-567,-326,255,143,-445
0,5249387,201,-1876,-386,-1019,-567,-326,262,144,-444
0,5249397,201,-1874,-385,-1028,-566,-317,262,144,-444
0,5249406,201,-1874,-385,-1028,-566,-317,262,144,-444
0,5249414,201,-1874,-385,-1028,-566,-317,262,144,-444
0,5249422,200,-1875,-384,-1033,-569,-323,262,144,-444
0,5249433,200,-1875,-384,-1033,-569,-323,262,144,-444
0,5249445,200,-1875,-382,-1024,-566,-326,262,144,-444
0,5249457,201,-1874,-380,-1025,-572,-331,262,144,-444
0,5249470,201,-1874,-380,-1025,-572,-331,262,144,-444
0,5249484,202,-1877,-381,-1024,-563,-323,262,144,-444
0,5249497,200,-1873,-383,-1018,-560,-323,252,142,-444
0,5249505,200,-1873,-383,-1018,-560,-323,252,142,-444
0,5249514,200,-1873,-383,-1018,-560,-323,252,142,-444
0,5249522,198,-1876,-385,-1020,-558,-320,252,142,-444
0,5249536,199,-1877,-385,-1023,-558,-316,252,142,-444
0,5249551,199,-1877,-385,-1023,-558,-316,252,142,-444
0,5249563,199,-1874,-386,-1021,-564,-324,252,142,-444
0,5249575,196,-1874,-379,-1029,-564,-325,252,142,-444
0,5249588,196,-1874,-379,-1029,-564,-325,252,142,-444
0,5249602,199,-1878,-381,-1022,-565,-328,252,142,-444
0,5249613,199,-1878,-381,-1022,-565,-328,252,142,-444
0,5249626,200,-1875,-383,-1024,-565,-326,252,142,-444
0,5249639,201,-1875,-372,-1025,-567,-323,258,144,-446
0,5249652,201,-1875,-372,-1025,-567,-323,258,144,-446
0,5249665,200,-1877,-380,-1024,-571,-327,258,144,-446
0,5249677,200,-1877,-381,-1030,-563,-328,258,144,-446
0,5249690,200,-1877,-381,-1030,-563,-328,258,144,-446
0,5249703,198,-1874,-386,-1022,-563,-326,258,144,-446
0,5249716,201,-1876,-385,-1026,-562,-326,258,144,-446
0,5249726,201,-1876,-385,-1026,-562,-326,258,144,-446
0,5249737,201,-1873,-381,-1020,-565,-323,258,144,-446
0,5249751,201,-1873,-381,-1020,-565,-323,258,144,-446
0,5249762,200,-1869,-380,-1029,-563,-330,266,150,-450
0,5249773,200,-1869,-380,-1029,-563,-330,266,150,-450
0,5249784,200,-1875,-380,-1028,-558,-329,266,150,-450
0,5249797,200,-1874,-380,-1020,-558,-326,266,150,-450
0,5249805,200,-1874,-380,-1020,-558,-326,266,150,-450
0,5249819,199,-1875,-389,-1025,-562,-325,266,150,-450
0,5249831,199,-1875,-389,-1025,-562,-325,266,150,-450
0,5249843,198,-1876,-386,-1027,-569,-326,266,150,-450
0,5249855,198,-1876,-386,-1027,-569,-326,266,150,-450
0,5249868,200,-1874,-382,-1024,-560,-320,266,150,-450
0,5249881,201,-1875,-382,-1032,-567,-321,249,143,-449
0,5249894,201,-1875,-382,-1032,-567,-321,249,143,-449
0,5249904,198,-1873,-380,-1027,-567,-330,249,143,-449
0,5249911,198,-1873,-380,-1027,-567,-330,249,143,-449
0,5249917,198,-1872,-378,-1025,-558,-325,249,143,-449
0,5249925,198,-1872,-378,-1025,-558,-325,249,143,-449
0,5249932,198,-1872,-378,-1025,-558,-325,249,143,-449
0,5249938,200,-1876,-383,-1030,-565,-322,249,143,-449
0,5249945,200,-1876,-383,-1030,-565,-322,249,143,-449
0,5249953,200,-1876,-383,-1030,-565,-322,249,143,-449
0,5249959,199,-1873,-383,-1024,-568,-327,249,143,-449
0,5249967,199,-1873,-383,-1024,-568,-327,249,143,-449
0,5249972,199,-1873,-383,-1024,-568,-327,249,143,-449
0,5249979,201,-1874,-384,-1026,-573,-323,249,143,-449
0,5249986,201,-1874,-384,-1026,-573,-323,249,143,-449
0,5249991,201,-1874,-384,-1026,-573,-323,249,143,-449
0,5249999,197,-1872,-382,-1033,-573,-323,249,143,-449
0,5250007,197,-1872,-382,-1033,-573,-323,249,143,-449
0,5250015,197,-1872,-382,-1033,-573,-323,249,143,-449
0,5250023,199,-1874,-376,-1025,-569,-324,260,140,-434
0,5250029,199,-1874,-376,-1025,-569,-324,260,140,-434
0,5250036,203,-1875,-381,-1028,-563,-326,260,140,-434
0,5250043,203,-1875,-381,-1028,-563,-326,260,140,-434
0,5250049,203,-1875,-381,-1028,-563,-326,260,140,-434
0,5250054,203,-1875,-381,-1028,-563,-326,260,140,-434
0,5250061,202,-1873,-381,-1026,-558,-318,260,140,-434
0,5250067,202,-1873,-381,-1026,-558,-318,260,140,-434
0,5250074,202,-1873,-381,-1026,-558,-318,260,140,-434
0,5250081,198,-1874,-383,-1031,-566,-320,260,140,-434
0,5250088,198,-1874,-383,-1031,-566,-320,260,140,-434
0,5250095,198,-1874,-383,-1031,-566,-320,260,140,-434
0,5250102,197,-1875,-383,-1031,-571,-318,260,140,-434
0,5250109,197,-1875,-383,-1031,-571,-318,260,140,-434
0,5250116,197,-1875,-383,-1031,-571,-318,260,140,-434
0,5250122,200,-1872,-381,-1026,-565,-321,260,140,-434
0,5250129,200,-1872,-381,-1026,-565,-321,260,140,-434
0,5250137,201,-1872,-388,-1036,-560,-321,260,142,-450
0,5250143,201,-1872,-388,-1036,-560,-321,260,142,-450
0,5250151,201,-1872,-388,-1036,-560,-321,260,142,-450
0,5250156,199,-1877,-382,-1027,-563,-324,260,142,-450
0,5250163,199,-1877,-382,-1027,-563,-324,260,142,-450
0,5250170,199,-1877,-382,-1027,-563,-324,260,142,-450
0,5250178,199,-1875,-382,-1026,-569,-323,260,142,-450
0,5250185,199,-1875,-382,-1026,-569,-323,260,142,-450
0,5250192,199,-1875,-382,-1026,-569,-323,260,142,-450
0,5250199,198,-1874,-378,-1027,-568,-328,260,142,-450
0,5250205,198,-1874,-378,-1027,-568,-328,260,142,-450
0,5250213,198,-1874,-378,-1027,-568,-328,260,142,-450
0,5250221,201,-1875,-383,-1021,-564,-324,260,142,-450
0,5250226,201,-1875,-383,-1021,-564,-324,260,142,-450
0,5250233,201,-1875,-383,-1021,-564,-324,260,142,-450
0,5250240,199,-1872,-389,-1023,-568,-328,260,142,-450
0,5250246,199,-1872,-389,-1023,-568,-328,260,142,-450
0,5250253,199,-1872,-389,-1023,-568,-328,260,142,-450
0,5250260,198,-1873,-381,-1029,-570,-320,260,142,-450
0,5250267,198,-1873,-381,-1029,-570,-320,260,142,-450
0,5250273,198,-1873,-381,-1029,-570,-320,260,142,-450
0,5250281,199,-1872,-381,-1033,-565,-323,260,142,-446
0,5250288,199,-1872,-381,-1033,-565,-323,260,142,-446
0,5250293,199,-1872,-381,-1033,-565,-323,260,142,-446
0,5250299,199,-1875,-378,-1035,-562,-326,260,142,-446
0,5250308,199,-1875,-378,-1035,-562,-326,260,142,-446
0,5250315,199,-1875,-378,-1035,-562,-326,260,142,-446
0,5250322,200,-1873,-382,-1033,-562,-321,260,142,-446
0,5250328,200,-1873,-382,-1033,-562,-321,260,142,-446
0,5250336,200,-1873,-382,-1033,-562,-321,260,142,-446
0,5250343,197,-1871,-383,-1034,-566,-324,260,142,-446
0,5250350,197,-1871,-383,-1034,-566,-324,260,142,-446
0,5250358,197,-1871,-380,-1028,-562,-322,260,142,-446
0,5250364,197,-1871,-380,-1028,-562,-322,260,142,-446
0,5250370,197,-1871,-380,-1028,-562,-322,260,142,-446
0,5250377,197,-1874,-387,-1028,-563,-322,260,142,-446
0,5250385,197,-1874,-387,-1028,-563,-322,260,142,-446
0,5250391,197,-1874,-387,-1028,-563,-322,260,142,-446
0,5250396,197,-1874,-387,-1028,-563,-322,260,142,-446
0,5250402,198,-1872,-376,-1031,-564,-324,259,139,-453
0,5250408,198,-1872,-376,-1031,-564,-324,259,139,-453
0,5250415,198,-1872,-376,-1031,-564,-324,259,139,-453
0,5250422,198,-1872,-376,-1031,-564,-324,259,139,-453
0,5250430,198,-1872,-376,-1031,-564,-324,259,139,-453
0,5250437,200,-1873,-377,-1022,-566,-316,259,139,-453
0,5250443,200,-1873,-377,-1022,-566,-316,259,139,-453
0,5250451,200,-1873,-377,-1022,-566,-316,259,139,-453
0,5250459,200,-1873,-379,-1030,-557,-324,259,139,-453
0,5250465,200,-1873,-379,-1030,-557,-324,259,139,-453
0,5250471,200,-1873,-379,-1030,-557,-324,259,139,-453
0,5250480,199,-1874,-390,-1029,-563,-319,259,139,-453
0,5250486,199,-1874,-390,-1029,-563,-319,259,139,-453
0,5250491,199,-1874,-390,-1029,-563,-319,259,139,-453
0,5250498,201,-1872,-381,-1026,-558,-322,259,139,-453
0,5250503,201,-1872,-381,-1026,-558,-322,259,139,-453
0,5250508,201,-1872,-381,-1026,-558,-322,259,139,-453
0,5250513,201,-1872,-381,-1026,-558,-322,259,139,-453
0,5250519,202,-1873,-381,-1029,-561,-321,259,139,-453
0,5250525,202,-1873,-381,-1029,-561,-321,259,139,-453
0,5250530,202,-1873,-381,-1029,-561,-321,259,139,-453
0,5250536,200,-1875,-381,-1030,-573,-321,259,139,-453
0,5250541,200,-1875,-381,-1030,-573,-321,256,148,-440
0,5250547,200,-1875,-381,-1030,-573,-321,256,148,-440
0,5250552,200,-1875,-381,-1030,-573,-321,256,148,-440
0,5250557,198,-1872,-382,-1022,-568,-313,256,148,-440
0,5250566,198,-1872,-382,-1022,-568,-313,256,148,-440
0,5250572,198,-1872,-382,-1022,-568,-313,256,148,-440
0,5250579,197,-1873,-380,-1028,-557,-318,256,148,-440
0,5250585,197,-1873,-380,-1028,-557,-318,256,148,-440
0,5250591,197,-1873,-380,-1028,-557,-318,256,148,-440
0,5250598,200,-1875,-385,-1030,-561,-326,256,148,-440
0,5250606,200,-1875,-385,-1030,-561,-326,256,148,-440
0,5250613,200,-1875,-385,-1030,-561,-326,256,148,-440
0,5250619,197,-1873,-387,-1028,-563,-321,256,148,-440
0,5250625,197,-1873,-387,-1028,-563,-321,256,148,-440
0,5250632,197,-1873,-387,-1028,-563,-321,256,148,-440
0,5250640,201,-1874,-386,-1025,-559,-322,256,148,-440
0,5250649,201,-1874,-386,-1025,-559,-322,256,148,-440
0,5250654,201,-1874,-386,-1025,-559,-322,256,148,-440
0,5250662,199,-1872,-382,-1028,-572,-332,254,148,-452
0,5250668,199,-1872,-382,-1028,-572,-332,254,148,-452
0,5250675,199,-1872,-382,-1028,-572,-332,254,148,-452
0,5250682,196,-1872,-385,-1024,-569,-332,254,148,-452
0,5250690,196,-1872,-385,-1024,-569,-332,254,148,-452
0,5250696,196,-1872,-385,-1024,-569,-332,254,148,-452
0,5250704,197,-1875,-383,-1031,-560,-328,254,148,-452
0,5250711,197,-1875,-383,-1031,-560,-328,254,148,-452
0,5250719,200,-1870,-385,-1029,-565,-326,254,148,-452
0,5250727,200,-1870,-385,-1029,-565,-326,254,148,-452
0,5250734,200,-1870,-385,-1029,-565,-326,254,148,-452
0,5250740,199,-1876,-383,-1030,-568,-321,254,148,-452
0,5250746,199,-1876,-383,-1030,-568,-321,254,148,-452
0,5250753,199,-1876,-383,-1030,-568,-321,254,148,-452
0,5250759,199,-1874,-385,-1028,-574,-328,254,148,-452
0,5250767,199,-1874,-385,-1028,-574,-328,254,148,-452
0,5250777,199,-1874,-385,-1028,-574,-328,254,148,-452
0,5250784,201,-1872,-379,-1031,-569,-323,259,139,-453
0,5250790,201,-1872,-379,-1031,-569,-323,259,139,-453
0,5250795,201,-1872,-379,-1031,-569,-323,259,139,-453
0,5250802,198,-1875,-377,-1030,-566,-315,259,139,-453
0,5250808,198,-1875,-377,-1030,-566,-315,259,139,-453
0,5250817,198,-1875,-377,-1030,-566,-315,259,139,-453
0,5250823,198,-1877,-380,-1023,-563,-321,259,139,-453
0,5250829,198,-1877,-380,-1023,-563,-321,259,139,-453
0,5250836,198,-1877,-380,-1023,-563,-321,259,139,-453
0,5250843,198,-1877,-380,-1028,-566,-322,259,139,-453
0,5250850,198,-1877,-380,-1028,-566,-322,259,139,-453
0,5250859,199,-1875,-381,-1029,-562,-319,259,139,-453
0,5250867,199,-1875,-381,-1029,-562,-319,259,139,-453
0,5250874,199,-1875,-381,-1029,-562,-319,259,139,-453
0,5250881,198,-1877,-376,-1030,-570,-323,259,139,-453
0,5250888,198,-1877,-376,-1030,-570,-323,259,139,-453
0,5250893,198,-1877,-376,-1030,-570,-323,259,139,-453
0,5250900,199,-1873,-381,-1023,-568,-320,259,139,-453
0,5250908,199,-1873,-381,-1023,-568,-320,259,139,-453
0,5250920,201,-1876,-383,-1020,-564,-322,256,150,-444
0,5250933,201,-1876,-383,-1020,-564,-322,256,150,-444
0,5250947,196,-1875,-386,-1014,-561,-321,256,150,-444
0,5250960,198,-1874,-382,-1025,-567,-316,256,150,-444
0,5250972,198,-1874,-382,-1025,-567,-316,256,150,-444
0,5250983,198,-1876,-385,-1028,-569,-322,256,150,-444
0,5250997,198,-1876,-385,-1028,-569,-322,256,150,-444
0,5251010,201,-1874,-378,-1026,-565,-331,256,150,-444
0,5251022,196,-1873,-381,-1023,-563,-322,256,150,-444
0,5251036,196,-1873,-381,-1023,-563,-322,256,150,-444
0,5251048,198,-1875,-379,-1024,-561,-324,262,148,-444
0,5251062,199,-1874,-382,-1025,-562,-318,262,148,-444
0,5251074,199,-1874,-382,-1025,-562,-318,262,148,-444
0,5251082,202,-1874,-384,-1031,-567,-323,262,148,-444
0,5251089,202,-1874,-384,-1031,-567,-323,262,148,-444
0,5251098,197,-1872,-381,-1033,-565,-326,262,148,-444
0,5251107,197,-1872,-381,-1033,-565,-326,262,148,-444
0,5251118,200,-1873,-382,-1033,-563,-328,262,148,-444
0,5251128,200,-1873,-382,-1033,-563,-328,262,148,-444
0,5251139,197,-1874,-379,-1028,-565,-323,262,148,-444
0,5251153,197,-1874,-379,-1028,-565,-323,262,148,-444
0,5251166,200,-1873,-383,-1025,-560,-320,262,148,-444
0,5251178,197,-1876,-378,-1026,-564,-324,262,142,-448
0,5251190,197,-1876,-378,-1026,-564,-324,262,142,-448
0,5251202,202,-1875,-380,-1023,-566,-322,262,142,-448
0,5251215,202,-1875,-380,-1023,-566,-322,262,142,-448
0,5251229,200,-1875,-383,-1020,-562,-321,262,142,-448
0,5251241,198,-1871,-383,-1023,-570,-321,262,142,-448
0,5251257,199,-1875,-386,-1028,-569,-328,262,142,-448
0,5251270,199,-1875,-386,-1028,-569,-328,262,142,-448
0,5251280,201,-1874,-386,-1027,-567,-324,262,142,-448
0,5251293,201,-1874,-386,-1027,-567,-324,262,142,-448
0,5251307,198,-1875,-387,-1025,-561,-329,259,139,-447
0,5251319,196,-1873,-384,-1027,-568,-327,259,139,-447
0,5251331,196,-1873,-384,-1027,-568,-327,259,139,-447
0,5251342,201,-1873,-383,-1031,-568,-327,259,139,-447
0,5251353,201,-1873,-383,-1031,-568,-327,259,139,-447
0,5251367,196,-1872,-379,-1032,-565,-327,259,139,-447
0,5251379,202,-1876,-384,-1030,-569,-326,259,139,-447
0,5251395,202,-1876,-384,-1030,-569,-326,259,139,-447
0,5251406,200,-1875,-384,-1029,-567,-325,259,139,-447
0,5251419,195,-1877,-384,-1020,-563,-321,259,139,-447
0,5251432,195,-1877,-384,-1020,-563,-321,259,139,-447
0,5251445,194,-1876,-378,-1024,-568,-323,253,153,-447
0,5251458,194,-1876,-378,-1024,-568,-323,253,153,-447
0,5251469,196,-1876,-383,-1039,-572,-328,253,153,-447
0,5251482,195,-1875,-383,-1031,-564,-317,253,153,-447
0,5251495,195,-1875,-383,-1031,-564,-317,253,153,-447
0,5251504,197,-1875,-390,-1038,-561,-320,253,153,-447
0,5251512,197,-1875,-390,-1038,-561,-320,253,153,-447
0,5251520,200,-1873,-382,-1033,-564,-330,253,153,-447
0,5251527,200,-1873,-382,-1033,-564,-330,253,153,-447
0,5251543,198,-1874,-383,-1025,-571,-324,253,153,-447
0,5251555,198,-1874,-383,-1025,-571,-324,253,153,-447
0,5251564,199,-1875,-381,-1022,-567,-331,257,141,-447
0,5251576,199,-1875,-381,-1022,-567,-331,257,141,-447
0,5251590,198,-1874,-384,-1024,-567,-319,257,141,-447
0,5251603,197,-1874,-378,-1033,-567,-321,257,141,-447
0,5251615,197,-1874,-378,-1033,-567,-321,257,141,-447
0,5251628,200,-1876,-387,-1029,-573,-320,257,141,-447
0,5251643,199,-1873,-381,-1032,-570,-320,257,141,-447
0,5251657,199,-1873,-381,-1032,-570,-320,257,141,-447
0,5251666,199,-1873,-382,-1029,-570,-325,257,141,-447
0,5251678,196,-1871,-385,-1023,-568,-324,252,146,-446
0,5251693,196,-1871,-385,-1023,-568,-324,252,146,-446
0,5251706,200,-1877,-374,-1027,-571,-320,252,146,-446
0,5251717,200,-1877,-374,-1027,-571,-320,252,146,-446
0,5251727,198,-1876,-376,-1027,-571,-324,252,146,-446
0,5251735,198,-1876,-376,-1027,-571,-324,252,146,-446
0,5251742,198,-1873,-376,-1026,-574,-325,252,146,-446
0,5251750,198,-1873,-376,-1026,-574,-325,252,146,-446
0,5251759,200,-1872,-378,-1029,-568,-329,252,146,-446
0,5251768,200,-1872,-378,-1029,-568,-329,252,146,-446
0,5251779,195,-1875,-378,-1022,-566,-325,252,146,-446
0,5251793,195,-1875,-378,-1022,-566,-325,252,146,-446
0,5251802,199,-1870,-383,-1028,-564,-326,252,146,-446
0,5251814,199,-1870,-383,-1028,-564,-326,252,146,-446
0,5251826,199,-1872,-379,-1030,-570,-327,251,145,-439
0,5251835,199,-1872,-379,-1030,-570,-327,251,145,-439
0,5251847,201,-1873,-379,-1030,-568,-325,251,145,-439
0,5251862,197,-1876,-381,-1031,-562,-324,251,145,-439
0,5251875,197,-1876,-381,-1031,-562,-324,251,145,-439
0,5251885,198,-1875,-385,-1025,-565,-317,251,145,-439
0,5251896,198,-1875,-385,-1025,-565,-317,251,145,-439
0,5251911,200,-1875,-386,-1033,-566,-320,251,145,-439
0,5251920,195,-1874,-387,-1030,-560,-328,251,145,-439
0,5251927,195,-1874,-387,-1030,-560,-328,251,145,-439
0,5251932,195,-1874,-387,-1030,-560,-328,251,145,-439
0,5251939,199,-1875,-382,-1021,-560,-326,257,141,-447
0,5251947,199,-1875,-382,-1021,-560,-326,257,141,-447
0,5251954,199,-1875,-382,-1021,-560,-326,257,141,-447
0,5251961,203,-1874,-378,-1020,-565,-320,257,141,-447
0,5251970,203,-1874,-378,-1020,-565,-320,257,141,-447
0,5251977,203,-1874,-378,-1020,-565,-320,257,141,-447
0,5251983,199,-1875,-380,-1023,-566,-323,257,141,-447
0,5251990,199,-1875,-380,-1023,-566,-323,257,141,-447
0,5251997,199,-1875,-380,-1023,-566,-323,257,141,-447
0,5252004,199,-1872,-387,-1020,-555,-320,257,141,-447
0,5252012,199,-1872,-387,-1020,-555,-320,257,141,-447
0,5252017,199,-1872,-387,-1020,-555,-320,257,141,-447
0,5252024,199,-1874,-389,-1035,-561,-320,257,141,-447
0,5252032,199,-1874,-389,-1035,-561,-320,257,141,-447
0,5252040,198,-1877,-384,-1035,-562,-320,257,141,-447
0,5252046,198,-1877,-384,-1035,-562,-320,257,141,-447
0,5252052,198,-1877,-384,-1035,-562,-320,257,141,-447
0,5252060,199,-1879,-382,-1028,-565,-320,257,141,-447
0,5252067,199,-1879,-382,-1028,-565,-320,257,141,-447
0,5252073,199,-1879,-382,-1028,-565,-320,257,141,-447
0,5252079,195,-1876,-381,-1027,-564,-320,264,144,-446
0,5252086,195,-1876,-381,-1027,-564,-320,264,144,-446
0,5252093,195,-1876,-381,-1027,-564,-320,264,144,-446
0,5252100,198,-1869,-379,-1021,-564,-318,264,144,-446
0,5252108,198,-1869,-379,-1021,-564,-318,264,144,-446
0,5252115,198,-1869,-379,-1021,-564,-318,264,144,-446
0,5252121,200,-1876,-382,-1020,-569,-323,264,144,-446
0,5252128,200,-1876,-382,-1020,-569,-323,264,144,-446
0,5252135,200,-1876,-382,-1020,-569,-323,264,144,-446
0,5252143,197,-1874,-382,-1022,-573,-325,264,144,-446
0,5252150,197,-1874,-382,-1022,-573,-325,264,144,-446
0,5252158,197,-1874,-382,-1022,-573,-325,264,144,-446
0,5252164,196,-1873,-384,-1028,-569,-328,264,144,-446
0,5252170,196,-1873,-384,-1028,-569,-328,264,144,-446
0,5252178,197,-1874,-383,-1021,-560,-321,264,144,-446
0,5252186,197,-1874,-383,-1021,-560,-321,264,144,-446
0,5252193,197,-1874,-383,-1021,-560,-321,264,144,-446
0,5252199,200,-1874,-376,-1023,-566,-320,257,147,-439
0,5252207,200,-1874,-376,-1023,-566,-320,257,147,-439
0,5252214,200,-1874,-376,-1023,-566,-320,257,147,-439
0,5252220,201,-1872,-382,-1023,-560,-319,257,147,-439
0,5252228,201,-1872,-382,-1023,-560,-319,257,147,-439
0,5252234,201,-1872,-382,-1023,-560,-319,257,147,-439
0,5252241,198,-1873,-384,-1026,-559,-322,257,147,-439
0,5252248,198,-1873,-384,-1026,-559,-322,257,147,-439
0,5252256,198,-1873,-384,-1026,-559,-322,257,147,-439
0,5252263,200,-1877,-385,-1032,-563,-331,257,147,-439
0,5252271,200,-1877,-385,-1032,-563,-331,257,147,-439
0,5252278,200,-1877,-385,-1032,-563,-331,257,147,-439
0,5252284,201,-1875,-385,-1024,-559,-324,257,147,-439
0,5252289,201,-1875,-385,-1024,-559,-324,257,147,-439
0,5252294,201,-1875,-385,-1024,-559,-324,257,147,-439
0,5252300,199,-1874,-384,-1031,-561,-322,257,147,-439
0,5252307,199,-1874,-384,-1031,-561,-322,257,147,-439
0,5252316,199,-1874,-384,-1031,-561,-322,257,147,-439
0,5252322,199,-1873,-380,-1037,-571,-323,264,146,-446
0,5252329,199,-1873,-380,-1037,-571,-323,264,146,-446
0,5252336,199,-1873,-380,-1037,-571,-323,264,146,-446
0,5252341,197,-1873,-380,-1029,-563,-320,264,146,-446
0,5252348,197,-1873,-380,-1029,-563,-320,264,146,-446
0,5252354,197,-1873,-380,-1029,-563,-320,264,146,-446
0,5252361,199,-1873,-378,-1029,-569,-316,264,146,-446
0,5252367,199,-1873,-378,-1029,-569,-316,264,146,-446
0,5252375,199,-1873,-378,-1029,-569,-316,264,146,-446
0,5252382,200,-1872,-385,-1019,-568,-323,264,146,-446
0,5252389,200,-1872,-385,-1019,-568,-323,264,146,-446
0,5252396,200,-1872,-385,-1019,-568,-323,264,146,-446
0,5252404,199,-1873,-383,-1030,-571,-324,264,146,-446
0,5252411,199,-1873,-383,-1030,-571,-324,264,146,-446
0,5252417,199,-1873,-383,-1030,-571,-324,264,146,-446
0,5252424,198,-1872,-385,-1034,-561,-324,264,146,-446
0,5252432,198,-1872,-385,-1034,-561,-324,264,146,-446
0,5252439,198,-1872,-385,-1034,-561,-324,264,146,-446
0,5252446,201,-1876,-385,-1020,-562,-322,264,146,-446
0,5252452,201,-1876,-385,-1020,-562,-322,264,146,-446
0,5252459,199,-1876,-378,-1033,-571,-319,264,146,-446
0,5252465,199,-1876,-378,-1033,-571,-319,254,146,-440
0,5252473,199,-1876,-378,-1033,-571,-319,254,146,-440
0,5252480,202,-1874,-379,-1029,-567,-319,254,146,-440
0,5252488,202,-1874,-379,-1029,-567,-319,254,146,-440
0,5252494,202,-1874,-379,-1029,-567,-319,254,146,-440
0,5252499,198,-1874,-381,-1029,-566,-325,254,146,-440
0,5252504,198,-1874,-381,-1029,-566,-325,254,146,-440
0,5252509,198,-1874,-381,-1029,-566,-325,254,146,-440
0,5252515,198,-1874,-381,-1029,-566,-325,254,146,-440
0,5252520,198,-1876,-381,-1027,-564,-321,254,146,-440
0,5252526,198,-1876,-381,-1027,-564,-321,254,146,-440
0,5252532,198,-1876,-381,-1027,-564,-321,254,146,-440
0,5252539,198,-1874,-385,-1034,-566,-322,254,146,-440
0,5252547,198,-1874,-385,-1034,-566,-322,254,146,-440
0,5252554,198,-1874,-385,-1034,-566,-322,254,146,-440
0,5252561,201,-1874,-385,-1030,-568,-326,254,146,-440
0,5252569,201,-1874,-385,-1030,-568,-326,254,146,-440
0,5252578,201,-1874,-385,-1030,-568,-326,254,146,-440
0,5252584,200,-1875,-383,-1032,-571,-328,255,149,-447
0,5252591,200,-1875,-383,-1032,-571,-328,255,149,-447
0,5252598,200,-1875,-383,-1032,-571,-328,255,149,-447
0,5252605,199,-1875,-376,-1039,-571,-327,255,149,-447
0,5252613,199,-1875,-376,-1039,-571,-327,255,149,-447
0,5252619,199,-1875,-376,-1039,-571,-327,255,149,-447
0,5252626,198,-1873,-387,-1026,-562,-329,255,149,-447
0,5252633,198,-1873,-387,-1026,-562,-329,255,149,-447
0,5252639,199,-1874,-385,-1033,-562,-319,255,149,-447
0,5252646,199,-1874,-385,-1033,-562,-319,255,149,-447
0,5252654,199,-1874,-385,-1033,-562,-319,255,149,-447
0,5252661,199,-1875,-384,-1025,-561,-319,255,149,-447
0,5252669,199,-1875,-384,-1025,-561,-319,255,149,-447
0,5252676,199,-1875,-384,-1025,-561,-319,255,149,-447
0,5252682,197,-1873,-380,-1021,-560,-325,255,149,-447
0,5252688,197,-1873,-380,-1021,-560,-325,255,149,-447
0,5252697,197,-1873,-380,-1021,-560,-325,255,149,-447
0,5252704,197,-1873,-380,-1021,-560,-325,255,149,-447
0,5252711,197,-1873,-380,-1021,-560,-325,255,149,-447
0,5252718,197,-1873,-380,-1021,-560,-325,255,149,-447
0,5252726,196,-1872,-380,-1024,-563,-327,264,146,-448
0,5252733,196,-1872,-380,-1024,-563,-327,264,146,-448
0,5252743,199,-1872,-381,-1021,-568,-325,264,146,-448
0,5252750,199,-1872,-381,-1021,-568,-325,264,146,-448
0,5252756,199,-1872,-381,-1021,-568,-325,264,146,-448
0,5252763,199,-1872,-377,-1021,-564,-314,264,146,-448
0,5252770,199,-1872,-377,-1021,-564,-314,264,146,-448
0,5252777,199,-1872,-377,-1021,-564,-314,264,146,-448
0,5252785,198,-1871,-385,-1033,-569,-323,264,146,-448
0,5252791,198,-1871,-385,-1033,-569,-323,264,146,-448
0,5252797,198,-1871,-385,-1033,-569,-323,264,146,-448
0,5252802,201,-1873,-384,-1026,-561,-324,264,146,-448
0,5252807,201,-1873,-384,-1026,-561,-324,264,146,-448
0,5252815,201,-1873,-384,-1026,-561,-324,264,146,-448
0,5252823,199,-1872,-379,-1028,-562,-320,264,146,-448
0,5252829,199,-1872,-379,-1028,-562,-320,264,146,-448
0,5252835,199,-1872,-379,-1028,-562,-320,264,146,-448
0,5252842,199,-1874,-375,-1025,-566,-324,258,144,-434
0,5252849,199,-1874,-375,-1025,-566,-324,258,144,-434
0,5252856,199,-1874,-375,-1025,-566,-324,258,144,-434
0,5252864,199,-1874,-378,-1027,-564,-323,258,144,-434
0,5252870,199,-1874,-378,-1027,-564,-323,258,144,-434
0,5252878,199,-1874,-378,-1027,-564,-323,258,144,-434
0,5252885,199,-1877,-377,-1026,-568,-328,258,144,-434
0,5252892,199,-1877,-377,-1026,-568,-328,258,144,-434
0,5252898,199,-1877,-377,-1026,-568,-328,258,144,-434
0,5252904,204,-1874,-382,-1022,-566,-321,258,144,-434
0,5252912,204,-1874,-382,-1022,-566,-321,258,144,-434
0,5252919,204,-1874,-382,-1022,-566,-321,258,144,-434
0,5252931,198,-1875,-385,-1021,-563,-319,258,144,-434
0,5252940,200,-1873,-382,-1025,-566,-318,258,144,-434
0,5252952,200,-1873,-382,-1025,-566,-318,258,144,-434
0,5252964,200,-1874,-382,-1026,-565,-321,258,144,-434
0,5252977,200,-1874,-382,-1026,-565,-321,258,144,-434
0,5252988,199,-1874,-377,-1023,-565,-324,256,146,-444
0,5253003,200,-1874,-383,-1026,-567,-326,256,146,-444
0,5253015,200,-1874,-383,-1026,-567,-326,256,146,-444
0,5253028,200,-1876,-382,-1023,-573,-320,256,146,-444
0,5253041,199,-1875,-376,-1027,-562,-321,256,146,-444
0,5253054,199,-1875,-376,-1027,-562,-321,256,146,-444
0,5253066,199,-1875,-382,-1027,-565,-323,256,146,-444
0,5253079,199,-1875,-382,-1027,-565,-323,256,146,-444
0,5253092,200,-1873,-386,-1028,-563,-318,256,146,-444
0,5253105,199,-1874,-375,-1022,-567,-322,261,143,-439
0,5253117,199,-1874,-375,-1022,-567,-322,261,143,-439
0,5253132,202,-1873,-378,-1021,-560,-324,261,143,-439
0,5253145,199,-1874,-379,-1027,-566,-316,261,143,-439
0,5253156,199,-1874,-379,-1027,-566,-316,261,143,-439
0,5253169,201,-1872,-385,-1023,-566,-322,261,143,-439
0,5253181,199,-1875,-382,-1028,-567,-322,261,143,-439
0,5253193,199,-1875,-382,-1028,-567,-322,261,143,-439
0,5253206,198,-1873,-380,-1036,-570,-328,261,143,-439
0,5253220,198,-1870,-385,-1027,-564,-322,261,143,-439
0,5253233,198,-1870,-385,-1027,-564,-322,251,139,-441
0,5253242,199,-1873,-376,-1022,-558,-326,251,139,-441
0,5253255,199,-1873,-376,-1022,-558,-326,251,139,-441
0,5253269,198,-1877,-383,-1029,-561,-319,251,139,-441
0,5253280,199,-1874,-387,-1029,-564,-310,251,139,-441
0,5253294,199,-1874,-387,-1029,-564,-310,251,139,-441
0,5253307,199,-1872,-380,-1032,-567,-321,251,139,-441
0,5253320,200,-1875,-379,-1029,-565,-322,251,139,-441
0,5253331,200,-1875,-379,-1029,-565,-322,251,139,-441
0,5253341,202,-1872,-376,-1034,-571,-319,251,139,-441
0,5253349,202,-1872,-376,-1034,-571,-319,251,139,-441
0,5253356,202,-1872,-376,-1034,-571,-319,251,139,-441
0,5253364,198,-1872,-374,-1029,-564,-323,262,140,-442
0,5253376,198,-1872,-374,-1029,-564,-323,262,140,-442
0,5253388,199,-1872,-381,-1024,-568,-322,262,140,-442
0,5253401,202,-1873,-382,-1030,-570,-328,262,140,-442
0,5253412,202,-1873,-382,-1030,-570,-328,262,140,-442
0,5253424,199,-1874,-384,-1029,-567,-317,262,140,-442
0,5253436,199,-1874,-384,-1029,-567,-317,262,140,-442
0,5253446,196,-1875,-385,-1028,-568,-319,262,140,-442
0,5253456,196,-1875,-385,-1028,-568,-319,262,140,-442
0,5253471,199,-1871,-388,-1032,-574,-322,262,140,-442
0,5253485,197,-1874,-384,-1032,-573,-321,257,145,-447
0,5253495,197,-1874,-384,-1032,-573,-321,257,145,-447
0,5253502,202,-1873,-389,-1029,-570,-322,257,145,-447
0,5253511,202,-1873,-389,-1029,-570,-322,257,145,-447
0,5253519,202,-1873,-389,-1029,-570,-322,257,145,-447
0,5253528,204,-1873,-386,-1019,-570,-325,257,145,-447
0,5253541,197,-1874,-383,-1022,-568,-324,257,145,-447
0,5253554,197,-1874,-383,-1022,-568,-324,257,145,-447
0,5253568,200,-1876,-384,-1021,-569,-320,257,145,-447
0,5253580,197,-1870,-377,-1020,-562,-325,257,145,-447
0,5253593,197,-1870,-377,-1020,-562,-325,257,145,-447
0,5253605,197,-1872,-382,-1025,-564,-319,257,145,-447
0,5253618,197,-1872,-382,-1025,-564,-319,257,145,-447
0,5253632,198,-1874,-381,-1028,-570,-331,255,129,-441
0,5253643,201,-1872,-380,-1020,-568,-322,255,129,-441
0,5253654,201,-1872,-380,-1020,-568,-322,255,129,-441
0,5253667,200,-1872,-384,-1027,-569,-322,255,129,-441
0,5253681,198,-1872,-386,-1028,-568,-319,255,129,-441
0,5253692,198,-1872,-386,-1028,-568,-319,255,129,-441
0,5253706,198,-1872,-386,-1028,-568,-319,255,129,-441
0,5253718,198,-1872,-386,-1028,-568,-319,255,129,-441
0,5253731,200,-1872,-385,-1032,-564,-319,255,129,-441
0,5253744,200,-1874,-377,-1031,-567,-326,251,141,-445
0,5253757,200,-1874,-377,-1031,-567,-326,251,141,-445
0,5253770,198,-1874,-379,-1027,-572,-320,251,141,-445
0,5253782,198,-1873,-383,-1031,-568,-322,251,141,-445
0,5253795,198,-1873,-383,-1031,-568,-322,251,141,-445
0,5253806,199,-1873,-381,-1034,-574,-326,251,141,-445
0,5253818,199,-1873,-381,-1034,-574,-326,251,141,-445
0,5253830,198,-1873,-384,-1025,-566,-322,251,141,-445
0,5253843,198,-1874,-385,-1029,-570,-320,251,141,-445
0,5253857,198,-1874,-385,-1029,-570,-320,251,141,-445
0,5253871,199,-1874,-383,-1029,-568,-327,251,141,-445
0,5253880,196,-1871,-381,-1034,-566,-327,260,138,-445
0,5253892,196,-1871,-381,-1034,-566,-327,260,138,-446
0,5253905,199,-1876,-382,-1034,-562,-325,260,138,-446
0,5253918,199,-1876,-382,-1034,-562,-325,260,138,-446
0,5253929,197,-1876,-379,-1021,-564,-333,260,138,-446
0,5253935,197,-1876,-379,-1021,-564,-333,260,138,-446
0,5253940,197,-1876,-379,-1021,-564,-333,260,138,-446
0,5253945,200,-1874,-379,-1025,-569,-325,260,138,-446
0,5253953,200,-1874,-379,-1025,-569,-325,260,138,-446
0,5253960,200,-1874,-379,-1025,-569,-325,260,138,-446
0,5253966,200,-1874,-385,-1027,-567,-329,260,138,-446
0,5253974,200,-1874,-385,-1027,-567,-329,260,138,-446
0,5253981,200,-1873,-382,-1026,-560,-321,260,138,-446
0,5253987,200,-1873,-382,-1026,-560,-321,260,138,-446
0,5253992,200,-1873,-382,-1026,-560,-321,260,138,-446
0,5253999,200,-1873,-382,-1026,-560,-321,260,138,-446
0,5254007,199,-1873,-376,-1036,-565,-316,257,141,-441
0,5254012,199,-1873,-376,-1036,-565,-316,257,141,-441
0,5254020,199,-1873,-376,-1036,-565,-316,257,141,-441
0,5254026,200,-1872,-383,-1035,-564,-321,257,141,-441
0,5254034,200,-1872,-383,-1035,-564,-321,257,141,-441
0,5254040,200,-1872,-383,-1035,-564,-321,257,141,-441
0,5254046,202,-1874,-382,-1027,-564,-315,257,141,-441
0,5254053,202,-1874,-382,-1027,-564,-315,257,141,-441
0,5254060,202,-1874,-382,-1027,-564,-315,257,141,-441
0,5254067,200,-1873,-383,-1027,-567,-324,257,141,-441
0,5254075,200,-1873,-383,-1027,-567,-324,257,141,-441
0,5254081,198,-1872,-381,-1025,-564,-330,257,141,-441
0,5254087,198,-1872,-381,-1025,-564,-330,257,141,-441
0,5254093,198,-1872,-381,-1025,-564,-330,257,141,-441
0,5254100,198,-1872,-381,-1025,-564,-330,257,141,-441
0,5254109,198,-1872,-379,-1016,-564,-330,257,141,-441
0,5254116,198,-1872,-379,-1016,-564,-330,257,141,-441
0,5254122,195,-1875,-382,-1020,-568,-319,257,145,-449
0,5254129,195,-1875,-382,-1020,-568,-319,257,145,-449
0,5254136,195,-1875,-382,-1020,-568,-319,257,145,-449
0,5254141,198,-1875,-383,-1028,-561,-321,257,145,-449
0,5254149,198,-1875,-383,-1028,-561,-321,257,145,-449
0,5254156,198,-1875,-383,-1028,-561,-321,257,145,-449
0,5254163,200,-1871,-381,-1024,-564,-327,257,145,-449
0,5254170,200,-1871,-381,-1024,-564,-327,257,145,-449
0,5254176,200,-1871,-381,-1024,-564,-327,257,145,-449
0,5254184,199,-1871,-380,-1015,-567,-331,257,145,-449
0,5254192,199,-1871,-380,-1015,-567,-331,257,145,-449
0,5254197,199,-1871,-380,-1015,-567,-331,257,145,-449
0,5254204,203,-1872,-382,-1032,-573,-326,257,145,-449
0,5254210,203,-1872,-382,-1032,-573,-326,257,145,-449
0,5254217,203,-1872,-382,-1032,-573,-326,257,145,-449
0,5254224,199,-1871,-381,-1024,-565,-327,257,145,-449
0,5254231,199,-1871,-381,-1024,-565,-327,257,145,-449
0,5254239,199,-1871,-381,-1024,-565,-327,257,145,-449
0,5254244,199,-1874,-381,-1022,-569,-321,257,145,-449
0,5254252,199,-1874,-381,-1022,-569,-321,257,145,-449
0,5254259,199,-1874,-381,-1022,-569,-321,257,145,-449
0,5254267,197,-1873,-378,-1022,-566,-325,253,143,-445
0,5254274,197,-1873,-378,-1022,-566,-325,253,143,-445
0,5254281,197,-1873,-378,-1022,-566,-325,253,143,-445
0,5254288,199,-1874,-380,-1026,-564,-324,253,143,-445
0,5254295,199,-1874,-380,-1026,-564,-324,253,143,-445
0,5254301,202,-1875,-382,-1030,-566,-318,253,143,-445
0,5254308,202,-1875,-382,-1030,-566,-318,253,143,-445
0,5254316,202,-1875,-382,-1030,-566,-318,253,143,-445
0,5254322,201,-1875,-384,-1025,-570,-319,253,143,-445
0,5254328,201,-1875,-384,-1025,-570,-319,253,143,-445
0,5254335,201,-1875,-384,-1025,-570,-319,253,143,-445
0,5254342,196,-1872,-380,-1026,-566,-323,253,143,-445
0,5254349,196,-1872,-380,-1026,-566,-323,253,143,-445
0,5254356,196,-1872,-380,-1026,-566,-323,253,143,-445
0,5254364,202,-1878,-381,-1024,-570,-326,253,143,-445
0,5254371,202,-1878,-381,-1024,-570,-326,253,143,-445
0,5254377,202,-1878,-381,-1024,-570,-326,253,143,-445
0,5254383,200,-1872,-380,-1024,-573,-326,259,145,-447
0,5254389,200,-1872,-380,-1024,-573,-326,259,145,-447
0,5254394,200,-1872,-380,-1024,-573,-326,259,145,-447
0,5254403,199,-1873,-378,-1028,-567,-336,259,145,-447
0,5254409,199,-1873,-378,-1028,-567,-336,259,145,-447
0,5254414,199,-1873,-378,-1028,-567,-336,259,145,-447
0,5254420,199,-1873,-378,-1028,-567,-336,259,145,-447
0,5254428,204,-1874,-381,-1020,-561,-319,259,145,-447
0,5254434,204,-1874,-381,-1020,-561,-319,259,145,-447
0,5254441,202,-1870,-382,-1027,-565,-324,259,145,-447
0,5254449,202,-1870,-382,-1027,-565,-324,259,145,-447
0,5254455,202,-1870,-382,-1027,-565,-324,259,145,-447
0,5254462,199,-1874,-384,-1033,-564,-332,259,145,-447
0,5254470,199,-1874,-384,-1033,-564,-332,259,145,-447
0,5254477,199,-1874,-384,-1033,-564,-332,259,145,-447
0,5254484,200,-1874,-383,-1028,-568,-327,259,145,-447
0,5254492,200,-1874,-383,-1028,-568,-327,259,145,-447
0,5254499,200,-1874,-383,-1028,-568,-327,259,145,-447
0,5254504,200,-1873,-381,-1028,-566,-324,259,145,-447
0,5254508,200,-1873,-381,-1028,-566,-324,259,145,-447
0,5254514,200,-1873,-381,-1028,-566,-324,259,145,-447
0,5254519,200,-1873,-381,-1028,-566,-324,259,145,-447
0,5254523,199,-1872,-380,-1028,-567,-322,258,140,-442
0,5254530,199,-1872,-380,-1028,-567,-322,258,140,-442
0,5254535,199,-1872,-380,-1028,-567,-322,258,140,-442
0,5254540,199,-1872,-380,-1028,-567,-322,258,140,-442
0,5254546,198,-1875,-383,-1020,-565,-326,258,140,-442
0,5254553,198,-1875,-383,-1020,-565,-326,258,140,-442
0,5254561,198,-1875,-383,-1020,-565,-326,258,140,-442
0,5254569,200,-1873,-385,-1031,-563,-328,258,140,-442
0,5254576,200,-1873,-385,-1031,-563,-328,258,140,-442
0,5254583,200,-1877,-389,-1028,-562,-320,258,140,-442
0,5254590,200,-1877,-389,-1028,-562,-320,258,140,-442
0,5254596,200,-1877,-389,-1028,-562,-320,258,140,-442
0,5254603,199,-1872,-380,-1027,-571,-323,258,140,-442
0,5254611,199,-1872,-380,-1027,-571,-323,258,140,-442
0,5254620,199,-1872,-380,-1027,-571,-323,258,140,-442
0,5254626,198,-1873,-390,-1026,-562,-320,258,140,-442
0,5254633,198,-1873,-390,-1026,-562,-320,258,140,-442
0,5254640,198,-1873,-390,-1026,-562,-320,258,140,-442
0,5254647,200,-1872,-381,-1028,-565,-325,253,143,-441
0,5254654,200,-1872,-381,-1028,-565,-325,253,143,-441
0,5254661,200,-1872,-381,-1028,-565,-325,253,143,-441
0,5254667,201,-1875,-378,-1030,-567,-315,253,143,-441
0,5254674,201,-1875,-378,-1030,-567,-315,253,143,-441
0,5254680,201,-1875,-378,-1030,-567,-315,253,143,-441
0,5254688,199,-1875,-382,-1036,-565,-318,253,143,-441
0,5254695,199,-1875,-382,-1036,-565,-318,253,143,-441
0,5254704,201,-1875,-388,-1039,-559,-316,253,143,-441
0,5254710,201,-1875,-388,-1039,-559,-316,253,143,-441
0,5254716,201,-1875,-388,-1039,-559,-316,253,143,-441
0,5254722,201,-1879,-388,-1030,-564,-323,253,143,-441
0,5254729,201,-1879,-388,-1030,-564,-323,253,143,-441
0,5254736,201,-1879,-388,-1030,-564,-323,253,143,-441
0,5254744,198,-1873,-380,-1025,-560,-321,253,143,-441
0,5254751,198,-1873,-380,-1025,-560,-321,253,143,-441
0,5254758,198,-1873,-380,-1025,-560,-321,253,143,-441
0,5254765,202,-1872,-383,-1020,-561,-321,254,144,-446
0,5254772,202,-1872,-383,-1020,-561,-321,254,144,-446
0,5254779,202,-1872,-383,-1020,-561,-321,254,144,-446
0,5254788,199,-1875,-380,-1033,-566,-329,254,144,-446
0,5254795,199,-1875,-380,-1033,-566,-329,254,144,-446
0,5254802,199,-1872,-385,-1027,-571,-329,254,144,-446
0,5254809,199,-1872,-385,-1027,-571,-329,254,144,-446
0,5254814,199,-1872,-385,-1027,-571,-329,254,144,-446
0,5254821,199,-1875,-382,-1030,-571,-319,254,144,-446
0,5254829,199,-1875,-382,-1030,-571,-319,254,144,-446
0,5254834,199,-1875,-382,-1030,-571,-319,254,144,-446
0,5254842,197,-1874,-379,-1021,-559,-319,254,144,-446
0,5254850,197,-1874,-379,-1021,-559,-319,254,144,-446
0,5254857,197,-1874,-379,-1021,-559,-319,254,144,-446
0,5254865,199,-1871,-381,-1032,-569,-318,254,144,-446
0,5254873,199,-1871,-381,-1032,-569,-318,254,144,-446
0,5254880,199,-1871,-381,-1032,-569,-318,254,144,-446
0,5254887,198,-1876,-386,-1024,-569,-320,254,144,-446
0,5254893,198,-1876,-386,-1024,-569,-320,254,144,-446
0,5254900,198,-1876,-386,-1024,-569,-320,254,144,-446
0,5254907,200,-1874,-381,-1024,-561,-322,257,139,-449
0,5254916,200,-1874,-381,-1024,-561,-322,257,139,-449
0,5254923,199,-1875,-386,-1022,-567,-323,257,139,-449
0,5254929,199,-1875,-386,-1022,-567,-323,257,139,-449
0,5254935,199,-1875,-386,-1022,-567,-323,257,139,-449
0,5254947,198,-1875,-377,-1026,-572,-325,257,139,-449
0,5254961,198,-1875,-377,-1026,-572,-325,257,139,-449
0,5254970,199,-1875,-379,-1026,-567,-317,257,139,-449
0,5254977,199,-1875,-379,-1026,-567,-317,257,139,-449
0,5254985,201,-1871,-387,-1024,-565,-316,257,139,-449
0,5254996,201,-1871,-387,-1024,-565,-316,257,139,-449
0,5255008,201,-1875,-388,-1028,-562,-318,257,139,-449
0,5255019,201,-1875,-388,-1028,-562,-318,257,139,-449
0,5255032,202,-1874,-381,-1035,-567,-326,257,147,-451
0,5255046,201,-1874,-380,-1028,-564,-325,257,147,-451
0,5255058,201,-1874,-380,-1028,-564,-325,257,147,-451
0,5255068,198,-1875,-387,-1022,-566,-327,257,147,-451
0,5255079,198,-1875,-387,-1022,-566,-327,257,147,-451
0,5255095,201,-1873,-384,-1024,-562,-322,257,147,-451
0,5255108,197,-1870,-382,-1020,-568,-324,257,147,-451
0,5255118,197,-1870,-382,-1020,-568,-324,257,147,-451
0,5255129,202,-1874,-383,-1023,-567,-324,257,147,-451
0,5255143,199,-1875,-376,-1024,-562,-325,257,147,-451
0,5255156,199,-1875,-376,-1024,-562,-325,257,147,-451
0,5255168,200,-1873,-380,-1024,-569,-322,258,142,-448
0,5255180,200,-1873,-380,-1024,-569,-322,258,142,-448
0,5255194,200,-1875,-379,-1025,-565,-318,258,142,-448
0,5255207,198,-1873,-383,-1029,-564,-315,258,142,-448
0,5255218,198,-1873,-383,-1029,-564,-315,258,142,-448
0,5255231,196,-1871,-378,-1027,-566,-327,258,142,-448
0,5255245,198,-1874,-381,-1026,-572,-322,258,142,-448
0,5255259,198,-1874,-381,-1026,-572,-322,258,142,-448
0,5255268,201,-1877,-385,-1029,-573,-324,258,142,-448
0,5255280,201,-1877,-385,-1029,-573,-324,258,142,-448
0,5255292,201,-1875,-381,-1024,-582,-327,255,143,-447
0,5255307,199,-1875,-380,-1022,-565,-327,255,143,-447
0,5255317,199,-1875,-380,-1022,-565,-327,255,143,-447
0,5255331,199,-1875,-388,-1026,-565,-321,255,143,-447
0,5255344,200,-1875,-383,-1033,-564,-332,255,143,-447
0,5255356,200,-1875,-383,-1033,-564,-332,255,143,-447
0,5255369,199,-1876,-384,-1032,-575,-326,255,143,-447
0,5255383,201,-1877,-386,-1028,-565,-321,255,143,-447
0,5255392,201,-1877,-386,-1028,-565,-321,255,143,-447
0,5255400,201,-1877,-386,-1028,-565,-321,255,143,-447
0,5255409,201,-1877,-386,-1030,-567,-321,255,143,-447
0,5255416,201,-1877,-386,-1030,-567,-321,255,143,-447
0,5255431,199,-1875,-379,-1032,-572,-318,258,152,-454
0,5255444,199,-1876,-386,-1037,-561,-321,258,152,-454
0,5255453,199,-1876,-386,-1037,-561,-321,258,152,-454
0,5255467,200,-1876,-381,-1024,-565,-320,258,152,-454
0,5255480,200,-1876,-381,-1024,-565,-320,258,152,-454
0,5255492,201,-1876,-379,-1021,-568,-322,258,152,-454
0,5255501,201,-1876,-379,-1021,-568,-322,258,152,-454
0,5255510,199,-1873,-381,-1022,-569,-325,258,152,-454
0,5255518,199,-1873,-381,-1022,-569,-325,258,152,-454
0,5255526,195,-1875,-384,-1019,-567,-322,258,152,-454
0,5255536,195,-1875,-384,-1019,-567,-322,258,152,-454
0,5255547,199,-1877,-377,-1025,-569,-323,254,136,-446
0,5255556,199,-1877,-377,-1025,-569,-323,254,136,-446
0,5255569,200,-1875,-378,-1020,-566,-327,254,136,-446
0,5255580,200,-1875,-378,-1020,-566,-327,254,136,-446
0,5255589,201,-1877,-380,-1025,-562,-319,254,136,-446
0,5255597,201,-1877,-380,-1025,-562,-319,254,136,-446
0,5255605,201,-1875,-376,-1019,-562,-319,254,136,-446
0,5255615,201,-1875,-376,-1019,-562,-319,254,136,-446
0,5255626,199,-1874,-380,-1028,-563,-323,254,136,-446
0,5255638,199,-1874,-380,-1028,-563,-323,254,136,-446
0,5255651,199,-1873,-380,-1021,-561,-323,254,136,-446
0,5255664,198,-1874,-383,-1014,-563,-319,256,144,-440
0,5255673,198,-1874,-383,-1014,-563,-319,256,144,-440
0,5255685,200,-1874,-384,-1023,-563,-325,256,144,-440
0,5255699,200,-1874,-384,-1023,-563,-325,256,144,-440
0,5255712,198,-1875,-382,-1030,-560,-327,256,144,-440
0,5255720,198,-1875,-382,-1030,-560,-327,256,144,-440
0,5255734,199,-1874,-379,-1021,-564,-329,256,144,-440
0,5255746,202,-1877,-382,-1029,-566,-320,256,144,-440
0,5255759,202,-1877,-382,-1029,-566,-320,256,144,-440
0,5255772,201,-1877,-384,-1025,-560,-324,256,144,-440
0,5255785,201,-1876,-381,-1028,-557,-320,256,144,-440
0,5255797,201,-1876,-381,-1028,-557,-320,256,144,-440
0,5255805,195,-1874,-379,-1027,-568,-322,258,142,-444
0,5255820,195,-1874,-379,-1027,-568,-322,258,142,-444
0,5255834,196,-1875,-374,-1033,-573,-323,258,142,-444
0,5255845,198,-1874,-389,-1032,-567,-325,258,142,-444
0,5255858,198,-1874,-389,-1032,-567,-325,258,142,-444
0,5255871,198,-1874,-384,-1028,-565,-322,258,142,-444
0,5255885,199,-1874,-387,-1022,-561,-328,258,142,-444
0,5255898,199,-1874,-387,-1022,-561,-328,258,142,-444
0,5255910,198,-1875,-379,-1023,-561,-325,258,142,-444
0,5255923,198,-1876,-380,-1024,-567,-320,251,153,-449
0,5255937,198,-1876,-380,-1024,-567,-320,251,153,-449
0,5255947,199,-1875,-380,-1020,-564,-326,251,153,-449
0,5255953,199,-1875,-380,-1020,-564,-326,251,153,-449
0,5255960,199,-1875,-380,-1020,-564,-326,251,153,-449
0,5255969,200,-1877,-380,-1032,-567,-322,251,153,-449
0,5255975,200,-1877,-380,-1032,-567,-322,251,153,-449
0,5255983,200,-1877,-380,-1032,-567,-322,251,153,-449
0,5255990,201,-1882,-385,-1028,-564,-331,251,153,-449
0,5255997,201,-1882,-385,-1028,-564,-331,251,153,-449
0,5256004,203,-1873,-388,-1036,-559,-329,251,153,-449
0,5256011,203,-1873,-388,-1036,-559,-329,251,153,-449
0,5256019,203,-1873,-388,-1036,-559,-329,251,153,-449
0,5256027,200,-1877,-381,-1022,-560,-325,251,153,-449
0,5256033,200,-1877,-381,-1022,-560,-325,251,153,-449
0,5256040,200,-1877,-381,-1022,-560,-325,251,153,-449
0,5256047,198,-1873,-381,-1023,-561,-326,251,153,-449
0,5256053,198,-1873,-381,-1023,-561,-326,251,153,-449
0,5256061,198,-1873,-381,-1023,-561,-326,251,153,-449
0,5256068,198,-1873,-378,-1019,-564,-320,259,147,-439
0,5256075,198,-1873,-378,-1019,-564,-320,259,147,-439
0,5256081,198,-1873,-378,-1019,-564,-320,259,147,-439
0,5256089,201,-1874,-379,-1019,-562,-324,259,147,-439
0,5256094,201,-1874,-379,-1019,-562,-324,259,147,-439
0,5256101,201,-1874,-379,-1019,-562,-324,259,147,-439
0,5256109,202,-1874,-383,-1021,-561,-323,259,147,-439
0,5256115,202,-1874,-383,-1021,-561,-323,259,147,-439
0,5256121,202,-1874,-383,-1021,-561,-323,259,147,-439
0,5256128,203,-1875,-387,-1028,-565,-323,259,147,-439
0,5256136,203,-1875,-387,-1028,-565,-323,259,147,-439
0,5256142,203,-1875,-387,-1028,-565,-323,259,147,-439
0,5256148,201,-1874,-379,-1029,-567,-326,259,147,-439
0,5256156,201,-1874,-379,-1029,-567,-326,259,147,-439
0,5256162,201,-1874,-379,-1029,-567,-326,259,147,-439
0,5256169,199,-1877,-387,-1032,-562,-321,259,147,-439
0,5256176,199,-1877,-387,-1032,-562,-321,259,147,-439
0,5256181,199,-1877,-387,-1032,-562,-321,259,147,-439
0,5256186,202,-1874,-383,-1024,-561,-313,265,151,-445
0,5256194,202,-1874,-383,-1024,-561,-313,265,151,-445
0,5256201,202,-1874,-383,-1024,-561,-313,265,151,-445
0,5256207,198,-1877,-381,-1023,-564,-324,265,151,-445
0,5256214,198,-1877,-381,-1023,-564,-324,265,151,-445
0,5256220,198,-1877,-381,-1023,-564,-324,265,151,-445
0,5256227,201,-1872,-387,-1026,-567,-328,265,151,-445
0,5256232,201,-1872,-387,-1026,-567,-328,265,151,-445
0,5256241,201,-1872,-387,-1026,-567,-328,265,151,-445
0,5256247,200,-1876,-386,-1020,-561,-323,265,151,-445
0,5256256,200,-1876,-386,-1020,-561,-323,265,151,-445
0,5256263,200,-1876,-386,-1020,-561,-323,265,151,-445
0,5256269,199,-1871,-383,-1025,-555,-321,265,151,-445
0,5256274,199,-1871,-383,-1025,-555,-321,265,151,-445
0,5256283,199,-1871,-383,-1025,-555,-321,265,151,-445
0,5256289,197,-1874,-389,-1027,-558,-314,265,151,-445
0,5256296,197,-1874,-389,-1027,-558,-314,265,151,-445
0,5256304,198,-1873,-386,-1024,-565,-324,265,151,-445
0,5256311,198,-1873,-386,-1024,-565,-324,265,151,-445
0,5256320,198,-1873,-386,-1024,-565,-324,265,151,-445
0,5256325,202,-1873,-372,-1025,-563,-321,260,138,-434
0,5256332,202,-1873,-372,-1025,-563,-321,260,138,-434
0,5256339,202,-1873,-372,-1025,-563,-321,260,138,-434
0,5256347,203,-1875,-379,-1031,-566,-323,260,138,-434
0,5256354,203,-1875,-379,-1031,-566,-323,260,138,-434
0,5256363,203,-1875,-379,-1031,-566,-323,260,138,-434
0,5256369,199,-1875,-382,-1022,-564,-320,260,138,-434
0,5256375,199,-1875,-382,-1022,-564,-320,260,138,-434
0,5256381,199,-1875,-382,-1022,-564,-320,260,138,-434
0,5256388,200,-1874,-383,-1029,-571,-328,260,138,-434
0,5256396,200,-1874,-383,-1029,-571,-328,260,138,-434
0,5256403,199,-1875,-381,-1026,-563,-325,260,138,-434
0,5256411,199,-1875,-381,-1026,-563,-325,260,138,-434
0,5256417,199,-1875,-381,-1026,-563,-325,260,138,-434
0,5256423,199,-1875,-381,-1026,-563,-325,260,138,-434
0,5256430,200,-1874,-375,-1023,-564,-319,260,138,-434
0,5256438,200,-1874,-375,-1023,-564,-319,260,138,-434
0,5256446,199,-1876,-379,-1027,-562,-323,261,141,-441
0,5256454,199,-1876,-379,-1027,-562,-323,261,141,-441
0,5256460,199,-1876,-379,-1027,-562,-323,261,141,-441
0,5256467,197,-1876,-387,-1033,-560,-319,261,141,-441
0,5256473,197,-1876,-387,-1033,-560,-319,261,141,-441
0,5256480,197,-1876,-387,-1033,-560,-319,261,141,-441
0,5256487,196,-1872,-382,-1030,-567,-320,261,141,-441
0,5256496,196,-1872,-382,-1030,-567,-320,261,141,-441
0,5256501,196,-1872,-382,-1030,-567,-320,261,141,-441
0,5256506,199,-1874,-387,-1026,-567,-317,261,141,-441
0,5256511,199,-1874,-387,-1026,-567,-317,261,141,-441
0,5256516,199,-1874,-387,-1026,-567,-317,261,141,-441
0,5256521,199,-1874,-387,-1026,-567,-317,261,141,-441
0,5256526,201,-1874,-386,-1026,-569,-318,261,141,-441
0,5256534,201,-1874,-386,-1026,-569,-318,261,141,-441
0,5256542,201,-1874,-386,-1026,-569,-318,261,141,-441
0,5256549,202,-1874,-383,-1030,-562,-320,261,141,-441
0,5256556,202,-1874,-383,-1030,-562,-320,261,141,-441
0,5256563,202,-1874,-383,-1030,-562,-320,261,141,-441
0,5256570,200,-1876,-379,-1035,-574,-329,257,149,-437
0,5256577,200,-1876,-379,-1035,-574,-329,257,149,-437
0,5256584,200,-1876,-379,-1035,-574,-329,257,149,-437
0,5256592,199,-1874,-386,-1030,-567,-327,257,149,-437
0,5256599,199,-1874,-386,-1030,-567,-327,257,149,-437
0,5256606,198,-1871,-388,-1029,-569,-326,257,149,-437
0,5256613,198,-1871,-388,-1029,-569,-326,257,149,-437
0,5256621,198,-1871,-388,-1029,-569,-326,257,149,-437
0,5256628,198,-1876,-384,-1021,-566,-333,257,149,-437
0,5256634,198,-1876,-384,-1021,-566,-333,257,149,-437
0,5256640,198,-1876,-384,-1021,-566,-333,257,149,-437
0,5256647,199,-1874,-385,-1024,-565,-334,257,149,-437
0,5256655,199,-1874,-385,-1024,-565,-334,257,149,-437
0,5256664,200,-1876,-381,-1026,-565,-318,257,149,-437
0,5256673,200,-1876,-381,-1026,-565,-318,257,149,-437
0,5256680,200,-1876,-381,-1026,-565,-318,257,149,-437
0,5256687,203,-1877,-382,-1025,-568,-325,257,149,-437
0,5256692,203,-1877,-382,-1025,-568,-325,257,149,-437
0,5256699,203,-1877,-382,-1025,-568,-325,257,149,-437
0,5256706,202,-1874,-375,-1022,-565,-323,260,146,-444
0,5256714,202,-1874,-375,-1022,-565,-323,260,146,-444
0,5256720,202,-1874,-375,-1022,-565,-323,260,146,-444
0,5256727,199,-1873,-383,-1026,-557,-328,260,146,-444
0,5256735,199,-1873,-383,-1026,-557,-328,260,146,-444
0,5256743,199,-1873,-383,-1026,-557,-328,260,146,-444
0,5256750,201,-1873,-388,-1031,-560,-322,260,146,-444
0,5256756,201,-1873,-388,-1031,-560,-322,260,146,-444
0,5256763,201,-1873,-388,-1031,-560,-322,260,146,-444
0,5256770,201,-1871,-386,-1032,-571,-326,260,146,-444
0,5256776,201,-1871,-386,-1032,-571,-326,260,146,-444
0,5256783,201,-1871,-386,-1032,-571,-326,260,146,-444
0,5256791,199,-1873,-379,-1017,-571,-321,260,146,-444
0,5256797,199,-1873,-379,-1017,-571,-321,260,146,-444
0,5256805,202,-1876,-387,-1026,-567,-324,260,146,-444
0,5256810,202,-1876,-387,-1026,-567,-324,260,146,-444
0,5256816,202,-1876,-387,-1026,-567,-324,260,146,-444
0,5256823,202,-1876,-387,-1026,-567,-324,260,146,-444
0,5256829,199,-1875,-383,-1023,-570,-327,258,144,-448
0,5256837,199,-1875,-383,-1023,-570,-327,258,144,-448
0,5256842,199,-1875,-383,-1023,-570,-327,258,144,-448
0,5256849,199,-1874,-382,-1019,-564,-330,258,144,-448
0,5256857,199,-1874,-382,-1019,-564,-330,258,144,-448
0,5256864,203,-1872,-386,-1024,-560,-322,258,144,-448
0,5256870,203,-1872,-386,-1024,-560,-322,258,144,-448
0,5256876,203,-1872,-386,-1024,-560,-322,258,144,-448
0,5256883,203,-1872,-386,-1024,-560,-322,258,144,-448
0,5256889,199,-1872,-382,-1032,-567,-326,258,144,-448
0,5256895,199,-1872,-382,-1032,-567,-326,258,144,-448
0,5256902,199,-1872,-382,-1032,-567,-326,258,144,-448
0,5256910,199,-1877,-382,-1034,-564,-325,258,144,-448
0,5256918,199,-1877,-382,-1034,-564,-325,258,144,-448
0,5256925,201,-1874,-384,-1031,-564,-324,258,144,-448
0,5256931,201,-1874,-384,-1031,-564,-324,258,144,-448
0,5256939,201,-1874,-384,-1031,-564,-324,258,144,-448
0,5256946,197,-1875,-387,-1030,-567,-325,258,144,-448
0,5256957,197,-1875,-387,-1030,-567,-325,258,144,-448
0,5256970,203,-1872,-381,-1028,-565,-320,259,143,-445
0,5256982,203,-1872,-381,-1028,-565,-320,259,143,-445
0,5256993,202,-1874,-382,-1028,-570,-313,259,143,-445
0,5257006,200,-1876,-384,-1030,-563,-318,259,143,-445
0,5257020,200,-1876,-384,-1030,-563,-318,259,143,-445
0,5257032,197,-1873,-387,-1022,-572,-325,259,143,-445
0,5257044,197,-1873,-387,-1022,-572,-325,259,143,-445
0,5257055,200,-1876,-383,-1020,-571,-327,259,143,-445
0,5257068,201,-1874,-384,-1027,-568,-326,259,143,-445
0,5257078,201,-1874,-384,-1027,-568,-326,259,143,-445
0,5257091,200,-1876,-381,-1030,-570,-330,254,148,-440
0,5257103,200,-1876,-381,-1030,-570,-330,254,148,-440
0,5257115,196,-1871,-383,-1023,-572,-317,254,148,-440
0,5257126,198,-1874,-386,-1025,-566,-320,254,148,-440
0,5257135,198,-1874,-386,-1025,-566,-320,254,148,-440
0,5257143,198,-1874,-386,-1025,-566,-320,254,148,-440
0,5257151,200,-1875,-378,-1024,-568,-325,254,148,-440
0,5257159,200,-1875,-378,-1024,-568,-325,254,148,-440
0,5257175,200,-1872,-389,-1020,-565,-326,254,148,-440
0,5257190,199,-1874,-384,-1023,-566,-324,254,148,-440
0,5257201,199,-1874,-384,-1023,-566,-324,254,148,-440
0,5257213,203,-1875,-384,-1019,-564,-323,257,151,-445
0,5257227,200,-1874,-377,-1024,-561,-324,257,151,-445
0,5257242,200,-1874,-377,-1024,-561,-324,257,151,-445
0,5257253,199,-1874,-379,-1023,-573,-318,257,151,-445
0,5257267,199,-1875,-385,-1022,-565,-315,257,151,-445
0,5257278,199,-1875,-385,-1022,-565,-315,257,151,-445
0,5257292,199,-1872,-384,-1028,-562,-327,257,151,-445
0,5257305,199,-1872,-384,-1028,-562,-327,257,151,-445
0,5257318,200,-1873,-385,-1028,-566,-322,257,151,-445
0,5257331,202,-1875,-382,-1030,-562,-326,257,151,-445
0,5257345,202,-1875,-382,-1030,-562,-326,257,151,-445
0,5257358,200,-1871,-379,-1021,-570,-327,258,144,-438
0,5257371,201,-1873,-386,-1024,-562,-319,258,144,-438
0,5257383,201,-1873,-386,-1024,-562,-319,258,144,-438
0,5257395,201,-1875,-389,-1033,-565,-320,258,144,-438
0,5257410,199,-1874,-382,-1034,-574,-323,258,144,-438
0,5257422,199,-1874,-382,-1034,-574,-323,258,144,-438
0,5257434,197,-1873,-382,-1028,-567,-325,258,144,-438
0,5257448,199,-1878,-387,-1020,-563,-320,258,144,-438
0,5257461,199,-1878,-387,-1020,-563,-320,258,144,-438
0,5257473,200,-1874,-378,-1031,-572,-320,261,151,-445
0,5257485,200,-1874,-378,-1031,-572,-320,261,151,-445
0,5257498,200,-1874,-376,-1021,-569,-322,261,151,-445
0,5257506,197,-1871,-387,-1029,-566,-324,261,151,-445
0,5257515,197,-1871,-387,-1029,-566,-324,261,151,-445
0,5257524,197,-1871,-387,-1029,-566,-324,261,151,-445
0,5257534,197,-1873,-381,-1032,-564,-324,261,151,-445
0,5257547,198,-1877,-382,-1028,-572,-324,261,151,-445
0,5257561,198,-1877,-382,-1028,-572,-324,261,151,-445
0,5257573,197,-1875,-379,-1030,-568,-328,261,151,-445
0,5257581,197,-1875,-379,-1030,-568,-328,261,151,-445
0,5257593,199,-1876,-384,-1027,-565,-321,261,151,-445
0,5257607,199,-1875,-383,-1034,-565,-317,260,148,-448
0,5257618,199,-1875,-383,-1034,-565,-317,260,148,-448
0,5257629,201,-1873,-387,-1028,-563,-320,260,148,-448
0,5257641,201,-1873,-387,-1028,-563,-320,260,148,-448
0,5257652,200,-1872,-379,-1027,-566,-317,260,148,-448
0,5257662,200,-1872,-379,-1027,-566,-317,260,148,-448
0,5257676,199,-1874,-387,-1024,-569,-323,260,148,-448
0,5257689,202,-1875,-383,-1026,-573,-325,260,148,-448
0,5257697,202,-1875,-383,-1026,-573,-325,260,148,-448
0,5257705,199,-1873,-380,-1042,-568,-327,260,148,-448
0,5257713,199,-1873,-380,-1042,-568,-327,260,148,-448
0,5257721,199,-1873,-380,-1042,-568,-327,260,148,-448
0,5257732,199,-1872,-382,-1031,-559,-329,263,149,-443
0,5257745,199,-1872,-382,-1031,-559,-329,263,149,-443
0,5257759,201,-1877,-382,-1025,-568,-324,263,149,-443
0,5257773,201,-1874,-389,-1027,-572,-323,263,149,-443
0,5257783,201,-1874,-389,-1027,-572,-323,263,149,-443
0,5257795,201,-1877,-388,-1032,-574,-330,263,149,-443
0,5257804,201,-1877,-388,-1032,-574,-330,263,149,-443
0,5257814,200,-1874,-384,-1031,-568,-323,263,149,-443
0,5257827,200,-1876,-385,-1026,-568,-326,263,149,-443
0,5257840,200,-1876,-385,-1026,-568,-326,263,149,-443
0,5257849,203,-1873,-382,-1030,-569,-324,263,149,-443
0,5257862,203,-1873,-382,-1030,-569,-324,263,149,-443
0,5257874,200,-1873,-383,-1030,-566,-319,264,140,-442
0,5257885,199,-1877,-383,-1038,-570,-321,264,140,-442
0,5257899,199,-1877,-383,-1038,-570,-321,264,140,-442
0,5257910,201,-1876,-380,-1031,-569,-321,264,140,-442
0,5257923,201,-1876,-380,-1031,-569,-321,264,140,-442
0,5257936,198,-1871,-383,-1023,-561,-323,264,140,-442
0,5257949,201,-1877,-385,-1025,-563,-329,264,140,-442
0,5257960,201,-1877,-385,-1025,-563,-329,264,140,-442
0,5257967,201,-1877,-385,-1025,-563,-329,264,140,-442
0,5257974,201,-1877,-385,-1025,-563,-329,264,140,-442
0,5257982,201,-1877,-385,-1025,-563,-329,264,140,-442
0,5257989,202,-1873,-379,-1023,-557,-322,257,145,-441
0,5257996,202,-1873,-379,-1023,-557,-322,257,145,-441
0,5258001,202,-1873,-379,-1023,-557,-322,257,145,-441
0,5258008,200,-1874,-383,-1024,-565,-326,257,145,-441
0,5258016,200,-1874,-383,-1024,-565,-326,257,145,-441
0,5258022,200,-1874,-383,-1024,-565,-326,257,145,-441
0,5258029,200,-1875,-383,-1022,-565,-320,257,145,-441
0,5258036,200,-1875,-383,-1022,-565,-320,257,145,-441
0,5258043,200,-1875,-383,-1022,-565,-320,257,145,-441
0,5258048,201,-1873,-385,-1028,-565,-322,257,145,-441
0,5258055,201,-1873,-385,-1028,-565,-322,257,145,-441
0,5258063,201,-1873,-385,-1028,-565,-322,257,145,-441
0,5258072,200,-1873,-385,-1022,-565,-331,257,145,-441
0,5258079,200,-1873,-385,-1022,-565,-331,257,145,-441
0,5258085,200,-1873,-385,-1022,-565,-331,257,145,-441
0,5258092,201,-1871,-386,-1020,-571,-325,257,145,-441
0,5258098,201,-1871,-386,-1020,-571,-325,257,145,-441
0,5258105,201,-1871,-386,-1020,-571,-325,257,145,-441
0,5258113,200,-1873,-384,-1015,-569,-318,260,140,-442
0,5258121,200,-1873,-384,-1015,-569,-318,260,140,-442
0,5258127,195,-1874,-382,-1021,-570,-325,260,140,-442
0,5258133,195,-1874,-382,-1021,-570,-325,260,140,-442
0,5258140,195,-1874,-382,-1021,-570,-325,260,140,-442
0,5258147,197,-1873,-381,-1032,-569,-327,260,140,-442
0,5258155,197,-1873,-381,-1032,-569,-327,260,140,-442
0,5258163,197,-1873,-381,-1032,-569,-327,260,140,-442
0,5258168,202,-1873,-388,-1035,-569,-325,260,140,-442
0,5258175,202,-1873,-388,-1035,-569,-325,260,140,-442
0,5258183,202,-1873,-388,-1035,-569,-325,260,140,-442
0,5258188,200,-1873,-388,-1030,-568,-324,260,140,-442
0,5258193,200,-1873,-388,-1030,-568,-324,260,140,-442
0,5258200,200,-1873,-388,-1030,-568,-324,260,140,-442
0,5258206,202,-1875,-393,-1026,-564,-319,260,140,-442
0,5258213,202,-1875,-393,-1026,-564,-319,260,140,-442
0,5258219,202,-1875,-393,-1026,-564,-319,260,140,-442
0,5258226,200,-1874,-387,-1027,-564,-321,260,140,-442
0,5258232,200,-1874,-387,-1027,-564,-321,260,140,-442
0,5258238,200,-1874,-387,-1027,-564,-321,260,140,-442
0,5258245,200,-1874,-387,-1027,-564,-321,260,140,-442
0,5258252,198,-1873,-384,-1023,-563,-329,253,143,-443
0,5258259,198,-1873,-384,-1023,-563,-329,253,143,-443
0,5258265,198,-1873,-384,-1023,-563,-329,253,143,-443
0,5258273,197,-1874,-384,-1025,-565,-324,253,143,-443
0,5258280,197,-1874,-384,-1025,-565,-324,253,143,-443
0,5258288,198,-1876,-382,-1020,-557,-317,253,143,-443
0,5258295,198,-1876,-382,-1020,-557,-317,253,143,-443
0,5258302,198,-1876,-382,-1020,-557,-317,253,143,-443
0,5258309,199,-1873,-388,-1029,-565,-318,253,143,-443
0,5258316,199,-1873,-388,-1029,-565,-318,253,143,-443
0,5258324,199,-1873,-388,-1029,-565,-318,253,143,-443
0,5258332,198,-1875,-389,-1029,-564,-319,253,143,-443
0,5258339,198,-1875,-389,-1029,-564,-319,253,143,-443
0,5258346,198,-1875,-389,-1029,-564,-319,253,143,-443
0,5258352,202,-1875,-388,-1025,-562,-327,253,143,-443
0,5258358,202,-1875,-388,-1025,-562,-327,253,143,-443
0,5258366,199,-1874,-377,-1026,-565,-321,254,143,-443
0,5258374,199,-1874,-377,-1026,-565,-321,254,146,-442
0,5258382,199,-1874,-377,-1026,-565,-321,254,146,-442
0,5258389,200,-1872,-381,-1023,-568,-318,254,146,-442
0,5258396,200,-1872,-381,-1023,-568,-318,254,146,-442
0,5258402,200,-1872,-381,-1023,-568,-318,254,146,-442
0,5258411,199,-1872,-388,-1017,-563,-320,254,146,-442
0,5258419,199,-1872,-388,-1017,-563,-320,254,146,-442
0,5258426,199,-1872,-388,-1017,-563,-320,254,146,-442
0,5258432,199,-1872,-388,-1017,-563,-320,254,146,-442
0,5258440,199,-1872,-388,-1017,-563,-320,254,146,-442
0,5258446,200,-1876,-389,-1026,-569,-325,254,146,-442
0,5258452,200,-1876,-389,-1026,-569,-325,254,146,-442
0,5258459,200,-1876,-389,-1026,-569,-325,254,146,-442
0,5258466,200,-1876,-389,-1026,-569,-325,254,146,-442
0,5258472,200,-1876,-388,-1028,-571,-325,254,146,-442
0,5258479,200,-1876,-388,-1028,-571,-325,254,146,-442
0,5258486,197,-1871,-382,-1024,-568,-324,254,146,-442
0,5258493,197,-1871,-382,-1024,-568,-324,254,146,-442
0,5258500,197,-1871,-382,-1024,-568,-324,254,146,-442
0,5258505,197,-1871,-382,-1024,-568,-324,254,146,-442
0,5258510,202,-1872,-379,-1019,-561,-317,254,140,-444
0,5258515,202,-1872,-379,-1019,-561,-317,254,140,-444
0,5258520,202,-1872,-379,-1019,-561,-317,254,140,-444
0,5258525,202,-1872,-379,-1019,-561,-317,254,140,-444
0,5258531,199,-1873,-381,-1029,-566,-323,254,140,-444
0,5258539,199,-1873,-381,-1029,-566,-323,254,140,-444
0,5258546,199,-1873,-381,-1029,-566,-323,254,140,-444
0,5258553,197,-1876,-381,-1027,-563,-327,254,140,-444
0,5258560,197,-1876,-381,-1027,-563,-327,254,140,-444
0,5258566,197,-1876,-381,-1027,-563,-327,254,140,-444
0,5258572,200,-1874,-380,-1020,-563,-328,254,140,-444
0,5258579,200,-1874,-380,-1020,-563,-328,254,140,-444
0,5258587,202,-1875,-386,-1027,-561,-330,254,140,-444
0,5258595,202,-1875,-386,-1027,-561,-330,254,140,-444
0,5258601,202,-1875,-386,-1027,-561,-330,254,140,-444
0,5258609,201,-1874,-385,-1035,-566,-320,254,140,-444
0,5258617,201,-1874,-385,-1035,-566,-320,254,140,-444
0,5258626,201,-1874,-385,-1035,-566,-320,254,140,-444
0,5258633,200,-1874,-381,-1025,-570,-322,259,147,-443
0,5258640,200,-1874,-381,-1025,-570,-322,259,147,-443
0,5258646,200,-1876,-377,-1024,-565,-327,259,147,-443
0,5258654,200,-1876,-377,-1024,-565,-327,259,147,-443
0,5258660,200,-1876,-377,-1024,-565,-327,259,147,-443
0,5258667,199,-1875,-385,-1021,-560,-320,259,147,-443
0,5258673,199,-1875,-385,-1021,-560,-320,259,147,-443
0,5258678,199,-1875,-385,-1021,-560,-320,259,147,-443
0,5258683,199,-1875,-385,-1021,-560,-320,259,147,-443
0,5258690,200,-1876,-381,-1029,-560,-324,259,147,-443
0,5258696,200,-1876,-381,-1029,-560,-324,259,147,-443
0,5258702,200,-1876,-381,-1029,-560,-324,259,147,-443
0,5258710,199,-1874,-381,-1023,-570,-322,259,147,-443
0,5258717,199,-1874,-381,-1023,-570,-322,259,147,-443
0,5258724,199,-1874,-381,-1023,-570,-322,259,147,-443
0,5258730,198,-1874,-385,-1026,-569,-324,259,147,-443
0,5258737,198,-1874,-385,-1026,-569,-324,259,147,-443
0,5258744,198,-1874,-385,-1026,-569,-324,259,147,-443
0,5258752,197,-1874,-383,-1025,-568,-328,259,147,-443
0,5258757,197,-1874,-383,-1025,-568,-328,259,147,-443
0,5258764,197,-1874,-383,-1025,-568,-328,259,147,-443
0,5258771,199,-1873,-380,-1028,-568,-325,255,149,-443
0,5258778,199,-1873,-380,-1028,-568,-325,255,149,-443
0,5258784,199,-1873,-380,-1028,-568,-325,255,149,-443
0,5258792,199,-1872,-381,-1027,-564,-327,255,149,-443
0,5258798,199,-1872,-381,-1027,-564,-327,255,149,-443
0,5258804,199,-1872,-381,-1027,-564,-327,255,149,-443
0,5258812,202,-1873,-386,-1031,-568,-331,255,149,-443
0,5258817,202,-1873,-386,-1031,-568,-331,255,149,-443
0,5258824,202,-1873,-386,-1031,-568,-331,255,149,-443
0,5258830,200,-1874,-385,-1025,-563,-327,255,149,-443
0,5258838,200,-1874,-385,-1025,-563,-327,255,149,-443
0,5258845,200,-1874,-385,-1025,-563,-327,255,149,-443
0,5258851,201,-1873,-387,-1028,-565,-323,255,149,-443
0,5258857,201,-1873,-387,-1028,-565,-323,255,149,-443
0,5258865,201,-1873,-387,-1028,-565,-323,255,149,-443
0,5258872,199,-1871,-382,-1026,-567,-327,255,149,-443
0,5258878,199,-1871,-382,-1026,-567,-327,255,149,-443
0,5258887,200,-1873,-381,-1027,-570,-328,255,149,-443
0,5258893,200,-1873,-381,-1027,-570,-328,256,146,-444
0,5258900,200,-1873,-381,-1027,-570,-328,256,146,-444
0,5258907,198,-1876,-379,-1029,-571,-325,256,146,-444
0,5258914,198,-1876,-379,-1029,-571,-325,256,146,-444
0,5258919,198,-1876,-379,-1029,-571,-325,256,146,-444
0,5258927,198,-1876,-379,-1029,-571,-325,256,146,-444
0,5258934,199,-1876,-378,-1028,-570,-325,256,146,-444
0,5258940,199,-1876,-378,-1028,-570,-325,256,146,-444
0,5258947,199,-1877,-376,-1023,-569,-325,256,146,-444
0,5258953,199,-1877,-376,-1023,-569,-325,256,146,-444
0,5258960,199,-1877,-376,-1023,-569,-325,256,146,-444
0,5258971,197,-1873,-384,-1030,-567,-322,256,146,-444
0,5258983,197,-1873,-384,-1030,-567,-322,256,146,-444
0,5258997,200,-1873,-388,-1023,-564,-320,256,146,-444
0,5259010,200,-1872,-379,-1024,-563,-321,260,148,-436
0,5259021,200,-1872,-379,-1024,-563,-321,260,148,-436
0,5259033,200,-1875,-382,-1028,-568,-318,260,148,-436
0,5259045,200,-1875,-382,-1028,-568,-318,260,148,-436
0,5259060,199,-1874,-389,-1035,-567,-314,260,148,-436
0,5259072,199,-1873,-382,-1038,-569,-322,260,148,-436
0,5259083,199,-1873,-382,-1038,-569,-322,260,148,-436
0,5259098,199,-1875,-385,-1029,-572,-321,260,148,-436
0,5259109,201,-1874,-383,-1028,-573,-322,260,148,-436
0,5259121,201,-1874,-383,-1028,-573,-322,260,148,-436
0,5259134,199,-1876,-384,-1027,-562,-318,260,148,-436
0,5259149,200,-1873,-373,-1023,-564,-326,252,148,-446
0,5259162,200,-1873,-373,-1023,-564,-326,252,148,-446
0,5259172,201,-1872,-380,-1024,-569,-320,252,148,-446
0,5259184,201,-1872,-380,-1024,-569,-320,252,148,-446
0,5259192,198,-1875,-385,-1023,-574,-321,252,148,-446
0,5259199,198,-1875,-385,-1023,-574,-321,252,148,-446
0,5259207,201,-1873,-385,-1026,-575,-325,252,148,-446
0,5259217,201,-1873,-385,-1026,-575,-325,252,148,-446
0,5259228,201,-1873,-379,-1023,-571,-315,252,148,-446
0,5259237,201,-1873,-379,-1023,-571,-315,252,148,-446
0,5259249,202,-1872,-382,-1024,-565,-320,252,148,-446
0,5259264,202,-1872,-382,-1024,-565,-320,252,148,-446
0,5259275,199,-1874,-382,-1025,-564,-323,255,137,-445
0,5259288,204,-1873,-382,-1030,-559,-324,255,137,-445
0,5259300,204,-1873,-382,-1030,-559,-324,255,137,-445
0,5259314,203,-1875,-377,-1026,-565,-319,255,137,-445
0,5259327,203,-1875,-377,-1026,-565,-319,255,137,-445
0,5259339,201,-1877,-379,-1035,-571,-319,255,137,-445
0,5259352,198,-1875,-383,-1034,-565,-321,255,137,-445
0,5259366,198,-1875,-383,-1034,-565,-321,255,137,-445
0,5259380,199,-1873,-381,-1026,-566,-326,255,137,-445
0,5259390,200,-1875,-378,-1026,-559,-320,255,137,-445
0,5259403,200,-1875,-378,-1026,-559,-320,255,137,-445
0,5259417,199,-1873,-386,-1031,-560,-320,259,147,-441
0,5259430,200,-1874,-385,-1025,-570,-319,259,147,-441
0,5259441,200,-1874,-385,-1025,-570,-319,259,147,-441
0,5259452,199,-1874,-377,-1025,-568,-321,259,147,-441
0,5259464,199,-1874,-377,-1025,-568,-321,259,147,-441
0,5259478,198,-1872,-383,-1027,-567,-317,259,147,-441
0,5259490,200,-1875,-384,-1028,-579,-315,259,147,-441
0,5259501,200,-1875,-384,-1028,-579,-315,259,147,-441
0,5259509,201,-1874,-382,-1026,-569,-331,259,147,-441
0,5259517,201,-1874,-382,-1026,-569,-331,259,147,-441
0,5259526,201,-1874,-382,-1026,-569,-331,259,147,-441
0,5259538,201,-1870,-381,-1027,-566,-326,259,145,-453
0,5259548,201,-1870,-381,-1027,-566,-326,259,145,-453
0,5259558,201,-1870,-381,-1027,-566,-326,259,145,-453
0,5259571,199,-1873,-384,-1035,-566,-320,259,145,-453
0,5259586,199,-1873,-384,-1035,-566,-320,259,145,-453
0,5259599,203,-1875,-386,-1033,-571,-332,259,145,-453
0,5259609,202,-1879,-384,-1026,-564,-322,259,145,-453
0,5259621,202,-1879,-384,-1026,-564,-322,259,145,-453
0,5259634,200,-1872,-383,-1028,-566,-327,259,145,-453
0,5259648,200,-1871,-375,-1024,-568,-325,259,145,-453
0,5259657,200,-1871,-375,-1024,-568,-325,261,141,-447
0,5259669,200,-1875,-377,-1028,-566,-324,261,141,-447
0,5259680,200,-1875,-377,-1028,-566,-324,261,141,-447
0,5259692,200,-1873,-384,-1029,-566,-321,261,141,-447
0,5259706,200,-1873,-384,-1029,-566,-321,261,141,-447
0,5259719,200,-1875,-390,-1028,-569,-325,261,141,-447
0,5259729,197,-1874,-384,-1029,-566,-317,261,141,-447
0,5259741,197,-1874,-384,-1029,-566,-317,261,141,-447
0,5259755,200,-1875,-384,-1027,-567,-329,261,141,-447
0,5259769,200,-1874,-381,-1028,-563,-327,261,141,-447
0,5259780,200,-1874,-381,-1028,-563,-327,261,141,-447
0,5259789,201,-1875,-383,-1029,-563,-321,252,144,-450
0,5259796,201,-1875,-383,-1029,-563,-321,252,144,-450
0,5259806,201,-1875,-383,-1029,-563,-321,252,144,-450
0,5259814,200,-1874,-378,-1028,-562,-323,252,144,-450
0,5259825,200,-1874,-378,-1028,-562,-323,252,144,-450
0,5259837,201,-1874,-381,-1022,-566,-322,252,144,-450
0,5259850,199,-1875,-376,-1022,-564,-319,252,144,-450
0,5259863,199,-1875,-376,-1022,-564,-319,252,144,-450
0,5259876,200,-1873,-386,-1023,-570,-320,252,144,-450
0,5259888,200,-1873,-386,-1023,-570,-320,252,144,-450
0,5259900,200,-1873,-386,-1023,-570,-320,252,144,-450
0,5259913,200,-1875,-378,-1022,-563,-324,256,136,-438
0,5259925,200,-1875,-378,-1022,-563,-324,256,136,-438
0,5259938,200,-1873,-380,-1032,-565,-323,256,136,-438
0,5259951,200,-1875,-384,-1022,-567,-322,256,136,-438
0,5259960,200,-1875,-384,-1022,-567,-322,256,136,-438
0,5259972,200,-1876,-384,-1026,-571,-321,256,136,-438
0,5259979,200,-1876,-384,-1026,-571,-321,256,136,-438
0,5259985,200,-1876,-384,-1026,-571,-321,256,136,-438
0,5259992,201,-1875,-383,-1026,-566,-326,256,136,-438
0,5260000,201,-1875,-383,-1026,-566,-326,256,136,-438
0,5260008,201,-1875,-383,-1026,-566,-326,256,136,-438
0,5260015,200,-1873,-376,-1028,-567,-333,256,136,-438
0,5260022,200,-1873,-376,-1028,-567,-333,256,136,-438
0,5260027,200,-1873,-376,-1028,-567,-333,256,136,-438
0,5260035,199,-1872,-379,-1022,-567,-326,256,136,-438
0,5260043,199,-1872,-379,-1022,-567,-326,256,136,-438
0,5260049,198,-1872,-376,-1018,-573,-313,258,150,-446
0,5260055,198,-1872,-376,-1018,-573,-313,258,150,-446
0,5260062,198,-1872,-376,-1018,-573,-313,258,150,-446
0,5260068,199,-1872,-377,-1018,-562,-318,258,150,-446
0,5260077,199,-1872,-377,-1018,-562,-318,258,150,-446
0,5260084,199,-1872,-377,-1018,-562,-318,258,150,-446
0,5260090,199,-1872,-387,-1028,-555,-317,258,150,-446
0,5260097,199,-1872,-387,-1028,-555,-317,258,150,-446
0,5260103,199,-1872,-387,-1028,-555,-317,258,150,-446
0,5260108,198,-1874,-382,-1032,-561,-319,258,150,-446
0,5260116,198,-1874,-382,-1032,-561,-319,258,150,-446
0,5260125,198,-1874,-382,-1032,-561,-319,258,150,-446
0,5260131,198,-1875,-378,-1032,-561,-325,258,150,-446
0,5260137,198,-1875,-378,-1032,-561,-325,258,150,-446
0,5260143,198,-1875,-378,-1032,-561,-325,258,150,-446
0,5260150,201,-1876,-383,-1023,-558,-331,258,150,-446
0,5260158,201,-1876,-383,-1023,-558,-331,258,150,-446
0,5260166,201,-1876,-383,-1023,-558,-331,258,150,-446
0,5260172,199,-1874,-381,-1030,-562,-323,261,139,-437
0,5260180,199,-1874,-381,-1030,-562,-323,261,139,-437
0,5260186,199,-1874,-381,-1030,-562,-323,261,139,-437
0,5260194,200,-1873,-380,-1032,-566,-321,261,139,-437
0,5260201,200,-1873,-380,-1032,-566,-321,261,139,-437
0,5260208,200,-1873,-380,-1032,-566,-321,261,139,-437
0,5260216,199,-1872,-381,-1025,-562,-321,261,139,-437
0,5260224,199,-1872,-381,-1025,-562,-321,261,139,-437
0,5260230,200,-1873,-383,-1020,-565,-321,261,139,-437
0,5260236,200,-1873,-383,-1020,-565,-321,261,139,-437
0,5260244,200,-1873,-383,-1020,-565,-321,261,139,-437
0,5260252,200,-1871,-388,-1024,-563,-320,261,139,-437
0,5260260,200,-1871,-388,-1024,-563,-320,261,139,-437
0,5260267,200,-1871,-388,-1024,-563,-320,261,139,-437
0,5260274,201,-1873,-386,-1030,-562,-316,261,139,-437
0,5260280,201,-1873,-386,-1030,-562,-316,261,139,-437
0,5260288,201,-1873,-386,-1030,-562,-316,261,139,-437
0,5260295,200,-1874,-387,-1025,-564,-321,261,139,-437
0,5260302,200,-1874,-387,-1025,-564,-321,261,139,-437
0,5260308,201,-1875,-381,-1031,-564,-327,511,139,-437
0,5260315,201,-1875,-381,-1031,-564,-327,255,153,-443
0,5260322,201,-1875,-381,-1031,-564,-327,255,153,-443
0,5260328,200,-1874,-381,-1027,-568,-325,255,153,-443
0,5260336,200,-1874,-381,-1027,-568,-325,255,153,-443
0,5260342,200,-1874,-381,-1027,-568,-325,255,153,-443
0,5260350,198,-1876,-379,-1030,-572,-327,255,153,-443
0,5260356,198,-1876,-379,-1030,-572,-327,255,153,-443
0,5260362,198,-1876,-379,-1030,-572,-327,255,153,-443
0,5260367,198,-1876,-379,-1030,-572,-327,255,153,-443
0,5260372,198,-1874,-382,-1033,-573,-329,255,153,-443
0,5260378,198,-1874,-382,-1033,-573,-329,255,153,-443
0,5260385,198,-1874,-382,-1033,-573,-329,255,153,-443
0,5260390,200,-1875,-382,-1031,-573,-324,255,153,-443
0,5260395,200,-1875,-382,-1031,-573,-324,255,153,-443
0,5260402,200,-1875,-382,-1031,-573,-324,255,153,-443
0,5260409,199,-1875,-384,-1019,-564,-318,255,153,-443
0,5260417,199,-1875,-384,-1019,-564,-318,255,153,-443
0,5260423,199,-1875,-384,-1019,-564,-318,255,153,-443
0,5260430,199,-1874,-381,-1028,-564,-321,259,145,-443
0,5260437,199,-1874,-381,-1028,-564,-321,259,145,-443
0,5260444,199,-1874,-381,-1028,-564,-321,259,145,-443
0,5260451,198,-1876,-384,-1032,-562,-328,259,145,-443
0,5260459,198,-1876,-384,-1032,-562,-328,259,145,-443
0,5260465,198,-1876,-384,-1032,-562,-328,259,145,-443
0,5260471,200,-1873,-377,-1031,-563,-324,259,145,-443
0,5260478,200,-1873,-377,-1031,-563,-324,259,145,-443
0,5260485,200,-1873,-377,-1031,-563,-324,259,145,-443
0,5260492,202,-1876,-382,-1029,-575,-322,259,145,-443
0,5260498,202,-1876,-382,-1029,-575,-322,259,145,-443
0,5260504,202,-1876,-382,-1029,-575,-322,259,145,-443
0,5260509,194,-1876,-382,-1023,-562,-328,259,145,-443
0,5260515,194,-1876,-382,-1023,-562,-328,259,145,-443
0,5260519,194,-1876,-382,-1023,-562,-328,259,145,-443
0,5260524,194,-1876,-382,-1023,-562,-328,259,145,-443
0,5260530,201,-1872,-379,-1028,-555,-319,259,145,-443
0,5260536,201,-1872,-379,-1028,-555,-319,259,145,-443
0,5260544,201,-1872,-379,-1028,-555,-319,259,145,-443
0,5260552,198,-1872,-383,-1027,-569,-326,250,146,-438
0,5260558,198,-1872,-383,-1027,-569,-326,250,146,-438
0,5260565,198,-1872,-383,-1027,-569,-326,250,146,-438
0,5260571,200,-1875,-377,-1028,-567,-322,250,146,-438
0,5260577,200,-1875,-377,-1028,-567,-322,250,146,-438
0,5260584,200,-1875,-377,-1028,-567,-322,250,146,-438
0,5260592,198,-1876,-384,-1027,-565,-322,250,146,-438
0,5260599,198,-1876,-384,-1027,-565,-322,250,146,-438
0,5260606,198,-1876,-384,-1027,-565,-322,250,146,-438
0,5260614,199,-1873,-383,-1022,-561,-327,250,146,-438
0,5260620,199,-1873,-383,-1022,-561,-327,250,146,-438
0,5260626,199,-1873,-383,-1022,-561,-327,250,146,-438
0,5260634,199,-1874,-379,-1022,-573,-319,250,146,-438
0,5260641,199,-1874,-379,-1022,-573,-319,250,146,-438
0,5260648,199,-1874,-379,-1022,-573,-319,250,146,-438
0,5260655,199,-1874,-381,-1028,-578,-325,250,146,-438
0,5260661,199,-1874,-381,-1028,-578,-325,250,146,-438
0,5260669,201,-1875,-381,-1024,-564,-322,250,146,-438
0,5260676,201,-1875,-381,-1024,-564,-322,250,146,-438
0,5260682,201,-1875,-381,-1024,-564,-322,250,146,-438
0,5260689,201,-1875,-381,-1024,-564,-322,250,146,-438
0,5260697,199,-1873,-379,-1029,-564,-324,246,146,-442
0,5260704,199,-1873,-379,-1029,-564,-324,246,146,-442
0,5260710,199,-1873,-380,-1023,-566,-321,246,146,-442
0,5260717,199,-1873,-380,-1023,-566,-321,246,146,-442
0,5260725,199,-1873,-380,-1023,-566,-321,246,146,-442
0,5260732,200,-1874,-384,-1028,-560,-316,246,146,-442
0,5260739,200,-1874,-384,-1028,-560,-316,246,146,-442
0,5260747,200,-1874,-384,-1028,-560,-316,246,146,-442
0,5260753,198,-1876,-382,-1023,-564,-322,246,146,-442
0,5260761,198,-1876,-382,-1023,-564,-322,246,146,-442
0,5260767,198,-1876,-382,-1023,-564,-322,246,146,-442
0,5260774,198,-1874,-384,-1026,-567,-324,246,146,-442
0,5260779,198,-1874,-384,-1026,-567,-324,246,146,-442
0,5260787,198,-1874,-384,-1026,-567,-324,246,146,-442
0,5260794,199,-1873,-380,-1032,-567,-315,246,146,-442
0,5260801,199,-1873,-380,-1032,-567,-315,246,146,-442
0,5260808,199,-1873,-380,-1032,-567,-315,246,146,-442
0,5260813,201,-1874,-379,-1019,-574,-321,263,143,-449
0,5260820,201,-1874,-379,-1019,-574,-321,263,143,-449
0,5260828,201,-1874,-379,-1019,-574,-321,263,143,-449
0,5260836,198,-1875,-375,-1026,-561,-325,263,143,-449
0,5260844,198,-1875,-375,-1026,-561,-325,263,143,-449
0,5260850,202,-1874,-382,-1024,-562,-319,263,143,-449
0,5260856,202,-1874,-382,-1024,-562,-319,263,143,-449
0,5260863,202,-1874,-382,-1024,-562,-319,263,143,-449
0,5260868,202,-1874,-382,-1024,-562,-319,263,143,-449
0,5260873,200,-1873,-375,-1024,-566,-324,263,143,-449
0,5260879,200,-1873,-375,-1024,-566,-324,263,143,-449
0,5260887,200,-1873,-375,-1024,-566,-324,263,143,-449
0,5260893,202,-1874,-385,-1016,-565,-323,263,143,-449
0,5260900,202,-1874,-385,-1016,-565,-323,263,143,-449
0,5260908,202,-1874,-385,-1016,-565,-323,263,143,-449
0,5260915,202,-1873,-387,-1022,-561,-322,263,143,-449
0,5260922,202,-1873,-387,-1022,-561,-322,263,143,-449
0,5260929,202,-1873,-387,-1022,-561,-322,263,143,-449
0,5260936,201,-1874,-387,-1027,-565,-325,263,143,-449
0,5260944,201,-1874,-387,-1027,-565,-325,263,143,-449
0,5260951,201,-1873,-375,-1033,-570,-323,253,145,-447
0,5260957,201,-1873,-375,-1033,-570,-323,253,145,-447
0,5260965,201,-1873,-375,-1033,-570,-323,253,145,-447
0,5260972,199,-1874,-376,-1031,-566,-316,253,145,-447
0,5260979,199,-1874,-376,-1031,-566,-316,253,145,-447
0,5260993,200,-1873,-382,-1022,-563,-317,253,145,-447
0,5261003,200,-1873,-382,-1022,-563,-317,253,145,-447
0,5261014,199,-1874,-385,-1027,-565,-317,253,145,-447
0,5261027,199,-1874,-385,-1027,-565,-317,253,145,-447
0,5261040,199,-1874,-385,-1027,-565,-317,253,145,-447
0,5261049,199,-1874,-385,-1027,-565,-317,253,145,-447
0,5261062,198,-1875,-386,-1027,-563,-310,253,145,-447
0,5261074,200,-1875,-376,-1022,-562,-320,254,140,-440
0,5261087,200,-1875,-376,-1022,-562,-320,254,140,-440
0,5261097,198,-1872,-381,-1026,-563,-320,254,140,-440
0,5261113,200,-1876,-387,-1020,-567,-324,254,140,-440
0,5261125,200,-1876,-387,-1020,-567,-324,254,140,-440
0,5261138,199,-1875,-383,-1032,-564,-326,254,140,-440
0,5261152,199,-1871,-386,-1024,-570,-317,254,140,-440
0,5261165,199,-1871,-386,-1024,-570,-317,254,140,-440
0,5261176,201,-1874,-384,-1022,-562,-324,254,140,-440
0,5261190,201,-1874,-384,-1022,-562,-324,254,140,-440
0,5261202,200,-1872,-385,-1022,-562,-323,254,140,-440
0,5261215,197,-1873,-378,-1021,-571,-323,254,140,-440
0,5261229,197,-1873,-378,-1021,-571,-323,254,140,-440
0,5261242,198,-1875,-383,-1027,-568,-323,254,140,-440
0,5261255,199,-1872,-381,-1023,-563,-325,254,140,-440
0,5261266,199,-1872,-381,-1023,-563,-325,254,140,-440
0,5261280,201,-1872,-382,-1019,-566,-317,254,140,-440
0,5261292,200,-1873,-382,-1031,-564,-321,254,140,-440
0,5261306,200,-1873,-382,-1031,-564,-321,254,140,-440
0,5261316,199,-1876,-386,-1021,-572,-326,254,140,-440
0,5261331,198,-1873,-379,-1015,-563,-316,259,155,-443
0,5261343,198,-1873,-379,-1015,-563,-316,259,155,-443
0,5261352,196,-1872,-380,-1024,-569,-316,259,155,-443
0,5261364,196,-1872,-380,-1024,-569,-316,259,155,-443
0,5261379,196,-1873,-383,-1021,-574,-318,259,155,-443
0,5261390,199,-1874,-381,-1026,-579,-326,259,155,-443
0,5261404,199,-1874,-381,-1026,-579,-326,259,155,-443
0,5261417,200,-1870,-383,-1031,-574,-321,259,155,-443
0,5261430,199,-1873,-389,-1023,-563,-319,259,155,-443
0,5261443,199,-1873,-389,-1023,-563,-319,259,155,-443
0,5261451,202,-1872,-385,-1022,-561,-326,260,144,-438
0,5261459,202,-1872,-385,-1022,-561,-326,260,144,-438
0,5261466,202,-1872,-385,-1022,-561,-326,260,144,-438
0,5261474,201,-1870,-377,-1027,-568,-326,260,144,-438
0,5261486,201,-1870,-377,-1027,-568,-326,260,144,-438
0,5261498,199,-1872,-377,-1024,-564,-323,260,144,-438
0,5261505,199,-1872,-377,-1024,-564,-323,260,144,-438
0,5261513,198,-1873,-384,-1020,-569,-327,260,144,-438
0,5261521,198,-1873,-384,-1020,-569,-327,260,144,-438
0,5261530,199,-1874,-376,-1036,-564,-323,260,144,-438
0,5261544,199,-1874,-376,-1036,-564,-323,260,144,-438
0,5261555,199,-1874,-381,-1033,-568,-324,260,144,-438
0,5261566,199,-1874,-381,-1033,-568,-324,260,144,-438
0,5261578,197,-1877,-384,-1028,-564,-330,260,144,-438
0,5261591,199,-1876,-382,-1030,-562,-322,258,140,-444
0,5261601,199,-1876,-382,-1030,-562,-322,258,140,-444
0,5261614,197,-1875,-386,-1021,-560,-323,258,140,-444
0,5261628,197,-1875,-386,-1021,-560,-323,258,140,-444
0,5261641,200,-1875,-380,-1023,-568,-326,258,140,-444
0,5261652,198,-1875,-382,-1022,-569,-326,258,140,-444
0,5261665,198,-1875,-382,-1022,-569,-326,258,140,-444
0,5261679,198,-1874,-385,-1024,-563,-320,258,140,-444
0,5261692,200,-1876,-379,-1025,-571,-320,258,140,-444
0,5261703,200,-1876,-379,-1025,-571,-320,258,140,-444
0,5261716,198,-1873,-386,-1027,-572,-320,266,144,-450
0,5261729,198,-1873,-386,-1027,-572,-320,266,144,-450
0,5261743,200,-1874,-375,-1024,-570,-323,266,144,-450
0,5261753,200,-1873,-383,-1028,-565,-326,266,144,-450
0,5261763,200,-1873,-383,-1028,-565,-326,266,144,-450
0,5261773,199,-1876,-386,-1024,-565,-330,266,144,-450
0,5261784,199,-1876,-386,-1024,-565,-330,266,144,-450
0,5261797,201,-1875,-382,-1033,-569,-328,266,144,-450
0,5261807,201,-1875,-382,-1033,-569,-328,266,144,-450
0,5261818,199,-1874,-381,-1030,-571,-323,266,144,-450
0,5261830,199,-1874,-381,-1030,-571,-323,266,144,-450
0,5261843,201,-1873,-383,-1030,-567,-324,266,144,-450
0,5261856,197,-1873,-381,-1032,-564,-327,259,139,-449
0,5261869,197,-1873,-381,-1032,-564,-327,259,139,-449
0,5261880,199,-1875,-380,-1023,-560,-315,259,139,-449
0,5261893,201,-1873,-380,-1032,-573,-323,259,139,-449
0,5261905,201,-1873,-380,-1032,-573,-323,259,139,-449
0,5261919,203,-1872,-383,-1021,-563,-323,259,139,-449
0,5261931,201,-1873,-384,-1023,-563,-318,259,139,-449
0,5261944,201,-1873,-384,-1023,-563,-318,259,139,-449
0,5261959,199,-1873,-386,-1022,-569,-319,259,139,-449
0,5261970,199,-1873,-386,-1022,-569,-319,259,139,-449
0,5261983,198,-1873,-380,-1029,-574,-320,256,140,-444
0,5261991,198,-1873,-377,-1024,-575,-322,256,140,-444
0,5261998,198,-1873,-377,-1024,-575,-322,256,140,-444
0,5262005,198,-1873,-377,-1024,-575,-322,256,140,-444
0,5262012,201,-1874,-379,-1025,-566,-322,256,140,-444
0,5262018,201,-1874,-379,-1025,-566,-322,256,140,-444
0,5262024,201,-1874,-379,-1025,-566,-322,256,140,-444
0,5262031,200,-1873,-376,-1025,-563,-321,256,140,-444
0,5262039,200,-1873,-376,-1025,-563,-321,256,140,-444
0,5262047,200,-1873,-376,-1025,-563,-321,256,140,-444
0,5262052,198,-1877,-381,-1032,-562,-316,256,140,-444
0,5262060,198,-1877,-381,-1032,-562,-316,256,140,-444
0,5262067,198,-1877,-381,-1032,-562,-316,256,140,-444
0,5262074,200,-1877,-382,-1023,-563,-317,256,140,-444
0,5262080,200,-1877,-382,-1023,-563,-317,256,140,-444
0,5262085,200,-1877,-382,-1023,-563,-317,256,140,-444
0,5262090,200,-1877,-382,-1023,-563,-317,256,140,-444
0,5262098,202,-1872,-385,-1028,-565,-321,257,145,-457
0,5262103,202,-1872,-385,-1028,-565,-321,257,145,-457
0,5262110,202,-1872,-385,-1028,-565,-321,257,145,-457
0,5262117,200,-1875,-372,-1031,-567,-326,257,145,-457
0,5262124,200,-1875,-372,-1031,-567,-326,257,145,-457
0,5262130,200,-1875,-372,-1031,-567,-326,257,145,-457
0,5262138,197,-1872,-382,-1028,-567,-324,257,145,-457
0,5262145,197,-1872,-382,-1028,-567,-324,257,145,-457
0,5262152,198,-1875,-381,-1029,-568,-319,257,145,-457
0,5262159,198,-1875,-381,-1029,-568,-319,257,145,-457
0,5262167,198,-1875,-381,-1029,-568,-319,257,145,-457
0,5262174,202,-1874,-375,-1032,-563,-328,257,145,-457
0,5262181,202,-1874,-375,-1032,-563,-328,257,145,-457
0,5262189,202,-1874,-375,-1032,-563,-328,257,145,-457
0,5262195,201,-1876,-378,-1029,-560,-324,257,145,-457
0,5262202,201,-1876,-378,-1029,-560,-324,257,145,-457
0,5262211,200,-1873,-383,-1026,-559,-324,257,145,-457
0,5262218,200,-1873,-383,-1026,-559,-324,257,145,-457
0,5262226,200,-1873,-383,-1026,-559,-324,257,145,-457
0,5262234,199,-1873,-379,-1031,-566,-320,256,146,-448
0,5262240,199,-1873,-379,-1031,-566,-320,256,146,-448
0,5262247,199,-1873,-379,-1031,-566,-320,256,146,-448
0,5262255,199,-1875,-384,-1023,-565,-320,256,146,-448
0,5262262,199,-1875,-384,-1023,-565,-320,256,146,-448
0,5262269,199,-1875,-384,-1023,-565,-320,256,146,-448
0,5262277,200,-1873,-381,-1027,-566,-323,256,146,-448
0,5262284,200,-1873,-381,-1027,-566,-323,256,146,-448
0,5262291,198,-1875,-388,-1025,-568,-325,256,146,-448
0,5262299,198,-1875,-388,-1025,-568,-325,256,146,-448
0,5262306,198,-1875,-388,-1025,-568,-325,256,146,-448
0,5262313,202,-1872,-383,-1022,-560,-321,256,146,-448
0,5262320,202,-1872,-383,-1022,-560,-321,256,146,-448
0,5262327,202,-1872,-383,-1022,-560,-321,256,146,-448
0,5262333,201,-1876,-388,-1025,-561,-321,256,146,-448
0,5262340,201,-1876,-388,-1025,-561,-321,256,146,-448
0,5262348,201,-1876,-388,-1025,-561,-321,256,146,-448
0,5262354,198,-1874,-383,-1025,-566,-326,266,138,-442
0,5262362,198,-1874,-383,-1025,-566,-326,266,138,-442
0,5262369,198,-1874,-383,-1025,-566,-326,266,138,-442
0,5262376,200,-1874,-384,-1030,-571,-319,266,138,-442
0,5262383,200,-1874,-384,-1030,-571,-319,266,138,-442
0,5262390,200,-1874,-384,-1030,-571,-319,266,138,-442
0,5262397,199,-1875,-381,-1029,-564,-320,266,138,-442
0,5262404,199,-1875,-381,-1029,-564,-320,266,138,-442
0,5262411,199,-1876,-386,-1030,-570,-327,266,138,-442
0,5262419,199,-1876,-386,-1030,-570,-327,266,138,-442
0,5262427,199,-1876,-386,-1030,-570,-327,266,138,-442
0,5262433,200,-1874,-383,-1025,-560,-322,266,138,-442
0,5262439,200,-1874,-383,-1025,-560,-322,266,138,-442
0,5262446,200,-1874,-383,-1025,-560,-322,266,138,-442
0,5262453,196,-1875,-382,-1024,-563,-327,266,138,-442
0,5262460,196,-1875,-382,-1024,-563,-327,266,138,-442
0,5262468,196,-1875,-382,-1024,-563,-327,266,138,-442
0,5262474,200,-1875,-380,-1026,-563,-317,266,138,-442
0,5262480,200,-1875,-380,-1026,-563,-317,266,138,-442
0,5262487,200,-1875,-380,-1026,-563,-317,266,138,-442
0,5262495,198,-1874,-378,-1031,-568,-318,260,144,-450
0,5262500,198,-1874,-378,-1031,-568,-318,260,144,-450
0,5262507,198,-1874,-378,-1031,-568,-318,260,144,-450
0,5262512,199,-1874,-385,-1024,-563,-323,260,144,-450
0,5262517,199,-1874,-385,-1024,-563,-323,260,144,-450
0,5262522,199,-1874,-385,-1024,-563,-323,260,144,-450
0,5262527,199,-1874,-385,-1024,-563,-323,260,144,-450
0,5262534,199,-1874,-380,-1031,-574,-322,260,144,-450
0,5262540,199,-1874,-380,-1031,-574,-322,260,144,-450
0,5262547,199,-1874,-380,-1031,-574,-322,260,144,-450
0,5262553,199,-1872,-381,-1022,-570,-320,260,144,-450
0,5262559,199,-1872,-381,-1022,-570,-320,260,144,-450
0,5262565,199,-1872,-381,-1022,-570,-320,260,144,-450
0,5262570,199,-1872,-381,-1022,-570,-320,260,144,-450
0,5262576,200,-1875,-387,-1026,-566,-322,260,144,-450
0,5262584,200,-1875,-387,-1026,-566,-322,260,144,-450
0,5262592,203,-1870,-377,-1024,-560,-331,260,144,-450
0,5262599,203,-1870,-377,-1024,-560,-331,260,144,-450
0,5262606,203,-1870,-377,-1024,-560,-331,260,144,-450
0,5262613,202,-1871,-374,-1031,-564,-320,257,143,-447
0,5262619,202,-1871,-374,-1031,-564,-320,257,143,-447
0,5262624,202,-1871,-374,-1031,-564,-320,257,143,-447
0,5262631,203,-1875,-382,-1029,-571,-324,257,143,-447
0,5262639,203,-1875,-382,-1029,-571,-324,257,143,-447
0,5262646,203,-1875,-382,-1029,-571,-324,257,143,-447
0,5262652,199,-1873,-384,-1028,-564,-324,257,143,-447
0,5262659,199,-1873,-384,-1028,-564,-324,257,143,-447
0,5262667,199,-1873,-384,-1028,-564,-324,257,143,-447
0,5262673,198,-1874,-379,-1023,-569,-315,257,143,-447
0,5262680,198,-1874,-379,-1023,-569,-315,257,143,-447
0,5262686,198,-1874,-379,-1023,-569,-315,257,143,-447
0,5262691,198,-1874,-379,-1023,-569,-315,257,143,-447
0,5262697,199,-1876,-390,-1020,-565,-319,257,143,-447
0,5262704,199,-1876,-390,-1020,-565,-319,257,143,-447
0,5262711,199,-1877,-383,-1028,-564,-323,257,143,-447
0,5262718,199,-1877,-383,-1028,-564,-323,257,143,-447
0,5262726,199,-1877,-383,-1028,-564,-323,257,143,-447
0,5262733,198,-1872,-383,-1025,-562,-326,257,143,-447
0,5262741,198,-1872,-383,-1025,-562,-326,257,143,-447
0,5262748,198,-1872,-383,-1025,-562,-326,257,143,-447
0,5262754,200,-1870,-380,-1028,-567,-323,258,144,-446
0,5262761,200,-1870,-380,-1028,-567,-323,258,144,-446
0,5262769,200,-1870,-380,-1028,-567,-323,258,144,-446
0,5262776,197,-1872,-378,-1031,-563,-318,258,144,-446
0,5262783,197,-1872,-378,-1031,-563,-318,258,144,-446
0,5262789,197,-1872,-378,-1031,-563,-318,258,144,-446
0,5262795,200,-1876,-385,-1025,-563,-327,258,144,-446
0,5262802,200,-1876,-385,-1025,-563,-327,258,144,-446
0,5262810,200,-1876,-385,-1025,-563,-327,258,144,-446
0,5262815,200,-1872,-377,-1025,-557,-328,258,144,-446
0,5262821,200,-1872,-377,-1025,-557,-328,258,144,-446
0,5262829,200,-1872,-377,-1025,-557,-328,258,144,-446
0,5262835,200,-1875,-385,-1034,-563,-328,258,144,-446
0,5262842,200,-1875,-385,-1034,-563,-328,258,144,-446
0,5262850,200,-1875,-385,-1034,-563,-328,258,144,-446
0,5262857,200,-1872,-383,-1026,-569,-324,258,144,-446
0,5262864,200,-1872,-383,-1026,-569,-324,258,144,-446
0,5262871,200,-1872,-383,-1026,-569,-324,258,144,-446
0,5262876,201,-1874,-379,-1026,-562,-324,256,142,-448
0,5262883,201,-1874,-379,-1026,-562,-324,256,142,-448
0,5262891,201,-1874,-379,-1026,-562,-324,256,142,-448
0,5262898,198,-1873,-383,-1025,-571,-320,256,142,-448
0,5262905,198,-1873,-383,-1025,-571,-320,256,142,-448
0,5262910,198,-1873,-383,-1025,-571,-320,256,142,-448
0,5262917,204,-1874,-389,-1019,-561,-326,256,142,-448
0,5262923,204,-1874,-389,-1019,-561,-326,256,142,-448
0,5262930,204,-1874,-389,-1019,-561,-326,256,142,-448
0,5262939,200,-1873,-384,-1026,-565,-320,256,142,-448
0,5262947,200,-1873,-384,-1026,-565,-320,256,142,-448
0,5262955,202,-1874,-380,-1030,-569,-328,256,142,-448
0,5262961,202,-1874,-380,-1030,-569,-328,256,142,-448
0,5262968,202,-1874,-380,-1030,-569,-328,256,142,-448
0,5262976,198,-1872,-383,-1031,-579,-329,256,142,-448
0,5262983,198,-1872,-383,-1031,-579,-329,256,142,-448
0,5262989,198,-1872,-383,-1031,-579,-329,256,142,-448
0,5262999,197,-1875,-380,-1022,-563,-331,255,137,-447
0,5263009,197,-1875,-380,-1022,-563,-331,255,137,-447
0,5263019,201,-1876,-379,-1033,-564,-325,255,137,-447
0,5263028,201,-1876,-379,-1033,-564,-325,255,137,-447
0,5263035,197,-1873,-376,-1026,-574,-329,255,137,-447
0,5263044,197,-1873,-376,-1026,-574,-329,255,137,-447
0,5263052,198,-1872,-382,-1022,-564,-326,255,137,-447
0,5263064,198,-1872,-382,-1022,-564,-326,255,137,-447
0,5263077,199,-1873,-385,-1025,-565,-322,255,137,-447
0,5263089,199,-1873,-385,-1025,-565,-322,255,137,-447
0,5263105,199,-1876,-379,-1030,-569,-324,255,137,-447
0,5263115,196,-1875,-387,-1034,-567,-328,255,137,-447
0,5263125,196,-1875,-387,-1034,-567,-328,255,137,-447
0,5263140,203,-1873,-379,-1026,-568,-329,257,139,-443
0,5263154,200,-1876,-381,-1027,-569,-323,257,139,-443
0,5263163,200,-1876,-381,-1027,-569,-323,257,139,-443
0,5263174,199,-1877,-385,-1026,-572,-315,257,139,-443
0,5263186,199,-1877,-385,-1026,-572,-315,257,139,-443
0,5263198,200,-1876,-380,-1023,-564,-328,257,139,-443
0,5263211,200,-1876,-380,-1023,-564,-328,257,139,-443
0,5263225,196,-1872,-381,-1038,-566,-331,257,139,-443
0,5263238,200,-1874,-382,-1030,-571,-328,257,139,-443
0,5263251,200,-1874,-382,-1030,-571,-328,257,139,-443
0,5263264,198,-1875,-381,-1034,-568,-325,261,141,-455
0,5263277,197,-1874,-379,-1035,-572,-321,261,141,-455
0,5263289,197,-1874,-379,-1035,-572,-321,261,141,-455
0,5263303,200,-1873,-387,-1022,-569,-320,261,141,-455
0,5263314,201,-1871,-380,-1020,-564,-324,261,141,-455
0,5263328,201,-1871,-380,-1020,-564,-324,261,141,-455
0,5263340,202,-1874,-379,-1028,-568,-324,261,141,-455
0,5263353,199,-1874,-391,-1021,-563,-323,261,141,-455
0,5263367,199,-1874,-391,-1021,-563,-323,261,141,-455
0,5263378,199,-1874,-386,-1022,-570,-327,261,141,-455
0,5263389,199,-1874,-386,-1022,-570,-327,261,141,-455
0,5263401,198,-1871,-378,-1023,-565,-326,263,141,-445
0,5263414,200,-1875,-381,-1030,-572,-318,263,141,-445
0,5263427,200,-1875,-381,-1030,-572,-318,263,141,-445
0,5263441,202,-1871,-383,-1022,-564,-314,263,141,-445
0,5263454,200,-1871,-387,-1017,-568,-319,263,141,-445
0,5263466,200,-1871,-387,-1017,-568,-319,263,141,-445
0,5263479,195,-1872,-384,-1029,-570,-321,263,141,-445
0,5263493,197,-1874,-382,-1032,-569,-324,263,141,-445
0,5263502,197,-1874,-382,-1032,-569,-324,263,141,-445
0,5263510,197,-1874,-382,-1032,-569,-324,263,141,-445
0,5263517,200,-1873,-383,-1034,-566,-324,257,141,-449
0,5263525,200,-1873,-383,-1034,-566,-324,257,141,-449
0,5263540,200,-1875,-380,-1024,-561,-325,257,141,-449
0,5263550,200,-1875,-380,-1024,-561,-325,257,141,-449
0,5263561,201,-1873,-382,-1019,-560,-331,257,141,-449
0,5263575,200,-1874,-385,-1018,-563,-321,257,141,-449
0,5263588,200,-1874,-385,-1018,-563,-321,257,141,-449
0,5263596,199,-1873,-381,-1022,-564,-322,257,141,-449
0,5263606,199,-1873,-381,-1022,-564,-322,257,141,-449
0,5263614,198,-1874,-381,-1029,-560,-319,257,141,-449
0,5263624,198,-1874,-381,-1029,-560,-319,257,141,-449
0,5263632,198,-1874,-381,-1029,-560,-319,257,141,-449
0,5263640,198,-1877,-384,-1026,-566,-317,260,142,-446
0,5263653,196,-1877,-381,-1022,-566,-330,260,142,-446
0,5263664,196,-1877,-381,-1022,-566,-330,260,142,-446
0,5263676,196,-1875,-376,-1025,-566,-326,260,142,-446
0,5263692,196,-1875,-376,-1025,-566,-326,260,142,-446
0,5263707,200,-1873,-383,-1021,-568,-323,260,142,-446
0,5263716,199,-1873,-379,-1025,-570,-324,260,142,-446
0,5263727,199,-1873,-379,-1025,-570,-324,260,142,-446
0,5263742,198,-1872,-381,-1024,-568,-322,260,142,-446
0,5263753,198,-1874,-382,-1030,-565,-325,260,142,-446
0,5263763,198,-1874,-382,-1030,-565,-325,260,142,-446
0,5263776,197,-1873,-381,-1022,-564,-325,265,145,-447
0,5263790,197,-1873,-381,-1022,-564,-325,265,145,-447
0,5263798,202,-1874,-382,-1027,-564,-317,265,145,-447
0,5263811,202,-1874,-382,-1027,-564,-317,265,145,-447
0,5263823,201,-1875,-380,-1023,-562,-325,265,145,-447
0,5263833,201,-1875,-380,-1023,-562,-325,265,145,-447
0,5263844,199,-1877,-389,-1031,-567,-331,265,145,-447
0,5263857,197,-1873,-387,-1030,-558,-322,265,145,-447
0,5263870,197,-1873,-387,-1030,-558,-322,265,145,-447
0,5263881,200,-1874,-382,-1021,-568,-327,265,145,-447
0,5263894,198,-1875,-384,-1020,-569,-319,265,143,-441
0,5263906,198,-1875,-384,-1020,-569,-319,265,143,-441
0,5263920,196,-1877,-378,-1023,-566,-320,265,143,-441
0,5263931,196,-1877,-378,-1023,-566,-320,265,143,-441
0,5263941,198,-1873,-383,-1028,-559,-319,265,143,-441
0,5263954,200,-1870,-386,-1032,-562,-321,265,143,-441
0,5263968,200,-1870,-386,-1032,-562,-321,265,143,-441
0,5263980,199,-1874,-387,-1022,-564,-320,265,143,-441
0,5263993,199,-1875,-383,-1027,-567,-322,265,143,-441
0,5264005,199,-1875,-383,-1027,-567,-322,265,143,-441
0,5264011,199,-1875,-383,-1027,-567,-322,265,143,-441
0,5264016,199,-1871,-381,-1020,-564,-315,265,143,-441
0,5264023,199,-1871,-381,-1020,-564,-315,265,143,-441
0,5264029,199,-1871,-381,-1020,-564,-315,265,143,-441
0,5264034,199,-1870,-378,-1031,-572,-318,265,137,-441
0,5264041,199,-1870,-378,-1031,-572,-318,265,137,-441
0,5264049,199,-1870,-378,-1031,-572,-318,265,137,-441
0,5264056,201,-1872,-381,-1032,-570,-318,265,137,-441
0,5264063,201,-1872,-381,-1032,-570,-318,265,137,-441
0,5264070,201,-1872,-381,-1032,-570,-318,265,137,-441
0,5264078,201,-1875,-386,-1025,-566,-320,265,137,-441
0,5264087,201,-1875,-386,-1025,-566,-320,265,137,-441
0,5264094,201,-1878,-383,-1029,-572,-323,265,137,-441
0,5264100,201,-1878,-383,-1029,-572,-323,265,137,-441
0,5264107,201,-1878,-383,-1029,-572,-323,265,137,-441
0,5264113,201,-1878,-383,-1029,-572,-323,265,137,-441
0,5264121,201,-1878,-383,-1029,-572,-323,265,137,-441
0,5264129,201,-1878,-383,-1029,-572,-323,265,137,-441
0,5264137,198,-1871,-381,-1020,-570,-327,265,137,-441
0,5264144,198,-1871,-381,-1020,-570,-327,265,137,-441
0,5264149,198,-1871,-381,-1020,-570,-327,265,137,-441
0,5264155,197,-1874,-377,-1030,-560,-319,252,144,-446
0,5264161,197,-1874,-377,-1030,-560,-319,252,144,-446
0,5264168,197,-1874,-377,-1030,-560,-319,252,144,-446
0,5264176,198,-1875,-386,-1025,-566,-324,252,144,-446
0,5264181,198,-1875,-386,-1025,-566,-324,252,144,-446
0,5264186,198,-1875,-386,-1025,-566,-324,252,144,-446
0,5264191,198,-1875,-386,-1025,-566,-324,252,144,-446
0,5264197,199,-1870,-379,-1032,-571,-324,252,144,-446
0,5264203,199,-1870,-379,-1032,-571,-324,252,144,-446
0,5264210,199,-1870,-379,-1032,-571,-324,252,144,-446
0,5264218,202,-1876,-384,-1024,-564,-318,252,144,-446
0,5264223,202,-1876,-384,-1024,-564,-318,252,144,-446
0,5264230,202,-1876,-384,-1024,-564,-318,252,144,-446
0,5264238,202,-1875,-384,-1023,-563,-326,252,144,-446
0,5264245,202,-1875,-384,-1023,-563,-326,252,144,-446
0,5264251,202,-1875,-384,-1023,-563,-326,252,144,-446
0,5264260,198,-1875,-376,-1023,-559,-327,252,144,-446
0,5264267,198,-1875,-376,-1023,-559,-327,252,144,-446
0,5264274,200,-1871,-383,-1028,-565,-322,252,144,-446
0,5264280,200,-1871,-383,-1028,-565,-322,252,144,-446
0,5264288,200,-1871,-383,-1028,-565,-322,252,144,-446
0,5264295,200,-1872,-380,-1036,-571,-324,254,154,-446
0,5264302,200,-1872,-380,-1036,-571,-324,254,154,-446
0,5264309,200,-1872,-380,-1036,-571,-324,254,154,-446
0,5264315,196,-1872,-383,-1028,-571,-319,254,154,-446
0,5264322,196,-1872,-383,-1028,-571,-319,254,154,-446
0,5264329,196,-1872,-383,-1028,-571,-319,254,154,-446
0,5264335,200,-1874,-381,-1023,-560,-325,254,154,-446
0,5264344,200,-1874,-381,-1023,-560,-325,254,154,-446
0,5264351,200,-1874,-381,-1023,-560,-325,254,154,-446
0,5264357,200,-1872,-380,-1026,-564,-324,254,154,-446
0,5264364,200,-1872,-380,-1026,-564,-324,254,154,-446
0,5264371,200,-1872,-380,-1026,-564,-324,254,154,-446
0,5264377,201,-1870,-388,-1020,-569,-325,254,154,-446
0,5264385,201,-1870,-388,-1020,-569,-325,254,154,-446
0,5264392,201,-1870,-388,-1020,-569,-325,254,154,-446
0,5264399,198,-1873,-387,-1019,-565,-321,254,154,-446
0,5264406,198,-1873,-387,-1019,-565,-321,254,154,-446
0,5264413,198,-1873,-387,-1019,-565,-321,254,154,-446
0,5264418,198,-1873,-384,-1019,-571,-315,255,143,-445
0,5264425,198,-1873,-384,-1019,-571,-315,255,143,-445
0,5264434,199,-1874,-380,-1023,-568,-320,255,143,-445
0,5264440,199,-1874,-380,-1023,-568,-320,255,143,-445
0,5264447,199,-1874,-380,-1023,-568,-320,255,143,-445
0,5264454,199,-1874,-381,-1022,-567,-323,255,143,-445
0,5264460,199,-1874,-381,-1022,-567,-323,255,143,-445
0,5264467,199,-1874,-381,-1022,-567,-323,255,143,-445
0,5264475,200,-1875,-387,-1028,-567,-318,255,143,-445
0,5264482,200,-1875,-387,-1028,-567,-318,255,143,-445
0,5264488,200,-1875,-387,-1028,-567,-318,255,143,-445
0,5264495,200,-1874,-385,-1025,-562,-323,255,143,-445
0,5264500,200,-1874,-385,-1025,-562,-323,255,143,-445
0,5264506,200,-1874,-385,-1025,-562,-323,255,143,-445
0,5264512,200,-1874,-385,-1025,-562,-323,255,143,-445
0,5264517,202,-1875,-383,-1020,-565,-317,255,143,-445
0,5264522,202,-1875,-383,-1020,-565,-317,255,143,-445
0,5264527,202,-1875,-383,-1020,-565,-317,255,143,-445
0,5264532,202,-1875,-383,-1020,-565,-317,255,143,-445
0,5264538,201,-1875,-379,-1027,-567,-318,256,144,-440
0,5264544,201,-1875,-379,-1027,-567,-318,256,144,-440
0,5264550,201,-1875,-379,-1027,-567,-318,256,144,-440
0,5264557,199,-1877,-373,-1020,-567,-325,256,144,-440
0,5264562,199,-1877,-373,-1020,-567,-325,256,144,-440
0,5264567,199,-1877,-373,-1020,-567,-325,256,144,-440
0,5264573,199,-1877,-373,-1020,-567,-325,256,144,-440
0,5264579,200,-1873,-381,-1023,-565,-322,256,144,-440
0,5264585,200,-1873,-381,-1023,-565,-322,256,144,-440
0,5264590,200,-1873,-381,-1023,-565,-322,256,144,-440
0,5264596,201,-1872,-385,-1026,-567,-315,256,144,-440
0,5264602,201,-1872,-385,-1026,-567,-315,256,144,-440
0,5264607,201,-1872,-385,-1026,-567,-315,256,144,-440
0,5264614,200,-1877,-381,-1021,-563,-320,256,144,-440
0,5264620,200,-1877,-381,-1021,-563,-320,256,144,-440
0,5264625,200,-1877,-381,-1021,-563,-320,256,144,-440
0,5264631,200,-1877,-381,-1021,-563,-320,256,144,-440
0,5264637,199,-1870,-381,-1020,-558,-324,256,144,-440
0,5264643,199,-1870,-381,-1020,-558,-324,256,144,-440
0,5264649,199,-1870,-381,-1020,-558,-324,256,144,-440
0,5264655,202,-1871,-380,-1026,-563,-323,256,144,-440
0,5264661,202,-1871,-380,-1026,-563,-323,256,144,-440
0,5264666,202,-1871,-380,-1026,-563,-323,256,144,-440
0,5264673,202,-1871,-380,-1026,-563,-323,256,144,-440
0,5264679,200,-1872,-374,-1032,-567,-319,254,150,-450
0,5264686,200,-1872,-374,-1032,-567,-319,254,150,-450
0,5264694,200,-1872,-374,-1032,-567,-319,254,150,-450
0,5264701,199,-1874,-385,-1027,-556,-314,254,150,-450
0,5264708,199,-1874,-385,-1027,-556,-314,254,150,-450
0,5264714,203,-1874,-383,-1026,-557,-323,254,150,-450
0,5264721,203,-1874,-383,-1026,-557,-323,254,150,-450
0,5264727,203,-1874,-383,-1026,-557,-323,254,150,-450
0,5264732,203,-1874,-383,-1026,-557,-323,254,150,-450
0,5264739,202,-1874,-378,-1022,-567,-322,254,150,-450
0,5264745,202,-1874,-378,-1022,-567,-322,254,150,-450
0,5264750,202,-1874,-378,-1022,-567,-322,254,150,-450
0,5264758,201,-1873,-385,-1029,-562,-317,254,150,-450
0,5264765,201,-1873,-385,-1029,-562,-317,254,150,-450
0,5264774,201,-1873,-385,-1029,-562,-317,254,150,-450
0,5264780,200,-1869,-385,-1024,-562,-322,254,150,-450
0,5264787,200,-1869,-385,-1024,-562,-322,254,150,-450
0,5264792,200,-1869,-385,-1024,-562,-322,254,150,-450
0,5264797,199,-1875,-379,-1024,-573,-328,260,146,-442
0,5264804,199,-1875,-379,-1024,-573,-328,260,146,-442
0,5264811,199,-1875,-379,-1024,-573,-328,260,146,-442
0,5264817,199,-1874,-381,-1021,-565,-324,260,146,-442
0,5264825,199,-1874,-381,-1021,-565,-324,260,146,-442
0,5264833,199,-1874,-381,-1021,-565,-324,260,146,-442
0,5264841,199,-1871,-387,-1029,-572,-323,260,146,-442
0,5264848,199,-1871,-387,-1029,-572,-323,260,146,-442
0,5264856,198,-1874,-380,-1030,-572,-322,260,146,-442
0,5264863,198,-1874,-380,-1030,-572,-322,260,146,-442
0,5264870,198,-1874,-380,-1030,-572,-322,260,146,-442
0,5264877,200,-1875,-380,-1025,-568,-327,260,146,-442
0,5264883,200,-1875,-380,-1025,-568,-327,260,146,-442
0,5264891,200,-1875,-380,-1025,-568,-327,260,146,-442
0,5264898,197,-1872,-378,-1029,-564,-319,260,146,-442
0,5264905,197,-1872,-378,-1029,-564,-319,260,146,-442
0,5264912,197,-1872,-378,-1029,-564,-319,260,146,-442
0,5264920,199,-1873,-383,-1030,-576,-321,260,146,-442
0,5264925,199,-1873,-383,-1030,-576,-321,260,146,-442
0,5264932,199,-1873,-383,-1030,-576,-321,260,146,-442
0,5264940,199,-1873,-383,-1030,-576,-321,262,144,-442
0,5264947,199,-1873,-383,-1030,-576,-321,262,144,-442
0,5264954,199,-1873,-383,-1030,-576,-321,262,144,-442
0,5264961,200,-1872,-383,-1016,-557,-323,262,144,-442
0,5264969,200,-1872,-383,-1016,-557,-323,262,144,-442
0,5264976,202,-1875,-376,-1022,-562,-337,262,144,-442
0,5264983,202,-1875,-376,-1022,-562,-337,262,144,-442
0,5264991,202,-1875,-376,-1022,-562,-337,262,144,-442
0,5264998,200,-1874,-378,-1027,-562,-328,262,144,-442
0,5265005,200,-1874,-378,-1027,-562,-328,262,144,-442
0,5265017,200,-1870,-384,-1026,-573,-325,262,144,-442
0,5265031,200,-1870,-384,-1026,-573,-325,262,144,-442
0,5265043,198,-1874,-381,-1029,-570,-327,262,144,-442
0,5265053,198,-1874,-381,-1029,-570,-327,262,144,-442
