imu,time,ax,ay,az,gx,gy,gz,mx,my,mz
2,8291524,-3472,-1694,-559,-165,-243,-80,315,169,-247
2,8291542,-3471,-1693,-555,-170,-245,-78,315,169,-247
2,8291550,-3471,-1693,-555,-170,-245,-78,315,169,-247
2,8291555,-3471,-1694,-561,-162,-241,-84,315,169,-247
2,8291559,-3471,-1694,-561,-162,-241,-84,315,169,-247
2,8291564,-3471,-1694,-561,-162,-241,-84,315,169,-247
2,8291569,-3471,-1694,-561,-162,-241,-84,315,169,-247
2,8291574,-3471,-1691,-560,-163,-256,-86,315,169,-247
2,8291579,-3471,-1691,-560,-163,-256,-86,315,169,-247
2,8291585,-3471,-1691,-560,-163,-256,-86,315,169,-247
2,8291590,-3471,-1691,-560,-163,-256,-86,315,169,-247
2,8291594,-3470,-1691,-558,-162,-246,-88,315,169,-247
2,8291600,-3470,-1691,-558,-162,-246,-88,315,169,-247
2,8291604,-3470,-1691,-558,-162,-246,-88,315,169,-247
2,8291609,-3470,-1691,-558,-162,-246,-88,315,169,-247
2,8291614,-3469,-1691,-557,-163,-244,-85,321,157,-247
2,8291619,-3469,-1691,-557,-163,-244,-85,321,157,-247
2,8291624,-3469,-1691,-557,-163,-244,-85,321,157,-247
2,8291630,-3469,-1691,-557,-163,-244,-85,321,157,-247
2,8291637,-3470,-1692,-556,-159,-253,-83,321,157,-247
2,8291642,-3470,-1692,-556,-159,-253,-83,321,157,-247
2,8291647,-3470,-1692,-556,-159,-253,-83,321,157,-247
2,8291651,-3470,-1692,-556,-159,-253,-83,321,157,-247
2,8291656,-3471,-1691,-557,-160,-246,-79,321,157,-247
2,8291661,-3471,-1691,-557,-160,-246,-79,321,157,-247
2,8291667,-3471,-1691,-557,-160,-246,-79,321,157,-247
2,8291674,-3472,-1692,-562,-163,-242,-79,321,157,-247
2,8291680,-3472,-1692,-562,-163,-242,-79,321,157,-247
2,8291686,-3472,-1692,-562,-163,-242,-79,321,157,-247
2,8291692,-3472,-1692,-562,-163,-242,-79,321,157,-247
2,8291698,-3468,-1693,-566,-163,-255,-87,321,157,-247
2,8291704,-3468,-1693,-566,-163,-255,-87,321,157,-247
2,8291709,-3468,-1693,-566,-163,-255,-87,321,157,-247
2,8291715,-3472,-1694,-558,-162,-247,-82,321,157,-247
2,8291719,-3472,-1694,-558,-162,-247,-82,321,157,-247
2,8291724,-3472,-1694,-558,-162,-247,-82,321,157,-247
2,8291729,-3472,-1694,-558,-162,-247,-82,321,157,-247
2,8291735,-3471,-1695,-559,-167,-257,-89,311,163,-245
2,8291743,-3471,-1695,-559,-167,-257,-89,311,163,-245
2,8291751,-3471,-1695,-559,-167,-257,-89,311,163,-245
2,8291759,-3470,-1694,-560,-167,-248,-82,311,163,-245
2,8291765,-3470,-1694,-560,-167,-248,-82,311,163,-245
2,8291771,-3470,-1694,-560,-167,-248,-82,311,163,-245
2,8291779,-3469,-1691,-562,-167,-254,-84,311,163,-245
2,8291784,-3469,-1691,-562,-167,-254,-84,311,163,-245
2,8291791,-3469,-1691,-562,-167,-254,-84,311,163,-245
2,8291800,-3471,-1692,-563,-170,-249,-86,311,163,-245
2,8291807,-3471,-1692,-563,-170,-249,-86,311,163,-245
2,8291814,-3475,-1693,-567,-166,-243,-88,311,163,-245
2,8291820,-3475,-1693,-567,-166,-243,-88,311,163,-245
2,8291827,-3475,-1693,-567,-166,-243,-88,311,163,-245
2,8291834,-3473,-1694,-555,-161,-246,-87,311,163,-245
2,8291843,-3473,-1694,-555,-161,-246,-87,311,163,-245
2,8291850,-3473,-1694,-555,-161,-246,-87,311,163,-245
2,8291856,-3472,-1691,-561,-163,-246,-88,311,163,-245
2,8291863,-3472,-1691,-561,-163,-246,-88,311,163,-245
2,8291870,-3472,-1691,-561,-163,-246,-88,311,163,-245
2,8291876,-3472,-1692,-559,-159,-242,-85,315,161,-245
2,8291884,-3472,-1692,-559,-159,-242,-85,315,161,-245
2,8291891,-3472,-1692,-559,-159,-242,-85,315,161,-245
2,8291898,-3471,-1695,-555,-167,-243,-84,315,161,-245
2,8291905,-3471,-1695,-555,-167,-243,-84,315,161,-245
2,8291912,-3471,-1695,-555,-167,-243,-84,315,161,-245
2,8291920,-3472,-1689,-556,-165,-249,-89,315,161,-245
2,8291926,-3472,-1689,-556,-165,-249,-89,315,161,-245
2,8291931,-3472,-1689,-556,-165,-249,-89,315,161,-245
2,8291936,-3471,-1691,-563,-161,-249,-90,315,161,-245
2,8291941,-3471,-1691,-563,-161,-249,-90,315,161,-245
2,8291946,-3471,-1691,-563,-161,-249,-90,315,161,-245
2,8291951,-3471,-1691,-563,-161,-249,-90,315,161,-245
2,8291956,-3469,-1695,-561,-163,-250,-84,315,161,-245
2,8291962,-3469,-1695,-561,-163,-250,-84,315,161,-245
2,8291968,-3469,-1695,-561,-163,-250,-84,315,161,-245
2,8291973,-3469,-1695,-561,-163,-250,-84,315,161,-245
2,8291980,-3473,-1689,-561,-162,-255,-81,315,161,-245
2,8291986,-3473,-1689,-561,-162,-255,-81,315,161,-245
2,8291993,-3470,-1692,-557,-160,-241,-85,315,161,-245
2,8292000,-3470,-1692,-557,-160,-241,-85,311,169,-245
2,8292009,-3470,-1692,-557,-160,-241,-85,311,169,-245
2,8292017,-3468,-1693,-561,-164,-241,-85,311,169,-245
2,8292024,-3468,-1693,-561,-164,-241,-85,311,169,-245
2,8292030,-3468,-1693,-561,-164,-241,-85,311,169,-245
2,8292036,-3468,-1690,-556,-159,-244,-84,311,169,-245
2,8292043,-3468,-1690,-556,-159,-244,-84,311,169,-245
2,8292051,-3468,-1690,-556,-159,-244,-84,311,169,-245
2,8292062,-3470,-1693,-560,-160,-242,-92,311,169,-245
2,8292067,-3470,-1693,-560,-160,-242,-92,311,169,-245
2,8292072,-3470,-1693,-560,-160,-242,-92,311,169,-245
2,8292079,-3468,-1691,-559,-158,-250,-85,311,169,-245
2,8292085,-3468,-1691,-559,-158,-250,-85,311,169,-245
2,8292092,-3468,-1691,-559,-158,-250,-85,311,169,-245
2,8292099,-3470,-1691,-559,-167,-257,-81,311,169,-245
2,8292106,-3470,-1691,-559,-167,-257,-81,311,169,-245
2,8292113,-3470,-1691,-559,-167,-257,-81,311,169,-245
2,8292119,-3470,-1693,-558,-166,-239,-81,315,169,-247
2,8292127,-3470,-1693,-558,-166,-239,-81,315,169,-247
2,8292133,-3470,-1694,-562,-162,-246,-82,315,169,-247
2,8292140,-3470,-1694,-562,-162,-246,-82,315,169,-247
2,8292146,-3470,-1694,-562,-162,-246,-82,315,169,-247
2,8292153,-3470,-1694,-562,-162,-246,-82,315,169,-247
2,8292160,-3469,-1694,-563,-161,-252,-81,315,169,-247
2,8292166,-3469,-1694,-563,-161,-252,-81,315,169,-247
2,8292172,-3469,-1694,-563,-161,-252,-81,315,169,-247
2,8292179,-3472,-1693,-560,-163,-245,-83,315,169,-247
2,8292188,-3472,-1693,-560,-163,-245,-83,315,169,-247
2,8292194,-3470,-1692,-563,-160,-242,-77,315,169,-247
2,8292201,-3470,-1692,-563,-160,-242,-77,315,169,-247
2,8292206,-3470,-1692,-563,-160,-242,-77,315,169,-247
2,8292213,-3470,-1692,-563,-160,-242,-77,315,169,-247
2,8292219,-3469,-1692,-563,-167,-248,-84,315,169,-247
2,8292227,-3469,-1692,-563,-167,-248,-84,315,169,-247
2,8292235,-3469,-1691,-558,-168,-248,-90,313,167,-245
2,8292241,-3469,-1691,-558,-168,-248,-90,313,167,-245
2,8292248,-3469,-1691,-558,-168,-248,-90,313,167,-245
2,8292253,-3471,-1691,-560,-158,-242,-91,313,167,-245
2,8292260,-3471,-1691,-560,-158,-242,-91,313,167,-245
2,8292269,-3471,-1691,-560,-158,-242,-91,313,167,-245
2,8292278,-3472,-1692,-561,-158,-242,-88,313,167,-245
2,8292285,-3472,-1692,-561,-158,-242,-88,313,167,-245
2,8292292,-3472,-1692,-561,-158,-242,-88,313,167,-245
2,8292300,-3469,-1691,-559,-156,-248,-80,313,167,-245
2,8292308,-3469,-1691,-559,-156,-248,-80,313,167,-245
2,8292316,-3472,-1691,-565,-159,-245,-86,313,167,-245
2,8292321,-3472,-1691,-565,-159,-245,-86,313,167,-245
2,8292328,-3472,-1691,-565,-159,-245,-86,313,167,-245
2,8292336,-3469,-1693,-561,-161,-242,-81,313,167,-245
2,8292344,-3469,-1693,-561,-161,-242,-81,313,167,-245
2,8292350,-3469,-1693,-561,-161,-242,-81,313,167,-245
2,8292359,-3471,-1691,-559,-163,-250,-86,318,164,-252
2,8292365,-3471,-1691,-559,-163,-250,-86,318,164,-252
2,8292373,-3471,-1691,-559,-163,-250,-86,318,164,-252
2,8292379,-3469,-1691,-552,-157,-244,-82,318,164,-252
2,8292386,-3469,-1691,-552,-157,-244,-82,318,164,-252
2,8292392,-3469,-1691,-552,-157,-244,-82,318,164,-252
2,8292398,-3468,-1691,-561,-170,-244,-86,318,164,-252
2,8292403,-3468,-1691,-561,-170,-244,-86,318,164,-252
2,8292410,-3468,-1691,-561,-170,-244,-86,318,164,-252
2,8292416,-3472,-1692,-564,-167,-243,-80,318,164,-252
2,8292422,-3472,-1692,-564,-167,-243,-80,318,164,-252
2,8292429,-3472,-1692,-564,-167,-243,-80,318,164,-252
2,8292436,-3469,-1692,-562,-159,-246,-87,318,164,-252
2,8292445,-3469,-1692,-562,-159,-246,-87,318,164,-252
2,8292451,-3469,-1692,-562,-159,-246,-87,318,164,-252
2,8292457,-3472,-1694,-562,-163,-244,-85,318,164,-252
2,8292463,-3472,-1694,-562,-163,-244,-85,318,164,-252
2,8292468,-3472,-1694,-562,-163,-244,-85,318,164,-252
2,8292476,-3472,-1692,-562,-157,-242,-86,318,164,-252
2,8292484,-3472,-1692,-562,-157,-242,-86,318,164,-252
2,8292489,-3472,-1692,-562,-157,-242,-86,318,164,-252
2,8292497,-3472,-1689,-560,-155,-237,-89,317,173,-245
2,8292502,-3472,-1689,-560,-155,-237,-89,317,173,-245
2,8292509,-3472,-1689,-560,-155,-237,-89,317,173,-245
2,8292515,-3472,-1689,-560,-155,-237,-89,317,173,-245
2,8292521,-3472,-1689,-560,-155,-237,-89,317,173,-245
2,8292530,-3472,-1689,-560,-155,-237,-89,317,173,-245
2,8292537,-3472,-1694,-558,-160,-252,-83,317,173,-245
2,8292545,-3472,-1694,-558,-160,-252,-83,317,173,-245
2,8292550,-3472,-1694,-558,-160,-252,-83,317,173,-245
2,8292556,-3473,-1694,-560,-164,-244,-86,317,173,-245
2,8292563,-3473,-1694,-560,-164,-244,-86,317,173,-245
2,8292577,-3465,-1693,-560,-164,-240,-85,317,173,-245
2,8292589,-3465,-1693,-560,-164,-240,-85,317,173,-245
2,8292601,-3471,-1692,-559,-162,-240,-83,317,173,-245
2,8292612,-3471,-1692,-559,-162,-240,-83,317,173,-245
2,8292626,-3472,-1691,-558,-164,-253,-82,317,165,-247
2,8292638,-3470,-1693,-564,-162,-250,-79,317,165,-247
2,8292651,-3470,-1693,-564,-162,-250,-79,317,165,-247
2,8292663,-3470,-1690,-562,-159,-248,-86,317,165,-247
2,8292677,-3471,-1690,-559,-153,-241,-87,317,165,-247
2,8292689,-3471,-1690,-559,-153,-241,-87,317,165,-247
2,8292702,-3470,-1692,-557,-159,-248,-82,317,165,-247
2,8292710,-3470,-1692,-557,-159,-248,-82,317,165,-247
2,8292717,-3473,-1692,-567,-165,-249,-86,317,165,-247
2,8292726,-3473,-1692,-567,-165,-249,-86,317,165,-247
2,8292733,-3470,-1692,-559,-161,-245,-86,317,165,-247
2,8292747,-3470,-1692,-559,-161,-245,-86,312,164,-238
2,8292757,-3473,-1692,-565,-161,-246,-81,312,164,-238
2,8292770,-3473,-1692,-565,-161,-246,-81,312,164,-238
2,8292783,-3471,-1694,-563,-158,-251,-81,312,164,-238
2,8292796,-3472,-1690,-561,-162,-245,-81,312,164,-238
2,8292807,-3472,-1690,-561,-162,-245,-81,312,164,-238
2,8292819,-3471,-1694,-561,-153,-252,-86,312,164,-238
2,8292833,-3471,-1694,-561,-153,-252,-86,312,164,-238
2,8292845,-3465,-1693,-565,-162,-251,-83,312,164,-238
2,8292857,-3475,-1692,-566,-161,-248,-83,315,169,-239
2,8292872,-3475,-1692,-566,-161,-248,-83,315,169,-239
2,8292884,-3470,-1693,-556,-153,-246,-84,315,169,-239
2,8292897,-3469,-1694,-563,-156,-253,-86,315,169,-239
2,8292909,-3469,-1694,-563,-156,-253,-86,315,169,-239
2,8292923,-3473,-1695,-568,-161,-245,-81,315,169,-239
2,8292935,-3470,-1693,-562,-159,-243,-84,315,169,-239
2,8292943,-3470,-1693,-562,-159,-243,-84,315,169,-239
2,8292952,-3470,-1693,-562,-159,-243,-84,315,169,-239
2,8292960,-3470,-1693,-562,-159,-243,-84,315,169,-239
2,8292968,-3470,-1693,-562,-159,-243,-84,315,169,-239
2,8292976,-3472,-1693,-562,-155,-252,-83,317,165,-243
2,8292985,-3472,-1693,-562,-155,-252,-83,317,165,-243
2,8292994,-3472,-1693,-562,-155,-252,-83,317,165,-243
2,8293002,-3468,-1690,-563,-165,-251,-84,317,165,-243
2,8293010,-3468,-1690,-563,-165,-251,-84,317,165,-243
2,8293018,-3472,-1690,-562,-162,-244,-85,317,165,-243
2,8293027,-3472,-1690,-562,-162,-244,-85,317,165,-243
2,8293036,-3473,-1693,-559,-166,-247,-87,317,165,-243
2,8293044,-3473,-1693,-559,-166,-247,-87,317,165,-243
2,8293053,-3473,-1693,-559,-166,-247,-87,317,165,-243
2,8293061,-3470,-1689,-564,-163,-239,-85,317,165,-243
2,8293071,-3470,-1689,-564,-163,-239,-85,317,165,-243
2,8293086,-3468,-1692,-567,-168,-242,-88,317,165,-243
2,8293098,-3468,-1689,-562,-167,-240,-75,317,165,-243
2,8293110,-3468,-1689,-562,-167,-240,-75,317,165,-243
2,8293123,-3472,-1692,-553,-159,-243,-78,314,170,-242
2,8293137,-3473,-1693,-565,-163,-247,-84,314,170,-242
2,8293149,-3473,-1693,-565,-163,-247,-84,314,170,-242
2,8293160,-3471,-1688,-562,-165,-244,-87,314,170,-242
2,8293173,-3471,-1688,-562,-165,-244,-87,314,170,-242
2,8293185,-3472,-1688,-563,-160,-249,-89,314,170,-242
2,8293198,-3472,-1691,-564,-165,-244,-80,314,170,-242
2,8293210,-3472,-1691,-564,-165,-244,-80,314,170,-242
2,8293224,-3470,-1691,-560,-173,-241,-78,314,170,-242
2,8293236,-3470,-1690,-561,-173,-239,-87,314,172,-236
2,8293246,-3470,-1690,-561,-173,-239,-87,314,172,-236
2,8293254,-3473,-1694,-556,-170,-235,-85,314,172,-236
2,8293263,-3473,-1694,-556,-170,-235,-85,314,172,-236
2,8293274,-3475,-1693,-560,-163,-254,-87,314,172,-236
2,8293285,-3475,-1693,-560,-163,-254,-87,314,172,-236
2,8293298,-3469,-1689,-560,-163,-252,-84,314,172,-236
2,8293310,-3469,-1689,-560,-163,-252,-84,314,172,-236
2,8293324,-3472,-1693,-559,-165,-239,-84,314,172,-236
2,8293338,-3470,-1692,-565,-161,-241,-84,314,172,-236
2,8293348,-3470,-1692,-565,-161,-241,-84,314,172,-236
2,8293361,-3475,-1690,-556,-159,-235,-84,316,172,-246
2,8293376,-3471,-1696,-561,-165,-241,-84,316,172,-246
2,8293388,-3471,-1696,-561,-165,-241,-84,316,172,-246
2,8293397,-3470,-1692,-559,-157,-246,-88,316,172,-246
2,8293408,-3470,-1692,-559,-157,-246,-88,316,172,-246
2,8293422,-3470,-1693,-559,-160,-238,-81,316,172,-246
2,8293434,-3472,-1693,-560,-161,-241,-92,316,172,-246
2,8293445,-3472,-1693,-560,-161,-241,-92,316,172,-246
2,8293458,-3470,-1692,-560,-165,-240,-90,316,172,-246
2,8293470,-3470,-1692,-560,-165,-240,-90,316,172,-246
2,8293482,-3472,-1692,-561,-156,-241,-89,312,170,-246
2,8293494,-3472,-1691,-559,-162,-246,-79,312,170,-246
2,8293507,-3472,-1691,-559,-162,-246,-79,312,170,-246
2,8293521,-3470,-1689,-562,-160,-237,-89,312,170,-246
2,8293533,-3470,-1689,-562,-160,-237,-89,312,170,-246
2,8293544,-3471,-1693,-559,-166,-244,-86,312,170,-246
2,8293557,-3472,-1688,-571,-161,-242,-85,312,170,-246
2,8293570,-3472,-1688,-571,-161,-242,-85,312,170,-246
2,8293576,-3472,-1690,-559,-165,-237,-77,312,170,-246
2,8293583,-3472,-1690,-559,-165,-237,-77,312,170,-246
2,8293590,-3472,-1690,-559,-165,-237,-77,312,170,-246
2,8293596,-3470,-1692,-556,-164,-241,-83,306,166,-248
2,8293603,-3470,-1692,-556,-164,-241,-83,306,166,-248
2,8293612,-3470,-1692,-556,-164,-241,-83,306,166,-248
2,8293619,-3471,-1690,-557,-162,-249,-85,306,166,-248
2,8293626,-3471,-1690,-557,-162,-249,-85,306,166,-248
2,8293635,-3471,-1690,-557,-162,-249,-85,306,166,-248
2,8293643,-3469,-1693,-565,-161,-247,-88,306,166,-248
2,8293650,-3469,-1693,-565,-161,-247,-88,306,166,-248
2,8293657,-3472,-1693,-560,-163,-251,-87,306,166,-248
2,8293663,-3472,-1693,-560,-163,-251,-87,306,166,-248
2,8293670,-3472,-1693,-560,-163,-251,-87,306,166,-248
2,8293678,-3469,-1690,-566,-165,-250,-88,306,166,-248
2,8293686,-3469,-1690,-566,-165,-250,-88,306,166,-248
2,8293693,-3469,-1690,-566,-165,-250,-88,306,166,-248
2,8293701,-3468,-1690,-567,-160,-250,-75,306,166,-248
2,8293706,-3468,-1690,-567,-160,-250,-75,306,166,-248
2,8293711,-3468,-1690,-567,-160,-250,-75,306,166,-248
2,8293716,-3469,-1694,-561,-174,-244,-78,306,166,-248
2,8293722,-3469,-1694,-561,-174,-244,-78,306,166,-248
2,8293728,-3469,-1694,-561,-174,-244,-78,306,166,-248
2,8293733,-3469,-1694,-561,-174,-244,-78,306,166,-248
2,8293740,-3470,-1694,-560,-170,-250,-83,310,164,-244
2,8293745,-3470,-1694,-560,-170,-250,-83,310,164,-244
2,8293750,-3470,-1694,-560,-170,-250,-83,310,164,-244
2,8293755,-3473,-1692,-556,-162,-247,-85,310,164,-244
2,8293762,-3473,-1692,-556,-162,-247,-85,310,164,-244
2,8293769,-3473,-1692,-556,-162,-247,-85,310,164,-244
2,8293777,-3472,-1692,-558,-165,-244,-83,310,164,-244
2,8293784,-3472,-1692,-558,-165,-244,-83,310,164,-244
2,8293790,-3472,-1692,-558,-165,-244,-83,310,164,-244
2,8293798,-3470,-1692,-561,-160,-242,-80,310,164,-244
2,8293805,-3470,-1692,-561,-160,-242,-80,310,164,-244
2,8293811,-3470,-1692,-561,-160,-242,-80,310,164,-244
2,8293819,-3469,-1692,-563,-162,-237,-84,310,164,-244
2,8293826,-3469,-1692,-563,-162,-237,-84,310,164,-244
2,8293833,-3469,-1692,-563,-162,-237,-84,310,164,-244
2,8293840,-3471,-1689,-562,-153,-245,-81,310,164,-244
2,8293848,-3471,-1689,-562,-153,-245,-81,310,164,-244
2,8293856,-3474,-1691,-558,-163,-243,-87,309,175,-243
2,8293862,-3474,-1691,-558,-163,-243,-87,309,175,-243
2,8293869,-3474,-1691,-558,-163,-243,-87,309,175,-243
2,8293877,-3474,-1695,-562,-162,-244,-81,309,175,-243
2,8293884,-3474,-1695,-562,-162,-244,-81,309,175,-243
2,8293891,-3474,-1695,-562,-162,-244,-81,309,175,-243
2,8293897,-3470,-1693,-557,-159,-255,-76,309,175,-243
2,8293905,-3470,-1693,-557,-159,-255,-76,309,175,-243
2,8293912,-3470,-1693,-557,-159,-255,-76,309,175,-243
2,8293920,-3471,-1692,-562,-165,-244,-84,309,175,-243
2,8293926,-3471,-1692,-562,-165,-244,-84,309,175,-243
2,8293933,-3471,-1692,-562,-165,-244,-84,309,175,-243
2,8293939,-3473,-1690,-562,-156,-242,-84,309,175,-243
2,8293945,-3473,-1690,-562,-156,-242,-84,309,175,-243
2,8293950,-3473,-1690,-562,-156,-242,-84,309,175,-243
2,8293954,-3473,-1690,-562,-156,-242,-84,309,175,-243
2,8293959,-3469,-1693,-561,-156,-248,-75,309,175,-243
2,8293965,-3469,-1693,-561,-156,-248,-75,309,175,-243
2,8293970,-3469,-1693,-561,-156,-248,-75,309,175,-243
2,8293976,-3473,-1696,-557,-167,-244,-69,313,165,-247
2,8293983,-3473,-1696,-557,-167,-244,-69,313,165,-247
2,8293991,-3473,-1696,-557,-167,-244,-69,313,165,-247
2,8293998,-3471,-1689,-558,-160,-248,-84,313,165,-247
2,8294004,-3471,-1689,-558,-160,-248,-84,313,165,-247
2,8294011,-3471,-1689,-558,-160,-248,-84,313,165,-247
2,8294019,-3470,-1693,-563,-156,-248,-84,313,165,-247
2,8294026,-3470,-1693,-563,-156,-248,-84,313,165,-247
2,8294033,-3470,-1693,-563,-156,-248,-84,313,165,-247
2,8294040,-3472,-1692,-560,-162,-247,-80,313,165,-247
2,8294047,-3472,-1692,-560,-162,-247,-80,313,165,-247
2,8294054,-3472,-1692,-560,-162,-247,-80,313,165,-247
2,8294061,-3470,-1696,-564,-168,-253,-83,313,165,-247
2,8294068,-3470,-1696,-564,-168,-253,-83,313,165,-247
2,8294075,-3473,-1693,-557,-156,-245,-86,313,165,-247
2,8294080,-3473,-1693,-557,-156,-245,-86,313,165,-247
2,8294088,-3473,-1693,-557,-156,-245,-86,313,165,-247
2,8294096,-3473,-1693,-554,-162,-252,-82,324,172,-250
2,8294103,-3473,-1693,-554,-162,-252,-82,324,172,-250
2,8294109,-3473,-1693,-554,-162,-252,-82,324,172,-250
2,8294116,-3472,-1691,-562,-157,-246,-84,324,172,-250
2,8294123,-3472,-1691,-562,-157,-246,-84,324,172,-250
2,8294130,-3472,-1691,-562,-157,-246,-84,324,172,-250
2,8294138,-3472,-1694,-566,-165,-247,-83,324,172,-250
2,8294147,-3472,-1694,-566,-165,-247,-83,324,172,-250
2,8294154,-3472,-1694,-566,-165,-247,-83,324,172,-250
2,8294160,-3472,-1693,-560,-166,-241,-79,324,172,-250
2,8294167,-3472,-1693,-560,-166,-241,-79,324,172,-250
2,8294173,-3472,-1693,-560,-166,-241,-79,324,172,-250
2,8294180,-3471,-1692,-565,-159,-246,-77,324,172,-250
2,8294189,-3471,-1692,-565,-159,-246,-77,324,172,-250
2,8294196,-3470,-1690,-558,-162,-248,-83,324,172,-250
2,8294204,-3470,-1690,-558,-162,-248,-83,324,172,-250
2,8294211,-3470,-1690,-558,-162,-248,-83,324,172,-250
2,8294217,-3471,-1692,-559,-163,-257,-87,319,167,-249
2,8294222,-3471,-1692,-559,-163,-257,-87,319,167,-249
2,8294227,-3471,-1692,-559,-163,-257,-87,319,167,-249
2,8294233,-3471,-1692,-559,-163,-257,-87,319,167,-249
2,8294240,-3471,-1691,-557,-160,-250,-80,319,167,-249
2,8294246,-3471,-1691,-557,-160,-250,-80,319,167,-249
2,8294254,-3471,-1691,-557,-160,-250,-80,319,167,-249
2,8294261,-3472,-1692,-561,-160,-246,-83,319,167,-249
2,8294267,-3472,-1692,-561,-160,-246,-83,319,167,-249
2,8294274,-3472,-1692,-561,-160,-246,-83,319,167,-249
2,8294280,-3471,-1692,-564,-161,-245,-86,319,167,-249
2,8294287,-3471,-1692,-564,-161,-245,-86,319,167,-249
2,8294294,-3471,-1692,-564,-161,-245,-86,319,167,-249
2,8294301,-3476,-1691,-560,-166,-246,-90,319,167,-249
2,8294309,-3476,-1691,-560,-166,-246,-90,319,167,-249
2,8294317,-3472,-1690,-557,-162,-249,-87,319,167,-249
2,8294323,-3472,-1690,-557,-162,-249,-87,319,167,-249
2,8294330,-3472,-1690,-557,-162,-249,-87,319,167,-249
2,8294338,-3473,-1691,-560,-164,-244,-84,321,169,-239
2,8294346,-3473,-1691,-560,-164,-244,-84,321,169,-239
2,8294351,-3473,-1691,-560,-164,-244,-84,321,169,-239
2,8294361,-3470,-1692,-559,-155,-252,-97,321,169,-239
2,8294367,-3470,-1692,-559,-155,-252,-97,321,169,-239
2,8294374,-3470,-1692,-559,-155,-252,-97,321,169,-239
2,8294382,-3470,-1692,-560,-160,-243,-85,321,169,-239
2,8294389,-3470,-1692,-560,-160,-243,-85,321,169,-239
2,8294396,-3471,-1695,-558,-161,-238,-89,321,169,-239
2,8294405,-3471,-1695,-558,-161,-238,-89,321,169,-239
2,8294411,-3471,-1695,-558,-161,-238,-89,321,169,-239
2,8294417,-3469,-1692,-560,-161,-247,-83,321,169,-239
2,8294424,-3469,-1692,-560,-161,-247,-83,321,169,-239
2,8294432,-3469,-1692,-560,-161,-247,-83,321,169,-239
2,8294440,-3471,-1695,-563,-160,-238,-77,321,169,-239
2,8294447,-3471,-1695,-563,-160,-238,-77,321,169,-239
2,8294453,-3471,-1695,-563,-160,-238,-77,321,169,-239
2,8294459,-3472,-1692,-557,-158,-237,-81,321,169,-239
2,8294465,-3472,-1692,-557,-158,-237,-81,321,169,-239
2,8294473,-3472,-1692,-557,-158,-237,-81,321,169,-239
2,8294480,-3469,-1689,-556,-166,-244,-87,316,168,-250
2,8294490,-3469,-1689,-556,-166,-244,-87,316,168,-250
2,8294498,-3469,-1694,-559,-165,-244,-85,316,168,-250
2,8294505,-3469,-1694,-559,-165,-244,-85,316,168,-250
2,8294512,-3469,-1694,-559,-165,-244,-85,316,168,-250
2,8294518,-3470,-1693,-558,-157,-243,-81,316,168,-250
2,8294526,-3470,-1693,-558,-157,-243,-81,316,168,-250
2,8294535,-3470,-1693,-558,-157,-243,-81,316,168,-250
2,8294542,-3471,-1692,-562,-162,-240,-85,316,168,-250
2,8294549,-3471,-1692,-562,-162,-240,-85,316,168,-250
2,8294556,-3470,-1694,-560,-165,-240,-91,316,168,-250
2,8294564,-3470,-1694,-560,-165,-240,-91,316,168,-250
2,8294573,-3470,-1694,-560,-165,-240,-91,316,168,-250
2,8294585,-3468,-1691,-561,-160,-242,-83,316,168,-250
2,8294598,-3469,-1694,-553,-163,-244,-81,317,171,-251
2,8294611,-3469,-1694,-553,-163,-244,-81,317,171,-251
2,8294620,-3470,-1694,-557,-156,-243,-84,317,171,-251
2,8294632,-3470,-1694,-557,-156,-243,-84,317,171,-251
2,8294646,-3471,-1693,-560,-163,-245,-86,317,171,-251
2,8294658,-3468,-1690,-561,-162,-244,-76,317,171,-251
2,8294666,-3468,-1690,-561,-162,-244,-76,317,171,-251
2,8294674,-3468,-1690,-561,-162,-244,-76,317,171,-251
2,8294682,-3471,-1693,-565,-165,-244,-85,317,171,-251
2,8294690,-3471,-1693,-565,-165,-244,-85,317,171,-251
2,8294702,-3470,-1694,-562,-161,-247,-83,317,171,-251
2,8294710,-3470,-1694,-562,-161,-247,-83,317,171,-251
2,8294718,-3470,-1693,-558,-165,-252,-88,309,173,-243
2,8294725,-3470,-1693,-558,-165,-252,-88,309,173,-243
2,8294735,-3470,-1693,-558,-165,-252,-88,309,173,-243
2,8294744,-3474,-1693,-560,-165,-245,-83,309,173,-243
2,8294753,-3474,-1693,-560,-165,-245,-83,309,173,-243
2,8294763,-3473,-1694,-567,-166,-247,-88,309,173,-243
2,8294772,-3473,-1694,-567,-166,-247,-88,309,173,-243
2,8294782,-3473,-1693,-561,-164,-246,-83,309,173,-243
2,8294792,-3473,-1693,-561,-164,-246,-83,309,173,-243
2,8294801,-3472,-1692,-564,-166,-254,-82,309,173,-243
2,8294813,-3472,-1692,-564,-166,-254,-82,309,173,-243
2,8294824,-3471,-1690,-562,-166,-249,-81,309,173,-243
2,8294836,-3473,-1691,-559,-162,-245,-88,309,173,-243
2,8294850,-3473,-1691,-559,-162,-245,-88,311,167,-245
2,8294864,-3466,-1691,-559,-162,-251,-84,311,167,-245
2,8294876,-3469,-1693,-557,-167,-252,-85,311,167,-245
2,8294889,-3469,-1693,-557,-167,-252,-85,311,167,-245
2,8294904,-3472,-1691,-557,-166,-246,-79,311,167,-245
2,8294918,-3471,-1691,-557,-164,-247,-79,311,167,-245
2,8294930,-3471,-1691,-557,-164,-247,-79,311,167,-245
2,8294940,-3470,-1692,-562,-158,-248,-81,311,167,-245
2,8294947,-3470,-1692,-562,-158,-248,-81,311,167,-245
2,8294956,-3468,-1691,-562,-157,-245,-79,311,167,-245
2,8294964,-3468,-1691,-562,-157,-245,-79,318,162,-252
2,8294972,-3468,-1691,-562,-157,-245,-79,318,162,-252
2,8294980,-3471,-1694,-560,-159,-240,-86,318,162,-252
2,8294988,-3471,-1694,-560,-159,-240,-86,318,162,-252
2,8294996,-3473,-1693,-560,-164,-248,-92,318,162,-252
2,8295005,-3473,-1693,-560,-164,-248,-92,318,162,-252
2,8295013,-3473,-1693,-560,-164,-248,-92,318,162,-252
2,8295021,-3469,-1692,-560,-165,-244,-88,318,162,-252
2,8295029,-3469,-1692,-560,-165,-244,-88,318,162,-252
2,8295037,-3469,-1692,-561,-163,-249,-89,318,162,-252
2,8295049,-3469,-1692,-561,-163,-249,-89,318,162,-252
2,8295062,-3472,-1693,-562,-165,-248,-85,318,162,-252
2,8295075,-3467,-1694,-560,-162,-249,-82,318,162,-252
2,8295087,-3467,-1694,-560,-162,-249,-82,318,162,-252
2,8295100,-3474,-1692,-558,-159,-242,-83,317,169,-249
2,8295114,-3474,-1692,-558,-159,-242,-83,317,169,-249
2,8295129,-3471,-1692,-562,-166,-248,-75,317,169,-249
2,8295138,-3471,-1692,-566,-170,-249,-81,317,169,-249
2,8295150,-3471,-1692,-566,-170,-249,-81,317,169,-249
2,8295164,-3471,-1690,-564,-165,-251,-82,317,169,-249
2,8295178,-3470,-1691,-565,-161,-244,-81,317,169,-249
2,8295189,-3470,-1691,-565,-161,-244,-81,317,169,-249
2,8295201,-3472,-1691,-566,-158,-234,-85,317,169,-249
2,8295215,-3472,-1691,-566,-158,-234,-85,317,169,-249
2,8295228,-3472,-1690,-557,-161,-237,-84,318,170,-252
2,8295238,-3473,-1691,-555,-162,-245,-88,318,170,-252
2,8295249,-3473,-1691,-555,-162,-245,-88,318,170,-252
2,8295258,-3471,-1694,-563,-161,-237,-88,318,170,-252
2,8295267,-3471,-1694,-563,-161,-237,-88,318,170,-252
2,8295274,-3471,-1694,-563,-161,-237,-88,318,170,-252
2,8295283,-3471,-1695,-558,-163,-238,-86,318,170,-252
2,8295298,-3469,-1692,-558,-163,-237,-79,318,170,-252
2,8295306,-3469,-1692,-558,-163,-237,-79,318,170,-252
2,8295318,-3470,-1695,-564,-165,-244,-80,318,170,-252
2,8295330,-3470,-1695,-564,-165,-244,-80,318,170,-252
2,8295342,-3472,-1691,-561,-157,-247,-88,314,172,-248
2,8295354,-3472,-1691,-561,-157,-247,-88,314,172,-248
2,8295366,-3469,-1690,-560,-160,-246,-81,314,172,-248
2,8295380,-3470,-1691,-557,-166,-237,-89,314,172,-248
2,8295394,-3470,-1691,-557,-166,-237,-89,314,172,-248
2,8295405,-3471,-1692,-556,-159,-243,-79,314,172,-248
2,8295419,-3472,-1689,-566,-155,-240,-82,314,172,-248
2,8295433,-3472,-1689,-566,-155,-240,-82,314,172,-248
2,8295446,-3470,-1692,-558,-156,-239,-87,314,172,-248
2,8295456,-3467,-1691,-564,-158,-245,-89,314,172,-248
2,8295470,-3467,-1691,-564,-158,-245,-89,308,166,-248
2,8295483,-3471,-1692,-555,-165,-253,-85,308,166,-248
2,8295496,-3471,-1694,-558,-157,-248,-80,308,166,-248
2,8295505,-3471,-1694,-558,-157,-248,-80,308,166,-248
2,8295517,-3467,-1690,-564,-162,-247,-83,308,166,-248
2,8295527,-3467,-1690,-564,-162,-247,-83,308,166,-248
2,8295537,-3467,-1690,-564,-162,-247,-83,308,166,-248
2,8295554,-3467,-1690,-564,-162,-247,-83,308,166,-248
2,8295567,-3473,-1693,-559,-166,-248,-89,308,166,-248
2,8295577,-3474,-1690,-561,-166,-244,-85,319,167,-255
2,8295586,-3474,-1690,-561,-166,-244,-85,319,167,-255
2,8295592,-3474,-1690,-561,-166,-244,-85,319,167,-255
2,8295600,-3470,-1692,-556,-159,-241,-89,319,167,-255
2,8295607,-3470,-1692,-556,-159,-241,-89,319,167,-255
2,8295614,-3470,-1692,-556,-159,-241,-89,319,167,-255
2,8295621,-3470,-1694,-559,-160,-247,-85,319,167,-255
2,8295629,-3470,-1694,-559,-160,-247,-85,319,167,-255
2,8295636,-3470,-1694,-559,-160,-247,-85,319,167,-255
2,8295644,-3470,-1691,-563,-162,-254,-88,319,167,-255
2,8295651,-3470,-1691,-563,-162,-254,-88,319,167,-255
2,8295658,-3469,-1694,-563,-162,-249,-89,319,167,-255
2,8295665,-3469,-1694,-563,-162,-249,-89,319,167,-255
2,8295671,-3469,-1694,-563,-162,-249,-89,319,167,-255
2,8295680,-3470,-1693,-561,-164,-252,-89,319,167,-255
2,8295687,-3470,-1693,-561,-164,-252,-89,319,167,-255
2,8295692,-3470,-1693,-561,-164,-252,-89,319,167,-255
2,8295700,-3467,-1693,-561,-166,-250,-78,319,167,-255
2,8295705,-3467,-1693,-561,-166,-250,-78,319,167,-255
2,8295710,-3467,-1693,-561,-166,-250,-78,319,167,-255
2,8295715,-3467,-1693,-561,-166,-250,-78,319,167,-255
2,8295720,-3472,-1690,-555,-168,-243,-78,312,170,-244
2,8295727,-3472,-1690,-555,-168,-243,-78,312,170,-244
2,8295732,-3472,-1690,-555,-168,-243,-78,312,170,-244
2,8295737,-3472,-1693,-560,-165,-240,-86,312,170,-244
2,8295744,-3472,-1693,-560,-165,-240,-86,312,170,-244
2,8295751,-3472,-1693,-560,-165,-240,-86,312,170,-244
2,8295756,-3469,-1691,-559,-166,-244,-88,312,170,-244
2,8295761,-3469,-1691,-559,-166,-244,-88,312,170,-244
2,8295769,-3469,-1691,-559,-166,-244,-88,312,170,-244
2,8295775,-3469,-1691,-559,-166,-244,-88,312,170,-244
2,8295783,-3470,-1693,-561,-164,-253,-78,312,170,-244
2,8295789,-3470,-1693,-561,-164,-253,-78,312,170,-244
2,8295798,-3469,-1694,-565,-165,-249,-82,312,170,-244
2,8295803,-3469,-1694,-565,-165,-249,-82,312,170,-244
2,8295811,-3469,-1694,-565,-165,-249,-82,312,170,-244
2,8295816,-3469,-1694,-565,-165,-249,-82,312,170,-244
2,8295824,-3472,-1691,-561,-160,-247,-81,312,170,-244
2,8295831,-3472,-1691,-561,-160,-247,-81,312,170,-244
2,8295837,-3471,-1692,-561,-165,-253,-76,315,171,-243
2,8295842,-3471,-1692,-561,-165,-253,-76,315,171,-243
2,8295851,-3471,-1692,-561,-165,-253,-76,315,171,-243
2,8295857,-3471,-1692,-561,-165,-253,-76,315,171,-243
2,8295865,-3471,-1692,-560,-167,-247,-70,315,171,-243
2,8295872,-3471,-1692,-560,-167,-247,-70,315,171,-243
2,8295878,-3471,-1691,-560,-163,-252,-75,315,171,-243
2,8295885,-3471,-1691,-560,-163,-252,-75,315,171,-243
2,8295891,-3471,-1691,-560,-163,-252,-75,315,171,-243
2,8295899,-3469,-1692,-559,-162,-247,-80,315,171,-243
2,8295906,-3469,-1692,-559,-162,-247,-80,315,171,-243
2,8295914,-3469,-1692,-559,-162,-247,-80,315,171,-243
2,8295921,-3472,-1689,-557,-156,-240,-75,315,171,-243
2,8295928,-3472,-1689,-557,-156,-240,-75,315,171,-243
2,8295936,-3472,-1689,-557,-156,-240,-75,315,171,-243
2,8295941,-3473,-1689,-559,-162,-240,-84,315,171,-243
2,8295946,-3473,-1689,-559,-162,-240,-84,315,171,-243
2,8295951,-3473,-1689,-559,-162,-240,-84,315,171,-243
2,8295956,-3473,-1689,-559,-162,-240,-84,315,171,-243
2,8295961,-3473,-1695,-557,-160,-240,-85,312,168,-240
2,8295966,-3473,-1695,-557,-160,-240,-85,312,168,-240
2,8295971,-3473,-1695,-557,-160,-240,-85,312,168,-240
2,8295977,-3469,-1692,-554,-162,-243,-82,312,168,-240
2,8295984,-3469,-1692,-554,-162,-243,-82,312,168,-240
2,8295989,-3469,-1692,-554,-162,-243,-82,312,168,-240
2,8295996,-3469,-1692,-554,-162,-243,-82,312,168,-240
2,8296003,-3471,-1692,-560,-162,-252,-79,312,168,-240
2,8296009,-3471,-1692,-560,-162,-252,-79,312,168,-240
2,8296016,-3471,-1692,-561,-157,-240,-90,312,168,-240
2,8296024,-3471,-1692,-561,-157,-240,-90,312,168,-240
2,8296031,-3471,-1692,-561,-157,-240,-90,312,168,-240
2,8296038,-3470,-1696,-565,-166,-235,-90,312,168,-240
2,8296044,-3470,-1696,-565,-166,-235,-90,312,168,-240
2,8296051,-3470,-1696,-565,-166,-235,-90,312,168,-240
2,8296058,-3468,-1694,-570,-161,-235,-85,312,168,-240
2,8296066,-3468,-1694,-570,-161,-235,-85,312,168,-240
2,8296072,-3468,-1694,-570,-161,-235,-85,312,168,-240
2,8296080,-3473,-1692,-559,-163,-237,-80,312,168,-238
2,8296087,-3473,-1692,-559,-163,-237,-80,312,168,-238
2,8296095,-3473,-1692,-559,-163,-237,-80,312,168,-238
2,8296102,-3470,-1693,-562,-163,-242,-81,312,168,-238
2,8296110,-3470,-1693,-562,-163,-242,-81,312,168,-238
2,8296118,-3471,-1689,-565,-162,-241,-81,312,168,-238
2,8296125,-3471,-1689,-565,-162,-241,-81,312,168,-238
2,8296132,-3471,-1689,-565,-162,-241,-81,312,168,-238
2,8296138,-3471,-1693,-563,-160,-243,-81,312,168,-238
2,8296146,-3471,-1693,-563,-160,-243,-81,312,168,-238
2,8296154,-3471,-1693,-563,-160,-243,-81,312,168,-238
2,8296161,-3471,-1694,-562,-159,-242,-81,312,168,-238
2,8296168,-3471,-1694,-562,-159,-242,-81,312,168,-238
2,8296174,-3471,-1694,-562,-159,-242,-81,312,168,-238
2,8296181,-3468,-1689,-563,-166,-237,-81,312,168,-238
2,8296188,-3468,-1689,-563,-166,-237,-81,312,168,-238
2,8296195,-3468,-1689,-563,-166,-237,-81,312,168,-238
2,8296201,-3470,-1692,-563,-164,-237,-75,318,166,-242
2,8296210,-3470,-1692,-563,-164,-237,-75,318,166,-242
2,8296216,-3470,-1692,-563,-164,-237,-75,318,166,-242
2,8296221,-3469,-1693,-558,-161,-233,-83,318,166,-242
2,8296227,-3469,-1693,-558,-161,-233,-83,318,166,-242
2,8296232,-3469,-1693,-558,-161,-233,-83,318,166,-242
2,8296241,-3471,-1695,-556,-167,-240,-79,318,166,-242
2,8296247,-3471,-1695,-556,-167,-240,-79,318,166,-242
2,8296254,-3471,-1695,-556,-167,-240,-79,318,166,-242
2,8296261,-3468,-1691,-557,-165,-243,-80,318,166,-242
2,8296268,-3468,-1691,-557,-165,-243,-80,318,166,-242
2,8296276,-3468,-1691,-557,-165,-243,-80,318,166,-242
2,8296284,-3468,-1691,-564,-164,-243,-81,318,166,-242
2,8296291,-3468,-1691,-564,-164,-243,-81,318,166,-242
2,8296299,-3468,-1693,-562,-158,-243,-87,318,166,-242
2,8296305,-3468,-1693,-562,-158,-243,-87,318,166,-242
2,8296310,-3468,-1693,-562,-158,-243,-87,318,166,-242
2,8296317,-3471,-1694,-560,-161,-237,-89,318,166,-242
2,8296326,-3471,-1694,-560,-161,-237,-89,318,166,-242
2,8296333,-3471,-1694,-560,-161,-237,-89,318,166,-242
2,8296340,-3471,-1695,-560,-163,-234,-87,310,156,-248
2,8296348,-3471,-1695,-560,-163,-234,-87,310,156,-248
2,8296355,-3471,-1695,-560,-163,-234,-87,310,156,-248
2,8296363,-3470,-1692,-564,-163,-249,-82,310,156,-248
2,8296370,-3470,-1692,-564,-163,-249,-82,310,156,-248
2,8296377,-3470,-1692,-564,-163,-249,-82,310,156,-248
2,8296384,-3470,-1692,-562,-163,-245,-83,310,156,-248
2,8296390,-3470,-1692,-562,-163,-245,-83,310,156,-248
2,8296398,-3475,-1692,-560,-162,-245,-83,310,156,-248
2,8296406,-3475,-1692,-560,-162,-245,-83,310,156,-248
2,8296413,-3475,-1692,-560,-162,-245,-83,310,156,-248
2,8296419,-3470,-1692,-564,-159,-247,-82,310,156,-248
2,8296427,-3470,-1692,-564,-159,-247,-82,310,156,-248
2,8296434,-3470,-1692,-564,-159,-247,-82,310,156,-248
2,8296441,-3469,-1695,-561,-162,-243,-78,310,156,-248
2,8296450,-3469,-1695,-561,-162,-243,-78,310,156,-248
2,8296457,-3469,-1695,-561,-162,-243,-78,310,156,-248
2,8296464,-3470,-1692,-557,-161,-247,-81,313,167,-247
2,8296473,-3470,-1692,-557,-161,-247,-81,313,167,-247
2,8296479,-3471,-1691,-560,-163,-247,-85,313,167,-247
2,8296487,-3471,-1691,-560,-163,-247,-85,313,167,-247
2,8296496,-3471,-1691,-560,-163,-247,-85,313,167,-247
2,8296503,-3472,-1694,-562,-169,-244,-74,313,167,-247
2,8296509,-3472,-1694,-562,-169,-244,-74,313,167,-247
2,8296516,-3472,-1694,-562,-169,-244,-74,313,167,-247
2,8296523,-3470,-1691,-562,-162,-248,-82,313,167,-247
2,8296531,-3470,-1691,-562,-162,-248,-82,313,167,-247
2,8296538,-3472,-1693,-558,-164,-244,-84,313,167,-247
2,8296545,-3472,-1693,-558,-164,-244,-84,313,167,-247
2,8296552,-3472,-1693,-558,-164,-244,-84,313,167,-247
2,8296559,-3470,-1694,-563,-157,-245,-86,313,167,-247
2,8296566,-3470,-1694,-563,-157,-245,-86,313,167,-247
2,8296573,-3470,-1694,-563,-157,-245,-86,313,167,-247
2,8296580,-3472,-1693,-558,-162,-244,-80,307,167,-247
2,8296588,-3472,-1693,-558,-162,-244,-80,307,167,-247
2,8296600,-3470,-1690,-555,-162,-246,-84,307,167,-247
2,8296611,-3470,-1690,-555,-162,-246,-84,307,167,-247
2,8296625,-3473,-1692,-563,-167,-246,-78,307,167,-247
2,8296638,-3469,-1691,-563,-159,-236,-76,307,167,-247
2,8296651,-3469,-1691,-563,-159,-236,-76,307,167,-247
2,8296662,-3470,-1694,-562,-161,-239,-70,307,167,-247
2,8296675,-3470,-1694,-562,-161,-239,-70,307,167,-247
2,8296687,-3470,-1693,-561,-169,-249,-80,307,167,-247
2,8296696,-3470,-1693,-561,-169,-249,-80,307,167,-247
2,8296705,-3471,-1693,-560,-163,-239,-73,320,168,-252
2,8296713,-3471,-1693,-560,-163,-239,-73,320,168,-252
2,8296720,-3471,-1690,-554,-159,-238,-75,320,168,-252
2,8296728,-3471,-1690,-554,-159,-238,-75,320,168,-252
2,8296736,-3471,-1690,-554,-159,-238,-75,320,168,-252
2,8296747,-3473,-1691,-565,-159,-241,-77,320,168,-252
2,8296759,-3473,-1694,-563,-153,-245,-86,320,168,-252
2,8296772,-3473,-1694,-563,-153,-245,-86,320,168,-252
2,8296785,-3472,-1695,-564,-152,-244,-77,320,168,-252
2,8296797,-3472,-1695,-564,-152,-244,-77,320,168,-252
2,8296809,-3470,-1690,-560,-165,-260,-82,320,168,-252
2,8296822,-3471,-1693,-557,-162,-248,-81,323,171,-241
2,8296836,-3471,-1693,-557,-162,-248,-81,323,171,-241
2,8296847,-3471,-1692,-561,-159,-251,-81,323,171,-241
2,8296860,-3470,-1691,-560,-154,-244,-87,323,171,-241
2,8296872,-3470,-1691,-560,-154,-244,-87,323,171,-241
2,8296885,-3469,-1690,-560,-162,-245,-86,323,171,-241
2,8296895,-3469,-1690,-560,-162,-245,-86,323,171,-241
2,8296908,-3469,-1692,-560,-168,-242,-90,323,171,-241
2,8296920,-3471,-1694,-561,-159,-250,-91,323,171,-241
2,8296930,-3471,-1694,-561,-159,-250,-91,323,171,-241
2,8296941,-3471,-1691,-567,-164,-244,-86,323,171,-241
2,8296949,-3471,-1691,-567,-164,-244,-86,323,171,-241
2,8296957,-3471,-1691,-567,-164,-244,-86,323,171,-241
2,8296966,-3470,-1691,-553,-162,-239,-81,315,169,-241
2,8296974,-3470,-1691,-553,-162,-239,-81,315,169,-241
2,8296982,-3472,-1695,-560,-166,-244,-85,315,169,-241
2,8296989,-3472,-1695,-560,-166,-244,-85,315,169,-241
2,8296998,-3470,-1692,-564,-168,-246,-80,315,169,-241
2,8297006,-3470,-1692,-564,-168,-246,-80,315,169,-241
2,8297014,-3470,-1692,-564,-168,-246,-80,315,169,-241
2,8297022,-3471,-1694,-561,-163,-245,-78,315,169,-241
2,8297031,-3471,-1694,-561,-163,-245,-78,315,169,-241
2,8297038,-3469,-1692,-559,-155,-240,-89,315,169,-241
2,8297048,-3469,-1692,-559,-155,-240,-89,315,169,-241
2,8297061,-3469,-1693,-562,-165,-246,-82,315,169,-241
2,8297073,-3469,-1693,-562,-165,-246,-82,315,169,-241
2,8297086,-3465,-1690,-556,-164,-245,-77,321,169,-247
2,8297100,-3472,-1694,-562,-160,-246,-83,321,169,-247
2,8297113,-3472,-1694,-562,-160,-246,-83,321,169,-247
2,8297125,-3468,-1690,-560,-166,-245,-80,321,169,-247
2,8297138,-3468,-1690,-560,-166,-245,-80,321,169,-247
2,8297150,-3471,-1693,-559,-161,-239,-90,321,169,-247
2,8297163,-3471,-1691,-564,-162,-242,-87,321,169,-247
2,8297178,-3471,-1691,-564,-162,-242,-87,321,169,-247
2,8297189,-3467,-1690,-565,-163,-242,-77,321,169,-247
2,8297202,-3471,-1692,-565,-172,-244,-81,317,163,-245
2,8297217,-3471,-1692,-565,-172,-244,-81,317,163,-245
2,8297230,-3471,-1694,-559,-165,-250,-82,317,163,-245
2,8297242,-3474,-1691,-562,-163,-250,-87,317,163,-245
2,8297251,-3474,-1691,-562,-163,-250,-87,317,163,-245
2,8297259,-3470,-1694,-565,-169,-244,-86,317,163,-245
2,8297267,-3470,-1694,-565,-169,-244,-86,317,163,-245
2,8297275,-3470,-1694,-565,-169,-244,-86,317,163,-245
2,8297284,-3472,-1689,-558,-167,-246,-79,317,163,-245
2,8297296,-3472,-1689,-558,-167,-246,-79,317,163,-245
2,8297307,-3472,-1694,-564,-162,-237,-85,317,163,-245
2,8297317,-3472,-1694,-564,-162,-237,-85,317,163,-245
2,8297327,-3468,-1693,-557,-167,-248,-82,308,170,-244
2,8297335,-3468,-1693,-557,-167,-248,-82,308,170,-244
2,8297346,-3473,-1694,-559,-161,-245,-82,308,170,-244
2,8297357,-3473,-1694,-559,-161,-245,-82,308,170,-244
2,8297367,-3470,-1694,-562,-168,-239,-86,308,170,-244
2,8297378,-3473,-1693,-559,-164,-241,-85,308,170,-244
2,8297388,-3473,-1693,-559,-164,-241,-85,308,170,-244
2,8297398,-3473,-1693,-559,-164,-241,-85,308,170,-244
2,8297409,-3472,-1694,-561,-164,-242,-80,308,170,-244
2,8297422,-3470,-1693,-564,-161,-245,-82,308,170,-244
2,8297436,-3470,-1693,-564,-161,-245,-82,308,170,-244
2,8297449,-3474,-1691,-558,-160,-247,-83,313,167,-249
2,8297460,-3470,-1694,-559,-164,-250,-81,313,167,-249
2,8297476,-3470,-1694,-559,-164,-250,-81,313,167,-249
2,8297487,-3474,-1694,-564,-165,-248,-82,313,167,-249
2,8297499,-3471,-1693,-559,-163,-235,-89,313,167,-249
2,8297510,-3471,-1693,-559,-163,-235,-89,313,167,-249
2,8297524,-3472,-1693,-568,-152,-239,-88,313,167,-249
2,8297537,-3472,-1693,-568,-152,-239,-88,313,167,-249
2,8297550,-3472,-1691,-560,-155,-245,-86,313,167,-249
2,8297564,-3473,-1691,-563,-162,-241,-84,315,167,-251
2,8297576,-3473,-1691,-563,-162,-241,-84,315,167,-251
2,8297589,-3471,-1690,-553,-166,-241,-82,315,167,-251
2,8297597,-3471,-1690,-553,-166,-241,-82,315,167,-251
2,8297605,-3469,-1695,-559,-164,-242,-78,315,167,-251
2,8297612,-3469,-1695,-559,-164,-242,-78,315,167,-251
2,8297619,-3470,-1692,-559,-163,-244,-85,315,167,-251
2,8297626,-3470,-1692,-559,-163,-244,-85,315,167,-251
2,8297632,-3470,-1692,-559,-163,-244,-85,315,167,-251
2,8297639,-3470,-1689,-560,-164,-249,-88,315,167,-251
2,8297648,-3470,-1689,-560,-164,-249,-88,315,167,-251
2,8297655,-3470,-1689,-560,-164,-249,-88,315,167,-251
2,8297662,-3472,-1695,-562,-165,-242,-88,315,167,-251
2,8297668,-3472,-1695,-562,-165,-242,-88,315,167,-251
2,8297675,-3472,-1695,-562,-165,-242,-88,315,167,-251
2,8297681,-3469,-1690,-556,-161,-243,-79,315,167,-251
2,8297690,-3469,-1690,-556,-161,-243,-79,315,167,-251
2,8297697,-3469,-1690,-556,-161,-243,-79,315,167,-251
2,8297704,-3471,-1692,-560,-159,-242,-84,317,167,-241
2,8297709,-3471,-1692,-560,-159,-242,-84,317,167,-241
2,8297714,-3471,-1692,-560,-159,-242,-84,317,167,-241
2,8297719,-3470,-1694,-561,-160,-242,-81,317,167,-241
2,8297724,-3470,-1694,-561,-160,-242,-81,317,167,-241
2,8297730,-3470,-1694,-561,-160,-242,-81,317,167,-241
2,8297736,-3470,-1694,-561,-160,-242,-81,317,167,-241
2,8297742,-3468,-1692,-553,-159,-252,-86,317,167,-241
2,8297748,-3468,-1692,-553,-159,-252,-86,317,167,-241
2,8297757,-3468,-1692,-553,-159,-252,-86,317,167,-241
2,8297764,-3469,-1694,-558,-160,-246,-88,317,167,-241
2,8297772,-3469,-1694,-558,-160,-246,-88,317,167,-241
2,8297778,-3469,-1694,-558,-160,-246,-88,317,167,-241
2,8297783,-3469,-1695,-562,-162,-248,-83,317,167,-241
2,8297790,-3469,-1695,-562,-162,-248,-83,317,167,-241
2,8297798,-3469,-1695,-562,-162,-248,-83,317,167,-241
2,8297806,-3470,-1692,-565,-164,-245,-82,317,167,-241
2,8297815,-3470,-1692,-565,-164,-245,-82,317,167,-241
2,8297820,-3471,-1691,-555,-163,-246,-87,316,170,-244
2,8297825,-3471,-1691,-555,-163,-246,-87,316,170,-244
2,8297831,-3471,-1691,-555,-163,-246,-87,316,170,-244
2,8297837,-3471,-1691,-555,-163,-246,-87,316,170,-244
2,8297845,-3471,-1693,-560,-161,-245,-95,316,170,-244
2,8297850,-3471,-1693,-560,-161,-245,-95,316,170,-244
2,8297858,-3471,-1693,-560,-161,-245,-95,316,170,-244
2,8297865,-3470,-1694,-563,-160,-248,-84,316,170,-244
2,8297872,-3470,-1694,-563,-160,-248,-84,316,170,-244
2,8297878,-3470,-1694,-563,-160,-248,-84,316,170,-244
2,8297885,-3471,-1692,-559,-158,-243,-82,316,170,-244
2,8297891,-3471,-1692,-559,-158,-243,-82,316,170,-244
2,8297897,-3471,-1692,-559,-158,-243,-82,316,170,-244
2,8297904,-3470,-1691,-556,-158,-249,-87,316,170,-244
2,8297911,-3470,-1691,-556,-158,-249,-87,316,170,-244
2,8297917,-3470,-1691,-556,-158,-249,-87,316,170,-244
2,8297925,-3471,-1690,-563,-161,-245,-82,316,170,-244
2,8297934,-3471,-1690,-563,-161,-245,-82,316,170,-244
2,8297939,-3468,-1692,-560,-163,-248,-86,320,166,-236
2,8297945,-3468,-1692,-560,-163,-248,-86,320,166,-236
2,8297950,-3468,-1692,-560,-163,-248,-86,320,166,-236
2,8297955,-3468,-1692,-560,-163,-248,-86,320,166,-236
2,8297960,-3472,-1694,-556,-162,-244,-78,320,166,-236
2,8297965,-3472,-1694,-556,-162,-244,-78,320,166,-236
2,8297970,-3472,-1694,-556,-162,-244,-78,320,166,-236
2,8297978,-3472,-1694,-556,-162,-244,-78,320,166,-236
2,8297986,-3470,-1694,-564,-162,-252,-80,320,166,-236
2,8297993,-3470,-1694,-564,-162,-252,-80,320,166,-236
2,8298000,-3469,-1694,-555,-166,-244,-82,320,166,-236
2,8298007,-3469,-1694,-555,-166,-244,-82,320,166,-236
2,8298014,-3469,-1694,-555,-166,-244,-82,320,166,-236
2,8298020,-3468,-1691,-563,-166,-245,-81,320,166,-236
2,8298029,-3468,-1691,-563,-166,-245,-81,320,166,-236
2,8298036,-3468,-1691,-563,-166,-245,-81,320,166,-236
2,8298042,-3471,-1694,-565,-167,-243,-79,320,166,-236
2,8298049,-3471,-1694,-565,-167,-243,-79,320,166,-236
2,8298057,-3471,-1694,-565,-167,-243,-79,320,166,-236
2,8298065,-3468,-1692,-561,-161,-257,-79,316,160,-242
2,8298072,-3468,-1692,-561,-161,-257,-79,316,160,-242
2,8298079,-3472,-1694,-556,-162,-254,-81,316,160,-242
2,8298086,-3472,-1694,-556,-162,-254,-81,316,160,-242
2,8298093,-3472,-1694,-556,-162,-254,-81,316,160,-242
2,8298099,-3471,-1693,-561,-169,-240,-92,316,160,-242
2,8298106,-3471,-1693,-561,-169,-240,-92,316,160,-242
2,8298114,-3471,-1693,-561,-169,-240,-92,316,160,-242
2,8298120,-3470,-1693,-556,-165,-242,-88,316,160,-242
2,8298128,-3470,-1693,-556,-165,-242,-88,316,160,-242
2,8298134,-3470,-1693,-556,-165,-242,-88,316,160,-242
2,8298142,-3470,-1693,-557,-156,-239,-88,316,160,-242
2,8298149,-3470,-1693,-557,-156,-239,-88,316,160,-242
2,8298155,-3470,-1693,-557,-156,-239,-88,316,160,-242
2,8298161,-3469,-1691,-559,-161,-247,-85,316,160,-242
2,8298167,-3469,-1691,-559,-161,-247,-85,316,160,-242
2,8298175,-3469,-1691,-559,-161,-247,-85,316,160,-242
2,8298182,-3472,-1692,-561,-163,-246,-84,314,168,-248
2,8298189,-3472,-1692,-561,-163,-246,-84,314,168,-248
2,8298198,-3472,-1692,-561,-163,-246,-84,314,168,-248
2,8298205,-3471,-1694,-558,-167,-246,-84,314,168,-248
2,8298211,-3471,-1694,-558,-167,-246,-84,314,168,-248
2,8298219,-3467,-1690,-558,-158,-239,-86,314,168,-248
2,8298226,-3467,-1690,-558,-158,-239,-86,314,168,-248
2,8298233,-3467,-1690,-558,-158,-239,-86,314,168,-248
2,8298242,-3468,-1692,-561,-160,-244,-87,314,168,-248
2,8298249,-3468,-1692,-561,-160,-244,-87,314,168,-248
2,8298256,-3468,-1692,-561,-160,-244,-87,314,168,-248
2,8298263,-3470,-1694,-557,-159,-246,-84,314,168,-248
2,8298268,-3470,-1694,-557,-159,-246,-84,314,168,-248
2,8298276,-3470,-1694,-557,-159,-246,-84,314,168,-248
2,8298285,-3471,-1693,-558,-151,-251,-83,314,168,-248
2,8298293,-3471,-1693,-558,-151,-251,-83,314,168,-248
2,8298301,-3471,-1694,-562,-163,-231,-87,314,168,-248
2,8298307,-3471,-1694,-562,-163,-231,-87,314,168,-248
2,8298315,-3471,-1694,-562,-163,-231,-87,314,168,-248
2,8298322,-3473,-1690,-557,-161,-243,-83,320,164,-246
2,8298329,-3473,-1690,-557,-161,-243,-83,320,164,-246
2,8298335,-3473,-1690,-557,-161,-243,-83,320,164,-246
2,8298341,-3470,-1690,-558,-161,-246,-82,320,164,-246
2,8298346,-3470,-1690,-558,-161,-246,-82,320,164,-246
2,8298351,-3470,-1690,-558,-161,-246,-82,320,164,-246
2,8298360,-3470,-1693,-560,-162,-250,-84,320,164,-246
2,8298368,-3470,-1693,-560,-162,-250,-84,320,164,-246
2,8298375,-3470,-1693,-560,-162,-250,-84,320,164,-246
2,8298381,-3470,-1692,-560,-165,-240,-81,320,164,-246
2,8298388,-3470,-1692,-560,-165,-240,-81,320,164,-246
2,8298395,-3470,-1692,-560,-165,-240,-81,320,164,-246
2,8298402,-3471,-1693,-560,-160,-234,-77,320,164,-246
2,8298411,-3471,-1693,-560,-160,-234,-77,320,164,-246
2,8298417,-3471,-1693,-560,-160,-234,-77,320,164,-246
2,8298424,-3469,-1694,-565,-166,-241,-83,320,164,-246
2,8298431,-3469,-1694,-565,-166,-241,-83,320,164,-246
2,8298438,-3469,-1694,-565,-166,-241,-83,320,164,-246
2,8298445,-3471,-1693,-557,-161,-242,-87,318,168,-244
2,8298451,-3471,-1693,-557,-161,-242,-87,318,168,-244
2,8298461,-3471,-1691,-562,-158,-243,-90,318,168,-244
2,8298467,-3471,-1691,-562,-158,-243,-90,318,168,-244
2,8298474,-3471,-1691,-562,-158,-243,-90,318,168,-244
2,8298481,-3469,-1692,-558,-160,-247,-84,318,168,-244
2,8298487,-3469,-1692,-558,-160,-247,-84,318,168,-244
2,8298494,-3469,-1692,-558,-160,-247,-84,318,168,-244
2,8298503,-3471,-1694,-563,-156,-248,-83,318,168,-244
2,8298511,-3471,-1694,-563,-156,-248,-83,318,168,-244
2,8298519,-3471,-1694,-563,-156,-248,-83,318,168,-244
2,8298525,-3471,-1697,-564,-163,-252,-87,318,168,-244
2,8298531,-3471,-1697,-564,-163,-252,-87,318,168,-244
2,8298540,-3471,-1693,-564,-162,-245,-85,318,168,-244
2,8298546,-3471,-1693,-564,-162,-245,-85,318,168,-244
2,8298553,-3471,-1693,-564,-162,-245,-85,318,168,-244
2,8298561,-3471,-1692,-557,-160,-248,-87,315,173,-255
2,8298568,-3471,-1692,-557,-160,-248,-87,315,173,-255
2,8298576,-3471,-1692,-557,-160,-248,-87,315,173,-255
2,8298585,-3471,-1692,-559,-168,-238,-80,315,173,-255
2,8298591,-3471,-1692,-559,-168,-238,-80,315,173,-255
2,8298598,-3471,-1692,-559,-168,-238,-80,315,173,-255
2,8298610,-3470,-1694,-562,-165,-251,-82,315,173,-255
2,8298622,-3468,-1695,-563,-161,-246,-81,315,173,-255
2,8298635,-3468,-1695,-563,-161,-246,-81,315,173,-255
2,8298649,-3470,-1691,-557,-158,-234,-84,315,173,-255
2,8298662,-3468,-1692,-559,-165,-245,-80,315,173,-255
2,8298674,-3468,-1692,-559,-165,-245,-80,315,173,-255
2,8298687,-3471,-1692,-563,-164,-237,-88,318,166,-244
2,8298699,-3470,-1693,-557,-167,-242,-86,318,166,-244
2,8298707,-3470,-1693,-557,-167,-242,-86,318,166,-244
2,8298715,-3470,-1693,-557,-167,-242,-86,318,166,-244
2,8298724,-3471,-1690,-562,-163,-238,-91,318,166,-244
2,8298732,-3471,-1690,-562,-163,-238,-91,318,166,-244
2,8298740,-3469,-1691,-561,-159,-243,-87,318,166,-244
2,8298749,-3469,-1691,-561,-159,-243,-87,318,166,-244
2,8298760,-3470,-1689,-560,-158,-241,-90,318,166,-244
2,8298769,-3470,-1689,-560,-158,-241,-90,318,166,-244
2,8298778,-3470,-1689,-560,-158,-241,-90,318,166,-244
2,8298787,-3471,-1693,-560,-159,-239,-88,318,166,-244
2,8298800,-3470,-1695,-562,-160,-241,-81,319,175,-244
2,8298811,-3470,-1695,-562,-160,-241,-81,319,175,-247
2,8298823,-3470,-1692,-557,-161,-239,-79,319,175,-247
2,8298838,-3470,-1692,-557,-161,-239,-79,319,175,-247
2,8298850,-3471,-1693,-559,-161,-240,-76,319,175,-247
2,8298858,-3471,-1693,-559,-161,-240,-76,319,175,-247
2,8298865,-3469,-1694,-559,-154,-236,-85,319,175,-247
2,8298874,-3469,-1694,-559,-154,-236,-85,319,175,-247
2,8298882,-3470,-1690,-558,-152,-244,-80,319,175,-247
2,8298892,-3470,-1690,-558,-152,-244,-80,319,175,-247
2,8298904,-3470,-1691,-560,-159,-238,-86,319,175,-247
2,8298918,-3470,-1691,-560,-159,-238,-86,319,175,-247
2,8298933,-3469,-1694,-564,-161,-235,-88,319,175,-247
2,8298942,-3468,-1691,-557,-166,-240,-87,314,162,-244
2,8298950,-3468,-1691,-557,-166,-240,-87,314,162,-244
2,8298958,-3468,-1691,-557,-166,-240,-87,314,162,-244
2,8298967,-3471,-1691,-560,-159,-240,-85,314,162,-244
2,8298975,-3471,-1691,-560,-159,-240,-85,314,162,-244
2,8298982,-3467,-1695,-561,-155,-232,-78,314,162,-244
2,8298991,-3467,-1695,-561,-155,-232,-78,314,162,-244
2,8298998,-3467,-1695,-561,-155,-232,-78,314,162,-244
2,8299008,-3470,-1692,-563,-159,-244,-84,314,162,-244
2,8299015,-3470,-1692,-563,-159,-244,-84,314,162,-244
2,8299024,-3469,-1693,-558,-160,-240,-80,314,162,-244
2,8299032,-3469,-1693,-558,-160,-240,-80,314,162,-244
2,8299040,-3470,-1693,-558,-162,-241,-83,314,162,-244
2,8299055,-3470,-1693,-558,-162,-241,-83,314,162,-244
2,8299067,-3468,-1694,-556,-157,-244,-84,313,169,-245
2,8299082,-3470,-1694,-560,-156,-237,-89,313,169,-245
2,8299095,-3470,-1694,-560,-156,-237,-89,313,169,-245
2,8299108,-3469,-1694,-564,-153,-234,-82,313,169,-245
2,8299121,-3468,-1693,-565,-154,-239,-83,313,169,-245
2,8299134,-3468,-1693,-565,-154,-239,-83,313,169,-245
2,8299147,-3468,-1692,-559,-155,-242,-79,313,169,-245
2,8299158,-3468,-1692,-559,-155,-242,-79,313,169,-245
2,8299171,-3471,-1692,-564,-160,-245,-82,313,169,-245
2,8299184,-3471,-1692,-560,-164,-241,-84,312,170,-246
2,8299197,-3471,-1692,-560,-164,-241,-84,312,170,-246
2,8299208,-3470,-1690,-559,-161,-236,-84,312,170,-246
2,8299219,-3472,-1690,-563,-160,-247,-83,312,170,-246
2,8299229,-3472,-1690,-563,-160,-247,-83,312,170,-246
2,8299240,-3473,-1693,-561,-166,-235,-84,312,170,-246
2,8299253,-3473,-1693,-561,-166,-235,-84,312,170,-246
2,8299266,-3468,-1697,-560,-163,-230,-80,312,170,-246
2,8299276,-3468,-1697,-560,-163,-230,-80,312,170,-246
2,8299288,-3467,-1693,-561,-164,-243,-84,312,170,-246
2,8299303,-3471,-1692,-556,-159,-242,-83,325,173,-245
2,8299318,-3471,-1692,-556,-159,-242,-83,325,173,-245
2,8299326,-3469,-1692,-559,-161,-244,-82,325,173,-245
2,8299339,-3469,-1692,-559,-161,-244,-82,325,173,-245
2,8299354,-3470,-1692,-561,-164,-253,-81,325,173,-245
2,8299367,-3468,-1690,-560,-165,-247,-73,325,173,-245
2,8299377,-3468,-1690,-560,-165,-247,-73,325,173,-245
2,8299390,-3471,-1694,-558,-162,-242,-82,325,173,-245
2,8299403,-3471,-1694,-558,-158,-244,-86,325,173,-245
2,8299415,-3471,-1694,-558,-158,-244,-86,325,173,-245
2,8299426,-3471,-1694,-558,-158,-244,-86,316,174,-250
2,8299439,-3471,-1694,-558,-158,-244,-86,316,174,-250
2,8299451,-3469,-1695,-561,-165,-240,-81,316,174,-250
2,8299464,-3469,-1691,-557,-158,-244,-87,316,174,-250
2,8299473,-3469,-1691,-557,-158,-244,-87,316,174,-250
2,8299482,-3471,-1695,-559,-158,-243,-87,316,174,-250
2,8299490,-3471,-1695,-559,-158,-243,-87,316,174,-250
2,8299499,-3471,-1695,-559,-158,-243,-87,316,174,-250
2,8299507,-3471,-1695,-557,-163,-241,-90,316,174,-250
2,8299522,-3469,-1694,-556,-158,-239,-75,316,174,-250
2,8299535,-3469,-1694,-556,-158,-239,-75,316,174,-250
2,8299545,-3472,-1692,-557,-160,-239,-84,316,174,-250
2,8299557,-3472,-1692,-557,-160,-239,-84,316,174,-250
2,8299573,-3467,-1694,-556,-163,-242,-91,316,166,-244
2,8299585,-3468,-1693,-561,-163,-245,-93,316,166,-244
2,8299595,-3468,-1693,-561,-163,-245,-93,316,166,-244
2,8299608,-3471,-1691,-561,-165,-246,-90,316,166,-244
2,8299616,-3471,-1691,-561,-165,-246,-90,316,166,-244
2,8299622,-3470,-1692,-558,-163,-248,-86,316,166,-244
2,8299630,-3470,-1692,-558,-163,-248,-86,316,166,-244
2,8299636,-3470,-1692,-558,-163,-248,-86,316,166,-244
2,8299642,-3470,-1693,-562,-162,-250,-84,316,166,-244
2,8299651,-3470,-1693,-562,-162,-250,-84,316,166,-244
2,8299658,-3470,-1693,-562,-162,-250,-84,316,166,-244
2,8299667,-3470,-1694,-560,-161,-246,-89,316,166,-244
2,8299675,-3470,-1694,-560,-161,-246,-89,316,166,-244
2,8299682,-3469,-1692,-554,-167,-250,-78,312,168,-240
2,8299688,-3469,-1692,-554,-167,-250,-78,312,168,-240
2,8299694,-3469,-1692,-554,-167,-250,-78,312,168,-240
2,8299702,-3469,-1692,-557,-160,-254,-89,312,168,-240
2,8299707,-3469,-1692,-557,-160,-254,-89,312,168,-240
2,8299712,-3469,-1692,-557,-160,-254,-89,312,168,-240
2,8299717,-3469,-1692,-557,-160,-254,-89,312,168,-240
2,8299722,-3470,-1695,-560,-164,-252,-83,312,168,-240
2,8299727,-3470,-1695,-560,-164,-252,-83,312,168,-240
2,8299732,-3470,-1695,-560,-164,-252,-83,312,168,-240
2,8299740,-3470,-1695,-560,-164,-252,-83,312,168,-240
2,8299746,-3471,-1692,-563,-162,-248,-87,312,168,-240
2,8299754,-3471,-1692,-563,-162,-248,-87,312,168,-240
2,8299760,-3471,-1692,-563,-162,-248,-87,312,168,-240
2,8299767,-3471,-1688,-565,-160,-247,-86,312,168,-240
2,8299776,-3471,-1688,-565,-160,-247,-86,312,168,-240
2,8299784,-3471,-1694,-562,-157,-242,-80,312,168,-240
2,8299792,-3471,-1694,-562,-157,-242,-80,312,168,-240
2,8299799,-3471,-1694,-562,-157,-242,-80,312,168,-240
2,8299806,-3470,-1691,-559,-159,-240,-84,317,171,-237
2,8299814,-3470,-1691,-559,-159,-240,-84,317,171,-237
2,8299821,-3469,-1694,-558,-160,-246,-82,317,171,-237
2,8299827,-3469,-1694,-558,-160,-246,-82,317,171,-237
2,8299835,-3469,-1694,-558,-160,-246,-82,317,171,-237
2,8299842,-3468,-1691,-561,-153,-240,-86,317,171,-237
2,8299849,-3468,-1691,-561,-153,-240,-86,317,171,-237
2,8299856,-3468,-1691,-561,-153,-240,-86,317,171,-237
2,8299863,-3470,-1694,-562,-159,-242,-89,317,171,-237
2,8299870,-3470,-1694,-562,-159,-242,-89,317,171,-237
2,8299877,-3470,-1694,-562,-159,-242,-89,317,171,-237
2,8299884,-3470,-1696,-564,-160,-244,-84,317,171,-237
2,8299893,-3470,-1696,-564,-160,-244,-84,317,171,-237
2,8299899,-3470,-1696,-564,-160,-244,-84,317,171,-237
2,8299908,-3471,-1696,-564,-158,-242,-82,317,171,-237
2,8299914,-3471,-1696,-564,-158,-242,-82,317,171,-237
2,8299922,-3469,-1691,-562,-160,-241,-86,320,162,-240
2,8299927,-3469,-1691,-562,-160,-241,-86,320,162,-240
2,8299935,-3469,-1691,-562,-160,-241,-86,320,162,-240
2,8299941,-3472,-1692,-555,-161,-238,-81,320,162,-240
2,8299945,-3472,-1692,-555,-161,-238,-81,320,162,-240
2,8299951,-3472,-1692,-555,-161,-238,-81,320,162,-240
2,8299957,-3472,-1692,-555,-161,-238,-81,320,162,-240
2,8299963,-3469,-1692,-558,-162,-242,-91,320,162,-240
2,8299968,-3469,-1692,-558,-162,-242,-91,320,162,-240
2,8299973,-3469,-1692,-558,-162,-242,-91,320,162,-240
2,8299978,-3469,-1692,-558,-162,-242,-91,320,162,-240
2,8299986,-3469,-1696,-554,-158,-237,-85,320,162,-240
2,8299994,-3469,-1696,-554,-158,-237,-85,320,162,-240
2,8300002,-3472,-1694,-557,-160,-245,-91,320,162,-240
2,8300009,-3472,-1694,-557,-160,-245,-91,320,162,-240
2,8300016,-3472,-1694,-557,-160,-245,-91,320,162,-240
2,8300022,-3472,-1692,-560,-160,-245,-80,320,162,-240
2,8300030,-3472,-1692,-560,-160,-245,-80,320,162,-240
2,8300037,-3472,-1692,-560,-160,-245,-80,320,162,-240
2,8300043,-3468,-1693,-558,-166,-244,-84,313,167,-245
2,8300050,-3468,-1693,-558,-166,-244,-84,313,167,-245
2,8300057,-3468,-1693,-558,-166,-244,-84,313,167,-245
2,8300065,-3473,-1695,-555,-162,-242,-79,313,167,-245
2,8300070,-3473,-1695,-555,-162,-242,-79,313,167,-245
2,8300078,-3473,-1695,-555,-162,-242,-79,313,167,-245
2,8300085,-3469,-1699,-562,-164,-247,-85,313,167,-245
2,8300091,-3469,-1699,-562,-164,-247,-85,313,167,-245
2,8300098,-3469,-1699,-562,-164,-247,-85,313,167,-245
2,8300105,-3468,-1692,-564,-172,-244,-84,313,167,-245
2,8300112,-3468,-1692,-564,-172,-244,-84,313,167,-245
2,8300120,-3468,-1692,-564,-172,-244,-84,313,167,-245
2,8300127,-3469,-1693,-566,-166,-249,-88,313,167,-245
2,8300136,-3469,-1693,-566,-166,-249,-88,313,167,-245
2,8300143,-3470,-1692,-559,-161,-250,-92,313,167,-245
2,8300149,-3470,-1692,-559,-161,-250,-92,313,167,-245
2,8300156,-3470,-1692,-559,-161,-250,-92,313,167,-245
2,8300165,-3470,-1692,-557,-160,-237,-90,313,167,-245
2,8300172,-3470,-1692,-557,-160,-237,-90,313,167,-245
2,8300177,-3470,-1692,-557,-160,-237,-90,313,167,-245
2,8300185,-3472,-1694,-557,-163,-248,-93,309,171,-235
2,8300192,-3472,-1694,-557,-163,-248,-93,309,171,-235
2,8300199,-3472,-1694,-557,-163,-248,-93,309,171,-235
2,8300208,-3471,-1694,-553,-162,-246,-87,309,171,-235
2,8300213,-3471,-1694,-553,-162,-246,-87,309,171,-235
2,8300221,-3472,-1694,-556,-161,-239,-89,309,171,-235
2,8300228,-3472,-1694,-556,-161,-239,-89,309,171,-235
2,8300237,-3472,-1694,-556,-161,-239,-89,309,171,-235
2,8300243,-3470,-1692,-557,-164,-243,-86,309,171,-235
2,8300250,-3470,-1692,-557,-164,-243,-86,309,171,-235
2,8300256,-3470,-1692,-557,-164,-243,-86,309,171,-235
2,8300262,-3471,-1695,-561,-160,-244,-86,309,171,-235
2,8300271,-3471,-1695,-561,-160,-244,-86,309,171,-235
2,8300277,-3471,-1695,-561,-160,-244,-86,309,171,-235
2,8300285,-3471,-1692,-564,-165,-241,-87,309,171,-235
2,8300294,-3471,-1692,-564,-165,-241,-87,309,171,-235
2,8300300,-3471,-1692,-564,-165,-241,-87,309,171,-235
2,8300308,-3472,-1695,-559,-164,-245,-89,316,166,-250
2,8300313,-3472,-1695,-559,-164,-245,-89,316,166,-250
2,8300321,-3468,-1695,-558,-161,-247,-84,316,166,-250
2,8300327,-3468,-1695,-558,-161,-247,-84,316,166,-250
2,8300336,-3468,-1695,-558,-161,-247,-84,316,166,-250
2,8300342,-3469,-1692,-562,-164,-251,-79,316,166,-250
2,8300348,-3469,-1692,-562,-164,-251,-79,316,166,-250
2,8300356,-3469,-1692,-562,-164,-251,-79,316,166,-250
2,8300363,-3471,-1693,-562,-164,-248,-81,316,166,-250
2,8300371,-3471,-1693,-562,-164,-248,-81,316,166,-250
2,8300379,-3471,-1693,-562,-164,-248,-81,316,166,-250
2,8300386,-3469,-1693,-561,-163,-243,-84,316,166,-250
2,8300392,-3469,-1693,-561,-163,-243,-84,316,166,-250
2,8300397,-3469,-1693,-561,-163,-243,-84,316,166,-250
2,8300403,-3469,-1692,-561,-161,-244,-87,316,166,-250
2,8300408,-3469,-1692,-561,-161,-244,-87,316,166,-250
2,8300413,-3469,-1692,-561,-161,-244,-87,316,166,-250
2,8300422,-3473,-1693,-555,-164,-247,-87,313,171,-245
2,8300428,-3473,-1693,-555,-164,-247,-87,313,171,-245
2,8300435,-3473,-1693,-555,-164,-247,-87,313,171,-245
2,8300442,-3471,-1692,-565,-159,-251,-85,313,171,-245
2,8300450,-3471,-1692,-565,-159,-251,-85,313,171,-245
2,8300456,-3471,-1692,-565,-159,-251,-85,313,171,-245
2,8300464,-3471,-1693,-563,-160,-246,-89,313,171,-245
2,8300472,-3471,-1693,-563,-160,-246,-89,313,171,-245
2,8300477,-3471,-1693,-563,-160,-246,-89,313,171,-245
2,8300485,-3471,-1692,-558,-167,-249,-89,313,171,-245
2,8300492,-3471,-1692,-558,-167,-249,-89,313,171,-245
2,8300500,-3471,-1692,-558,-167,-249,-89,313,171,-245
2,8300507,-3472,-1696,-561,-160,-247,-78,313,171,-245
2,8300514,-3472,-1696,-561,-160,-247,-78,313,171,-245
2,8300522,-3470,-1693,-562,-167,-246,-84,313,171,-245
2,8300530,-3470,-1693,-562,-167,-246,-84,313,171,-245
2,8300536,-3470,-1693,-562,-167,-246,-84,313,171,-245
2,8300544,-3470,-1692,-560,-169,-247,-86,316,166,-246
2,8300549,-3470,-1692,-560,-169,-247,-86,316,166,-246
2,8300556,-3470,-1692,-560,-169,-247,-86,316,166,-246
2,8300563,-3471,-1693,-559,-159,-244,-85,316,166,-246
2,8300571,-3471,-1693,-559,-159,-244,-85,316,166,-246
2,8300579,-3471,-1693,-559,-159,-244,-85,316,166,-246
2,8300585,-3469,-1693,-558,-160,-240,-85,316,166,-246
2,8300593,-3469,-1693,-558,-160,-240,-85,316,166,-246
2,8300598,-3469,-1693,-558,-160,-240,-85,316,166,-246
2,8300606,-3472,-1694,-561,-163,-245,-90,316,166,-246
2,8300614,-3472,-1694,-561,-163,-245,-90,316,166,-246
2,8300626,-3470,-1694,-559,-159,-251,-88,316,166,-246
2,8300640,-3470,-1694,-559,-159,-251,-88,316,166,-246
2,8300652,-3471,-1693,-566,-163,-245,-88,316,166,-246
2,8300665,-3466,-1692,-553,-165,-241,-83,314,170,-252
2,8300677,-3466,-1692,-553,-165,-241,-83,314,170,-252
2,8300689,-3470,-1692,-562,-160,-252,-80,314,170,-252
2,8300702,-3469,-1694,-554,-154,-246,-80,314,170,-252
2,8300709,-3469,-1694,-554,-154,-246,-80,314,170,-252
2,8300719,-3469,-1694,-554,-154,-246,-80,314,170,-252
2,8300726,-3469,-1696,-563,-160,-246,-82,314,170,-252
2,8300736,-3469,-1696,-563,-160,-246,-82,314,170,-252
2,8300748,-3469,-1693,-559,-160,-242,-80,314,170,-252
2,8300762,-3471,-1692,-563,-162,-244,-79,314,170,-252
2,8300773,-3471,-1692,-563,-162,-244,-79,314,170,-252
2,8300784,-3470,-1695,-560,-168,-240,-87,313,165,-247
2,8300797,-3470,-1695,-560,-168,-240,-87,313,165,-247
2,8300810,-3469,-1693,-558,-167,-238,-89,313,165,-247
2,8300819,-3469,-1693,-558,-167,-238,-89,313,165,-247
2,8300830,-3471,-1691,-557,-162,-239,-85,313,165,-247
2,8300843,-3470,-1692,-564,-160,-247,-86,313,165,-247
2,8300856,-3470,-1692,-564,-160,-247,-86,313,165,-247
2,8300866,-3470,-1694,-561,-167,-256,-83,313,165,-247
2,8300880,-3470,-1694,-561,-167,-256,-83,313,165,-247
2,8300893,-3471,-1696,-565,-165,-244,-83,313,165,-247
2,8300905,-3471,-1693,-556,-160,-246,-90,313,165,-247
2,8300918,-3471,-1693,-556,-160,-246,-90,313,165,-247
2,8300932,-3468,-1695,-555,-160,-248,-81,315,167,-247
2,8300941,-3468,-1695,-555,-160,-248,-81,315,167,-247
2,8300949,-3471,-1692,-559,-155,-244,-84,315,167,-247
2,8300958,-3471,-1692,-559,-155,-244,-84,315,167,-247
2,8300967,-3470,-1692,-562,-163,-244,-87,315,167,-247
2,8300975,-3470,-1692,-562,-163,-244,-87,315,167,-247
2,8300983,-3470,-1695,-561,-160,-248,-82,315,167,-247
2,8300991,-3470,-1695,-561,-160,-248,-82,315,167,-247
2,8301000,-3470,-1695,-561,-160,-248,-82,315,167,-247
2,8301007,-3469,-1695,-561,-162,-243,-80,315,167,-247
2,8301016,-3469,-1695,-561,-162,-243,-80,315,167,-247
2,8301024,-3472,-1689,-564,-157,-237,-83,315,167,-247
2,8301033,-3472,-1689,-564,-157,-237,-83,315,167,-247
2,8301040,-3472,-1689,-564,-157,-237,-83,315,167,-247
2,8301048,-3472,-1692,-557,-161,-248,-81,317,169,-251
2,8301057,-3472,-1692,-557,-161,-248,-81,317,169,-251
2,8301066,-3469,-1691,-559,-167,-253,-79,317,169,-251
2,8301074,-3469,-1691,-559,-167,-253,-79,317,169,-251
2,8301084,-3472,-1693,-561,-168,-246,-83,317,169,-251
2,8301093,-3472,-1693,-561,-168,-246,-83,317,169,-251
2,8301102,-3471,-1692,-568,-156,-244,-82,317,169,-251
2,8301111,-3471,-1692,-568,-156,-244,-82,317,169,-251
2,8301119,-3471,-1692,-568,-156,-244,-82,317,169,-251
2,8301128,-3470,-1692,-559,-165,-243,-83,317,169,-251
2,8301140,-3470,-1692,-559,-165,-243,-83,317,169,-251
2,8301153,-3469,-1693,-559,-158,-243,-85,317,169,-251
2,8301166,-3469,-1691,-559,-160,-242,-89,309,169,-241
2,8301177,-3469,-1691,-559,-160,-242,-89,309,169,-241
2,8301190,-3467,-1692,-557,-162,-242,-84,309,169,-241
2,8301202,-3470,-1691,-561,-160,-248,-94,309,169,-241
2,8301215,-3470,-1691,-561,-160,-248,-94,309,169,-241
2,8301225,-3469,-1692,-565,-155,-245,-87,309,169,-241
2,8301239,-3469,-1692,-565,-155,-245,-87,309,169,-241
2,8301252,-3468,-1692,-560,-159,-246,-84,309,169,-241
2,8301264,-3470,-1694,-557,-157,-242,-82,309,169,-241
2,8301276,-3470,-1694,-557,-157,-242,-82,309,169,-241
2,8301286,-3470,-1693,-562,-161,-244,-90,317,167,-245
2,8301298,-3470,-1693,-562,-161,-244,-90,317,167,-245
2,8301312,-3469,-1692,-561,-165,-244,-94,317,167,-245
2,8301324,-3472,-1693,-561,-167,-240,-87,317,167,-245
2,8301336,-3472,-1693,-561,-167,-240,-87,317,167,-245
2,8301348,-3472,-1690,-559,-165,-244,-83,317,167,-245
2,8301362,-3471,-1690,-561,-161,-241,-81,317,167,-245
2,8301373,-3471,-1690,-561,-161,-241,-81,317,167,-245
2,8301386,-3469,-1693,-563,-162,-247,-85,317,167,-245
2,8301399,-3469,-1693,-563,-162,-247,-85,317,167,-245
2,8301413,-3471,-1692,-563,-164,-239,-88,319,167,-245
2,8301426,-3469,-1693,-562,-161,-239,-87,319,167,-245
2,8301437,-3469,-1693,-562,-161,-239,-87,319,167,-245
2,8301451,-3469,-1692,-561,-153,-232,-84,319,167,-245
2,8301464,-3468,-1695,-561,-162,-235,-82,319,167,-245
2,8301476,-3468,-1695,-561,-162,-235,-82,319,167,-245
2,8301488,-3468,-1692,-562,-159,-240,-81,319,167,-245
2,8301501,-3468,-1692,-562,-159,-240,-81,319,167,-245
2,8301514,-3469,-1692,-562,-156,-242,-79,319,167,-245
2,8301528,-3472,-1693,-566,-158,-240,-84,319,167,-245
2,8301538,-3472,-1693,-566,-158,-240,-84,319,167,-245
2,8301550,-3469,-1693,-558,-162,-244,-84,317,171,-241
2,8301560,-3469,-1693,-558,-162,-244,-84,317,171,-241
2,8301570,-3470,-1692,-560,-160,-244,-81,317,171,-241
2,8301578,-3470,-1692,-560,-160,-244,-81,317,171,-241
2,8301588,-3469,-1692,-563,-164,-251,-76,317,171,-241
2,8301596,-3469,-1692,-563,-164,-251,-76,317,171,-241
2,8301608,-3470,-1691,-565,-164,-247,-81,317,171,-241
2,8301621,-3470,-1691,-565,-164,-247,-81,317,171,-241
2,8301629,-3470,-1692,-568,-163,-246,-85,317,171,-241
2,8301635,-3470,-1692,-568,-163,-246,-85,317,171,-241
2,8301643,-3468,-1691,-564,-165,-243,-78,317,171,-241
2,8301649,-3468,-1691,-564,-165,-243,-78,317,171,-241
2,8301657,-3468,-1691,-564,-165,-243,-78,317,171,-241
2,8301665,-3471,-1691,-564,-156,-237,-76,309,167,-241
2,8301673,-3471,-1691,-564,-156,-237,-76,309,167,-241
2,8301679,-3471,-1691,-564,-156,-237,-76,309,167,-241
2,8301686,-3471,-1692,-559,-164,-243,-90,309,167,-241
2,8301694,-3471,-1692,-559,-164,-243,-90,309,167,-241
2,8301702,-3470,-1690,-559,-165,-248,-85,309,167,-241
2,8301707,-3470,-1690,-559,-165,-248,-85,309,167,-241
2,8301712,-3470,-1690,-559,-165,-248,-85,309,167,-241
2,8301717,-3470,-1690,-559,-165,-248,-85,309,167,-241
2,8301722,-3472,-1693,-561,-165,-242,-83,309,167,-241
2,8301727,-3472,-1693,-561,-165,-242,-83,309,167,-241
2,8301732,-3472,-1693,-561,-165,-242,-83,309,167,-241
2,8301740,-3472,-1693,-561,-165,-242,-83,309,167,-241
2,8301747,-3471,-1693,-562,-163,-243,-86,309,167,-241
2,8301754,-3471,-1693,-562,-163,-243,-86,309,167,-241
2,8301761,-3471,-1693,-562,-163,-243,-86,309,167,-241
2,8301768,-3471,-1697,-559,-168,-247,-87,309,167,-241
2,8301773,-3471,-1697,-559,-168,-247,-87,309,167,-241
2,8301780,-3471,-1697,-559,-168,-247,-87,309,167,-241
2,8301788,-3474,-1693,-561,-169,-243,-88,313,173,-245
2,8301795,-3474,-1693,-561,-169,-243,-88,313,173,-245
2,8301803,-3472,-1690,-558,-163,-246,-83,313,173,-245
2,8301811,-3472,-1690,-558,-163,-246,-83,313,173,-245
2,8301817,-3472,-1690,-558,-163,-246,-83,313,173,-245
2,8301824,-3470,-1688,-559,-168,-249,-80,313,173,-245
2,8301830,-3470,-1688,-559,-168,-249,-80,313,173,-245
2,8301837,-3470,-1688,-559,-168,-249,-80,313,173,-245
2,8301843,-3472,-1688,-559,-165,-246,-81,313,173,-245
2,8301851,-3472,-1688,-559,-165,-246,-81,313,173,-245
2,8301858,-3472,-1688,-559,-165,-246,-81,313,173,-245
2,8301865,-3472,-1691,-562,-159,-253,-82,313,173,-245
2,8301872,-3472,-1691,-562,-159,-253,-82,313,173,-245
2,8301880,-3472,-1691,-562,-159,-253,-82,313,173,-245
2,8301888,-3469,-1692,-560,-157,-250,-83,313,173,-245
2,8301895,-3469,-1692,-560,-157,-250,-83,313,173,-245
2,8301902,-3469,-1692,-560,-157,-250,-83,313,173,-245
2,8301910,-3471,-1691,-558,-167,-249,-82,316,170,-248
2,8301916,-3471,-1691,-558,-167,-249,-82,316,170,-248
2,8301922,-3471,-1691,-558,-167,-249,-82,316,170,-248
2,8301929,-3473,-1692,-559,-164,-242,-80,316,170,-248
2,8301937,-3473,-1692,-559,-164,-242,-80,316,170,-248
2,8301942,-3471,-1693,-565,-169,-238,-85,316,170,-248
2,8301947,-3471,-1693,-565,-169,-238,-85,316,170,-248
2,8301953,-3471,-1693,-565,-169,-238,-85,316,170,-248
2,8301958,-3471,-1693,-565,-169,-238,-85,316,170,-248
2,8301963,-3472,-1694,-563,-159,-246,-85,316,170,-248
2,8301968,-3472,-1694,-563,-159,-246,-85,316,170,-248
2,8301973,-3472,-1694,-563,-159,-246,-85,316,170,-248
2,8301979,-3472,-1694,-563,-159,-246,-85,316,170,-248
2,8301987,-3472,-1693,-559,-163,-245,-90,316,170,-248
2,8301993,-3472,-1693,-559,-163,-245,-90,316,170,-248
2,8302001,-3472,-1693,-559,-163,-245,-90,316,170,-248
2,8302008,-3470,-1695,-564,-160,-235,-87,316,170,-248
2,8302015,-3470,-1695,-564,-160,-235,-87,316,170,-248
2,8302022,-3470,-1695,-564,-160,-235,-87,316,170,-248
2,8302029,-3470,-1692,-564,-160,-241,-83,319,165,-245
2,8302034,-3470,-1692,-564,-160,-241,-83,319,165,-245
2,8302042,-3470,-1692,-564,-160,-241,-83,319,165,-245
2,8302049,-3471,-1694,-555,-160,-245,-82,319,165,-245
2,8302058,-3471,-1694,-555,-160,-245,-82,319,165,-245
2,8302065,-3471,-1691,-559,-159,-249,-86,319,165,-245
2,8302072,-3471,-1691,-559,-159,-249,-86,319,165,-245
2,8302081,-3471,-1691,-559,-159,-249,-86,319,165,-245
2,8302087,-3467,-1692,-561,-156,-236,-80,319,165,-245
2,8302095,-3467,-1692,-561,-156,-236,-80,319,165,-245
2,8302102,-3467,-1692,-561,-156,-236,-80,319,165,-245
2,8302108,-3472,-1692,-565,-158,-247,-83,319,165,-245
2,8302115,-3472,-1692,-565,-158,-247,-83,319,165,-245
2,8302124,-3467,-1694,-562,-160,-244,-91,319,165,-245
2,8302130,-3467,-1694,-562,-160,-244,-91,319,165,-245
2,8302137,-3467,-1694,-562,-160,-244,-91,319,165,-245
2,8302144,-3471,-1692,-560,-165,-237,-79,319,165,-245
2,8302152,-3471,-1692,-560,-165,-237,-79,319,165,-245
2,8302159,-3471,-1692,-560,-165,-237,-79,319,165,-245
2,8302166,-3473,-1692,-557,-162,-238,-87,320,166,-252
2,8302173,-3473,-1692,-557,-162,-238,-87,320,166,-252
2,8302180,-3473,-1692,-557,-162,-238,-87,320,166,-252
2,8302186,-3470,-1691,-562,-158,-240,-93,320,166,-252
2,8302193,-3470,-1691,-562,-158,-240,-93,320,166,-252
2,8302200,-3470,-1691,-562,-158,-240,-93,320,166,-252
2,8302208,-3471,-1694,-562,-162,-243,-87,320,166,-252
2,8302215,-3471,-1694,-562,-162,-243,-87,320,166,-252
2,8302222,-3471,-1694,-562,-162,-243,-87,320,166,-252
2,8302230,-3472,-1691,-564,-162,-245,-87,320,166,-252
2,8302238,-3472,-1691,-564,-162,-245,-87,320,166,-252
2,8302246,-3470,-1693,-561,-163,-243,-83,320,166,-252
2,8302255,-3470,-1693,-561,-163,-243,-83,320,166,-252
2,8302261,-3470,-1693,-561,-163,-243,-83,320,166,-252
2,8302268,-3471,-1693,-567,-165,-236,-85,320,166,-252
2,8302276,-3471,-1693,-567,-165,-236,-85,320,166,-252
2,8302282,-3472,-1691,-559,-157,-235,-83,313,166,-252
2,8302288,-3472,-1691,-559,-157,-235,-83,313,163,-243
2,8302297,-3472,-1691,-559,-157,-235,-83,313,163,-243
2,8302304,-3471,-1691,-563,-159,-239,-82,313,163,-243
2,8302310,-3471,-1691,-563,-159,-239,-82,313,163,-243
2,8302317,-3471,-1691,-563,-159,-239,-82,313,163,-243
2,8302325,-3470,-1696,-562,-167,-250,-87,313,163,-243
2,8302332,-3470,-1696,-562,-167,-250,-87,313,163,-243
2,8302340,-3470,-1696,-562,-167,-250,-87,313,163,-243
2,8302347,-3473,-1693,-562,-164,-249,-76,313,163,-243
2,8302353,-3473,-1693,-562,-164,-249,-76,313,163,-243
2,8302360,-3473,-1693,-562,-164,-249,-76,313,163,-243
2,8302367,-3469,-1691,-562,-165,-245,-86,313,163,-243
2,8302374,-3469,-1691,-562,-165,-245,-86,313,163,-243
2,8302383,-3469,-1691,-562,-165,-245,-86,313,163,-243
2,8302388,-3471,-1694,-564,-159,-244,-83,313,163,-243
2,8302394,-3471,-1694,-564,-159,-244,-83,313,163,-243
2,8302400,-3471,-1694,-564,-159,-244,-83,313,163,-243
2,8302407,-3471,-1694,-557,-164,-240,-83,310,170,-248
2,8302412,-3471,-1694,-557,-164,-240,-83,310,170,-248
2,8302420,-3471,-1694,-557,-164,-240,-83,310,170,-248
2,8302428,-3472,-1691,-560,-160,-248,-78,310,170,-248
2,8302435,-3472,-1691,-560,-160,-248,-78,310,170,-248
2,8302441,-3472,-1691,-560,-160,-248,-78,310,170,-248
2,8302448,-3471,-1697,-557,-164,-251,-77,310,170,-248
2,8302456,-3471,-1697,-557,-164,-251,-77,310,170,-248
2,8302466,-3469,-1692,-567,-163,-243,-82,310,170,-248
2,8302473,-3469,-1692,-567,-163,-243,-82,310,170,-248
2,8302478,-3469,-1692,-567,-163,-243,-82,310,170,-248
2,8302485,-3472,-1693,-556,-165,-246,-88,310,170,-248
2,8302490,-3472,-1693,-556,-165,-246,-88,310,170,-248
2,8302495,-3472,-1693,-556,-165,-246,-88,310,170,-248
2,8302500,-3472,-1693,-556,-165,-246,-88,310,170,-248
2,8302508,-3468,-1694,-564,-161,-238,-83,310,170,-248
2,8302516,-3468,-1694,-564,-161,-238,-83,310,170,-248
2,8302524,-3471,-1691,-558,-155,-235,-84,322,164,-248
2,8302532,-3471,-1691,-558,-155,-235,-84,322,164,-248
2,8302540,-3471,-1691,-558,-155,-235,-84,322,164,-248
2,8302547,-3469,-1689,-558,-157,-243,-87,322,164,-248
2,8302555,-3469,-1689,-558,-157,-243,-87,322,164,-248
2,8302562,-3469,-1689,-558,-157,-243,-87,322,164,-248
2,8302569,-3470,-1694,-562,-162,-244,-93,322,164,-248
2,8302575,-3470,-1694,-562,-162,-244,-93,322,164,-248
2,8302583,-3471,-1693,-562,-156,-246,-89,322,164,-248
2,8302590,-3471,-1693,-562,-156,-246,-89,322,164,-248
2,8302599,-3471,-1693,-562,-156,-246,-89,322,164,-248
2,8302607,-3474,-1690,-562,-161,-248,-89,322,164,-248
2,8302614,-3474,-1690,-562,-161,-248,-89,322,164,-248
2,8302621,-3474,-1690,-562,-161,-248,-89,322,164,-248
2,8302628,-3474,-1690,-562,-161,-248,-89,322,164,-248
2,8302642,-3474,-1690,-562,-161,-248,-89,322,164,-248
2,8302655,-3471,-1692,-559,-163,-240,-82,315,169,-241
2,8302668,-3472,-1690,-558,-159,-234,-85,315,169,-241
2,8302678,-3472,-1690,-558,-159,-234,-85,315,169,-241
2,8302689,-3469,-1690,-560,-157,-241,-84,315,169,-241
2,8302701,-3469,-1690,-560,-157,-241,-84,315,169,-241
2,8302710,-3473,-1695,-563,-159,-242,-79,315,169,-241
2,8302717,-3473,-1695,-563,-159,-242,-79,315,169,-241
2,8302726,-3472,-1696,-562,-160,-248,-75,315,169,-241
2,8302733,-3472,-1696,-562,-160,-248,-75,315,169,-241
2,8302742,-3472,-1696,-562,-160,-248,-75,315,169,-241
2,8302756,-3473,-1694,-562,-163,-245,-77,315,169,-241
2,8302768,-3470,-1692,-561,-158,-236,-81,315,169,-241
2,8302778,-3470,-1692,-561,-158,-236,-81,315,169,-241
2,8302790,-3471,-1691,-558,-163,-241,-83,318,168,-244
2,8302804,-3466,-1690,-563,-162,-242,-84,318,168,-244
2,8302818,-3466,-1690,-563,-162,-242,-84,318,168,-244
2,8302828,-3468,-1691,-561,-155,-246,-88,318,168,-244
2,8302841,-3468,-1691,-561,-155,-246,-88,318,168,-244
2,8302854,-3469,-1692,-562,-162,-242,-89,318,168,-244
2,8302867,-3470,-1691,-558,-161,-234,-90,318,168,-244
2,8302878,-3470,-1691,-558,-161,-234,-90,318,168,-244
2,8302892,-3470,-1691,-558,-161,-234,-90,318,168,-244
2,8302904,-3469,-1693,-560,-161,-247,-83,313,169,-249
2,8302916,-3469,-1693,-560,-161,-247,-83,313,169,-249
2,8302927,-3473,-1690,-561,-162,-243,-84,313,169,-249
2,8302940,-3473,-1690,-561,-162,-243,-84,313,169,-249
2,8302948,-3471,-1692,-558,-159,-242,-88,313,169,-249
2,8302956,-3471,-1692,-558,-159,-242,-88,313,169,-249
2,8302964,-3473,-1691,-563,-155,-246,-82,313,169,-249
2,8302972,-3473,-1691,-563,-155,-246,-82,313,169,-249
2,8302981,-3473,-1691,-563,-155,-246,-82,313,169,-249
2,8302989,-3473,-1693,-561,-166,-237,-90,313,169,-249
2,8302997,-3473,-1693,-561,-166,-237,-90,313,169,-249
2,8303005,-3469,-1693,-557,-167,-246,-85,313,169,-249
2,8303013,-3469,-1693,-557,-167,-246,-85,313,169,-249
2,8303022,-3469,-1693,-557,-167,-246,-85,313,169,-249
2,8303030,-3470,-1693,-557,-163,-244,-83,316,164,-244
2,8303038,-3470,-1693,-557,-163,-244,-83,316,164,-244
2,8303046,-3472,-1694,-561,-160,-240,-86,316,164,-244
2,8303057,-3472,-1694,-561,-160,-240,-86,316,164,-244
2,8303066,-3467,-1695,-557,-164,-248,-84,316,164,-244
2,8303073,-3467,-1695,-557,-164,-248,-84,316,164,-244
2,8303081,-3467,-1695,-557,-164,-248,-84,316,164,-244
2,8303094,-3472,-1694,-560,-165,-249,-86,316,164,-244
2,8303107,-3470,-1692,-561,-159,-244,-88,316,164,-244
2,8303119,-3470,-1692,-561,-159,-244,-88,316,164,-244
2,8303130,-3469,-1692,-565,-156,-248,-82,316,164,-244
2,8303143,-3471,-1692,-560,-164,-242,-79,319,169,-245
2,8303156,-3471,-1692,-560,-164,-242,-79,319,169,-245
2,8303165,-3469,-1695,-557,-164,-248,-81,319,169,-245
2,8303177,-3469,-1695,-557,-164,-248,-81,319,169,-245
2,8303190,-3470,-1693,-562,-160,-250,-86,319,169,-245
2,8303203,-3470,-1693,-562,-160,-250,-86,319,169,-245
2,8303213,-3469,-1690,-562,-159,-254,-86,319,169,-245
2,8303224,-3472,-1693,-560,-164,-242,-84,319,169,-245
2,8303238,-3472,-1693,-560,-164,-242,-84,319,169,-245
2,8303251,-3470,-1692,-564,-165,-239,-82,319,169,-245
2,8303263,-3470,-1691,-560,-167,-245,-84,319,169,-245
2,8303277,-3470,-1691,-560,-167,-245,-84,308,168,-252
2,8303291,-3472,-1693,-562,-169,-247,-79,308,168,-252
2,8303303,-3472,-1691,-559,-163,-237,-78,308,168,-252
2,8303314,-3472,-1691,-559,-163,-237,-78,308,168,-252
2,8303328,-3469,-1691,-563,-163,-247,-85,308,168,-252
2,8303340,-3469,-1691,-563,-163,-247,-85,308,168,-252
2,8303353,-3471,-1691,-561,-163,-237,-80,308,168,-252
2,8303365,-3472,-1694,-561,-162,-240,-82,308,168,-252
2,8303377,-3472,-1694,-561,-162,-240,-82,308,168,-252
2,8303389,-3470,-1693,-559,-167,-244,-87,308,168,-252
2,8303403,-3470,-1693,-559,-167,-244,-87,308,168,-252
2,8303413,-3471,-1696,-555,-163,-239,-87,315,165,-239
2,8303427,-3473,-1694,-558,-166,-240,-91,315,165,-239
2,8303438,-3473,-1694,-558,-166,-240,-91,315,165,-239
2,8303452,-3471,-1693,-563,-168,-252,-89,315,165,-239
2,8303466,-3469,-1695,-560,-169,-243,-85,315,165,-239
2,8303479,-3469,-1695,-560,-169,-243,-85,315,165,-239
2,8303492,-3470,-1692,-561,-169,-241,-85,315,165,-239
2,8303503,-3470,-1692,-561,-169,-241,-85,315,165,-239
2,8303516,-3470,-1692,-561,-161,-248,-83,315,165,-239
2,8303529,-3471,-1692,-558,-161,-237,-83,313,165,-237
2,8303542,-3471,-1692,-558,-161,-237,-83,313,165,-237
2,8303555,-3467,-1691,-563,-163,-238,-83,313,165,-237
2,8303566,-3470,-1692,-563,-164,-239,-92,313,165,-237
2,8303580,-3470,-1692,-563,-164,-239,-92,313,165,-237
2,8303594,-3467,-1692,-562,-165,-241,-90,313,165,-237
2,8303605,-3470,-1691,-565,-162,-243,-93,313,165,-237
2,8303619,-3470,-1691,-565,-162,-243,-93,313,165,-237
2,8303629,-3469,-1690,-557,-158,-237,-88,313,165,-237
2,8303637,-3469,-1690,-557,-158,-237,-88,313,165,-237
2,8303643,-3469,-1690,-557,-158,-237,-88,313,165,-237
2,8303648,-3473,-1692,-560,-164,-237,-85,316,164,-244
2,8303656,-3473,-1692,-560,-164,-237,-85,316,164,-244
2,8303664,-3473,-1692,-560,-164,-237,-85,316,164,-244
2,8303671,-3471,-1692,-560,-166,-243,-81,316,164,-244
2,8303678,-3471,-1692,-560,-166,-243,-81,316,164,-244
2,8303683,-3471,-1692,-560,-166,-243,-81,316,164,-244
2,8303690,-3471,-1694,-557,-166,-239,-85,316,164,-244
2,8303696,-3471,-1694,-557,-166,-239,-85,316,164,-244
2,8303704,-3471,-1694,-557,-166,-239,-85,316,164,-244
2,8303708,-3470,-1693,-560,-162,-245,-85,316,164,-244
2,8303714,-3470,-1693,-560,-162,-245,-85,316,164,-244
2,8303719,-3470,-1693,-560,-162,-245,-85,316,164,-244
2,8303724,-3471,-1693,-559,-163,-244,-86,316,164,-244
2,8303729,-3471,-1693,-559,-163,-244,-86,316,164,-244
2,8303737,-3471,-1693,-559,-163,-244,-86,316,164,-244
2,8303744,-3471,-1693,-559,-163,-244,-86,316,164,-244
2,8303751,-3471,-1690,-559,-160,-250,-86,316,164,-244
2,8303758,-3471,-1690,-559,-160,-250,-86,316,164,-244
2,8303764,-3470,-1693,-556,-171,-247,-89,320,164,-248
2,8303772,-3470,-1693,-556,-171,-247,-89,320,164,-248
2,8303780,-3470,-1693,-556,-171,-247,-89,320,164,-248
2,8303788,-3469,-1691,-557,-161,-246,-89,320,164,-248
2,8303794,-3469,-1691,-557,-161,-246,-89,320,164,-248
2,8303799,-3469,-1691,-557,-161,-246,-89,320,164,-248
2,8303807,-3472,-1694,-559,-159,-243,-91,320,164,-248
2,8303814,-3472,-1694,-559,-159,-243,-91,320,164,-248
2,8303821,-3472,-1694,-559,-159,-243,-91,320,164,-248
2,8303831,-3472,-1691,-566,-163,-240,-84,320,164,-248
2,8303837,-3472,-1691,-566,-163,-240,-84,320,164,-248
2,8303844,-3473,-1694,-561,-165,-246,-84,320,164,-248
2,8303850,-3473,-1694,-561,-165,-246,-84,320,164,-248
2,8303857,-3473,-1694,-561,-165,-246,-84,320,164,-248
2,8303863,-3469,-1693,-560,-159,-244,-85,320,164,-248
2,8303873,-3469,-1693,-560,-159,-244,-85,320,164,-248
2,8303882,-3469,-1693,-560,-159,-244,-85,320,164,-248
2,8303888,-3471,-1694,-556,-160,-246,-86,316,166,-236
2,8303895,-3471,-1694,-556,-160,-246,-86,316,166,-236
2,8303901,-3471,-1694,-556,-160,-246,-86,316,166,-236
2,8303908,-3470,-1692,-557,-161,-242,-84,316,166,-236
2,8303916,-3470,-1692,-557,-161,-242,-84,316,166,-236
2,8303923,-3470,-1692,-557,-161,-242,-84,316,166,-236
2,8303930,-3470,-1693,-559,-162,-245,-83,316,166,-236
2,8303936,-3470,-1693,-559,-162,-245,-83,316,166,-236
2,8303941,-3470,-1693,-559,-162,-245,-83,316,166,-236
2,8303946,-3474,-1692,-561,-164,-245,-82,316,166,-236
2,8303951,-3474,-1692,-561,-164,-245,-82,316,166,-236
2,8303956,-3474,-1692,-561,-164,-245,-82,316,166,-236
2,8303962,-3474,-1692,-561,-164,-245,-82,316,166,-236
2,8303967,-3467,-1691,-556,-160,-242,-77,316,166,-236
2,8303972,-3467,-1691,-556,-160,-242,-77,316,166,-236
2,8303979,-3467,-1691,-556,-160,-242,-77,316,166,-236
2,8303985,-3468,-1692,-558,-164,-249,-84,316,166,-236
2,8303992,-3468,-1692,-558,-164,-249,-84,316,166,-236
2,8304001,-3468,-1692,-558,-164,-249,-84,316,166,-236
2,8304008,-3470,-1692,-562,-159,-241,-81,316,170,-244
2,8304014,-3470,-1692,-562,-159,-241,-81,316,170,-244
2,8304021,-3470,-1692,-562,-159,-241,-81,316,170,-244
2,8304028,-3471,-1694,-558,-160,-240,-86,316,170,-244
2,8304035,-3471,-1694,-558,-160,-240,-86,316,170,-244
2,8304044,-3471,-1694,-558,-160,-240,-86,316,170,-244
2,8304051,-3472,-1689,-560,-167,-246,-88,316,170,-244
2,8304058,-3472,-1689,-560,-167,-246,-88,316,170,-244
2,8304065,-3470,-1692,-559,-160,-242,-88,316,170,-244
2,8304073,-3470,-1692,-559,-160,-242,-88,316,170,-244
2,8304081,-3470,-1692,-559,-160,-242,-88,316,170,-244
2,8304090,-3474,-1693,-565,-160,-244,-87,316,170,-244
2,8304097,-3474,-1693,-565,-160,-244,-87,316,170,-244
2,8304102,-3474,-1693,-565,-160,-244,-87,316,170,-244
2,8304109,-3473,-1691,-554,-164,-243,-85,316,170,-244
2,8304114,-3473,-1691,-554,-164,-243,-85,316,170,-244
2,8304119,-3473,-1691,-554,-164,-243,-85,316,170,-244
2,8304124,-3469,-1695,-560,-167,-239,-88,316,170,-244
2,8304132,-3469,-1695,-560,-167,-239,-88,316,170,-244
2,8304140,-3469,-1695,-560,-167,-239,-88,316,170,-244
2,8304146,-3473,-1692,-558,-159,-238,-84,319,171,-245
2,8304153,-3473,-1692,-558,-159,-238,-84,319,171,-245
2,8304160,-3473,-1692,-558,-159,-238,-84,319,171,-245
2,8304167,-3468,-1690,-559,-170,-242,-94,319,171,-245
2,8304175,-3468,-1690,-559,-170,-242,-94,319,171,-245
2,8304181,-3468,-1690,-559,-170,-242,-94,319,171,-245
2,8304186,-3471,-1695,-560,-164,-244,-92,319,171,-245
2,8304192,-3471,-1695,-560,-164,-244,-92,319,171,-245
2,8304199,-3471,-1695,-560,-164,-244,-92,319,171,-245
2,8304207,-3472,-1690,-562,-172,-246,-89,319,171,-245
2,8304215,-3472,-1690,-562,-172,-246,-89,319,171,-245
2,8304222,-3472,-1690,-562,-172,-246,-89,319,171,-245
2,8304229,-3470,-1693,-562,-163,-248,-85,319,171,-245
2,8304237,-3470,-1693,-562,-163,-248,-85,319,171,-245
2,8304243,-3470,-1693,-562,-163,-248,-85,319,171,-245
2,8304249,-3473,-1691,-556,-164,-240,-82,319,171,-245
2,8304258,-3473,-1691,-556,-164,-240,-82,319,171,-245
2,8304264,-3474,-1692,-554,-165,-239,-78,319,171,-245
2,8304269,-3474,-1692,-554,-165,-239,-78,315,167,-239
2,8304276,-3474,-1692,-554,-165,-239,-78,315,167,-239
2,8304283,-3474,-1692,-554,-165,-239,-78,315,167,-239
2,8304292,-3472,-1692,-558,-168,-252,-78,315,167,-239
2,8304300,-3472,-1692,-558,-168,-252,-78,315,167,-239
2,8304308,-3472,-1692,-558,-163,-250,-83,315,167,-239
2,8304316,-3472,-1692,-558,-163,-250,-83,315,167,-239
2,8304324,-3472,-1692,-558,-163,-250,-83,315,167,-239
2,8304331,-3473,-1696,-557,-165,-240,-84,315,167,-239
2,8304338,-3473,-1696,-557,-165,-240,-84,315,167,-239
2,8304347,-3473,-1692,-561,-167,-236,-82,315,167,-239
2,8304353,-3473,-1692,-561,-167,-236,-82,315,167,-239
2,8304362,-3473,-1692,-561,-167,-236,-82,315,167,-239
2,8304369,-3471,-1693,-560,-167,-247,-86,315,167,-239
2,8304376,-3471,-1693,-560,-167,-247,-86,315,167,-239
2,8304382,-3471,-1693,-560,-167,-247,-86,315,167,-239
2,8304389,-3470,-1693,-557,-169,-247,-76,322,174,-240
2,8304395,-3470,-1693,-557,-169,-247,-76,322,174,-240
2,8304401,-3470,-1693,-557,-169,-247,-76,322,174,-240
2,8304409,-3470,-1694,-558,-164,-242,-73,322,174,-240
2,8304416,-3470,-1694,-558,-164,-242,-73,322,174,-240
2,8304422,-3470,-1694,-558,-164,-242,-73,322,174,-240
2,8304431,-3470,-1694,-563,-163,-246,-79,322,174,-240
2,8304439,-3470,-1694,-563,-163,-246,-79,322,174,-240
2,8304445,-3469,-1691,-559,-158,-242,-81,322,174,-240
2,8304453,-3469,-1691,-559,-158,-242,-81,322,174,-240
2,8304459,-3469,-1691,-559,-158,-242,-81,322,174,-240
2,8304465,-3469,-1692,-559,-166,-244,-76,322,174,-240
2,8304473,-3469,-1692,-559,-166,-244,-76,322,174,-240
2,8304480,-3469,-1692,-559,-166,-244,-76,322,174,-240
2,8304488,-3472,-1693,-562,-158,-240,-85,322,174,-240
2,8304494,-3472,-1693,-562,-158,-240,-85,322,174,-240
2,8304501,-3472,-1693,-562,-158,-240,-85,322,174,-240
2,8304506,-3471,-1691,-561,-164,-251,-82,319,171,-241
2,8304515,-3471,-1691,-561,-164,-251,-82,319,171,-241
2,8304522,-3471,-1691,-561,-164,-251,-82,319,171,-241
2,8304529,-3474,-1694,-554,-171,-242,-85,319,171,-241
2,8304534,-3474,-1694,-554,-171,-242,-85,319,171,-241
2,8304539,-3474,-1694,-554,-171,-242,-85,319,171,-241
2,8304544,-3474,-1694,-554,-171,-242,-85,319,171,-241
2,8304551,-3471,-1691,-560,-165,-248,-83,319,171,-241
2,8304559,-3471,-1691,-560,-165,-248,-83,319,171,-241
2,8304567,-3471,-1692,-560,-157,-248,-83,319,171,-241
2,8304575,-3471,-1692,-560,-157,-248,-83,319,171,-241
2,8304581,-3471,-1692,-560,-157,-248,-83,319,171,-241
2,8304588,-3472,-1694,-563,-163,-244,-89,319,171,-241
2,8304595,-3472,-1694,-563,-163,-244,-89,319,171,-241
2,8304602,-3472,-1694,-563,-163,-244,-89,319,171,-241
2,8304608,-3470,-1693,-561,-169,-244,-77,319,171,-241
2,8304615,-3470,-1693,-561,-169,-244,-77,319,171,-241
2,8304622,-3470,-1693,-561,-169,-244,-77,319,171,-241
2,8304630,-3473,-1691,-563,-162,-245,-88,314,166,-238
2,8304635,-3473,-1691,-563,-162,-245,-88,314,166,-238
2,8304644,-3473,-1691,-563,-162,-245,-88,314,166,-238
2,8304656,-3473,-1691,-558,-164,-237,-91,314,166,-238
2,8304669,-3470,-1691,-558,-155,-249,-94,314,166,-238
2,8304683,-3470,-1691,-558,-155,-249,-94,314,166,-238
2,8304694,-3470,-1690,-558,-157,-249,-91,314,166,-238
2,8304704,-3470,-1690,-558,-157,-249,-91,314,166,-238
2,8304712,-3472,-1693,-559,-162,-246,-85,314,166,-238
2,8304720,-3472,-1693,-559,-162,-246,-85,314,166,-238
2,8304730,-3471,-1690,-560,-166,-239,-86,314,166,-238
2,8304739,-3471,-1690,-560,-166,-239,-86,314,166,-238
2,8304747,-3469,-1693,-564,-166,-246,-80,314,166,-238
2,8304756,-3469,-1693,-564,-166,-246,-80,314,166,-238
2,8304763,-3469,-1693,-564,-166,-246,-80,314,166,-238
2,8304772,-3471,-1692,-562,-161,-242,-78,309,165,-239
2,8304782,-3471,-1692,-562,-161,-242,-78,309,165,-239
2,8304790,-3470,-1693,-560,-163,-246,-77,309,165,-239
2,8304799,-3470,-1693,-560,-163,-246,-77,309,165,-239
2,8304811,-3472,-1694,-556,-158,-241,-78,309,165,-239
2,8304823,-3472,-1694,-556,-158,-241,-78,309,165,-239
2,8304835,-3471,-1691,-559,-162,-238,-80,309,165,-239
2,8304847,-3472,-1693,-563,-161,-239,-83,309,165,-239
2,8304860,-3472,-1693,-563,-161,-239,-83,309,165,-239
2,8304873,-3471,-1689,-562,-165,-248,-86,309,165,-239
2,8304887,-3470,-1692,-558,-162,-244,-80,312,170,-244
2,8304900,-3470,-1692,-558,-162,-244,-80,312,170,-244
2,8304913,-3470,-1691,-558,-165,-242,-80,312,170,-244
2,8304926,-3469,-1693,-562,-165,-239,-84,312,170,-244
2,8304939,-3469,-1693,-562,-165,-239,-84,312,170,-244
2,8304947,-3471,-1691,-560,-165,-242,-88,312,170,-244
2,8304955,-3471,-1691,-560,-165,-242,-88,312,170,-244
2,8304963,-3471,-1691,-560,-165,-242,-88,312,170,-244
2,8304971,-3468,-1693,-561,-161,-241,-75,312,170,-244
2,8304979,-3468,-1693,-561,-161,-241,-75,312,170,-244
2,8304988,-3471,-1691,-564,-166,-247,-77,312,170,-244
2,8304995,-3471,-1691,-564,-166,-247,-77,312,170,-244
2,8305003,-3471,-1691,-564,-166,-247,-77,312,170,-244
2,8305011,-3472,-1693,-559,-170,-248,-84,317,167,-247
2,8305019,-3472,-1693,-559,-170,-248,-84,317,167,-247
2,8305028,-3468,-1691,-556,-164,-247,-81,317,167,-247
2,8305036,-3468,-1691,-556,-164,-247,-81,317,167,-247
2,8305044,-3468,-1691,-556,-164,-247,-81,317,167,-247
2,8305051,-3469,-1692,-559,-160,-251,-84,317,167,-247
2,8305063,-3469,-1692,-559,-160,-251,-84,317,167,-247
2,8305073,-3467,-1691,-559,-153,-247,-95,317,167,-247
2,8305081,-3467,-1691,-559,-153,-247,-95,317,167,-247
2,8305089,-3469,-1691,-556,-159,-236,-84,317,167,-247
2,8305097,-3469,-1691,-556,-159,-236,-84,317,167,-247
2,8305107,-3469,-1691,-558,-173,-248,-82,317,167,-247
2,8305119,-3469,-1691,-558,-173,-248,-82,317,167,-247
2,8305133,-3470,-1691,-560,-164,-247,-86,315,177,-247
2,8305144,-3470,-1691,-560,-164,-247,-86,315,177,-247
2,8305157,-3471,-1692,-560,-165,-248,-82,315,177,-247
2,8305170,-3470,-1691,-560,-162,-241,-80,315,177,-247
2,8305183,-3470,-1691,-560,-162,-241,-80,315,177,-247
2,8305196,-3471,-1693,-565,-165,-253,-85,315,177,-247
2,8305207,-3473,-1693,-562,-164,-256,-83,315,177,-247
2,8305220,-3473,-1693,-562,-164,-256,-83,315,177,-247
2,8305232,-3473,-1693,-562,-164,-256,-83,315,177,-247
2,8305246,-3472,-1692,-559,-159,-243,-81,318,174,-242
2,8305257,-3472,-1692,-559,-159,-243,-81,318,174,-242
2,8305269,-3469,-1690,-556,-156,-236,-82,318,174,-242
2,8305280,-3469,-1690,-556,-156,-236,-82,318,174,-242
2,8305291,-3470,-1695,-559,-164,-241,-80,318,174,-242
2,8305305,-3471,-1691,-562,-166,-239,-78,318,174,-242
2,8305320,-3471,-1691,-562,-166,-239,-78,318,174,-242
2,8305332,-3471,-1692,-561,-172,-242,-85,318,174,-242
2,8305345,-3471,-1692,-561,-172,-242,-85,318,174,-242
2,8305359,-3470,-1691,-562,-165,-241,-87,318,174,-242
2,8305372,-3470,-1693,-558,-159,-244,-88,318,174,-242
2,8305384,-3470,-1693,-558,-159,-244,-88,318,174,-242
2,8305396,-3469,-1694,-557,-165,-246,-85,306,174,-248
2,8305410,-3473,-1692,-563,-163,-243,-86,306,174,-248
2,8305423,-3473,-1692,-563,-163,-243,-86,306,174,-248
2,8305436,-3470,-1692,-562,-166,-238,-81,306,174,-248
2,8305444,-3470,-1692,-562,-166,-238,-81,306,174,-248
2,8305456,-3471,-1693,-559,-166,-247,-88,306,174,-248
2,8305470,-3472,-1696,-555,-165,-252,-84,306,174,-248
2,8305484,-3472,-1696,-555,-165,-252,-84,306,174,-248
2,8305494,-3470,-1695,-560,-168,-244,-84,306,174,-248
2,8305506,-3472,-1694,-560,-168,-245,-78,319,167,-241
2,8305517,-3472,-1694,-560,-168,-245,-78,319,167,-241
2,8305529,-3473,-1687,-558,-168,-239,-85,319,167,-241
2,8305542,-3473,-1687,-558,-168,-239,-85,319,167,-241
2,8305554,-3471,-1691,-563,-170,-243,-79,319,167,-241
2,8305568,-3473,-1690,-560,-170,-249,-78,319,167,-241
2,8305581,-3473,-1690,-560,-170,-249,-78,319,167,-241
2,8305592,-3472,-1691,-560,-169,-239,-81,319,167,-241
2,8305603,-3472,-1691,-560,-169,-239,-81,319,167,-241
2,8305611,-3469,-1693,-559,-164,-241,-83,319,167,-241
2,8305620,-3469,-1693,-559,-164,-241,-83,319,167,-241
2,8305629,-3469,-1691,-556,-164,-236,-86,311,171,-243
2,8305642,-3469,-1691,-556,-164,-236,-86,311,171,-243
2,8305655,-3472,-1690,-559,-166,-250,-80,311,171,-243
2,8305662,-3472,-1690,-559,-166,-250,-80,311,171,-243
2,8305669,-3470,-1689,-560,-161,-248,-79,311,171,-243
2,8305675,-3470,-1689,-560,-161,-248,-79,311,171,-243
2,8305682,-3470,-1689,-560,-161,-248,-79,311,171,-243
2,8305688,-3470,-1692,-566,-156,-237,-84,311,171,-243
2,8305695,-3470,-1692,-566,-156,-237,-84,311,171,-243
2,8305702,-3470,-1692,-566,-156,-237,-84,311,171,-243
2,8305708,-3472,-1691,-561,-165,-248,-90,311,171,-243
2,8305713,-3472,-1691,-561,-165,-248,-90,311,171,-243
2,8305719,-3472,-1691,-561,-165,-248,-90,311,171,-243
2,8305724,-3472,-1691,-561,-165,-248,-90,311,171,-243
2,8305728,-3473,-1692,-558,-158,-238,-91,311,171,-243
2,8305734,-3473,-1692,-558,-158,-238,-91,311,171,-243
2,8305740,-3473,-1692,-558,-158,-238,-91,311,171,-243
2,8305747,-3470,-1692,-555,-166,-250,-82,311,173,-245
2,8305755,-3470,-1692,-555,-166,-250,-82,311,173,-245
2,8305762,-3470,-1692,-555,-166,-250,-82,311,173,-245
2,8305769,-3470,-1690,-557,-168,-246,-82,311,173,-245
2,8305775,-3470,-1690,-557,-168,-246,-82,311,173,-245
2,8305783,-3470,-1690,-557,-168,-246,-82,311,173,-245
2,8305792,-3470,-1694,-560,-163,-242,-88,311,173,-245
2,8305798,-3470,-1694,-560,-163,-242,-88,311,173,-245
2,8305806,-3469,-1690,-560,-158,-247,-85,311,173,-245
2,8305813,-3469,-1690,-560,-158,-247,-85,311,173,-245
2,8305819,-3469,-1690,-560,-158,-247,-85,311,173,-245
2,8305825,-3469,-1690,-560,-158,-247,-85,311,173,-245
2,8305833,-3469,-1691,-555,-166,-252,-82,311,173,-245
2,8305840,-3469,-1691,-555,-166,-252,-82,311,173,-245
2,8305846,-3469,-1691,-555,-166,-252,-82,311,173,-245
2,8305853,-3469,-1694,-566,-165,-249,-79,311,173,-245
2,8305860,-3469,-1694,-566,-165,-249,-79,311,173,-245
2,8305867,-3470,-1690,-562,-165,-246,-77,315,171,-243
2,8305874,-3470,-1690,-562,-165,-246,-77,315,171,-243
2,8305883,-3470,-1690,-562,-165,-246,-77,315,171,-243
2,8305890,-3469,-1691,-555,-168,-250,-78,315,171,-243
2,8305897,-3469,-1691,-555,-168,-250,-78,315,171,-243
2,8305904,-3469,-1691,-555,-168,-250,-78,315,171,-243
2,8305909,-3471,-1692,-557,-164,-249,-78,315,171,-243
2,8305916,-3471,-1692,-557,-164,-249,-78,315,171,-243
2,8305924,-3471,-1692,-557,-164,-249,-78,315,171,-243
2,8305932,-3470,-1689,-560,-158,-244,-82,315,171,-243
2,8305939,-3470,-1689,-560,-158,-244,-82,315,171,-243
2,8305944,-3470,-1689,-560,-158,-244,-82,315,171,-243
2,8305949,-3469,-1691,-560,-157,-246,-87,315,171,-243
2,8305954,-3469,-1691,-560,-157,-246,-87,315,171,-243
2,8305959,-3469,-1691,-560,-157,-246,-87,315,171,-243
2,8305965,-3469,-1691,-560,-157,-246,-87,315,171,-243
2,8305970,-3473,-1690,-565,-163,-250,-88,315,171,-243
2,8305975,-3473,-1690,-565,-163,-250,-88,315,171,-243
2,8305983,-3473,-1690,-565,-163,-250,-88,315,171,-243
2,8305989,-3471,-1693,-564,-165,-241,-86,315,171,-243
2,8305996,-3471,-1693,-564,-165,-241,-86,315,171,-243
2,8306003,-3471,-1693,-564,-165,-241,-86,315,171,-243
2,8306012,-3470,-1689,-556,-166,-239,-79,311,167,-245
2,8306018,-3470,-1689,-556,-166,-239,-79,311,167,-245
2,8306025,-3470,-1689,-556,-166,-239,-79,311,167,-245
2,8306032,-3472,-1691,-561,-163,-235,-88,311,167,-245
2,8306038,-3472,-1691,-561,-163,-235,-88,311,167,-245
2,8306044,-3472,-1691,-561,-163,-235,-88,311,167,-245
2,8306053,-3471,-1690,-558,-157,-243,-86,311,167,-245
2,8306060,-3471,-1690,-558,-157,-243,-86,311,167,-245
2,8306068,-3473,-1691,-558,-164,-241,-86,311,167,-245
2,8306075,-3473,-1691,-558,-164,-241,-86,311,167,-245
2,8306080,-3473,-1691,-558,-164,-241,-86,311,167,-245
2,8306085,-3473,-1691,-558,-164,-241,-86,311,167,-245
2,8306091,-3468,-1693,-558,-165,-251,-84,311,167,-245
2,8306098,-3468,-1693,-558,-165,-251,-84,311,167,-245
2,8306106,-3468,-1693,-558,-165,-251,-84,311,167,-245
2,8306111,-3470,-1693,-564,-162,-246,-84,311,167,-245
2,8306119,-3470,-1693,-564,-162,-246,-84,311,167,-245
2,8306124,-3470,-1693,-564,-162,-246,-84,311,167,-245
2,8306132,-3473,-1693,-558,-156,-245,-85,316,168,-252
2,8306139,-3473,-1693,-558,-156,-245,-85,316,168,-252
2,8306144,-3473,-1693,-558,-156,-245,-85,316,168,-252
2,8306152,-3473,-1691,-563,-164,-239,-80,316,168,-252
2,8306160,-3473,-1691,-563,-164,-239,-80,316,168,-252
2,8306168,-3471,-1691,-559,-164,-240,-84,316,168,-252
2,8306177,-3471,-1691,-559,-164,-240,-84,316,168,-252
2,8306184,-3471,-1691,-559,-164,-240,-84,316,168,-252
2,8306191,-3470,-1694,-561,-160,-244,-81,316,168,-252
2,8306198,-3470,-1694,-561,-160,-244,-81,316,168,-252
2,8306204,-3470,-1694,-561,-160,-244,-81,316,168,-252
2,8306211,-3472,-1690,-559,-164,-244,-84,316,168,-252
2,8306219,-3472,-1690,-559,-164,-244,-84,316,168,-252
2,8306227,-3471,-1692,-565,-169,-249,-86,316,168,-252
2,8306235,-3471,-1692,-565,-169,-249,-86,316,168,-252
2,8306243,-3471,-1692,-565,-169,-249,-86,316,168,-252
2,8306249,-3471,-1692,-558,-156,-239,-83,321,173,-243
2,8306256,-3471,-1692,-558,-156,-239,-83,321,173,-243
2,8306264,-3471,-1692,-558,-156,-239,-83,321,173,-243
2,8306270,-3471,-1694,-560,-160,-237,-83,321,173,-243
2,8306277,-3471,-1694,-560,-160,-237,-83,321,173,-243
2,8306285,-3471,-1694,-560,-160,-237,-83,321,173,-243
2,8306292,-3473,-1690,-564,-166,-241,-87,321,173,-243
2,8306297,-3473,-1690,-564,-166,-241,-87,321,173,-243
2,8306306,-3473,-1690,-564,-166,-241,-87,321,173,-243
2,8306314,-3473,-1693,-560,-168,-245,-83,321,173,-243
2,8306321,-3473,-1693,-560,-168,-245,-83,321,173,-243
2,8306328,-3471,-1691,-561,-158,-247,-81,321,173,-243
2,8306335,-3471,-1691,-561,-158,-247,-81,321,173,-243
2,8306343,-3471,-1691,-561,-158,-247,-81,321,173,-243
2,8306351,-3473,-1690,-556,-164,-248,-88,321,173,-243
2,8306358,-3473,-1690,-556,-164,-248,-88,321,173,-243
2,8306365,-3473,-1690,-556,-164,-248,-88,321,173,-243
2,8306371,-3471,-1692,-561,-160,-241,-90,317,169,-249
2,8306378,-3471,-1692,-561,-160,-241,-90,317,169,-249
2,8306386,-3473,-1692,-556,-157,-240,-86,317,169,-249
2,8306394,-3473,-1692,-556,-157,-240,-86,317,169,-249
2,8306401,-3473,-1692,-556,-157,-240,-86,317,169,-249
2,8306408,-3471,-1692,-562,-164,-236,-80,317,169,-249
2,8306415,-3471,-1692,-562,-164,-236,-80,317,169,-249
2,8306422,-3471,-1692,-562,-164,-236,-80,317,169,-249
2,8306428,-3469,-1691,-561,-170,-247,-85,317,169,-249
2,8306436,-3469,-1691,-561,-170,-247,-85,317,169,-249
2,8306444,-3469,-1691,-561,-170,-247,-85,317,169,-249
2,8306451,-3470,-1693,-562,-162,-238,-87,317,169,-249
2,8306458,-3470,-1693,-562,-162,-238,-87,317,169,-249
2,8306464,-3470,-1693,-562,-162,-238,-87,317,169,-249
2,8306472,-3472,-1691,-556,-166,-240,-85,317,169,-249
2,8306479,-3472,-1691,-556,-166,-240,-85,317,169,-249
2,8306487,-3471,-1691,-561,-165,-249,-84,318,172,-236
2,8306495,-3471,-1691,-561,-165,-249,-84,318,172,-236
2,8306503,-3471,-1691,-561,-165,-249,-84,318,172,-236
2,8306511,-3471,-1690,-562,-163,-240,-90,318,172,-236
2,8306518,-3471,-1690,-562,-163,-240,-90,318,172,-236
2,8306523,-3471,-1690,-562,-163,-240,-90,318,172,-236
2,8306529,-3470,-1693,-560,-169,-238,-85,318,172,-236
2,8306536,-3470,-1693,-560,-169,-238,-85,318,172,-236
2,8306542,-3470,-1693,-560,-169,-238,-85,318,172,-236
2,8306549,-3469,-1692,-564,-168,-237,-83,318,172,-236
2,8306556,-3469,-1692,-564,-168,-237,-83,318,172,-236
2,8306565,-3469,-1692,-564,-168,-237,-83,318,172,-236
2,8306571,-3475,-1690,-561,-163,-241,-88,318,172,-236
2,8306578,-3475,-1690,-561,-163,-241,-88,318,172,-236
2,8306587,-3469,-1691,-564,-167,-249,-92,318,172,-236
2,8306593,-3469,-1691,-564,-167,-249,-92,318,172,-236
2,8306601,-3469,-1691,-564,-167,-249,-92,318,172,-236
2,8306609,-3471,-1694,-565,-167,-249,-83,318,172,-236
2,8306616,-3471,-1694,-565,-167,-249,-83,318,172,-236
2,8306622,-3471,-1694,-565,-167,-249,-83,318,172,-236
2,8306630,-3470,-1691,-558,-162,-249,-86,320,172,-242
2,8306637,-3470,-1691,-558,-162,-249,-86,320,172,-242
2,8306646,-3470,-1691,-558,-162,-249,-86,320,172,-242
2,8306654,-3471,-1692,-560,-163,-244,-84,320,172,-242
2,8306665,-3471,-1692,-560,-163,-244,-84,320,172,-242
2,8306678,-3473,-1694,-561,-167,-240,-85,320,172,-242
2,8306693,-3474,-1695,-559,-165,-233,-82,320,172,-242
2,8306703,-3474,-1695,-559,-165,-233,-82,320,172,-242
2,8306710,-3470,-1692,-558,-166,-245,-79,320,172,-242
2,8306718,-3470,-1692,-558,-166,-245,-79,320,172,-242
2,8306726,-3470,-1692,-558,-166,-245,-79,320,172,-242
2,8306735,-3473,-1691,-563,-163,-246,-81,320,172,-242
2,8306748,-3471,-1691,-561,-161,-242,-78,311,175,-237
2,8306760,-3471,-1691,-561,-161,-242,-78,311,175,-237
2,8306774,-3468,-1694,-560,-162,-246,-84,311,175,-237
2,8306786,-3468,-1694,-560,-162,-246,-84,311,175,-237
2,8306799,-3470,-1692,-565,-158,-239,-88,311,175,-237
2,8306811,-3473,-1692,-559,-157,-237,-83,311,175,-237
2,8306825,-3473,-1692,-559,-157,-237,-83,311,175,-237
2,8306837,-3470,-1694,-561,-157,-248,-82,311,175,-237
2,8306849,-3473,-1694,-563,-161,-247,-84,311,175,-237
2,8306861,-3473,-1694,-563,-161,-247,-84,311,175,-237
2,8306871,-3472,-1690,-560,-159,-245,-84,305,169,-249
2,8306881,-3472,-1690,-560,-159,-245,-84,305,169,-249
2,8306894,-3476,-1692,-559,-157,-246,-83,305,169,-249
2,8306907,-3472,-1693,-562,-174,-250,-84,305,169,-249
2,8306917,-3472,-1693,-562,-174,-250,-84,305,169,-249
2,8306928,-3470,-1692,-560,-165,-239,-90,305,169,-249
2,8306941,-3470,-1692,-560,-165,-239,-90,305,169,-249
2,8306950,-3469,-1694,-566,-160,-243,-85,305,169,-249
2,8306957,-3469,-1694,-566,-160,-243,-85,305,169,-249
2,8306966,-3469,-1694,-566,-160,-243,-85,305,169,-249
2,8306974,-3472,-1695,-559,-162,-248,-85,305,169,-249
2,8306982,-3472,-1695,-559,-162,-248,-85,305,169,-249
2,8306991,-3472,-1689,-561,-163,-251,-85,318,164,-240
2,8306999,-3472,-1689,-561,-163,-251,-85,318,164,-240
2,8307006,-3472,-1689,-561,-163,-251,-85,318,164,-240
2,8307014,-3470,-1693,-562,-166,-245,-81,318,164,-240
2,8307022,-3470,-1693,-562,-166,-245,-81,318,164,-240
2,8307030,-3473,-1693,-561,-163,-241,-83,318,164,-240
2,8307038,-3473,-1693,-561,-163,-241,-83,318,164,-240
2,8307046,-3473,-1693,-561,-163,-241,-83,318,164,-240
2,8307058,-3473,-1689,-566,-164,-247,-89,318,164,-240
2,8307067,-3469,-1690,-562,-157,-236,-90,318,164,-240
2,8307078,-3469,-1690,-562,-157,-236,-90,318,164,-240
2,8307087,-3472,-1691,-561,-165,-241,-81,318,164,-240
2,8307095,-3472,-1691,-561,-165,-241,-81,318,164,-240
2,8307103,-3472,-1691,-561,-165,-241,-81,318,164,-240
2,8307113,-3473,-1690,-559,-164,-241,-83,321,167,-245
2,8307129,-3472,-1690,-556,-164,-239,-84,321,167,-245
2,8307139,-3472,-1690,-556,-164,-239,-84,321,167,-245
2,8307150,-3472,-1691,-557,-156,-247,-81,321,167,-245
2,8307164,-3472,-1691,-557,-156,-247,-81,321,167,-245
2,8307179,-3471,-1694,-563,-161,-249,-79,321,167,-245
2,8307189,-3471,-1691,-560,-165,-243,-81,321,167,-245
2,8307200,-3471,-1691,-560,-165,-243,-81,321,167,-245
2,8307213,-3467,-1690,-560,-166,-247,-85,321,167,-245
2,8307227,-3467,-1690,-560,-166,-247,-85,321,167,-245
2,8307236,-3470,-1693,-565,-161,-242,-75,315,169,-249
2,8307249,-3471,-1691,-560,-159,-241,-84,315,169,-249
2,8307262,-3471,-1691,-560,-159,-241,-84,315,169,-249
2,8307275,-3472,-1694,-557,-157,-246,-88,315,169,-249
2,8307286,-3472,-1694,-557,-157,-246,-88,315,169,-249
2,8307299,-3472,-1691,-561,-164,-248,-88,315,169,-249
2,8307311,-3471,-1692,-560,-158,-245,-81,315,169,-249
2,8307324,-3471,-1692,-560,-158,-245,-81,315,169,-249
2,8307335,-3468,-1693,-559,-156,-253,-86,315,169,-249
2,8307349,-3472,-1692,-558,-159,-251,-89,315,169,-249
2,8307361,-3472,-1692,-558,-159,-251,-89,315,169,-249
2,8307377,-3470,-1693,-557,-158,-244,-88,310,166,-244
2,8307390,-3473,-1689,-557,-155,-246,-86,310,166,-244
2,8307402,-3473,-1689,-557,-155,-246,-86,310,166,-244
2,8307414,-3467,-1693,-561,-163,-243,-81,310,166,-244
2,8307429,-3467,-1693,-561,-163,-243,-81,310,166,-244
2,8307442,-3467,-1693,-561,-163,-243,-81,310,166,-244
2,8307452,-3470,-1693,-562,-164,-246,-84,310,166,-244
2,8307466,-3470,-1693,-562,-164,-246,-84,310,166,-244
2,8307479,-3471,-1688,-565,-160,-246,-81,310,166,-244
2,8307491,-3474,-1692,-551,-160,-239,-79,313,171,-249
2,8307503,-3474,-1692,-551,-160,-239,-79,313,171,-249
2,8307514,-3471,-1694,-560,-158,-242,-83,313,171,-249
2,8307527,-3472,-1691,-559,-163,-240,-92,313,171,-249
2,8307539,-3472,-1691,-559,-163,-240,-92,313,171,-249
2,8307552,-3470,-1694,-562,-161,-243,-89,313,171,-249
2,8307565,-3470,-1694,-562,-161,-243,-89,313,171,-249
2,8307577,-3473,-1691,-556,-153,-245,-91,313,171,-249
2,8307591,-3470,-1694,-561,-159,-242,-86,313,171,-249
2,8307602,-3470,-1694,-561,-159,-242,-86,313,171,-249
2,8307617,-3469,-1693,-553,-156,-246,-86,314,166,-244
2,8307630,-3469,-1692,-557,-160,-246,-76,314,166,-244
2,8307642,-3469,-1692,-557,-160,-246,-76,314,166,-244
2,8307655,-3472,-1692,-563,-156,-246,-80,314,166,-244
2,8307668,-3472,-1693,-560,-163,-242,-86,314,166,-244
2,8307674,-3472,-1693,-560,-163,-242,-86,314,166,-244
2,8307680,-3472,-1693,-560,-163,-242,-86,314,166,-244
2,8307685,-3472,-1693,-560,-163,-242,-86,314,166,-244
2,8307693,-3473,-1694,-561,-162,-245,-85,314,166,-244
2,8307701,-3473,-1694,-561,-162,-245,-85,314,166,-244
2,8307706,-3473,-1694,-561,-162,-245,-85,314,166,-244
2,8307712,-3475,-1692,-565,-160,-239,-79,314,166,-244
2,8307717,-3475,-1692,-565,-160,-239,-79,314,166,-244
2,8307722,-3475,-1692,-565,-160,-239,-79,314,166,-244
2,8307727,-3475,-1692,-565,-160,-239,-79,314,166,-244
2,8307734,-3471,-1691,-558,-166,-238,-71,322,168,-246
2,8307741,-3471,-1691,-558,-166,-238,-71,322,168,-246
2,8307748,-3474,-1693,-555,-157,-242,-79,322,168,-246
2,8307753,-3474,-1693,-555,-157,-242,-79,322,168,-246
2,8307762,-3474,-1693,-555,-157,-242,-79,322,168,-246
2,8307769,-3468,-1691,-560,-160,-245,-81,322,168,-246
2,8307777,-3468,-1691,-560,-160,-245,-81,322,168,-246
2,8307783,-3468,-1691,-560,-160,-245,-81,322,168,-246
2,8307790,-3472,-1691,-560,-164,-248,-83,322,168,-246
2,8307796,-3472,-1691,-560,-164,-248,-83,322,168,-246
2,8307803,-3472,-1691,-560,-164,-248,-83,322,168,-246
2,8307810,-3473,-1694,-561,-158,-244,-85,322,168,-246
2,8307818,-3473,-1694,-561,-158,-244,-85,322,168,-246
2,8307827,-3473,-1694,-561,-158,-244,-85,322,168,-246
2,8307835,-3469,-1692,-558,-161,-242,-82,322,168,-246
2,8307843,-3469,-1692,-558,-161,-242,-82,322,168,-246
2,8307849,-3469,-1695,-561,-154,-243,-85,320,168,-244
2,8307856,-3469,-1695,-561,-154,-243,-85,320,168,-244
2,8307863,-3469,-1695,-561,-154,-243,-85,320,168,-244
2,8307869,-3469,-1691,-553,-162,-245,-81,320,168,-244
2,8307877,-3469,-1691,-553,-162,-245,-81,320,168,-244
2,8307884,-3469,-1691,-553,-162,-245,-81,320,168,-244
2,8307889,-3473,-1689,-563,-157,-236,-78,320,168,-244
2,8307897,-3473,-1689,-563,-157,-236,-78,320,168,-244
2,8307905,-3473,-1689,-563,-157,-236,-78,320,168,-244
2,8307911,-3468,-1693,-562,-159,-242,-75,320,168,-244
2,8307917,-3468,-1693,-562,-159,-242,-75,320,168,-244
2,8307923,-3468,-1693,-562,-159,-242,-75,320,168,-244
2,8307930,-3472,-1692,-564,-156,-240,-84,320,168,-244
2,8307937,-3472,-1692,-564,-156,-240,-84,320,168,-244
2,8307942,-3472,-1692,-564,-156,-240,-84,320,168,-244
2,8307947,-3472,-1692,-564,-156,-240,-84,320,168,-244
2,8307952,-3470,-1694,-563,-155,-236,-79,320,168,-244
2,8307958,-3470,-1694,-563,-155,-236,-79,320,168,-244
2,8307963,-3470,-1694,-563,-155,-236,-79,320,168,-244
2,8307969,-3469,-1692,-558,-160,-245,-89,320,168,-244
2,8307974,-3469,-1692,-558,-160,-245,-89,320,168,-244
2,8307979,-3469,-1692,-558,-160,-245,-89,320,168,-244
2,8307987,-3469,-1692,-558,-160,-245,-89,320,168,-244
2,8307994,-3470,-1689,-559,-166,-248,-93,309,169,-249
2,8308002,-3470,-1689,-559,-166,-248,-93,309,169,-249
2,8308009,-3469,-1692,-557,-164,-257,-89,309,169,-249
2,8308016,-3469,-1692,-557,-164,-257,-89,309,169,-249
2,8308022,-3469,-1692,-557,-164,-257,-89,309,169,-249
2,8308029,-3471,-1690,-558,-168,-249,-83,309,169,-249
2,8308036,-3471,-1690,-558,-168,-249,-83,309,169,-249
2,8308044,-3471,-1690,-558,-168,-249,-83,309,169,-249
2,8308052,-3473,-1690,-562,-162,-250,-82,309,169,-249
2,8308060,-3473,-1690,-562,-162,-250,-82,309,169,-249
2,8308067,-3473,-1690,-562,-162,-250,-82,309,169,-249
2,8308074,-3471,-1694,-568,-168,-246,-86,309,169,-249
2,8308080,-3471,-1694,-568,-168,-246,-86,309,169,-249
2,8308087,-3471,-1694,-568,-168,-246,-86,309,169,-249
2,8308096,-3471,-1691,-564,-167,-243,-83,309,169,-249
2,8308104,-3471,-1691,-564,-167,-243,-83,309,169,-249
2,8308111,-3472,-1692,-556,-160,-239,-77,323,169,-245
2,8308118,-3472,-1692,-556,-160,-239,-77,323,169,-245
2,8308123,-3472,-1692,-556,-160,-239,-77,323,169,-245
2,8308128,-3473,-1693,-557,-169,-245,-82,323,169,-245
2,8308133,-3473,-1693,-557,-169,-245,-82,323,169,-245
2,8308139,-3473,-1693,-557,-169,-245,-82,323,169,-245
2,8308146,-3473,-1693,-557,-169,-245,-82,323,169,-245
2,8308152,-3472,-1692,-556,-168,-245,-86,323,169,-245
2,8308158,-3472,-1692,-556,-168,-245,-86,323,169,-245
2,8308165,-3472,-1692,-556,-168,-245,-86,323,169,-245
2,8308173,-3472,-1691,-559,-164,-251,-84,323,169,-245
2,8308179,-3472,-1691,-559,-164,-251,-84,323,169,-245
2,8308187,-3472,-1691,-559,-164,-251,-84,323,169,-245
2,8308194,-3471,-1692,-559,-163,-241,-83,323,169,-245
2,8308200,-3471,-1692,-559,-163,-241,-83,323,169,-245
2,8308205,-3471,-1692,-559,-163,-241,-83,323,169,-245
2,8308213,-3469,-1691,-563,-167,-245,-82,323,169,-245
2,8308220,-3469,-1691,-563,-167,-245,-82,323,169,-245
2,8308228,-3466,-1692,-558,-164,-246,-86,323,169,-245
2,8308235,-3466,-1692,-558,-164,-246,-86,313,173,-247
2,8308242,-3466,-1692,-558,-164,-246,-86,313,173,-247
2,8308248,-3470,-1690,-561,-164,-246,-82,313,173,-247
2,8308255,-3470,-1690,-561,-164,-246,-82,313,173,-247
2,8308262,-3470,-1690,-561,-164,-246,-82,313,173,-247
2,8308271,-3471,-1692,-557,-163,-243,-77,313,173,-247
2,8308278,-3471,-1692,-557,-163,-243,-77,313,173,-247
2,8308285,-3471,-1692,-557,-163,-243,-77,313,173,-247
2,8308292,-3472,-1692,-555,-161,-247,-78,313,173,-247
2,8308299,-3472,-1692,-555,-161,-247,-78,313,173,-247
2,8308305,-3472,-1692,-555,-161,-247,-78,313,173,-247
2,8308313,-3469,-1691,-561,-163,-242,-81,313,173,-247
2,8308321,-3469,-1691,-561,-163,-242,-81,313,173,-247
2,8308328,-3470,-1690,-564,-163,-247,-90,313,173,-247
2,8308334,-3470,-1690,-564,-163,-247,-90,313,173,-247
2,8308341,-3470,-1690,-564,-163,-247,-90,313,173,-247
2,8308348,-3473,-1689,-556,-159,-242,-86,322,170,-248
2,8308355,-3473,-1689,-556,-159,-242,-86,322,170,-248
2,8308363,-3473,-1689,-556,-159,-242,-86,322,170,-248
2,8308370,-3470,-1693,-562,-163,-243,-84,322,170,-248
2,8308378,-3470,-1693,-562,-163,-243,-84,322,170,-248
2,8308384,-3470,-1693,-562,-163,-243,-84,322,170,-248
2,8308391,-3469,-1691,-561,-159,-243,-86,322,170,-248
2,8308399,-3469,-1691,-561,-159,-243,-86,322,170,-248
2,8308406,-3469,-1691,-561,-159,-243,-86,322,170,-248
2,8308414,-3473,-1691,-563,-165,-241,-82,322,170,-248
2,8308422,-3473,-1691,-563,-165,-241,-82,322,170,-248
2,8308429,-3472,-1694,-564,-162,-246,-75,322,170,-248
2,8308435,-3472,-1694,-564,-162,-246,-75,322,170,-248
2,8308442,-3472,-1694,-564,-162,-246,-75,322,170,-248
2,8308450,-3471,-1691,-561,-159,-244,-82,322,170,-248
2,8308456,-3471,-1691,-561,-159,-244,-82,322,170,-248
2,8308464,-3471,-1691,-561,-159,-244,-82,322,170,-248
2,8308471,-3471,-1694,-561,-166,-240,-87,316,172,-250
2,8308478,-3471,-1694,-561,-166,-240,-87,316,172,-250
2,8308486,-3471,-1694,-561,-166,-240,-87,316,172,-250
2,8308492,-3472,-1694,-558,-169,-242,-92,316,172,-250
2,8308500,-3472,-1694,-558,-169,-242,-92,316,172,-250
2,8308506,-3472,-1694,-558,-169,-242,-92,316,172,-250
2,8308514,-3469,-1691,-556,-166,-249,-79,316,172,-250
2,8308523,-3469,-1691,-556,-166,-249,-79,316,172,-250
2,8308529,-3469,-1691,-561,-163,-250,-87,316,172,-250
2,8308535,-3469,-1691,-561,-163,-250,-87,316,172,-250
2,8308543,-3469,-1691,-561,-163,-250,-87,316,172,-250
2,8308549,-3467,-1690,-558,-168,-248,-84,316,172,-250
2,8308555,-3467,-1690,-558,-168,-248,-84,316,172,-250
2,8308561,-3467,-1690,-558,-168,-248,-84,316,172,-250
2,8308567,-3467,-1690,-558,-168,-248,-84,316,172,-250
2,8308572,-3468,-1694,-561,-159,-244,-91,316,172,-250
2,8308579,-3468,-1694,-561,-159,-244,-91,316,172,-250
2,8308586,-3468,-1694,-561,-159,-244,-91,316,172,-250
2,8308592,-3468,-1691,-563,-163,-236,-83,316,172,-250
2,8308599,-3468,-1691,-563,-163,-236,-83,316,172,-250
2,8308606,-3468,-1691,-563,-163,-236,-83,316,172,-250
2,8308614,-3472,-1696,-554,-164,-246,-85,310,166,-244
2,8308621,-3472,-1696,-554,-164,-246,-85,310,166,-244
2,8308627,-3472,-1696,-554,-164,-246,-85,310,166,-244
2,8308635,-3471,-1692,-562,-160,-247,-91,310,166,-244
2,8308641,-3471,-1692,-562,-160,-247,-91,310,166,-244
2,8308649,-3469,-1691,-557,-171,-246,-87,310,166,-244
2,8308656,-3469,-1691,-557,-171,-246,-87,310,166,-244
2,8308663,-3469,-1691,-557,-171,-246,-87,310,166,-244
2,8308669,-3472,-1693,-564,-164,-243,-79,310,166,-244
2,8308675,-3472,-1693,-564,-164,-243,-79,310,166,-244
2,8308688,-3472,-1693,-564,-164,-243,-79,310,166,-244
2,8308701,-3470,-1691,-561,-164,-249,-94,310,166,-244
2,8308710,-3470,-1690,-562,-160,-246,-89,310,166,-244
2,8308717,-3470,-1690,-562,-160,-246,-89,310,166,-244
2,8308725,-3470,-1690,-562,-160,-246,-89,310,166,-244
2,8308732,-3471,-1693,-555,-167,-247,-82,315,171,-249
2,8308742,-3471,-1693,-555,-167,-247,-82,315,171,-249
2,8308756,-3469,-1693,-565,-167,-252,-82,315,171,-249
2,8308769,-3469,-1695,-559,-165,-256,-80,315,171,-249
2,8308777,-3469,-1695,-559,-165,-256,-80,315,171,-249
2,8308790,-3467,-1692,-562,-162,-244,-87,315,171,-249
2,8308803,-3467,-1692,-562,-162,-244,-87,315,171,-249
2,8308817,-3469,-1691,-565,-161,-247,-86,315,171,-249
2,8308827,-3469,-1691,-565,-161,-247,-86,315,171,-249
2,8308840,-3473,-1689,-565,-158,-244,-80,315,171,-249
2,8308853,-3468,-1690,-560,-160,-252,-84,319,167,-245
2,8308867,-3468,-1690,-560,-160,-252,-84,319,167,-245
2,8308877,-3468,-1694,-558,-158,-252,-88,319,167,-245
2,8308890,-3468,-1692,-562,-161,-246,-88,319,167,-245
2,8308902,-3468,-1692,-562,-161,-246,-88,319,167,-245
2,8308916,-3470,-1692,-556,-166,-238,-83,319,167,-245
2,8308927,-3470,-1692,-556,-166,-238,-83,319,167,-245
2,8308939,-3471,-1693,-562,-164,-235,-76,319,167,-245
2,8308947,-3471,-1693,-562,-164,-235,-76,319,167,-245
2,8308956,-3473,-1693,-560,-160,-240,-78,319,167,-245
2,8308964,-3473,-1693,-560,-160,-240,-78,319,167,-245
2,8308972,-3470,-1690,-567,-162,-244,-85,315,167,-245
2,8308980,-3470,-1690,-567,-162,-244,-85,315,167,-245
2,8308987,-3470,-1690,-567,-162,-244,-85,315,167,-245
2,8308996,-3471,-1694,-555,-170,-251,-77,315,167,-245
2,8309004,-3471,-1694,-555,-170,-251,-77,315,167,-245
2,8309013,-3472,-1690,-564,-163,-246,-77,315,167,-245
2,8309020,-3472,-1690,-564,-163,-246,-77,315,167,-245
2,8309028,-3471,-1690,-558,-162,-246,-78,315,167,-245
2,8309037,-3471,-1690,-558,-162,-246,-78,315,167,-245
2,8309046,-3471,-1690,-558,-162,-246,-78,315,167,-245
2,8309055,-3470,-1692,-563,-164,-240,-76,315,167,-245
2,8309065,-3470,-1692,-563,-164,-240,-76,315,167,-245
2,8309074,-3469,-1690,-566,-164,-236,-86,315,167,-245
2,8309083,-3469,-1690,-566,-164,-236,-86,315,167,-245
2,8309092,-3472,-1693,-562,-166,-241,-88,315,169,-247
2,8309101,-3472,-1693,-562,-166,-241,-88,315,169,-247
2,8309114,-3471,-1692,-559,-167,-241,-88,315,169,-247
2,8309127,-3471,-1692,-559,-167,-241,-88,315,169,-247
2,8309140,-3470,-1694,-564,-157,-237,-85,315,169,-247
2,8309152,-3470,-1694,-564,-157,-237,-85,315,169,-247
2,8309160,-3470,-1694,-564,-157,-237,-85,315,169,-247
2,8309170,-3471,-1692,-561,-161,-234,-87,315,169,-247
2,8309178,-3471,-1692,-561,-161,-234,-87,315,169,-247
2,8309186,-3471,-1692,-561,-161,-234,-87,315,169,-247
2,8309198,-3470,-1692,-564,-161,-240,-87,315,169,-247
2,8309211,-3471,-1693,-561,-169,-237,-81,315,169,-247
2,8309222,-3471,-1693,-561,-169,-237,-81,315,169,-247
2,8309233,-3471,-1693,-556,-162,-247,-91,317,165,-247
2,8309246,-3471,-1693,-556,-162,-247,-91,317,165,-247
2,8309260,-3469,-1691,-560,-161,-251,-90,317,165,-247
2,8309272,-3471,-1692,-565,-172,-247,-91,317,165,-247
2,8309284,-3471,-1692,-565,-172,-247,-91,317,165,-247
2,8309298,-3472,-1696,-558,-164,-244,-78,317,165,-247
2,8309311,-3471,-1693,-560,-163,-240,-83,317,165,-247
2,8309323,-3471,-1693,-560,-163,-240,-83,317,165,-247
2,8309337,-3471,-1689,-569,-164,-240,-84,317,165,-247
2,8309350,-3473,-1689,-558,-164,-246,-77,322,174,-244
2,8309362,-3473,-1689,-558,-164,-246,-77,322,174,-244
2,8309376,-3469,-1691,-558,-161,-240,-84,322,174,-244
2,8309389,-3469,-1691,-558,-161,-240,-84,322,174,-244
2,8309401,-3471,-1692,-564,-158,-237,-86,322,174,-244
2,8309412,-3471,-1688,-560,-163,-244,-86,322,174,-244
2,8309426,-3471,-1688,-560,-163,-244,-86,322,174,-244
2,8309438,-3470,-1692,-565,-163,-237,-82,322,174,-244
2,8309447,-3470,-1692,-565,-163,-237,-82,322,174,-244
2,8309459,-3470,-1690,-563,-164,-247,-88,322,174,-244
2,8309474,-3469,-1690,-559,-156,-249,-82,315,171,-251
2,8309484,-3469,-1690,-559,-156,-249,-82,315,171,-251
2,8309494,-3470,-1694,-556,-167,-243,-85,315,171,-251
2,8309508,-3470,-1694,-556,-167,-243,-85,315,171,-251
2,8309522,-3470,-1695,-563,-165,-239,-89,315,171,-251
2,8309531,-3471,-1692,-560,-161,-239,-83,315,171,-251
2,8309544,-3471,-1692,-560,-161,-239,-83,315,171,-251
2,8309559,-3470,-1688,-559,-167,-246,-79,315,171,-251
2,8309572,-3470,-1692,-556,-158,-247,-77,315,171,-251
2,8309581,-3470,-1692,-556,-158,-247,-77,315,171,-251
2,8309594,-3469,-1690,-564,-159,-249,-84,317,175,-247
2,8309607,-3469,-1690,-564,-159,-249,-84,317,175,-247
2,8309619,-3471,-1692,-558,-159,-252,-88,317,175,-247
2,8309630,-3470,-1691,-560,-161,-251,-83,317,175,-247
2,8309643,-3470,-1691,-560,-161,-251,-83,317,175,-247
2,8309654,-3472,-1693,-559,-167,-243,-85,317,175,-247
2,8309667,-3472,-1693,-559,-167,-243,-85,317,175,-247
2,8309677,-3472,-1689,-560,-159,-245,-88,317,175,-247
2,8309684,-3472,-1689,-560,-159,-245,-88,317,175,-247
2,8309689,-3472,-1689,-560,-159,-245,-88,317,175,-247
2,8309696,-3470,-1693,-556,-156,-246,-85,317,175,-247
2,8309704,-3470,-1693,-556,-156,-246,-85,317,175,-247
2,8309709,-3471,-1691,-565,-155,-236,-82,317,175,-247
2,8309714,-3471,-1691,-565,-155,-236,-82,316,168,-250
2,8309720,-3471,-1691,-565,-155,-236,-82,316,168,-250
2,8309725,-3471,-1691,-565,-155,-236,-82,316,168,-250
2,8309730,-3467,-1692,-556,-164,-234,-86,316,168,-250
2,8309736,-3467,-1692,-556,-164,-234,-86,316,168,-250
2,8309743,-3467,-1692,-556,-164,-234,-86,316,168,-250
2,8309748,-3467,-1692,-556,-164,-234,-86,316,168,-250
2,8309755,-3469,-1694,-564,-160,-231,-83,316,168,-250
2,8309762,-3469,-1694,-564,-160,-231,-83,316,168,-250
2,8309770,-3472,-1691,-558,-162,-242,-84,316,168,-250
2,8309778,-3472,-1691,-558,-162,-242,-84,316,168,-250
2,8309785,-3472,-1691,-558,-162,-242,-84,316,168,-250
2,8309792,-3468,-1692,-557,-164,-245,-86,316,168,-250
2,8309798,-3468,-1692,-557,-164,-245,-86,316,168,-250
2,8309805,-3468,-1692,-557,-164,-245,-86,316,168,-250
2,8309812,-3469,-1690,-564,-166,-248,-86,316,168,-250
2,8309820,-3469,-1690,-564,-166,-248,-86,316,168,-250
2,8309827,-3469,-1690,-564,-166,-248,-86,316,168,-250
2,8309834,-3469,-1689,-562,-162,-245,-83,316,168,-250
2,8309840,-3469,-1689,-562,-162,-245,-83,316,168,-250
2,8309847,-3469,-1689,-562,-162,-245,-83,316,168,-250
2,8309855,-3471,-1692,-557,-153,-243,-86,316,168,-242
2,8309863,-3471,-1692,-557,-153,-243,-86,316,168,-242
2,8309871,-3471,-1693,-561,-163,-241,-92,316,168,-242
2,8309878,-3471,-1693,-561,-163,-241,-92,316,168,-242
2,8309883,-3471,-1693,-561,-163,-241,-92,316,168,-242
2,8309891,-3469,-1692,-562,-169,-240,-81,316,168,-242
2,8309899,-3469,-1692,-562,-169,-240,-81,316,168,-242
2,8309905,-3469,-1692,-562,-169,-240,-81,316,168,-242
2,8309911,-3468,-1693,-557,-167,-247,-86,316,168,-242
2,8309917,-3468,-1693,-557,-167,-247,-86,316,168,-242
2,8309925,-3468,-1693,-557,-167,-247,-86,316,168,-242
2,8309931,-3468,-1692,-559,-157,-246,-81,316,168,-242
2,8309940,-3468,-1692,-559,-157,-246,-81,316,168,-242
2,8309945,-3468,-1692,-559,-157,-246,-81,316,168,-242
2,8309950,-3469,-1692,-558,-161,-246,-86,316,168,-242
2,8309955,-3469,-1692,-558,-161,-246,-86,316,168,-242
2,8309959,-3469,-1692,-558,-161,-246,-86,316,168,-242
2,8309964,-3469,-1692,-558,-161,-246,-86,316,168,-242
2,8309969,-3467,-1692,-554,-166,-235,-83,312,170,-244
2,8309977,-3467,-1692,-554,-166,-235,-83,312,170,-244
2,8309984,-3467,-1692,-554,-166,-235,-83,312,170,-244
2,8309990,-3471,-1693,-560,-168,-239,-94,312,170,-244
2,8309997,-3471,-1693,-560,-168,-239,-94,312,170,-244
2,8310005,-3471,-1693,-560,-168,-239,-94,312,170,-244
2,8310013,-3467,-1694,-559,-167,-247,-92,312,170,-244
2,8310021,-3467,-1694,-559,-167,-247,-92,312,170,-244
2,8310027,-3467,-1694,-559,-167,-247,-92,312,170,-244
2,8310034,-3472,-1692,-565,-164,-248,-88,312,170,-244
2,8310041,-3472,-1692,-565,-164,-248,-88,312,170,-244
2,8310048,-3472,-1692,-565,-164,-248,-88,312,170,-244
2,8310055,-3471,-1691,-563,-163,-248,-91,312,170,-244
2,8310064,-3471,-1691,-563,-163,-248,-91,312,170,-244
2,8310071,-3474,-1692,-560,-163,-243,-86,312,170,-244
2,8310078,-3474,-1692,-560,-163,-243,-86,312,170,-244
2,8310084,-3474,-1692,-560,-163,-243,-86,312,170,-244
2,8310091,-3474,-1692,-560,-163,-243,-86,317,165,-245
2,8310097,-3474,-1692,-560,-163,-243,-86,317,165,-245
2,8310106,-3474,-1692,-560,-163,-243,-86,317,165,-245
2,8310114,-3473,-1696,-561,-168,-248,-84,317,165,-245
2,8310121,-3473,-1696,-561,-168,-248,-84,317,165,-245
2,8310129,-3473,-1696,-561,-168,-248,-84,317,165,-245
2,8310134,-3471,-1692,-560,-166,-246,-80,317,165,-245
2,8310142,-3471,-1692,-560,-166,-246,-80,317,165,-245
2,8310149,-3471,-1692,-560,-166,-246,-80,317,165,-245
2,8310157,-3470,-1691,-563,-163,-255,-86,317,165,-245
2,8310164,-3470,-1691,-563,-163,-255,-86,317,165,-245
2,8310170,-3467,-1690,-564,-162,-249,-85,317,165,-245
2,8310177,-3467,-1690,-564,-162,-249,-85,317,165,-245
2,8310184,-3467,-1690,-564,-162,-249,-85,317,165,-245
2,8310192,-3472,-1689,-562,-167,-244,-84,317,165,-245
2,8310199,-3472,-1689,-562,-167,-244,-84,317,165,-245
2,8310203,-3472,-1689,-562,-167,-244,-84,317,165,-245
2,8310209,-3472,-1689,-562,-167,-244,-84,317,165,-245
2,8310214,-3470,-1690,-553,-165,-242,-80,315,171,-243
2,8310221,-3470,-1690,-553,-165,-242,-80,315,171,-243
2,8310230,-3470,-1690,-553,-165,-242,-80,315,171,-243
2,8310237,-3471,-1692,-558,-161,-246,-82,315,171,-243
