imu,time,ax,ay,az,gx,gy,gz,mx,my,mz
2,5425972,-3471,-1693,-557,-164,-238,-84,259,163,-285
2,5425977,-3469,-1696,-553,-161,-234,-86,259,163,-285
2,5425983,-3469,-1696,-553,-161,-234,-86,259,163,-285
2,5425988,-3469,-1696,-553,-161,-234,-86,259,163,-285
2,5425993,-3469,-1696,-553,-161,-234,-86,259,163,-285
2,5425998,-3467,-1694,-552,-158,-232,-86,253,167,-285
2,5426003,-3467,-1694,-552,-158,-232,-86,253,167,-285
2,5426009,-3467,-1694,-552,-158,-232,-86,253,167,-285
2,5426014,-3467,-1694,-552,-158,-232,-86,253,167,-285
2,5426019,-3470,-1693,-551,-158,-233,-82,253,167,-285
2,5426024,-3470,-1693,-551,-158,-233,-82,253,167,-285
2,5426029,-3470,-1693,-551,-158,-233,-82,253,167,-285
2,5426034,-3470,-1693,-551,-158,-233,-82,253,167,-285
2,5426039,-3469,-1694,-556,-164,-241,-75,253,167,-285
2,5426044,-3469,-1694,-556,-164,-241,-75,253,167,-285
2,5426049,-3469,-1694,-556,-164,-241,-75,253,167,-285
2,5426055,-3469,-1694,-556,-164,-241,-75,253,167,-285
2,5426060,-3470,-1690,-551,-155,-235,-82,253,167,-285
2,5426065,-3470,-1690,-551,-155,-235,-82,253,167,-285
2,5426070,-3470,-1690,-551,-155,-235,-82,253,167,-285
2,5426075,-3470,-1690,-551,-155,-235,-82,253,167,-285
2,5426080,-3468,-1693,-556,-160,-235,-78,253,167,-285
2,5426085,-3468,-1693,-556,-160,-235,-78,253,167,-285
2,5426091,-3468,-1693,-556,-160,-235,-78,253,167,-285
2,5426096,-3468,-1693,-556,-160,-235,-78,253,167,-285
2,5426102,-3470,-1693,-559,-160,-236,-86,253,167,-285
2,5426107,-3470,-1693,-559,-160,-236,-86,253,167,-285
2,5426112,-3470,-1693,-559,-160,-236,-86,253,167,-285
2,5426118,-3473,-1690,-556,-160,-243,-92,254,154,-288
2,5426124,-3473,-1690,-556,-160,-243,-92,254,154,-288
2,5426129,-3473,-1690,-556,-160,-243,-92,254,154,-288
2,5426135,-3473,-1690,-556,-160,-243,-92,254,154,-288
2,5426141,-3474,-1688,-550,-161,-249,-85,254,154,-288
2,5426146,-3474,-1688,-550,-161,-249,-85,254,154,-288
2,5426151,-3474,-1688,-550,-161,-249,-85,254,154,-288
2,5426159,-3473,-1691,-549,-164,-240,-83,254,154,-288
2,5426168,-3473,-1691,-549,-164,-240,-83,254,154,-288
2,5426178,-3471,-1694,-557,-161,-240,-80,254,154,-288
2,5426187,-3471,-1694,-557,-161,-240,-80,254,154,-288
2,5426196,-3471,-1694,-557,-161,-240,-80,254,154,-288
2,5426205,-3470,-1694,-553,-161,-239,-86,254,154,-288
2,5426214,-3470,-1694,-553,-161,-239,-86,254,154,-288
2,5426224,-3470,-1695,-558,-157,-239,-85,254,154,-288
2,5426233,-3470,-1695,-558,-157,-239,-85,254,154,-288
2,5426244,-3471,-1694,-557,-163,-242,-90,254,154,-288
2,5426254,-3471,-1694,-557,-163,-242,-90,254,154,-288
2,5426263,-3470,-1694,-551,-163,-245,-87,258,162,-286
2,5426273,-3470,-1694,-551,-163,-245,-87,258,162,-286
2,5426283,-3468,-1696,-556,-168,-245,-89,258,162,-286
2,5426293,-3468,-1696,-556,-168,-245,-89,258,162,-286
2,5426301,-3471,-1698,-561,-165,-242,-86,258,162,-286
2,5426311,-3471,-1698,-561,-165,-242,-86,258,162,-286
2,5426323,-3470,-1693,-554,-161,-242,-86,258,162,-286
2,5426334,-3470,-1693,-554,-161,-242,-86,258,162,-286
2,5426348,-3470,-1695,-557,-165,-237,-93,258,162,-286
2,5426361,-3471,-1693,-552,-168,-241,-89,258,162,-286
2,5426374,-3471,-1693,-552,-168,-241,-89,258,162,-286
2,5426386,-3470,-1695,-551,-164,-239,-86,256,162,-280
2,5426403,-3471,-1691,-550,-163,-243,-86,256,162,-280
2,5426415,-3471,-1691,-550,-163,-243,-86,256,162,-280
2,5426427,-3468,-1690,-554,-162,-239,-92,256,162,-280
2,5426441,-3471,-1692,-556,-168,-242,-87,256,162,-280
2,5426455,-3471,-1692,-556,-168,-242,-87,256,162,-280
2,5426467,-3475,-1687,-554,-164,-242,-82,256,162,-280
2,5426478,-3473,-1692,-554,-161,-240,-81,256,162,-280
2,5426491,-3473,-1692,-554,-161,-240,-81,256,162,-280
2,5426504,-3473,-1691,-552,-160,-233,-80,261,163,-285
2,5426512,-3473,-1691,-552,-160,-233,-80,261,163,-285
2,5426521,-3471,-1691,-553,-157,-232,-79,261,163,-285
2,5426529,-3471,-1691,-553,-157,-232,-79,261,163,-285
2,5426537,-3471,-1691,-553,-157,-232,-79,261,163,-285
2,5426547,-3474,-1693,-548,-164,-242,-83,261,163,-285
2,5426561,-3471,-1692,-549,-162,-247,-85,261,163,-285
2,5426574,-3471,-1692,-549,-162,-247,-85,261,163,-285
2,5426586,-3470,-1693,-556,-163,-240,-85,261,163,-285
2,5426599,-3470,-1696,-553,-164,-233,-82,261,163,-285
2,5426612,-3470,-1696,-553,-164,-233,-82,261,163,-285
2,5426626,-3472,-1692,-549,-167,-239,-90,259,163,-287
2,5426637,-3469,-1694,-550,-167,-234,-83,259,163,-287
2,5426647,-3469,-1694,-550,-167,-234,-83,259,163,-287
2,5426655,-3469,-1694,-550,-167,-234,-83,259,163,-287
2,5426663,-3469,-1695,-553,-167,-235,-85,259,163,-287
2,5426670,-3469,-1695,-553,-167,-235,-85,259,163,-287
2,5426679,-3471,-1693,-554,-164,-237,-82,259,163,-287
2,5426693,-3471,-1693,-554,-164,-237,-82,259,163,-287
2,5426706,-3471,-1694,-553,-163,-237,-83,259,163,-287
2,5426720,-3470,-1692,-555,-159,-240,-83,259,163,-287
2,5426729,-3470,-1692,-555,-159,-240,-83,259,163,-287
2,5426742,-3470,-1694,-552,-169,-243,-85,259,165,-279
2,5426755,-3470,-1694,-552,-169,-243,-85,259,165,-279
2,5426766,-3472,-1695,-551,-176,-239,-87,259,165,-279
2,5426778,-3471,-1694,-550,-163,-237,-90,259,165,-279
2,5426792,-3471,-1694,-550,-163,-237,-90,259,165,-279
2,5426802,-3471,-1691,-553,-163,-237,-79,259,165,-279
2,5426810,-3471,-1691,-553,-163,-237,-79,259,165,-279
2,5426825,-3471,-1692,-553,-163,-245,-82,259,165,-279
2,5426839,-3470,-1691,-553,-157,-244,-87,259,165,-279
2,5426848,-3470,-1691,-553,-157,-244,-87,259,165,-279
2,5426861,-3473,-1690,-552,-160,-240,-88,259,165,-279
2,5426875,-3473,-1690,-552,-160,-240,-88,259,165,-279
2,5426889,-3472,-1692,-548,-158,-237,-89,261,161,-291
2,5426897,-3472,-1692,-548,-158,-237,-89,261,161,-291
2,5426911,-3471,-1691,-555,-162,-241,-86,261,161,-291
2,5426924,-3473,-1690,-548,-164,-234,-81,261,161,-291
2,5426936,-3473,-1690,-548,-164,-234,-81,261,161,-291
2,5426947,-3473,-1692,-557,-165,-243,-85,261,161,-291
2,5426956,-3473,-1692,-557,-165,-243,-85,261,161,-291
2,5426969,-3468,-1694,-549,-163,-240,-84,261,161,-291
2,5426981,-3470,-1690,-554,-158,-236,-81,261,161,-291
2,5426995,-3470,-1690,-554,-158,-236,-81,261,161,-291
2,5427004,-3467,-1691,-556,-168,-244,-80,252,160,-288
2,5427013,-3467,-1691,-556,-168,-244,-80,252,160,-288
2,5427021,-3470,-1696,-559,-162,-236,-78,252,160,-288
2,5427030,-3470,-1696,-559,-162,-236,-78,252,160,-288
2,5427045,-3470,-1692,-547,-162,-239,-83,252,160,-288
2,5427057,-3470,-1692,-547,-162,-239,-83,252,160,-288
2,5427070,-3473,-1694,-553,-162,-236,-82,252,160,-288
2,5427084,-3473,-1695,-562,-163,-238,-82,252,160,-288
2,5427096,-3473,-1695,-562,-163,-238,-82,252,160,-288
2,5427110,-3472,-1697,-557,-164,-237,-84,252,160,-288
2,5427126,-3473,-1696,-552,-168,-233,-85,261,159,-285
2,5427140,-3471,-1692,-553,-166,-239,-85,261,159,-285
2,5427149,-3471,-1692,-553,-166,-239,-85,261,159,-285
2,5427162,-3475,-1691,-556,-162,-239,-85,261,159,-285
2,5427169,-3475,-1691,-556,-162,-239,-85,261,159,-285
2,5427176,-3475,-1691,-556,-162,-239,-85,261,159,-285
2,5427183,-3471,-1694,-554,-164,-247,-82,261,159,-285
2,5427190,-3471,-1694,-554,-164,-247,-82,261,159,-285
2,5427196,-3471,-1694,-554,-164,-247,-82,261,159,-285
2,5427205,-3470,-1691,-554,-163,-246,-81,261,159,-285
2,5427212,-3470,-1691,-554,-163,-246,-81,261,159,-285
2,5427220,-3472,-1689,-553,-159,-249,-89,261,159,-285
2,5427228,-3472,-1689,-553,-159,-249,-89,261,159,-285
2,5427235,-3472,-1689,-553,-159,-249,-89,261,159,-285
2,5427243,-3472,-1691,-552,-161,-241,-86,261,169,-285
2,5427249,-3472,-1691,-552,-161,-241,-86,261,169,-285
2,5427254,-3472,-1691,-552,-161,-241,-86,261,169,-285
2,5427259,-3471,-1691,-555,-164,-244,-90,261,169,-285
2,5427264,-3471,-1691,-555,-164,-244,-90,261,169,-285
2,5427272,-3471,-1691,-555,-164,-244,-90,261,169,-285
2,5427279,-3472,-1690,-553,-164,-242,-84,261,169,-285
2,5427287,-3472,-1690,-553,-164,-242,-84,261,169,-285
2,5427294,-3472,-1690,-553,-164,-242,-84,261,169,-285
2,5427301,-3471,-1693,-554,-171,-241,-81,261,169,-285
2,5427308,-3471,-1693,-554,-171,-241,-81,261,169,-285
2,5427313,-3471,-1693,-554,-171,-241,-81,261,169,-285
2,5427322,-3471,-1693,-554,-168,-242,-81,261,169,-285
2,5427329,-3471,-1693,-554,-168,-242,-81,261,169,-285
2,5427336,-3471,-1693,-554,-168,-242,-81,261,169,-285
2,5427342,-3470,-1693,-550,-165,-236,-86,261,169,-285
2,5427349,-3470,-1693,-550,-165,-236,-86,261,169,-285
2,5427356,-3470,-1693,-550,-165,-236,-86,261,169,-285
2,5427361,-3471,-1694,-554,-171,-238,-89,257,165,-287
2,5427368,-3471,-1694,-554,-171,-238,-89,257,165,-287
2,5427375,-3471,-1694,-554,-171,-238,-89,257,165,-287
2,5427381,-3472,-1694,-552,-165,-240,-85,257,165,-287
2,5427388,-3472,-1694,-552,-165,-240,-85,257,165,-287
2,5427395,-3472,-1694,-552,-165,-240,-85,257,165,-287
2,5427403,-3471,-1695,-551,-157,-238,-93,257,165,-287
2,5427410,-3471,-1695,-551,-157,-238,-93,257,165,-287
2,5427417,-3471,-1695,-551,-157,-238,-93,257,165,-287
2,5427424,-3469,-1692,-546,-166,-238,-86,257,165,-287
2,5427431,-3469,-1692,-546,-166,-238,-86,257,165,-287
2,5427438,-3469,-1692,-546,-166,-238,-86,257,165,-287
2,5427445,-3470,-1693,-549,-159,-243,-88,257,165,-287
2,5427452,-3470,-1693,-549,-159,-243,-88,257,165,-287
2,5427459,-3469,-1691,-557,-161,-237,-84,257,165,-287
2,5427464,-3469,-1691,-557,-161,-237,-84,257,165,-287
2,5427472,-3469,-1691,-557,-161,-237,-84,257,165,-287
2,5427480,-3472,-1690,-553,-164,-236,-82,255,163,-283
2,5427488,-3472,-1690,-553,-164,-236,-82,255,163,-283
2,5427495,-3472,-1690,-553,-164,-236,-82,255,163,-283
2,5427502,-3472,-1696,-550,-167,-232,-83,255,163,-283
2,5427509,-3472,-1696,-550,-167,-232,-83,255,163,-283
2,5427514,-3472,-1696,-550,-167,-232,-83,255,163,-283
2,5427518,-3471,-1694,-551,-169,-234,-86,255,163,-283
2,5427523,-3471,-1694,-551,-169,-234,-86,255,163,-283
2,5427528,-3471,-1694,-551,-169,-234,-86,255,163,-283
2,5427534,-3471,-1694,-551,-169,-234,-86,255,163,-283
2,5427539,-3470,-1692,-551,-168,-237,-88,255,163,-283
2,5427548,-3470,-1692,-551,-168,-237,-88,255,163,-283
2,5427556,-3470,-1692,-551,-168,-237,-88,255,163,-283
2,5427562,-3469,-1694,-559,-162,-235,-90,255,163,-283
2,5427567,-3469,-1694,-559,-162,-235,-90,255,163,-283
2,5427573,-3469,-1694,-559,-162,-235,-90,255,163,-283
2,5427578,-3472,-1693,-555,-157,-240,-85,255,163,-283
2,5427584,-3472,-1693,-555,-157,-240,-85,255,163,-283
2,5427590,-3472,-1693,-555,-157,-240,-85,255,163,-283
2,5427597,-3472,-1693,-555,-157,-240,-85,255,163,-283
2,5427605,-3472,-1691,-557,-165,-232,-89,255,163,-283
2,5427613,-3472,-1691,-557,-165,-232,-89,255,163,-283
2,5427620,-3471,-1693,-552,-166,-242,-88,267,173,-279
2,5427628,-3471,-1693,-552,-166,-242,-88,267,173,-279
2,5427636,-3471,-1693,-552,-166,-242,-88,267,173,-279
2,5427643,-3470,-1692,-556,-165,-237,-84,267,173,-279
2,5427649,-3470,-1692,-556,-165,-237,-84,267,173,-279
2,5427656,-3470,-1692,-556,-165,-237,-84,267,173,-279
2,5427664,-3470,-1692,-554,-166,-242,-88,267,173,-279
2,5427671,-3470,-1692,-554,-166,-242,-88,267,173,-279
2,5427677,-3470,-1692,-554,-166,-242,-88,267,173,-279
2,5427683,-3470,-1691,-552,-159,-245,-88,267,173,-279
2,5427690,-3470,-1691,-552,-159,-245,-88,267,173,-279
2,5427697,-3470,-1691,-552,-159,-245,-88,267,173,-279
2,5427705,-3470,-1696,-557,-161,-236,-87,267,173,-279
2,5427712,-3470,-1696,-557,-161,-236,-87,267,173,-279
2,5427719,-3469,-1695,-553,-161,-238,-85,267,173,-279
2,5427726,-3469,-1695,-553,-161,-238,-85,267,173,-279
2,5427733,-3469,-1695,-553,-161,-238,-85,267,173,-279
2,5427740,-3470,-1693,-550,-170,-242,-82,262,156,-292
2,5427746,-3470,-1693,-550,-170,-242,-82,262,156,-292
2,5427752,-3470,-1693,-550,-170,-242,-82,262,156,-292
2,5427760,-3472,-1697,-552,-170,-246,-85,262,156,-292
2,5427766,-3472,-1697,-552,-170,-246,-85,262,156,-292
2,5427775,-3472,-1697,-552,-170,-246,-85,262,156,-292
2,5427783,-3473,-1695,-550,-166,-245,-86,262,156,-292
2,5427789,-3473,-1695,-550,-166,-245,-86,262,156,-292
2,5427795,-3473,-1695,-550,-166,-245,-86,262,156,-292
2,5427801,-3470,-1693,-554,-174,-241,-87,262,156,-292
2,5427806,-3470,-1693,-554,-174,-241,-87,262,156,-292
2,5427813,-3470,-1693,-554,-174,-241,-87,262,156,-292
2,5427820,-3471,-1693,-554,-169,-233,-86,262,156,-292
2,5427827,-3471,-1693,-554,-169,-233,-86,262,156,-292
2,5427832,-3471,-1693,-554,-169,-233,-86,262,156,-292
2,5427840,-3473,-1694,-556,-167,-234,-92,262,156,-292
2,5427847,-3473,-1694,-556,-167,-234,-92,262,156,-292
2,5427855,-3473,-1694,-556,-167,-234,-92,262,156,-292
2,5427862,-3472,-1695,-549,-160,-240,-87,272,168,-284
2,5427867,-3472,-1695,-549,-160,-240,-87,272,168,-284
2,5427874,-3472,-1695,-549,-160,-240,-87,272,168,-284
2,5427883,-3474,-1695,-551,-165,-241,-90,272,168,-284
2,5427890,-3474,-1695,-551,-165,-241,-90,272,168,-284
2,5427897,-3474,-1695,-551,-165,-241,-90,272,168,-284
2,5427905,-3470,-1694,-557,-166,-236,-87,272,168,-284
2,5427911,-3470,-1694,-557,-166,-236,-87,272,168,-284
2,5427916,-3470,-1694,-557,-166,-236,-87,272,168,-284
2,5427924,-3471,-1690,-550,-171,-238,-84,272,168,-284
2,5427932,-3471,-1690,-550,-171,-238,-84,272,168,-284
2,5427939,-3470,-1696,-556,-169,-238,-82,272,168,-284
2,5427947,-3470,-1696,-556,-169,-238,-82,272,168,-284
2,5427953,-3470,-1696,-556,-169,-238,-82,272,168,-284
2,5427959,-3469,-1690,-554,-158,-242,-83,272,168,-284
2,5427966,-3469,-1690,-554,-158,-242,-83,272,168,-284
2,5427974,-3469,-1690,-554,-158,-242,-83,272,168,-284
2,5427981,-3470,-1692,-550,-161,-255,-80,259,161,-291
2,5427988,-3470,-1692,-550,-161,-255,-80,259,161,-291
2,5427994,-3470,-1692,-550,-161,-255,-80,259,161,-291
2,5428002,-3471,-1693,-553,-162,-236,-90,259,161,-291
2,5428009,-3471,-1693,-553,-162,-236,-90,259,161,-291
2,5428018,-3471,-1693,-553,-162,-236,-90,259,161,-291
2,5428025,-3470,-1694,-552,-161,-234,-88,259,161,-291
2,5428032,-3470,-1694,-552,-161,-234,-88,259,161,-291
2,5428040,-3468,-1693,-555,-160,-233,-86,259,161,-291
2,5428046,-3468,-1693,-555,-160,-233,-86,259,161,-291
2,5428051,-3468,-1693,-555,-160,-233,-86,259,161,-291
2,5428059,-3471,-1692,-553,-155,-234,-85,259,161,-291
2,5428067,-3471,-1692,-553,-155,-234,-85,259,161,-291
2,5428074,-3471,-1692,-553,-155,-234,-85,259,161,-291
2,5428081,-3470,-1693,-556,-159,-233,-75,259,161,-291
2,5428088,-3470,-1693,-556,-159,-233,-75,259,161,-291
2,5428094,-3470,-1693,-556,-159,-233,-75,259,161,-291
2,5428102,-3470,-1694,-556,-166,-243,-77,265,167,-287
2,5428109,-3470,-1694,-556,-166,-243,-77,265,167,-287
2,5428117,-3470,-1694,-556,-166,-243,-77,265,167,-287
2,5428124,-3469,-1694,-549,-169,-240,-82,265,167,-287
2,5428131,-3469,-1694,-549,-169,-240,-82,265,167,-287
2,5428137,-3469,-1694,-549,-169,-240,-82,265,167,-287
2,5428145,-3471,-1696,-553,-159,-237,-81,265,167,-287
2,5428151,-3471,-1696,-553,-159,-237,-81,265,167,-287
2,5428159,-3470,-1694,-553,-161,-240,-79,265,167,-287
2,5428167,-3470,-1694,-553,-161,-240,-79,265,167,-287
2,5428180,-3469,-1696,-556,-163,-238,-79,265,167,-287
2,5428189,-3469,-1696,-556,-163,-238,-79,265,167,-287
2,5428201,-3472,-1693,-555,-164,-244,-81,265,167,-287
2,5428214,-3472,-1693,-555,-164,-244,-81,265,167,-287
2,5428228,-3471,-1692,-557,-161,-235,-83,265,167,-287
2,5428238,-3471,-1692,-557,-161,-235,-83,265,167,-287
2,5428250,-3473,-1693,-548,-157,-237,-82,259,161,-285
2,5428264,-3475,-1691,-552,-164,-240,-78,259,161,-285
2,5428279,-3475,-1691,-552,-164,-240,-78,259,161,-285
2,5428288,-3472,-1691,-552,-166,-239,-82,259,161,-285
2,5428298,-3472,-1691,-552,-166,-239,-82,259,161,-285
2,5428307,-3471,-1692,-551,-167,-244,-94,259,161,-285
2,5428316,-3471,-1692,-551,-167,-244,-94,259,161,-285
2,5428324,-3471,-1695,-555,-169,-235,-94,259,161,-285
2,5428332,-3471,-1695,-555,-169,-235,-94,259,161,-285
2,5428343,-3471,-1690,-556,-166,-237,-85,259,161,-285
2,5428355,-3471,-1690,-556,-166,-237,-85,259,161,-285
2,5428368,-3468,-1692,-553,-162,-238,-83,260,158,-288
2,5428382,-3473,-1695,-555,-164,-237,-87,260,158,-288
2,5428397,-3473,-1695,-555,-164,-237,-87,260,158,-288
2,5428406,-3468,-1695,-552,-155,-229,-86,260,158,-288
2,5428418,-3468,-1695,-552,-155,-229,-86,260,158,-288
2,5428430,-3470,-1694,-553,-163,-234,-82,260,158,-288
2,5428444,-3468,-1694,-553,-169,-234,-82,260,158,-288
2,5428454,-3468,-1694,-553,-169,-234,-82,260,158,-288
2,5428467,-3473,-1694,-558,-159,-234,-87,260,158,-288
2,5428481,-3472,-1694,-554,-157,-234,-88,269,161,-287
2,5428493,-3472,-1694,-554,-157,-234,-88,269,161,-287
2,5428504,-3469,-1693,-550,-171,-242,-82,269,161,-287
2,5428512,-3469,-1693,-550,-171,-242,-82,269,161,-287
2,5428520,-3472,-1694,-555,-165,-243,-81,269,161,-287
2,5428529,-3472,-1694,-555,-165,-243,-81,269,161,-287
2,5428537,-3472,-1694,-555,-165,-243,-81,269,161,-287
2,5428545,-3471,-1696,-559,-163,-246,-80,269,161,-287
2,5428555,-3471,-1696,-559,-163,-246,-80,269,161,-287
2,5428564,-3471,-1691,-552,-160,-236,-81,269,161,-287
2,5428573,-3471,-1691,-552,-160,-236,-81,269,161,-287
2,5428582,-3471,-1694,-555,-160,-237,-77,269,161,-287
2,5428592,-3471,-1694,-555,-160,-237,-77,269,161,-287
2,5428600,-3468,-1692,-552,-157,-235,-82,257,161,-289
2,5428614,-3468,-1692,-552,-157,-235,-82,257,161,-289
2,5428623,-3471,-1690,-551,-156,-233,-83,257,161,-289
2,5428636,-3471,-1690,-551,-156,-233,-83,257,161,-289
2,5428648,-3473,-1693,-550,-155,-234,-84,257,161,-289
2,5428662,-3469,-1693,-555,-156,-247,-77,257,161,-289
2,5428675,-3469,-1693,-555,-156,-247,-77,257,161,-289
2,5428688,-3471,-1693,-556,-164,-245,-78,257,161,-289
2,5428701,-3469,-1690,-560,-164,-240,-80,257,161,-289
2,5428716,-3469,-1690,-560,-164,-240,-80,257,161,-289
2,5428728,-3468,-1692,-556,-167,-237,-84,270,156,-294
2,5428740,-3469,-1692,-554,-166,-243,-91,270,156,-294
2,5428754,-3469,-1692,-554,-166,-243,-91,270,156,-294
2,5428766,-3470,-1694,-552,-163,-241,-88,270,156,-294
2,5428780,-3471,-1694,-555,-162,-233,-88,270,156,-294
2,5428790,-3471,-1694,-555,-162,-233,-88,270,156,-294
2,5428802,-3473,-1695,-554,-165,-239,-83,270,156,-294
2,5428809,-3473,-1695,-554,-165,-239,-83,270,156,-294
2,5428823,-3471,-1694,-551,-165,-241,-82,270,156,-294
2,5428836,-3471,-1694,-551,-165,-241,-82,270,156,-294
2,5428848,-3472,-1693,-554,-173,-245,-85,270,156,-294
2,5428857,-3472,-1693,-554,-173,-245,-85,270,156,-294
2,5428871,-3473,-1693,-551,-169,-239,-89,266,158,-292
2,5428885,-3472,-1697,-554,-158,-242,-87,266,158,-292
2,5428897,-3472,-1697,-554,-158,-242,-87,266,158,-292
2,5428908,-3471,-1695,-554,-167,-245,-89,266,158,-292
2,5428918,-3471,-1695,-554,-167,-245,-89,266,158,-292
2,5428926,-3472,-1695,-556,-169,-235,-90,266,158,-292
2,5428934,-3472,-1695,-556,-169,-235,-90,266,158,-292
2,5428942,-3472,-1693,-550,-166,-237,-86,266,158,-292
2,5428951,-3472,-1693,-550,-166,-237,-86,266,158,-292
2,5428961,-3473,-1693,-549,-161,-240,-83,266,158,-292
2,5428972,-3473,-1693,-549,-161,-240,-83,266,158,-292
2,5428986,-3471,-1693,-549,-168,-236,-83,263,165,-287
2,5429001,-3472,-1694,-551,-166,-234,-78,263,165,-287
2,5429011,-3472,-1694,-551,-166,-234,-78,263,165,-287
2,5429022,-3473,-1692,-550,-168,-242,-76,263,165,-287
2,5429036,-3473,-1692,-550,-168,-242,-76,263,165,-287
2,5429050,-3470,-1691,-554,-167,-239,-81,263,165,-287
2,5429059,-3470,-1691,-554,-167,-239,-81,263,165,-287
2,5429070,-3470,-1691,-551,-165,-245,-83,263,165,-287
2,5429083,-3470,-1691,-557,-171,-245,-88,263,165,-287
2,5429095,-3470,-1691,-557,-171,-245,-88,263,165,-287
2,5429108,-3471,-1694,-553,-168,-242,-84,257,161,-293
2,5429123,-3472,-1692,-550,-169,-241,-81,257,161,-293
2,5429134,-3472,-1692,-550,-169,-241,-81,257,161,-293
2,5429147,-3472,-1692,-550,-169,-241,-81,257,161,-293
2,5429161,-3473,-1695,-552,-164,-240,-88,257,161,-293
2,5429174,-3473,-1695,-552,-164,-240,-88,257,161,-293
2,5429183,-3475,-1694,-555,-154,-239,-92,257,161,-293
2,5429191,-3475,-1694,-555,-154,-239,-92,257,161,-293
2,5429197,-3475,-1694,-555,-154,-239,-92,257,161,-293
2,5429203,-3472,-1693,-551,-159,-242,-82,257,161,-293
2,5429209,-3472,-1693,-551,-159,-242,-82,257,161,-293
2,5429215,-3472,-1693,-551,-159,-242,-82,257,161,-293
2,5429222,-3470,-1693,-551,-161,-246,-85,263,159,-283
2,5429231,-3470,-1693,-551,-161,-246,-85,263,159,-283
2,5429238,-3470,-1693,-551,-161,-246,-85,263,159,-283
2,5429245,-3469,-1694,-550,-156,-232,-83,263,159,-283
2,5429252,-3469,-1694,-550,-156,-232,-83,263,159,-283
2,5429260,-3469,-1694,-550,-156,-232,-83,263,159,-283
2,5429266,-3471,-1693,-551,-157,-237,-86,263,159,-283
2,5429273,-3471,-1693,-551,-157,-237,-86,263,159,-283
2,5429281,-3469,-1696,-557,-164,-237,-84,263,159,-283
2,5429287,-3469,-1696,-557,-164,-237,-84,263,159,-283
2,5429295,-3469,-1696,-557,-164,-237,-84,263,159,-283
2,5429302,-3468,-1692,-556,-161,-242,-83,263,159,-283
2,5429308,-3468,-1692,-556,-161,-242,-83,263,159,-283
2,5429315,-3468,-1692,-556,-161,-242,-83,263,159,-283
2,5429323,-3472,-1693,-555,-160,-234,-81,263,159,-283
2,5429331,-3472,-1693,-555,-160,-234,-81,263,159,-283
2,5429340,-3471,-1693,-553,-172,-234,-73,258,158,-288
2,5429347,-3471,-1693,-553,-172,-234,-73,258,158,-288
2,5429353,-3471,-1693,-553,-172,-234,-73,258,158,-288
2,5429361,-3468,-1691,-550,-163,-243,-79,258,158,-288
2,5429367,-3468,-1691,-550,-163,-243,-79,258,158,-288
2,5429374,-3468,-1691,-550,-163,-243,-79,258,158,-288
2,5429383,-3470,-1693,-553,-167,-245,-86,258,158,-288
2,5429390,-3470,-1693,-553,-167,-245,-86,258,158,-288
2,5429397,-3470,-1693,-553,-167,-245,-86,258,158,-288
2,5429403,-3468,-1691,-546,-162,-238,-85,258,158,-288
2,5429410,-3468,-1691,-546,-162,-238,-85,258,158,-288
2,5429417,-3468,-1691,-546,-162,-238,-85,258,158,-288
2,5429424,-3470,-1693,-551,-159,-237,-86,258,158,-288
2,5429432,-3470,-1693,-551,-159,-237,-86,258,158,-288
2,5429439,-3470,-1693,-551,-159,-237,-86,258,158,-288
2,5429448,-3471,-1692,-556,-159,-229,-82,258,158,-288
2,5429454,-3471,-1692,-556,-159,-229,-82,258,158,-288
2,5429460,-3472,-1691,-554,-162,-243,-88,258,158,-288
2,5429468,-3472,-1691,-554,-162,-243,-88,258,158,-288
2,5429475,-3472,-1691,-554,-162,-243,-88,258,158,-288
2,5429481,-3473,-1693,-551,-160,-240,-81,259,161,-287
2,5429488,-3473,-1693,-551,-160,-240,-81,259,161,-287
2,5429495,-3473,-1693,-551,-160,-240,-81,259,161,-287
2,5429500,-3471,-1695,-555,-167,-240,-81,259,161,-287
2,5429506,-3471,-1695,-555,-167,-240,-81,259,161,-287
2,5429512,-3471,-1695,-555,-167,-240,-81,259,161,-287
2,5429516,-3471,-1695,-555,-167,-240,-81,259,161,-287
2,5429521,-3470,-1694,-555,-175,-241,-90,259,161,-287
2,5429527,-3470,-1694,-555,-175,-241,-90,259,161,-287
2,5429532,-3470,-1694,-555,-175,-241,-90,259,161,-287
2,5429537,-3470,-1694,-555,-175,-241,-90,259,161,-287
2,5429542,-3473,-1695,-556,-165,-239,-84,259,161,-287
2,5429551,-3473,-1695,-556,-165,-239,-84,259,161,-287
2,5429557,-3473,-1695,-556,-165,-239,-84,259,161,-287
2,5429563,-3472,-1692,-553,-163,-237,-84,259,161,-287
2,5429568,-3472,-1692,-553,-163,-237,-84,259,161,-287
2,5429573,-3472,-1692,-553,-163,-237,-84,259,161,-287
2,5429579,-3472,-1692,-553,-163,-237,-84,259,161,-287
2,5429584,-3472,-1696,-555,-163,-238,-79,259,161,-287
2,5429590,-3472,-1696,-555,-163,-238,-79,259,161,-287
2,5429596,-3472,-1696,-555,-163,-238,-79,259,161,-287
2,5429602,-3471,-1696,-546,-163,-242,-85,267,161,-281
2,5429609,-3471,-1696,-546,-163,-242,-85,267,161,-281
2,5429616,-3471,-1696,-546,-163,-242,-85,267,161,-281
2,5429622,-3467,-1693,-550,-168,-236,-81,267,161,-281
2,5429627,-3467,-1693,-550,-168,-236,-81,267,161,-281
2,5429635,-3467,-1693,-550,-168,-236,-81,267,161,-281
2,5429642,-3471,-1695,-556,-163,-238,-82,267,161,-281
2,5429649,-3471,-1695,-556,-163,-238,-82,267,161,-281
2,5429656,-3471,-1695,-556,-163,-238,-82,267,161,-281
2,5429661,-3472,-1693,-556,-166,-234,-84,267,161,-281
2,5429669,-3472,-1693,-556,-166,-234,-84,267,161,-281
2,5429676,-3472,-1693,-556,-166,-234,-84,267,161,-281
2,5429684,-3469,-1692,-556,-170,-232,-85,267,161,-281
2,5429691,-3469,-1692,-556,-170,-232,-85,267,161,-281
2,5429698,-3469,-1692,-556,-170,-232,-85,267,161,-281
2,5429703,-3470,-1693,-555,-161,-237,-85,267,161,-281
2,5429709,-3470,-1693,-555,-161,-237,-85,267,161,-281
2,5429718,-3470,-1693,-555,-161,-237,-85,267,161,-281
2,5429726,-3470,-1693,-555,-161,-237,-85,263,169,-285
2,5429732,-3470,-1693,-555,-161,-237,-85,263,169,-285
2,5429738,-3470,-1693,-555,-161,-237,-85,263,169,-285
2,5429744,-3468,-1693,-555,-162,-238,-88,263,169,-285
2,5429751,-3468,-1693,-555,-162,-238,-88,263,169,-285
2,5429760,-3468,-1693,-555,-162,-238,-88,263,169,-285
2,5429767,-3472,-1692,-550,-162,-231,-89,263,169,-285
2,5429775,-3472,-1692,-550,-162,-231,-89,263,169,-285
2,5429782,-3473,-1692,-556,-164,-235,-90,263,169,-285
2,5429789,-3473,-1692,-556,-164,-235,-90,263,169,-285
2,5429794,-3473,-1692,-556,-164,-235,-90,263,169,-285
2,5429801,-3471,-1691,-552,-166,-238,-87,263,169,-285
2,5429807,-3471,-1691,-552,-166,-238,-87,263,169,-285
2,5429812,-3471,-1691,-552,-166,-238,-87,263,169,-285
2,5429820,-3471,-1691,-552,-166,-238,-87,263,169,-285
2,5429828,-3471,-1692,-554,-170,-237,-81,263,169,-285
2,5429835,-3471,-1692,-554,-170,-237,-81,263,169,-285
2,5429841,-3470,-1692,-556,-161,-251,-82,261,163,-283
2,5429848,-3470,-1692,-556,-161,-251,-82,261,163,-283
2,5429855,-3470,-1692,-556,-161,-251,-82,261,163,-283
2,5429860,-3470,-1692,-556,-161,-251,-82,261,163,-283
2,5429868,-3473,-1693,-555,-165,-246,-78,261,163,-283
2,5429876,-3473,-1693,-555,-165,-246,-78,261,163,-283
2,5429884,-3471,-1694,-548,-163,-240,-85,261,163,-283
2,5429892,-3471,-1694,-548,-163,-240,-85,261,163,-283
2,5429900,-3471,-1694,-548,-163,-240,-85,261,163,-283
2,5429906,-3471,-1692,-557,-162,-243,-86,261,163,-283
2,5429913,-3471,-1692,-557,-162,-243,-86,261,163,-283
2,5429919,-3471,-1692,-557,-162,-243,-86,261,163,-283
2,5429926,-3473,-1692,-553,-162,-237,-80,261,163,-283
2,5429936,-3473,-1692,-553,-162,-237,-80,261,163,-283
2,5429943,-3472,-1694,-554,-171,-239,-89,261,163,-283
2,5429950,-3472,-1694,-554,-171,-239,-89,261,163,-283
2,5429955,-3472,-1694,-554,-171,-239,-89,261,163,-283
2,5429962,-3473,-1693,-552,-169,-231,-86,260,160,-292
2,5429969,-3473,-1693,-552,-169,-231,-86,260,160,-292
2,5429977,-3473,-1693,-552,-169,-231,-86,260,160,-292
2,5429986,-3470,-1696,-553,-172,-238,-82,260,160,-292
2,5429994,-3470,-1696,-553,-172,-238,-82,260,160,-292
2,5430000,-3470,-1695,-555,-163,-247,-85,260,160,-292
2,5430008,-3470,-1695,-555,-163,-247,-85,260,160,-292
2,5430014,-3470,-1695,-555,-163,-247,-85,260,160,-292
2,5430022,-3470,-1694,-552,-161,-241,-84,260,160,-292
2,5430028,-3470,-1694,-552,-161,-241,-84,260,160,-292
2,5430036,-3470,-1694,-552,-161,-241,-84,260,160,-292
2,5430043,-3469,-1692,-549,-159,-241,-93,260,160,-292
2,5430050,-3469,-1692,-549,-159,-241,-93,260,160,-292
2,5430055,-3469,-1692,-549,-159,-241,-93,260,160,-292
2,5430062,-3470,-1692,-554,-169,-252,-86,260,160,-292
2,5430067,-3470,-1692,-554,-169,-252,-86,260,160,-292
2,5430074,-3470,-1692,-554,-169,-252,-86,260,160,-292
2,5430079,-3470,-1692,-554,-169,-252,-86,260,160,-292
2,5430087,-3472,-1692,-552,-170,-246,-83,260,160,-292
2,5430094,-3472,-1692,-552,-170,-246,-83,260,160,-292
2,5430103,-3469,-1691,-552,-161,-242,-82,262,164,-292
2,5430109,-3469,-1691,-552,-161,-242,-82,262,164,-292
2,5430114,-3469,-1691,-552,-161,-242,-82,262,164,-292
2,5430121,-3471,-1694,-555,-161,-243,-83,262,164,-292
2,5430128,-3471,-1694,-555,-161,-243,-83,262,164,-292
2,5430135,-3471,-1694,-555,-161,-243,-83,262,164,-292
2,5430140,-3472,-1693,-554,-159,-237,-85,262,164,-292
2,5430147,-3472,-1693,-554,-159,-237,-85,262,164,-292
2,5430154,-3472,-1693,-554,-159,-237,-85,262,164,-292
2,5430161,-3472,-1690,-554,-156,-243,-85,262,164,-292
2,5430168,-3472,-1690,-554,-156,-243,-85,262,164,-292
2,5430175,-3472,-1690,-554,-156,-243,-85,262,164,-292
2,5430180,-3471,-1691,-552,-163,-234,-85,262,164,-292
2,5430195,-3471,-1691,-552,-163,-234,-85,262,164,-292
2,5430206,-3475,-1697,-552,-162,-234,-87,262,164,-292
2,5430218,-3475,-1697,-552,-162,-234,-87,262,164,-292
2,5430231,-3473,-1693,-549,-161,-235,-87,254,156,-284
2,5430244,-3471,-1692,-550,-169,-234,-88,254,156,-284
2,5430256,-3471,-1692,-550,-169,-234,-88,254,156,-284
2,5430265,-3470,-1693,-554,-164,-236,-91,254,156,-284
2,5430279,-3470,-1693,-554,-164,-236,-91,254,156,-284
2,5430292,-3470,-1690,-556,-161,-237,-89,254,156,-284
2,5430303,-3470,-1691,-555,-162,-237,-90,254,156,-284
2,5430315,-3470,-1691,-555,-162,-237,-90,254,156,-284
2,5430328,-3467,-1691,-552,-156,-237,-90,254,156,-284
2,5430342,-3471,-1695,-549,-165,-246,-83,259,155,-287
2,5430355,-3471,-1695,-549,-165,-246,-83,259,155,-287
2,5430366,-3469,-1697,-548,-164,-242,-83,259,155,-287
2,5430379,-3469,-1697,-548,-164,-242,-83,259,155,-287
2,5430392,-3470,-1696,-554,-162,-237,-86,259,155,-287
2,5430406,-3471,-1694,-554,-172,-235,-83,259,155,-287
2,5430419,-3471,-1694,-554,-172,-235,-83,259,155,-287
2,5430431,-3471,-1695,-557,-167,-237,-83,259,155,-287
2,5430446,-3473,-1692,-554,-163,-239,-86,259,155,-287
2,5430459,-3473,-1692,-554,-163,-239,-86,259,155,-287
2,5430471,-3471,-1692,-546,-164,-236,-89,255,159,-285
2,5430481,-3469,-1694,-550,-162,-236,-88,255,159,-285
2,5430496,-3469,-1694,-550,-162,-236,-88,255,159,-285
2,5430508,-3474,-1691,-555,-162,-247,-85,255,159,-285
2,5430516,-3474,-1691,-555,-162,-247,-85,255,159,-285
2,5430524,-3475,-1692,-554,-162,-244,-84,255,159,-285
2,5430533,-3475,-1692,-554,-162,-244,-84,255,159,-285
2,5430543,-3473,-1693,-557,-163,-241,-86,255,159,-285
2,5430551,-3473,-1693,-557,-163,-241,-86,255,159,-285
2,5430559,-3473,-1693,-557,-163,-241,-86,255,159,-285
2,5430568,-3470,-1692,-557,-163,-235,-94,255,159,-285
2,5430579,-3470,-1692,-557,-163,-235,-94,255,159,-285
2,5430589,-3471,-1696,-554,-164,-238,-90,259,159,-287
2,5430597,-3471,-1696,-554,-164,-238,-90,259,159,-287
2,5430606,-3472,-1691,-550,-162,-239,-87,259,159,-287
2,5430616,-3472,-1691,-550,-162,-239,-87,259,159,-287
2,5430629,-3473,-1694,-556,-166,-233,-87,259,159,-287
2,5430641,-3471,-1695,-557,-164,-235,-83,259,159,-287
2,5430650,-3471,-1695,-557,-164,-235,-83,259,159,-287
2,5430665,-3472,-1692,-554,-160,-237,-87,259,159,-287
2,5430677,-3472,-1692,-554,-160,-237,-87,259,159,-287
2,5430690,-3468,-1692,-556,-159,-242,-84,259,159,-287
2,5430700,-3468,-1692,-556,-159,-242,-84,259,159,-287
2,5430708,-3467,-1693,-550,-167,-236,-82,259,159,-287
2,5430716,-3467,-1693,-550,-167,-236,-82,259,159,-287
2,5430724,-3469,-1691,-554,-162,-242,-84,258,158,-284
2,5430732,-3469,-1691,-554,-162,-242,-84,258,158,-284
2,5430744,-3467,-1693,-556,-162,-247,-86,258,158,-284
2,5430758,-3467,-1693,-556,-162,-247,-86,258,158,-284
2,5430768,-3472,-1696,-553,-164,-239,-82,258,158,-284
2,5430780,-3472,-1696,-553,-164,-239,-82,258,158,-284
2,5430795,-3471,-1694,-552,-159,-237,-84,258,158,-284
2,5430807,-3477,-1693,-557,-159,-237,-91,258,158,-284
2,5430816,-3477,-1693,-557,-159,-237,-91,258,158,-284
2,5430829,-3473,-1695,-552,-165,-237,-90,258,158,-284
2,5430843,-3469,-1693,-552,-160,-244,-85,263,167,-281
2,5430854,-3469,-1693,-552,-160,-244,-85,263,167,-281
2,5430867,-3471,-1694,-552,-152,-231,-85,263,167,-281
2,5430881,-3477,-1690,-553,-157,-237,-83,263,167,-281
2,5430894,-3477,-1690,-553,-157,-237,-83,263,167,-281
2,5430907,-3474,-1693,-549,-161,-246,-85,263,167,-281
2,5430917,-3474,-1693,-549,-161,-246,-85,263,167,-281
2,5430930,-3472,-1690,-561,-164,-239,-85,263,167,-281
2,5430940,-3472,-1690,-561,-164,-239,-85,263,167,-281
2,5430951,-3468,-1693,-558,-160,-233,-77,263,167,-281
2,5430966,-3470,-1693,-551,-159,-235,-87,259,161,-289
2,5430979,-3470,-1693,-551,-159,-235,-87,259,161,-289
2,5430990,-3472,-1695,-558,-168,-235,-83,259,161,-289
2,5431001,-3472,-1695,-558,-168,-235,-83,259,161,-289
2,5431016,-3468,-1695,-550,-165,-238,-86,259,161,-289
2,5431030,-3471,-1693,-559,-159,-235,-86,259,161,-289
2,5431041,-3471,-1693,-559,-159,-235,-86,259,161,-289
2,5431050,-3470,-1693,-558,-159,-238,-87,259,161,-289
2,5431063,-3467,-1694,-551,-159,-243,-86,259,161,-289
2,5431077,-3467,-1694,-551,-159,-243,-86,259,161,-289
2,5431087,-3471,-1693,-548,-163,-237,-85,255,161,-281
2,5431100,-3471,-1693,-548,-163,-237,-85,255,161,-281
2,5431112,-3473,-1692,-551,-153,-234,-84,255,161,-281
2,5431127,-3471,-1691,-556,-160,-242,-84,255,161,-281
2,5431137,-3471,-1691,-556,-160,-242,-84,255,161,-281
2,5431150,-3469,-1695,-557,-162,-232,-85,255,161,-281
2,5431161,-3469,-1694,-550,-161,-245,-85,255,161,-281
2,5431175,-3469,-1694,-550,-161,-245,-85,255,161,-281
2,5431185,-3472,-1694,-555,-163,-241,-87,255,161,-281
2,5431193,-3472,-1694,-555,-163,-241,-87,255,161,-281
2,5431200,-3472,-1694,-555,-163,-241,-87,255,161,-281
2,5431208,-3471,-1694,-546,-158,-237,-88,256,162,-286
2,5431217,-3471,-1694,-546,-158,-237,-88,256,162,-286
2,5431225,-3473,-1693,-553,-165,-239,-89,256,162,-286
2,5431233,-3473,-1693,-553,-165,-239,-89,256,162,-286
2,5431240,-3473,-1693,-553,-165,-239,-89,256,162,-286
2,5431246,-3471,-1691,-553,-159,-233,-87,256,162,-286
2,5431254,-3471,-1691,-553,-159,-233,-87,256,162,-286
2,5431262,-3472,-1691,-552,-157,-232,-75,256,162,-286
2,5431268,-3472,-1691,-552,-157,-232,-75,256,162,-286
2,5431273,-3472,-1691,-552,-157,-232,-75,256,162,-286
2,5431279,-3472,-1691,-552,-157,-232,-75,256,162,-286
2,5431284,-3472,-1692,-549,-158,-233,-79,256,162,-286
2,5431292,-3472,-1692,-549,-158,-233,-79,256,162,-286
2,5431300,-3472,-1692,-549,-158,-233,-79,256,162,-286
2,5431307,-3469,-1690,-558,-165,-241,-85,256,162,-286
2,5431313,-3469,-1690,-558,-165,-241,-85,256,162,-286
2,5431320,-3469,-1690,-558,-165,-241,-85,256,162,-286
2,5431327,-3472,-1692,-554,-163,-245,-86,262,158,-290
2,5431333,-3472,-1692,-554,-163,-245,-86,262,158,-290
2,5431342,-3472,-1692,-554,-163,-245,-86,262,158,-290
2,5431348,-3474,-1694,-552,-164,-245,-80,262,158,-290
2,5431355,-3474,-1694,-552,-164,-245,-80,262,158,-290
2,5431362,-3473,-1696,-548,-158,-239,-84,262,158,-290
2,5431368,-3473,-1696,-548,-158,-239,-84,262,158,-290
2,5431376,-3473,-1696,-548,-158,-239,-84,262,158,-290
2,5431384,-3471,-1693,-554,-163,-242,-87,262,158,-290
2,5431389,-3471,-1693,-554,-163,-242,-87,262,158,-290
2,5431396,-3471,-1693,-554,-163,-242,-87,262,158,-290
2,5431403,-3472,-1693,-557,-159,-238,-89,262,158,-290
2,5431410,-3472,-1693,-557,-159,-238,-89,262,158,-290
2,5431417,-3472,-1693,-557,-159,-238,-89,262,158,-290
2,5431425,-3469,-1692,-552,-159,-241,-88,262,158,-290
2,5431432,-3469,-1692,-552,-159,-241,-88,262,158,-290
2,5431439,-3469,-1692,-552,-159,-241,-88,262,158,-290
2,5431447,-3471,-1694,-558,-159,-242,-91,262,158,-290
2,5431454,-3471,-1694,-558,-159,-242,-91,262,158,-290
2,5431461,-3471,-1694,-558,-159,-242,-91,262,158,-290
2,5431469,-3470,-1694,-551,-161,-235,-79,262,170,-290
2,5431476,-3470,-1694,-551,-161,-235,-79,262,170,-290
2,5431483,-3472,-1693,-557,-163,-234,-84,262,170,-290
2,5431489,-3472,-1693,-557,-163,-234,-84,262,170,-290
2,5431497,-3472,-1693,-557,-163,-234,-84,262,170,-290
2,5431503,-3468,-1691,-556,-167,-241,-92,262,170,-290
2,5431508,-3468,-1691,-556,-167,-241,-92,262,170,-290
2,5431514,-3468,-1691,-556,-167,-241,-92,262,170,-290
2,5431519,-3468,-1691,-556,-167,-241,-92,262,170,-290
2,5431524,-3473,-1692,-556,-171,-246,-91,262,170,-290
2,5431529,-3473,-1692,-556,-171,-246,-91,262,170,-290
2,5431534,-3473,-1692,-556,-171,-246,-91,262,170,-290
2,5431539,-3473,-1692,-556,-171,-246,-91,262,170,-290
2,5431546,-3472,-1690,-552,-166,-239,-83,262,170,-290
2,5431553,-3472,-1690,-552,-166,-239,-83,262,170,-290
2,5431561,-3472,-1690,-552,-166,-239,-83,262,170,-290
2,5431569,-3474,-1694,-560,-164,-238,-79,262,170,-290
2,5431574,-3474,-1694,-560,-164,-238,-79,262,170,-290
2,5431580,-3474,-1694,-560,-164,-238,-79,262,170,-290
2,5431586,-3474,-1693,-552,-161,-237,-89,265,163,-287
2,5431595,-3474,-1693,-552,-161,-237,-89,265,163,-287
2,5431602,-3474,-1693,-552,-161,-237,-89,265,163,-287
2,5431610,-3470,-1693,-555,-160,-236,-89,265,163,-287
2,5431618,-3470,-1693,-555,-160,-236,-89,265,163,-287
2,5431625,-3470,-1690,-552,-157,-234,-86,265,163,-287
2,5431632,-3470,-1690,-552,-157,-234,-86,265,163,-287
2,5431639,-3470,-1690,-552,-157,-234,-86,265,163,-287
2,5431646,-3469,-1694,-555,-160,-232,-85,265,163,-287
2,5431653,-3469,-1694,-555,-160,-232,-85,265,163,-287
2,5431660,-3469,-1694,-555,-160,-232,-85,265,163,-287
2,5431668,-3473,-1694,-558,-164,-239,-90,265,163,-287
2,5431675,-3473,-1694,-558,-164,-239,-90,265,163,-287
2,5431684,-3470,-1697,-560,-165,-246,-93,265,163,-287
2,5431691,-3470,-1697,-560,-165,-246,-93,265,163,-287
2,5431699,-3470,-1697,-560,-165,-246,-93,265,163,-287
2,5431704,-3469,-1692,-553,-167,-241,-83,261,161,-287
2,5431712,-3469,-1692,-553,-167,-241,-83,261,161,-287
2,5431720,-3469,-1692,-553,-167,-241,-83,261,161,-287
2,5431729,-3469,-1691,-552,-164,-240,-82,261,161,-287
2,5431737,-3469,-1691,-552,-164,-240,-82,261,161,-287
2,5431743,-3472,-1694,-558,-160,-237,-80,261,161,-287
2,5431750,-3472,-1694,-558,-160,-237,-80,261,161,-287
2,5431754,-3472,-1694,-558,-160,-237,-80,261,161,-287
2,5431761,-3472,-1694,-558,-160,-237,-80,261,161,-287
2,5431768,-3469,-1693,-550,-155,-232,-86,261,161,-287
2,5431777,-3469,-1693,-550,-155,-232,-86,261,161,-287
2,5431783,-3468,-1695,-550,-162,-235,-84,261,161,-287
2,5431789,-3468,-1695,-550,-162,-235,-84,261,161,-287
2,5431795,-3468,-1695,-550,-162,-235,-84,261,161,-287
2,5431801,-3468,-1695,-550,-162,-235,-84,261,161,-287
2,5431806,-3470,-1693,-554,-164,-237,-82,261,161,-287
2,5431814,-3470,-1693,-554,-164,-237,-82,261,161,-287
2,5431821,-3470,-1693,-554,-164,-237,-82,261,161,-287
2,5431828,-3475,-1693,-550,-161,-239,-84,268,156,-284
2,5431835,-3475,-1693,-550,-161,-239,-84,268,156,-284
2,5431842,-3475,-1693,-550,-161,-239,-84,268,156,-284
2,5431848,-3474,-1694,-547,-161,-230,-82,268,156,-284
2,5431855,-3474,-1694,-547,-161,-230,-82,268,156,-284
2,5431862,-3474,-1696,-550,-158,-240,-86,268,156,-284
2,5431870,-3474,-1696,-550,-158,-240,-86,268,156,-284
2,5431878,-3474,-1696,-550,-158,-240,-86,268,156,-284
2,5431885,-3473,-1692,-552,-168,-242,-86,268,156,-284
2,5431892,-3473,-1692,-552,-168,-242,-86,268,156,-284
2,5431900,-3473,-1692,-552,-168,-242,-86,268,156,-284
2,5431908,-3469,-1694,-554,-166,-238,-86,268,156,-284
2,5431915,-3469,-1694,-554,-166,-238,-86,268,156,-284
2,5431921,-3469,-1694,-554,-166,-238,-86,268,156,-284
2,5431929,-3472,-1693,-549,-165,-236,-86,268,156,-284
2,5431937,-3472,-1693,-549,-165,-236,-86,268,156,-284
2,5431945,-3469,-1690,-553,-157,-237,-86,262,164,-284
2,5431953,-3469,-1690,-553,-157,-237,-86,262,164,-284
2,5431960,-3469,-1690,-553,-157,-237,-86,262,164,-284
2,5431967,-3472,-1691,-553,-164,-243,-80,262,164,-284
2,5431974,-3472,-1691,-553,-164,-243,-80,262,164,-284
2,5431982,-3472,-1691,-553,-164,-243,-80,262,164,-284
2,5431987,-3473,-1695,-552,-162,-243,-82,262,164,-284
2,5431995,-3473,-1695,-552,-162,-243,-82,262,164,-284
2,5432002,-3471,-1692,-555,-162,-238,-89,262,164,-284
2,5432009,-3471,-1692,-555,-162,-238,-89,262,164,-284
2,5432017,-3471,-1692,-555,-162,-238,-89,262,164,-284
2,5432026,-3467,-1693,-553,-157,-241,-86,262,164,-284
2,5432032,-3467,-1693,-553,-157,-241,-86,262,164,-284
2,5432038,-3467,-1693,-553,-157,-241,-86,262,164,-284
2,5432044,-3470,-1695,-557,-164,-242,-85,262,164,-284
2,5432051,-3470,-1695,-557,-164,-242,-85,262,164,-284
2,5432056,-3470,-1695,-557,-164,-242,-85,262,164,-284
2,5432062,-3470,-1692,-554,-163,-235,-87,262,164,-284
2,5432069,-3470,-1692,-554,-163,-235,-87,262,164,-284
2,5432076,-3470,-1692,-554,-163,-235,-87,262,164,-284
2,5432083,-3471,-1694,-550,-167,-234,-81,258,160,-282
2,5432089,-3471,-1694,-550,-167,-234,-81,258,160,-282
2,5432096,-3471,-1694,-550,-167,-234,-81,258,160,-282
2,5432104,-3471,-1693,-551,-169,-233,-85,258,160,-282
2,5432112,-3471,-1693,-551,-169,-233,-85,258,160,-282
2,5432119,-3471,-1693,-551,-169,-233,-85,258,160,-282
2,5432126,-3470,-1690,-551,-157,-237,-90,258,160,-282
2,5432132,-3470,-1690,-551,-157,-237,-90,258,160,-282
2,5432139,-3470,-1690,-551,-157,-237,-90,258,160,-282
2,5432146,-3475,-1693,-555,-164,-234,-83,258,160,-282
2,5432154,-3475,-1693,-555,-164,-234,-83,258,160,-282
2,5432160,-3475,-1693,-555,-164,-234,-83,258,160,-282
2,5432165,-3471,-1697,-554,-169,-246,-87,258,160,-282
2,5432172,-3471,-1697,-554,-169,-246,-87,258,160,-282
2,5432179,-3471,-1697,-554,-169,-246,-87,258,160,-282
2,5432186,-3472,-1692,-557,-172,-239,-88,258,160,-282
2,5432193,-3472,-1692,-557,-172,-239,-88,258,160,-282
2,5432202,-3472,-1692,-557,-172,-239,-88,258,160,-282
2,5432210,-3472,-1695,-548,-167,-236,-92,266,166,-282
2,5432218,-3472,-1695,-548,-167,-236,-92,266,166,-282
2,5432227,-3471,-1693,-551,-165,-235,-85,266,166,-282
2,5432241,-3471,-1693,-551,-165,-235,-85,266,166,-282
2,5432255,-3472,-1694,-551,-163,-239,-82,266,166,-282
2,5432267,-3471,-1694,-552,-163,-246,-84,266,166,-282
2,5432281,-3471,-1694,-552,-163,-246,-84,266,166,-282
2,5432294,-3474,-1690,-557,-166,-246,-82,266,166,-282
2,5432306,-3469,-1692,-558,-158,-244,-81,266,166,-282
2,5432318,-3469,-1692,-558,-158,-244,-81,266,166,-282
2,5432327,-3472,-1692,-552,-167,-244,-77,257,161,-293
2,5432339,-3472,-1692,-552,-167,-244,-77,257,161,-293
2,5432352,-3472,-1694,-553,-171,-241,-86,257,161,-293
2,5432366,-3471,-1691,-555,-164,-240,-88,257,161,-293
2,5432376,-3471,-1691,-555,-164,-240,-88,257,161,-293
2,5432389,-3472,-1690,-552,-170,-240,-87,257,161,-293
2,5432402,-3470,-1691,-558,-163,-238,-84,257,161,-293
2,5432416,-3470,-1691,-558,-163,-238,-84,257,161,-293
2,5432426,-3469,-1692,-554,-159,-241,-84,257,161,-293
2,5432439,-3469,-1692,-554,-159,-241,-84,257,161,-293
2,5432454,-3474,-1692,-552,-158,-239,-87,265,159,-283
2,5432468,-3471,-1694,-553,-163,-239,-79,265,159,-283
2,5432477,-3471,-1694,-553,-163,-239,-79,265,159,-283
2,5432489,-3471,-1692,-553,-165,-228,-88,265,159,-283
2,5432504,-3471,-1692,-551,-157,-234,-82,265,159,-283
2,5432512,-3471,-1692,-551,-157,-234,-82,265,159,-283
2,5432520,-3471,-1692,-551,-157,-234,-82,265,159,-283
2,5432528,-3471,-1695,-556,-163,-240,-84,265,159,-283
2,5432537,-3471,-1695,-556,-163,-240,-84,265,159,-283
2,5432546,-3470,-1691,-555,-160,-242,-76,265,159,-283
2,5432557,-3470,-1691,-555,-160,-242,-76,265,159,-283
2,5432570,-3470,-1691,-552,-164,-238,-87,255,161,-285
2,5432585,-3473,-1692,-553,-164,-243,-89,255,161,-285
2,5432594,-3473,-1692,-553,-164,-243,-89,255,161,-285
2,5432607,-3473,-1692,-555,-162,-249,-82,255,161,-285
2,5432622,-3473,-1692,-555,-162,-249,-82,255,161,-285
2,5432635,-3473,-1693,-553,-168,-238,-79,255,161,-285
2,5432644,-3470,-1695,-554,-166,-235,-79,255,161,-285
2,5432657,-3470,-1695,-554,-166,-235,-79,255,161,-285
2,5432672,-3472,-1693,-551,-166,-247,-90,255,161,-285
2,5432686,-3470,-1690,-556,-157,-245,-84,255,161,-285
2,5432695,-3470,-1690,-556,-157,-245,-84,255,161,-285
2,5432708,-3470,-1692,-552,-163,-238,-87,255,161,-287
2,5432722,-3470,-1692,-552,-163,-238,-87,255,161,-287
2,5432735,-3474,-1692,-556,-157,-243,-86,255,161,-287
2,5432745,-3473,-1691,-553,-161,-245,-84,255,161,-287
2,5432759,-3473,-1691,-553,-161,-245,-84,255,161,-287
2,5432771,-3475,-1692,-555,-155,-231,-89,255,161,-287
2,5432784,-3475,-1692,-556,-156,-237,-86,255,161,-287
2,5432795,-3475,-1692,-556,-156,-237,-86,255,161,-287
2,5432807,-3472,-1694,-554,-162,-235,-87,255,161,-287
2,5432815,-3472,-1694,-554,-162,-235,-87,255,161,-287
2,5432824,-3471,-1693,-549,-163,-240,-83,264,156,-294
2,5432834,-3471,-1693,-549,-163,-240,-83,264,156,-294
2,5432841,-3471,-1693,-549,-163,-240,-83,264,156,-294
2,5432849,-3471,-1695,-553,-160,-240,-88,264,156,-294
2,5432859,-3471,-1695,-553,-160,-240,-88,264,156,-294
2,5432870,-3472,-1691,-555,-165,-239,-91,264,156,-294
2,5432883,-3473,-1693,-550,-162,-243,-81,264,156,-294
2,5432896,-3473,-1693,-550,-162,-243,-81,264,156,-294
2,5432910,-3471,-1693,-550,-165,-245,-85,264,156,-294
2,5432923,-3472,-1698,-556,-160,-244,-94,264,156,-294
2,5432937,-3472,-1698,-556,-160,-244,-94,264,156,-294
2,5432949,-3470,-1695,-551,-157,-233,-87,262,160,-290
2,5432962,-3470,-1695,-551,-157,-233,-87,262,160,-290
2,5432975,-3474,-1695,-556,-162,-233,-85,262,160,-290
2,5432986,-3471,-1694,-558,-166,-240,-85,262,160,-290
2,5432998,-3471,-1694,-558,-166,-240,-85,262,160,-290
2,5433011,-3469,-1692,-551,-161,-244,-82,262,160,-290
2,5433025,-3469,-1693,-549,-160,-235,-87,262,160,-290
2,5433038,-3469,-1693,-549,-160,-235,-87,262,160,-290
2,5433048,-3472,-1689,-556,-168,-243,-85,262,160,-290
2,5433060,-3472,-1689,-556,-168,-243,-85,262,160,-290
2,5433073,-3472,-1694,-554,-161,-242,-85,254,158,-292
2,5433086,-3471,-1692,-551,-162,-241,-85,254,158,-292
2,5433097,-3471,-1692,-551,-162,-241,-85,254,158,-292
2,5433109,-3471,-1692,-552,-163,-236,-87,254,158,-292
2,5433123,-3471,-1688,-556,-163,-238,-88,254,158,-292
2,5433138,-3471,-1688,-556,-163,-238,-88,254,158,-292
2,5433147,-3474,-1691,-553,-164,-245,-83,254,158,-292
2,5433160,-3474,-1691,-553,-164,-245,-83,254,158,-292
2,5433174,-3471,-1693,-559,-165,-238,-83,254,158,-292
2,5433187,-3472,-1692,-554,-166,-237,-78,261,155,-291
2,5433197,-3472,-1692,-554,-166,-237,-78,261,155,-291
2,5433207,-3466,-1690,-554,-167,-248,-81,261,155,-291
2,5433214,-3466,-1690,-554,-167,-248,-81,261,155,-291
2,5433220,-3466,-1690,-554,-167,-248,-81,261,155,-291
2,5433226,-3472,-1693,-553,-163,-243,-84,261,155,-291
2,5433233,-3472,-1693,-553,-163,-243,-84,261,155,-291
2,5433239,-3472,-1693,-553,-163,-243,-84,261,155,-291
2,5433245,-3472,-1693,-558,-163,-243,-84,261,155,-291
2,5433252,-3472,-1693,-558,-163,-243,-84,261,155,-291
2,5433260,-3472,-1693,-558,-163,-243,-84,261,155,-291
2,5433267,-3469,-1695,-556,-163,-242,-89,261,155,-291
2,5433274,-3469,-1695,-556,-163,-242,-89,261,155,-291
2,5433281,-3469,-1695,-556,-163,-242,-89,261,155,-291
2,5433288,-3469,-1694,-557,-171,-236,-92,261,155,-291
2,5433294,-3469,-1694,-557,-171,-236,-92,261,155,-291
2,5433302,-3469,-1694,-557,-171,-236,-92,261,155,-291
2,5433309,-3471,-1693,-553,-166,-239,-95,261,155,-291
2,5433315,-3471,-1693,-553,-166,-239,-95,261,155,-291
2,5433323,-3471,-1693,-553,-166,-239,-95,261,155,-291
2,5433328,-3471,-1692,-551,-163,-243,-83,267,165,-289
2,5433336,-3471,-1692,-551,-163,-243,-83,267,165,-289
2,5433344,-3472,-1691,-550,-157,-247,-91,267,165,-289
2,5433351,-3472,-1691,-550,-157,-247,-91,267,165,-289
2,5433357,-3472,-1691,-550,-157,-247,-91,267,165,-289
2,5433365,-3472,-1694,-555,-161,-241,-89,267,165,-289
2,5433371,-3472,-1694,-555,-161,-241,-89,267,165,-289
2,5433377,-3472,-1694,-555,-161,-241,-89,267,165,-289
2,5433383,-3473,-1694,-552,-165,-240,-85,267,165,-289
2,5433390,-3473,-1694,-552,-165,-240,-85,267,165,-289
2,5433395,-3473,-1694,-552,-165,-240,-85,267,165,-289
2,5433401,-3473,-1694,-552,-165,-240,-85,267,165,-289
2,5433409,-3472,-1691,-553,-157,-241,-85,267,165,-289
2,5433416,-3472,-1691,-553,-157,-241,-85,267,165,-289
2,5433423,-3472,-1691,-553,-157,-241,-85,267,165,-289
2,5433430,-3473,-1689,-560,-169,-238,-81,267,165,-289
2,5433437,-3473,-1689,-560,-169,-238,-81,267,165,-289
2,5433444,-3470,-1691,-552,-164,-234,-84,267,165,-289
2,5433450,-3470,-1691,-552,-164,-234,-84,263,161,-283
2,5433457,-3470,-1691,-552,-164,-234,-84,263,161,-283
2,5433462,-3470,-1691,-552,-164,-234,-84,263,161,-283
2,5433470,-3470,-1692,-553,-153,-247,-81,263,161,-283
2,5433479,-3470,-1692,-553,-153,-247,-81,263,161,-283
2,5433486,-3465,-1692,-553,-159,-244,-81,263,161,-283
2,5433494,-3465,-1692,-553,-159,-244,-81,263,161,-283
2,5433501,-3465,-1692,-553,-159,-244,-81,263,161,-283
2,5433508,-3472,-1691,-555,-161,-244,-85,263,161,-283
2,5433515,-3472,-1691,-555,-161,-244,-85,263,161,-283
2,5433520,-3472,-1691,-555,-161,-244,-85,263,161,-283
2,5433525,-3473,-1692,-550,-159,-247,-84,263,161,-283
2,5433530,-3473,-1692,-550,-159,-247,-84,263,161,-283
2,5433536,-3473,-1692,-550,-159,-247,-84,263,161,-283
2,5433543,-3473,-1692,-550,-159,-247,-84,263,161,-283
2,5433550,-3473,-1693,-557,-159,-240,-83,263,161,-283
2,5433558,-3473,-1693,-557,-159,-240,-83,263,161,-283
2,5433566,-3474,-1692,-554,-159,-247,-84,259,161,-289
2,5433573,-3474,-1692,-554,-159,-247,-84,259,161,-289
2,5433579,-3474,-1692,-554,-159,-247,-84,259,161,-289
2,5433587,-3469,-1691,-553,-158,-243,-87,259,161,-289
2,5433594,-3469,-1691,-553,-158,-243,-87,259,161,-289
2,5433602,-3469,-1691,-553,-158,-243,-87,259,161,-289
2,5433608,-3469,-1690,-554,-160,-243,-87,259,161,-289
2,5433616,-3469,-1690,-554,-160,-243,-87,259,161,-289
2,5433623,-3469,-1690,-554,-160,-243,-87,259,161,-289
2,5433631,-3473,-1692,-552,-165,-237,-90,259,161,-289
2,5433639,-3473,-1692,-552,-165,-237,-90,259,161,-289
2,5433647,-3471,-1694,-554,-169,-243,-92,259,161,-289
2,5433654,-3471,-1694,-554,-169,-243,-92,259,161,-289
2,5433661,-3471,-1694,-554,-169,-243,-92,259,161,-289
2,5433666,-3473,-1693,-556,-161,-249,-90,259,161,-289
2,5433673,-3473,-1693,-556,-161,-249,-90,259,161,-289
2,5433680,-3473,-1693,-556,-161,-249,-90,259,161,-289
2,5433688,-3472,-1691,-557,-165,-244,-86,267,161,-287
2,5433696,-3472,-1691,-557,-165,-244,-86,267,161,-287
2,5433704,-3470,-1696,-553,-162,-244,-88,267,161,-287
2,5433711,-3470,-1696,-553,-162,-244,-88,267,161,-287
2,5433718,-3470,-1696,-553,-162,-244,-88,267,161,-287
2,5433724,-3472,-1691,-555,-166,-241,-91,267,161,-287
2,5433733,-3472,-1691,-555,-166,-241,-91,267,161,-287
2,5433740,-3472,-1691,-555,-166,-241,-91,267,161,-287
2,5433746,-3471,-1692,-554,-160,-234,-83,267,161,-287
2,5433752,-3471,-1692,-554,-160,-234,-83,267,161,-287
2,5433759,-3471,-1692,-554,-160,-234,-83,267,161,-287
2,5433764,-3472,-1689,-554,-151,-237,-83,267,161,-287
2,5433772,-3472,-1689,-554,-151,-237,-83,267,161,-287
2,5433779,-3472,-1689,-554,-151,-237,-83,267,161,-287
2,5433785,-3472,-1692,-555,-154,-237,-78,267,161,-287
2,5433792,-3472,-1692,-555,-154,-237,-78,267,161,-287
2,5433800,-3472,-1692,-555,-154,-237,-78,267,161,-287
2,5433805,-3473,-1693,-547,-161,-231,-81,257,157,-285
2,5433812,-3473,-1693,-547,-161,-231,-81,257,157,-285
2,5433818,-3473,-1693,-547,-161,-231,-81,257,157,-285
2,5433826,-3474,-1691,-551,-159,-241,-90,257,157,-285
2,5433832,-3474,-1691,-551,-159,-241,-90,257,157,-285
2,5433839,-3474,-1691,-551,-159,-241,-90,257,157,-285
2,5433847,-3471,-1690,-551,-160,-236,-91,257,157,-285
2,5433856,-3471,-1690,-551,-160,-236,-91,257,157,-285
2,5433862,-3471,-1690,-551,-160,-236,-91,257,157,-285
2,5433869,-3471,-1691,-551,-164,-245,-86,257,157,-285
2,5433875,-3471,-1691,-551,-164,-245,-86,257,157,-285
2,5433881,-3471,-1691,-551,-164,-245,-86,257,157,-285
2,5433889,-3471,-1693,-554,-162,-241,-87,257,157,-285
2,5433896,-3471,-1693,-554,-162,-241,-87,257,157,-285
2,5433904,-3471,-1693,-554,-162,-241,-87,257,157,-285
2,5433911,-3468,-1691,-556,-161,-243,-81,257,157,-285
2,5433916,-3468,-1691,-556,-161,-243,-81,257,157,-285
2,5433923,-3468,-1691,-556,-161,-243,-81,257,157,-285
2,5433931,-3471,-1695,-561,-166,-240,-83,257,157,-285
2,5433938,-3471,-1695,-561,-166,-240,-83,257,157,-285
2,5433946,-3473,-1693,-553,-162,-241,-88,258,160,-282
2,5433953,-3473,-1693,-553,-162,-241,-88,258,160,-282
2,5433959,-3473,-1693,-553,-162,-241,-88,258,160,-282
2,5433965,-3469,-1693,-553,-158,-239,-81,258,160,-282
2,5433973,-3469,-1693,-553,-158,-239,-81,258,160,-282
2,5433980,-3469,-1693,-553,-158,-239,-81,258,160,-282
2,5433987,-3474,-1693,-553,-166,-240,-80,258,160,-282
2,5433993,-3474,-1693,-553,-166,-240,-80,258,160,-282
2,5434001,-3474,-1693,-553,-166,-240,-80,258,160,-282
2,5434009,-3469,-1693,-550,-161,-245,-81,258,160,-282
2,5434015,-3469,-1693,-550,-161,-245,-81,258,160,-282
2,5434022,-3469,-1693,-550,-161,-245,-81,258,160,-282
2,5434029,-3470,-1694,-553,-169,-241,-83,258,160,-282
2,5434036,-3470,-1694,-553,-169,-241,-83,258,160,-282
2,5434043,-3470,-1694,-553,-169,-241,-83,258,160,-282
2,5434049,-3471,-1692,-554,-168,-242,-83,258,160,-282
2,5434057,-3471,-1692,-554,-168,-242,-83,258,160,-282
2,5434064,-3471,-1693,-552,-164,-240,-84,258,160,-282
2,5434073,-3471,-1693,-552,-164,-240,-84,262,162,-284
2,5434079,-3471,-1693,-552,-164,-240,-84,262,162,-284
2,5434084,-3473,-1694,-550,-164,-241,-90,262,162,-284
2,5434091,-3473,-1694,-550,-164,-241,-90,262,162,-284
2,5434099,-3473,-1694,-550,-164,-241,-90,262,162,-284
2,5434107,-3471,-1693,-551,-160,-242,-91,262,162,-284
2,5434116,-3471,-1693,-551,-160,-242,-91,262,162,-284
2,5434122,-3471,-1693,-551,-160,-242,-91,262,162,-284
2,5434129,-3468,-1690,-558,-162,-237,-84,262,162,-284
2,5434137,-3468,-1690,-558,-162,-237,-84,262,162,-284
2,5434143,-3468,-1690,-558,-162,-237,-84,262,162,-284
2,5434149,-3470,-1691,-554,-165,-240,-88,262,162,-284
2,5434157,-3470,-1691,-554,-165,-240,-88,262,162,-284
2,5434165,-3471,-1690,-552,-166,-239,-88,262,162,-284
2,5434172,-3471,-1690,-552,-166,-239,-88,262,162,-284
2,5434178,-3471,-1690,-552,-166,-239,-88,262,162,-284
2,5434183,-3471,-1690,-552,-166,-239,-88,262,162,-284
2,5434191,-3474,-1691,-548,-166,-248,-91,255,161,-285
2,5434199,-3474,-1691,-548,-166,-248,-91,255,161,-285
2,5434207,-3472,-1691,-552,-163,-248,-84,255,161,-285
2,5434218,-3472,-1691,-552,-163,-248,-84,255,161,-285
2,5434232,-3469,-1693,-554,-157,-238,-79,255,161,-285
2,5434245,-3472,-1694,-557,-157,-234,-78,255,161,-285
2,5434254,-3472,-1694,-557,-157,-234,-78,255,161,-285
2,5434266,-3471,-1691,-558,-164,-238,-83,255,161,-285
2,5434279,-3471,-1691,-558,-164,-238,-83,255,161,-285
2,5434294,-3471,-1692,-555,-171,-249,-89,255,161,-285
2,5434303,-3471,-1692,-555,-171,-249,-89,255,161,-285
2,5434316,-3468,-1695,-551,-165,-236,-82,265,155,-283
2,5434330,-3471,-1693,-553,-160,-235,-75,265,155,-283
2,5434343,-3471,-1693,-553,-160,-235,-75,265,155,-283
2,5434352,-3473,-1694,-555,-157,-247,-85,265,155,-283
2,5434366,-3471,-1694,-547,-162,-241,-87,265,155,-283
2,5434380,-3471,-1694,-547,-162,-241,-87,265,155,-283
2,5434392,-3471,-1693,-553,-169,-241,-83,265,155,-283
2,5434402,-3471,-1693,-553,-169,-241,-83,265,155,-283
2,5434416,-3472,-1695,-549,-169,-242,-84,265,155,-283
2,5434428,-3468,-1692,-551,-168,-247,-82,257,159,-293
2,5434441,-3468,-1692,-551,-168,-247,-82,257,159,-293
2,5434449,-3469,-1694,-555,-162,-242,-83,257,159,-293
2,5434458,-3469,-1694,-555,-162,-242,-83,257,159,-293
2,5434466,-3472,-1694,-553,-162,-238,-90,257,159,-293
2,5434474,-3472,-1694,-553,-162,-238,-90,257,159,-293
2,5434481,-3472,-1694,-553,-162,-238,-90,257,159,-293
2,5434497,-3471,-1691,-552,-164,-244,-90,257,159,-293
2,5434508,-3467,-1693,-558,-164,-239,-88,257,159,-293
2,5434516,-3467,-1693,-558,-164,-239,-88,257,159,-293
2,5434524,-3467,-1693,-558,-164,-239,-88,257,159,-293
2,5434531,-3470,-1692,-551,-161,-237,-81,257,159,-293
2,5434546,-3470,-1695,-555,-158,-238,-84,257,159,-293
2,5434558,-3470,-1695,-555,-158,-238,-84,257,159,-293
2,5434571,-3472,-1691,-556,-159,-238,-85,256,160,-284
2,5434585,-3470,-1694,-548,-157,-239,-85,256,160,-284
2,5434598,-3470,-1694,-548,-157,-239,-85,256,160,-284
2,5434610,-3469,-1690,-558,-157,-235,-90,256,160,-284
2,5434622,-3469,-1690,-558,-157,-235,-90,256,160,-284
2,5434636,-3472,-1693,-553,-161,-239,-93,256,160,-284
2,5434649,-3471,-1691,-553,-166,-241,-87,256,160,-284
2,5434658,-3471,-1691,-553,-166,-241,-87,256,160,-284
2,5434669,-3475,-1692,-558,-167,-238,-92,256,160,-284
2,5434684,-3475,-1692,-558,-167,-238,-92,256,160,-284
2,5434696,-3470,-1691,-555,-164,-236,-88,263,163,-285
2,5434705,-3472,-1695,-550,-163,-238,-85,263,163,-285
2,5434718,-3472,-1695,-550,-163,-238,-85,263,163,-285
2,5434733,-3471,-1694,-551,-163,-244,-88,263,163,-285
2,5434747,-3471,-1693,-548,-162,-233,-85,263,163,-285
2,5434756,-3471,-1693,-548,-162,-233,-85,263,163,-285
2,5434769,-3474,-1693,-551,-158,-232,-88,263,163,-285
2,5434782,-3474,-1693,-551,-158,-232,-88,263,163,-285
2,5434797,-3473,-1697,-553,-161,-229,-88,263,163,-285
2,5434807,-3472,-1691,-550,-162,-236,-85,264,170,-290
2,5434819,-3472,-1691,-550,-162,-236,-85,264,170,-290
2,5434833,-3473,-1692,-554,-166,-245,-85,264,170,-290
2,5434849,-3475,-1691,-561,-161,-236,-86,264,170,-290
2,5434858,-3475,-1691,-561,-161,-236,-86,264,170,-290
2,5434870,-3476,-1694,-555,-164,-240,-90,264,170,-290
2,5434883,-3476,-1694,-555,-164,-240,-90,264,170,-290
2,5434896,-3473,-1693,-558,-161,-238,-93,264,170,-290
2,5434908,-3473,-1691,-552,-163,-237,-90,264,170,-290
2,5434921,-3473,-1691,-552,-163,-237,-90,264,170,-290
2,5434934,-3474,-1691,-550,-168,-241,-89,261,165,-291
2,5434949,-3476,-1692,-554,-167,-242,-90,261,165,-291
2,5434962,-3476,-1692,-554,-167,-242,-90,261,165,-291
2,5434973,-3469,-1691,-556,-163,-245,-90,261,165,-291
2,5434986,-3472,-1692,-554,-167,-237,-92,261,165,-291
2,5435001,-3472,-1692,-554,-167,-237,-92,261,165,-291
2,5435015,-3473,-1693,-557,-163,-241,-87,261,165,-291
2,5435024,-3473,-1693,-557,-163,-241,-87,261,165,-291
2,5435036,-3467,-1692,-555,-162,-246,-85,261,165,-291
2,5435049,-3468,-1693,-557,-170,-241,-85,258,166,-294
2,5435063,-3468,-1693,-557,-170,-241,-85,258,166,-294
2,5435074,-3471,-1692,-548,-169,-243,-83,258,166,-294
2,5435084,-3471,-1692,-548,-169,-243,-83,258,166,-294
2,5435092,-3471,-1695,-550,-171,-245,-87,258,166,-294
2,5435101,-3471,-1695,-550,-171,-245,-87,258,166,-294
2,5435109,-3473,-1695,-553,-171,-245,-79,258,166,-294
2,5435117,-3473,-1695,-553,-171,-245,-79,258,166,-294
2,5435130,-3473,-1691,-559,-168,-241,-87,258,166,-294
2,5435140,-3473,-1691,-559,-168,-241,-87,258,166,-294
2,5435152,-3470,-1693,-553,-168,-240,-82,258,166,-294
2,5435162,-3470,-1693,-553,-168,-240,-82,258,166,-294
2,5435173,-3470,-1697,-551,-159,-236,-82,258,166,-294
2,5435188,-3469,-1690,-551,-165,-243,-85,258,166,-294
2,5435200,-3469,-1690,-551,-165,-243,-85,258,166,-294
2,5435213,-3472,-1693,-552,-169,-252,-90,258,166,-294
2,5435223,-3472,-1693,-552,-169,-252,-90,258,166,-294
2,5435230,-3471,-1694,-551,-165,-252,-91,258,166,-294
2,5435237,-3471,-1694,-551,-165,-252,-91,258,166,-294
2,5435242,-3471,-1694,-551,-165,-252,-91,258,166,-294
2,5435250,-3473,-1695,-554,-168,-240,-80,258,166,-294
2,5435257,-3473,-1695,-554,-168,-240,-80,258,166,-294
2,5435266,-3473,-1695,-554,-168,-240,-80,258,166,-294
2,5435272,-3472,-1692,-553,-171,-242,-85,258,166,-294
2,5435279,-3472,-1692,-553,-171,-242,-85,258,166,-294
2,5435285,-3472,-1693,-557,-172,-249,-88,258,166,-294
2,5435292,-3472,-1693,-557,-172,-249,-88,258,166,-294
2,5435298,-3472,-1693,-557,-172,-249,-88,258,166,-294
2,5435307,-3470,-1693,-548,-163,-241,-93,267,163,-281
2,5435314,-3470,-1693,-548,-163,-241,-93,267,163,-281
2,5435320,-3470,-1693,-548,-163,-241,-93,267,163,-281
2,5435326,-3472,-1693,-547,-162,-240,-84,267,163,-281
2,5435332,-3472,-1693,-547,-162,-240,-84,267,163,-281
2,5435339,-3472,-1693,-547,-162,-240,-84,267,163,-281
2,5435346,-3471,-1693,-552,-164,-239,-89,267,163,-281
2,5435355,-3471,-1693,-552,-164,-239,-89,267,163,-281
2,5435362,-3471,-1693,-552,-164,-239,-89,267,163,-281
2,5435369,-3472,-1692,-556,-163,-240,-88,267,163,-281
2,5435376,-3472,-1692,-556,-163,-240,-88,267,163,-281
2,5435384,-3472,-1692,-556,-163,-240,-88,267,163,-281
2,5435389,-3472,-1695,-555,-160,-245,-87,267,163,-281
2,5435399,-3472,-1695,-555,-160,-245,-87,267,163,-281
2,5435406,-3472,-1695,-556,-171,-240,-88,267,163,-281
2,5435413,-3472,-1695,-556,-171,-240,-88,267,163,-281
2,5435419,-3472,-1695,-556,-171,-240,-88,267,163,-281
2,5435427,-3472,-1693,-555,-165,-245,-81,260,164,-290
2,5435435,-3472,-1693,-555,-165,-245,-81,260,164,-290
2,5435441,-3472,-1693,-555,-165,-245,-81,260,164,-290
2,5435448,-3472,-1693,-554,-159,-247,-82,260,164,-290
2,5435455,-3472,-1693,-554,-159,-247,-82,260,164,-290
2,5435463,-3472,-1693,-554,-159,-247,-82,260,164,-290
2,5435470,-3471,-1691,-557,-160,-241,-81,260,164,-290
2,5435475,-3471,-1691,-557,-160,-241,-81,260,164,-290
2,5435484,-3471,-1691,-557,-160,-241,-81,260,164,-290
2,5435491,-3470,-1691,-553,-158,-247,-85,260,164,-290
2,5435497,-3470,-1691,-553,-158,-247,-85,260,164,-290
2,5435504,-3470,-1691,-553,-158,-247,-85,260,164,-290
2,5435509,-3473,-1693,-558,-158,-241,-87,260,164,-290
2,5435514,-3473,-1693,-558,-158,-241,-87,260,164,-290
2,5435520,-3473,-1693,-558,-158,-241,-87,260,164,-290
2,5435525,-3473,-1693,-558,-158,-241,-87,260,164,-290
2,5435530,-3472,-1691,-550,-160,-244,-86,260,164,-290
2,5435535,-3472,-1691,-550,-160,-244,-86,260,164,-290
2,5435543,-3472,-1691,-550,-160,-244,-86,260,164,-290
2,5435550,-3472,-1690,-555,-165,-240,-82,257,165,-285
2,5435556,-3472,-1690,-555,-165,-240,-82,257,165,-285
2,5435564,-3472,-1690,-555,-165,-240,-82,257,165,-285
2,5435570,-3472,-1697,-552,-160,-237,-84,257,165,-285
2,5435576,-3472,-1697,-552,-160,-237,-84,257,165,-285
2,5435583,-3472,-1697,-552,-160,-237,-84,257,165,-285
2,5435589,-3472,-1691,-553,-165,-238,-85,257,165,-285
2,5435595,-3472,-1691,-553,-165,-238,-85,257,165,-285
2,5435600,-3472,-1691,-553,-165,-238,-85,257,165,-285
2,5435606,-3467,-1692,-555,-160,-243,-81,257,165,-285
2,5435612,-3467,-1692,-555,-160,-243,-81,257,165,-285
2,5435620,-3467,-1692,-555,-160,-243,-81,257,165,-285
2,5435627,-3470,-1694,-555,-161,-244,-83,257,165,-285
2,5435634,-3470,-1694,-555,-161,-244,-83,257,165,-285
2,5435642,-3470,-1694,-555,-161,-244,-83,257,165,-285
2,5435650,-3474,-1694,-556,-166,-244,-85,257,165,-285
2,5435656,-3474,-1694,-556,-166,-244,-85,257,165,-285
2,5435663,-3474,-1694,-556,-166,-244,-85,257,165,-285
2,5435669,-3469,-1690,-550,-162,-244,-88,262,164,-282
2,5435675,-3469,-1690,-550,-162,-244,-88,262,164,-282
2,5435683,-3469,-1690,-550,-162,-244,-88,262,164,-282
2,5435691,-3469,-1693,-547,-161,-237,-85,262,164,-282
2,5435698,-3469,-1693,-547,-161,-237,-85,262,164,-282
2,5435704,-3469,-1693,-547,-161,-237,-85,262,164,-282
2,5435711,-3472,-1694,-553,-160,-236,-92,262,164,-282
2,5435717,-3472,-1694,-553,-160,-236,-92,262,164,-282
2,5435724,-3472,-1694,-553,-160,-236,-92,262,164,-282
2,5435732,-3471,-1695,-554,-161,-239,-83,262,164,-282
2,5435740,-3471,-1695,-554,-161,-239,-83,262,164,-282
2,5435748,-3473,-1691,-556,-161,-246,-85,262,164,-282
2,5435755,-3473,-1691,-556,-161,-246,-85,262,164,-282
2,5435761,-3473,-1691,-556,-161,-246,-85,262,164,-282
2,5435768,-3472,-1692,-551,-165,-249,-90,262,164,-282
2,5435774,-3472,-1692,-551,-165,-249,-90,262,164,-282
2,5435782,-3472,-1692,-551,-165,-249,-90,262,164,-282
2,5435791,-3471,-1692,-555,-163,-242,-86,263,165,-285
2,5435798,-3471,-1692,-555,-163,-242,-86,263,165,-285
2,5435805,-3471,-1692,-555,-163,-242,-86,263,165,-285
2,5435811,-3470,-1690,-549,-161,-243,-86,263,165,-285
2,5435819,-3470,-1690,-549,-161,-243,-86,263,165,-285
2,5435826,-3470,-1690,-549,-161,-243,-86,263,165,-285
2,5435834,-3468,-1693,-550,-157,-250,-92,263,165,-285
2,5435839,-3468,-1693,-550,-157,-250,-92,263,165,-285
2,5435845,-3468,-1693,-550,-157,-250,-92,263,165,-285
2,5435852,-3471,-1691,-552,-163,-249,-88,263,165,-285
2,5435860,-3471,-1691,-552,-163,-249,-88,263,165,-285
2,5435867,-3475,-1691,-553,-163,-251,-90,263,165,-285
2,5435873,-3475,-1691,-553,-163,-251,-90,263,165,-285
2,5435879,-3475,-1691,-553,-163,-251,-90,263,165,-285
2,5435887,-3472,-1692,-558,-160,-239,-92,263,165,-285
2,5435892,-3472,-1692,-558,-160,-239,-92,263,165,-285
2,5435900,-3472,-1692,-558,-160,-239,-92,263,165,-285
2,5435907,-3474,-1693,-555,-161,-240,-88,263,165,-285
2,5435913,-3474,-1693,-555,-161,-240,-88,263,165,-285
2,5435920,-3474,-1693,-555,-161,-240,-88,263,165,-285
2,5435927,-3471,-1692,-552,-159,-240,-83,261,163,-287
2,5435933,-3471,-1692,-552,-159,-240,-83,261,163,-287
2,5435939,-3471,-1692,-552,-159,-240,-83,261,163,-287
2,5435947,-3472,-1695,-561,-160,-242,-91,261,163,-287
2,5435954,-3472,-1695,-561,-160,-242,-91,261,163,-287
2,5435961,-3472,-1695,-561,-160,-242,-91,261,163,-287
2,5435968,-3470,-1693,-551,-161,-230,-88,261,163,-287
2,5435975,-3470,-1693,-551,-161,-230,-88,261,163,-287
2,5435982,-3470,-1693,-551,-161,-230,-88,261,163,-287
2,5435987,-3473,-1694,-551,-157,-244,-84,261,163,-287
2,5435994,-3473,-1694,-551,-157,-244,-84,261,163,-287
2,5436001,-3473,-1694,-551,-157,-244,-84,261,163,-287
2,5436009,-3468,-1696,-554,-164,-240,-91,261,163,-287
2,5436015,-3468,-1696,-554,-164,-240,-91,261,163,-287
2,5436022,-3468,-1696,-554,-164,-240,-91,261,163,-287
2,5436028,-3470,-1691,-555,-159,-236,-89,261,163,-287
2,5436036,-3470,-1691,-555,-159,-236,-89,261,163,-287
2,5436043,-3470,-1691,-555,-159,-236,-89,261,163,-287
2,5436051,-3469,-1694,-555,-165,-239,-84,260,158,-292
2,5436059,-3469,-1694,-555,-165,-239,-84,260,158,-292
2,5436066,-3471,-1692,-550,-158,-239,-81,260,158,-292
2,5436073,-3471,-1692,-550,-158,-239,-81,260,158,-292
2,5436081,-3471,-1692,-550,-158,-239,-81,260,158,-292
2,5436088,-3474,-1690,-552,-154,-247,-84,260,158,-292
2,5436093,-3474,-1690,-552,-154,-247,-84,260,158,-292
2,5436099,-3474,-1690,-552,-154,-247,-84,260,158,-292
2,5436104,-3474,-1690,-552,-154,-247,-84,260,158,-292
2,5436109,-3470,-1696,-548,-160,-247,-80,260,158,-292
2,5436118,-3470,-1696,-548,-160,-247,-80,260,158,-292
2,5436124,-3470,-1696,-548,-160,-247,-80,260,158,-292
2,5436131,-3473,-1693,-551,-157,-237,-87,260,158,-292
2,5436137,-3473,-1693,-551,-157,-237,-87,260,158,-292
2,5436143,-3473,-1693,-551,-157,-237,-87,260,158,-292
2,5436150,-3472,-1694,-555,-157,-238,-86,260,158,-292
2,5436157,-3472,-1694,-555,-157,-238,-86,260,158,-292
2,5436165,-3472,-1694,-555,-157,-238,-86,260,158,-292
2,5436172,-3473,-1694,-552,-160,-236,-84,263,167,-289
2,5436180,-3473,-1694,-552,-160,-236,-84,263,167,-289
2,5436186,-3473,-1694,-552,-160,-236,-84,263,167,-289
2,5436192,-3473,-1693,-554,-159,-238,-85,263,167,-289
2,5436199,-3473,-1693,-554,-159,-238,-85,263,167,-289
2,5436207,-3471,-1694,-554,-163,-240,-91,263,167,-289
2,5436212,-3471,-1694,-554,-163,-240,-91,263,167,-289
2,5436219,-3471,-1694,-554,-163,-240,-91,263,167,-289
2,5436230,-3471,-1694,-554,-162,-241,-80,263,167,-289
2,5436243,-3471,-1694,-554,-162,-241,-80,263,167,-289
2,5436256,-3471,-1694,-551,-166,-243,-82,263,167,-289
2,5436264,-3471,-1694,-551,-166,-243,-82,263,167,-289
2,5436277,-3470,-1695,-556,-158,-242,-88,263,167,-289
2,5436290,-3471,-1691,-557,-160,-235,-86,267,163,-293
2,5436302,-3471,-1691,-557,-160,-235,-86,267,163,-293
2,5436313,-3473,-1693,-556,-160,-247,-81,267,163,-293
2,5436325,-3473,-1693,-556,-160,-247,-81,267,163,-293
2,5436341,-3471,-1692,-553,-167,-240,-83,267,163,-293
2,5436354,-3474,-1693,-554,-175,-241,-83,267,163,-293
2,5436363,-3474,-1693,-554,-175,-241,-83,267,163,-293
2,5436378,-3469,-1695,-557,-162,-248,-78,267,163,-293
2,5436392,-3473,-1693,-555,-162,-242,-75,267,163,-293
2,5436405,-3473,-1693,-555,-162,-242,-75,267,163,-293
2,5436414,-3471,-1693,-551,-159,-239,-80,263,167,-287
2,5436428,-3472,-1692,-551,-160,-241,-80,263,167,-287
2,5436442,-3472,-1692,-551,-160,-241,-80,263,167,-287
2,5436455,-3473,-1693,-554,-165,-237,-80,263,167,-287
2,5436465,-3473,-1693,-554,-165,-237,-80,263,167,-287
2,5436478,-3472,-1694,-560,-166,-244,-82,263,167,-287
2,5436490,-3471,-1692,-556,-161,-247,-81,263,167,-287
2,5436503,-3471,-1692,-556,-161,-247,-81,263,167,-287
2,5436512,-3471,-1689,-555,-166,-242,-83,263,167,-287
2,5436520,-3471,-1689,-555,-166,-242,-83,263,167,-287
2,5436528,-3473,-1692,-552,-164,-238,-83,263,167,-287
2,5436535,-3473,-1692,-552,-164,-238,-83,263,167,-287
2,5436545,-3473,-1692,-552,-164,-238,-83,263,167,-287
2,5436560,-3471,-1691,-550,-161,-239,-81,258,160,-288
2,5436574,-3472,-1691,-550,-167,-251,-80,258,160,-288
2,5436582,-3472,-1691,-550,-167,-251,-80,258,160,-288
2,5436597,-3470,-1692,-551,-170,-247,-88,258,160,-288
2,5436610,-3472,-1689,-553,-171,-247,-85,258,160,-288
2,5436624,-3472,-1689,-553,-171,-247,-85,258,160,-288
2,5436634,-3474,-1692,-553,-169,-239,-87,258,160,-288
2,5436646,-3474,-1692,-553,-169,-239,-87,258,160,-288
2,5436659,-3472,-1695,-552,-167,-235,-84,258,160,-288
2,5436673,-3470,-1690,-547,-169,-240,-87,259,157,-283
2,5436682,-3470,-1690,-547,-169,-240,-87,259,157,-283
2,5436696,-3470,-1692,-552,-162,-234,-79,259,157,-283
2,5436709,-3473,-1694,-549,-162,-237,-85,259,157,-283
2,5436723,-3473,-1694,-549,-162,-237,-85,259,157,-283
2,5436732,-3470,-1691,-554,-158,-241,-90,259,157,-283
2,5436745,-3470,-1691,-554,-158,-241,-90,259,157,-283
2,5436759,-3473,-1691,-555,-159,-237,-92,259,157,-283
2,5436772,-3472,-1695,-554,-159,-246,-92,259,157,-283
2,5436780,-3472,-1695,-554,-159,-246,-92,259,157,-283
2,5436788,-3469,-1692,-550,-166,-241,-90,253,159,-285
2,5436796,-3469,-1692,-550,-166,-241,-90,253,159,-285
2,5436805,-3469,-1692,-550,-166,-241,-90,253,159,-285
2,5436814,-3470,-1692,-550,-164,-241,-91,253,159,-285
2,5436829,-3473,-1693,-552,-170,-242,-88,253,159,-285
2,5436844,-3473,-1693,-552,-170,-242,-88,253,159,-285
2,5436852,-3471,-1689,-554,-164,-235,-79,253,159,-285
2,5436864,-3471,-1689,-554,-164,-235,-79,253,159,-285
2,5436878,-3469,-1691,-554,-160,-229,-78,253,159,-285
2,5436891,-3469,-1692,-554,-164,-243,-82,253,159,-285
2,5436900,-3469,-1692,-554,-164,-243,-82,253,159,-285
2,5436913,-3470,-1692,-551,-166,-239,-84,260,164,-294
2,5436926,-3470,-1692,-551,-166,-239,-84,260,164,-294
2,5436940,-3468,-1693,-554,-163,-239,-84,260,164,-294
2,5436950,-3469,-1695,-551,-163,-238,-84,260,164,-294
2,5436963,-3469,-1695,-551,-163,-238,-84,260,164,-294
2,5436976,-3470,-1694,-555,-162,-235,-88,260,164,-294
2,5436989,-3470,-1692,-556,-160,-241,-83,260,164,-294
2,5437002,-3470,-1692,-556,-160,-241,-83,260,164,-294
2,5437016,-3472,-1691,-555,-163,-234,-82,260,164,-294
2,5437029,-3472,-1693,-547,-154,-237,-92,260,160,-286
2,5437044,-3472,-1693,-547,-154,-237,-92,260,160,-286
2,5437059,-3473,-1694,-545,-153,-236,-84,260,160,-286
2,5437068,-3473,-1693,-554,-163,-236,-80,260,160,-286
2,5437079,-3473,-1693,-554,-163,-236,-80,260,160,-286
2,5437094,-3471,-1694,-550,-166,-234,-86,260,160,-286
2,5437107,-3471,-1694,-550,-166,-234,-86,260,160,-286
2,5437119,-3470,-1693,-551,-162,-235,-83,260,160,-286
2,5437131,-3471,-1693,-552,-168,-235,-85,260,160,-286
2,5437145,-3471,-1693,-552,-168,-235,-85,260,160,-286
2,5437158,-3470,-1693,-556,-171,-235,-90,260,160,-286
2,5437167,-3472,-1691,-553,-169,-237,-88,260,168,-286
2,5437180,-3472,-1691,-553,-169,-237,-88,260,168,-286
2,5437192,-3469,-1690,-556,-157,-233,-85,260,168,-286
2,5437204,-3469,-1690,-556,-157,-233,-85,260,168,-286
2,5437216,-3473,-1692,-555,-158,-234,-81,260,168,-286
2,5437231,-3470,-1693,-557,-162,-237,-86,260,168,-286
2,5437239,-3470,-1693,-557,-162,-237,-86,260,168,-286
2,5437245,-3470,-1693,-557,-162,-237,-86,260,168,-286
2,5437251,-3470,-1694,-556,-167,-233,-86,260,168,-286
2,5437258,-3470,-1694,-556,-167,-233,-86,260,168,-286
2,5437265,-3470,-1694,-556,-167,-233,-86,260,168,-286
2,5437274,-3473,-1696,-557,-164,-233,-86,260,168,-286
2,5437280,-3473,-1696,-557,-164,-233,-86,260,168,-286
2,5437287,-3473,-1696,-557,-164,-233,-86,260,168,-286
2,5437293,-3474,-1695,-551,-157,-242,-78,260,164,-294
2,5437299,-3474,-1695,-551,-157,-242,-78,260,164,-294
2,5437307,-3475,-1691,-555,-161,-239,-87,260,164,-294
2,5437315,-3475,-1691,-555,-161,-239,-87,260,164,-294
2,5437321,-3475,-1691,-555,-161,-239,-87,260,164,-294
2,5437329,-3471,-1692,-557,-159,-243,-87,260,164,-294
2,5437337,-3471,-1692,-557,-159,-243,-87,260,164,-294
2,5437343,-3471,-1692,-557,-159,-243,-87,260,164,-294
2,5437350,-3473,-1696,-551,-162,-238,-86,260,164,-294
2,5437357,-3473,-1696,-551,-162,-238,-86,260,164,-294
2,5437362,-3473,-1696,-551,-162,-238,-86,260,164,-294
2,5437367,-3471,-1692,-554,-155,-238,-88,260,164,-294
2,5437374,-3471,-1692,-554,-155,-238,-88,260,164,-294
2,5437380,-3471,-1692,-554,-155,-238,-88,260,164,-294
2,5437388,-3471,-1695,-558,-158,-239,-91,260,164,-294
2,5437395,-3471,-1695,-558,-158,-239,-91,260,164,-294
2,5437401,-3471,-1695,-558,-158,-239,-91,260,164,-294
2,5437409,-3470,-1695,-550,-161,-249,-89,263,159,-289
2,5437416,-3470,-1695,-550,-161,-249,-89,263,159,-289
2,5437423,-3470,-1695,-550,-161,-249,-89,263,159,-289
2,5437429,-3474,-1691,-552,-161,-241,-90,263,159,-289
2,5437434,-3474,-1691,-552,-161,-241,-90,263,159,-289
2,5437442,-3474,-1691,-552,-161,-241,-90,263,159,-289
2,5437449,-3475,-1695,-554,-161,-240,-83,263,159,-289
2,5437457,-3475,-1695,-554,-161,-240,-83,263,159,-289
2,5437464,-3475,-1695,-554,-161,-240,-83,263,159,-289
2,5437471,-3468,-1691,-556,-161,-240,-86,263,159,-289
2,5437478,-3468,-1691,-556,-161,-240,-86,263,159,-289
2,5437487,-3468,-1691,-556,-161,-240,-86,263,159,-289
2,5437493,-3472,-1693,-557,-159,-240,-75,263,159,-289
2,5437499,-3472,-1693,-557,-159,-240,-75,263,159,-289
2,5437507,-3472,-1693,-557,-159,-240,-75,263,159,-289
2,5437512,-3469,-1692,-553,-168,-248,-79,263,159,-289
2,5437517,-3469,-1692,-553,-168,-248,-79,263,159,-289
2,5437522,-3469,-1692,-553,-168,-248,-79,263,159,-289
2,5437528,-3468,-1691,-549,-170,-232,-84,263,159,-289
2,5437533,-3468,-1691,-549,-170,-232,-84,261,161,-291
2,5437538,-3468,-1691,-549,-170,-232,-84,261,161,-291
2,5437545,-3468,-1691,-549,-170,-232,-84,261,161,-291
2,5437553,-3470,-1696,-557,-168,-237,-87,261,161,-291
2,5437560,-3470,-1696,-557,-168,-237,-87,261,161,-291
2,5437568,-3470,-1696,-557,-168,-237,-87,261,161,-291
2,5437576,-3468,-1690,-552,-161,-239,-88,261,161,-291
2,5437584,-3468,-1690,-552,-161,-239,-88,261,161,-291
2,5437591,-3468,-1690,-552,-161,-239,-88,261,161,-291
2,5437598,-3468,-1690,-552,-161,-239,-88,261,161,-291
2,5437604,-3468,-1690,-552,-161,-239,-88,261,161,-291
2,5437612,-3470,-1696,-552,-161,-243,-89,261,161,-291
2,5437618,-3470,-1696,-552,-161,-243,-89,261,161,-291
2,5437626,-3470,-1696,-552,-161,-243,-89,261,161,-291
2,5437634,-3473,-1692,-551,-161,-247,-82,261,161,-291
2,5437641,-3473,-1692,-551,-161,-247,-82,261,161,-291
2,5437648,-3474,-1692,-558,-166,-241,-84,268,170,-286
2,5437656,-3474,-1692,-558,-166,-241,-84,268,170,-286
2,5437663,-3474,-1692,-558,-166,-241,-84,268,170,-286
2,5437668,-3476,-1687,-554,-166,-239,-74,268,170,-286
2,5437676,-3476,-1687,-554,-166,-239,-74,268,170,-286
2,5437684,-3476,-1687,-554,-166,-239,-74,268,170,-286
2,5437691,-3471,-1702,-563,-162,-241,-77,268,170,-286
2,5437699,-3471,-1702,-563,-162,-241,-77,268,170,-286
2,5437706,-3471,-1702,-563,-162,-241,-77,268,170,-286
2,5437713,-3470,-1691,-540,-156,-238,-82,268,170,-286
2,5437719,-3470,-1691,-540,-156,-238,-82,268,170,-286
2,5437726,-3470,-1691,-540,-156,-238,-82,268,170,-286
2,5437734,-3468,-1691,-544,-162,-234,-87,268,170,-286
2,5437743,-3468,-1691,-544,-162,-234,-87,268,170,-286
2,5437750,-3473,-1692,-557,-160,-235,-87,268,170,-286
2,5437757,-3473,-1692,-557,-160,-235,-87,268,170,-286
2,5437762,-3473,-1692,-557,-160,-235,-87,268,170,-286
2,5437768,-3471,-1693,-560,-162,-233,-79,268,170,-286
2,5437775,-3471,-1693,-560,-162,-233,-79,268,170,-286
2,5437783,-3471,-1693,-560,-162,-233,-79,268,170,-286
2,5437790,-3471,-1693,-556,-167,-235,-81,264,160,-288
2,5437797,-3471,-1693,-556,-167,-235,-81,264,160,-288
2,5437805,-3471,-1693,-556,-167,-235,-81,264,160,-288
2,5437811,-3470,-1692,-554,-165,-243,-85,264,160,-288
2,5437818,-3470,-1692,-554,-165,-243,-85,264,160,-288
2,5437825,-3470,-1692,-554,-165,-243,-85,264,160,-288
2,5437831,-3474,-1692,-552,-163,-239,-90,264,160,-288
2,5437836,-3474,-1692,-552,-163,-239,-90,264,160,-288
2,5437843,-3474,-1692,-552,-163,-239,-90,264,160,-288
2,5437849,-3471,-1694,-551,-164,-240,-90,264,160,-288
2,5437857,-3471,-1694,-551,-164,-240,-90,264,160,-288
2,5437864,-3471,-1694,-551,-164,-240,-90,264,160,-288
2,5437870,-3469,-1691,-556,-168,-240,-90,264,160,-288
2,5437877,-3469,-1691,-556,-168,-240,-90,264,160,-288
2,5437885,-3469,-1691,-556,-168,-240,-90,264,160,-288
2,5437891,-3473,-1693,-553,-162,-239,-88,264,160,-288
2,5437898,-3473,-1693,-553,-162,-239,-88,264,160,-288
2,5437905,-3473,-1693,-553,-162,-239,-88,264,160,-288
2,5437913,-3472,-1692,-552,-165,-238,-86,259,167,-293
2,5437921,-3472,-1692,-552,-165,-238,-86,259,167,-293
2,5437927,-3472,-1692,-552,-165,-238,-86,259,167,-293
2,5437934,-3469,-1694,-557,-160,-239,-92,259,167,-293
2,5437941,-3469,-1694,-557,-160,-239,-92,259,167,-293
2,5437947,-3469,-1694,-557,-160,-239,-92,259,167,-293
2,5437952,-3471,-1695,-553,-165,-234,-88,259,167,-293
2,5437961,-3471,-1695,-553,-165,-234,-88,259,167,-293
2,5437967,-3471,-1695,-553,-165,-234,-88,259,167,-293
2,5437974,-3470,-1695,-552,-167,-235,-84,259,167,-293
2,5437981,-3470,-1695,-552,-167,-235,-84,259,167,-293
2,5437988,-3470,-1695,-555,-165,-243,-82,259,167,-293
2,5437996,-3470,-1695,-555,-165,-243,-82,259,167,-293
2,5438003,-3470,-1695,-555,-165,-243,-82,259,167,-293
2,5438011,-3471,-1693,-549,-158,-236,-84,259,167,-293
2,5438018,-3471,-1693,-549,-158,-236,-84,259,167,-293
2,5438024,-3471,-1693,-549,-158,-236,-84,259,167,-293
2,5438031,-3470,-1690,-550,-159,-225,-93,265,159,-285
2,5438039,-3470,-1690,-550,-159,-225,-93,265,159,-285
2,5438046,-3470,-1690,-550,-159,-225,-93,265,159,-285
2,5438052,-3474,-1691,-547,-156,-235,-99,265,159,-285
2,5438059,-3474,-1691,-547,-156,-235,-99,265,159,-285
2,5438066,-3474,-1691,-547,-156,-235,-99,265,159,-285
2,5438072,-3471,-1692,-554,-164,-241,-85,265,159,-285
2,5438077,-3471,-1692,-554,-164,-241,-85,265,159,-285
2,5438084,-3471,-1692,-554,-164,-241,-85,265,159,-285
2,5438091,-3468,-1692,-554,-163,-240,-87,265,159,-285
2,5438098,-3468,-1692,-554,-163,-240,-87,265,159,-285
2,5438104,-3468,-1692,-554,-163,-240,-87,265,159,-285
2,5438110,-3469,-1692,-555,-157,-241,-90,265,159,-285
2,5438117,-3469,-1692,-555,-157,-241,-90,265,159,-285
2,5438124,-3469,-1692,-555,-157,-241,-90,265,159,-285
2,5438130,-3472,-1689,-556,-162,-237,-97,265,159,-285
2,5438136,-3472,-1689,-556,-162,-237,-97,265,159,-285
2,5438145,-3472,-1689,-556,-162,-237,-97,265,159,-285
2,5438151,-3470,-1692,-548,-166,-242,-89,259,157,-287
2,5438158,-3470,-1692,-548,-166,-242,-89,259,157,-287
2,5438166,-3470,-1692,-548,-166,-242,-89,259,157,-287
2,5438173,-3471,-1692,-554,-171,-239,-85,259,157,-287
2,5438180,-3471,-1692,-554,-171,-239,-85,259,157,-287
2,5438186,-3471,-1692,-554,-171,-239,-85,259,157,-287
2,5438193,-3471,-1691,-556,-166,-241,-83,259,157,-287
2,5438200,-3471,-1691,-556,-166,-241,-83,259,157,-287
2,5438208,-3471,-1691,-556,-166,-241,-83,259,157,-287
2,5438215,-3471,-1693,-553,-164,-243,-87,259,157,-287
2,5438222,-3471,-1693,-553,-164,-243,-87,259,157,-287
2,5438229,-3471,-1692,-555,-161,-234,-85,259,157,-287
2,5438236,-3471,-1692,-555,-161,-234,-85,259,157,-287
2,5438245,-3471,-1692,-555,-161,-234,-85,259,157,-287
2,5438259,-3470,-1690,-556,-163,-241,-83,259,157,-287
2,5438271,-3471,-1690,-556,-165,-245,-86,258,158,-280
2,5438283,-3471,-1690,-556,-165,-245,-86,258,158,-280
2,5438298,-3468,-1692,-554,-159,-235,-84,258,158,-280
2,5438310,-3471,-1694,-551,-165,-238,-76,258,158,-280
2,5438322,-3471,-1694,-551,-165,-238,-76,258,158,-280
2,5438334,-3473,-1691,-550,-157,-238,-82,258,158,-280
2,5438345,-3473,-1691,-550,-157,-238,-82,258,158,-280
2,5438355,-3470,-1692,-559,-167,-244,-85,258,158,-280
2,5438368,-3470,-1692,-559,-167,-244,-85,258,158,-280
2,5438381,-3471,-1693,-549,-171,-246,-86,258,158,-280
2,5438391,-3467,-1695,-550,-157,-238,-88,258,158,-280
2,5438404,-3467,-1695,-550,-157,-238,-88,258,158,-280
2,5438418,-3471,-1692,-553,-164,-246,-97,260,176,-288
2,5438432,-3472,-1693,-551,-171,-242,-87,260,176,-288
2,5438441,-3472,-1693,-551,-171,-242,-87,260,176,-288
2,5438454,-3469,-1693,-551,-167,-227,-86,260,176,-288
2,5438470,-3469,-1692,-554,-169,-241,-75,260,176,-288
2,5438484,-3469,-1692,-554,-169,-241,-75,260,176,-288
2,5438492,-3469,-1692,-554,-169,-241,-75,260,176,-288
2,5438502,-3469,-1692,-554,-169,-241,-75,260,176,-288
2,5438511,-3469,-1692,-556,-159,-241,-91,260,176,-288
2,5438518,-3469,-1692,-556,-159,-241,-91,260,176,-288
2,5438527,-3469,-1692,-556,-159,-241,-91,260,176,-288
2,5438536,-3469,-1691,-551,-166,-239,-86,260,164,-282
2,5438546,-3469,-1691,-551,-166,-239,-86,260,164,-282
2,5438557,-3471,-1691,-548,-164,-240,-87,260,164,-282
2,5438566,-3471,-1691,-548,-164,-240,-87,260,164,-282
2,5438575,-3472,-1691,-553,-163,-234,-85,260,164,-282
2,5438584,-3472,-1691,-553,-163,-234,-85,260,164,-282
2,5438594,-3473,-1691,-560,-162,-238,-82,260,164,-282
2,5438607,-3473,-1691,-560,-162,-238,-82,260,164,-282
2,5438620,-3472,-1692,-551,-160,-239,-78,260,164,-282
2,5438635,-3473,-1694,-554,-159,-233,-76,260,164,-282
2,5438648,-3473,-1694,-554,-159,-233,-76,260,164,-282
2,5438658,-3475,-1693,-551,-163,-246,-84,257,163,-279
2,5438671,-3472,-1691,-548,-157,-236,-81,257,163,-279
2,5438687,-3472,-1691,-548,-157,-236,-81,257,163,-279
2,5438700,-3473,-1691,-556,-158,-233,-88,257,163,-279
2,5438709,-3471,-1693,-552,-160,-229,-92,257,163,-279
2,5438724,-3471,-1693,-552,-160,-229,-92,257,163,-279
2,5438737,-3472,-1695,-553,-171,-230,-81,257,163,-279
2,5438750,-3475,-1696,-555,-168,-235,-85,257,163,-279
2,5438760,-3475,-1696,-555,-168,-235,-85,257,163,-279
2,5438774,-3474,-1696,-547,-163,-243,-80,271,161,-279
2,5438788,-3474,-1696,-547,-163,-243,-80,271,161,-279
2,5438801,-3473,-1692,-550,-161,-236,-81,271,161,-279
2,5438810,-3472,-1691,-552,-164,-237,-86,271,161,-279
2,5438821,-3472,-1691,-552,-164,-237,-86,271,161,-279
2,5438830,-3470,-1693,-552,-165,-240,-90,271,161,-279
2,5438841,-3470,-1693,-552,-165,-240,-90,271,161,-279
2,5438856,-3472,-1693,-553,-162,-242,-87,271,161,-279
2,5438871,-3468,-1694,-556,-161,-241,-90,271,161,-279
2,5438880,-3468,-1694,-556,-161,-241,-90,271,161,-279
2,5438892,-3467,-1692,-554,-167,-233,-86,262,162,-290
2,5438907,-3467,-1692,-554,-167,-233,-86,262,162,-290
2,5438920,-3471,-1694,-550,-169,-237,-81,262,162,-290
2,5438928,-3472,-1694,-552,-165,-235,-81,262,162,-290
2,5438942,-3472,-1694,-552,-165,-235,-81,262,162,-290
2,5438955,-3472,-1692,-553,-167,-244,-81,262,162,-290
2,5438968,-3472,-1692,-553,-167,-244,-81,262,162,-290
2,5438979,-3473,-1693,-550,-169,-233,-90,262,162,-290
2,5438992,-3470,-1692,-553,-166,-231,-92,262,162,-290
2,5439006,-3470,-1692,-553,-166,-231,-92,262,162,-290
2,5439019,-3473,-1693,-549,-161,-236,-91,260,160,-296
2,5439028,-3473,-1693,-549,-161,-236,-91,260,160,-296
2,5439040,-3472,-1692,-556,-158,-233,-89,260,160,-296
2,5439051,-3474,-1694,-553,-161,-236,-88,260,160,-296
2,5439065,-3474,-1694,-553,-161,-236,-88,260,160,-296
2,5439076,-3474,-1693,-558,-168,-243,-81,260,160,-296
2,5439092,-3473,-1694,-555,-164,-241,-79,260,160,-296
2,5439105,-3473,-1694,-555,-164,-241,-79,260,160,-296
2,5439113,-3471,-1693,-549,-163,-236,-80,260,160,-296
2,5439121,-3471,-1693,-549,-163,-236,-80,260,160,-296
2,5439129,-3470,-1696,-555,-155,-238,-85,260,160,-296
2,5439137,-3470,-1696,-555,-155,-238,-85,260,160,-296
2,5439147,-3470,-1696,-555,-155,-238,-85,260,160,-296
2,5439159,-3468,-1693,-546,-164,-238,-79,256,158,-288
2,5439174,-3473,-1692,-554,-169,-229,-85,256,158,-288
2,5439188,-3473,-1692,-554,-169,-229,-85,256,158,-288
2,5439197,-3471,-1692,-555,-165,-240,-88,256,158,-288
2,5439210,-3472,-1690,-560,-166,-235,-84,256,158,-288
2,5439223,-3472,-1690,-560,-166,-235,-84,256,158,-288
2,5439238,-3471,-1693,-553,-161,-236,-88,256,158,-288
2,5439247,-3471,-1693,-553,-161,-236,-88,256,158,-288
2,5439254,-3474,-1693,-554,-165,-240,-91,256,158,-288
2,5439260,-3474,-1693,-554,-165,-240,-91,256,158,-288
2,5439268,-3474,-1693,-554,-165,-240,-91,256,158,-288
2,5439276,-3468,-1694,-551,-163,-247,-81,257,159,-289
2,5439283,-3468,-1694,-551,-163,-247,-81,257,159,-289
2,5439290,-3472,-1694,-550,-160,-242,-85,257,159,-289
2,5439296,-3472,-1694,-550,-160,-242,-85,257,159,-289
2,5439303,-3472,-1694,-550,-160,-242,-85,257,159,-289
2,5439310,-3470,-1695,-553,-165,-246,-79,257,159,-289
2,5439319,-3470,-1695,-553,-165,-246,-79,257,159,-289
2,5439326,-3470,-1695,-553,-165,-246,-79,257,159,-289
2,5439332,-3473,-1691,-556,-168,-242,-83,257,159,-289
2,5439338,-3473,-1691,-556,-168,-242,-83,257,159,-289
2,5439346,-3473,-1691,-556,-168,-242,-83,257,159,-289
2,5439352,-3472,-1693,-556,-166,-245,-89,257,159,-289
2,5439360,-3472,-1693,-556,-166,-245,-89,257,159,-289
2,5439368,-3472,-1693,-556,-166,-245,-89,257,159,-289
2,5439375,-3469,-1690,-558,-162,-235,-87,257,159,-289
2,5439382,-3469,-1690,-558,-162,-235,-87,257,159,-289
2,5439389,-3475,-1690,-549,-161,-240,-91,254,166,-284
2,5439396,-3475,-1690,-549,-161,-240,-91,254,166,-284
2,5439403,-3475,-1690,-549,-161,-240,-91,254,166,-284
2,5439410,-3472,-1695,-556,-164,-241,-88,254,166,-284
2,5439417,-3472,-1695,-556,-164,-241,-88,254,166,-284
2,5439425,-3472,-1695,-556,-164,-241,-88,254,166,-284
2,5439431,-3469,-1694,-557,-162,-232,-85,254,166,-284
2,5439439,-3469,-1694,-557,-162,-232,-85,254,166,-284
2,5439446,-3469,-1694,-557,-162,-232,-85,254,166,-284
2,5439453,-3470,-1694,-558,-165,-238,-87,254,166,-284
2,5439460,-3470,-1694,-558,-165,-238,-87,254,166,-284
2,5439466,-3470,-1694,-558,-165,-238,-87,254,166,-284
2,5439472,-3473,-1689,-562,-163,-240,-91,254,166,-284
2,5439478,-3473,-1689,-562,-163,-240,-91,254,166,-284
2,5439486,-3473,-1689,-562,-163,-240,-91,254,166,-284
2,5439494,-3470,-1694,-555,-160,-241,-82,254,166,-284
2,5439500,-3470,-1694,-555,-160,-241,-82,254,166,-284
2,5439506,-3470,-1694,-555,-160,-241,-82,254,166,-284
2,5439512,-3472,-1692,-549,-165,-242,-82,262,168,-288
2,5439517,-3472,-1692,-549,-165,-242,-82,262,168,-288
2,5439522,-3472,-1692,-549,-165,-242,-82,262,168,-288
2,5439527,-3472,-1692,-549,-165,-242,-82,262,168,-288
2,5439534,-3468,-1689,-550,-164,-237,-77,262,168,-288
2,5439539,-3468,-1689,-550,-164,-237,-77,262,168,-288
2,5439547,-3468,-1689,-550,-164,-237,-77,262,168,-288
2,5439553,-3469,-1692,-554,-166,-243,-79,262,168,-288
2,5439560,-3469,-1692,-554,-166,-243,-79,262,168,-288
2,5439567,-3469,-1692,-554,-166,-243,-79,262,168,-288
2,5439575,-3470,-1695,-554,-164,-238,-83,262,168,-288
2,5439581,-3470,-1695,-554,-164,-238,-83,262,168,-288
2,5439588,-3470,-1695,-554,-164,-238,-83,262,168,-288
2,5439594,-3470,-1692,-558,-161,-245,-81,262,168,-288
2,5439603,-3470,-1692,-558,-161,-245,-81,262,168,-288
2,5439609,-3471,-1695,-557,-170,-239,-75,262,168,-288
2,5439617,-3471,-1695,-557,-170,-239,-75,262,168,-288
2,5439624,-3471,-1695,-557,-170,-239,-75,262,168,-288
2,5439631,-3472,-1691,-553,-173,-241,-87,260,160,-286
2,5439638,-3472,-1691,-553,-173,-241,-87,260,160,-286
2,5439645,-3472,-1691,-553,-173,-241,-87,260,160,-286
2,5439652,-3470,-1691,-552,-163,-243,-82,260,160,-286
2,5439662,-3470,-1691,-552,-163,-243,-82,260,160,-286
2,5439669,-3470,-1691,-552,-163,-243,-82,260,160,-286
2,5439675,-3472,-1693,-553,-162,-240,-75,260,160,-286
2,5439682,-3472,-1693,-553,-162,-240,-75,260,160,-286
2,5439689,-3474,-1693,-554,-167,-241,-78,260,160,-286
2,5439695,-3474,-1693,-554,-167,-241,-78,260,160,-286
2,5439702,-3474,-1693,-554,-167,-241,-78,260,160,-286
2,5439707,-3474,-1693,-554,-167,-241,-78,260,160,-286
2,5439713,-3469,-1692,-557,-162,-238,-86,260,160,-286
2,5439719,-3469,-1692,-557,-162,-238,-86,260,160,-286
2,5439725,-3469,-1692,-557,-162,-238,-86,260,160,-286
2,5439732,-3474,-1695,-556,-157,-241,-86,260,160,-286
2,5439740,-3474,-1695,-556,-157,-241,-86,260,160,-286
2,5439747,-3474,-1695,-556,-157,-241,-86,260,160,-286
2,5439754,-3471,-1692,-554,-167,-236,-83,260,160,-286
2,5439762,-3471,-1692,-554,-167,-236,-83,260,160,-286
2,5439768,-3471,-1692,-554,-167,-236,-83,260,160,-286
2,5439774,-3473,-1692,-551,-163,-237,-85,263,165,-295
2,5439781,-3473,-1692,-551,-163,-237,-85,263,165,-295
2,5439788,-3473,-1692,-551,-163,-237,-85,263,165,-295
2,5439794,-3469,-1694,-557,-158,-235,-84,263,165,-295
2,5439802,-3469,-1694,-557,-158,-235,-84,263,165,-295
2,5439807,-3469,-1694,-557,-158,-235,-84,263,165,-295
2,5439813,-3470,-1696,-552,-161,-239,-78,263,165,-295
2,5439820,-3470,-1696,-552,-161,-239,-78,263,165,-295
2,5439828,-3470,-1696,-552,-161,-239,-78,263,165,-295
2,5439836,-3475,-1692,-554,-160,-239,-84,263,165,-295
2,5439844,-3475,-1692,-554,-160,-239,-84,263,165,-295
2,5439849,-3475,-1692,-554,-160,-239,-84,263,165,-295
2,5439855,-3470,-1697,-558,-163,-243,-92,263,165,-295
2,5439861,-3470,-1697,-558,-163,-243,-92,263,165,-295
2,5439867,-3470,-1697,-558,-163,-243,-92,263,165,-295
2,5439874,-3470,-1694,-556,-159,-242,-90,263,165,-295
2,5439880,-3470,-1694,-556,-159,-242,-90,263,165,-295
2,5439887,-3470,-1694,-556,-159,-242,-90,263,165,-295
2,5439895,-3472,-1691,-548,-163,-236,-87,255,153,-283
2,5439901,-3472,-1691,-548,-163,-236,-87,255,153,-283
2,5439908,-3472,-1691,-548,-163,-236,-87,255,153,-283
2,5439913,-3467,-1693,-553,-162,-237,-84,255,153,-283
2,5439921,-3467,-1693,-553,-162,-237,-84,255,153,-283
2,5439928,-3467,-1693,-553,-162,-237,-84,255,153,-283
2,5439936,-3467,-1692,-558,-165,-243,-80,255,153,-283
2,5439943,-3467,-1692,-558,-165,-243,-80,255,153,-283
2,5439948,-3467,-1692,-558,-165,-243,-80,255,153,-283
2,5439955,-3470,-1691,-552,-160,-234,-85,255,153,-283
2,5439962,-3470,-1691,-552,-160,-234,-85,255,153,-283
2,5439968,-3470,-1691,-552,-160,-234,-85,255,153,-283
2,5439974,-3470,-1693,-553,-160,-231,-78,255,153,-283
2,5439981,-3470,-1693,-553,-160,-231,-78,255,153,-283
2,5439987,-3470,-1693,-553,-160,-231,-78,255,153,-283
2,5439995,-3470,-1694,-553,-166,-231,-88,255,153,-283
2,5440001,-3470,-1694,-553,-166,-231,-88,255,153,-283
2,5440009,-3470,-1694,-553,-166,-231,-88,255,153,-283
2,5440014,-3469,-1695,-554,-170,-233,-80,265,151,-287
2,5440022,-3469,-1695,-554,-170,-233,-80,265,151,-287
2,5440030,-3469,-1693,-550,-158,-234,-79,265,151,-287
2,5440037,-3469,-1693,-550,-158,-234,-79,265,151,-287
2,5440045,-3469,-1693,-550,-158,-234,-79,265,151,-287
2,5440053,-3471,-1694,-551,-160,-241,-84,265,151,-287
2,5440060,-3471,-1694,-551,-160,-241,-84,265,151,-287
2,5440065,-3471,-1694,-551,-160,-241,-84,265,151,-287
2,5440074,-3473,-1694,-555,-160,-232,-86,265,151,-287
2,5440081,-3473,-1694,-555,-160,-232,-86,265,151,-287
2,5440089,-3473,-1694,-555,-160,-232,-86,265,151,-287
2,5440095,-3470,-1692,-552,-163,-245,-83,265,151,-287
2,5440101,-3470,-1692,-552,-163,-245,-83,265,151,-287
2,5440107,-3470,-1692,-552,-163,-245,-83,265,151,-287
2,5440114,-3471,-1691,-550,-168,-240,-88,265,151,-287
2,5440121,-3471,-1691,-550,-168,-240,-88,265,151,-287
2,5440130,-3471,-1691,-550,-168,-240,-88,265,151,-287
2,5440136,-3472,-1693,-552,-163,-239,-91,265,165,-289
2,5440142,-3472,-1693,-552,-163,-239,-91,265,165,-289
2,5440149,-3472,-1693,-552,-163,-239,-91,265,165,-289
2,5440156,-3469,-1691,-558,-164,-241,-87,265,165,-289
2,5440162,-3469,-1691,-558,-164,-241,-87,265,165,-289
2,5440169,-3470,-1693,-550,-158,-242,-89,265,165,-289
2,5440176,-3470,-1693,-550,-158,-242,-89,265,165,-289
2,5440181,-3470,-1693,-550,-158,-242,-89,265,165,-289
2,5440186,-3470,-1693,-550,-158,-242,-89,265,165,-289
2,5440194,-3470,-1693,-550,-162,-240,-87,265,165,-289
2,5440201,-3470,-1693,-550,-162,-240,-87,265,165,-289
2,5440208,-3470,-1693,-550,-162,-240,-87,265,165,-289
2,5440216,-3472,-1693,-553,-168,-238,-87,265,165,-289
2,5440223,-3472,-1693,-553,-168,-238,-87,265,165,-289
2,5440230,-3473,-1694,-554,-165,-236,-84,265,165,-289
2,5440237,-3473,-1694,-554,-165,-236,-84,265,165,-289
2,5440243,-3473,-1694,-554,-165,-236,-84,265,165,-289
2,5440251,-3471,-1690,-554,-165,-236,-76,265,157,-291
2,5440265,-3471,-1690,-554,-165,-236,-76,265,157,-291
2,5440278,-3470,-1690,-548,-161,-241,-81,265,157,-291
2,5440287,-3470,-1690,-548,-161,-241,-81,265,157,-291
2,5440299,-3473,-1692,-553,-162,-238,-84,265,157,-291
2,5440313,-3472,-1695,-551,-166,-233,-81,265,157,-291
2,5440326,-3472,-1695,-551,-166,-233,-81,265,157,-291
2,5440335,-3472,-1691,-552,-163,-235,-82,265,157,-291
2,5440349,-3472,-1691,-552,-163,-235,-82,265,157,-291
2,5440361,-3471,-1693,-556,-157,-237,-89,265,157,-291
2,5440373,-3473,-1694,-555,-171,-233,-90,265,157,-291
2,5440384,-3473,-1694,-555,-171,-233,-90,265,157,-291
2,5440398,-3473,-1696,-551,-160,-233,-82,266,162,-288
2,5440411,-3471,-1694,-552,-160,-231,-85,266,162,-288
2,5440424,-3471,-1694,-552,-160,-231,-85,266,162,-288
2,5440435,-3472,-1691,-554,-166,-236,-91,266,162,-288
2,5440448,-3472,-1691,-554,-166,-236,-91,266,162,-288
2,5440460,-3470,-1691,-556,-164,-238,-81,266,162,-288
2,5440474,-3470,-1695,-557,-165,-234,-86,266,162,-288
2,5440485,-3470,-1695,-557,-165,-234,-86,266,162,-288
2,5440499,-3469,-1692,-554,-161,-240,-84,266,162,-288
2,5440509,-3469,-1692,-554,-161,-240,-84,266,162,-288
2,5440518,-3469,-1692,-555,-164,-238,-78,266,164,-286
2,5440526,-3469,-1692,-555,-164,-238,-78,266,164,-286
2,5440534,-3474,-1695,-557,-168,-234,-80,266,164,-286
2,5440544,-3474,-1695,-557,-168,-234,-80,266,164,-286
2,5440553,-3472,-1694,-557,-167,-240,-85,266,164,-286
2,5440567,-3472,-1694,-557,-167,-240,-85,266,164,-286
2,5440580,-3470,-1693,-555,-174,-238,-90,266,164,-286
2,5440592,-3472,-1691,-555,-169,-245,-98,266,164,-286
2,5440603,-3472,-1691,-555,-169,-245,-98,266,164,-286
2,5440617,-3467,-1692,-554,-162,-241,-88,266,164,-286
2,5440624,-3467,-1692,-554,-162,-241,-88,266,164,-286
2,5440632,-3471,-1691,-549,-165,-230,-88,254,164,-280
2,5440646,-3471,-1691,-549,-165,-230,-88,254,164,-280
2,5440654,-3470,-1692,-555,-163,-232,-87,254,164,-280
2,5440666,-3470,-1692,-555,-163,-232,-87,254,164,-280
2,5440678,-3469,-1695,-556,-163,-234,-88,254,164,-280
2,5440692,-3471,-1694,-557,-167,-235,-87,254,164,-280
2,5440702,-3471,-1694,-557,-167,-235,-87,254,164,-280
2,5440716,-3471,-1695,-551,-164,-242,-87,254,164,-280
2,5440731,-3468,-1694,-557,-161,-241,-74,254,164,-280
2,5440744,-3468,-1694,-557,-161,-241,-74,254,164,-280
2,5440757,-3473,-1693,-552,-154,-241,-76,269,151,-283
2,5440770,-3473,-1693,-552,-154,-241,-76,269,151,-283
2,5440781,-3473,-1693,-554,-157,-241,-80,269,151,-283
2,5440790,-3473,-1693,-554,-157,-241,-80,269,151,-283
2,5440798,-3468,-1694,-557,-166,-240,-82,269,151,-283
2,5440806,-3468,-1694,-557,-166,-240,-82,269,151,-283
2,5440814,-3471,-1694,-554,-162,-241,-93,269,151,-283
2,5440825,-3471,-1694,-554,-162,-241,-93,269,151,-283
2,5440835,-3468,-1693,-558,-164,-234,-83,269,151,-283
2,5440849,-3468,-1693,-558,-164,-234,-83,269,151,-283
2,5440862,-3468,-1691,-551,-154,-238,-86,269,151,-283
2,5440872,-3470,-1689,-549,-162,-233,-78,259,165,-285
2,5440884,-3470,-1689,-549,-162,-233,-78,259,165,-285
2,5440897,-3471,-1692,-549,-168,-238,-89,259,165,-285
2,5440909,-3471,-1692,-549,-168,-238,-89,259,165,-285
2,5440921,-3472,-1691,-557,-161,-234,-84,259,165,-285
2,5440935,-3469,-1695,-554,-162,-243,-84,259,165,-285
2,5440949,-3469,-1695,-554,-162,-243,-84,259,165,-285
2,5440961,-3469,-1694,-555,-165,-244,-83,259,165,-285
2,5440973,-3474,-1696,-551,-169,-241,-86,259,165,-285
2,5440987,-3474,-1696,-551,-169,-241,-86,259,165,-285
2,5440999,-3471,-1692,-554,-169,-247,-82,259,165,-285
2,5441013,-3471,-1691,-555,-166,-243,-85,261,157,-287
2,5441027,-3471,-1691,-555,-166,-243,-85,261,157,-287
2,5441038,-3471,-1694,-551,-164,-239,-83,261,157,-287
2,5441050,-3471,-1694,-551,-164,-239,-83,261,157,-287
2,5441064,-3472,-1694,-550,-165,-239,-84,261,157,-287
2,5441079,-3472,-1694,-553,-173,-234,-84,261,157,-287
2,5441089,-3472,-1694,-553,-173,-234,-84,261,157,-287
2,5441102,-3475,-1694,-559,-165,-239,-88,261,157,-287
2,5441115,-3474,-1692,-555,-160,-242,-84,261,157,-287
2,5441128,-3474,-1692,-555,-160,-242,-84,261,157,-287
2,5441138,-3472,-1691,-551,-158,-240,-85,263,165,-285
2,5441154,-3470,-1691,-554,-155,-238,-87,263,165,-285
2,5441165,-3470,-1691,-554,-155,-238,-87,263,165,-285
2,5441176,-3474,-1691,-554,-156,-239,-90,263,165,-285
2,5441189,-3474,-1691,-554,-156,-239,-90,263,165,-285
2,5441204,-3473,-1691,-554,-155,-244,-88,263,165,-285
2,5441215,-3469,-1695,-556,-160,-242,-82,263,165,-285
2,5441228,-3469,-1695,-556,-160,-242,-82,263,165,-285
2,5441242,-3471,-1691,-560,-168,-239,-78,263,165,-285
2,5441255,-3469,-1691,-553,-169,-235,-89,263,161,-285
2,5441265,-3469,-1691,-553,-169,-235,-89,263,161,-285
2,5441272,-3471,-1689,-552,-172,-236,-94,263,161,-285
2,5441280,-3471,-1689,-552,-172,-236,-94,263,161,-285
2,5441286,-3471,-1689,-552,-172,-236,-94,263,161,-285
2,5441293,-3467,-1689,-549,-165,-239,-87,263,161,-285
2,5441300,-3467,-1689,-549,-165,-239,-87,263,161,-285
2,5441305,-3467,-1689,-549,-165,-239,-87,263,161,-285
2,5441312,-3470,-1694,-553,-164,-239,-81,263,161,-285
2,5441319,-3470,-1694,-553,-164,-239,-81,263,161,-285
2,5441327,-3470,-1694,-553,-164,-239,-81,263,161,-285
2,5441334,-3471,-1693,-555,-159,-237,-85,263,161,-285
2,5441339,-3471,-1693,-555,-159,-237,-85,263,161,-285
2,5441347,-3471,-1693,-555,-159,-237,-85,263,161,-285
2,5441354,-3471,-1694,-555,-167,-231,-88,263,161,-285
2,5441362,-3471,-1694,-555,-167,-231,-88,263,161,-285
2,5441369,-3471,-1694,-555,-167,-231,-88,263,161,-285
2,5441375,-3470,-1691,-552,-163,-240,-92,257,153,-289
2,5441380,-3470,-1691,-552,-163,-240,-92,257,153,-289
2,5441386,-3470,-1691,-552,-163,-240,-92,257,153,-289
2,5441393,-3472,-1691,-547,-168,-242,-84,257,153,-289
2,5441401,-3472,-1691,-547,-168,-242,-84,257,153,-289
2,5441409,-3472,-1691,-547,-168,-242,-84,257,153,-289
2,5441416,-3470,-1693,-549,-165,-239,-87,257,153,-289
2,5441422,-3470,-1693,-549,-165,-239,-87,257,153,-289
2,5441430,-3470,-1693,-549,-165,-239,-87,257,153,-289
2,5441437,-3473,-1693,-551,-165,-225,-86,257,153,-289
2,5441444,-3473,-1693,-551,-165,-225,-86,257,153,-289
2,5441449,-3473,-1693,-551,-165,-225,-86,257,153,-289
2,5441457,-3472,-1693,-556,-166,-243,-83,257,153,-289
2,5441465,-3472,-1693,-556,-166,-243,-83,257,153,-289
2,5441471,-3472,-1693,-556,-166,-243,-83,257,153,-289
2,5441479,-3472,-1691,-553,-171,-248,-86,257,153,-289
2,5441486,-3472,-1691,-553,-171,-248,-86,257,153,-289
2,5441494,-3471,-1692,-552,-173,-245,-91,258,168,-288
2,5441500,-3471,-1692,-552,-173,-245,-91,258,168,-288
2,5441507,-3471,-1692,-552,-173,-245,-91,258,168,-288
2,5441512,-3471,-1689,-554,-168,-241,-88,258,168,-288
2,5441517,-3471,-1689,-554,-168,-241,-88,258,168,-288
2,5441522,-3471,-1689,-554,-168,-241,-88,258,168,-288
2,5441527,-3471,-1689,-554,-168,-241,-88,258,168,-288
2,5441532,-3469,-1690,-557,-170,-235,-82,258,168,-288
2,5441538,-3469,-1690,-557,-170,-235,-82,258,168,-288
2,5441543,-3469,-1690,-557,-170,-235,-82,258,168,-288
2,5441548,-3469,-1690,-557,-170,-235,-82,258,168,-288
2,5441553,-3473,-1696,-553,-168,-244,-80,258,168,-288
2,5441560,-3473,-1696,-553,-168,-244,-80,258,168,-288
2,5441566,-3473,-1696,-553,-168,-244,-80,258,168,-288
2,5441572,-3473,-1692,-557,-159,-247,-76,258,168,-288
2,5441581,-3473,-1692,-557,-159,-247,-76,258,168,-288
2,5441588,-3473,-1692,-557,-159,-247,-76,258,168,-288
2,5441596,-3471,-1692,-553,-161,-240,-78,258,168,-288
2,5441602,-3471,-1692,-553,-161,-240,-78,258,168,-288
2,5441609,-3471,-1692,-553,-161,-240,-78,258,168,-288
2,5441616,-3470,-1696,-555,-155,-240,-87,258,168,-288
2,5441623,-3470,-1696,-555,-155,-240,-87,258,168,-288
2,5441631,-3470,-1696,-555,-155,-240,-87,258,168,-288
2,5441638,-3474,-1694,-549,-167,-236,-90,262,158,-282
2,5441645,-3474,-1694,-549,-167,-236,-90,262,158,-282
2,5441652,-3473,-1693,-555,-166,-237,-87,262,158,-282
2,5441659,-3473,-1693,-555,-166,-237,-87,262,158,-282
2,5441667,-3473,-1693,-555,-166,-237,-87,262,158,-282
2,5441673,-3475,-1693,-554,-163,-232,-94,262,158,-282
2,5441681,-3475,-1693,-554,-163,-232,-94,262,158,-282
2,5441688,-3475,-1693,-554,-163,-232,-94,262,158,-282
2,5441696,-3474,-1693,-552,-161,-226,-84,262,158,-282
2,5441702,-3474,-1693,-552,-161,-226,-84,262,158,-282
2,5441710,-3474,-1693,-552,-161,-226,-84,262,158,-282
2,5441717,-3471,-1692,-555,-157,-238,-81,262,158,-282
2,5441725,-3471,-1692,-555,-157,-238,-81,262,158,-282
2,5441732,-3474,-1695,-554,-156,-236,-80,262,158,-282
2,5441739,-3474,-1695,-554,-156,-236,-80,262,158,-282
2,5441746,-3474,-1695,-554,-156,-236,-80,262,158,-282
2,5441755,-3471,-1691,-545,-160,-236,-79,255,157,-281
2,5441760,-3471,-1691,-545,-160,-236,-79,255,157,-281
2,5441766,-3471,-1691,-545,-160,-236,-79,255,157,-281
2,5441772,-3475,-1692,-555,-160,-237,-89,255,157,-281
2,5441779,-3475,-1692,-555,-160,-237,-89,255,157,-281
2,5441785,-3475,-1692,-555,-160,-237,-89,255,157,-281
2,5441792,-3472,-1694,-547,-159,-229,-86,255,157,-281
2,5441800,-3472,-1694,-547,-159,-229,-86,255,157,-281
2,5441806,-3472,-1694,-547,-159,-229,-86,255,157,-281
2,5441813,-3467,-1692,-556,-160,-231,-87,255,157,-281
2,5441819,-3467,-1692,-556,-160,-231,-87,255,157,-281
2,5441826,-3467,-1692,-556,-160,-231,-87,255,157,-281
2,5441833,-3470,-1691,-552,-162,-240,-85,255,157,-281
2,5441840,-3470,-1691,-552,-162,-240,-85,255,157,-281
2,5441848,-3470,-1691,-552,-162,-240,-85,255,157,-281
2,5441855,-3468,-1692,-554,-166,-233,-93,255,157,-281
2,5441861,-3468,-1692,-554,-166,-233,-93,255,157,-281
2,5441868,-3468,-1692,-554,-166,-233,-93,255,157,-281
2,5441873,-3472,-1695,-555,-163,-235,-84,267,159,-293
2,5441879,-3472,-1695,-555,-163,-235,-84,267,159,-293
2,5441886,-3472,-1695,-555,-163,-235,-84,267,159,-293
2,5441891,-3472,-1695,-555,-163,-235,-84,267,159,-293
2,5441898,-3468,-1691,-555,-162,-242,-79,267,159,-293
2,5441905,-3468,-1691,-555,-162,-242,-79,267,159,-293
2,5441912,-3469,-1690,-551,-159,-239,-87,267,159,-293
2,5441920,-3469,-1690,-551,-159,-239,-87,267,159,-293
2,5441927,-3469,-1690,-551,-159,-239,-87,267,159,-293
2,5441934,-3470,-1692,-554,-158,-236,-87,267,159,-293
2,5441940,-3470,-1692,-554,-158,-236,-87,267,159,-293
2,5441947,-3470,-1692,-554,-158,-236,-87,267,159,-293
2,5441954,-3475,-1694,-558,-159,-246,-89,267,159,-293
2,5441960,-3475,-1694,-558,-159,-246,-89,267,159,-293
2,5441968,-3475,-1694,-558,-159,-246,-89,267,159,-293
2,5441973,-3470,-1692,-555,-162,-243,-95,267,159,-293
2,5441980,-3470,-1692,-555,-162,-243,-95,267,159,-293
2,5441986,-3470,-1692,-555,-162,-243,-95,267,159,-293
2,5441994,-3471,-1692,-549,-169,-239,-88,263,173,-285
2,5442000,-3471,-1692,-549,-169,-239,-88,263,173,-285
2,5442008,-3471,-1692,-549,-169,-239,-88,263,173,-285
2,5442016,-3471,-1691,-549,-169,-237,-89,263,173,-285
2,5442022,-3471,-1691,-549,-169,-237,-89,263,173,-285
2,5442027,-3471,-1691,-549,-169,-237,-89,263,173,-285
2,5442034,-3471,-1692,-551,-158,-241,-87,263,173,-285
2,5442041,-3471,-1692,-551,-158,-241,-87,263,173,-285
2,5442049,-3471,-1692,-551,-158,-241,-87,263,173,-285
2,5442056,-3471,-1691,-557,-155,-235,-84,263,173,-285
2,5442062,-3471,-1691,-557,-155,-235,-84,263,173,-285
2,5442069,-3471,-1691,-557,-155,-235,-84,263,173,-285
2,5442078,-3473,-1690,-556,-160,-236,-86,263,173,-285
2,5442084,-3473,-1690,-556,-160,-236,-86,263,173,-285
2,5442094,-3470,-1692,-554,-159,-230,-85,263,173,-285
2,5442101,-3470,-1692,-554,-159,-230,-85,263,173,-285
2,5442107,-3470,-1692,-554,-159,-230,-85,263,173,-285
2,5442113,-3469,-1692,-553,-163,-230,-86,255,159,-285
2,5442121,-3469,-1692,-553,-163,-230,-86,255,159,-285
2,5442127,-3469,-1692,-553,-163,-230,-86,255,159,-285
2,5442136,-3473,-1694,-548,-162,-239,-88,255,159,-285
2,5442144,-3473,-1694,-548,-162,-239,-88,255,159,-285
2,5442151,-3473,-1694,-548,-162,-239,-88,255,159,-285
2,5442157,-3473,-1694,-557,-159,-238,-84,255,159,-285
2,5442165,-3473,-1694,-557,-159,-238,-84,255,159,-285
2,5442171,-3468,-1696,-558,-153,-240,-74,255,159,-285
2,5442179,-3468,-1696,-558,-153,-240,-74,255,159,-285
2,5442187,-3468,-1696,-558,-153,-240,-74,255,159,-285
2,5442193,-3468,-1691,-558,-152,-235,-83,255,159,-285
2,5442201,-3468,-1691,-558,-152,-235,-83,255,159,-285
2,5442209,-3468,-1691,-558,-152,-235,-83,255,159,-285
2,5442215,-3469,-1688,-554,-165,-235,-84,255,159,-285
2,5442223,-3469,-1688,-554,-165,-235,-84,255,159,-285
2,5442230,-3469,-1688,-554,-165,-235,-84,255,159,-285
2,5442237,-3472,-1691,-552,-156,-239,-84,255,159,-285
2,5442245,-3472,-1691,-552,-156,-239,-84,255,159,-285
2,5442251,-3472,-1691,-552,-156,-239,-84,255,159,-285
2,5442257,-3475,-1692,-549,-155,-246,-94,257,161,-281
2,5442264,-3475,-1692,-549,-155,-246,-94,257,161,-281
2,5442276,-3474,-1691,-552,-161,-246,-88,257,161,-281
2,5442290,-3474,-1691,-552,-161,-246,-88,257,161,-281
2,5442302,-3471,-1691,-551,-167,-244,-93,257,161,-281
2,5442316,-3472,-1693,-554,-161,-229,-87,257,161,-281
2,5442327,-3472,-1693,-554,-161,-229,-87,257,161,-281
2,5442340,-3472,-1695,-557,-158,-238,-89,257,161,-281
2,5442355,-3472,-1693,-556,-165,-236,-78,257,161,-281
2,5442368,-3472,-1693,-556,-165,-236,-78,257,161,-281
2,5442378,-3471,-1691,-551,-162,-235,-85,265,169,-285
2,5442393,-3470,-1694,-554,-162,-232,-88,265,169,-285
2,5442407,-3470,-1694,-554,-162,-232,-88,265,169,-285
2,5442421,-3475,-1691,-557,-165,-244,-81,265,169,-285
2,5442430,-3475,-1691,-557,-165,-244,-81,265,169,-285
2,5442441,-3473,-1690,-556,-163,-241,-84,265,169,-285
2,5442450,-3473,-1690,-556,-163,-241,-84,265,169,-285
2,5442458,-3469,-1695,-553,-168,-249,-89,265,169,-285
2,5442466,-3469,-1695,-553,-168,-249,-89,265,169,-285
2,5442476,-3469,-1691,-551,-158,-236,-86,265,169,-285
2,5442488,-3469,-1691,-551,-158,-236,-86,265,169,-285
2,5442498,-3469,-1692,-552,-159,-239,-85,260,158,-284
2,5442509,-3469,-1692,-552,-159,-239,-85,260,158,-284
2,5442516,-3469,-1693,-550,-160,-230,-87,260,158,-284
2,5442525,-3469,-1693,-550,-160,-230,-87,260,158,-284
2,5442533,-3471,-1692,-550,-161,-232,-86,260,158,-284
2,5442544,-3471,-1692,-550,-161,-232,-86,260,158,-284
2,5442556,-3471,-1694,-557,-159,-234,-90,260,158,-284
2,5442565,-3471,-1694,-557,-159,-234,-90,260,158,-284
2,5442578,-3467,-1692,-554,-162,-241,-85,260,158,-284
2,5442592,-3468,-1694,-554,-163,-224,-84,260,158,-284
2,5442604,-3468,-1694,-554,-163,-224,-84,260,158,-284
2,5442616,-3471,-1692,-546,-160,-242,-84,266,158,-282
2,5442628,-3471,-1692,-546,-160,-242,-84,266,158,-282
2,5442641,-3471,-1693,-553,-158,-239,-82,266,158,-282
2,5442653,-3470,-1693,-551,-159,-240,-84,266,158,-282
2,5442665,-3470,-1693,-551,-159,-240,-84,266,158,-282
2,5442678,-3471,-1694,-553,-165,-243,-80,266,158,-282
2,5442692,-3471,-1694,-553,-165,-243,-80,266,158,-282
2,5442701,-3473,-1694,-556,-165,-246,-84,266,158,-282
2,5442712,-3473,-1691,-557,-161,-234,-89,266,158,-282
2,5442724,-3473,-1691,-557,-161,-234,-89,266,158,-282
2,5442738,-3471,-1690,-555,-169,-234,-78,264,164,-288
2,5442748,-3471,-1690,-555,-169,-234,-78,264,164,-288
2,5442762,-3471,-1694,-553,-164,-238,-81,264,164,-288
2,5442775,-3472,-1691,-556,-163,-239,-84,264,164,-288
2,5442784,-3472,-1691,-556,-163,-239,-84,264,164,-288
2,5442795,-3474,-1691,-555,-165,-237,-83,264,164,-288
2,5442807,-3474,-1691,-555,-165,-237,-83,264,164,-288
2,5442816,-3470,-1691,-553,-156,-236,-80,264,164,-288
2,5442829,-3470,-1691,-553,-156,-236,-80,264,164,-288
2,5442842,-3472,-1691,-555,-160,-233,-90,264,164,-288
2,5442857,-3472,-1694,-553,-155,-238,-91,257,159,-285
2,5442866,-3472,-1694,-553,-155,-238,-91,257,159,-285
2,5442879,-3471,-1694,-552,-162,-241,-87,257,159,-285
2,5442893,-3474,-1694,-556,-165,-235,-83,257,159,-285
2,5442907,-3474,-1694,-556,-165,-235,-83,257,159,-285
2,5442916,-3471,-1693,-553,-161,-233,-84,257,159,-285
2,5442929,-3471,-1693,-553,-161,-233,-84,257,159,-285
2,5442942,-3472,-1693,-551,-154,-236,-83,257,159,-285
2,5442956,-3473,-1694,-549,-158,-234,-87,257,159,-285
2,5442965,-3473,-1694,-549,-158,-234,-87,257,159,-285
2,5442978,-3470,-1692,-554,-161,-238,-85,257,159,-285
2,5442992,-3470,-1692,-554,-161,-238,-85,257,159,-285
2,5443005,-3474,-1694,-554,-163,-242,-85,255,167,-281
2,5443015,-3470,-1695,-554,-166,-243,-74,255,167,-281
2,5443030,-3470,-1695,-554,-166,-243,-74,255,167,-281
2,5443042,-3471,-1696,-555,-167,-233,-80,255,167,-281
2,5443054,-3468,-1696,-550,-157,-242,-87,255,167,-281
2,5443067,-3468,-1696,-550,-157,-242,-87,255,167,-281
2,5443081,-3468,-1693,-551,-155,-246,-78,255,167,-281
2,5443092,-3469,-1694,-550,-163,-245,-90,255,167,-281
2,5443101,-3469,-1694,-550,-163,-245,-90,255,167,-281
2,5443109,-3469,-1694,-550,-163,-245,-90,255,167,-281
2,5443118,-3469,-1695,-556,-179,-241,-91,270,158,-288
2,5443127,-3469,-1695,-556,-179,-241,-91,270,158,-288
2,5443136,-3470,-1693,-551,-163,-241,-78,270,158,-288
2,5443147,-3470,-1693,-551,-163,-241,-78,270,158,-288
2,5443163,-3472,-1692,-552,-169,-237,-80,270,158,-288
2,5443176,-3470,-1693,-550,-162,-235,-83,270,158,-288
2,5443184,-3470,-1693,-550,-162,-235,-83,270,158,-288
2,5443196,-3472,-1694,-556,-159,-244,-89,270,158,-288
2,5443210,-3472,-1694,-556,-159,-244,-89,270,158,-288
2,5443223,-3471,-1690,-556,-163,-238,-89,270,158,-288
2,5443235,-3470,-1691,-553,-162,-240,-90,258,164,-280
2,5443248,-3470,-1691,-553,-162,-240,-90,258,164,-280
2,5443260,-3472,-1691,-554,-166,-244,-77,258,164,-280
2,5443274,-3473,-1692,-554,-161,-247,-79,258,164,-280
2,5443281,-3473,-1692,-554,-161,-247,-79,258,164,-280
2,5443288,-3473,-1692,-554,-161,-247,-79,258,164,-280
2,5443296,-3471,-1695,-553,-161,-243,-76,258,164,-280
2,5443303,-3471,-1695,-553,-161,-243,-76,258,164,-280
2,5443310,-3471,-1695,-553,-161,-243,-76,258,164,-280
2,5443315,-3471,-1695,-553,-161,-243,-76,258,164,-280
2,5443323,-3471,-1695,-553,-161,-243,-76,258,164,-280
2,5443332,-3471,-1695,-553,-161,-243,-76,258,164,-280
2,5443340,-3476,-1692,-553,-163,-240,-83,258,164,-280
2,5443346,-3476,-1692,-553,-163,-240,-83,258,164,-280
2,5443351,-3476,-1692,-553,-163,-240,-83,258,164,-280
2,5443358,-3472,-1696,-554,-165,-244,-80,260,160,-290
2,5443365,-3472,-1696,-554,-165,-244,-80,260,160,-290
2,5443373,-3470,-1694,-551,-162,-236,-86,260,160,-290
2,5443381,-3470,-1694,-551,-162,-236,-86,260,160,-290
2,5443388,-3470,-1694,-551,-162,-236,-86,260,160,-290
2,5443393,-3472,-1696,-550,-159,-238,-94,260,160,-290
2,5443401,-3472,-1696,-550,-159,-238,-94,260,160,-290
2,5443407,-3472,-1696,-550,-159,-238,-94,260,160,-290
2,5443415,-3473,-1695,-550,-159,-233,-90,260,160,-290
2,5443423,-3473,-1695,-550,-159,-233,-90,260,160,-290
2,5443430,-3473,-1695,-550,-159,-233,-90,260,160,-290
2,5443436,-3473,-1691,-554,-159,-236,-89,260,160,-290
2,5443442,-3473,-1691,-554,-159,-236,-89,260,160,-290
2,5443448,-3473,-1691,-554,-159,-236,-89,260,160,-290
2,5443457,-3471,-1694,-552,-167,-234,-91,260,160,-290
2,5443465,-3471,-1694,-552,-167,-234,-91,260,160,-290
2,5443474,-3469,-1695,-555,-166,-233,-80,267,161,-297
2,5443481,-3469,-1695,-555,-166,-233,-80,267,161,-297
2,5443488,-3469,-1695,-555,-166,-233,-80,267,161,-297
2,5443495,-3469,-1693,-550,-163,-243,-81,267,161,-297
2,5443502,-3469,-1693,-550,-163,-243,-81,267,161,-297
2,5443509,-3469,-1693,-550,-163,-243,-81,267,161,-297
2,5443514,-3469,-1693,-553,-161,-239,-83,267,161,-297
2,5443519,-3469,-1693,-553,-161,-239,-83,267,161,-297
2,5443524,-3469,-1693,-553,-161,-239,-83,267,161,-297
2,5443529,-3469,-1693,-553,-161,-239,-83,267,161,-297
2,5443535,-3471,-1690,-555,-161,-242,-84,267,161,-297
2,5443540,-3471,-1690,-555,-161,-242,-84,267,161,-297
2,5443549,-3471,-1690,-555,-161,-242,-84,267,161,-297
2,5443556,-3471,-1694,-552,-165,-236,-88,267,161,-297
2,5443562,-3471,-1694,-552,-165,-236,-88,267,161,-297
2,5443570,-3471,-1694,-552,-165,-236,-88,267,161,-297
2,5443576,-3472,-1695,-553,-167,-239,-88,267,161,-297
2,5443584,-3472,-1695,-553,-167,-239,-88,267,161,-297
2,5443592,-3472,-1695,-553,-167,-239,-88,267,161,-297
2,5443599,-3472,-1692,-549,-163,-237,-82,267,161,-297
2,5443606,-3472,-1692,-549,-163,-237,-82,267,161,-297
2,5443613,-3472,-1694,-556,-165,-235,-77,255,161,-285
2,5443621,-3472,-1694,-556,-165,-235,-77,255,161,-285
2,5443629,-3472,-1694,-556,-165,-235,-77,255,161,-285
2,5443635,-3471,-1694,-555,-160,-243,-81,255,161,-285
2,5443640,-3471,-1694,-555,-160,-243,-81,255,161,-285
2,5443646,-3471,-1694,-555,-160,-243,-81,255,161,-285
2,5443651,-3471,-1694,-555,-160,-243,-81,255,161,-285
2,5443657,-3471,-1693,-551,-170,-239,-86,255,161,-285
2,5443664,-3471,-1693,-551,-170,-239,-86,255,161,-285
2,5443670,-3471,-1693,-551,-170,-239,-86,255,161,-285
2,5443678,-3470,-1693,-552,-164,-238,-80,255,161,-285
2,5443684,-3470,-1693,-552,-164,-238,-80,255,161,-285
2,5443691,-3470,-1693,-552,-164,-238,-80,255,161,-285
2,5443699,-3470,-1690,-558,-168,-232,-83,255,161,-285
2,5443705,-3470,-1690,-558,-168,-232,-83,255,161,-285
2,5443714,-3472,-1692,-554,-161,-241,-79,255,161,-285
2,5443720,-3472,-1692,-554,-161,-241,-79,255,161,-285
2,5443726,-3472,-1692,-554,-161,-241,-79,255,161,-285
2,5443733,-3472,-1692,-554,-161,-241,-79,255,161,-285
2,5443741,-3470,-1691,-546,-154,-236,-78,265,163,-281
2,5443747,-3470,-1691,-546,-154,-236,-78,265,163,-281
2,5443755,-3472,-1692,-548,-161,-238,-83,265,163,-281
2,5443762,-3472,-1692,-548,-161,-238,-83,265,163,-281
2,5443768,-3472,-1692,-548,-161,-238,-83,265,163,-281
2,5443775,-3471,-1691,-552,-165,-241,-84,265,163,-281
2,5443782,-3471,-1691,-552,-165,-241,-84,265,163,-281
2,5443790,-3471,-1691,-552,-165,-241,-84,265,163,-281
2,5443796,-3472,-1690,-553,-157,-238,-86,265,163,-281
2,5443805,-3472,-1690,-553,-157,-238,-86,265,163,-281
2,5443812,-3472,-1690,-553,-157,-238,-86,265,163,-281
2,5443818,-3470,-1694,-552,-158,-230,-85,265,163,-281
2,5443826,-3470,-1694,-552,-158,-230,-85,265,163,-281
2,5443833,-3471,-1692,-554,-170,-236,-82,265,163,-281
2,5443841,-3471,-1692,-554,-170,-236,-82,265,163,-281
2,5443847,-3471,-1692,-554,-170,-236,-82,265,163,-281
2,5443853,-3471,-1692,-554,-170,-236,-82,265,163,-281
2,5443861,-3471,-1695,-551,-158,-238,-85,259,161,-289
2,5443870,-3471,-1695,-551,-158,-238,-85,259,161,-289
2,5443876,-3473,-1691,-552,-164,-241,-86,259,161,-289
2,5443884,-3473,-1691,-552,-164,-241,-86,259,161,-289
2,5443892,-3473,-1691,-552,-164,-241,-86,259,161,-289
2,5443898,-3474,-1692,-550,-167,-239,-87,259,161,-289
2,5443905,-3474,-1692,-550,-167,-239,-87,259,161,-289
2,5443912,-3474,-1692,-550,-167,-239,-87,259,161,-289
2,5443920,-3472,-1693,-552,-158,-232,-87,259,161,-289
2,5443928,-3472,-1693,-552,-158,-232,-87,259,161,-289
2,5443934,-3472,-1691,-552,-163,-238,-85,259,161,-289
2,5443941,-3472,-1691,-552,-163,-238,-85,259,161,-289
2,5443948,-3472,-1691,-552,-163,-238,-85,259,161,-289
2,5443955,-3471,-1694,-555,-162,-241,-89,259,161,-289
2,5443961,-3471,-1694,-555,-162,-241,-89,259,161,-289
2,5443969,-3471,-1694,-555,-162,-241,-89,259,161,-289
2,5443977,-3471,-1693,-550,-158,-229,-87,263,155,-293
2,5443984,-3471,-1693,-550,-158,-229,-87,263,155,-293
2,5443992,-3471,-1693,-550,-158,-229,-87,263,155,-293
2,5443999,-3474,-1697,-548,-165,-232,-91,263,155,-293
2,5444007,-3474,-1697,-548,-165,-232,-91,263,155,-293
2,5444013,-3474,-1697,-548,-165,-232,-91,263,155,-293
2,5444019,-3473,-1695,-549,-168,-239,-78,263,155,-293
2,5444027,-3473,-1695,-549,-168,-239,-78,263,155,-293
2,5444034,-3474,-1692,-561,-159,-233,-81,263,155,-293
2,5444043,-3474,-1692,-561,-159,-233,-81,263,155,-293
2,5444049,-3474,-1692,-561,-159,-233,-81,263,155,-293
2,5444057,-3471,-1694,-561,-157,-234,-88,263,155,-293
2,5444063,-3471,-1694,-561,-157,-234,-88,263,155,-293
2,5444071,-3471,-1694,-561,-157,-234,-88,263,155,-293
2,5444078,-3471,-1694,-555,-167,-238,-82,263,155,-293
2,5444085,-3471,-1694,-555,-167,-238,-82,263,155,-293
2,5444093,-3473,-1693,-556,-166,-233,-87,263,157,-293
2,5444102,-3473,-1693,-556,-166,-233,-87,263,157,-293
2,5444109,-3473,-1693,-556,-166,-233,-87,263,157,-293
2,5444115,-3470,-1692,-552,-171,-232,-87,263,157,-293
2,5444122,-3470,-1692,-552,-171,-232,-87,263,157,-293
2,5444127,-3470,-1692,-552,-171,-232,-87,263,157,-293
2,5444132,-3470,-1692,-552,-171,-232,-87,263,157,-293
2,5444137,-3471,-1695,-553,-165,-242,-91,263,157,-293
2,5444145,-3471,-1695,-553,-165,-242,-91,263,157,-293
2,5444151,-3471,-1695,-553,-165,-242,-91,263,157,-293
2,5444157,-3469,-1694,-558,-163,-243,-87,263,157,-293
2,5444163,-3469,-1694,-558,-163,-243,-87,263,157,-293
2,5444169,-3469,-1694,-558,-163,-243,-87,263,157,-293
2,5444177,-3473,-1692,-552,-166,-239,-85,263,157,-293
2,5444186,-3473,-1692,-552,-166,-239,-85,263,157,-293
2,5444194,-3472,-1692,-552,-167,-238,-85,263,157,-293
2,5444201,-3472,-1692,-552,-167,-238,-85,263,157,-293
2,5444208,-3472,-1692,-552,-167,-238,-85,263,157,-293
2,5444214,-3475,-1694,-554,-165,-239,-83,263,157,-293
2,5444222,-3475,-1694,-554,-165,-239,-83,263,157,-293
2,5444230,-3475,-1694,-554,-165,-239,-83,263,157,-293
2,5444235,-3467,-1691,-549,-162,-238,-83,262,164,-288
2,5444243,-3467,-1691,-549,-162,-238,-83,262,164,-288
2,5444250,-3467,-1691,-549,-162,-238,-83,262,164,-288
2,5444257,-3470,-1692,-557,-167,-235,-89,262,164,-288
2,5444263,-3470,-1692,-557,-167,-235,-89,262,164,-288
2,5444272,-3470,-1692,-557,-167,-235,-89,262,164,-288
2,5444280,-3473,-1693,-554,-160,-243,-80,262,164,-288
2,5444292,-3473,-1693,-554,-160,-243,-80,262,164,-288
2,5444304,-3471,-1690,-557,-160,-233,-81,262,164,-288
2,5444319,-3470,-1689,-553,-160,-235,-87,262,164,-288
2,5444332,-3470,-1689,-553,-160,-235,-87,262,164,-288
2,5444345,-3469,-1694,-555,-161,-243,-93,262,164,-288
2,5444356,-3469,-1693,-547,-162,-241,-91,262,166,-286
2,5444369,-3469,-1693,-547,-162,-241,-91,262,166,-286
2,5444380,-3472,-1691,-554,-164,-239,-82,262,166,-286
2,5444393,-3472,-1694,-550,-161,-246,-85,262,166,-286
2,5444405,-3472,-1694,-550,-161,-246,-85,262,166,-286
2,5444418,-3469,-1694,-555,-161,-238,-79,262,166,-286
2,5444429,-3469,-1694,-555,-161,-238,-79,262,166,-286
2,5444442,-3471,-1695,-554,-164,-240,-84,262,166,-286
2,5444454,-3470,-1696,-554,-159,-240,-92,262,166,-286
2,5444468,-3470,-1696,-554,-159,-240,-92,262,166,-286
2,5444477,-3472,-1693,-551,-159,-243,-80,264,162,-292
2,5444489,-3472,-1693,-551,-159,-243,-80,264,162,-292
2,5444501,-3467,-1694,-556,-159,-239,-79,264,162,-292
2,5444510,-3467,-1694,-556,-159,-239,-79,264,162,-292
2,5444518,-3470,-1693,-555,-156,-242,-91,264,162,-292
2,5444528,-3470,-1693,-555,-156,-242,-91,264,162,-292
2,5444535,-3471,-1693,-554,-164,-238,-90,264,162,-292
2,5444546,-3471,-1693,-554,-164,-238,-90,264,162,-292
2,5444558,-3473,-1693,-549,-154,-244,-88,264,162,-292
2,5444572,-3473,-1693,-549,-154,-244,-88,264,162,-292
2,5444584,-3472,-1692,-556,-160,-243,-88,264,162,-292
2,5444592,-3472,-1692,-556,-160,-243,-88,264,162,-292
2,5444604,-3471,-1693,-553,-157,-232,-85,273,159,-287
2,5444619,-3471,-1695,-552,-157,-234,-87,273,159,-287
2,5444632,-3471,-1695,-552,-157,-234,-87,273,159,-287
2,5444641,-3469,-1690,-554,-165,-238,-82,273,159,-287
2,5444655,-3470,-1693,-556,-158,-240,-82,273,159,-287
2,5444669,-3470,-1693,-556,-158,-240,-82,273,159,-287
2,5444683,-3471,-1692,-556,-157,-241,-79,273,159,-287
2,5444691,-3471,-1692,-556,-157,-241,-79,273,159,-287
2,5444705,-3473,-1693,-557,-159,-238,-84,273,159,-287
2,5444719,-3471,-1694,-555,-163,-239,-84,260,164,-282
2,5444733,-3471,-1694,-555,-163,-239,-84,260,164,-282
2,5444743,-3471,-1692,-550,-171,-238,-82,260,164,-282
2,5444753,-3471,-1692,-550,-171,-238,-82,260,164,-282
2,5444762,-3472,-1693,-554,-165,-245,-81,260,164,-282
2,5444770,-3472,-1693,-554,-165,-245,-81,260,164,-282
2,5444779,-3471,-1693,-549,-163,-246,-88,260,164,-282
2,5444789,-3471,-1693,-549,-163,-246,-88,260,164,-282
2,5444801,-3469,-1697,-553,-160,-234,-87,260,164,-282
2,5444809,-3469,-1697,-553,-160,-234,-87,260,164,-282
2,5444823,-3471,-1693,-549,-159,-241,-78,260,164,-282
2,5444836,-3469,-1690,-555,-167,-246,-78,260,164,-282
2,5444846,-3469,-1690,-555,-167,-246,-78,260,164,-282
2,5444857,-3470,-1696,-551,-163,-250,-84,263,159,-291
2,5444871,-3470,-1696,-551,-163,-250,-84,263,159,-291
2,5444885,-3474,-1696,-556,-158,-245,-89,263,159,-291
2,5444893,-3474,-1696,-556,-158,-245,-89,263,159,-291
2,5444905,-3471,-1691,-554,-157,-241,-83,263,159,-291
2,5444921,-3468,-1693,-558,-159,-238,-82,263,159,-291
2,5444935,-3471,-1694,-553,-163,-236,-80,263,159,-291
2,5444943,-3471,-1694,-553,-163,-236,-80,263,159,-291
2,5444957,-3472,-1690,-557,-157,-245,-83,263,159,-291
2,5444972,-3472,-1690,-557,-157,-245,-83,263,159,-291
2,5444981,-3472,-1694,-549,-152,-241,-86,262,158,-286
2,5444993,-3472,-1694,-549,-152,-241,-86,262,158,-286
2,5445007,-3472,-1692,-556,-155,-234,-91,262,158,-286
2,5445019,-3472,-1695,-553,-164,-241,-91,262,158,-286
2,5445033,-3472,-1695,-553,-164,-241,-91,262,158,-286
2,5445043,-3472,-1695,-555,-160,-240,-87,262,158,-286
2,5445054,-3469,-1692,-554,-163,-240,-84,262,158,-286
2,5445064,-3469,-1692,-554,-163,-240,-84,262,158,-286
2,5445075,-3472,-1693,-554,-162,-249,-88,262,158,-286
2,5445090,-3472,-1693,-554,-162,-249,-88,262,158,-286
2,5445105,-3475,-1693,-553,-163,-243,-83,263,161,-285
2,5445115,-3471,-1695,-553,-167,-243,-91,263,161,-285
2,5445129,-3471,-1695,-553,-167,-243,-91,263,161,-285
2,5445142,-3469,-1695,-559,-162,-246,-90,263,161,-285
2,5445156,-3469,-1694,-556,-155,-246,-91,263,161,-285
2,5445169,-3469,-1694,-556,-155,-246,-91,263,161,-285
2,5445181,-3471,-1693,-554,-161,-240,-83,263,161,-285
2,5445194,-3471,-1693,-554,-161,-240,-83,263,161,-285
2,5445208,-3470,-1691,-555,-162,-235,-91,263,161,-285
2,5445220,-3471,-1692,-555,-157,-234,-87,256,160,-282
2,5445231,-3471,-1692,-555,-157,-234,-87,256,160,-282
2,5445244,-3472,-1692,-557,-160,-232,-85,256,160,-282
2,5445259,-3470,-1696,-558,-159,-239,-80,256,160,-282
2,5445271,-3470,-1696,-558,-159,-239,-80,256,160,-282
2,5445279,-3470,-1696,-558,-159,-239,-80,256,160,-282
2,5445291,-3470,-1696,-558,-159,-239,-80,256,160,-282
2,5445298,-3470,-1694,-556,-156,-229,-87,256,160,-282
2,5445304,-3470,-1694,-556,-156,-229,-87,256,160,-282
2,5445311,-3470,-1694,-556,-156,-229,-87,256,160,-282
2,5445317,-3473,-1690,-553,-165,-238,-88,256,160,-282
2,5445324,-3473,-1690,-553,-165,-238,-88,256,160,-282
2,5445332,-3473,-1690,-553,-165,-238,-88,256,160,-282
2,5445340,-3470,-1695,-552,-163,-235,-87,263,159,-287
2,5445346,-3470,-1695,-552,-163,-235,-87,263,159,-287
2,5445354,-3470,-1695,-552,-163,-235,-87,263,159,-287
2,5445362,-3470,-1691,-551,-165,-239,-81,263,159,-287
2,5445368,-3470,-1691,-551,-165,-239,-81,263,159,-287
2,5445374,-3470,-1691,-552,-162,-243,-80,263,159,-287
2,5445380,-3470,-1691,-552,-162,-243,-80,263,159,-287
