imu,time,ax,ay,az,gx,gy,gz,mx,my,mz
2,7680945,-3452,-1649,-984,-158,-245,-90,304,34,-130
2,7680953,-3452,-1649,-984,-158,-245,-90,304,34,-130
2,7680961,-3454,-1652,-983,-157,-241,-85,304,34,-130
2,7680969,-3454,-1652,-983,-157,-241,-85,304,34,-130
2,7680977,-3454,-1650,-987,-157,-246,-83,304,34,-130
2,7680986,-3454,-1650,-987,-157,-246,-83,304,34,-130
2,7680994,-3454,-1650,-987,-157,-246,-83,304,34,-130
2,7681001,-3454,-1648,-988,-154,-243,-83,304,34,-130
2,7681009,-3454,-1648,-988,-154,-243,-83,304,34,-130
2,7681017,-3451,-1649,-983,-155,-244,-81,304,34,-130
2,7681025,-3451,-1649,-983,-155,-244,-81,304,34,-130
2,7681033,-3451,-1649,-983,-155,-244,-81,304,34,-130
2,7681041,-3450,-1647,-982,-156,-241,-85,295,37,-131
2,7681049,-3450,-1647,-982,-156,-241,-85,295,37,-131
2,7681056,-3449,-1648,-984,-163,-246,-90,295,37,-131
2,7681069,-3449,-1648,-984,-163,-246,-90,295,37,-131
2,7681077,-3451,-1648,-986,-169,-244,-87,295,37,-131
2,7681087,-3451,-1648,-986,-169,-244,-87,295,37,-131
2,7681096,-3450,-1650,-985,-166,-246,-88,295,37,-131
2,7681105,-3450,-1650,-985,-166,-246,-88,295,37,-131
2,7681115,-3450,-1650,-985,-166,-246,-88,295,37,-131
2,7681124,-3451,-1651,-984,-162,-244,-91,295,37,-131
2,7681134,-3451,-1651,-984,-162,-244,-91,295,37,-131
2,7681146,-3452,-1649,-987,-161,-244,-92,295,37,-131
2,7681160,-3451,-1649,-982,-157,-242,-89,301,37,-139
2,7681174,-3451,-1649,-982,-157,-242,-89,301,37,-139
2,7681185,-3452,-1650,-984,-164,-240,-89,301,37,-139
2,7681198,-3452,-1649,-986,-161,-248,-85,301,37,-139
2,7681208,-3452,-1649,-986,-161,-248,-85,301,37,-139
2,7681218,-3450,-1647,-984,-163,-242,-86,301,37,-139
2,7681227,-3450,-1647,-984,-163,-242,-86,301,37,-139
2,7681234,-3450,-1647,-984,-163,-242,-86,301,37,-139
2,7681244,-3453,-1646,-985,-164,-245,-93,301,37,-139
2,7681254,-3453,-1646,-985,-164,-245,-93,301,37,-139
2,7681263,-3451,-1647,-986,-166,-243,-91,301,37,-139
2,7681271,-3451,-1647,-986,-166,-243,-91,301,37,-139
2,7681282,-3455,-1647,-979,-153,-250,-87,299,39,-129
2,7681292,-3455,-1647,-979,-153,-250,-87,299,39,-129
2,7681299,-3455,-1649,-985,-164,-251,-86,299,39,-129
2,7681310,-3455,-1649,-985,-164,-251,-86,299,39,-129
2,7681318,-3449,-1650,-980,-168,-253,-90,299,39,-129
2,7681328,-3449,-1650,-980,-168,-253,-90,299,39,-129
2,7681336,-3452,-1648,-985,-160,-242,-91,299,39,-129
2,7681342,-3452,-1648,-985,-160,-242,-91,299,39,-129
2,7681348,-3452,-1648,-985,-160,-242,-91,299,39,-129
2,7681354,-3452,-1648,-985,-160,-242,-91,299,39,-129
2,7681362,-3451,-1649,-985,-162,-250,-94,299,39,-129
2,7681372,-3451,-1649,-985,-162,-250,-94,299,39,-129
2,7681382,-3454,-1648,-984,-169,-248,-92,299,39,-129
2,7681391,-3454,-1648,-984,-169,-248,-92,299,39,-129
2,7681400,-3454,-1648,-977,-165,-247,-85,295,41,-131
2,7681410,-3454,-1648,-977,-165,-247,-85,295,41,-131
2,7681419,-3456,-1647,-981,-162,-248,-85,295,41,-131
2,7681428,-3456,-1647,-981,-162,-248,-85,295,41,-131
2,7681438,-3454,-1647,-980,-162,-251,-89,295,41,-131
2,7681445,-3454,-1647,-980,-162,-251,-89,295,41,-131
2,7681456,-3454,-1647,-980,-162,-251,-89,295,41,-131
2,7681463,-3455,-1648,-984,-165,-247,-84,295,41,-131
2,7681473,-3455,-1648,-984,-165,-247,-84,295,41,-131
2,7681483,-3453,-1648,-985,-160,-247,-84,295,41,-131
2,7681490,-3453,-1648,-985,-160,-247,-84,295,41,-131
2,7681500,-3454,-1651,-984,-165,-246,-80,295,41,-131
2,7681511,-3454,-1651,-984,-165,-246,-80,295,41,-131
2,7681517,-3453,-1649,-987,-156,-250,-93,295,41,-131
2,7681526,-3453,-1649,-987,-156,-250,-93,295,41,-131
2,7681534,-3453,-1649,-987,-156,-250,-93,295,41,-131
2,7681544,-3449,-1650,-981,-163,-249,-96,297,49,-133
2,7681550,-3449,-1650,-981,-163,-249,-96,297,49,-133
2,7681559,-3452,-1650,-984,-163,-247,-84,297,49,-133
2,7681569,-3452,-1650,-984,-163,-247,-84,297,49,-133
2,7681579,-3456,-1648,-979,-161,-241,-84,297,49,-133
2,7681589,-3456,-1648,-979,-161,-241,-84,297,49,-133
2,7681599,-3452,-1649,-981,-158,-241,-87,297,49,-133
2,7681609,-3452,-1649,-981,-158,-241,-87,297,49,-133
2,7681619,-3457,-1649,-988,-158,-239,-89,297,49,-133
2,7681629,-3457,-1649,-988,-158,-239,-89,297,49,-133
2,7681639,-3452,-1649,-984,-158,-246,-87,297,49,-133
2,7681649,-3452,-1649,-984,-158,-246,-87,297,49,-133
2,7681659,-3450,-1649,-979,-158,-242,-87,293,43,-127
2,7681666,-3450,-1649,-979,-158,-242,-87,293,43,-127
2,7681672,-3450,-1649,-979,-158,-242,-87,293,43,-127
2,7681678,-3453,-1650,-979,-163,-248,-82,293,43,-127
2,7681683,-3453,-1650,-979,-163,-248,-82,293,43,-127
2,7681690,-3453,-1650,-979,-163,-248,-82,293,43,-127
2,7681696,-3452,-1646,-977,-166,-250,-74,293,43,-127
2,7681707,-3452,-1646,-977,-166,-250,-74,293,43,-127
2,7681713,-3452,-1646,-977,-166,-250,-74,293,43,-127
2,7681719,-3459,-1649,-985,-168,-248,-80,293,43,-127
2,7681725,-3459,-1649,-985,-168,-248,-80,293,43,-127
2,7681730,-3459,-1649,-985,-168,-248,-80,293,43,-127
2,7681735,-3459,-1649,-985,-168,-248,-80,293,43,-127
2,7681740,-3454,-1652,-979,-161,-247,-82,293,43,-127
2,7681745,-3454,-1652,-979,-161,-247,-82,293,43,-127
2,7681751,-3454,-1652,-979,-161,-247,-82,293,43,-127
2,7681758,-3457,-1651,-979,-162,-248,-79,293,43,-127
2,7681766,-3457,-1651,-979,-162,-248,-79,293,43,-127
2,7681773,-3457,-1651,-979,-162,-248,-79,293,43,-127
2,7681779,-3458,-1649,-979,-163,-250,-77,295,37,-129
2,7681786,-3458,-1649,-979,-163,-250,-77,295,37,-129
2,7681795,-3458,-1649,-979,-163,-250,-77,295,37,-129
2,7681802,-3456,-1647,-978,-160,-245,-85,295,37,-129
2,7681808,-3456,-1647,-978,-160,-245,-85,295,37,-129
2,7681814,-3456,-1647,-978,-160,-245,-85,295,37,-129
2,7681821,-3455,-1650,-981,-164,-243,-81,295,37,-129
2,7681828,-3455,-1650,-981,-164,-243,-81,295,37,-129
2,7681836,-3447,-1648,-980,-162,-241,-80,295,37,-129
2,7681843,-3447,-1648,-980,-162,-241,-80,295,37,-129
2,7681851,-3447,-1648,-980,-162,-241,-80,295,37,-129
2,7681859,-3451,-1648,-979,-160,-246,-79,295,37,-129
2,7681865,-3451,-1648,-979,-160,-246,-79,295,37,-129
2,7681875,-3451,-1648,-979,-160,-246,-79,295,37,-129
2,7681886,-3455,-1646,-987,-169,-244,-78,295,37,-129
2,7681897,-3460,-1645,-981,-167,-256,-83,301,37,-125
2,7681905,-3460,-1645,-981,-167,-256,-83,301,37,-125
2,7681913,-3460,-1645,-981,-167,-256,-83,301,37,-125
2,7681921,-3458,-1645,-981,-162,-249,-82,301,37,-125
2,7681927,-3458,-1645,-981,-162,-249,-82,301,37,-125
2,7681933,-3458,-1645,-981,-162,-249,-82,301,37,-125
2,7681944,-3458,-1647,-982,-167,-251,-78,301,37,-125
2,7681955,-3458,-1647,-982,-167,-251,-78,301,37,-125
2,7681965,-3455,-1650,-984,-172,-238,-92,301,37,-125
2,7681975,-3455,-1650,-984,-172,-238,-92,301,37,-125
2,7681982,-3457,-1651,-980,-170,-245,-102,301,37,-125
2,7681994,-3457,-1651,-980,-170,-245,-102,301,37,-125
2,7682002,-3457,-1650,-976,-170,-245,-100,301,37,-125
2,7682009,-3457,-1650,-976,-170,-245,-100,301,37,-125
2,7682016,-3457,-1650,-976,-170,-245,-100,301,37,-125
2,7682022,-3456,-1649,-982,-167,-248,-91,300,40,-128
2,7682032,-3456,-1649,-982,-167,-248,-91,300,40,-128
2,7682042,-3458,-1650,-979,-159,-249,-82,300,40,-128
2,7682053,-3458,-1650,-979,-159,-249,-82,300,40,-128
2,7682063,-3454,-1648,-978,-159,-249,-81,300,40,-128
2,7682074,-3454,-1648,-978,-159,-249,-81,300,40,-128
2,7682082,-3452,-1648,-983,-164,-243,-90,300,40,-128
2,7682094,-3452,-1648,-983,-164,-243,-90,300,40,-128
2,7682102,-3456,-1646,-982,-169,-242,-78,300,40,-128
2,7682112,-3456,-1646,-982,-169,-242,-78,300,40,-128
2,7682120,-3456,-1649,-979,-164,-236,-76,300,40,-128
2,7682130,-3456,-1649,-979,-164,-236,-76,300,40,-128
2,7682138,-3454,-1651,-984,-166,-242,-82,300,40,-128
2,7682149,-3454,-1651,-984,-166,-242,-82,300,40,-128
2,7682159,-3461,-1646,-976,-163,-247,-90,300,40,-132
2,7682169,-3461,-1646,-976,-163,-247,-90,300,40,-132
2,7682179,-3456,-1650,-979,-162,-244,-94,300,40,-132
2,7682186,-3456,-1650,-979,-162,-244,-94,300,40,-132
2,7682196,-3460,-1649,-976,-156,-255,-87,300,40,-132
2,7682203,-3460,-1649,-976,-156,-255,-87,300,40,-132
2,7682215,-3460,-1649,-976,-156,-255,-87,300,40,-132
2,7682231,-3456,-1650,-975,-164,-250,-88,300,40,-132
2,7682247,-3454,-1647,-981,-168,-252,-87,300,40,-132
2,7682259,-3451,-1647,-981,-167,-249,-81,300,40,-132
2,7682272,-3451,-1647,-981,-167,-249,-81,300,40,-132
2,7682285,-3455,-1649,-979,-160,-245,-83,295,39,-131
2,7682298,-3458,-1648,-977,-165,-250,-84,295,39,-131
2,7682311,-3458,-1648,-977,-165,-250,-84,295,39,-131
2,7682323,-3460,-1647,-978,-171,-254,-85,295,39,-131
2,7682337,-3460,-1649,-981,-166,-256,-83,295,39,-131
2,7682351,-3460,-1649,-981,-166,-256,-83,295,39,-131
2,7682363,-3456,-1650,-980,-167,-248,-92,295,39,-131
2,7682372,-3456,-1650,-980,-167,-248,-92,295,39,-131
2,7682383,-3456,-1646,-980,-165,-239,-94,295,39,-131
2,7682397,-3457,-1648,-978,-160,-248,-88,299,39,-137
2,7682411,-3457,-1648,-978,-160,-248,-88,299,39,-137
2,7682420,-3451,-1647,-979,-162,-247,-92,299,39,-137
2,7682433,-3451,-1647,-979,-162,-247,-92,299,39,-137
2,7682445,-3453,-1647,-975,-161,-245,-84,299,39,-137
2,7682458,-3455,-1649,-979,-169,-254,-78,299,39,-137
2,7682469,-3455,-1649,-979,-169,-254,-78,299,39,-137
2,7682481,-3457,-1648,-981,-161,-253,-81,299,39,-137
2,7682496,-3457,-1648,-981,-161,-253,-81,299,39,-137
2,7682509,-3458,-1650,-978,-159,-247,-88,299,39,-137
2,7682520,-3458,-1651,-977,-158,-250,-78,296,36,-138
2,7682533,-3458,-1651,-977,-158,-250,-78,296,36,-138
2,7682546,-3455,-1652,-980,-160,-248,-83,296,36,-138
2,7682560,-3450,-1646,-980,-158,-246,-93,296,36,-138
2,7682571,-3450,-1646,-980,-158,-246,-93,296,36,-138
2,7682584,-3454,-1650,-986,-165,-237,-91,296,36,-138
2,7682597,-3456,-1646,-978,-164,-238,-81,296,36,-138
2,7682611,-3456,-1646,-978,-164,-238,-81,296,36,-138
2,7682620,-3454,-1645,-984,-161,-242,-83,296,36,-138
2,7682632,-3454,-1645,-984,-161,-242,-83,296,36,-138
2,7682643,-3455,-1649,-974,-157,-241,-87,291,43,-129
2,7682657,-3457,-1649,-977,-160,-238,-86,291,43,-129
2,7682666,-3457,-1649,-977,-160,-238,-86,291,43,-129
2,7682674,-3457,-1649,-977,-160,-238,-86,291,43,-129
2,7682682,-3455,-1648,-979,-162,-245,-84,291,43,-129
2,7682690,-3455,-1648,-979,-162,-245,-84,291,43,-129
2,7682698,-3452,-1648,-982,-165,-248,-83,291,43,-129
2,7682706,-3452,-1648,-982,-165,-248,-83,291,43,-129
2,7682714,-3452,-1648,-982,-165,-248,-83,291,43,-129
2,7682722,-3456,-1647,-979,-169,-244,-83,291,43,-129
2,7682731,-3456,-1647,-979,-169,-244,-83,291,43,-129
2,7682740,-3456,-1648,-981,-158,-239,-82,291,43,-129
2,7682748,-3456,-1648,-981,-158,-239,-82,291,43,-129
2,7682756,-3456,-1648,-981,-158,-239,-82,291,43,-129
2,7682764,-3456,-1649,-980,-162,-240,-84,291,43,-129
2,7682772,-3456,-1649,-980,-162,-240,-84,291,43,-129
2,7682781,-3458,-1648,-975,-167,-250,-91,299,41,-133
2,7682789,-3458,-1648,-975,-167,-250,-91,299,41,-133
2,7682797,-3456,-1649,-983,-164,-244,-87,299,41,-133
2,7682805,-3456,-1649,-983,-164,-244,-87,299,41,-133
2,7682814,-3456,-1649,-983,-164,-244,-87,299,41,-133
2,7682823,-3457,-1646,-980,-162,-243,-85,299,41,-133
2,7682833,-3457,-1646,-980,-162,-243,-85,299,41,-133
2,7682842,-3455,-1652,-981,-162,-241,-86,299,41,-133
2,7682851,-3455,-1652,-981,-162,-241,-86,299,41,-133
2,7682860,-3453,-1651,-978,-161,-238,-81,299,41,-133
2,7682869,-3453,-1651,-978,-161,-238,-81,299,41,-133
2,7682879,-3454,-1650,-985,-165,-242,-84,299,41,-133
2,7682888,-3454,-1650,-985,-165,-242,-84,299,41,-133
2,7682902,-3454,-1649,-975,-164,-254,-78,296,40,-136
2,7682917,-3454,-1649,-979,-159,-246,-91,296,40,-136
2,7682932,-3454,-1649,-979,-159,-246,-91,296,40,-136
2,7682940,-3457,-1648,-986,-159,-254,-87,296,40,-136
2,7682953,-3457,-1648,-986,-159,-254,-87,296,40,-136
2,7682967,-3456,-1646,-976,-161,-247,-79,296,40,-136
2,7682982,-3450,-1647,-988,-158,-242,-72,296,40,-136
2,7682992,-3450,-1647,-988,-158,-242,-72,296,40,-136
2,7683003,-3452,-1651,-982,-156,-244,-85,296,40,-136
2,7683017,-3451,-1649,-972,-162,-245,-87,294,40,-132
2,7683031,-3451,-1649,-972,-162,-245,-87,294,40,-132
2,7683041,-3456,-1650,-973,-165,-244,-91,294,40,-132
2,7683053,-3456,-1650,-973,-165,-244,-91,294,40,-132
2,7683065,-3457,-1646,-981,-158,-245,-86,294,40,-132
2,7683079,-3457,-1646,-979,-158,-242,-78,294,40,-132
2,7683090,-3457,-1646,-979,-158,-242,-78,294,40,-132
2,7683104,-3456,-1651,-979,-158,-245,-83,294,40,-132
2,7683117,-3456,-1651,-979,-158,-245,-83,294,40,-132
2,7683130,-3455,-1651,-982,-164,-241,-87,294,40,-132
2,7683143,-3453,-1647,-973,-165,-248,-88,296,34,-124
2,7683155,-3453,-1647,-973,-165,-248,-88,296,34,-124
2,7683166,-3453,-1646,-978,-164,-241,-89,296,34,-124
2,7683174,-3453,-1646,-978,-164,-241,-89,296,34,-124
2,7683182,-3454,-1650,-974,-161,-241,-87,296,34,-124
2,7683190,-3454,-1650,-974,-161,-241,-87,296,34,-124
2,7683204,-3455,-1648,-980,-162,-238,-84,296,34,-124
2,7683216,-3455,-1648,-980,-162,-238,-84,296,34,-124
2,7683225,-3459,-1646,-979,-163,-237,-82,296,34,-124
2,7683234,-3459,-1646,-979,-163,-237,-82,296,34,-124
2,7683245,-3455,-1648,-983,-165,-241,-94,296,34,-124
2,7683253,-3455,-1648,-983,-165,-241,-94,296,34,-124
2,7683260,-3453,-1644,-978,-164,-246,-85,302,46,-132
2,7683271,-3453,-1644,-978,-164,-246,-85,302,46,-132
2,7683281,-3451,-1650,-979,-160,-237,-81,302,46,-132
2,7683289,-3451,-1650,-979,-160,-237,-81,302,46,-132
2,7683299,-3452,-1645,-978,-158,-238,-86,302,46,-132
2,7683306,-3452,-1645,-978,-158,-238,-86,302,46,-132
2,7683316,-3452,-1645,-978,-158,-238,-86,302,46,-132
2,7683326,-3453,-1649,-980,-157,-247,-87,302,46,-132
2,7683335,-3453,-1649,-980,-157,-247,-87,302,46,-132
2,7683341,-3454,-1650,-981,-166,-245,-88,302,46,-132
2,7683347,-3454,-1650,-981,-166,-245,-88,302,46,-132
2,7683353,-3454,-1650,-981,-166,-245,-88,302,46,-132
2,7683361,-3453,-1649,-978,-160,-245,-79,302,46,-132
2,7683371,-3453,-1649,-978,-160,-245,-79,302,46,-132
2,7683381,-3456,-1644,-981,-169,-247,-77,300,38,-134
2,7683390,-3456,-1644,-981,-169,-247,-77,300,38,-134
2,7683401,-3451,-1649,-976,-163,-247,-86,300,38,-134
2,7683408,-3451,-1649,-976,-163,-247,-86,300,38,-134
2,7683418,-3450,-1652,-983,-168,-234,-86,300,38,-134
2,7683424,-3450,-1652,-983,-168,-234,-86,300,38,-134
2,7683436,-3450,-1652,-983,-168,-234,-86,300,38,-134
2,7683446,-3451,-1649,-979,-171,-244,-89,300,38,-134
2,7683454,-3451,-1649,-979,-171,-244,-89,300,38,-134
2,7683465,-3453,-1647,-984,-166,-240,-82,300,38,-134
2,7683474,-3453,-1647,-984,-166,-240,-82,300,38,-134
2,7683483,-3451,-1648,-981,-155,-239,-85,300,38,-134
2,7683493,-3451,-1648,-981,-155,-239,-85,300,38,-134
2,7683503,-3458,-1649,-983,-157,-242,-83,300,38,-134
2,7683510,-3458,-1649,-983,-157,-242,-83,300,38,-134
2,7683519,-3459,-1648,-982,-170,-237,-82,301,43,-133
2,7683526,-3459,-1648,-982,-170,-237,-82,301,43,-133
2,7683535,-3459,-1648,-982,-170,-237,-82,301,43,-133
2,7683546,-3454,-1646,-979,-165,-238,-90,301,43,-133
2,7683556,-3454,-1646,-979,-165,-238,-90,301,43,-133
2,7683565,-3454,-1648,-980,-162,-236,-85,301,43,-133
2,7683574,-3454,-1648,-980,-162,-236,-85,301,43,-133
2,7683585,-3451,-1647,-982,-167,-235,-88,301,43,-133
2,7683595,-3451,-1647,-982,-167,-235,-88,301,43,-133
2,7683604,-3450,-1649,-976,-156,-243,-85,301,43,-133
2,7683613,-3450,-1649,-976,-156,-243,-85,301,43,-133
2,7683623,-3455,-1647,-982,-164,-248,-83,301,43,-133
2,7683633,-3455,-1647,-982,-164,-248,-83,301,43,-133
2,7683641,-3453,-1651,-974,-167,-249,-86,303,41,-131
2,7683651,-3453,-1651,-974,-167,-249,-86,303,41,-131
2,7683662,-3455,-1652,-977,-163,-248,-85,303,41,-131
2,7683667,-3455,-1652,-977,-163,-248,-85,303,41,-131
2,7683674,-3455,-1652,-977,-163,-248,-85,303,41,-131
2,7683680,-3450,-1648,-981,-164,-235,-84,303,41,-131
2,7683686,-3450,-1648,-981,-164,-235,-84,303,41,-131
2,7683694,-3450,-1648,-981,-164,-235,-84,303,41,-131
2,7683705,-3453,-1651,-981,-162,-242,-84,303,41,-131
2,7683712,-3453,-1651,-981,-162,-242,-84,303,41,-131
2,7683718,-3450,-1650,-982,-156,-240,-87,303,41,-131
2,7683724,-3450,-1650,-982,-156,-240,-87,303,41,-131
2,7683731,-3450,-1650,-982,-156,-240,-87,303,41,-131
2,7683737,-3450,-1650,-982,-156,-240,-87,303,41,-131
2,7683743,-3452,-1647,-982,-162,-245,-84,303,41,-131
2,7683749,-3452,-1647,-982,-162,-245,-84,303,41,-131
2,7683756,-3452,-1647,-982,-162,-245,-84,303,41,-131
2,7683762,-3448,-1645,-977,-160,-239,-87,297,37,-131
2,7683768,-3448,-1645,-977,-160,-239,-87,297,37,-131
2,7683775,-3448,-1645,-977,-160,-239,-87,297,37,-131
2,7683787,-3449,-1649,-978,-161,-244,-86,297,37,-131
2,7683794,-3449,-1649,-978,-161,-244,-86,297,37,-131
2,7683806,-3451,-1649,-980,-157,-246,-77,297,37,-131
2,7683816,-3451,-1649,-980,-157,-246,-77,297,37,-131
2,7683827,-3454,-1649,-987,-163,-249,-86,297,37,-131
2,7683838,-3452,-1647,-985,-161,-239,-91,297,37,-131
2,7683846,-3452,-1647,-985,-161,-239,-91,297,37,-131
2,7683856,-3452,-1647,-985,-161,-239,-91,297,37,-131
2,7683864,-3453,-1647,-982,-159,-242,-86,297,37,-131
2,7683874,-3453,-1647,-982,-159,-242,-86,297,37,-131
2,7683887,-3449,-1646,-979,-163,-241,-90,299,43,-137
2,7683896,-3449,-1646,-979,-163,-241,-90,299,43,-137
2,7683907,-3455,-1654,-980,-164,-236,-87,299,43,-137
2,7683914,-3455,-1654,-980,-164,-236,-87,299,43,-137
2,7683920,-3455,-1654,-980,-164,-236,-87,299,43,-137
2,7683928,-3455,-1654,-980,-164,-236,-87,299,43,-137
2,7683934,-3455,-1654,-980,-164,-236,-87,299,43,-137
2,7683940,-3450,-1647,-986,-162,-241,-89,299,43,-137
2,7683946,-3450,-1647,-986,-162,-241,-89,299,43,-137
2,7683956,-3450,-1647,-986,-162,-241,-89,299,43,-137
2,7683963,-3450,-1648,-979,-163,-238,-89,299,43,-137
2,7683975,-3450,-1648,-979,-163,-238,-89,299,43,-137
2,7683986,-3448,-1649,-984,-160,-249,-84,299,43,-137
2,7683993,-3448,-1649,-984,-160,-249,-84,299,43,-137
2,7684003,-3450,-1647,-979,-157,-241,-80,299,31,-129
2,7684011,-3450,-1647,-979,-157,-241,-80,299,31,-129
2,7684021,-3452,-1649,-982,-160,-234,-86,299,31,-129
2,7684031,-3452,-1649,-982,-160,-234,-86,299,31,-129
2,7684041,-3451,-1649,-980,-158,-233,-79,299,31,-129
2,7684052,-3451,-1649,-980,-158,-233,-79,299,31,-129
2,7684060,-3451,-1646,-981,-165,-234,-77,299,31,-129
2,7684073,-3451,-1646,-981,-165,-234,-77,299,31,-129
2,7684080,-3454,-1648,-981,-160,-239,-85,299,31,-129
2,7684091,-3454,-1648,-981,-160,-239,-85,299,31,-129
2,7684101,-3451,-1650,-981,-163,-237,-89,299,31,-129
2,7684112,-3451,-1650,-981,-163,-237,-89,299,31,-129
2,7684122,-3451,-1647,-980,-156,-235,-83,299,31,-129
2,7684129,-3451,-1647,-980,-156,-235,-83,299,31,-129
2,7684141,-3452,-1649,-976,-159,-238,-84,293,35,-125
2,7684148,-3452,-1649,-976,-159,-238,-84,293,35,-125
2,7684159,-3445,-1647,-979,-165,-244,-79,293,35,-125
2,7684169,-3445,-1647,-979,-165,-244,-79,293,35,-125
2,7684177,-3448,-1647,-988,-166,-249,-78,293,35,-125
2,7684188,-3448,-1647,-988,-166,-249,-78,293,35,-125
2,7684199,-3454,-1651,-984,-161,-245,-84,293,35,-125
2,7684206,-3454,-1651,-984,-161,-245,-84,293,35,-125
2,7684214,-3454,-1651,-984,-161,-245,-84,293,35,-125
2,7684227,-3453,-1649,-982,-161,-236,-85,293,35,-125
2,7684241,-3455,-1649,-979,-158,-234,-82,293,35,-125
2,7684255,-3455,-1649,-979,-158,-234,-82,293,35,-125
2,7684268,-3451,-1650,-977,-163,-235,-81,295,43,-125
2,7684279,-3454,-1651,-980,-159,-237,-90,295,43,-125
2,7684291,-3454,-1651,-980,-159,-237,-90,295,43,-125
2,7684305,-3448,-1647,-983,-156,-237,-89,295,43,-125
2,7684319,-3450,-1648,-982,-164,-243,-87,295,43,-125
2,7684330,-3450,-1648,-982,-164,-243,-87,295,43,-125
2,7684341,-3452,-1650,-981,-165,-239,-87,295,43,-125
2,7684356,-3452,-1650,-981,-165,-239,-87,295,43,-125
2,7684369,-3453,-1647,-983,-160,-244,-88,295,43,-125
2,7684380,-3455,-1649,-978,-161,-245,-86,307,45,-135
2,7684393,-3455,-1649,-978,-161,-245,-86,307,45,-135
2,7684407,-3453,-1650,-978,-165,-242,-94,307,45,-135
2,7684420,-3452,-1652,-980,-163,-250,-93,307,45,-135
2,7684430,-3452,-1652,-980,-163,-250,-93,307,45,-135
2,7684444,-3453,-1646,-983,-157,-246,-89,307,45,-135
2,7684456,-3453,-1646,-983,-157,-246,-89,307,45,-135
2,7684469,-3448,-1646,-975,-161,-246,-83,307,45,-135
2,7684481,-3450,-1647,-981,-153,-237,-85,307,45,-135
2,7684495,-3450,-1647,-981,-153,-237,-85,307,45,-135
2,7684507,-3452,-1647,-975,-160,-242,-85,300,34,-130
2,7684521,-3456,-1650,-981,-173,-243,-85,300,34,-130
2,7684535,-3456,-1650,-981,-173,-243,-85,300,34,-130
2,7684547,-3458,-1650,-977,-165,-244,-89,300,34,-130
2,7684558,-3449,-1651,-978,-166,-243,-92,300,34,-130
2,7684573,-3449,-1651,-978,-166,-243,-92,300,34,-130
2,7684585,-3452,-1647,-977,-166,-239,-83,300,34,-130
2,7684597,-3452,-1647,-977,-166,-239,-83,300,34,-130
2,7684608,-3454,-1649,-981,-160,-243,-87,300,34,-130
2,7684617,-3454,-1649,-981,-160,-243,-87,300,34,-130
2,7684625,-3453,-1648,-979,-159,-249,-82,292,36,-136
2,7684633,-3453,-1648,-979,-159,-249,-82,292,36,-136
2,7684644,-3453,-1651,-981,-167,-252,-93,292,36,-136
2,7684657,-3453,-1651,-981,-167,-252,-93,292,36,-136
2,7684666,-3458,-1649,-976,-171,-252,-88,292,36,-136
2,7684673,-3458,-1649,-976,-171,-252,-88,292,36,-136
2,7684681,-3457,-1653,-978,-174,-250,-83,292,36,-136
2,7684691,-3457,-1653,-978,-174,-250,-83,292,36,-136
2,7684701,-3455,-1649,-980,-164,-243,-88,292,36,-136
2,7684710,-3455,-1649,-980,-164,-243,-88,292,36,-136
2,7684719,-3454,-1647,-979,-170,-240,-92,292,36,-136
2,7684726,-3454,-1647,-979,-170,-240,-92,292,36,-136
2,7684734,-3454,-1647,-979,-170,-240,-92,292,36,-136
2,7684744,-3451,-1646,-985,-159,-248,-90,292,36,-136
2,7684751,-3451,-1646,-985,-159,-248,-90,292,36,-136
2,7684759,-3449,-1645,-976,-158,-247,-87,292,42,-126
2,7684768,-3449,-1645,-976,-158,-247,-87,292,42,-126
2,7684776,-3449,-1645,-976,-158,-247,-87,292,42,-126
2,7684785,-3451,-1646,-979,-157,-237,-90,292,42,-126
2,7684792,-3451,-1646,-979,-157,-237,-90,292,42,-126
2,7684800,-3456,-1650,-980,-163,-242,-86,292,42,-126
2,7684808,-3456,-1650,-980,-163,-242,-86,292,42,-126
2,7684817,-3456,-1650,-980,-163,-242,-86,292,42,-126
2,7684830,-3457,-1648,-982,-169,-252,-82,292,42,-126
2,7684844,-3457,-1648,-982,-169,-252,-82,292,42,-126
2,7684858,-3457,-1648,-982,-169,-252,-82,292,42,-126
2,7684867,-3458,-1648,-981,-155,-243,-91,292,42,-126
2,7684879,-3451,-1647,-981,-162,-248,-93,295,41,-129
2,7684894,-3451,-1647,-981,-162,-248,-93,295,41,-129
2,7684909,-3453,-1647,-978,-162,-245,-96,295,41,-129
2,7684919,-3454,-1649,-976,-164,-243,-88,295,41,-129
2,7684929,-3454,-1649,-976,-164,-243,-88,295,41,-129
2,7684941,-3454,-1649,-982,-167,-243,-84,295,41,-129
2,7684955,-3454,-1649,-982,-167,-243,-84,295,41,-129
2,7684965,-3457,-1651,-980,-164,-242,-84,295,41,-129
2,7684980,-3456,-1649,-981,-162,-245,-86,295,41,-129
2,7684992,-3456,-1649,-981,-162,-245,-86,295,41,-129
2,7685007,-3455,-1651,-979,-167,-241,-80,292,40,-136
2,7685020,-3455,-1650,-981,-162,-241,-77,292,40,-136
2,7685032,-3455,-1650,-981,-162,-241,-77,292,40,-136
2,7685045,-3450,-1647,-983,-161,-245,-90,292,40,-136
2,7685059,-3451,-1647,-979,-162,-238,-92,292,40,-136
2,7685071,-3451,-1647,-979,-162,-238,-92,292,40,-136
2,7685083,-3452,-1647,-983,-158,-242,-88,292,40,-136
2,7685096,-3452,-1647,-983,-158,-242,-88,292,40,-136
2,7685110,-3458,-1645,-978,-164,-243,-85,292,40,-136
2,7685123,-3455,-1648,-974,-160,-250,-80,302,36,-132
2,7685134,-3455,-1648,-974,-160,-250,-80,302,36,-132
2,7685146,-3459,-1647,-979,-162,-248,-88,302,36,-132
2,7685158,-3459,-1647,-979,-162,-248,-88,302,36,-132
2,7685171,-3456,-1649,-978,-162,-247,-86,302,36,-132
2,7685183,-3453,-1647,-980,-162,-244,-94,302,36,-132
2,7685194,-3453,-1647,-980,-162,-244,-94,302,36,-132
2,7685206,-3451,-1649,-977,-168,-242,-86,302,36,-132
2,7685217,-3451,-1649,-977,-168,-242,-86,302,36,-132
2,7685229,-3456,-1649,-981,-165,-251,-81,302,36,-132
2,7685238,-3456,-1649,-976,-167,-253,-83,302,36,-132
2,7685249,-3456,-1649,-976,-167,-253,-83,298,44,-124
2,7685259,-3458,-1649,-978,-164,-242,-82,298,44,-124
2,7685266,-3458,-1649,-978,-164,-242,-82,298,44,-124
2,7685276,-3458,-1649,-978,-164,-242,-82,298,44,-124
2,7685286,-3456,-1647,-972,-163,-236,-89,298,44,-124
2,7685296,-3456,-1647,-972,-163,-236,-89,298,44,-124
2,7685305,-3455,-1650,-975,-161,-247,-86,298,44,-124
2,7685314,-3455,-1650,-975,-161,-247,-86,298,44,-124
2,7685322,-3452,-1649,-973,-164,-240,-87,298,44,-124
2,7685328,-3452,-1649,-973,-164,-240,-87,298,44,-124
2,7685335,-3452,-1649,-973,-164,-240,-87,298,44,-124
2,7685341,-3452,-1651,-981,-167,-241,-91,298,44,-124
2,7685350,-3452,-1651,-981,-167,-241,-91,298,44,-124
2,7685360,-3452,-1651,-981,-167,-241,-91,298,44,-124
2,7685367,-3452,-1651,-981,-167,-241,-91,298,44,-124
2,7685377,-3452,-1651,-981,-167,-241,-91,298,44,-124
2,7685386,-3454,-1648,-976,-159,-246,-87,299,45,-135
2,7685395,-3454,-1648,-976,-159,-246,-87,299,45,-135
2,7685401,-3455,-1645,-975,-158,-240,-83,299,45,-135
2,7685411,-3455,-1645,-975,-158,-240,-83,299,45,-135
2,7685417,-3455,-1645,-975,-158,-240,-83,299,45,-135
2,7685428,-3459,-1650,-977,-159,-240,-83,299,45,-135
2,7685437,-3459,-1650,-977,-159,-240,-83,299,45,-135
2,7685447,-3458,-1649,-981,-168,-249,-80,299,45,-135
2,7685456,-3458,-1649,-981,-168,-249,-80,299,45,-135
2,7685467,-3457,-1648,-980,-162,-247,-86,299,45,-135
2,7685476,-3457,-1648,-980,-162,-247,-86,299,45,-135
2,7685484,-3455,-1644,-981,-168,-239,-79,299,45,-135
2,7685494,-3455,-1644,-981,-168,-239,-79,299,45,-135
2,7685504,-3453,-1648,-974,-166,-241,-80,298,42,-132
2,7685513,-3453,-1648,-974,-166,-241,-80,298,42,-132
2,7685523,-3454,-1648,-975,-167,-245,-82,298,42,-132
2,7685531,-3454,-1648,-975,-167,-245,-82,298,42,-132
2,7685538,-3454,-1648,-975,-167,-245,-82,298,42,-132
2,7685549,-3459,-1647,-975,-160,-247,-82,298,42,-132
2,7685557,-3459,-1647,-975,-160,-247,-82,298,42,-132
2,7685567,-3457,-1649,-979,-160,-244,-90,298,42,-132
2,7685575,-3457,-1649,-979,-160,-244,-90,298,42,-132
2,7685584,-3457,-1651,-981,-161,-236,-82,298,42,-132
2,7685594,-3457,-1651,-981,-161,-236,-82,298,42,-132
2,7685604,-3457,-1651,-981,-161,-236,-82,298,42,-132
2,7685615,-3457,-1651,-981,-161,-236,-82,298,42,-132
2,7685622,-3457,-1644,-977,-161,-238,-94,293,37,-133
2,7685634,-3457,-1644,-977,-161,-238,-94,293,37,-133
2,7685642,-3456,-1647,-983,-167,-249,-85,293,37,-133
2,7685651,-3456,-1647,-983,-167,-249,-85,293,37,-133
2,7685660,-3453,-1647,-976,-164,-247,-85,293,37,-133
2,7685667,-3453,-1647,-976,-164,-247,-85,293,37,-133
2,7685672,-3453,-1647,-976,-164,-247,-85,293,37,-133
2,7685679,-3453,-1647,-976,-164,-247,-85,293,37,-133
2,7685685,-3458,-1646,-981,-167,-251,-88,293,37,-133
2,7685691,-3458,-1646,-981,-167,-251,-88,293,37,-133
2,7685697,-3458,-1646,-981,-167,-251,-88,293,37,-133
2,7685702,-3459,-1645,-978,-162,-251,-87,293,37,-133
2,7685708,-3459,-1645,-978,-162,-251,-87,293,37,-133
2,7685713,-3459,-1645,-978,-162,-251,-87,293,37,-133
2,7685718,-3459,-1645,-978,-162,-251,-87,293,37,-133
2,7685723,-3456,-1649,-974,-162,-245,-87,293,37,-133
2,7685728,-3456,-1649,-974,-162,-245,-87,293,37,-133
2,7685733,-3456,-1649,-974,-162,-245,-87,293,37,-133
2,7685738,-3456,-1649,-974,-162,-245,-87,293,37,-133
2,7685743,-3461,-1651,-974,-165,-247,-83,301,43,-135
2,7685749,-3461,-1651,-974,-165,-247,-83,301,43,-135
2,7685754,-3461,-1651,-974,-165,-247,-83,301,43,-135
2,7685761,-3458,-1648,-981,-167,-243,-88,301,43,-135
2,7685767,-3458,-1648,-981,-167,-243,-88,301,43,-135
2,7685771,-3458,-1648,-981,-167,-243,-88,301,43,-135
2,7685777,-3458,-1648,-981,-167,-243,-88,301,43,-135
2,7685782,-3455,-1645,-983,-169,-247,-87,301,43,-135
2,7685788,-3455,-1645,-983,-169,-247,-87,301,43,-135
2,7685793,-3455,-1645,-983,-169,-247,-87,301,43,-135
2,7685799,-3454,-1648,-983,-162,-243,-84,301,43,-135
2,7685805,-3454,-1648,-983,-162,-243,-84,301,43,-135
2,7685813,-3454,-1648,-983,-162,-243,-84,301,43,-135
2,7685820,-3457,-1648,-979,-159,-249,-82,301,43,-135
2,7685827,-3457,-1648,-979,-159,-249,-82,301,43,-135
2,7685834,-3457,-1648,-979,-159,-249,-82,301,43,-135
2,7685841,-3459,-1647,-979,-165,-239,-84,301,43,-135
2,7685849,-3459,-1647,-979,-165,-239,-84,301,43,-135
2,7685856,-3459,-1647,-979,-165,-239,-84,301,43,-135
2,7685867,-3461,-1646,-978,-159,-243,-86,300,28,-124
2,7685874,-3461,-1646,-978,-159,-243,-86,300,28,-124
2,7685884,-3457,-1648,-975,-164,-243,-83,300,28,-124
2,7685896,-3457,-1648,-975,-164,-243,-83,300,28,-124
2,7685903,-3457,-1649,-976,-157,-239,-87,300,28,-124
2,7685915,-3457,-1649,-976,-157,-239,-87,300,28,-124
2,7685922,-3456,-1645,-979,-163,-245,-85,300,28,-124
2,7685934,-3456,-1645,-979,-163,-245,-85,300,28,-124
2,7685940,-3455,-1647,-983,-160,-241,-86,300,28,-124
2,7685951,-3455,-1647,-983,-160,-241,-86,300,28,-124
2,7685961,-3456,-1646,-981,-163,-240,-83,300,28,-124
2,7685970,-3456,-1646,-981,-163,-240,-83,300,28,-124
2,7685977,-3456,-1646,-981,-163,-240,-83,300,28,-124
2,7685983,-3458,-1647,-984,-158,-244,-91,300,28,-124
2,7685989,-3458,-1647,-984,-158,-244,-91,300,28,-124
2,7685995,-3458,-1647,-984,-158,-244,-91,300,28,-124
2,7686005,-3457,-1649,-972,-157,-242,-96,298,36,-128
2,7686018,-3457,-1649,-972,-157,-242,-96,298,36,-128
2,7686025,-3459,-1648,-980,-150,-243,-92,298,36,-128
2,7686036,-3459,-1648,-980,-150,-243,-92,298,36,-128
2,7686046,-3457,-1649,-982,-163,-244,-85,298,36,-128
2,7686054,-3457,-1649,-982,-163,-244,-85,298,36,-128
2,7686066,-3456,-1646,-980,-162,-246,-79,298,36,-128
2,7686072,-3456,-1646,-980,-162,-246,-79,298,36,-128
2,7686083,-3452,-1647,-982,-170,-242,-82,298,36,-128
2,7686094,-3452,-1647,-982,-170,-242,-82,298,36,-128
2,7686104,-3455,-1650,-986,-162,-243,-84,298,36,-128
2,7686115,-3455,-1650,-986,-162,-243,-84,298,36,-128
2,7686121,-3455,-1649,-976,-167,-237,-87,297,47,-127
2,7686133,-3455,-1649,-976,-167,-237,-87,297,47,-127
2,7686141,-3455,-1649,-976,-167,-237,-87,297,47,-127
2,7686153,-3455,-1649,-976,-167,-237,-87,297,47,-127
2,7686162,-3457,-1649,-982,-159,-240,-85,297,47,-127
2,7686171,-3457,-1649,-982,-159,-240,-85,297,47,-127
2,7686181,-3458,-1649,-983,-164,-242,-81,297,47,-127
2,7686189,-3458,-1649,-983,-164,-242,-81,297,47,-127
2,7686199,-3458,-1649,-983,-164,-242,-81,297,47,-127
2,7686209,-3456,-1645,-983,-167,-241,-91,297,47,-127
2,7686220,-3452,-1649,-980,-165,-244,-83,297,47,-127
2,7686231,-3452,-1649,-980,-165,-244,-83,297,47,-127
2,7686239,-3452,-1649,-980,-165,-244,-83,297,47,-127
2,7686252,-3454,-1646,-975,-166,-243,-78,290,32,-130
2,7686265,-3457,-1647,-983,-164,-243,-84,290,32,-130
2,7686279,-3457,-1647,-983,-164,-243,-84,290,32,-130
2,7686290,-3455,-1648,-978,-166,-245,-85,290,32,-130
2,7686303,-3456,-1648,-984,-168,-249,-87,290,32,-130
2,7686316,-3456,-1648,-984,-168,-249,-87,290,32,-130
2,7686329,-3457,-1650,-983,-164,-238,-89,290,32,-130
2,7686339,-3457,-1650,-983,-164,-238,-89,290,32,-130
2,7686354,-3454,-1651,-982,-166,-244,-82,290,32,-130
2,7686367,-3451,-1649,-979,-169,-240,-86,300,40,-132
2,7686375,-3451,-1649,-979,-169,-240,-86,300,40,-132
2,7686387,-3452,-1650,-980,-165,-239,-85,300,40,-132
2,7686401,-3450,-1650,-976,-161,-247,-84,300,40,-132
2,7686412,-3450,-1650,-976,-161,-247,-84,300,40,-132
2,7686422,-3455,-1650,-979,-171,-247,-84,300,40,-132
2,7686436,-3455,-1650,-979,-171,-247,-84,300,40,-132
2,7686451,-3455,-1649,-982,-162,-237,-83,300,40,-132
2,7686459,-3455,-1649,-982,-162,-237,-83,300,40,-132
2,7686471,-3457,-1645,-984,-165,-240,-86,300,40,-132
2,7686484,-3454,-1648,-983,-160,-241,-85,292,42,-132
2,7686497,-3454,-1648,-983,-160,-241,-85,292,42,-132
2,7686508,-3448,-1650,-980,-159,-249,-83,292,42,-132
2,7686521,-3453,-1647,-981,-158,-246,-79,292,42,-132
2,7686535,-3453,-1647,-981,-158,-246,-79,292,42,-132
2,7686548,-3455,-1651,-981,-170,-240,-84,292,42,-132
2,7686558,-3455,-1651,-981,-170,-240,-84,292,42,-132
2,7686568,-3456,-1654,-985,-166,-246,-84,292,42,-132
2,7686578,-3456,-1654,-985,-166,-246,-84,292,42,-132
2,7686586,-3455,-1645,-980,-165,-243,-85,292,42,-132
2,7686594,-3455,-1645,-980,-165,-243,-85,292,42,-132
2,7686602,-3453,-1645,-977,-165,-247,-85,302,38,-126
2,7686612,-3453,-1645,-977,-165,-247,-85,302,38,-126
2,7686623,-3453,-1645,-979,-162,-242,-87,302,38,-126
2,7686638,-3453,-1645,-979,-162,-242,-87,302,38,-126
2,7686653,-3451,-1647,-982,-162,-240,-87,302,38,-126
2,7686663,-3451,-1649,-982,-167,-243,-81,302,38,-126
2,7686671,-3451,-1649,-982,-167,-243,-81,302,38,-126
2,7686678,-3451,-1649,-982,-167,-243,-81,302,38,-126
2,7686686,-3454,-1649,-981,-164,-248,-86,302,38,-126
2,7686701,-3455,-1650,-980,-161,-248,-84,302,38,-126
2,7686710,-3455,-1650,-980,-161,-248,-84,302,38,-126
2,7686718,-3455,-1650,-980,-161,-248,-84,302,38,-126
2,7686727,-3459,-1652,-985,-163,-238,-89,302,38,-126
2,7686735,-3459,-1652,-985,-163,-238,-89,302,38,-126
2,7686744,-3454,-1649,-979,-163,-245,-92,293,41,-131
2,7686752,-3454,-1649,-979,-163,-245,-92,293,41,-131
2,7686761,-3452,-1652,-982,-163,-243,-91,293,41,-131
2,7686769,-3452,-1652,-982,-163,-243,-91,293,41,-131
2,7686777,-3452,-1652,-982,-163,-243,-91,293,41,-131
2,7686786,-3450,-1651,-986,-167,-238,-88,293,41,-131
2,7686794,-3450,-1651,-986,-167,-238,-88,293,41,-131
2,7686803,-3450,-1648,-984,-165,-246,-88,293,41,-131
2,7686811,-3450,-1648,-984,-165,-246,-88,293,41,-131
2,7686818,-3450,-1648,-984,-165,-246,-88,293,41,-131
2,7686828,-3450,-1650,-982,-167,-242,-83,293,41,-131
2,7686837,-3450,-1650,-982,-167,-242,-83,293,41,-131
2,7686850,-3451,-1646,-981,-166,-245,-81,293,41,-131
2,7686863,-3453,-1649,-980,-166,-245,-84,295,35,-133
2,7686876,-3453,-1649,-980,-166,-245,-84,295,35,-133
2,7686888,-3456,-1647,-980,-167,-250,-76,295,35,-133
2,7686902,-3457,-1650,-979,-163,-247,-80,295,35,-133
2,7686917,-3457,-1650,-979,-163,-247,-80,295,35,-133
2,7686927,-3450,-1650,-987,-162,-241,-87,295,35,-133
2,7686938,-3450,-1650,-987,-162,-241,-87,295,35,-133
2,7686952,-3449,-1648,-985,-165,-241,-80,295,35,-133
2,7686966,-3451,-1647,-976,-166,-249,-84,295,35,-133
2,7686977,-3451,-1647,-976,-166,-249,-84,295,35,-133
2,7686990,-3449,-1648,-978,-170,-248,-85,299,37,-133
2,7687004,-3457,-1648,-980,-168,-246,-90,299,37,-133
2,7687017,-3457,-1648,-980,-168,-246,-90,299,37,-133
2,7687028,-3454,-1650,-982,-164,-247,-88,299,37,-133
2,7687041,-3454,-1650,-982,-164,-247,-88,299,37,-133
2,7687053,-3454,-1650,-982,-164,-247,-88,299,37,-133
2,7687066,-3453,-1647,-983,-163,-245,-86,299,37,-133
2,7687079,-3453,-1647,-983,-163,-245,-86,299,37,-133
2,7687093,-3452,-1644,-982,-166,-242,-83,299,37,-133
2,7687105,-3453,-1648,-982,-161,-240,-86,292,40,-132
2,7687118,-3453,-1648,-982,-161,-240,-86,292,40,-132
2,7687131,-3449,-1644,-982,-156,-241,-90,292,40,-132
2,7687143,-3450,-1647,-981,-159,-243,-90,292,40,-132
2,7687156,-3450,-1647,-981,-159,-243,-90,292,40,-132
2,7687171,-3458,-1648,-985,-162,-240,-85,292,40,-132
2,7687184,-3455,-1647,-982,-161,-242,-81,292,40,-132
2,7687195,-3455,-1647,-982,-161,-242,-81,292,40,-132
2,7687207,-3451,-1649,-976,-160,-242,-85,292,40,-132
2,7687221,-3450,-1646,-980,-160,-239,-86,295,43,-135
2,7687234,-3450,-1646,-980,-160,-239,-86,295,43,-135
2,7687244,-3450,-1643,-974,-162,-236,-93,295,43,-135
2,7687255,-3450,-1643,-974,-162,-236,-93,295,43,-135
2,7687261,-3450,-1646,-980,-166,-236,-88,295,43,-135
2,7687270,-3450,-1646,-980,-166,-236,-88,295,43,-135
2,7687280,-3450,-1649,-987,-162,-232,-86,295,43,-135
2,7687288,-3450,-1649,-987,-162,-232,-86,295,43,-135
2,7687294,-3450,-1649,-987,-162,-232,-86,295,43,-135
2,7687302,-3454,-1649,-982,-165,-239,-86,295,43,-135
2,7687307,-3454,-1649,-982,-165,-239,-86,295,43,-135
2,7687315,-3454,-1649,-982,-165,-239,-86,295,43,-135
2,7687324,-3455,-1650,-982,-164,-239,-87,295,43,-135
2,7687332,-3455,-1650,-982,-164,-239,-87,295,43,-135
2,7687343,-3454,-1647,-978,-165,-243,-82,295,43,-135
2,7687352,-3454,-1647,-978,-165,-243,-82,295,43,-135
2,7687363,-3452,-1649,-980,-172,-235,-87,290,40,-132
2,7687373,-3452,-1649,-980,-172,-235,-87,290,40,-132
2,7687380,-3448,-1646,-982,-172,-240,-88,290,40,-132
2,7687390,-3448,-1646,-982,-172,-240,-88,290,40,-132
2,7687400,-3448,-1646,-982,-172,-240,-88,290,40,-132
2,7687407,-3448,-1647,-983,-159,-242,-95,290,40,-132
2,7687417,-3448,-1647,-983,-159,-242,-95,290,40,-132
2,7687427,-3453,-1647,-983,-159,-240,-90,290,40,-132
2,7687436,-3453,-1647,-983,-159,-240,-90,290,40,-132
2,7687447,-3455,-1646,-979,-164,-241,-87,290,40,-132
2,7687456,-3455,-1646,-979,-164,-241,-87,290,40,-132
2,7687464,-3459,-1649,-983,-158,-232,-86,290,40,-132
2,7687474,-3459,-1649,-983,-158,-232,-86,290,40,-132
2,7687482,-3455,-1651,-981,-156,-236,-82,300,42,-132
2,7687490,-3455,-1651,-981,-156,-236,-82,300,42,-132
2,7687500,-3455,-1651,-981,-156,-236,-82,300,42,-132
2,7687511,-3454,-1648,-980,-160,-245,-92,300,42,-132
2,7687519,-3454,-1648,-980,-160,-245,-92,300,42,-132
2,7687527,-3448,-1647,-985,-162,-246,-93,300,42,-132
2,7687537,-3448,-1647,-985,-162,-246,-93,300,42,-132
2,7687547,-3448,-1649,-979,-163,-241,-91,300,42,-132
2,7687558,-3448,-1649,-979,-163,-241,-91,300,42,-132
2,7687568,-3452,-1646,-988,-159,-242,-93,300,42,-132
2,7687577,-3452,-1646,-988,-159,-242,-93,300,42,-132
2,7687585,-3452,-1651,-983,-169,-240,-91,300,42,-132
2,7687596,-3452,-1651,-983,-169,-240,-91,300,42,-132
2,7687606,-3458,-1646,-982,-166,-246,-89,300,32,-134
2,7687615,-3458,-1646,-982,-166,-246,-89,300,32,-134
2,7687624,-3456,-1648,-975,-163,-245,-86,300,32,-134
2,7687635,-3456,-1648,-975,-163,-245,-86,300,32,-134
2,7687645,-3457,-1648,-984,-162,-248,-83,300,32,-134
2,7687653,-3457,-1648,-984,-162,-248,-83,300,32,-134
2,7687661,-3453,-1648,-988,-168,-241,-84,300,32,-134
2,7687667,-3453,-1648,-988,-168,-241,-84,300,32,-134
2,7687673,-3453,-1648,-988,-168,-241,-84,300,32,-134
2,7687680,-3453,-1648,-988,-168,-241,-84,300,32,-134
2,7687686,-3451,-1645,-981,-164,-242,-86,300,32,-134
2,7687693,-3451,-1645,-981,-164,-242,-86,300,32,-134
2,7687701,-3451,-1645,-981,-164,-242,-86,300,32,-134
2,7687710,-3453,-1649,-985,-164,-242,-92,300,32,-134
2,7687716,-3453,-1649,-985,-164,-242,-92,300,32,-134
2,7687723,-3449,-1649,-977,-169,-242,-87,300,28,-128
2,7687729,-3449,-1649,-977,-169,-242,-87,300,28,-128
2,7687735,-3449,-1649,-977,-169,-242,-87,300,28,-128
2,7687741,-3449,-1649,-977,-169,-242,-87,300,28,-128
2,7687747,-3456,-1647,-975,-158,-248,-86,300,28,-128
2,7687753,-3456,-1647,-975,-158,-248,-86,300,28,-128
2,7687759,-3456,-1647,-975,-158,-248,-86,300,28,-128
2,7687767,-3454,-1646,-980,-161,-243,-93,300,28,-128
2,7687778,-3454,-1646,-980,-161,-243,-93,300,28,-128
2,7687789,-3459,-1648,-981,-160,-242,-85,300,28,-128
2,7687799,-3459,-1648,-981,-160,-242,-85,300,28,-128
2,7687811,-3452,-1647,-980,-161,-240,-84,300,28,-128
2,7687818,-3452,-1647,-980,-161,-240,-84,300,28,-128
2,7687828,-3446,-1648,-981,-158,-240,-80,300,28,-128
2,7687837,-3446,-1648,-981,-158,-240,-80,300,28,-128
2,7687846,-3452,-1644,-980,-159,-238,-77,296,44,-132
2,7687855,-3452,-1644,-980,-159,-238,-77,296,44,-132
2,7687865,-3455,-1650,-979,-164,-243,-89,296,44,-132
2,7687875,-3455,-1650,-979,-164,-243,-89,296,44,-132
2,7687881,-3456,-1650,-981,-160,-242,-86,296,44,-132
2,7687892,-3456,-1650,-981,-160,-242,-86,296,44,-132
2,7687902,-3458,-1647,-980,-163,-244,-85,296,44,-132
2,7687912,-3458,-1647,-980,-163,-244,-85,296,44,-132
2,7687919,-3458,-1647,-980,-163,-244,-85,296,44,-132
2,7687925,-3457,-1650,-980,-163,-243,-88,296,44,-132
2,7687932,-3457,-1650,-980,-163,-243,-88,296,44,-132
2,7687939,-3457,-1650,-980,-163,-243,-88,296,44,-132
2,7687948,-3453,-1649,-982,-168,-236,-81,296,44,-132
2,7687959,-3453,-1649,-982,-168,-236,-81,296,44,-132
2,7687968,-3452,-1646,-984,-167,-240,-85,296,44,-132
2,7687979,-3452,-1646,-984,-167,-240,-85,296,44,-132
2,7687988,-3453,-1650,-977,-162,-241,-86,301,35,-133
2,7687996,-3453,-1650,-977,-162,-241,-86,301,35,-133
2,7688005,-3450,-1647,-984,-170,-247,-90,301,35,-133
2,7688014,-3450,-1647,-984,-170,-247,-90,301,35,-133
2,7688025,-3454,-1649,-987,-167,-243,-93,301,35,-133
2,7688035,-3454,-1649,-987,-167,-243,-93,301,35,-133
2,7688042,-3457,-1647,-983,-166,-244,-91,301,35,-133
2,7688048,-3457,-1647,-983,-166,-244,-91,301,35,-133
2,7688058,-3457,-1647,-983,-166,-244,-91,301,35,-133
2,7688066,-3458,-1651,-986,-160,-242,-82,301,35,-133
2,7688075,-3458,-1651,-986,-160,-242,-82,301,35,-133
2,7688084,-3455,-1650,-981,-159,-238,-86,301,35,-133
2,7688093,-3455,-1650,-981,-159,-238,-86,301,35,-133
2,7688103,-3450,-1650,-982,-158,-249,-84,294,30,-130
2,7688115,-3450,-1650,-982,-158,-249,-84,294,30,-130
2,7688124,-3454,-1648,-974,-163,-246,-88,294,30,-130
2,7688134,-3454,-1648,-974,-163,-246,-88,294,30,-130
2,7688144,-3450,-1645,-984,-164,-249,-83,294,30,-130
2,7688152,-3450,-1645,-984,-164,-249,-83,294,30,-130
2,7688162,-3456,-1649,-975,-158,-248,-89,294,30,-130
2,7688170,-3456,-1649,-975,-158,-248,-89,294,30,-130
2,7688180,-3456,-1649,-975,-158,-248,-89,294,30,-130
2,7688190,-3457,-1648,-980,-166,-234,-85,294,30,-130
2,7688202,-3456,-1649,-979,-169,-237,-79,294,30,-130
2,7688212,-3456,-1649,-979,-169,-237,-79,294,30,-130
2,7688219,-3456,-1649,-979,-169,-237,-79,294,30,-130
2,7688230,-3460,-1648,-983,-159,-245,-89,292,44,-136
2,7688241,-3460,-1648,-983,-159,-245,-89,292,44,-136
2,7688251,-3456,-1647,-980,-156,-246,-92,292,44,-136
2,7688264,-3451,-1650,-976,-165,-236,-93,292,44,-136
2,7688279,-3451,-1650,-976,-165,-236,-93,292,44,-136
2,7688290,-3459,-1649,-980,-167,-245,-86,292,44,-136
2,7688303,-3458,-1649,-977,-161,-245,-81,292,44,-136
2,7688316,-3458,-1649,-977,-161,-245,-81,292,44,-136
2,7688330,-3459,-1649,-985,-162,-241,-90,292,44,-136
2,7688342,-3459,-1647,-979,-165,-243,-87,292,44,-136
2,7688353,-3459,-1647,-979,-165,-243,-87,302,46,-132
2,7688368,-3457,-1646,-977,-162,-246,-83,302,46,-132
2,7688381,-3457,-1646,-977,-162,-246,-83,302,46,-132
2,7688393,-3458,-1648,-977,-164,-247,-89,302,46,-132
2,7688402,-3454,-1645,-980,-167,-250,-88,302,46,-132
2,7688415,-3454,-1645,-980,-167,-250,-88,302,46,-132
2,7688428,-3456,-1646,-972,-161,-240,-86,302,46,-132
2,7688441,-3456,-1646,-972,-161,-240,-86,302,46,-132
2,7688452,-3457,-1647,-984,-165,-243,-82,302,46,-132
2,7688463,-3460,-1650,-980,-163,-240,-81,309,43,-137
2,7688478,-3460,-1650,-980,-163,-240,-81,309,43,-137
2,7688493,-3463,-1649,-977,-168,-245,-84,309,43,-137
2,7688502,-3460,-1648,-979,-163,-249,-84,309,43,-137
2,7688515,-3460,-1648,-979,-163,-249,-84,309,43,-137
2,7688529,-3458,-1647,-978,-159,-243,-86,309,43,-137
2,7688544,-3453,-1650,-981,-170,-245,-80,309,43,-137
2,7688553,-3453,-1650,-981,-170,-245,-80,309,43,-137
2,7688565,-3454,-1647,-983,-169,-252,-84,309,43,-137
2,7688581,-3454,-1647,-983,-169,-252,-84,309,43,-137
2,7688593,-3457,-1651,-977,-162,-245,-91,309,43,-137
2,7688603,-3454,-1649,-979,-169,-248,-84,296,42,-132
2,7688615,-3454,-1649,-979,-169,-248,-84,296,42,-132
2,7688629,-3462,-1650,-982,-167,-241,-84,296,42,-132
2,7688637,-3462,-1650,-982,-167,-241,-84,296,42,-132
2,7688645,-3461,-1649,-978,-164,-247,-80,296,42,-132
2,7688653,-3461,-1649,-978,-164,-247,-80,296,42,-132
2,7688662,-3461,-1649,-978,-164,-247,-80,296,42,-132
2,7688671,-3465,-1652,-979,-164,-241,-81,296,42,-132
2,7688678,-3465,-1652,-979,-164,-241,-81,296,42,-132
2,7688686,-3458,-1647,-982,-159,-252,-89,296,42,-132
2,7688694,-3458,-1647,-982,-159,-252,-89,296,42,-132
2,7688704,-3457,-1650,-975,-156,-239,-90,296,42,-132
2,7688713,-3457,-1650,-975,-156,-239,-90,296,42,-132
2,7688720,-3457,-1650,-975,-156,-239,-90,296,42,-132
2,7688729,-3453,-1643,-973,-162,-240,-85,303,31,-133
2,7688736,-3453,-1643,-973,-162,-240,-85,303,31,-133
2,7688744,-3454,-1649,-979,-166,-243,-89,303,31,-133
2,7688753,-3454,-1649,-979,-166,-243,-89,303,31,-133
2,7688761,-3454,-1649,-979,-166,-243,-89,303,31,-133
2,7688769,-3456,-1649,-979,-163,-241,-86,303,31,-133
2,7688778,-3456,-1649,-979,-163,-241,-86,303,31,-133
2,7688786,-3457,-1648,-981,-168,-242,-87,303,31,-133
2,7688795,-3457,-1648,-981,-168,-242,-87,303,31,-133
2,7688803,-3459,-1646,-978,-161,-251,-85,303,31,-133
2,7688811,-3459,-1646,-978,-161,-251,-85,303,31,-133
2,7688822,-3459,-1646,-978,-161,-251,-85,303,31,-133
2,7688836,-3456,-1650,-981,-164,-240,-82,303,31,-133
2,7688850,-3454,-1649,-981,-171,-236,-82,299,35,-133
2,7688862,-3456,-1648,-978,-156,-237,-74,299,35,-133
2,7688870,-3456,-1648,-978,-156,-237,-74,299,35,-133
2,7688883,-3457,-1648,-980,-159,-243,-81,299,35,-133
2,7688896,-3457,-1648,-980,-159,-243,-81,299,35,-133
2,7688909,-3463,-1647,-978,-158,-232,-73,299,35,-133
2,7688921,-3463,-1647,-978,-158,-232,-73,299,35,-133
2,7688931,-3458,-1647,-981,-160,-232,-84,299,35,-133
2,7688938,-3458,-1647,-981,-160,-232,-84,299,35,-133
2,7688946,-3460,-1646,-976,-157,-240,-87,299,35,-133
2,7688960,-3460,-1646,-976,-157,-240,-87,299,35,-133
2,7688971,-3459,-1648,-978,-160,-235,-90,295,37,-139
2,7688984,-3458,-1649,-980,-163,-241,-85,295,37,-139
2,7688997,-3458,-1649,-980,-163,-241,-85,295,37,-139
2,7689011,-3456,-1648,-981,-165,-246,-84,295,37,-139
2,7689022,-3456,-1648,-981,-165,-246,-84,295,37,-139
2,7689034,-3452,-1650,-983,-160,-241,-83,295,37,-139
2,7689051,-3457,-1651,-985,-163,-241,-83,295,37,-139
2,7689064,-3461,-1650,-977,-166,-246,-82,295,37,-139
2,7689072,-3461,-1650,-977,-166,-246,-82,295,37,-139
2,7689084,-3459,-1645,-975,-163,-238,-75,300,42,-134
2,7689097,-3459,-1645,-975,-163,-238,-75,300,42,-134
2,7689110,-3457,-1649,-972,-163,-239,-82,300,42,-134
2,7689121,-3457,-1649,-972,-163,-239,-82,300,42,-134
2,7689136,-3455,-1647,-980,-164,-243,-87,300,42,-134
2,7689149,-3455,-1646,-986,-166,-250,-88,300,42,-134
2,7689157,-3455,-1646,-986,-166,-250,-88,300,42,-134
2,7689168,-3454,-1648,-981,-159,-246,-84,300,42,-134
2,7689183,-3460,-1648,-985,-163,-236,-87,300,42,-134
2,7689193,-3460,-1648,-985,-163,-236,-87,300,42,-134
2,7689203,-3462,-1650,-977,-164,-242,-93,301,39,-127
2,7689217,-3462,-1650,-977,-164,-242,-93,301,39,-127
2,7689231,-3455,-1648,-979,-158,-243,-89,301,39,-127
2,7689240,-3455,-1648,-979,-158,-243,-89,301,39,-127
2,7689252,-3458,-1649,-983,-161,-241,-90,301,39,-127
2,7689264,-3459,-1648,-979,-156,-239,-86,301,39,-127
2,7689273,-3459,-1648,-979,-156,-239,-86,301,39,-127
2,7689283,-3455,-1646,-983,-159,-240,-83,301,39,-127
2,7689291,-3455,-1646,-983,-159,-240,-83,301,39,-127
2,7689300,-3455,-1646,-983,-159,-240,-83,301,39,-127
2,7689310,-3454,-1650,-980,-167,-241,-89,301,39,-127
2,7689319,-3454,-1650,-980,-167,-241,-89,301,39,-127
2,7689327,-3451,-1644,-980,-163,-238,-83,301,39,-127
2,7689337,-3451,-1644,-980,-163,-238,-83,301,39,-127
2,7689347,-3459,-1644,-979,-165,-249,-87,297,33,-133
2,7689357,-3459,-1644,-979,-165,-249,-87,297,33,-133
2,7689366,-3460,-1649,-974,-164,-243,-88,297,33,-133
2,7689373,-3460,-1649,-974,-164,-243,-88,297,33,-133
2,7689378,-3460,-1649,-974,-164,-243,-88,297,33,-133
2,7689384,-3461,-1650,-984,-160,-242,-86,297,33,-133
2,7689392,-3461,-1650,-984,-160,-242,-86,297,33,-133
2,7689402,-3461,-1650,-984,-160,-242,-86,297,33,-133
2,7689409,-3458,-1649,-979,-161,-237,-88,297,33,-133
2,7689419,-3458,-1649,-979,-161,-237,-88,297,33,-133
2,7689428,-3453,-1646,-982,-159,-232,-85,297,33,-133
2,7689439,-3453,-1646,-982,-159,-232,-85,297,33,-133
2,7689449,-3454,-1645,-979,-167,-238,-78,297,33,-133
2,7689455,-3454,-1645,-979,-167,-238,-78,297,33,-133
2,7689464,-3455,-1647,-982,-164,-238,-86,297,41,-127
2,7689475,-3455,-1647,-982,-164,-238,-86,297,41,-127
2,7689485,-3454,-1649,-981,-166,-243,-84,297,41,-127
2,7689495,-3454,-1649,-981,-166,-243,-84,297,41,-127
2,7689503,-3457,-1650,-984,-158,-233,-82,297,41,-127
2,7689512,-3457,-1650,-984,-158,-233,-82,297,41,-127
2,7689520,-3457,-1650,-984,-158,-233,-82,297,41,-127
2,7689529,-3455,-1648,-978,-160,-243,-93,297,41,-127
2,7689538,-3455,-1648,-978,-160,-243,-93,297,41,-127
2,7689547,-3454,-1647,-977,-160,-243,-84,297,41,-127
2,7689555,-3454,-1647,-977,-160,-243,-84,297,41,-127
2,7689565,-3452,-1650,-979,-161,-244,-82,297,41,-127
2,7689575,-3452,-1650,-979,-161,-244,-82,297,41,-127
2,7689584,-3451,-1649,-978,-168,-238,-84,294,44,-132
2,7689590,-3451,-1649,-978,-168,-238,-84,294,44,-132
2,7689600,-3451,-1649,-978,-168,-238,-84,294,44,-132
2,7689607,-3452,-1649,-981,-162,-244,-84,294,44,-132
2,7689617,-3452,-1649,-981,-162,-244,-84,294,44,-132
2,7689626,-3452,-1649,-981,-162,-244,-84,294,44,-132
2,7689635,-3452,-1649,-981,-162,-244,-84,294,44,-132
2,7689644,-3458,-1650,-984,-161,-240,-86,294,44,-132
2,7689654,-3458,-1650,-984,-161,-240,-86,294,44,-132
2,7689662,-3458,-1650,-984,-161,-240,-86,294,44,-132
2,7689668,-3457,-1648,-985,-158,-247,-86,294,44,-132
2,7689674,-3457,-1648,-985,-158,-247,-86,294,44,-132
2,7689680,-3457,-1648,-985,-158,-247,-86,294,44,-132
2,7689687,-3455,-1651,-981,-166,-242,-77,294,44,-132
2,7689694,-3455,-1651,-981,-166,-242,-77,294,44,-132
2,7689703,-3455,-1651,-981,-166,-242,-77,297,45,-129
2,7689711,-3455,-1651,-981,-166,-242,-77,297,45,-129
2,7689716,-3455,-1651,-981,-166,-242,-77,297,45,-129
2,7689723,-3451,-1642,-981,-162,-245,-87,297,45,-129
2,7689729,-3451,-1642,-981,-162,-245,-87,297,45,-129
2,7689736,-3451,-1642,-981,-162,-245,-87,297,45,-129
2,7689743,-3451,-1642,-981,-162,-245,-87,297,45,-129
2,7689749,-3451,-1645,-980,-165,-242,-84,297,45,-129
2,7689755,-3451,-1645,-980,-165,-242,-84,297,45,-129
2,7689760,-3451,-1645,-980,-165,-242,-84,297,45,-129
2,7689771,-3451,-1653,-986,-161,-245,-89,297,45,-129
2,7689779,-3451,-1653,-986,-161,-245,-89,297,45,-129
2,7689789,-3458,-1646,-987,-156,-242,-89,297,45,-129
2,7689799,-3458,-1646,-987,-156,-242,-89,297,45,-129
2,7689807,-3456,-1650,-982,-160,-245,-87,297,45,-129
2,7689817,-3456,-1650,-982,-160,-245,-87,297,45,-129
2,7689824,-3456,-1648,-977,-161,-242,-86,297,39,-133
2,7689834,-3456,-1648,-977,-161,-242,-86,297,39,-133
2,7689844,-3454,-1647,-979,-157,-238,-85,297,39,-133
2,7689851,-3454,-1647,-979,-157,-238,-85,297,39,-133
2,7689861,-3454,-1647,-979,-157,-238,-85,297,39,-133
2,7689871,-3450,-1646,-978,-167,-246,-82,297,39,-133
2,7689878,-3450,-1646,-978,-167,-246,-82,297,39,-133
2,7689889,-3447,-1647,-988,-157,-244,-83,297,39,-133
2,7689897,-3447,-1647,-988,-157,-244,-83,297,39,-133
2,7689908,-3447,-1645,-983,-162,-243,-89,297,39,-133
2,7689917,-3447,-1645,-983,-162,-243,-89,297,39,-133
2,7689927,-3451,-1648,-987,-160,-239,-91,297,39,-133
2,7689935,-3451,-1648,-987,-160,-239,-91,297,39,-133
2,7689943,-3451,-1648,-987,-160,-239,-91,297,39,-133
2,7689952,-3452,-1650,-983,-167,-240,-88,297,39,-133
2,7689961,-3452,-1650,-983,-167,-240,-88,297,39,-133
2,7689970,-3458,-1650,-983,-158,-236,-78,293,41,-133
2,7689980,-3458,-1650,-983,-158,-236,-78,293,41,-133
2,7689990,-3454,-1650,-983,-167,-236,-85,293,41,-133
2,7690000,-3454,-1650,-983,-167,-236,-85,293,41,-133
2,7690008,-3452,-1648,-978,-168,-243,-77,293,41,-133
2,7690017,-3452,-1648,-978,-168,-243,-77,293,41,-133
2,7690024,-3449,-1648,-982,-161,-240,-86,293,41,-133
2,7690031,-3449,-1648,-982,-161,-240,-86,293,41,-133
2,7690037,-3449,-1648,-982,-161,-240,-86,293,41,-133
2,7690043,-3449,-1647,-981,-155,-236,-95,293,41,-133
2,7690049,-3449,-1647,-981,-155,-236,-95,293,41,-133
2,7690060,-3449,-1647,-981,-155,-236,-95,293,41,-133
2,7690070,-3452,-1651,-984,-158,-231,-85,293,41,-133
2,7690079,-3452,-1651,-984,-158,-231,-85,293,41,-133
2,7690088,-3456,-1649,-977,-162,-242,-83,294,36,-142
2,7690095,-3456,-1649,-977,-162,-242,-83,294,36,-142
2,7690105,-3453,-1648,-982,-168,-238,-88,294,36,-142
2,7690113,-3453,-1648,-982,-168,-238,-88,294,36,-142
2,7690122,-3453,-1648,-982,-168,-238,-88,294,36,-142
2,7690130,-3452,-1647,-981,-173,-241,-86,294,36,-142
2,7690139,-3452,-1647,-981,-173,-241,-86,294,36,-142
2,7690146,-3449,-1646,-982,-160,-238,-87,294,36,-142
2,7690156,-3449,-1646,-982,-160,-238,-87,294,36,-142
2,7690162,-3449,-1646,-982,-160,-238,-87,294,36,-142
2,7690171,-3450,-1646,-980,-161,-244,-84,294,36,-142
2,7690180,-3450,-1646,-980,-161,-244,-84,294,36,-142
2,7690190,-3449,-1648,-988,-164,-242,-82,294,36,-142
2,7690199,-3449,-1648,-988,-164,-242,-82,294,36,-142
2,7690209,-3457,-1651,-975,-154,-236,-87,297,47,-127
2,7690219,-3457,-1651,-975,-154,-236,-87,297,47,-127
2,7690229,-3453,-1646,-983,-162,-243,-90,297,47,-127
2,7690240,-3453,-1646,-983,-162,-243,-90,297,47,-127
2,7690247,-3455,-1647,-980,-160,-242,-86,297,47,-127
2,7690257,-3455,-1647,-980,-160,-242,-86,297,47,-127
2,7690266,-3453,-1646,-980,-160,-239,-85,297,47,-127
2,7690277,-3453,-1646,-980,-160,-239,-85,297,47,-127
2,7690292,-3452,-1649,-979,-154,-241,-94,297,47,-127
2,7690305,-3448,-1647,-982,-156,-243,-93,297,47,-127
2,7690316,-3448,-1647,-982,-156,-243,-93,297,47,-127
2,7690330,-3448,-1645,-974,-162,-240,-92,294,38,-128
2,7690343,-3448,-1645,-974,-162,-240,-92,294,38,-128
2,7690358,-3451,-1647,-982,-163,-242,-88,294,38,-128
2,7690370,-3454,-1651,-984,-168,-248,-87,294,38,-128
2,7690381,-3454,-1651,-984,-168,-248,-87,294,38,-128
2,7690394,-3457,-1650,-977,-162,-245,-75,294,38,-128
2,7690407,-3456,-1648,-983,-160,-239,-81,294,38,-128
2,7690420,-3456,-1648,-983,-160,-239,-81,294,38,-128
2,7690432,-3451,-1648,-981,-163,-243,-80,294,38,-128
2,7690446,-3448,-1649,-985,-166,-247,-81,295,37,-129
2,7690460,-3448,-1649,-985,-166,-247,-81,295,37,-129
2,7690472,-3445,-1645,-980,-158,-248,-80,295,37,-129
2,7690480,-3445,-1645,-980,-158,-248,-80,295,37,-129
2,7690492,-3446,-1643,-985,-162,-252,-79,295,37,-129
2,7690505,-3455,-1647,-988,-164,-244,-77,295,37,-129
2,7690518,-3455,-1647,-988,-164,-244,-77,295,37,-129
2,7690529,-3458,-1650,-984,-156,-246,-80,295,37,-129
2,7690542,-3458,-1650,-984,-156,-246,-80,295,37,-129
2,7690556,-3456,-1650,-983,-158,-236,-89,295,37,-129
2,7690568,-3454,-1652,-986,-163,-236,-89,295,37,-129
2,7690579,-3454,-1652,-986,-163,-236,-89,295,37,-129
2,7690591,-3451,-1648,-979,-160,-238,-84,302,40,-130
2,7690605,-3449,-1648,-980,-167,-237,-90,302,40,-130
2,7690618,-3449,-1648,-980,-167,-237,-90,302,40,-130
2,7690630,-3446,-1647,-980,-165,-242,-88,302,40,-130
2,7690643,-3446,-1647,-980,-165,-242,-88,302,40,-130
2,7690655,-3448,-1649,-981,-165,-239,-86,302,40,-130
2,7690664,-3452,-1650,-978,-161,-242,-89,302,40,-130
2,7690672,-3452,-1650,-978,-161,-242,-89,302,40,-130
2,7690680,-3452,-1650,-978,-161,-242,-89,302,40,-130
2,7690689,-3453,-1650,-986,-164,-242,-83,302,40,-130
2,7690701,-3453,-1650,-986,-164,-242,-83,302,40,-130
2,7690713,-3458,-1648,-985,-171,-239,-85,295,39,-135
2,7690720,-3458,-1648,-985,-171,-239,-85,295,39,-135
2,7690728,-3451,-1646,-980,-159,-241,-85,295,39,-135
2,7690736,-3451,-1646,-980,-159,-241,-85,295,39,-135
2,7690744,-3452,-1649,-982,-157,-235,-78,295,39,-135
2,7690753,-3452,-1649,-982,-157,-235,-78,295,39,-135
2,7690761,-3452,-1649,-982,-157,-235,-78,295,39,-135
2,7690768,-3451,-1649,-982,-160,-239,-85,295,39,-135
2,7690776,-3451,-1649,-982,-160,-239,-85,295,39,-135
2,7690784,-3452,-1648,-980,-163,-238,-85,295,39,-135
2,7690792,-3452,-1648,-980,-163,-238,-85,295,39,-135
2,7690802,-3452,-1648,-980,-163,-238,-85,295,39,-135
2,7690810,-3454,-1647,-982,-156,-235,-81,295,39,-135
2,7690818,-3454,-1647,-982,-156,-235,-81,295,39,-135
2,7690825,-3455,-1648,-976,-160,-241,-88,294,42,-126
2,7690834,-3455,-1648,-976,-160,-241,-88,294,42,-126
2,7690845,-3458,-1648,-983,-160,-243,-86,294,42,-126
2,7690854,-3458,-1648,-983,-160,-243,-86,294,42,-126
2,7690863,-3458,-1648,-983,-160,-243,-86,294,42,-126
2,7690877,-3453,-1648,-981,-164,-243,-96,294,42,-126
2,7690890,-3451,-1649,-985,-167,-249,-92,294,42,-126
2,7690903,-3451,-1649,-985,-167,-249,-92,294,42,-126
2,7690916,-3448,-1650,-979,-165,-252,-83,294,42,-126
2,7690929,-3451,-1645,-982,-167,-243,-85,294,42,-126
2,7690941,-3451,-1645,-982,-167,-243,-85,294,42,-126
2,7690950,-3451,-1648,-983,-166,-240,-83,297,43,-133
2,7690961,-3451,-1648,-983,-166,-240,-83,297,43,-133
2,7690976,-3453,-1649,-983,-167,-238,-89,297,43,-133
2,7690988,-3460,-1650,-983,-165,-246,-87,297,43,-133
2,7690998,-3460,-1650,-983,-165,-246,-87,297,43,-133
2,7691011,-3457,-1651,-982,-168,-242,-84,297,43,-133
2,7691024,-3457,-1651,-982,-168,-242,-84,297,43,-133
2,7691036,-3453,-1648,-979,-161,-241,-87,297,43,-133
2,7691047,-3450,-1646,-981,-152,-245,-84,297,43,-133
2,7691060,-3450,-1646,-981,-152,-245,-84,297,43,-133
2,7691073,-3450,-1649,-985,-158,-250,-81,295,39,-133
2,7691084,-3450,-1646,-981,-153,-238,-86,295,39,-133
2,7691098,-3450,-1646,-981,-153,-238,-86,295,39,-133
2,7691111,-3452,-1649,-976,-164,-241,-83,295,39,-133
2,7691125,-3456,-1652,-978,-165,-246,-87,295,39,-133
2,7691138,-3456,-1652,-978,-165,-246,-87,295,39,-133
2,7691149,-3454,-1650,-984,-170,-236,-90,295,39,-133
2,7691162,-3454,-1650,-984,-170,-236,-90,295,39,-133
2,7691175,-3456,-1652,-983,-165,-252,-88,295,39,-133
2,7691188,-3455,-1649,-977,-163,-238,-89,295,39,-133
2,7691198,-3455,-1649,-977,-163,-238,-89,295,39,-133
2,7691211,-3450,-1650,-980,-167,-238,-80,301,45,-123
2,7691223,-3450,-1650,-980,-167,-238,-80,301,45,-123
2,7691236,-3452,-1645,-978,-175,-245,-75,301,45,-123
2,7691248,-3452,-1645,-978,-175,-245,-75,301,45,-123
2,7691262,-3452,-1645,-978,-175,-245,-75,301,45,-123
2,7691274,-3452,-1648,-982,-163,-248,-79,301,45,-123
2,7691284,-3452,-1648,-982,-163,-248,-79,301,45,-123
2,7691294,-3457,-1651,-988,-163,-242,-83,301,45,-123
2,7691303,-3457,-1651,-988,-163,-242,-83,301,45,-123
2,7691313,-3455,-1651,-982,-167,-244,-85,301,45,-123
2,7691322,-3455,-1651,-982,-167,-244,-85,301,45,-123
2,7691333,-3456,-1650,-977,-165,-243,-88,298,40,-126
2,7691343,-3456,-1650,-977,-165,-243,-88,298,40,-126
2,7691355,-3451,-1651,-978,-171,-244,-88,298,40,-126
2,7691363,-3451,-1651,-978,-171,-244,-88,298,40,-126
2,7691372,-3452,-1650,-977,-164,-239,-93,298,40,-126
2,7691381,-3452,-1650,-977,-164,-239,-93,298,40,-126
2,7691390,-3452,-1650,-983,-163,-240,-86,298,40,-126
2,7691399,-3452,-1650,-983,-163,-240,-86,298,40,-126
2,7691408,-3453,-1648,-983,-164,-240,-83,298,40,-126
2,7691416,-3453,-1648,-983,-164,-240,-83,298,40,-126
2,7691425,-3456,-1649,-981,-164,-239,-90,298,40,-126
2,7691436,-3456,-1649,-981,-164,-239,-90,298,40,-126
2,7691444,-3456,-1649,-981,-164,-239,-90,298,40,-126
2,7691455,-3455,-1645,-979,-163,-244,-86,295,39,-125
2,7691464,-3453,-1648,-979,-163,-244,-86,295,39,-125
2,7691472,-3453,-1648,-979,-163,-244,-86,295,39,-125
2,7691479,-3453,-1648,-979,-163,-244,-86,295,39,-125
2,7691485,-3453,-1648,-980,-160,-242,-86,295,39,-125
2,7691491,-3453,-1648,-980,-160,-242,-86,295,39,-125
2,7691501,-3453,-1648,-980,-160,-242,-86,295,39,-125
2,7691511,-3452,-1649,-983,-160,-243,-87,295,39,-125
2,7691521,-3452,-1649,-983,-160,-243,-87,295,39,-125
2,7691530,-3458,-1650,-980,-166,-236,-83,295,39,-125
2,7691537,-3458,-1650,-980,-166,-236,-83,295,39,-125
2,7691547,-3456,-1647,-982,-160,-236,-82,295,39,-125
2,7691554,-3456,-1647,-982,-160,-236,-82,295,39,-125
2,7691565,-3456,-1647,-982,-160,-236,-82,295,39,-125
2,7691574,-3455,-1649,-976,-161,-244,-83,300,42,-130
2,7691583,-3455,-1649,-976,-161,-244,-83,300,42,-130
2,7691592,-3456,-1647,-978,-157,-241,-79,300,42,-130
2,7691601,-3456,-1647,-978,-157,-241,-79,300,42,-130
2,7691610,-3452,-1648,-975,-157,-237,-87,300,42,-130
2,7691617,-3452,-1648,-975,-157,-237,-87,300,42,-130
2,7691626,-3453,-1646,-983,-163,-241,-83,300,42,-130
2,7691633,-3453,-1646,-983,-163,-241,-83,300,42,-130
2,7691642,-3453,-1646,-983,-163,-241,-83,300,42,-130
2,7691652,-3453,-1648,-981,-169,-247,-79,300,42,-130
2,7691661,-3453,-1648,-981,-169,-247,-79,300,42,-130
2,7691667,-3449,-1649,-982,-159,-245,-94,300,42,-130
2,7691673,-3449,-1649,-982,-159,-245,-94,300,42,-130
2,7691679,-3449,-1649,-982,-159,-245,-94,300,42,-130
2,7691685,-3455,-1647,-982,-164,-235,-81,300,36,-130
2,7691695,-3455,-1647,-982,-164,-235,-81,300,36,-130
2,7691703,-3455,-1647,-982,-164,-235,-81,300,36,-130
2,7691710,-3455,-1650,-982,-165,-236,-82,300,36,-130
2,7691715,-3455,-1650,-982,-165,-236,-82,300,36,-130
2,7691720,-3455,-1650,-982,-165,-236,-82,300,36,-130
2,7691725,-3456,-1650,-979,-164,-247,-92,300,36,-130
2,7691730,-3456,-1650,-979,-164,-247,-92,300,36,-130
2,7691737,-3456,-1650,-979,-164,-247,-92,300,36,-130
2,7691742,-3456,-1650,-979,-164,-247,-92,300,36,-130
2,7691747,-3454,-1645,-981,-163,-239,-89,300,36,-130
2,7691754,-3454,-1645,-981,-163,-239,-89,300,36,-130
2,7691761,-3454,-1645,-981,-163,-239,-89,300,36,-130
2,7691769,-3451,-1648,-978,-163,-241,-91,300,36,-130
2,7691774,-3451,-1648,-978,-163,-241,-91,300,36,-130
2,7691781,-3451,-1648,-978,-163,-241,-91,300,36,-130
2,7691787,-3452,-1647,-977,-167,-244,-91,300,36,-130
2,7691797,-3452,-1647,-977,-167,-244,-91,300,36,-130
2,7691804,-3452,-1647,-977,-167,-244,-91,300,36,-130
2,7691815,-3450,-1649,-982,-160,-244,-88,300,44,-136
2,7691825,-3456,-1648,-974,-165,-242,-90,300,44,-136
2,7691836,-3456,-1648,-974,-165,-242,-90,300,44,-136
2,7691846,-3451,-1651,-978,-171,-242,-84,300,44,-136
2,7691852,-3451,-1651,-978,-171,-242,-84,300,44,-136
2,7691863,-3451,-1651,-978,-171,-242,-84,300,44,-136
2,7691873,-3457,-1649,-976,-169,-238,-71,300,44,-136
2,7691881,-3457,-1649,-976,-169,-238,-71,300,44,-136
2,7691889,-3457,-1649,-982,-168,-241,-80,300,44,-136
2,7691900,-3457,-1649,-982,-168,-241,-80,300,44,-136
2,7691910,-3452,-1651,-982,-168,-249,-83,300,44,-136
2,7691919,-3452,-1651,-982,-168,-249,-83,300,44,-136
2,7691928,-3456,-1649,-978,-167,-247,-88,300,44,-136
2,7691938,-3456,-1649,-978,-167,-247,-88,300,44,-136
2,7691949,-3453,-1648,-974,-171,-245,-87,296,32,-132
2,7691955,-3453,-1648,-974,-171,-245,-87,296,32,-132
2,7691965,-3453,-1648,-974,-171,-245,-87,296,32,-132
2,7691972,-3453,-1652,-981,-169,-242,-82,296,32,-132
2,7691982,-3453,-1652,-981,-169,-242,-82,296,32,-132
2,7691994,-3455,-1648,-977,-162,-244,-85,296,32,-132
2,7692004,-3455,-1648,-977,-162,-244,-85,296,32,-132
2,7692014,-3454,-1649,-977,-160,-250,-83,296,32,-132
2,7692021,-3454,-1649,-977,-160,-250,-83,296,32,-132
2,7692030,-3458,-1651,-984,-160,-241,-88,296,32,-132
2,7692041,-3458,-1651,-984,-160,-241,-88,296,32,-132
2,7692050,-3452,-1647,-975,-166,-240,-94,296,32,-132
2,7692060,-3452,-1647,-975,-166,-240,-94,296,32,-132
2,7692069,-3454,-1647,-978,-153,-247,-81,301,41,-135
2,7692079,-3454,-1647,-978,-153,-247,-81,301,41,-135
2,7692089,-3454,-1648,-981,-159,-235,-86,301,41,-135
2,7692098,-3454,-1648,-981,-159,-235,-86,301,41,-135
2,7692105,-3454,-1647,-979,-163,-239,-84,301,41,-135
2,7692115,-3454,-1647,-979,-163,-239,-84,301,41,-135
2,7692123,-3454,-1647,-979,-163,-239,-84,301,41,-135
2,7692132,-3458,-1651,-983,-168,-247,-88,301,41,-135
2,7692140,-3458,-1651,-983,-168,-247,-88,301,41,-135
2,7692151,-3457,-1650,-976,-166,-247,-84,301,41,-135
2,7692162,-3457,-1650,-976,-166,-247,-84,301,41,-135
2,7692170,-3457,-1648,-980,-162,-236,-83,301,41,-135
2,7692176,-3457,-1648,-980,-162,-236,-83,301,41,-135
2,7692182,-3457,-1648,-980,-162,-236,-83,301,41,-135
2,7692188,-3458,-1648,-974,-171,-241,-87,306,42,-132
2,7692194,-3458,-1648,-974,-171,-241,-87,306,42,-132
2,7692206,-3454,-1646,-980,-168,-234,-86,306,42,-132
2,7692214,-3454,-1646,-980,-168,-234,-86,306,42,-132
2,7692224,-3454,-1646,-980,-168,-234,-86,306,42,-132
2,7692231,-3451,-1647,-978,-165,-238,-86,306,42,-132
2,7692238,-3451,-1647,-978,-165,-238,-86,306,42,-132
2,7692249,-3450,-1648,-978,-157,-248,-90,306,42,-132
2,7692256,-3450,-1648,-978,-157,-248,-90,306,42,-132
2,7692265,-3457,-1648,-981,-170,-244,-88,306,42,-132
2,7692276,-3457,-1648,-981,-170,-244,-88,306,42,-132
2,7692288,-3456,-1651,-978,-165,-246,-88,306,42,-132
2,7692302,-3456,-1651,-978,-165,-246,-88,306,42,-132
2,7692315,-3456,-1648,-974,-166,-241,-80,305,39,-139
2,7692329,-3457,-1651,-978,-172,-242,-81,305,39,-139
2,7692339,-3457,-1651,-978,-172,-242,-81,305,39,-139
2,7692351,-3454,-1649,-979,-167,-233,-80,305,39,-139
2,7692363,-3454,-1649,-979,-167,-233,-80,305,39,-139
2,7692377,-3449,-1650,-982,-159,-234,-81,305,39,-139
2,7692390,-3451,-1648,-982,-163,-240,-88,305,39,-139
2,7692403,-3451,-1648,-982,-163,-240,-88,305,39,-139
2,7692416,-3453,-1648,-992,-160,-242,-84,305,39,-139
2,7692428,-3455,-1649,-979,-161,-245,-82,306,38,-134
2,7692442,-3455,-1649,-979,-161,-245,-82,306,38,-134
2,7692455,-3453,-1649,-969,-161,-243,-87,306,38,-134
2,7692468,-3455,-1650,-979,-163,-243,-90,306,38,-134
2,7692480,-3455,-1650,-979,-163,-243,-90,306,38,-134
2,7692491,-3450,-1647,-977,-167,-241,-86,306,38,-134
2,7692505,-3450,-1647,-977,-167,-241,-86,306,38,-134
2,7692517,-3454,-1650,-980,-158,-241,-89,306,38,-134
2,7692531,-3452,-1647,-978,-168,-240,-83,306,38,-134
2,7692545,-3452,-1647,-978,-168,-240,-83,306,38,-134
2,7692556,-3453,-1647,-977,-162,-239,-90,306,38,-134
2,7692569,-3456,-1652,-978,-161,-233,-88,310,42,-122
2,7692580,-3456,-1652,-978,-161,-233,-88,310,42,-122
2,7692595,-3457,-1648,-975,-162,-241,-81,310,42,-122
2,7692606,-3457,-1649,-977,-164,-241,-82,310,42,-122
2,7692620,-3457,-1649,-977,-164,-241,-82,310,42,-122
2,7692633,-3455,-1649,-979,-163,-247,-81,310,42,-122
2,7692646,-3455,-1648,-980,-167,-237,-87,310,42,-122
2,7692659,-3455,-1648,-980,-167,-237,-87,310,42,-122
2,7692667,-3453,-1647,-985,-170,-242,-86,310,42,-122
2,7692677,-3453,-1647,-985,-170,-242,-86,310,42,-122
2,7692684,-3453,-1647,-985,-170,-242,-86,310,42,-122
2,7692694,-3451,-1647,-970,-157,-242,-78,308,36,-138
2,7692706,-3454,-1651,-981,-165,-240,-89,308,36,-138
2,7692715,-3454,-1651,-981,-165,-240,-89,308,36,-138
2,7692723,-3454,-1651,-981,-165,-240,-89,308,36,-138
2,7692731,-3456,-1647,-984,-160,-250,-83,308,36,-138
2,7692738,-3456,-1647,-984,-160,-250,-83,308,36,-138
2,7692746,-3458,-1646,-975,-161,-248,-83,308,36,-138
2,7692754,-3458,-1646,-975,-161,-248,-83,308,36,-138
2,7692763,-3458,-1646,-975,-161,-248,-83,308,36,-138
2,7692770,-3455,-1648,-977,-170,-244,-84,308,36,-138
2,7692778,-3455,-1648,-977,-170,-244,-84,308,36,-138
2,7692786,-3451,-1648,-974,-172,-242,-84,308,36,-138
2,7692794,-3451,-1648,-974,-172,-242,-84,308,36,-138
2,7692804,-3451,-1648,-974,-172,-242,-84,308,36,-138
2,7692813,-3453,-1647,-972,-169,-244,-88,311,33,-137
2,7692822,-3453,-1647,-972,-169,-244,-88,311,33,-137
2,7692831,-3450,-1646,-978,-170,-251,-73,311,33,-137
2,7692839,-3450,-1646,-978,-170,-251,-73,311,33,-137
2,7692849,-3453,-1649,-974,-169,-247,-82,311,33,-137
2,7692858,-3453,-1649,-974,-169,-247,-82,311,33,-137
2,7692870,-3456,-1652,-972,-166,-245,-82,311,33,-137
2,7692883,-3456,-1652,-972,-166,-245,-82,311,33,-137
2,7692892,-3457,-1647,-974,-162,-238,-87,311,33,-137
2,7692902,-3457,-1647,-974,-162,-238,-87,311,33,-137
2,7692910,-3460,-1650,-978,-156,-239,-91,311,33,-137
2,7692918,-3460,-1650,-978,-156,-239,-91,311,33,-137
2,7692926,-3457,-1650,-979,-158,-233,-84,313,39,-135
2,7692936,-3457,-1650,-979,-158,-233,-84,313,39,-135
2,7692945,-3457,-1650,-979,-158,-233,-84,313,39,-135
2,7692956,-3453,-1646,-979,-161,-245,-80,313,39,-135
2,7692971,-3452,-1646,-977,-163,-246,-85,313,39,-135
2,7692986,-3452,-1646,-977,-163,-246,-85,313,39,-135
2,7692994,-3449,-1646,-973,-164,-240,-89,313,39,-135
2,7693006,-3456,-1648,-979,-166,-243,-91,313,39,-135
2,7693019,-3456,-1648,-979,-166,-243,-91,313,39,-135
2,7693032,-3456,-1648,-979,-166,-243,-91,313,39,-135
2,7693042,-3456,-1648,-979,-166,-243,-91,313,39,-135
2,7693054,-3460,-1649,-972,-159,-243,-83,311,41,-129
2,7693068,-3455,-1651,-973,-162,-239,-79,311,41,-129
2,7693076,-3455,-1651,-973,-162,-239,-79,311,41,-129
2,7693089,-3456,-1648,-980,-155,-239,-93,311,41,-129
2,7693105,-3456,-1648,-980,-155,-239,-93,311,41,-129
2,7693117,-3455,-1651,-977,-162,-240,-87,311,41,-129
2,7693130,-3450,-1650,-983,-161,-242,-83,311,41,-129
2,7693145,-3450,-1650,-983,-161,-242,-83,311,41,-129
2,7693157,-3452,-1650,-981,-163,-242,-90,311,41,-129
2,7693169,-3456,-1649,-982,-164,-237,-84,311,41,-129
2,7693180,-3456,-1649,-982,-164,-237,-84,311,41,-129
2,7693191,-3455,-1651,-976,-163,-248,-89,310,40,-136
2,7693204,-3455,-1651,-976,-163,-248,-89,310,40,-136
2,7693213,-3454,-1651,-977,-159,-240,-89,310,40,-136
2,7693225,-3454,-1651,-977,-159,-240,-89,310,40,-136
2,7693238,-3453,-1649,-981,-163,-248,-85,310,40,-136
2,7693251,-3453,-1649,-978,-158,-243,-89,310,40,-136
2,7693260,-3453,-1649,-978,-158,-243,-89,310,40,-136
2,7693273,-3456,-1650,-982,-161,-243,-83,310,40,-136
2,7693284,-3456,-1650,-982,-161,-243,-83,310,40,-136
2,7693296,-3454,-1648,-981,-159,-237,-86,310,40,-136
2,7693307,-3456,-1650,-978,-162,-237,-84,305,39,-135
2,7693318,-3456,-1650,-978,-162,-237,-84,305,39,-135
2,7693326,-3456,-1650,-978,-162,-237,-84,305,39,-135
2,7693337,-3457,-1649,-976,-164,-243,-85,305,39,-135
2,7693343,-3457,-1649,-976,-164,-243,-85,305,39,-135
2,7693355,-3460,-1651,-982,-164,-244,-81,305,39,-135
2,7693366,-3460,-1651,-982,-164,-244,-81,305,39,-135
2,7693379,-3456,-1647,-983,-164,-244,-86,305,39,-135
2,7693392,-3452,-1645,-980,-163,-250,-90,305,39,-135
2,7693403,-3452,-1645,-980,-163,-250,-90,305,39,-135
2,7693414,-3452,-1648,-979,-165,-247,-76,305,39,-135
2,7693427,-3451,-1650,-976,-168,-245,-84,308,32,-136
2,7693441,-3451,-1650,-976,-168,-245,-84,308,32,-136
2,7693450,-3457,-1650,-980,-163,-239,-84,308,32,-136
2,7693461,-3457,-1650,-980,-163,-239,-84,308,32,-136
2,7693475,-3457,-1647,-979,-162,-242,-83,308,32,-136
2,7693486,-3457,-1647,-979,-162,-242,-83,308,32,-136
2,7693495,-3459,-1650,-977,-160,-245,-88,308,32,-136
2,7693507,-3455,-1650,-979,-162,-249,-89,308,32,-136
2,7693518,-3455,-1650,-979,-162,-249,-89,308,32,-136
2,7693531,-3452,-1647,-977,-158,-243,-89,308,32,-136
2,7693543,-3452,-1647,-977,-158,-243,-89,308,32,-136
2,7693552,-3452,-1648,-978,-162,-244,-89,312,42,-130
2,7693560,-3452,-1648,-978,-162,-244,-89,312,42,-130
2,7693566,-3451,-1652,-976,-162,-238,-94,312,42,-130
2,7693575,-3451,-1652,-976,-162,-238,-94,312,42,-130
2,7693583,-3451,-1652,-976,-162,-238,-94,312,42,-130
2,7693596,-3455,-1649,-978,-165,-241,-91,312,42,-130
2,7693609,-3457,-1648,-982,-170,-242,-78,312,42,-130
2,7693620,-3457,-1648,-982,-170,-242,-78,312,42,-130
2,7693631,-3457,-1653,-985,-164,-240,-85,312,42,-130
2,7693644,-3457,-1653,-985,-164,-240,-85,312,42,-130
2,7693658,-3456,-1652,-978,-163,-235,-85,312,42,-130
2,7693665,-3456,-1652,-978,-163,-235,-85,312,42,-130
2,7693673,-3453,-1647,-981,-165,-242,-84,310,38,-132
2,7693681,-3453,-1647,-981,-165,-242,-84,310,38,-132
2,7693688,-3454,-1649,-972,-164,-241,-86,310,38,-132
2,7693698,-3454,-1649,-972,-164,-241,-86,310,38,-132
2,7693711,-3450,-1643,-980,-163,-247,-86,310,38,-132
2,7693717,-3450,-1643,-980,-163,-247,-86,310,38,-132
2,7693725,-3450,-1643,-980,-163,-247,-86,310,38,-132
2,7693733,-3455,-1645,-970,-167,-246,-82,310,38,-132
2,7693742,-3455,-1645,-970,-167,-246,-82,310,38,-132
2,7693750,-3455,-1649,-979,-160,-234,-80,310,38,-132
2,7693758,-3455,-1649,-979,-160,-234,-80,310,38,-132
2,7693765,-3455,-1649,-979,-160,-234,-80,310,38,-132
2,7693773,-3453,-1648,-983,-161,-242,-84,310,38,-132
2,7693783,-3453,-1648,-983,-161,-242,-84,310,38,-132
2,7693791,-3455,-1650,-984,-164,-242,-82,310,38,-132
2,7693800,-3455,-1650,-984,-164,-242,-82,310,38,-132
2,7693811,-3452,-1653,-970,-153,-244,-88,310,40,-134
2,7693826,-3452,-1653,-970,-153,-244,-88,310,40,-134
2,7693835,-3451,-1650,-980,-160,-247,-81,310,40,-134
2,7693847,-3455,-1648,-983,-161,-243,-78,310,40,-134
2,7693859,-3455,-1648,-983,-161,-243,-78,310,40,-134
2,7693874,-3455,-1651,-987,-167,-241,-79,310,40,-134
2,7693882,-3455,-1651,-987,-167,-241,-79,310,40,-134
2,7693894,-3456,-1650,-979,-169,-240,-78,310,40,-134
2,7693907,-3457,-1649,-981,-169,-247,-90,310,40,-134
2,7693920,-3457,-1649,-981,-169,-247,-90,310,40,-134
2,7693931,-3459,-1648,-978,-165,-247,-86,308,38,-134
2,7693937,-3459,-1648,-978,-165,-247,-86,308,38,-134
2,7693946,-3459,-1648,-978,-165,-247,-86,308,38,-134
2,7693959,-3455,-1650,-981,-164,-237,-87,308,38,-134
2,7693971,-3453,-1651,-980,-167,-235,-91,308,38,-134
2,7693981,-3453,-1651,-980,-167,-235,-91,308,38,-134
2,7693993,-3452,-1649,-979,-163,-240,-84,308,38,-134
2,7694002,-3452,-1649,-979,-163,-240,-84,308,38,-134
2,7694014,-3450,-1647,-983,-160,-248,-83,308,38,-134
2,7694028,-3454,-1648,-982,-161,-244,-87,308,38,-134
2,7694043,-3454,-1648,-982,-161,-244,-87,308,38,-134
2,7694052,-3459,-1646,-978,-160,-239,-92,308,38,-138
2,7694064,-3459,-1646,-978,-160,-239,-92,308,38,-138
2,7694075,-3460,-1649,-977,-162,-239,-82,308,38,-138
2,7694090,-3454,-1649,-977,-161,-242,-80,308,38,-138
2,7694099,-3454,-1649,-977,-161,-242,-80,308,38,-138
2,7694112,-3453,-1651,-978,-160,-248,-93,308,38,-138
2,7694126,-3453,-1651,-978,-160,-248,-93,308,38,-138
2,7694138,-3451,-1649,-976,-161,-249,-89,308,38,-138
2,7694148,-3449,-1652,-983,-162,-247,-86,308,38,-138
2,7694159,-3449,-1652,-983,-162,-247,-86,308,38,-138
2,7694172,-3453,-1648,-976,-163,-239,-81,309,37,-135
2,7694185,-3453,-1648,-976,-163,-239,-81,309,37,-135
2,7694197,-3455,-1649,-977,-163,-247,-84,309,37,-135
2,7694210,-3457,-1648,-979,-163,-240,-82,309,37,-135
2,7694218,-3457,-1648,-979,-163,-240,-82,309,37,-135
2,7694231,-3457,-1648,-982,-158,-239,-93,309,37,-135
2,7694245,-3457,-1648,-982,-158,-239,-93,309,37,-135
2,7694260,-3454,-1650,-977,-162,-245,-87,309,37,-135
2,7694269,-3453,-1647,-974,-167,-245,-85,309,37,-135
2,7694277,-3453,-1647,-974,-167,-245,-85,309,37,-135
2,7694285,-3453,-1647,-974,-167,-245,-85,309,37,-135
2,7694294,-3450,-1645,-975,-163,-243,-83,305,39,-129
2,7694302,-3450,-1645,-975,-163,-243,-83,305,39,-129
2,7694315,-3452,-1644,-971,-160,-235,-79,305,39,-129
2,7694328,-3452,-1648,-985,-163,-241,-87,305,39,-129
2,7694343,-3452,-1648,-985,-163,-241,-87,305,39,-129
2,7694356,-3456,-1646,-979,-164,-241,-85,305,39,-129
2,7694365,-3456,-1646,-979,-164,-241,-85,305,39,-129
2,7694380,-3457,-1650,-984,-160,-244,-85,305,39,-129
2,7694392,-3454,-1650,-979,-163,-249,-88,305,39,-129
2,7694405,-3454,-1650,-979,-163,-249,-88,305,39,-129
2,7694416,-3454,-1650,-983,-164,-250,-84,305,39,-129
2,7694429,-3452,-1648,-976,-164,-238,-84,305,39,-129
2,7694440,-3452,-1648,-976,-164,-238,-84,305,39,-129
2,7694450,-3450,-1650,-980,-158,-237,-83,305,39,-129
2,7694465,-3450,-1650,-980,-158,-237,-83,305,39,-129
2,7694478,-3457,-1645,-983,-160,-242,-82,305,39,-129
2,7694491,-3457,-1646,-979,-166,-247,-87,305,39,-129
2,7694503,-3457,-1646,-979,-166,-247,-87,305,39,-129
2,7694518,-3456,-1649,-977,-157,-241,-82,305,39,-129
2,7694531,-3452,-1647,-980,-162,-239,-77,305,39,-129
2,7694542,-3452,-1647,-980,-162,-239,-77,305,39,-129
2,7694554,-3453,-1650,-980,-161,-245,-78,299,39,-141
2,7694566,-3453,-1650,-980,-161,-245,-78,299,39,-141
2,7694580,-3454,-1648,-979,-161,-245,-81,299,39,-141
2,7694593,-3453,-1649,-975,-158,-245,-76,299,39,-141
2,7694605,-3453,-1649,-975,-158,-245,-76,299,39,-141
2,7694617,-3455,-1651,-978,-162,-246,-84,299,39,-141
2,7694631,-3455,-1650,-977,-156,-240,-88,299,39,-141
2,7694644,-3455,-1650,-977,-156,-240,-88,299,39,-141
2,7694652,-3457,-1650,-983,-161,-241,-85,299,39,-141
2,7694663,-3457,-1650,-983,-161,-241,-85,299,39,-141
2,7694671,-3456,-1649,-976,-159,-248,-86,302,42,-136
2,7694679,-3456,-1649,-976,-159,-248,-86,302,42,-136
2,7694687,-3456,-1649,-976,-159,-248,-86,302,42,-136
2,7694695,-3456,-1647,-983,-165,-245,-87,302,42,-136
2,7694704,-3456,-1647,-983,-165,-245,-87,302,42,-136
2,7694712,-3451,-1646,-984,-171,-243,-91,302,42,-136
2,7694721,-3451,-1646,-984,-171,-243,-91,302,42,-136
2,7694729,-3449,-1646,-981,-164,-237,-86,302,42,-136
2,7694737,-3449,-1646,-981,-164,-237,-86,302,42,-136
2,7694745,-3449,-1646,-981,-164,-237,-86,302,42,-136
2,7694753,-3451,-1652,-983,-161,-237,-88,302,42,-136
2,7694761,-3451,-1652,-983,-161,-237,-88,302,42,-136
2,7694770,-3456,-1649,-975,-165,-244,-86,302,42,-136
2,7694778,-3456,-1649,-975,-165,-244,-86,302,42,-136
2,7694786,-3456,-1649,-975,-165,-244,-86,302,42,-136
2,7694794,-3455,-1652,-981,-167,-250,-82,309,37,-143
2,7694803,-3455,-1652,-981,-167,-250,-82,309,37,-143
2,7694816,-3454,-1648,-978,-166,-241,-85,309,37,-143
2,7694829,-3453,-1646,-982,-163,-242,-84,309,37,-143
2,7694842,-3453,-1646,-982,-163,-242,-84,309,37,-143
2,7694853,-3451,-1647,-981,-163,-241,-81,309,37,-143
2,7694866,-3451,-1647,-981,-163,-241,-81,309,37,-143
2,7694878,-3450,-1649,-980,-155,-241,-86,309,37,-143
2,7694892,-3450,-1649,-979,-162,-247,-86,309,37,-143
2,7694902,-3450,-1649,-979,-162,-247,-86,309,37,-143
2,7694915,-3451,-1648,-980,-162,-243,-87,306,38,-132
2,7694926,-3451,-1648,-980,-162,-243,-87,306,38,-132
2,7694937,-3456,-1648,-980,-159,-237,-88,306,38,-132
2,7694949,-3455,-1649,-977,-157,-246,-85,306,38,-132
2,7694964,-3455,-1649,-977,-157,-246,-85,306,38,-132
2,7694976,-3454,-1651,-980,-162,-245,-86,306,38,-132
2,7694984,-3454,-1651,-980,-162,-245,-86,306,38,-132
2,7694992,-3453,-1648,-981,-164,-239,-82,306,38,-132
2,7695000,-3453,-1648,-981,-164,-239,-82,306,38,-132
2,7695008,-3449,-1650,-975,-162,-237,-87,306,38,-132
2,7695020,-3449,-1650,-975,-162,-237,-87,306,38,-132
2,7695033,-3450,-1647,-979,-163,-249,-85,305,45,-127
2,7695046,-3450,-1647,-979,-163,-249,-85,305,45,-127
2,7695059,-3455,-1647,-973,-162,-245,-80,305,45,-127
2,7695071,-3456,-1648,-980,-163,-247,-79,305,45,-127
2,7695083,-3456,-1648,-980,-163,-247,-79,305,45,-127
2,7695096,-3454,-1649,-978,-165,-238,-86,305,45,-127
2,7695110,-3455,-1649,-978,-166,-243,-86,305,45,-127
2,7695120,-3455,-1649,-978,-166,-243,-86,305,45,-127
2,7695132,-3449,-1649,-988,-162,-240,-84,305,45,-127
2,7695143,-3449,-1649,-988,-162,-240,-84,305,45,-127
2,7695156,-3451,-1651,-982,-164,-242,-81,305,45,-127
2,7695168,-3453,-1649,-978,-158,-248,-83,308,40,-136
2,7695182,-3453,-1649,-978,-158,-248,-83,308,40,-136
2,7695195,-3453,-1646,-981,-162,-239,-94,308,40,-136
2,7695208,-3453,-1646,-981,-162,-239,-94,308,40,-136
2,7695221,-3453,-1648,-982,-164,-244,-90,308,40,-136
2,7695235,-3452,-1649,-980,-159,-249,-92,308,40,-136
2,7695247,-3452,-1649,-980,-159,-249,-92,308,40,-136
2,7695258,-3455,-1649,-983,-161,-240,-88,308,40,-136
2,7695271,-3457,-1645,-981,-159,-249,-84,308,40,-136
2,7695285,-3457,-1645,-981,-159,-249,-84,308,40,-136
2,7695297,-3451,-1648,-980,-168,-240,-76,316,40,-138
2,7695308,-3450,-1645,-979,-167,-243,-81,316,40,-138
2,7695316,-3450,-1645,-979,-167,-243,-81,316,40,-138
2,7695326,-3450,-1645,-979,-167,-243,-81,316,40,-138
2,7695336,-3452,-1647,-982,-165,-245,-85,316,40,-138
2,7695346,-3452,-1647,-982,-165,-245,-85,316,40,-138
2,7695353,-3453,-1648,-984,-161,-247,-81,316,40,-138
2,7695363,-3453,-1648,-984,-161,-247,-81,316,40,-138
2,7695374,-3459,-1650,-979,-166,-237,-86,316,40,-138
2,7695385,-3459,-1650,-979,-166,-237,-86,316,40,-138
2,7695393,-3461,-1649,-983,-159,-240,-79,316,40,-138
2,7695404,-3461,-1649,-983,-159,-240,-79,316,40,-138
2,7695414,-3454,-1647,-977,-157,-240,-84,302,40,-134
2,7695424,-3454,-1647,-977,-157,-240,-84,302,40,-134
2,7695434,-3448,-1647,-977,-159,-233,-87,302,40,-134
2,7695440,-3448,-1647,-977,-159,-233,-87,302,40,-134
2,7695451,-3450,-1647,-981,-160,-240,-91,302,40,-134
2,7695458,-3450,-1647,-981,-160,-240,-91,302,40,-134
2,7695468,-3450,-1647,-981,-160,-240,-91,302,40,-134
2,7695475,-3450,-1647,-981,-160,-241,-88,302,40,-134
2,7695484,-3450,-1647,-981,-160,-241,-88,302,40,-134
2,7695496,-3454,-1649,-984,-160,-244,-86,302,40,-134
2,7695506,-3454,-1649,-984,-160,-244,-86,302,40,-134
2,7695516,-3454,-1650,-987,-167,-241,-83,302,40,-134
2,7695522,-3454,-1650,-987,-167,-241,-83,302,40,-134
2,7695533,-3453,-1653,-978,-163,-231,-80,303,45,-131
2,7695543,-3453,-1653,-978,-163,-231,-80,303,45,-131
2,7695551,-3453,-1651,-978,-161,-236,-85,303,45,-131
2,7695558,-3453,-1651,-978,-161,-236,-85,303,45,-131
2,7695568,-3453,-1649,-978,-162,-245,-86,303,45,-131
2,7695576,-3453,-1649,-978,-162,-245,-86,303,45,-131
2,7695586,-3453,-1649,-978,-162,-245,-86,303,45,-131
2,7695592,-3454,-1649,-977,-165,-244,-86,303,45,-131
2,7695598,-3454,-1649,-977,-165,-244,-86,303,45,-131
2,7695604,-3454,-1649,-977,-165,-244,-86,303,45,-131
2,7695613,-3449,-1646,-983,-164,-239,-90,303,45,-131
2,7695622,-3449,-1646,-983,-164,-239,-90,303,45,-131
2,7695631,-3450,-1651,-983,-167,-241,-81,303,45,-131
2,7695638,-3450,-1651,-983,-167,-241,-81,303,45,-131
2,7695647,-3450,-1651,-983,-167,-241,-81,303,45,-131
2,7695656,-3454,-1649,-974,-157,-244,-83,301,43,-135
2,7695664,-3454,-1649,-974,-157,-244,-83,301,43,-135
2,7695671,-3455,-1654,-982,-173,-244,-81,301,43,-135
2,7695676,-3455,-1654,-982,-173,-244,-81,301,43,-135
2,7695682,-3455,-1654,-982,-173,-244,-81,301,43,-135
2,7695689,-3455,-1654,-982,-173,-244,-81,301,43,-135
2,7695699,-3455,-1654,-982,-173,-244,-81,301,43,-135
2,7695707,-3455,-1654,-982,-173,-244,-81,301,43,-135
2,7695713,-3455,-1650,-981,-171,-247,-80,301,43,-135
2,7695719,-3455,-1650,-981,-171,-247,-80,301,43,-135
2,7695725,-3455,-1650,-981,-171,-247,-80,301,43,-135
2,7695731,-3453,-1649,-982,-168,-250,-75,301,43,-135
2,7695737,-3453,-1649,-982,-168,-250,-75,301,43,-135
2,7695744,-3453,-1649,-982,-168,-250,-75,301,43,-135
2,7695750,-3455,-1649,-979,-166,-241,-76,301,43,-135
2,7695756,-3455,-1649,-979,-166,-241,-76,301,43,-135
2,7695762,-3455,-1649,-979,-166,-241,-76,301,43,-135
2,7695769,-3453,-1645,-985,-166,-243,-87,301,43,-135
2,7695776,-3453,-1645,-985,-166,-243,-87,301,43,-135
2,7695782,-3453,-1645,-985,-166,-243,-87,301,43,-135
2,7695789,-3455,-1650,-977,-169,-235,-94,301,43,-135
2,7695796,-3455,-1650,-977,-169,-235,-94,298,44,-130
2,7695803,-3455,-1650,-977,-169,-235,-94,298,44,-130
2,7695811,-3455,-1649,-979,-167,-237,-100,298,44,-130
2,7695817,-3455,-1649,-979,-167,-237,-100,298,44,-130
2,7695825,-3455,-1649,-979,-167,-237,-100,298,44,-130
2,7695833,-3457,-1650,-983,-160,-233,-96,298,44,-130
2,7695839,-3457,-1650,-983,-160,-233,-96,298,44,-130
2,7695846,-3457,-1650,-983,-160,-233,-96,298,44,-130
2,7695854,-3456,-1648,-982,-162,-239,-82,298,44,-130
2,7695862,-3456,-1648,-982,-162,-239,-82,298,44,-130
2,7695869,-3451,-1647,-987,-163,-248,-84,298,44,-130
2,7695876,-3451,-1647,-987,-163,-248,-84,298,44,-130
2,7695884,-3451,-1647,-987,-163,-248,-84,298,44,-130
2,7695891,-3453,-1645,-980,-166,-247,-79,298,44,-130
2,7695898,-3453,-1645,-980,-166,-247,-79,298,44,-130
2,7695905,-3453,-1645,-980,-166,-247,-79,298,44,-130
2,7695913,-3452,-1651,-979,-166,-247,-80,309,35,-133
2,7695921,-3452,-1651,-979,-166,-247,-80,309,35,-133
2,7695926,-3452,-1651,-979,-166,-247,-80,309,35,-133
2,7695934,-3456,-1646,-978,-168,-247,-89,309,35,-133
2,7695941,-3456,-1646,-978,-168,-247,-89,309,35,-133
2,7695947,-3456,-1646,-978,-168,-247,-89,309,35,-133
2,7695954,-3457,-1647,-980,-161,-244,-82,309,35,-133
2,7695964,-3457,-1647,-980,-161,-244,-82,309,35,-133
2,7695975,-3459,-1648,-979,-164,-241,-89,309,35,-133
2,7695988,-3459,-1648,-979,-164,-241,-89,309,35,-133
2,7696003,-3455,-1646,-979,-165,-248,-92,309,35,-133
2,7696012,-3455,-1649,-979,-162,-243,-83,309,35,-133
2,7696024,-3455,-1649,-979,-162,-243,-83,309,35,-133
2,7696037,-3452,-1646,-975,-161,-248,-78,310,46,-138
2,7696051,-3449,-1650,-977,-162,-241,-81,310,46,-138
2,7696063,-3449,-1650,-977,-162,-241,-81,310,46,-138
2,7696074,-3451,-1647,-977,-167,-245,-85,310,46,-138
2,7696084,-3451,-1647,-977,-167,-245,-85,310,46,-138
2,7696094,-3456,-1651,-982,-162,-249,-82,310,46,-138
2,7696107,-3456,-1651,-982,-162,-249,-82,310,46,-138
2,7696122,-3459,-1649,-979,-159,-240,-83,310,46,-138
2,7696138,-3460,-1648,-986,-165,-237,-81,310,46,-138
2,7696147,-3460,-1648,-986,-165,-237,-81,310,46,-138
2,7696158,-3457,-1647,-976,-167,-237,-73,306,34,-142
2,7696166,-3457,-1647,-976,-167,-237,-73,306,34,-142
2,7696175,-3454,-1648,-979,-163,-244,-81,306,34,-142
2,7696183,-3454,-1648,-979,-163,-244,-81,306,34,-142
2,7696191,-3451,-1649,-982,-158,-241,-82,306,34,-142
2,7696197,-3451,-1649,-982,-158,-241,-82,306,34,-142
2,7696210,-3454,-1647,-982,-157,-251,-85,306,34,-142
2,7696224,-3454,-1647,-982,-157,-251,-85,306,34,-142
2,7696237,-3455,-1646,-976,-156,-246,-81,306,34,-142
2,7696246,-3455,-1646,-976,-156,-246,-81,306,34,-142
2,7696260,-3457,-1649,-985,-156,-239,-79,306,34,-142
2,7696272,-3461,-1649,-986,-158,-241,-83,306,40,-132
2,7696281,-3461,-1649,-986,-158,-241,-83,306,40,-132
2,7696292,-3457,-1652,-975,-163,-245,-87,306,40,-132
2,7696304,-3457,-1652,-975,-163,-245,-87,306,40,-132
2,7696316,-3452,-1649,-983,-158,-239,-85,306,40,-132
2,7696329,-3453,-1646,-983,-160,-242,-84,306,40,-132
2,7696342,-3453,-1646,-983,-160,-242,-84,306,40,-132
2,7696355,-3451,-1650,-982,-160,-237,-83,306,40,-132
2,7696370,-3451,-1650,-982,-160,-237,-83,306,40,-132
2,7696382,-3451,-1650,-982,-160,-237,-83,306,40,-132
2,7696393,-3459,-1647,-980,-165,-246,-90,306,40,-132
2,7696406,-3459,-1647,-980,-165,-246,-90,306,40,-132
2,7696420,-3457,-1646,-979,-165,-239,-83,308,44,-134
2,7696433,-3457,-1649,-977,-164,-247,-83,308,44,-134
2,7696444,-3457,-1649,-977,-164,-247,-83,308,44,-134
2,7696456,-3454,-1647,-982,-160,-247,-82,308,44,-134
2,7696470,-3457,-1646,-981,-164,-246,-92,308,44,-134
2,7696483,-3457,-1646,-981,-164,-246,-92,308,44,-134
2,7696494,-3453,-1651,-982,-160,-246,-87,308,44,-134
2,7696506,-3453,-1651,-982,-160,-246,-87,308,44,-134
2,7696518,-3453,-1649,-977,-160,-240,-82,308,44,-134
2,7696531,-3458,-1649,-983,-168,-240,-82,304,30,-134
2,7696542,-3458,-1649,-983,-168,-240,-82,304,30,-134
2,7696556,-3455,-1650,-976,-165,-244,-80,304,30,-134
2,7696569,-3455,-1650,-976,-165,-244,-80,304,30,-134
2,7696581,-3456,-1649,-977,-158,-245,-83,304,30,-134
2,7696594,-3455,-1649,-982,-158,-250,-86,304,30,-134
2,7696608,-3455,-1649,-982,-158,-250,-86,304,30,-134
2,7696620,-3456,-1647,-978,-156,-243,-82,304,30,-134
2,7696632,-3450,-1645,-984,-166,-244,-88,304,30,-134
2,7696646,-3450,-1645,-984,-166,-244,-88,304,30,-134
2,7696658,-3446,-1647,-979,-164,-239,-84,310,46,-130
2,7696666,-3446,-1647,-979,-164,-239,-84,310,46,-130
2,7696674,-3454,-1650,-979,-165,-247,-81,310,46,-130
2,7696683,-3454,-1650,-979,-165,-247,-81,310,46,-130
2,7696690,-3455,-1651,-985,-164,-240,-88,310,46,-130
2,7696701,-3455,-1651,-985,-164,-240,-88,310,46,-130
2,7696711,-3457,-1651,-977,-161,-251,-92,310,46,-130
2,7696719,-3457,-1651,-977,-161,-251,-92,310,46,-130
2,7696728,-3457,-1651,-977,-161,-251,-92,310,46,-130
2,7696736,-3454,-1650,-977,-159,-250,-89,310,46,-130
2,7696745,-3454,-1650,-977,-159,-250,-89,310,46,-130
2,7696752,-3457,-1649,-988,-159,-243,-84,310,46,-130
2,7696761,-3457,-1649,-988,-159,-243,-84,310,46,-130
2,7696770,-3456,-1648,-974,-159,-249,-89,310,46,-130
2,7696778,-3456,-1648,-974,-159,-249,-89,313,39,-129
2,7696786,-3456,-1648,-974,-159,-249,-89,313,39,-129
2,7696794,-3456,-1648,-974,-159,-249,-89,313,39,-129
2,7696801,-3456,-1648,-974,-159,-249,-89,313,39,-129
2,7696809,-3456,-1643,-986,-164,-238,-81,313,39,-129
2,7696823,-3456,-1643,-986,-164,-238,-81,313,39,-129
2,7696834,-3458,-1645,-982,-167,-235,-83,313,39,-129
2,7696845,-3458,-1645,-982,-167,-235,-83,313,39,-129
2,7696859,-3457,-1647,-982,-161,-239,-87,313,39,-129
2,7696873,-3455,-1646,-982,-165,-248,-90,313,39,-129
2,7696882,-3455,-1646,-982,-165,-248,-90,313,39,-129
2,7696893,-3457,-1649,-972,-162,-253,-92,309,47,-137
2,7696907,-3457,-1649,-972,-162,-253,-92,309,47,-137
2,7696919,-3456,-1648,-981,-162,-245,-90,309,47,-137
2,7696929,-3451,-1646,-980,-158,-239,-89,309,47,-137
2,7696942,-3451,-1646,-980,-158,-239,-89,309,47,-137
2,7696955,-3451,-1645,-984,-154,-242,-81,309,47,-137
2,7696968,-3451,-1645,-984,-154,-242,-81,309,47,-137
2,7696979,-3456,-1647,-983,-160,-240,-88,309,47,-137
2,7696991,-3460,-1646,-982,-166,-243,-88,309,47,-137
2,7697001,-3460,-1646,-982,-166,-243,-88,309,47,-137
2,7697008,-3460,-1646,-982,-166,-243,-88,309,47,-137
2,7697016,-3457,-1650,-977,-162,-239,-86,309,47,-137
2,7697027,-3457,-1650,-977,-162,-239,-86,309,47,-137
2,7697038,-3455,-1650,-981,-167,-242,-89,303,37,-133
2,7697051,-3455,-1648,-982,-166,-243,-86,303,37,-133
2,7697063,-3455,-1648,-982,-166,-243,-86,303,37,-133
2,7697078,-3453,-1648,-978,-162,-244,-90,303,37,-133
2,7697089,-3453,-1648,-978,-162,-244,-90,303,37,-133
2,7697101,-3457,-1648,-980,-162,-241,-88,303,37,-133
2,7697114,-3455,-1648,-985,-163,-241,-85,303,37,-133
2,7697127,-3455,-1648,-985,-163,-241,-85,303,37,-133
2,7697139,-3453,-1645,-983,-162,-245,-84,303,37,-133
2,7697149,-3453,-1645,-983,-162,-245,-84,303,37,-133
2,7697163,-3458,-1648,-983,-159,-244,-85,308,50,-138
2,7697176,-3454,-1645,-984,-161,-239,-87,308,50,-138
2,7697187,-3454,-1645,-984,-161,-239,-87,308,50,-138
2,7697198,-3460,-1646,-979,-155,-241,-95,308,50,-138
2,7697210,-3456,-1647,-982,-162,-250,-88,308,50,-138
2,7697222,-3456,-1647,-982,-162,-250,-88,308,50,-138
2,7697233,-3451,-1648,-983,-158,-247,-82,308,50,-138
2,7697247,-3451,-1648,-983,-158,-247,-82,308,50,-138
2,7697258,-3455,-1648,-982,-159,-239,-82,308,50,-138
2,7697271,-3455,-1652,-973,-159,-233,-88,302,40,-128
2,7697285,-3455,-1652,-973,-159,-233,-88,302,40,-128
2,7697297,-3459,-1652,-979,-158,-246,-85,302,40,-128
2,7697309,-3459,-1652,-979,-158,-246,-85,302,40,-128
2,7697324,-3457,-1648,-981,-164,-242,-85,302,40,-128
2,7697336,-3455,-1647,-982,-160,-241,-79,302,40,-128
2,7697348,-3455,-1647,-982,-160,-241,-79,302,40,-128
2,7697360,-3453,-1646,-983,-165,-240,-85,302,40,-128
2,7697374,-3451,-1645,-983,-158,-242,-90,302,40,-128
2,7697386,-3451,-1645,-983,-158,-242,-90,302,40,-128
2,7697398,-3457,-1646,-982,-160,-243,-87,307,37,-135
2,7697411,-3457,-1649,-985,-161,-242,-88,307,37,-135
2,7697424,-3457,-1649,-985,-161,-242,-88,307,37,-135
2,7697437,-3457,-1649,-983,-163,-241,-90,307,37,-135
2,7697448,-3457,-1649,-983,-163,-241,-90,307,37,-135
2,7697460,-3457,-1646,-980,-160,-252,-90,307,37,-135
2,7697470,-3457,-1646,-980,-160,-252,-90,307,37,-135
2,7697482,-3455,-1646,-987,-167,-254,-90,307,37,-135
2,7697497,-3454,-1652,-984,-168,-248,-87,307,37,-135
2,7697510,-3452,-1650,-981,-167,-239,-82,307,37,-135
2,7697519,-3452,-1650,-981,-167,-239,-82,305,31,-133
2,7697532,-3456,-1650,-978,-158,-244,-89,305,31,-133
2,7697543,-3456,-1650,-978,-158,-244,-89,305,31,-133
2,7697556,-3456,-1648,-984,-167,-247,-92,305,31,-133
2,7697566,-3456,-1648,-984,-167,-247,-92,305,31,-133
2,7697580,-3457,-1648,-983,-167,-240,-93,305,31,-133
2,7697594,-3460,-1646,-977,-165,-236,-86,305,31,-133
2,7697607,-3460,-1646,-977,-165,-236,-86,305,31,-133
2,7697616,-3456,-1650,-979,-160,-236,-91,305,31,-133
2,7697630,-3453,-1649,-978,-164,-237,-92,305,31,-133
2,7697643,-3453,-1649,-978,-164,-237,-92,305,49,-133
2,7697651,-3455,-1647,-977,-158,-231,-83,305,49,-133
2,7697659,-3455,-1647,-977,-158,-231,-83,305,49,-133
2,7697668,-3455,-1647,-977,-158,-231,-83,305,49,-133
2,7697675,-3456,-1646,-980,-159,-244,-82,305,49,-133
2,7697683,-3456,-1646,-980,-159,-244,-82,305,49,-133
2,7697690,-3456,-1645,-985,-164,-247,-90,305,49,-133
2,7697697,-3456,-1645,-985,-164,-247,-90,305,49,-133
2,7697704,-3456,-1645,-985,-164,-247,-90,305,49,-133
2,7697711,-3458,-1650,-986,-166,-243,-82,305,49,-133
2,7697717,-3458,-1650,-986,-166,-243,-82,305,49,-133
2,7697722,-3458,-1650,-986,-166,-243,-82,305,49,-133
2,7697728,-3458,-1650,-986,-166,-243,-82,305,49,-133
2,7697734,-3460,-1649,-980,-159,-242,-86,305,49,-133
2,7697739,-3460,-1649,-980,-159,-242,-86,305,49,-133
2,7697745,-3460,-1649,-980,-159,-242,-86,305,49,-133
2,7697751,-3455,-1650,-977,-163,-244,-85,305,49,-133
2,7697758,-3455,-1650,-977,-163,-244,-85,305,49,-133
2,7697765,-3455,-1650,-977,-163,-244,-85,305,49,-133
2,7697772,-3452,-1647,-981,-161,-245,-91,306,32,-134
2,7697779,-3452,-1647,-981,-161,-245,-91,306,32,-134
2,7697785,-3452,-1647,-981,-161,-245,-91,306,32,-134
2,7697792,-3456,-1650,-983,-163,-244,-90,306,32,-134
2,7697799,-3456,-1650,-983,-163,-244,-90,306,32,-134
2,7697809,-3456,-1650,-983,-163,-244,-90,306,32,-134
2,7697818,-3448,-1651,-980,-157,-247,-81,306,32,-134
2,7697827,-3448,-1651,-980,-157,-247,-81,306,32,-134
2,7697836,-3454,-1649,-984,-162,-246,-85,306,32,-134
2,7697845,-3454,-1649,-984,-162,-246,-85,306,32,-134
2,7697851,-3452,-1649,-981,-163,-238,-87,306,32,-134
2,7697860,-3452,-1649,-981,-163,-238,-87,306,32,-134
2,7697870,-3452,-1649,-981,-163,-238,-87,306,32,-134
2,7697879,-3457,-1651,-977,-163,-240,-93,306,32,-134
2,7697886,-3457,-1651,-977,-163,-240,-93,306,32,-134
2,7697895,-3456,-1648,-974,-158,-248,-90,310,36,-138
2,7697901,-3456,-1648,-974,-158,-248,-90,310,36,-138
2,7697910,-3455,-1647,-978,-153,-243,-80,310,36,-138
2,7697921,-3455,-1647,-978,-153,-243,-80,310,36,-138
2,7697930,-3457,-1647,-981,-157,-237,-86,310,36,-138
2,7697938,-3457,-1647,-981,-157,-237,-86,310,36,-138
2,7697947,-3457,-1647,-981,-157,-237,-86,310,36,-138
2,7697956,-3452,-1645,-984,-163,-236,-89,310,36,-138
2,7697963,-3452,-1645,-984,-163,-236,-89,310,36,-138
2,7697971,-3453,-1646,-982,-164,-241,-82,310,36,-138
2,7697980,-3453,-1646,-982,-164,-241,-82,310,36,-138
2,7697989,-3453,-1646,-982,-164,-241,-82,310,36,-138
2,7697998,-3456,-1650,-985,-159,-247,-88,310,36,-138
2,7698009,-3456,-1650,-985,-159,-247,-88,310,36,-138
2,7698017,-3456,-1652,-973,-163,-238,-90,302,34,-136
2,7698027,-3456,-1652,-973,-163,-238,-90,302,34,-136
2,7698034,-3459,-1650,-979,-164,-238,-92,302,34,-136
2,7698043,-3459,-1650,-979,-164,-238,-92,302,34,-136
2,7698053,-3455,-1650,-983,-165,-246,-87,302,34,-136
2,7698064,-3455,-1650,-983,-165,-246,-87,302,34,-136
2,7698071,-3456,-1650,-981,-164,-239,-84,302,34,-136
2,7698080,-3456,-1650,-981,-164,-239,-84,302,34,-136
2,7698089,-3456,-1650,-981,-164,-239,-84,302,34,-136
2,7698099,-3452,-1647,-982,-159,-244,-85,302,34,-136
2,7698105,-3452,-1647,-982,-159,-244,-85,302,34,-136
2,7698113,-3449,-1648,-988,-154,-244,-80,302,34,-136
2,7698121,-3449,-1648,-988,-154,-244,-80,302,34,-136
2,7698130,-3449,-1648,-988,-154,-244,-80,302,34,-136
2,7698140,-3452,-1646,-981,-155,-246,-91,313,43,-137
2,7698150,-3452,-1646,-981,-155,-246,-91,313,43,-137
2,7698158,-3452,-1650,-981,-165,-242,-85,313,43,-137
2,7698167,-3452,-1650,-981,-165,-242,-85,313,43,-137
2,7698177,-3458,-1648,-978,-163,-245,-92,313,43,-137
2,7698184,-3458,-1648,-978,-163,-245,-92,313,43,-137
2,7698193,-3457,-1652,-979,-161,-248,-89,313,43,-137
2,7698203,-3457,-1652,-979,-161,-248,-89,313,43,-137
2,7698212,-3458,-1648,-986,-157,-248,-86,313,43,-137
2,7698219,-3458,-1648,-986,-157,-248,-86,313,43,-137
2,7698225,-3458,-1648,-986,-157,-248,-86,313,43,-137
2,7698231,-3452,-1648,-981,-156,-245,-83,313,43,-137
2,7698237,-3452,-1648,-981,-156,-245,-83,313,43,-137
2,7698246,-3452,-1648,-981,-156,-245,-83,313,43,-137
2,7698256,-3452,-1649,-980,-158,-248,-87,305,35,-121
2,7698270,-3452,-1649,-980,-158,-248,-87,305,35,-121
2,7698283,-3451,-1646,-978,-159,-243,-88,305,35,-121
2,7698292,-3454,-1647,-976,-159,-246,-85,305,35,-121
2,7698304,-3454,-1647,-976,-159,-246,-85,305,35,-121
2,7698318,-3455,-1649,-979,-162,-246,-87,305,35,-121
2,7698333,-3456,-1649,-982,-162,-241,-81,305,35,-121
2,7698345,-3456,-1649,-982,-162,-241,-81,305,35,-121
2,7698357,-3454,-1646,-985,-167,-243,-84,305,35,-121
2,7698369,-3454,-1646,-985,-167,-243,-84,305,35,-121
2,7698383,-3458,-1649,-984,-161,-247,-87,305,35,-121
2,7698396,-3450,-1647,-982,-161,-236,-83,306,50,-132
2,7698405,-3450,-1647,-982,-161,-236,-83,306,50,-132
2,7698417,-3452,-1650,-981,-164,-240,-87,306,50,-132
2,7698433,-3457,-1650,-981,-161,-246,-85,306,50,-132
2,7698446,-3457,-1650,-981,-161,-246,-85,306,50,-132
2,7698455,-3458,-1650,-979,-166,-238,-72,306,50,-132
2,7698466,-3458,-1650,-979,-166,-238,-72,306,50,-132
2,7698482,-3456,-1651,-976,-170,-239,-81,306,50,-132
2,7698495,-3454,-1647,-978,-166,-247,-81,306,50,-132
2,7698505,-3454,-1647,-978,-166,-247,-81,306,50,-132
2,7698519,-3454,-1648,-974,-165,-247,-85,306,34,-134
2,7698532,-3450,-1647,-978,-164,-235,-84,306,34,-134
2,7698544,-3450,-1647,-978,-164,-235,-84,306,34,-134
2,7698555,-3450,-1646,-984,-161,-244,-79,306,34,-134
2,7698569,-3450,-1646,-984,-161,-244,-79,306,34,-134
2,7698582,-3455,-1647,-985,-160,-241,-85,306,34,-134
2,7698594,-3458,-1649,-979,-158,-253,-86,306,34,-134
2,7698605,-3458,-1649,-979,-158,-253,-86,306,34,-134
2,7698616,-3460,-1649,-977,-159,-244,-82,306,34,-134
2,7698625,-3460,-1649,-977,-159,-244,-82,306,34,-134
2,7698636,-3455,-1648,-978,-163,-241,-82,306,48,-130
2,7698652,-3454,-1651,-980,-154,-238,-83,306,48,-130
2,7698664,-3454,-1651,-980,-154,-238,-83,306,48,-130
2,7698672,-3451,-1647,-975,-163,-245,-80,306,48,-130
2,7698680,-3451,-1647,-975,-163,-245,-80,306,48,-130
2,7698689,-3451,-1647,-975,-163,-245,-80,306,48,-130
2,7698697,-3452,-1647,-981,-165,-245,-85,306,48,-130
2,7698707,-3452,-1647,-981,-165,-245,-85,306,48,-130
2,7698715,-3455,-1646,-983,-162,-240,-85,306,48,-130
2,7698723,-3455,-1646,-983,-162,-240,-85,306,48,-130
2,7698732,-3451,-1648,-976,-156,-249,-84,306,48,-130
2,7698740,-3451,-1648,-976,-156,-249,-84,306,48,-130
2,7698748,-3451,-1648,-976,-156,-249,-84,306,48,-130
2,7698756,-3456,-1648,-980,-159,-253,-84,305,39,-137
2,7698764,-3456,-1648,-980,-159,-253,-84,305,39,-137
2,7698772,-3456,-1651,-980,-166,-243,-84,305,39,-137
2,7698781,-3456,-1651,-980,-166,-243,-84,305,39,-137
2,7698789,-3456,-1651,-980,-166,-243,-84,305,39,-137
2,7698797,-3457,-1651,-978,-166,-246,-87,305,39,-137
2,7698805,-3457,-1651,-978,-166,-246,-87,305,39,-137
2,7698814,-3459,-1648,-980,-161,-250,-89,305,39,-137
2,7698825,-3459,-1648,-980,-161,-250,-89,305,39,-137
2,7698835,-3452,-1650,-981,-158,-246,-85,305,39,-137
2,7698843,-3452,-1650,-981,-158,-246,-85,305,39,-137
2,7698853,-3448,-1648,-980,-162,-242,-82,305,39,-137
2,7698863,-3448,-1648,-980,-162,-242,-82,305,39,-137
2,7698873,-3452,-1648,-980,-165,-241,-85,308,46,-126
2,7698884,-3452,-1648,-980,-165,-241,-85,308,46,-126
2,7698892,-3456,-1652,-977,-161,-244,-84,308,46,-126
2,7698900,-3456,-1652,-977,-161,-244,-84,308,46,-126
2,7698909,-3456,-1652,-977,-161,-244,-84,308,46,-126
2,7698918,-3458,-1648,-982,-162,-243,-87,308,46,-126
2,7698929,-3458,-1648,-982,-162,-243,-87,308,46,-126
2,7698937,-3454,-1649,-978,-158,-245,-82,308,46,-126
2,7698947,-3454,-1649,-978,-158,-245,-82,308,46,-126
2,7698955,-3456,-1648,-980,-162,-244,-80,308,46,-126
2,7698967,-3456,-1648,-980,-162,-244,-80,308,46,-126
2,7698978,-3448,-1644,-983,-169,-242,-82,308,46,-126
2,7698991,-3448,-1644,-983,-169,-242,-82,308,46,-126
2,7699004,-3450,-1648,-984,-164,-243,-88,308,46,-126
2,7699018,-3457,-1649,-978,-162,-242,-85,302,36,-132
2,7699030,-3457,-1649,-978,-162,-242,-85,302,36,-132
2,7699042,-3456,-1650,-979,-166,-238,-81,302,36,-132
2,7699055,-3457,-1652,-983,-163,-239,-77,302,36,-132
2,7699067,-3457,-1652,-983,-163,-239,-77,302,36,-132
2,7699078,-3452,-1647,-979,-161,-241,-89,302,36,-132
2,7699088,-3452,-1647,-979,-161,-241,-89,302,36,-132
2,7699100,-3455,-1647,-982,-166,-242,-83,302,36,-132
2,7699113,-3452,-1647,-984,-169,-246,-85,302,36,-132
2,7699126,-3452,-1647,-984,-169,-246,-85,302,36,-132
2,7699140,-3456,-1647,-980,-167,-241,-83,298,42,-130
2,7699151,-3455,-1649,-979,-165,-243,-84,298,42,-130
2,7699165,-3455,-1649,-979,-165,-243,-84,298,42,-130
2,7699178,-3455,-1649,-980,-157,-241,-86,298,42,-130
2,7699191,-3455,-1649,-980,-157,-241,-86,298,42,-130
2,7699202,-3455,-1650,-981,-160,-242,-86,298,42,-130
2,7699215,-3456,-1652,-980,-161,-244,-83,298,42,-130
2,7699227,-3456,-1652,-980,-161,-244,-83,298,42,-130
2,7699239,-3453,-1647,-983,-163,-238,-84,298,42,-130
2,7699252,-3451,-1651,-973,-163,-233,-83,314,40,-126
2,7699265,-3451,-1651,-973,-163,-233,-83,314,40,-126
2,7699273,-3454,-1649,-981,-172,-242,-83,314,40,-126
2,7699287,-3454,-1649,-981,-172,-242,-83,314,40,-126
2,7699297,-3452,-1647,-979,-168,-244,-87,314,40,-126
2,7699308,-3452,-1647,-979,-168,-244,-87,314,40,-126
2,7699321,-3455,-1647,-979,-160,-241,-82,314,40,-126
2,7699335,-3460,-1652,-983,-158,-247,-87,314,40,-126
2,7699347,-3460,-1652,-983,-158,-247,-87,314,40,-126
2,7699359,-3456,-1649,-984,-162,-248,-93,314,40,-126
2,7699368,-3456,-1649,-984,-162,-248,-93,314,40,-126
2,7699378,-3454,-1650,-976,-169,-246,-84,315,43,-139
2,7699390,-3454,-1650,-976,-169,-246,-84,315,43,-139
2,7699405,-3456,-1649,-978,-166,-244,-80,315,43,-139
2,7699417,-3456,-1648,-979,-159,-232,-85,315,43,-139
2,7699427,-3456,-1648,-979,-159,-232,-85,315,43,-139
2,7699440,-3452,-1650,-982,-160,-243,-84,315,43,-139
2,7699452,-3454,-1648,-985,-160,-250,-86,315,43,-139
2,7699466,-3454,-1648,-985,-160,-250,-86,315,43,-139
2,7699476,-3454,-1647,-981,-156,-248,-89,315,43,-139
2,7699484,-3454,-1647,-981,-156,-248,-89,315,43,-139
2,7699493,-3456,-1648,-977,-163,-243,-84,308,38,-132
2,7699501,-3456,-1648,-977,-163,-243,-84,308,38,-132
2,7699510,-3456,-1648,-977,-163,-243,-84,308,38,-132
2,7699516,-3456,-1648,-977,-163,-243,-84,308,38,-132
2,7699526,-3456,-1648,-977,-163,-243,-84,308,38,-132
2,7699537,-3458,-1651,-979,-163,-235,-84,308,38,-132
2,7699552,-3455,-1650,-983,-167,-248,-90,308,38,-132
2,7699565,-3455,-1650,-983,-167,-248,-90,308,38,-132
2,7699576,-3455,-1648,-984,-169,-246,-89,308,38,-132
2,7699588,-3455,-1648,-984,-169,-246,-89,308,38,-132
2,7699597,-3456,-1648,-979,-163,-245,-82,308,38,-132
2,7699610,-3456,-1648,-979,-163,-245,-82,308,38,-132
2,7699624,-3456,-1647,-980,-166,-240,-85,308,38,-132
2,7699640,-3453,-1645,-978,-163,-243,-87,306,32,-132
2,7699648,-3453,-1645,-978,-163,-243,-87,306,32,-132
2,7699661,-3456,-1646,-982,-168,-241,-87,306,32,-132
2,7699668,-3456,-1646,-982,-168,-241,-87,306,32,-132
2,7699677,-3452,-1648,-986,-166,-241,-80,306,32,-132
2,7699685,-3452,-1648,-986,-166,-241,-80,306,32,-132
2,7699693,-3452,-1645,-984,-165,-238,-81,306,32,-132
2,7699704,-3452,-1645,-984,-165,-238,-81,306,32,-132
2,7699713,-3452,-1645,-984,-165,-238,-81,306,32,-132
2,7699721,-3452,-1645,-984,-165,-238,-81,306,32,-132
2,7699730,-3452,-1645,-984,-165,-238,-81,306,32,-132
2,7699737,-3455,-1648,-984,-164,-243,-78,306,32,-132
2,7699746,-3455,-1648,-984,-164,-243,-78,306,32,-132
2,7699755,-3454,-1652,-979,-167,-247,-88,311,41,-133
2,7699763,-3454,-1652,-979,-167,-247,-88,311,41,-133
2,7699770,-3454,-1652,-979,-167,-247,-88,311,41,-133
2,7699779,-3454,-1650,-978,-160,-237,-88,311,41,-133
2,7699786,-3454,-1650,-978,-160,-237,-88,311,41,-133
2,7699794,-3458,-1648,-981,-160,-244,-88,311,41,-133
2,7699805,-3458,-1648,-981,-160,-244,-88,311,41,-133
2,7699813,-3453,-1648,-980,-161,-243,-82,311,41,-133
2,7699826,-3453,-1648,-980,-161,-243,-82,311,41,-133
2,7699841,-3454,-1645,-976,-155,-243,-92,311,41,-133
2,7699855,-3452,-1647,-979,-165,-249,-91,311,41,-133
2,7699863,-3452,-1647,-979,-165,-249,-91,311,41,-133
2,7699876,-3453,-1646,-973,-165,-248,-84,307,39,-131
2,7699890,-3453,-1646,-973,-165,-248,-84,307,39,-131
2,7699904,-3456,-1648,-984,-169,-241,-84,307,39,-131
2,7699913,-3456,-1650,-981,-164,-241,-80,307,39,-131
2,7699926,-3456,-1650,-981,-164,-241,-80,307,39,-131
2,7699939,-3456,-1650,-983,-161,-240,-80,307,39,-131
2,7699948,-3456,-1650,-983,-161,-240,-80,307,39,-131
2,7699960,-3458,-1648,-982,-166,-243,-89,307,39,-131
2,7699972,-3458,-1648,-982,-166,-243,-89,307,39,-131
2,7699983,-3454,-1650,-978,-163,-243,-88,307,39,-131
2,7699995,-3455,-1648,-978,-159,-245,-84,307,39,-135
2,7700008,-3455,-1648,-978,-159,-245,-84,307,39,-135
2,7700018,-3453,-1646,-974,-164,-242,-93,307,39,-135
2,7700029,-3453,-1646,-974,-164,-242,-93,307,39,-135
2,7700040,-3456,-1648,-978,-167,-236,-84,307,39,-135
2,7700054,-3454,-1650,-979,-162,-243,-79,307,39,-135
2,7700067,-3454,-1650,-979,-162,-243,-79,307,39,-135
2,7700079,-3454,-1650,-979,-162,-243,-79,307,39,-135
2,7700091,-3454,-1650,-979,-162,-243,-79,307,39,-135
2,7700101,-3456,-1646,-983,-165,-240,-83,307,39,-135
2,7700114,-3457,-1649,-975,-168,-243,-87,307,41,-131
2,7700126,-3457,-1649,-975,-168,-243,-87,307,41,-131
2,7700136,-3456,-1650,-980,-161,-249,-87,307,41,-131
2,7700148,-3456,-1650,-980,-161,-249,-87,307,41,-131
2,7700160,-3452,-1652,-986,-166,-238,-91,307,41,-131
2,7700172,-3453,-1649,-978,-162,-237,-92,307,41,-131
2,7700182,-3453,-1649,-978,-162,-237,-92,307,41,-131
2,7700195,-3455,-1648,-980,-158,-242,-85,307,41,-131
2,7700207,-3455,-1648,-980,-158,-242,-85,307,41,-131
2,7700215,-3457,-1648,-983,-158,-244,-86,307,41,-131
2,7700229,-3457,-1648,-983,-158,-244,-86,307,41,-131
2,7700239,-3458,-1650,-980,-156,-248,-95,305,37,-129
2,7700252,-3458,-1650,-980,-156,-248,-95,305,37,-129
2,7700263,-3453,-1643,-978,-161,-246,-85,305,37,-129
2,7700278,-3453,-1647,-973,-170,-236,-80,305,37,-129
2,7700287,-3453,-1647,-973,-170,-236,-80,305,37,-129
2,7700297,-3451,-1648,-980,-164,-240,-82,305,37,-129
2,7700310,-3451,-1648,-980,-164,-240,-82,305,37,-129
2,7700320,-3455,-1649,-980,-161,-239,-78,305,37,-129
2,7700332,-3455,-1649,-980,-161,-239,-78,305,37,-129
2,7700345,-3456,-1650,-978,-158,-236,-80,305,37,-129
2,7700358,-3457,-1651,-980,-162,-243,-82,305,37,-129
2,7700370,-3457,-1651,-980,-162,-243,-82,305,37,-129
2,7700382,-3456,-1648,-975,-159,-243,-87,308,36,-126
2,7700396,-3453,-1648,-985,-167,-245,-77,308,36,-126
2,7700408,-3453,-1648,-985,-167,-245,-77,308,36,-126
2,7700417,-3452,-1648,-976,-168,-246,-79,308,36,-126
2,7700429,-3452,-1648,-976,-168,-246,-79,308,36,-126
2,7700443,-3458,-1647,-978,-164,-250,-80,308,36,-126
2,7700455,-3449,-1650,-979,-161,-246,-83,308,36,-126
2,7700465,-3449,-1650,-979,-161,-246,-83,308,36,-126
2,7700475,-3456,-1650,-984,-158,-246,-83,308,36,-126
2,7700485,-3456,-1650,-984,-158,-246,-83,308,36,-126
2,7700496,-3455,-1648,-970,-159,-244,-82,308,40,-138
2,7700511,-3455,-1648,-970,-159,-244,-82,308,40,-138
2,7700525,-3458,-1648,-977,-161,-251,-83,308,40,-138
2,7700533,-3457,-1647,-981,-158,-250,-89,308,40,-138
2,7700545,-3457,-1647,-981,-158,-250,-89,308,40,-138
2,7700558,-3454,-1648,-980,-163,-245,-86,308,40,-138
2,7700572,-3454,-1648,-980,-163,-245,-86,308,40,-138
2,7700583,-3449,-1650,-976,-169,-246,-88,308,40,-138
2,7700593,-3453,-1648,-980,-167,-246,-92,308,40,-138
2,7700602,-3453,-1648,-980,-167,-246,-92,308,40,-138
2,7700610,-3453,-1648,-980,-167,-246,-92,308,40,-138
2,7700618,-3455,-1649,-980,-168,-253,-82,303,35,-137
2,7700630,-3455,-1649,-980,-168,-253,-82,303,35,-137
2,7700641,-3456,-1649,-980,-163,-245,-77,303,35,-137
2,7700655,-3456,-1649,-979,-160,-244,-89,303,35,-137
2,7700666,-3456,-1649,-979,-160,-244,-89,303,35,-137
2,7700674,-3455,-1647,-981,-167,-237,-92,303,35,-137
2,7700682,-3455,-1647,-981,-167,-237,-92,303,35,-137
2,7700689,-3455,-1647,-981,-167,-237,-92,303,35,-137
2,7700700,-3452,-1652,-981,-156,-246,-83,303,35,-137
2,7700711,-3452,-1652,-981,-156,-246,-83,303,35,-137
2,7700719,-3454,-1647,-981,-163,-244,-81,303,35,-137
2,7700727,-3454,-1647,-981,-163,-244,-81,303,35,-137
2,7700736,-3453,-1645,-977,-166,-249,-80,311,39,-137
2,7700744,-3453,-1645,-977,-166,-249,-80,311,39,-137
2,7700752,-3453,-1645,-977,-166,-249,-80,311,39,-137
2,7700760,-3451,-1650,-981,-164,-251,-84,311,39,-137
2,7700768,-3451,-1650,-981,-164,-251,-84,311,39,-137
2,7700776,-3452,-1648,-978,-161,-242,-89,311,39,-137
2,7700785,-3452,-1648,-978,-161,-242,-89,311,39,-137
2,7700792,-3452,-1648,-978,-161,-242,-89,311,39,-137
2,7700801,-3455,-1646,-979,-166,-246,-87,311,39,-137
2,7700810,-3455,-1646,-979,-166,-246,-87,311,39,-137
2,7700818,-3458,-1649,-981,-163,-247,-81,311,39,-137
2,7700828,-3458,-1649,-981,-163,-247,-81,311,39,-137
2,7700837,-3455,-1649,-982,-166,-238,-79,311,39,-137
2,7700850,-3455,-1649,-982,-166,-238,-79,311,39,-137
2,7700864,-3452,-1649,-976,-164,-244,-90,307,45,-129
2,7700877,-3450,-1648,-981,-163,-246,-92,307,45,-129
2,7700889,-3450,-1648,-981,-163,-246,-92,307,45,-129
2,7700900,-3454,-1651,-980,-164,-244,-86,307,45,-129
2,7700913,-3454,-1651,-980,-164,-244,-86,307,45,-129
2,7700925,-3454,-1648,-981,-161,-236,-87,307,45,-129
2,7700938,-3455,-1651,-979,-160,-239,-84,307,45,-129
2,7700948,-3455,-1651,-979,-160,-239,-84,307,45,-129
2,7700962,-3454,-1647,-977,-157,-242,-80,307,45,-129
2,7700972,-3454,-1647,-977,-157,-242,-80,307,45,-129
2,7700983,-3452,-1650,-979,-163,-242,-84,307,45,-129
2,7700997,-3454,-1646,-976,-163,-247,-83,303,39,-135
2,7701011,-3454,-1646,-976,-163,-247,-83,303,39,-135
2,7701020,-3451,-1646,-978,-164,-240,-93,303,39,-135
2,7701031,-3451,-1646,-978,-164,-240,-93,303,39,-135
2,7701048,-3451,-1647,-982,-160,-239,-83,303,39,-135
2,7701061,-3455,-1652,-986,-163,-240,-87,303,39,-135
2,7701070,-3455,-1652,-986,-163,-240,-87,303,39,-135
2,7701083,-3456,-1651,-985,-163,-242,-83,303,39,-135
2,7701096,-3454,-1648,-983,-166,-243,-82,303,39,-135
2,7701109,-3454,-1648,-983,-166,-243,-82,303,39,-135
2,7701118,-3456,-1648,-974,-166,-240,-79,301,31,-131
2,7701132,-3456,-1648,-974,-166,-240,-79,301,31,-131
2,7701144,-3453,-1643,-976,-164,-239,-79,301,31,-131
2,7701157,-3454,-1647,-979,-162,-240,-81,301,31,-131
2,7701168,-3454,-1647,-979,-162,-240,-81,301,31,-131
2,7701181,-3449,-1649,-983,-171,-238,-79,301,31,-131
2,7701193,-3449,-1649,-983,-171,-238,-79,301,31,-131
2,7701202,-3452,-1647,-983,-169,-243,-82,301,31,-131
2,7701215,-3453,-1647,-975,-157,-242,-89,301,31,-131
2,7701229,-3453,-1647,-975,-157,-242,-89,301,31,-131
2,7701237,-3457,-1648,-980,-157,-238,-74,306,38,-130
2,7701250,-3457,-1648,-980,-157,-238,-74,306,38,-130
2,7701264,-3455,-1649,-981,-159,-240,-81,306,38,-130
2,7701277,-3455,-1652,-977,-167,-240,-83,306,38,-130
2,7701286,-3455,-1652,-977,-167,-240,-83,306,38,-130
2,7701298,-3452,-1648,-988,-165,-242,-92,306,38,-130
2,7701306,-3452,-1648,-988,-165,-242,-92,306,38,-130
2,7701314,-3448,-1645,-979,-161,-237,-86,306,38,-130
2,7701322,-3448,-1645,-979,-161,-237,-86,306,38,-130
2,7701332,-3448,-1645,-979,-161,-237,-86,306,38,-130
2,7701345,-3452,-1650,-978,-159,-235,-83,306,38,-130
2,7701355,-3454,-1649,-979,-161,-243,-79,312,40,-134
2,7701364,-3454,-1649,-979,-161,-243,-79,312,40,-134
2,7701374,-3455,-1650,-984,-158,-241,-79,312,40,-134
2,7701385,-3455,-1650,-984,-158,-241,-79,312,40,-134
2,7701397,-3458,-1649,-983,-164,-241,-76,312,40,-134
2,7701406,-3458,-1649,-983,-164,-241,-76,312,40,-134
2,7701419,-3456,-1649,-986,-162,-248,-79,312,40,-134
2,7701433,-3456,-1649,-986,-162,-248,-79,312,40,-134
2,7701446,-3455,-1649,-985,-159,-246,-74,312,40,-134
2,7701454,-3451,-1645,-982,-160,-245,-86,312,40,-134
2,7701468,-3451,-1645,-982,-160,-245,-86,312,40,-134
2,7701476,-3452,-1650,-982,-166,-247,-87,307,35,-133
2,7701488,-3452,-1650,-982,-166,-247,-87,307,35,-133
2,7701501,-3451,-1650,-983,-159,-251,-83,307,35,-133
2,7701516,-3453,-1651,-975,-158,-245,-84,307,35,-133
2,7701525,-3453,-1651,-975,-158,-245,-84,307,35,-133
2,7701538,-3455,-1650,-978,-162,-239,-89,307,35,-133
2,7701552,-3455,-1650,-978,-162,-239,-89,307,35,-133
2,7701560,-3456,-1647,-981,-163,-236,-90,307,35,-133
2,7701568,-3456,-1647,-981,-163,-236,-90,307,35,-133
2,7701576,-3452,-1649,-977,-160,-240,-87,307,35,-133
2,7701585,-3452,-1649,-977,-160,-240,-87,307,35,-133
2,7701598,-3450,-1647,-975,-159,-239,-86,307,35,-133
2,7701612,-3450,-1647,-975,-159,-239,-86,307,35,-133
2,7701622,-3449,-1651,-975,-158,-235,-88,304,32,-130
2,7701635,-3452,-1650,-983,-162,-237,-85,304,32,-130
2,7701645,-3452,-1650,-983,-162,-237,-85,304,32,-130
2,7701658,-3455,-1648,-983,-168,-241,-84,304,32,-130
2,7701666,-3455,-1648,-983,-168,-241,-84,304,32,-130
2,7701675,-3456,-1650,-987,-167,-238,-82,304,32,-130
2,7701682,-3456,-1650,-987,-167,-238,-82,304,32,-130
2,7701690,-3456,-1650,-987,-167,-238,-82,304,32,-130
2,7701703,-3456,-1647,-980,-167,-242,-82,304,32,-130
2,7701712,-3456,-1647,-980,-167,-242,-82,304,32,-130
2,7701721,-3453,-1646,-976,-163,-252,-78,304,32,-130
2,7701729,-3453,-1646,-976,-163,-252,-78,304,32,-130
2,7701737,-3453,-1650,-973,-158,-249,-85,306,42,-134
2,7701743,-3453,-1650,-973,-158,-249,-85,306,42,-134
2,7701751,-3453,-1650,-973,-158,-249,-85,306,42,-134
2,7701760,-3451,-1647,-971,-165,-245,-82,306,42,-134
2,7701767,-3451,-1647,-971,-165,-245,-82,306,42,-134
2,7701776,-3452,-1649,-978,-166,-242,-82,306,42,-134
2,7701783,-3452,-1649,-978,-166,-242,-82,306,42,-134
2,7701791,-3452,-1649,-978,-166,-242,-82,306,42,-134
2,7701799,-3452,-1650,-978,-169,-242,-87,306,42,-134
2,7701813,-3452,-1650,-978,-169,-242,-87,306,42,-134
2,7701823,-3454,-1650,-986,-168,-236,-90,306,42,-134
2,7701836,-3456,-1651,-986,-163,-241,-89,306,42,-134
2,7701847,-3456,-1651,-986,-163,-241,-89,306,42,-134
2,7701859,-3455,-1647,-977,-165,-245,-90,307,45,-125
2,7701871,-3455,-1647,-977,-165,-245,-90,307,45,-125
2,7701885,-3453,-1650,-981,-167,-248,-90,307,45,-125
2,7701896,-3452,-1648,-980,-167,-251,-90,307,45,-125
2,7701906,-3452,-1648,-980,-167,-251,-90,307,45,-125
2,7701918,-3454,-1647,-982,-166,-246,-89,307,45,-125
2,7701934,-3454,-1647,-982,-166,-246,-89,307,45,-125
2,7701947,-3455,-1651,-986,-158,-242,-82,307,45,-125
2,7701956,-3454,-1646,-981,-150,-249,-84,307,45,-125
2,7701968,-3454,-1646,-981,-150,-249,-84,307,45,-125
2,7701983,-3455,-1647,-978,-157,-246,-84,305,41,-125
2,7701994,-3453,-1650,-980,-158,-241,-91,305,41,-125
2,7702006,-3453,-1650,-980,-158,-241,-91,305,41,-125
2,7702019,-3456,-1646,-980,-160,-244,-85,305,41,-125
2,7702032,-3456,-1646,-980,-160,-244,-85,305,41,-125
2,7702041,-3453,-1649,-981,-157,-242,-81,305,41,-125
2,7702053,-3453,-1649,-981,-157,-242,-81,305,41,-125
2,7702065,-3452,-1644,-981,-165,-243,-82,305,41,-125
2,7702077,-3455,-1648,-979,-167,-236,-87,305,41,-125
2,7702088,-3455,-1648,-979,-167,-236,-87,305,41,-125
2,7702104,-3451,-1649,-977,-169,-237,-85,306,42,-136
2,7702113,-3451,-1649,-977,-169,-237,-85,306,42,-136
2,7702123,-3452,-1647,-976,-166,-239,-80,306,42,-136
2,7702135,-3455,-1650,-977,-162,-242,-77,306,42,-136
2,7702149,-3455,-1650,-977,-162,-242,-77,306,42,-136
2,7702163,-3455,-1646,-980,-160,-248,-82,306,42,-136
2,7702174,-3455,-1646,-980,-160,-248,-82,306,42,-136
2,7702187,-3454,-1645,-980,-159,-245,-81,306,42,-136
2,7702201,-3450,-1648,-980,-161,-244,-90,306,42,-136
2,7702213,-3450,-1648,-980,-161,-244,-90,306,42,-136
2,7702224,-3455,-1647,-982,-164,-245,-91,306,42,-136
2,7702233,-3455,-1647,-982,-164,-245,-91,306,42,-136
2,7702242,-3455,-1648,-972,-161,-244,-82,307,39,-127
2,7702250,-3455,-1648,-972,-161,-244,-82,307,39,-127
2,7702258,-3455,-1647,-981,-157,-240,-76,307,39,-127
2,7702269,-3455,-1647,-981,-157,-240,-76,307,39,-127
2,7702279,-3457,-1646,-981,-157,-239,-83,307,39,-127
2,7702290,-3457,-1646,-981,-157,-239,-83,307,39,-127
2,7702305,-3452,-1649,-979,-161,-242,-86,307,39,-127
2,7702320,-3455,-1646,-979,-167,-241,-81,307,39,-127
2,7702329,-3455,-1646,-979,-167,-241,-81,307,39,-127
2,7702340,-3452,-1647,-982,-169,-240,-82,307,39,-127
2,7702351,-3452,-1647,-982,-169,-240,-82,307,39,-127
2,7702364,-3453,-1648,-980,-159,-241,-86,292,38,-132
2,7702378,-3452,-1651,-981,-163,-234,-82,292,38,-132
2,7702390,-3452,-1651,-981,-163,-234,-82,292,38,-132
2,7702403,-3452,-1646,-980,-164,-239,-82,292,38,-132
2,7702416,-3456,-1649,-981,-160,-238,-83,292,38,-132
2,7702428,-3456,-1649,-981,-160,-238,-83,292,38,-132
2,7702441,-3455,-1649,-979,-162,-233,-82,292,38,-132
2,7702455,-3455,-1649,-979,-162,-233,-82,292,38,-132
2,7702468,-3454,-1649,-981,-172,-238,-88,292,38,-132
2,7702481,-3451,-1646,-976,-172,-230,-92,301,37,-135
2,7702493,-3451,-1646,-976,-172,-230,-92,301,37,-135
2,7702503,-3448,-1651,-979,-164,-236,-87,301,37,-135
2,7702513,-3448,-1651,-979,-164,-236,-87,301,37,-135
2,7702523,-3453,-1648,-984,-165,-249,-89,301,37,-135
2,7702537,-3453,-1644,-980,-165,-244,-81,301,37,-135
2,7702550,-3453,-1644,-980,-165,-244,-81,301,37,-135
2,7702560,-3455,-1647,-981,-165,-243,-90,301,37,-135
2,7702572,-3455,-1647,-981,-165,-243,-90,301,37,-135
2,7702582,-3453,-1647,-982,-161,-242,-88,301,37,-135
2,7702592,-3453,-1647,-982,-161,-242,-88,301,37,-135
2,7702605,-3454,-1647,-980,-161,-242,-85,317,41,-139
2,7702618,-3452,-1648,-973,-161,-245,-79,317,41,-139
2,7702630,-3452,-1648,-973,-161,-245,-79,317,41,-139
2,7702644,-3452,-1646,-983,-160,-241,-86,317,41,-139
2,7702657,-3455,-1649,-985,-162,-249,-88,317,41,-139
2,7702667,-3455,-1649,-985,-162,-249,-88,317,41,-139
2,7702674,-3455,-1649,-985,-162,-249,-88,317,41,-139
2,7702682,-3451,-1650,-981,-156,-239,-85,317,41,-139
2,7702690,-3451,-1650,-981,-156,-239,-85,317,41,-139
2,7702703,-3452,-1650,-983,-161,-233,-84,317,41,-139
2,7702712,-3452,-1650,-983,-161,-233,-84,317,41,-139
2,7702719,-3456,-1651,-974,-164,-243,-80,305,43,-139
2,7702728,-3456,-1651,-974,-164,-243,-80,305,43,-139
2,7702735,-3453,-1645,-978,-164,-242,-81,305,43,-139
2,7702745,-3453,-1645,-978,-164,-242,-81,305,43,-139
2,7702753,-3453,-1645,-978,-164,-242,-81,305,43,-139
2,7702761,-3455,-1644,-984,-160,-240,-85,305,43,-139
2,7702768,-3455,-1644,-984,-160,-240,-85,305,43,-139
2,7702776,-3453,-1649,-984,-157,-230,-80,305,43,-139
2,7702785,-3453,-1649,-984,-157,-230,-80,305,43,-139
2,7702793,-3453,-1649,-984,-157,-230,-80,305,43,-139
2,7702802,-3454,-1648,-981,-165,-233,-89,305,43,-139
2,7702812,-3454,-1648,-981,-165,-233,-89,305,43,-139
2,7702820,-3454,-1649,-982,-168,-239,-91,305,43,-139
2,7702830,-3454,-1649,-982,-168,-239,-91,305,43,-139
2,7702839,-3453,-1651,-981,-162,-247,-92,305,43,-139
2,7702848,-3453,-1651,-981,-162,-247,-92,305,43,-139
2,7702857,-3455,-1654,-977,-165,-241,-85,305,43,-139
2,7702871,-3455,-1654,-977,-165,-241,-85,305,43,-139
2,7702880,-3454,-1647,-981,-157,-239,-84,305,43,-139
2,7702892,-3454,-1647,-981,-157,-239,-84,305,43,-139
2,7702905,-3452,-1646,-978,-163,-244,-85,305,43,-139
2,7702920,-3452,-1647,-984,-168,-252,-81,305,43,-139
2,7702929,-3452,-1647,-984,-168,-252,-81,305,43,-139
2,7702940,-3451,-1649,-984,-164,-242,-88,305,43,-139
2,7702953,-3451,-1649,-984,-164,-242,-88,305,43,-139
2,7702967,-3454,-1647,-983,-170,-238,-87,305,43,-139
2,7702978,-3456,-1648,-979,-166,-242,-95,304,36,-128
2,7702989,-3456,-1648,-979,-166,-242,-95,304,36,-128
2,7702999,-3459,-1650,-978,-162,-242,-86,304,36,-128
2,7703007,-3459,-1650,-978,-162,-242,-86,304,36,-128
2,7703015,-3459,-1650,-978,-162,-242,-86,304,36,-128
2,7703022,-3453,-1648,-977,-168,-249,-91,304,36,-128
2,7703035,-3455,-1650,-981,-164,-248,-87,304,36,-128
2,7703046,-3455,-1650,-981,-164,-248,-87,304,36,-128
2,7703059,-3451,-1648,-984,-163,-243,-87,304,36,-128
2,7703071,-3451,-1648,-984,-163,-243,-87,304,36,-128
2,7703085,-3450,-1648,-984,-168,-242,-84,304,36,-128
2,7703096,-3451,-1646,-976,-165,-238,-79,311,37,-131
2,7703108,-3451,-1646,-976,-165,-238,-79,311,37,-131
2,7703122,-3454,-1648,-981,-164,-238,-83,311,37,-131
2,7703134,-3454,-1648,-981,-164,-238,-83,311,37,-131
2,7703145,-3457,-1649,-979,-161,-237,-80,311,37,-131
2,7703159,-3460,-1649,-977,-168,-247,-87,311,37,-131
2,7703173,-3460,-1649,-977,-168,-247,-87,311,37,-131
2,7703186,-3455,-1648,-982,-169,-236,-88,311,37,-131
2,7703196,-3451,-1648,-978,-164,-236,-91,311,37,-131
2,7703209,-3451,-1648,-978,-164,-236,-91,311,37,-131
2,7703222,-3453,-1645,-975,-164,-239,-92,308,38,-136
2,7703234,-3453,-1645,-975,-164,-239,-92,308,38,-136
2,7703246,-3451,-1651,-980,-165,-244,-87,308,38,-136
2,7703261,-3456,-1652,-983,-166,-243,-84,308,38,-136
2,7703273,-3456,-1652,-983,-166,-243,-84,308,38,-136
2,7703285,-3455,-1649,-987,-165,-240,-87,308,38,-136
2,7703294,-3455,-1649,-987,-165,-240,-87,308,38,-136
2,7703309,-3456,-1650,-984,-163,-247,-85,308,38,-136
2,7703320,-3454,-1645,-979,-168,-250,-82,308,38,-136
2,7703332,-3454,-1645,-979,-168,-250,-82,308,38,-136
2,7703345,-3452,-1649,-984,-161,-244,-86,301,37,-135
2,7703359,-3451,-1649,-977,-163,-248,-80,301,37,-135
2,7703366,-3451,-1649,-977,-163,-248,-80,301,37,-135
2,7703377,-3453,-1648,-978,-161,-241,-88,301,37,-135
2,7703387,-3453,-1648,-978,-161,-241,-88,301,37,-135
2,7703397,-3454,-1647,-983,-165,-238,-88,301,37,-135
2,7703409,-3454,-1647,-983,-165,-238,-88,301,37,-135
2,7703416,-3456,-1649,-978,-164,-239,-95,301,37,-135
2,7703428,-3456,-1649,-978,-164,-239,-95,301,37,-135
2,7703437,-3456,-1649,-979,-158,-244,-90,301,37,-135
2,7703445,-3456,-1649,-979,-158,-244,-90,301,37,-135
2,7703455,-3456,-1649,-979,-158,-244,-90,301,37,-135
2,7703462,-3455,-1648,-978,-162,-244,-82,309,39,-131
2,7703474,-3455,-1648,-978,-162,-244,-82,309,39,-131
2,7703483,-3455,-1644,-980,-161,-241,-78,309,39,-131
2,7703491,-3455,-1644,-980,-161,-241,-78,309,39,-131
2,7703501,-3453,-1648,-979,-157,-231,-88,309,39,-131
2,7703512,-3453,-1648,-979,-157,-231,-88,309,39,-131
2,7703520,-3453,-1647,-981,-162,-238,-76,309,39,-131
2,7703528,-3453,-1647,-981,-162,-238,-76,309,39,-131
2,7703537,-3453,-1646,-979,-168,-247,-82,309,39,-131
2,7703545,-3453,-1646,-979,-168,-247,-82,309,39,-131
2,7703557,-3457,-1645,-986,-159,-246,-86,309,39,-131
2,7703566,-3457,-1645,-986,-159,-246,-86,309,39,-131
2,7703576,-3457,-1647,-982,-167,-245,-80,309,39,-131
2,7703584,-3457,-1647,-982,-167,-245,-80,309,39,-131
2,7703593,-3457,-1647,-982,-167,-245,-80,309,39,-131
2,7703601,-3458,-1650,-982,-162,-244,-88,314,36,-138
2,7703610,-3458,-1650,-982,-162,-244,-88,314,36,-138
2,7703621,-3454,-1646,-978,-166,-240,-83,314,36,-138
2,7703630,-3454,-1646,-978,-166,-240,-83,314,36,-138
2,7703640,-3451,-1648,-975,-168,-247,-81,314,36,-138
2,7703648,-3451,-1648,-975,-168,-247,-81,314,36,-138
2,7703656,-3449,-1647,-974,-161,-245,-81,314,36,-138
2,7703664,-3449,-1647,-974,-161,-245,-81,314,36,-138
2,7703670,-3449,-1647,-974,-161,-245,-81,314,36,-138
2,7703676,-3450,-1644,-982,-162,-244,-82,314,36,-138
2,7703683,-3450,-1644,-982,-162,-244,-82,314,36,-138
2,7703689,-3450,-1644,-982,-162,-244,-82,314,36,-138
2,7703696,-3450,-1646,-980,-166,-239,-84,314,36,-138
2,7703703,-3450,-1646,-980,-166,-239,-84,314,36,-138
2,7703710,-3450,-1646,-980,-166,-239,-84,314,36,-138
2,7703715,-3450,-1646,-980,-166,-239,-84,314,36,-138
2,7703720,-3451,-1646,-982,-163,-242,-84,310,38,-130
2,7703726,-3451,-1646,-982,-163,-242,-84,310,38,-130
2,7703732,-3451,-1646,-982,-163,-242,-84,310,38,-130
2,7703737,-3455,-1647,-979,-162,-244,-85,310,38,-130
2,7703742,-3455,-1647,-979,-162,-244,-85,310,38,-130
2,7703748,-3455,-1647,-979,-162,-244,-85,310,38,-130
2,7703755,-3458,-1642,-981,-161,-242,-81,310,38,-130
2,7703762,-3458,-1642,-981,-161,-242,-81,310,38,-130
2,7703770,-3458,-1642,-981,-161,-242,-81,310,38,-130
