imu,time,ax,ay,az,gx,gy,gz,mx,my,mz
2,7067122,-3453,-1650,-980,-164,-235,-79,306,46,-126
2,7067126,-3453,-1650,-980,-164,-235,-79,306,46,-126
2,7067132,-3453,-1650,-980,-164,-235,-79,306,46,-126
2,7067138,-3458,-1651,-981,-170,-233,-88,306,46,-126
2,7067142,-3458,-1651,-981,-170,-233,-88,306,46,-126
2,7067147,-3458,-1651,-981,-170,-233,-88,306,46,-126
2,7067153,-3458,-1651,-981,-170,-233,-88,306,46,-126
2,7067158,-3454,-1649,-977,-174,-243,-79,306,46,-126
2,7067163,-3454,-1649,-977,-174,-243,-79,306,46,-126
2,7067168,-3454,-1649,-977,-174,-243,-79,306,46,-126
2,7067173,-3454,-1649,-977,-174,-243,-79,306,46,-126
2,7067179,-3453,-1650,-974,-168,-241,-77,305,39,-133
2,7067184,-3453,-1650,-974,-168,-241,-77,305,39,-133
2,7067189,-3453,-1650,-974,-168,-241,-77,305,39,-133
2,7067195,-3452,-1649,-975,-163,-239,-82,305,39,-133
2,7067200,-3452,-1649,-975,-163,-239,-82,305,39,-133
2,7067205,-3452,-1649,-975,-163,-239,-82,305,39,-133
2,7067211,-3452,-1649,-975,-163,-239,-82,305,39,-133
2,7067216,-3452,-1647,-981,-161,-236,-83,305,39,-133
2,7067224,-3452,-1647,-981,-161,-236,-83,305,39,-133
2,7067231,-3452,-1647,-981,-161,-236,-83,305,39,-133
2,7067236,-3453,-1646,-981,-153,-240,-86,305,39,-133
2,7067244,-3453,-1646,-981,-153,-240,-86,305,39,-133
2,7067251,-3453,-1646,-981,-153,-240,-86,305,39,-133
2,7067259,-3453,-1652,-976,-157,-240,-88,305,39,-133
2,7067268,-3453,-1652,-976,-157,-240,-88,305,39,-133
2,7067277,-3454,-1648,-978,-156,-248,-91,305,39,-133
2,7067284,-3454,-1648,-978,-156,-248,-91,305,39,-133
2,7067292,-3454,-1648,-978,-156,-248,-91,305,39,-133
2,7067299,-3450,-1650,-977,-159,-247,-85,307,41,-129
2,7067307,-3450,-1650,-977,-159,-247,-85,307,41,-129
2,7067314,-3450,-1650,-977,-159,-247,-85,307,41,-129
2,7067320,-3455,-1652,-980,-161,-239,-85,307,41,-129
2,7067328,-3455,-1652,-980,-161,-239,-85,307,41,-129
2,7067335,-3450,-1650,-979,-160,-246,-86,307,41,-129
2,7067343,-3450,-1650,-979,-160,-246,-86,307,41,-129
2,7067351,-3450,-1650,-979,-160,-246,-86,307,41,-129
2,7067355,-3450,-1645,-975,-159,-248,-86,307,41,-129
2,7067362,-3450,-1645,-975,-159,-248,-86,307,41,-129
2,7067368,-3450,-1645,-975,-159,-248,-86,307,41,-129
2,7067375,-3453,-1646,-979,-162,-239,-84,307,41,-129
2,7067383,-3453,-1646,-979,-162,-239,-84,307,41,-129
2,7067390,-3453,-1646,-979,-162,-239,-84,307,41,-129
2,7067398,-3454,-1649,-983,-159,-238,-88,307,41,-129
2,7067404,-3454,-1649,-983,-159,-238,-88,307,41,-129
2,7067409,-3454,-1649,-983,-159,-238,-88,307,41,-129
2,7067414,-3454,-1649,-983,-159,-238,-88,307,41,-129
2,7067419,-3450,-1648,-977,-160,-240,-91,305,41,-133
2,7067425,-3450,-1648,-977,-160,-240,-91,305,41,-133
2,7067430,-3450,-1648,-977,-160,-240,-91,305,41,-133
2,7067436,-3455,-1648,-977,-160,-245,-81,305,41,-133
2,7067441,-3455,-1648,-977,-160,-245,-81,305,41,-133
2,7067446,-3455,-1648,-977,-160,-245,-81,305,41,-133
2,7067453,-3455,-1648,-977,-160,-245,-81,305,41,-133
2,7067460,-3451,-1649,-977,-162,-239,-76,305,41,-133
2,7067469,-3451,-1649,-977,-162,-239,-76,305,41,-133
2,7067478,-3455,-1648,-986,-166,-244,-80,305,41,-133
2,7067486,-3455,-1648,-986,-166,-244,-80,305,41,-133
2,7067493,-3455,-1648,-986,-166,-244,-80,305,41,-133
2,7067501,-3448,-1651,-973,-161,-250,-82,305,41,-133
2,7067508,-3448,-1651,-973,-161,-250,-82,305,41,-133
2,7067514,-3448,-1651,-973,-161,-250,-82,305,41,-133
2,7067521,-3452,-1650,-983,-162,-243,-89,305,41,-133
2,7067529,-3452,-1650,-983,-162,-243,-89,305,41,-133
2,7067536,-3454,-1652,-980,-163,-242,-89,299,41,-127
2,7067543,-3454,-1652,-980,-163,-242,-89,299,41,-127
2,7067551,-3454,-1652,-980,-163,-242,-89,299,41,-127
2,7067556,-3456,-1648,-979,-162,-246,-89,299,41,-127
2,7067561,-3456,-1648,-979,-162,-246,-89,299,41,-127
2,7067567,-3456,-1648,-979,-162,-246,-89,299,41,-127
2,7067572,-3456,-1648,-979,-162,-246,-89,299,41,-127
2,7067579,-3455,-1649,-982,-165,-245,-86,299,41,-127
2,7067585,-3455,-1649,-982,-165,-245,-86,299,41,-127
2,7067593,-3455,-1649,-982,-165,-245,-86,299,41,-127
2,7067600,-3449,-1649,-983,-160,-239,-88,299,41,-127
2,7067607,-3449,-1649,-983,-160,-239,-88,299,41,-127
2,7067615,-3450,-1648,-982,-162,-238,-84,299,41,-127
2,7067623,-3450,-1648,-982,-162,-238,-84,299,41,-127
2,7067627,-3450,-1648,-982,-162,-238,-84,299,41,-127
2,7067632,-3450,-1648,-982,-162,-238,-84,299,41,-127
2,7067637,-3448,-1650,-981,-162,-245,-82,299,41,-127
2,7067642,-3448,-1650,-981,-162,-245,-82,299,41,-127
2,7067648,-3448,-1650,-981,-162,-245,-82,299,41,-127
2,7067656,-3454,-1649,-979,-158,-241,-87,299,41,-127
2,7067663,-3454,-1649,-979,-158,-241,-87,299,41,-127
2,7067669,-3454,-1649,-979,-158,-241,-87,299,41,-127
2,7067678,-3454,-1649,-979,-158,-241,-87,307,39,-129
2,7067684,-3454,-1649,-979,-158,-241,-87,307,39,-129
2,7067692,-3454,-1649,-979,-158,-241,-87,307,39,-129
2,7067700,-3455,-1649,-977,-166,-238,-82,307,39,-129
2,7067707,-3455,-1649,-977,-166,-238,-82,307,39,-129
2,7067713,-3455,-1649,-977,-166,-238,-82,307,39,-129
2,7067720,-3455,-1649,-984,-163,-242,-90,307,39,-129
2,7067729,-3455,-1649,-984,-163,-242,-90,307,39,-129
2,7067737,-3453,-1648,-980,-161,-244,-85,307,39,-129
2,7067746,-3453,-1648,-980,-161,-244,-85,307,39,-129
2,7067753,-3453,-1648,-980,-161,-244,-85,307,39,-129
2,7067760,-3453,-1646,-980,-165,-240,-89,307,39,-129
2,7067767,-3453,-1646,-980,-165,-240,-89,307,39,-129
2,7067774,-3453,-1649,-981,-158,-238,-79,307,39,-129
2,7067782,-3453,-1649,-981,-158,-238,-79,307,39,-129
2,7067789,-3453,-1649,-981,-158,-238,-79,307,39,-129
2,7067796,-3453,-1649,-980,-161,-236,-80,305,37,-133
2,7067802,-3453,-1649,-980,-161,-236,-80,305,37,-133
2,7067809,-3453,-1649,-980,-161,-236,-80,305,37,-133
2,7067816,-3453,-1651,-981,-162,-246,-77,305,37,-133
2,7067825,-3453,-1651,-981,-162,-246,-77,305,37,-133
2,7067831,-3453,-1651,-981,-162,-246,-77,305,37,-133
2,7067843,-3451,-1651,-985,-168,-245,-86,305,37,-133
2,7067855,-3454,-1649,-982,-165,-242,-88,305,37,-133
2,7067869,-3454,-1649,-982,-165,-242,-88,305,37,-133
2,7067882,-3453,-1649,-979,-158,-242,-86,305,37,-133
2,7067895,-3453,-1649,-981,-163,-240,-84,305,37,-133
2,7067908,-3453,-1649,-981,-163,-240,-84,305,37,-133
2,7067918,-3452,-1646,-973,-167,-251,-72,306,40,-128
2,7067926,-3452,-1646,-973,-167,-251,-72,306,40,-128
2,7067938,-3454,-1649,-978,-162,-245,-75,306,40,-128
2,7067952,-3454,-1649,-978,-162,-245,-75,306,40,-128
2,7067965,-3456,-1647,-977,-165,-242,-73,306,40,-128
2,7067975,-3457,-1651,-981,-161,-243,-82,306,40,-128
2,7067987,-3457,-1651,-981,-161,-243,-82,306,40,-128
2,7068003,-3456,-1647,-981,-164,-253,-88,306,40,-128
2,7068017,-3451,-1648,-978,-167,-248,-86,306,40,-128
2,7068026,-3451,-1648,-978,-167,-248,-86,306,40,-128
2,7068039,-3451,-1647,-977,-162,-247,-84,306,44,-134
2,7068053,-3451,-1647,-977,-162,-247,-84,306,44,-134
2,7068066,-3453,-1648,-974,-167,-247,-88,306,44,-134
2,7068077,-3451,-1651,-978,-160,-239,-87,306,44,-134
2,7068089,-3451,-1651,-978,-160,-239,-87,306,44,-134
2,7068102,-3458,-1650,-979,-161,-243,-85,306,44,-134
2,7068112,-3458,-1650,-979,-161,-243,-85,306,44,-134
2,7068121,-3459,-1649,-977,-164,-245,-84,306,44,-134
2,7068129,-3459,-1649,-977,-164,-245,-84,306,44,-134
2,7068139,-3456,-1649,-980,-169,-240,-95,306,44,-134
2,7068147,-3456,-1649,-980,-169,-240,-95,306,44,-134
2,7068155,-3456,-1648,-974,-168,-240,-82,306,44,-134
2,7068164,-3456,-1648,-974,-168,-240,-82,309,33,-129
2,7068176,-3453,-1649,-978,-163,-240,-84,309,33,-129
2,7068184,-3453,-1649,-978,-163,-240,-84,309,33,-129
2,7068192,-3453,-1649,-978,-163,-240,-84,309,33,-129
2,7068201,-3451,-1648,-982,-158,-245,-86,309,33,-129
2,7068210,-3451,-1648,-982,-158,-245,-86,309,33,-129
2,7068219,-3451,-1649,-985,-157,-241,-81,309,33,-129
2,7068227,-3451,-1649,-985,-157,-241,-81,309,33,-129
2,7068236,-3451,-1649,-979,-160,-242,-84,309,33,-129
2,7068244,-3451,-1649,-979,-160,-242,-84,309,33,-129
2,7068252,-3451,-1649,-979,-160,-242,-84,309,33,-129
2,7068260,-3454,-1648,-977,-158,-241,-82,309,33,-129
2,7068269,-3454,-1648,-977,-158,-241,-82,309,33,-129
2,7068278,-3453,-1653,-980,-163,-239,-79,309,33,-129
2,7068286,-3453,-1653,-980,-163,-239,-79,309,33,-129
2,7068295,-3453,-1653,-980,-163,-239,-79,309,33,-129
2,7068304,-3457,-1648,-975,-165,-239,-84,300,32,-132
2,7068315,-3457,-1648,-975,-165,-239,-84,300,32,-132
2,7068324,-3456,-1650,-980,-160,-244,-82,300,32,-132
2,7068335,-3456,-1650,-980,-160,-244,-82,300,32,-132
2,7068343,-3452,-1652,-985,-167,-247,-84,300,32,-132
2,7068352,-3452,-1652,-985,-167,-247,-84,300,32,-132
2,7068361,-3452,-1650,-978,-164,-245,-85,300,32,-132
2,7068370,-3452,-1650,-978,-164,-245,-85,300,32,-132
2,7068380,-3449,-1647,-977,-162,-238,-81,300,32,-132
2,7068391,-3449,-1647,-977,-162,-238,-81,300,32,-132
2,7068401,-3453,-1648,-977,-158,-245,-85,300,32,-132
2,7068409,-3453,-1648,-977,-158,-245,-85,300,32,-132
2,7068417,-3453,-1648,-983,-158,-239,-81,312,38,-136
2,7068425,-3453,-1648,-983,-158,-239,-81,312,38,-136
2,7068433,-3453,-1648,-983,-158,-239,-81,312,38,-136
2,7068441,-3456,-1650,-979,-160,-254,-86,312,38,-136
2,7068448,-3456,-1650,-979,-160,-254,-86,312,38,-136
2,7068456,-3456,-1650,-974,-164,-249,-82,312,38,-136
2,7068465,-3456,-1650,-974,-164,-249,-82,312,38,-136
2,7068473,-3456,-1650,-974,-164,-249,-82,312,38,-136
2,7068480,-3455,-1647,-978,-160,-246,-83,312,38,-136
2,7068488,-3455,-1647,-978,-160,-246,-83,312,38,-136
2,7068495,-3455,-1651,-982,-158,-244,-91,312,38,-136
2,7068504,-3455,-1651,-982,-158,-244,-91,312,38,-136
2,7068512,-3455,-1651,-982,-158,-244,-91,312,38,-136
2,7068520,-3452,-1648,-979,-161,-250,-96,312,38,-136
2,7068529,-3452,-1648,-979,-161,-250,-96,312,38,-136
2,7068538,-3456,-1649,-979,-162,-245,-86,308,36,-132
2,7068549,-3456,-1649,-979,-162,-245,-86,308,36,-132
2,7068558,-3457,-1645,-976,-162,-235,-83,308,36,-132
2,7068567,-3457,-1645,-976,-162,-235,-83,308,36,-132
2,7068577,-3454,-1648,-980,-159,-234,-83,308,36,-132
2,7068585,-3454,-1648,-980,-159,-234,-83,308,36,-132
2,7068596,-3454,-1648,-980,-159,-234,-83,308,36,-132
2,7068604,-3456,-1649,-979,-163,-239,-81,308,36,-132
2,7068612,-3456,-1649,-979,-163,-239,-81,308,36,-132
2,7068623,-3453,-1649,-979,-154,-236,-81,308,36,-132
2,7068632,-3453,-1649,-979,-154,-236,-81,308,36,-132
2,7068640,-3451,-1650,-981,-155,-240,-81,308,36,-132
2,7068648,-3451,-1650,-981,-155,-240,-81,308,36,-132
2,7068657,-3454,-1647,-974,-166,-240,-86,307,47,-129
2,7068670,-3454,-1647,-974,-166,-240,-86,307,47,-129
2,7068680,-3451,-1649,-977,-166,-238,-81,307,47,-129
2,7068692,-3451,-1649,-977,-166,-238,-81,307,47,-129
2,7068706,-3455,-1648,-980,-159,-239,-86,307,47,-129
2,7068721,-3456,-1649,-980,-152,-242,-81,307,47,-129
2,7068730,-3456,-1649,-980,-152,-242,-81,307,47,-129
2,7068743,-3456,-1651,-979,-163,-241,-79,307,47,-129
2,7068756,-3456,-1648,-980,-167,-239,-84,307,47,-129
2,7068770,-3456,-1648,-980,-167,-239,-84,307,47,-129
2,7068780,-3459,-1648,-978,-162,-243,-86,303,41,-131
2,7068793,-3459,-1648,-978,-162,-243,-86,303,41,-131
2,7068806,-3454,-1646,-975,-159,-240,-80,303,41,-131
2,7068819,-3449,-1647,-981,-163,-246,-86,303,41,-131
2,7068828,-3449,-1647,-981,-163,-246,-86,303,41,-131
2,7068841,-3453,-1647,-977,-165,-244,-87,303,41,-131
2,7068849,-3453,-1647,-977,-165,-244,-87,303,41,-131
2,7068856,-3453,-1647,-977,-165,-244,-87,303,41,-131
2,7068864,-3453,-1650,-977,-159,-242,-79,303,41,-131
2,7068870,-3453,-1650,-977,-159,-242,-79,303,41,-131
2,7068876,-3462,-1650,-978,-162,-239,-75,303,41,-131
2,7068883,-3462,-1650,-978,-162,-239,-75,303,41,-131
2,7068891,-3462,-1650,-978,-162,-239,-75,303,41,-131
2,7068899,-3460,-1650,-982,-154,-242,-83,303,41,-131
2,7068906,-3460,-1650,-982,-154,-242,-83,303,41,-131
2,7068911,-3460,-1650,-982,-154,-242,-83,303,41,-131
2,7068919,-3456,-1648,-979,-161,-242,-83,307,35,-135
2,7068928,-3456,-1648,-979,-161,-242,-83,307,35,-135
2,7068934,-3456,-1648,-979,-161,-242,-83,307,35,-135
2,7068942,-3454,-1646,-979,-164,-241,-83,307,35,-135
2,7068949,-3454,-1646,-979,-164,-241,-83,307,35,-135
2,7068956,-3454,-1646,-979,-164,-241,-83,307,35,-135
2,7068961,-3450,-1644,-978,-168,-235,-79,307,35,-135
2,7068969,-3450,-1644,-978,-168,-235,-79,307,35,-135
2,7068978,-3452,-1647,-978,-159,-241,-83,307,35,-135
2,7068986,-3452,-1647,-978,-159,-241,-83,307,35,-135
2,7068995,-3452,-1647,-978,-159,-241,-83,307,35,-135
2,7069002,-3457,-1647,-980,-155,-241,-85,307,35,-135
2,7069009,-3457,-1647,-980,-155,-241,-85,307,35,-135
2,7069017,-3458,-1650,-981,-158,-245,-87,307,35,-135
2,7069024,-3458,-1650,-981,-158,-245,-87,307,35,-135
2,7069029,-3458,-1650,-981,-158,-245,-87,307,35,-135
2,7069037,-3455,-1649,-975,-166,-236,-90,307,41,-137
2,7069045,-3455,-1649,-975,-166,-236,-90,307,41,-137
2,7069052,-3455,-1649,-975,-166,-236,-90,307,41,-137
2,7069059,-3453,-1651,-976,-153,-245,-93,307,41,-137
2,7069064,-3453,-1651,-976,-153,-245,-93,307,41,-137
2,7069072,-3453,-1651,-976,-153,-245,-93,307,41,-137
2,7069079,-3458,-1651,-981,-156,-246,-97,307,41,-137
2,7069086,-3458,-1651,-981,-156,-246,-97,307,41,-137
2,7069094,-3458,-1651,-981,-156,-246,-97,307,41,-137
2,7069102,-3452,-1651,-977,-156,-243,-88,307,41,-137
2,7069109,-3452,-1651,-977,-156,-243,-88,307,41,-137
2,7069116,-3456,-1649,-973,-155,-243,-82,307,41,-137
2,7069123,-3456,-1649,-973,-155,-243,-82,307,41,-137
2,7069129,-3456,-1649,-973,-155,-243,-82,307,41,-137
2,7069136,-3456,-1649,-979,-161,-242,-85,307,41,-137
2,7069144,-3456,-1649,-979,-161,-242,-85,307,41,-137
2,7069149,-3456,-1649,-979,-161,-242,-85,307,41,-137
2,7069157,-3454,-1644,-973,-163,-242,-85,303,33,-129
2,7069163,-3454,-1644,-973,-163,-242,-85,303,33,-129
2,7069170,-3454,-1644,-973,-163,-242,-85,303,33,-129
2,7069177,-3456,-1650,-980,-160,-242,-81,303,33,-129
2,7069186,-3456,-1650,-980,-160,-242,-81,303,33,-129
2,7069193,-3456,-1650,-980,-160,-242,-81,303,33,-129
2,7069201,-3454,-1649,-976,-159,-247,-86,303,33,-129
2,7069207,-3454,-1649,-976,-159,-247,-86,303,33,-129
2,7069215,-3454,-1649,-976,-159,-247,-86,303,33,-129
2,7069222,-3453,-1647,-978,-163,-234,-84,303,33,-129
2,7069229,-3453,-1647,-978,-163,-234,-84,303,33,-129
2,7069235,-3453,-1647,-978,-163,-234,-84,303,33,-129
2,7069242,-3454,-1650,-975,-166,-243,-83,303,33,-129
2,7069248,-3454,-1650,-975,-166,-243,-83,303,33,-129
2,7069253,-3454,-1650,-975,-166,-243,-83,303,33,-129
2,7069258,-3451,-1650,-979,-159,-238,-88,303,33,-129
2,7069263,-3451,-1650,-979,-159,-238,-88,303,33,-129
2,7069271,-3451,-1650,-979,-159,-238,-88,303,33,-129
2,7069278,-3457,-1650,-978,-164,-237,-90,304,38,-132
2,7069285,-3457,-1650,-978,-164,-237,-90,304,38,-132
2,7069292,-3457,-1650,-978,-164,-237,-90,304,38,-132
2,7069297,-3458,-1650,-975,-161,-244,-92,304,38,-132
2,7069305,-3458,-1650,-975,-161,-244,-92,304,38,-132
2,7069313,-3458,-1650,-975,-161,-244,-92,304,38,-132
2,7069321,-3458,-1650,-975,-162,-241,-85,304,38,-132
2,7069328,-3458,-1650,-975,-162,-241,-85,304,38,-132
2,7069335,-3458,-1650,-975,-162,-241,-85,304,38,-132
2,7069343,-3456,-1648,-983,-167,-250,-87,304,38,-132
2,7069349,-3456,-1648,-983,-167,-250,-87,304,38,-132
2,7069357,-3453,-1651,-979,-156,-246,-87,304,38,-132
2,7069365,-3453,-1651,-979,-156,-246,-87,304,38,-132
2,7069371,-3453,-1651,-979,-156,-246,-87,304,38,-132
2,7069378,-3453,-1649,-977,-159,-245,-87,304,38,-132
2,7069385,-3453,-1649,-977,-159,-245,-87,304,38,-132
2,7069390,-3453,-1649,-977,-159,-245,-87,304,38,-132
2,7069398,-3451,-1646,-985,-163,-234,-86,308,42,-126
2,7069405,-3451,-1646,-985,-163,-234,-86,308,42,-126
2,7069410,-3451,-1646,-985,-163,-234,-86,308,42,-126
2,7069415,-3451,-1646,-985,-163,-234,-86,308,42,-126
2,7069420,-3452,-1648,-977,-159,-241,-81,308,42,-126
2,7069426,-3452,-1648,-977,-159,-241,-81,308,42,-126
2,7069431,-3452,-1648,-977,-159,-241,-81,308,42,-126
2,7069436,-3453,-1651,-979,-157,-241,-83,308,42,-126
2,7069443,-3453,-1651,-979,-157,-241,-83,308,42,-126
2,7069450,-3453,-1651,-979,-157,-241,-83,308,42,-126
2,7069457,-3453,-1649,-977,-161,-249,-85,308,42,-126
2,7069463,-3453,-1649,-977,-161,-249,-85,308,42,-126
2,7069470,-3453,-1649,-977,-161,-249,-85,308,42,-126
2,7069478,-3455,-1648,-982,-169,-248,-84,308,42,-126
2,7069486,-3455,-1648,-982,-169,-248,-84,308,42,-126
2,7069492,-3455,-1648,-982,-169,-248,-84,308,42,-126
2,7069499,-3457,-1649,-982,-168,-245,-84,308,42,-126
2,7069506,-3457,-1649,-982,-168,-245,-84,308,42,-126
2,7069513,-3457,-1649,-982,-168,-245,-84,308,42,-126
2,7069522,-3455,-1650,-973,-155,-238,-80,308,42,-126
2,7069529,-3455,-1650,-973,-155,-238,-80,308,42,-126
2,7069534,-3455,-1650,-973,-155,-238,-80,308,42,-126
2,7069541,-3451,-1647,-975,-164,-244,-87,314,36,-132
2,7069548,-3451,-1647,-975,-164,-244,-87,314,36,-132
2,7069556,-3451,-1647,-975,-164,-244,-87,314,36,-132
2,7069563,-3451,-1648,-978,-173,-241,-86,314,36,-132
2,7069572,-3451,-1648,-978,-173,-241,-86,314,36,-132
2,7069580,-3453,-1648,-976,-161,-234,-88,314,36,-132
2,7069586,-3453,-1648,-976,-161,-234,-88,314,36,-132
2,7069593,-3453,-1648,-976,-161,-234,-88,314,36,-132
2,7069600,-3457,-1651,-983,-162,-231,-84,314,36,-132
2,7069607,-3457,-1651,-983,-162,-231,-84,314,36,-132
2,7069615,-3457,-1651,-983,-162,-231,-84,314,36,-132
2,7069623,-3456,-1650,-985,-160,-242,-80,314,36,-132
2,7069628,-3456,-1650,-985,-160,-242,-80,314,36,-132
2,7069633,-3456,-1650,-985,-160,-242,-80,314,36,-132
2,7069638,-3452,-1648,-980,-161,-239,-79,314,36,-132
2,7069643,-3452,-1648,-980,-161,-239,-79,314,36,-132
2,7069649,-3452,-1648,-980,-161,-239,-79,314,36,-132
2,7069655,-3452,-1648,-980,-161,-239,-79,314,36,-132
2,7069662,-3455,-1652,-977,-158,-245,-84,307,35,-133
2,7069670,-3455,-1652,-977,-158,-245,-84,307,35,-133
2,7069676,-3455,-1652,-977,-158,-245,-84,307,35,-133
2,7069682,-3453,-1651,-979,-160,-242,-90,307,35,-133
2,7069689,-3453,-1651,-979,-160,-242,-90,307,35,-133
2,7069698,-3452,-1651,-975,-164,-241,-90,307,35,-133
2,7069705,-3452,-1651,-975,-164,-241,-90,307,35,-133
2,7069712,-3452,-1651,-975,-164,-241,-90,307,35,-133
2,7069719,-3456,-1647,-981,-166,-238,-91,307,35,-133
2,7069726,-3456,-1647,-981,-166,-238,-91,307,35,-133
2,7069732,-3456,-1647,-981,-166,-238,-91,307,35,-133
2,7069741,-3453,-1648,-983,-167,-235,-86,307,35,-133
2,7069748,-3453,-1648,-983,-167,-235,-86,307,35,-133
2,7069755,-3453,-1648,-983,-167,-235,-86,307,35,-133
2,7069762,-3454,-1650,-980,-163,-248,-81,307,35,-133
2,7069766,-3454,-1650,-980,-163,-248,-81,307,35,-133
2,7069774,-3454,-1650,-980,-163,-248,-81,307,35,-133
2,7069782,-3453,-1651,-976,-162,-243,-82,306,36,-132
2,7069790,-3453,-1651,-976,-162,-243,-82,306,36,-132
2,7069798,-3451,-1648,-980,-167,-250,-84,306,36,-132
2,7069805,-3451,-1648,-980,-167,-250,-84,306,36,-132
2,7069812,-3451,-1648,-980,-167,-250,-84,306,36,-132
2,7069819,-3456,-1651,-980,-163,-246,-84,306,36,-132
2,7069828,-3456,-1651,-980,-163,-246,-84,306,36,-132
2,7069833,-3456,-1651,-980,-163,-246,-84,306,36,-132
2,7069841,-3458,-1649,-981,-163,-237,-74,306,36,-132
2,7069853,-3458,-1649,-981,-163,-237,-74,306,36,-132
2,7069861,-3453,-1646,-978,-157,-247,-77,306,36,-132
2,7069871,-3453,-1646,-978,-157,-247,-77,306,36,-132
2,7069878,-3454,-1647,-973,-164,-243,-81,306,36,-132
2,7069887,-3454,-1647,-973,-164,-243,-81,306,36,-132
2,7069895,-3454,-1647,-973,-164,-243,-81,306,36,-132
2,7069907,-3461,-1651,-978,-163,-244,-87,305,33,-131
2,7069920,-3460,-1648,-982,-172,-244,-90,305,33,-131
2,7069933,-3460,-1648,-982,-172,-244,-90,305,33,-131
2,7069945,-3452,-1648,-977,-168,-243,-86,305,33,-131
2,7069960,-3452,-1647,-978,-162,-243,-84,305,33,-131
2,7069971,-3452,-1647,-978,-162,-243,-84,305,33,-131
2,7069984,-3451,-1646,-975,-156,-242,-86,305,33,-131
2,7069999,-3454,-1648,-982,-166,-238,-85,305,33,-131
2,7070010,-3454,-1648,-982,-166,-238,-85,305,33,-131
2,7070023,-3458,-1651,-982,-167,-239,-88,308,38,-136
2,7070034,-3458,-1651,-982,-167,-239,-88,308,38,-136
2,7070050,-3456,-1652,-979,-158,-237,-83,308,38,-136
2,7070062,-3460,-1648,-982,-162,-239,-85,308,38,-136
2,7070075,-3460,-1648,-982,-162,-239,-85,308,38,-136
2,7070088,-3458,-1648,-981,-156,-237,-95,308,38,-136
2,7070101,-3456,-1652,-984,-159,-242,-90,308,38,-136
2,7070113,-3456,-1652,-984,-159,-242,-90,308,38,-136
2,7070127,-3450,-1648,-984,-162,-243,-84,308,38,-136
2,7070139,-3453,-1645,-981,-163,-243,-91,308,38,-136
2,7070151,-3453,-1645,-981,-163,-243,-91,308,38,-136
2,7070163,-3455,-1647,-975,-163,-244,-92,310,44,-128
2,7070177,-3455,-1647,-975,-163,-244,-92,310,44,-128
2,7070190,-3455,-1648,-976,-158,-240,-88,310,44,-128
2,7070202,-3455,-1647,-973,-161,-239,-85,310,44,-128
2,7070217,-3455,-1647,-973,-161,-239,-85,310,44,-128
2,7070229,-3457,-1649,-979,-160,-236,-81,310,44,-128
2,7070241,-3455,-1651,-977,-164,-233,-85,310,44,-128
2,7070253,-3455,-1651,-977,-164,-233,-85,310,44,-128
2,7070267,-3452,-1648,-976,-163,-240,-83,310,44,-128
2,7070279,-3452,-1648,-974,-166,-243,-81,304,36,-140
2,7070288,-3452,-1648,-974,-166,-243,-81,304,36,-140
2,7070301,-3455,-1650,-974,-160,-237,-89,304,36,-140
2,7070315,-3455,-1650,-974,-160,-237,-89,304,36,-140
2,7070326,-3455,-1651,-981,-162,-246,-89,304,36,-140
2,7070338,-3455,-1647,-985,-157,-240,-84,304,36,-140
2,7070351,-3455,-1647,-985,-157,-240,-84,304,36,-140
2,7070365,-3453,-1647,-973,-157,-247,-84,304,36,-140
2,7070374,-3453,-1647,-973,-157,-247,-84,304,36,-140
2,7070386,-3454,-1648,-978,-165,-245,-88,304,36,-140
2,7070399,-3452,-1650,-977,-167,-243,-86,301,39,-131
2,7070407,-3452,-1650,-977,-167,-243,-86,301,39,-131
2,7070415,-3452,-1650,-977,-167,-243,-86,301,39,-131
2,7070424,-3451,-1648,-974,-158,-243,-87,301,39,-131
2,7070432,-3451,-1648,-974,-158,-243,-87,301,39,-131
2,7070441,-3450,-1650,-979,-164,-245,-78,301,39,-131
2,7070448,-3450,-1650,-979,-164,-245,-78,301,39,-131
2,7070456,-3450,-1650,-979,-164,-245,-78,301,39,-131
2,7070465,-3457,-1647,-979,-166,-237,-85,301,39,-131
2,7070474,-3457,-1647,-979,-166,-237,-85,301,39,-131
2,7070483,-3458,-1647,-979,-165,-246,-84,301,39,-131
2,7070491,-3458,-1647,-979,-165,-246,-84,301,39,-131
2,7070499,-3462,-1651,-979,-161,-247,-86,301,39,-131
2,7070508,-3462,-1651,-979,-161,-247,-86,301,39,-131
2,7070516,-3462,-1651,-979,-161,-247,-86,301,39,-131
2,7070524,-3455,-1648,-973,-158,-242,-82,310,34,-136
2,7070533,-3455,-1648,-973,-158,-242,-82,310,34,-136
2,7070543,-3455,-1648,-979,-168,-239,-85,310,34,-136
2,7070553,-3455,-1648,-979,-168,-239,-85,310,34,-136
2,7070568,-3451,-1649,-978,-168,-236,-86,310,34,-136
2,7070578,-3449,-1648,-976,-164,-244,-82,310,34,-136
2,7070590,-3449,-1648,-976,-164,-244,-82,310,34,-136
2,7070605,-3451,-1649,-979,-160,-240,-88,310,34,-136
2,7070618,-3454,-1650,-977,-156,-236,-87,310,34,-136
2,7070625,-3454,-1650,-977,-156,-236,-87,310,34,-136
2,7070633,-3454,-1650,-977,-156,-236,-87,310,34,-136
2,7070642,-3459,-1648,-974,-157,-232,-84,302,42,-134
2,7070649,-3459,-1648,-974,-157,-232,-84,302,42,-134
2,7070658,-3459,-1647,-977,-158,-239,-83,302,42,-134
2,7070671,-3459,-1647,-977,-158,-239,-83,302,42,-134
2,7070685,-3457,-1650,-980,-159,-232,-86,302,42,-134
2,7070695,-3457,-1650,-980,-159,-232,-86,302,42,-134
2,7070707,-3457,-1650,-980,-159,-232,-86,302,42,-134
2,7070721,-3450,-1646,-976,-162,-244,-91,302,42,-134
2,7070737,-3450,-1646,-976,-162,-244,-91,302,42,-134
2,7070749,-3449,-1650,-983,-162,-241,-86,302,42,-134
2,7070761,-3454,-1650,-978,-160,-239,-82,297,41,-135
2,7070775,-3454,-1650,-978,-160,-239,-82,297,41,-135
2,7070787,-3455,-1646,-978,-164,-242,-79,297,41,-135
2,7070799,-3456,-1649,-979,-157,-246,-84,297,41,-135
2,7070813,-3456,-1649,-979,-157,-246,-84,297,41,-135
2,7070826,-3458,-1652,-974,-155,-240,-85,297,41,-135
2,7070838,-3456,-1650,-980,-159,-236,-77,297,41,-135
2,7070853,-3456,-1650,-980,-159,-236,-77,297,41,-135
2,7070860,-3453,-1648,-974,-163,-237,-80,297,41,-135
2,7070866,-3453,-1648,-974,-163,-237,-80,297,41,-135
2,7070874,-3453,-1648,-974,-163,-237,-80,297,41,-135
2,7070881,-3453,-1648,-974,-163,-237,-80,297,41,-135
2,7070888,-3453,-1648,-974,-163,-237,-80,297,41,-135
2,7070896,-3453,-1648,-974,-163,-237,-80,297,41,-135
2,7070903,-3452,-1649,-976,-163,-248,-91,312,38,-130
2,7070910,-3452,-1649,-976,-163,-248,-91,312,38,-130
2,7070917,-3452,-1649,-976,-163,-248,-91,312,38,-130
2,7070924,-3453,-1647,-977,-158,-240,-91,312,38,-130
2,7070931,-3453,-1647,-977,-158,-240,-91,312,38,-130
2,7070939,-3454,-1649,-981,-161,-239,-80,312,38,-130
2,7070946,-3454,-1649,-981,-161,-239,-80,312,38,-130
2,7070954,-3454,-1649,-981,-161,-239,-80,312,38,-130
2,7070963,-3458,-1653,-972,-158,-248,-84,312,38,-130
2,7070970,-3458,-1653,-972,-158,-248,-84,312,38,-130
2,7070978,-3457,-1649,-976,-150,-238,-84,312,38,-130
2,7070985,-3457,-1649,-976,-150,-238,-84,312,38,-130
2,7070992,-3457,-1649,-976,-150,-238,-84,312,38,-130
2,7070998,-3452,-1648,-982,-158,-241,-89,312,38,-130
2,7071005,-3452,-1648,-982,-158,-241,-89,312,38,-130
2,7071012,-3452,-1648,-982,-158,-241,-89,312,38,-130
2,7071021,-3450,-1650,-975,-159,-238,-75,304,32,-128
2,7071029,-3450,-1650,-975,-159,-238,-75,304,32,-128
2,7071036,-3450,-1650,-975,-159,-238,-75,304,32,-128
2,7071043,-3453,-1649,-973,-158,-240,-79,304,32,-128
2,7071049,-3453,-1649,-973,-158,-240,-79,304,32,-128
2,7071058,-3456,-1646,-978,-160,-246,-86,304,32,-128
2,7071066,-3456,-1646,-978,-160,-246,-86,304,32,-128
2,7071073,-3456,-1646,-978,-160,-246,-86,304,32,-128
2,7071078,-3459,-1648,-975,-159,-257,-92,304,32,-128
2,7071084,-3459,-1648,-975,-159,-257,-92,304,32,-128
2,7071089,-3459,-1648,-975,-159,-257,-92,304,32,-128
2,7071096,-3459,-1648,-975,-159,-257,-92,304,32,-128
2,7071104,-3457,-1651,-977,-165,-254,-82,304,32,-128
2,7071111,-3457,-1651,-977,-165,-254,-82,304,32,-128
2,7071117,-3457,-1651,-977,-165,-254,-82,304,32,-128
2,7071123,-3453,-1651,-982,-163,-249,-84,304,32,-128
2,7071131,-3453,-1651,-982,-163,-249,-84,304,32,-128
2,7071138,-3453,-1647,-975,-158,-249,-85,303,33,-137
2,7071144,-3453,-1647,-975,-158,-249,-85,303,33,-137
2,7071152,-3453,-1647,-975,-158,-249,-85,303,33,-137
2,7071157,-3453,-1647,-975,-158,-249,-85,303,33,-137
2,7071165,-3450,-1649,-977,-158,-247,-80,303,33,-137
2,7071173,-3450,-1649,-977,-158,-247,-80,303,33,-137
2,7071180,-3451,-1650,-977,-162,-242,-84,303,33,-137
2,7071188,-3451,-1650,-977,-162,-242,-84,303,33,-137
2,7071196,-3451,-1650,-977,-162,-242,-84,303,33,-137
2,7071203,-3454,-1648,-982,-158,-240,-84,303,33,-137
2,7071210,-3454,-1648,-982,-158,-240,-84,303,33,-137
2,7071216,-3454,-1648,-982,-158,-240,-84,303,33,-137
2,7071223,-3453,-1650,-979,-162,-247,-89,303,33,-137
2,7071232,-3453,-1650,-979,-162,-247,-89,303,33,-137
2,7071239,-3458,-1652,-981,-162,-241,-80,303,33,-137
2,7071248,-3458,-1652,-981,-162,-241,-80,303,33,-137
2,7071254,-3458,-1652,-981,-162,-241,-80,303,33,-137
2,7071260,-3459,-1648,-977,-156,-245,-85,305,35,-129
2,7071266,-3459,-1648,-977,-156,-245,-85,305,35,-129
2,7071273,-3459,-1648,-977,-156,-245,-85,305,35,-129
2,7071282,-3460,-1646,-974,-159,-247,-83,305,35,-129
2,7071289,-3460,-1646,-974,-159,-247,-83,305,35,-129
2,7071297,-3460,-1646,-974,-159,-247,-83,305,35,-129
2,7071304,-3451,-1647,-979,-156,-253,-93,305,35,-129
2,7071310,-3451,-1647,-979,-156,-253,-93,305,35,-129
2,7071318,-3451,-1647,-979,-156,-253,-93,305,35,-129
2,7071326,-3450,-1648,-982,-159,-245,-81,305,35,-129
2,7071333,-3450,-1648,-982,-159,-245,-81,305,35,-129
2,7071340,-3453,-1647,-981,-162,-243,-81,305,35,-129
2,7071348,-3453,-1647,-981,-162,-243,-81,305,35,-129
2,7071354,-3453,-1647,-981,-162,-243,-81,305,35,-129
2,7071360,-3455,-1649,-982,-157,-239,-84,305,35,-129
2,7071366,-3455,-1649,-982,-157,-239,-84,305,35,-129
2,7071374,-3455,-1649,-982,-157,-239,-84,305,35,-129
2,7071382,-3457,-1651,-984,-156,-240,-81,300,40,-128
2,7071389,-3457,-1651,-984,-156,-240,-81,300,40,-128
2,7071394,-3457,-1651,-984,-156,-240,-81,300,40,-128
2,7071401,-3453,-1651,-973,-158,-246,-86,300,40,-128
2,7071408,-3453,-1651,-973,-158,-246,-86,300,40,-128
2,7071413,-3453,-1651,-973,-158,-246,-86,300,40,-128
2,7071418,-3453,-1651,-973,-158,-246,-86,300,40,-128
2,7071423,-3456,-1650,-980,-159,-248,-92,300,40,-128
2,7071428,-3456,-1650,-980,-159,-248,-92,300,40,-128
2,7071433,-3456,-1650,-980,-159,-248,-92,300,40,-128
2,7071439,-3454,-1648,-980,-162,-253,-84,300,40,-128
2,7071448,-3454,-1648,-980,-162,-253,-84,300,40,-128
2,7071454,-3454,-1648,-980,-162,-253,-84,300,40,-128
2,7071459,-3449,-1647,-979,-166,-249,-90,300,40,-128
2,7071467,-3449,-1647,-979,-166,-249,-90,300,40,-128
2,7071476,-3449,-1647,-979,-166,-249,-90,300,40,-128
2,7071482,-3453,-1649,-977,-164,-248,-87,300,40,-128
2,7071490,-3453,-1649,-977,-164,-248,-87,300,40,-128
2,7071496,-3453,-1649,-977,-164,-248,-87,300,40,-128
2,7071502,-3455,-1648,-980,-166,-256,-90,300,40,-128
2,7071508,-3455,-1648,-980,-166,-256,-90,300,40,-128
2,7071517,-3455,-1648,-980,-166,-256,-90,300,40,-128
2,7071524,-3452,-1649,-974,-155,-252,-88,308,40,-126
2,7071533,-3452,-1649,-974,-155,-252,-88,308,40,-126
2,7071539,-3454,-1650,-979,-156,-249,-89,308,40,-126
2,7071544,-3454,-1650,-979,-156,-249,-89,308,40,-126
2,7071551,-3454,-1650,-979,-156,-249,-89,308,40,-126
2,7071558,-3454,-1650,-979,-156,-249,-89,308,40,-126
2,7071564,-3453,-1647,-973,-158,-237,-85,308,40,-126
2,7071571,-3453,-1647,-973,-158,-237,-85,308,40,-126
2,7071579,-3450,-1647,-981,-160,-245,-83,308,40,-126
2,7071585,-3450,-1647,-981,-160,-245,-83,308,40,-126
2,7071589,-3450,-1647,-981,-160,-245,-83,308,40,-126
2,7071594,-3450,-1647,-981,-160,-245,-83,308,40,-126
2,7071601,-3451,-1649,-978,-166,-254,-88,308,40,-126
2,7071608,-3451,-1649,-978,-166,-254,-88,308,40,-126
2,7071617,-3451,-1649,-978,-166,-254,-88,308,40,-126
2,7071623,-3450,-1647,-979,-167,-246,-84,308,40,-126
2,7071628,-3450,-1647,-979,-167,-246,-84,308,40,-126
2,7071633,-3450,-1647,-979,-167,-246,-84,308,40,-126
2,7071638,-3450,-1647,-979,-167,-246,-84,308,40,-126
2,7071643,-3453,-1647,-978,-163,-254,-78,305,37,-135
2,7071648,-3453,-1647,-978,-163,-254,-78,305,37,-135
2,7071655,-3453,-1647,-978,-163,-254,-78,305,37,-135
2,7071662,-3453,-1649,-975,-162,-244,-82,305,37,-135
2,7071669,-3453,-1649,-975,-162,-244,-82,305,37,-135
2,7071676,-3453,-1649,-975,-162,-244,-82,305,37,-135
2,7071683,-3458,-1649,-977,-157,-249,-79,305,37,-135
2,7071690,-3458,-1649,-977,-157,-249,-79,305,37,-135
2,7071698,-3458,-1649,-977,-157,-249,-79,305,37,-135
2,7071704,-3456,-1647,-982,-166,-247,-87,305,37,-135
2,7071712,-3456,-1647,-982,-166,-247,-87,305,37,-135
2,7071719,-3453,-1646,-983,-175,-246,-87,305,37,-135
2,7071725,-3453,-1646,-983,-175,-246,-87,305,37,-135
2,7071732,-3453,-1646,-983,-175,-246,-87,305,37,-135
2,7071738,-3452,-1650,-981,-169,-238,-92,305,37,-135
2,7071745,-3452,-1650,-981,-169,-238,-92,305,37,-135
2,7071754,-3452,-1650,-981,-169,-238,-92,305,37,-135
2,7071760,-3451,-1648,-980,-164,-235,-85,303,39,-127
2,7071767,-3451,-1648,-980,-164,-235,-85,303,39,-127
2,7071772,-3451,-1648,-980,-164,-235,-85,303,39,-127
2,7071779,-3454,-1647,-978,-157,-241,-76,303,39,-127
2,7071787,-3454,-1647,-978,-157,-241,-76,303,39,-127
2,7071795,-3454,-1647,-978,-157,-241,-76,303,39,-127
2,7071802,-3455,-1648,-979,-157,-244,-84,303,39,-127
2,7071809,-3455,-1648,-979,-157,-244,-84,303,39,-127
2,7071817,-3455,-1648,-979,-157,-244,-84,303,39,-127
2,7071823,-3459,-1649,-975,-160,-233,-84,303,39,-127
2,7071831,-3459,-1649,-975,-160,-233,-84,303,39,-127
2,7071837,-3459,-1649,-975,-160,-233,-84,303,39,-127
2,7071844,-3458,-1647,-972,-165,-240,-86,303,39,-127
2,7071851,-3458,-1647,-972,-165,-240,-86,303,39,-127
2,7071859,-3454,-1650,-976,-164,-238,-85,303,39,-127
2,7071874,-3454,-1650,-976,-164,-238,-85,303,39,-127
2,7071886,-3454,-1649,-979,-163,-239,-85,302,36,-126
2,7071896,-3454,-1649,-979,-163,-239,-85,302,36,-126
2,7071910,-3449,-1649,-973,-161,-234,-88,302,36,-126
2,7071922,-3451,-1649,-981,-167,-238,-85,302,36,-126
2,7071935,-3451,-1649,-981,-167,-238,-85,302,36,-126
2,7071948,-3453,-1647,-977,-159,-242,-73,302,36,-126
2,7071961,-3454,-1648,-986,-161,-241,-75,302,36,-126
2,7071973,-3454,-1648,-986,-161,-241,-75,302,36,-126
2,7071986,-3456,-1647,-981,-157,-246,-77,302,36,-126
2,7071998,-3456,-1647,-981,-157,-246,-77,302,36,-126
2,7072012,-3456,-1649,-980,-155,-249,-80,302,36,-132
2,7072024,-3456,-1650,-979,-156,-242,-87,302,36,-132
2,7072037,-3456,-1650,-979,-156,-242,-87,302,36,-132
2,7072052,-3453,-1649,-973,-160,-243,-86,302,36,-132
2,7072063,-3453,-1649,-980,-154,-236,-92,302,36,-132
2,7072076,-3453,-1649,-980,-154,-236,-92,302,36,-132
2,7072089,-3456,-1648,-979,-158,-234,-84,302,36,-132
2,7072103,-3453,-1648,-977,-156,-239,-87,302,36,-132
2,7072113,-3453,-1648,-977,-156,-239,-87,302,36,-132
2,7072128,-3455,-1648,-979,-159,-247,-82,302,36,-132
2,7072140,-3455,-1647,-977,-156,-238,-88,315,33,-131
2,7072148,-3455,-1647,-977,-156,-238,-88,315,33,-131
2,7072158,-3455,-1647,-977,-156,-238,-88,315,33,-131
2,7072173,-3452,-1649,-985,-160,-239,-87,315,33,-131
2,7072182,-3455,-1648,-981,-150,-232,-75,315,33,-131
2,7072191,-3455,-1648,-981,-150,-232,-75,315,33,-131
2,7072199,-3453,-1650,-977,-153,-231,-79,315,33,-131
2,7072207,-3453,-1650,-977,-153,-231,-79,315,33,-131
2,7072216,-3453,-1650,-977,-153,-231,-79,315,33,-131
2,7072227,-3456,-1648,-979,-160,-234,-85,315,33,-131
2,7072238,-3456,-1648,-979,-160,-234,-85,315,33,-131
2,7072248,-3455,-1647,-981,-161,-237,-85,315,33,-131
2,7072262,-3458,-1650,-977,-164,-239,-83,305,37,-129
2,7072277,-3458,-1650,-977,-164,-239,-83,305,37,-129
2,7072288,-3457,-1648,-977,-156,-236,-93,305,37,-129
2,7072301,-3455,-1648,-980,-162,-241,-86,305,37,-129
2,7072313,-3455,-1648,-980,-162,-241,-86,305,37,-129
2,7072326,-3454,-1646,-981,-164,-246,-87,305,37,-129
2,7072338,-3454,-1646,-981,-164,-246,-87,305,37,-129
2,7072349,-3449,-1646,-980,-165,-239,-85,305,37,-129
2,7072362,-3452,-1649,-980,-159,-240,-87,305,37,-129
2,7072377,-3452,-1649,-980,-159,-240,-87,305,37,-129
2,7072391,-3455,-1649,-980,-160,-246,-87,299,31,-131
2,7072399,-3458,-1649,-976,-157,-250,-83,299,31,-131
2,7072408,-3458,-1649,-976,-157,-250,-83,299,31,-131
2,7072416,-3458,-1649,-976,-157,-250,-83,299,31,-131
2,7072424,-3461,-1644,-978,-163,-242,-89,299,31,-131
2,7072433,-3461,-1644,-978,-163,-242,-89,299,31,-131
2,7072441,-3453,-1647,-984,-162,-234,-86,299,31,-131
2,7072449,-3453,-1647,-984,-162,-234,-86,299,31,-131
2,7072457,-3453,-1647,-984,-162,-234,-86,299,31,-131
2,7072465,-3452,-1648,-981,-159,-240,-85,299,31,-131
2,7072474,-3452,-1648,-981,-159,-240,-85,299,31,-131
2,7072483,-3453,-1646,-982,-157,-241,-97,299,31,-131
2,7072492,-3453,-1646,-982,-157,-241,-97,299,31,-131
2,7072500,-3453,-1646,-982,-157,-241,-97,302,40,-134
2,7072513,-3453,-1646,-982,-157,-241,-97,302,40,-134
2,7072525,-3452,-1647,-979,-161,-243,-90,302,40,-134
2,7072537,-3452,-1647,-979,-161,-243,-90,302,40,-134
2,7072550,-3455,-1649,-981,-162,-236,-88,302,40,-134
2,7072564,-3460,-1651,-977,-159,-235,-84,302,40,-134
2,7072576,-3460,-1651,-977,-159,-235,-84,302,40,-134
2,7072585,-3458,-1648,-985,-156,-240,-91,302,40,-134
2,7072596,-3458,-1648,-985,-156,-240,-91,302,40,-134
2,7072613,-3459,-1651,-978,-156,-240,-83,302,40,-134
2,7072625,-3453,-1648,-977,-159,-245,-84,309,37,-129
2,7072633,-3453,-1648,-977,-159,-245,-84,309,37,-129
2,7072642,-3451,-1650,-981,-168,-237,-85,309,37,-129
2,7072650,-3451,-1650,-981,-168,-237,-85,309,37,-129
2,7072659,-3451,-1650,-981,-168,-237,-85,309,37,-129
2,7072671,-3450,-1650,-979,-162,-240,-85,309,37,-129
2,7072683,-3454,-1648,-983,-161,-246,-87,309,37,-129
2,7072697,-3454,-1648,-983,-161,-246,-87,309,37,-129
2,7072710,-3454,-1652,-978,-164,-242,-82,309,37,-129
2,7072723,-3457,-1649,-980,-157,-243,-81,309,37,-129
2,7072734,-3457,-1649,-980,-157,-243,-81,309,37,-129
2,7072747,-3455,-1647,-978,-161,-243,-85,309,37,-129
2,7072761,-3455,-1647,-978,-161,-243,-85,312,48,-138
2,7072775,-3455,-1647,-978,-161,-243,-85,312,48,-138
2,7072784,-3453,-1647,-981,-159,-247,-88,312,48,-138
2,7072796,-3453,-1647,-981,-159,-247,-88,312,48,-138
2,7072808,-3453,-1650,-979,-149,-251,-85,312,48,-138
2,7072823,-3453,-1650,-979,-149,-251,-85,312,48,-138
2,7072831,-3453,-1650,-979,-149,-251,-85,312,48,-138
2,7072838,-3453,-1650,-979,-149,-251,-85,312,48,-138
2,7072846,-3455,-1650,-982,-160,-247,-90,312,48,-138
2,7072855,-3455,-1650,-982,-160,-247,-90,312,48,-138
2,7072865,-3458,-1652,-981,-159,-246,-81,312,48,-138
2,7072873,-3458,-1652,-981,-159,-246,-81,312,48,-138
2,7072880,-3457,-1649,-975,-168,-241,-87,299,41,-135
2,7072887,-3457,-1649,-975,-168,-241,-87,299,41,-135
2,7072893,-3457,-1649,-975,-168,-241,-87,299,41,-135
2,7072900,-3457,-1649,-975,-168,-241,-87,299,41,-135
2,7072908,-3453,-1649,-981,-169,-244,-90,299,41,-135
2,7072915,-3453,-1649,-981,-169,-244,-90,299,41,-135
2,7072923,-3451,-1649,-980,-167,-249,-80,299,41,-135
2,7072931,-3451,-1649,-980,-167,-249,-80,299,41,-135
2,7072939,-3451,-1649,-980,-167,-249,-80,299,41,-135
2,7072945,-3453,-1647,-982,-164,-247,-88,299,41,-135
2,7072952,-3453,-1647,-982,-164,-247,-88,299,41,-135
2,7072959,-3453,-1647,-982,-164,-247,-88,299,41,-135
2,7072966,-3453,-1652,-977,-160,-249,-93,299,41,-135
2,7072974,-3453,-1652,-977,-160,-249,-93,299,41,-135
2,7072982,-3452,-1649,-985,-158,-241,-84,299,41,-135
2,7072989,-3452,-1649,-985,-158,-241,-84,299,41,-135
2,7072996,-3452,-1649,-985,-158,-241,-84,299,41,-135
2,7073003,-3458,-1649,-982,-158,-258,-79,302,30,-130
2,7073010,-3458,-1649,-982,-158,-258,-79,302,30,-130
2,7073016,-3458,-1649,-982,-158,-258,-79,302,30,-130
2,7073025,-3460,-1650,-980,-164,-245,-83,302,30,-130
2,7073033,-3460,-1650,-980,-164,-245,-83,302,30,-130
2,7073040,-3460,-1650,-980,-164,-245,-83,302,30,-130
2,7073047,-3461,-1650,-977,-163,-245,-85,302,30,-130
2,7073052,-3461,-1650,-977,-163,-245,-85,302,30,-130
2,7073060,-3455,-1648,-980,-162,-234,-79,302,30,-130
2,7073067,-3455,-1648,-980,-162,-234,-79,302,30,-130
2,7073074,-3455,-1648,-980,-162,-234,-79,302,30,-130
2,7073082,-3451,-1647,-981,-158,-247,-75,302,30,-130
2,7073089,-3451,-1647,-981,-158,-247,-75,302,30,-130
2,7073096,-3451,-1647,-981,-158,-247,-75,302,30,-130
2,7073103,-3452,-1649,-983,-157,-242,-76,302,30,-130
2,7073108,-3452,-1649,-983,-157,-242,-76,302,30,-130
2,7073115,-3452,-1649,-983,-157,-242,-76,302,30,-130
2,7073121,-3457,-1649,-977,-161,-242,-77,305,35,-133
2,7073129,-3457,-1649,-977,-161,-242,-77,305,35,-133
2,7073136,-3457,-1649,-977,-161,-242,-77,305,35,-133
2,7073144,-3456,-1648,-980,-163,-245,-73,305,35,-133
2,7073149,-3456,-1648,-980,-163,-245,-73,305,35,-133
2,7073157,-3456,-1648,-980,-163,-245,-73,305,35,-133
2,7073164,-3455,-1646,-974,-159,-247,-75,305,35,-133
2,7073172,-3455,-1646,-974,-159,-247,-75,305,35,-133
2,7073179,-3455,-1646,-974,-159,-247,-75,305,35,-133
2,7073184,-3459,-1648,-974,-165,-250,-83,305,35,-133
2,7073191,-3459,-1648,-974,-165,-250,-83,305,35,-133
2,7073200,-3455,-1647,-976,-157,-237,-90,305,35,-133
2,7073207,-3455,-1647,-976,-157,-237,-90,305,35,-133
2,7073214,-3455,-1647,-976,-157,-237,-90,305,35,-133
2,7073221,-3453,-1651,-981,-154,-245,-87,305,35,-133
2,7073229,-3453,-1651,-981,-154,-245,-87,305,35,-133
2,7073234,-3453,-1651,-981,-154,-245,-87,305,35,-133
2,7073243,-3449,-1648,-980,-159,-243,-84,308,38,-130
2,7073250,-3449,-1648,-980,-159,-243,-84,308,38,-130
2,7073257,-3449,-1648,-980,-159,-243,-84,308,38,-130
2,7073264,-3455,-1645,-981,-168,-239,-81,308,38,-130
2,7073270,-3455,-1645,-981,-168,-239,-81,308,38,-130
2,7073277,-3455,-1645,-981,-168,-239,-81,308,38,-130
2,7073285,-3454,-1644,-981,-167,-236,-82,308,38,-130
2,7073292,-3454,-1644,-981,-167,-236,-82,308,38,-130
2,7073299,-3454,-1644,-981,-167,-236,-82,308,38,-130
2,7073304,-3453,-1648,-977,-161,-237,-86,308,38,-130
2,7073312,-3453,-1648,-977,-161,-237,-86,308,38,-130
2,7073320,-3457,-1650,-980,-161,-231,-87,308,38,-130
2,7073328,-3457,-1650,-980,-161,-231,-87,308,38,-130
2,7073335,-3457,-1650,-980,-161,-231,-87,308,38,-130
2,7073340,-3457,-1650,-980,-161,-231,-87,308,38,-130
2,7073345,-3455,-1650,-989,-159,-240,-86,308,38,-130
2,7073350,-3455,-1650,-989,-159,-240,-86,308,38,-130
2,7073358,-3455,-1650,-989,-159,-240,-86,308,38,-130
2,7073366,-3450,-1646,-980,-166,-230,-91,308,38,-130
2,7073373,-3450,-1646,-980,-166,-230,-91,308,38,-130
2,7073380,-3452,-1650,-977,-160,-235,-86,306,40,-128
2,7073388,-3452,-1650,-977,-160,-235,-86,306,40,-128
2,7073395,-3452,-1650,-977,-160,-235,-86,306,40,-128
2,7073401,-3455,-1648,-980,-164,-242,-83,306,40,-128
2,7073408,-3455,-1648,-980,-164,-242,-83,306,40,-128
2,7073413,-3455,-1648,-980,-164,-242,-83,306,40,-128
2,7073418,-3455,-1648,-980,-164,-242,-83,306,40,-128
2,7073423,-3451,-1650,-978,-164,-245,-77,306,40,-128
2,7073428,-3451,-1650,-978,-164,-245,-77,306,40,-128
2,7073433,-3451,-1650,-978,-164,-245,-77,306,40,-128
2,7073438,-3451,-1650,-978,-164,-245,-77,306,40,-128
2,7073443,-3457,-1648,-978,-163,-241,-85,306,40,-128
2,7073451,-3457,-1648,-978,-163,-241,-85,306,40,-128
2,7073460,-3457,-1648,-978,-163,-241,-85,306,40,-128
2,7073466,-3454,-1647,-980,-160,-236,-87,306,40,-128
2,7073471,-3454,-1647,-980,-160,-236,-87,306,40,-128
2,7073478,-3454,-1647,-980,-160,-236,-87,306,40,-128
2,7073485,-3454,-1646,-980,-157,-241,-91,306,40,-128
2,7073494,-3454,-1646,-980,-157,-241,-91,306,40,-128
2,7073502,-3453,-1650,-982,-161,-241,-80,304,38,-134
2,7073510,-3453,-1650,-982,-161,-241,-80,304,38,-134
2,7073517,-3453,-1650,-982,-161,-241,-80,304,38,-134
2,7073524,-3450,-1649,-982,-164,-236,-81,304,38,-134
2,7073532,-3450,-1649,-982,-164,-236,-81,304,38,-134
2,7073539,-3450,-1649,-982,-164,-236,-81,304,38,-134
2,7073545,-3453,-1652,-977,-165,-233,-81,304,38,-134
2,7073552,-3453,-1652,-977,-165,-233,-81,304,38,-134
2,7073560,-3454,-1649,-980,-165,-240,-78,304,38,-134
2,7073567,-3454,-1649,-980,-165,-240,-78,304,38,-134
2,7073574,-3454,-1649,-980,-165,-240,-78,304,38,-134
2,7073582,-3457,-1650,-979,-167,-246,-79,304,38,-134
2,7073589,-3457,-1650,-979,-167,-246,-79,304,38,-134
2,7073595,-3457,-1650,-979,-167,-246,-79,304,38,-134
2,7073602,-3456,-1649,-979,-163,-245,-78,304,38,-134
2,7073609,-3456,-1649,-979,-163,-245,-78,304,38,-134
2,7073616,-3456,-1649,-979,-163,-245,-78,304,38,-134
2,7073624,-3455,-1647,-974,-161,-240,-84,305,41,-129
2,7073629,-3455,-1647,-974,-161,-240,-84,305,41,-129
2,7073633,-3455,-1647,-974,-161,-240,-84,305,41,-129
2,7073638,-3455,-1647,-974,-161,-240,-84,305,41,-129
2,7073643,-3455,-1647,-983,-165,-248,-89,305,41,-129
2,7073648,-3455,-1647,-983,-165,-248,-89,305,41,-129
2,7073654,-3455,-1647,-983,-165,-248,-89,305,41,-129
2,7073662,-3448,-1648,-980,-165,-247,-94,305,41,-129
2,7073670,-3448,-1648,-980,-165,-247,-94,305,41,-129
2,7073678,-3448,-1648,-980,-165,-247,-94,305,41,-129
2,7073686,-3451,-1650,-984,-159,-239,-94,305,41,-129
2,7073693,-3451,-1650,-984,-159,-239,-94,305,41,-129
2,7073700,-3454,-1648,-982,-165,-239,-84,305,41,-129
2,7073705,-3454,-1648,-982,-165,-239,-84,305,41,-129
2,7073713,-3454,-1648,-982,-165,-239,-84,305,41,-129
2,7073720,-3454,-1648,-982,-165,-239,-84,305,41,-129
2,7073728,-3458,-1649,-981,-166,-242,-90,305,41,-129
2,7073736,-3458,-1649,-981,-166,-242,-90,305,41,-129
2,7073743,-3459,-1649,-977,-163,-250,-92,310,36,-130
2,7073752,-3459,-1649,-977,-163,-250,-92,310,36,-130
2,7073758,-3459,-1649,-977,-163,-250,-92,310,36,-130
2,7073765,-3455,-1650,-978,-157,-236,-93,310,36,-130
2,7073771,-3455,-1650,-978,-157,-236,-93,310,36,-130
2,7073779,-3455,-1650,-978,-157,-236,-93,310,36,-130
2,7073786,-3456,-1649,-980,-159,-247,-77,310,36,-130
2,7073796,-3456,-1649,-980,-159,-247,-77,310,36,-130
2,7073803,-3449,-1647,-978,-155,-241,-86,310,36,-130
2,7073810,-3449,-1647,-978,-155,-241,-86,310,36,-130
2,7073817,-3449,-1647,-978,-155,-241,-86,310,36,-130
2,7073823,-3453,-1647,-980,-156,-236,-80,310,36,-130
2,7073830,-3453,-1647,-980,-156,-236,-80,310,36,-130
2,7073838,-3453,-1647,-980,-156,-236,-80,310,36,-130
2,7073845,-3457,-1648,-981,-159,-231,-89,310,36,-130
2,7073852,-3457,-1648,-981,-159,-231,-89,310,36,-130
2,7073859,-3457,-1648,-981,-159,-231,-89,310,36,-130
2,7073864,-3452,-1643,-984,-164,-241,-88,291,33,-133
2,7073870,-3452,-1643,-984,-164,-241,-88,291,33,-133
2,7073879,-3452,-1643,-984,-164,-241,-88,291,33,-133
2,7073890,-3456,-1648,-975,-163,-244,-84,291,33,-133
2,7073902,-3453,-1651,-984,-163,-253,-87,291,33,-133
2,7073917,-3453,-1651,-984,-163,-253,-87,291,33,-133
2,7073932,-3459,-1648,-985,-160,-240,-83,291,33,-133
2,7073941,-3451,-1649,-980,-161,-238,-90,291,33,-133
2,7073952,-3451,-1649,-980,-161,-238,-90,291,33,-133
2,7073965,-3449,-1650,-979,-159,-243,-91,291,33,-133
2,7073978,-3449,-1650,-979,-159,-243,-91,291,33,-133
2,7073990,-3451,-1648,-978,-165,-239,-85,291,33,-133
2,7074004,-3453,-1649,-974,-166,-241,-81,305,39,-127
2,7074017,-3453,-1649,-974,-166,-241,-81,305,39,-127
2,7074029,-3457,-1648,-977,-161,-242,-84,305,39,-127
2,7074043,-3459,-1647,-980,-156,-245,-83,305,39,-127
2,7074057,-3459,-1647,-980,-156,-245,-83,305,39,-127
2,7074069,-3457,-1648,-982,-154,-243,-84,305,39,-127
2,7074083,-3451,-1650,-982,-158,-240,-83,305,39,-127
2,7074094,-3451,-1650,-982,-158,-240,-83,305,39,-127
2,7074103,-3448,-1648,-982,-160,-233,-84,305,39,-127
2,7074116,-3448,-1648,-982,-160,-233,-84,305,39,-127
2,7074127,-3450,-1647,-978,-160,-251,-90,296,44,-134
2,7074141,-3453,-1649,-981,-158,-246,-82,296,44,-134
2,7074155,-3453,-1649,-981,-158,-246,-82,296,44,-134
2,7074167,-3457,-1648,-985,-154,-231,-81,296,44,-134
2,7074176,-3457,-1648,-985,-154,-231,-81,296,44,-134
2,7074188,-3457,-1652,-979,-161,-240,-76,296,44,-134
2,7074201,-3457,-1650,-977,-161,-242,-79,296,44,-134
2,7074214,-3457,-1650,-977,-161,-242,-79,296,44,-134
2,7074225,-3458,-1645,-985,-156,-240,-80,296,44,-134
2,7074238,-3458,-1645,-985,-156,-240,-80,296,44,-134
2,7074253,-3453,-1649,-983,-155,-240,-80,300,36,-136
2,7074266,-3448,-1648,-974,-149,-235,-90,300,36,-136
2,7074276,-3448,-1648,-974,-149,-235,-90,300,36,-136
2,7074289,-3448,-1647,-978,-158,-236,-89,300,36,-136
2,7074304,-3452,-1649,-979,-163,-239,-86,300,36,-136
2,7074318,-3452,-1649,-979,-163,-239,-86,300,36,-136
2,7074327,-3454,-1649,-976,-162,-236,-77,300,36,-136
2,7074339,-3454,-1649,-976,-162,-236,-77,300,36,-136
2,7074353,-3453,-1649,-977,-162,-237,-78,300,36,-136
2,7074366,-3459,-1647,-981,-154,-236,-72,302,38,-134
2,7074376,-3459,-1647,-981,-154,-236,-72,302,38,-134
2,7074388,-3452,-1650,-982,-159,-239,-85,302,38,-134
2,7074401,-3452,-1650,-976,-163,-245,-81,302,38,-134
2,7074410,-3452,-1650,-976,-163,-245,-81,302,38,-134
2,7074417,-3452,-1650,-976,-163,-245,-81,302,38,-134
2,7074426,-3452,-1650,-982,-161,-241,-90,302,38,-134
2,7074435,-3452,-1650,-982,-161,-241,-90,302,38,-134
2,7074443,-3452,-1650,-984,-159,-246,-90,302,38,-134
2,7074451,-3452,-1650,-984,-159,-246,-90,302,38,-134
2,7074460,-3452,-1650,-984,-159,-246,-90,302,38,-134
2,7074468,-3455,-1650,-981,-159,-238,-87,302,38,-134
2,7074478,-3455,-1650,-981,-159,-238,-87,302,38,-134
2,7074486,-3458,-1646,-980,-156,-243,-83,307,41,-135
2,7074494,-3458,-1646,-980,-156,-243,-83,307,41,-135
2,7074502,-3457,-1650,-973,-156,-241,-88,307,41,-135
2,7074510,-3457,-1650,-973,-156,-241,-88,307,41,-135
2,7074519,-3457,-1650,-973,-156,-241,-88,307,41,-135
2,7074527,-3455,-1649,-981,-160,-238,-85,307,41,-135
2,7074535,-3455,-1649,-981,-160,-238,-85,307,41,-135
2,7074543,-3454,-1649,-981,-161,-235,-87,307,41,-135
2,7074552,-3454,-1649,-981,-161,-235,-87,307,41,-135
2,7074562,-3454,-1649,-983,-162,-248,-89,307,41,-135
2,7074571,-3454,-1649,-983,-162,-248,-89,307,41,-135
2,7074580,-3454,-1649,-983,-162,-248,-89,307,41,-135
2,7074589,-3453,-1649,-979,-157,-243,-89,307,41,-135
2,7074600,-3453,-1649,-979,-157,-243,-89,307,41,-135
2,7074614,-3454,-1648,-979,-156,-242,-86,307,35,-133
2,7074626,-3456,-1648,-975,-156,-237,-93,307,35,-133
2,7074634,-3456,-1648,-975,-156,-237,-93,307,35,-133
2,7074641,-3454,-1647,-976,-154,-240,-91,307,35,-133
2,7074650,-3454,-1647,-976,-154,-240,-91,307,35,-133
2,7074658,-3454,-1647,-976,-154,-240,-91,307,35,-133
2,7074670,-3453,-1646,-977,-155,-236,-82,307,35,-133
2,7074683,-3451,-1645,-978,-157,-235,-86,307,35,-133
2,7074697,-3451,-1645,-978,-157,-235,-86,307,35,-133
2,7074710,-3453,-1650,-980,-155,-237,-81,307,35,-133
2,7074721,-3452,-1649,-979,-162,-242,-81,307,35,-133
2,7074735,-3452,-1649,-979,-162,-242,-81,307,35,-133
2,7074748,-3456,-1649,-978,-153,-244,-82,309,39,-125
2,7074760,-3456,-1649,-978,-153,-244,-82,309,39,-125
2,7074774,-3458,-1651,-980,-161,-243,-79,309,39,-125
2,7074787,-3456,-1647,-982,-157,-245,-82,309,39,-125
2,7074799,-3456,-1647,-982,-157,-245,-82,309,39,-125
2,7074810,-3454,-1646,-976,-150,-247,-83,309,39,-125
2,7074824,-3453,-1650,-983,-154,-245,-86,309,39,-125
2,7074837,-3453,-1650,-983,-154,-245,-86,309,39,-125
2,7074850,-3453,-1650,-982,-160,-247,-89,309,39,-125
2,7074861,-3453,-1650,-982,-160,-247,-89,309,39,-125
2,7074873,-3450,-1649,-980,-160,-247,-86,310,36,-128
2,7074884,-3451,-1649,-983,-164,-243,-90,310,36,-128
2,7074892,-3451,-1649,-983,-164,-243,-90,310,36,-128
2,7074899,-3451,-1649,-983,-164,-243,-90,310,36,-128
2,7074906,-3458,-1649,-980,-164,-248,-85,310,36,-128
2,7074913,-3458,-1649,-980,-164,-248,-85,310,36,-128
2,7074921,-3458,-1649,-980,-164,-248,-85,310,36,-128
2,7074926,-3455,-1648,-986,-158,-242,-83,310,36,-128
2,7074935,-3455,-1648,-986,-158,-242,-83,310,36,-128
2,7074942,-3460,-1652,-979,-171,-244,-75,310,36,-128
2,7074951,-3460,-1652,-979,-171,-244,-75,310,36,-128
2,7074958,-3460,-1652,-979,-171,-244,-75,310,36,-128
2,7074966,-3456,-1650,-978,-165,-251,-80,310,36,-128
2,7074973,-3456,-1650,-978,-165,-251,-80,310,36,-128
2,7074980,-3456,-1650,-978,-165,-251,-80,310,36,-128
2,7074987,-3453,-1648,-975,-161,-248,-80,302,40,-136
2,7074994,-3453,-1648,-975,-161,-248,-80,302,40,-136
2,7075002,-3450,-1648,-978,-162,-242,-77,302,40,-136
2,7075008,-3450,-1648,-978,-162,-242,-77,302,40,-136
2,7075015,-3450,-1648,-978,-162,-242,-77,302,40,-136
2,7075020,-3450,-1648,-978,-162,-242,-77,302,40,-136
2,7075025,-3449,-1648,-982,-164,-245,-86,302,40,-136
2,7075033,-3449,-1648,-982,-164,-245,-86,302,40,-136
2,7075040,-3449,-1648,-982,-164,-245,-86,302,40,-136
2,7075047,-3450,-1648,-983,-163,-234,-81,302,40,-136
2,7075054,-3450,-1648,-983,-163,-234,-81,302,40,-136
2,7075062,-3455,-1649,-982,-160,-239,-86,302,40,-136
2,7075068,-3455,-1649,-982,-160,-239,-86,302,40,-136
2,7075075,-3455,-1649,-982,-160,-239,-86,302,40,-136
2,7075083,-3458,-1646,-984,-163,-244,-93,302,40,-136
2,7075089,-3458,-1646,-984,-163,-244,-93,302,40,-136
2,7075094,-3458,-1646,-984,-163,-244,-93,302,40,-136
2,7075102,-3456,-1647,-977,-163,-248,-86,304,40,-130
2,7075109,-3456,-1647,-977,-163,-248,-86,304,40,-130
2,7075117,-3456,-1647,-977,-163,-248,-86,304,40,-130
2,7075123,-3452,-1650,-979,-161,-241,-79,304,40,-130
2,7075128,-3452,-1650,-979,-161,-241,-79,304,40,-130
2,7075136,-3452,-1650,-979,-161,-241,-79,304,40,-130
2,7075144,-3455,-1650,-979,-159,-239,-89,304,40,-130
2,7075152,-3455,-1650,-979,-159,-239,-89,304,40,-130
2,7075160,-3455,-1650,-979,-159,-239,-89,304,40,-130
2,7075167,-3449,-1650,-979,-163,-247,-90,304,40,-130
2,7075173,-3449,-1650,-979,-163,-247,-90,304,40,-130
2,7075180,-3449,-1650,-979,-163,-247,-90,304,40,-130
2,7075188,-3449,-1650,-980,-162,-241,-88,304,40,-130
2,7075194,-3449,-1650,-980,-162,-241,-88,304,40,-130
2,7075201,-3449,-1650,-980,-162,-241,-88,304,40,-130
2,7075209,-3453,-1647,-980,-165,-242,-82,304,40,-130
2,7075216,-3453,-1647,-980,-165,-242,-82,304,40,-130
2,7075222,-3455,-1647,-976,-168,-246,-89,307,33,-125
2,7075230,-3455,-1647,-976,-168,-246,-89,307,33,-125
2,7075237,-3455,-1647,-976,-168,-246,-89,307,33,-125
2,7075245,-3457,-1650,-976,-164,-243,-79,307,33,-125
2,7075251,-3457,-1650,-976,-164,-243,-79,307,33,-125
2,7075259,-3457,-1650,-976,-164,-243,-79,307,33,-125
2,7075265,-3455,-1646,-980,-161,-240,-88,307,33,-125
2,7075274,-3455,-1646,-980,-161,-240,-88,307,33,-125
2,7075281,-3455,-1646,-980,-161,-240,-88,307,33,-125
2,7075288,-3452,-1648,-983,-157,-242,-83,307,33,-125
2,7075295,-3452,-1648,-983,-157,-242,-83,307,33,-125
2,7075303,-3448,-1646,-984,-163,-245,-80,307,33,-125
2,7075310,-3448,-1646,-984,-163,-245,-80,307,33,-125
2,7075319,-3448,-1646,-984,-163,-245,-80,307,33,-125
2,7075326,-3450,-1648,-983,-163,-244,-82,307,33,-125
2,7075332,-3450,-1648,-983,-163,-244,-82,307,33,-125
2,7075338,-3450,-1648,-983,-163,-244,-82,307,33,-125
2,7075345,-3454,-1648,-978,-159,-248,-84,307,33,-125
2,7075353,-3454,-1648,-978,-159,-248,-84,307,33,-125
2,7075361,-3454,-1648,-978,-159,-248,-84,307,33,-125
2,7075369,-3456,-1648,-980,-159,-250,-85,298,42,-130
2,7075376,-3456,-1648,-980,-159,-250,-85,298,42,-130
2,7075383,-3454,-1648,-976,-162,-243,-87,298,42,-130
2,7075389,-3454,-1648,-976,-162,-243,-87,298,42,-130
2,7075396,-3454,-1648,-976,-162,-243,-87,298,42,-130
2,7075404,-3454,-1647,-979,-163,-245,-76,298,42,-130
2,7075409,-3454,-1647,-979,-163,-245,-76,298,42,-130
2,7075415,-3454,-1647,-979,-163,-245,-76,298,42,-130
2,7075420,-3454,-1647,-979,-163,-245,-76,298,42,-130
2,7075425,-3451,-1648,-985,-164,-239,-83,298,42,-130
2,7075431,-3451,-1648,-985,-164,-239,-83,298,42,-130
2,7075436,-3451,-1648,-985,-164,-239,-83,298,42,-130
2,7075441,-3451,-1648,-985,-164,-239,-83,298,42,-130
2,7075447,-3450,-1650,-982,-166,-245,-86,298,42,-130
2,7075454,-3450,-1650,-982,-166,-245,-86,298,42,-130
2,7075462,-3450,-1650,-982,-166,-245,-86,298,42,-130
2,7075467,-3450,-1648,-986,-164,-243,-87,298,42,-130
2,7075475,-3450,-1648,-986,-164,-243,-87,298,42,-130
2,7075480,-3450,-1648,-986,-164,-243,-87,298,42,-130
2,7075487,-3453,-1647,-975,-162,-241,-84,309,35,-131
2,7075495,-3453,-1647,-975,-162,-241,-84,309,35,-131
2,7075503,-3457,-1648,-976,-165,-237,-94,309,35,-131
2,7075509,-3457,-1648,-976,-165,-237,-94,309,35,-131
2,7075516,-3457,-1648,-976,-165,-237,-94,309,35,-131
2,7075523,-3459,-1648,-979,-163,-239,-89,309,35,-131
2,7075529,-3459,-1648,-979,-163,-239,-89,309,35,-131
2,7075534,-3459,-1648,-979,-163,-239,-89,309,35,-131
2,7075540,-3459,-1648,-979,-163,-239,-89,309,35,-131
2,7075546,-3457,-1649,-984,-161,-244,-86,309,35,-131
2,7075553,-3457,-1649,-984,-161,-244,-86,309,35,-131
2,7075559,-3457,-1649,-984,-161,-244,-86,309,35,-131
2,7075566,-3454,-1651,-982,-164,-235,-77,309,35,-131
2,7075573,-3454,-1651,-982,-164,-235,-77,309,35,-131
2,7075579,-3454,-1651,-982,-164,-235,-77,309,35,-131
2,7075588,-3451,-1646,-982,-165,-241,-84,309,35,-131
2,7075594,-3451,-1646,-982,-165,-241,-84,309,35,-131
2,7075601,-3451,-1646,-982,-165,-241,-84,309,35,-131
2,7075608,-3449,-1649,-977,-160,-239,-80,304,36,-132
2,7075615,-3449,-1649,-977,-160,-239,-80,304,36,-132
2,7075622,-3448,-1648,-975,-163,-244,-85,304,36,-132
2,7075628,-3448,-1648,-975,-163,-244,-85,304,36,-132
2,7075633,-3448,-1648,-975,-163,-244,-85,304,36,-132
2,7075638,-3448,-1648,-975,-163,-244,-85,304,36,-132
2,7075643,-3454,-1651,-975,-165,-249,-84,304,36,-132
2,7075648,-3454,-1651,-975,-165,-249,-84,304,36,-132
2,7075653,-3454,-1651,-975,-165,-249,-84,304,36,-132
2,7075659,-3454,-1651,-975,-165,-249,-84,304,36,-132
2,7075667,-3457,-1648,-981,-159,-245,-84,304,36,-132
2,7075674,-3457,-1648,-981,-159,-245,-84,304,36,-132
2,7075683,-3456,-1649,-978,-162,-252,-86,304,36,-132
2,7075689,-3456,-1649,-978,-162,-252,-86,304,36,-132
2,7075695,-3456,-1649,-978,-162,-252,-86,304,36,-132
2,7075703,-3455,-1646,-985,-161,-245,-85,304,36,-132
2,7075709,-3455,-1646,-985,-161,-245,-85,304,36,-132
2,7075715,-3455,-1646,-985,-161,-245,-85,304,36,-132
2,7075724,-3450,-1647,-979,-159,-240,-85,308,40,-130
2,7075732,-3450,-1647,-979,-159,-240,-85,308,40,-130
2,7075739,-3450,-1647,-979,-159,-240,-85,308,40,-130
2,7075745,-3451,-1646,-974,-161,-240,-88,308,40,-130
2,7075755,-3451,-1646,-974,-161,-240,-88,308,40,-130
2,7075761,-3451,-1646,-974,-161,-240,-88,308,40,-130
2,7075768,-3451,-1647,-981,-163,-237,-91,308,40,-130
2,7075774,-3451,-1647,-981,-163,-237,-91,308,40,-130
2,7075781,-3451,-1647,-981,-163,-237,-91,308,40,-130
2,7075788,-3453,-1650,-981,-166,-246,-87,308,40,-130
2,7075798,-3453,-1650,-981,-166,-246,-87,308,40,-130
2,7075805,-3453,-1647,-981,-159,-234,-86,308,40,-130
2,7075813,-3453,-1647,-981,-159,-234,-86,308,40,-130
2,7075820,-3453,-1647,-981,-159,-234,-86,308,40,-130
2,7075828,-3457,-1645,-980,-160,-240,-87,308,40,-130
2,7075834,-3457,-1645,-980,-160,-240,-87,308,40,-130
2,7075841,-3457,-1645,-980,-160,-240,-87,308,40,-130
2,7075848,-3456,-1648,-975,-164,-250,-87,306,36,-124
2,7075856,-3456,-1648,-975,-164,-250,-87,306,36,-124
2,7075864,-3454,-1649,-980,-163,-247,-81,306,36,-124
2,7075872,-3454,-1649,-980,-163,-247,-81,306,36,-124
2,7075879,-3454,-1649,-980,-163,-247,-81,306,36,-124
2,7075885,-3455,-1649,-982,-164,-239,-84,306,36,-124
2,7075896,-3455,-1649,-982,-164,-239,-84,306,36,-124
2,7075910,-3452,-1648,-976,-164,-246,-87,306,36,-124
2,7075918,-3452,-1648,-976,-164,-246,-87,306,36,-124
2,7075931,-3451,-1647,-978,-166,-243,-88,306,36,-124
2,7075944,-3455,-1647,-978,-168,-237,-91,306,36,-124
2,7075958,-3455,-1647,-978,-168,-237,-91,306,36,-124
2,7075968,-3455,-1647,-978,-168,-237,-91,306,36,-124
2,7075981,-3455,-1647,-978,-168,-237,-91,306,36,-124
2,7075995,-3456,-1645,-979,-157,-251,-80,312,30,-130
2,7076008,-3450,-1648,-979,-156,-243,-75,312,30,-130
2,7076018,-3450,-1648,-979,-156,-243,-75,312,30,-130
2,7076030,-3453,-1646,-979,-158,-237,-81,312,30,-130
2,7076041,-3453,-1646,-979,-158,-237,-81,312,30,-130
2,7076055,-3455,-1650,-979,-154,-234,-83,312,30,-130
2,7076066,-3458,-1645,-986,-159,-246,-83,312,30,-130
2,7076081,-3458,-1645,-986,-159,-246,-83,312,30,-130
2,7076092,-3453,-1649,-980,-160,-245,-78,312,30,-130
2,7076105,-3456,-1648,-968,-161,-245,-86,310,36,-136
2,7076119,-3456,-1648,-968,-161,-245,-86,310,36,-136
2,7076131,-3458,-1651,-974,-157,-243,-86,310,36,-136
2,7076144,-3455,-1651,-977,-167,-246,-77,310,36,-136
2,7076153,-3455,-1651,-977,-167,-246,-77,310,36,-136
2,7076160,-3455,-1651,-977,-167,-246,-77,310,36,-136
2,7076169,-3454,-1647,-984,-163,-245,-86,310,36,-136
2,7076176,-3454,-1647,-984,-163,-245,-86,310,36,-136
2,7076187,-3456,-1650,-983,-157,-239,-80,310,36,-136
2,7076199,-3456,-1650,-983,-157,-239,-80,310,36,-136
2,7076213,-3453,-1650,-981,-162,-240,-86,310,36,-136
2,7076227,-3456,-1649,-976,-165,-237,-89,307,41,-129
2,7076237,-3456,-1649,-976,-165,-237,-89,307,41,-129
2,7076248,-3456,-1650,-979,-164,-242,-88,307,41,-129
2,7076260,-3456,-1650,-979,-164,-242,-88,307,41,-129
2,7076273,-3459,-1651,-983,-160,-245,-88,307,41,-129
2,7076285,-3460,-1650,-981,-156,-241,-88,307,41,-129
2,7076299,-3460,-1650,-981,-156,-241,-88,307,41,-129
2,7076312,-3454,-1650,-983,-161,-247,-84,307,41,-129
2,7076325,-3452,-1650,-977,-169,-248,-87,307,41,-129
2,7076338,-3452,-1650,-977,-169,-248,-87,307,41,-129
2,7076352,-3451,-1646,-976,-158,-241,-86,314,38,-134
2,7076364,-3452,-1649,-977,-160,-241,-92,314,38,-134
2,7076376,-3452,-1649,-977,-160,-241,-92,314,38,-134
2,7076389,-3452,-1649,-976,-157,-240,-93,314,38,-134
2,7076402,-3452,-1649,-976,-157,-240,-93,314,38,-134
2,7076411,-3454,-1647,-981,-157,-244,-88,314,38,-134
2,7076419,-3454,-1647,-981,-157,-244,-88,314,38,-134
2,7076426,-3456,-1647,-982,-163,-247,-92,314,38,-134
2,7076435,-3456,-1647,-982,-163,-247,-92,314,38,-134
2,7076443,-3455,-1652,-978,-166,-242,-85,314,38,-134
2,7076451,-3455,-1652,-978,-166,-242,-85,314,38,-134
2,7076459,-3455,-1652,-978,-166,-242,-85,314,38,-134
2,7076467,-3458,-1649,-981,-158,-241,-81,304,34,-128
2,7076475,-3458,-1649,-981,-158,-241,-81,304,34,-128
2,7076484,-3454,-1648,-974,-159,-236,-84,304,34,-128
2,7076491,-3454,-1648,-974,-159,-236,-84,304,34,-128
2,7076499,-3454,-1648,-974,-159,-236,-84,304,34,-128
2,7076509,-3453,-1650,-976,-161,-239,-86,304,34,-128
2,7076520,-3453,-1650,-976,-161,-239,-86,304,34,-128
2,7076530,-3453,-1647,-979,-156,-243,-91,304,34,-128
2,7076538,-3453,-1647,-979,-156,-243,-91,304,34,-128
2,7076548,-3457,-1647,-983,-159,-249,-86,304,34,-128
2,7076557,-3457,-1647,-983,-159,-249,-86,304,34,-128
2,7076567,-3457,-1647,-982,-162,-242,-83,304,34,-128
2,7076580,-3457,-1647,-982,-162,-242,-83,304,34,-128
2,7076589,-3457,-1648,-983,-164,-243,-90,304,34,-128
2,7076601,-3457,-1648,-983,-164,-243,-90,304,34,-128
2,7076615,-3454,-1646,-976,-161,-235,-84,307,39,-133
2,7076626,-3453,-1647,-979,-169,-244,-81,307,39,-133
2,7076634,-3453,-1647,-979,-169,-244,-81,307,39,-133
2,7076642,-3453,-1647,-979,-169,-244,-81,307,39,-133
2,7076651,-3451,-1649,-981,-167,-235,-81,307,39,-133
2,7076659,-3451,-1649,-981,-167,-235,-81,307,39,-133
2,7076670,-3457,-1650,-976,-160,-244,-80,307,39,-133
2,7076683,-3456,-1644,-979,-164,-247,-87,307,39,-133
2,7076696,-3456,-1644,-979,-164,-247,-87,307,39,-133
2,7076705,-3454,-1650,-979,-164,-241,-80,307,39,-133
2,7076717,-3454,-1650,-979,-164,-241,-80,307,39,-133
2,7076730,-3456,-1648,-974,-163,-242,-82,306,42,-126
2,7076743,-3456,-1648,-974,-163,-242,-82,306,42,-126
2,7076754,-3453,-1646,-978,-165,-235,-82,306,42,-126
2,7076768,-3453,-1649,-979,-164,-244,-81,306,42,-126
2,7076781,-3453,-1649,-979,-164,-244,-81,306,42,-126
2,7076793,-3452,-1649,-978,-154,-243,-87,306,42,-126
2,7076805,-3457,-1648,-981,-157,-245,-83,306,42,-126
2,7076815,-3457,-1648,-981,-157,-245,-83,306,42,-126
2,7076825,-3457,-1649,-979,-160,-242,-88,306,42,-126
2,7076833,-3457,-1649,-979,-160,-242,-88,306,42,-126
2,7076840,-3457,-1649,-979,-160,-242,-88,306,42,-126
2,7076849,-3454,-1649,-979,-159,-245,-83,307,43,-131
2,7076857,-3454,-1649,-979,-159,-245,-83,307,43,-131
2,7076870,-3458,-1650,-977,-155,-245,-85,307,43,-131
2,7076884,-3458,-1646,-981,-160,-246,-80,307,43,-131
2,7076897,-3458,-1646,-981,-160,-246,-80,307,43,-131
2,7076904,-3455,-1650,-973,-161,-242,-77,307,43,-131
2,7076913,-3455,-1650,-973,-161,-242,-77,307,43,-131
2,7076920,-3455,-1650,-973,-161,-242,-77,307,43,-131
2,7076927,-3453,-1646,-979,-151,-243,-84,307,43,-131
2,7076933,-3453,-1646,-979,-151,-243,-84,307,43,-131
2,7076940,-3453,-1646,-979,-151,-243,-84,307,43,-131
2,7076947,-3454,-1648,-981,-159,-242,-81,307,43,-131
2,7076954,-3454,-1648,-981,-159,-242,-81,307,43,-131
2,7076962,-3454,-1648,-981,-159,-242,-81,307,43,-131
2,7076970,-3456,-1647,-979,-158,-241,-86,304,42,-130
2,7076977,-3456,-1647,-979,-158,-241,-86,304,42,-130
2,7076984,-3457,-1647,-977,-164,-253,-86,304,42,-130
2,7076992,-3457,-1647,-977,-164,-253,-86,304,42,-130
2,7076999,-3457,-1647,-977,-164,-253,-86,304,42,-130
2,7077005,-3458,-1647,-978,-164,-243,-83,304,42,-130
2,7077013,-3458,-1647,-978,-164,-243,-83,304,42,-130
2,7077020,-3458,-1647,-978,-164,-243,-83,304,42,-130
2,7077026,-3454,-1645,-977,-160,-231,-86,304,42,-130
2,7077033,-3454,-1645,-977,-160,-231,-86,304,42,-130
2,7077041,-3454,-1645,-977,-160,-231,-86,304,42,-130
2,7077049,-3452,-1650,-981,-167,-242,-85,304,42,-130
2,7077054,-3452,-1650,-981,-167,-242,-85,304,42,-130
2,7077063,-3452,-1650,-981,-167,-242,-85,304,42,-130
2,7077070,-3454,-1648,-978,-162,-250,-87,304,42,-130
2,7077079,-3454,-1648,-978,-162,-250,-87,304,42,-130
2,7077086,-3454,-1647,-978,-164,-244,-82,302,38,-134
2,7077092,-3454,-1647,-978,-164,-244,-82,302,38,-134
2,7077098,-3454,-1647,-978,-164,-244,-82,302,38,-134
2,7077105,-3457,-1650,-981,-162,-244,-80,302,38,-134
2,7077113,-3457,-1650,-981,-162,-244,-80,302,38,-134
2,7077121,-3457,-1650,-981,-162,-244,-80,302,38,-134
2,7077128,-3453,-1649,-974,-158,-244,-85,302,38,-134
2,7077135,-3453,-1649,-974,-158,-244,-85,302,38,-134
2,7077142,-3453,-1649,-974,-158,-244,-85,302,38,-134
2,7077149,-3455,-1649,-979,-158,-243,-89,302,38,-134
2,7077155,-3455,-1649,-979,-158,-243,-89,302,38,-134
2,7077163,-3455,-1649,-979,-158,-243,-89,302,38,-134
2,7077171,-3457,-1646,-982,-161,-240,-86,302,38,-134
2,7077178,-3457,-1646,-982,-161,-240,-86,302,38,-134
2,7077185,-3455,-1647,-984,-160,-250,-90,302,38,-134
2,7077192,-3455,-1647,-984,-160,-250,-90,302,38,-134
2,7077199,-3455,-1647,-984,-160,-250,-90,302,38,-134
2,7077206,-3455,-1646,-979,-163,-244,-84,302,38,-134
2,7077213,-3455,-1646,-979,-163,-244,-84,302,38,-134
2,7077221,-3455,-1646,-979,-163,-244,-84,302,38,-134
2,7077228,-3451,-1647,-985,-158,-241,-85,304,36,-128
2,7077235,-3451,-1647,-985,-158,-241,-85,304,36,-128
2,7077242,-3451,-1647,-985,-158,-241,-85,304,36,-128
2,7077250,-3452,-1647,-979,-160,-245,-83,304,36,-128
2,7077256,-3452,-1647,-979,-160,-245,-83,304,36,-128
2,7077264,-3457,-1648,-983,-157,-241,-85,304,36,-128
2,7077272,-3457,-1648,-983,-157,-241,-85,304,36,-128
2,7077280,-3457,-1648,-983,-157,-241,-85,304,36,-128
2,7077288,-3457,-1648,-979,-161,-242,-78,304,36,-128
2,7077296,-3457,-1648,-979,-161,-242,-78,304,36,-128
2,7077303,-3457,-1648,-979,-161,-242,-78,304,36,-128
2,7077308,-3457,-1650,-981,-157,-242,-79,304,36,-128
2,7077315,-3457,-1650,-981,-157,-242,-79,304,36,-128
2,7077322,-3457,-1650,-981,-157,-242,-79,304,36,-128
2,7077330,-3452,-1647,-979,-162,-238,-84,304,36,-128
2,7077338,-3452,-1647,-979,-162,-238,-84,304,36,-128
2,7077346,-3452,-1645,-977,-165,-245,-89,301,41,-133
2,7077353,-3452,-1645,-977,-165,-245,-89,301,41,-133
2,7077361,-3452,-1645,-977,-165,-245,-89,301,41,-133
2,7077367,-3452,-1645,-977,-160,-241,-85,301,41,-133
2,7077373,-3452,-1645,-977,-160,-241,-85,301,41,-133
2,7077382,-3452,-1645,-977,-160,-241,-85,301,41,-133
2,7077389,-3454,-1646,-981,-161,-242,-89,301,41,-133
2,7077396,-3454,-1646,-981,-161,-242,-89,301,41,-133
2,7077402,-3454,-1646,-981,-161,-242,-89,301,41,-133
2,7077407,-3457,-1651,-979,-160,-235,-87,301,41,-133
2,7077413,-3457,-1651,-979,-160,-235,-87,301,41,-133
2,7077420,-3457,-1651,-979,-160,-235,-87,301,41,-133
2,7077425,-3455,-1648,-981,-161,-238,-89,301,41,-133
2,7077430,-3455,-1648,-981,-161,-238,-89,301,41,-133
2,7077436,-3455,-1648,-981,-161,-238,-89,301,41,-133
2,7077441,-3455,-1648,-981,-161,-238,-89,301,41,-133
2,7077446,-3455,-1650,-978,-154,-249,-92,301,41,-133
2,7077451,-3455,-1650,-978,-154,-249,-92,301,41,-133
2,7077457,-3455,-1650,-978,-154,-249,-92,301,41,-133
2,7077464,-3456,-1649,-973,-160,-239,-86,303,41,-133
2,7077471,-3456,-1649,-973,-160,-239,-86,303,41,-133
2,7077478,-3456,-1649,-973,-160,-239,-86,303,41,-133
2,7077486,-3453,-1650,-978,-159,-238,-84,303,41,-133
2,7077491,-3453,-1650,-978,-159,-238,-84,303,41,-133
2,7077498,-3453,-1650,-978,-159,-238,-84,303,41,-133
2,7077507,-3452,-1646,-982,-161,-240,-83,303,41,-133
2,7077514,-3452,-1646,-982,-161,-240,-83,303,41,-133
2,7077520,-3452,-1646,-982,-161,-240,-83,303,41,-133
2,7077526,-3450,-1649,-981,-159,-239,-85,303,41,-133
2,7077532,-3450,-1649,-981,-159,-239,-85,303,41,-133
2,7077538,-3450,-1649,-981,-159,-239,-85,303,41,-133
2,7077543,-3450,-1649,-981,-159,-239,-85,303,41,-133
2,7077552,-3454,-1647,-985,-164,-236,-83,303,41,-133
2,7077557,-3454,-1647,-985,-164,-236,-83,303,41,-133
2,7077564,-3455,-1650,-986,-167,-237,-80,303,41,-133
2,7077572,-3455,-1650,-986,-167,-237,-80,303,41,-133
2,7077579,-3455,-1650,-986,-167,-237,-80,303,41,-133
2,7077586,-3460,-1651,-974,-166,-244,-85,298,32,-132
2,7077594,-3460,-1651,-974,-166,-244,-85,298,32,-132
2,7077601,-3460,-1651,-974,-166,-244,-85,298,32,-132
2,7077608,-3457,-1648,-976,-162,-244,-80,298,32,-132
2,7077615,-3457,-1648,-976,-162,-244,-80,298,32,-132
2,7077623,-3456,-1648,-978,-161,-236,-89,298,32,-132
2,7077628,-3456,-1648,-978,-161,-236,-89,298,32,-132
2,7077634,-3456,-1648,-978,-161,-236,-89,298,32,-132
2,7077639,-3456,-1648,-978,-161,-236,-89,298,32,-132
2,7077644,-3454,-1648,-979,-165,-234,-87,298,32,-132
2,7077649,-3454,-1648,-979,-165,-234,-87,298,32,-132
2,7077655,-3454,-1648,-979,-165,-234,-87,298,32,-132
2,7077661,-3454,-1648,-979,-165,-234,-87,298,32,-132
2,7077668,-3449,-1645,-980,-166,-237,-81,298,32,-132
2,7077676,-3449,-1645,-980,-166,-237,-81,298,32,-132
2,7077683,-3449,-1645,-980,-166,-237,-81,298,32,-132
2,7077689,-3453,-1649,-978,-165,-240,-82,298,32,-132
2,7077698,-3453,-1649,-978,-165,-240,-82,298,32,-132
2,7077706,-3452,-1650,-980,-165,-246,-87,302,36,-134
2,7077712,-3452,-1650,-980,-165,-246,-87,302,36,-134
2,7077721,-3452,-1650,-980,-165,-246,-87,302,36,-134
2,7077728,-3454,-1647,-977,-165,-241,-82,302,36,-134
2,7077735,-3454,-1647,-977,-165,-241,-82,302,36,-134
2,7077743,-3454,-1647,-977,-165,-241,-82,302,36,-134
2,7077750,-3454,-1644,-981,-163,-238,-85,302,36,-134
2,7077757,-3454,-1644,-981,-163,-238,-85,302,36,-134
2,7077766,-3456,-1647,-983,-159,-244,-88,302,36,-134
2,7077774,-3456,-1647,-983,-159,-244,-88,302,36,-134
2,7077782,-3456,-1647,-983,-159,-244,-88,302,36,-134
2,7077789,-3460,-1651,-978,-160,-239,-80,302,36,-134
2,7077795,-3460,-1651,-978,-160,-239,-80,302,36,-134
2,7077803,-3460,-1651,-978,-160,-239,-80,302,36,-134
2,7077811,-3454,-1652,-978,-161,-246,-86,302,36,-134
2,7077817,-3454,-1652,-978,-161,-246,-86,302,36,-134
2,7077825,-3454,-1650,-983,-159,-242,-90,304,40,-126
2,7077832,-3454,-1650,-983,-159,-242,-90,304,40,-126
2,7077840,-3454,-1650,-983,-159,-242,-90,304,40,-126
2,7077848,-3450,-1646,-977,-161,-250,-85,304,40,-126
2,7077854,-3450,-1646,-977,-161,-250,-85,304,40,-126
2,7077860,-3450,-1646,-977,-161,-250,-85,304,40,-126
2,7077867,-3452,-1645,-976,-170,-247,-82,304,40,-126
2,7077875,-3452,-1645,-976,-170,-247,-82,304,40,-126
2,7077882,-3452,-1645,-976,-170,-247,-82,304,40,-126
2,7077891,-3458,-1645,-981,-162,-238,-79,304,40,-126
2,7077898,-3458,-1645,-981,-162,-238,-79,304,40,-126
2,7077905,-3457,-1646,-980,-157,-241,-84,304,40,-126
2,7077916,-3457,-1646,-980,-157,-241,-84,304,40,-126
2,7077926,-3458,-1646,-982,-163,-246,-84,304,40,-126
2,7077940,-3458,-1646,-982,-163,-246,-84,304,40,-126
2,7077953,-3451,-1649,-983,-169,-237,-85,304,40,-126
2,7077962,-3451,-1649,-983,-169,-237,-85,304,40,-126
2,7077975,-3450,-1647,-982,-169,-239,-88,300,34,-128
2,7077989,-3452,-1648,-979,-169,-244,-78,300,34,-128
2,7078003,-3452,-1648,-979,-169,-244,-78,300,34,-128
2,7078012,-3452,-1648,-982,-163,-233,-81,300,34,-128
2,7078025,-3454,-1649,-982,-164,-241,-90,300,34,-128
2,7078038,-3454,-1649,-982,-164,-241,-90,300,34,-128
2,7078051,-3456,-1647,-986,-155,-239,-87,300,34,-128
2,7078062,-3456,-1647,-986,-155,-239,-87,300,34,-128
2,7078076,-3453,-1650,-975,-155,-236,-86,300,34,-128
2,7078088,-3455,-1652,-975,-166,-237,-83,310,40,-136
2,7078102,-3455,-1652,-975,-166,-237,-83,310,40,-136
2,7078112,-3458,-1648,-980,-164,-244,-93,310,40,-136
2,7078124,-3458,-1648,-980,-164,-244,-93,310,40,-136
2,7078133,-3456,-1648,-981,-167,-236,-83,310,40,-136
2,7078141,-3456,-1648,-981,-167,-236,-83,310,40,-136
2,7078154,-3456,-1648,-981,-167,-236,-83,310,40,-136
2,7078168,-3452,-1647,-978,-162,-244,-93,310,40,-136
2,7078179,-3452,-1647,-978,-162,-244,-93,310,40,-136
2,7078192,-3451,-1649,-980,-155,-237,-83,310,40,-136
2,7078206,-3453,-1650,-976,-165,-246,-87,308,40,-130
2,7078219,-3453,-1650,-976,-165,-246,-87,308,40,-130
2,7078230,-3455,-1645,-978,-161,-248,-93,308,40,-130
2,7078243,-3455,-1645,-978,-161,-248,-93,308,40,-130
2,7078257,-3454,-1651,-981,-160,-244,-86,308,40,-130
2,7078270,-3454,-1649,-982,-161,-240,-88,308,40,-130
2,7078281,-3454,-1649,-982,-161,-240,-88,308,40,-130
2,7078293,-3453,-1651,-981,-159,-234,-81,308,40,-130
2,7078306,-3454,-1652,-981,-161,-240,-89,308,40,-130
2,7078320,-3454,-1652,-981,-161,-240,-89,308,40,-130
2,7078330,-3455,-1646,-975,-164,-240,-89,304,36,-136
2,7078342,-3455,-1646,-975,-164,-240,-89,304,36,-136
2,7078353,-3453,-1647,-976,-161,-240,-85,304,36,-136
2,7078366,-3454,-1649,-977,-166,-243,-79,304,36,-136
2,7078378,-3454,-1649,-977,-166,-243,-79,304,36,-136
2,7078392,-3453,-1649,-980,-161,-245,-82,304,36,-136
2,7078405,-3455,-1650,-983,-155,-243,-88,304,36,-136
2,7078413,-3455,-1650,-983,-155,-243,-88,304,36,-136
2,7078422,-3455,-1650,-983,-155,-243,-88,304,36,-136
2,7078430,-3458,-1652,-984,-160,-238,-86,304,36,-136
2,7078438,-3458,-1652,-984,-160,-238,-86,304,36,-136
2,7078447,-3453,-1648,-980,-161,-240,-88,309,41,-135
2,7078455,-3453,-1648,-980,-161,-240,-88,309,41,-135
2,7078463,-3453,-1648,-980,-161,-240,-88,309,41,-135
2,7078471,-3452,-1647,-983,-161,-238,-81,309,41,-135
2,7078478,-3452,-1647,-983,-161,-238,-81,309,41,-135
2,7078487,-3452,-1650,-984,-163,-238,-82,309,41,-135
2,7078495,-3452,-1650,-984,-163,-238,-82,309,41,-135
2,7078503,-3452,-1650,-984,-163,-238,-82,309,41,-135
2,7078512,-3455,-1649,-975,-160,-245,-84,309,41,-135
2,7078520,-3455,-1649,-975,-160,-245,-84,309,41,-135
2,7078530,-3457,-1647,-979,-164,-236,-90,309,41,-135
2,7078542,-3457,-1647,-979,-164,-236,-90,309,41,-135
2,7078554,-3460,-1651,-979,-162,-230,-94,309,41,-135
2,7078564,-3460,-1651,-979,-162,-230,-94,309,41,-135
2,7078577,-3456,-1650,-974,-162,-233,-90,309,41,-135
2,7078590,-3452,-1648,-978,-164,-240,-84,299,31,-139
2,7078602,-3452,-1648,-978,-164,-240,-84,299,31,-139
2,7078614,-3455,-1647,-981,-153,-249,-81,299,31,-139
2,7078625,-3454,-1647,-978,-154,-241,-79,299,31,-139
2,7078634,-3454,-1647,-978,-154,-241,-79,299,31,-139
2,7078642,-3454,-1647,-978,-154,-241,-79,299,31,-139
2,7078651,-3452,-1647,-981,-159,-240,-78,299,31,-139
2,7078660,-3452,-1647,-981,-159,-240,-78,299,31,-139
2,7078669,-3455,-1649,-979,-159,-239,-87,299,31,-139
2,7078677,-3455,-1649,-979,-159,-239,-87,299,31,-139
2,7078685,-3455,-1649,-982,-167,-245,-82,299,31,-139
2,7078694,-3455,-1649,-982,-167,-245,-82,299,31,-139
2,7078706,-3457,-1651,-971,-160,-239,-84,315,35,-135
2,7078716,-3457,-1651,-971,-160,-239,-84,315,35,-135
2,7078730,-3457,-1649,-981,-162,-234,-86,315,35,-135
2,7078743,-3457,-1649,-981,-162,-234,-86,315,35,-135
2,7078755,-3458,-1648,-988,-162,-240,-86,315,35,-135
2,7078766,-3454,-1648,-980,-150,-243,-84,315,35,-135
2,7078780,-3454,-1648,-980,-150,-243,-84,315,35,-135
2,7078792,-3453,-1651,-980,-151,-237,-90,315,35,-135
2,7078801,-3453,-1651,-980,-151,-237,-90,315,35,-135
2,7078813,-3458,-1649,-989,-158,-245,-87,315,35,-135
2,7078827,-3456,-1649,-978,-157,-241,-90,305,35,-127
2,7078839,-3456,-1649,-978,-157,-241,-90,305,35,-127
2,7078849,-3455,-1647,-977,-164,-246,-80,305,35,-127
2,7078863,-3455,-1647,-977,-164,-246,-80,305,35,-127
2,7078876,-3459,-1647,-978,-164,-246,-89,305,35,-127
2,7078888,-3453,-1647,-978,-161,-245,-89,305,35,-127
2,7078899,-3453,-1647,-978,-161,-245,-89,305,35,-127
2,7078908,-3455,-1651,-982,-163,-237,-82,305,35,-127
2,7078917,-3455,-1651,-982,-163,-237,-82,305,35,-127
2,7078924,-3455,-1651,-982,-163,-237,-82,305,35,-127
2,7078932,-3452,-1649,-980,-161,-244,-86,305,35,-127
2,7078938,-3452,-1649,-980,-161,-244,-86,305,35,-127
2,7078945,-3452,-1649,-980,-161,-244,-86,305,35,-127
2,7078951,-3457,-1648,-979,-159,-246,-85,305,37,-127
2,7078959,-3457,-1648,-979,-159,-246,-85,305,37,-127
2,7078967,-3455,-1648,-980,-166,-243,-82,305,37,-127
2,7078974,-3455,-1648,-980,-166,-243,-82,305,37,-127
2,7078982,-3455,-1648,-980,-166,-243,-82,305,37,-127
2,7078989,-3451,-1650,-976,-158,-246,-91,305,37,-127
2,7078996,-3451,-1650,-976,-158,-246,-91,305,37,-127
2,7079003,-3451,-1650,-976,-158,-246,-91,305,37,-127
2,7079010,-3457,-1650,-979,-158,-240,-91,305,37,-127
2,7079017,-3457,-1650,-979,-158,-240,-91,305,37,-127
2,7079024,-3457,-1650,-979,-158,-240,-91,305,37,-127
2,7079030,-3455,-1647,-983,-167,-236,-84,305,37,-127
2,7079038,-3455,-1647,-983,-167,-236,-84,305,37,-127
2,7079047,-3453,-1649,-980,-161,-240,-84,305,37,-127
2,7079056,-3453,-1649,-980,-161,-240,-84,305,37,-127
2,7079064,-3453,-1649,-980,-161,-240,-84,305,37,-127
2,7079072,-3455,-1647,-976,-157,-242,-86,301,47,-129
2,7079079,-3455,-1647,-976,-157,-242,-86,301,47,-129
2,7079087,-3452,-1645,-978,-163,-236,-86,301,47,-129
2,7079094,-3452,-1645,-978,-163,-236,-86,301,47,-129
2,7079100,-3452,-1645,-978,-163,-236,-86,301,47,-129
2,7079107,-3455,-1648,-970,-159,-245,-82,301,47,-129
2,7079114,-3455,-1648,-970,-159,-245,-82,301,47,-129
2,7079122,-3455,-1648,-970,-159,-245,-82,301,47,-129
2,7079131,-3455,-1650,-976,-164,-244,-81,301,47,-129
2,7079137,-3455,-1650,-976,-164,-244,-81,301,47,-129
2,7079143,-3455,-1650,-976,-164,-244,-81,301,47,-129
2,7079151,-3454,-1648,-977,-157,-246,-87,301,47,-129
2,7079157,-3454,-1648,-977,-157,-246,-87,301,47,-129
2,7079164,-3454,-1648,-977,-157,-246,-87,301,47,-129
2,7079171,-3453,-1649,-980,-166,-247,-79,301,47,-129
2,7079176,-3453,-1649,-980,-166,-247,-79,301,47,-129
2,7079181,-3453,-1649,-980,-166,-247,-79,301,47,-129
2,7079187,-3453,-1646,-981,-159,-250,-88,301,47,-129
2,7079195,-3453,-1646,-981,-159,-250,-88,301,47,-129
2,7079202,-3453,-1646,-981,-159,-250,-88,301,47,-129
2,7079208,-3456,-1647,-977,-161,-245,-92,298,38,-126
2,7079215,-3456,-1647,-977,-161,-245,-92,298,38,-126
2,7079223,-3456,-1647,-977,-161,-245,-92,298,38,-126
2,7079230,-3456,-1649,-979,-164,-246,-83,298,38,-126
2,7079237,-3456,-1649,-979,-164,-246,-83,298,38,-126
2,7079243,-3456,-1649,-979,-164,-246,-83,298,38,-126
2,7079249,-3453,-1649,-979,-164,-247,-83,298,38,-126
2,7079258,-3453,-1649,-979,-164,-247,-83,298,38,-126
2,7079264,-3453,-1649,-979,-164,-247,-83,298,38,-126
2,7079271,-3456,-1646,-981,-168,-241,-84,298,38,-126
2,7079278,-3456,-1646,-981,-168,-241,-84,298,38,-126
2,7079284,-3456,-1646,-981,-168,-241,-84,298,38,-126
2,7079291,-3455,-1649,-981,-168,-243,-86,298,38,-126
2,7079299,-3455,-1649,-981,-168,-243,-86,298,38,-126
2,7079307,-3455,-1648,-984,-167,-242,-87,298,38,-126
2,7079314,-3455,-1648,-984,-167,-242,-87,298,38,-126
2,7079321,-3455,-1648,-984,-167,-242,-87,298,38,-126
2,7079328,-3457,-1652,-980,-160,-246,-87,302,38,-130
2,7079335,-3457,-1652,-980,-160,-246,-87,302,38,-130
2,7079343,-3457,-1652,-980,-160,-246,-87,302,38,-130
2,7079351,-3455,-1649,-979,-170,-255,-87,302,38,-130
2,7079358,-3455,-1649,-979,-170,-255,-87,302,38,-130
2,7079364,-3455,-1649,-979,-170,-255,-87,302,38,-130
2,7079371,-3453,-1646,-979,-170,-247,-81,302,38,-130
2,7079378,-3453,-1646,-979,-170,-247,-81,302,38,-130
2,7079384,-3453,-1646,-979,-170,-247,-81,302,38,-130
2,7079393,-3451,-1651,-981,-168,-243,-87,302,38,-130
2,7079402,-3451,-1651,-981,-168,-243,-87,302,38,-130
2,7079407,-3454,-1647,-982,-159,-238,-86,302,38,-130
2,7079412,-3454,-1647,-982,-159,-238,-86,302,38,-130
2,7079417,-3454,-1647,-982,-159,-238,-86,302,38,-130
2,7079422,-3454,-1647,-982,-159,-238,-86,302,38,-130
2,7079428,-3456,-1649,-980,-163,-241,-89,302,38,-130
2,7079432,-3456,-1649,-980,-163,-241,-89,302,38,-130
2,7079438,-3456,-1649,-980,-163,-241,-89,302,38,-130
2,7079443,-3456,-1649,-980,-163,-241,-89,302,38,-130
2,7079450,-3456,-1648,-978,-163,-243,-89,309,37,-129
2,7079456,-3456,-1648,-978,-163,-243,-89,309,37,-129
2,7079463,-3456,-1648,-978,-163,-243,-89,309,37,-129
2,7079471,-3456,-1649,-978,-167,-237,-79,309,37,-129
2,7079478,-3456,-1649,-978,-167,-237,-79,309,37,-129
2,7079484,-3456,-1649,-978,-167,-237,-79,309,37,-129
2,7079491,-3454,-1647,-979,-160,-240,-86,309,37,-129
2,7079500,-3454,-1647,-979,-160,-240,-86,309,37,-129
2,7079507,-3455,-1649,-978,-155,-249,-91,309,37,-129
2,7079515,-3455,-1649,-978,-155,-249,-91,309,37,-129
2,7079522,-3455,-1649,-978,-155,-249,-91,309,37,-129
2,7079530,-3455,-1649,-981,-168,-254,-86,309,37,-129
2,7079537,-3455,-1649,-981,-168,-254,-86,309,37,-129
2,7079544,-3455,-1649,-981,-168,-254,-86,309,37,-129
2,7079553,-3457,-1649,-980,-164,-235,-83,309,37,-129
2,7079560,-3457,-1649,-980,-164,-235,-83,309,37,-129
2,7079566,-3456,-1649,-979,-165,-242,-81,305,39,-135
2,7079573,-3456,-1649,-979,-165,-242,-81,305,39,-135
2,7079580,-3456,-1649,-979,-165,-242,-81,305,39,-135
2,7079585,-3456,-1649,-979,-165,-242,-81,305,39,-135
2,7079593,-3455,-1646,-981,-166,-243,-92,305,39,-135
2,7079601,-3455,-1646,-981,-166,-243,-92,305,39,-135
2,7079610,-3453,-1649,-976,-162,-240,-89,305,39,-135
2,7079615,-3453,-1649,-976,-162,-240,-89,305,39,-135
2,7079622,-3453,-1649,-976,-162,-240,-89,305,39,-135
2,7079627,-3453,-1647,-984,-170,-238,-82,305,39,-135
2,7079632,-3453,-1647,-984,-170,-238,-82,305,39,-135
2,7079638,-3453,-1647,-984,-170,-238,-82,305,39,-135
2,7079643,-3453,-1647,-984,-170,-238,-82,305,39,-135
2,7079649,-3454,-1650,-978,-168,-240,-81,305,39,-135
2,7079654,-3454,-1650,-978,-168,-240,-81,305,39,-135
2,7079662,-3454,-1650,-978,-168,-240,-81,305,39,-135
2,7079670,-3453,-1645,-982,-166,-238,-88,305,39,-135
2,7079677,-3453,-1645,-982,-166,-238,-88,305,39,-135
2,7079685,-3453,-1645,-982,-166,-238,-88,305,39,-135
2,7079691,-3454,-1646,-978,-170,-246,-92,307,35,-131
2,7079698,-3454,-1646,-978,-170,-246,-92,307,35,-131
2,7079705,-3454,-1646,-978,-170,-246,-92,307,35,-131
2,7079713,-3457,-1649,-973,-171,-244,-84,307,35,-131
2,7079720,-3457,-1649,-973,-171,-244,-84,307,35,-131
2,7079727,-3457,-1650,-972,-160,-246,-93,307,35,-131
2,7079733,-3457,-1650,-972,-160,-246,-93,307,35,-131
2,7079742,-3457,-1650,-972,-160,-246,-93,307,35,-131
2,7079748,-3453,-1649,-982,-155,-246,-81,307,35,-131
2,7079755,-3453,-1649,-982,-155,-246,-81,307,35,-131
2,7079762,-3453,-1649,-982,-155,-246,-81,307,35,-131
2,7079771,-3455,-1647,-977,-162,-241,-76,307,35,-131
2,7079777,-3455,-1647,-977,-162,-241,-76,307,35,-131
2,7079783,-3455,-1647,-977,-162,-241,-76,307,35,-131
2,7079789,-3453,-1649,-984,-167,-241,-77,307,35,-131
2,7079795,-3453,-1649,-984,-167,-241,-77,307,35,-131
2,7079802,-3453,-1649,-984,-167,-241,-77,307,35,-131
2,7079810,-3453,-1649,-984,-167,-241,-77,307,35,-131
2,7079817,-3453,-1649,-984,-167,-241,-77,307,35,-131
2,7079823,-3453,-1649,-984,-167,-241,-77,307,35,-131
2,7079831,-3453,-1649,-976,-159,-243,-81,313,41,-139
2,7079838,-3453,-1649,-976,-159,-243,-81,313,41,-139
2,7079844,-3453,-1649,-976,-159,-243,-81,313,41,-139
2,7079852,-3453,-1644,-981,-168,-238,-83,313,41,-139
2,7079859,-3453,-1644,-981,-168,-238,-83,313,41,-139
2,7079865,-3453,-1644,-981,-168,-238,-83,313,41,-139
2,7079872,-3457,-1649,-975,-165,-239,-74,313,41,-139
2,7079879,-3457,-1649,-975,-165,-239,-74,313,41,-139
2,7079886,-3454,-1646,-977,-157,-244,-77,313,41,-139
2,7079891,-3454,-1646,-977,-157,-244,-77,313,41,-139
2,7079900,-3454,-1646,-977,-157,-244,-77,313,41,-139
2,7079906,-3454,-1646,-977,-157,-244,-77,313,41,-139
2,7079912,-3453,-1649,-979,-162,-235,-88,313,41,-139
2,7079920,-3453,-1649,-979,-162,-235,-88,313,41,-139
2,7079934,-3454,-1647,-977,-163,-237,-87,313,41,-139
2,7079948,-3451,-1650,-980,-168,-237,-90,308,34,-136
2,7079961,-3451,-1650,-980,-168,-237,-90,308,34,-136
2,7079972,-3456,-1648,-980,-167,-242,-86,308,34,-136
2,7079984,-3456,-1648,-980,-167,-242,-86,308,34,-136
2,7079996,-3454,-1648,-982,-162,-241,-87,308,34,-136
2,7080008,-3455,-1649,-978,-163,-241,-81,308,34,-136
2,7080017,-3455,-1649,-978,-163,-241,-81,308,34,-136
2,7080034,-3455,-1649,-981,-163,-240,-87,308,34,-136
2,7080045,-3455,-1649,-981,-163,-240,-87,308,34,-136
2,7080056,-3458,-1647,-983,-161,-236,-83,308,34,-136
2,7080070,-3451,-1647,-976,-158,-236,-93,309,37,-127
2,7080084,-3451,-1647,-976,-158,-236,-93,309,37,-127
2,7080093,-3451,-1648,-981,-159,-238,-85,309,37,-127
2,7080103,-3451,-1648,-981,-159,-238,-85,309,37,-127
2,7080118,-3452,-1646,-977,-160,-238,-89,309,37,-127
2,7080131,-3454,-1645,-977,-164,-245,-84,309,37,-127
2,7080140,-3454,-1645,-977,-164,-245,-84,309,37,-127
2,7080151,-3458,-1645,-980,-160,-244,-81,309,37,-127
2,7080164,-3458,-1645,-980,-160,-244,-81,309,37,-127
2,7080177,-3454,-1648,-977,-159,-238,-87,309,37,-127
2,7080189,-3455,-1651,-977,-164,-238,-89,305,39,-135
2,7080202,-3455,-1651,-977,-164,-238,-89,305,39,-135
2,7080213,-3452,-1648,-976,-154,-243,-89,305,39,-135
2,7080225,-3452,-1648,-976,-154,-243,-89,305,39,-135
2,7080238,-3451,-1648,-979,-162,-240,-79,305,39,-135
2,7080253,-3453,-1648,-980,-161,-244,-81,305,39,-135
2,7080264,-3453,-1648,-980,-161,-244,-81,305,39,-135
2,7080275,-3453,-1647,-978,-164,-238,-83,305,39,-135
2,7080289,-3459,-1648,-983,-164,-243,-89,305,39,-135
2,7080302,-3459,-1648,-983,-164,-243,-89,305,39,-135
2,7080314,-3457,-1648,-976,-157,-245,-80,310,38,-130
2,7080324,-3457,-1648,-976,-157,-245,-80,310,38,-130
2,7080331,-3455,-1648,-977,-155,-242,-85,310,38,-130
2,7080339,-3455,-1648,-977,-155,-242,-85,310,38,-130
2,7080347,-3453,-1651,-977,-163,-243,-83,310,38,-130
2,7080357,-3453,-1651,-977,-163,-243,-83,310,38,-130
2,7080371,-3454,-1648,-979,-164,-237,-84,310,38,-130
2,7080385,-3454,-1648,-979,-164,-237,-84,310,38,-130
2,7080398,-3447,-1648,-979,-165,-243,-90,310,38,-130
2,7080408,-3449,-1649,-978,-157,-243,-85,310,38,-130
2,7080416,-3449,-1649,-978,-157,-243,-85,310,38,-130
2,7080424,-3449,-1649,-978,-157,-243,-85,310,38,-130
2,7080432,-3458,-1649,-981,-160,-238,-83,310,38,-130
2,7080440,-3458,-1649,-981,-160,-238,-83,310,38,-130
2,7080449,-3454,-1647,-980,-157,-243,-89,310,44,-130
2,7080458,-3454,-1647,-980,-157,-243,-89,310,44,-130
2,7080465,-3454,-1647,-980,-157,-243,-89,310,44,-130
2,7080473,-3459,-1648,-976,-163,-235,-86,310,44,-130
2,7080481,-3459,-1648,-976,-163,-235,-86,310,44,-130
2,7080489,-3456,-1648,-980,-157,-234,-85,310,44,-130
2,7080498,-3456,-1648,-980,-157,-234,-85,310,44,-130
2,7080506,-3456,-1648,-980,-157,-234,-85,310,44,-130
2,7080516,-3454,-1645,-976,-151,-240,-86,310,44,-130
2,7080525,-3454,-1645,-976,-151,-240,-86,310,44,-130
2,7080538,-3451,-1647,-982,-158,-240,-84,310,44,-130
2,7080552,-3453,-1648,-976,-169,-235,-87,310,44,-130
2,7080566,-3458,-1646,-979,-164,-244,-89,310,44,-130
2,7080576,-3458,-1646,-979,-164,-244,-89,305,33,-133
2,7080588,-3453,-1650,-982,-164,-243,-87,305,33,-133
2,7080601,-3453,-1650,-982,-164,-243,-87,305,33,-133
2,7080613,-3455,-1650,-982,-166,-239,-83,305,33,-133
2,7080625,-3455,-1650,-982,-166,-239,-83,305,33,-133
2,7080633,-3455,-1652,-979,-160,-247,-84,305,33,-133
2,7080642,-3455,-1652,-979,-160,-247,-84,305,33,-133
2,7080649,-3454,-1649,-980,-165,-243,-91,305,33,-133
2,7080658,-3454,-1649,-980,-165,-243,-91,305,33,-133
2,7080673,-3453,-1647,-979,-158,-241,-86,305,33,-133
2,7080687,-3452,-1647,-980,-156,-242,-77,303,39,-127
2,7080698,-3452,-1647,-980,-156,-242,-77,303,39,-127
2,7080708,-3452,-1649,-976,-157,-240,-78,303,39,-127
2,7080721,-3452,-1649,-976,-157,-240,-78,303,39,-127
2,7080736,-3455,-1648,-982,-157,-239,-76,303,39,-127
2,7080745,-3455,-1648,-982,-157,-239,-76,303,39,-127
2,7080757,-3459,-1650,-979,-162,-237,-77,303,39,-127
2,7080772,-3457,-1650,-983,-158,-239,-87,303,39,-127
2,7080788,-3455,-1647,-985,-163,-247,-82,303,39,-127
2,7080800,-3455,-1647,-985,-163,-247,-82,303,39,-127
2,7080813,-3455,-1647,-985,-163,-247,-82,300,38,-132
2,7080825,-3455,-1647,-985,-163,-247,-82,300,38,-132
2,7080839,-3451,-1645,-978,-154,-247,-86,300,38,-132
2,7080849,-3451,-1648,-978,-159,-249,-83,300,38,-132
2,7080859,-3451,-1648,-978,-159,-249,-83,300,38,-132
2,7080871,-3453,-1650,-975,-159,-248,-83,300,38,-132
2,7080886,-3453,-1650,-975,-159,-248,-83,300,38,-132
2,7080894,-3456,-1648,-977,-152,-241,-79,300,38,-132
2,7080906,-3456,-1648,-977,-152,-241,-79,300,38,-132
2,7080919,-3456,-1647,-977,-160,-244,-83,300,38,-132
2,7080930,-3455,-1648,-977,-160,-241,-89,302,38,-134
2,7080936,-3455,-1648,-977,-160,-241,-89,302,38,-134
2,7080942,-3455,-1648,-977,-160,-241,-89,302,38,-134
2,7080947,-3455,-1650,-983,-167,-240,-90,302,38,-134
2,7080953,-3455,-1650,-983,-167,-240,-90,302,38,-134
2,7080960,-3455,-1650,-983,-167,-240,-90,302,38,-134
2,7080967,-3452,-1650,-979,-165,-239,-88,302,38,-134
2,7080974,-3452,-1650,-979,-165,-239,-88,302,38,-134
2,7080982,-3452,-1650,-979,-165,-239,-88,302,38,-134
2,7080989,-3450,-1648,-982,-165,-249,-83,302,38,-134
2,7080996,-3450,-1648,-982,-165,-249,-83,302,38,-134
2,7081003,-3450,-1648,-982,-165,-249,-83,302,38,-134
2,7081010,-3455,-1647,-980,-156,-240,-84,302,38,-134
2,7081017,-3455,-1647,-980,-156,-240,-84,302,38,-134
2,7081023,-3455,-1647,-980,-156,-240,-84,302,38,-134
2,7081030,-3453,-1647,-980,-159,-234,-88,302,38,-134
2,7081037,-3453,-1647,-980,-159,-234,-88,302,38,-134
2,7081043,-3453,-1647,-980,-159,-234,-88,302,38,-134
2,7081051,-3456,-1649,-980,-166,-237,-93,310,44,-122
2,7081059,-3456,-1649,-980,-166,-237,-93,310,44,-122
2,7081065,-3456,-1649,-980,-166,-237,-93,310,44,-122
2,7081072,-3458,-1646,-971,-157,-243,-86,310,44,-122
2,7081079,-3458,-1646,-971,-157,-243,-86,310,44,-122
2,7081086,-3458,-1646,-971,-157,-243,-86,310,44,-122
2,7081095,-3459,-1651,-974,-156,-240,-83,310,44,-122
2,7081101,-3459,-1651,-974,-156,-240,-83,310,44,-122
2,7081108,-3455,-1650,-980,-164,-238,-83,310,44,-122
2,7081116,-3455,-1650,-980,-164,-238,-83,310,44,-122
2,7081122,-3455,-1650,-980,-164,-238,-83,310,44,-122
2,7081129,-3450,-1649,-980,-159,-246,-82,310,44,-122
2,7081137,-3450,-1649,-980,-159,-246,-82,310,44,-122
2,7081145,-3450,-1649,-980,-159,-246,-82,310,44,-122
2,7081151,-3450,-1649,-980,-159,-246,-82,310,44,-122
2,7081158,-3450,-1649,-980,-159,-246,-82,310,44,-122
2,7081165,-3450,-1649,-980,-159,-246,-82,310,44,-122
2,7081172,-3452,-1650,-981,-161,-245,-85,310,44,-122
2,7081180,-3452,-1650,-981,-161,-245,-85,310,44,-122
2,7081187,-3452,-1650,-981,-161,-245,-85,310,44,-122
2,7081193,-3455,-1648,-978,-155,-245,-90,302,38,-126
2,7081201,-3455,-1648,-978,-155,-245,-90,302,38,-126
2,7081209,-3456,-1648,-977,-157,-240,-87,302,38,-126
2,7081217,-3456,-1648,-977,-157,-240,-87,302,38,-126
2,7081223,-3456,-1648,-977,-157,-240,-87,302,38,-126
2,7081230,-3451,-1647,-980,-166,-239,-84,302,38,-126
2,7081236,-3451,-1647,-980,-166,-239,-84,302,38,-126
2,7081243,-3451,-1647,-980,-166,-239,-84,302,38,-126
2,7081251,-3452,-1647,-981,-168,-243,-86,302,38,-126
2,7081257,-3452,-1647,-981,-168,-243,-86,302,38,-126
2,7081263,-3452,-1647,-981,-168,-243,-86,302,38,-126
2,7081270,-3451,-1646,-978,-163,-231,-83,302,38,-126
2,7081278,-3451,-1646,-978,-163,-231,-83,302,38,-126
2,7081284,-3451,-1646,-978,-163,-231,-83,302,38,-126
2,7081290,-3455,-1645,-983,-164,-241,-80,302,38,-126
2,7081295,-3455,-1645,-983,-164,-241,-80,302,38,-126
2,7081303,-3455,-1645,-983,-164,-241,-80,302,38,-126
2,7081309,-3453,-1649,-978,-162,-243,-78,311,35,-135
2,7081318,-3453,-1649,-978,-162,-243,-78,311,35,-135
2,7081326,-3453,-1649,-978,-162,-243,-78,311,35,-135
2,7081332,-3456,-1648,-981,-160,-236,-73,311,35,-135
2,7081338,-3456,-1648,-981,-160,-236,-73,311,35,-135
2,7081344,-3456,-1648,-981,-160,-236,-73,311,35,-135
2,7081352,-3457,-1648,-984,-157,-237,-78,311,35,-135
2,7081360,-3457,-1648,-984,-157,-237,-78,311,35,-135
2,7081368,-3454,-1649,-981,-157,-240,-91,311,35,-135
2,7081376,-3454,-1649,-981,-157,-240,-91,311,35,-135
2,7081383,-3454,-1649,-981,-157,-240,-91,311,35,-135
2,7081391,-3456,-1648,-984,-164,-239,-91,311,35,-135
2,7081398,-3456,-1648,-984,-164,-239,-91,311,35,-135
2,7081406,-3456,-1648,-984,-164,-239,-91,311,35,-135
2,7081411,-3448,-1649,-981,-164,-236,-84,311,35,-135
2,7081416,-3448,-1649,-981,-164,-236,-84,311,35,-135
2,7081422,-3448,-1649,-981,-164,-236,-84,311,35,-135
2,7081427,-3448,-1647,-981,-157,-242,-87,308,36,-134
2,7081434,-3448,-1647,-981,-157,-242,-87,308,36,-134
2,7081439,-3448,-1647,-981,-157,-242,-87,308,36,-134
2,7081443,-3448,-1647,-981,-157,-242,-87,308,36,-134
2,7081448,-3452,-1649,-977,-161,-246,-89,308,36,-134
2,7081455,-3452,-1649,-977,-161,-246,-89,308,36,-134
2,7081461,-3452,-1649,-977,-161,-246,-89,308,36,-134
2,7081469,-3458,-1647,-981,-159,-242,-84,308,36,-134
2,7081477,-3458,-1647,-981,-159,-242,-84,308,36,-134
2,7081486,-3458,-1647,-981,-159,-242,-84,308,36,-134
2,7081492,-3457,-1648,-981,-163,-243,-85,308,36,-134
2,7081498,-3457,-1648,-981,-163,-243,-85,308,36,-134
2,7081505,-3457,-1648,-981,-163,-243,-85,308,36,-134
2,7081512,-3456,-1649,-977,-163,-250,-85,308,36,-134
2,7081520,-3456,-1649,-977,-163,-250,-85,308,36,-134
2,7081526,-3456,-1649,-977,-163,-250,-85,308,36,-134
2,7081533,-3454,-1650,-983,-155,-252,-86,308,36,-134
2,7081539,-3454,-1650,-983,-155,-252,-86,308,36,-134
2,7081546,-3454,-1650,-983,-155,-252,-86,308,36,-134
2,7081553,-3450,-1648,-982,-158,-246,-85,308,34,-128
2,7081560,-3450,-1648,-982,-158,-246,-85,308,34,-128
2,7081568,-3450,-1647,-977,-166,-245,-86,308,34,-128
2,7081574,-3450,-1647,-977,-166,-245,-86,308,34,-128
2,7081579,-3450,-1647,-977,-166,-245,-86,308,34,-128
2,7081587,-3450,-1647,-977,-166,-245,-86,308,34,-128
2,7081594,-3453,-1648,-980,-166,-239,-94,308,34,-128
2,7081602,-3453,-1648,-980,-166,-239,-94,308,34,-128
2,7081610,-3453,-1646,-976,-162,-241,-83,308,34,-128
2,7081617,-3453,-1646,-976,-162,-241,-83,308,34,-128
2,7081623,-3453,-1646,-976,-162,-241,-83,308,34,-128
2,7081628,-3456,-1650,-981,-158,-241,-83,308,34,-128
2,7081633,-3456,-1650,-981,-158,-241,-83,308,34,-128
2,7081639,-3456,-1650,-981,-158,-241,-83,308,34,-128
2,7081645,-3456,-1650,-981,-158,-241,-83,308,34,-128
2,7081650,-3457,-1650,-983,-158,-239,-91,308,34,-128
2,7081655,-3457,-1650,-983,-158,-239,-91,308,34,-128
2,7081664,-3457,-1650,-983,-158,-239,-91,308,34,-128
2,7081670,-3453,-1650,-978,-156,-244,-90,304,40,-136
2,7081677,-3453,-1650,-978,-156,-244,-90,304,40,-136
2,7081686,-3453,-1650,-978,-156,-244,-90,304,40,-136
2,7081693,-3452,-1645,-978,-154,-242,-88,304,40,-136
2,7081700,-3452,-1645,-978,-154,-242,-88,304,40,-136
2,7081707,-3452,-1645,-978,-154,-242,-88,304,40,-136
2,7081715,-3450,-1649,-980,-159,-247,-89,304,40,-136
2,7081721,-3450,-1649,-980,-159,-247,-89,304,40,-136
2,7081729,-3451,-1647,-981,-159,-245,-90,304,40,-136
2,7081736,-3451,-1647,-981,-159,-245,-90,304,40,-136
2,7081743,-3451,-1647,-981,-159,-245,-90,304,40,-136
2,7081749,-3451,-1649,-983,-164,-249,-84,304,40,-136
2,7081756,-3451,-1649,-983,-164,-249,-84,304,40,-136
2,7081764,-3451,-1649,-983,-164,-249,-84,304,40,-136
2,7081772,-3450,-1650,-983,-153,-240,-87,304,40,-136
2,7081778,-3450,-1650,-983,-153,-240,-87,304,40,-136
2,7081785,-3450,-1650,-983,-153,-240,-87,304,40,-136
2,7081792,-3456,-1651,-982,-165,-245,-79,304,40,-136
2,7081798,-3456,-1651,-982,-165,-245,-79,304,40,-136
2,7081805,-3456,-1651,-982,-165,-245,-79,304,40,-136
2,7081812,-3456,-1646,-974,-160,-242,-85,304,44,-134
2,7081820,-3456,-1646,-974,-160,-242,-85,304,44,-134
2,7081827,-3456,-1646,-974,-160,-242,-85,304,44,-134
2,7081833,-3454,-1647,-977,-167,-240,-81,304,44,-134
2,7081840,-3454,-1647,-977,-167,-240,-81,304,44,-134
2,7081846,-3454,-1647,-977,-167,-240,-81,304,44,-134
2,7081854,-3450,-1649,-980,-164,-242,-83,304,44,-134
2,7081862,-3450,-1649,-980,-164,-242,-83,304,44,-134
2,7081869,-3449,-1647,-979,-157,-240,-86,304,44,-134
2,7081877,-3449,-1647,-979,-157,-240,-86,304,44,-134
2,7081883,-3449,-1647,-979,-157,-240,-86,304,44,-134
2,7081890,-3451,-1649,-982,-158,-245,-87,304,44,-134
2,7081897,-3451,-1649,-982,-158,-245,-87,304,44,-134
2,7081905,-3451,-1649,-982,-158,-245,-87,304,44,-134
2,7081913,-3452,-1649,-979,-164,-240,-80,304,44,-134
2,7081921,-3452,-1649,-979,-164,-240,-80,304,44,-134
2,7081928,-3454,-1650,-974,-164,-236,-75,304,44,-134
2,7081934,-3454,-1650,-974,-164,-236,-75,303,39,-127
2,7081943,-3454,-1650,-974,-164,-236,-75,303,39,-127
2,7081951,-3451,-1649,-984,-157,-243,-81,303,39,-127
2,7081959,-3451,-1649,-984,-157,-243,-81,303,39,-127
2,7081967,-3451,-1649,-984,-157,-243,-81,303,39,-127
2,7081979,-3452,-1649,-982,-160,-252,-81,303,39,-127
2,7081994,-3452,-1648,-974,-159,-243,-80,303,39,-127
2,7082007,-3452,-1648,-974,-159,-243,-80,303,39,-127
2,7082017,-3455,-1648,-980,-162,-244,-77,303,39,-127
2,7082030,-3452,-1648,-978,-161,-244,-83,303,39,-127
2,7082042,-3452,-1648,-978,-161,-244,-83,303,39,-127
2,7082053,-3455,-1646,-977,-157,-235,-88,311,41,-133
2,7082065,-3455,-1646,-977,-157,-235,-88,311,41,-133
2,7082081,-3457,-1646,-979,-163,-243,-89,311,41,-133
2,7082093,-3459,-1646,-977,-159,-240,-93,311,41,-133
2,7082102,-3459,-1646,-977,-159,-240,-93,311,41,-133
2,7082115,-3454,-1647,-983,-155,-238,-98,311,41,-133
2,7082129,-3453,-1649,-982,-162,-242,-93,311,41,-133
2,7082139,-3453,-1649,-982,-162,-242,-93,311,41,-133
2,7082148,-3449,-1647,-978,-156,-241,-98,311,41,-133
2,7082163,-3449,-1647,-978,-156,-241,-98,311,41,-133
2,7082173,-3452,-1648,-973,-159,-238,-92,300,46,-136
2,7082184,-3452,-1648,-973,-159,-238,-92,300,46,-136
2,7082198,-3455,-1650,-979,-160,-249,-85,300,46,-136
2,7082212,-3454,-1651,-980,-164,-244,-81,300,46,-136
2,7082225,-3454,-1651,-980,-164,-244,-81,300,46,-136
2,7082235,-3455,-1649,-981,-164,-243,-84,300,46,-136
2,7082248,-3455,-1649,-981,-164,-243,-84,300,46,-136
2,7082262,-3454,-1648,-986,-164,-237,-91,300,46,-136
2,7082275,-3453,-1647,-983,-165,-240,-86,300,46,-136
2,7082285,-3453,-1647,-983,-165,-240,-86,300,46,-136
2,7082297,-3449,-1646,-982,-167,-244,-86,314,36,-138
2,7082307,-3449,-1646,-982,-167,-244,-86,314,36,-138
2,7082319,-3453,-1649,-979,-160,-238,-81,314,36,-138
2,7082333,-3452,-1649,-980,-154,-245,-90,314,36,-138
2,7082348,-3452,-1649,-980,-154,-245,-90,314,36,-138
2,7082359,-3450,-1649,-974,-152,-244,-97,314,36,-138
2,7082373,-3454,-1651,-980,-161,-241,-83,314,36,-138
2,7082385,-3454,-1651,-980,-161,-241,-83,314,36,-138
2,7082398,-3455,-1649,-983,-157,-241,-80,314,36,-138
2,7082406,-3455,-1649,-983,-157,-241,-80,314,36,-138
2,7082415,-3453,-1647,-985,-158,-246,-85,314,36,-138
2,7082423,-3453,-1647,-985,-158,-246,-85,314,36,-138
2,7082431,-3452,-1650,-980,-158,-237,-84,310,28,-126
2,7082439,-3452,-1650,-980,-158,-237,-84,310,28,-126
2,7082446,-3452,-1650,-980,-158,-237,-84,310,28,-126
2,7082456,-3452,-1648,-978,-159,-239,-82,310,28,-126
2,7082463,-3452,-1648,-978,-159,-239,-82,310,28,-126
2,7082471,-3450,-1645,-980,-161,-243,-86,310,28,-126
2,7082479,-3450,-1645,-980,-161,-243,-86,310,28,-126
2,7082487,-3450,-1645,-980,-161,-243,-86,310,28,-126
2,7082496,-3455,-1652,-982,-160,-244,-83,310,28,-126
2,7082505,-3455,-1652,-982,-160,-244,-83,310,28,-126
2,7082513,-3461,-1647,-982,-160,-236,-87,310,28,-126
2,7082522,-3461,-1647,-982,-160,-236,-87,310,28,-126
2,7082531,-3457,-1649,-981,-164,-232,-92,310,28,-126
2,7082546,-3457,-1649,-981,-164,-232,-92,310,28,-126
2,7082554,-3455,-1643,-978,-158,-235,-88,303,27,-137
2,7082563,-3455,-1643,-978,-158,-235,-88,303,27,-137
2,7082573,-3450,-1648,-977,-161,-244,-80,303,27,-137
2,7082580,-3450,-1648,-977,-161,-244,-80,303,27,-137
2,7082589,-3447,-1650,-983,-165,-238,-92,303,27,-137
2,7082599,-3447,-1650,-983,-165,-238,-92,303,27,-137
2,7082610,-3455,-1648,-978,-162,-236,-80,303,27,-137
2,7082622,-3455,-1648,-978,-162,-236,-80,303,27,-137
2,7082630,-3455,-1651,-979,-168,-242,-91,303,27,-137
2,7082638,-3455,-1651,-979,-168,-242,-91,303,27,-137
2,7082646,-3455,-1651,-979,-168,-242,-91,303,27,-137
2,7082655,-3457,-1653,-981,-166,-238,-79,303,27,-137
2,7082667,-3457,-1653,-981,-166,-238,-79,303,27,-137
2,7082681,-3454,-1651,-984,-164,-247,-87,306,32,-132
2,7082694,-3456,-1649,-976,-161,-246,-82,306,32,-132
2,7082703,-3456,-1649,-976,-161,-246,-82,306,32,-132
2,7082718,-3450,-1650,-977,-161,-242,-83,306,32,-132
2,7082730,-3448,-1649,-979,-164,-232,-81,306,32,-132
2,7082742,-3448,-1649,-979,-164,-232,-81,306,32,-132
2,7082754,-3453,-1649,-982,-161,-240,-80,306,32,-132
2,7082768,-3453,-1649,-982,-161,-240,-80,306,32,-132
2,7082781,-3453,-1650,-983,-169,-241,-85,306,32,-132
2,7082790,-3455,-1647,-982,-162,-240,-88,297,37,-129
2,7082802,-3455,-1647,-982,-162,-240,-88,297,37,-129
2,7082816,-3455,-1652,-981,-160,-239,-83,297,37,-129
2,7082827,-3455,-1652,-981,-160,-239,-83,297,37,-129
2,7082838,-3458,-1650,-979,-156,-240,-87,297,37,-129
2,7082850,-3454,-1647,-983,-160,-243,-88,297,37,-129
2,7082863,-3454,-1647,-983,-160,-243,-88,297,37,-129
2,7082875,-3451,-1649,-979,-159,-243,-83,297,37,-129
2,7082887,-3451,-1649,-979,-159,-243,-83,297,37,-129
2,7082898,-3453,-1649,-985,-165,-237,-89,297,37,-129
2,7082911,-3453,-1648,-982,-161,-233,-86,300,34,-130
2,7082924,-3453,-1648,-982,-161,-233,-86,300,34,-130
2,7082936,-3453,-1648,-978,-154,-239,-82,300,34,-130
2,7082944,-3453,-1648,-978,-154,-239,-82,300,34,-130
2,7082952,-3458,-1650,-982,-151,-236,-84,300,34,-130
2,7082959,-3458,-1650,-982,-151,-236,-84,300,34,-130
2,7082967,-3458,-1650,-982,-151,-236,-84,300,34,-130
2,7082974,-3456,-1649,-979,-161,-243,-86,300,34,-130
2,7082981,-3456,-1649,-979,-161,-243,-86,300,34,-130
2,7082986,-3456,-1649,-979,-161,-243,-86,300,34,-130
2,7082994,-3456,-1649,-979,-161,-243,-86,300,34,-130
2,7083001,-3456,-1649,-979,-161,-243,-86,300,34,-130
2,7083009,-3455,-1648,-982,-162,-240,-85,300,34,-130
2,7083018,-3455,-1648,-982,-162,-240,-85,300,34,-130
2,7083023,-3455,-1648,-982,-162,-240,-85,300,34,-130
2,7083029,-3450,-1647,-984,-162,-242,-82,300,34,-130
2,7083035,-3450,-1647,-984,-162,-242,-82,300,34,-130
2,7083042,-3450,-1647,-984,-162,-242,-82,300,34,-130
2,7083049,-3451,-1647,-978,-157,-242,-77,308,42,-136
2,7083057,-3451,-1647,-978,-157,-242,-77,308,42,-136
2,7083064,-3451,-1647,-978,-157,-242,-77,308,42,-136
2,7083070,-3449,-1647,-977,-153,-243,-82,308,42,-136
2,7083078,-3449,-1647,-977,-153,-243,-82,308,42,-136
2,7083086,-3449,-1647,-977,-153,-243,-82,308,42,-136
2,7083095,-3452,-1651,-980,-159,-242,-86,308,42,-136
2,7083101,-3452,-1651,-980,-159,-242,-86,308,42,-136
2,7083106,-3452,-1651,-980,-159,-242,-86,308,42,-136
2,7083113,-3455,-1651,-983,-164,-250,-89,308,42,-136
2,7083120,-3455,-1651,-983,-164,-250,-89,308,42,-136
2,7083129,-3457,-1647,-979,-158,-240,-88,308,42,-136
2,7083137,-3457,-1647,-979,-158,-240,-88,308,42,-136
2,7083142,-3457,-1647,-979,-158,-240,-88,308,42,-136
2,7083147,-3457,-1647,-979,-158,-240,-88,308,42,-136
2,7083154,-3452,-1649,-987,-157,-243,-88,308,42,-136
2,7083161,-3452,-1649,-987,-157,-243,-88,308,42,-136
2,7083169,-3451,-1647,-982,-156,-249,-82,302,42,-136
2,7083175,-3451,-1647,-982,-156,-249,-82,302,36,-130
2,7083181,-3451,-1647,-982,-156,-249,-82,302,36,-130
2,7083186,-3451,-1647,-982,-156,-249,-82,302,36,-130
2,7083193,-3450,-1648,-975,-160,-248,-90,302,36,-130
2,7083199,-3450,-1648,-975,-160,-248,-90,302,36,-130
2,7083204,-3450,-1648,-975,-160,-248,-90,302,36,-130
2,7083213,-3453,-1650,-982,-165,-243,-82,302,36,-130
2,7083218,-3453,-1650,-982,-165,-243,-82,302,36,-130
2,7083226,-3453,-1650,-982,-165,-243,-82,302,36,-130
2,7083234,-3455,-1650,-979,-164,-247,-90,302,36,-130
2,7083240,-3455,-1650,-979,-164,-247,-90,302,36,-130
2,7083247,-3455,-1650,-979,-164,-247,-90,302,36,-130
2,7083255,-3454,-1649,-982,-156,-250,-84,302,36,-130
2,7083262,-3454,-1649,-982,-156,-250,-84,302,36,-130
2,7083269,-3453,-1648,-988,-156,-248,-82,302,36,-130
2,7083278,-3453,-1648,-988,-156,-248,-82,302,36,-130
2,7083286,-3453,-1648,-988,-156,-248,-82,302,36,-130
2,7083294,-3453,-1650,-977,-160,-246,-84,309,39,-137
2,7083301,-3453,-1650,-977,-160,-246,-84,309,39,-137
2,7083308,-3453,-1650,-977,-160,-246,-84,309,39,-137
2,7083315,-3451,-1648,-980,-164,-254,-85,309,39,-137
2,7083323,-3451,-1648,-980,-164,-254,-85,309,39,-137
2,7083330,-3447,-1647,-984,-160,-245,-88,309,39,-137
2,7083337,-3447,-1647,-984,-160,-245,-88,309,39,-137
2,7083346,-3447,-1647,-984,-160,-245,-88,309,39,-137
2,7083354,-3451,-1651,-979,-157,-239,-87,309,39,-137
2,7083362,-3451,-1651,-979,-157,-239,-87,309,39,-137
2,7083369,-3451,-1651,-979,-157,-239,-87,309,39,-137
2,7083374,-3451,-1650,-984,-160,-243,-86,309,39,-137
2,7083381,-3451,-1650,-984,-160,-243,-86,309,39,-137
2,7083388,-3451,-1650,-984,-160,-243,-86,309,39,-137
2,7083396,-3454,-1650,-985,-155,-240,-89,309,39,-137
2,7083404,-3454,-1650,-985,-155,-240,-89,309,39,-137
2,7083410,-3458,-1650,-978,-155,-243,-90,310,38,-126
2,7083415,-3458,-1650,-978,-155,-243,-90,310,38,-126
2,7083419,-3458,-1650,-978,-155,-243,-90,310,38,-126
2,7083424,-3458,-1650,-978,-155,-243,-90,310,38,-126
2,7083430,-3459,-1649,-981,-159,-242,-83,310,38,-126
2,7083435,-3459,-1649,-981,-159,-242,-83,310,38,-126
2,7083441,-3459,-1649,-981,-159,-242,-83,310,38,-126
2,7083446,-3459,-1649,-981,-159,-242,-83,310,38,-126
2,7083452,-3454,-1648,-981,-157,-244,-87,310,38,-126
2,7083459,-3454,-1648,-981,-157,-244,-87,310,38,-126
2,7083465,-3454,-1648,-981,-157,-244,-87,310,38,-126
2,7083473,-3448,-1649,-981,-164,-248,-80,310,38,-126
2,7083480,-3448,-1649,-981,-164,-248,-80,310,38,-126
2,7083486,-3448,-1649,-981,-164,-248,-80,310,38,-126
2,7083491,-3451,-1647,-982,-163,-241,-77,310,38,-126
2,7083499,-3451,-1647,-982,-163,-241,-77,310,38,-126
2,7083505,-3451,-1647,-982,-163,-241,-77,310,38,-126
2,7083513,-3451,-1646,-983,-158,-241,-81,310,38,-126
2,7083521,-3451,-1646,-983,-158,-241,-81,310,38,-126
2,7083527,-3451,-1646,-983,-158,-241,-81,310,38,-126
2,7083534,-3455,-1650,-981,-162,-244,-91,304,38,-126
2,7083541,-3455,-1650,-981,-162,-244,-91,304,38,-126
2,7083548,-3455,-1650,-981,-162,-244,-91,304,38,-126
2,7083554,-3456,-1648,-975,-163,-245,-81,304,38,-126
2,7083561,-3456,-1648,-975,-163,-245,-81,304,38,-126
2,7083570,-3459,-1652,-976,-165,-241,-96,304,38,-126
2,7083577,-3459,-1652,-976,-165,-241,-96,304,38,-126
2,7083584,-3459,-1652,-976,-165,-241,-96,304,38,-126
2,7083592,-3453,-1648,-983,-160,-246,-94,304,38,-126
2,7083598,-3453,-1648,-983,-160,-246,-94,304,38,-126
2,7083606,-3453,-1648,-983,-160,-246,-94,304,38,-126
2,7083613,-3452,-1648,-980,-153,-240,-82,304,38,-126
2,7083619,-3452,-1648,-980,-153,-240,-82,304,38,-126
2,7083625,-3452,-1648,-980,-153,-240,-82,304,38,-126
2,7083630,-3452,-1649,-982,-158,-244,-80,304,38,-126
2,7083635,-3452,-1649,-982,-158,-244,-80,304,38,-126
2,7083640,-3452,-1649,-982,-158,-244,-80,304,38,-126
2,7083645,-3452,-1649,-982,-158,-244,-80,304,38,-126
2,7083651,-3450,-1647,-983,-163,-247,-89,304,38,-126
2,7083657,-3450,-1647,-983,-163,-247,-89,304,38,-126
2,7083665,-3450,-1647,-983,-163,-247,-89,304,38,-126
2,7083672,-3453,-1649,-978,-165,-238,-89,317,47,-129
2,7083680,-3453,-1649,-978,-165,-238,-89,317,47,-129
2,7083688,-3453,-1649,-978,-165,-238,-89,317,47,-129
2,7083696,-3456,-1649,-981,-159,-237,-87,317,47,-129
2,7083703,-3456,-1649,-981,-159,-237,-87,317,47,-129
2,7083710,-3457,-1650,-979,-161,-246,-89,317,47,-129
2,7083715,-3457,-1650,-979,-161,-246,-89,317,47,-129
2,7083720,-3457,-1650,-979,-161,-246,-89,317,47,-129
2,7083725,-3457,-1650,-979,-161,-246,-89,317,47,-129
2,7083734,-3456,-1651,-981,-164,-248,-87,317,47,-129
2,7083741,-3456,-1651,-981,-164,-248,-87,317,47,-129
2,7083749,-3456,-1651,-981,-164,-248,-87,317,47,-129
2,7083756,-3451,-1652,-983,-156,-247,-84,317,47,-129
2,7083763,-3451,-1652,-983,-156,-247,-84,317,47,-129
2,7083770,-3447,-1650,-976,-154,-243,-81,317,47,-129
2,7083778,-3447,-1650,-976,-154,-243,-81,317,47,-129
2,7083784,-3447,-1650,-976,-154,-243,-81,317,47,-129
2,7083791,-3452,-1644,-978,-155,-236,-88,304,40,-132
2,7083799,-3452,-1644,-978,-155,-236,-88,304,40,-132
2,7083805,-3452,-1644,-978,-155,-236,-88,304,40,-132
2,7083812,-3455,-1648,-978,-158,-243,-87,304,40,-132
2,7083820,-3455,-1648,-978,-158,-243,-87,304,40,-132
2,7083827,-3455,-1648,-978,-158,-243,-87,304,40,-132
2,7083834,-3454,-1647,-976,-159,-239,-81,304,40,-132
2,7083840,-3454,-1647,-976,-159,-239,-81,304,40,-132
2,7083848,-3454,-1647,-976,-159,-239,-81,304,40,-132
2,7083856,-3458,-1649,-982,-165,-233,-79,304,40,-132
2,7083864,-3458,-1649,-982,-165,-233,-79,304,40,-132
2,7083871,-3458,-1650,-982,-166,-231,-81,304,40,-132
2,7083878,-3458,-1650,-982,-166,-231,-81,304,40,-132
2,7083885,-3458,-1650,-982,-166,-231,-81,304,40,-132
2,7083891,-3454,-1649,-975,-167,-240,-83,304,40,-132
2,7083898,-3454,-1649,-975,-167,-240,-83,304,40,-132
2,7083907,-3454,-1649,-975,-167,-240,-83,304,40,-132
2,7083914,-3448,-1649,-972,-164,-245,-86,310,50,-140
2,7083922,-3448,-1649,-972,-164,-245,-86,310,50,-140
2,7083930,-3454,-1648,-977,-156,-246,-83,310,50,-140
2,7083937,-3454,-1648,-977,-156,-246,-83,310,50,-140
2,7083943,-3454,-1648,-977,-156,-246,-83,310,50,-140
2,7083958,-3451,-1649,-979,-166,-241,-88,310,50,-140
2,7083971,-3456,-1649,-981,-155,-238,-83,310,50,-140
2,7083985,-3456,-1649,-981,-155,-238,-83,310,50,-140
2,7083995,-3460,-1648,-982,-158,-242,-84,310,50,-140
2,7084006,-3460,-1648,-982,-158,-242,-84,310,50,-140
2,7084020,-3452,-1652,-983,-161,-239,-90,310,50,-140
2,7084035,-3455,-1650,-977,-157,-239,-85,302,44,-140
2,7084044,-3455,-1650,-977,-157,-239,-85,302,44,-140
2,7084057,-3452,-1648,-983,-160,-241,-83,302,44,-140
2,7084070,-3454,-1649,-980,-165,-244,-82,302,44,-140
2,7084084,-3454,-1649,-980,-165,-244,-82,302,44,-140
2,7084094,-3447,-1648,-980,-162,-242,-81,302,44,-140
2,7084107,-3447,-1648,-980,-162,-242,-81,302,44,-140
2,7084122,-3451,-1649,-980,-165,-242,-76,302,44,-140
2,7084135,-3456,-1652,-980,-165,-238,-82,302,44,-140
2,7084144,-3456,-1652,-980,-165,-238,-82,302,44,-140
2,7084156,-3456,-1648,-982,-159,-239,-91,308,44,-130
2,7084167,-3456,-1648,-982,-159,-239,-91,308,44,-130
2,7084179,-3452,-1650,-976,-155,-238,-82,308,44,-130
2,7084192,-3452,-1647,-979,-160,-245,-87,308,44,-130
2,7084208,-3452,-1647,-979,-160,-245,-87,308,44,-130
2,7084220,-3451,-1649,-986,-156,-243,-92,308,44,-130
2,7084232,-3454,-1646,-978,-158,-239,-91,308,44,-130
2,7084246,-3454,-1646,-978,-158,-239,-91,308,44,-130
2,7084259,-3450,-1647,-980,-158,-240,-82,308,44,-130
2,7084271,-3455,-1652,-980,-159,-240,-82,308,44,-130
2,7084283,-3455,-1652,-980,-159,-240,-82,308,44,-130
2,7084296,-3453,-1649,-976,-156,-250,-91,307,39,-131
2,7084309,-3453,-1649,-976,-156,-250,-91,307,39,-131
2,7084321,-3449,-1651,-977,-155,-238,-91,307,39,-131
2,7084335,-3453,-1647,-980,-159,-236,-84,307,39,-131
2,7084349,-3453,-1647,-980,-159,-236,-84,307,39,-131
2,7084361,-3454,-1648,-981,-158,-242,-90,307,39,-131
2,7084374,-3455,-1647,-982,-164,-245,-76,307,39,-131
2,7084386,-3455,-1647,-982,-164,-245,-76,307,39,-131
2,7084400,-3455,-1650,-980,-160,-243,-81,307,39,-131
2,7084408,-3455,-1650,-980,-160,-243,-81,307,39,-131
2,7084417,-3455,-1648,-978,-160,-243,-84,303,37,-127
2,7084424,-3455,-1648,-978,-160,-243,-84,303,37,-127
2,7084432,-3458,-1649,-977,-162,-247,-83,303,37,-127
2,7084440,-3458,-1649,-977,-162,-247,-83,303,37,-127
2,7084448,-3458,-1649,-977,-162,-247,-83,303,37,-127
2,7084456,-3455,-1650,-979,-163,-242,-83,303,37,-127
2,7084465,-3455,-1650,-979,-163,-242,-83,303,37,-127
2,7084472,-3454,-1649,-979,-162,-248,-77,303,37,-127
2,7084480,-3454,-1649,-979,-162,-248,-77,303,37,-127
2,7084489,-3454,-1649,-979,-162,-248,-77,303,37,-127
2,7084497,-3451,-1649,-981,-160,-242,-76,303,37,-127
2,7084505,-3451,-1649,-981,-160,-242,-76,303,37,-127
2,7084513,-3449,-1647,-985,-160,-244,-78,303,37,-127
2,7084521,-3449,-1647,-985,-160,-244,-78,303,37,-127
2,7084530,-3449,-1647,-985,-160,-244,-78,303,37,-127
2,7084538,-3457,-1646,-974,-162,-237,-88,300,44,-130
2,7084548,-3457,-1646,-974,-162,-237,-88,300,44,-130
2,7084560,-3456,-1650,-977,-164,-245,-86,300,44,-130
2,7084573,-3456,-1649,-978,-166,-249,-92,300,44,-130
2,7084582,-3456,-1649,-978,-166,-249,-92,300,44,-130
2,7084594,-3457,-1651,-981,-162,-242,-87,300,44,-130
2,7084606,-3457,-1651,-981,-162,-242,-87,300,44,-130
2,7084618,-3454,-1653,-978,-160,-247,-90,300,44,-130
2,7084627,-3454,-1653,-978,-160,-247,-90,300,44,-130
2,7084636,-3451,-1648,-982,-159,-238,-82,300,44,-130
2,7084643,-3451,-1648,-982,-159,-238,-82,300,44,-130
2,7084652,-3449,-1645,-980,-163,-243,-81,303,35,-131
2,7084661,-3449,-1645,-980,-163,-243,-81,303,35,-131
2,7084675,-3454,-1647,-978,-158,-243,-79,303,35,-131
2,7084689,-3454,-1647,-978,-158,-243,-79,303,35,-131
2,7084698,-3455,-1648,-981,-165,-244,-81,303,35,-131
2,7084710,-3455,-1648,-981,-165,-244,-81,303,35,-131
2,7084725,-3456,-1648,-979,-162,-247,-81,303,35,-131
2,7084740,-3459,-1648,-984,-162,-250,-84,303,35,-131
2,7084748,-3459,-1648,-984,-162,-250,-84,303,35,-131
2,7084761,-3454,-1652,-974,-170,-243,-87,303,35,-131
2,7084774,-3455,-1646,-980,-165,-244,-87,307,37,-129
2,7084787,-3455,-1646,-980,-165,-244,-87,307,37,-129
2,7084797,-3448,-1644,-982,-164,-240,-90,307,37,-129
2,7084812,-3446,-1648,-983,-163,-238,-89,307,37,-129
2,7084823,-3446,-1648,-983,-163,-238,-89,307,37,-129
2,7084836,-3450,-1648,-982,-164,-234,-84,307,37,-129
2,7084847,-3450,-1648,-982,-164,-234,-84,307,37,-129
2,7084862,-3456,-1651,-980,-157,-236,-88,307,37,-129
2,7084874,-3455,-1650,-979,-153,-241,-83,307,37,-129
2,7084882,-3455,-1650,-979,-153,-241,-83,307,37,-129
2,7084894,-3456,-1652,-979,-164,-233,-84,305,39,-127
2,7084908,-3456,-1652,-979,-164,-233,-84,305,39,-127
2,7084918,-3454,-1649,-980,-169,-241,-85,305,39,-127
2,7084930,-3454,-1649,-980,-169,-241,-85,305,39,-127
2,7084944,-3452,-1647,-981,-159,-241,-91,305,39,-127
2,7084957,-3451,-1649,-979,-157,-240,-92,305,39,-127
2,7084963,-3451,-1649,-979,-157,-240,-92,305,39,-127
2,7084971,-3454,-1650,-980,-167,-236,-85,305,39,-127
2,7084979,-3454,-1650,-980,-167,-236,-85,305,39,-127
2,7084988,-3454,-1650,-980,-167,-236,-85,305,39,-127
2,7084995,-3457,-1648,-977,-172,-241,-83,305,39,-127
2,7085001,-3457,-1648,-977,-172,-241,-83,305,39,-127
2,7085007,-3457,-1648,-977,-172,-241,-83,305,39,-127
2,7085014,-3456,-1650,-982,-163,-233,-93,305,39,-127
2,7085022,-3456,-1650,-982,-163,-233,-93,305,39,-127
2,7085029,-3456,-1650,-982,-163,-233,-93,305,39,-127
2,7085036,-3456,-1649,-972,-164,-238,-94,303,43,-125
2,7085043,-3456,-1649,-972,-164,-238,-94,303,43,-125
2,7085048,-3456,-1649,-972,-164,-238,-94,303,43,-125
2,7085056,-3456,-1649,-981,-157,-237,-87,303,43,-125
2,7085062,-3456,-1649,-981,-157,-237,-87,303,43,-125
2,7085070,-3456,-1649,-981,-157,-237,-87,303,43,-125
2,7085075,-3453,-1644,-978,-160,-239,-83,303,43,-125
2,7085083,-3453,-1644,-978,-160,-239,-83,303,43,-125
2,7085089,-3453,-1644,-978,-160,-239,-83,303,43,-125
2,7085095,-3448,-1645,-983,-164,-244,-84,303,43,-125
2,7085102,-3448,-1645,-983,-164,-244,-84,303,43,-125
2,7085108,-3448,-1645,-983,-164,-244,-84,303,43,-125
2,7085113,-3450,-1648,-980,-165,-247,-78,303,43,-125
2,7085122,-3450,-1648,-980,-165,-247,-78,303,43,-125
2,7085128,-3450,-1648,-980,-165,-247,-78,303,43,-125
2,7085135,-3452,-1649,-976,-167,-244,-81,303,43,-125
2,7085142,-3452,-1649,-976,-167,-244,-81,303,43,-125
2,7085148,-3452,-1649,-976,-167,-244,-81,303,43,-125
2,7085156,-3461,-1649,-975,-162,-235,-86,308,32,-126
2,7085162,-3461,-1649,-975,-162,-235,-86,308,32,-126
2,7085170,-3461,-1649,-975,-162,-235,-86,308,32,-126
2,7085176,-3455,-1647,-976,-156,-246,-88,308,32,-126
2,7085184,-3455,-1647,-976,-156,-246,-88,308,32,-126
2,7085191,-3455,-1647,-976,-156,-246,-88,308,32,-126
2,7085198,-3461,-1649,-980,-161,-241,-89,308,32,-126
2,7085205,-3461,-1649,-980,-161,-241,-89,308,32,-126
2,7085212,-3453,-1649,-983,-161,-234,-85,308,32,-126
2,7085220,-3453,-1649,-983,-161,-234,-85,308,32,-126
2,7085227,-3453,-1649,-983,-161,-234,-85,308,32,-126
2,7085232,-3448,-1650,-986,-162,-236,-84,308,32,-126
2,7085240,-3448,-1650,-986,-162,-236,-84,308,32,-126
2,7085247,-3448,-1650,-986,-162,-236,-84,308,32,-126
2,7085254,-3449,-1646,-982,-161,-241,-82,308,32,-126
2,7085260,-3449,-1646,-982,-161,-241,-82,308,32,-126
2,7085267,-3449,-1646,-982,-161,-241,-82,308,32,-126
2,7085274,-3451,-1649,-980,-152,-235,-86,305,35,-131
2,7085281,-3451,-1649,-980,-152,-235,-86,305,35,-131
2,7085289,-3451,-1649,-980,-152,-235,-86,305,35,-131
2,7085297,-3453,-1646,-976,-156,-237,-92,305,35,-131
2,7085303,-3453,-1646,-976,-156,-237,-92,305,35,-131
2,7085309,-3453,-1646,-976,-156,-237,-92,305,35,-131
2,7085315,-3458,-1649,-977,-164,-248,-84,305,35,-131
2,7085324,-3458,-1649,-977,-164,-248,-84,305,35,-131
2,7085331,-3458,-1649,-977,-164,-248,-84,305,35,-131
2,7085339,-3453,-1650,-980,-164,-244,-92,305,35,-131
2,7085346,-3453,-1650,-980,-164,-244,-92,305,35,-131
2,7085352,-3454,-1649,-978,-162,-237,-87,305,35,-131
2,7085360,-3454,-1649,-978,-162,-237,-87,305,35,-131
2,7085368,-3454,-1649,-978,-162,-237,-87,305,35,-131
2,7085375,-3451,-1647,-979,-162,-238,-91,305,35,-131
2,7085382,-3451,-1647,-979,-162,-238,-91,305,35,-131
2,7085390,-3451,-1647,-979,-162,-238,-91,305,35,-131
2,7085396,-3450,-1649,-981,-158,-236,-87,304,38,-128
2,7085403,-3450,-1649,-981,-158,-236,-87,304,38,-128
2,7085409,-3450,-1649,-981,-158,-236,-87,304,38,-128
2,7085414,-3450,-1649,-978,-167,-242,-84,304,38,-128
2,7085418,-3450,-1649,-978,-167,-242,-84,304,38,-128
2,7085423,-3450,-1649,-978,-167,-242,-84,304,38,-128
2,7085428,-3450,-1649,-978,-167,-242,-84,304,38,-128
2,7085433,-3449,-1649,-978,-164,-241,-87,304,38,-128
2,7085440,-3449,-1649,-978,-164,-241,-87,304,38,-128
2,7085446,-3449,-1649,-978,-164,-241,-87,304,38,-128
2,7085453,-3452,-1650,-976,-161,-239,-90,304,38,-128
2,7085460,-3452,-1650,-976,-161,-239,-90,304,38,-128
2,7085467,-3452,-1650,-976,-161,-239,-90,304,38,-128
2,7085473,-3457,-1652,-981,-159,-241,-95,304,38,-128
2,7085479,-3457,-1652,-981,-159,-241,-95,304,38,-128
2,7085485,-3457,-1652,-981,-159,-241,-95,304,38,-128
2,7085493,-3455,-1654,-983,-157,-249,-83,304,38,-128
2,7085499,-3455,-1654,-983,-157,-249,-83,304,38,-128
2,7085507,-3455,-1654,-983,-157,-249,-83,304,38,-128
2,7085514,-3453,-1647,-984,-161,-243,-82,302,40,-134
2,7085519,-3453,-1647,-984,-161,-243,-82,302,40,-134
2,7085527,-3453,-1647,-984,-161,-243,-82,302,40,-134
2,7085533,-3454,-1645,-978,-164,-253,-85,302,40,-134
2,7085541,-3454,-1645,-978,-164,-253,-85,302,40,-134
2,7085549,-3454,-1645,-978,-164,-253,-85,302,40,-134
2,7085557,-3453,-1645,-986,-164,-248,-79,302,40,-134
2,7085564,-3453,-1645,-986,-164,-248,-79,302,40,-134
2,7085570,-3453,-1645,-986,-164,-248,-79,302,40,-134
2,7085578,-3449,-1650,-981,-157,-244,-84,302,40,-134
2,7085585,-3449,-1650,-981,-157,-244,-84,302,40,-134
2,7085592,-3452,-1649,-975,-159,-240,-84,302,40,-134
2,7085599,-3452,-1649,-975,-159,-240,-84,302,40,-134
2,7085606,-3452,-1649,-975,-159,-240,-84,302,40,-134
2,7085615,-3454,-1651,-978,-164,-245,-86,302,40,-134
2,7085621,-3454,-1651,-978,-164,-245,-86,302,40,-134
2,7085626,-3454,-1651,-978,-164,-245,-86,302,40,-134
2,7085631,-3454,-1651,-978,-164,-245,-86,302,40,-134
2,7085635,-3454,-1650,-980,-162,-230,-85,302,40,-134
2,7085641,-3454,-1650,-980,-162,-230,-85,302,40,-134
2,7085646,-3454,-1650,-980,-162,-230,-85,302,40,-134
2,7085656,-3453,-1649,-975,-167,-230,-93,309,39,-131
2,7085662,-3453,-1649,-975,-167,-230,-93,309,39,-131
2,7085667,-3453,-1649,-975,-167,-230,-93,309,39,-131
2,7085675,-3451,-1649,-974,-165,-238,-87,309,39,-131
2,7085681,-3451,-1649,-974,-165,-238,-87,309,39,-131
2,7085688,-3451,-1649,-974,-165,-238,-87,309,39,-131
2,7085696,-3454,-1647,-985,-163,-241,-84,309,39,-131
2,7085704,-3454,-1647,-985,-163,-241,-84,309,39,-131
2,7085711,-3449,-1650,-981,-161,-238,-83,309,39,-131
2,7085717,-3449,-1650,-981,-161,-238,-83,309,39,-131
2,7085725,-3449,-1650,-981,-161,-238,-83,309,39,-131
2,7085733,-3457,-1645,-977,-158,-240,-83,309,39,-131
2,7085741,-3457,-1645,-977,-158,-240,-83,309,39,-131
2,7085748,-3457,-1645,-977,-158,-240,-83,309,39,-131
2,7085756,-3458,-1650,-979,-163,-236,-85,309,39,-131
2,7085762,-3458,-1650,-979,-163,-236,-85,309,39,-131
2,7085767,-3458,-1650,-979,-163,-236,-85,309,39,-131
2,7085775,-3455,-1649,-973,-160,-237,-89,297,45,-135
2,7085784,-3455,-1649,-973,-160,-237,-89,297,45,-135
2,7085791,-3455,-1649,-973,-160,-237,-89,297,45,-135
2,7085797,-3455,-1647,-976,-161,-241,-85,297,45,-135
2,7085803,-3455,-1647,-976,-161,-241,-85,297,45,-135
2,7085811,-3455,-1647,-976,-161,-241,-85,297,45,-135
2,7085817,-3452,-1647,-986,-163,-234,-84,297,45,-135
2,7085825,-3452,-1647,-986,-163,-234,-84,297,45,-135
2,7085833,-3450,-1648,-978,-159,-241,-86,297,45,-135
2,7085840,-3450,-1648,-978,-159,-241,-86,297,45,-135
2,7085846,-3450,-1648,-978,-159,-241,-86,297,45,-135
2,7085854,-3448,-1647,-977,-165,-233,-81,297,45,-135
2,7085861,-3448,-1647,-977,-165,-233,-81,297,45,-135
2,7085868,-3448,-1647,-977,-165,-233,-81,297,45,-135
2,7085876,-3453,-1651,-982,-161,-241,-87,297,45,-135
2,7085883,-3453,-1651,-982,-161,-241,-87,297,45,-135
2,7085890,-3453,-1651,-982,-161,-241,-87,297,45,-135
2,7085897,-3456,-1651,-982,-164,-250,-90,315,37,-129
2,7085904,-3456,-1651,-982,-164,-250,-90,315,37,-129
2,7085911,-3456,-1651,-982,-164,-250,-90,315,37,-129
2,7085919,-3456,-1652,-975,-165,-251,-83,315,37,-129
2,7085926,-3456,-1652,-975,-165,-251,-83,315,37,-129
2,7085932,-3456,-1650,-982,-163,-249,-83,315,37,-129
2,7085938,-3456,-1650,-982,-163,-249,-83,315,37,-129
2,7085947,-3456,-1650,-982,-163,-249,-83,315,37,-129
2,7085955,-3451,-1648,-981,-162,-248,-89,315,37,-129
2,7085961,-3451,-1648,-981,-162,-248,-89,315,37,-129
2,7085971,-3451,-1648,-981,-162,-248,-89,315,37,-129
2,7085983,-3449,-1646,-981,-164,-235,-85,315,37,-129
2,7085996,-3451,-1647,-981,-163,-239,-78,315,37,-129
2,7086009,-3451,-1647,-981,-163,-239,-78,315,37,-129
2,7086019,-3452,-1650,-975,-161,-240,-81,311,39,-143
2,7086034,-3454,-1650,-973,-158,-241,-87,311,39,-143
2,7086047,-3454,-1650,-973,-158,-241,-87,311,39,-143
2,7086059,-3455,-1651,-979,-162,-247,-92,311,39,-143
2,7086072,-3454,-1652,-981,-164,-242,-79,311,39,-143
2,7086086,-3454,-1652,-981,-164,-242,-79,311,39,-143
2,7086098,-3455,-1649,-983,-168,-244,-83,311,39,-143
2,7086110,-3455,-1649,-983,-168,-244,-83,311,39,-143
2,7086124,-3451,-1647,-977,-165,-242,-88,311,39,-143
2,7086137,-3454,-1647,-980,-165,-241,-90,308,50,-134
2,7086149,-3454,-1647,-980,-165,-241,-90,308,50,-134
2,7086162,-3450,-1647,-977,-163,-239,-89,308,50,-134
2,7086177,-3455,-1650,-977,-161,-250,-88,308,50,-134
2,7086188,-3455,-1650,-977,-161,-250,-88,308,50,-134
2,7086201,-3456,-1648,-979,-156,-239,-91,308,50,-134
2,7086215,-3454,-1653,-974,-158,-241,-90,308,50,-134
2,7086227,-3454,-1653,-974,-158,-241,-90,308,50,-134
2,7086237,-3451,-1649,-977,-164,-251,-84,308,50,-134
2,7086245,-3451,-1649,-977,-164,-251,-84,308,50,-134
2,7086254,-3449,-1647,-979,-163,-239,-84,308,50,-134
2,7086261,-3449,-1647,-979,-163,-239,-84,308,50,-134
2,7086270,-3449,-1647,-979,-163,-239,-84,308,50,-134
2,7086285,-3448,-1650,-980,-160,-243,-86,306,34,-126
2,7086301,-3455,-1647,-978,-165,-241,-79,306,34,-126
