imu,time,ax,ay,az,gx,gy,gz,mx,my,mz
0,6387995,198,-1873,-386,-1027,-565,-324,318,146,-404
0,6388000,200,-1872,-384,-1032,-566,-319,318,146,-404
0,6388005,200,-1872,-384,-1032,-566,-319,318,146,-404
0,6388011,200,-1872,-384,-1032,-566,-319,318,146,-404
0,6388016,200,-1872,-384,-1032,-566,-319,318,146,-404
0,6388021,201,-1876,-379,-1030,-564,-329,318,146,-404
0,6388026,201,-1876,-379,-1030,-564,-329,318,146,-404
0,6388031,201,-1876,-379,-1030,-564,-329,318,146,-404
0,6388036,202,-1873,-382,-1023,-563,-326,318,146,-404
0,6388041,202,-1873,-382,-1023,-563,-326,318,146,-404
0,6388046,202,-1873,-382,-1023,-563,-326,318,146,-404
0,6388051,202,-1873,-382,-1023,-563,-326,318,146,-404
0,6388057,201,-1874,-384,-1029,-565,-324,306,146,-400
0,6388062,201,-1874,-384,-1029,-565,-324,306,146,-400
0,6388067,201,-1874,-384,-1029,-565,-324,306,146,-400
0,6388072,201,-1874,-384,-1029,-565,-324,306,146,-400
0,6388078,196,-1873,-381,-1025,-570,-323,306,146,-400
0,6388083,196,-1873,-381,-1025,-570,-323,306,146,-400
0,6388088,196,-1873,-381,-1025,-570,-323,306,146,-400
0,6388092,196,-1873,-381,-1025,-570,-323,306,146,-400
0,6388098,197,-1876,-384,-1026,-567,-320,306,146,-400
0,6388104,197,-1876,-384,-1026,-567,-320,306,146,-400
0,6388109,197,-1876,-384,-1026,-567,-320,306,146,-400
0,6388114,197,-1876,-384,-1026,-567,-320,306,146,-400
0,6388120,201,-1876,-382,-1024,-565,-322,306,146,-400
0,6388125,201,-1876,-382,-1024,-565,-322,306,146,-400
0,6388132,201,-1876,-382,-1024,-565,-322,306,146,-400
0,6388137,198,-1874,-384,-1029,-557,-321,306,146,-400
0,6388145,198,-1874,-384,-1029,-557,-321,306,146,-400
0,6388151,198,-1874,-384,-1029,-557,-321,306,146,-400
0,6388157,198,-1872,-385,-1027,-562,-323,306,146,-400
0,6388164,198,-1872,-385,-1027,-562,-323,306,146,-400
0,6388172,198,-1872,-385,-1027,-562,-323,306,146,-400
0,6388180,201,-1872,-383,-1030,-572,-325,306,146,-400
0,6388188,201,-1872,-383,-1030,-572,-325,306,146,-400
0,6388193,201,-1872,-383,-1030,-572,-325,306,146,-400
0,6388201,198,-1874,-380,-1026,-569,-325,304,150,-408
0,6388207,198,-1874,-380,-1026,-569,-325,304,150,-408
0,6388214,198,-1874,-380,-1026,-569,-325,304,150,-408
0,6388221,197,-1873,-381,-1029,-563,-323,304,150,-408
0,6388230,197,-1873,-381,-1029,-563,-323,304,150,-408
0,6388236,197,-1873,-381,-1029,-563,-323,304,150,-408
0,6388246,200,-1874,-386,-1027,-565,-319,304,150,-408
0,6388254,200,-1874,-386,-1027,-565,-319,304,150,-408
0,6388260,200,-1875,-380,-1031,-564,-325,304,150,-408
0,6388268,200,-1875,-380,-1031,-564,-325,304,150,-408
0,6388274,200,-1875,-380,-1031,-564,-325,304,150,-408
0,6388281,198,-1875,-387,-1024,-558,-326,304,150,-408
0,6388286,198,-1875,-387,-1024,-558,-326,304,150,-408
0,6388291,198,-1875,-387,-1024,-558,-326,304,150,-408
0,6388297,201,-1876,-387,-1021,-564,-327,304,150,-408
0,6388302,201,-1876,-387,-1021,-564,-327,304,150,-408
0,6388306,201,-1876,-387,-1021,-564,-327,304,150,-408
0,6388312,201,-1876,-387,-1021,-564,-327,304,150,-408
0,6388318,201,-1872,-389,-1031,-569,-329,301,153,-403
0,6388322,201,-1872,-389,-1031,-569,-329,301,153,-403
0,6388329,201,-1872,-389,-1031,-569,-329,301,153,-403
0,6388335,201,-1872,-389,-1031,-569,-329,301,153,-403
0,6388342,200,-1874,-379,-1030,-570,-326,301,153,-403
0,6388350,200,-1874,-379,-1030,-570,-326,301,153,-403
0,6388357,197,-1874,-378,-1020,-560,-325,301,153,-403
0,6388364,197,-1874,-378,-1020,-560,-325,301,153,-403
0,6388372,197,-1874,-378,-1020,-560,-325,301,153,-403
0,6388380,199,-1874,-386,-1035,-560,-316,301,153,-403
0,6388385,199,-1874,-386,-1035,-560,-316,301,153,-403
0,6388392,199,-1874,-386,-1035,-560,-316,301,153,-403
0,6388401,202,-1873,-382,-1032,-570,-322,301,153,-403
0,6388408,202,-1873,-382,-1032,-570,-322,301,153,-403
0,6388413,202,-1873,-382,-1032,-570,-322,301,153,-403
0,6388418,198,-1870,-381,-1031,-571,-320,301,153,-403
0,6388425,198,-1870,-381,-1031,-571,-320,301,153,-403
0,6388432,198,-1870,-381,-1031,-571,-320,301,153,-403
0,6388441,201,-1871,-383,-1031,-564,-320,301,153,-403
0,6388448,201,-1871,-383,-1031,-564,-320,301,153,-403
0,6388455,201,-1871,-383,-1031,-564,-320,301,153,-403
0,6388463,200,-1874,-380,-1027,-564,-326,309,149,-401
0,6388470,200,-1874,-380,-1027,-564,-326,309,149,-401
0,6388477,198,-1875,-385,-1026,-568,-327,309,149,-401
0,6388485,198,-1875,-385,-1026,-568,-327,309,149,-401
0,6388491,198,-1875,-385,-1026,-568,-327,309,149,-401
0,6388498,199,-1875,-382,-1027,-565,-321,309,149,-401
0,6388506,199,-1875,-382,-1027,-565,-321,309,149,-401
0,6388513,199,-1875,-382,-1027,-565,-321,309,149,-401
0,6388521,200,-1873,-383,-1032,-560,-321,309,149,-401
0,6388528,200,-1873,-383,-1032,-560,-321,309,149,-401
0,6388535,200,-1873,-383,-1032,-560,-321,309,149,-401
0,6388542,201,-1875,-381,-1026,-565,-334,309,149,-401
0,6388548,201,-1875,-381,-1026,-565,-334,309,149,-401
0,6388555,201,-1875,-381,-1026,-565,-334,309,149,-401
0,6388561,204,-1874,-384,-1024,-566,-327,309,149,-401
0,6388569,204,-1874,-384,-1024,-566,-327,309,149,-401
0,6388576,204,-1874,-384,-1024,-566,-327,309,149,-401
0,6388581,200,-1874,-377,-1028,-566,-324,308,148,-404
0,6388586,200,-1874,-377,-1028,-566,-324,308,148,-404
0,6388592,200,-1874,-377,-1028,-566,-324,308,148,-404
0,6388597,198,-1873,-378,-1032,-561,-321,308,148,-404
0,6388602,198,-1873,-378,-1032,-561,-321,308,148,-404
0,6388608,198,-1873,-378,-1032,-561,-321,308,148,-404
0,6388613,198,-1873,-378,-1032,-561,-321,308,148,-404
0,6388620,197,-1868,-379,-1028,-561,-327,308,148,-404
0,6388626,197,-1868,-379,-1028,-561,-327,308,148,-404
0,6388633,197,-1868,-379,-1028,-561,-327,308,148,-404
0,6388639,197,-1873,-382,-1034,-565,-324,308,148,-404
0,6388646,197,-1873,-382,-1034,-565,-324,308,148,-404
0,6388654,197,-1873,-382,-1034,-565,-324,308,148,-404
0,6388661,200,-1874,-384,-1030,-559,-325,308,148,-404
0,6388667,200,-1874,-384,-1030,-559,-325,308,148,-404
0,6388676,200,-1874,-384,-1030,-559,-325,308,148,-404
0,6388682,197,-1875,-388,-1030,-559,-332,308,148,-404
0,6388690,197,-1875,-388,-1030,-559,-332,308,148,-404
0,6388698,195,-1873,-386,-1031,-566,-327,308,148,-404
0,6388704,195,-1873,-386,-1031,-566,-327,308,148,-404
0,6388711,195,-1873,-386,-1031,-566,-327,308,148,-404
0,6388717,199,-1873,-381,-1032,-562,-323,319,155,-407
0,6388724,199,-1873,-381,-1032,-562,-323,319,155,-407
0,6388731,199,-1873,-381,-1032,-562,-323,319,155,-407
0,6388740,197,-1872,-384,-1027,-563,-324,319,155,-407
0,6388747,197,-1872,-384,-1027,-563,-324,319,155,-407
0,6388754,197,-1872,-384,-1027,-563,-324,319,155,-407
0,6388761,198,-1876,-389,-1031,-566,-323,319,155,-407
0,6388767,198,-1876,-389,-1031,-566,-323,319,155,-407
0,6388775,198,-1876,-389,-1031,-566,-323,319,155,-407
0,6388784,198,-1874,-379,-1026,-568,-327,319,155,-407
0,6388790,198,-1874,-379,-1026,-568,-327,319,155,-407
0,6388797,196,-1874,-381,-1036,-569,-328,319,155,-407
0,6388804,196,-1874,-381,-1036,-569,-328,319,155,-407
0,6388812,196,-1874,-381,-1036,-569,-328,319,155,-407
0,6388818,199,-1875,-388,-1034,-572,-327,319,155,-407
0,6388826,199,-1875,-388,-1034,-572,-327,319,155,-407
0,6388834,199,-1875,-388,-1034,-572,-327,319,155,-407
0,6388841,200,-1874,-382,-1025,-574,-323,307,141,-405
0,6388847,200,-1874,-382,-1025,-574,-323,307,141,-405
0,6388854,200,-1874,-382,-1025,-574,-323,307,141,-405
0,6388862,201,-1872,-379,-1028,-570,-341,307,141,-405
0,6388869,201,-1872,-379,-1028,-570,-341,307,141,-405
0,6388876,201,-1872,-379,-1028,-570,-341,307,141,-405
0,6388884,200,-1874,-381,-1029,-568,-325,307,141,-405
0,6388891,200,-1874,-381,-1029,-568,-325,307,141,-405
0,6388898,201,-1872,-380,-1022,-560,-322,307,141,-405
0,6388905,201,-1872,-380,-1022,-560,-322,307,141,-405
0,6388912,201,-1872,-380,-1022,-560,-322,307,141,-405
0,6388919,199,-1873,-383,-1023,-561,-325,307,141,-405
0,6388924,199,-1873,-383,-1023,-561,-325,307,141,-405
0,6388929,199,-1873,-383,-1023,-561,-325,307,141,-405
0,6388934,199,-1873,-383,-1023,-561,-325,307,141,-405
0,6388943,201,-1874,-382,-1033,-569,-319,307,141,-405
0,6388951,201,-1874,-382,-1033,-569,-319,307,141,-405
0,6388956,201,-1874,-382,-1033,-569,-319,307,141,-405
0,6388963,195,-1872,-384,-1026,-565,-316,308,154,-414
0,6388970,195,-1872,-384,-1026,-565,-316,308,154,-414
0,6388976,195,-1872,-384,-1026,-565,-316,308,154,-414
0,6388983,199,-1875,-381,-1027,-567,-320,308,154,-414
0,6388989,199,-1875,-381,-1027,-567,-320,308,154,-414
0,6388998,201,-1875,-387,-1019,-565,-326,308,154,-414
0,6389011,201,-1875,-387,-1019,-565,-326,308,154,-414
0,6389022,200,-1877,-387,-1016,-558,-317,308,154,-414
0,6389032,200,-1877,-387,-1016,-558,-317,308,154,-414
0,6389042,201,-1874,-386,-1025,-559,-326,308,154,-414
0,6389051,201,-1874,-386,-1025,-559,-326,308,154,-414
0,6389060,199,-1874,-390,-1025,-562,-316,308,154,-414
0,6389071,199,-1874,-390,-1025,-562,-316,308,154,-414
0,6389084,197,-1874,-385,-1028,-562,-324,308,154,-414
0,6389096,197,-1874,-385,-1028,-562,-324,308,154,-414
0,6389109,199,-1875,-382,-1029,-556,-333,310,146,-406
0,6389122,198,-1877,-385,-1023,-560,-322,310,146,-406
0,6389132,198,-1877,-385,-1023,-560,-322,310,146,-406
0,6389144,200,-1871,-381,-1020,-564,-319,310,146,-406
0,6389157,200,-1876,-390,-1028,-563,-321,310,146,-406
0,6389170,200,-1876,-390,-1028,-563,-321,310,146,-406
0,6389183,200,-1874,-383,-1027,-571,-326,310,146,-406
0,6389196,200,-1874,-383,-1027,-571,-326,310,146,-406
0,6389209,201,-1873,-391,-1029,-565,-320,310,146,-406
0,6389221,199,-1873,-381,-1034,-568,-320,314,154,-406
0,6389234,199,-1873,-381,-1034,-568,-320,314,154,-406
0,6389248,198,-1876,-385,-1027,-568,-322,314,154,-406
0,6389261,200,-1871,-384,-1033,-565,-319,314,154,-406
0,6389272,200,-1871,-384,-1033,-565,-319,314,154,-406
0,6389284,199,-1875,-380,-1029,-565,-324,314,154,-406
0,6389293,199,-1875,-380,-1029,-565,-324,314,154,-406
0,6389300,198,-1872,-384,-1028,-571,-322,314,154,-406
0,6389308,198,-1872,-384,-1028,-571,-322,314,154,-406
0,6389316,198,-1872,-384,-1028,-571,-322,314,154,-406
0,6389324,200,-1873,-384,-1028,-568,-327,314,154,-406
0,6389332,200,-1873,-384,-1028,-568,-327,314,154,-406
0,6389341,198,-1874,-385,-1033,-568,-320,314,154,-406
0,6389349,198,-1874,-385,-1033,-568,-320,314,154,-406
0,6389358,198,-1876,-372,-1029,-569,-322,312,148,-406
0,6389365,198,-1876,-372,-1029,-569,-322,312,148,-406
0,6389373,198,-1876,-372,-1029,-569,-322,312,148,-406
0,6389382,199,-1873,-382,-1026,-565,-322,312,148,-406
0,6389390,199,-1873,-382,-1026,-565,-322,312,148,-406
0,6389397,199,-1873,-382,-1026,-565,-322,312,148,-406
0,6389405,197,-1873,-384,-1030,-567,-323,312,148,-406
0,6389413,197,-1873,-384,-1030,-567,-323,312,148,-406
0,6389423,200,-1874,-386,-1039,-569,-322,312,148,-406
0,6389430,200,-1874,-386,-1039,-569,-322,312,148,-406
0,6389440,199,-1875,-383,-1031,-564,-317,312,148,-406
0,6389450,199,-1875,-383,-1031,-564,-317,312,148,-406
0,6389459,199,-1875,-385,-1030,-569,-328,312,148,-406
0,6389469,199,-1875,-385,-1030,-569,-328,312,148,-406
0,6389478,198,-1871,-376,-1028,-561,-329,308,152,-402
0,6389487,198,-1871,-376,-1028,-561,-329,308,152,-402
0,6389496,198,-1871,-376,-1028,-561,-329,308,152,-402
0,6389505,202,-1870,-380,-1031,-566,-319,308,152,-402
0,6389513,202,-1870,-380,-1031,-566,-319,308,152,-402
0,6389521,203,-1873,-382,-1025,-562,-325,308,152,-402
0,6389529,203,-1873,-382,-1025,-562,-325,308,152,-402
0,6389540,199,-1871,-389,-1026,-564,-324,308,152,-402
0,6389555,199,-1871,-389,-1026,-564,-324,308,152,-402
0,6389567,197,-1875,-385,-1025,-568,-327,308,152,-402
0,6389580,200,-1874,-386,-1030,-564,-327,308,152,-402
0,6389588,200,-1874,-386,-1030,-564,-327,308,152,-402
0,6389596,200,-1874,-386,-1030,-564,-327,308,152,-402
0,6389604,196,-1875,-378,-1029,-569,-321,308,152,-402
0,6389616,196,-1875,-378,-1029,-569,-321,308,152,-402
0,6389628,197,-1873,-384,-1024,-569,-327,312,146,-398
0,6389640,197,-1873,-379,-1021,-566,-332,312,146,-398
0,6389653,197,-1873,-379,-1021,-566,-332,312,146,-398
0,6389665,198,-1874,-382,-1031,-569,-327,312,146,-398
0,6389678,198,-1874,-382,-1031,-569,-327,312,146,-398
0,6389691,199,-1873,-383,-1027,-571,-333,312,146,-398
0,6389705,198,-1874,-386,-1035,-577,-321,312,146,-398
0,6389719,202,-1872,-383,-1034,-565,-312,312,146,-398
0,6389727,202,-1872,-383,-1034,-565,-312,312,146,-398
0,6389738,201,-1874,-376,-1031,-564,-317,312,146,-398
0,6389751,201,-1874,-376,-1031,-564,-317,313,147,-411
0,6389764,201,-1870,-380,-1022,-570,-319,313,147,-411
0,6389775,201,-1870,-380,-1022,-570,-319,313,147,-411
0,6389787,198,-1872,-386,-1024,-561,-316,313,147,-411
0,6389800,197,-1870,-380,-1037,-563,-320,313,147,-411
0,6389814,197,-1870,-380,-1037,-563,-320,313,147,-411
0,6389825,201,-1871,-385,-1030,-564,-327,313,147,-411
0,6389837,201,-1871,-385,-1030,-564,-327,313,147,-411
0,6389852,201,-1877,-377,-1021,-569,-317,313,147,-411
0,6389864,202,-1874,-387,-1027,-566,-323,310,156,-404
0,6389875,202,-1874,-387,-1027,-566,-323,310,156,-404
0,6389889,201,-1874,-383,-1027,-569,-331,310,156,-404
0,6389902,198,-1875,-383,-1032,-571,-331,310,156,-404
0,6389914,198,-1875,-383,-1032,-571,-331,310,156,-404
0,6389928,197,-1873,-385,-1029,-569,-325,310,156,-404
0,6389942,200,-1875,-386,-1026,-562,-323,310,156,-404
0,6389956,200,-1875,-386,-1026,-562,-323,310,156,-404
0,6389969,201,-1874,-387,-1023,-562,-335,310,156,-404
0,6389983,202,-1874,-382,-1023,-560,-331,310,156,-404
0,6389993,202,-1874,-382,-1023,-560,-331,310,156,-404
0,6390006,202,-1873,-379,-1029,-565,-334,308,150,-400
0,6390014,202,-1873,-379,-1029,-565,-334,308,150,-400
0,6390021,202,-1873,-379,-1029,-565,-334,308,150,-400
0,6390028,202,-1873,-379,-1029,-565,-334,308,150,-400
0,6390033,202,-1873,-379,-1029,-565,-334,308,150,-400
0,6390040,198,-1874,-386,-1024,-565,-326,308,150,-400
0,6390047,198,-1874,-386,-1024,-565,-326,308,150,-400
0,6390054,198,-1874,-386,-1024,-565,-326,308,150,-400
0,6390062,196,-1875,-383,-1028,-564,-327,308,150,-400
0,6390070,196,-1875,-383,-1028,-564,-327,308,150,-400
0,6390075,196,-1875,-383,-1028,-564,-327,308,150,-400
0,6390083,201,-1874,-385,-1030,-569,-320,308,150,-400
0,6390090,201,-1874,-385,-1030,-569,-320,308,150,-400
0,6390096,201,-1874,-385,-1030,-569,-320,308,150,-400
0,6390103,200,-1874,-382,-1031,-572,-326,308,150,-400
0,6390108,200,-1874,-382,-1031,-572,-326,308,150,-400
0,6390114,200,-1874,-382,-1031,-572,-326,308,150,-400
0,6390121,199,-1872,-379,-1028,-567,-320,313,145,-413
0,6390128,199,-1872,-379,-1028,-567,-320,313,145,-413
0,6390135,199,-1872,-379,-1028,-567,-320,313,145,-413
0,6390142,199,-1873,-382,-1026,-564,-324,313,145,-413
0,6390150,199,-1873,-382,-1026,-564,-324,313,145,-413
0,6390156,199,-1873,-382,-1026,-564,-324,313,145,-413
0,6390162,196,-1872,-384,-1030,-565,-321,313,145,-413
0,6390167,196,-1872,-384,-1030,-565,-321,313,145,-413
0,6390174,196,-1872,-384,-1030,-565,-321,313,145,-413
0,6390182,200,-1873,-380,-1032,-570,-320,313,145,-413
0,6390189,200,-1873,-380,-1032,-570,-320,313,145,-413
0,6390197,200,-1873,-380,-1032,-570,-320,313,145,-413
0,6390204,201,-1873,-387,-1027,-565,-327,313,145,-413
0,6390209,201,-1873,-387,-1027,-565,-327,313,145,-413
0,6390216,201,-1873,-387,-1027,-565,-327,313,145,-413
0,6390224,198,-1877,-386,-1027,-561,-328,313,145,-413
0,6390233,198,-1877,-386,-1027,-561,-328,313,145,-413
0,6390241,199,-1876,-383,-1022,-567,-318,313,145,-413
0,6390248,199,-1876,-383,-1022,-567,-318,313,145,-413
0,6390255,199,-1876,-383,-1022,-567,-318,313,145,-413
0,6390262,203,-1870,-380,-1033,-572,-320,316,148,-404
0,6390269,203,-1870,-380,-1033,-572,-320,316,148,-404
0,6390276,203,-1870,-380,-1033,-572,-320,316,148,-404
0,6390283,201,-1871,-381,-1032,-566,-327,316,148,-404
0,6390288,201,-1871,-381,-1032,-566,-327,316,148,-404
0,6390294,201,-1871,-381,-1032,-566,-327,316,148,-404
0,6390299,200,-1873,-381,-1028,-566,-326,316,148,-404
0,6390304,200,-1873,-381,-1028,-566,-326,316,148,-404
0,6390309,200,-1873,-381,-1028,-566,-326,316,148,-404
0,6390315,200,-1873,-381,-1028,-566,-326,316,148,-404
0,6390323,197,-1872,-385,-1023,-565,-330,316,148,-404
0,6390329,197,-1872,-385,-1023,-565,-330,316,148,-404
0,6390335,197,-1872,-385,-1023,-565,-330,316,148,-404
0,6390342,197,-1873,-383,-1024,-573,-325,316,148,-404
0,6390350,197,-1873,-383,-1024,-573,-325,316,148,-404
0,6390359,197,-1873,-383,-1024,-573,-325,316,148,-404
0,6390367,198,-1875,-387,-1035,-566,-321,316,148,-404
0,6390373,198,-1875,-387,-1035,-566,-321,316,148,-404
0,6390380,204,-1874,-381,-1037,-573,-326,308,146,-400
0,6390387,204,-1874,-381,-1037,-573,-326,308,146,-400
0,6390393,204,-1874,-381,-1037,-573,-326,308,146,-400
0,6390401,201,-1876,-381,-1032,-567,-328,308,146,-400
0,6390409,201,-1876,-381,-1032,-567,-328,308,146,-400
0,6390415,201,-1876,-381,-1032,-567,-328,308,146,-400
0,6390422,198,-1873,-380,-1032,-571,-334,308,146,-400
0,6390428,198,-1873,-380,-1032,-571,-334,308,146,-400
0,6390436,198,-1873,-380,-1032,-571,-334,308,146,-400
0,6390444,202,-1872,-379,-1021,-564,-322,308,146,-400
0,6390451,202,-1872,-379,-1021,-564,-322,308,146,-400
0,6390459,199,-1874,-381,-1015,-564,-318,308,146,-400
0,6390466,199,-1874,-381,-1015,-564,-318,308,146,-400
0,6390474,199,-1874,-381,-1015,-564,-318,308,146,-400
0,6390482,198,-1873,-382,-1028,-568,-324,308,146,-400
0,6390490,198,-1873,-382,-1028,-568,-324,308,146,-400
0,6390496,198,-1873,-382,-1028,-568,-324,308,146,-400
0,6390503,202,-1873,-383,-1032,-572,-325,308,146,-400
0,6390511,202,-1873,-383,-1032,-572,-325,308,146,-400
0,6390518,202,-1873,-383,-1032,-572,-325,308,146,-400
0,6390525,200,-1876,-382,-1033,-570,-318,309,149,-409
0,6390534,200,-1876,-382,-1033,-570,-318,309,149,-409
0,6390540,199,-1875,-385,-1032,-569,-321,309,149,-409
0,6390547,199,-1875,-385,-1032,-569,-321,309,149,-409
0,6390555,199,-1875,-385,-1032,-569,-321,309,149,-409
0,6390560,200,-1874,-385,-1035,-576,-330,309,149,-409
0,6390568,200,-1874,-385,-1035,-576,-330,309,149,-409
0,6390576,200,-1874,-385,-1035,-576,-330,309,149,-409
0,6390582,198,-1874,-379,-1032,-573,-322,309,149,-409
0,6390587,198,-1874,-379,-1032,-573,-322,309,149,-409
0,6390592,198,-1874,-379,-1032,-573,-322,309,149,-409
0,6390597,198,-1874,-379,-1032,-573,-322,309,149,-409
0,6390602,199,-1876,-387,-1026,-565,-327,309,149,-409
0,6390607,199,-1876,-387,-1026,-565,-327,309,149,-409
0,6390612,199,-1876,-387,-1026,-565,-327,309,149,-409
0,6390621,201,-1873,-386,-1035,-565,-316,309,149,-409
0,6390627,201,-1873,-386,-1035,-565,-316,309,149,-409
0,6390634,201,-1873,-386,-1035,-565,-316,309,149,-409
0,6390640,203,-1874,-379,-1027,-566,-327,303,137,-407
0,6390647,203,-1874,-379,-1027,-566,-327,303,137,-407
0,6390654,203,-1874,-379,-1027,-566,-327,303,137,-407
0,6390661,198,-1876,-383,-1025,-562,-331,303,137,-407
0,6390669,198,-1876,-383,-1025,-562,-331,303,137,-407
0,6390676,198,-1876,-383,-1025,-562,-331,303,137,-407
0,6390683,197,-1869,-381,-1023,-560,-325,303,137,-407
0,6390689,197,-1869,-381,-1023,-560,-325,303,137,-407
0,6390694,197,-1869,-381,-1023,-560,-325,303,137,-407
0,6390703,198,-1874,-387,-1023,-568,-327,303,137,-407
0,6390710,198,-1874,-387,-1023,-568,-327,303,137,-407
0,6390718,198,-1874,-387,-1023,-568,-327,303,137,-407
0,6390725,197,-1876,-383,-1033,-574,-327,303,137,-407
0,6390731,197,-1876,-383,-1033,-574,-327,303,137,-407
0,6390739,199,-1869,-384,-1032,-569,-331,303,137,-407
0,6390747,199,-1869,-384,-1032,-569,-331,303,137,-407
0,6390754,199,-1869,-384,-1032,-569,-331,303,137,-407
0,6390760,198,-1872,-379,-1029,-571,-331,311,141,-409
0,6390768,198,-1872,-379,-1029,-571,-331,311,141,-409
0,6390775,198,-1872,-379,-1029,-571,-331,311,141,-409
0,6390781,200,-1873,-386,-1032,-571,-326,311,141,-409
0,6390789,200,-1873,-386,-1032,-571,-326,311,141,-409
0,6390797,200,-1873,-386,-1032,-571,-326,311,141,-409
0,6390803,200,-1875,-380,-1036,-574,-332,311,141,-409
0,6390810,200,-1875,-380,-1036,-574,-332,311,141,-409
0,6390818,200,-1875,-380,-1036,-574,-332,311,141,-409
0,6390825,200,-1874,-385,-1034,-574,-320,311,141,-409
0,6390832,200,-1874,-385,-1034,-574,-320,311,141,-409
0,6390840,199,-1872,-382,-1032,-564,-327,311,141,-409
0,6390846,199,-1872,-382,-1032,-564,-327,311,141,-409
0,6390853,199,-1872,-382,-1032,-564,-327,311,141,-409
0,6390860,198,-1877,-381,-1031,-561,-333,311,141,-409
0,6390866,198,-1877,-381,-1031,-561,-333,311,141,-409
0,6390874,198,-1877,-381,-1031,-561,-333,311,141,-409
0,6390879,198,-1877,-381,-1031,-561,-333,311,141,-409
0,6390887,201,-1877,-383,-1030,-566,-321,311,141,-409
0,6390895,201,-1877,-383,-1030,-566,-321,311,141,-409
0,6390902,200,-1877,-378,-1024,-561,-323,314,136,-406
0,6390908,200,-1877,-378,-1024,-561,-323,314,136,-406
0,6390916,200,-1877,-378,-1024,-561,-323,314,136,-406
0,6390923,198,-1875,-380,-1024,-566,-325,314,136,-406
0,6390929,198,-1875,-380,-1024,-566,-325,314,136,-406
0,6390937,198,-1875,-380,-1024,-566,-325,314,136,-406
0,6390944,199,-1875,-383,-1025,-564,-324,314,136,-406
0,6390949,199,-1875,-383,-1025,-564,-324,314,136,-406
0,6390956,199,-1875,-383,-1025,-564,-324,314,136,-406
0,6390963,199,-1875,-383,-1025,-564,-324,314,136,-406
0,6390970,199,-1875,-383,-1025,-564,-324,314,136,-406
0,6390977,199,-1875,-383,-1025,-564,-324,314,136,-406
0,6390983,197,-1872,-385,-1026,-560,-323,314,136,-406
0,6390992,197,-1872,-385,-1026,-560,-323,314,136,-406
0,6391000,197,-1872,-385,-1026,-560,-323,314,136,-406
0,6391006,200,-1872,-385,-1018,-568,-326,314,136,-406
0,6391015,200,-1872,-385,-1018,-568,-326,314,136,-406
0,6391029,200,-1871,-382,-1023,-575,-322,307,143,-399
0,6391041,194,-1874,-386,-1031,-564,-321,307,143,-399
0,6391050,194,-1874,-386,-1031,-564,-321,307,143,-399
0,6391062,199,-1874,-381,-1029,-565,-331,307,143,-399
0,6391075,199,-1874,-381,-1029,-565,-331,307,143,-399
0,6391088,198,-1872,-379,-1027,-569,-326,307,143,-399
0,6391099,198,-1872,-379,-1027,-569,-326,307,143,-399
0,6391110,197,-1872,-385,-1036,-564,-324,307,143,-399
0,6391119,195,-1874,-389,-1027,-573,-325,307,143,-399
0,6391128,195,-1874,-389,-1027,-573,-325,307,143,-399
0,6391136,195,-1874,-389,-1027,-573,-325,307,143,-399
0,6391144,199,-1874,-383,-1029,-564,-323,307,143,-399
0,6391158,199,-1874,-383,-1029,-564,-323,307,143,-399
0,6391166,197,-1875,-384,-1028,-567,-328,308,152,-406
0,6391179,197,-1875,-384,-1028,-567,-328,308,152,-406
0,6391191,197,-1875,-384,-1030,-562,-326,308,152,-406
0,6391201,200,-1874,-384,-1019,-561,-333,308,152,-406
0,6391214,200,-1874,-384,-1019,-561,-333,308,152,-406
0,6391226,199,-1878,-382,-1020,-564,-329,308,152,-406
0,6391237,199,-1878,-382,-1020,-564,-329,308,152,-406
0,6391248,200,-1875,-380,-1021,-561,-326,308,152,-406
0,6391261,197,-1875,-383,-1032,-568,-328,308,152,-406
0,6391271,197,-1875,-383,-1032,-568,-328,308,152,-406
0,6391281,201,-1872,-382,-1030,-568,-327,310,150,-406
0,6391289,201,-1872,-382,-1030,-568,-327,310,150,-406
0,6391298,201,-1872,-382,-1030,-568,-327,310,150,-406
0,6391306,205,-1874,-381,-1028,-560,-324,310,150,-406
0,6391314,205,-1874,-381,-1028,-560,-324,310,150,-406
0,6391321,200,-1871,-387,-1018,-562,-329,310,150,-406
0,6391329,200,-1871,-387,-1018,-562,-329,310,150,-406
0,6391337,200,-1871,-387,-1018,-562,-329,310,150,-406
0,6391345,199,-1873,-382,-1019,-559,-327,310,150,-406
0,6391353,199,-1873,-382,-1019,-559,-327,310,150,-406
0,6391361,199,-1872,-387,-1029,-569,-328,310,150,-406
0,6391369,199,-1872,-387,-1029,-569,-328,310,150,-406
0,6391377,199,-1872,-387,-1029,-569,-328,310,150,-406
0,6391386,200,-1874,-386,-1025,-568,-326,310,150,-406
0,6391394,200,-1874,-386,-1025,-568,-326,310,150,-406
0,6391407,199,-1875,-384,-1027,-567,-321,304,158,-404
0,6391417,199,-1875,-384,-1027,-567,-321,304,158,-404
0,6391432,198,-1873,-378,-1029,-569,-327,304,158,-404
0,6391443,200,-1874,-386,-1028,-562,-326,304,158,-404
0,6391455,200,-1874,-386,-1028,-562,-326,304,158,-404
0,6391470,198,-1872,-383,-1031,-567,-318,304,158,-404
0,6391482,201,-1873,-384,-1020,-564,-320,304,158,-404
0,6391495,201,-1873,-384,-1020,-564,-320,304,158,-404
0,6391508,200,-1874,-383,-1023,-573,-329,304,158,-404
0,6391521,199,-1875,-384,-1028,-567,-327,304,158,-404
0,6391534,199,-1875,-384,-1028,-567,-327,304,158,-404
0,6391547,198,-1875,-379,-1037,-567,-330,304,148,-406
0,6391561,197,-1874,-383,-1031,-566,-331,304,148,-406
0,6391573,197,-1874,-383,-1031,-566,-331,304,148,-406
0,6391584,199,-1875,-384,-1028,-566,-325,304,148,-406
0,6391592,199,-1875,-384,-1028,-566,-325,304,148,-406
0,6391601,201,-1873,-382,-1024,-560,-321,304,148,-406
0,6391609,201,-1873,-382,-1024,-560,-321,304,148,-406
0,6391619,201,-1873,-382,-1024,-560,-321,304,148,-406
0,6391632,200,-1871,-383,-1025,-559,-323,304,148,-406
0,6391647,200,-1877,-389,-1026,-560,-324,304,148,-406
0,6391659,200,-1877,-389,-1026,-560,-324,304,148,-406
0,6391672,198,-1874,-384,-1023,-568,-327,313,139,-405
0,6391685,199,-1870,-380,-1031,-571,-324,313,139,-405
0,6391698,199,-1870,-380,-1031,-571,-324,313,139,-405
0,6391710,198,-1872,-385,-1032,-569,-325,313,139,-405
0,6391719,198,-1872,-385,-1032,-569,-325,313,139,-405
0,6391728,199,-1873,-386,-1029,-566,-327,313,139,-405
0,6391736,199,-1873,-386,-1029,-566,-327,313,139,-405
0,6391743,200,-1872,-387,-1023,-558,-324,313,139,-405
0,6391753,200,-1872,-387,-1023,-558,-324,313,139,-405
0,6391766,199,-1873,-382,-1023,-560,-325,313,139,-405
0,6391779,199,-1873,-382,-1023,-560,-325,313,139,-405
0,6391791,198,-1875,-389,-1027,-564,-324,313,139,-405
0,6391802,201,-1871,-389,-1029,-563,-324,311,153,-401
0,6391815,201,-1871,-389,-1029,-563,-324,311,153,-401
0,6391826,198,-1873,-379,-1027,-561,-325,311,153,-401
0,6391838,198,-1873,-379,-1027,-561,-325,311,153,-401
0,6391851,199,-1875,-385,-1025,-562,-314,311,153,-401
0,6391864,200,-1875,-380,-1030,-566,-322,311,153,-401
0,6391874,200,-1875,-380,-1030,-566,-322,311,153,-401
0,6391884,198,-1873,-379,-1029,-573,-329,311,153,-401
0,6391900,198,-1873,-379,-1029,-573,-329,311,153,-401
0,6391912,199,-1874,-386,-1030,-570,-321,311,153,-401
0,6391920,199,-1874,-386,-1030,-570,-321,311,153,-401
0,6391933,198,-1875,-376,-1031,-567,-326,302,150,-408
0,6391948,197,-1874,-384,-1031,-567,-322,302,150,-408
0,6391961,197,-1873,-384,-1036,-567,-323,302,150,-408
0,6391971,197,-1873,-384,-1036,-567,-323,302,150,-408
0,6391980,197,-1873,-384,-1036,-567,-323,302,150,-408
0,6391988,200,-1874,-384,-1029,-565,-326,302,150,-408
0,6391996,200,-1874,-384,-1029,-565,-326,302,150,-408
0,6392008,200,-1874,-385,-1030,-564,-329,302,150,-408
0,6392020,200,-1874,-385,-1030,-564,-329,302,150,-408
0,6392029,199,-1873,-383,-1024,-566,-324,302,150,-408
0,6392035,199,-1873,-383,-1024,-566,-324,302,150,-408
0,6392042,201,-1874,-382,-1031,-569,-317,302,150,-408
0,6392050,201,-1874,-382,-1031,-569,-317,302,150,-408
0,6392057,201,-1874,-382,-1031,-569,-317,302,150,-408
0,6392064,202,-1873,-380,-1035,-572,-322,310,152,-392
0,6392069,202,-1873,-380,-1035,-572,-322,310,152,-392
0,6392076,202,-1873,-380,-1035,-572,-322,310,152,-392
0,6392084,199,-1874,-385,-1027,-572,-324,310,152,-392
0,6392092,199,-1874,-385,-1027,-572,-324,310,152,-392
0,6392100,199,-1874,-385,-1027,-572,-324,310,152,-392
0,6392105,200,-1873,-383,-1036,-569,-329,310,152,-392
0,6392112,200,-1873,-383,-1036,-569,-329,310,152,-392
0,6392119,200,-1873,-383,-1036,-569,-329,310,152,-392
0,6392125,197,-1874,-383,-1027,-570,-321,310,152,-392
0,6392132,197,-1874,-383,-1027,-570,-321,310,152,-392
0,6392139,197,-1874,-383,-1027,-570,-321,310,152,-392
0,6392146,198,-1875,-380,-1028,-565,-316,310,152,-392
0,6392153,198,-1875,-380,-1028,-565,-316,310,152,-392
0,6392161,198,-1875,-380,-1028,-565,-316,310,152,-392
0,6392167,197,-1874,-389,-1028,-565,-322,310,152,-392
0,6392175,197,-1874,-389,-1028,-565,-322,310,152,-392
0,6392182,198,-1870,-384,-1029,-569,-326,317,151,-407
0,6392188,198,-1870,-384,-1029,-569,-326,317,151,-407
0,6392195,198,-1870,-384,-1029,-569,-326,317,151,-407
0,6392201,198,-1870,-384,-1029,-569,-326,317,151,-407
0,6392208,199,-1874,-386,-1030,-571,-323,317,151,-407
0,6392216,199,-1874,-386,-1030,-571,-323,317,151,-407
0,6392223,197,-1872,-386,-1026,-562,-324,317,151,-407
0,6392231,197,-1872,-386,-1026,-562,-324,317,151,-407
0,6392240,197,-1872,-386,-1026,-562,-324,317,151,-407
0,6392247,199,-1877,-388,-1028,-565,-329,317,151,-407
0,6392253,199,-1877,-388,-1028,-565,-329,317,151,-407
0,6392258,199,-1877,-388,-1028,-565,-329,317,151,-407
0,6392264,201,-1873,-381,-1030,-570,-322,317,151,-407
0,6392269,201,-1873,-381,-1030,-570,-322,317,151,-407
0,6392275,201,-1873,-381,-1030,-570,-322,317,151,-407
0,6392282,197,-1875,-386,-1029,-573,-323,317,151,-407
0,6392287,197,-1875,-386,-1029,-573,-323,317,151,-407
0,6392292,197,-1875,-386,-1029,-573,-323,317,151,-407
0,6392297,197,-1875,-386,-1029,-573,-323,317,151,-407
0,6392303,199,-1874,-383,-1031,-567,-322,296,152,-400
0,6392308,199,-1874,-383,-1031,-567,-322,296,152,-400
0,6392313,199,-1874,-383,-1031,-567,-322,296,152,-400
0,6392318,199,-1874,-383,-1031,-567,-322,296,152,-400
0,6392326,201,-1873,-384,-1026,-560,-322,296,152,-400
0,6392333,201,-1873,-384,-1026,-560,-322,296,152,-400
0,6392341,201,-1873,-384,-1026,-560,-322,296,152,-400
0,6392347,198,-1873,-384,-1022,-564,-319,296,152,-400
0,6392353,198,-1873,-384,-1022,-564,-319,296,152,-400
0,6392360,198,-1873,-384,-1022,-564,-319,296,152,-400
0,6392369,201,-1876,-386,-1028,-571,-325,296,152,-400
0,6392375,201,-1876,-386,-1028,-571,-325,296,152,-400
0,6392383,198,-1875,-386,-1029,-573,-330,296,152,-400
0,6392389,198,-1875,-386,-1029,-573,-330,296,152,-400
0,6392396,198,-1875,-386,-1029,-573,-330,296,152,-400
0,6392403,201,-1874,-379,-1028,-565,-324,296,152,-400
0,6392411,201,-1874,-379,-1028,-565,-324,296,152,-400
0,6392418,201,-1874,-379,-1028,-565,-324,296,152,-400
0,6392424,198,-1872,-387,-1021,-563,-323,296,152,-400
0,6392431,198,-1872,-387,-1021,-563,-323,296,152,-400
0,6392437,198,-1872,-387,-1021,-563,-323,296,152,-400
0,6392444,198,-1872,-377,-1036,-569,-320,304,152,-400
0,6392452,198,-1872,-377,-1036,-569,-320,304,152,-400
0,6392457,198,-1872,-377,-1036,-569,-320,304,152,-400
0,6392464,198,-1873,-386,-1034,-566,-332,304,152,-400
0,6392471,198,-1873,-386,-1034,-566,-332,304,152,-400
0,6392479,198,-1873,-386,-1034,-566,-332,304,152,-400
0,6392485,202,-1876,-390,-1024,-577,-323,304,152,-400
0,6392493,202,-1876,-390,-1024,-577,-323,304,152,-400
0,6392500,202,-1876,-390,-1024,-577,-323,304,152,-400
0,6392506,198,-1877,-380,-1033,-570,-327,304,152,-400
0,6392514,198,-1877,-380,-1033,-570,-327,304,152,-400
0,6392521,198,-1877,-380,-1033,-570,-327,304,152,-400
0,6392528,198,-1877,-380,-1033,-570,-327,304,152,-400
0,6392537,198,-1877,-380,-1033,-570,-327,304,152,-400
0,6392543,201,-1877,-384,-1033,-568,-333,304,152,-400
0,6392549,201,-1877,-384,-1033,-568,-333,304,152,-400
0,6392554,201,-1877,-384,-1033,-568,-333,304,152,-400
0,6392562,197,-1874,-380,-1019,-566,-324,314,146,-410
0,6392569,197,-1874,-380,-1019,-566,-324,314,146,-410
0,6392578,197,-1874,-380,-1019,-566,-324,314,146,-410
0,6392583,198,-1875,-385,-1021,-558,-322,314,146,-410
0,6392587,198,-1875,-385,-1021,-558,-322,314,146,-410
0,6392592,198,-1875,-385,-1021,-558,-322,314,146,-410
0,6392597,198,-1875,-385,-1021,-558,-322,314,146,-410
0,6392602,198,-1871,-380,-1025,-566,-337,314,146,-410
0,6392607,198,-1871,-380,-1025,-566,-337,314,146,-410
0,6392612,198,-1871,-380,-1025,-566,-337,314,146,-410
0,6392620,198,-1871,-380,-1025,-566,-337,314,146,-410
0,6392627,199,-1873,-381,-1027,-566,-330,314,146,-410
0,6392634,199,-1873,-381,-1027,-566,-330,314,146,-410
0,6392641,199,-1873,-381,-1027,-566,-330,314,146,-410
0,6392648,199,-1873,-381,-1027,-566,-330,314,146,-410
0,6392655,199,-1873,-381,-1027,-566,-330,314,146,-410
0,6392662,199,-1873,-383,-1031,-572,-324,314,146,-410
0,6392669,199,-1873,-383,-1031,-572,-324,314,146,-410
0,6392675,199,-1873,-383,-1031,-572,-324,314,146,-410
0,6392681,199,-1873,-383,-1031,-572,-324,314,146,-410
0,6392688,201,-1874,-382,-1032,-575,-322,314,146,-410
0,6392696,201,-1874,-382,-1032,-575,-322,314,146,-410
0,6392704,199,-1873,-378,-1024,-566,-321,318,150,-404
0,6392709,199,-1873,-378,-1024,-566,-321,318,150,-404
0,6392716,199,-1873,-378,-1024,-566,-321,318,150,-404
0,6392722,200,-1874,-383,-1016,-570,-323,318,150,-404
0,6392727,200,-1874,-383,-1016,-570,-323,318,150,-404
0,6392733,200,-1874,-383,-1016,-570,-323,318,150,-404
0,6392738,200,-1874,-383,-1016,-570,-323,318,150,-404
0,6392747,200,-1876,-384,-1032,-570,-325,318,150,-404
0,6392754,200,-1876,-384,-1032,-570,-325,318,150,-404
0,6392761,200,-1876,-384,-1032,-570,-325,318,150,-404
0,6392767,199,-1876,-384,-1030,-566,-327,318,150,-404
0,6392772,199,-1876,-384,-1030,-566,-327,318,150,-404
0,6392780,199,-1876,-384,-1030,-566,-327,318,150,-404
0,6392787,201,-1871,-383,-1025,-566,-327,318,150,-404
0,6392797,201,-1871,-383,-1025,-566,-327,318,150,-404
0,6392803,200,-1872,-387,-1021,-566,-326,318,150,-404
0,6392810,200,-1872,-387,-1021,-566,-326,318,150,-404
0,6392817,200,-1872,-387,-1021,-566,-326,318,150,-404
0,6392824,202,-1874,-380,-1020,-564,-315,312,144,-404
0,6392833,202,-1874,-380,-1020,-564,-315,312,144,-404
0,6392838,202,-1874,-380,-1020,-564,-315,312,144,-404
0,6392846,200,-1875,-387,-1037,-565,-325,312,144,-404
0,6392853,200,-1875,-387,-1037,-565,-325,312,144,-404
0,6392859,200,-1875,-387,-1037,-565,-325,312,144,-404
0,6392865,198,-1873,-382,-1027,-567,-324,312,144,-404
0,6392871,198,-1873,-382,-1027,-567,-324,312,144,-404
0,6392879,198,-1873,-382,-1027,-567,-324,312,144,-404
0,6392887,199,-1874,-385,-1025,-566,-333,312,144,-404
0,6392894,199,-1874,-385,-1025,-566,-333,312,144,-404
0,6392900,199,-1874,-385,-1025,-566,-333,312,144,-404
0,6392906,199,-1874,-385,-1025,-564,-326,312,144,-404
0,6392913,199,-1874,-385,-1025,-564,-326,312,144,-404
0,6392921,199,-1874,-385,-1025,-564,-326,312,144,-404
0,6392927,202,-1872,-385,-1036,-570,-321,312,144,-404
0,6392932,202,-1872,-385,-1036,-570,-321,312,144,-404
0,6392939,202,-1872,-385,-1036,-570,-321,312,144,-404
0,6392946,196,-1874,-385,-1032,-564,-324,312,144,-404
0,6392952,196,-1874,-385,-1032,-564,-324,312,144,-404
0,6392958,196,-1874,-385,-1032,-564,-324,312,144,-404
0,6392966,198,-1874,-381,-1031,-566,-323,320,150,-406
0,6392973,198,-1874,-381,-1031,-566,-323,320,150,-406
0,6392980,198,-1874,-381,-1031,-566,-323,320,150,-406
0,6392986,199,-1875,-382,-1025,-571,-333,320,150,-406
0,6392991,199,-1875,-382,-1025,-571,-333,320,150,-406
0,6392998,199,-1875,-382,-1025,-571,-333,320,150,-406
0,6393007,197,-1872,-382,-1032,-568,-329,320,150,-406
0,6393015,197,-1872,-382,-1032,-568,-329,320,150,-406
0,6393023,199,-1876,-384,-1037,-568,-323,320,150,-406
0,6393034,199,-1876,-384,-1037,-568,-323,320,150,-406
0,6393048,199,-1873,-380,-1031,-568,-322,320,150,-406
0,6393059,199,-1873,-380,-1031,-568,-322,320,150,-406
0,6393071,198,-1873,-384,-1023,-567,-325,320,150,-406
0,6393084,200,-1873,-379,-1031,-568,-322,310,142,-398
0,6393097,200,-1873,-379,-1031,-568,-322,310,142,-398
0,6393109,198,-1874,-382,-1028,-571,-324,310,142,-398
0,6393122,201,-1875,-384,-1030,-572,-323,310,142,-398
0,6393136,201,-1875,-384,-1030,-572,-323,310,142,-398
0,6393146,196,-1875,-383,-1028,-568,-325,310,142,-398
0,6393159,196,-1875,-383,-1028,-568,-325,310,142,-398
0,6393171,198,-1875,-385,-1027,-564,-326,310,142,-398
0,6393185,199,-1875,-385,-1033,-572,-316,310,142,-398
0,6393198,199,-1875,-385,-1033,-572,-316,310,142,-398
0,6393209,200,-1875,-382,-1030,-571,-329,313,141,-401
0,6393222,200,-1875,-382,-1030,-571,-329,313,141,-401
0,6393233,201,-1874,-385,-1022,-566,-317,313,141,-401
0,6393246,200,-1873,-388,-1032,-573,-323,313,141,-401
0,6393259,200,-1873,-388,-1032,-573,-323,313,141,-401
0,6393271,200,-1873,-382,-1038,-576,-328,313,141,-401
0,6393281,200,-1873,-382,-1038,-576,-328,313,141,-401
0,6393289,198,-1873,-386,-1040,-571,-316,313,141,-401
0,6393297,198,-1873,-386,-1040,-571,-316,313,141,-401
0,6393305,199,-1872,-382,-1034,-569,-327,313,141,-401
0,6393314,199,-1872,-382,-1034,-569,-327,313,141,-401
0,6393322,199,-1872,-382,-1034,-569,-327,313,141,-401
0,6393331,200,-1873,-386,-1024,-569,-323,313,141,-401
0,6393338,200,-1873,-386,-1024,-569,-323,313,141,-401
0,6393348,198,-1872,-380,-1026,-569,-322,308,150,-406
0,6393356,198,-1872,-380,-1026,-569,-322,308,150,-406
0,6393364,200,-1875,-382,-1031,-566,-326,308,150,-406
0,6393372,200,-1875,-382,-1031,-566,-326,308,150,-406
0,6393380,200,-1875,-382,-1031,-566,-326,308,150,-406
0,6393389,198,-1869,-384,-1032,-569,-320,308,150,-406
0,6393397,198,-1869,-384,-1032,-569,-320,308,150,-406
0,6393404,196,-1873,-379,-1036,-562,-318,308,150,-406
0,6393413,196,-1873,-379,-1036,-562,-318,308,150,-406
0,6393421,196,-1873,-379,-1036,-562,-318,308,150,-406
0,6393431,200,-1874,-389,-1022,-563,-319,308,150,-406
0,6393439,200,-1874,-389,-1022,-563,-319,308,150,-406
0,6393449,199,-1872,-383,-1025,-568,-320,308,150,-406
0,6393458,199,-1872,-383,-1025,-568,-320,308,150,-406
0,6393467,197,-1870,-382,-1022,-571,-329,320,144,-404
0,6393476,197,-1870,-382,-1022,-571,-329,320,144,-404
0,6393485,196,-1871,-382,-1027,-573,-334,320,144,-404
0,6393495,196,-1871,-382,-1027,-573,-334,320,144,-404
0,6393507,199,-1876,-386,-1028,-566,-325,320,144,-404
0,6393521,199,-1876,-386,-1028,-566,-325,320,144,-404
0,6393534,200,-1876,-380,-1032,-570,-325,320,144,-404
0,6393545,201,-1874,-383,-1037,-572,-325,320,144,-404
0,6393556,201,-1874,-383,-1037,-572,-325,320,144,-404
0,6393571,199,-1873,-388,-1034,-572,-331,320,144,-404
0,6393582,199,-1873,-388,-1034,-572,-331,320,144,-404
0,6393589,199,-1875,-385,-1026,-566,-331,320,144,-404
0,6393597,199,-1875,-385,-1026,-566,-331,320,144,-404
0,6393606,199,-1875,-381,-1030,-571,-326,307,149,-403
0,6393614,199,-1875,-381,-1030,-571,-326,307,149,-403
0,6393623,198,-1876,-381,-1032,-573,-331,307,149,-403
0,6393632,198,-1876,-381,-1032,-573,-331,307,149,-403
0,6393641,198,-1876,-381,-1032,-573,-331,307,149,-403
0,6393651,196,-1874,-389,-1037,-565,-330,307,149,-403
0,6393659,196,-1874,-389,-1037,-565,-330,307,149,-403
0,6393669,197,-1872,-381,-1022,-563,-321,307,149,-403
0,6393678,197,-1872,-381,-1022,-563,-321,307,149,-403
0,6393688,199,-1874,-388,-1023,-572,-330,307,149,-403
0,6393698,199,-1874,-388,-1023,-572,-330,307,149,-403
0,6393707,201,-1873,-383,-1030,-571,-322,307,149,-403
0,6393715,201,-1873,-383,-1030,-571,-322,307,149,-403
0,6393726,198,-1873,-381,-1031,-567,-326,306,150,-404
0,6393739,198,-1873,-381,-1031,-567,-326,306,150,-404
0,6393751,201,-1873,-383,-1032,-568,-330,306,150,-404
0,6393762,201,-1873,-383,-1032,-568,-330,306,150,-404
0,6393775,201,-1872,-386,-1034,-570,-322,306,150,-404
0,6393789,200,-1871,-380,-1027,-565,-326,306,150,-404
0,6393801,200,-1871,-380,-1027,-565,-326,306,150,-404
0,6393812,198,-1875,-385,-1025,-570,-325,306,150,-404
0,6393826,199,-1877,-383,-1031,-575,-321,306,150,-404
0,6393840,199,-1877,-383,-1031,-575,-321,306,150,-404
0,6393853,196,-1876,-383,-1032,-568,-328,315,145,-401
0,6393864,199,-1876,-383,-1039,-568,-327,315,145,-401
0,6393874,199,-1876,-383,-1039,-568,-327,315,145,-401
0,6393887,199,-1874,-387,-1025,-565,-321,315,145,-401
0,6393901,199,-1874,-387,-1025,-565,-321,315,145,-401
0,6393913,197,-1875,-387,-1028,-569,-322,315,145,-401
0,6393925,198,-1871,-389,-1025,-567,-324,315,145,-401
0,6393933,198,-1871,-389,-1025,-567,-324,315,145,-401
0,6393942,198,-1871,-389,-1025,-567,-324,315,145,-401
0,6393950,198,-1875,-382,-1032,-567,-325,315,145,-401
0,6393957,198,-1875,-382,-1032,-567,-325,315,145,-401
0,6393966,198,-1874,-384,-1036,-574,-328,315,145,-401
0,6393978,198,-1874,-384,-1036,-574,-328,315,145,-401
0,6393993,200,-1873,-379,-1029,-570,-323,315,145,-403
0,6394010,198,-1870,-383,-1029,-559,-313,315,145,-403
0,6394020,198,-1870,-383,-1029,-559,-313,315,145,-403
0,6394033,199,-1873,-382,-1031,-567,-327,315,145,-403
0,6394041,199,-1873,-382,-1031,-567,-327,315,145,-403
0,6394048,199,-1875,-382,-1032,-569,-326,315,145,-403
0,6394054,199,-1875,-382,-1032,-569,-326,315,145,-403
0,6394061,199,-1875,-382,-1032,-569,-326,315,145,-403
0,6394071,201,-1872,-382,-1025,-562,-324,315,145,-403
0,6394077,201,-1872,-382,-1025,-562,-324,315,145,-403
0,6394083,201,-1872,-382,-1025,-562,-324,315,145,-403
0,6394089,199,-1875,-381,-1023,-567,-328,315,145,-403
0,6394096,199,-1875,-381,-1023,-567,-328,315,145,-403
0,6394103,199,-1875,-381,-1023,-567,-328,315,145,-403
0,6394108,197,-1875,-388,-1031,-580,-324,309,151,-403
0,6394116,197,-1875,-388,-1031,-580,-324,309,151,-403
0,6394124,196,-1874,-387,-1029,-576,-329,309,151,-403
0,6394131,196,-1874,-387,-1029,-576,-329,309,151,-403
0,6394137,196,-1874,-387,-1029,-576,-329,309,151,-403
0,6394145,200,-1872,-386,-1034,-572,-325,309,151,-403
0,6394150,200,-1872,-386,-1034,-572,-325,309,151,-403
0,6394159,200,-1872,-386,-1034,-572,-325,309,151,-403
0,6394164,200,-1872,-386,-1034,-572,-325,309,151,-403
0,6394171,201,-1875,-387,-1030,-568,-327,309,151,-403
0,6394179,201,-1875,-387,-1030,-568,-327,309,151,-403
0,6394185,196,-1874,-382,-1034,-572,-324,309,151,-403
0,6394193,196,-1874,-382,-1034,-572,-324,309,151,-403
0,6394201,196,-1874,-382,-1034,-572,-324,309,151,-403
0,6394208,197,-1873,-386,-1034,-574,-324,309,151,-403
0,6394213,197,-1873,-386,-1034,-574,-324,309,151,-403
0,6394221,197,-1873,-386,-1034,-574,-324,309,151,-403
0,6394228,196,-1873,-385,-1035,-564,-321,309,151,-403
0,6394234,196,-1873,-385,-1035,-564,-321,309,151,-403
0,6394242,196,-1873,-385,-1035,-564,-321,309,151,-403
0,6394249,198,-1873,-379,-1035,-566,-326,308,150,-400
0,6394255,198,-1873,-379,-1035,-566,-326,308,150,-400
0,6394261,198,-1873,-379,-1035,-566,-326,308,150,-400
0,6394269,200,-1871,-381,-1037,-572,-322,308,150,-400
0,6394275,200,-1871,-381,-1037,-572,-322,308,150,-400
0,6394280,200,-1871,-381,-1037,-572,-322,308,150,-400
0,6394287,198,-1869,-380,-1036,-564,-321,308,150,-400
0,6394292,198,-1869,-380,-1036,-564,-321,308,150,-400
0,6394297,198,-1869,-380,-1036,-564,-321,308,150,-400
0,6394302,198,-1869,-380,-1036,-564,-321,308,150,-400
0,6394307,197,-1873,-385,-1035,-564,-321,308,150,-400
0,6394312,197,-1873,-385,-1035,-564,-321,308,150,-400
0,6394319,197,-1873,-385,-1035,-564,-321,308,150,-400
0,6394326,200,-1872,-385,-1031,-566,-325,308,150,-400
0,6394332,200,-1872,-385,-1031,-566,-325,308,150,-400
0,6394340,200,-1872,-385,-1031,-566,-325,308,150,-400
0,6394347,200,-1873,-380,-1033,-563,-326,308,150,-400
0,6394354,200,-1873,-380,-1033,-563,-326,308,150,-400
0,6394362,200,-1873,-380,-1033,-563,-326,308,150,-400
0,6394371,202,-1873,-380,-1023,-563,-329,312,150,-404
0,6394378,202,-1873,-380,-1023,-563,-329,312,150,-404
0,6394384,199,-1873,-380,-1034,-570,-322,312,150,-404
0,6394391,199,-1873,-380,-1034,-570,-322,312,150,-404
0,6394399,199,-1873,-380,-1034,-570,-322,312,150,-404
0,6394405,198,-1873,-383,-1025,-566,-315,312,150,-404
0,6394413,198,-1873,-383,-1025,-566,-315,312,150,-404
0,6394420,198,-1873,-383,-1025,-566,-315,312,150,-404
0,6394427,199,-1873,-383,-1030,-566,-322,312,150,-404
0,6394434,199,-1873,-383,-1030,-566,-322,312,150,-404
0,6394439,199,-1873,-383,-1030,-566,-322,312,150,-404
0,6394444,198,-1874,-388,-1024,-564,-322,312,150,-404
0,6394449,198,-1874,-388,-1024,-564,-322,312,150,-404
0,6394457,198,-1874,-388,-1024,-564,-322,312,150,-404
0,6394465,201,-1874,-380,-1027,-568,-329,312,150,-404
0,6394473,201,-1874,-380,-1027,-568,-329,312,150,-404
0,6394480,201,-1874,-380,-1027,-568,-329,312,150,-404
0,6394488,203,-1874,-382,-1024,-564,-321,312,150,-404
0,6394494,203,-1874,-382,-1024,-564,-321,312,150,-404
0,6394501,203,-1874,-382,-1024,-564,-321,312,150,-404
0,6394508,199,-1873,-384,-1030,-561,-325,304,150,-400
0,6394515,199,-1873,-384,-1030,-561,-325,304,150,-400
0,6394523,199,-1873,-384,-1030,-561,-325,304,150,-400
0,6394530,200,-1875,-384,-1022,-566,-320,304,150,-400
0,6394537,200,-1875,-384,-1022,-566,-320,304,150,-400
0,6394544,200,-1875,-384,-1022,-566,-320,304,150,-400
0,6394549,198,-1871,-380,-1022,-565,-318,304,150,-400
0,6394557,198,-1871,-380,-1022,-565,-318,304,150,-400
0,6394565,199,-1874,-384,-1030,-570,-320,304,150,-400
0,6394572,199,-1874,-384,-1030,-570,-320,304,150,-400
0,6394578,199,-1874,-384,-1030,-570,-320,304,150,-400
0,6394584,200,-1875,-380,-1031,-569,-325,304,150,-400
0,6394589,200,-1875,-380,-1031,-569,-325,304,150,-400
0,6394594,200,-1875,-380,-1031,-569,-325,304,150,-400
0,6394599,200,-1875,-380,-1031,-569,-325,304,150,-400
0,6394604,199,-1875,-380,-1035,-565,-324,304,150,-400
0,6394609,199,-1875,-380,-1035,-565,-324,304,150,-400
0,6394615,199,-1875,-380,-1035,-565,-324,304,150,-400
0,6394622,199,-1875,-380,-1035,-565,-324,304,150,-400
0,6394630,201,-1871,-381,-1030,-563,-328,316,146,-408
0,6394636,201,-1871,-381,-1030,-563,-328,316,146,-408
0,6394644,201,-1871,-381,-1030,-563,-328,316,146,-408
0,6394649,199,-1871,-384,-1035,-571,-326,316,146,-408
0,6394656,199,-1871,-384,-1035,-571,-326,316,146,-408
0,6394664,198,-1873,-386,-1031,-570,-327,316,146,-408
0,6394672,198,-1873,-386,-1031,-570,-327,316,146,-408
0,6394679,198,-1873,-386,-1031,-570,-327,316,146,-408
0,6394686,198,-1873,-384,-1032,-574,-321,316,146,-408
0,6394693,198,-1873,-384,-1032,-574,-321,316,146,-408
0,6394699,198,-1873,-384,-1032,-574,-321,316,146,-408
0,6394707,197,-1872,-384,-1030,-570,-321,316,146,-408
0,6394715,197,-1872,-384,-1030,-570,-321,316,146,-408
0,6394724,197,-1872,-384,-1030,-570,-321,316,146,-408
0,6394730,198,-1875,-384,-1033,-570,-320,316,146,-408
0,6394737,198,-1875,-384,-1033,-570,-320,316,146,-408
0,6394744,202,-1873,-380,-1035,-567,-322,302,146,-408
0,6394752,202,-1873,-380,-1035,-567,-322,302,154,-406
0,6394759,202,-1873,-380,-1035,-567,-322,302,154,-406
0,6394766,201,-1874,-385,-1035,-569,-329,302,154,-406
0,6394774,201,-1874,-385,-1035,-569,-329,302,154,-406
0,6394781,201,-1874,-385,-1035,-569,-329,302,154,-406
0,6394788,199,-1874,-384,-1026,-564,-328,302,154,-406
0,6394795,199,-1874,-384,-1026,-564,-328,302,154,-406
0,6394801,199,-1874,-384,-1026,-564,-328,302,154,-406
0,6394808,199,-1870,-383,-1027,-564,-320,302,154,-406
0,6394815,199,-1870,-383,-1027,-564,-320,302,154,-406
0,6394822,199,-1870,-383,-1027,-564,-320,302,154,-406
0,6394828,196,-1875,-383,-1037,-570,-314,302,154,-406
0,6394835,196,-1875,-383,-1037,-570,-314,302,154,-406
0,6394841,196,-1875,-383,-1037,-570,-314,302,154,-406
0,6394849,200,-1875,-381,-1031,-562,-322,302,154,-406
0,6394857,200,-1875,-381,-1031,-562,-322,302,154,-406
0,6394864,200,-1875,-381,-1031,-562,-322,302,154,-406
0,6394870,197,-1876,-384,-1031,-566,-329,302,154,-406
0,6394880,197,-1876,-384,-1031,-566,-329,302,154,-406
0,6394887,201,-1876,-386,-1028,-569,-322,312,150,-406
0,6394894,201,-1876,-386,-1028,-569,-322,312,150,-406
0,6394902,201,-1876,-386,-1028,-569,-322,312,150,-406
0,6394909,199,-1872,-382,-1029,-568,-322,312,150,-406
0,6394915,199,-1872,-382,-1029,-568,-322,312,150,-406
0,6394925,199,-1872,-382,-1029,-568,-322,312,150,-406
0,6394932,195,-1873,-389,-1035,-570,-332,312,150,-406
0,6394937,195,-1873,-389,-1035,-570,-332,312,150,-406
0,6394945,195,-1875,-386,-1027,-567,-321,312,150,-406
0,6394953,195,-1875,-386,-1027,-567,-321,312,150,-406
0,6394959,195,-1875,-386,-1027,-567,-321,312,150,-406
0,6394966,198,-1871,-382,-1032,-562,-321,312,150,-406
0,6394974,198,-1871,-382,-1032,-562,-321,312,150,-406
0,6394980,198,-1871,-382,-1032,-562,-321,312,150,-406
0,6394987,197,-1874,-389,-1029,-567,-327,312,150,-406
0,6394995,197,-1874,-389,-1029,-567,-327,312,150,-406
0,6395002,197,-1874,-389,-1029,-567,-327,312,150,-406
0,6395010,196,-1873,-385,-1033,-573,-323,316,146,-404
0,6395018,196,-1873,-385,-1033,-573,-323,316,146,-404
0,6395024,196,-1873,-385,-1033,-573,-323,316,146,-404
0,6395031,200,-1873,-381,-1036,-561,-323,316,146,-404
0,6395037,200,-1873,-381,-1036,-561,-323,316,146,-404
0,6395051,199,-1870,-378,-1040,-566,-323,316,146,-404
0,6395063,199,-1870,-378,-1040,-566,-323,316,146,-404
0,6395072,198,-1869,-386,-1028,-560,-322,316,146,-404
0,6395083,198,-1869,-386,-1028,-560,-322,316,146,-404
0,6395097,200,-1875,-387,-1027,-567,-326,316,146,-404
0,6395110,200,-1873,-388,-1031,-569,-323,316,146,-404
0,6395123,200,-1873,-388,-1031,-569,-323,316,146,-404
0,6395136,198,-1873,-389,-1035,-571,-319,316,146,-404
0,6395147,199,-1875,-381,-1034,-573,-319,315,145,-401
0,6395161,199,-1875,-381,-1034,-573,-319,315,145,-401
0,6395174,201,-1874,-380,-1031,-564,-320,315,145,-401
0,6395187,200,-1876,-384,-1032,-567,-319,315,145,-401
0,6395200,200,-1876,-384,-1032,-567,-319,315,145,-401
0,6395213,202,-1875,-389,-1031,-572,-317,315,145,-401
0,6395227,202,-1875,-389,-1031,-572,-317,315,145,-401
0,6395237,202,-1875,-389,-1031,-572,-317,315,145,-401
0,6395250,201,-1875,-383,-1029,-564,-323,315,145,-401
0,6395264,201,-1875,-383,-1029,-564,-323,315,145,-401
0,6395277,199,-1873,-386,-1035,-577,-330,311,139,-405
0,6395287,200,-1874,-382,-1039,-581,-324,311,139,-405
0,6395295,200,-1874,-382,-1039,-581,-324,311,139,-405
0,6395303,200,-1874,-382,-1039,-581,-324,311,139,-405
0,6395312,200,-1873,-386,-1032,-577,-323,311,139,-405
0,6395320,200,-1873,-386,-1032,-577,-323,311,139,-405
0,6395327,201,-1873,-388,-1022,-565,-322,311,139,-405
0,6395335,201,-1873,-388,-1022,-565,-322,311,139,-405
0,6395343,201,-1873,-388,-1022,-565,-322,311,139,-405
0,6395351,197,-1874,-380,-1028,-563,-323,311,139,-405
0,6395359,197,-1874,-380,-1028,-563,-323,311,139,-405
0,6395367,200,-1875,-379,-1027,-562,-320,311,139,-405
0,6395375,200,-1875,-379,-1027,-562,-320,311,139,-405
0,6395382,200,-1875,-379,-1027,-562,-320,311,139,-405
0,6395390,197,-1873,-387,-1024,-564,-323,311,139,-405
0,6395401,197,-1873,-387,-1024,-564,-323,311,139,-405
0,6395410,198,-1875,-383,-1023,-561,-321,309,149,-399
0,6395418,198,-1875,-383,-1023,-561,-321,309,149,-399
0,6395426,200,-1876,-387,-1029,-564,-325,309,149,-399
0,6395435,200,-1876,-387,-1029,-564,-325,309,149,-399
0,6395442,200,-1876,-387,-1029,-564,-325,309,149,-399
0,6395454,198,-1874,-377,-1023,-577,-324,309,149,-399
0,6395466,197,-1874,-380,-1028,-580,-320,309,149,-399
0,6395481,197,-1874,-380,-1028,-580,-320,309,149,-399
0,6395494,196,-1874,-390,-1028,-572,-318,309,149,-399
0,6395505,199,-1875,-389,-1030,-572,-327,309,149,-399
0,6395517,199,-1875,-389,-1030,-572,-327,309,149,-399
0,6395529,199,-1873,-379,-1031,-568,-323,314,144,-402
0,6395538,199,-1873,-379,-1031,-568,-323,314,144,-402
0,6395551,200,-1873,-380,-1034,-565,-325,314,144,-402
0,6395563,200,-1873,-380,-1034,-565,-325,314,144,-402
0,6395573,200,-1873,-386,-1036,-568,-329,314,144,-402
0,6395583,200,-1873,-386,-1036,-568,-329,314,144,-402
0,6395591,201,-1872,-383,-1033,-566,-321,314,144,-402
0,6395599,201,-1872,-383,-1033,-566,-321,314,144,-402
0,6395608,201,-1874,-381,-1029,-566,-325,314,144,-402
0,6395619,201,-1874,-381,-1029,-566,-325,314,144,-402
0,6395631,200,-1872,-386,-1027,-567,-322,314,144,-402
0,6395643,200,-1872,-386,-1027,-567,-322,314,144,-402
0,6395657,200,-1872,-386,-1026,-565,-322,312,146,-400
0,6395670,199,-1872,-384,-1032,-574,-317,312,146,-400
0,6395681,199,-1872,-384,-1032,-574,-317,312,146,-400
0,6395694,200,-1875,-383,-1031,-573,-328,312,146,-400
0,6395707,200,-1872,-380,-1033,-568,-327,312,146,-400
0,6395721,200,-1872,-380,-1033,-568,-327,312,146,-400
0,6395735,198,-1876,-384,-1033,-564,-328,312,146,-400
0,6395747,197,-1871,-385,-1034,-569,-330,312,146,-400
0,6395759,197,-1871,-385,-1034,-569,-330,312,146,-400
0,6395771,198,-1871,-387,-1031,-568,-323,312,146,-400
0,6395786,200,-1873,-387,-1031,-569,-329,312,146,-400
0,6395798,200,-1873,-387,-1031,-569,-329,308,150,-410
0,6395808,201,-1874,-381,-1024,-568,-323,308,150,-410
0,6395821,201,-1874,-381,-1024,-568,-323,308,150,-410
0,6395836,198,-1875,-389,-1030,-572,-324,308,150,-410
0,6395847,198,-1873,-388,-1036,-564,-325,308,150,-410
0,6395857,198,-1873,-388,-1036,-564,-325,308,150,-410
0,6395872,199,-1870,-385,-1033,-565,-324,308,150,-410
0,6395885,199,-1870,-385,-1033,-565,-324,308,150,-410
0,6395895,200,-1875,-385,-1030,-575,-323,308,150,-410
0,6395906,198,-1873,-383,-1026,-576,-323,309,155,-403
0,6395920,198,-1873,-383,-1026,-576,-323,309,155,-403
0,6395933,199,-1873,-380,-1023,-566,-319,309,155,-403
0,6395942,199,-1873,-380,-1023,-566,-319,309,155,-403
0,6395955,199,-1874,-376,-1023,-560,-327,309,155,-403
0,6395967,201,-1873,-390,-1030,-564,-319,309,155,-403
0,6395980,201,-1873,-390,-1030,-564,-319,309,155,-403
0,6395991,201,-1869,-386,-1023,-560,-316,309,155,-403
0,6396003,201,-1869,-386,-1023,-560,-316,309,155,-403
0,6396012,199,-1875,-385,-1029,-563,-329,309,155,-403
0,6396019,199,-1875,-385,-1029,-563,-329,309,155,-403
0,6396027,200,-1875,-390,-1029,-564,-326,309,155,-403
0,6396036,200,-1875,-390,-1029,-564,-326,309,155,-403
0,6396044,200,-1875,-390,-1029,-564,-326,309,155,-403
0,6396054,193,-1873,-384,-1035,-570,-321,308,144,-398
0,6396060,193,-1873,-384,-1035,-570,-321,308,144,-398
0,6396067,198,-1877,-381,-1027,-570,-330,308,144,-398
0,6396076,198,-1877,-381,-1027,-570,-330,308,144,-398
0,6396082,198,-1877,-381,-1027,-570,-330,308,144,-398
0,6396088,198,-1873,-381,-1030,-566,-328,308,144,-398
0,6396096,198,-1873,-381,-1030,-566,-328,308,144,-398
0,6396102,198,-1873,-381,-1030,-566,-328,308,144,-398
0,6396108,199,-1872,-386,-1028,-573,-324,308,144,-398
0,6396115,199,-1872,-386,-1028,-573,-324,308,144,-398
0,6396124,199,-1872,-386,-1028,-573,-324,308,144,-398
0,6396131,199,-1873,-386,-1035,-563,-330,308,144,-398
0,6396138,199,-1873,-386,-1035,-563,-330,308,144,-398
0,6396143,199,-1873,-386,-1035,-563,-330,308,144,-398
0,6396150,199,-1873,-386,-1029,-565,-325,308,144,-398
0,6396156,199,-1873,-386,-1029,-565,-325,308,144,-398
0,6396165,199,-1873,-386,-1029,-565,-325,308,144,-398
0,6396173,199,-1874,-377,-1024,-565,-326,314,152,-404
0,6396179,199,-1874,-377,-1024,-565,-326,314,152,-404
0,6396186,196,-1876,-380,-1035,-565,-321,314,152,-404
0,6396191,196,-1876,-380,-1035,-565,-321,314,152,-404
0,6396199,196,-1876,-380,-1035,-565,-321,314,152,-404
0,6396207,199,-1872,-388,-1028,-566,-325,314,152,-404
0,6396214,199,-1872,-388,-1028,-566,-325,314,152,-404
0,6396223,199,-1872,-388,-1028,-566,-325,314,152,-404
0,6396230,198,-1874,-383,-1028,-564,-319,314,152,-404
0,6396238,198,-1874,-383,-1028,-564,-319,314,152,-404
0,6396243,198,-1874,-383,-1028,-564,-319,314,152,-404
0,6396251,199,-1874,-384,-1028,-569,-322,314,152,-404
0,6396258,199,-1874,-384,-1028,-569,-322,314,152,-404
0,6396266,199,-1874,-384,-1028,-569,-322,314,152,-404
0,6396272,196,-1871,-387,-1036,-566,-321,314,152,-404
0,6396278,196,-1871,-387,-1036,-566,-321,314,152,-404
0,6396284,196,-1871,-387,-1036,-566,-321,314,152,-404
0,6396290,200,-1870,-384,-1038,-570,-320,314,152,-404
0,6396295,200,-1870,-384,-1038,-570,-320,314,152,-404
0,6396300,200,-1870,-384,-1038,-570,-320,314,152,-404
0,6396305,200,-1870,-384,-1038,-570,-320,314,152,-404
0,6396310,199,-1870,-384,-1028,-567,-331,306,150,-400
0,6396315,199,-1870,-384,-1028,-567,-331,306,150,-400
0,6396323,199,-1870,-384,-1028,-567,-331,306,150,-400
0,6396332,198,-1876,-383,-1030,-566,-320,306,150,-400
0,6396340,198,-1876,-383,-1030,-566,-320,306,150,-400
0,6396345,198,-1876,-383,-1030,-566,-320,306,150,-400
0,6396351,199,-1873,-384,-1026,-569,-328,306,150,-400
0,6396359,199,-1873,-384,-1026,-569,-328,306,150,-400
0,6396366,197,-1875,-383,-1028,-565,-323,306,150,-400
0,6396372,197,-1875,-383,-1028,-565,-323,306,150,-400
0,6396379,197,-1875,-383,-1028,-565,-323,306,150,-400
0,6396387,196,-1872,-389,-1035,-565,-329,306,150,-400
0,6396395,196,-1872,-389,-1035,-565,-329,306,150,-400
0,6396401,196,-1872,-389,-1035,-565,-329,306,150,-400
0,6396408,202,-1875,-387,-1028,-572,-326,306,150,-400
0,6396416,202,-1875,-387,-1028,-572,-326,306,150,-400
0,6396422,202,-1875,-387,-1028,-572,-326,306,150,-400
0,6396429,198,-1875,-378,-1030,-569,-327,311,147,-409
0,6396436,198,-1875,-378,-1030,-569,-327,311,147,-409
0,6396444,198,-1875,-378,-1030,-569,-327,311,147,-409
0,6396451,198,-1872,-383,-1028,-565,-331,311,147,-409
0,6396459,198,-1872,-383,-1028,-565,-331,311,147,-409
0,6396467,198,-1871,-386,-1026,-566,-329,311,147,-409
0,6396474,198,-1871,-386,-1026,-566,-329,311,147,-409
0,6396482,198,-1871,-386,-1026,-566,-329,311,147,-409
0,6396490,197,-1876,-386,-1028,-572,-325,311,147,-409
0,6396497,197,-1876,-386,-1028,-572,-325,311,147,-409
0,6396504,197,-1876,-386,-1028,-572,-325,311,147,-409
0,6396509,197,-1874,-384,-1026,-569,-325,311,147,-409
0,6396514,197,-1874,-384,-1026,-569,-325,311,147,-409
0,6396521,197,-1874,-384,-1026,-569,-325,311,147,-409
0,6396527,198,-1873,-381,-1034,-572,-330,311,147,-409
0,6396535,198,-1873,-381,-1034,-572,-330,311,147,-409
0,6396542,198,-1873,-381,-1034,-572,-330,311,147,-409
0,6396550,197,-1872,-385,-1030,-564,-327,308,150,-406
0,6396557,197,-1872,-385,-1030,-564,-327,308,150,-406
0,6396563,197,-1872,-385,-1030,-564,-327,308,150,-406
0,6396570,198,-1874,-379,-1029,-562,-332,308,150,-406
0,6396578,198,-1874,-379,-1029,-562,-332,308,150,-406
0,6396582,198,-1874,-379,-1029,-562,-332,308,150,-406
0,6396588,200,-1870,-385,-1032,-564,-326,308,150,-406
0,6396593,200,-1870,-385,-1032,-564,-326,308,150,-406
0,6396598,200,-1870,-385,-1032,-564,-326,308,150,-406
0,6396603,200,-1870,-385,-1032,-564,-326,308,150,-406
0,6396608,199,-1873,-381,-1035,-560,-326,308,150,-406
0,6396615,199,-1873,-381,-1035,-560,-326,308,150,-406
0,6396622,199,-1873,-381,-1035,-560,-326,308,150,-406
0,6396631,203,-1875,-380,-1034,-577,-324,308,150,-406
0,6396637,203,-1875,-380,-1034,-577,-324,308,150,-406
0,6396643,203,-1875,-380,-1034,-577,-324,308,150,-406
0,6396651,202,-1871,-386,-1032,-573,-327,308,150,-406
0,6396658,202,-1871,-386,-1032,-573,-327,308,150,-406
0,6396665,202,-1871,-386,-1032,-573,-327,308,150,-406
0,6396673,199,-1873,-384,-1029,-562,-324,308,150,-406
0,6396680,199,-1873,-384,-1029,-562,-324,308,150,-406
0,6396688,200,-1875,-378,-1029,-563,-324,310,148,-396
0,6396693,200,-1875,-378,-1029,-563,-324,310,148,-396
0,6396701,200,-1875,-378,-1029,-563,-324,310,148,-396
0,6396709,200,-1872,-380,-1031,-569,-321,310,148,-396
0,6396716,200,-1872,-380,-1031,-569,-321,310,148,-396
0,6396723,200,-1872,-380,-1031,-569,-321,310,148,-396
0,6396729,199,-1872,-385,-1033,-563,-323,310,148,-396
0,6396736,199,-1872,-385,-1033,-563,-323,310,148,-396
0,6396743,199,-1872,-385,-1033,-563,-323,310,148,-396
0,6396751,198,-1870,-384,-1032,-568,-322,310,148,-396
0,6396758,198,-1870,-384,-1032,-568,-322,310,148,-396
0,6396765,198,-1870,-384,-1032,-568,-322,310,148,-396
0,6396772,197,-1874,-386,-1034,-569,-322,310,148,-396
0,6396779,197,-1874,-386,-1034,-569,-322,310,148,-396
0,6396786,197,-1874,-386,-1034,-569,-322,310,148,-396
0,6396793,199,-1872,-379,-1031,-567,-324,310,148,-396
0,6396803,199,-1872,-379,-1031,-567,-324,310,148,-396
0,6396809,198,-1872,-381,-1021,-568,-323,312,144,-402
0,6396817,198,-1872,-381,-1021,-568,-323,312,144,-402
0,6396824,198,-1872,-381,-1021,-568,-323,312,144,-402
0,6396831,198,-1874,-381,-1024,-562,-319,312,144,-402
0,6396838,198,-1874,-381,-1024,-562,-319,312,144,-402
0,6396846,198,-1874,-381,-1024,-562,-319,312,144,-402
0,6396853,200,-1873,-383,-1023,-567,-330,312,144,-402
0,6396860,200,-1873,-383,-1023,-567,-330,312,144,-402
0,6396867,203,-1874,-386,-1018,-563,-327,312,144,-402
0,6396874,203,-1874,-386,-1018,-563,-327,312,144,-402
0,6396881,203,-1874,-386,-1018,-563,-327,312,144,-402
0,6396889,197,-1875,-385,-1033,-562,-326,312,144,-402
0,6396895,197,-1875,-385,-1033,-562,-326,312,144,-402
0,6396902,197,-1875,-385,-1033,-562,-326,312,144,-402
0,6396909,199,-1872,-381,-1032,-568,-330,312,144,-402
0,6396917,199,-1872,-381,-1032,-568,-330,312,144,-402
0,6396923,199,-1872,-381,-1032,-568,-330,312,144,-402
0,6396932,199,-1874,-387,-1030,-565,-325,312,144,-402
0,6396937,199,-1874,-387,-1030,-565,-325,312,144,-402
0,6396944,199,-1874,-387,-1030,-565,-325,312,144,-402
0,6396952,201,-1873,-385,-1032,-564,-327,314,152,-410
0,6396959,201,-1873,-385,-1032,-564,-327,314,152,-410
0,6396964,201,-1873,-385,-1032,-564,-327,314,152,-410
0,6396973,197,-1874,-379,-1035,-567,-328,314,152,-410
0,6396978,197,-1874,-379,-1035,-567,-328,314,152,-410
0,6396984,197,-1874,-379,-1035,-567,-328,314,152,-410
0,6396989,197,-1876,-384,-1033,-567,-319,314,152,-410
0,6396995,197,-1876,-384,-1033,-567,-319,314,152,-410
0,6397000,197,-1876,-384,-1033,-567,-319,314,152,-410
0,6397006,197,-1876,-384,-1033,-567,-319,314,152,-410
0,6397011,199,-1869,-384,-1037,-566,-321,314,152,-410
0,6397020,199,-1869,-384,-1037,-566,-321,314,152,-410
0,6397026,199,-1869,-384,-1037,-566,-321,314,152,-410
0,6397033,198,-1873,-389,-1039,-566,-324,314,152,-410
0,6397041,198,-1873,-389,-1039,-566,-324,314,152,-410
0,6397046,198,-1873,-389,-1039,-566,-324,314,152,-410
0,6397054,199,-1874,-379,-1037,-571,-324,314,152,-410
0,6397066,199,-1874,-379,-1037,-571,-324,314,152,-410
0,6397079,198,-1876,-384,-1025,-565,-317,311,143,-407
0,6397093,197,-1876,-379,-1025,-567,-325,311,143,-407
0,6397107,197,-1876,-379,-1025,-567,-325,311,143,-407
0,6397120,198,-1874,-384,-1033,-567,-318,311,143,-407
0,6397129,201,-1873,-380,-1030,-565,-329,311,143,-407
0,6397144,201,-1873,-380,-1030,-565,-329,311,143,-407
0,6397155,198,-1875,-387,-1033,-567,-333,311,143,-407
0,6397167,199,-1872,-386,-1033,-575,-329,311,143,-407
0,6397179,199,-1872,-386,-1033,-575,-329,311,143,-407
0,6397195,197,-1872,-384,-1032,-568,-324,310,148,-408
0,6397207,197,-1872,-384,-1032,-568,-324,310,148,-408
0,6397219,198,-1873,-384,-1030,-560,-325,310,148,-408
0,6397234,197,-1874,-383,-1029,-570,-327,310,148,-408
0,6397246,197,-1874,-383,-1029,-570,-327,310,148,-408
0,6397257,200,-1874,-381,-1033,-567,-317,310,148,-408
0,6397270,199,-1874,-382,-1036,-569,-327,310,148,-408
0,6397283,199,-1874,-382,-1036,-569,-327,310,148,-408
0,6397291,200,-1870,-381,-1033,-567,-323,310,148,-408
0,6397298,200,-1870,-381,-1033,-567,-323,310,148,-408
0,6397306,200,-1870,-381,-1033,-567,-323,310,148,-408
0,6397316,198,-1871,-377,-1029,-573,-323,310,148,-408
0,6397323,198,-1871,-377,-1029,-573,-323,310,148,-408
0,6397332,197,-1872,-380,-1023,-567,-328,312,150,-398
0,6397340,197,-1872,-380,-1023,-567,-328,312,150,-398
0,6397348,197,-1873,-384,-1029,-571,-322,312,150,-398
0,6397357,197,-1873,-384,-1029,-571,-322,312,150,-398
0,6397365,197,-1873,-384,-1029,-571,-322,312,150,-398
0,6397373,201,-1875,-384,-1028,-564,-324,312,150,-398
0,6397381,201,-1875,-384,-1028,-564,-324,312,150,-398
0,6397388,196,-1874,-383,-1031,-560,-327,312,150,-398
0,6397398,196,-1874,-383,-1031,-560,-327,312,150,-398
0,6397406,196,-1874,-383,-1031,-560,-327,312,150,-398
0,6397414,198,-1873,-385,-1024,-563,-321,312,150,-398
0,6397421,198,-1873,-385,-1024,-563,-321,312,150,-398
0,6397429,198,-1873,-385,-1026,-565,-327,312,150,-398
0,6397436,198,-1873,-385,-1026,-565,-327,312,150,-398
0,6397447,198,-1873,-385,-1026,-565,-327,312,150,-398
0,6397455,201,-1871,-382,-1021,-566,-330,317,147,-409
0,6397463,201,-1871,-382,-1021,-566,-330,317,147,-409
0,6397471,199,-1873,-376,-1033,-575,-327,317,147,-409
0,6397480,199,-1873,-376,-1033,-575,-327,317,147,-409
0,6397488,200,-1877,-384,-1036,-565,-332,317,147,-409
0,6397497,200,-1877,-384,-1036,-565,-332,317,147,-409
0,6397506,200,-1877,-384,-1036,-565,-332,317,147,-409
0,6397515,196,-1877,-381,-1029,-568,-326,317,147,-409
0,6397524,196,-1877,-381,-1029,-568,-326,317,147,-409
0,6397533,197,-1876,-384,-1032,-574,-329,317,147,-409
0,6397541,197,-1876,-384,-1032,-574,-329,317,147,-409
0,6397550,200,-1875,-382,-1028,-570,-327,317,147,-409
0,6397557,200,-1875,-382,-1028,-570,-327,317,147,-409
0,6397566,200,-1875,-382,-1028,-570,-327,317,147,-409
0,6397580,197,-1871,-383,-1033,-574,-318,317,147,-409
0,6397588,198,-1873,-376,-1030,-571,-319,317,147,-409
0,6397595,198,-1873,-376,-1030,-571,-319,312,152,-404
0,6397603,198,-1873,-376,-1030,-571,-319,312,152,-404
0,6397616,197,-1876,-375,-1038,-570,-323,312,152,-404
0,6397628,198,-1876,-383,-1025,-567,-323,312,152,-404
0,6397639,198,-1876,-383,-1025,-567,-323,312,152,-404
0,6397648,198,-1876,-386,-1037,-571,-320,312,152,-404
0,6397664,198,-1876,-386,-1037,-571,-320,312,152,-404
0,6397678,199,-1874,-387,-1026,-569,-323,312,152,-404
0,6397687,198,-1873,-381,-1032,-568,-333,312,152,-404
0,6397699,198,-1873,-381,-1032,-568,-333,312,152,-404
0,6397714,197,-1874,-382,-1033,-566,-319,308,154,-406
0,6397728,196,-1872,-384,-1040,-572,-324,308,154,-406
0,6397739,196,-1872,-384,-1040,-572,-324,308,154,-406
0,6397752,197,-1874,-383,-1032,-577,-331,308,154,-406
0,6397764,197,-1874,-383,-1032,-577,-331,308,154,-406
0,6397777,197,-1876,-383,-1023,-564,-322,308,154,-406
0,6397788,197,-1876,-383,-1023,-564,-322,308,154,-406
0,6397799,199,-1873,-381,-1034,-567,-323,308,154,-406
0,6397812,196,-1875,-386,-1039,-572,-328,308,154,-406
0,6397826,196,-1875,-386,-1039,-572,-328,308,154,-406
0,6397835,198,-1868,-380,-1027,-566,-320,308,154,-406
0,6397845,198,-1868,-380,-1027,-566,-320,308,154,-406
0,6397854,199,-1871,-380,-1026,-563,-325,308,156,-398
0,6397865,199,-1871,-380,-1026,-563,-325,308,156,-398
0,6397879,199,-1873,-388,-1029,-571,-325,308,156,-398
0,6397893,201,-1873,-382,-1032,-571,-334,308,156,-398
0,6397902,201,-1873,-382,-1032,-571,-334,308,156,-398
0,6397915,199,-1873,-383,-1035,-566,-325,308,156,-398
0,6397930,198,-1876,-383,-1032,-565,-321,308,156,-398
0,6397944,198,-1876,-383,-1032,-565,-321,308,156,-398
0,6397953,200,-1873,-384,-1028,-567,-326,308,156,-398
0,6397966,200,-1873,-384,-1028,-567,-326,308,156,-398
0,6397979,199,-1872,-376,-1032,-572,-327,320,148,-396
0,6397995,199,-1872,-376,-1032,-572,-327,320,148,-396
0,6398003,199,-1872,-376,-1032,-572,-327,320,148,-396
0,6398016,198,-1875,-381,-1039,-570,-325,320,148,-396
0,6398029,199,-1874,-380,-1032,-573,-320,320,148,-396
0,6398044,199,-1874,-380,-1032,-573,-320,320,148,-396
0,6398053,200,-1872,-385,-1031,-570,-329,320,148,-396
0,6398065,200,-1872,-385,-1031,-570,-329,320,148,-396
0,6398072,200,-1876,-384,-1037,-572,-329,320,148,-396
0,6398080,200,-1876,-384,-1037,-572,-329,320,148,-396
0,6398086,200,-1876,-384,-1037,-572,-329,320,148,-396
0,6398093,200,-1873,-385,-1034,-569,-327,307,151,-409
0,6398099,200,-1873,-385,-1034,-569,-327,307,151,-409
0,6398107,200,-1873,-385,-1034,-569,-327,307,151,-409
0,6398115,197,-1874,-385,-1031,-568,-326,307,151,-409
0,6398120,197,-1874,-385,-1031,-568,-326,307,151,-409
0,6398129,203,-1872,-375,-1028,-569,-327,307,151,-409
0,6398138,203,-1872,-375,-1028,-569,-327,307,151,-409
0,6398144,203,-1872,-375,-1028,-569,-327,307,151,-409
0,6398149,197,-1875,-381,-1036,-566,-321,307,151,-409
0,6398154,197,-1875,-381,-1036,-566,-321,307,151,-409
0,6398161,197,-1875,-381,-1036,-566,-321,307,151,-409
0,6398168,197,-1875,-381,-1036,-566,-321,307,151,-409
0,6398175,197,-1875,-381,-1036,-566,-321,307,151,-409
0,6398181,197,-1875,-381,-1036,-566,-321,307,151,-409
0,6398188,197,-1875,-381,-1036,-566,-321,307,151,-409
0,6398195,201,-1874,-385,-1032,-565,-321,307,151,-409
0,6398203,201,-1874,-385,-1032,-565,-321,307,151,-409
0,6398211,200,-1870,-383,-1037,-572,-319,307,151,-409
0,6398217,200,-1870,-383,-1037,-572,-319,307,151,-409
0,6398224,200,-1870,-383,-1037,-572,-319,307,151,-409
0,6398230,199,-1871,-383,-1036,-569,-321,312,148,-398
0,6398237,199,-1871,-383,-1036,-569,-321,312,148,-398
0,6398244,199,-1871,-383,-1036,-569,-321,312,148,-398
0,6398253,199,-1874,-380,-1031,-564,-320,312,148,-398
0,6398260,199,-1874,-380,-1031,-564,-320,312,148,-398
0,6398267,199,-1874,-380,-1031,-564,-320,312,148,-398
0,6398274,199,-1872,-384,-1023,-570,-321,312,148,-398
0,6398280,199,-1872,-384,-1023,-570,-321,312,148,-398
0,6398285,199,-1872,-384,-1023,-570,-321,312,148,-398
0,6398290,201,-1871,-388,-1028,-565,-326,312,148,-398
0,6398296,201,-1871,-388,-1028,-565,-326,312,148,-398
0,6398302,201,-1871,-388,-1028,-565,-326,312,148,-398
0,6398307,201,-1871,-388,-1028,-565,-326,312,148,-398
0,6398312,197,-1872,-389,-1028,-565,-327,312,148,-398
0,6398317,197,-1872,-389,-1028,-565,-327,312,148,-398
0,6398324,197,-1872,-389,-1028,-565,-327,312,148,-398
0,6398331,200,-1873,-390,-1026,-565,-331,312,148,-398
0,6398339,200,-1873,-390,-1026,-565,-331,312,148,-398
0,6398345,200,-1873,-390,-1026,-565,-331,312,148,-398
0,6398352,199,-1875,-384,-1022,-562,-322,302,148,-408
0,6398359,199,-1875,-384,-1022,-562,-322,302,148,-408
0,6398366,199,-1875,-384,-1022,-562,-322,302,148,-408
0,6398373,199,-1876,-384,-1022,-566,-331,302,148,-408
0,6398381,199,-1876,-384,-1022,-566,-331,302,148,-408
0,6398386,199,-1876,-384,-1022,-566,-331,302,148,-408
0,6398394,199,-1873,-384,-1028,-566,-329,302,148,-408
0,6398401,199,-1873,-384,-1028,-566,-329,302,148,-408
0,6398408,199,-1872,-379,-1027,-567,-331,302,148,-408
0,6398416,199,-1872,-379,-1027,-567,-331,302,148,-408
0,6398422,199,-1872,-379,-1027,-567,-331,302,148,-408
0,6398428,199,-1872,-379,-1027,-567,-331,302,148,-408
0,6398436,202,-1871,-383,-1028,-565,-322,302,148,-408
0,6398443,202,-1871,-383,-1028,-565,-322,302,148,-408
0,6398449,201,-1875,-381,-1025,-564,-326,302,148,-408
0,6398455,201,-1875,-381,-1025,-564,-326,302,148,-408
0,6398464,201,-1875,-381,-1025,-564,-326,302,148,-408
0,6398471,201,-1873,-388,-1019,-568,-325,302,148,-408
0,6398478,201,-1873,-388,-1019,-568,-325,302,148,-408
0,6398484,201,-1873,-388,-1019,-568,-325,302,148,-408
0,6398491,201,-1872,-381,-1030,-569,-327,310,152,-400
0,6398497,201,-1872,-381,-1030,-569,-327,310,152,-400
0,6398502,201,-1872,-381,-1030,-569,-327,310,152,-400
0,6398511,198,-1872,-388,-1035,-572,-325,310,152,-400
0,6398518,198,-1872,-388,-1035,-572,-325,310,152,-400
0,6398525,198,-1872,-388,-1035,-572,-325,310,152,-400
0,6398531,198,-1874,-384,-1029,-568,-322,310,152,-400
0,6398536,198,-1874,-384,-1029,-568,-322,310,152,-400
0,6398544,198,-1874,-384,-1029,-568,-322,310,152,-400
0,6398552,197,-1872,-378,-1020,-562,-318,310,152,-400
0,6398560,197,-1872,-378,-1020,-562,-318,310,152,-400
0,6398567,197,-1872,-378,-1020,-562,-318,310,152,-400
0,6398574,193,-1874,-384,-1032,-568,-327,310,152,-400
0,6398581,193,-1874,-384,-1032,-568,-327,310,152,-400
0,6398586,193,-1874,-384,-1032,-568,-327,310,152,-400
0,6398592,197,-1874,-381,-1023,-567,-325,310,152,-400
0,6398598,197,-1874,-381,-1023,-567,-325,310,152,-400
0,6398603,197,-1874,-381,-1023,-567,-325,310,152,-400
0,6398608,197,-1874,-381,-1023,-567,-325,310,152,-400
0,6398613,199,-1874,-379,-1025,-571,-322,309,149,-405
0,6398621,199,-1874,-379,-1025,-571,-322,309,149,-405
0,6398629,200,-1873,-376,-1034,-561,-333,309,149,-405
0,6398638,200,-1873,-376,-1034,-561,-333,309,149,-405
0,6398645,200,-1873,-376,-1034,-561,-333,309,149,-405
0,6398652,198,-1876,-381,-1034,-565,-324,309,149,-405
0,6398660,198,-1876,-381,-1034,-565,-324,309,149,-405
0,6398668,198,-1876,-381,-1034,-565,-324,309,149,-405
0,6398673,199,-1874,-385,-1028,-566,-325,309,149,-405
0,6398681,199,-1874,-385,-1028,-566,-325,309,149,-405
0,6398689,199,-1874,-385,-1028,-566,-325,309,149,-405
0,6398695,199,-1875,-388,-1025,-563,-317,309,149,-405
0,6398702,199,-1875,-388,-1025,-563,-317,309,149,-405
0,6398709,201,-1875,-384,-1034,-568,-318,309,149,-405
0,6398716,201,-1875,-384,-1034,-568,-318,309,149,-405
0,6398724,201,-1875,-384,-1034,-568,-318,309,149,-405
0,6398729,201,-1874,-382,-1033,-567,-319,309,149,-405
0,6398734,201,-1874,-382,-1033,-567,-319,309,149,-405
0,6398740,201,-1874,-382,-1033,-567,-319,309,149,-405
0,6398747,201,-1874,-382,-1033,-567,-319,309,149,-405
0,6398753,201,-1871,-381,-1029,-567,-323,311,145,-399
0,6398761,201,-1871,-381,-1029,-567,-323,311,145,-399
0,6398769,201,-1871,-381,-1029,-567,-323,311,145,-399
0,6398777,200,-1873,-379,-1025,-565,-325,311,145,-399
0,6398784,200,-1873,-379,-1025,-565,-325,311,145,-399
0,6398790,199,-1877,-384,-1024,-567,-326,311,145,-399
0,6398796,199,-1877,-384,-1024,-567,-326,311,145,-399
0,6398803,199,-1877,-384,-1024,-567,-326,311,145,-399
0,6398812,198,-1877,-381,-1031,-566,-322,311,145,-399
0,6398818,198,-1877,-381,-1031,-566,-322,311,145,-399
0,6398824,198,-1877,-381,-1031,-566,-322,311,145,-399
0,6398831,195,-1876,-384,-1035,-565,-325,311,145,-399
0,6398839,195,-1876,-384,-1035,-565,-325,311,145,-399
0,6398846,195,-1876,-384,-1035,-565,-325,311,145,-399
0,6398853,196,-1875,-388,-1035,-564,-327,311,145,-399
0,6398860,196,-1875,-388,-1035,-564,-327,311,145,-399
0,6398866,196,-1875,-388,-1035,-564,-327,311,145,-399
0,6398871,196,-1874,-385,-1030,-567,-331,306,146,-406
0,6398880,196,-1874,-385,-1030,-567,-331,306,146,-406
0,6398887,196,-1874,-385,-1030,-567,-331,306,146,-406
0,6398895,201,-1873,-387,-1028,-566,-326,306,146,-406
0,6398902,201,-1873,-387,-1028,-566,-326,306,146,-406
0,6398907,201,-1873,-387,-1028,-566,-326,306,146,-406
0,6398913,200,-1873,-383,-1034,-574,-326,306,146,-406
0,6398920,200,-1873,-383,-1034,-574,-326,306,146,-406
0,6398927,200,-1873,-383,-1034,-574,-326,306,146,-406
0,6398934,198,-1877,-386,-1027,-565,-328,306,146,-406
0,6398940,198,-1877,-386,-1027,-565,-328,306,146,-406
0,6398947,198,-1877,-386,-1027,-565,-328,306,146,-406
0,6398954,200,-1873,-384,-1025,-573,-325,306,146,-406
0,6398962,200,-1873,-384,-1025,-573,-325,306,146,-406
0,6398968,200,-1873,-384,-1025,-573,-325,306,146,-406
0,6398974,200,-1873,-381,-1034,-577,-322,306,146,-406
0,6398982,200,-1873,-381,-1034,-577,-322,306,146,-406
0,6398989,200,-1873,-381,-1034,-577,-322,306,146,-406
0,6398996,199,-1870,-387,-1034,-574,-321,312,146,-406
0,6399004,199,-1870,-387,-1034,-574,-321,312,146,-406
0,6399011,200,-1874,-383,-1033,-566,-316,312,146,-406
0,6399019,200,-1874,-383,-1033,-566,-316,312,146,-406
0,6399025,200,-1874,-383,-1033,-566,-316,312,146,-406
0,6399032,201,-1874,-379,-1027,-572,-323,312,146,-406
0,6399039,201,-1874,-379,-1027,-572,-323,312,146,-406
0,6399046,201,-1874,-379,-1027,-572,-323,312,146,-406
0,6399052,201,-1873,-385,-1021,-566,-324,312,146,-406
0,6399060,201,-1873,-385,-1021,-566,-324,312,146,-406
0,6399068,201,-1873,-385,-1021,-566,-324,312,146,-406
0,6399083,198,-1873,-380,-1016,-569,-332,312,146,-406
0,6399092,202,-1871,-383,-1016,-561,-324,312,146,-406
0,6399105,202,-1871,-383,-1016,-561,-324,312,146,-406
0,6399118,198,-1874,-387,-1035,-566,-327,312,146,-406
0,6399130,200,-1874,-383,-1031,-564,-328,320,148,-400
0,6399141,200,-1874,-383,-1031,-564,-328,320,148,-400
0,6399155,203,-1875,-378,-1026,-567,-324,320,148,-400
0,6399169,203,-1875,-378,-1026,-567,-324,320,148,-400
0,6399181,199,-1876,-381,-1027,-564,-328,320,148,-400
0,6399192,198,-1873,-381,-1023,-566,-329,320,148,-400
0,6399205,198,-1873,-381,-1023,-566,-329,320,148,-400
0,6399218,200,-1872,-383,-1021,-560,-327,320,148,-400
0,6399230,199,-1873,-384,-1038,-570,-323,320,148,-400
0,6399242,199,-1873,-384,-1038,-570,-323,320,148,-400
0,6399253,200,-1874,-386,-1034,-566,-320,314,146,-404
0,6399261,200,-1874,-386,-1034,-566,-320,314,146,-404
0,6399269,198,-1873,-383,-1025,-563,-321,314,146,-404
0,6399278,198,-1873,-383,-1025,-563,-321,314,146,-404
0,6399286,198,-1873,-383,-1025,-563,-321,314,146,-404
0,6399294,202,-1872,-380,-1034,-569,-320,314,146,-404
0,6399302,202,-1872,-380,-1034,-569,-320,314,146,-404
0,6399310,202,-1872,-380,-1034,-569,-320,314,146,-404
0,6399319,202,-1872,-380,-1034,-569,-320,314,146,-404
0,6399327,202,-1872,-380,-1034,-569,-320,314,146,-404
0,6399335,199,-1878,-384,-1024,-567,-323,314,146,-404
0,6399344,199,-1878,-384,-1024,-567,-323,314,146,-404
0,6399351,201,-1872,-390,-1029,-561,-319,314,146,-404
0,6399361,201,-1872,-390,-1029,-561,-319,314,146,-404
0,6399369,201,-1872,-390,-1029,-561,-319,314,146,-404
0,6399377,201,-1878,-390,-1025,-568,-323,314,146,-404
0,6399384,201,-1878,-390,-1025,-568,-323,314,146,-404
0,6399393,199,-1874,-375,-1030,-562,-327,310,146,-410
0,6399401,199,-1874,-375,-1030,-562,-327,310,146,-410
0,6399414,200,-1876,-378,-1027,-565,-325,310,146,-410
0,6399428,200,-1876,-378,-1027,-565,-325,310,146,-410
0,6399440,195,-1871,-383,-1030,-565,-318,310,146,-410
0,6399453,199,-1876,-382,-1033,-568,-333,310,146,-410
0,6399461,199,-1876,-382,-1033,-568,-333,310,146,-410
0,6399473,199,-1872,-387,-1034,-562,-328,310,146,-410
0,6399485,199,-1872,-387,-1034,-562,-328,310,146,-410
0,6399499,197,-1871,-387,-1027,-559,-324,310,146,-410
0,6399509,197,-1871,-387,-1027,-559,-324,310,146,-410
0,6399522,198,-1875,-377,-1037,-558,-320,316,152,-402
0,6399536,200,-1873,-383,-1028,-564,-321,316,152,-402
0,6399549,200,-1873,-383,-1028,-564,-321,316,152,-402
0,6399560,200,-1873,-383,-1028,-564,-321,316,152,-402
0,6399572,200,-1871,-383,-1031,-569,-319,316,152,-402
0,6399584,200,-1871,-383,-1031,-569,-319,316,152,-402
0,6399592,201,-1874,-386,-1026,-566,-317,316,152,-402
0,6399599,201,-1874,-386,-1026,-566,-317,316,152,-402
0,6399607,201,-1874,-386,-1026,-566,-317,316,152,-402
0,6399616,199,-1873,-388,-1027,-572,-326,316,152,-402
0,6399626,199,-1873,-388,-1027,-572,-326,316,152,-402
0,6399639,202,-1873,-386,-1027,-566,-319,316,152,-402
0,6399652,201,-1873,-387,-1034,-568,-324,316,156,-398
0,6399662,201,-1873,-387,-1034,-568,-324,316,156,-398
0,6399675,200,-1875,-386,-1022,-565,-326,316,156,-398
0,6399687,200,-1875,-386,-1022,-565,-326,316,156,-398
0,6399700,200,-1875,-377,-1027,-569,-321,316,156,-398
0,6399709,200,-1875,-377,-1027,-569,-321,316,156,-398
0,6399722,200,-1880,-383,-1023,-563,-326,316,156,-398
0,6399732,202,-1873,-385,-1028,-564,-321,316,156,-398
0,6399744,202,-1873,-385,-1028,-564,-321,316,156,-398
0,6399756,195,-1874,-382,-1028,-560,-324,316,156,-398
0,6399770,196,-1874,-379,-1034,-565,-327,316,156,-398
0,6399780,196,-1874,-379,-1034,-565,-327,306,150,-404
0,6399792,200,-1873,-379,-1036,-573,-332,306,150,-404
0,6399806,200,-1873,-379,-1036,-573,-332,306,150,-404
0,6399820,198,-1872,-381,-1034,-569,-322,306,150,-404
0,6399830,198,-1872,-381,-1034,-569,-322,306,150,-404
0,6399842,201,-1875,-381,-1033,-566,-321,306,150,-404
0,6399855,201,-1874,-384,-1027,-563,-322,306,150,-404
0,6399868,201,-1874,-384,-1027,-563,-322,306,150,-404
0,6399879,200,-1872,-385,-1029,-568,-322,306,150,-404
0,6399892,200,-1875,-381,-1034,-563,-327,305,151,-401
0,6399906,200,-1875,-381,-1034,-563,-327,305,151,-401
0,6399919,198,-1874,-378,-1031,-567,-314,305,151,-401
0,6399929,198,-1874,-378,-1031,-567,-314,305,151,-401
0,6399942,201,-1873,-382,-1026,-573,-323,305,151,-401
0,6399954,199,-1875,-379,-1024,-567,-332,305,151,-401
0,6399968,199,-1875,-379,-1024,-567,-332,305,151,-401
0,6399980,199,-1875,-385,-1025,-564,-317,305,151,-401
0,6399994,196,-1874,-387,-1040,-569,-325,305,151,-401
0,6400008,196,-1874,-387,-1040,-569,-325,305,151,-401
0,6400022,198,-1875,-383,-1033,-568,-316,305,151,-401
0,6400035,199,-1873,-379,-1032,-564,-321,316,150,-408
0,6400047,199,-1873,-379,-1032,-564,-321,316,150,-408
0,6400060,200,-1876,-384,-1029,-569,-330,316,150,-408
0,6400074,199,-1877,-386,-1035,-569,-328,316,150,-408
0,6400083,199,-1877,-386,-1035,-569,-328,316,150,-408
0,6400091,199,-1872,-387,-1034,-568,-322,316,150,-408
0,6400096,199,-1872,-387,-1034,-568,-322,316,150,-408
0,6400104,199,-1872,-387,-1034,-568,-322,316,150,-408
0,6400112,200,-1876,-383,-1031,-562,-322,316,150,-408
0,6400119,200,-1876,-383,-1031,-562,-322,316,150,-408
0,6400125,200,-1876,-383,-1031,-562,-322,316,150,-408
0,6400133,201,-1873,-390,-1032,-560,-323,316,150,-408
0,6400139,201,-1873,-390,-1032,-560,-323,316,150,-408
0,6400144,201,-1873,-390,-1032,-560,-323,316,150,-408
0,6400152,202,-1872,-386,-1027,-569,-328,310,154,-402
0,6400159,202,-1872,-386,-1027,-569,-328,310,154,-402
0,6400164,202,-1872,-386,-1027,-569,-328,310,154,-402
0,6400171,202,-1872,-386,-1027,-569,-328,310,154,-402
0,6400178,200,-1874,-383,-1027,-572,-324,310,154,-402
0,6400186,200,-1874,-383,-1027,-572,-324,310,154,-402
0,6400193,199,-1873,-379,-1031,-569,-324,310,154,-402
0,6400201,199,-1873,-379,-1031,-569,-324,310,154,-402
0,6400207,199,-1873,-379,-1031,-569,-324,310,154,-402
0,6400215,202,-1871,-386,-1029,-570,-332,310,154,-402
0,6400222,202,-1871,-386,-1029,-570,-332,310,154,-402
0,6400230,202,-1871,-386,-1029,-570,-332,310,154,-402
0,6400236,201,-1874,-379,-1030,-561,-325,310,154,-402
0,6400243,201,-1874,-379,-1030,-561,-325,310,154,-402
0,6400252,200,-1874,-385,-1026,-569,-328,310,154,-402
0,6400260,200,-1874,-385,-1026,-569,-328,310,154,-402
0,6400265,200,-1874,-385,-1026,-569,-328,310,154,-402
0,6400274,200,-1874,-385,-1026,-569,-328,310,154,-402
0,6400281,200,-1874,-385,-1026,-569,-328,310,154,-402
0,6400286,200,-1874,-385,-1026,-569,-328,310,154,-402
0,6400291,199,-1873,-382,-1030,-565,-329,311,157,-407
0,6400296,199,-1873,-382,-1030,-565,-329,311,157,-407
0,6400302,199,-1873,-382,-1030,-565,-329,311,157,-407
0,6400307,199,-1873,-382,-1030,-565,-329,311,157,-407
0,6400312,200,-1877,-382,-1037,-563,-321,311,157,-407
0,6400320,200,-1877,-382,-1037,-563,-321,311,157,-407
0,6400327,200,-1877,-382,-1037,-563,-321,311,157,-407
0,6400334,198,-1877,-379,-1029,-572,-323,311,157,-407
0,6400343,198,-1877,-379,-1029,-572,-323,311,157,-407
0,6400350,198,-1877,-379,-1029,-572,-323,311,157,-407
0,6400357,201,-1877,-385,-1024,-571,-321,311,157,-407
0,6400363,201,-1877,-385,-1024,-571,-321,311,157,-407
0,6400370,201,-1877,-385,-1024,-571,-321,311,157,-407
0,6400379,199,-1875,-382,-1030,-562,-334,311,157,-407
0,6400386,199,-1875,-382,-1030,-562,-334,311,157,-407
0,6400393,200,-1872,-381,-1027,-569,-333,311,157,-407
0,6400400,200,-1872,-381,-1027,-569,-333,311,157,-407
0,6400408,200,-1872,-381,-1027,-569,-333,311,157,-407
0,6400413,200,-1871,-385,-1029,-562,-330,310,150,-416
0,6400420,200,-1871,-385,-1029,-562,-330,310,150,-416
0,6400429,200,-1871,-385,-1029,-562,-330,310,150,-416
0,6400436,201,-1873,-376,-1027,-568,-326,310,150,-416
0,6400443,201,-1873,-376,-1027,-568,-326,310,150,-416
0,6400451,201,-1873,-376,-1027,-568,-326,310,150,-416
0,6400458,200,-1871,-378,-1030,-566,-326,310,150,-416
0,6400463,200,-1871,-378,-1030,-566,-326,310,150,-416
0,6400471,200,-1871,-378,-1030,-566,-326,310,150,-416
0,6400478,201,-1875,-380,-1030,-563,-327,310,150,-416
0,6400483,201,-1875,-380,-1030,-563,-327,310,150,-416
0,6400491,201,-1875,-380,-1030,-563,-327,310,150,-416
0,6400499,201,-1875,-380,-1030,-563,-327,310,150,-416
0,6400505,201,-1875,-380,-1030,-563,-327,310,150,-416
0,6400513,199,-1874,-378,-1025,-572,-331,310,150,-416
0,6400520,199,-1874,-378,-1025,-572,-331,310,150,-416
0,6400526,199,-1874,-378,-1025,-572,-331,310,150,-416
0,6400532,199,-1869,-384,-1033,-571,-329,311,145,-405
0,6400538,199,-1869,-384,-1033,-571,-329,311,145,-405
0,6400545,199,-1869,-384,-1033,-571,-329,311,145,-405
0,6400552,196,-1876,-385,-1020,-566,-329,311,145,-405
0,6400560,196,-1876,-385,-1020,-566,-329,311,145,-405
0,6400567,196,-1876,-385,-1020,-566,-329,311,145,-405
0,6400574,198,-1875,-380,-1023,-565,-323,311,145,-405
0,6400580,198,-1875,-380,-1023,-565,-323,311,145,-405
0,6400585,198,-1875,-380,-1023,-565,-323,311,145,-405
0,6400590,198,-1875,-380,-1023,-565,-323,311,145,-405
0,6400596,202,-1873,-384,-1026,-570,-321,311,145,-405
0,6400602,202,-1873,-384,-1026,-570,-321,311,145,-405
0,6400607,202,-1873,-384,-1026,-570,-321,311,145,-405
0,6400613,200,-1875,-385,-1020,-572,-324,311,145,-405
0,6400621,200,-1875,-385,-1020,-572,-324,311,145,-405
0,6400626,200,-1875,-385,-1020,-572,-324,311,145,-405
0,6400633,197,-1874,-386,-1030,-570,-324,311,145,-405
0,6400640,197,-1874,-386,-1030,-570,-324,311,145,-405
0,6400645,197,-1874,-386,-1030,-570,-324,311,145,-405
0,6400651,197,-1874,-386,-1030,-570,-324,311,145,-405
0,6400658,198,-1874,-381,-1030,-568,-325,311,145,-405
0,6400664,198,-1874,-381,-1030,-568,-325,311,145,-405
0,6400672,202,-1874,-383,-1024,-566,-332,314,150,-408
0,6400679,202,-1874,-383,-1024,-566,-332,314,150,-408
0,6400687,202,-1874,-383,-1024,-566,-332,314,150,-408
0,6400694,198,-1871,-381,-1030,-573,-322,314,150,-408
0,6400700,198,-1871,-381,-1030,-573,-322,314,150,-408
0,6400708,198,-1871,-381,-1030,-573,-322,314,150,-408
0,6400716,200,-1871,-387,-1026,-565,-326,314,150,-408
0,6400723,200,-1871,-387,-1026,-565,-326,314,150,-408
0,6400730,200,-1871,-387,-1026,-565,-326,314,150,-408
0,6400739,201,-1874,-386,-1026,-573,-332,314,150,-408
0,6400745,201,-1874,-386,-1026,-573,-332,314,150,-408
0,6400750,201,-1874,-386,-1026,-573,-332,314,150,-408
0,6400758,202,-1872,-385,-1025,-573,-327,314,150,-408
0,6400766,202,-1872,-385,-1025,-573,-327,314,150,-408
0,6400774,200,-1875,-384,-1027,-568,-327,314,150,-408
0,6400780,200,-1875,-384,-1027,-568,-327,314,150,-408
0,6400787,200,-1875,-384,-1027,-568,-327,314,150,-408
0,6400794,198,-1873,-380,-1039,-577,-329,311,147,-403
0,6400799,198,-1873,-380,-1039,-577,-329,311,147,-403
0,6400807,198,-1873,-380,-1039,-577,-329,311,147,-403
0,6400815,200,-1869,-382,-1041,-575,-329,311,147,-403
0,6400822,200,-1869,-382,-1041,-575,-329,311,147,-403
0,6400829,200,-1869,-382,-1041,-575,-329,311,147,-403
0,6400836,199,-1873,-381,-1025,-566,-327,311,147,-403
0,6400844,199,-1873,-381,-1025,-566,-327,311,147,-403
0,6400851,200,-1870,-377,-1023,-564,-324,311,147,-403
0,6400859,200,-1870,-377,-1023,-564,-324,311,147,-403
0,6400865,200,-1870,-377,-1023,-564,-324,311,147,-403
0,6400872,201,-1873,-383,-1039,-565,-329,311,147,-403
0,6400879,201,-1873,-383,-1039,-565,-329,311,147,-403
0,6400886,201,-1873,-383,-1039,-565,-329,311,147,-403
0,6400894,198,-1876,-383,-1035,-563,-327,311,147,-403
0,6400901,198,-1876,-383,-1035,-563,-327,311,147,-403
0,6400909,198,-1876,-383,-1035,-563,-327,311,147,-403
0,6400917,200,-1873,-381,-1027,-564,-330,311,147,-403
0,6400925,200,-1873,-381,-1027,-564,-330,311,147,-403
0,6400932,202,-1874,-382,-1018,-563,-328,303,149,-403
0,6400940,202,-1874,-382,-1018,-563,-328,303,149,-403
0,6400947,202,-1874,-382,-1018,-563,-328,303,149,-403
0,6400955,198,-1876,-378,-1024,-565,-334,303,149,-403
0,6400961,198,-1876,-378,-1024,-565,-334,303,149,-403
0,6400966,198,-1876,-378,-1024,-565,-334,303,149,-403
0,6400975,199,-1875,-384,-1024,-568,-320,303,149,-403
0,6400984,199,-1875,-384,-1024,-568,-320,303,149,-403
0,6400990,199,-1875,-384,-1024,-568,-320,303,149,-403
0,6400997,199,-1872,-383,-1031,-568,-321,303,149,-403
0,6401004,199,-1872,-383,-1031,-568,-321,303,149,-403
0,6401011,199,-1872,-383,-1031,-568,-321,303,149,-403
0,6401016,202,-1875,-382,-1033,-568,-321,303,149,-403
0,6401024,202,-1875,-382,-1033,-568,-321,303,149,-403
0,6401032,198,-1873,-380,-1030,-567,-323,303,149,-403
0,6401039,198,-1873,-380,-1030,-567,-323,303,149,-403
0,6401046,198,-1873,-380,-1030,-567,-323,303,149,-403
0,6401053,201,-1874,-382,-1034,-571,-321,309,141,-399
0,6401060,201,-1874,-382,-1034,-571,-321,309,141,-399
0,6401067,201,-1874,-382,-1034,-571,-321,309,141,-399
0,6401074,199,-1873,-381,-1025,-565,-320,309,141,-399
0,6401082,199,-1873,-381,-1025,-565,-320,309,141,-399
0,6401095,201,-1872,-385,-1027,-576,-323,309,141,-399
0,6401103,201,-1872,-385,-1027,-576,-323,309,141,-399
0,6401116,200,-1872,-385,-1025,-566,-326,309,141,-399
0,6401126,200,-1872,-385,-1025,-566,-326,309,141,-399
0,6401137,196,-1871,-384,-1031,-566,-319,309,141,-399
0,6401150,196,-1871,-384,-1031,-566,-319,309,141,-399
0,6401163,198,-1874,-381,-1035,-564,-323,309,141,-399
0,6401175,200,-1874,-392,-1034,-564,-317,309,141,-399
0,6401188,200,-1874,-392,-1034,-564,-317,309,141,-399
0,6401201,198,-1871,-380,-1021,-562,-321,314,148,-404
0,6401213,197,-1876,-381,-1022,-562,-322,314,148,-404
0,6401226,197,-1876,-381,-1022,-562,-322,314,148,-404
0,6401238,196,-1873,-380,-1022,-570,-323,314,148,-404
0,6401250,196,-1873,-380,-1022,-570,-323,314,148,-404
0,6401263,196,-1874,-383,-1032,-571,-320,314,148,-404
0,6401271,196,-1874,-383,-1032,-571,-320,314,148,-404
0,6401280,200,-1875,-385,-1036,-567,-324,314,148,-404
0,6401288,200,-1875,-385,-1036,-567,-324,314,148,-404
0,6401295,198,-1874,-386,-1033,-562,-327,314,148,-404
0,6401304,198,-1874,-386,-1033,-562,-327,314,148,-404
0,6401312,201,-1873,-374,-1032,-572,-328,309,141,-405
0,6401320,201,-1873,-374,-1032,-572,-328,309,141,-405
0,6401330,201,-1873,-374,-1032,-572,-328,309,141,-405
0,6401338,196,-1873,-377,-1032,-570,-331,309,141,-405
0,6401345,196,-1873,-377,-1032,-570,-331,309,141,-405
0,6401354,201,-1875,-380,-1033,-572,-319,309,141,-405
0,6401362,201,-1875,-380,-1033,-572,-319,309,141,-405
0,6401371,201,-1875,-380,-1033,-572,-319,309,141,-405
0,6401379,200,-1871,-381,-1023,-572,-321,309,141,-405
0,6401387,200,-1871,-381,-1023,-572,-321,309,141,-405
0,6401395,198,-1873,-386,-1023,-568,-321,309,141,-405
0,6401403,198,-1873,-386,-1023,-568,-321,309,141,-405
0,6401414,195,-1873,-384,-1031,-563,-324,309,141,-405
0,6401425,195,-1873,-384,-1031,-563,-324,309,141,-405
0,6401434,199,-1875,-386,-1034,-563,-326,314,148,-402
0,6401442,199,-1875,-386,-1034,-563,-326,314,148,-402
0,6401456,201,-1873,-379,-1038,-565,-325,314,148,-402
0,6401469,201,-1873,-379,-1038,-565,-325,314,148,-402
0,6401481,200,-1871,-377,-1034,-564,-322,314,148,-402
0,6401495,196,-1876,-379,-1031,-568,-316,314,148,-402
0,6401508,196,-1876,-379,-1031,-568,-316,314,148,-402
0,6401520,198,-1877,-384,-1035,-568,-322,314,148,-402
0,6401534,198,-1872,-386,-1029,-572,-322,314,148,-402
0,6401547,198,-1872,-386,-1029,-572,-322,314,148,-402
0,6401559,199,-1875,-380,-1033,-573,-321,314,148,-402
0,6401570,199,-1875,-380,-1033,-573,-321,314,148,-402
0,6401583,197,-1872,-380,-1036,-569,-319,311,155,-413
0,6401591,197,-1872,-380,-1036,-569,-319,311,155,-413
0,6401598,199,-1873,-384,-1035,-571,-315,311,155,-413
0,6401606,199,-1873,-384,-1035,-571,-315,311,155,-413
0,6401614,199,-1872,-379,-1030,-568,-322,311,155,-413
0,6401628,199,-1872,-379,-1030,-568,-322,311,155,-413
0,6401638,198,-1877,-385,-1027,-567,-326,311,155,-413
0,6401650,198,-1877,-385,-1027,-567,-326,311,155,-413
0,6401666,196,-1872,-384,-1032,-562,-317,311,155,-413
0,6401679,197,-1874,-383,-1024,-566,-326,311,155,-413
0,6401689,197,-1874,-383,-1024,-566,-326,311,155,-413
0,6401701,198,-1872,-375,-1027,-570,-320,307,145,-401
0,6401715,194,-1874,-378,-1039,-570,-322,307,145,-401
0,6401728,194,-1874,-378,-1039,-570,-322,307,145,-401
0,6401738,197,-1874,-383,-1035,-569,-327,307,145,-401
0,6401753,197,-1874,-383,-1035,-569,-327,307,145,-401
0,6401765,200,-1875,-383,-1038,-572,-319,307,145,-401
0,6401778,200,-1874,-386,-1035,-568,-324,307,145,-401
0,6401787,200,-1874,-386,-1035,-568,-324,307,145,-401
0,6401800,200,-1875,-387,-1025,-567,-318,307,145,-401
0,6401810,200,-1875,-387,-1025,-567,-318,307,145,-401
0,6401821,200,-1871,-384,-1036,-572,-324,307,145,-401
0,6401836,201,-1871,-380,-1028,-571,-325,308,148,-400
0,6401848,201,-1871,-380,-1028,-571,-325,308,148,-400
0,6401857,199,-1873,-380,-1030,-570,-329,308,148,-400
0,6401869,199,-1873,-380,-1030,-570,-329,308,148,-400
0,6401885,200,-1875,-378,-1026,-574,-326,308,148,-400
0,6401898,202,-1875,-382,-1024,-569,-327,308,148,-400
0,6401907,202,-1875,-382,-1024,-569,-327,308,148,-400
0,6401917,202,-1875,-382,-1024,-569,-327,308,148,-400
0,6401926,202,-1875,-382,-1024,-569,-327,308,148,-400
0,6401934,201,-1875,-386,-1027,-563,-322,308,148,-400
0,6401942,201,-1875,-386,-1027,-563,-322,308,148,-400
0,6401953,196,-1874,-380,-1029,-569,-326,308,148,-400
0,6401966,196,-1874,-380,-1029,-569,-326,308,146,-412
0,6401975,198,-1876,-382,-1030,-568,-325,308,146,-412
0,6401983,198,-1876,-382,-1030,-568,-325,308,146,-412
0,6401991,198,-1876,-382,-1030,-568,-325,308,146,-412
0,6401999,202,-1875,-377,-1032,-567,-321,308,146,-412
0,6402009,202,-1875,-377,-1032,-567,-321,308,146,-412
0,6402020,199,-1872,-386,-1026,-572,-325,308,146,-412
0,6402032,199,-1872,-386,-1026,-572,-325,308,146,-412
0,6402045,202,-1872,-385,-1026,-573,-324,308,146,-412
0,6402058,197,-1872,-391,-1031,-576,-325,308,146,-412
0,6402071,197,-1872,-391,-1031,-576,-325,308,146,-412
0,6402083,199,-1870,-384,-1031,-578,-327,308,146,-412
0,6402096,198,-1871,-380,-1030,-572,-327,320,146,-402
0,6402101,198,-1871,-380,-1030,-572,-327,320,146,-402
0,6402108,198,-1871,-380,-1030,-572,-327,320,146,-402
0,6402115,198,-1873,-379,-1036,-567,-317,320,146,-402
0,6402122,198,-1873,-379,-1036,-567,-317,320,146,-402
0,6402129,198,-1873,-379,-1036,-567,-317,320,146,-402
0,6402138,199,-1872,-386,-1027,-569,-325,320,146,-402
0,6402145,199,-1872,-386,-1027,-569,-325,320,146,-402
0,6402153,199,-1872,-386,-1027,-569,-325,320,146,-402
0,6402161,197,-1874,-387,-1025,-569,-324,320,146,-402
0,6402167,197,-1874,-387,-1025,-569,-324,320,146,-402
0,6402174,198,-1871,-386,-1027,-570,-321,320,146,-402
0,6402182,198,-1871,-386,-1027,-570,-321,320,146,-402
0,6402189,198,-1871,-386,-1027,-570,-321,320,146,-402
0,6402197,199,-1874,-387,-1031,-565,-322,320,146,-402
0,6402205,199,-1874,-387,-1031,-565,-322,320,146,-402
0,6402211,199,-1874,-387,-1031,-565,-322,320,146,-402
0,6402219,199,-1874,-381,-1031,-565,-327,307,145,-405
0,6402226,199,-1874,-381,-1031,-565,-327,307,145,-405
0,6402233,199,-1874,-381,-1031,-565,-327,307,145,-405
0,6402239,201,-1874,-383,-1030,-571,-323,307,145,-405
0,6402246,201,-1874,-383,-1030,-571,-323,307,145,-405
0,6402254,199,-1875,-384,-1029,-568,-324,307,145,-405
0,6402263,199,-1875,-384,-1029,-568,-324,307,145,-405
0,6402269,199,-1875,-384,-1029,-568,-324,307,145,-405
0,6402275,198,-1873,-383,-1025,-569,-322,307,145,-405
0,6402282,198,-1873,-383,-1025,-569,-322,307,145,-405
0,6402287,198,-1873,-383,-1025,-569,-322,307,145,-405
0,6402292,198,-1873,-383,-1025,-569,-322,307,145,-405
0,6402297,202,-1876,-384,-1033,-574,-326,307,145,-405
0,6402302,202,-1876,-384,-1033,-574,-326,307,145,-405
0,6402308,202,-1876,-384,-1033,-574,-326,307,145,-405
0,6402313,202,-1876,-384,-1033,-574,-326,307,145,-405
0,6402318,197,-1872,-378,-1036,-570,-327,307,145,-405
0,6402325,197,-1872,-378,-1036,-570,-327,307,145,-405
0,6402333,197,-1872,-378,-1036,-570,-327,307,145,-405
0,6402339,199,-1873,-386,-1034,-571,-327,317,147,-409
0,6402348,199,-1873,-386,-1034,-571,-327,317,147,-409
0,6402355,199,-1872,-385,-1019,-568,-325,317,147,-409
0,6402363,199,-1872,-385,-1019,-568,-325,317,147,-409
0,6402369,199,-1872,-385,-1019,-568,-325,317,147,-409
0,6402377,202,-1876,-382,-1032,-568,-325,317,147,-409
0,6402384,202,-1876,-382,-1032,-568,-325,317,147,-409
0,6402393,202,-1876,-382,-1032,-568,-325,317,147,-409
0,6402400,202,-1873,-383,-1026,-569,-322,317,147,-409
0,6402406,202,-1873,-383,-1026,-569,-322,317,147,-409
0,6402414,202,-1872,-388,-1025,-568,-330,317,147,-409
0,6402421,202,-1872,-388,-1025,-568,-330,317,147,-409
0,6402429,202,-1872,-388,-1025,-568,-330,317,147,-409
0,6402436,200,-1875,-385,-1026,-571,-330,317,147,-409
0,6402443,200,-1875,-385,-1026,-571,-330,317,147,-409
0,6402449,200,-1875,-385,-1026,-571,-330,317,147,-409
0,6402456,202,-1873,-380,-1030,-571,-327,317,147,-409
0,6402464,202,-1873,-380,-1030,-571,-327,317,147,-409
0,6402472,202,-1873,-380,-1030,-571,-327,317,147,-409
0,6402480,200,-1878,-377,-1039,-569,-325,311,155,-409
0,6402487,200,-1878,-377,-1039,-569,-325,311,155,-409
0,6402494,200,-1874,-381,-1031,-571,-322,311,155,-409
0,6402499,200,-1874,-381,-1031,-571,-322,311,155,-409
0,6402504,200,-1874,-381,-1031,-571,-322,311,155,-409
0,6402509,200,-1874,-381,-1031,-571,-322,311,155,-409
0,6402518,199,-1873,-383,-1028,-567,-325,311,155,-409
0,6402526,199,-1873,-383,-1028,-567,-325,311,155,-409
0,6402534,199,-1873,-383,-1028,-567,-325,311,155,-409
0,6402541,201,-1874,-387,-1028,-570,-326,311,155,-409
0,6402548,201,-1874,-387,-1028,-570,-326,311,155,-409
0,6402555,196,-1872,-381,-1034,-562,-331,311,155,-409
0,6402564,196,-1872,-381,-1034,-562,-331,311,155,-409
0,6402571,196,-1872,-381,-1034,-562,-331,311,155,-409
0,6402577,198,-1873,-381,-1026,-569,-326,311,155,-409
0,6402582,198,-1873,-381,-1026,-569,-326,311,155,-409
0,6402587,198,-1873,-381,-1026,-569,-326,311,155,-409
0,6402592,198,-1873,-381,-1026,-569,-326,311,155,-409
0,6402597,200,-1875,-377,-1029,-571,-329,310,152,-402
0,6402603,200,-1875,-377,-1029,-571,-329,310,152,-402
0,6402608,200,-1875,-377,-1029,-571,-329,310,152,-402
0,6402616,197,-1874,-376,-1036,-567,-323,310,152,-402
0,6402622,197,-1874,-376,-1036,-567,-323,310,152,-402
0,6402629,197,-1874,-376,-1036,-567,-323,310,152,-402
0,6402636,200,-1878,-388,-1029,-566,-328,310,152,-402
0,6402643,200,-1878,-388,-1029,-566,-328,310,152,-402
0,6402650,200,-1878,-388,-1029,-566,-328,310,152,-402
0,6402658,200,-1872,-385,-1029,-569,-327,310,152,-402
0,6402664,200,-1872,-385,-1029,-569,-327,310,152,-402
0,6402672,200,-1872,-385,-1029,-569,-327,310,152,-402
0,6402680,201,-1874,-384,-1022,-559,-329,310,152,-402
0,6402688,201,-1874,-384,-1022,-559,-329,310,152,-402
0,6402695,200,-1876,-385,-1029,-567,-324,310,152,-402
0,6402701,200,-1876,-385,-1029,-567,-324,310,152,-402
0,6402708,200,-1876,-385,-1029,-567,-324,310,152,-402
0,6402715,200,-1873,-380,-1029,-573,-322,310,152,-402
0,6402722,200,-1873,-380,-1029,-573,-322,310,152,-402
0,6402727,200,-1873,-380,-1029,-573,-322,310,152,-402
0,6402735,199,-1872,-383,-1034,-575,-333,317,151,-401
0,6402743,199,-1872,-383,-1034,-575,-333,317,151,-401
0,6402750,199,-1872,-383,-1034,-575,-333,317,151,-401
0,6402757,202,-1875,-382,-1035,-569,-323,317,151,-401
0,6402764,202,-1875,-382,-1035,-569,-323,317,151,-401
0,6402771,202,-1875,-382,-1035,-569,-323,317,151,-401
0,6402779,200,-1873,-380,-1033,-573,-327,317,151,-401
0,6402786,200,-1873,-380,-1033,-573,-327,317,151,-401
0,6402792,200,-1873,-380,-1033,-573,-327,317,151,-401
0,6402800,199,-1871,-383,-1027,-571,-326,317,151,-401
0,6402806,199,-1871,-383,-1027,-571,-326,317,151,-401
0,6402812,199,-1871,-383,-1027,-571,-326,317,151,-401
0,6402820,200,-1874,-380,-1029,-569,-322,317,151,-401
0,6402828,200,-1874,-380,-1029,-569,-322,317,151,-401
0,6402833,200,-1874,-380,-1029,-569,-322,317,151,-401
0,6402839,200,-1872,-390,-1026,-567,-324,317,151,-401
0,6402846,200,-1872,-390,-1026,-567,-324,317,151,-401
0,6402853,200,-1872,-390,-1026,-567,-324,317,151,-401
0,6402860,199,-1874,-373,-1029,-575,-326,317,149,-401
0,6402867,199,-1874,-373,-1029,-575,-326,317,149,-401
0,6402875,201,-1875,-380,-1027,-568,-323,317,149,-401
0,6402882,201,-1875,-380,-1027,-568,-323,317,149,-401
0,6402889,201,-1875,-380,-1027,-568,-323,317,149,-401
0,6402895,199,-1875,-387,-1026,-573,-320,317,149,-401
0,6402902,199,-1875,-387,-1026,-573,-320,317,149,-401
0,6402909,199,-1875,-387,-1026,-573,-320,317,149,-401
0,6402915,200,-1872,-384,-1028,-568,-322,317,149,-401
0,6402922,200,-1872,-384,-1028,-568,-322,317,149,-401
0,6402929,200,-1872,-384,-1028,-568,-322,317,149,-401
0,6402936,199,-1872,-388,-1019,-571,-320,317,149,-401
0,6402942,199,-1872,-388,-1019,-571,-320,317,149,-401
0,6402951,199,-1872,-388,-1019,-571,-320,317,149,-401
0,6402958,199,-1872,-388,-1019,-571,-320,317,149,-401
0,6402965,199,-1872,-388,-1019,-571,-320,317,149,-401
0,6402972,199,-1872,-388,-1019,-571,-320,317,149,-401
0,6402977,203,-1875,-380,-1029,-577,-327,317,149,-401
0,6402984,203,-1875,-380,-1029,-577,-327,317,149,-401
0,6402993,203,-1875,-380,-1029,-577,-327,317,149,-401
0,6403001,203,-1871,-377,-1025,-569,-318,317,149,-401
0,6403007,203,-1871,-377,-1025,-569,-318,317,149,-401
0,6403014,202,-1875,-384,-1030,-562,-324,317,149,-401
0,6403021,202,-1875,-384,-1030,-562,-324,317,149,-401
0,6403030,202,-1875,-384,-1030,-562,-324,317,149,-401
0,6403036,199,-1872,-383,-1032,-566,-327,317,149,-401
0,6403043,199,-1872,-383,-1032,-566,-327,317,149,-401
0,6403051,199,-1872,-383,-1032,-566,-327,317,149,-401
0,6403058,200,-1873,-382,-1026,-568,-327,317,149,-401
0,6403064,200,-1873,-382,-1026,-568,-327,317,149,-401
0,6403070,200,-1873,-382,-1026,-568,-327,317,149,-401
0,6403079,199,-1872,-383,-1030,-573,-326,317,149,-401
0,6403084,199,-1872,-383,-1030,-573,-326,317,149,-401
0,6403089,199,-1872,-383,-1030,-573,-326,317,149,-401
0,6403094,199,-1872,-383,-1030,-573,-326,317,149,-401
0,6403105,202,-1876,-379,-1031,-571,-325,317,149,-401
0,6403113,202,-1876,-379,-1031,-571,-325,317,149,-401
0,6403126,200,-1877,-376,-1032,-576,-329,304,148,-404
0,6403141,198,-1876,-380,-1022,-568,-326,304,148,-404
0,6403156,199,-1876,-388,-1021,-568,-325,304,148,-404
0,6403168,199,-1876,-388,-1021,-568,-325,304,148,-404
0,6403179,197,-1875,-385,-1025,-571,-329,304,148,-404
0,6403191,197,-1875,-385,-1025,-571,-329,304,148,-404
0,6403205,198,-1873,-382,-1017,-566,-331,304,148,-404
0,6403217,200,-1875,-381,-1033,-564,-327,304,148,-404
0,6403229,200,-1875,-381,-1033,-564,-327,304,148,-404
0,6403241,199,-1874,-384,-1034,-563,-324,312,146,-400
0,6403255,200,-1876,-385,-1029,-568,-327,312,146,-400
0,6403268,200,-1876,-385,-1029,-568,-327,312,146,-400
0,6403279,199,-1873,-381,-1020,-561,-322,312,146,-400
0,6403289,199,-1873,-381,-1020,-561,-322,312,146,-400
0,6403297,199,-1875,-382,-1021,-567,-322,312,146,-400
0,6403305,199,-1875,-382,-1021,-567,-322,312,146,-400
0,6403313,199,-1875,-382,-1021,-567,-322,312,146,-400
0,6403321,200,-1873,-382,-1026,-564,-327,312,146,-400
0,6403330,200,-1873,-382,-1026,-564,-327,312,146,-400
0,6403338,200,-1871,-384,-1026,-566,-330,312,146,-400
0,6403347,200,-1871,-384,-1026,-566,-330,312,146,-400
0,6403355,198,-1875,-385,-1027,-556,-322,312,146,-400
0,6403363,198,-1875,-385,-1027,-556,-322,312,146,-400
0,6403372,198,-1875,-385,-1027,-556,-322,312,146,-400
0,6403380,199,-1872,-385,-1028,-567,-322,317,151,-393
0,6403388,199,-1872,-385,-1028,-567,-322,317,151,-393
0,6403396,201,-1875,-379,-1024,-570,-327,317,151,-393
0,6403409,201,-1875,-379,-1024,-570,-327,317,151,-393
0,6403422,199,-1871,-382,-1026,-566,-324,317,151,-393
0,6403435,201,-1877,-384,-1034,-569,-322,317,151,-393
0,6403447,201,-1877,-384,-1034,-569,-322,317,151,-393
0,6403461,200,-1875,-384,-1032,-564,-322,317,151,-393
0,6403472,200,-1875,-384,-1032,-564,-322,317,151,-393
0,6403484,199,-1875,-380,-1023,-567,-325,317,151,-393
0,6403496,198,-1874,-372,-1027,-570,-322,310,150,-410
0,6403509,198,-1874,-372,-1027,-570,-322,310,150,-410
0,6403522,199,-1873,-382,-1021,-572,-326,310,150,-410
0,6403534,199,-1873,-382,-1021,-572,-326,310,150,-410
0,6403547,197,-1874,-388,-1026,-563,-320,310,150,-410
0,6403561,198,-1871,-385,-1029,-568,-321,310,150,-410
0,6403573,198,-1871,-385,-1029,-568,-321,310,150,-410
0,6403582,200,-1874,-385,-1037,-566,-321,310,150,-410
0,6403591,200,-1874,-385,-1037,-566,-321,310,150,-410
0,6403599,196,-1875,-381,-1027,-568,-329,310,150,-410
0,6403606,196,-1875,-381,-1027,-568,-329,310,150,-410
0,6403615,200,-1874,-382,-1038,-573,-327,310,150,-410
0,6403624,200,-1874,-382,-1038,-573,-327,310,150,-410
0,6403634,200,-1874,-382,-1038,-573,-327,310,150,-410
0,6403643,198,-1874,-384,-1032,-564,-317,316,152,-404
0,6403652,198,-1874,-384,-1032,-564,-317,316,152,-404
0,6403661,198,-1874,-384,-1031,-570,-320,316,152,-404
0,6403675,198,-1874,-384,-1031,-570,-320,316,152,-404
0,6403683,199,-1875,-383,-1032,-569,-323,316,152,-404
0,6403692,199,-1875,-383,-1032,-569,-323,316,152,-404
0,6403700,200,-1873,-386,-1033,-565,-322,316,152,-404
0,6403707,200,-1873,-386,-1033,-565,-322,316,152,-404
0,6403717,200,-1873,-383,-1032,-571,-330,316,152,-404
0,6403729,200,-1873,-383,-1032,-571,-330,316,152,-404
0,6403744,199,-1874,-385,-1030,-577,-319,316,152,-404
0,6403759,200,-1871,-383,-1025,-573,-322,308,152,-406
0,6403769,200,-1871,-383,-1025,-573,-322,308,152,-406
0,6403780,199,-1874,-383,-1022,-567,-325,308,152,-406
0,6403794,199,-1874,-383,-1022,-567,-325,308,152,-406
0,6403806,198,-1876,-380,-1033,-562,-326,308,152,-406
0,6403817,198,-1874,-385,-1029,-562,-325,308,152,-406
0,6403830,198,-1874,-385,-1029,-562,-325,308,152,-406
0,6403844,199,-1875,-381,-1024,-565,-325,308,152,-406
0,6403857,199,-1874,-382,-1021,-568,-330,308,152,-406
0,6403866,199,-1874,-382,-1021,-568,-330,308,152,-406
0,6403878,201,-1875,-379,-1022,-579,-320,310,142,-402
0,6403889,201,-1875,-379,-1022,-579,-320,310,142,-402
0,6403900,199,-1873,-378,-1033,-576,-325,310,142,-402
0,6403914,199,-1873,-378,-1033,-576,-325,310,142,-402
0,6403930,199,-1872,-376,-1027,-575,-333,310,142,-402
0,6403942,199,-1873,-381,-1026,-570,-325,310,142,-402
0,6403955,199,-1873,-381,-1026,-570,-325,310,142,-402
0,6403969,201,-1872,-384,-1028,-568,-324,310,142,-402
0,6403982,196,-1875,-383,-1027,-560,-326,310,142,-402
0,6403994,196,-1875,-383,-1027,-560,-326,310,142,-402
0,6404007,199,-1874,-384,-1027,-563,-329,310,142,-402
0,6404020,200,-1872,-384,-1025,-568,-327,312,140,-402
0,6404033,200,-1872,-384,-1025,-568,-327,312,140,-402
0,6404047,199,-1874,-385,-1030,-561,-324,312,140,-402
0,6404061,198,-1872,-385,-1032,-564,-321,312,140,-402
0,6404074,198,-1872,-385,-1032,-564,-321,312,140,-402
0,6404084,197,-1874,-382,-1032,-563,-321,312,140,-402
0,6404097,198,-1877,-384,-1029,-565,-324,312,140,-402
0,6404109,198,-1877,-384,-1029,-565,-324,312,140,-402
0,6404117,200,-1878,-378,-1031,-570,-325,312,140,-402
0,6404124,200,-1878,-378,-1031,-570,-325,312,140,-402
0,6404129,200,-1878,-378,-1031,-570,-325,312,140,-402
0,6404137,201,-1875,-380,-1032,-562,-327,307,149,-401
0,6404145,201,-1875,-380,-1032,-562,-327,307,149,-401
0,6404150,201,-1875,-380,-1032,-562,-327,307,149,-401
0,6404158,199,-1874,-377,-1030,-558,-326,307,149,-401
0,6404166,199,-1874,-377,-1030,-558,-326,307,149,-401
0,6404173,199,-1874,-377,-1030,-558,-326,307,149,-401
0,6404182,203,-1871,-380,-1024,-566,-323,307,149,-401
0,6404189,203,-1871,-380,-1024,-566,-323,307,149,-401
0,6404195,203,-1871,-380,-1024,-566,-323,307,149,-401
0,6404202,202,-1876,-379,-1017,-562,-320,307,149,-401
0,6404208,202,-1876,-379,-1017,-562,-320,307,149,-401
0,6404215,202,-1876,-379,-1017,-562,-320,307,149,-401
0,6404221,199,-1873,-386,-1028,-571,-324,307,149,-401
0,6404227,199,-1873,-386,-1028,-571,-324,307,149,-401
0,6404232,199,-1873,-386,-1028,-571,-324,307,149,-401
0,6404241,200,-1873,-387,-1024,-574,-324,307,149,-401
0,6404248,200,-1873,-387,-1024,-574,-324,307,149,-401
0,6404254,200,-1873,-387,-1024,-574,-324,307,149,-401
0,6404260,198,-1874,-388,-1022,-569,-324,307,149,-401
0,6404267,198,-1874,-388,-1022,-569,-324,307,149,-401
0,6404275,198,-1874,-388,-1022,-569,-324,307,149,-401
0,6404283,201,-1872,-374,-1036,-566,-325,303,153,-411
0,6404287,201,-1872,-374,-1036,-566,-325,303,153,-411
0,6404292,201,-1872,-374,-1036,-566,-325,303,153,-411
0,6404297,198,-1869,-377,-1030,-563,-323,303,153,-411
0,6404302,198,-1869,-377,-1030,-563,-323,303,153,-411
0,6404308,198,-1869,-377,-1030,-563,-323,303,153,-411
0,6404314,198,-1869,-377,-1030,-563,-323,303,153,-411
0,6404319,199,-1872,-383,-1027,-568,-325,303,153,-411
0,6404327,199,-1872,-383,-1027,-568,-325,303,153,-411
0,6404335,199,-1872,-383,-1027,-568,-325,303,153,-411
0,6404342,199,-1872,-387,-1031,-570,-327,303,153,-411
0,6404349,199,-1872,-387,-1031,-570,-327,303,153,-411
0,6404357,200,-1871,-384,-1031,-569,-325,303,153,-411
0,6404364,200,-1871,-384,-1031,-569,-325,303,153,-411
0,6404372,200,-1871,-384,-1031,-569,-325,303,153,-411
0,6404379,197,-1872,-382,-1031,-560,-329,303,153,-411
0,6404386,197,-1872,-382,-1031,-560,-329,303,153,-411
0,6404392,197,-1872,-382,-1031,-560,-329,303,153,-411
0,6404400,200,-1871,-381,-1027,-565,-323,300,140,-406
0,6404407,200,-1871,-381,-1027,-565,-323,300,140,-406
0,6404414,200,-1871,-381,-1027,-565,-323,300,140,-406
0,6404419,203,-1874,-389,-1025,-562,-323,300,140,-406
0,6404427,203,-1874,-389,-1025,-562,-323,300,140,-406
0,6404434,203,-1874,-389,-1025,-562,-323,300,140,-406
0,6404443,200,-1876,-381,-1024,-567,-321,300,140,-406
0,6404450,200,-1876,-381,-1024,-567,-321,300,140,-406
0,6404458,200,-1870,-381,-1031,-568,-320,300,140,-406
0,6404464,200,-1870,-381,-1031,-568,-320,300,140,-406
0,6404470,200,-1870,-381,-1031,-568,-320,300,140,-406
0,6404478,200,-1875,-389,-1027,-561,-327,300,140,-406
0,6404485,200,-1875,-389,-1027,-561,-327,300,140,-406
0,6404492,200,-1875,-389,-1027,-561,-327,300,140,-406
0,6404499,199,-1876,-378,-1021,-571,-332,300,140,-406
0,6404506,199,-1876,-378,-1021,-571,-332,300,140,-406
0,6404513,199,-1876,-378,-1021,-571,-332,300,140,-406
0,6404521,198,-1874,-379,-1029,-566,-333,300,140,-406
0,6404528,198,-1874,-379,-1029,-566,-333,300,140,-406
0,6404535,198,-1874,-379,-1029,-566,-333,300,140,-406
0,6404542,200,-1876,-378,-1033,-569,-330,310,150,-404
0,6404549,200,-1876,-378,-1033,-569,-330,310,150,-404
0,6404555,200,-1876,-378,-1033,-569,-330,310,150,-404
0,6404561,196,-1874,-379,-1028,-567,-327,310,150,-404
0,6404569,196,-1874,-379,-1028,-567,-327,310,150,-404
0,6404576,196,-1874,-379,-1028,-567,-327,310,150,-404
0,6404582,197,-1870,-383,-1023,-563,-327,310,150,-404
0,6404587,197,-1870,-383,-1023,-563,-327,310,150,-404
0,6404592,197,-1870,-383,-1023,-563,-327,310,150,-404
0,6404597,198,-1876,-382,-1029,-565,-324,310,150,-404
0,6404602,198,-1876,-382,-1029,-565,-324,310,150,-404
0,6404608,198,-1876,-382,-1029,-565,-324,310,150,-404
0,6404613,198,-1876,-382,-1029,-565,-324,310,150,-404
0,6404621,198,-1876,-385,-1036,-564,-322,310,150,-404
0,6404627,198,-1876,-385,-1036,-564,-322,310,150,-404
0,6404632,198,-1876,-385,-1036,-564,-322,310,150,-404
0,6404638,200,-1872,-383,-1022,-565,-327,310,150,-404
0,6404645,200,-1872,-383,-1022,-565,-327,310,150,-404
0,6404652,200,-1872,-383,-1022,-565,-327,310,150,-404
0,6404660,199,-1875,-381,-1028,-564,-326,314,150,-408
0,6404667,199,-1875,-381,-1028,-564,-326,314,150,-408
0,6404675,199,-1875,-381,-1028,-564,-326,314,150,-408
0,6404682,201,-1872,-386,-1030,-566,-329,314,150,-408
0,6404689,201,-1872,-386,-1030,-566,-329,314,150,-408
0,6404696,201,-1872,-386,-1030,-566,-329,314,150,-408
0,6404702,200,-1874,-384,-1027,-567,-320,314,150,-408
0,6404710,200,-1874,-384,-1027,-567,-320,314,150,-408
0,6404717,199,-1872,-381,-1029,-571,-329,314,150,-408
0,6404723,199,-1872,-381,-1029,-571,-329,314,150,-408
0,6404728,199,-1872,-381,-1029,-571,-329,314,150,-408
0,6404733,199,-1872,-381,-1029,-571,-329,314,150,-408
0,6404742,200,-1875,-385,-1023,-568,-324,314,150,-408
0,6404748,200,-1875,-385,-1023,-568,-324,314,150,-408
0,6404753,200,-1875,-385,-1023,-568,-324,314,150,-408
0,6404761,201,-1872,-387,-1026,-569,-322,314,150,-408
0,6404767,201,-1872,-387,-1026,-569,-322,314,150,-408
0,6404774,201,-1872,-387,-1026,-569,-322,314,150,-408
0,6404782,198,-1872,-384,-1026,-564,-324,312,156,-416
0,6404788,198,-1872,-384,-1026,-564,-324,312,156,-416
0,6404795,198,-1872,-384,-1026,-564,-324,312,156,-416
0,6404802,197,-1875,-378,-1030,-568,-325,312,156,-416
0,6404810,197,-1875,-378,-1030,-568,-325,312,156,-416
0,6404818,200,-1876,-387,-1028,-566,-325,312,156,-416
0,6404826,200,-1876,-387,-1028,-566,-325,312,156,-416
0,6404833,200,-1876,-387,-1028,-566,-325,312,156,-416
0,6404838,198,-1876,-380,-1021,-571,-327,312,156,-416
0,6404845,198,-1876,-380,-1021,-571,-327,312,156,-416
0,6404851,198,-1876,-380,-1021,-571,-327,312,156,-416
0,6404859,200,-1873,-382,-1031,-571,-325,312,156,-416
0,6404865,200,-1873,-382,-1031,-571,-325,312,156,-416
0,6404872,200,-1873,-382,-1031,-571,-325,312,156,-416
0,6404880,201,-1875,-390,-1037,-569,-323,312,156,-416
0,6404888,201,-1875,-390,-1037,-569,-323,312,156,-416
0,6404896,201,-1875,-390,-1037,-569,-323,312,156,-416
0,6404902,199,-1871,-381,-1027,-561,-322,312,156,-416
0,6404910,199,-1871,-381,-1027,-561,-322,312,156,-416
0,6404919,204,-1875,-381,-1032,-568,-322,312,152,-402
0,6404927,204,-1875,-381,-1032,-568,-322,312,152,-402
0,6404934,204,-1875,-381,-1032,-568,-322,312,152,-402
0,6404940,200,-1873,-383,-1024,-571,-329,312,152,-402
0,6404947,200,-1873,-383,-1024,-571,-329,312,152,-402
0,6404956,200,-1873,-383,-1024,-571,-329,312,152,-402
0,6404962,202,-1874,-380,-1034,-565,-328,312,152,-402
0,6404969,202,-1874,-380,-1034,-565,-328,312,152,-402
0,6404977,199,-1873,-384,-1027,-565,-327,312,152,-402
0,6404983,199,-1873,-384,-1027,-565,-327,312,152,-402
0,6404993,199,-1873,-384,-1027,-565,-327,312,152,-402
0,6404998,201,-1872,-383,-1023,-566,-321,312,152,-402
0,6405004,201,-1872,-383,-1023,-566,-321,312,152,-402
0,6405012,201,-1872,-383,-1023,-566,-321,312,152,-402
0,6405020,201,-1874,-387,-1019,-570,-324,312,152,-402
0,6405027,201,-1874,-387,-1019,-570,-324,312,152,-402
0,6405036,201,-1874,-387,-1019,-570,-324,312,152,-402
0,6405043,199,-1871,-383,-1033,-571,-320,309,151,-399
0,6405049,199,-1871,-383,-1033,-571,-320,309,151,-399
0,6405054,199,-1871,-383,-1033,-571,-320,309,151,-399
0,6405061,198,-1874,-379,-1027,-567,-321,309,151,-399
0,6405069,198,-1874,-379,-1027,-567,-321,309,151,-399
0,6405078,201,-1873,-390,-1031,-571,-323,309,151,-399
0,6405086,201,-1873,-390,-1031,-571,-323,309,151,-399
0,6405091,201,-1873,-390,-1031,-571,-323,309,151,-399
0,6405098,199,-1873,-384,-1030,-563,-323,309,151,-399
0,6405106,199,-1873,-384,-1030,-563,-323,309,151,-399
0,6405113,199,-1873,-384,-1030,-563,-323,309,151,-399
0,6405124,202,-1877,-385,-1027,-565,-321,309,151,-399
0,6405135,202,-1877,-385,-1027,-565,-321,309,151,-399
0,6405150,200,-1871,-382,-1025,-559,-326,309,151,-399
0,6405164,197,-1874,-389,-1021,-558,-321,309,151,-399
0,6405174,197,-1874,-389,-1021,-558,-321,309,151,-399
0,6405184,198,-1874,-378,-1019,-565,-316,310,146,-406
0,6405192,198,-1874,-378,-1019,-565,-316,310,146,-406
0,6405200,202,-1874,-386,-1026,-570,-326,310,146,-406
0,6405209,202,-1874,-386,-1026,-570,-326,310,146,-406
0,6405220,197,-1872,-387,-1022,-560,-330,310,146,-406
0,6405233,197,-1872,-387,-1022,-560,-330,310,146,-406
0,6405245,197,-1871,-379,-1025,-563,-325,310,146,-406
0,6405257,197,-1871,-379,-1025,-563,-325,310,146,-406
0,6405269,198,-1874,-384,-1027,-571,-320,310,146,-406
0,6405281,196,-1872,-384,-1023,-574,-324,310,146,-406
0,6405289,196,-1872,-384,-1023,-574,-324,310,146,-406
0,6405299,198,-1872,-381,-1022,-562,-331,304,148,-408
0,6405307,198,-1872,-381,-1022,-562,-331,304,148,-408
0,6405315,198,-1872,-381,-1022,-562,-331,304,148,-408
0,6405323,199,-1873,-381,-1024,-568,-331,304,148,-408
0,6405331,199,-1873,-381,-1024,-568,-331,304,148,-408
0,6405340,196,-1872,-382,-1030,-563,-322,304,148,-408
0,6405348,196,-1872,-382,-1030,-563,-322,304,148,-408
0,6405356,196,-1872,-382,-1030,-563,-322,304,148,-408
0,6405364,199,-1872,-384,-1024,-565,-330,304,148,-408
0,6405372,199,-1872,-384,-1024,-565,-330,304,148,-408
0,6405381,197,-1872,-386,-1029,-566,-331,304,148,-408
0,6405389,197,-1872,-386,-1029,-566,-331,304,148,-408
0,6405397,197,-1872,-386,-1029,-566,-331,304,148,-408
0,6405409,200,-1875,-386,-1029,-561,-324,304,148,-408
0,6405423,198,-1872,-387,-1031,-570,-319,304,148,-408
0,6405435,198,-1872,-387,-1031,-570,-319,304,148,-408
0,6405448,200,-1871,-380,-1029,-569,-326,305,153,-411
0,6405462,199,-1872,-382,-1030,-563,-323,305,153,-411
0,6405474,199,-1872,-382,-1030,-563,-323,305,153,-411
0,6405487,200,-1875,-384,-1029,-562,-321,305,153,-411
0,6405500,200,-1874,-390,-1029,-566,-331,305,153,-411
0,6405514,200,-1874,-390,-1029,-566,-331,305,153,-411
0,6405524,201,-1875,-387,-1025,-566,-324,305,153,-411
0,6405538,200,-1875,-384,-1018,-564,-319,305,153,-411
0,6405551,200,-1875,-384,-1018,-564,-319,305,153,-411
0,6405563,202,-1872,-382,-1024,-563,-320,303,145,-405
0,6405576,202,-1872,-382,-1024,-563,-320,303,145,-405
0,6405584,200,-1873,-382,-1017,-563,-322,303,145,-405
0,6405593,200,-1873,-382,-1017,-563,-322,303,145,-405
0,6405601,198,-1876,-383,-1023,-566,-324,303,145,-405
0,6405610,198,-1876,-383,-1023,-566,-324,303,145,-405
0,6405623,199,-1873,-383,-1027,-571,-328,303,145,-405
0,6405639,200,-1874,-385,-1027,-569,-328,303,145,-405
0,6405652,200,-1874,-385,-1027,-569,-328,303,145,-405
0,6405660,198,-1872,-384,-1033,-565,-320,303,145,-405
0,6405673,198,-1872,-384,-1033,-565,-320,303,145,-405
0,6405686,199,-1876,-388,-1034,-565,-326,311,153,-403
0,6405700,197,-1875,-381,-1028,-563,-326,311,153,-403
0,6405709,197,-1875,-381,-1028,-563,-326,311,153,-403
0,6405722,202,-1875,-384,-1027,-565,-327,311,153,-403
0,6405734,202,-1875,-384,-1027,-565,-327,311,153,-403
0,6405747,201,-1874,-387,-1024,-560,-326,311,153,-403
0,6405758,204,-1873,-387,-1019,-564,-319,311,153,-403
0,6405774,204,-1873,-387,-1019,-564,-319,311,153,-403
0,6405785,200,-1872,-381,-1027,-576,-326,311,153,-403
0,6405794,200,-1872,-381,-1027,-576,-326,311,153,-403
0,6405803,197,-1876,-383,-1033,-567,-329,311,153,-403
0,6405811,197,-1876,-383,-1033,-567,-329,311,153,-403
0,6405818,196,-1873,-378,-1038,-568,-325,314,152,-402
0,6405827,196,-1873,-378,-1038,-568,-325,314,152,-402
0,6405839,201,-1873,-378,-1037,-572,-330,314,152,-402
0,6405854,201,-1873,-378,-1037,-572,-330,314,152,-402
0,6405866,201,-1874,-384,-1032,-571,-329,314,152,-402
0,6405877,201,-1874,-384,-1032,-571,-329,314,152,-402
0,6405890,201,-1873,-382,-1030,-569,-325,314,152,-402
0,6405904,201,-1873,-383,-1035,-569,-320,314,152,-402
0,6405917,201,-1873,-383,-1035,-569,-320,314,152,-402
0,6405927,196,-1872,-387,-1027,-567,-326,314,152,-402
0,6405941,199,-1873,-384,-1029,-569,-327,307,141,-391
0,6405953,199,-1873,-384,-1029,-569,-327,307,141,-391
0,6405966,198,-1871,-382,-1033,-574,-322,307,141,-391
0,6405977,198,-1871,-382,-1033,-574,-322,307,141,-391
0,6405992,198,-1873,-377,-1032,-570,-317,307,141,-391
0,6406004,200,-1876,-375,-1026,-568,-320,307,141,-391
0,6406012,200,-1876,-375,-1026,-568,-320,307,141,-391
0,6406025,200,-1871,-381,-1030,-567,-327,307,141,-391
0,6406039,200,-1874,-386,-1025,-573,-324,307,141,-391
0,6406050,200,-1874,-386,-1025,-573,-324,307,141,-391
0,6406061,202,-1874,-386,-1027,-569,-327,307,141,-391
0,6406075,202,-1874,-386,-1027,-569,-327,307,141,-391
0,6406089,201,-1873,-382,-1032,-566,-323,312,150,-412
0,6406097,201,-1873,-382,-1032,-566,-323,312,150,-412
0,6406109,201,-1874,-382,-1031,-565,-328,312,150,-412
0,6406123,198,-1871,-382,-1026,-569,-329,312,150,-412
0,6406130,198,-1871,-382,-1026,-569,-329,312,150,-412
0,6406137,198,-1871,-382,-1026,-569,-329,312,150,-412
0,6406144,201,-1875,-387,-1022,-569,-329,312,150,-412
0,6406150,201,-1875,-387,-1022,-569,-329,312,150,-412
0,6406158,201,-1875,-387,-1022,-569,-329,312,150,-412
0,6406164,199,-1873,-384,-1020,-568,-316,312,150,-412
0,6406171,199,-1873,-384,-1020,-568,-316,312,150,-412
0,6406179,200,-1872,-386,-1029,-565,-323,312,150,-412
0,6406185,200,-1872,-386,-1029,-565,-323,312,150,-412
0,6406194,200,-1872,-386,-1029,-565,-323,312,150,-412
0,6406201,200,-1869,-383,-1032,-578,-318,310,148,-408
0,6406208,200,-1869,-383,-1032,-578,-318,310,148,-408
0,6406217,200,-1869,-383,-1032,-578,-318,310,148,-408
0,6406224,200,-1874,-383,-1027,-569,-317,310,148,-408
0,6406231,200,-1874,-383,-1027,-569,-317,310,148,-408
0,6406237,200,-1874,-383,-1027,-569,-317,310,148,-408
0,6406243,197,-1872,-382,-1023,-563,-315,310,148,-408
0,6406250,197,-1872,-382,-1023,-563,-315,310,148,-408
0,6406256,197,-1872,-382,-1023,-563,-315,310,148,-408
0,6406262,198,-1876,-385,-1027,-571,-322,310,148,-408
0,6406270,198,-1876,-385,-1027,-571,-322,310,148,-408
0,6406277,198,-1876,-385,-1027,-571,-322,310,148,-408
0,6406284,199,-1870,-386,-1029,-573,-324,310,148,-408
0,6406289,199,-1870,-386,-1029,-573,-324,310,148,-408
0,6406294,199,-1870,-386,-1029,-573,-324,310,148,-408
0,6406300,201,-1872,-387,-1028,-565,-333,310,148,-408
0,6406305,201,-1872,-387,-1028,-565,-333,310,148,-408
0,6406310,201,-1872,-387,-1028,-565,-333,310,148,-408
0,6406317,201,-1872,-387,-1028,-565,-333,310,148,-408
0,6406324,199,-1871,-386,-1019,-564,-323,312,142,-396
0,6406331,199,-1871,-386,-1019,-564,-323,312,142,-396
0,6406336,199,-1871,-386,-1019,-564,-323,312,142,-396
0,6406341,200,-1870,-383,-1029,-567,-324,312,142,-396
0,6406346,200,-1870,-383,-1029,-567,-324,312,142,-396
0,6406353,200,-1870,-383,-1029,-567,-324,312,142,-396
0,6406360,197,-1872,-380,-1032,-571,-329,312,142,-396
0,6406366,197,-1872,-380,-1032,-571,-329,312,142,-396
0,6406372,197,-1872,-380,-1032,-571,-329,312,142,-396
0,6406378,197,-1872,-380,-1032,-571,-329,312,142,-396
0,6406385,202,-1872,-383,-1023,-571,-321,312,142,-396
0,6406392,202,-1872,-383,-1023,-571,-321,312,142,-396
0,6406397,202,-1872,-383,-1023,-571,-321,312,142,-396
0,6406405,199,-1871,-385,-1030,-570,-324,312,142,-396
0,6406411,199,-1871,-385,-1030,-570,-324,312,142,-396
0,6406418,199,-1871,-385,-1030,-570,-324,312,142,-396
0,6406425,203,-1875,-385,-1032,-563,-326,312,142,-396
0,6406431,203,-1875,-385,-1032,-563,-326,312,142,-396
0,6406438,199,-1873,-378,-1026,-562,-324,312,142,-396
0,6406447,199,-1873,-378,-1026,-562,-324,312,142,-396
0,6406454,199,-1873,-378,-1026,-562,-324,312,142,-396
0,6406461,199,-1873,-378,-1026,-564,-326,316,148,-410
0,6406467,199,-1873,-378,-1026,-564,-326,316,148,-410
0,6406474,199,-1873,-378,-1026,-564,-326,316,148,-410
0,6406480,199,-1872,-381,-1023,-567,-330,316,148,-410
0,6406489,199,-1872,-381,-1023,-567,-330,316,148,-410
0,6406495,199,-1872,-381,-1023,-567,-330,316,148,-410
0,6406504,200,-1874,-384,-1026,-569,-333,316,148,-410
0,6406510,200,-1874,-384,-1026,-569,-333,316,148,-410
0,6406517,200,-1874,-384,-1026,-569,-333,316,148,-410
0,6406524,199,-1873,-384,-1031,-566,-322,316,148,-410
0,6406532,199,-1873,-384,-1031,-566,-322,316,148,-410
0,6406538,199,-1873,-384,-1031,-566,-322,316,148,-410
0,6406545,199,-1874,-391,-1022,-567,-317,316,148,-410
0,6406552,199,-1874,-391,-1022,-567,-317,316,148,-410
0,6406559,199,-1874,-391,-1022,-567,-317,316,148,-410
0,6406566,199,-1874,-391,-1022,-567,-317,316,148,-410
0,6406574,199,-1874,-391,-1022,-567,-317,316,148,-410
0,6406581,199,-1874,-382,-1020,-566,-320,311,143,-403
0,6406586,199,-1874,-382,-1020,-566,-320,311,143,-403
0,6406591,199,-1874,-382,-1020,-566,-320,311,143,-403
