imu,time,ax,ay,az,gx,gy,gz,mx,my,mz
2,6037855,-3472,-1693,-555,-159,-245,-87,317,169,-243
2,6037860,-3472,-1693,-555,-159,-245,-87,317,169,-243
2,6037865,-3472,-1693,-555,-159,-245,-87,317,169,-243
2,6037873,-3472,-1693,-555,-159,-245,-87,317,169,-243
2,6037877,-3468,-1694,-553,-164,-239,-83,317,169,-243
2,6037882,-3468,-1694,-553,-164,-239,-83,317,169,-243
2,6037889,-3468,-1694,-553,-164,-239,-83,317,169,-243
2,6037894,-3468,-1694,-553,-164,-239,-83,317,169,-243
2,6037899,-3471,-1693,-555,-157,-238,-82,317,169,-243
2,6037904,-3471,-1693,-555,-157,-238,-82,317,169,-243
2,6037909,-3471,-1693,-555,-157,-238,-82,317,169,-243
2,6037914,-3471,-1693,-555,-157,-238,-82,317,169,-243
2,6037919,-3474,-1693,-557,-161,-243,-87,317,169,-243
2,6037924,-3474,-1693,-557,-161,-243,-87,317,169,-243
2,6037929,-3474,-1693,-557,-161,-243,-87,317,169,-243
2,6037936,-3473,-1690,-557,-161,-241,-82,317,169,-243
2,6037941,-3473,-1690,-557,-161,-241,-82,317,169,-243
2,6037948,-3473,-1690,-557,-161,-241,-82,317,169,-243
2,6037955,-3472,-1693,-555,-172,-237,-79,317,169,-243
2,6037963,-3472,-1693,-555,-172,-237,-79,317,169,-243
2,6037970,-3472,-1693,-555,-172,-237,-79,317,169,-243
2,6037978,-3472,-1694,-551,-168,-240,-89,323,173,-247
2,6037984,-3472,-1694,-551,-168,-240,-89,323,173,-247
2,6037991,-3472,-1694,-551,-168,-240,-89,323,173,-247
2,6037998,-3471,-1693,-553,-162,-237,-89,323,173,-247
2,6038004,-3471,-1693,-553,-162,-237,-89,323,173,-247
2,6038013,-3471,-1693,-553,-162,-237,-89,323,173,-247
2,6038020,-3472,-1692,-554,-165,-247,-83,323,173,-247
2,6038025,-3472,-1692,-554,-165,-247,-83,323,173,-247
2,6038030,-3472,-1692,-554,-165,-247,-83,323,173,-247
2,6038035,-3469,-1696,-554,-159,-247,-82,323,173,-247
2,6038041,-3469,-1696,-554,-159,-247,-82,323,173,-247
2,6038046,-3469,-1696,-554,-159,-247,-82,323,173,-247
2,6038051,-3469,-1696,-554,-159,-247,-82,323,173,-247
2,6038056,-3473,-1690,-558,-163,-246,-90,323,173,-247
2,6038062,-3473,-1690,-558,-163,-246,-90,323,173,-247
2,6038069,-3473,-1690,-558,-163,-246,-90,323,173,-247
2,6038076,-3472,-1691,-556,-162,-244,-86,323,173,-247
2,6038082,-3472,-1691,-556,-162,-244,-86,323,173,-247
2,6038088,-3472,-1691,-556,-162,-244,-86,323,173,-247
2,6038096,-3473,-1694,-554,-161,-240,-90,316,164,-248
2,6038103,-3473,-1694,-554,-161,-240,-90,316,164,-248
2,6038110,-3473,-1694,-554,-161,-240,-90,316,164,-248
2,6038117,-3468,-1694,-553,-155,-238,-88,316,164,-248
2,6038123,-3468,-1694,-553,-155,-238,-88,316,164,-248
2,6038131,-3468,-1694,-553,-155,-238,-88,316,164,-248
2,6038139,-3470,-1691,-555,-159,-238,-84,316,164,-248
2,6038148,-3470,-1691,-555,-159,-238,-84,316,164,-248
2,6038155,-3470,-1691,-555,-159,-238,-84,316,164,-248
2,6038163,-3470,-1697,-552,-160,-236,-94,316,164,-248
2,6038169,-3470,-1697,-552,-160,-236,-94,316,164,-248
2,6038176,-3467,-1694,-561,-166,-242,-84,316,164,-248
2,6038183,-3467,-1694,-561,-166,-242,-84,316,164,-248
2,6038192,-3467,-1694,-561,-166,-242,-84,316,164,-248
2,6038199,-3473,-1691,-559,-171,-237,-86,316,164,-248
2,6038206,-3473,-1691,-559,-171,-237,-86,316,164,-248
2,6038213,-3473,-1691,-559,-171,-237,-86,316,164,-248
2,6038219,-3469,-1691,-550,-163,-242,-87,314,166,-240
2,6038226,-3469,-1691,-550,-163,-242,-87,314,166,-240
2,6038233,-3469,-1691,-550,-163,-242,-87,314,166,-240
2,6038240,-3470,-1691,-552,-159,-239,-92,314,166,-240
2,6038246,-3470,-1691,-552,-159,-239,-92,314,166,-240
2,6038253,-3470,-1691,-552,-159,-239,-92,314,166,-240
2,6038260,-3472,-1694,-557,-159,-236,-88,314,166,-240
2,6038267,-3472,-1694,-557,-159,-236,-88,314,166,-240
2,6038274,-3472,-1694,-557,-159,-236,-88,314,166,-240
2,6038282,-3470,-1695,-561,-163,-235,-86,314,166,-240
2,6038290,-3470,-1695,-561,-163,-235,-86,314,166,-240
2,6038296,-3470,-1693,-553,-159,-232,-87,314,166,-240
2,6038304,-3470,-1693,-553,-159,-232,-87,314,166,-240
2,6038311,-3470,-1693,-553,-159,-232,-87,314,166,-240
2,6038322,-3473,-1694,-552,-161,-236,-80,314,166,-240
2,6038327,-3473,-1694,-552,-161,-236,-80,314,166,-240
2,6038335,-3472,-1691,-554,-161,-244,-78,314,166,-240
2,6038341,-3472,-1691,-554,-161,-244,-78,312,166,-246
2,6038348,-3472,-1691,-554,-161,-244,-78,312,166,-246
2,6038356,-3470,-1697,-555,-157,-235,-74,312,166,-246
2,6038364,-3470,-1697,-555,-157,-235,-74,312,166,-246
2,6038371,-3470,-1697,-555,-157,-235,-74,312,166,-246
2,6038378,-3473,-1696,-554,-160,-239,-82,312,166,-246
2,6038385,-3473,-1696,-554,-160,-239,-82,312,166,-246
2,6038391,-3473,-1696,-554,-160,-239,-82,312,166,-246
2,6038400,-3471,-1693,-553,-158,-243,-87,312,166,-246
2,6038407,-3471,-1693,-553,-158,-243,-87,312,166,-246
2,6038416,-3469,-1694,-556,-159,-240,-84,312,166,-246
2,6038421,-3469,-1694,-556,-159,-240,-84,312,166,-246
2,6038427,-3469,-1694,-556,-159,-240,-84,312,166,-246
2,6038433,-3469,-1694,-556,-159,-240,-84,312,166,-246
2,6038440,-3470,-1693,-551,-167,-244,-84,312,166,-246
2,6038446,-3470,-1693,-551,-167,-244,-84,312,166,-246
2,6038452,-3470,-1693,-551,-167,-244,-84,312,166,-246
2,6038457,-3470,-1693,-551,-167,-244,-84,309,167,-239
2,6038463,-3470,-1693,-551,-167,-244,-84,309,167,-239
2,6038471,-3470,-1693,-551,-167,-244,-84,309,167,-239
2,6038476,-3470,-1694,-553,-163,-239,-90,309,167,-239
2,6038483,-3470,-1694,-553,-163,-239,-90,309,167,-239
2,6038492,-3470,-1694,-553,-163,-239,-90,309,167,-239
2,6038499,-3471,-1695,-552,-162,-233,-88,309,167,-239
2,6038505,-3471,-1695,-552,-162,-233,-88,309,167,-239
2,6038519,-3471,-1693,-556,-166,-236,-86,309,167,-239
2,6038529,-3471,-1693,-556,-166,-236,-86,309,167,-239
2,6038541,-3472,-1695,-555,-166,-239,-93,309,167,-239
2,6038552,-3472,-1695,-555,-166,-239,-93,309,167,-239
2,6038560,-3470,-1693,-557,-164,-239,-85,309,167,-239
2,6038568,-3470,-1693,-557,-164,-239,-85,309,167,-239
2,6038576,-3471,-1694,-555,-164,-240,-82,309,167,-239
2,6038584,-3471,-1694,-555,-164,-240,-82,309,167,-239
2,6038597,-3469,-1692,-551,-162,-245,-84,322,168,-244
2,6038610,-3469,-1692,-551,-162,-245,-84,322,168,-244
2,6038624,-3470,-1695,-545,-163,-246,-86,322,168,-244
2,6038636,-3471,-1693,-553,-163,-242,-86,322,168,-244
2,6038647,-3471,-1693,-553,-163,-242,-86,322,168,-244
2,6038661,-3468,-1692,-552,-165,-241,-86,322,168,-244
2,6038675,-3468,-1692,-552,-165,-241,-86,322,168,-244
2,6038687,-3474,-1694,-553,-161,-238,-78,322,168,-244
2,6038695,-3474,-1696,-557,-164,-240,-85,322,168,-244
2,6038709,-3474,-1696,-557,-164,-240,-85,322,168,-244
2,6038722,-3471,-1695,-551,-158,-244,-80,321,169,-241
2,6038736,-3472,-1696,-552,-157,-242,-89,321,169,-241
2,6038746,-3472,-1696,-552,-157,-242,-89,321,169,-241
2,6038758,-3472,-1694,-555,-164,-243,-89,321,169,-241
2,6038770,-3472,-1694,-555,-164,-243,-89,321,169,-241
2,6038782,-3471,-1696,-554,-159,-247,-81,321,169,-241
2,6038795,-3471,-1696,-554,-159,-247,-81,321,169,-241
2,6038807,-3471,-1696,-556,-164,-247,-87,321,169,-241
2,6038822,-3473,-1695,-552,-163,-244,-91,321,169,-241
2,6038836,-3473,-1695,-552,-163,-244,-91,321,169,-241
2,6038846,-3473,-1695,-551,-163,-241,-95,320,168,-246
2,6038854,-3473,-1695,-551,-163,-241,-95,320,168,-246
2,6038864,-3472,-1694,-556,-164,-236,-84,320,168,-246
2,6038877,-3472,-1696,-554,-159,-238,-80,320,168,-246
2,6038890,-3472,-1696,-554,-159,-238,-80,320,168,-246
2,6038899,-3470,-1691,-551,-162,-243,-81,320,168,-246
2,6038907,-3470,-1691,-551,-162,-243,-81,320,168,-246
2,6038917,-3470,-1693,-558,-161,-242,-85,320,168,-246
2,6038924,-3470,-1693,-558,-161,-242,-85,320,168,-246
2,6038932,-3470,-1693,-558,-161,-242,-85,320,168,-246
2,6038944,-3469,-1695,-556,-158,-244,-92,320,168,-246
2,6038956,-3469,-1695,-556,-158,-244,-92,320,168,-246
2,6038964,-3470,-1692,-551,-156,-231,-84,312,164,-246
2,6038974,-3470,-1692,-551,-156,-231,-84,312,164,-246
2,6038983,-3471,-1692,-554,-161,-239,-86,312,164,-246
2,6038994,-3471,-1692,-554,-161,-239,-86,312,164,-246
2,6039009,-3470,-1694,-558,-160,-236,-82,312,164,-246
2,6039020,-3472,-1694,-556,-160,-240,-86,312,164,-246
2,6039028,-3472,-1694,-556,-160,-240,-86,312,164,-246
2,6039038,-3472,-1689,-552,-160,-240,-87,312,164,-246
2,6039047,-3472,-1689,-552,-160,-240,-87,312,164,-246
2,6039055,-3472,-1689,-552,-160,-240,-87,312,164,-246
2,6039063,-3470,-1693,-558,-163,-242,-82,312,164,-246
2,6039071,-3470,-1693,-558,-163,-242,-82,312,164,-246
2,6039079,-3471,-1692,-552,-159,-239,-86,320,168,-246
2,6039088,-3471,-1692,-552,-159,-239,-86,320,168,-246
2,6039097,-3469,-1695,-549,-163,-241,-91,320,168,-246
2,6039104,-3469,-1695,-549,-163,-241,-91,320,168,-246
2,6039113,-3469,-1695,-549,-163,-241,-91,320,168,-246
2,6039121,-3469,-1697,-548,-165,-246,-91,320,168,-246
2,6039130,-3469,-1697,-548,-165,-246,-91,320,168,-246
2,6039138,-3469,-1695,-552,-164,-240,-92,320,168,-246
2,6039147,-3469,-1695,-552,-164,-240,-92,320,168,-246
2,6039157,-3471,-1695,-550,-157,-239,-88,320,168,-246
2,6039165,-3471,-1695,-550,-157,-239,-88,320,168,-246
2,6039175,-3471,-1695,-550,-157,-239,-88,320,168,-246
2,6039183,-3468,-1692,-550,-160,-239,-90,320,168,-246
2,6039194,-3468,-1692,-550,-160,-239,-90,320,168,-246
2,6039207,-3470,-1693,-554,-169,-243,-89,320,168,-246
2,6039222,-3471,-1694,-552,-164,-235,-91,304,170,-238
2,6039232,-3471,-1694,-552,-164,-235,-91,304,170,-238
2,6039244,-3470,-1692,-556,-163,-243,-90,304,170,-238
2,6039257,-3470,-1693,-554,-163,-245,-84,304,170,-238
2,6039269,-3470,-1693,-554,-163,-245,-84,304,170,-238
2,6039281,-3470,-1693,-552,-159,-245,-88,304,170,-238
2,6039293,-3470,-1693,-552,-159,-245,-88,304,170,-238
2,6039309,-3470,-1692,-549,-158,-240,-85,304,170,-238
2,6039323,-3470,-1693,-554,-165,-241,-82,304,170,-238
2,6039332,-3470,-1693,-554,-165,-241,-82,304,170,-238
2,6039345,-3473,-1691,-551,-161,-249,-92,320,164,-246
2,6039358,-3471,-1693,-550,-161,-240,-85,320,164,-246
2,6039369,-3471,-1693,-550,-161,-240,-85,320,164,-246
2,6039382,-3470,-1693,-557,-166,-248,-87,320,164,-246
2,6039393,-3470,-1693,-557,-166,-248,-87,320,164,-246
2,6039406,-3472,-1692,-558,-156,-242,-83,320,164,-246
2,6039418,-3472,-1694,-553,-162,-239,-73,320,164,-246
2,6039431,-3472,-1694,-553,-162,-239,-73,320,164,-246
2,6039443,-3473,-1694,-557,-164,-243,-77,320,164,-246
2,6039451,-3473,-1694,-557,-164,-243,-77,320,164,-246
2,6039463,-3470,-1695,-550,-159,-237,-82,318,168,-240
2,6039479,-3468,-1693,-551,-159,-244,-86,318,168,-240
2,6039491,-3468,-1693,-551,-159,-244,-86,318,168,-240
2,6039499,-3469,-1695,-558,-158,-239,-85,318,168,-240
2,6039512,-3469,-1695,-558,-158,-239,-85,318,168,-240
2,6039519,-3470,-1694,-553,-157,-249,-86,318,168,-240
2,6039525,-3470,-1694,-553,-157,-249,-86,318,168,-240
2,6039533,-3470,-1694,-553,-157,-249,-86,318,168,-240
2,6039539,-3471,-1694,-554,-159,-243,-86,318,168,-240
2,6039546,-3471,-1694,-554,-159,-243,-86,318,168,-240
2,6039553,-3471,-1694,-554,-159,-243,-86,318,168,-240
2,6039558,-3470,-1694,-548,-159,-241,-88,318,168,-240
2,6039562,-3470,-1694,-548,-159,-241,-88,318,168,-240
2,6039568,-3470,-1694,-548,-159,-241,-88,318,168,-240
2,6039573,-3470,-1694,-548,-159,-241,-88,318,168,-240
2,6039578,-3470,-1691,-551,-161,-242,-86,318,176,-240
2,6039584,-3470,-1691,-551,-161,-242,-86,318,176,-240
2,6039591,-3470,-1691,-551,-161,-242,-86,318,176,-240
2,6039598,-3472,-1691,-553,-155,-236,-85,318,176,-240
2,6039606,-3472,-1691,-553,-155,-236,-85,318,176,-240
2,6039614,-3472,-1691,-553,-155,-236,-85,318,176,-240
2,6039621,-3470,-1693,-557,-156,-238,-82,318,176,-240
2,6039627,-3470,-1693,-557,-156,-238,-82,318,176,-240
2,6039634,-3470,-1693,-557,-156,-238,-82,318,176,-240
2,6039640,-3470,-1694,-555,-161,-237,-79,318,176,-240
2,6039646,-3470,-1694,-555,-161,-237,-79,318,176,-240
2,6039652,-3470,-1694,-555,-161,-237,-79,318,176,-240
2,6039660,-3469,-1692,-555,-165,-242,-90,318,176,-240
2,6039667,-3469,-1692,-555,-165,-242,-90,318,176,-240
2,6039673,-3469,-1692,-555,-165,-242,-90,318,176,-240
2,6039681,-3471,-1695,-557,-162,-237,-87,318,176,-240
2,6039687,-3471,-1695,-557,-162,-237,-87,318,176,-240
2,6039694,-3471,-1695,-557,-162,-237,-87,318,176,-240
2,6039700,-3472,-1690,-549,-164,-243,-84,318,172,-246
2,6039707,-3472,-1690,-549,-164,-243,-84,318,172,-246
2,6039714,-3472,-1690,-549,-164,-243,-84,318,172,-246
2,6039723,-3470,-1693,-551,-158,-237,-90,318,172,-246
2,6039731,-3470,-1693,-551,-158,-237,-90,318,172,-246
2,6039738,-3474,-1694,-552,-165,-242,-89,318,172,-246
2,6039744,-3474,-1694,-552,-165,-242,-89,318,172,-246
2,6039751,-3474,-1694,-552,-165,-242,-89,318,172,-246
2,6039757,-3469,-1692,-557,-164,-244,-84,318,172,-246
2,6039763,-3469,-1692,-557,-164,-244,-84,318,172,-246
2,6039772,-3469,-1692,-557,-164,-244,-84,318,172,-246
2,6039779,-3470,-1692,-552,-162,-248,-86,318,172,-246
2,6039785,-3470,-1692,-552,-162,-248,-86,318,172,-246
2,6039792,-3470,-1692,-552,-162,-248,-86,318,172,-246
2,6039801,-3473,-1692,-557,-161,-240,-84,318,172,-246
2,6039808,-3473,-1692,-557,-161,-240,-84,318,172,-246
2,6039814,-3473,-1692,-557,-161,-240,-84,318,172,-246
2,6039821,-3473,-1693,-552,-160,-240,-86,318,172,-246
2,6039828,-3473,-1693,-552,-160,-240,-86,318,172,-246
2,6039835,-3473,-1693,-552,-160,-240,-86,318,172,-246
2,6039842,-3472,-1691,-551,-157,-242,-86,306,164,-242
2,6039848,-3472,-1691,-551,-157,-242,-86,306,164,-242
2,6039857,-3470,-1692,-553,-156,-246,-84,306,164,-242
2,6039864,-3470,-1692,-553,-156,-246,-84,306,164,-242
2,6039872,-3470,-1692,-553,-156,-246,-84,306,164,-242
2,6039880,-3472,-1691,-557,-150,-235,-87,306,164,-242
2,6039887,-3472,-1691,-557,-150,-235,-87,306,164,-242
2,6039894,-3472,-1691,-557,-150,-235,-87,306,164,-242
2,6039900,-3469,-1694,-555,-154,-234,-85,306,164,-242
2,6039907,-3469,-1694,-555,-154,-234,-85,306,164,-242
2,6039914,-3469,-1694,-555,-154,-234,-85,306,164,-242
2,6039922,-3472,-1693,-557,-158,-240,-93,306,164,-242
2,6039929,-3472,-1693,-557,-158,-240,-93,306,164,-242
2,6039936,-3472,-1693,-557,-158,-240,-93,306,164,-242
2,6039942,-3475,-1694,-556,-167,-240,-85,306,164,-242
2,6039950,-3475,-1694,-556,-167,-240,-85,306,164,-242
2,6039957,-3471,-1693,-552,-163,-242,-91,306,164,-242
2,6039963,-3471,-1693,-552,-163,-242,-91,311,167,-241
2,6039969,-3471,-1693,-552,-163,-242,-91,311,167,-241
2,6039976,-3471,-1693,-552,-163,-242,-91,311,167,-241
2,6039983,-3468,-1690,-552,-158,-245,-86,311,167,-241
2,6039991,-3468,-1690,-552,-158,-245,-86,311,167,-241
2,6039998,-3469,-1695,-555,-154,-243,-92,311,167,-241
2,6040005,-3469,-1695,-555,-154,-243,-92,311,167,-241
2,6040012,-3469,-1695,-555,-154,-243,-92,311,167,-241
2,6040019,-3471,-1693,-553,-161,-235,-90,311,167,-241
2,6040025,-3471,-1693,-553,-161,-235,-90,311,167,-241
2,6040030,-3471,-1693,-553,-161,-235,-90,311,167,-241
2,6040035,-3471,-1693,-553,-161,-235,-90,311,167,-241
2,6040040,-3470,-1694,-556,-158,-241,-87,311,167,-241
2,6040045,-3470,-1694,-556,-158,-241,-87,311,167,-241
2,6040051,-3470,-1694,-556,-158,-241,-87,311,167,-241
2,6040056,-3470,-1694,-556,-158,-241,-87,311,167,-241
2,6040060,-3474,-1692,-556,-157,-244,-87,311,167,-241
2,6040070,-3474,-1692,-556,-157,-244,-87,311,167,-241
2,6040077,-3470,-1691,-552,-168,-243,-86,318,168,-234
2,6040083,-3470,-1691,-552,-168,-243,-86,318,168,-234
2,6040089,-3470,-1691,-552,-168,-243,-86,318,168,-234
2,6040096,-3470,-1691,-552,-168,-243,-86,318,168,-234
2,6040103,-3473,-1696,-554,-164,-240,-94,318,168,-234
2,6040109,-3473,-1696,-554,-164,-240,-94,318,168,-234
2,6040116,-3473,-1696,-554,-164,-240,-94,318,168,-234
2,6040124,-3468,-1695,-552,-157,-239,-90,318,168,-234
2,6040131,-3468,-1695,-552,-157,-239,-90,318,168,-234
2,6040137,-3473,-1694,-559,-158,-243,-85,318,168,-234
2,6040144,-3473,-1694,-559,-158,-243,-85,318,168,-234
2,6040153,-3473,-1694,-559,-158,-243,-85,318,168,-234
2,6040160,-3470,-1694,-554,-162,-243,-85,318,168,-234
2,6040165,-3470,-1694,-554,-162,-243,-85,318,168,-234
2,6040170,-3470,-1694,-554,-162,-243,-85,318,168,-234
2,6040176,-3470,-1694,-554,-162,-243,-85,318,168,-234
2,6040183,-3470,-1692,-553,-156,-241,-84,318,168,-234
2,6040192,-3470,-1692,-553,-156,-241,-84,318,168,-234
2,6040199,-3471,-1694,-549,-158,-247,-83,315,169,-243
2,6040206,-3471,-1694,-549,-158,-247,-83,315,169,-243
2,6040212,-3471,-1694,-549,-158,-247,-83,315,169,-243
2,6040219,-3471,-1693,-556,-162,-249,-90,315,169,-243
2,6040226,-3471,-1693,-556,-162,-249,-90,315,169,-243
2,6040233,-3471,-1693,-556,-162,-249,-90,315,169,-243
2,6040241,-3468,-1692,-560,-162,-240,-84,315,169,-243
2,6040248,-3468,-1692,-560,-162,-240,-84,315,169,-243
2,6040255,-3468,-1692,-560,-162,-240,-84,315,169,-243
2,6040261,-3470,-1694,-557,-157,-236,-84,315,169,-243
2,6040267,-3470,-1694,-557,-157,-236,-84,315,169,-243
2,6040275,-3470,-1694,-557,-157,-236,-84,315,169,-243
2,6040284,-3471,-1691,-559,-155,-244,-84,315,169,-243
2,6040290,-3471,-1691,-559,-155,-244,-84,315,169,-243
2,6040298,-3474,-1693,-558,-162,-235,-86,315,169,-243
2,6040305,-3474,-1693,-558,-162,-235,-86,315,169,-243
2,6040312,-3474,-1693,-558,-162,-235,-86,315,169,-243
2,6040321,-3468,-1694,-551,-153,-240,-86,311,167,-243
2,6040327,-3468,-1694,-551,-153,-240,-86,311,167,-243
2,6040334,-3468,-1694,-551,-153,-240,-86,311,167,-243
2,6040339,-3472,-1692,-549,-159,-232,-83,311,167,-243
2,6040345,-3472,-1692,-549,-159,-232,-83,311,167,-243
2,6040350,-3472,-1692,-549,-159,-232,-83,311,167,-243
2,6040355,-3472,-1692,-549,-159,-232,-83,311,167,-243
2,6040364,-3471,-1693,-558,-165,-239,-81,311,167,-243
2,6040371,-3471,-1693,-558,-165,-239,-81,311,167,-243
2,6040377,-3470,-1690,-559,-164,-239,-85,311,167,-243
2,6040384,-3470,-1690,-559,-164,-239,-85,311,167,-243
2,6040391,-3470,-1690,-559,-164,-239,-85,311,167,-243
2,6040398,-3472,-1691,-559,-165,-245,-85,311,167,-243
2,6040404,-3472,-1691,-559,-165,-245,-85,311,167,-243
2,6040413,-3472,-1691,-559,-165,-245,-85,311,167,-243
2,6040419,-3471,-1692,-555,-162,-239,-86,311,167,-243
2,6040427,-3471,-1692,-555,-162,-239,-86,311,167,-243
2,6040434,-3471,-1692,-555,-162,-239,-86,311,167,-243
2,6040441,-3472,-1691,-553,-164,-239,-83,311,167,-243
2,6040448,-3472,-1691,-553,-164,-239,-83,311,167,-243
2,6040455,-3472,-1691,-553,-164,-239,-83,311,167,-243
2,6040462,-3470,-1690,-549,-167,-239,-78,313,173,-241
2,6040468,-3470,-1690,-549,-167,-239,-78,313,173,-241
2,6040476,-3470,-1690,-549,-167,-239,-78,313,173,-241
2,6040483,-3471,-1693,-555,-162,-232,-79,313,173,-241
2,6040489,-3471,-1693,-555,-162,-232,-79,313,173,-241
2,6040497,-3471,-1693,-555,-162,-232,-79,313,173,-241
2,6040504,-3472,-1694,-551,-157,-241,-87,313,173,-241
2,6040510,-3472,-1694,-551,-157,-241,-87,313,173,-241
2,6040517,-3472,-1694,-551,-157,-241,-87,313,173,-241
2,6040531,-3468,-1694,-552,-161,-243,-84,313,173,-241
2,6040543,-3469,-1693,-555,-161,-239,-87,313,173,-241
2,6040555,-3469,-1693,-555,-161,-239,-87,313,173,-241
2,6040563,-3471,-1693,-557,-164,-241,-85,313,173,-241
2,6040571,-3471,-1693,-557,-164,-241,-85,313,173,-241
2,6040579,-3469,-1693,-554,-164,-243,-84,319,171,-239
2,6040588,-3469,-1693,-554,-164,-243,-84,319,171,-239
2,6040599,-3471,-1693,-557,-170,-243,-81,319,171,-239
2,6040609,-3471,-1693,-557,-170,-243,-81,319,171,-239
2,6040619,-3469,-1693,-552,-163,-243,-79,319,171,-239
2,6040629,-3469,-1693,-552,-163,-243,-79,319,171,-239
2,6040637,-3469,-1693,-552,-163,-243,-79,319,171,-239
2,6040646,-3472,-1693,-556,-163,-238,-80,319,171,-239
2,6040655,-3472,-1693,-556,-163,-238,-80,319,171,-239
2,6040670,-3471,-1694,-552,-162,-236,-83,319,171,-239
2,6040684,-3469,-1692,-551,-153,-235,-85,319,171,-239
2,6040695,-3469,-1692,-551,-153,-235,-85,319,171,-239
2,6040708,-3469,-1696,-549,-154,-245,-80,318,168,-240
2,6040721,-3471,-1693,-552,-157,-242,-76,318,168,-240
2,6040734,-3471,-1693,-552,-157,-242,-76,318,168,-240
2,6040748,-3470,-1694,-557,-162,-242,-88,318,168,-240
2,6040760,-3470,-1698,-554,-160,-238,-83,318,168,-240
2,6040774,-3470,-1698,-554,-160,-238,-83,318,168,-240
2,6040787,-3469,-1693,-551,-158,-237,-83,318,168,-240
2,6040800,-3469,-1693,-551,-158,-237,-83,318,168,-240
2,6040808,-3469,-1693,-551,-158,-237,-83,318,168,-240
2,6040820,-3471,-1693,-555,-155,-245,-88,312,166,-240
2,6040834,-3471,-1693,-555,-155,-245,-88,312,166,-240
2,6040847,-3471,-1695,-556,-155,-243,-85,312,166,-240
2,6040857,-3471,-1695,-556,-155,-243,-85,312,166,-240
2,6040869,-3473,-1692,-553,-154,-235,-84,312,166,-240
2,6040884,-3471,-1691,-553,-160,-239,-89,312,166,-240
2,6040898,-3471,-1696,-556,-161,-247,-83,312,166,-240
2,6040907,-3471,-1696,-556,-161,-247,-83,312,166,-240
2,6040921,-3470,-1694,-558,-159,-244,-86,312,166,-240
2,6040935,-3470,-1694,-558,-159,-244,-86,312,166,-240
2,6040949,-3468,-1693,-556,-163,-243,-81,310,176,-238
2,6040958,-3472,-1693,-551,-158,-243,-81,310,176,-238
2,6040969,-3472,-1693,-551,-158,-243,-81,310,176,-238
2,6040977,-3472,-1693,-551,-158,-243,-81,310,176,-238
2,6040985,-3470,-1694,-550,-163,-237,-88,310,176,-238
2,6040993,-3470,-1694,-550,-163,-237,-88,310,176,-238
2,6041005,-3472,-1694,-560,-170,-245,-85,310,176,-238
2,6041018,-3472,-1694,-558,-164,-241,-82,310,176,-238
2,6041026,-3472,-1694,-558,-164,-241,-82,310,176,-238
2,6041034,-3472,-1694,-558,-164,-241,-82,310,176,-238
2,6041042,-3472,-1692,-550,-167,-248,-75,310,176,-238
2,6041051,-3472,-1692,-550,-167,-248,-75,310,176,-238
2,6041059,-3469,-1692,-551,-163,-238,-81,310,176,-238
2,6041067,-3469,-1692,-551,-163,-238,-81,310,176,-238
2,6041076,-3469,-1692,-551,-163,-238,-81,310,176,-238
2,6041084,-3467,-1689,-549,-164,-243,-88,317,171,-241
2,6041093,-3467,-1689,-549,-164,-243,-88,317,171,-241
2,6041101,-3469,-1690,-555,-160,-243,-89,317,171,-241
2,6041109,-3469,-1690,-555,-160,-243,-89,317,171,-241
2,6041117,-3469,-1690,-555,-160,-243,-89,317,171,-241
2,6041125,-3469,-1695,-557,-169,-244,-84,317,171,-241
2,6041137,-3469,-1695,-557,-169,-244,-84,317,171,-241
2,6041152,-3471,-1692,-557,-162,-246,-82,317,171,-241
2,6041165,-3472,-1696,-558,-165,-237,-83,317,171,-241
2,6041176,-3472,-1696,-558,-165,-237,-83,317,171,-241
2,6041188,-3470,-1694,-557,-171,-241,-79,317,171,-241
2,6041201,-3470,-1692,-550,-157,-238,-87,310,174,-246
2,6041214,-3470,-1692,-550,-157,-238,-87,310,174,-246
2,6041225,-3470,-1691,-553,-162,-236,-83,310,174,-246
2,6041238,-3470,-1692,-555,-164,-244,-83,310,174,-246
2,6041251,-3470,-1692,-555,-164,-244,-83,310,174,-246
2,6041265,-3472,-1692,-552,-156,-244,-86,310,174,-246
2,6041275,-3472,-1692,-552,-156,-244,-86,310,174,-246
2,6041289,-3470,-1692,-554,-158,-241,-88,310,174,-246
2,6041302,-3469,-1692,-555,-163,-230,-87,310,174,-246
2,6041314,-3469,-1692,-555,-163,-230,-87,310,174,-246
2,6041327,-3471,-1694,-549,-157,-241,-89,309,169,-251
2,6041340,-3467,-1693,-552,-155,-239,-84,309,169,-251
2,6041354,-3467,-1693,-552,-155,-239,-84,309,169,-251
2,6041367,-3470,-1693,-551,-158,-236,-86,309,169,-251
2,6041380,-3471,-1692,-553,-153,-235,-85,309,169,-251
2,6041392,-3471,-1692,-553,-153,-235,-85,309,169,-251
2,6041404,-3472,-1693,-558,-162,-245,-82,309,169,-251
2,6041418,-3471,-1695,-550,-158,-248,-80,309,169,-251
2,6041431,-3471,-1695,-550,-158,-248,-80,309,169,-251
2,6041442,-3473,-1694,-549,-164,-241,-84,310,174,-240
2,6041450,-3473,-1694,-549,-164,-241,-84,310,174,-240
2,6041458,-3471,-1690,-550,-166,-246,-84,310,174,-240
2,6041466,-3471,-1690,-550,-166,-246,-84,310,174,-240
2,6041477,-3471,-1690,-550,-166,-246,-84,310,174,-240
2,6041490,-3474,-1694,-553,-163,-241,-84,310,174,-240
2,6041503,-3470,-1695,-555,-158,-242,-89,310,174,-240
2,6041511,-3470,-1695,-555,-158,-242,-89,310,174,-240
2,6041523,-3470,-1695,-551,-161,-244,-83,310,174,-240
2,6041532,-3470,-1695,-551,-161,-244,-83,310,174,-240
2,6041539,-3471,-1691,-556,-159,-235,-79,310,174,-240
2,6041545,-3471,-1691,-556,-159,-235,-79,310,174,-240
2,6041552,-3471,-1691,-556,-159,-235,-79,310,174,-240
2,6041558,-3471,-1691,-556,-159,-235,-79,310,174,-240
2,6041563,-3470,-1692,-552,-161,-240,-85,317,171,-247
2,6041568,-3470,-1692,-552,-161,-240,-85,317,171,-247
2,6041573,-3470,-1692,-552,-161,-240,-85,317,171,-247
2,6041578,-3470,-1692,-552,-161,-240,-85,317,171,-247
2,6041584,-3469,-1693,-557,-165,-238,-84,317,171,-247
2,6041592,-3469,-1693,-557,-165,-238,-84,317,171,-247
2,6041600,-3472,-1695,-555,-160,-241,-82,317,171,-247
2,6041605,-3472,-1695,-555,-160,-241,-82,317,171,-247
2,6041610,-3472,-1695,-555,-160,-241,-82,317,171,-247
2,6041616,-3472,-1695,-555,-160,-241,-82,317,171,-247
2,6041622,-3470,-1692,-558,-156,-237,-84,317,171,-247
2,6041629,-3470,-1692,-558,-156,-237,-84,317,171,-247
2,6041636,-3470,-1692,-558,-156,-237,-84,317,171,-247
2,6041641,-3474,-1694,-555,-161,-240,-80,317,171,-247
2,6041650,-3474,-1694,-555,-161,-240,-80,317,171,-247
2,6041657,-3474,-1694,-555,-161,-240,-80,317,171,-247
2,6041662,-3472,-1692,-554,-169,-239,-79,317,171,-247
2,6041668,-3472,-1692,-554,-169,-239,-79,317,171,-247
2,6041674,-3472,-1692,-554,-169,-239,-79,317,171,-247
2,6041680,-3471,-1693,-550,-161,-238,-83,309,165,-241
2,6041688,-3471,-1693,-550,-161,-238,-83,309,165,-241
2,6041692,-3471,-1693,-550,-161,-238,-83,309,165,-241
2,6041700,-3470,-1691,-553,-163,-238,-92,309,165,-241
2,6041707,-3470,-1691,-553,-163,-238,-92,309,165,-241
2,6041715,-3470,-1691,-553,-163,-238,-92,309,165,-241
2,6041721,-3472,-1693,-555,-162,-241,-88,309,165,-241
2,6041729,-3472,-1693,-555,-162,-241,-88,309,165,-241
2,6041736,-3472,-1693,-555,-162,-241,-88,309,165,-241
2,6041743,-3472,-1693,-556,-157,-236,-88,309,165,-241
2,6041750,-3472,-1693,-556,-157,-236,-88,309,165,-241
2,6041758,-3472,-1693,-556,-157,-236,-88,309,165,-241
2,6041765,-3473,-1692,-557,-163,-238,-87,309,165,-241
2,6041773,-3473,-1692,-557,-163,-238,-87,309,165,-241
2,6041780,-3472,-1694,-554,-163,-245,-90,309,165,-241
2,6041787,-3472,-1694,-554,-163,-245,-90,309,165,-241
2,6041793,-3472,-1694,-554,-163,-245,-90,309,165,-241
2,6041800,-3471,-1695,-556,-160,-242,-81,309,165,-241
2,6041807,-3471,-1695,-556,-160,-242,-81,309,165,-241
2,6041815,-3471,-1695,-556,-160,-242,-81,309,165,-241
2,6041821,-3468,-1692,-554,-157,-239,-85,307,167,-237
2,6041830,-3468,-1692,-554,-157,-239,-85,307,167,-237
2,6041836,-3468,-1692,-554,-157,-239,-85,307,167,-237
2,6041842,-3469,-1690,-550,-154,-244,-93,307,167,-237
2,6041847,-3469,-1690,-550,-154,-244,-93,307,167,-237
2,6041854,-3469,-1690,-550,-154,-244,-93,307,167,-237
2,6041860,-3470,-1694,-553,-156,-238,-86,307,167,-237
2,6041868,-3470,-1694,-553,-156,-238,-86,307,167,-237
2,6041876,-3470,-1694,-553,-156,-238,-86,307,167,-237
2,6041883,-3474,-1693,-560,-159,-240,-89,307,167,-237
2,6041889,-3474,-1693,-560,-159,-240,-89,307,167,-237
2,6041897,-3474,-1693,-560,-159,-240,-89,307,167,-237
2,6041903,-3473,-1696,-557,-169,-237,-89,307,167,-237
2,6041910,-3473,-1696,-557,-169,-237,-89,307,167,-237
2,6041917,-3473,-1696,-557,-169,-237,-89,307,167,-237
2,6041924,-3472,-1695,-554,-154,-247,-89,307,167,-237
2,6041932,-3472,-1695,-554,-154,-247,-89,307,167,-237
2,6041939,-3471,-1692,-550,-151,-237,-80,311,163,-239
2,6041947,-3471,-1692,-550,-151,-237,-80,311,163,-239
2,6041955,-3471,-1692,-550,-151,-237,-80,311,163,-239
2,6041960,-3472,-1694,-549,-154,-233,-71,311,163,-239
2,6041967,-3472,-1694,-549,-154,-233,-71,311,163,-239
2,6041975,-3472,-1694,-549,-154,-233,-71,311,163,-239
2,6041982,-3471,-1692,-556,-158,-235,-78,311,163,-239
2,6041990,-3471,-1692,-556,-158,-235,-78,311,163,-239
2,6041996,-3471,-1692,-556,-158,-235,-78,311,163,-239
2,6042003,-3470,-1694,-556,-155,-245,-85,311,163,-239
2,6042010,-3470,-1694,-556,-155,-245,-85,311,163,-239
2,6042018,-3470,-1694,-556,-155,-245,-85,311,163,-239
2,6042023,-3473,-1692,-556,-161,-235,-79,311,163,-239
2,6042029,-3473,-1692,-556,-161,-235,-79,311,163,-239
2,6042033,-3473,-1692,-556,-161,-235,-79,311,163,-239
2,6042038,-3473,-1692,-556,-161,-235,-79,311,163,-239
2,6042044,-3473,-1693,-555,-162,-244,-86,311,163,-239
2,6042048,-3473,-1693,-555,-162,-244,-86,311,163,-239
2,6042053,-3473,-1693,-555,-162,-244,-86,311,163,-239
2,6042059,-3470,-1693,-550,-157,-242,-77,314,172,-244
2,6042067,-3470,-1693,-550,-157,-242,-77,314,172,-244
2,6042075,-3470,-1693,-550,-157,-242,-77,314,172,-244
2,6042081,-3474,-1694,-552,-162,-234,-83,314,172,-244
2,6042087,-3474,-1694,-552,-162,-234,-83,314,172,-244
2,6042095,-3474,-1694,-552,-162,-234,-83,314,172,-244
2,6042102,-3474,-1693,-557,-159,-241,-88,314,172,-244
2,6042108,-3474,-1693,-557,-159,-241,-88,314,172,-244
2,6042115,-3474,-1693,-557,-159,-241,-88,314,172,-244
2,6042122,-3471,-1693,-553,-155,-241,-88,314,172,-244
2,6042128,-3471,-1693,-553,-155,-241,-88,314,172,-244
2,6042133,-3471,-1693,-553,-155,-241,-88,314,172,-244
2,6042138,-3474,-1692,-555,-159,-242,-92,314,172,-244
2,6042143,-3474,-1692,-555,-159,-242,-92,314,172,-244
2,6042150,-3474,-1692,-555,-159,-242,-92,314,172,-244
2,6042158,-3474,-1692,-555,-159,-242,-92,314,172,-244
2,6042165,-3468,-1698,-553,-161,-240,-82,314,172,-244
2,6042171,-3468,-1698,-553,-161,-240,-82,314,172,-244
2,6042178,-3468,-1698,-553,-161,-240,-82,314,172,-244
2,6042185,-3470,-1696,-556,-156,-242,-81,311,165,-249
2,6042192,-3470,-1696,-556,-156,-242,-81,311,165,-249
2,6042200,-3472,-1692,-553,-158,-241,-79,311,165,-249
2,6042206,-3472,-1692,-553,-158,-241,-79,311,165,-249
2,6042212,-3472,-1692,-553,-158,-241,-79,311,165,-249
2,6042219,-3474,-1694,-553,-164,-234,-85,311,165,-249
2,6042227,-3474,-1694,-553,-164,-234,-85,311,165,-249
2,6042234,-3474,-1694,-553,-164,-234,-85,311,165,-249
2,6042243,-3473,-1693,-556,-164,-243,-85,311,165,-249
2,6042250,-3473,-1693,-556,-164,-243,-85,311,165,-249
2,6042257,-3473,-1693,-556,-164,-243,-85,311,165,-249
2,6042265,-3474,-1692,-556,-159,-239,-96,311,165,-249
2,6042271,-3474,-1692,-556,-159,-239,-96,311,165,-249
2,6042278,-3474,-1692,-556,-159,-239,-96,311,165,-249
2,6042287,-3472,-1695,-557,-163,-245,-90,311,165,-249
2,6042295,-3472,-1695,-557,-163,-245,-90,311,165,-249
2,6042303,-3473,-1693,-551,-164,-246,-86,315,169,-233
2,6042310,-3473,-1693,-551,-164,-246,-86,315,169,-233
2,6042315,-3473,-1693,-551,-164,-246,-86,315,169,-233
2,6042321,-3475,-1694,-551,-170,-247,-84,315,169,-233
2,6042330,-3475,-1694,-551,-170,-247,-84,315,169,-233
2,6042337,-3475,-1694,-551,-170,-247,-84,315,169,-233
2,6042344,-3472,-1695,-553,-160,-241,-84,315,169,-233
2,6042352,-3472,-1695,-553,-160,-241,-84,315,169,-233
2,6042359,-3471,-1695,-555,-158,-241,-90,315,169,-233
2,6042366,-3471,-1695,-555,-158,-241,-90,315,169,-233
2,6042374,-3471,-1695,-555,-158,-241,-90,315,169,-233
2,6042381,-3473,-1694,-553,-161,-241,-86,315,169,-233
2,6042388,-3473,-1694,-553,-161,-241,-86,315,169,-233
2,6042394,-3473,-1694,-553,-161,-241,-86,315,169,-233
2,6042400,-3470,-1692,-557,-157,-236,-78,315,169,-233
2,6042407,-3470,-1692,-557,-157,-236,-78,315,169,-233
2,6042415,-3470,-1692,-557,-157,-236,-78,315,169,-233
2,6042421,-3470,-1692,-557,-157,-236,-78,315,169,-233
2,6042429,-3470,-1692,-557,-157,-236,-78,315,169,-233
2,6042436,-3470,-1692,-557,-157,-236,-78,315,169,-233
2,6042445,-3472,-1693,-549,-164,-242,-86,318,176,-238
2,6042454,-3472,-1693,-549,-164,-242,-86,318,176,-238
2,6042462,-3471,-1693,-557,-160,-239,-80,318,176,-238
2,6042468,-3471,-1693,-557,-160,-239,-80,318,176,-238
2,6042475,-3471,-1693,-557,-160,-239,-80,318,176,-238
2,6042482,-3474,-1695,-557,-164,-238,-87,318,176,-238
2,6042489,-3474,-1695,-557,-164,-238,-87,318,176,-238
2,6042497,-3474,-1695,-557,-164,-238,-87,318,176,-238
2,6042505,-3472,-1696,-556,-160,-236,-84,318,176,-238
2,6042512,-3472,-1696,-556,-160,-236,-84,318,176,-238
2,6042520,-3472,-1695,-554,-154,-244,-83,318,176,-238
2,6042527,-3472,-1695,-554,-154,-244,-83,318,176,-238
2,6042534,-3472,-1695,-554,-154,-244,-83,318,176,-238
2,6042547,-3474,-1693,-556,-158,-240,-82,318,176,-238
2,6042555,-3474,-1693,-556,-158,-240,-82,318,176,-238
2,6042563,-3472,-1695,-548,-164,-238,-85,313,171,-241
2,6042571,-3472,-1695,-548,-164,-238,-85,313,171,-241
2,6042580,-3471,-1694,-555,-160,-237,-86,313,171,-241
2,6042594,-3471,-1694,-555,-160,-237,-86,313,171,-241
2,6042607,-3468,-1691,-558,-158,-237,-94,313,171,-241
2,6042620,-3469,-1694,-555,-160,-237,-88,313,171,-241
2,6042632,-3469,-1694,-555,-160,-237,-88,313,171,-241
2,6042645,-3471,-1694,-556,-169,-236,-78,313,171,-241
2,6042659,-3472,-1692,-556,-168,-236,-84,313,171,-241
2,6042673,-3472,-1692,-556,-168,-236,-84,313,171,-241
2,6042683,-3470,-1692,-553,-167,-237,-84,314,168,-238
2,6042695,-3470,-1692,-553,-167,-237,-84,314,168,-238
2,6042707,-3472,-1695,-553,-163,-235,-91,314,168,-238
2,6042721,-3469,-1694,-553,-160,-248,-82,314,168,-238
2,6042733,-3469,-1694,-553,-160,-248,-82,314,168,-238
2,6042743,-3470,-1692,-555,-164,-243,-87,314,168,-238
2,6042752,-3470,-1692,-555,-164,-243,-87,314,168,-238
2,6042760,-3465,-1693,-554,-167,-249,-84,314,168,-238
2,6042768,-3465,-1693,-554,-167,-249,-84,314,168,-238
2,6042778,-3465,-1693,-554,-167,-249,-84,314,168,-238
2,6042788,-3468,-1690,-557,-159,-243,-87,314,168,-238
2,6042799,-3468,-1690,-557,-159,-243,-87,314,168,-238
2,6042812,-3472,-1692,-548,-153,-241,-93,313,171,-243
2,6042825,-3472,-1692,-549,-155,-240,-87,313,171,-243
2,6042834,-3472,-1692,-549,-155,-240,-87,313,171,-243
2,6042847,-3471,-1692,-554,-163,-240,-80,313,171,-243
2,6042861,-3471,-1688,-554,-162,-233,-81,313,171,-243
2,6042875,-3471,-1688,-554,-162,-233,-81,313,171,-243
2,6042885,-3473,-1696,-556,-162,-236,-81,313,171,-243
2,6042897,-3473,-1696,-556,-162,-236,-81,313,171,-243
2,6042909,-3467,-1695,-554,-167,-242,-85,313,171,-243
2,6042923,-3470,-1695,-551,-167,-246,-87,309,171,-247
2,6042933,-3470,-1695,-551,-167,-246,-87,309,171,-247
2,6042947,-3471,-1692,-550,-156,-244,-89,309,171,-247
2,6042959,-3471,-1697,-549,-159,-230,-88,309,171,-247
2,6042972,-3471,-1697,-549,-159,-230,-88,309,171,-247
2,6042985,-3477,-1695,-558,-162,-229,-85,309,171,-247
2,6042998,-3477,-1695,-558,-162,-229,-85,309,171,-247
2,6043011,-3474,-1695,-556,-167,-237,-83,309,171,-247
2,6043022,-3470,-1694,-555,-171,-238,-80,309,171,-247
2,6043030,-3470,-1694,-555,-171,-238,-80,309,171,-247
2,6043038,-3470,-1694,-555,-171,-238,-80,309,171,-247
2,6043045,-3472,-1691,-553,-162,-243,-78,309,171,-247
2,6043054,-3472,-1691,-553,-162,-243,-78,309,171,-247
2,6043062,-3472,-1694,-551,-159,-237,-84,321,171,-241
2,6043070,-3472,-1694,-551,-159,-237,-84,321,171,-241
2,6043078,-3472,-1694,-551,-159,-237,-84,321,171,-241
2,6043086,-3472,-1695,-552,-168,-241,-86,321,171,-241
2,6043095,-3472,-1695,-552,-168,-241,-86,321,171,-241
2,6043104,-3473,-1693,-556,-161,-236,-90,321,171,-241
2,6043111,-3473,-1693,-556,-161,-236,-90,321,171,-241
2,6043120,-3471,-1691,-556,-164,-238,-84,321,171,-241
2,6043132,-3471,-1691,-556,-164,-238,-84,321,171,-241
2,6043145,-3470,-1694,-554,-166,-237,-84,321,171,-241
2,6043159,-3470,-1694,-554,-166,-237,-84,321,171,-241
2,6043169,-3471,-1692,-552,-159,-237,-76,321,171,-241
2,6043182,-3470,-1692,-545,-162,-236,-86,316,164,-242
2,6043194,-3470,-1692,-545,-162,-236,-86,316,164,-242
2,6043207,-3474,-1692,-551,-159,-239,-86,316,164,-242
2,6043218,-3474,-1692,-551,-159,-239,-86,316,164,-242
2,6043232,-3469,-1694,-558,-163,-231,-81,316,164,-242
2,6043246,-3471,-1692,-559,-154,-233,-80,316,164,-242
2,6043259,-3471,-1692,-559,-154,-233,-80,316,164,-242
2,6043270,-3470,-1694,-555,-160,-241,-80,316,164,-242
2,6043283,-3470,-1691,-557,-164,-244,-74,316,164,-242
2,6043297,-3470,-1691,-557,-164,-244,-74,316,164,-242
2,6043311,-3470,-1692,-550,-160,-241,-88,324,164,-240
2,6043320,-3472,-1692,-552,-165,-235,-89,324,164,-240
2,6043330,-3472,-1692,-552,-165,-235,-89,324,164,-240
2,6043339,-3472,-1692,-552,-165,-235,-89,324,164,-240
2,6043346,-3468,-1691,-554,-168,-240,-92,324,164,-240
2,6043355,-3468,-1691,-554,-168,-240,-92,324,164,-240
2,6043363,-3472,-1693,-553,-167,-241,-90,324,164,-240
2,6043375,-3472,-1693,-553,-167,-241,-90,324,164,-240
2,6043385,-3470,-1691,-555,-171,-236,-89,324,164,-240
2,6043399,-3470,-1691,-555,-171,-236,-89,324,164,-240
2,6043412,-3471,-1691,-551,-171,-234,-88,324,164,-240
2,6043425,-3468,-1692,-546,-163,-242,-90,321,161,-237
2,6043437,-3468,-1692,-546,-163,-242,-90,321,161,-237
2,6043447,-3473,-1692,-554,-166,-248,-83,321,161,-237
2,6043459,-3473,-1692,-554,-166,-248,-83,321,161,-237
2,6043471,-3475,-1693,-554,-164,-241,-90,321,161,-237
2,6043485,-3471,-1693,-555,-165,-240,-89,321,161,-237
2,6043497,-3471,-1693,-555,-165,-240,-89,321,161,-237
2,6043508,-3469,-1691,-558,-161,-245,-90,321,161,-237
2,6043521,-3472,-1692,-559,-161,-248,-81,321,161,-237
2,6043534,-3472,-1692,-559,-161,-248,-81,321,161,-237
2,6043545,-3474,-1692,-555,-163,-238,-87,316,168,-250
2,6043552,-3474,-1692,-555,-163,-238,-87,316,168,-250
2,6043556,-3474,-1692,-555,-163,-238,-87,316,168,-250
2,6043561,-3470,-1695,-556,-163,-242,-87,316,168,-250
2,6043568,-3470,-1695,-556,-163,-242,-87,316,168,-250
2,6043572,-3470,-1695,-556,-163,-242,-87,316,168,-250
2,6043577,-3470,-1695,-556,-163,-242,-87,316,168,-250
2,6043583,-3470,-1695,-555,-160,-244,-84,316,168,-250
2,6043589,-3470,-1695,-555,-160,-244,-84,316,168,-250
2,6043595,-3470,-1695,-555,-160,-244,-84,316,168,-250
2,6043601,-3472,-1693,-554,-161,-244,-82,316,168,-250
2,6043608,-3472,-1693,-554,-161,-244,-82,316,168,-250
2,6043613,-3472,-1693,-554,-161,-244,-82,316,168,-250
2,6043619,-3472,-1693,-554,-161,-244,-82,316,168,-250
2,6043624,-3470,-1694,-558,-170,-240,-82,316,168,-250
2,6043630,-3470,-1694,-558,-170,-240,-82,316,168,-250
2,6043636,-3470,-1694,-558,-170,-240,-82,316,168,-250
2,6043642,-3469,-1691,-553,-162,-248,-80,316,168,-250
2,6043648,-3469,-1691,-553,-162,-248,-80,316,168,-250
2,6043653,-3469,-1691,-553,-162,-248,-80,316,168,-250
2,6043659,-3469,-1691,-553,-162,-248,-80,316,168,-250
2,6043666,-3472,-1695,-555,-165,-249,-83,316,168,-250
2,6043672,-3472,-1695,-555,-165,-249,-83,316,168,-250
2,6043678,-3472,-1695,-555,-165,-249,-83,316,168,-250
2,6043684,-3468,-1694,-551,-165,-247,-88,312,162,-236
2,6043691,-3468,-1694,-551,-165,-247,-88,312,162,-236
2,6043697,-3468,-1694,-551,-165,-247,-88,312,162,-236
2,6043705,-3468,-1694,-551,-165,-247,-88,312,162,-236
2,6043711,-3468,-1694,-551,-165,-247,-88,312,162,-236
2,6043717,-3468,-1694,-551,-165,-247,-88,312,162,-236
2,6043722,-3474,-1694,-555,-162,-242,-79,312,162,-236
2,6043729,-3474,-1694,-555,-162,-242,-79,312,162,-236
2,6043737,-3474,-1694,-555,-162,-242,-79,312,162,-236
2,6043744,-3471,-1696,-557,-163,-239,-86,312,162,-236
2,6043751,-3471,-1696,-557,-163,-239,-86,312,162,-236
2,6043758,-3471,-1696,-557,-163,-239,-86,312,162,-236
2,6043765,-3470,-1692,-557,-163,-241,-83,312,162,-236
2,6043770,-3470,-1692,-557,-163,-241,-83,312,162,-236
2,6043779,-3470,-1692,-557,-163,-241,-83,312,162,-236
2,6043787,-3471,-1693,-557,-165,-241,-84,312,162,-236
2,6043793,-3471,-1693,-557,-165,-241,-84,312,162,-236
2,6043799,-3471,-1693,-557,-165,-241,-84,312,162,-236
2,6043804,-3472,-1694,-561,-158,-237,-83,313,167,-235
2,6043811,-3472,-1694,-561,-158,-237,-83,313,167,-235
2,6043820,-3472,-1694,-561,-158,-237,-83,313,167,-235
2,6043828,-3471,-1695,-559,-159,-233,-82,313,167,-235
2,6043836,-3471,-1695,-559,-159,-233,-82,313,167,-235
2,6043842,-3472,-1694,-555,-160,-248,-85,313,167,-235
2,6043850,-3472,-1694,-555,-160,-248,-85,313,167,-235
2,6043856,-3472,-1694,-555,-160,-248,-85,313,167,-235
2,6043862,-3471,-1693,-553,-162,-237,-85,313,167,-235
2,6043867,-3471,-1693,-553,-162,-237,-85,313,167,-235
2,6043872,-3471,-1693,-553,-162,-237,-85,313,167,-235
2,6043880,-3471,-1693,-553,-162,-237,-85,313,167,-235
2,6043888,-3470,-1693,-554,-166,-237,-83,313,167,-235
2,6043896,-3470,-1693,-554,-166,-237,-83,313,167,-235
2,6043904,-3474,-1695,-554,-157,-239,-85,313,167,-235
2,6043911,-3474,-1695,-554,-157,-239,-85,313,167,-235
2,6043917,-3474,-1695,-554,-157,-239,-85,313,167,-235
2,6043924,-3474,-1691,-553,-159,-245,-89,313,165,-241
2,6043931,-3474,-1691,-553,-159,-245,-89,313,165,-241
2,6043937,-3474,-1691,-553,-159,-245,-89,313,165,-241
2,6043945,-3471,-1694,-549,-160,-239,-84,313,165,-241
2,6043952,-3471,-1694,-549,-160,-239,-84,313,165,-241
2,6043960,-3471,-1694,-549,-160,-239,-84,313,165,-241
2,6043966,-3471,-1692,-549,-154,-244,-90,313,165,-241
2,6043974,-3471,-1692,-549,-154,-244,-90,313,165,-241
2,6043980,-3471,-1692,-549,-154,-244,-90,313,165,-241
2,6043986,-3468,-1691,-552,-158,-248,-86,313,165,-241
2,6043995,-3468,-1691,-552,-158,-248,-86,313,165,-241
2,6044002,-3474,-1694,-555,-162,-245,-79,313,165,-241
2,6044009,-3474,-1694,-555,-162,-245,-79,313,165,-241
2,6044016,-3474,-1694,-555,-162,-245,-79,313,165,-241
2,6044021,-3471,-1693,-552,-161,-243,-80,313,165,-241
2,6044026,-3471,-1693,-552,-161,-243,-80,313,165,-241
2,6044032,-3471,-1693,-552,-161,-243,-80,313,165,-241
2,6044037,-3471,-1693,-552,-161,-243,-80,313,165,-241
2,6044043,-3474,-1693,-552,-162,-242,-78,319,165,-243
2,6044048,-3474,-1693,-552,-162,-242,-78,319,165,-243
2,6044053,-3474,-1693,-552,-162,-242,-78,319,165,-243
2,6044058,-3474,-1693,-552,-162,-242,-78,319,165,-243
2,6044065,-3469,-1694,-553,-166,-244,-78,319,165,-243
2,6044071,-3469,-1694,-553,-166,-244,-78,319,165,-243
2,6044079,-3469,-1694,-553,-166,-244,-78,319,165,-243
2,6044087,-3472,-1695,-553,-170,-239,-77,319,165,-243
2,6044095,-3472,-1695,-553,-170,-239,-77,319,165,-243
2,6044102,-3473,-1692,-554,-166,-240,-80,319,165,-243
2,6044108,-3473,-1692,-554,-166,-240,-80,319,165,-243
2,6044116,-3473,-1692,-554,-166,-240,-80,319,165,-243
2,6044125,-3472,-1690,-557,-161,-241,-85,319,165,-243
2,6044130,-3472,-1690,-557,-161,-241,-85,319,165,-243
2,6044136,-3472,-1690,-557,-161,-241,-85,319,165,-243
2,6044144,-3472,-1692,-555,-160,-239,-82,319,165,-243
2,6044151,-3472,-1692,-555,-160,-239,-82,319,165,-243
2,6044158,-3472,-1692,-555,-160,-239,-82,319,165,-243
2,6044166,-3472,-1692,-555,-169,-241,-74,317,167,-249
2,6044174,-3472,-1692,-555,-169,-241,-74,317,167,-249
2,6044180,-3472,-1692,-555,-169,-241,-74,317,167,-249
2,6044187,-3472,-1693,-555,-167,-237,-83,317,167,-249
2,6044194,-3472,-1693,-555,-167,-237,-83,317,167,-249
2,6044200,-3472,-1693,-555,-167,-237,-83,317,167,-249
2,6044206,-3473,-1693,-555,-161,-241,-76,317,167,-249
2,6044214,-3473,-1693,-555,-161,-241,-76,317,167,-249
2,6044221,-3471,-1694,-550,-158,-243,-81,317,167,-249
2,6044228,-3471,-1694,-550,-158,-243,-81,317,167,-249
2,6044235,-3471,-1694,-550,-158,-243,-81,317,167,-249
2,6044242,-3472,-1692,-554,-163,-249,-89,317,167,-249
2,6044249,-3472,-1692,-554,-163,-249,-89,317,167,-249
2,6044256,-3472,-1692,-554,-163,-249,-89,317,167,-249
2,6044263,-3469,-1693,-553,-159,-242,-88,317,167,-249
2,6044270,-3469,-1693,-553,-159,-242,-88,317,167,-249
2,6044275,-3469,-1693,-553,-159,-242,-88,317,167,-249
2,6044282,-3470,-1696,-558,-163,-230,-81,317,167,-249
2,6044289,-3470,-1696,-558,-163,-230,-81,317,167,-249
2,6044297,-3470,-1696,-558,-163,-230,-81,317,167,-249
2,6044304,-3473,-1694,-552,-165,-240,-81,317,167,-249
2,6044312,-3473,-1694,-552,-165,-240,-81,317,167,-249
2,6044319,-3473,-1694,-552,-165,-240,-81,317,167,-249
2,6044324,-3468,-1691,-553,-165,-236,-83,317,167,-249
2,6044332,-3468,-1691,-553,-165,-236,-83,317,167,-249
2,6044337,-3468,-1691,-553,-165,-236,-83,317,167,-249
2,6044344,-3469,-1693,-552,-168,-238,-91,317,167,-249
2,6044351,-3469,-1693,-552,-168,-238,-91,317,167,-249
2,6044356,-3469,-1693,-552,-168,-238,-91,317,167,-249
2,6044364,-3469,-1692,-556,-166,-241,-86,317,167,-249
2,6044371,-3469,-1692,-556,-166,-241,-86,317,167,-249
2,6044380,-3469,-1692,-556,-166,-241,-86,317,167,-249
2,6044387,-3471,-1694,-553,-155,-243,-83,317,167,-249
2,6044392,-3471,-1694,-553,-155,-243,-83,317,167,-249
2,6044399,-3471,-1694,-553,-155,-243,-83,317,167,-249
2,6044406,-3473,-1692,-556,-160,-235,-71,317,167,-249
2,6044413,-3473,-1692,-556,-160,-235,-71,317,167,-249
2,6044421,-3472,-1692,-550,-163,-240,-77,317,167,-249
2,6044426,-3472,-1692,-550,-163,-240,-77,319,167,-251
2,6044434,-3472,-1692,-550,-163,-240,-77,319,167,-251
2,6044440,-3472,-1692,-550,-163,-240,-77,319,167,-251
2,6044448,-3467,-1694,-552,-162,-237,-80,319,167,-251
2,6044455,-3467,-1694,-552,-162,-237,-80,319,167,-251
2,6044463,-3469,-1692,-553,-165,-241,-79,319,167,-251
2,6044469,-3469,-1692,-553,-165,-241,-79,319,167,-251
2,6044474,-3469,-1692,-553,-165,-241,-79,319,167,-251
2,6044481,-3468,-1692,-552,-163,-234,-80,319,167,-251
2,6044489,-3468,-1692,-552,-163,-234,-80,319,167,-251
2,6044496,-3468,-1692,-552,-163,-234,-80,319,167,-251
2,6044504,-3468,-1692,-552,-163,-234,-80,319,167,-251
2,6044511,-3468,-1692,-552,-163,-234,-80,319,167,-251
2,6044518,-3468,-1692,-552,-163,-234,-80,319,167,-251
2,6044524,-3468,-1692,-552,-163,-234,-80,319,167,-251
2,6044531,-3468,-1692,-552,-163,-234,-80,319,167,-251
2,6044538,-3468,-1692,-552,-163,-234,-80,319,167,-251
2,6044546,-3470,-1691,-553,-156,-236,-81,320,172,-238
2,6044555,-3470,-1691,-553,-156,-236,-81,320,172,-238
2,6044562,-3472,-1693,-551,-163,-237,-83,320,172,-238
2,6044571,-3472,-1693,-551,-163,-237,-83,320,172,-238
2,6044581,-3470,-1695,-555,-165,-232,-87,320,172,-238
2,6044591,-3470,-1695,-555,-165,-232,-87,320,172,-238
2,6044600,-3470,-1695,-555,-165,-232,-87,320,172,-238
2,6044609,-3470,-1693,-557,-164,-236,-84,320,172,-238
2,6044618,-3470,-1693,-557,-164,-236,-84,320,172,-238
2,6044628,-3472,-1692,-554,-159,-236,-84,320,172,-238
2,6044637,-3472,-1692,-554,-159,-236,-84,320,172,-238
2,6044646,-3471,-1693,-554,-167,-242,-82,320,172,-238
2,6044659,-3471,-1693,-554,-167,-242,-82,320,172,-238
2,6044673,-3470,-1694,-552,-165,-242,-82,314,160,-240
2,6044686,-3471,-1694,-551,-161,-249,-81,314,160,-240
2,6044698,-3471,-1694,-551,-161,-249,-81,314,160,-240
2,6044710,-3471,-1693,-554,-164,-240,-78,314,160,-240
2,6044723,-3473,-1694,-552,-157,-241,-86,314,160,-240
2,6044738,-3473,-1694,-552,-157,-241,-86,314,160,-240
2,6044751,-3470,-1694,-554,-161,-234,-83,314,160,-240
2,6044761,-3470,-1694,-554,-161,-234,-83,314,160,-240
2,6044774,-3471,-1693,-556,-159,-246,-82,314,160,-240
2,6044786,-3471,-1691,-554,-163,-243,-85,318,172,-250
2,6044800,-3471,-1691,-554,-163,-243,-85,318,172,-250
2,6044813,-3472,-1692,-554,-162,-240,-82,318,172,-250
2,6044826,-3468,-1692,-558,-160,-243,-90,318,172,-250
2,6044836,-3468,-1692,-558,-160,-243,-90,318,172,-250
2,6044849,-3468,-1692,-554,-162,-245,-89,318,172,-250
2,6044862,-3472,-1694,-558,-163,-240,-79,318,172,-250
2,6044875,-3472,-1694,-558,-163,-240,-79,318,172,-250
2,6044888,-3470,-1692,-554,-160,-242,-89,318,172,-250
2,6044901,-3470,-1693,-555,-153,-236,-81,315,161,-245
2,6044913,-3470,-1693,-555,-153,-236,-81,315,161,-245
2,6044926,-3472,-1696,-552,-158,-243,-81,315,161,-245
2,6044940,-3472,-1696,-552,-158,-243,-81,315,161,-245
2,6044953,-3472,-1694,-555,-158,-241,-88,315,161,-245
2,6044966,-3469,-1693,-553,-162,-244,-82,315,161,-245
2,6044978,-3469,-1693,-553,-162,-244,-82,315,161,-245
2,6044990,-3472,-1694,-556,-165,-237,-88,315,161,-245
2,6045000,-3472,-1694,-556,-165,-237,-88,315,161,-245
2,6045011,-3471,-1694,-552,-159,-239,-86,315,161,-245
2,6045023,-3473,-1694,-560,-167,-242,-85,315,161,-245
2,6045031,-3473,-1694,-560,-167,-242,-85,315,161,-245
2,6045039,-3473,-1694,-560,-167,-242,-85,315,161,-245
2,6045047,-3474,-1692,-554,-160,-234,-80,312,160,-244
2,6045056,-3474,-1692,-554,-160,-234,-80,312,160,-244
2,6045064,-3471,-1695,-555,-156,-237,-83,312,160,-244
2,6045072,-3471,-1695,-555,-156,-237,-83,312,160,-244
2,6045080,-3471,-1695,-555,-156,-237,-83,312,160,-244
2,6045088,-3476,-1695,-556,-152,-239,-91,312,160,-244
2,6045096,-3476,-1695,-556,-152,-239,-91,312,160,-244
2,6045105,-3472,-1695,-559,-158,-236,-91,312,160,-244
2,6045113,-3472,-1695,-559,-158,-236,-91,312,160,-244
2,6045121,-3472,-1695,-559,-158,-236,-91,312,160,-244
2,6045133,-3470,-1691,-554,-161,-246,-83,312,160,-244
2,6045146,-3472,-1693,-556,-153,-242,-81,312,160,-244
2,6045159,-3472,-1693,-556,-153,-242,-81,312,160,-244
2,6045173,-3468,-1692,-553,-159,-244,-83,314,170,-240
2,6045187,-3472,-1694,-554,-153,-234,-90,314,170,-240
2,6045196,-3472,-1694,-554,-153,-234,-90,314,170,-240
2,6045208,-3474,-1693,-552,-164,-238,-91,314,170,-240
2,6045220,-3474,-1693,-552,-164,-238,-91,314,170,-240
2,6045234,-3471,-1695,-556,-162,-245,-88,314,170,-240
2,6045245,-3470,-1692,-554,-163,-239,-88,314,170,-240
2,6045259,-3470,-1692,-554,-163,-239,-88,314,170,-240
2,6045272,-3472,-1692,-554,-164,-235,-87,314,170,-240
2,6045280,-3472,-1692,-554,-164,-235,-87,314,170,-240
2,6045288,-3472,-1693,-550,-164,-246,-84,311,165,-241
2,6045296,-3472,-1693,-550,-164,-246,-84,311,165,-241
2,6045304,-3471,-1695,-550,-159,-234,-80,311,165,-241
2,6045314,-3471,-1695,-550,-159,-234,-80,311,165,-241
2,6045326,-3470,-1693,-555,-163,-242,-79,311,165,-241
2,6045342,-3473,-1695,-551,-162,-247,-87,311,165,-241
2,6045357,-3473,-1695,-551,-162,-247,-87,311,165,-241
2,6045365,-3471,-1694,-557,-161,-250,-90,311,165,-241
2,6045377,-3471,-1694,-557,-161,-250,-90,311,165,-241
2,6045392,-3471,-1692,-555,-164,-240,-87,311,165,-241
2,6045404,-3470,-1694,-549,-161,-230,-86,315,173,-247
2,6045414,-3470,-1694,-549,-161,-230,-86,315,173,-247
2,6045427,-3472,-1693,-555,-151,-242,-84,315,173,-247
2,6045441,-3472,-1693,-555,-151,-242,-84,315,173,-247
2,6045454,-3471,-1694,-551,-158,-244,-90,315,173,-247
2,6045464,-3473,-1695,-556,-158,-242,-86,315,173,-247
2,6045475,-3473,-1695,-556,-158,-242,-86,315,173,-247
2,6045489,-3471,-1695,-558,-169,-243,-81,315,173,-247
2,6045502,-3472,-1692,-552,-163,-238,-89,315,173,-247
2,6045515,-3472,-1692,-552,-163,-238,-89,315,173,-247
2,6045529,-3469,-1694,-556,-158,-241,-84,314,160,-230
2,6045541,-3469,-1694,-556,-158,-241,-84,314,160,-230
2,6045552,-3470,-1693,-549,-162,-248,-80,314,160,-230
2,6045558,-3470,-1693,-549,-162,-248,-80,314,160,-230
2,6045563,-3470,-1693,-554,-159,-237,-83,314,160,-230
2,6045569,-3470,-1693,-554,-159,-237,-83,314,160,-230
2,6045574,-3470,-1693,-554,-159,-237,-83,314,160,-230
2,6045579,-3470,-1693,-554,-159,-237,-83,314,160,-230
2,6045585,-3467,-1692,-551,-158,-238,-88,314,160,-230
2,6045592,-3467,-1692,-551,-158,-238,-88,314,160,-230
2,6045600,-3467,-1692,-551,-158,-238,-88,314,160,-230
2,6045606,-3471,-1694,-553,-158,-242,-86,314,160,-230
2,6045615,-3471,-1694,-553,-158,-242,-86,314,160,-230
2,6045622,-3473,-1693,-557,-160,-245,-88,314,160,-230
2,6045628,-3473,-1693,-557,-160,-245,-88,314,160,-230
2,6045637,-3473,-1693,-557,-160,-245,-88,314,160,-230
2,6045645,-3471,-1692,-556,-164,-245,-85,314,160,-230
2,6045651,-3471,-1692,-556,-164,-245,-85,314,160,-230
2,6045659,-3471,-1692,-556,-164,-245,-85,314,160,-230
2,6045664,-3472,-1694,-552,-163,-245,-85,313,167,-241
2,6045671,-3472,-1694,-552,-163,-245,-85,313,167,-241
2,6045678,-3472,-1694,-552,-163,-245,-85,313,167,-241
2,6045686,-3472,-1692,-557,-160,-250,-88,313,167,-241
2,6045692,-3472,-1692,-557,-160,-250,-88,313,167,-241
2,6045701,-3472,-1692,-557,-160,-250,-88,313,167,-241
2,6045707,-3475,-1692,-554,-162,-250,-81,313,167,-241
2,6045715,-3475,-1692,-554,-162,-250,-81,313,167,-241
2,6045721,-3475,-1692,-554,-162,-250,-81,313,167,-241
2,6045728,-3467,-1694,-556,-154,-244,-86,313,167,-241
2,6045734,-3467,-1694,-556,-154,-244,-86,313,167,-241
2,6045742,-3467,-1694,-556,-154,-244,-86,313,167,-241
2,6045747,-3471,-1692,-557,-160,-243,-88,313,167,-241
2,6045755,-3471,-1692,-557,-160,-243,-88,313,167,-241
2,6045763,-3467,-1693,-555,-159,-245,-90,313,167,-241
2,6045770,-3467,-1693,-555,-159,-245,-90,313,167,-241
2,6045776,-3467,-1693,-555,-159,-245,-90,313,167,-241
2,6045785,-3471,-1692,-552,-164,-239,-82,313,167,-247
2,6045790,-3471,-1692,-552,-164,-239,-82,313,167,-247
2,6045797,-3471,-1692,-552,-164,-239,-82,313,167,-247
2,6045805,-3471,-1691,-553,-162,-239,-89,313,167,-247
2,6045812,-3471,-1691,-553,-162,-239,-89,313,167,-247
2,6045818,-3471,-1691,-553,-162,-239,-89,313,167,-247
2,6045825,-3471,-1692,-552,-164,-245,-86,313,167,-247
2,6045829,-3471,-1692,-552,-164,-245,-86,313,167,-247
2,6045836,-3471,-1692,-552,-164,-245,-86,313,167,-247
2,6045842,-3471,-1692,-552,-164,-245,-86,313,167,-247
2,6045847,-3473,-1690,-553,-164,-242,-80,313,167,-247
2,6045855,-3473,-1690,-553,-164,-242,-80,313,167,-247
2,6045863,-3474,-1691,-557,-155,-241,-76,313,167,-247
2,6045871,-3474,-1691,-557,-155,-241,-76,313,167,-247
2,6045877,-3474,-1691,-557,-155,-241,-76,313,167,-247
2,6045883,-3470,-1693,-553,-159,-241,-81,313,167,-247
2,6045890,-3470,-1693,-553,-159,-241,-81,313,167,-247
2,6045896,-3470,-1693,-553,-159,-241,-81,313,167,-247
2,6045904,-3472,-1691,-554,-166,-243,-85,312,172,-240
2,6045911,-3472,-1691,-554,-166,-243,-85,312,172,-240
2,6045916,-3472,-1691,-554,-166,-243,-85,312,172,-240
2,6045923,-3473,-1691,-557,-159,-241,-79,312,172,-240
2,6045929,-3473,-1691,-557,-159,-241,-79,312,172,-240
2,6045938,-3473,-1691,-557,-159,-241,-79,312,172,-240
2,6045945,-3473,-1693,-554,-161,-234,-77,312,172,-240
2,6045953,-3473,-1693,-554,-161,-234,-77,312,172,-240
2,6045960,-3473,-1693,-554,-161,-234,-77,312,172,-240
2,6045968,-3472,-1694,-555,-166,-231,-79,312,172,-240
2,6045974,-3472,-1694,-555,-166,-231,-79,312,172,-240
2,6045981,-3472,-1694,-555,-166,-231,-79,312,172,-240
2,6045988,-3470,-1696,-557,-162,-242,-82,312,172,-240
2,6045995,-3470,-1696,-557,-162,-242,-82,312,172,-240
2,6046001,-3470,-1696,-557,-162,-242,-82,312,172,-240
2,6046008,-3471,-1691,-554,-159,-240,-79,312,172,-240
2,6046015,-3471,-1691,-554,-159,-240,-79,312,172,-240
2,6046021,-3471,-1691,-554,-159,-240,-79,312,172,-240
2,6046026,-3469,-1693,-555,-161,-241,-86,317,169,-235
2,6046031,-3469,-1693,-555,-161,-241,-86,317,169,-235
2,6046036,-3469,-1693,-555,-161,-241,-86,317,169,-235
2,6046042,-3469,-1693,-555,-161,-241,-86,317,169,-235
2,6046047,-3472,-1695,-555,-159,-234,-86,317,169,-235
2,6046052,-3472,-1695,-555,-159,-234,-86,317,169,-235
2,6046057,-3472,-1695,-555,-159,-234,-86,317,169,-235
2,6046064,-3469,-1694,-547,-168,-231,-87,317,169,-235
2,6046073,-3469,-1694,-547,-168,-231,-87,317,169,-235
2,6046081,-3469,-1694,-547,-168,-231,-87,317,169,-235
2,6046087,-3470,-1692,-553,-168,-235,-83,317,169,-235
2,6046095,-3470,-1692,-553,-168,-235,-83,317,169,-235
2,6046101,-3470,-1692,-553,-168,-235,-83,317,169,-235
2,6046108,-3473,-1694,-552,-160,-240,-84,317,169,-235
2,6046115,-3473,-1694,-552,-160,-240,-84,317,169,-235
2,6046124,-3472,-1692,-552,-159,-241,-85,317,169,-235
2,6046131,-3472,-1692,-552,-159,-241,-85,317,169,-235
2,6046137,-3472,-1692,-552,-159,-241,-85,317,169,-235
2,6046143,-3471,-1691,-552,-157,-233,-86,310,172,-240
2,6046149,-3471,-1691,-552,-157,-233,-86,310,172,-240
2,6046156,-3471,-1691,-552,-157,-233,-86,310,172,-240
2,6046164,-3474,-1694,-556,-164,-240,-88,310,172,-240
2,6046173,-3474,-1694,-556,-164,-240,-88,310,172,-240
2,6046180,-3474,-1694,-556,-164,-240,-88,310,172,-240
2,6046185,-3471,-1693,-555,-162,-234,-80,310,172,-240
2,6046191,-3471,-1693,-555,-162,-234,-80,310,172,-240
2,6046198,-3471,-1693,-555,-162,-234,-80,310,172,-240
2,6046205,-3471,-1695,-558,-161,-238,-85,310,172,-240
2,6046213,-3471,-1695,-558,-161,-238,-85,310,172,-240
2,6046220,-3471,-1695,-558,-161,-238,-85,310,172,-240
2,6046227,-3468,-1694,-553,-164,-236,-77,310,172,-240
2,6046233,-3468,-1694,-553,-164,-236,-77,310,172,-240
2,6046240,-3468,-1694,-553,-164,-236,-77,310,172,-240
2,6046247,-3470,-1694,-556,-158,-242,-81,310,172,-240
2,6046255,-3470,-1694,-556,-158,-242,-81,310,172,-240
2,6046262,-3470,-1694,-556,-158,-242,-81,310,172,-240
2,6046270,-3473,-1695,-559,-160,-238,-84,310,172,-240
2,6046277,-3473,-1695,-559,-160,-238,-84,310,172,-240
2,6046283,-3471,-1694,-551,-155,-237,-85,316,158,-244
2,6046290,-3471,-1694,-551,-155,-237,-85,316,158,-244
2,6046299,-3471,-1694,-551,-155,-237,-85,316,158,-244
2,6046306,-3470,-1694,-552,-157,-241,-88,316,158,-244
2,6046313,-3470,-1694,-552,-157,-241,-88,316,158,-244
2,6046320,-3470,-1694,-552,-157,-241,-88,316,158,-244
2,6046327,-3470,-1695,-554,-161,-247,-91,316,158,-244
2,6046333,-3470,-1695,-554,-161,-247,-91,316,158,-244
2,6046341,-3470,-1695,-554,-161,-247,-91,316,158,-244
2,6046348,-3471,-1693,-553,-160,-247,-85,316,158,-244
2,6046354,-3471,-1693,-553,-160,-247,-85,316,158,-244
2,6046361,-3471,-1693,-553,-160,-247,-85,316,158,-244
2,6046366,-3472,-1693,-550,-163,-241,-91,316,158,-244
2,6046372,-3472,-1693,-550,-163,-241,-91,316,158,-244
2,6046377,-3472,-1693,-550,-163,-241,-91,316,158,-244
2,6046383,-3469,-1694,-556,-162,-243,-91,316,158,-244
2,6046389,-3469,-1694,-556,-162,-243,-91,316,158,-244
2,6046397,-3469,-1694,-556,-162,-243,-91,316,158,-244
2,6046402,-3469,-1694,-556,-162,-243,-91,316,158,-244
2,6046410,-3469,-1694,-556,-162,-243,-91,320,170,-246
2,6046415,-3469,-1694,-556,-162,-243,-91,320,170,-246
2,6046420,-3469,-1694,-556,-162,-243,-91,320,170,-246
2,6046427,-3471,-1696,-552,-166,-234,-86,320,170,-246
2,6046433,-3471,-1696,-552,-166,-234,-86,320,170,-246
2,6046441,-3471,-1696,-552,-166,-234,-86,320,170,-246
2,6046446,-3472,-1692,-548,-156,-229,-81,320,170,-246
2,6046451,-3472,-1692,-548,-156,-229,-81,320,170,-246
2,6046459,-3472,-1692,-548,-156,-229,-81,320,170,-246
2,6046468,-3472,-1694,-556,-160,-236,-85,320,170,-246
2,6046475,-3472,-1694,-556,-160,-236,-85,320,170,-246
2,6046481,-3472,-1694,-556,-160,-236,-85,320,170,-246
2,6046487,-3472,-1694,-556,-163,-239,-83,320,170,-246
2,6046492,-3472,-1694,-556,-163,-239,-83,320,170,-246
2,6046499,-3472,-1694,-556,-163,-239,-83,320,170,-246
2,6046508,-3471,-1691,-553,-158,-236,-92,320,170,-246
2,6046514,-3471,-1691,-553,-158,-236,-92,320,170,-246
2,6046521,-3471,-1691,-553,-158,-236,-92,320,170,-246
2,6046529,-3470,-1692,-550,-158,-243,-90,309,171,-243
2,6046536,-3470,-1692,-550,-158,-243,-90,309,171,-243
2,6046543,-3472,-1694,-554,-165,-250,-81,309,171,-243
2,6046551,-3472,-1694,-554,-165,-250,-81,309,171,-243
2,6046556,-3472,-1694,-554,-165,-250,-81,309,171,-243
2,6046561,-3472,-1694,-554,-165,-250,-81,309,171,-243
2,6046569,-3470,-1691,-550,-166,-233,-82,309,171,-243
2,6046577,-3470,-1691,-550,-166,-233,-82,309,171,-243
2,6046592,-3471,-1693,-557,-159,-242,-81,309,171,-243
2,6046600,-3471,-1693,-557,-159,-242,-81,309,171,-243
2,6046608,-3473,-1692,-556,-164,-246,-86,309,171,-243
2,6046618,-3473,-1692,-556,-164,-246,-86,309,171,-243
2,6046631,-3469,-1692,-557,-161,-246,-82,309,171,-243
2,6046643,-3469,-1692,-557,-161,-246,-82,309,171,-243
2,6046653,-3472,-1692,-551,-164,-241,-86,317,167,-253
2,6046665,-3470,-1693,-553,-163,-242,-78,317,167,-253
2,6046681,-3470,-1693,-553,-163,-242,-78,317,167,-253
2,6046691,-3471,-1692,-554,-167,-240,-82,317,167,-253
2,6046702,-3471,-1692,-554,-167,-240,-82,317,167,-253
2,6046715,-3472,-1695,-553,-164,-239,-85,317,167,-253
2,6046730,-3470,-1692,-555,-160,-245,-84,317,167,-253
2,6046739,-3470,-1692,-555,-160,-245,-84,317,167,-253
2,6046751,-3473,-1695,-556,-163,-245,-88,317,167,-253
2,6046766,-3473,-1691,-552,-163,-235,-84,317,165,-249
2,6046779,-3473,-1691,-552,-163,-235,-84,317,165,-249
2,6046788,-3472,-1695,-554,-162,-242,-85,317,165,-249
2,6046801,-3472,-1695,-554,-162,-242,-85,317,165,-249
2,6046816,-3471,-1694,-557,-159,-244,-90,317,165,-249
2,6046830,-3472,-1693,-550,-155,-235,-85,317,165,-249
2,6046839,-3472,-1693,-550,-155,-235,-85,317,165,-249
2,6046849,-3468,-1694,-556,-162,-241,-86,317,165,-249
2,6046859,-3468,-1694,-556,-162,-241,-86,317,165,-249
2,6046870,-3470,-1693,-555,-162,-248,-82,317,165,-249
2,6046885,-3472,-1694,-553,-158,-251,-82,317,165,-249
2,6046900,-3472,-1694,-553,-158,-251,-82,317,165,-249
2,6046911,-3476,-1692,-554,-160,-238,-93,318,164,-250
2,6046925,-3474,-1694,-553,-166,-235,-88,318,164,-250
2,6046939,-3474,-1694,-553,-166,-235,-88,318,164,-250
2,6046952,-3472,-1694,-554,-172,-247,-89,318,164,-250
2,6046964,-3471,-1694,-556,-166,-236,-86,318,164,-250
2,6046976,-3471,-1694,-556,-166,-236,-86,318,164,-250
2,6046990,-3471,-1693,-556,-163,-232,-85,318,164,-250
2,6047002,-3471,-1693,-556,-163,-232,-85,318,164,-250
2,6047014,-3472,-1691,-557,-167,-240,-88,318,164,-250
2,6047024,-3473,-1693,-545,-160,-246,-83,319,171,-245
2,6047032,-3473,-1693,-545,-160,-246,-83,319,171,-245
2,6047041,-3473,-1693,-545,-160,-246,-83,319,171,-245
2,6047048,-3474,-1694,-552,-158,-245,-76,319,171,-245
2,6047057,-3474,-1694,-552,-158,-245,-76,319,171,-245
2,6047067,-3470,-1693,-556,-163,-246,-75,319,171,-245
2,6047075,-3470,-1693,-556,-163,-246,-75,319,171,-245
2,6047083,-3470,-1693,-556,-163,-246,-75,319,171,-245
2,6047091,-3470,-1695,-555,-166,-241,-89,319,171,-245
2,6047098,-3470,-1695,-555,-166,-241,-89,319,171,-245
2,6047107,-3473,-1688,-552,-160,-241,-84,319,171,-245
2,6047115,-3473,-1688,-552,-160,-241,-84,319,171,-245
2,6047123,-3472,-1695,-554,-162,-236,-83,319,171,-245
2,6047131,-3472,-1695,-554,-162,-236,-83,319,171,-245
2,6047141,-3472,-1695,-554,-162,-236,-83,319,171,-245
2,6047151,-3473,-1695,-553,-166,-239,-84,312,170,-240
2,6047161,-3473,-1695,-553,-166,-239,-84,312,170,-240
2,6047173,-3473,-1690,-551,-160,-239,-78,312,170,-240
2,6047185,-3471,-1694,-554,-160,-239,-87,312,170,-240
2,6047200,-3471,-1694,-554,-160,-239,-87,312,170,-240
2,6047210,-3470,-1695,-552,-153,-239,-86,312,170,-240
2,6047223,-3470,-1695,-552,-153,-239,-86,312,170,-240
2,6047237,-3471,-1692,-555,-152,-232,-84,312,170,-240
2,6047249,-3472,-1692,-556,-155,-235,-86,312,170,-240
2,6047262,-3472,-1692,-556,-155,-235,-86,312,170,-240
2,6047273,-3471,-1696,-549,-160,-229,-85,307,165,-239
2,6047286,-3470,-1692,-551,-158,-236,-82,307,165,-239
2,6047298,-3470,-1692,-551,-158,-236,-82,307,165,-239
2,6047311,-3470,-1694,-550,-162,-244,-85,307,165,-239
2,6047324,-3470,-1695,-549,-158,-236,-79,307,165,-239
2,6047338,-3470,-1695,-549,-158,-236,-79,307,165,-239
2,6047349,-3473,-1691,-554,-161,-238,-84,307,165,-239
2,6047363,-3473,-1691,-554,-161,-238,-84,307,165,-239
2,6047376,-3471,-1694,-559,-160,-243,-84,307,165,-239
2,6047389,-3472,-1692,-555,-163,-237,-91,309,165,-241
2,6047399,-3472,-1692,-555,-163,-237,-91,309,165,-241
2,6047412,-3475,-1692,-548,-157,-236,-91,309,165,-241
2,6047424,-3469,-1691,-553,-161,-243,-85,309,165,-241
2,6047437,-3469,-1691,-553,-161,-243,-85,309,165,-241
2,6047450,-3474,-1696,-555,-160,-246,-85,309,165,-241
2,6047460,-3474,-1696,-555,-160,-246,-85,309,165,-241
2,6047473,-3474,-1694,-552,-157,-238,-84,309,165,-241
2,6047486,-3470,-1694,-557,-160,-244,-82,309,165,-241
2,6047498,-3470,-1694,-557,-160,-244,-82,309,165,-241
2,6047511,-3473,-1695,-551,-159,-243,-88,309,165,-241
2,6047524,-3472,-1691,-549,-162,-239,-82,317,165,-247
2,6047538,-3472,-1691,-549,-162,-239,-82,317,165,-247
2,6047548,-3473,-1692,-553,-162,-242,-82,317,165,-247
2,6047557,-3473,-1692,-553,-162,-242,-82,317,165,-247
2,6047564,-3473,-1690,-549,-156,-247,-88,317,165,-247
2,6047572,-3473,-1690,-549,-156,-247,-88,317,165,-247
2,6047578,-3473,-1690,-549,-156,-247,-88,317,165,-247
2,6047583,-3473,-1690,-549,-156,-247,-88,317,165,-247
2,6047591,-3471,-1694,-556,-163,-246,-82,317,165,-247
2,6047598,-3471,-1694,-556,-163,-246,-82,317,165,-247
2,6047605,-3472,-1692,-554,-163,-249,-81,317,165,-247
2,6047613,-3472,-1692,-554,-163,-249,-81,317,165,-247
2,6047621,-3472,-1692,-554,-163,-249,-81,317,165,-247
2,6047627,-3473,-1691,-555,-169,-246,-85,317,165,-247
2,6047634,-3473,-1691,-555,-169,-246,-85,317,165,-247
2,6047642,-3473,-1691,-555,-169,-246,-85,317,165,-247
2,6047649,-3473,-1694,-547,-167,-239,-90,315,167,-245
2,6047656,-3473,-1694,-547,-167,-239,-90,315,167,-245
2,6047664,-3474,-1694,-552,-165,-231,-85,315,167,-245
2,6047671,-3474,-1694,-552,-165,-231,-85,315,167,-245
2,6047678,-3474,-1694,-552,-165,-231,-85,315,167,-245
2,6047683,-3474,-1694,-552,-165,-231,-85,315,167,-245
2,6047688,-3473,-1694,-558,-161,-233,-88,315,167,-245
2,6047694,-3473,-1694,-558,-161,-233,-88,315,167,-245
2,6047702,-3473,-1694,-558,-161,-233,-88,315,167,-245
2,6047709,-3472,-1695,-556,-163,-238,-78,315,167,-245
2,6047716,-3472,-1695,-556,-163,-238,-78,315,167,-245
2,6047722,-3472,-1695,-556,-163,-238,-78,315,167,-245
2,6047731,-3473,-1692,-556,-162,-236,-79,315,167,-245
2,6047738,-3473,-1692,-556,-162,-236,-79,315,167,-245
2,6047744,-3474,-1693,-553,-159,-230,-86,315,167,-245
2,6047750,-3474,-1693,-553,-159,-230,-86,315,167,-245
2,6047757,-3474,-1693,-553,-159,-230,-86,315,167,-245
2,6047764,-3473,-1689,-551,-158,-240,-87,321,175,-243
2,6047772,-3473,-1689,-551,-158,-240,-87,321,175,-243
2,6047780,-3473,-1689,-551,-158,-240,-87,321,175,-243
2,6047789,-3473,-1692,-550,-159,-243,-83,321,175,-243
2,6047794,-3473,-1692,-550,-159,-243,-83,321,175,-243
2,6047801,-3473,-1692,-550,-159,-243,-83,321,175,-243
2,6047809,-3474,-1689,-554,-160,-245,-87,321,175,-243
2,6047816,-3474,-1689,-554,-160,-245,-87,321,175,-243
2,6047822,-3474,-1689,-554,-160,-245,-87,321,175,-243
2,6047830,-3471,-1693,-557,-157,-248,-86,321,175,-243
2,6047837,-3471,-1693,-557,-157,-248,-86,321,175,-243
2,6047842,-3471,-1693,-557,-157,-248,-86,321,175,-243
2,6047850,-3468,-1694,-557,-164,-240,-80,321,175,-243
2,6047856,-3468,-1694,-557,-164,-240,-80,321,175,-243
2,6047863,-3468,-1694,-557,-164,-240,-80,321,175,-243
2,6047869,-3472,-1690,-556,-166,-245,-80,321,175,-243
2,6047878,-3472,-1690,-556,-166,-245,-80,321,175,-243
2,6047884,-3473,-1693,-551,-160,-236,-74,315,175,-241
2,6047891,-3473,-1693,-551,-160,-236,-74,315,175,-241
2,6047898,-3473,-1693,-551,-160,-236,-74,315,175,-241
2,6047906,-3468,-1693,-550,-155,-240,-86,315,175,-241
2,6047912,-3468,-1693,-550,-155,-240,-86,315,175,-241
2,6047921,-3468,-1693,-550,-155,-240,-86,315,175,-241
2,6047928,-3471,-1693,-554,-164,-236,-85,315,175,-241
2,6047934,-3471,-1693,-554,-164,-236,-85,315,175,-241
2,6047941,-3471,-1693,-554,-164,-236,-85,315,175,-241
2,6047949,-3467,-1691,-554,-161,-235,-82,315,175,-241
2,6047956,-3467,-1691,-554,-161,-235,-82,315,175,-241
2,6047964,-3467,-1691,-554,-161,-235,-82,315,175,-241
2,6047969,-3470,-1692,-556,-160,-239,-83,315,175,-241
2,6047975,-3470,-1692,-556,-160,-239,-83,315,175,-241
2,6047982,-3470,-1692,-556,-160,-239,-83,315,175,-241
2,6047991,-3471,-1692,-557,-156,-245,-82,315,175,-241
2,6047998,-3471,-1692,-557,-156,-245,-82,315,175,-241
2,6048006,-3471,-1695,-553,-161,-247,-87,320,170,-242
2,6048012,-3471,-1695,-553,-161,-247,-87,320,170,-242
2,6048019,-3471,-1695,-553,-161,-247,-87,320,170,-242
2,6048024,-3472,-1691,-552,-153,-244,-85,320,170,-242
2,6048029,-3472,-1691,-552,-153,-244,-85,320,170,-242
2,6048035,-3472,-1691,-552,-153,-244,-85,320,170,-242
2,6048040,-3472,-1691,-552,-153,-244,-85,320,170,-242
2,6048046,-3472,-1694,-551,-156,-240,-86,320,170,-242
2,6048051,-3472,-1694,-551,-156,-240,-86,320,170,-242
2,6048055,-3472,-1694,-551,-156,-240,-86,320,170,-242
2,6048062,-3472,-1694,-551,-156,-240,-86,320,170,-242
2,6048069,-3469,-1694,-556,-162,-249,-83,320,170,-242
2,6048077,-3469,-1694,-556,-162,-249,-83,320,170,-242
2,6048082,-3469,-1694,-556,-162,-249,-83,320,170,-242
2,6048090,-3473,-1691,-555,-168,-241,-78,320,170,-242
2,6048095,-3473,-1691,-555,-168,-241,-78,320,170,-242
2,6048102,-3473,-1691,-555,-168,-241,-78,320,170,-242
2,6048109,-3470,-1692,-557,-168,-234,-75,320,170,-242
2,6048117,-3470,-1692,-557,-168,-234,-75,320,170,-242
2,6048124,-3470,-1692,-557,-168,-234,-75,315,165,-242
2,6048133,-3470,-1692,-557,-168,-234,-75,315,165,-241
2,6048139,-3470,-1692,-557,-168,-234,-75,315,165,-241
2,6048147,-3471,-1695,-556,-157,-234,-82,315,165,-241
2,6048153,-3471,-1695,-556,-157,-234,-82,315,165,-241
2,6048159,-3471,-1695,-556,-157,-234,-82,315,165,-241
2,6048167,-3471,-1694,-558,-164,-239,-86,315,165,-241
2,6048175,-3471,-1694,-558,-164,-239,-86,315,165,-241
2,6048182,-3471,-1694,-558,-164,-239,-86,315,165,-241
2,6048189,-3470,-1690,-559,-166,-242,-85,315,165,-241
2,6048194,-3470,-1690,-559,-166,-242,-85,315,165,-241
2,6048202,-3470,-1690,-559,-166,-242,-85,315,165,-241
2,6048209,-3475,-1693,-557,-160,-240,-85,315,165,-241
2,6048218,-3475,-1693,-557,-160,-240,-85,315,165,-241
2,6048226,-3471,-1694,-554,-162,-242,-85,315,165,-241
2,6048233,-3471,-1694,-554,-162,-242,-85,315,165,-241
2,6048239,-3471,-1694,-554,-162,-242,-85,315,165,-241
2,6048246,-3473,-1693,-558,-160,-241,-85,315,165,-241
2,6048252,-3473,-1693,-558,-160,-241,-85,315,165,-241
2,6048258,-3473,-1693,-558,-160,-241,-85,315,165,-241
2,6048264,-3473,-1693,-558,-160,-241,-85,315,165,-241
2,6048271,-3471,-1692,-548,-158,-234,-84,316,160,-246
2,6048278,-3471,-1692,-548,-158,-234,-84,316,160,-246
2,6048285,-3472,-1691,-549,-161,-240,-84,316,160,-246
2,6048292,-3472,-1691,-549,-161,-240,-84,316,160,-246
2,6048299,-3472,-1691,-549,-161,-240,-84,316,160,-246
2,6048306,-3474,-1693,-555,-160,-239,-85,316,160,-246
2,6048311,-3474,-1693,-555,-160,-239,-85,316,160,-246
2,6048319,-3474,-1693,-555,-160,-239,-85,316,160,-246
2,6048326,-3474,-1695,-558,-158,-241,-84,316,160,-246
2,6048334,-3474,-1695,-558,-158,-241,-84,316,160,-246
2,6048340,-3474,-1695,-558,-158,-241,-84,316,160,-246
2,6048347,-3471,-1696,-557,-166,-238,-91,316,160,-246
2,6048354,-3471,-1696,-557,-166,-238,-91,316,160,-246
2,6048361,-3471,-1696,-557,-166,-238,-91,316,160,-246
2,6048368,-3471,-1692,-552,-165,-238,-85,316,160,-246
2,6048373,-3471,-1692,-552,-165,-238,-85,316,160,-246
2,6048379,-3471,-1692,-552,-165,-238,-85,316,160,-246
2,6048387,-3472,-1690,-551,-155,-243,-89,311,175,-243
2,6048394,-3472,-1690,-551,-155,-243,-89,311,175,-243
2,6048401,-3472,-1690,-551,-155,-243,-89,311,175,-243
2,6048407,-3474,-1692,-556,-161,-241,-82,311,175,-243
2,6048414,-3474,-1692,-556,-161,-241,-82,311,175,-243
2,6048421,-3474,-1692,-556,-161,-241,-82,311,175,-243
2,6048428,-3469,-1693,-557,-162,-240,-88,311,175,-243
2,6048435,-3469,-1693,-557,-162,-240,-88,311,175,-243
2,6048443,-3469,-1693,-557,-162,-240,-88,311,175,-243
2,6048448,-3472,-1694,-559,-156,-236,-87,311,175,-243
2,6048455,-3472,-1694,-559,-156,-236,-87,311,175,-243
2,6048461,-3472,-1694,-559,-156,-236,-87,311,175,-243
2,6048468,-3469,-1692,-552,-165,-233,-81,311,175,-243
2,6048477,-3469,-1692,-552,-165,-233,-81,311,175,-243
2,6048486,-3469,-1691,-555,-164,-237,-84,311,175,-243
2,6048493,-3469,-1691,-555,-164,-237,-84,311,175,-243
2,6048498,-3469,-1691,-555,-164,-237,-84,311,175,-243
2,6048505,-3469,-1693,-552,-166,-238,-88,312,162,-240
2,6048514,-3469,-1693,-552,-166,-238,-88,312,162,-240
2,6048521,-3469,-1693,-552,-166,-238,-88,312,162,-240
2,6048527,-3471,-1695,-550,-158,-245,-88,312,162,-240
2,6048535,-3471,-1695,-550,-158,-245,-88,312,162,-240
2,6048542,-3471,-1695,-550,-158,-245,-88,312,162,-240
2,6048548,-3469,-1693,-551,-158,-245,-87,312,162,-240
2,6048553,-3469,-1693,-551,-158,-245,-87,312,162,-240
2,6048559,-3469,-1693,-551,-158,-245,-87,312,162,-240
2,6048564,-3469,-1693,-551,-158,-245,-87,312,162,-240
2,6048569,-3471,-1693,-550,-156,-247,-97,312,162,-240
2,6048573,-3471,-1693,-550,-156,-247,-97,312,162,-240
2,6048580,-3471,-1693,-550,-156,-247,-97,312,162,-240
2,6048593,-3472,-1688,-553,-160,-244,-84,312,162,-240
2,6048607,-3474,-1692,-557,-158,-240,-85,312,162,-240
2,6048617,-3474,-1692,-557,-158,-240,-85,312,162,-240
2,6048629,-3469,-1693,-552,-159,-242,-85,321,169,-247
2,6048643,-3469,-1693,-552,-159,-242,-85,321,169,-247
2,6048653,-3474,-1691,-554,-161,-239,-80,321,169,-247
2,6048663,-3474,-1691,-554,-161,-239,-80,321,169,-247
2,6048677,-3469,-1693,-552,-157,-239,-78,321,169,-247
2,6048690,-3472,-1692,-555,-164,-242,-84,321,169,-247
2,6048703,-3472,-1692,-555,-164,-242,-84,321,169,-247
2,6048714,-3469,-1692,-553,-163,-237,-90,321,169,-247
2,6048727,-3471,-1694,-555,-160,-232,-84,321,169,-247
2,6048740,-3471,-1694,-555,-160,-232,-84,321,169,-247
2,6048752,-3472,-1695,-555,-166,-236,-83,316,168,-246
2,6048764,-3472,-1695,-555,-166,-236,-83,316,168,-246
2,6048776,-3470,-1694,-553,-158,-235,-88,316,168,-246
2,6048784,-3470,-1694,-553,-158,-235,-88,316,168,-246
2,6048792,-3471,-1696,-552,-162,-239,-80,316,168,-246
2,6048802,-3471,-1696,-552,-162,-239,-80,316,168,-246
2,6048811,-3470,-1692,-548,-170,-247,-80,316,168,-246
2,6048823,-3470,-1692,-548,-170,-247,-80,316,168,-246
2,6048835,-3472,-1694,-557,-157,-243,-91,316,168,-246
2,6048848,-3470,-1690,-555,-158,-242,-85,316,168,-246
2,6048863,-3470,-1690,-555,-158,-242,-85,316,168,-246
2,6048874,-3469,-1691,-551,-154,-242,-83,316,168,-246
2,6048885,-3469,-1694,-552,-152,-243,-87,312,164,-246
2,6048899,-3469,-1694,-552,-152,-243,-87,312,164,-246
2,6048913,-3472,-1694,-552,-152,-237,-84,312,164,-246
2,6048925,-3472,-1693,-554,-159,-245,-89,312,164,-246
2,6048933,-3472,-1693,-554,-159,-245,-89,312,164,-246
2,6048947,-3472,-1688,-554,-158,-242,-87,312,164,-246
2,6048960,-3472,-1688,-554,-158,-242,-87,312,164,-246
2,6048973,-3472,-1695,-556,-161,-234,-89,312,164,-246
2,6048984,-3472,-1695,-556,-161,-234,-89,312,164,-246
2,6048996,-3472,-1695,-555,-161,-246,-81,312,164,-246
2,6049010,-3470,-1694,-549,-167,-244,-75,318,170,-240
2,6049021,-3470,-1694,-549,-167,-244,-75,318,170,-240
2,6049030,-3472,-1692,-553,-168,-245,-77,318,170,-240
2,6049038,-3472,-1692,-553,-168,-245,-77,318,170,-240
2,6049046,-3474,-1693,-556,-157,-241,-81,318,170,-240
2,6049054,-3474,-1693,-556,-157,-241,-81,318,170,-240
2,6049061,-3474,-1693,-556,-157,-241,-81,318,170,-240
2,6049070,-3473,-1692,-554,-160,-235,-87,318,170,-240
2,6049078,-3473,-1692,-554,-160,-235,-87,318,170,-240
2,6049086,-3471,-1694,-553,-159,-237,-89,318,170,-240
2,6049094,-3471,-1694,-553,-159,-237,-89,318,170,-240
2,6049102,-3471,-1694,-553,-159,-237,-89,318,170,-240
2,6049110,-3470,-1694,-556,-160,-236,-87,318,170,-240
2,6049118,-3470,-1694,-556,-160,-236,-87,318,170,-240
2,6049131,-3471,-1692,-551,-157,-233,-85,317,165,-239
2,6049144,-3471,-1692,-551,-157,-233,-85,317,165,-239
2,6049156,-3470,-1692,-550,-156,-240,-77,317,165,-239
2,6049166,-3472,-1692,-552,-161,-243,-85,317,165,-239
2,6049179,-3472,-1692,-552,-161,-243,-85,317,165,-239
2,6049191,-3471,-1694,-553,-162,-244,-88,317,165,-239
2,6049205,-3470,-1693,-556,-157,-240,-86,317,165,-239
2,6049217,-3470,-1693,-556,-157,-240,-86,317,165,-239
2,6049229,-3472,-1692,-560,-152,-230,-79,317,165,-239
2,6049244,-3472,-1692,-560,-152,-230,-79,317,165,-239
2,6049256,-3471,-1692,-552,-160,-242,-78,315,171,-245
2,6049267,-3469,-1692,-552,-159,-246,-82,315,171,-245
2,6049281,-3469,-1692,-552,-159,-246,-82,315,171,-245
2,6049295,-3473,-1694,-554,-155,-237,-84,315,171,-245
2,6049308,-3471,-1694,-553,-151,-235,-80,315,171,-245
2,6049318,-3471,-1694,-553,-151,-235,-80,315,171,-245
2,6049331,-3472,-1694,-557,-157,-240,-89,315,171,-245
2,6049346,-3472,-1693,-555,-157,-243,-87,315,171,-245
2,6049359,-3472,-1693,-555,-157,-243,-87,315,171,-245
2,6049369,-3471,-1696,-558,-160,-245,-80,311,167,-241
2,6049380,-3471,-1696,-558,-160,-245,-80,311,167,-241
2,6049392,-3471,-1693,-551,-157,-244,-80,311,167,-241
2,6049405,-3474,-1694,-553,-163,-237,-77,311,167,-241
2,6049418,-3474,-1694,-553,-163,-237,-77,311,167,-241
2,6049431,-3469,-1691,-551,-162,-233,-82,311,167,-241
2,6049443,-3469,-1691,-551,-162,-233,-82,311,167,-241
2,6049452,-3471,-1693,-556,-156,-244,-80,311,167,-241
2,6049460,-3471,-1693,-556,-156,-244,-80,311,167,-241
2,6049468,-3469,-1692,-556,-164,-239,-81,311,167,-241
2,6049476,-3469,-1692,-556,-164,-239,-81,311,167,-241
2,6049486,-3469,-1693,-555,-160,-236,-78,311,167,-241
2,6049499,-3469,-1693,-555,-160,-236,-78,311,167,-241
2,6049515,-3471,-1694,-548,-161,-246,-90,307,169,-239
2,6049529,-3470,-1693,-552,-164,-244,-86,307,169,-239
2,6049540,-3470,-1693,-552,-164,-244,-86,307,169,-239
2,6049550,-3473,-1694,-556,-160,-239,-93,307,169,-239
2,6049559,-3473,-1694,-556,-160,-239,-93,307,169,-239
2,6049566,-3468,-1694,-557,-157,-235,-87,307,169,-239
2,6049574,-3468,-1694,-557,-157,-235,-87,307,169,-239
2,6049585,-3468,-1694,-557,-157,-235,-87,307,169,-239
2,6049593,-3469,-1696,-551,-166,-239,-84,307,169,-239
2,6049600,-3469,-1696,-551,-166,-239,-84,307,169,-239
2,6049608,-3473,-1693,-553,-160,-243,-83,307,169,-239
2,6049616,-3473,-1693,-553,-160,-243,-83,307,169,-239
2,6049624,-3473,-1693,-553,-160,-243,-83,307,169,-239
2,6049630,-3473,-1692,-549,-161,-241,-76,315,173,-247
2,6049635,-3473,-1692,-549,-161,-241,-76,315,173,-247
2,6049642,-3473,-1692,-549,-161,-241,-76,315,173,-247
2,6049649,-3474,-1692,-556,-158,-246,-83,315,173,-247
2,6049657,-3474,-1692,-556,-158,-246,-83,315,173,-247
2,6049665,-3474,-1692,-556,-158,-246,-83,315,173,-247
2,6049671,-3470,-1692,-558,-159,-248,-87,315,173,-247
2,6049677,-3470,-1692,-558,-159,-248,-87,315,173,-247
2,6049684,-3470,-1692,-558,-159,-248,-87,315,173,-247
2,6049691,-3473,-1692,-555,-162,-246,-88,315,173,-247
2,6049697,-3473,-1692,-555,-162,-246,-88,315,173,-247
2,6049704,-3473,-1692,-555,-162,-246,-88,315,173,-247
2,6049712,-3471,-1692,-565,-160,-234,-86,315,173,-247
2,6049718,-3471,-1692,-565,-160,-234,-86,315,173,-247
2,6049726,-3472,-1690,-556,-165,-235,-92,315,173,-247
2,6049733,-3472,-1690,-556,-165,-235,-92,315,173,-247
2,6049738,-3472,-1690,-556,-165,-235,-92,315,173,-247
2,6049744,-3472,-1690,-556,-165,-235,-92,315,173,-247
2,6049753,-3466,-1690,-555,-162,-234,-88,309,173,-241
2,6049760,-3466,-1690,-555,-162,-234,-88,309,173,-241
2,6049766,-3471,-1695,-553,-157,-241,-77,309,173,-241
2,6049771,-3471,-1695,-553,-157,-241,-77,309,173,-241
2,6049779,-3471,-1695,-553,-157,-241,-77,309,173,-241
2,6049786,-3473,-1694,-551,-161,-239,-75,309,173,-241
2,6049794,-3473,-1694,-551,-161,-239,-75,309,173,-241
2,6049800,-3473,-1694,-551,-161,-239,-75,309,173,-241
2,6049807,-3473,-1694,-553,-151,-247,-79,309,173,-241
2,6049814,-3473,-1694,-553,-151,-247,-79,309,173,-241
2,6049818,-3473,-1694,-553,-151,-247,-79,309,173,-241
2,6049826,-3473,-1693,-557,-160,-237,-84,309,173,-241
2,6049833,-3473,-1693,-557,-160,-237,-84,309,173,-241
2,6049839,-3473,-1693,-557,-160,-237,-84,309,173,-241
2,6049845,-3473,-1693,-557,-160,-237,-84,309,173,-241
2,6049852,-3472,-1693,-555,-161,-242,-86,309,173,-241
2,6049860,-3472,-1693,-555,-161,-242,-86,309,173,-241
2,6049867,-3469,-1695,-551,-161,-238,-88,317,169,-237
2,6049876,-3469,-1695,-551,-161,-238,-88,317,169,-237
2,6049884,-3469,-1695,-551,-161,-238,-88,317,169,-237
2,6049891,-3472,-1694,-553,-162,-240,-96,317,169,-237
2,6049898,-3472,-1694,-553,-162,-240,-96,317,169,-237
2,6049905,-3472,-1694,-553,-162,-240,-96,317,169,-237
2,6049912,-3475,-1692,-552,-164,-239,-91,317,169,-237
2,6049918,-3475,-1692,-552,-164,-239,-91,317,169,-237
2,6049927,-3468,-1696,-556,-168,-240,-85,317,169,-237
2,6049934,-3468,-1696,-556,-168,-240,-85,317,169,-237
2,6049942,-3468,-1696,-556,-168,-240,-85,317,169,-237
2,6049948,-3472,-1694,-554,-156,-238,-87,317,169,-237
2,6049955,-3472,-1694,-554,-156,-238,-87,317,169,-237
2,6049961,-3472,-1694,-554,-156,-238,-87,317,169,-237
2,6049968,-3469,-1693,-559,-158,-242,-84,317,169,-237
2,6049975,-3469,-1693,-559,-158,-242,-84,317,169,-237
2,6049982,-3469,-1693,-559,-158,-242,-84,317,169,-237
2,6049988,-3472,-1696,-556,-167,-240,-86,313,169,-239
2,6049995,-3472,-1696,-556,-167,-240,-86,313,169,-239
2,6050003,-3472,-1696,-556,-167,-240,-86,313,169,-239
2,6050010,-3472,-1693,-550,-165,-237,-85,313,169,-239
2,6050016,-3472,-1693,-550,-165,-237,-85,313,169,-239
2,6050022,-3472,-1693,-550,-165,-237,-85,313,169,-239
2,6050027,-3472,-1692,-554,-156,-238,-83,313,169,-239
2,6050032,-3472,-1692,-554,-156,-238,-83,313,169,-239
2,6050038,-3472,-1692,-554,-156,-238,-83,313,169,-239
2,6050043,-3472,-1692,-554,-156,-238,-83,313,169,-239
2,6050049,-3471,-1691,-554,-164,-243,-87,313,169,-239
2,6050054,-3471,-1691,-554,-164,-243,-87,313,169,-239
2,6050062,-3471,-1691,-554,-164,-243,-87,313,169,-239
2,6050069,-3471,-1690,-555,-157,-242,-83,313,169,-239
2,6050077,-3471,-1690,-555,-157,-242,-83,313,169,-239
2,6050084,-3471,-1690,-555,-157,-242,-83,313,169,-239
2,6050091,-3467,-1694,-557,-163,-241,-85,313,169,-239
2,6050098,-3467,-1694,-557,-163,-241,-85,313,169,-239
2,6050106,-3467,-1694,-557,-163,-241,-85,313,169,-239
2,6050112,-3474,-1697,-552,-159,-243,-88,313,169,-239
2,6050118,-3474,-1697,-552,-159,-243,-88,313,169,-239
2,6050126,-3472,-1699,-549,-157,-238,-84,313,169,-239
2,6050134,-3472,-1699,-549,-157,-238,-84,319,161,-235
2,6050141,-3472,-1699,-549,-157,-238,-84,319,161,-235
2,6050146,-3472,-1699,-549,-157,-238,-84,319,161,-235
2,6050151,-3470,-1696,-556,-158,-235,-83,319,161,-235
2,6050156,-3470,-1696,-556,-158,-235,-83,319,161,-235
2,6050164,-3470,-1696,-556,-158,-235,-83,319,161,-235
2,6050172,-3469,-1693,-554,-165,-238,-86,319,161,-235
2,6050180,-3469,-1693,-554,-165,-238,-86,319,161,-235
2,6050186,-3469,-1693,-554,-165,-238,-86,319,161,-235
2,6050193,-3472,-1693,-556,-165,-241,-81,319,161,-235
2,6050199,-3472,-1693,-556,-165,-241,-81,319,161,-235
2,6050205,-3472,-1693,-556,-165,-241,-81,319,161,-235
2,6050213,-3472,-1692,-555,-156,-245,-89,319,161,-235
2,6050220,-3472,-1692,-555,-156,-245,-89,319,161,-235
2,6050227,-3474,-1691,-556,-155,-241,-88,319,161,-235
2,6050235,-3474,-1691,-556,-155,-241,-88,319,161,-235
2,6050242,-3474,-1691,-556,-155,-241,-88,319,161,-235
2,6050248,-3468,-1694,-550,-162,-239,-90,313,167,-243
2,6050254,-3468,-1694,-550,-162,-239,-90,313,167,-243
2,6050262,-3468,-1694,-550,-162,-239,-90,313,167,-243
2,6050269,-3468,-1690,-554,-159,-240,-86,313,167,-243
2,6050276,-3468,-1690,-554,-159,-240,-86,313,167,-243
2,6050282,-3468,-1690,-554,-159,-240,-86,313,167,-243
2,6050288,-3469,-1693,-553,-156,-234,-81,313,167,-243
2,6050295,-3469,-1693,-553,-156,-234,-81,313,167,-243
2,6050304,-3469,-1693,-553,-156,-234,-81,313,167,-243
2,6050311,-3469,-1694,-556,-166,-231,-80,313,167,-243
2,6050318,-3469,-1694,-556,-166,-231,-80,313,167,-243
2,6050324,-3469,-1694,-556,-166,-231,-80,313,167,-243
2,6050331,-3470,-1695,-554,-156,-241,-83,313,167,-243
2,6050338,-3470,-1695,-554,-156,-241,-83,313,167,-243
2,6050345,-3470,-1695,-554,-156,-241,-83,313,167,-243
2,6050354,-3473,-1694,-561,-163,-238,-83,313,167,-243
2,6050362,-3473,-1694,-561,-163,-238,-83,313,167,-243
2,6050369,-3471,-1695,-549,-170,-243,-88,317,169,-247
2,6050377,-3471,-1695,-549,-170,-243,-88,317,169,-247
2,6050383,-3471,-1695,-549,-170,-243,-88,317,169,-247
2,6050392,-3471,-1691,-555,-167,-235,-88,317,169,-247
2,6050398,-3471,-1691,-555,-167,-235,-88,317,169,-247
2,6050405,-3471,-1691,-555,-167,-235,-88,317,169,-247
2,6050413,-3472,-1692,-556,-162,-244,-88,317,169,-247
2,6050419,-3472,-1692,-556,-162,-244,-88,317,169,-247
2,6050426,-3471,-1692,-556,-161,-237,-75,317,169,-247
2,6050434,-3471,-1692,-556,-161,-237,-75,317,169,-247
2,6050441,-3471,-1692,-556,-161,-237,-75,317,169,-247
2,6050447,-3471,-1693,-551,-164,-234,-79,317,169,-247
2,6050454,-3471,-1693,-551,-164,-234,-79,317,169,-247
2,6050461,-3471,-1693,-551,-164,-234,-79,317,169,-247
2,6050467,-3469,-1691,-556,-162,-247,-81,317,169,-247
2,6050473,-3469,-1691,-556,-162,-247,-81,317,169,-247
2,6050481,-3469,-1691,-556,-162,-247,-81,317,169,-247
2,6050487,-3468,-1690,-550,-158,-246,-81,315,167,-247
2,6050495,-3468,-1690,-550,-158,-246,-81,315,167,-247
2,6050501,-3468,-1690,-550,-158,-246,-81,315,167,-247
2,6050508,-3469,-1691,-554,-164,-239,-90,315,167,-247
2,6050515,-3469,-1691,-554,-164,-239,-90,315,167,-247
2,6050522,-3469,-1691,-554,-164,-239,-90,315,167,-247
2,6050530,-3469,-1691,-556,-163,-236,-92,315,167,-247
2,6050538,-3469,-1691,-556,-163,-236,-92,315,167,-247
2,6050545,-3469,-1691,-556,-163,-236,-92,315,167,-247
2,6050551,-3470,-1693,-553,-162,-238,-85,315,167,-247
2,6050557,-3470,-1693,-553,-162,-238,-85,315,167,-247
2,6050563,-3470,-1693,-553,-162,-238,-85,315,167,-247
2,6050568,-3471,-1691,-554,-166,-243,-86,315,167,-247
2,6050573,-3471,-1691,-554,-166,-243,-86,315,167,-247
2,6050578,-3471,-1691,-554,-166,-243,-86,315,167,-247
2,6050584,-3471,-1691,-554,-166,-243,-86,315,167,-247
2,6050591,-3470,-1692,-555,-159,-236,-89,315,167,-247
2,6050606,-3470,-1692,-555,-159,-236,-89,315,167,-247
2,6050620,-3472,-1693,-558,-160,-244,-91,313,163,-249
2,6050630,-3474,-1692,-553,-156,-241,-88,313,163,-249
2,6050641,-3474,-1692,-553,-156,-241,-88,313,163,-249
2,6050654,-3466,-1692,-548,-156,-248,-81,313,163,-249
2,6050668,-3472,-1692,-554,-158,-242,-77,313,163,-249
2,6050676,-3472,-1692,-554,-158,-242,-77,313,163,-249
2,6050689,-3472,-1692,-552,-156,-239,-78,313,163,-249
2,6050702,-3472,-1692,-552,-156,-239,-78,313,163,-249
2,6050715,-3472,-1693,-558,-157,-244,-83,313,163,-249
2,6050725,-3472,-1693,-558,-157,-244,-83,313,163,-249
2,6050737,-3469,-1694,-556,-158,-239,-86,313,163,-249
2,6050745,-3469,-1694,-556,-158,-239,-86,313,163,-249
2,6050753,-3471,-1692,-556,-160,-244,-83,321,165,-245
2,6050761,-3471,-1692,-556,-160,-244,-83,321,165,-245
2,6050769,-3473,-1695,-558,-163,-243,-93,321,165,-245
2,6050779,-3473,-1695,-558,-163,-243,-93,321,165,-245
2,6050790,-3471,-1692,-556,-157,-236,-91,321,165,-245
2,6050802,-3471,-1692,-556,-157,-236,-91,321,165,-245
2,6050811,-3470,-1697,-555,-161,-246,-91,321,165,-245
2,6050824,-3470,-1697,-555,-161,-246,-91,321,165,-245
2,6050839,-3472,-1692,-554,-165,-244,-89,321,165,-245
2,6050851,-3470,-1692,-559,-162,-244,-85,321,165,-245
2,6050863,-3470,-1692,-559,-162,-244,-85,321,165,-245
2,6050875,-3471,-1695,-552,-163,-243,-78,317,173,-239
2,6050889,-3471,-1693,-554,-157,-244,-78,317,173,-239
2,6050902,-3471,-1693,-554,-157,-244,-78,317,173,-239
2,6050914,-3472,-1694,-552,-161,-243,-87,317,173,-239
2,6050927,-3472,-1693,-558,-161,-242,-80,317,173,-239
2,6050940,-3472,-1693,-558,-161,-242,-80,317,173,-239
2,6050952,-3471,-1695,-554,-156,-243,-89,317,173,-239
2,6050964,-3471,-1695,-554,-156,-243,-89,317,173,-239
2,6050977,-3472,-1691,-555,-159,-236,-83,317,173,-239
2,6050991,-3471,-1695,-550,-163,-239,-76,310,168,-242
2,6051003,-3471,-1695,-550,-163,-239,-76,310,168,-242
2,6051011,-3467,-1692,-555,-161,-247,-90,310,168,-242
2,6051021,-3467,-1692,-555,-161,-247,-90,310,168,-242
2,6051031,-3469,-1691,-554,-161,-241,-88,310,168,-242
2,6051039,-3469,-1691,-554,-161,-241,-88,310,168,-242
2,6051046,-3469,-1691,-554,-161,-241,-88,310,168,-242
2,6051054,-3473,-1692,-554,-162,-236,-82,310,168,-242
2,6051062,-3473,-1692,-554,-162,-236,-82,310,168,-242
2,6051070,-3470,-1691,-554,-164,-236,-79,310,168,-242
2,6051079,-3470,-1691,-554,-164,-236,-79,310,168,-242
2,6051087,-3469,-1690,-555,-160,-237,-85,310,168,-242
2,6051095,-3469,-1690,-555,-160,-237,-85,310,168,-242
2,6051103,-3469,-1690,-555,-160,-237,-85,310,168,-242
2,6051111,-3472,-1691,-551,-162,-238,-88,316,170,-246
2,6051120,-3472,-1691,-551,-162,-238,-88,316,170,-246
2,6051128,-3472,-1693,-551,-163,-239,-90,316,170,-246
2,6051141,-3472,-1693,-551,-163,-239,-90,316,170,-246
2,6051154,-3474,-1694,-554,-162,-246,-84,316,170,-246
2,6051167,-3470,-1690,-557,-157,-238,-85,316,170,-246
2,6051180,-3470,-1690,-557,-157,-238,-85,316,170,-246
2,6051193,-3473,-1691,-554,-163,-235,-85,316,170,-246
2,6051206,-3473,-1691,-554,-163,-235,-85,316,170,-246
2,6051218,-3465,-1694,-551,-167,-233,-85,316,170,-246
2,6051228,-3469,-1694,-557,-169,-229,-86,317,175,-249
2,6051240,-3469,-1694,-557,-169,-229,-86,317,175,-249
2,6051254,-3473,-1692,-552,-162,-239,-81,317,175,-249
2,6051266,-3473,-1692,-552,-162,-239,-81,317,175,-249
2,6051277,-3468,-1690,-554,-162,-239,-86,317,175,-249
2,6051291,-3471,-1694,-553,-164,-245,-90,317,175,-249
2,6051304,-3471,-1694,-553,-164,-245,-90,317,175,-249
2,6051317,-3471,-1692,-551,-165,-242,-81,317,175,-249
2,6051329,-3473,-1695,-555,-160,-238,-86,317,175,-249
2,6051338,-3473,-1695,-555,-160,-238,-86,317,175,-249
2,6051350,-3473,-1695,-555,-160,-238,-86,317,175,-249
2,6051363,-3473,-1695,-555,-160,-238,-86,317,175,-249
2,6051377,-3470,-1694,-558,-162,-241,-84,315,171,-241
2,6051390,-3472,-1694,-556,-160,-247,-81,315,171,-241
2,6051404,-3472,-1694,-556,-160,-247,-81,315,171,-241
2,6051418,-3476,-1695,-559,-166,-245,-89,315,171,-241
2,6051429,-3471,-1690,-555,-161,-242,-85,315,171,-241
2,6051440,-3471,-1690,-555,-161,-242,-85,315,171,-241
2,6051448,-3471,-1693,-554,-162,-246,-78,315,171,-241
2,6051457,-3471,-1693,-554,-162,-246,-78,315,171,-241
2,6051465,-3471,-1693,-554,-162,-246,-78,315,171,-241
2,6051474,-3471,-1692,-558,-162,-235,-82,315,171,-241
2,6051482,-3471,-1692,-558,-162,-235,-82,315,171,-241
2,6051493,-3470,-1694,-552,-169,-252,-83,317,171,-247
2,6051504,-3470,-1694,-552,-169,-252,-83,317,171,-247
2,6051512,-3470,-1690,-552,-168,-248,-71,317,171,-247
2,6051522,-3470,-1690,-552,-168,-248,-71,317,171,-247
2,6051532,-3471,-1691,-557,-172,-244,-76,317,171,-247
2,6051543,-3471,-1691,-557,-172,-244,-76,317,171,-247
2,6051553,-3472,-1694,-558,-165,-239,-85,317,171,-247
2,6051561,-3472,-1694,-558,-165,-239,-85,317,171,-247
2,6051568,-3469,-1693,-560,-163,-239,-80,317,171,-247
2,6051576,-3469,-1693,-560,-163,-239,-80,317,171,-247
2,6051585,-3469,-1693,-560,-163,-239,-80,317,171,-247
2,6051597,-3471,-1694,-557,-165,-239,-77,317,171,-247
2,6051604,-3471,-1694,-557,-165,-239,-77,317,171,-247
2,6051612,-3470,-1694,-549,-162,-243,-87,313,165,-247
2,6051619,-3470,-1694,-549,-162,-243,-87,313,165,-247
2,6051625,-3470,-1694,-549,-162,-243,-87,313,165,-247
2,6051632,-3469,-1692,-556,-161,-236,-86,313,165,-247
2,6051638,-3469,-1692,-556,-161,-236,-86,313,165,-247
2,6051645,-3469,-1692,-556,-161,-236,-86,313,165,-247
2,6051653,-3470,-1693,-554,-164,-237,-82,313,165,-247
2,6051660,-3470,-1693,-554,-164,-237,-82,313,165,-247
2,6051667,-3470,-1691,-556,-164,-238,-86,313,165,-247
2,6051674,-3470,-1691,-556,-164,-238,-86,313,165,-247
2,6051679,-3470,-1691,-556,-164,-238,-86,313,165,-247
2,6051687,-3470,-1691,-556,-164,-238,-86,313,165,-247
2,6051694,-3471,-1691,-555,-164,-238,-82,313,165,-247
2,6051702,-3471,-1691,-555,-164,-238,-82,313,165,-247
2,6051710,-3471,-1695,-555,-161,-237,-83,313,165,-247
2,6051718,-3471,-1695,-555,-161,-237,-83,313,165,-247
2,6051725,-3471,-1695,-555,-161,-237,-83,313,165,-247
2,6051732,-3470,-1692,-553,-155,-240,-86,321,161,-243
2,6051739,-3470,-1692,-553,-155,-240,-86,321,161,-243
2,6051745,-3470,-1692,-553,-155,-240,-86,321,161,-243
2,6051753,-3468,-1695,-556,-156,-242,-82,321,161,-243
2,6051760,-3468,-1695,-556,-156,-242,-82,321,161,-243
2,6051765,-3468,-1695,-556,-156,-242,-82,321,161,-243
2,6051773,-3473,-1691,-550,-161,-238,-90,321,161,-243
2,6051780,-3473,-1691,-550,-161,-238,-90,321,161,-243
2,6051787,-3471,-1691,-553,-161,-249,-88,321,161,-243
2,6051794,-3471,-1691,-553,-161,-249,-88,321,161,-243
2,6051803,-3471,-1691,-553,-161,-249,-88,321,161,-243
2,6051810,-3471,-1692,-554,-164,-243,-88,321,161,-243
2,6051816,-3471,-1692,-554,-164,-243,-88,321,161,-243
2,6051823,-3471,-1692,-554,-164,-243,-88,321,161,-243
2,6051831,-3470,-1695,-557,-159,-245,-86,321,161,-243
2,6051837,-3470,-1695,-557,-159,-245,-86,321,161,-243
2,6051845,-3470,-1695,-557,-159,-245,-86,321,161,-243
2,6051852,-3469,-1694,-557,-165,-252,-84,312,172,-246
2,6051859,-3469,-1694,-557,-165,-252,-84,312,172,-246
2,6051864,-3469,-1694,-557,-165,-252,-84,312,172,-246
2,6051871,-3469,-1696,-554,-161,-241,-86,312,172,-246
2,6051879,-3469,-1696,-554,-161,-241,-86,312,172,-246
2,6051887,-3469,-1696,-554,-161,-241,-86,312,172,-246
2,6051894,-3470,-1692,-550,-160,-243,-88,312,172,-246
2,6051900,-3470,-1692,-550,-160,-243,-88,312,172,-246
2,6051908,-3468,-1693,-555,-165,-243,-89,312,172,-246
2,6051913,-3468,-1693,-555,-165,-243,-89,312,172,-246
2,6051920,-3468,-1693,-555,-165,-243,-89,312,172,-246
2,6051929,-3470,-1693,-554,-171,-238,-83,312,172,-246
2,6051937,-3470,-1693,-554,-171,-238,-83,312,172,-246
2,6051944,-3470,-1693,-554,-171,-238,-83,312,172,-246
2,6051950,-3469,-1693,-555,-162,-241,-83,312,172,-246
2,6051958,-3469,-1693,-555,-162,-241,-83,312,172,-246
2,6051963,-3469,-1693,-555,-162,-241,-83,312,172,-246
2,6051971,-3472,-1692,-557,-160,-240,-86,308,170,-244
2,6051977,-3472,-1692,-557,-160,-240,-86,308,170,-244
2,6051985,-3472,-1692,-557,-160,-240,-86,308,170,-244
2,6051992,-3469,-1693,-552,-161,-239,-79,308,170,-244
2,6051999,-3469,-1693,-552,-161,-239,-79,308,170,-244
2,6052006,-3469,-1693,-552,-161,-239,-79,308,170,-244
2,6052014,-3470,-1692,-551,-160,-240,-81,308,170,-244
2,6052019,-3470,-1692,-551,-160,-240,-81,308,170,-244
2,6052024,-3470,-1692,-551,-160,-240,-81,308,170,-244
2,6052029,-3471,-1693,-556,-160,-237,-82,308,170,-244
2,6052034,-3471,-1693,-556,-160,-237,-82,308,170,-244
2,6052040,-3471,-1693,-556,-160,-237,-82,308,170,-244
2,6052045,-3471,-1693,-556,-160,-237,-82,308,170,-244
2,6052050,-3471,-1690,-560,-165,-242,-82,308,170,-244
2,6052056,-3471,-1690,-560,-165,-242,-82,308,170,-244
2,6052063,-3471,-1690,-560,-165,-242,-82,308,170,-244
2,6052070,-3471,-1693,-556,-160,-245,-83,308,170,-244
2,6052077,-3471,-1693,-556,-160,-245,-83,308,170,-244
2,6052084,-3471,-1693,-556,-160,-245,-83,308,170,-244
2,6052090,-3469,-1692,-557,-162,-241,-88,308,170,-244
2,6052098,-3469,-1692,-557,-162,-241,-88,308,170,-244
2,6052104,-3469,-1692,-557,-162,-241,-88,308,170,-244
2,6052111,-3471,-1692,-552,-164,-243,-80,306,166,-244
2,6052118,-3471,-1692,-552,-164,-243,-80,306,166,-244
2,6052124,-3471,-1692,-552,-164,-243,-80,306,166,-244
2,6052130,-3470,-1690,-558,-157,-244,-88,306,166,-244
2,6052140,-3470,-1690,-558,-157,-244,-88,306,166,-244
2,6052147,-3470,-1690,-558,-157,-244,-88,306,166,-244
2,6052153,-3471,-1692,-552,-172,-247,-85,306,166,-244
2,6052159,-3471,-1692,-552,-172,-247,-85,306,166,-244
2,6052164,-3471,-1692,-552,-172,-247,-85,306,166,-244
2,6052172,-3472,-1693,-556,-159,-243,-92,306,166,-244
2,6052179,-3472,-1693,-556,-159,-243,-92,306,166,-244
2,6052188,-3471,-1691,-555,-166,-242,-86,306,166,-244
2,6052196,-3471,-1691,-555,-166,-242,-86,306,166,-244
2,6052201,-3471,-1691,-555,-166,-242,-86,306,166,-244
2,6052206,-3471,-1691,-555,-166,-242,-86,306,166,-244
2,6052212,-3471,-1691,-555,-166,-242,-86,306,166,-244
2,6052218,-3471,-1691,-555,-166,-242,-86,306,166,-244
2,6052227,-3471,-1691,-555,-166,-242,-86,306,166,-244
2,6052232,-3471,-1692,-553,-155,-240,-79,313,173,-251
2,6052240,-3471,-1692,-553,-155,-240,-79,313,173,-251
2,6052246,-3471,-1692,-553,-155,-240,-79,313,173,-251
2,6052251,-3471,-1693,-546,-160,-241,-81,313,173,-251
2,6052259,-3471,-1693,-546,-160,-241,-81,313,173,-251
2,6052267,-3471,-1693,-546,-160,-241,-81,313,173,-251
2,6052274,-3474,-1692,-552,-157,-241,-86,313,173,-251
2,6052281,-3474,-1692,-552,-157,-241,-86,313,173,-251
2,6052288,-3470,-1694,-552,-159,-245,-84,313,173,-251
2,6052294,-3470,-1694,-552,-159,-245,-84,313,173,-251
2,6052301,-3470,-1694,-552,-159,-245,-84,313,173,-251
2,6052308,-3471,-1695,-552,-168,-238,-80,313,173,-251
2,6052318,-3471,-1695,-552,-168,-238,-80,313,173,-251
2,6052324,-3471,-1695,-552,-168,-238,-80,313,173,-251
2,6052332,-3472,-1692,-555,-162,-239,-85,313,173,-251
2,6052339,-3472,-1692,-555,-162,-239,-85,313,173,-251
2,6052346,-3472,-1692,-555,-162,-239,-85,313,173,-251
2,6052352,-3472,-1694,-550,-170,-238,-85,315,169,-243
2,6052359,-3472,-1694,-550,-170,-238,-85,315,169,-243
2,6052365,-3472,-1694,-550,-170,-238,-85,315,169,-243
2,6052372,-3471,-1698,-552,-158,-242,-87,315,169,-243
2,6052378,-3471,-1698,-552,-158,-242,-87,315,169,-243
2,6052384,-3471,-1698,-552,-158,-242,-87,315,169,-243
2,6052391,-3471,-1698,-552,-158,-242,-87,315,169,-243
2,6052399,-3471,-1698,-552,-158,-242,-87,315,169,-243
2,6052407,-3471,-1698,-552,-158,-242,-87,315,169,-243
2,6052414,-3467,-1693,-554,-159,-246,-91,315,169,-243
2,6052420,-3467,-1693,-554,-159,-246,-91,315,169,-243
2,6052427,-3467,-1693,-554,-159,-246,-91,315,169,-243
2,6052432,-3468,-1694,-550,-160,-245,-83,315,169,-243
2,6052440,-3468,-1694,-550,-160,-245,-83,315,169,-243
2,6052448,-3468,-1694,-550,-160,-245,-83,315,169,-243
2,6052455,-3472,-1695,-550,-164,-243,-84,315,169,-243
2,6052463,-3472,-1695,-550,-164,-243,-84,315,169,-243
2,6052470,-3472,-1695,-550,-164,-243,-84,318,174,-240
2,6052476,-3472,-1695,-550,-164,-243,-84,318,174,-240
2,6052485,-3472,-1695,-550,-164,-243,-84,318,174,-240
2,6052492,-3472,-1696,-553,-160,-242,-87,318,174,-240
2,6052499,-3472,-1696,-553,-160,-242,-87,318,174,-240
2,6052507,-3472,-1696,-553,-160,-242,-87,318,174,-240
2,6052514,-3471,-1696,-556,-165,-245,-80,318,174,-240
2,6052523,-3471,-1696,-556,-165,-245,-80,318,174,-240
2,6052530,-3472,-1693,-552,-156,-234,-92,318,174,-240
2,6052537,-3472,-1693,-552,-156,-234,-92,318,174,-240
2,6052543,-3472,-1693,-552,-156,-234,-92,318,174,-240
2,6052551,-3472,-1691,-559,-157,-231,-89,318,174,-240
2,6052556,-3472,-1691,-559,-157,-231,-89,318,174,-240
2,6052561,-3472,-1691,-559,-157,-231,-89,318,174,-240
2,6052567,-3472,-1691,-559,-157,-231,-89,318,174,-240
2,6052573,-3472,-1692,-554,-152,-249,-78,318,174,-240
2,6052578,-3472,-1692,-554,-152,-249,-78,318,174,-240
2,6052583,-3472,-1692,-554,-152,-249,-78,318,174,-240
2,6052590,-3471,-1692,-551,-162,-243,-75,314,168,-244
2,6052597,-3471,-1692,-551,-162,-243,-75,314,168,-244
2,6052603,-3471,-1692,-551,-162,-243,-75,314,168,-244
2,6052617,-3470,-1695,-548,-160,-239,-81,314,168,-244
2,6052629,-3470,-1695,-555,-163,-245,-90,314,168,-244
2,6052642,-3470,-1695,-555,-163,-245,-90,314,168,-244
2,6052651,-3472,-1692,-549,-160,-230,-88,314,168,-244
2,6052659,-3472,-1692,-549,-160,-230,-88,314,168,-244
2,6052666,-3472,-1692,-549,-160,-230,-88,314,168,-244
2,6052674,-3472,-1691,-549,-168,-233,-84,314,168,-244
2,6052682,-3472,-1691,-549,-168,-233,-84,314,168,-244
2,6052698,-3473,-1694,-558,-164,-241,-83,314,168,-244
2,6052711,-3471,-1694,-553,-164,-241,-85,314,168,-244
2,6052720,-3471,-1694,-553,-164,-241,-85,314,168,-244
2,6052732,-3471,-1694,-551,-158,-234,-84,317,171,-249
2,6052748,-3471,-1694,-551,-158,-234,-84,317,171,-249
2,6052763,-3471,-1690,-554,-163,-231,-86,317,171,-249
2,6052772,-3471,-1693,-553,-159,-244,-90,317,171,-249
2,6052784,-3471,-1693,-553,-159,-244,-90,317,171,-249
2,6052798,-3468,-1693,-554,-164,-234,-93,317,171,-249
2,6052811,-3470,-1695,-557,-166,-239,-88,317,171,-249
2,6052820,-3470,-1695,-557,-166,-239,-88,317,171,-249
2,6052834,-3472,-1694,-553,-156,-242,-88,317,171,-249
2,6052848,-3472,-1694,-553,-156,-242,-88,317,171,-249
2,6052862,-3472,-1691,-547,-154,-252,-83,316,162,-252
2,6052871,-3471,-1693,-554,-164,-246,-81,316,162,-252
2,6052883,-3471,-1693,-554,-164,-246,-81,316,162,-252
2,6052896,-3473,-1693,-551,-161,-240,-85,316,162,-252
2,6052910,-3472,-1692,-553,-153,-242,-79,316,162,-252
2,6052922,-3472,-1692,-553,-153,-242,-79,316,162,-252
2,6052935,-3473,-1693,-555,-149,-232,-80,316,162,-252
2,6052947,-3473,-1693,-555,-149,-232,-80,316,162,-252
2,6052961,-3472,-1691,-555,-160,-244,-83,316,162,-252
2,6052974,-3471,-1693,-554,-163,-238,-86,318,170,-242
2,6052986,-3471,-1693,-554,-163,-238,-86,318,170,-242
2,6053000,-3470,-1692,-553,-163,-243,-87,318,170,-242
2,6053014,-3468,-1693,-552,-160,-242,-79,318,170,-242
2,6053022,-3468,-1693,-552,-160,-242,-79,318,170,-242
2,6053030,-3471,-1691,-551,-165,-235,-89,318,170,-242
2,6053039,-3471,-1691,-551,-165,-235,-89,318,170,-242
2,6053047,-3471,-1691,-551,-165,-235,-89,318,170,-242
2,6053055,-3471,-1693,-555,-162,-241,-85,318,170,-242
2,6053063,-3471,-1693,-555,-162,-241,-85,318,170,-242
2,6053071,-3471,-1693,-554,-163,-237,-88,318,170,-242
2,6053080,-3471,-1693,-554,-163,-237,-88,318,170,-242
2,6053088,-3471,-1693,-554,-163,-237,-88,318,170,-242
2,6053096,-3470,-1694,-556,-156,-243,-91,316,168,-246
2,6053103,-3470,-1694,-556,-156,-243,-91,316,168,-246
2,6053111,-3471,-1694,-556,-159,-235,-87,316,168,-246
2,6053120,-3471,-1694,-556,-159,-235,-87,316,168,-246
2,6053128,-3471,-1694,-556,-159,-235,-87,316,168,-246
2,6053137,-3473,-1695,-553,-166,-237,-92,316,168,-246
2,6053144,-3473,-1695,-553,-166,-237,-92,316,168,-246
2,6053153,-3474,-1694,-554,-168,-242,-88,316,168,-246
2,6053161,-3474,-1694,-554,-168,-242,-88,316,168,-246
2,6053170,-3473,-1695,-552,-162,-243,-85,316,168,-246
2,6053180,-3473,-1695,-552,-162,-243,-85,316,168,-246
2,6053193,-3471,-1693,-555,-167,-232,-87,316,168,-246
2,6053204,-3471,-1693,-555,-167,-232,-87,316,168,-246
2,6053219,-3471,-1693,-555,-162,-242,-83,318,172,-238
2,6053232,-3471,-1695,-554,-164,-244,-92,318,172,-238
2,6053246,-3471,-1695,-554,-164,-244,-92,318,172,-238
2,6053256,-3470,-1692,-559,-171,-248,-87,318,172,-238
2,6053266,-3470,-1692,-559,-171,-248,-87,318,172,-238
2,6053275,-3472,-1693,-549,-161,-239,-89,318,172,-238
2,6053283,-3472,-1693,-549,-161,-239,-89,318,172,-238
2,6053292,-3471,-1695,-553,-167,-246,-85,318,172,-238
2,6053302,-3471,-1695,-553,-167,-246,-85,318,172,-238
2,6053314,-3472,-1690,-554,-164,-245,-84,318,172,-238
2,6053323,-3472,-1690,-554,-164,-245,-84,318,172,-238
2,6053336,-3472,-1692,-557,-162,-236,-85,318,172,-238
2,6053349,-3473,-1691,-554,-161,-238,-85,318,172,-238
2,6053362,-3473,-1691,-554,-161,-238,-85,309,167,-229
2,6053372,-3470,-1696,-553,-161,-233,-89,309,167,-229
2,6053386,-3470,-1696,-553,-161,-233,-89,309,167,-229
2,6053401,-3470,-1692,-554,-161,-243,-89,309,167,-229
2,6053416,-3472,-1692,-553,-165,-242,-78,309,167,-229
2,6053425,-3472,-1692,-553,-165,-242,-78,309,167,-229
2,6053437,-3473,-1692,-553,-163,-243,-77,309,167,-229
2,6053451,-3468,-1690,-556,-155,-239,-80,309,167,-229
2,6053466,-3468,-1690,-556,-155,-239,-80,309,167,-229
2,6053474,-3469,-1692,-550,-157,-245,-88,308,168,-248
2,6053487,-3469,-1692,-550,-157,-245,-88,308,168,-248
2,6053500,-3473,-1695,-554,-162,-243,-86,308,168,-248
2,6053515,-3469,-1692,-554,-161,-239,-81,308,168,-248
2,6053524,-3469,-1692,-554,-161,-239,-81,308,168,-248
2,6053536,-3470,-1690,-556,-165,-237,-79,308,168,-248
2,6053549,-3470,-1690,-556,-165,-237,-79,308,168,-248
2,6053557,-3470,-1693,-554,-163,-230,-81,308,168,-248
2,6053565,-3470,-1693,-554,-163,-230,-81,308,168,-248
2,6053573,-3472,-1692,-558,-165,-242,-86,308,168,-248
2,6053581,-3472,-1692,-558,-165,-242,-86,308,168,-248
2,6053590,-3471,-1693,-552,-163,-240,-77,319,169,-245
2,6053604,-3471,-1693,-552,-163,-240,-77,319,169,-245
2,6053615,-3472,-1692,-551,-161,-241,-80,319,169,-245
2,6053624,-3472,-1692,-551,-161,-241,-80,319,169,-245
2,6053632,-3472,-1694,-553,-168,-236,-77,319,169,-245
2,6053639,-3472,-1694,-553,-168,-236,-77,319,169,-245
2,6053647,-3472,-1694,-553,-168,-236,-77,319,169,-245
2,6053654,-3470,-1692,-556,-161,-240,-84,319,169,-245
2,6053661,-3470,-1692,-556,-161,-240,-84,319,169,-245
2,6053668,-3470,-1692,-556,-161,-240,-84,319,169,-245
2,6053677,-3471,-1693,-555,-155,-235,-89,319,169,-245
2,6053684,-3471,-1693,-555,-155,-235,-89,319,169,-245
2,6053692,-3469,-1692,-556,-164,-244,-87,319,169,-245
2,6053698,-3469,-1692,-556,-164,-244,-87,319,169,-245
2,6053705,-3469,-1692,-556,-164,-244,-87,319,169,-245
2,6053712,-3473,-1692,-552,-166,-242,-89,316,170,-246
2,6053720,-3473,-1692,-552,-166,-242,-89,316,170,-246
2,6053725,-3473,-1692,-552,-166,-242,-89,316,170,-246
2,6053731,-3472,-1693,-557,-164,-246,-90,316,170,-246
2,6053739,-3472,-1693,-557,-164,-246,-90,316,170,-246
2,6053746,-3472,-1693,-557,-164,-246,-90,316,170,-246
2,6053752,-3471,-1695,-551,-162,-239,-86,316,170,-246
2,6053760,-3471,-1695,-551,-162,-239,-86,316,170,-246
2,6053767,-3471,-1695,-551,-162,-239,-86,316,170,-246
2,6053774,-3470,-1693,-557,-163,-234,-82,316,170,-246
2,6053781,-3470,-1693,-557,-163,-234,-82,316,170,-246
2,6053789,-3470,-1693,-557,-163,-234,-82,316,170,-246
2,6053797,-3470,-1694,-556,-166,-235,-79,316,170,-246
2,6053805,-3470,-1694,-556,-166,-235,-79,316,170,-246
2,6053814,-3473,-1694,-558,-163,-240,-85,316,170,-246
2,6053821,-3473,-1694,-558,-163,-240,-85,316,170,-246
2,6053827,-3473,-1694,-558,-163,-240,-85,316,170,-246
2,6053834,-3468,-1693,-548,-165,-241,-84,313,169,-247
2,6053842,-3468,-1693,-548,-165,-241,-84,313,169,-247
2,6053850,-3468,-1693,-548,-165,-241,-84,313,169,-247
2,6053856,-3473,-1694,-553,-167,-240,-81,313,169,-247
2,6053864,-3473,-1694,-553,-167,-240,-81,313,169,-247
2,6053872,-3470,-1696,-555,-170,-240,-84,313,169,-247
2,6053880,-3470,-1696,-555,-170,-240,-84,313,169,-247
2,6053886,-3470,-1696,-555,-170,-240,-84,313,169,-247
2,6053893,-3472,-1695,-551,-167,-236,-87,313,169,-247
2,6053900,-3472,-1695,-551,-167,-236,-87,313,169,-247
2,6053908,-3472,-1695,-551,-167,-236,-87,313,169,-247
2,6053914,-3472,-1694,-551,-164,-238,-85,313,169,-247
2,6053920,-3472,-1694,-551,-164,-238,-85,313,169,-247
2,6053927,-3472,-1694,-551,-164,-238,-85,313,169,-247
2,6053933,-3472,-1692,-550,-167,-239,-78,313,169,-247
2,6053938,-3472,-1692,-550,-167,-239,-78,313,169,-247
2,6053943,-3472,-1692,-550,-167,-239,-78,313,169,-247
2,6053950,-3470,-1691,-555,-158,-237,-78,313,169,-247
2,6053956,-3470,-1691,-555,-158,-237,-78,313,169,-247
2,6053963,-3470,-1691,-555,-158,-237,-78,313,169,-247
2,6053969,-3472,-1689,-552,-162,-240,-86,312,168,-250
2,6053976,-3472,-1689,-552,-162,-240,-86,312,168,-250
2,6053983,-3472,-1689,-552,-162,-240,-86,312,168,-250
2,6053991,-3472,-1692,-552,-159,-241,-86,312,168,-250
2,6053998,-3472,-1692,-552,-159,-241,-86,312,168,-250
2,6054003,-3472,-1692,-552,-159,-241,-86,312,168,-250
2,6054009,-3473,-1691,-554,-157,-239,-91,312,168,-250
2,6054018,-3473,-1691,-554,-157,-239,-91,312,168,-250
2,6054023,-3473,-1691,-554,-157,-239,-91,312,168,-250
2,6054029,-3473,-1691,-554,-157,-239,-91,312,168,-250
2,6054034,-3476,-1693,-557,-166,-240,-88,312,168,-250
2,6054039,-3476,-1693,-557,-166,-240,-88,312,168,-250
2,6054044,-3476,-1693,-557,-166,-240,-88,312,168,-250
2,6054049,-3476,-1693,-557,-166,-240,-88,312,168,-250
2,6054053,-3472,-1694,-555,-166,-236,-81,312,168,-250
2,6054060,-3472,-1694,-555,-166,-236,-81,312,168,-250
2,6054067,-3472,-1694,-555,-166,-236,-81,312,168,-250
2,6054074,-3471,-1691,-557,-160,-235,-82,312,168,-250
2,6054082,-3471,-1691,-557,-160,-235,-82,312,168,-250
2,6054090,-3471,-1694,-551,-166,-239,-80,315,167,-245
2,6054096,-3471,-1694,-551,-166,-239,-80,315,167,-245
2,6054104,-3471,-1694,-551,-166,-239,-80,315,167,-245
2,6054111,-3469,-1691,-552,-160,-239,-77,315,167,-245
2,6054118,-3469,-1691,-552,-160,-239,-77,315,167,-245
2,6054126,-3469,-1691,-552,-160,-239,-77,315,167,-245
2,6054132,-3470,-1693,-559,-156,-233,-86,315,167,-245
2,6054139,-3470,-1693,-559,-156,-233,-86,315,167,-245
2,6054146,-3470,-1693,-559,-156,-233,-86,315,167,-245
2,6054153,-3470,-1693,-559,-156,-233,-86,315,167,-245
2,6054159,-3470,-1693,-559,-156,-233,-86,315,167,-245
2,6054166,-3470,-1693,-559,-156,-233,-86,315,167,-245
2,6054174,-3473,-1690,-554,-156,-240,-87,315,167,-245
2,6054180,-3473,-1690,-554,-156,-240,-87,315,167,-245
2,6054188,-3473,-1690,-554,-156,-240,-87,315,167,-245
2,6054194,-3469,-1693,-557,-161,-238,-89,315,167,-245
2,6054201,-3469,-1693,-557,-161,-238,-89,315,167,-245
2,6054208,-3469,-1693,-557,-161,-238,-89,315,167,-245
2,6054214,-3471,-1691,-556,-162,-240,-87,318,166,-242
2,6054222,-3471,-1691,-556,-162,-240,-87,318,166,-242
2,6054230,-3471,-1691,-556,-162,-240,-87,318,166,-242
2,6054236,-3470,-1693,-552,-164,-236,-96,318,166,-242
2,6054242,-3470,-1693,-552,-164,-236,-96,318,166,-242
2,6054249,-3470,-1693,-552,-164,-236,-96,318,166,-242
2,6054256,-3473,-1691,-555,-169,-239,-89,318,166,-242
2,6054262,-3473,-1691,-555,-169,-239,-89,318,166,-242
2,6054268,-3473,-1691,-555,-169,-239,-89,318,166,-242
2,6054276,-3470,-1692,-556,-164,-242,-85,318,166,-242
2,6054284,-3470,-1692,-556,-164,-242,-85,318,166,-242
2,6054291,-3470,-1692,-559,-163,-241,-85,318,166,-242
2,6054299,-3470,-1692,-559,-163,-241,-85,318,166,-242
2,6054304,-3470,-1692,-559,-163,-241,-85,318,166,-242
2,6054311,-3472,-1692,-553,-162,-240,-91,318,166,-242
2,6054320,-3472,-1692,-553,-162,-240,-91,318,166,-242
2,6054326,-3472,-1692,-553,-162,-240,-91,318,166,-242
2,6054333,-3472,-1693,-550,-161,-246,-82,320,172,-238
2,6054339,-3472,-1693,-550,-161,-246,-82,320,172,-238
2,6054346,-3472,-1693,-550,-161,-246,-82,320,172,-238
2,6054353,-3472,-1693,-550,-161,-246,-82,320,172,-238
2,6054360,-3472,-1693,-550,-161,-246,-82,320,172,-238
2,6054368,-3472,-1693,-550,-161,-246,-82,320,172,-238
2,6054375,-3466,-1694,-560,-163,-228,-84,320,172,-238
2,6054381,-3466,-1694,-560,-163,-228,-84,320,172,-238
2,6054388,-3466,-1694,-560,-163,-228,-84,320,172,-238
2,6054394,-3472,-1693,-556,-164,-237,-84,320,172,-238
2,6054403,-3472,-1693,-556,-164,-237,-84,320,172,-238
2,6054410,-3472,-1693,-556,-164,-237,-84,320,172,-238
2,6054415,-3470,-1692,-557,-163,-239,-85,320,172,-238
2,6054420,-3470,-1692,-557,-163,-239,-85,320,172,-238
2,6054425,-3470,-1692,-557,-163,-239,-85,320,172,-238
2,6054432,-3472,-1692,-554,-158,-247,-83,320,172,-238
2,6054438,-3472,-1692,-554,-158,-247,-83,320,172,-238
2,6054444,-3472,-1692,-554,-158,-247,-83,320,172,-238
2,6054452,-3469,-1690,-550,-162,-245,-87,318,172,-242
2,6054459,-3469,-1690,-550,-162,-245,-87,318,172,-242
2,6054467,-3469,-1690,-550,-162,-245,-87,318,172,-242
2,6054473,-3469,-1692,-550,-168,-243,-86,318,172,-242
2,6054480,-3469,-1692,-550,-168,-243,-86,318,172,-242
2,6054487,-3469,-1692,-550,-168,-243,-86,318,172,-242
2,6054493,-3471,-1694,-553,-161,-237,-86,318,172,-242
2,6054501,-3471,-1694,-553,-161,-237,-86,318,172,-242
2,6054508,-3471,-1694,-553,-161,-237,-86,318,172,-242
2,6054516,-3469,-1695,-550,-163,-239,-85,318,172,-242
2,6054524,-3469,-1695,-550,-163,-239,-85,318,172,-242
2,6054530,-3469,-1695,-550,-163,-239,-85,318,172,-242
2,6054537,-3472,-1692,-556,-165,-237,-85,318,172,-242
2,6054545,-3472,-1692,-556,-165,-237,-85,318,172,-242
2,6054552,-3472,-1695,-556,-162,-241,-77,318,172,-242
2,6054557,-3472,-1695,-556,-162,-241,-77,318,172,-242
2,6054562,-3472,-1695,-556,-162,-241,-77,318,172,-242
2,6054567,-3472,-1695,-556,-162,-241,-77,318,172,-242
2,6054573,-3473,-1694,-551,-160,-236,-83,318,172,-242
2,6054579,-3473,-1694,-551,-160,-236,-83,318,172,-242
2,6054587,-3473,-1694,-551,-160,-236,-83,318,172,-242
2,6054594,-3473,-1694,-551,-160,-236,-83,309,175,-249
2,6054600,-3473,-1694,-551,-160,-236,-83,309,175,-249
2,6054607,-3473,-1694,-551,-160,-236,-83,309,175,-249
2,6054612,-3471,-1694,-549,-158,-239,-84,309,175,-249
2,6054619,-3471,-1694,-549,-158,-239,-84,309,175,-249
2,6054629,-3471,-1694,-549,-158,-239,-84,309,175,-249
2,6054643,-3471,-1693,-555,-163,-242,-90,309,175,-249
2,6054656,-3472,-1694,-555,-158,-240,-80,309,175,-249
2,6054668,-3472,-1694,-555,-158,-240,-80,309,175,-249
2,6054679,-3469,-1693,-553,-159,-243,-92,309,175,-249
2,6054692,-3472,-1693,-551,-162,-244,-87,309,175,-249
2,6054706,-3472,-1693,-551,-162,-244,-87,309,175,-249
2,6054719,-3471,-1692,-554,-159,-237,-86,317,169,-247
2,6054729,-3471,-1692,-554,-159,-237,-86,317,169,-247
2,6054743,-3468,-1691,-550,-166,-240,-84,317,169,-247
2,6054756,-3470,-1690,-551,-171,-242,-88,317,169,-247
2,6054769,-3470,-1690,-551,-171,-242,-88,317,169,-247
2,6054778,-3471,-1690,-558,-168,-243,-81,317,169,-247
2,6054792,-3472,-1694,-553,-163,-243,-84,317,169,-247
2,6054804,-3472,-1694,-553,-163,-243,-84,317,169,-247
2,6054817,-3469,-1691,-554,-162,-250,-78,317,169,-247
2,6054831,-3470,-1692,-552,-162,-250,-77,318,168,-246
2,6054844,-3470,-1692,-552,-162,-250,-77,318,168,-246
2,6054857,-3468,-1692,-554,-154,-244,-80,318,168,-246
2,6054870,-3468,-1692,-554,-154,-244,-80,318,168,-246
2,6054883,-3472,-1691,-556,-156,-243,-86,318,168,-246
2,6054896,-3472,-1692,-552,-166,-238,-87,318,168,-246
2,6054908,-3472,-1692,-552,-166,-238,-87,318,168,-246
2,6054923,-3473,-1692,-556,-163,-250,-88,318,168,-246
2,6054935,-3471,-1693,-557,-161,-246,-86,318,168,-246
2,6054947,-3471,-1693,-557,-161,-246,-86,318,168,-246
2,6054960,-3471,-1690,-553,-161,-241,-91,308,168,-250
2,6054971,-3472,-1691,-549,-162,-235,-95,308,168,-250
2,6054984,-3472,-1691,-549,-162,-235,-95,308,168,-250
2,6054996,-3469,-1694,-552,-169,-246,-90,308,168,-250
2,6055011,-3471,-1693,-554,-164,-245,-81,308,168,-250
2,6055022,-3471,-1693,-554,-164,-245,-81,308,168,-250
2,6055030,-3471,-1693,-554,-164,-245,-81,308,168,-250
2,6055037,-3468,-1692,-559,-170,-238,-84,308,168,-250
2,6055046,-3468,-1692,-559,-170,-238,-84,308,168,-250
2,6055054,-3470,-1692,-557,-164,-242,-84,308,168,-250
2,6055062,-3470,-1692,-557,-164,-242,-84,308,168,-250
2,6055070,-3472,-1693,-555,-159,-242,-79,308,168,-250
2,6055078,-3472,-1693,-555,-159,-242,-79,319,167,-245
2,6055087,-3472,-1693,-555,-159,-242,-79,319,167,-245
2,6055094,-3469,-1691,-555,-161,-243,-81,319,167,-245
2,6055102,-3469,-1691,-555,-161,-243,-81,319,167,-245
2,6055110,-3469,-1691,-555,-161,-243,-81,319,167,-245
2,6055118,-3471,-1691,-555,-157,-245,-83,319,167,-245
2,6055127,-3471,-1691,-555,-157,-245,-83,319,167,-245
2,6055136,-3474,-1692,-553,-160,-241,-77,319,167,-245
2,6055144,-3474,-1692,-553,-160,-241,-77,319,167,-245
2,6055151,-3473,-1692,-557,-160,-240,-85,319,167,-245
2,6055159,-3473,-1692,-557,-160,-240,-85,319,167,-245
2,6055170,-3473,-1692,-557,-160,-240,-85,319,167,-245
2,6055181,-3470,-1694,-561,-162,-244,-90,319,167,-245
2,6055193,-3471,-1692,-554,-162,-248,-89,319,167,-245
2,6055206,-3471,-1692,-554,-162,-248,-89,319,167,-245
2,6055220,-3472,-1690,-557,-158,-249,-89,309,169,-243
2,6055232,-3471,-1692,-555,-156,-237,-91,309,169,-243
2,6055243,-3471,-1692,-555,-156,-237,-91,309,169,-243
2,6055258,-3473,-1694,-554,-164,-240,-80,309,169,-243
2,6055271,-3472,-1693,-554,-160,-241,-72,309,169,-243
2,6055282,-3472,-1693,-554,-160,-241,-72,309,169,-243
2,6055296,-3470,-1693,-557,-157,-241,-83,309,169,-243
2,6055310,-3470,-1693,-557,-157,-241,-83,309,169,-243
2,6055324,-3473,-1693,-552,-160,-247,-90,309,169,-243
2,6055335,-3472,-1694,-547,-165,-236,-87,312,174,-250
2,6055347,-3472,-1694,-547,-165,-236,-87,312,174,-250
2,6055359,-3473,-1694,-552,-164,-245,-81,312,174,-250
2,6055372,-3467,-1694,-557,-161,-242,-92,312,174,-250
2,6055383,-3467,-1694,-557,-161,-242,-92,312,174,-250
2,6055396,-3470,-1693,-555,-157,-237,-90,312,174,-250
2,6055408,-3470,-1693,-555,-157,-237,-90,312,174,-250
2,6055422,-3467,-1690,-558,-154,-243,-82,312,174,-250
2,6055434,-3468,-1692,-554,-157,-247,-81,312,174,-250
2,6055447,-3468,-1692,-554,-157,-247,-81,312,174,-250
2,6055459,-3471,-1689,-550,-165,-244,-83,317,171,-249
2,6055471,-3470,-1693,-553,-163,-241,-82,317,171,-249
2,6055484,-3470,-1693,-553,-163,-241,-82,317,171,-249
2,6055498,-3471,-1696,-559,-169,-243,-83,317,171,-249
2,6055510,-3471,-1696,-559,-169,-243,-83,317,171,-249
2,6055523,-3466,-1693,-555,-164,-242,-84,317,171,-249
2,6055536,-3469,-1694,-556,-164,-245,-84,317,171,-249
2,6055549,-3469,-1694,-556,-164,-245,-84,317,171,-249
2,6055559,-3469,-1694,-558,-160,-247,-84,317,171,-249
2,6055567,-3469,-1694,-558,-160,-247,-84,317,171,-249
2,6055575,-3469,-1691,-553,-165,-247,-83,320,168,-250
2,6055583,-3469,-1691,-553,-165,-247,-83,320,168,-250
2,6055596,-3470,-1694,-552,-160,-253,-82,320,168,-250
2,6055606,-3470,-1694,-552,-160,-253,-82,320,168,-250
2,6055616,-3470,-1694,-553,-166,-248,-81,320,168,-250
2,6055630,-3470,-1694,-553,-166,-248,-81,320,168,-250
2,6055636,-3469,-1691,-557,-164,-247,-82,320,168,-250
2,6055644,-3469,-1691,-557,-164,-247,-82,320,168,-250
2,6055650,-3469,-1691,-557,-164,-247,-82,320,168,-250
2,6055657,-3473,-1693,-553,-161,-242,-88,320,168,-250
2,6055665,-3473,-1693,-553,-161,-242,-88,320,168,-250
2,6055672,-3472,-1694,-556,-165,-235,-89,320,168,-250
2,6055680,-3472,-1694,-556,-165,-235,-89,320,168,-250
2,6055686,-3472,-1694,-556,-165,-235,-89,320,168,-250
2,6055694,-3472,-1696,-552,-161,-235,-81,320,166,-240
2,6055701,-3472,-1696,-552,-161,-235,-81,320,166,-240
2,6055708,-3472,-1696,-552,-161,-235,-81,320,166,-240
2,6055715,-3472,-1693,-555,-165,-241,-82,320,166,-240
2,6055724,-3472,-1693,-555,-165,-241,-82,320,166,-240
2,6055730,-3472,-1693,-555,-165,-241,-82,320,166,-240
2,6055737,-3470,-1691,-556,-162,-242,-83,320,166,-240
2,6055744,-3470,-1691,-556,-162,-242,-83,320,166,-240
2,6055751,-3471,-1693,-551,-163,-246,-87,320,166,-240
2,6055756,-3471,-1693,-551,-163,-246,-87,320,166,-240
2,6055761,-3471,-1693,-551,-163,-246,-87,320,166,-240
2,6055767,-3471,-1693,-551,-163,-246,-87,320,166,-240
2,6055774,-3472,-1693,-551,-157,-239,-85,320,166,-240
2,6055781,-3472,-1693,-551,-157,-239,-85,320,166,-240
2,6055788,-3472,-1693,-551,-157,-239,-85,320,166,-240
2,6055795,-3470,-1692,-553,-165,-239,-78,320,166,-240
2,6055801,-3470,-1692,-553,-165,-239,-78,320,166,-240
2,6055810,-3470,-1692,-553,-165,-239,-78,320,166,-240
2,6055816,-3470,-1695,-549,-166,-240,-75,316,176,-238
2,6055823,-3470,-1695,-549,-166,-240,-75,316,176,-238
2,6055829,-3470,-1695,-549,-166,-240,-75,316,176,-238
2,6055834,-3470,-1694,-548,-162,-242,-87,316,176,-238
2,6055841,-3470,-1694,-548,-162,-242,-87,316,176,-238
2,6055849,-3470,-1694,-548,-162,-242,-87,316,176,-238
2,6055856,-3470,-1691,-552,-159,-241,-83,316,176,-238
2,6055863,-3470,-1691,-552,-159,-241,-83,316,176,-238
2,6055868,-3470,-1691,-552,-159,-241,-83,316,176,-238
2,6055875,-3470,-1691,-552,-159,-241,-83,316,176,-238
2,6055882,-3470,-1691,-552,-159,-241,-83,316,176,-238
2,6055891,-3469,-1693,-554,-157,-244,-79,316,176,-238
2,6055900,-3469,-1693,-554,-157,-244,-79,316,176,-238
2,6055906,-3469,-1693,-554,-157,-244,-79,316,176,-238
2,6055913,-3468,-1692,-555,-164,-243,-87,316,176,-238
2,6055919,-3468,-1692,-555,-164,-243,-87,316,176,-238
2,6055925,-3468,-1692,-555,-164,-243,-87,316,176,-238
2,6055931,-3468,-1693,-555,-172,-246,-88,316,176,-238
2,6055940,-3468,-1693,-555,-172,-246,-88,316,176,-238
2,6055947,-3468,-1693,-555,-172,-246,-88,316,176,-238
2,6055951,-3471,-1691,-550,-168,-241,-90,313,169,-238
2,6055959,-3471,-1691,-550,-168,-241,-90,313,169,-241
2,6055966,-3471,-1691,-550,-168,-241,-90,313,169,-241
2,6055973,-3471,-1695,-554,-167,-243,-89,313,169,-241
2,6055980,-3471,-1695,-554,-167,-243,-89,313,169,-241
2,6055987,-3471,-1695,-554,-167,-243,-89,313,169,-241
2,6055994,-3473,-1693,-555,-160,-238,-80,313,169,-241
2,6056001,-3473,-1693,-555,-160,-238,-80,313,169,-241
2,6056009,-3473,-1693,-555,-160,-238,-80,313,169,-241
2,6056016,-3468,-1694,-559,-158,-248,-82,313,169,-241
2,6056022,-3468,-1694,-559,-158,-248,-82,313,169,-241
2,6056028,-3468,-1694,-559,-158,-248,-82,313,169,-241
2,6056033,-3472,-1693,-556,-162,-243,-89,313,169,-241
2,6056038,-3472,-1693,-556,-162,-243,-89,313,169,-241
2,6056043,-3472,-1693,-556,-162,-243,-89,313,169,-241
2,6056047,-3472,-1693,-556,-162,-243,-89,313,169,-241
2,6056053,-3471,-1692,-556,-165,-241,-88,313,169,-241
2,6056058,-3471,-1692,-556,-165,-241,-88,313,169,-241
2,6056067,-3471,-1692,-556,-165,-241,-88,313,169,-241
2,6056074,-3474,-1693,-554,-167,-236,-83,325,167,-239
2,6056081,-3474,-1693,-554,-167,-236,-83,325,167,-239
2,6056088,-3474,-1693,-554,-167,-236,-83,325,167,-239
2,6056095,-3471,-1692,-556,-163,-253,-78,325,167,-239
2,6056101,-3471,-1692,-556,-163,-253,-78,325,167,-239
2,6056110,-3471,-1692,-556,-163,-253,-78,325,167,-239
2,6056118,-3473,-1692,-551,-160,-242,-80,325,167,-239
2,6056125,-3473,-1692,-551,-160,-242,-80,325,167,-239
2,6056133,-3471,-1692,-555,-163,-241,-86,325,167,-239
2,6056140,-3471,-1692,-555,-163,-241,-86,325,167,-239
2,6056147,-3471,-1692,-555,-163,-241,-86,325,167,-239
2,6056153,-3471,-1694,-557,-166,-240,-92,325,167,-239
2,6056160,-3471,-1694,-557,-166,-240,-92,325,167,-239
2,6056167,-3471,-1694,-557,-166,-240,-92,325,167,-239
2,6056173,-3471,-1696,-557,-160,-240,-93,325,167,-239
2,6056180,-3471,-1696,-557,-160,-240,-93,325,167,-239
2,6056187,-3471,-1696,-557,-160,-240,-93,325,167,-239
2,6056195,-3466,-1696,-552,-163,-233,-88,315,163,-247
2,6056201,-3466,-1696,-552,-163,-233,-88,315,163,-247
2,6056210,-3466,-1696,-552,-163,-233,-88,315,163,-247
2,6056216,-3470,-1691,-553,-168,-239,-85,315,163,-247
2,6056224,-3470,-1691,-553,-168,-239,-85,315,163,-247
2,6056231,-3470,-1691,-553,-168,-239,-85,315,163,-247
2,6056239,-3476,-1694,-551,-166,-236,-81,315,163,-247
2,6056246,-3476,-1694,-551,-166,-236,-81,315,163,-247
2,6056254,-3470,-1694,-556,-161,-235,-83,315,163,-247
2,6056260,-3470,-1694,-556,-161,-235,-83,315,163,-247
2,6056267,-3470,-1694,-556,-161,-235,-83,315,163,-247
2,6056276,-3468,-1694,-559,-164,-237,-83,315,163,-247
2,6056283,-3468,-1694,-559,-164,-237,-83,315,163,-247
2,6056289,-3468,-1694,-559,-164,-237,-83,315,163,-247
2,6056295,-3474,-1693,-555,-160,-241,-79,315,163,-247
2,6056302,-3474,-1693,-555,-160,-241,-79,315,163,-247
2,6056310,-3474,-1693,-555,-160,-241,-79,315,163,-247
2,6056317,-3472,-1692,-552,-154,-233,-88,317,169,-243
2,6056324,-3472,-1692,-552,-154,-233,-88,317,169,-243
2,6056331,-3472,-1692,-552,-154,-233,-88,317,169,-243
2,6056339,-3470,-1692,-550,-164,-230,-84,317,169,-243
2,6056346,-3470,-1692,-550,-164,-230,-84,317,169,-243
2,6056351,-3470,-1692,-550,-164,-230,-84,317,169,-243
2,6056356,-3472,-1693,-550,-164,-235,-87,317,169,-243
2,6056361,-3472,-1693,-550,-164,-235,-87,317,169,-243
2,6056369,-3472,-1693,-550,-164,-235,-87,317,169,-243
2,6056376,-3472,-1693,-551,-162,-237,-85,317,169,-243
2,6056383,-3472,-1693,-551,-162,-237,-85,317,169,-243
2,6056389,-3472,-1693,-551,-162,-237,-85,317,169,-243
2,6056394,-3473,-1693,-554,-162,-233,-81,317,169,-243
2,6056402,-3473,-1693,-554,-162,-233,-81,317,169,-243
2,6056409,-3473,-1693,-554,-162,-233,-81,317,169,-243
2,6056417,-3472,-1692,-558,-166,-235,-83,317,169,-243
2,6056423,-3472,-1692,-558,-166,-235,-83,317,169,-243
2,6056431,-3472,-1692,-558,-166,-235,-83,317,169,-243
2,6056437,-3472,-1693,-554,-161,-230,-95,325,165,-245
2,6056443,-3472,-1693,-554,-161,-230,-95,325,165,-245
2,6056449,-3472,-1693,-554,-161,-230,-95,325,165,-245
2,6056456,-3471,-1693,-556,-169,-230,-90,325,165,-245
2,6056463,-3471,-1693,-556,-169,-230,-90,325,165,-245
2,6056471,-3471,-1693,-556,-169,-230,-90,325,165,-245
2,6056478,-3470,-1690,-552,-159,-232,-84,325,165,-245
2,6056484,-3470,-1690,-552,-159,-232,-84,325,165,-245
2,6056491,-3470,-1690,-552,-159,-232,-84,325,165,-245
