imu,time,ax,ay,az,gx,gy,gz,mx,my,mz
1,6896043,353,-1394,123,-4309,-2480,-1348,351,35,-131
1,6896048,353,-1394,123,-4309,-2480,-1348,351,35,-131
1,6896052,353,-1394,123,-4309,-2480,-1348,351,35,-131
1,6896057,357,-1397,87,-4289,-2497,-1405,351,35,-131
1,6896063,357,-1397,87,-4289,-2497,-1405,351,35,-131
1,6896068,357,-1397,87,-4289,-2497,-1405,351,35,-131
1,6896073,357,-1397,87,-4289,-2497,-1405,351,35,-131
1,6896078,364,-1386,34,-4217,-2511,-1443,351,35,-131
1,6896083,364,-1386,34,-4217,-2511,-1443,351,35,-131
1,6896089,364,-1386,34,-4217,-2511,-1443,351,35,-131
1,6896094,364,-1386,34,-4217,-2511,-1443,351,35,-131
1,6896099,353,-1388,1,-4100,-2522,-1483,351,35,-131
1,6896104,353,-1388,1,-4100,-2522,-1483,351,35,-131
1,6896109,353,-1388,1,-4100,-2522,-1483,351,35,-131
1,6896115,353,-1388,1,-4100,-2522,-1483,351,35,-131
1,6896120,354,-1393,-17,-3951,-2527,-1509,351,35,-131
1,6896126,354,-1393,-17,-3951,-2527,-1509,351,35,-131
1,6896135,354,-1393,-17,-3951,-2527,-1509,351,35,-131
1,6896141,348,-1412,-75,-3832,-2543,-1538,355,37,-139
1,6896148,348,-1412,-75,-3832,-2543,-1538,355,37,-139
1,6896155,348,-1412,-75,-3832,-2543,-1538,355,37,-139
1,6896162,358,-1416,-95,-3757,-2549,-1553,355,37,-139
1,6896169,358,-1416,-95,-3757,-2549,-1553,355,37,-139
1,6896177,369,-1420,-139,-3686,-2574,-1565,355,37,-139
1,6896185,369,-1420,-139,-3686,-2574,-1565,355,37,-139
1,6896192,369,-1420,-139,-3686,-2574,-1565,355,37,-139
1,6896199,356,-1401,-190,-3564,-2577,-1572,355,37,-139
1,6896204,356,-1401,-190,-3564,-2577,-1572,355,37,-139
1,6896210,356,-1401,-190,-3564,-2577,-1572,355,37,-139
1,6896219,376,-1416,-210,-3400,-2587,-1574,355,37,-139
1,6896227,376,-1416,-210,-3400,-2587,-1574,355,37,-139
1,6896236,391,-1459,-244,-3268,-2601,-1548,355,37,-139
1,6896243,391,-1459,-244,-3268,-2601,-1548,355,37,-139
1,6896250,391,-1459,-244,-3268,-2601,-1548,355,37,-139
1,6896258,397,-1463,-283,-3198,-2615,-1464,376,36,-152
1,6896263,397,-1463,-283,-3198,-2615,-1464,376,36,-152
1,6896268,397,-1463,-283,-3198,-2615,-1464,376,36,-152
1,6896276,377,-1428,-298,-3157,-2650,-1372,376,36,-152
1,6896285,377,-1428,-298,-3157,-2650,-1372,376,36,-152
1,6896293,377,-1428,-298,-3157,-2650,-1372,376,36,-152
1,6896301,360,-1385,-390,-3054,-2655,-1333,376,36,-152
1,6896308,360,-1385,-390,-3054,-2655,-1333,376,36,-152
1,6896315,360,-1385,-390,-3054,-2655,-1333,376,36,-152
1,6896320,379,-1427,-366,-2839,-2667,-1334,376,36,-152
1,6896327,379,-1427,-366,-2839,-2667,-1334,376,36,-152
1,6896335,379,-1427,-366,-2839,-2667,-1334,376,36,-152
1,6896343,381,-1449,-401,-2732,-2674,-1302,376,36,-152
1,6896349,381,-1449,-401,-2732,-2674,-1302,376,36,-152
1,6896356,389,-1453,-408,-2690,-2696,-1241,376,36,-152
1,6896363,389,-1453,-408,-2690,-2696,-1241,376,36,-152
1,6896368,389,-1453,-408,-2690,-2696,-1241,376,36,-152
1,6896375,389,-1453,-408,-2690,-2696,-1241,376,36,-152
1,6896381,373,-1447,-431,-2658,-2707,-1175,386,32,-146
1,6896388,373,-1447,-431,-2658,-2707,-1175,386,32,-146
1,6896395,373,-1447,-431,-2658,-2707,-1175,386,32,-146
1,6896401,372,-1427,-502,-2590,-2730,-1143,386,32,-146
1,6896406,372,-1427,-502,-2590,-2730,-1143,386,32,-146
1,6896411,372,-1427,-502,-2590,-2730,-1143,386,32,-146
1,6896416,358,-1411,-484,-2451,-2738,-1138,386,32,-146
1,6896421,358,-1411,-484,-2451,-2738,-1138,386,32,-146
1,6896427,358,-1411,-484,-2451,-2738,-1138,386,32,-146
1,6896432,358,-1411,-484,-2451,-2738,-1138,386,32,-146
1,6896437,365,-1428,-495,-2335,-2741,-1141,386,32,-146
1,6896442,365,-1428,-495,-2335,-2741,-1141,386,32,-146
1,6896449,365,-1428,-495,-2335,-2741,-1141,386,32,-146
1,6896456,365,-1428,-495,-2335,-2741,-1141,386,32,-146
1,6896462,365,-1428,-495,-2335,-2741,-1141,386,32,-146
1,6896470,365,-1428,-495,-2335,-2741,-1141,386,32,-146
1,6896478,379,-1441,-541,-2217,-2767,-1127,386,32,-146
1,6896484,379,-1441,-541,-2217,-2767,-1127,386,32,-146
1,6896491,379,-1441,-541,-2217,-2767,-1127,386,32,-146
1,6896496,385,-1440,-577,-2138,-2781,-1097,386,32,-146
1,6896504,385,-1440,-577,-2138,-2781,-1097,386,32,-146
1,6896510,385,-1440,-577,-2138,-2781,-1097,386,32,-146
1,6896517,372,-1427,-583,-2042,-2801,-1057,394,36,-156
1,6896524,372,-1427,-583,-2042,-2801,-1057,394,36,-156
1,6896532,372,-1427,-583,-2042,-2801,-1057,394,36,-156
1,6896539,361,-1429,-587,-1940,-2809,-1046,394,36,-156
1,6896546,361,-1429,-587,-1940,-2809,-1046,394,36,-156
1,6896552,361,-1429,-587,-1940,-2809,-1046,394,36,-156
1,6896561,364,-1439,-615,-1867,-2812,-1046,394,36,-156
1,6896566,364,-1439,-615,-1867,-2812,-1046,394,36,-156
1,6896574,364,-1439,-615,-1867,-2812,-1046,394,36,-156
1,6896580,365,-1427,-607,-1805,-2824,-1031,394,36,-156
1,6896587,365,-1427,-607,-1805,-2824,-1031,394,36,-156
1,6896594,365,-1427,-607,-1805,-2824,-1031,394,36,-156
1,6896602,366,-1424,-637,-1724,-2835,-1040,394,36,-156
1,6896609,366,-1424,-637,-1724,-2835,-1040,394,36,-156
1,6896616,370,-1432,-613,-1613,-2843,-1043,394,36,-156
1,6896624,370,-1432,-613,-1613,-2843,-1043,394,36,-156
1,6896632,370,-1432,-613,-1613,-2843,-1043,394,36,-156
1,6896640,355,-1435,-591,-1539,-2857,-1049,397,43,-171
1,6896648,355,-1435,-591,-1539,-2857,-1049,397,43,-171
1,6896662,343,-1432,-595,-1491,-2853,-1078,397,43,-171
1,6896671,343,-1432,-595,-1491,-2853,-1078,397,43,-171
1,6896681,341,-1414,-622,-1427,-2855,-1118,397,43,-171
1,6896691,341,-1414,-622,-1427,-2855,-1118,397,43,-171
1,6896700,341,-1421,-589,-1315,-2860,-1165,397,43,-171
1,6896709,341,-1421,-589,-1315,-2860,-1165,397,43,-171
1,6896722,334,-1440,-584,-1210,-2860,-1207,397,43,-171
1,6896733,334,-1440,-584,-1210,-2860,-1207,397,43,-171
1,6896744,356,-1445,-595,-1135,-2869,-1235,397,43,-171
1,6896752,356,-1445,-595,-1135,-2869,-1235,397,43,-171
1,6896760,344,-1439,-602,-1075,-2880,-1256,396,38,-168
1,6896769,344,-1439,-602,-1075,-2880,-1256,396,38,-168
1,6896780,356,-1432,-609,-985,-2883,-1273,396,38,-168
1,6896792,356,-1432,-609,-985,-2883,-1273,396,38,-168
1,6896803,355,-1441,-599,-889,-2892,-1291,396,38,-168
1,6896818,351,-1447,-588,-807,-2903,-1314,396,38,-168
1,6896831,351,-1447,-588,-807,-2903,-1314,396,38,-168
1,6896843,348,-1446,-602,-741,-2913,-1342,396,38,-168
1,6896856,348,-1446,-602,-741,-2913,-1342,396,38,-168
1,6896868,347,-1442,-608,-683,-2921,-1355,396,38,-168
1,6896882,347,-1452,-598,-618,-2924,-1366,396,34,-174
1,6896896,347,-1452,-598,-618,-2924,-1366,396,34,-174
1,6896906,340,-1440,-602,-547,-2931,-1396,396,34,-174
1,6896916,340,-1440,-602,-547,-2931,-1396,396,34,-174
1,6896928,347,-1445,-610,-476,-2944,-1438,396,34,-174
1,6896943,347,-1445,-610,-476,-2944,-1438,396,34,-174
1,6896951,347,-1445,-610,-476,-2944,-1438,396,34,-174
1,6896964,363,-1449,-629,-287,-2950,-1461,396,34,-174
1,6896976,358,-1444,-622,-212,-2962,-1459,396,34,-174
1,6896988,358,-1444,-622,-212,-2962,-1459,396,34,-174
1,6897000,365,-1444,-636,-109,-2968,-1457,404,38,-176
1,6897012,365,-1444,-636,-109,-2968,-1457,404,38,-176
1,6897027,368,-1443,-626,2,-2987,-1447,404,38,-176
1,6897038,363,-1450,-644,92,-2999,-1441,404,38,-176
1,6897046,363,-1450,-644,92,-2999,-1441,404,38,-176
1,6897056,384,-1446,-642,182,-3003,-1436,404,38,-176
1,6897067,384,-1446,-642,182,-3003,-1436,404,38,-176
1,6897081,379,-1454,-624,287,-3021,-1419,404,38,-176
1,6897088,379,-1454,-624,287,-3021,-1419,404,38,-176
1,6897097,384,-1462,-633,375,-3031,-1385,404,38,-176
1,6897107,384,-1462,-633,375,-3031,-1385,404,38,-176
1,6897117,379,-1457,-624,454,-3044,-1369,404,38,-176
1,6897129,379,-1457,-624,454,-3044,-1369,404,38,-176
1,6897143,377,-1458,-609,514,-3065,-1345,413,23,-183
1,6897153,377,-1458,-609,514,-3065,-1345,413,23,-183
1,6897163,380,-1463,-599,566,-3083,-1316,413,23,-183
1,6897174,380,-1463,-599,566,-3083,-1316,413,23,-183
1,6897187,380,-1463,-599,566,-3083,-1316,413,23,-183
1,6897200,390,-1465,-579,652,-3108,-1270,413,23,-183
1,6897214,390,-1465,-579,652,-3108,-1270,413,23,-183
1,6897225,400,-1486,-592,694,-3121,-1239,413,23,-183
1,6897240,401,-1489,-570,704,-3135,-1188,413,23,-183
1,6897253,401,-1489,-570,704,-3135,-1188,413,23,-183
1,6897265,384,-1481,-540,700,-3158,-1139,411,49,-173
1,6897277,370,-1479,-525,686,-3169,-1116,411,49,-173
1,6897290,370,-1479,-525,686,-3169,-1116,411,49,-173
1,6897303,385,-1482,-558,680,-3177,-1098,411,49,-173
1,6897315,385,-1482,-558,680,-3177,-1098,411,49,-173
1,6897328,371,-1483,-540,674,-3190,-1083,411,49,-173
1,6897337,386,-1486,-524,660,-3206,-1063,411,49,-173
1,6897345,386,-1486,-524,660,-3206,-1063,411,49,-173
1,6897353,386,-1486,-524,660,-3206,-1063,411,49,-173
1,6897361,384,-1492,-527,644,-3221,-1043,411,49,-173
1,6897371,384,-1492,-527,644,-3221,-1043,411,49,-173
1,6897381,318,-1483,-462,612,-3227,-1027,399,37,-171
1,6897389,318,-1483,-462,612,-3227,-1027,399,37,-171
1,6897398,378,-1522,-530,443,-3238,-1017,399,37,-171
1,6897406,378,-1522,-530,443,-3238,-1017,399,37,-171
1,6897415,378,-1522,-530,443,-3238,-1017,399,37,-171
1,6897423,369,-1497,-515,259,-3257,-1000,399,37,-171
1,6897431,369,-1497,-515,259,-3257,-1000,399,37,-171
1,6897439,375,-1486,-518,204,-3263,-983,399,37,-171
1,6897447,375,-1486,-518,204,-3263,-983,399,37,-171
1,6897456,375,-1486,-518,204,-3263,-983,399,37,-171
1,6897463,386,-1495,-578,181,-3263,-972,399,37,-171
1,6897471,386,-1495,-578,181,-3263,-972,399,37,-171
1,6897479,383,-1488,-541,180,-3280,-958,399,37,-171
1,6897488,383,-1488,-541,180,-3280,-958,399,37,-171
1,6897499,383,-1488,-569,170,-3280,-951,387,37,-175
1,6897508,383,-1488,-569,170,-3280,-951,387,37,-175
1,6897518,371,-1491,-578,151,-3284,-960,387,37,-175
1,6897526,371,-1491,-578,151,-3284,-960,387,37,-175
1,6897537,378,-1487,-534,123,-3291,-968,387,37,-175
1,6897546,378,-1487,-534,123,-3291,-968,387,37,-175
1,6897556,378,-1487,-534,123,-3291,-968,387,37,-175
1,6897564,377,-1502,-575,68,-3289,-977,387,37,-175
1,6897573,377,-1502,-575,68,-3289,-977,387,37,-175
1,6897586,381,-1494,-573,6,-3301,-972,387,37,-175
1,6897599,386,-1491,-591,-27,-3304,-957,387,37,-175
1,6897611,386,-1491,-591,-27,-3304,-957,387,37,-175
1,6897619,391,-1488,-626,-42,-3315,-947,387,37,-175
1,6897625,391,-1488,-626,-42,-3315,-947,387,37,-175
1,6897630,391,-1488,-626,-42,-3315,-947,387,37,-175
1,6897635,391,-1488,-626,-42,-3315,-947,387,37,-175
1,6897640,388,-1472,-597,-21,-3317,-939,379,33,-169
1,6897645,388,-1472,-597,-21,-3317,-939,379,33,-169
1,6897651,388,-1472,-597,-21,-3317,-939,379,33,-169
1,6897659,391,-1483,-625,7,-3312,-944,379,33,-169
1,6897667,391,-1483,-625,7,-3312,-944,379,33,-169
1,6897674,391,-1483,-625,7,-3312,-944,379,33,-169
1,6897681,384,-1491,-607,9,-3309,-956,379,33,-169
1,6897688,384,-1491,-607,9,-3309,-956,379,33,-169
1,6897695,384,-1491,-607,9,-3309,-956,379,33,-169
1,6897702,395,-1487,-600,8,-3319,-951,379,33,-169
1,6897709,395,-1487,-600,8,-3319,-951,379,33,-169
1,6897716,395,-1487,-600,8,-3319,-951,379,33,-169
1,6897723,389,-1494,-619,-1,-3320,-944,379,33,-169
1,6897730,389,-1494,-619,-1,-3320,-944,379,33,-169
1,6897736,389,-1494,-619,-1,-3320,-944,379,33,-169
1,6897743,400,-1485,-633,1,-3329,-940,379,33,-169
1,6897752,400,-1485,-633,1,-3329,-940,379,33,-169
1,6897760,407,-1470,-638,38,-3333,-930,375,41,-169
1,6897767,407,-1470,-638,38,-3333,-930,375,41,-169
1,6897772,407,-1470,-638,38,-3333,-930,375,41,-169
1,6897778,420,-1486,-615,119,-3332,-910,375,41,-169
1,6897784,420,-1486,-615,119,-3332,-910,375,41,-169
1,6897789,420,-1486,-615,119,-3332,-910,375,41,-169
1,6897795,420,-1486,-615,119,-3332,-910,375,41,-169
1,6897802,411,-1497,-614,157,-3339,-879,375,41,-169
1,6897809,411,-1497,-614,157,-3339,-879,375,41,-169
1,6897817,404,-1487,-587,160,-3337,-859,375,41,-169
1,6897824,404,-1487,-587,160,-3337,-859,375,41,-169
1,6897830,404,-1487,-587,160,-3337,-859,375,41,-169
1,6897837,412,-1491,-583,162,-3344,-849,375,41,-169
1,6897845,412,-1491,-583,162,-3344,-849,375,41,-169
1,6897852,412,-1491,-583,162,-3344,-849,375,41,-169
1,6897857,409,-1493,-560,180,-3347,-848,375,41,-169
1,6897862,409,-1493,-560,180,-3347,-848,375,41,-169
1,6897868,409,-1493,-560,180,-3347,-848,375,41,-169
1,6897878,411,-1501,-527,192,-3353,-833,384,34,-164
1,6897885,411,-1501,-527,192,-3353,-833,384,34,-164
1,6897893,411,-1501,-527,192,-3353,-833,384,34,-164
1,6897901,423,-1508,-509,196,-3360,-821,384,34,-164
1,6897906,423,-1508,-509,196,-3360,-821,384,34,-164
1,6897913,423,-1508,-509,196,-3360,-821,384,34,-164
1,6897921,423,-1507,-492,189,-3369,-806,384,34,-164
1,6897928,423,-1507,-492,189,-3369,-806,384,34,-164
1,6897935,423,-1507,-492,189,-3369,-806,384,34,-164
1,6897940,427,-1506,-484,184,-3369,-796,384,34,-164
1,6897947,427,-1506,-484,184,-3369,-796,384,34,-164
1,6897953,427,-1506,-484,184,-3369,-796,384,34,-164
1,6897963,422,-1505,-487,183,-3374,-777,384,34,-164
1,6897971,422,-1505,-487,183,-3374,-777,384,34,-164
1,6897979,417,-1499,-451,213,-3383,-765,384,34,-164
1,6897985,417,-1499,-451,213,-3383,-765,384,34,-164
1,6897991,417,-1499,-451,213,-3383,-765,384,34,-164
1,6897999,416,-1511,-451,231,-3395,-754,378,38,-168
1,6898004,416,-1511,-451,231,-3395,-754,378,38,-168
1,6898012,416,-1511,-451,231,-3395,-754,378,38,-168
1,6898019,418,-1518,-455,236,-3398,-735,378,38,-168
1,6898026,418,-1518,-455,236,-3398,-735,378,38,-168
1,6898033,418,-1518,-455,236,-3398,-735,378,38,-168
1,6898041,418,-1515,-458,229,-3410,-718,378,38,-168
1,6898048,418,-1515,-458,229,-3410,-718,378,38,-168
1,6898055,418,-1515,-458,229,-3410,-718,378,38,-168
1,6898062,417,-1513,-455,220,-3413,-698,378,38,-168
1,6898070,417,-1513,-455,220,-3413,-698,378,38,-168
1,6898077,416,-1513,-463,210,-3428,-672,378,38,-168
1,6898084,416,-1513,-463,210,-3428,-672,378,38,-168
1,6898092,416,-1513,-463,210,-3428,-672,378,38,-168
1,6898099,412,-1510,-474,197,-3429,-662,378,38,-168
1,6898105,412,-1510,-474,197,-3429,-662,378,38,-168
1,6898112,412,-1510,-474,197,-3429,-662,378,38,-168
1,6898120,414,-1514,-477,197,-3439,-649,378,38,-168
1,6898127,414,-1514,-477,197,-3439,-649,378,38,-168
1,6898136,414,-1514,-477,197,-3439,-649,378,38,-168
1,6898142,415,-1517,-450,205,-3445,-631,380,48,-166
1,6898149,415,-1517,-450,205,-3445,-631,380,48,-166
1,6898155,415,-1517,-450,205,-3445,-631,380,48,-166
1,6898161,415,-1519,-471,209,-3445,-624,380,48,-166
1,6898169,415,-1519,-471,209,-3445,-624,380,48,-166
1,6898176,415,-1519,-471,209,-3445,-624,380,48,-166
1,6898184,407,-1514,-475,187,-3456,-603,380,48,-166
1,6898191,407,-1514,-475,187,-3456,-603,380,48,-166
1,6898197,413,-1518,-510,192,-3461,-599,380,48,-166
1,6898204,413,-1518,-510,192,-3461,-599,380,48,-166
1,6898212,413,-1518,-510,192,-3461,-599,380,48,-166
1,6898220,412,-1514,-507,198,-3467,-587,380,48,-166
1,6898227,412,-1514,-507,198,-3467,-587,380,48,-166
1,6898234,412,-1514,-507,198,-3467,-587,380,48,-166
1,6898241,417,-1514,-530,207,-3472,-579,380,48,-166
1,6898247,417,-1514,-530,207,-3472,-579,380,48,-166
1,6898253,417,-1514,-530,207,-3472,-579,380,48,-166
1,6898258,414,-1510,-554,210,-3479,-562,385,39,-161
1,6898266,414,-1510,-554,210,-3479,-562,385,39,-161
1,6898272,414,-1510,-554,210,-3479,-562,385,39,-161
1,6898280,406,-1515,-570,225,-3477,-554,385,39,-161
1,6898288,406,-1515,-570,225,-3477,-554,385,39,-161
1,6898294,406,-1515,-570,225,-3477,-554,385,39,-161
1,6898301,416,-1515,-575,241,-3476,-543,385,39,-161
1,6898309,416,-1515,-575,241,-3476,-543,385,39,-161
1,6898317,413,-1511,-593,259,-3478,-532,385,39,-161
1,6898323,413,-1511,-593,259,-3478,-532,385,39,-161
1,6898329,413,-1511,-593,259,-3478,-532,385,39,-161
1,6898338,418,-1511,-621,263,-3485,-529,385,39,-161
1,6898344,418,-1511,-621,263,-3485,-529,385,39,-161
1,6898353,418,-1511,-621,263,-3485,-529,385,39,-161
1,6898360,416,-1505,-627,275,-3483,-511,385,39,-161
1,6898365,416,-1505,-627,275,-3483,-511,385,39,-161
1,6898370,416,-1505,-627,275,-3483,-511,385,39,-161
1,6898375,416,-1505,-627,275,-3483,-511,385,39,-161
1,6898384,424,-1501,-598,311,-3472,-510,378,42,-156
1,6898392,424,-1501,-598,311,-3472,-510,378,42,-156
1,6898398,425,-1510,-595,326,-3474,-506,378,42,-156
1,6898404,425,-1510,-595,326,-3474,-506,378,42,-156
1,6898408,425,-1510,-595,326,-3474,-506,378,42,-156
1,6898414,425,-1510,-595,326,-3474,-506,378,42,-156
1,6898419,423,-1516,-641,323,-3475,-498,378,42,-156
1,6898424,423,-1516,-641,323,-3475,-498,378,42,-156
1,6898430,423,-1516,-641,323,-3475,-498,378,42,-156
1,6898436,423,-1516,-641,323,-3475,-498,378,42,-156
1,6898441,431,-1520,-584,312,-3473,-492,378,42,-156
1,6898449,431,-1520,-584,312,-3473,-492,378,42,-156
1,6898458,430,-1512,-607,303,-3470,-491,378,42,-156
1,6898465,430,-1512,-607,303,-3470,-491,378,42,-156
1,6898472,430,-1512,-607,303,-3470,-491,378,42,-156
1,6898481,429,-1514,-572,294,-3467,-482,378,42,-156
1,6898488,429,-1514,-572,294,-3467,-482,378,42,-156
1,6898493,429,-1514,-572,294,-3467,-482,378,42,-156
1,6898500,436,-1514,-609,279,-3473,-480,383,49,-153
1,6898507,436,-1514,-609,279,-3473,-480,383,49,-153
1,6898514,436,-1514,-609,279,-3473,-480,383,49,-153
1,6898522,439,-1514,-573,271,-3465,-477,383,49,-153
1,6898531,439,-1514,-573,271,-3465,-477,383,49,-153
1,6898537,444,-1514,-584,264,-3478,-470,383,49,-153
1,6898542,444,-1514,-584,264,-3478,-470,383,49,-153
1,6898549,444,-1514,-584,264,-3478,-470,383,49,-153
1,6898556,444,-1514,-584,264,-3478,-470,383,49,-153
1,6898564,444,-1516,-565,259,-3474,-462,383,49,-153
1,6898572,444,-1516,-565,259,-3474,-462,383,49,-153
1,6898581,446,-1511,-585,270,-3472,-453,383,49,-153
1,6898588,446,-1511,-585,270,-3472,-453,383,49,-153
1,6898594,446,-1511,-585,270,-3472,-453,383,49,-153
1,6898603,446,-1518,-539,279,-3462,-436,383,49,-153
1,6898610,446,-1518,-539,279,-3462,-436,383,49,-153
1,6898617,451,-1520,-447,278,-3460,-419,377,59,-163
1,6898622,451,-1520,-447,278,-3460,-419,377,59,-163
1,6898627,451,-1520,-447,278,-3460,-419,377,59,-163
1,6898634,451,-1520,-447,278,-3460,-419,377,59,-163
1,6898643,451,-1522,-457,266,-3477,-409,377,59,-163
1,6898655,451,-1522,-457,266,-3477,-409,377,59,-163
1,6898668,452,-1522,-483,241,-3467,-391,377,59,-163
1,6898677,458,-1520,-527,225,-3482,-373,377,59,-163
1,6898691,458,-1520,-527,225,-3482,-373,377,59,-163
1,6898704,454,-1525,-451,228,-3478,-351,377,59,-163
1,6898717,453,-1521,-485,232,-3485,-324,377,59,-163
1,6898726,453,-1521,-485,232,-3485,-324,377,59,-163
1,6898740,447,-1514,-492,242,-3489,-300,377,59,-163
1,6898753,447,-1514,-492,242,-3489,-300,377,59,-163
1,6898766,446,-1514,-542,240,-3485,-291,383,51,-157
1,6898777,455,-1514,-509,248,-3490,-287,383,51,-157
1,6898788,455,-1514,-509,248,-3490,-287,383,51,-157
1,6898799,451,-1517,-499,252,-3496,-273,383,51,-157
1,6898809,451,-1517,-499,252,-3496,-273,383,51,-157
1,6898824,459,-1515,-496,266,-3496,-262,383,51,-157
1,6898839,453,-1520,-541,284,-3498,-234,383,51,-157
1,6898851,453,-1520,-541,284,-3498,-234,383,51,-157
1,6898864,461,-1523,-535,295,-3495,-209,383,51,-157
1,6898877,447,-1521,-494,290,-3497,-191,393,61,-151
1,6898890,447,-1521,-494,290,-3497,-191,393,61,-151
1,6898903,456,-1505,-512,300,-3497,-179,393,61,-151
1,6898915,456,-1505,-512,300,-3497,-179,393,61,-151
1,6898927,449,-1513,-538,346,-3500,-162,393,61,-151
1,6898940,460,-1519,-547,394,-3500,-145,393,61,-151
1,6898953,460,-1519,-547,394,-3500,-145,393,61,-151
1,6898966,464,-1523,-512,396,-3497,-123,393,61,-151
1,6898979,458,-1524,-497,386,-3497,-107,393,61,-151
1,6898993,458,-1524,-497,386,-3497,-107,393,61,-151
1,6899005,453,-1524,-496,369,-3498,-89,399,63,-151
1,6899014,453,-1524,-496,369,-3498,-89,399,63,-151
1,6899022,453,-1524,-540,359,-3497,-77,399,63,-151
1,6899031,453,-1524,-540,359,-3497,-77,399,63,-151
1,6899040,457,-1522,-554,340,-3497,-57,399,63,-151
1,6899053,457,-1522,-554,340,-3497,-57,399,63,-151
1,6899062,457,-1520,-478,340,-3497,-30,399,63,-151
1,6899075,457,-1520,-478,340,-3497,-30,399,63,-151
1,6899089,462,-1514,-513,329,-3497,-20,399,63,-151
1,6899102,455,-1522,-524,320,-3496,-11,399,63,-151
1,6899112,455,-1522,-524,320,-3496,-11,399,63,-151
1,6899125,458,-1506,-557,331,-3496,-6,388,50,-142
1,6899141,453,-1515,-509,361,-3494,-8,388,50,-142
1,6899154,453,-1515,-509,361,-3494,-8,388,50,-142
1,6899164,455,-1525,-514,360,-3493,-10,388,50,-142
1,6899176,455,-1525,-514,360,-3493,-10,388,50,-142
1,6899190,457,-1524,-530,340,-3492,-2,388,50,-142
1,6899204,464,-1527,-545,312,-3483,7,388,50,-142
1,6899213,464,-1527,-545,312,-3483,7,388,50,-142
1,6899226,463,-1527,-534,289,-3491,19,388,50,-142
1,6899238,474,-1519,-515,274,-3484,33,388,50,-142
1,6899252,474,-1519,-515,274,-3484,33,388,50,-142
1,6899262,459,-1511,-541,280,-3490,34,400,62,-138
1,6899275,459,-1511,-541,280,-3490,34,400,62,-138
1,6899289,461,-1515,-538,304,-3481,41,400,62,-138
1,6899297,467,-1525,-545,304,-3479,27,400,62,-138
1,6899309,467,-1525,-545,304,-3479,27,400,62,-138
1,6899323,466,-1528,-521,272,-3476,29,400,62,-138
1,6899332,466,-1528,-521,272,-3476,29,400,62,-138
1,6899344,473,-1516,-533,259,-3474,37,400,62,-138
1,6899358,470,-1511,-566,270,-3471,48,400,62,-138
1,6899372,470,-1511,-566,270,-3471,48,400,62,-138
1,6899381,473,-1504,-570,295,-3468,65,393,79,-141
1,6899394,473,-1504,-570,295,-3468,65,393,79,-141
1,6899402,472,-1519,-570,308,-3465,62,393,79,-141
1,6899409,472,-1519,-570,308,-3465,62,393,79,-141
1,6899419,474,-1516,-548,309,-3467,63,393,79,-141
1,6899427,474,-1516,-548,309,-3467,63,393,79,-141
1,6899435,474,-1516,-548,309,-3467,63,393,79,-141
1,6899443,473,-1510,-570,301,-3458,55,393,79,-141
1,6899451,473,-1510,-570,301,-3458,55,393,79,-141
1,6899459,477,-1508,-594,313,-3450,73,393,79,-141
1,6899467,477,-1508,-594,313,-3450,73,393,79,-141
1,6899476,477,-1508,-594,313,-3450,73,393,79,-141
1,6899487,484,-1512,-577,339,-3443,80,393,79,-141
1,6899497,481,-1516,-547,360,-3444,91,407,69,-135
1,6899511,481,-1516,-547,360,-3444,91,407,69,-135
1,6899524,487,-1507,-545,354,-3443,112,407,69,-135
1,6899537,490,-1510,-567,342,-3440,124,407,69,-135
1,6899548,490,-1510,-567,342,-3440,124,407,69,-135
1,6899558,489,-1512,-545,327,-3427,136,407,69,-135
1,6899567,489,-1512,-545,327,-3427,136,407,69,-135
1,6899574,489,-1512,-545,327,-3427,136,407,69,-135
1,6899582,494,-1511,-537,318,-3422,148,407,69,-135
1,6899592,494,-1511,-537,318,-3422,148,407,69,-135
1,6899601,494,-1511,-537,318,-3422,148,407,69,-135
1,6899612,494,-1511,-537,318,-3422,148,407,69,-135
1,6899620,506,-1529,-558,294,-3418,195,401,79,-133
1,6899629,506,-1529,-558,294,-3418,195,401,79,-133
1,6899636,506,-1529,-558,294,-3418,195,401,79,-133
1,6899641,502,-1517,-550,293,-3413,248,401,79,-133
1,6899647,502,-1517,-550,293,-3413,248,401,79,-133
1,6899652,502,-1517,-550,293,-3413,248,401,79,-133
1,6899658,489,-1504,-529,281,-3411,287,401,79,-133
1,6899665,489,-1504,-529,281,-3411,287,401,79,-133
1,6899673,489,-1504,-529,281,-3411,287,401,79,-133
1,6899679,502,-1507,-544,264,-3399,299,401,79,-133
1,6899687,502,-1507,-544,264,-3399,299,401,79,-133
1,6899693,502,-1507,-544,264,-3399,299,401,79,-133
1,6899699,498,-1504,-551,259,-3395,309,401,79,-133
1,6899707,498,-1504,-551,259,-3395,309,401,79,-133
1,6899715,498,-1504,-551,259,-3395,309,401,79,-133
1,6899722,499,-1509,-547,246,-3391,324,401,79,-133
1,6899729,499,-1509,-547,246,-3391,324,401,79,-133
1,6899737,497,-1504,-542,244,-3386,337,401,79,-133
1,6899745,497,-1504,-542,244,-3386,337,401,81,-127
1,6899752,497,-1504,-542,244,-3386,337,401,81,-127
1,6899761,496,-1504,-532,241,-3381,336,401,81,-127
1,6899767,496,-1504,-532,241,-3381,336,401,81,-127
1,6899774,496,-1504,-532,241,-3381,336,401,81,-127
1,6899782,503,-1516,-537,235,-3372,360,401,81,-127
1,6899789,503,-1516,-537,235,-3372,360,401,81,-127
1,6899796,502,-1506,-528,221,-3363,378,401,81,-127
1,6899806,502,-1506,-528,221,-3363,378,401,81,-127
1,6899813,502,-1506,-528,221,-3363,378,401,81,-127
1,6899821,504,-1502,-526,194,-3366,400,401,81,-127
1,6899827,504,-1502,-526,194,-3366,400,401,81,-127
1,6899834,504,-1502,-526,194,-3366,400,401,81,-127
1,6899841,505,-1497,-532,195,-3360,420,401,81,-127
1,6899849,505,-1497,-532,195,-3360,420,401,81,-127
1,6899856,505,-1497,-532,195,-3360,420,401,81,-127
1,6899863,500,-1500,-525,208,-3349,423,401,81,-127
1,6899871,500,-1500,-525,208,-3349,423,401,81,-127
1,6899877,504,-1501,-514,212,-3347,433,415,75,-119
1,6899886,504,-1501,-514,212,-3347,433,415,75,-119
1,6899893,504,-1501,-514,212,-3347,433,415,75,-119
1,6899900,501,-1503,-517,207,-3341,442,415,75,-119
1,6899906,501,-1503,-517,207,-3341,442,415,75,-119
1,6899913,501,-1503,-517,207,-3341,442,415,75,-119
1,6899921,503,-1490,-512,215,-3336,458,415,75,-119
1,6899929,503,-1490,-512,215,-3336,458,415,75,-119
1,6899935,503,-1490,-512,215,-3336,458,415,75,-119
1,6899942,497,-1493,-498,224,-3341,470,415,75,-119
1,6899948,497,-1493,-498,224,-3341,470,415,75,-119
1,6899956,497,-1493,-498,224,-3341,470,415,75,-119
1,6899963,505,-1493,-490,224,-3330,482,415,75,-119
1,6899972,505,-1493,-490,224,-3330,482,415,75,-119
1,6899980,501,-1487,-493,229,-3330,483,415,75,-119
1,6899987,501,-1487,-493,229,-3330,483,415,75,-119
1,6899994,501,-1487,-493,229,-3330,483,415,75,-119
1,6900001,499,-1482,-504,237,-3332,489,420,94,-108
1,6900008,499,-1482,-504,237,-3332,489,420,94,-108
1,6900015,499,-1482,-504,237,-3332,489,420,94,-108
1,6900023,491,-1481,-473,274,-3331,488,420,94,-108
1,6900030,491,-1481,-473,274,-3331,488,420,94,-108
1,6900038,485,-1486,-458,289,-3320,479,420,94,-108
1,6900044,485,-1486,-458,289,-3320,479,420,94,-108
1,6900051,485,-1486,-458,289,-3320,479,420,94,-108
1,6900058,495,-1493,-470,283,-3321,473,420,94,-108
1,6900067,495,-1493,-470,283,-3321,473,420,94,-108
1,6900073,495,-1493,-470,283,-3321,473,420,94,-108
1,6900080,493,-1498,-487,274,-3316,474,420,94,-108
1,6900087,493,-1498,-487,274,-3316,474,420,94,-108
1,6900096,493,-1498,-487,274,-3316,474,420,94,-108
1,6900103,503,-1487,-471,263,-3310,470,420,94,-108
1,6900109,503,-1487,-471,263,-3310,470,420,94,-108
1,6900116,503,-1487,-471,263,-3310,470,420,94,-108
1,6900123,499,-1487,-488,246,-3312,485,418,96,-114
1,6900129,499,-1487,-488,246,-3312,485,418,96,-114
1,6900136,499,-1487,-488,246,-3312,485,418,96,-114
1,6900143,509,-1491,-505,228,-3303,498,418,96,-114
1,6900148,509,-1491,-505,228,-3303,498,418,96,-114
1,6900155,509,-1491,-505,228,-3303,498,418,96,-114
1,6900163,502,-1495,-519,221,-3295,498,418,96,-114
1,6900170,502,-1495,-519,221,-3295,498,418,96,-114
1,6900177,504,-1494,-514,210,-3290,512,418,96,-114
1,6900183,504,-1494,-514,210,-3290,512,418,96,-114
1,6900191,504,-1494,-514,210,-3290,512,418,96,-114
1,6900198,498,-1489,-526,200,-3289,528,418,96,-114
1,6900205,498,-1489,-526,200,-3289,528,418,96,-114
1,6900211,498,-1489,-526,200,-3289,528,418,96,-114
1,6900219,498,-1489,-526,200,-3289,528,418,96,-114
1,6900226,498,-1489,-526,200,-3289,528,418,96,-114
1,6900233,498,-1489,-526,200,-3289,528,418,96,-114
1,6900240,503,-1497,-537,206,-3274,540,423,101,-105
1,6900248,503,-1497,-537,206,-3274,540,423,101,-105
1,6900256,503,-1497,-537,206,-3274,540,423,101,-105
1,6900263,505,-1487,-530,195,-3264,558,423,101,-105
1,6900269,505,-1487,-530,195,-3264,558,423,101,-105
1,6900275,505,-1487,-530,195,-3264,558,423,101,-105
1,6900282,510,-1495,-514,162,-3260,572,423,101,-105
1,6900289,510,-1495,-514,162,-3260,572,423,101,-105
1,6900296,510,-1495,-514,162,-3260,572,423,101,-105
1,6900303,508,-1493,-521,119,-3253,578,423,101,-105
1,6900310,508,-1493,-521,119,-3253,578,423,101,-105
1,6900317,508,-1493,-521,119,-3253,578,423,101,-105
1,6900324,512,-1484,-543,92,-3238,592,423,101,-105
1,6900331,512,-1484,-543,92,-3238,592,423,101,-105
1,6900336,512,-1484,-543,92,-3238,592,423,101,-105
1,6900343,508,-1478,-523,103,-3229,595,423,101,-105
1,6900350,508,-1478,-523,103,-3229,595,423,101,-105
1,6900358,517,-1492,-509,111,-3224,602,423,101,-105
1,6900365,517,-1492,-509,111,-3224,602,423,101,-105
1,6900373,517,-1492,-509,111,-3224,602,423,101,-105
1,6900379,510,-1491,-497,88,-3230,614,424,94,-94
1,6900386,510,-1491,-497,88,-3230,614,424,94,-94
1,6900395,510,-1491,-497,88,-3230,614,424,94,-94
1,6900400,518,-1484,-507,65,-3219,628,424,94,-94
1,6900405,518,-1484,-507,65,-3219,628,424,94,-94
1,6900410,518,-1484,-507,65,-3219,628,424,94,-94
1,6900415,518,-1484,-507,65,-3219,628,424,94,-94
1,6900420,517,-1476,-500,56,-3206,641,424,94,-94
1,6900425,517,-1476,-500,56,-3206,641,424,94,-94
1,6900430,517,-1476,-500,56,-3206,641,424,94,-94
1,6900435,517,-1476,-500,56,-3206,641,424,94,-94
1,6900442,521,-1470,-492,79,-3203,649,424,94,-94
1,6900450,521,-1470,-492,79,-3203,649,424,94,-94
1,6900457,509,-1477,-480,93,-3195,664,424,94,-94
1,6900463,509,-1477,-480,93,-3195,664,424,94,-94
1,6900469,509,-1477,-480,93,-3195,664,424,94,-94
1,6900477,509,-1477,-480,93,-3195,664,424,94,-94
1,6900485,519,-1474,-487,97,-3189,674,424,94,-94
1,6900491,519,-1474,-487,97,-3189,674,424,94,-94
1,6900497,513,-1477,-473,90,-3181,678,424,94,-94
1,6900504,513,-1477,-473,90,-3181,678,430,108,-100
1,6900512,513,-1477,-473,90,-3181,678,430,108,-100
1,6900517,518,-1468,-485,93,-3179,690,430,108,-100
1,6900526,518,-1468,-485,93,-3179,690,430,108,-100
1,6900533,518,-1468,-485,93,-3179,690,430,108,-100
1,6900541,515,-1466,-474,115,-3174,696,430,108,-100
1,6900547,515,-1466,-474,115,-3174,696,430,108,-100
1,6900554,515,-1466,-474,115,-3174,696,430,108,-100
1,6900561,526,-1475,-501,143,-3162,713,430,108,-100
1,6900568,526,-1475,-501,143,-3162,713,430,108,-100
1,6900575,526,-1475,-501,143,-3162,713,430,108,-100
1,6900582,511,-1479,-477,134,-3156,723,430,108,-100
1,6900588,511,-1479,-477,134,-3156,723,430,108,-100
1,6900595,511,-1479,-477,134,-3156,723,430,108,-100
1,6900601,523,-1478,-475,130,-3148,739,430,108,-100
1,6900610,523,-1478,-475,130,-3148,739,430,108,-100
1,6900617,523,-1478,-475,130,-3148,739,430,108,-100
1,6900622,518,-1478,-482,117,-3136,766,429,111,-79
1,6900627,518,-1478,-482,117,-3136,766,429,111,-79
1,6900633,518,-1478,-482,117,-3136,766,429,111,-79
1,6900637,513,-1477,-482,101,-3127,788,429,111,-79
1,6900644,513,-1477,-482,101,-3127,788,429,111,-79
1,6900653,513,-1477,-482,101,-3127,788,429,111,-79
1,6900661,518,-1476,-481,88,-3119,797,429,111,-79
1,6900669,518,-1476,-481,88,-3119,797,429,111,-79
1,6900677,518,-1476,-481,88,-3119,797,429,111,-79
1,6900685,518,-1470,-475,70,-3114,805,429,111,-79
1,6900695,518,-1470,-475,70,-3114,805,429,111,-79
1,6900705,517,-1471,-470,55,-3113,814,429,111,-79
1,6900715,517,-1471,-470,55,-3113,814,429,111,-79
1,6900723,515,-1469,-489,46,-3096,818,429,111,-79
1,6900734,515,-1469,-489,46,-3096,818,429,111,-79
1,6900743,511,-1468,-484,48,-3097,826,428,108,-86
1,6900754,511,-1468,-484,48,-3097,826,428,108,-86
1,6900766,514,-1466,-481,47,-3084,846,428,108,-86
1,6900780,514,-1473,-481,31,-3073,857,428,108,-86
1,6900792,514,-1473,-481,31,-3073,857,428,108,-86
1,6900804,512,-1472,-483,-5,-3066,871,428,108,-86
1,6900817,512,-1472,-483,-5,-3066,871,428,108,-86
1,6900829,519,-1460,-517,-29,-3054,892,428,108,-86
1,6900842,515,-1459,-498,-25,-3051,889,428,108,-86
1,6900855,515,-1459,-498,-25,-3051,889,428,108,-86
1,6900869,523,-1463,-506,-23,-3033,899,428,108,-86
1,6900881,517,-1468,-500,-33,-3020,909,435,115,-79
1,6900889,517,-1468,-500,-33,-3020,909,435,115,-79
1,6900901,516,-1462,-527,-52,-3019,913,435,115,-79
1,6900915,516,-1462,-527,-52,-3019,913,435,115,-79
1,6900929,516,-1462,-509,-43,-3003,930,435,115,-79
1,6900939,513,-1465,-518,-39,-2997,933,435,115,-79
1,6900951,513,-1465,-518,-39,-2997,933,435,115,-79
1,6900967,518,-1460,-522,-37,-2978,933,435,115,-79
1,6900980,519,-1455,-534,-41,-2969,941,435,115,-79
1,6900989,519,-1455,-534,-41,-2969,941,435,115,-79
1,6901002,519,-1455,-529,-34,-2964,946,439,121,-73
1,6901016,519,-1455,-529,-34,-2964,946,439,121,-73
1,6901029,526,-1460,-547,-17,-2952,957,439,121,-73
1,6901039,529,-1467,-546,-3,-2946,971,439,121,-73
1,6901052,529,-1467,-546,-3,-2946,971,439,121,-73
1,6901065,521,-1461,-550,-1,-2926,977,439,121,-73
1,6901078,516,-1458,-553,-18,-2913,982,439,121,-73
1,6901089,516,-1458,-553,-18,-2913,982,439,121,-73
1,6901101,520,-1461,-546,-36,-2905,999,439,121,-73
1,6901112,520,-1461,-546,-36,-2905,999,439,121,-73
1,6901125,520,-1461,-546,-36,-2905,999,438,122,-72
1,6901138,527,-1460,-560,-69,-2881,1003,438,122,-72
1,6901152,527,-1460,-560,-69,-2881,1003,438,122,-72
1,6901164,527,-1460,-560,-69,-2881,1003,438,122,-72
1,6901176,527,-1460,-560,-69,-2881,1003,438,122,-72
1,6901190,524,-1457,-539,-93,-2852,1006,438,122,-72
1,6901202,520,-1455,-531,-116,-2843,1016,438,122,-72
1,6901215,520,-1455,-531,-116,-2843,1016,438,122,-72
1,6901227,524,-1456,-530,-141,-2832,1014,438,122,-72
1,6901240,535,-1460,-530,-178,-2816,1030,435,121,-67
1,6901254,535,-1460,-530,-178,-2816,1030,435,121,-67
1,6901266,527,-1455,-513,-215,-2802,1034,435,121,-67
1,6901274,527,-1455,-513,-215,-2802,1034,435,121,-67
1,6901282,537,-1447,-539,-244,-2790,1029,435,121,-67
1,6901291,537,-1447,-539,-244,-2790,1029,435,121,-67
1,6901299,527,-1432,-518,-233,-2780,1033,435,121,-67
1,6901308,527,-1432,-518,-233,-2780,1033,435,121,-67
1,6901320,544,-1447,-515,-204,-2768,1033,435,121,-67
1,6901331,544,-1447,-515,-204,-2768,1033,435,121,-67
1,6901345,531,-1453,-502,-209,-2754,1039,435,121,-67
1,6901356,531,-1453,-502,-209,-2754,1039,435,121,-67
1,6901370,535,-1445,-479,-236,-2745,1055,430,126,-66
1,6901383,536,-1447,-473,-265,-2724,1066,430,126,-66
1,6901396,536,-1447,-473,-265,-2724,1066,430,126,-66
1,6901404,535,-1438,-477,-285,-2715,1075,430,126,-66
1,6901411,535,-1438,-477,-285,-2715,1075,430,126,-66
1,6901420,539,-1433,-486,-297,-2697,1088,430,126,-66
1,6901428,539,-1433,-486,-297,-2697,1088,430,126,-66
1,6901436,539,-1433,-486,-297,-2697,1088,430,126,-66
1,6901443,534,-1425,-488,-287,-2697,1089,430,126,-66
1,6901451,534,-1425,-488,-287,-2697,1089,430,126,-66
1,6901460,542,-1424,-443,-264,-2685,1093,430,126,-66
1,6901468,542,-1424,-443,-264,-2685,1093,430,126,-66
1,6901477,542,-1424,-443,-264,-2685,1093,430,126,-66
1,6901485,536,-1436,-457,-250,-2668,1101,430,126,-66
1,6901496,536,-1436,-457,-250,-2668,1101,430,126,-66
1,6901509,539,-1432,-443,-260,-2657,1108,441,125,-51
1,6901521,530,-1431,-449,-280,-2647,1120,441,125,-51
1,6901533,530,-1431,-449,-280,-2647,1120,441,125,-51
1,6901542,534,-1427,-436,-288,-2627,1119,441,125,-51
1,6901555,534,-1427,-436,-288,-2627,1119,441,125,-51
1,6901567,541,-1426,-442,-296,-2620,1133,441,125,-51
1,6901579,538,-1432,-468,-281,-2613,1134,441,125,-51
1,6901592,538,-1432,-468,-281,-2613,1134,441,125,-51
1,6901606,535,-1429,-468,-268,-2597,1154,441,125,-51
1,6901618,533,-1430,-463,-278,-2581,1165,446,128,-50
1,6901626,533,-1430,-463,-278,-2581,1165,446,128,-50
1,6901635,533,-1430,-463,-278,-2581,1165,446,128,-50
1,6901643,533,-1436,-477,-284,-2568,1168,446,128,-50
1,6901651,533,-1436,-477,-284,-2568,1168,446,128,-50
1,6901659,529,-1433,-470,-294,-2557,1177,446,128,-50
1,6901666,529,-1433,-470,-294,-2557,1177,446,128,-50
1,6901672,529,-1433,-470,-294,-2557,1177,446,128,-50
1,6901680,534,-1436,-495,-311,-2545,1172,446,128,-50
1,6901686,534,-1436,-495,-311,-2545,1172,446,128,-50
1,6901692,534,-1436,-495,-311,-2545,1172,446,128,-50
1,6901700,526,-1440,-490,-324,-2528,1186,446,128,-50
1,6901706,526,-1440,-490,-324,-2528,1186,446,128,-50
1,6901714,526,-1440,-490,-324,-2528,1186,446,128,-50
1,6901721,532,-1438,-494,-340,-2521,1184,446,128,-50
1,6901728,532,-1438,-494,-340,-2521,1184,446,128,-50
1,6901734,532,-1438,-494,-340,-2521,1184,446,128,-50
1,6901741,534,-1441,-482,-357,-2503,1200,447,135,-43
1,6901749,534,-1441,-482,-357,-2503,1200,447,135,-43
1,6901756,534,-1441,-482,-357,-2503,1200,447,135,-43
1,6901764,529,-1432,-483,-387,-2488,1211,447,135,-43
1,6901770,529,-1432,-483,-387,-2488,1211,447,135,-43
1,6901776,529,-1432,-483,-387,-2488,1211,447,135,-43
1,6901784,532,-1433,-496,-421,-2467,1210,447,135,-43
1,6901790,532,-1433,-496,-421,-2467,1210,447,135,-43
1,6901799,525,-1430,-493,-440,-2453,1211,447,135,-43
1,6901806,525,-1430,-493,-440,-2453,1211,447,135,-43
1,6901813,525,-1430,-493,-440,-2453,1211,447,135,-43
1,6901820,536,-1435,-485,-448,-2439,1214,447,135,-43
1,6901825,536,-1435,-485,-448,-2439,1214,447,135,-43
1,6901830,536,-1435,-485,-448,-2439,1214,447,135,-43
1,6901838,529,-1431,-486,-466,-2433,1221,447,135,-43
1,6901846,529,-1431,-486,-466,-2433,1221,447,135,-43
1,6901853,529,-1431,-486,-466,-2433,1221,447,135,-43
1,6901859,535,-1430,-481,-484,-2412,1219,445,151,-41
1,6901866,535,-1430,-481,-484,-2412,1219,445,151,-41
1,6901871,535,-1430,-481,-484,-2412,1219,445,151,-41
1,6901876,535,-1430,-481,-484,-2412,1219,445,151,-41
1,6901882,529,-1427,-476,-512,-2400,1227,445,151,-41
1,6901889,529,-1427,-476,-512,-2400,1227,445,151,-41
1,6901894,529,-1427,-476,-512,-2400,1227,445,151,-41
1,6901900,535,-1420,-475,-512,-2382,1220,445,151,-41
1,6901906,535,-1420,-475,-512,-2382,1220,445,151,-41
1,6901913,535,-1420,-475,-512,-2382,1220,445,151,-41
1,6901920,520,-1424,-469,-513,-2370,1229,445,151,-41
1,6901925,520,-1424,-469,-513,-2370,1229,445,151,-41
1,6901933,520,-1424,-469,-513,-2370,1229,445,151,-41
1,6901940,525,-1421,-462,-517,-2356,1227,445,151,-41
1,6901947,525,-1421,-462,-517,-2356,1227,445,151,-41
1,6901954,525,-1421,-462,-517,-2356,1227,445,151,-41
1,6901961,523,-1419,-468,-520,-2340,1221,445,151,-41
1,6901967,523,-1419,-468,-520,-2340,1221,445,151,-41
1,6901975,523,-1419,-468,-520,-2340,1221,445,151,-41
1,6901983,530,-1416,-449,-527,-2333,1231,445,151,-41
1,6901991,530,-1416,-449,-527,-2333,1231,445,151,-41
1,6901997,530,-1416,-449,-527,-2333,1231,445,151,-41
1,6902003,531,-1413,-445,-539,-2320,1223,448,136,-44
1,6902009,531,-1413,-445,-539,-2320,1223,448,136,-44
1,6902017,531,-1413,-445,-539,-2320,1223,448,136,-44
1,6902025,528,-1411,-451,-539,-2300,1216,448,136,-44
1,6902033,528,-1411,-451,-539,-2300,1216,448,136,-44
1,6902041,532,-1420,-444,-536,-2289,1204,448,136,-44
1,6902048,532,-1420,-444,-536,-2289,1204,448,136,-44
1,6902056,532,-1420,-444,-536,-2289,1204,448,136,-44
1,6902063,532,-1420,-444,-536,-2289,1204,448,136,-44
1,6902069,532,-1420,-444,-536,-2289,1204,448,136,-44
1,6902076,532,-1420,-444,-536,-2289,1204,448,136,-44
1,6902084,528,-1413,-433,-543,-2269,1214,448,136,-44
1,6902091,528,-1413,-433,-543,-2269,1214,448,136,-44
1,6902098,517,-1417,-417,-565,-2252,1220,448,136,-44
1,6902105,517,-1417,-417,-565,-2252,1220,448,136,-44
1,6902113,517,-1417,-417,-565,-2252,1220,448,136,-44
1,6902120,517,-1417,-417,-575,-2234,1228,443,143,-35
1,6902126,517,-1417,-417,-575,-2234,1228,443,143,-35
1,6902134,517,-1417,-417,-575,-2234,1228,443,143,-35
1,6902141,523,-1412,-409,-589,-2227,1219,443,143,-35
1,6902151,523,-1412,-409,-589,-2227,1219,443,143,-35
1,6902158,525,-1424,-385,-626,-2222,1229,443,143,-35
1,6902166,525,-1424,-385,-626,-2222,1229,443,143,-35
1,6902173,525,-1424,-385,-626,-2222,1229,443,143,-35
1,6902179,527,-1435,-387,-700,-2203,1220,443,143,-35
1,6902187,527,-1435,-387,-700,-2203,1220,443,143,-35
1,6902193,527,-1435,-387,-700,-2203,1220,443,143,-35
1,6902201,520,-1426,-397,-815,-2188,1220,443,143,-35
1,6902208,520,-1426,-397,-815,-2188,1220,443,143,-35
1,6902216,520,-1426,-397,-815,-2188,1220,443,143,-35
1,6902222,519,-1417,-404,-869,-2175,1212,443,143,-35
1,6902230,519,-1417,-404,-869,-2175,1212,443,143,-35
1,6902237,519,-1417,-404,-869,-2175,1212,443,143,-35
1,6902243,516,-1413,-404,-900,-2165,1217,442,154,-24
1,6902250,516,-1413,-404,-900,-2165,1217,442,154,-24
1,6902259,509,-1407,-398,-921,-2148,1217,442,154,-24
1,6902266,509,-1407,-398,-921,-2148,1217,442,154,-24
1,6902273,509,-1407,-398,-921,-2148,1217,442,154,-24
1,6902278,509,-1407,-398,-921,-2148,1217,442,154,-24
1,6902283,514,-1418,-422,-931,-2139,1221,442,154,-24
1,6902288,514,-1418,-422,-931,-2139,1221,442,154,-24
1,6902293,514,-1418,-422,-931,-2139,1221,442,154,-24
1,6902301,513,-1408,-414,-945,-2129,1216,442,154,-24
1,6902308,513,-1408,-414,-945,-2129,1216,442,154,-24
1,6902316,513,-1408,-414,-945,-2129,1216,442,154,-24
1,6902323,515,-1418,-393,-976,-2117,1215,442,154,-24
1,6902329,515,-1418,-393,-976,-2117,1215,442,154,-24
1,6902335,515,-1418,-393,-976,-2117,1215,442,154,-24
1,6902341,516,-1429,-380,-1017,-2101,1221,442,154,-24
1,6902348,516,-1429,-380,-1017,-2101,1221,442,154,-24
1,6902355,516,-1429,-380,-1017,-2101,1221,442,154,-24
1,6902361,508,-1424,-390,-1103,-2092,1227,441,153,-29
1,6902369,508,-1424,-390,-1103,-2092,1227,441,153,-29
1,6902376,508,-1424,-390,-1103,-2092,1227,441,153,-29
1,6902383,504,-1416,-413,-1180,-2070,1220,441,153,-29
1,6902389,504,-1416,-413,-1180,-2070,1220,441,153,-29
1,6902396,504,-1416,-413,-1180,-2070,1220,441,153,-29
1,6902402,509,-1406,-414,-1192,-2065,1212,441,153,-29
1,6902407,509,-1406,-414,-1192,-2065,1212,441,153,-29
1,6902413,509,-1406,-414,-1192,-2065,1212,441,153,-29
1,6902418,507,-1403,-412,-1194,-2056,1208,441,153,-29
1,6902423,507,-1403,-412,-1194,-2056,1208,441,153,-29
1,6902428,507,-1403,-412,-1194,-2056,1208,441,153,-29
1,6902433,507,-1403,-412,-1194,-2056,1208,441,153,-29
1,6902438,503,-1405,-423,-1193,-2046,1195,441,153,-29
1,6902447,503,-1405,-423,-1193,-2046,1195,441,153,-29
1,6902453,503,-1405,-423,-1193,-2046,1195,441,153,-29
1,6902460,500,-1421,-388,-1207,-2039,1199,441,153,-29
1,6902469,500,-1421,-388,-1207,-2039,1199,441,153,-29
1,6902475,500,-1421,-388,-1207,-2039,1199,441,153,-29
1,6902481,502,-1422,-410,-1292,-2014,1196,441,153,-29
1,6902489,502,-1422,-410,-1292,-2014,1196,441,153,-29
1,6902495,502,-1422,-410,-1292,-2014,1196,441,153,-29
1,6902503,494,-1404,-406,-1355,-2006,1182,438,162,-24
1,6902510,494,-1404,-406,-1355,-2006,1182,438,162,-24
1,6902518,495,-1403,-396,-1369,-2002,1180,438,162,-24
1,6902525,495,-1403,-396,-1369,-2002,1180,438,162,-24
1,6902532,495,-1403,-396,-1369,-2002,1180,438,162,-24
1,6902539,496,-1413,-390,-1398,-1987,1168,438,162,-24
1,6902548,496,-1413,-390,-1398,-1987,1168,438,162,-24
1,6902554,496,-1413,-390,-1398,-1987,1168,438,162,-24
1,6902560,493,-1410,-384,-1464,-1983,1160,438,162,-24
1,6902569,493,-1410,-384,-1464,-1983,1160,438,162,-24
1,6902577,493,-1410,-384,-1464,-1983,1160,438,162,-24
1,6902583,497,-1412,-390,-1544,-1977,1133,438,162,-24
1,6902589,497,-1412,-390,-1544,-1977,1133,438,162,-24
1,6902597,497,-1412,-390,-1544,-1977,1133,438,162,-24
1,6902604,487,-1408,-383,-1614,-1970,1124,438,162,-24
1,6902610,487,-1408,-383,-1614,-1970,1124,438,162,-24
1,6902617,487,-1408,-383,-1614,-1970,1124,438,162,-24
1,6902622,487,-1411,-367,-1672,-1956,1112,427,159,-21
1,6902627,487,-1411,-367,-1672,-1956,1112,427,159,-21
1,6902632,487,-1411,-367,-1672,-1956,1112,427,159,-21
1,6902637,487,-1411,-367,-1672,-1956,1112,427,159,-21
1,6902643,486,-1413,-370,-1745,-1947,1098,427,159,-21
1,6902648,486,-1413,-370,-1745,-1947,1098,427,159,-21
1,6902656,486,-1413,-370,-1745,-1947,1098,427,159,-21
1,6902669,489,-1405,-382,-1817,-1943,1092,427,159,-21
1,6902681,487,-1404,-364,-1874,-1930,1073,427,159,-21
1,6902694,487,-1404,-364,-1874,-1930,1073,427,159,-21
1,6902708,493,-1398,-338,-1927,-1921,1059,427,159,-21
1,6902721,481,-1403,-344,-1994,-1917,1043,427,159,-21
1,6902731,481,-1403,-344,-1994,-1917,1043,427,159,-21
1,6902744,478,-1391,-341,-2076,-1915,1024,412,158,-32
1,6902756,478,-1391,-341,-2076,-1915,1024,412,158,-32
1,6902770,480,-1389,-318,-2149,-1915,1003,412,158,-32
1,6902781,472,-1392,-307,-2205,-1910,986,412,158,-32
1,6902792,472,-1392,-307,-2205,-1910,986,412,158,-32
1,6902800,475,-1389,-288,-2278,-1911,979,412,158,-32
1,6902808,475,-1389,-288,-2278,-1911,979,412,158,-32
1,6902817,475,-1389,-288,-2278,-1911,979,412,158,-32
1,6902825,466,-1387,-275,-2368,-1906,957,412,158,-32
1,6902836,466,-1387,-275,-2368,-1906,957,412,158,-32
1,6902846,464,-1383,-291,-2442,-1899,946,412,158,-32
1,6902861,474,-1380,-260,-2509,-1902,927,409,171,-37
1,6902876,474,-1380,-260,-2509,-1902,927,409,171,-37
1,6902884,458,-1371,-251,-2586,-1909,912,409,171,-37
1,6902896,458,-1371,-251,-2586,-1909,912,409,171,-37
1,6902910,460,-1379,-232,-2667,-1913,881,409,171,-37
1,6902925,450,-1370,-223,-2767,-1909,848,409,171,-37
1,6902933,450,-1370,-223,-2767,-1909,848,409,171,-37
1,6902945,459,-1360,-226,-2843,-1913,824,409,171,-37
1,6902958,459,-1360,-226,-2843,-1913,824,409,171,-37
1,6902971,451,-1362,-192,-2897,-1923,807,409,171,-37
1,6902981,445,-1364,-165,-2970,-1928,761,407,171,-39
1,6902996,445,-1364,-165,-2970,-1928,761,407,171,-39
1,6903009,423,-1352,-180,-3067,-1944,708,407,171,-39
1,6903022,436,-1346,-190,-3136,-1952,657,407,171,-39
1,6903035,436,-1346,-190,-3136,-1952,657,407,171,-39
1,6903049,435,-1360,-241,-3185,-1963,607,407,171,-39
1,6903060,430,-1373,-141,-3239,-1956,560,407,171,-39
1,6903074,430,-1373,-141,-3239,-1956,560,407,171,-39
1,6903087,429,-1348,-106,-3359,-1971,505,407,171,-39
1,6903099,414,-1319,-85,-3427,-2005,455,407,171,-39
1,6903112,414,-1319,-85,-3427,-2005,455,407,171,-39
1,6903126,424,-1330,-146,-3432,-2007,399,395,167,-45
1,6903139,424,-1330,-146,-3432,-2007,399,395,167,-45
1,6903150,424,-1330,-146,-3432,-2007,399,395,167,-45
1,6903160,412,-1349,-63,-3539,-2030,304,395,167,-45
1,6903172,412,-1349,-63,-3539,-2030,304,395,167,-45
1,6903183,412,-1339,-84,-3633,-2052,253,395,167,-45
1,6903196,412,-1339,-84,-3633,-2052,253,395,167,-45
1,6903205,417,-1324,-75,-3643,-2066,195,395,167,-45
1,6903217,417,-1324,-75,-3643,-2066,195,395,167,-45
1,6903230,393,-1338,-124,-3645,-2084,129,395,167,-45
1,6903241,407,-1360,-35,-3656,-2087,56,394,170,-42
1,6903255,407,-1360,-35,-3656,-2087,56,394,170,-42
1,6903267,407,-1366,-91,-3756,-2104,8,394,170,-42
1,6903279,403,-1332,-59,-3809,-2130,-26,394,170,-42
1,6903292,403,-1332,-59,-3809,-2130,-26,394,170,-42
1,6903305,385,-1337,-99,-3816,-2136,-79,394,170,-42
1,6903317,385,-1337,-99,-3816,-2136,-79,394,170,-42
1,6903328,399,-1348,-109,-3807,-2139,-140,394,170,-42
1,6903336,399,-1348,-109,-3807,-2139,-140,394,170,-42
1,6903345,387,-1362,-74,-3824,-2168,-191,394,170,-42
1,6903353,387,-1362,-74,-3824,-2168,-191,394,170,-42
1,6903365,387,-1362,-74,-3824,-2168,-191,397,177,-51
1,6903377,387,-1362,-74,-3824,-2168,-191,397,177,-51
1,6903390,379,-1351,-104,-3859,-2191,-272,397,177,-51
1,6903401,383,-1356,-98,-3852,-2202,-327,397,177,-51
1,6903409,383,-1356,-98,-3852,-2202,-327,397,177,-51
1,6903417,383,-1356,-98,-3852,-2202,-327,397,177,-51
1,6903426,373,-1365,-124,-3865,-2214,-386,397,177,-51
1,6903434,373,-1365,-124,-3865,-2214,-386,397,177,-51
1,6903442,387,-1358,-125,-3866,-2226,-424,397,177,-51
1,6903450,387,-1358,-125,-3866,-2226,-424,397,177,-51
1,6903458,376,-1364,-144,-3859,-2242,-472,397,177,-51
1,6903467,376,-1364,-144,-3859,-2242,-472,397,177,-51
1,6903474,376,-1364,-144,-3859,-2242,-472,397,177,-51
1,6903482,371,-1366,-169,-3845,-2245,-510,393,167,-65
1,6903490,371,-1366,-169,-3845,-2245,-510,393,167,-65
1,6903498,364,-1362,-174,-3817,-2261,-547,393,167,-65
1,6903513,364,-1362,-174,-3817,-2261,-547,393,167,-65
1,6903527,375,-1362,-204,-3772,-2271,-590,393,167,-65
1,6903536,375,-1362,-204,-3772,-2271,-590,393,167,-65
1,6903548,363,-1368,-209,-3701,-2282,-626,393,167,-65
1,6903562,377,-1378,-226,-3633,-2292,-659,393,167,-65
1,6903575,377,-1378,-226,-3633,-2292,-659,393,167,-65
1,6903586,375,-1382,-227,-3589,-2302,-686,393,167,-65
1,6903600,383,-1392,-237,-3554,-2315,-716,393,167,-65
1,6903613,383,-1392,-237,-3554,-2315,-716,393,167,-65
1,6903621,381,-1392,-250,-3525,-2329,-743,409,163,-57
1,6903629,381,-1392,-250,-3525,-2329,-743,409,163,-57
1,6903638,381,-1392,-250,-3525,-2329,-743,409,163,-57
1,6903646,379,-1389,-276,-3484,-2335,-764,409,163,-57
1,6903654,379,-1389,-276,-3484,-2335,-764,409,163,-57
1,6903665,378,-1394,-283,-3434,-2339,-789,409,163,-57
1,6903671,378,-1394,-283,-3434,-2339,-789,409,163,-57
1,6903677,378,-1394,-283,-3434,-2339,-789,409,163,-57
1,6903684,370,-1390,-303,-3388,-2351,-816,409,163,-57
1,6903690,370,-1390,-303,-3388,-2351,-816,409,163,-57
1,6903696,370,-1390,-303,-3388,-2351,-816,409,163,-57
1,6903701,368,-1392,-307,-3339,-2360,-833,409,163,-57
1,6903707,368,-1392,-307,-3339,-2360,-833,409,163,-57
1,6903713,368,-1392,-307,-3339,-2360,-833,409,163,-57
1,6903720,379,-1402,-324,-3294,-2369,-850,409,163,-57
1,6903727,379,-1402,-324,-3294,-2369,-850,409,163,-57
1,6903734,379,-1402,-324,-3294,-2369,-850,409,163,-57
1,6903741,376,-1404,-314,-3253,-2383,-872,414,172,-74
1,6903749,376,-1404,-314,-3253,-2383,-872,414,172,-74
1,6903754,376,-1404,-314,-3253,-2383,-872,414,172,-74
1,6903759,379,-1400,-344,-3202,-2390,-897,414,172,-74
1,6903767,379,-1400,-344,-3202,-2390,-897,414,172,-74
1,6903775,379,-1400,-344,-3202,-2390,-897,414,172,-74
1,6903781,371,-1400,-349,-3134,-2403,-913,414,172,-74
1,6903788,371,-1400,-349,-3134,-2403,-913,414,172,-74
1,6903795,371,-1400,-349,-3134,-2403,-913,414,172,-74
1,6903803,375,-1406,-332,-3072,-2409,-932,414,172,-74
1,6903810,375,-1406,-332,-3072,-2409,-932,414,172,-74
1,6903817,375,-1406,-332,-3072,-2409,-932,414,172,-74
1,6903823,369,-1418,-364,-3010,-2420,-943,414,172,-74
1,6903829,369,-1418,-364,-3010,-2420,-943,414,172,-74
1,6903834,369,-1418,-364,-3010,-2420,-943,414,172,-74
1,6903840,372,-1410,-362,-2970,-2436,-959,414,172,-74
1,6903847,372,-1410,-362,-2970,-2436,-959,414,172,-74
1,6903853,372,-1410,-362,-2970,-2436,-959,414,172,-74
1,6903860,371,-1411,-370,-2896,-2449,-976,431,163,-81
1,6903868,371,-1411,-370,-2896,-2449,-976,431,163,-81
1,6903874,371,-1411,-370,-2896,-2449,-976,431,163,-81
1,6903881,367,-1411,-387,-2818,-2455,-987,431,163,-81
1,6903887,367,-1411,-387,-2818,-2455,-987,431,163,-81
1,6903894,367,-1411,-387,-2818,-2455,-987,431,163,-81
1,6903902,379,-1409,-376,-2719,-2469,-1009,431,163,-81
1,6903910,379,-1409,-376,-2719,-2469,-1009,431,163,-81
1,6903917,379,-1409,-376,-2719,-2469,-1009,431,163,-81
1,6903922,364,-1417,-405,-2620,-2476,-1026,431,163,-81
1,6903930,364,-1417,-405,-2620,-2476,-1026,431,163,-81
1,6903939,375,-1423,-403,-2528,-2490,-1049,431,163,-81
1,6903945,375,-1423,-403,-2528,-2490,-1049,431,163,-81
1,6903954,375,-1423,-403,-2528,-2490,-1049,431,163,-81
1,6903960,347,-1427,-389,-2462,-2494,-1062,431,163,-81
1,6903966,347,-1427,-389,-2462,-2494,-1062,431,163,-81
1,6903972,347,-1427,-389,-2462,-2494,-1062,431,163,-81
1,6903980,363,-1422,-420,-2399,-2509,-1080,445,163,-89
1,6903986,363,-1422,-420,-2399,-2509,-1080,445,163,-89
1,6903995,363,-1422,-420,-2399,-2509,-1080,445,163,-89
1,6904002,351,-1412,-450,-2299,-2531,-1087,445,163,-89
1,6904010,351,-1412,-450,-2299,-2531,-1087,445,163,-89
1,6904016,351,-1412,-450,-2299,-2531,-1087,445,163,-89
1,6904025,357,-1425,-421,-2209,-2540,-1104,445,163,-89
1,6904031,357,-1425,-421,-2209,-2540,-1104,445,163,-89
1,6904036,357,-1425,-421,-2209,-2540,-1104,445,163,-89
1,6904044,363,-1425,-456,-2159,-2543,-1121,445,163,-89
1,6904051,363,-1425,-456,-2159,-2543,-1121,445,163,-89
1,6904059,352,-1420,-463,-2084,-2555,-1147,445,163,-89
1,6904065,352,-1420,-463,-2084,-2555,-1147,445,163,-89
1,6904071,352,-1420,-463,-2084,-2555,-1147,445,163,-89
1,6904078,352,-1420,-463,-2084,-2555,-1147,445,163,-89
1,6904086,370,-1420,-471,-1994,-2565,-1158,445,163,-89
1,6904094,370,-1420,-471,-1994,-2565,-1158,445,163,-89
1,6904101,355,-1429,-502,-1898,-2582,-1175,445,163,-89
1,6904109,355,-1429,-502,-1898,-2582,-1175,445,163,-89
1,6904115,355,-1429,-502,-1898,-2582,-1175,445,163,-89
1,6904120,349,-1422,-491,-1812,-2591,-1187,451,155,-93
1,6904128,349,-1422,-491,-1812,-2591,-1187,451,155,-93
1,6904136,349,-1422,-491,-1812,-2591,-1187,451,155,-93
1,6904144,352,-1410,-523,-1735,-2602,-1201,451,155,-93
1,6904152,352,-1410,-523,-1735,-2602,-1201,451,155,-93
1,6904159,348,-1417,-538,-1630,-2603,-1221,451,155,-93
1,6904165,348,-1417,-538,-1630,-2603,-1221,451,155,-93
1,6904172,348,-1417,-538,-1630,-2603,-1221,451,155,-93
1,6904180,358,-1426,-543,-1513,-2612,-1249,451,155,-93
1,6904186,358,-1426,-543,-1513,-2612,-1249,451,155,-93
1,6904195,358,-1426,-543,-1513,-2612,-1249,451,155,-93
1,6904201,357,-1430,-543,-1428,-2619,-1270,451,155,-93
1,6904208,357,-1430,-543,-1428,-2619,-1270,451,155,-93
1,6904214,357,-1430,-543,-1428,-2619,-1270,451,155,-93
1,6904222,358,-1416,-571,-1364,-2633,-1279,451,155,-93
1,6904229,358,-1416,-571,-1364,-2633,-1279,451,155,-93
1,6904236,358,-1416,-571,-1364,-2633,-1279,451,155,-93
1,6904244,360,-1413,-573,-1275,-2641,-1289,451,163,-95
1,6904249,360,-1413,-573,-1275,-2641,-1289,451,163,-95
1,6904255,360,-1413,-573,-1275,-2641,-1289,451,163,-95
1,6904262,354,-1417,-578,-1175,-2647,-1299,451,163,-95
1,6904270,354,-1417,-578,-1175,-2647,-1299,451,163,-95
1,6904278,354,-1417,-578,-1175,-2647,-1299,451,163,-95
1,6904284,351,-1421,-594,-1106,-2662,-1315,451,163,-95
1,6904291,351,-1421,-594,-1106,-2662,-1315,451,163,-95
1,6904297,351,-1421,-594,-1106,-2662,-1315,451,163,-95
1,6904304,359,-1418,-602,-1021,-2673,-1333,451,163,-95
1,6904309,359,-1418,-602,-1021,-2673,-1333,451,163,-95
1,6904315,359,-1418,-602,-1021,-2673,-1333,451,163,-95
1,6904321,363,-1421,-605,-935,-2684,-1341,451,163,-95
1,6904328,363,-1421,-605,-935,-2684,-1341,451,163,-95
1,6904334,363,-1421,-605,-935,-2684,-1341,451,163,-95
1,6904341,366,-1433,-597,-879,-2687,-1347,451,163,-95
1,6904348,366,-1433,-597,-879,-2687,-1347,451,163,-95
1,6904354,366,-1433,-597,-879,-2687,-1347,451,163,-95
1,6904363,368,-1422,-605,-823,-2699,-1338,466,152,-100
1,6904370,368,-1422,-605,-823,-2699,-1338,466,152,-100
1,6904375,368,-1422,-605,-823,-2699,-1338,466,152,-100
1,6904381,364,-1419,-602,-746,-2716,-1341,466,152,-100
1,6904387,364,-1419,-602,-746,-2716,-1341,466,152,-100
1,6904394,364,-1419,-602,-746,-2716,-1341,466,152,-100
1,6904399,365,-1425,-594,-656,-2724,-1349,466,152,-100
1,6904404,365,-1425,-594,-656,-2724,-1349,466,152,-100
1,6904410,365,-1425,-594,-656,-2724,-1349,466,152,-100
1,6904415,365,-1425,-594,-656,-2724,-1349,466,152,-100
1,6904420,362,-1428,-585,-584,-2736,-1351,466,152,-100
1,6904426,362,-1428,-585,-584,-2736,-1351,466,152,-100
1,6904431,362,-1428,-585,-584,-2736,-1351,466,152,-100
1,6904436,362,-1428,-585,-584,-2736,-1351,466,152,-100
1,6904441,366,-1433,-583,-510,-2746,-1348,466,152,-100
1,6904449,366,-1433,-583,-510,-2746,-1348,466,152,-100
1,6904457,366,-1433,-583,-510,-2746,-1348,466,152,-100
1,6904464,368,-1431,-577,-433,-2763,-1345,466,152,-100
1,6904471,368,-1431,-577,-433,-2763,-1345,466,152,-100
1,6904479,372,-1441,-555,-360,-2770,-1335,467,147,-93
1,6904486,372,-1441,-555,-360,-2770,-1335,467,147,-93
1,6904493,372,-1441,-555,-360,-2770,-1335,467,147,-93
1,6904501,373,-1435,-547,-298,-2778,-1337,467,147,-93
1,6904508,373,-1435,-547,-298,-2778,-1337,467,147,-93
1,6904515,373,-1435,-547,-298,-2778,-1337,467,147,-93
1,6904522,373,-1441,-540,-241,-2802,-1324,467,147,-93
1,6904529,373,-1441,-540,-241,-2802,-1324,467,147,-93
1,6904538,373,-1441,-540,-241,-2802,-1324,467,147,-93
1,6904544,371,-1445,-528,-189,-2814,-1321,467,147,-93
1,6904550,371,-1445,-528,-189,-2814,-1321,467,147,-93
1,6904556,371,-1445,-528,-189,-2814,-1321,467,147,-93
1,6904563,372,-1452,-523,-154,-2832,-1310,467,147,-93
1,6904570,372,-1452,-523,-154,-2832,-1310,467,147,-93
1,6904579,366,-1449,-522,-127,-2849,-1303,467,147,-93
1,6904586,366,-1449,-522,-127,-2849,-1303,467,147,-93
1,6904593,366,-1449,-522,-127,-2849,-1303,467,147,-93
1,6904601,381,-1450,-504,-102,-2862,-1288,481,137,-93
1,6904609,381,-1450,-504,-102,-2862,-1288,481,137,-93
1,6904616,381,-1450,-504,-102,-2862,-1288,481,137,-93
1,6904622,365,-1460,-512,-83,-2876,-1275,481,137,-93
1,6904627,365,-1460,-512,-83,-2876,-1275,481,137,-93
1,6904632,365,-1460,-512,-83,-2876,-1275,481,137,-93
1,6904637,365,-1460,-512,-83,-2876,-1275,481,137,-93
1,6904642,365,-1460,-512,-83,-2876,-1275,481,137,-93
1,6904647,365,-1460,-512,-83,-2876,-1275,481,137,-93
1,6904654,365,-1460,-512,-83,-2876,-1275,481,137,-93
1,6904663,361,-1464,-486,-71,-2908,-1259,481,137,-93
1,6904669,361,-1464,-486,-71,-2908,-1259,481,137,-93
1,6904683,378,-1461,-487,-63,-2920,-1249,481,137,-93
1,6904692,378,-1461,-487,-63,-2920,-1249,481,137,-93
1,6904705,359,-1464,-481,-53,-2934,-1243,481,137,-93
1,6904718,359,-1464,-481,-53,-2934,-1243,481,137,-93
1,6904731,375,-1466,-488,-40,-2951,-1233,481,137,-93
1,6904742,368,-1471,-467,-40,-2966,-1224,479,135,-89
1,6904756,368,-1471,-467,-40,-2966,-1224,479,135,-89
1,6904768,358,-1470,-480,-57,-2974,-1217,479,135,-89
1,6904781,372,-1468,-496,-67,-2992,-1213,479,135,-89
1,6904792,372,-1468,-496,-67,-2992,-1213,479,135,-89
1,6904803,365,-1468,-474,-79,-3002,-1206,479,135,-89
1,6904812,365,-1468,-474,-79,-3002,-1206,479,135,-89
1,6904820,365,-1472,-491,-95,-3019,-1197,479,135,-89
1,6904827,365,-1472,-491,-95,-3019,-1197,479,135,-89
1,6904838,365,-1472,-491,-95,-3019,-1197,479,135,-89
1,6904852,349,-1485,-466,-126,-3023,-1200,479,135,-89
1,6904860,365,-1485,-494,-197,-3039,-1193,468,134,-80
1,6904872,365,-1485,-494,-197,-3039,-1193,468,134,-80
1,6904887,359,-1471,-513,-277,-3051,-1181,468,134,-80
1,6904901,370,-1478,-514,-303,-3066,-1176,468,134,-80
1,6904910,370,-1478,-514,-303,-3066,-1176,468,134,-80
1,6904924,365,-1473,-509,-318,-3073,-1179,468,134,-80
1,6904937,365,-1473,-509,-318,-3073,-1179,468,134,-80
1,6904952,362,-1474,-529,-326,-3083,-1176,468,134,-80
1,6904961,364,-1462,-533,-310,-3099,-1172,468,134,-80
1,6904974,364,-1462,-533,-310,-3099,-1172,468,134,-80
1,6904987,363,-1462,-531,-271,-3103,-1176,460,128,-80
1,6905000,366,-1478,-526,-261,-3107,-1178,460,128,-80
1,6905011,366,-1478,-526,-261,-3107,-1178,460,128,-80
1,6905023,365,-1472,-508,-257,-3121,-1172,460,128,-80
1,6905035,365,-1472,-508,-257,-3121,-1172,460,128,-80
1,6905049,370,-1475,-535,-264,-3124,-1169,460,128,-80
1,6905060,373,-1463,-573,-252,-3140,-1174,460,128,-80
1,6905074,373,-1463,-573,-252,-3140,-1174,460,128,-80
1,6905086,371,-1450,-543,-190,-3156,-1158,460,128,-80
1,6905098,371,-1450,-543,-190,-3156,-1158,460,128,-80
1,6905112,369,-1472,-542,-107,-3148,-1163,447,127,-71
1,6905125,368,-1478,-544,-90,-3157,-1172,447,127,-71
1,6905137,368,-1478,-544,-90,-3157,-1172,447,127,-71
1,6905149,362,-1469,-549,-87,-3174,-1176,447,127,-71
1,6905162,368,-1474,-579,-65,-3181,-1172,447,127,-71
1,6905176,368,-1474,-579,-65,-3181,-1172,447,127,-71
1,6905188,375,-1471,-538,-34,-3180,-1156,447,127,-71
1,6905202,380,-1476,-566,-8,-3193,-1147,447,127,-71
1,6905214,380,-1476,-566,-8,-3193,-1147,447,127,-71
1,6905227,385,-1477,-590,8,-3202,-1137,447,127,-71
1,6905241,378,-1474,-581,23,-3215,-1117,458,122,-62
1,6905255,378,-1474,-581,23,-3215,-1117,458,122,-62
1,6905268,380,-1476,-575,36,-3214,-1114,458,122,-62
1,6905278,380,-1476,-575,36,-3214,-1114,458,122,-62
1,6905291,383,-1477,-574,36,-3222,-1107,458,122,-62
1,6905303,382,-1479,-612,31,-3234,-1088,458,122,-62
1,6905315,382,-1479,-612,31,-3234,-1088,458,122,-62
1,6905327,390,-1480,-630,34,-3238,-1082,458,122,-62
1,6905339,400,-1480,-590,54,-3239,-1059,458,122,-62
1,6905352,400,-1480,-590,54,-3239,-1059,458,122,-62
1,6905365,397,-1488,-580,54,-3249,-1039,455,117,-57
1,6905377,397,-1488,-580,54,-3249,-1039,455,117,-57
1,6905389,399,-1482,-589,39,-3253,-1025,455,117,-57
1,6905399,399,-1482,-589,39,-3253,-1025,455,117,-57
1,6905406,395,-1485,-599,17,-3265,-1005,455,117,-57
1,6905414,395,-1485,-599,17,-3265,-1005,455,117,-57
1,6905422,398,-1480,-574,22,-3268,-976,455,117,-57
1,6905431,398,-1480,-574,22,-3268,-976,455,117,-57
1,6905439,403,-1487,-540,20,-3276,-964,455,117,-57
1,6905447,403,-1487,-540,20,-3276,-964,455,117,-57
1,6905455,403,-1487,-540,20,-3276,-964,455,117,-57
1,6905464,400,-1495,-537,11,-3274,-947,455,117,-57
1,6905472,400,-1495,-537,11,-3274,-947,455,117,-57
1,6905481,408,-1490,-538,18,-3282,-931,453,105,-61
1,6905488,408,-1490,-538,18,-3282,-931,453,105,-61
1,6905497,408,-1490,-538,18,-3282,-931,453,105,-61
1,6905508,401,-1490,-529,16,-3293,-918,453,105,-61
1,6905522,404,-1494,-505,25,-3302,-909,453,105,-61
1,6905535,404,-1494,-505,25,-3302,-909,453,105,-61
1,6905546,401,-1493,-503,23,-3311,-897,453,105,-61
1,6905559,401,-1493,-503,23,-3311,-897,453,105,-61
1,6905571,396,-1491,-517,25,-3316,-893,453,105,-61
1,6905583,401,-1497,-523,39,-3321,-889,453,105,-61
1,6905595,401,-1497,-523,39,-3321,-889,453,105,-61
1,6905608,402,-1499,-505,53,-3337,-873,445,97,-59
1,6905618,402,-1499,-505,53,-3337,-873,445,97,-59
1,6905626,404,-1497,-505,70,-3339,-855,445,97,-59
1,6905634,404,-1497,-505,70,-3339,-855,445,97,-59
1,6905641,399,-1498,-518,76,-3344,-846,445,97,-59
1,6905654,399,-1498,-518,76,-3344,-846,445,97,-59
1,6905664,411,-1492,-529,95,-3345,-838,445,97,-59
1,6905676,411,-1492,-529,95,-3345,-838,445,97,-59
1,6905684,399,-1490,-528,121,-3353,-831,445,97,-59
1,6905692,399,-1490,-528,121,-3353,-831,445,97,-59
1,6905699,399,-1490,-528,121,-3353,-831,445,97,-59
1,6905706,399,-1501,-519,151,-3362,-829,445,97,-59
1,6905711,399,-1501,-519,151,-3362,-829,445,97,-59
1,6905719,401,-1493,-509,169,-3366,-821,445,97,-59
1,6905728,401,-1493,-509,169,-3366,-821,445,97,-59
1,6905734,401,-1493,-509,169,-3366,-821,445,97,-59
1,6905742,399,-1497,-525,164,-3374,-810,438,96,-48
1,6905749,399,-1497,-525,164,-3374,-810,438,96,-48
1,6905756,399,-1497,-525,164,-3374,-810,438,96,-48
1,6905762,411,-1503,-530,168,-3381,-811,438,96,-48
1,6905771,411,-1503,-530,168,-3381,-811,438,96,-48
1,6905780,404,-1501,-528,173,-3382,-808,438,96,-48
1,6905786,404,-1501,-528,173,-3382,-808,438,96,-48
1,6905793,404,-1501,-528,173,-3382,-808,438,96,-48
1,6905799,403,-1496,-541,181,-3385,-803,438,96,-48
1,6905805,403,-1496,-541,181,-3385,-803,438,96,-48
1,6905811,403,-1496,-541,181,-3385,-803,438,96,-48
1,6905821,407,-1496,-542,197,-3397,-793,438,96,-48
1,6905828,407,-1496,-542,197,-3397,-793,438,96,-48
1,6905837,407,-1496,-542,197,-3397,-793,438,96,-48
1,6905843,409,-1496,-550,212,-3405,-790,438,96,-48
1,6905848,409,-1496,-550,212,-3405,-790,438,96,-48
1,6905856,409,-1496,-550,212,-3405,-790,438,96,-48
1,6905865,415,-1506,-544,219,-3408,-788,441,91,-47
1,6905872,415,-1506,-544,219,-3408,-788,441,91,-47
1,6905879,410,-1504,-535,214,-3404,-764,441,91,-47
1,6905885,410,-1504,-535,214,-3404,-764,441,91,-47
1,6905892,410,-1504,-535,214,-3404,-764,441,91,-47
1,6905901,412,-1505,-546,215,-3403,-756,441,91,-47
1,6905908,412,-1505,-546,215,-3403,-756,441,91,-47
1,6905915,412,-1505,-546,215,-3403,-756,441,91,-47
1,6905922,406,-1505,-549,202,-3411,-741,441,91,-47
1,6905929,406,-1505,-549,202,-3411,-741,441,91,-47
1,6905934,406,-1505,-549,202,-3411,-741,441,91,-47
1,6905940,418,-1505,-544,197,-3420,-739,441,91,-47
1,6905946,418,-1505,-544,197,-3420,-739,441,91,-47
1,6905953,418,-1505,-544,197,-3420,-739,441,91,-47
1,6905959,414,-1504,-550,205,-3422,-728,441,91,-47
1,6905966,414,-1504,-550,205,-3422,-728,441,91,-47
1,6905973,414,-1504,-550,205,-3422,-728,441,91,-47
1,6905979,412,-1501,-534,199,-3424,-726,443,83,-41
1,6905988,412,-1501,-534,199,-3424,-726,443,83,-41
1,6905995,412,-1501,-534,199,-3424,-726,443,83,-41
1,6906000,418,-1503,-545,196,-3423,-727,443,83,-41
1,6906006,418,-1503,-545,196,-3423,-727,443,83,-41
1,6906015,418,-1503,-545,196,-3423,-727,443,83,-41
1,6906020,422,-1508,-547,197,-3427,-710,443,83,-41
1,6906027,422,-1508,-547,197,-3427,-710,443,83,-41
1,6906033,422,-1508,-547,197,-3427,-710,443,83,-41
1,6906041,427,-1512,-543,203,-3437,-695,443,83,-41
1,6906047,427,-1512,-543,203,-3437,-695,443,83,-41
1,6906055,427,-1512,-543,203,-3437,-695,443,83,-41
1,6906062,421,-1514,-530,200,-3435,-688,443,83,-41
1,6906071,421,-1514,-530,200,-3435,-688,443,83,-41
1,6906077,421,-1514,-530,200,-3435,-688,443,83,-41
1,6906084,432,-1511,-535,198,-3438,-674,443,83,-41
1,6906091,432,-1511,-535,198,-3438,-674,443,83,-41
1,6906097,432,-1511,-535,198,-3438,-674,443,83,-41
1,6906105,424,-1510,-533,187,-3440,-657,438,70,-40
1,6906113,424,-1510,-533,187,-3440,-657,438,70,-40
1,6906121,435,-1512,-518,197,-3450,-640,438,70,-40
1,6906128,435,-1512,-518,197,-3450,-640,438,70,-40
1,6906133,435,-1512,-518,197,-3450,-640,438,70,-40
1,6906140,434,-1515,-503,218,-3447,-633,438,70,-40
1,6906147,434,-1515,-503,218,-3447,-633,438,70,-40
1,6906156,434,-1515,-503,218,-3447,-633,438,70,-40
1,6906162,429,-1515,-496,221,-3456,-614,438,70,-40
1,6906168,429,-1515,-496,221,-3456,-614,438,70,-40
1,6906175,429,-1515,-496,221,-3456,-614,438,70,-40
1,6906181,434,-1514,-500,230,-3454,-588,438,70,-40
1,6906189,434,-1514,-500,230,-3454,-588,438,70,-40
1,6906196,434,-1514,-500,230,-3454,-588,438,70,-40
1,6906205,434,-1514,-491,246,-3459,-564,438,70,-40
1,6906213,434,-1514,-491,246,-3459,-564,438,70,-40
1,6906221,437,-1512,-483,257,-3463,-539,429,71,-37
1,6906228,437,-1512,-483,257,-3463,-539,429,71,-37
1,6906233,437,-1512,-483,257,-3463,-539,429,71,-37
1,6906240,431,-1508,-489,273,-3472,-517,429,71,-37
1,6906246,431,-1508,-489,273,-3472,-517,429,71,-37
1,6906252,431,-1508,-489,273,-3472,-517,429,71,-37
1,6906260,439,-1513,-494,324,-3472,-502,429,71,-37
1,6906265,439,-1513,-494,324,-3472,-502,429,71,-37
1,6906273,439,-1513,-494,324,-3472,-502,429,71,-37
1,6906279,430,-1524,-481,349,-3476,-486,429,71,-37
1,6906287,430,-1524,-481,349,-3476,-486,429,71,-37
1,6906294,430,-1524,-481,349,-3476,-486,429,71,-37
1,6906302,433,-1521,-467,337,-3488,-465,429,71,-37
1,6906308,433,-1521,-467,337,-3488,-465,429,71,-37
1,6906314,433,-1521,-467,337,-3488,-465,429,71,-37
1,6906323,429,-1522,-476,327,-3489,-453,429,71,-37
1,6906331,429,-1522,-476,327,-3489,-453,429,71,-37
1,6906339,429,-1522,-476,327,-3489,-453,429,71,-37
1,6906346,432,-1521,-491,308,-3488,-440,429,71,-37
1,6906351,432,-1521,-491,308,-3488,-440,429,71,-37
1,6906358,432,-1521,-491,308,-3488,-440,429,71,-37
1,6906366,433,-1524,-486,310,-3487,-418,425,69,-37
1,6906374,433,-1524,-486,310,-3487,-418,425,69,-37
1,6906380,432,-1522,-487,303,-3500,-403,425,69,-37
1,6906389,432,-1522,-487,303,-3500,-403,425,69,-37
1,6906395,432,-1522,-487,303,-3500,-403,425,69,-37
1,6906400,434,-1518,-515,296,-3502,-388,425,69,-37
1,6906405,434,-1518,-515,296,-3502,-388,425,69,-37
1,6906411,434,-1518,-515,296,-3502,-388,425,69,-37
1,6906416,434,-1518,-515,296,-3502,-388,425,69,-37
1,6906422,433,-1512,-514,311,-3504,-377,425,69,-37
1,6906427,433,-1512,-514,311,-3504,-377,425,69,-37
1,6906433,433,-1512,-514,311,-3504,-377,425,69,-37
1,6906438,433,-1512,-514,311,-3504,-377,425,69,-37
1,6906445,430,-1526,-502,331,-3506,-367,425,69,-37
1,6906452,430,-1526,-502,331,-3506,-367,425,69,-37
1,6906460,434,-1530,-529,316,-3511,-361,425,69,-37
1,6906465,434,-1530,-529,316,-3511,-361,425,69,-37
1,6906470,434,-1530,-529,316,-3511,-361,425,69,-37
1,6906475,434,-1530,-529,316,-3511,-361,425,69,-37
1,6906482,434,-1527,-533,306,-3511,-342,428,50,-38
1,6906490,434,-1527,-533,306,-3511,-342,428,50,-38
1,6906499,434,-1527,-533,306,-3511,-342,428,50,-38
1,6906507,443,-1528,-544,297,-3511,-315,428,50,-38
1,6906513,443,-1528,-544,297,-3511,-315,428,50,-38
1,6906518,443,-1528,-544,297,-3511,-315,428,50,-38
1,6906525,435,-1526,-533,272,-3501,-299,428,50,-38
1,6906531,435,-1526,-533,272,-3501,-299,428,50,-38
1,6906539,435,-1526,-533,272,-3501,-299,428,50,-38
1,6906545,440,-1521,-555,265,-3510,-291,428,50,-38
1,6906552,440,-1521,-555,265,-3510,-291,428,50,-38
1,6906560,443,-1517,-568,254,-3513,-278,428,50,-38
1,6906566,443,-1517,-568,254,-3513,-278,428,50,-38
1,6906574,443,-1517,-568,254,-3513,-278,428,50,-38
1,6906582,433,-1515,-575,277,-3510,-262,428,50,-38
1,6906589,433,-1515,-575,277,-3510,-262,428,50,-38
1,6906595,433,-1515,-575,277,-3510,-262,428,50,-38
1,6906600,443,-1520,-575,293,-3503,-255,421,55,-39
1,6906608,443,-1520,-575,293,-3503,-255,421,55,-39
1,6906616,443,-1520,-575,293,-3503,-255,421,55,-39
1,6906621,440,-1527,-534,293,-3505,-244,421,55,-39
1,6906627,440,-1527,-534,293,-3505,-244,421,55,-39
1,6906632,440,-1527,-534,293,-3505,-244,421,55,-39
1,6906637,440,-1527,-534,293,-3505,-244,421,55,-39
1,6906642,448,-1525,-563,265,-3503,-228,421,55,-39
1,6906648,448,-1525,-563,265,-3503,-228,421,55,-39
1,6906656,448,-1525,-563,265,-3503,-228,421,55,-39
1,6906662,443,-1517,-591,247,-3519,-203,421,55,-39
1,6906670,443,-1517,-591,247,-3519,-203,421,55,-39
1,6906678,443,-1517,-591,247,-3519,-203,421,55,-39
1,6906687,449,-1512,-598,280,-3508,-194,421,55,-39
1,6906700,450,-1520,-634,311,-3502,-184,421,55,-39
1,6906713,450,-1520,-634,311,-3502,-184,421,55,-39
1,6906726,453,-1523,-576,332,-3491,-176,419,53,-37
1,6906738,453,-1523,-576,332,-3491,-176,419,53,-37
1,6906752,455,-1522,-581,316,-3500,-168,419,53,-37
1,6906764,455,-1515,-583,313,-3493,-149,419,53,-37
1,6906778,455,-1515,-583,313,-3493,-149,419,53,-37
1,6906789,455,-1508,-618,324,-3494,-137,419,53,-37
1,6906802,462,-1512,-565,365,-3485,-125,419,53,-37
1,6906816,462,-1512,-565,365,-3485,-125,419,53,-37
1,6906828,459,-1522,-549,392,-3483,-115,419,53,-37
1,6906842,461,-1518,-520,392,-3485,-113,419,53,-37
1,6906854,461,-1518,-520,392,-3485,-113,419,53,-37
1,6906866,457,-1522,-543,388,-3486,-107,418,42,-40
1,6906881,469,-1521,-519,380,-3487,-94,418,42,-40
1,6906894,469,-1521,-519,380,-3487,-94,418,42,-40
1,6906904,460,-1522,-508,369,-3482,-84,418,42,-40
1,6906916,460,-1522,-508,369,-3482,-84,418,42,-40
1,6906929,461,-1515,-520,364,-3477,-83,418,42,-40
1,6906941,466,-1515,-520,350,-3484,-79,418,42,-40
1,6906953,466,-1515,-520,350,-3484,-79,418,42,-40
1,6906966,466,-1515,-520,350,-3484,-79,418,42,-40
1,6906980,466,-1513,-502,356,-3479,-58,423,45,-31
1,6906992,466,-1513,-502,356,-3479,-58,423,45,-31
1,6907003,468,-1508,-498,366,-3473,-56,423,45,-31
1,6907016,468,-1508,-498,366,-3473,-56,423,45,-31
1,6907030,459,-1514,-525,370,-3478,-50,423,45,-31
1,6907043,464,-1516,-550,363,-3479,-48,423,45,-31
1,6907055,464,-1516,-550,363,-3479,-48,423,45,-31
1,6907067,470,-1528,-553,343,-3477,-51,423,45,-31
1,6907081,472,-1522,-545,324,-3467,-32,423,45,-31
1,6907094,472,-1522,-545,324,-3467,-32,423,45,-31
1,6907105,474,-1522,-521,297,-3465,-21,417,41,-33
1,6907116,474,-1522,-521,297,-3465,-21,417,41,-33
1,6907125,483,-1521,-577,268,-3464,-9,417,41,-33
1,6907133,483,-1521,-577,268,-3464,-9,417,41,-33
1,6907141,485,-1507,-574,274,-3459,23,417,41,-33
1,6907151,485,-1507,-574,274,-3459,23,417,41,-33
1,6907164,484,-1524,-554,294,-3459,50,417,41,-33
1,6907173,484,-1524,-554,294,-3459,50,417,41,-33
1,6907186,484,-1515,-515,278,-3447,70,417,41,-33
1,6907199,484,-1515,-515,278,-3447,70,417,41,-33
1,6907213,479,-1519,-537,248,-3446,77,417,41,-33
1,6907224,483,-1511,-544,247,-3443,91,419,25,-23
1,6907234,483,-1511,-544,247,-3443,91,419,25,-23
1,6907248,474,-1508,-533,258,-3444,97,419,25,-23
1,6907260,474,-1503,-491,269,-3440,89,419,25,-23
1,6907272,474,-1503,-491,269,-3440,89,419,25,-23
1,6907285,485,-1513,-497,265,-3441,72,419,25,-23
1,6907298,485,-1513,-497,265,-3441,72,419,25,-23
1,6907312,486,-1505,-517,267,-3444,79,419,25,-23
1,6907322,484,-1506,-500,269,-3430,87,419,25,-23
1,6907335,484,-1506,-500,269,-3430,87,419,25,-23
1,6907347,488,-1503,-483,295,-3427,103,408,20,-28
1,6907361,488,-1504,-463,319,-3436,111,408,20,-28
1,6907372,488,-1504,-463,319,-3436,111,408,20,-28
1,6907385,498,-1519,-485,330,-3434,131,408,20,-28
1,6907399,498,-1519,-485,330,-3434,131,408,20,-28
1,6907407,506,-1530,-496,329,-3423,176,408,20,-28
1,6907415,506,-1530,-496,329,-3423,176,408,20,-28
1,6907423,496,-1516,-476,327,-3427,236,408,20,-28
1,6907432,496,-1516,-476,327,-3427,236,408,20,-28
1,6907441,488,-1510,-463,307,-3421,271,408,20,-28
1,6907449,488,-1510,-463,307,-3421,271,408,20,-28
1,6907457,488,-1510,-463,307,-3421,271,408,20,-28
1,6907465,485,-1506,-498,289,-3422,287,408,20,-28
1,6907474,485,-1506,-498,289,-3422,287,408,20,-28
1,6907483,487,-1503,-488,289,-3413,308,420,28,-22
1,6907491,487,-1503,-488,289,-3413,308,420,28,-22
1,6907503,488,-1506,-504,304,-3415,316,420,28,-22
1,6907515,488,-1506,-504,304,-3415,316,420,28,-22
1,6907527,488,-1503,-474,316,-3411,332,420,28,-22
1,6907539,488,-1503,-474,316,-3411,332,420,28,-22
1,6907553,492,-1503,-485,326,-3405,346,420,28,-22
1,6907566,485,-1508,-492,326,-3407,369,420,28,-22
1,6907578,485,-1508,-492,326,-3407,369,420,28,-22
1,6907589,482,-1504,-501,312,-3408,388,420,28,-22
1,6907602,489,-1502,-505,301,-3404,391,405,15,-19
1,6907615,489,-1502,-505,301,-3404,391,405,15,-19
1,6907624,487,-1514,-524,282,-3398,392,405,15,-19
1,6907632,487,-1514,-524,282,-3398,392,405,15,-19
1,6907640,490,-1507,-532,263,-3395,404,405,15,-19
1,6907649,490,-1507,-532,263,-3395,404,405,15,-19
1,6907658,490,-1507,-532,263,-3395,404,405,15,-19
1,6907670,492,-1508,-569,273,-3385,420,405,15,-19
1,6907684,484,-1507,-559,266,-3387,436,405,15,-19
1,6907696,484,-1507,-559,266,-3387,436,405,15,-19
1,6907702,490,-1510,-562,250,-3374,435,405,15,-19
1,6907708,490,-1510,-562,250,-3374,435,405,15,-19
1,6907715,490,-1510,-562,250,-3374,435,405,15,-19
1,6907721,490,-1498,-569,218,-3369,439,403,15,-29
1,6907730,490,-1498,-569,218,-3369,439,403,15,-29
1,6907737,490,-1498,-569,218,-3369,439,403,15,-29
1,6907744,488,-1499,-584,217,-3361,445,403,15,-29
1,6907751,488,-1499,-584,217,-3361,445,403,15,-29
1,6907756,488,-1499,-584,217,-3361,445,403,15,-29
1,6907763,497,-1501,-598,227,-3354,448,403,15,-29
1,6907771,497,-1501,-598,227,-3354,448,403,15,-29
1,6907778,497,-1501,-598,227,-3354,448,403,15,-29
1,6907785,486,-1502,-581,226,-3351,445,403,15,-29
1,6907790,486,-1502,-581,226,-3351,445,403,15,-29
1,6907797,486,-1502,-581,226,-3351,445,403,15,-29
1,6907805,499,-1501,-571,227,-3341,453,403,15,-29
1,6907810,499,-1501,-571,227,-3341,453,403,15,-29
1,6907815,499,-1501,-571,227,-3341,453,403,15,-29
1,6907822,499,-1501,-571,227,-3341,453,403,15,-29
1,6907829,499,-1501,-571,227,-3341,453,403,15,-29
1,6907836,499,-1501,-571,227,-3341,453,403,15,-29
1,6907842,500,-1493,-582,223,-3320,455,415,11,-23
1,6907847,500,-1493,-582,223,-3320,455,415,11,-23
1,6907852,500,-1493,-582,223,-3320,455,415,11,-23
1,6907857,500,-1493,-582,223,-3320,455,415,11,-23
1,6907866,503,-1495,-561,224,-3315,471,415,11,-23
1,6907874,503,-1495,-561,224,-3315,471,415,11,-23
1,6907880,501,-1490,-559,231,-3315,479,415,11,-23
1,6907887,501,-1490,-559,231,-3315,479,415,11,-23
1,6907894,501,-1490,-559,231,-3315,479,415,11,-23
1,6907901,510,-1494,-573,244,-3306,489,415,11,-23
1,6907907,510,-1494,-573,244,-3306,489,415,11,-23
1,6907915,510,-1494,-573,244,-3306,489,415,11,-23
1,6907922,506,-1492,-564,263,-3295,491,415,11,-23
1,6907931,506,-1492,-564,263,-3295,491,415,11,-23
1,6907938,506,-1492,-564,263,-3295,491,415,11,-23
1,6907943,509,-1494,-538,264,-3287,504,415,11,-23
1,6907951,509,-1494,-538,264,-3287,504,415,11,-23
1,6907958,509,-1494,-538,264,-3287,504,415,11,-23
1,6907964,508,-1492,-516,259,-3279,522,415,11,-23
1,6907970,508,-1492,-516,259,-3279,522,415,11,-23
1,6907975,508,-1492,-516,259,-3279,522,415,11,-23
1,6907982,512,-1494,-528,245,-3277,538,410,6,-16
1,6907991,512,-1494,-528,245,-3277,538,410,6,-16
1,6907997,512,-1494,-528,245,-3277,538,410,6,-16
1,6908004,514,-1489,-532,227,-3272,552,410,6,-16
1,6908011,514,-1489,-532,227,-3272,552,410,6,-16
1,6908018,514,-1489,-532,227,-3272,552,410,6,-16
1,6908024,511,-1489,-525,215,-3257,549,410,6,-16
1,6908032,511,-1489,-525,215,-3257,549,410,6,-16
1,6908040,516,-1490,-514,200,-3259,557,410,6,-16
1,6908047,516,-1490,-514,200,-3259,557,410,6,-16
1,6908053,516,-1490,-514,200,-3259,557,410,6,-16
1,6908060,514,-1489,-531,196,-3248,562,410,6,-16
1,6908066,514,-1489,-531,196,-3248,562,410,6,-16
1,6908073,514,-1489,-531,196,-3248,562,410,6,-16
1,6908082,516,-1481,-535,193,-3236,575,410,6,-16
1,6908089,516,-1481,-535,193,-3236,575,410,6,-16
1,6908095,516,-1481,-535,193,-3236,575,410,6,-16
1,6908102,520,-1487,-527,192,-3235,575,402,-4,-20
1,6908110,520,-1487,-527,192,-3235,575,402,-4,-20
1,6908116,520,-1487,-527,192,-3235,575,402,-4,-20
1,6908123,518,-1489,-518,183,-3231,596,402,-4,-20
1,6908131,518,-1489,-518,183,-3231,596,402,-4,-20
1,6908137,518,-1489,-518,183,-3231,596,402,-4,-20
1,6908144,529,-1493,-514,172,-3223,618,402,-4,-20
1,6908152,529,-1493,-514,172,-3223,618,402,-4,-20
1,6908160,518,-1491,-511,146,-3215,629,402,-4,-20
1,6908167,518,-1491,-511,146,-3215,629,402,-4,-20
1,6908174,518,-1491,-511,146,-3215,629,402,-4,-20
1,6908182,528,-1496,-505,110,-3205,654,402,-4,-20
1,6908188,528,-1496,-505,110,-3205,654,402,-4,-20
1,6908194,528,-1496,-505,110,-3205,654,402,-4,-20
1,6908201,522,-1481,-501,73,-3198,676,402,-4,-20
1,6908210,522,-1481,-501,73,-3198,676,402,-4,-20
1,6908217,522,-1481,-501,73,-3198,676,402,-4,-20
1,6908225,526,-1469,-499,85,-3187,681,402,-4,-18
1,6908231,526,-1469,-499,85,-3187,681,402,-4,-18
1,6908238,526,-1469,-499,85,-3187,681,402,-4,-18
1,6908246,519,-1472,-483,98,-3183,692,402,-4,-18
1,6908253,519,-1472,-483,98,-3183,692,402,-4,-18
1,6908260,522,-1482,-471,93,-3172,702,402,-4,-18
1,6908267,522,-1482,-471,93,-3172,702,402,-4,-18
1,6908275,522,-1482,-471,93,-3172,702,402,-4,-18
1,6908282,520,-1473,-449,62,-3171,704,402,-4,-18
1,6908291,520,-1473,-449,62,-3171,704,402,-4,-18
1,6908300,520,-1473,-449,62,-3171,704,402,-4,-18
1,6908308,519,-1472,-468,39,-3170,712,402,-4,-18
1,6908314,519,-1472,-468,39,-3170,712,402,-4,-18
1,6908322,512,-1464,-468,39,-3167,725,402,-4,-18
1,6908327,512,-1464,-468,39,-3167,725,402,-4,-18
1,6908336,512,-1464,-468,39,-3167,725,402,-4,-18
1,6908343,518,-1461,-448,63,-3149,729,398,-2,-18
1,6908348,518,-1461,-448,63,-3149,729,398,-2,-18
1,6908354,518,-1461,-448,63,-3149,729,398,-2,-18
1,6908359,518,-1461,-448,63,-3149,729,398,-2,-18
1,6908366,518,-1470,-446,74,-3138,741,398,-2,-18
1,6908374,518,-1470,-446,74,-3138,741,398,-2,-18
1,6908381,519,-1467,-432,69,-3139,747,398,-2,-18
1,6908387,519,-1467,-432,69,-3139,747,398,-2,-18
1,6908393,519,-1467,-432,69,-3139,747,398,-2,-18
1,6908398,519,-1467,-432,69,-3139,747,398,-2,-18
1,6908404,521,-1467,-447,58,-3137,760,398,-2,-18
1,6908409,521,-1467,-447,58,-3137,760,398,-2,-18
1,6908414,521,-1467,-447,58,-3137,760,398,-2,-18
1,6908420,518,-1459,-457,57,-3127,774,398,-2,-18
1,6908426,518,-1459,-457,57,-3127,774,398,-2,-18
1,6908431,518,-1459,-457,57,-3127,774,398,-2,-18
1,6908436,518,-1459,-457,57,-3127,774,398,-2,-18
1,6908442,518,-1461,-455,84,-3121,781,398,-2,-18
1,6908450,518,-1461,-455,84,-3121,781,398,-2,-18
1,6908456,518,-1461,-455,84,-3121,781,398,-2,-18
1,6908464,518,-1467,-450,112,-3110,787,398,-2,-18
1,6908471,518,-1467,-450,112,-3110,787,398,-2,-18
1,6908477,518,-1467,-450,112,-3110,787,398,-2,-18
1,6908484,514,-1470,-443,105,-3112,808,393,-5,-9
1,6908492,514,-1470,-443,105,-3112,808,393,-5,-9
1,6908499,514,-1470,-443,105,-3112,808,393,-5,-9
1,6908508,516,-1472,-463,95,-3106,819,393,-5,-9
1,6908515,516,-1472,-463,95,-3106,819,393,-5,-9
1,6908521,514,-1467,-448,78,-3097,830,393,-5,-9
1,6908527,514,-1467,-448,78,-3097,830,393,-5,-9
1,6908534,514,-1467,-448,78,-3097,830,393,-5,-9
1,6908541,516,-1462,-448,65,-3090,848,393,-5,-9
1,6908548,516,-1462,-448,65,-3090,848,393,-5,-9
1,6908556,516,-1462,-448,65,-3090,848,393,-5,-9
1,6908563,515,-1467,-469,53,-3079,848,393,-5,-9
1,6908570,515,-1467,-469,53,-3079,848,393,-5,-9
1,6908577,515,-1467,-469,53,-3079,848,393,-5,-9
1,6908584,520,-1467,-486,36,-3078,863,393,-5,-9
1,6908592,520,-1467,-486,36,-3078,863,393,-5,-9
1,6908598,520,-1467,-486,36,-3078,863,393,-5,-9
1,6908606,512,-1463,-472,26,-3063,865,404,-6,-14
1,6908611,512,-1463,-472,26,-3063,865,404,-6,-14
1,6908617,512,-1463,-472,26,-3063,865,404,-6,-14
1,6908622,517,-1466,-499,10,-3058,876,404,-6,-14
1,6908627,517,-1466,-499,10,-3058,876,404,-6,-14
1,6908633,517,-1466,-499,10,-3058,876,404,-6,-14
1,6908638,517,-1466,-499,10,-3058,876,404,-6,-14
1,6908643,507,-1463,-508,-1,-3053,877,404,-6,-14
1,6908648,507,-1463,-508,-1,-3053,877,404,-6,-14
1,6908655,507,-1463,-508,-1,-3053,877,404,-6,-14
1,6908661,522,-1469,-517,-9,-3037,883,404,-6,-14
1,6908668,522,-1469,-517,-9,-3037,883,404,-6,-14
1,6908677,522,-1469,-517,-9,-3037,883,404,-6,-14
1,6908684,510,-1469,-519,-12,-3028,892,404,-6,-14
1,6908691,510,-1469,-519,-12,-3028,892,404,-6,-14
1,6908696,510,-1469,-519,-12,-3028,892,404,-6,-14
1,6908703,521,-1472,-534,-32,-3025,896,404,-6,-14
1,6908712,521,-1472,-534,-32,-3025,896,404,-6,-14
1,6908724,516,-1465,-547,-55,-3009,893,404,-10,-8
1,6908736,516,-1465,-547,-55,-3009,893,404,-10,-8
1,6908748,524,-1467,-565,-64,-2996,907,404,-10,-8
1,6908762,520,-1467,-566,-58,-2988,911,404,-10,-8
1,6908776,520,-1467,-566,-58,-2988,911,404,-10,-8
1,6908788,517,-1468,-556,-73,-2973,916,404,-10,-8
1,6908803,524,-1464,-574,-88,-2958,928,404,-10,-8
1,6908813,524,-1464,-574,-88,-2958,928,404,-10,-8
1,6908825,523,-1466,-581,-105,-2946,938,404,-10,-8
1,6908841,534,-1460,-571,-97,-2932,944,405,-21,-7
1,6908856,534,-1460,-571,-97,-2932,944,405,-21,-7
1,6908864,535,-1465,-572,-78,-2921,953,405,-21,-7
1,6908875,535,-1465,-572,-78,-2921,953,405,-21,-7
1,6908890,530,-1463,-566,-75,-2907,963,405,-21,-7
1,6908902,531,-1459,-568,-81,-2889,971,405,-21,-7
1,6908913,531,-1459,-568,-81,-2889,971,405,-21,-7
1,6908928,530,-1453,-565,-88,-2874,981,405,-21,-7
1,6908941,531,-1451,-551,-79,-2860,992,405,-21,-7
1,6908954,531,-1451,-551,-79,-2860,992,405,-21,-7
1,6908964,536,-1452,-517,-70,-2859,1005,399,-13,-13
1,6908976,536,-1452,-517,-70,-2859,1005,399,-13,-13
1,6908984,542,-1453,-519,-73,-2844,1017,399,-13,-13
1,6908992,542,-1453,-519,-73,-2844,1017,399,-13,-13
1,6908999,542,-1453,-519,-73,-2844,1017,399,-13,-13
1,6909007,535,-1459,-524,-87,-2836,1026,399,-13,-13
1,6909020,535,-1459,-524,-87,-2836,1026,399,-13,-13
1,6909031,541,-1453,-504,-92,-2818,1040,399,-13,-13
1,6909043,539,-1445,-489,-107,-2802,1045,399,-13,-13
1,6909058,539,-1445,-489,-107,-2802,1045,399,-13,-13
1,6909069,531,-1440,-474,-123,-2783,1063,399,-13,-13
1,6909082,539,-1441,-481,-138,-2781,1068,399,-13,-13
1,6909095,539,-1441,-481,-138,-2781,1068,399,-13,-13
1,6909110,537,-1449,-484,-148,-2765,1082,400,-14,-14
1,6909123,545,-1450,-477,-157,-2750,1088,400,-14,-14
1,6909132,545,-1450,-477,-157,-2750,1088,400,-14,-14
1,6909144,538,-1443,-466,-164,-2740,1104,400,-14,-14
1,6909156,538,-1443,-466,-164,-2740,1104,400,-14,-14
1,6909170,546,-1436,-468,-186,-2731,1109,400,-14,-14
1,6909182,530,-1442,-474,-196,-2717,1124,400,-14,-14
1,6909195,530,-1442,-474,-196,-2717,1124,400,-14,-14
1,6909207,535,-1438,-465,-218,-2703,1127,400,-14,-14
1,6909220,536,-1439,-454,-241,-2692,1128,390,0,-28
1,6909233,536,-1439,-454,-241,-2692,1128,390,0,-28
1,6909247,533,-1441,-461,-285,-2691,1141,390,0,-28
1,6909258,533,-1441,-461,-285,-2691,1141,390,0,-28
1,6909271,536,-1432,-477,-312,-2673,1140,390,0,-28
1,6909285,528,-1432,-467,-307,-2665,1144,390,0,-28
1,6909297,528,-1432,-467,-307,-2665,1144,390,0,-28
1,6909309,535,-1438,-472,-314,-2653,1156,390,0,-28
1,6909321,531,-1439,-478,-339,-2638,1154,390,0,-28
1,6909335,531,-1439,-478,-339,-2638,1154,390,0,-28
1,6909347,535,-1435,-489,-357,-2626,1158,390,-16,-30
1,6909361,534,-1440,-495,-365,-2611,1161,390,-16,-30
1,6909374,534,-1440,-495,-365,-2611,1161,390,-16,-30
1,6909386,539,-1433,-505,-356,-2598,1163,390,-16,-30
1,6909399,539,-1433,-505,-356,-2598,1163,390,-16,-30
1,6909407,534,-1433,-503,-340,-2587,1170,390,-16,-30
1,6909415,534,-1433,-503,-340,-2587,1170,390,-16,-30
1,6909423,531,-1436,-500,-345,-2574,1181,390,-16,-30
1,6909431,531,-1436,-500,-345,-2574,1181,390,-16,-30
1,6909440,531,-1436,-500,-345,-2574,1181,390,-16,-30
1,6909448,531,-1425,-504,-346,-2555,1177,390,-16,-30
1,6909455,531,-1425,-504,-346,-2555,1177,390,-16,-30
1,6909463,532,-1429,-526,-337,-2541,1170,400,-10,-34
1,6909471,532,-1429,-526,-337,-2541,1170,400,-10,-34
1,6909479,532,-1429,-526,-337,-2541,1170,400,-10,-34
1,6909494,535,-1437,-509,-302,-2526,1166,400,-10,-34
1,6909506,541,-1428,-499,-289,-2514,1169,400,-10,-34
1,6909516,541,-1428,-499,-289,-2514,1169,400,-10,-34
1,6909530,533,-1431,-486,-295,-2499,1177,400,-10,-34
1,6909543,527,-1434,-497,-311,-2489,1174,400,-10,-34
1,6909554,527,-1434,-497,-311,-2489,1174,400,-10,-34
1,6909566,535,-1433,-492,-333,-2479,1171,400,-10,-34
1,6909580,535,-1433,-492,-333,-2479,1171,400,-10,-34
1,6909595,534,-1427,-484,-350,-2459,1181,400,-10,-34
1,6909606,538,-1424,-465,-361,-2448,1176,395,-13,-35
1,6909618,538,-1424,-465,-361,-2448,1176,395,-13,-35
1,6909626,534,-1439,-463,-388,-2442,1179,395,-13,-35
1,6909633,534,-1439,-463,-388,-2442,1179,395,-13,-35
1,6909641,536,-1435,-463,-420,-2421,1174,395,-13,-35
1,6909650,536,-1435,-463,-420,-2421,1174,395,-13,-35
1,6909664,542,-1433,-449,-456,-2408,1180,395,-13,-35
1,6909676,542,-1433,-449,-456,-2408,1180,395,-13,-35
1,6909685,531,-1431,-449,-493,-2387,1182,395,-13,-35
1,6909699,531,-1431,-449,-493,-2387,1182,395,-13,-35
1,6909710,536,-1426,-453,-524,-2381,1194,395,-13,-35
1,6909716,536,-1426,-453,-524,-2381,1194,395,-13,-35
1,6909723,533,-1417,-458,-545,-2367,1196,401,-5,-39
1,6909729,533,-1417,-458,-545,-2367,1196,401,-5,-39
1,6909735,533,-1417,-458,-545,-2367,1196,401,-5,-39
1,6909743,540,-1410,-444,-523,-2351,1203,401,-5,-39
1,6909750,540,-1410,-444,-523,-2351,1203,401,-5,-39
1,6909758,540,-1410,-444,-523,-2351,1203,401,-5,-39
1,6909766,526,-1425,-435,-508,-2333,1210,401,-5,-39
1,6909772,526,-1425,-435,-508,-2333,1210,401,-5,-39
1,6909777,526,-1425,-435,-508,-2333,1210,401,-5,-39
1,6909783,530,-1428,-419,-527,-2320,1211,401,-5,-39
1,6909790,530,-1428,-419,-527,-2320,1211,401,-5,-39
1,6909798,530,-1428,-419,-527,-2320,1211,401,-5,-39
1,6909803,532,-1418,-412,-574,-2305,1215,401,-5,-39
1,6909811,532,-1418,-412,-574,-2305,1215,401,-5,-39
1,6909817,532,-1418,-412,-574,-2305,1215,401,-5,-39
1,6909826,530,-1424,-418,-611,-2291,1217,401,-5,-39
1,6909833,530,-1424,-418,-611,-2291,1217,401,-5,-39
1,6909840,530,-1424,-418,-611,-2291,1217,401,-5,-39
1,6909846,530,-1424,-418,-611,-2291,1217,394,-8,-50
1,6909851,530,-1424,-418,-611,-2291,1217,394,-8,-50
1,6909858,530,-1424,-418,-611,-2291,1217,394,-8,-50
1,6909865,523,-1414,-412,-661,-2266,1240,394,-8,-50
1,6909872,523,-1414,-412,-661,-2266,1240,394,-8,-50
1,6909880,523,-1414,-412,-661,-2266,1240,394,-8,-50
1,6909885,532,-1409,-423,-661,-2251,1245,394,-8,-50
1,6909893,532,-1409,-423,-661,-2251,1245,394,-8,-50
1,6909900,532,-1409,-423,-661,-2251,1245,394,-8,-50
1,6909908,524,-1407,-398,-647,-2239,1250,394,-8,-50
1,6909916,524,-1407,-398,-647,-2239,1250,394,-8,-50
1,6909924,527,-1416,-412,-655,-2223,1246,394,-8,-50
1,6909931,527,-1416,-412,-655,-2223,1246,394,-8,-50
1,6909937,527,-1416,-412,-655,-2223,1246,394,-8,-50
1,6909945,523,-1410,-394,-666,-2205,1265,394,-8,-50
1,6909952,523,-1410,-394,-666,-2205,1265,394,-8,-50
1,6909960,523,-1410,-394,-666,-2205,1265,394,-8,-50
1,6909966,521,-1412,-400,-681,-2196,1262,397,-1,-39
1,6909971,521,-1412,-400,-681,-2196,1262,397,-1,-39
1,6909978,521,-1412,-400,-681,-2196,1262,397,-1,-39
1,6909986,514,-1412,-393,-712,-2188,1261,397,-1,-39
1,6909993,514,-1412,-393,-712,-2188,1261,397,-1,-39
1,6910001,515,-1409,-394,-742,-2177,1261,397,-1,-39
1,6910008,515,-1409,-394,-742,-2177,1261,397,-1,-39
1,6910015,515,-1409,-394,-742,-2177,1261,397,-1,-39
1,6910022,513,-1415,-400,-767,-2160,1262,397,-1,-39
1,6910030,513,-1415,-400,-767,-2160,1262,397,-1,-39
1,6910036,513,-1415,-400,-767,-2160,1262,397,-1,-39
1,6910044,518,-1421,-388,-812,-2154,1271,397,-1,-39
1,6910049,518,-1421,-388,-812,-2154,1271,397,-1,-39
1,6910056,518,-1421,-388,-812,-2154,1271,397,-1,-39
1,6910062,511,-1421,-386,-858,-2139,1271,397,-1,-39
1,6910068,511,-1421,-386,-858,-2139,1271,397,-1,-39
1,6910075,511,-1421,-386,-858,-2139,1271,397,-1,-39
1,6910084,516,-1422,-396,-916,-2122,1273,397,-1,-39
1,6910091,516,-1422,-396,-916,-2122,1273,397,-1,-39
1,6910097,516,-1422,-396,-916,-2122,1273,397,-1,-39
1,6910102,512,-1417,-393,-974,-2112,1270,401,7,-41
1,6910110,512,-1417,-393,-974,-2112,1270,401,7,-41
1,6910117,512,-1417,-393,-974,-2112,1270,401,7,-41
1,6910126,506,-1421,-401,-1031,-2096,1280,401,7,-41
1,6910133,506,-1421,-401,-1031,-2096,1280,401,7,-41
1,6910141,505,-1417,-398,-1075,-2092,1267,401,7,-41
1,6910147,505,-1417,-398,-1075,-2092,1267,401,7,-41
1,6910154,505,-1417,-398,-1075,-2092,1267,401,7,-41
1,6910160,505,-1416,-416,-1129,-2078,1263,401,7,-41
1,6910168,505,-1416,-416,-1129,-2078,1263,401,7,-41
1,6910176,505,-1416,-416,-1129,-2078,1263,401,7,-41
1,6910183,508,-1410,-425,-1157,-2065,1264,401,7,-41
1,6910189,508,-1410,-425,-1157,-2065,1264,401,7,-41
1,6910196,508,-1410,-425,-1157,-2065,1264,401,7,-41
1,6910204,502,-1412,-418,-1167,-2053,1265,401,7,-41
1,6910212,502,-1412,-418,-1167,-2053,1265,401,7,-41
1,6910218,502,-1412,-418,-1167,-2053,1265,401,7,-41
1,6910224,502,-1412,-418,-1167,-2053,1265,401,-1,-61
1,6910229,502,-1412,-418,-1167,-2053,1265,401,-1,-61
1,6910234,502,-1412,-418,-1167,-2053,1265,401,-1,-61
1,6910240,497,-1409,-411,-1237,-2030,1242,401,-1,-61
1,6910248,497,-1409,-411,-1237,-2030,1242,401,-1,-61
1,6910256,497,-1409,-411,-1237,-2030,1242,401,-1,-61
1,6910263,492,-1413,-424,-1297,-2022,1224,401,-1,-61
1,6910270,492,-1413,-424,-1297,-2022,1224,401,-1,-61
1,6910277,492,-1413,-424,-1297,-2022,1224,401,-1,-61
1,6910284,491,-1411,-417,-1352,-2014,1198,401,-1,-61
1,6910290,491,-1411,-417,-1352,-2014,1198,401,-1,-61
1,6910299,491,-1411,-417,-1352,-2014,1198,401,-1,-61
1,6910306,494,-1419,-413,-1401,-2008,1177,401,-1,-61
1,6910313,494,-1419,-413,-1401,-2008,1177,401,-1,-61
1,6910319,494,-1419,-413,-1401,-2008,1177,401,-1,-61
1,6910327,494,-1419,-421,-1464,-1995,1164,401,-1,-61
1,6910333,494,-1419,-421,-1464,-1995,1164,401,-1,-61
1,6910340,494,-1419,-421,-1464,-1995,1164,401,-1,-61
1,6910347,490,-1414,-429,-1526,-1989,1152,386,10,-56
1,6910355,490,-1414,-429,-1526,-1989,1152,386,10,-56
1,6910361,489,-1411,-429,-1568,-1981,1142,386,10,-56
1,6910369,489,-1411,-429,-1568,-1981,1142,386,10,-56
1,6910377,489,-1411,-429,-1568,-1981,1142,386,10,-56
1,6910385,491,-1415,-415,-1623,-1970,1120,386,10,-56
1,6910392,491,-1415,-415,-1623,-1970,1120,386,10,-56
1,6910399,491,-1415,-415,-1623,-1970,1120,386,10,-56
1,6910404,487,-1418,-408,-1705,-1956,1100,386,10,-56
1,6910409,487,-1418,-408,-1705,-1956,1100,386,10,-56
1,6910414,487,-1418,-408,-1705,-1956,1100,386,10,-56
1,6910419,487,-1418,-408,-1705,-1956,1100,386,10,-56
1,6910425,493,-1415,-417,-1776,-1946,1084,386,10,-56
1,6910430,493,-1415,-417,-1776,-1946,1084,386,10,-56
1,6910434,493,-1415,-417,-1776,-1946,1084,386,10,-56
1,6910443,490,-1408,-394,-1834,-1937,1066,386,10,-56
1,6910449,490,-1408,-394,-1834,-1937,1066,386,10,-56
1,6910454,490,-1408,-394,-1834,-1937,1066,386,10,-56
1,6910462,499,-1413,-373,-1904,-1933,1045,376,6,-64
1,6910471,499,-1413,-373,-1904,-1933,1045,376,6,-64
1,6910479,499,-1413,-373,-1904,-1933,1045,376,6,-64
1,6910486,488,-1407,-342,-1971,-1922,1034,376,6,-64
1,6910494,488,-1407,-342,-1971,-1922,1034,376,6,-64
1,6910500,488,-1407,-342,-1971,-1922,1034,376,6,-64
1,6910508,496,-1394,-356,-2048,-1918,1019,376,6,-64
1,6910515,496,-1394,-356,-2048,-1918,1019,376,6,-64
1,6910523,482,-1390,-336,-2115,-1911,1012,376,6,-64
1,6910530,482,-1390,-336,-2115,-1911,1012,376,6,-64
1,6910536,482,-1390,-336,-2115,-1911,1012,376,6,-64
1,6910543,477,-1391,-309,-2178,-1907,1003,376,6,-64
1,6910551,477,-1391,-309,-2178,-1907,1003,376,6,-64
1,6910558,477,-1391,-309,-2178,-1907,1003,376,6,-64
1,6910565,484,-1389,-303,-2248,-1909,993,376,6,-64
1,6910573,484,-1389,-303,-2248,-1909,993,376,6,-64
1,6910579,484,-1389,-303,-2248,-1909,993,376,6,-64
1,6910587,484,-1389,-303,-2248,-1909,993,374,14,-64
1,6910595,484,-1389,-303,-2248,-1909,993,374,14,-64
1,6910602,473,-1380,-279,-2387,-1905,945,374,14,-64
1,6910609,473,-1380,-279,-2387,-1905,945,374,14,-64
1,6910616,473,-1380,-279,-2387,-1905,945,374,14,-64
1,6910621,468,-1378,-257,-2458,-1901,929,374,14,-64
1,6910626,468,-1378,-257,-2458,-1901,929,374,14,-64
1,6910631,468,-1378,-257,-2458,-1901,929,374,14,-64
1,6910636,468,-1378,-257,-2458,-1901,929,374,14,-64
1,6910641,468,-1372,-211,-2550,-1901,904,374,14,-64
1,6910646,468,-1372,-211,-2550,-1901,904,374,14,-64
1,6910654,468,-1372,-211,-2550,-1901,904,374,14,-64
1,6910662,458,-1360,-217,-2642,-1904,871,374,14,-64
1,6910669,458,-1360,-217,-2642,-1904,871,374,14,-64
1,6910676,458,-1360,-217,-2642,-1904,871,374,14,-64
1,6910684,459,-1358,-198,-2692,-1916,841,374,14,-64
1,6910691,459,-1358,-198,-2692,-1916,841,374,14,-64
1,6910698,459,-1358,-198,-2692,-1916,841,374,14,-64
1,6910706,470,-1360,-160,-2744,-1921,821,374,14,-64
1,6910713,470,-1360,-160,-2744,-1921,821,374,14,-64
1,6910724,455,-1373,-142,-2822,-1927,796,366,18,-74
1,6910737,455,-1373,-142,-2822,-1927,796,366,18,-74
1,6910750,444,-1349,-158,-2916,-1936,780,366,18,-74
1,6910763,432,-1346,-206,-2976,-1943,752,366,18,-74
1,6910776,432,-1346,-206,-2976,-1943,752,366,18,-74
1,6910790,440,-1358,-176,-3025,-1950,692,366,18,-74
1,6910803,449,-1360,-78,-3107,-1953,632,366,18,-74
1,6910818,449,-1360,-78,-3107,-1953,632,366,18,-74
1,6910831,437,-1340,-42,-3204,-1988,605,366,18,-74
1,6910843,421,-1318,-93,-3259,-2004,573,364,30,-82
1,6910853,421,-1318,-93,-3259,-2004,573,364,30,-82
1,6910862,418,-1360,-124,-3277,-2006,523,364,30,-82
1,6910870,418,-1360,-124,-3277,-2006,523,364,30,-82
1,6910878,418,-1360,-124,-3277,-2006,523,364,30,-82
1,6910888,412,-1349,-26,-3372,-2021,475,364,30,-82
1,6910901,409,-1338,-77,-3510,-2031,427,364,30,-82
1,6910913,409,-1338,-77,-3510,-2031,427,364,30,-82
1,6910925,401,-1317,-79,-3550,-2058,365,364,30,-82
1,6910940,401,-1317,-79,-3550,-2058,365,364,30,-82
1,6910952,392,-1329,-124,-3548,-2072,299,364,30,-82
1,6910965,401,-1355,-79,-3569,-2080,221,352,22,-80
1,6910978,401,-1355,-79,-3569,-2080,221,352,22,-80
1,6910991,407,-1377,-101,-3663,-2103,152,352,22,-80
1,6911004,407,-1337,-88,-3741,-2110,115,352,22,-80
1,6911019,407,-1337,-88,-3741,-2110,115,352,22,-80
1,6911032,395,-1337,-129,-3758,-2121,84,352,22,-80
1,6911042,392,-1352,-94,-3760,-2126,35,352,22,-80
1,6911054,392,-1352,-94,-3760,-2126,35,352,22,-80
1,6911067,378,-1352,-102,-3824,-2145,-24,352,22,-80
1,6911080,378,-1352,-102,-3824,-2145,-24,352,22,-80
1,6911091,383,-1331,-113,-3891,-2160,-83,361,21,-95
1,6911106,370,-1342,-110,-3891,-2176,-140,361,21,-95
1,6911118,370,-1342,-110,-3891,-2176,-140,361,21,-95
1,6911131,384,-1352,-127,-3881,-2188,-221,361,21,-95
1,6911144,389,-1365,-124,-3874,-2197,-271,361,21,-95
1,6911157,389,-1365,-124,-3874,-2197,-271,361,21,-95
1,6911168,396,-1371,-129,-3870,-2218,-301,361,21,-95
1,6911181,371,-1365,-154,-3883,-2223,-327,361,21,-95
1,6911193,371,-1365,-154,-3883,-2223,-327,361,21,-95
1,6911205,379,-1351,-153,-3889,-2236,-379,361,21,-95
1,6911217,379,-1351,-153,-3889,-2236,-379,361,21,-95
1,6911229,368,-1356,-163,-3872,-2244,-454,367,23,-99
1,6911243,388,-1372,-186,-3818,-2253,-504,367,23,-99
1,6911256,388,-1372,-186,-3818,-2253,-504,367,23,-99
1,6911268,388,-1385,-178,-3791,-2263,-539,367,23,-99
1,6911278,388,-1385,-178,-3791,-2263,-539,367,23,-99
1,6911290,381,-1382,-188,-3798,-2278,-558,367,23,-99
1,6911302,367,-1365,-217,-3792,-2288,-596,367,23,-99
1,6911314,367,-1365,-217,-3792,-2288,-596,367,23,-99
1,6911326,375,-1373,-221,-3753,-2295,-648,367,23,-99
1,6911339,375,-1373,-221,-3753,-2295,-648,367,23,-99
1,6911351,376,-1383,-238,-3730,-2297,-696,377,27,-113
1,6911366,377,-1384,-255,-3701,-2315,-728,377,27,-113
1,6911377,377,-1384,-255,-3701,-2315,-728,377,27,-113
1,6911388,370,-1384,-263,-3665,-2319,-753,377,27,-113
1,6911399,370,-1384,-263,-3665,-2319,-753,377,27,-113
1,6911408,383,-1386,-308,-3622,-2329,-771,377,27,-113
1,6911416,383,-1386,-308,-3622,-2329,-771,377,27,-113
1,6911424,373,-1374,-308,-3550,-2340,-799,377,27,-113
1,6911432,373,-1374,-308,-3550,-2340,-799,377,27,-113
1,6911440,380,-1391,-321,-3460,-2349,-831,377,27,-113
1,6911449,380,-1391,-321,-3460,-2349,-831,377,27,-113
1,6911458,380,-1391,-321,-3460,-2349,-831,377,27,-113
1,6911466,377,-1399,-325,-3390,-2351,-851,383,25,-117
1,6911473,377,-1399,-325,-3390,-2351,-851,383,25,-117
1,6911482,380,-1392,-324,-3335,-2366,-871,383,25,-117
1,6911491,380,-1392,-324,-3335,-2366,-871,383,25,-117
1,6911499,380,-1392,-324,-3335,-2366,-871,383,25,-117
1,6911508,362,-1391,-358,-3286,-2377,-885,383,25,-117
1,6911517,362,-1391,-358,-3286,-2377,-885,383,25,-117
1,6911526,377,-1393,-366,-3202,-2379,-903,383,25,-117
1,6911537,377,-1393,-366,-3202,-2379,-903,383,25,-117
1,6911545,371,-1402,-365,-3124,-2384,-919,383,25,-117
1,6911554,371,-1402,-365,-3124,-2384,-919,383,25,-117
1,6911562,368,-1394,-397,-3060,-2397,-937,383,25,-117
1,6911571,368,-1394,-397,-3060,-2397,-937,383,25,-117
1,6911584,374,-1400,-386,-2988,-2410,-955,392,20,-126
1,6911598,374,-1400,-386,-2988,-2410,-955,392,20,-126
1,6911611,366,-1408,-406,-2922,-2415,-962,392,20,-126
1,6911621,366,-1408,-406,-2922,-2415,-962,392,20,-126
1,6911628,375,-1414,-410,-2851,-2433,-972,392,20,-126
1,6911636,375,-1414,-410,-2851,-2433,-972,392,20,-126
1,6911644,376,-1411,-396,-2806,-2437,-981,392,20,-126
1,6911656,376,-1411,-396,-2806,-2437,-981,392,20,-126
1,6911669,376,-1411,-455,-2757,-2445,-994,392,20,-126
1,6911680,376,-1411,-455,-2757,-2445,-994,392,20,-126
1,6911692,379,-1410,-432,-2686,-2454,-1010,392,20,-126
1,6911705,372,-1410,-426,-2616,-2462,-1024,392,20,-126
1,6911714,372,-1410,-426,-2616,-2462,-1024,392,20,-126
1,6911725,370,-1414,-445,-2552,-2471,-1030,404,26,-132
1,6911732,370,-1414,-445,-2552,-2471,-1030,404,26,-132
1,6911738,370,-1414,-445,-2552,-2471,-1030,404,26,-132
1,6911746,367,-1410,-447,-2478,-2492,-1057,404,26,-132
1,6911753,367,-1410,-447,-2478,-2492,-1057,404,26,-132
1,6911760,367,-1410,-447,-2478,-2492,-1057,404,26,-132
1,6911767,371,-1417,-447,-2382,-2496,-1076,404,26,-132
1,6911775,371,-1417,-447,-2382,-2496,-1076,404,26,-132
1,6911780,371,-1417,-447,-2382,-2496,-1076,404,26,-132
1,6911788,360,-1423,-442,-2310,-2508,-1086,404,26,-132
1,6911796,360,-1423,-442,-2310,-2508,-1086,404,26,-132
1,6911803,372,-1420,-438,-2249,-2519,-1099,404,26,-132
1,6911809,372,-1420,-438,-2249,-2519,-1099,404,26,-132
1,6911816,372,-1420,-438,-2249,-2519,-1099,404,26,-132
1,6911822,349,-1419,-484,-2166,-2534,-1115,404,26,-132
1,6911827,349,-1419,-484,-2166,-2534,-1115,404,26,-132
1,6911836,349,-1419,-484,-2166,-2534,-1115,404,26,-132
1,6911843,370,-1423,-466,-2051,-2534,-1138,406,20,-146
1,6911851,370,-1423,-466,-2051,-2534,-1138,406,20,-146
1,6911857,370,-1423,-466,-2051,-2534,-1138,406,20,-146
1,6911864,365,-1429,-467,-1982,-2550,-1157,406,20,-146
1,6911870,365,-1429,-467,-1982,-2550,-1157,406,20,-146
1,6911877,365,-1429,-467,-1982,-2550,-1157,406,20,-146
1,6911885,356,-1410,-496,-1916,-2563,-1167,406,20,-146
1,6911891,356,-1410,-496,-1916,-2563,-1167,406,20,-146
1,6911897,356,-1410,-496,-1916,-2563,-1167,406,20,-146
1,6911905,367,-1412,-501,-1807,-2571,-1186,406,20,-146
1,6911913,367,-1412,-501,-1807,-2571,-1186,406,20,-146
1,6911921,367,-1412,-501,-1807,-2571,-1186,406,20,-146
1,6911927,348,-1430,-494,-1692,-2577,-1204,406,20,-146
1,6911934,348,-1430,-494,-1692,-2577,-1204,406,20,-146
1,6911942,357,-1425,-518,-1632,-2585,-1218,406,20,-146
1,6911949,357,-1425,-518,-1632,-2585,-1218,406,20,-146
1,6911956,357,-1425,-518,-1632,-2585,-1218,406,20,-146
1,6911964,356,-1414,-526,-1565,-2609,-1236,419,21,-141
1,6911971,356,-1414,-526,-1565,-2609,-1236,419,21,-141
1,6911978,356,-1414,-526,-1565,-2609,-1236,419,21,-141
1,6911983,366,-1410,-539,-1464,-2615,-1254,419,21,-141
1,6911988,366,-1410,-539,-1464,-2615,-1254,419,21,-141
1,6911993,366,-1410,-539,-1464,-2615,-1254,419,21,-141
1,6912002,355,-1431,-540,-1351,-2619,-1264,419,21,-141
1,6912009,355,-1431,-540,-1351,-2619,-1264,419,21,-141
1,6912015,355,-1431,-540,-1351,-2619,-1264,419,21,-141
1,6912021,356,-1424,-539,-1278,-2633,-1274,419,21,-141
1,6912028,356,-1424,-539,-1278,-2633,-1274,419,21,-141
1,6912034,356,-1424,-539,-1278,-2633,-1274,419,21,-141
1,6912040,356,-1424,-539,-1278,-2633,-1274,419,21,-141
1,6912047,351,-1417,-571,-1205,-2648,-1281,419,21,-141
1,6912055,351,-1417,-571,-1205,-2648,-1281,419,21,-141
1,6912062,355,-1420,-555,-1095,-2655,-1291,419,21,-141
1,6912069,355,-1420,-555,-1095,-2655,-1291,419,21,-141
1,6912077,355,-1420,-555,-1095,-2655,-1291,419,21,-141
1,6912082,361,-1434,-535,-987,-2672,-1306,417,25,-151
1,6912090,361,-1434,-535,-987,-2672,-1306,417,25,-151
1,6912098,361,-1434,-535,-987,-2672,-1306,417,25,-151
1,6912105,361,-1438,-530,-927,-2678,-1318,417,25,-151
1,6912112,361,-1438,-530,-927,-2678,-1318,417,25,-151
1,6912119,361,-1438,-530,-927,-2678,-1318,417,25,-151
1,6912128,358,-1434,-548,-886,-2691,-1331,417,25,-151
1,6912134,358,-1434,-548,-886,-2691,-1331,417,25,-151
1,6912143,357,-1435,-530,-818,-2705,-1340,417,25,-151
1,6912150,357,-1435,-530,-818,-2705,-1340,417,25,-151
1,6912156,357,-1435,-530,-818,-2705,-1340,417,25,-151
1,6912162,357,-1432,-530,-750,-2715,-1340,417,25,-151
1,6912169,357,-1432,-530,-750,-2715,-1340,417,25,-151
1,6912178,357,-1432,-530,-750,-2715,-1340,417,25,-151
1,6912185,359,-1442,-516,-670,-2730,-1353,417,25,-151
1,6912191,359,-1442,-516,-670,-2730,-1353,417,25,-151
1,6912196,359,-1442,-516,-670,-2730,-1353,417,25,-151
1,6912204,359,-1431,-536,-597,-2743,-1358,428,14,-152
1,6912211,359,-1431,-536,-597,-2743,-1358,428,14,-152
1,6912220,359,-1431,-536,-597,-2743,-1358,428,14,-152
1,6912226,363,-1432,-531,-500,-2754,-1354,428,14,-152
1,6912233,363,-1432,-531,-500,-2754,-1354,428,14,-152
1,6912239,363,-1432,-531,-500,-2754,-1354,428,14,-152
1,6912247,361,-1442,-514,-408,-2766,-1351,428,14,-152
1,6912254,361,-1442,-514,-408,-2766,-1351,428,14,-152
1,6912261,361,-1442,-514,-408,-2766,-1351,428,14,-152
1,6912267,363,-1443,-524,-328,-2786,-1354,428,14,-152
1,6912275,363,-1443,-524,-328,-2786,-1354,428,14,-152
1,6912280,363,-1443,-524,-328,-2786,-1354,428,14,-152
1,6912287,363,-1443,-528,-259,-2805,-1350,428,14,-152
1,6912294,363,-1443,-528,-259,-2805,-1350,428,14,-152
1,6912303,360,-1445,-529,-195,-2817,-1346,428,14,-152
1,6912310,360,-1445,-529,-195,-2817,-1346,428,14,-152
1,6912316,360,-1445,-529,-195,-2817,-1346,428,14,-152
1,6912323,362,-1445,-526,-142,-2832,-1344,428,14,-152
1,6912330,362,-1445,-526,-142,-2832,-1344,428,14,-152
1,6912338,362,-1445,-526,-142,-2832,-1344,428,14,-152
1,6912345,363,-1447,-507,-88,-2849,-1338,434,18,-164
1,6912351,363,-1447,-507,-88,-2849,-1338,434,18,-164
1,6912358,363,-1447,-507,-88,-2849,-1338,434,18,-164
1,6912366,362,-1455,-530,-50,-2856,-1336,434,18,-164
1,6912373,362,-1455,-530,-50,-2856,-1336,434,18,-164
1,6912382,360,-1457,-527,-28,-2868,-1328,434,18,-164
1,6912389,360,-1457,-527,-28,-2868,-1328,434,18,-164
1,6912396,360,-1457,-527,-28,-2868,-1328,434,18,-164
1,6912401,360,-1457,-527,-28,-2868,-1328,434,18,-164
1,6912406,367,-1455,-517,-15,-2889,-1317,434,18,-164
1,6912411,367,-1455,-517,-15,-2889,-1317,434,18,-164
1,6912416,367,-1455,-517,-15,-2889,-1317,434,18,-164
1,6912421,367,-1458,-531,2,-2900,-1303,434,18,-164
1,6912427,367,-1458,-531,2,-2900,-1303,434,18,-164
1,6912432,367,-1458,-531,2,-2900,-1303,434,18,-164
1,6912438,367,-1458,-531,2,-2900,-1303,434,18,-164
1,6912444,356,-1459,-527,17,-2912,-1301,434,18,-164
1,6912449,356,-1459,-527,17,-2912,-1301,434,18,-164
1,6912456,356,-1459,-527,17,-2912,-1301,434,18,-164
1,6912461,356,-1459,-527,17,-2912,-1301,434,18,-164
1,6912468,364,-1460,-528,28,-2927,-1284,432,10,-162
1,6912475,364,-1460,-528,28,-2927,-1284,432,10,-162
1,6912482,374,-1468,-530,32,-2945,-1264,432,10,-162
1,6912489,374,-1468,-530,32,-2945,-1264,432,10,-162
1,6912495,374,-1468,-530,32,-2945,-1264,432,10,-162
1,6912501,363,-1465,-525,22,-2958,-1246,432,10,-162
1,6912509,363,-1465,-525,22,-2958,-1246,432,10,-162
1,6912516,363,-1465,-525,22,-2958,-1246,432,10,-162
1,6912524,379,-1463,-522,11,-2971,-1222,432,10,-162
1,6912531,379,-1463,-522,11,-2971,-1222,432,10,-162
1,6912538,379,-1463,-522,11,-2971,-1222,432,10,-162
1,6912544,366,-1465,-539,3,-2987,-1203,432,10,-162
1,6912550,366,-1465,-539,3,-2987,-1203,432,10,-162
1,6912558,366,-1465,-539,3,-2987,-1203,432,10,-162
1,6912565,379,-1468,-522,-8,-2997,-1190,432,10,-162
1,6912573,379,-1468,-522,-8,-2997,-1190,432,10,-162
1,6912580,379,-1468,-522,-8,-2997,-1190,432,10,-162
1,6912588,375,-1483,-505,-25,-3013,-1178,416,10,-162
1,6912596,375,-1483,-505,-25,-3013,-1178,416,10,-162
1,6912604,371,-1483,-496,-88,-3022,-1165,416,10,-162
1,6912611,371,-1483,-496,-88,-3022,-1165,416,10,-162
1,6912617,371,-1483,-496,-88,-3022,-1165,416,10,-162
1,6912622,363,-1479,-520,-198,-3037,-1160,416,10,-162
1,6912627,363,-1479,-520,-198,-3037,-1160,416,10,-162
1,6912632,363,-1479,-520,-198,-3037,-1160,416,10,-162
1,6912637,363,-1479,-520,-198,-3037,-1160,416,10,-162
1,6912644,374,-1466,-531,-271,-3048,-1151,416,10,-162
1,6912649,374,-1466,-531,-271,-3048,-1151,416,10,-162
1,6912655,374,-1466,-531,-271,-3048,-1151,416,10,-162
1,6912662,374,-1470,-554,-297,-3055,-1147,416,10,-162
1,6912668,374,-1470,-554,-297,-3055,-1147,416,10,-162
1,6912673,374,-1470,-554,-297,-3055,-1147,416,10,-162
1,6912679,374,-1470,-554,-297,-3055,-1147,416,10,-162
1,6912685,372,-1469,-533,-329,-3064,-1137,416,10,-162
1,6912690,372,-1469,-533,-329,-3064,-1137,416,10,-162
1,6912696,372,-1469,-533,-329,-3064,-1137,416,10,-162
1,6912702,372,-1458,-566,-336,-3077,-1132,412,10,-160
1,6912707,372,-1458,-566,-336,-3077,-1132,412,10,-160
1,6912713,372,-1458,-566,-336,-3077,-1132,412,10,-160
1,6912718,372,-1458,-566,-336,-3077,-1132,412,10,-160
1,6912723,366,-1457,-555,-313,-3086,-1145,412,10,-160
1,6912730,366,-1457,-555,-313,-3086,-1145,412,10,-160
1,6912739,366,-1457,-555,-313,-3086,-1145,412,10,-160
1,6912747,363,-1464,-539,-287,-3088,-1155,412,10,-160
1,6912756,363,-1464,-539,-287,-3088,-1155,412,10,-160
1,6912765,369,-1478,-549,-292,-3088,-1160,412,10,-160
1,6912780,369,-1478,-549,-292,-3088,-1160,412,10,-160
1,6912791,362,-1470,-528,-314,-3107,-1149,412,10,-160
1,6912803,364,-1458,-557,-325,-3109,-1157,412,10,-160
1,6912817,364,-1458,-557,-325,-3109,-1157,412,10,-160
1,6912825,366,-1456,-584,-305,-3124,-1173,412,10,-160
1,6912833,366,-1456,-584,-305,-3124,-1173,412,10,-160
1,6912841,366,-1456,-584,-305,-3124,-1173,412,10,-160
1,6912852,367,-1458,-546,-238,-3136,-1177,407,15,-155
1,6912867,378,-1472,-558,-196,-3132,-1168,407,15,-155
1,6912881,378,-1472,-558,-196,-3132,-1168,407,15,-155
1,6912892,374,-1471,-550,-181,-3135,-1163,407,15,-155
1,6912902,373,-1466,-560,-173,-3151,-1145,407,15,-155
1,6912914,373,-1466,-560,-173,-3151,-1145,407,15,-155
1,6912927,368,-1463,-567,-136,-3160,-1144,407,15,-155
1,6912941,368,-1463,-567,-136,-3160,-1144,407,15,-155
1,6912952,369,-1461,-521,-69,-3169,-1143,407,15,-155
1,6912965,383,-1478,-529,-11,-3174,-1133,404,10,-156
1,6912977,383,-1478,-529,-11,-3174,-1133,404,10,-156
1,6912991,378,-1484,-515,11,-3191,-1124,404,10,-156
1,6913002,376,-1482,-516,12,-3198,-1119,404,10,-156
1,6913015,376,-1482,-516,12,-3198,-1119,404,10,-156
1,6913030,381,-1482,-494,-1,-3208,-1109,404,10,-156
1,6913044,375,-1476,-498,1,-3222,-1111,404,10,-156
1,6913053,375,-1476,-498,1,-3222,-1111,404,10,-156
1,6913067,369,-1478,-527,13,-3231,-1100,404,10,-156
1,6913080,369,-1478,-527,13,-3231,-1100,404,10,-156
1,6913093,387,-1479,-535,30,-3236,-1087,395,17,-161
1,6913103,378,-1490,-525,51,-3245,-1073,395,17,-161
1,6913117,378,-1490,-525,51,-3245,-1073,395,17,-161
1,6913129,394,-1489,-543,62,-3251,-1056,395,17,-161
1,6913143,386,-1493,-542,64,-3259,-1028,395,17,-161
1,6913157,386,-1493,-542,64,-3259,-1028,395,17,-161
1,6913169,387,-1487,-556,54,-3276,-994,395,17,-161
1,6913182,377,-1484,-540,46,-3277,-978,395,17,-161
1,6913192,377,-1484,-540,46,-3277,-978,395,17,-161
1,6913206,375,-1487,-547,32,-3281,-962,399,19,-151
1,6913219,375,-1487,-547,32,-3281,-962,399,19,-151
1,6913230,386,-1484,-561,11,-3285,-950,399,19,-151
1,6913244,389,-1485,-553,17,-3299,-939,399,19,-151
1,6913258,389,-1485,-553,17,-3299,-939,399,19,-151
1,6913270,396,-1493,-549,29,-3302,-932,399,19,-151
1,6913283,393,-1489,-542,4,-3313,-925,399,19,-151
1,6913297,393,-1489,-542,4,-3313,-925,399,19,-151
1,6913309,393,-1487,-549,0,-3318,-916,399,19,-151
1,6913320,393,-1487,-549,0,-3318,-916,399,19,-151
1,6913334,384,-1491,-576,8,-3323,-903,399,19,-151
1,6913348,389,-1492,-541,19,-3326,-890,387,23,-155
1,6913361,396,-1497,-539,25,-3337,-876,387,23,-155
1,6913371,396,-1497,-539,25,-3337,-876,387,23,-155
1,6913383,394,-1495,-541,37,-3341,-863,387,23,-155
1,6913395,394,-1495,-541,37,-3341,-863,387,23,-155
1,6913403,398,-1495,-543,53,-3343,-845,387,23,-155
1,6913412,398,-1495,-543,53,-3343,-845,387,23,-155
1,6913420,398,-1495,-543,53,-3343,-845,387,23,-155
1,6913428,400,-1488,-539,68,-3349,-833,387,23,-155
1,6913436,400,-1488,-539,68,-3349,-833,387,23,-155
1,6913443,400,-1488,-533,110,-3360,-818,387,23,-155
1,6913453,400,-1488,-533,110,-3360,-818,387,23,-155
1,6913461,400,-1488,-533,110,-3360,-818,387,23,-155
1,6913469,390,-1494,-517,159,-3367,-811,385,11,-163
1,6913476,390,-1494,-517,159,-3367,-811,385,11,-163
1,6913484,390,-1497,-517,166,-3366,-807,385,11,-163
1,6913492,390,-1497,-517,166,-3366,-807,385,11,-163
1,6913503,392,-1502,-512,162,-3380,-813,385,11,-163
1,6913516,392,-1502,-512,162,-3380,-813,385,11,-163
1,6913530,396,-1505,-500,151,-3390,-815,385,11,-163
1,6913540,396,-1505,-500,151,-3390,-815,385,11,-163
1,6913549,396,-1504,-511,144,-3393,-806,385,11,-163
1,6913558,396,-1504,-511,144,-3393,-806,385,11,-163
1,6913566,400,-1503,-517,134,-3392,-804,385,11,-163
1,6913573,400,-1503,-517,134,-3392,-804,385,11,-163
1,6913586,402,-1492,-531,144,-3396,-793,381,13,-155
1,6913598,402,-1492,-531,144,-3396,-793,381,13,-155
1,6913607,395,-1494,-514,180,-3406,-796,381,13,-155
1,6913617,395,-1494,-514,180,-3406,-796,381,13,-155
1,6913625,396,-1504,-513,217,-3411,-792,381,13,-155
1,6913633,396,-1504,-513,217,-3411,-792,381,13,-155
1,6913641,396,-1504,-513,217,-3411,-792,381,13,-155
1,6913654,391,-1506,-524,222,-3408,-788,381,13,-155
1,6913666,398,-1506,-517,219,-3414,-787,381,13,-155
1,6913678,398,-1506,-517,219,-3414,-787,381,13,-155
1,6913691,400,-1514,-506,197,-3421,-783,381,13,-155
1,6913703,404,-1508,-511,195,-3427,-777,376,22,-158
1,6913716,404,-1508,-511,195,-3427,-777,376,22,-158
1,6913727,399,-1505,-513,201,-3430,-768,376,22,-158
1,6913738,399,-1505,-513,201,-3430,-768,376,22,-158
1,6913746,406,-1509,-514,210,-3433,-774,376,22,-158
1,6913753,406,-1509,-514,210,-3433,-774,376,22,-158
1,6913760,406,-1509,-514,210,-3433,-774,376,22,-158
1,6913768,403,-1514,-509,212,-3432,-777,376,22,-158
1,6913775,403,-1514,-509,212,-3432,-777,376,22,-158
1,6913782,410,-1515,-515,200,-3435,-762,376,22,-158
1,6913790,410,-1515,-515,200,-3435,-762,376,22,-158
1,6913797,410,-1515,-515,200,-3435,-762,376,22,-158
1,6913804,413,-1514,-531,200,-3440,-752,376,22,-158
1,6913812,413,-1514,-531,200,-3440,-752,376,22,-158
1,6913818,413,-1514,-531,200,-3440,-752,376,22,-158
1,6913823,409,-1516,-511,197,-3449,-739,380,22,-162
1,6913830,409,-1516,-511,197,-3449,-739,380,22,-162
1,6913837,409,-1516,-511,197,-3449,-739,380,22,-162
1,6913845,416,-1512,-531,203,-3454,-730,380,22,-162
1,6913851,416,-1512,-531,203,-3454,-730,380,22,-162
1,6913857,416,-1512,-531,203,-3454,-730,380,22,-162
1,6913864,415,-1516,-537,212,-3453,-708,380,22,-162
1,6913871,415,-1516,-537,212,-3453,-708,380,22,-162
1,6913878,415,-1516,-537,212,-3453,-708,380,22,-162
1,6913884,434,-1518,-541,205,-3454,-693,380,22,-162
1,6913892,434,-1518,-541,205,-3454,-693,380,22,-162
1,6913898,434,-1518,-541,205,-3454,-693,380,22,-162
1,6913905,423,-1518,-559,214,-3455,-668,380,22,-162
1,6913913,423,-1518,-559,214,-3455,-668,380,22,-162
1,6913921,423,-1518,-559,214,-3455,-668,380,22,-162
1,6913929,424,-1516,-571,216,-3460,-623,380,22,-162
1,6913936,424,-1516,-571,216,-3460,-623,380,22,-162
1,6913942,422,-1515,-582,220,-3467,-591,380,22,-162
1,6913948,422,-1515,-582,220,-3467,-591,380,22,-162
1,6913955,422,-1515,-582,220,-3467,-591,380,22,-162
1,6913964,421,-1508,-588,231,-3468,-574,384,30,-154
1,6913970,421,-1508,-588,231,-3468,-574,384,30,-154
1,6913977,421,-1508,-588,231,-3468,-574,384,30,-154
1,6913984,426,-1511,-582,237,-3466,-565,384,30,-154
1,6913992,426,-1511,-582,237,-3466,-565,384,30,-154
1,6913999,426,-1511,-582,237,-3466,-565,384,30,-154
1,6914007,433,-1512,-597,241,-3471,-548,384,30,-154
1,6914013,433,-1512,-597,241,-3471,-548,384,30,-154
1,6914020,433,-1512,-597,241,-3471,-548,384,30,-154
1,6914025,438,-1509,-621,255,-3466,-513,384,30,-154
1,6914033,438,-1509,-621,255,-3466,-513,384,30,-154
1,6914040,438,-1509,-621,255,-3466,-513,384,30,-154
1,6914048,434,-1512,-595,287,-3464,-477,384,30,-154
1,6914054,434,-1512,-595,287,-3464,-477,384,30,-154
1,6914063,439,-1514,-586,294,-3472,-463,384,30,-154
1,6914068,439,-1514,-586,294,-3472,-463,384,30,-154
1,6914074,439,-1514,-586,294,-3472,-463,384,30,-154
1,6914081,431,-1516,-574,295,-3471,-439,384,30,-154
1,6914088,431,-1516,-574,295,-3471,-439,380,28,-154
1,6914095,431,-1516,-574,295,-3471,-439,380,28,-154
1,6914102,436,-1515,-582,286,-3477,-433,380,28,-154
1,6914108,436,-1515,-582,286,-3477,-433,380,28,-154
1,6914113,436,-1515,-582,286,-3477,-433,380,28,-154
1,6914120,436,-1515,-582,286,-3477,-433,380,28,-154
1,6914126,435,-1513,-592,278,-3474,-419,380,28,-154
1,6914135,435,-1513,-592,278,-3474,-419,380,28,-154
1,6914141,435,-1513,-592,278,-3474,-419,380,28,-154
1,6914148,441,-1514,-568,272,-3470,-400,380,28,-154
1,6914154,441,-1514,-568,272,-3470,-400,380,28,-154
1,6914159,441,-1514,-568,272,-3470,-400,380,28,-154
1,6914166,439,-1514,-565,264,-3470,-389,380,28,-154
1,6914172,439,-1514,-565,264,-3470,-389,380,28,-154
1,6914182,439,-1514,-565,264,-3470,-389,380,28,-154
1,6914189,446,-1511,-556,276,-3470,-374,380,28,-154
1,6914197,446,-1511,-556,276,-3470,-374,380,28,-154
1,6914203,439,-1516,-498,289,-3469,-370,380,26,-156
1,6914211,439,-1516,-498,289,-3469,-370,380,26,-156
1,6914217,439,-1516,-498,289,-3469,-370,380,26,-156
1,6914226,447,-1519,-514,296,-3471,-355,380,26,-156
1,6914233,447,-1519,-514,296,-3471,-355,380,26,-156
1,6914239,447,-1519,-514,296,-3471,-355,380,26,-156
1,6914247,436,-1519,-503,289,-3472,-338,380,26,-156
1,6914253,436,-1519,-503,289,-3472,-338,380,26,-156
1,6914259,436,-1519,-503,289,-3472,-338,380,26,-156
1,6914265,448,-1519,-506,279,-3482,-332,380,26,-156
1,6914272,448,-1519,-506,279,-3482,-332,380,26,-156
1,6914280,448,-1519,-506,279,-3482,-332,380,26,-156
1,6914287,446,-1522,-479,264,-3481,-324,380,26,-156
1,6914293,446,-1522,-479,264,-3481,-324,380,26,-156
1,6914300,446,-1522,-479,264,-3481,-324,380,26,-156
1,6914308,448,-1518,-499,263,-3483,-305,380,26,-156
1,6914315,448,-1518,-499,263,-3483,-305,380,26,-156
1,6914322,442,-1514,-502,258,-3488,-287,381,25,-157
1,6914330,442,-1514,-502,258,-3488,-287,381,25,-157
1,6914336,442,-1514,-502,258,-3488,-287,381,25,-157
1,6914341,442,-1514,-502,258,-3488,-287,381,25,-157
1,6914349,442,-1514,-502,258,-3488,-287,381,25,-157
1,6914356,442,-1514,-502,258,-3488,-287,381,25,-157
1,6914364,441,-1523,-478,268,-3487,-260,381,25,-157
1,6914370,441,-1523,-478,268,-3487,-260,381,25,-157
1,6914378,441,-1523,-478,268,-3487,-260,381,25,-157
1,6914385,433,-1516,-490,262,-3487,-263,381,25,-157
1,6914392,433,-1516,-490,262,-3487,-263,381,25,-157
1,6914399,433,-1516,-490,262,-3487,-263,381,25,-157
1,6914404,435,-1516,-496,257,-3492,-260,381,25,-157
1,6914409,435,-1516,-496,257,-3492,-260,381,25,-157
1,6914414,435,-1516,-496,257,-3492,-260,381,25,-157
1,6914419,435,-1516,-496,257,-3492,-260,381,25,-157
1,6914424,442,-1518,-497,259,-3496,-261,381,25,-157
1,6914429,442,-1518,-497,259,-3496,-261,381,25,-157
1,6914435,442,-1518,-497,259,-3496,-261,381,25,-157
1,6914443,443,-1517,-490,280,-3505,-243,381,25,-157
1,6914449,443,-1517,-490,280,-3505,-243,381,25,-157
1,6914456,443,-1517,-490,280,-3505,-243,381,25,-157
1,6914463,445,-1522,-504,286,-3497,-238,373,29,-155
1,6914470,445,-1522,-504,286,-3497,-238,373,29,-155
1,6914478,445,-1522,-504,286,-3497,-238,373,29,-155
1,6914485,444,-1521,-516,284,-3502,-222,373,29,-155
1,6914493,444,-1521,-516,284,-3502,-222,373,29,-155
1,6914500,444,-1521,-516,284,-3502,-222,373,29,-155
1,6914506,439,-1519,-526,287,-3503,-213,373,29,-155
1,6914514,439,-1519,-526,287,-3503,-213,373,29,-155
1,6914522,439,-1519,-526,287,-3503,-213,373,29,-155
1,6914528,442,-1518,-522,306,-3503,-202,373,29,-155
1,6914535,442,-1518,-522,306,-3503,-202,373,29,-155
1,6914541,442,-1518,-522,306,-3503,-202,373,29,-155
1,6914549,438,-1509,-529,314,-3502,-193,373,29,-155
1,6914556,438,-1509,-529,314,-3502,-193,373,29,-155
1,6914566,445,-1512,-517,316,-3500,-210,373,29,-155
1,6914573,445,-1512,-517,316,-3500,-210,373,29,-155
1,6914579,445,-1512,-517,316,-3500,-210,373,29,-155
1,6914585,454,-1512,-524,326,-3498,-213,381,37,-151
1,6914591,454,-1512,-524,326,-3498,-213,381,37,-151
1,6914598,454,-1512,-524,326,-3498,-213,381,37,-151
1,6914607,455,-1519,-525,367,-3496,-209,381,37,-151
1,6914613,455,-1519,-525,367,-3496,-209,381,37,-151
1,6914618,455,-1519,-525,367,-3496,-209,381,37,-151
1,6914623,456,-1525,-511,391,-3504,-198,381,37,-151
1,6914629,456,-1525,-511,391,-3504,-198,381,37,-151
1,6914633,456,-1525,-511,391,-3504,-198,381,37,-151
1,6914638,456,-1525,-511,391,-3504,-198,381,37,-151
1,6914643,453,-1521,-501,392,-3497,-178,381,37,-151
1,6914649,453,-1521,-501,392,-3497,-178,381,37,-151
1,6914656,453,-1521,-501,392,-3497,-178,381,37,-151
1,6914663,448,-1521,-506,386,-3498,-164,381,37,-151
1,6914670,448,-1521,-506,386,-3498,-164,381,37,-151
1,6914675,448,-1521,-506,386,-3498,-164,381,37,-151
1,6914683,454,-1527,-515,379,-3498,-157,381,37,-151
1,6914691,454,-1527,-515,379,-3498,-157,381,37,-151
1,6914697,454,-1527,-515,379,-3498,-157,381,37,-151
1,6914704,457,-1526,-529,356,-3498,-143,379,41,-147
1,6914710,457,-1526,-529,356,-3498,-143,379,41,-147
1,6914717,457,-1526,-529,356,-3498,-143,379,41,-147
1,6914725,466,-1524,-492,354,-3495,-123,379,41,-147
1,6914733,466,-1524,-492,354,-3495,-123,379,41,-147
1,6914740,466,-1524,-492,354,-3495,-123,379,41,-147
1,6914752,464,-1526,-515,341,-3501,-109,379,41,-147
1,6914762,459,-1526,-498,326,-3497,-101,379,41,-147
1,6914775,459,-1526,-498,326,-3497,-101,379,41,-147
1,6914787,462,-1521,-541,323,-3493,-83,379,41,-147
1,6914800,462,-1521,-541,323,-3493,-83,379,41,-147
1,6914811,462,-1521,-541,323,-3493,-83,379,41,-147
1,6914824,458,-1523,-514,340,-3497,-46,383,49,-145
1,6914837,458,-1523,-514,340,-3497,-46,383,49,-145
1,6914851,468,-1522,-551,348,-3489,-35,383,49,-145
1,6914863,472,-1527,-522,345,-3483,-5,383,49,-145
1,6914875,472,-1527,-522,345,-3483,-5,383,49,-145
1,6914889,475,-1527,-531,324,-3494,21,383,49,-145
1,6914902,475,-1527,-531,324,-3494,21,383,49,-145
1,6914913,469,-1530,-505,306,-3489,38,383,49,-145
1,6914926,467,-1527,-550,283,-3482,49,383,49,-145
1,6914939,467,-1527,-550,283,-3482,49,383,49,-145
1,6914949,462,-1521,-546,263,-3477,65,383,49,-145
1,6914961,462,-1521,-546,263,-3477,65,383,49,-145
1,6914973,465,-1511,-552,262,-3480,66,383,49,-145
1,6914988,463,-1517,-534,280,-3477,63,383,49,-145
1,6915000,463,-1517,-534,280,-3477,63,383,49,-145
1,6915012,477,-1525,-553,275,-3471,61,383,49,-145
1,6915025,473,-1524,-548,255,-3474,72,383,49,-145
1,6915039,473,-1524,-548,255,-3474,72,383,49,-145
1,6915052,475,-1518,-559,245,-3464,86,383,49,-145
1,6915065,476,-1512,-559,252,-3458,99,383,49,-145
1,6915079,476,-1512,-559,252,-3458,99,383,49,-145
1,6915090,473,-1513,-554,281,-3457,108,379,47,-143
1,6915103,480,-1518,-550,301,-3452,125,379,47,-143
1,6915117,480,-1518,-550,301,-3452,125,379,47,-143
1,6915130,477,-1518,-551,296,-3445,138,379,47,-143
1,6915143,483,-1517,-546,284,-3445,154,379,47,-143
1,6915158,483,-1517,-546,284,-3445,154,379,47,-143
1,6915170,491,-1507,-560,278,-3448,170,379,47,-143
1,6915181,491,-1507,-560,278,-3448,170,379,47,-143
1,6915192,491,-1507,-560,278,-3448,170,379,47,-143
1,6915205,482,-1512,-567,344,-3435,185,383,45,-149
1,6915218,482,-1512,-567,344,-3435,185,383,45,-149
1,6915230,494,-1520,-564,345,-3431,209,383,45,-149
1,6915243,487,-1515,-540,336,-3425,238,383,45,-149
1,6915255,487,-1515,-540,336,-3425,238,383,45,-149
1,6915268,489,-1509,-549,322,-3418,264,383,45,-149
1,6915279,489,-1509,-549,322,-3418,264,383,45,-149
1,6915295,490,-1509,-546,314,-3408,282,383,45,-149
1,6915306,485,-1509,-541,305,-3403,290,383,45,-149
1,6915320,485,-1509,-541,305,-3403,290,383,45,-149
1,6915334,495,-1503,-530,290,-3402,291,390,56,-150
1,6915346,490,-1503,-542,283,-3395,292,390,56,-150
1,6915358,490,-1503,-542,283,-3395,292,390,56,-150
1,6915369,497,-1504,-526,308,-3394,307,390,56,-150
1,6915383,487,-1512,-536,319,-3398,313,390,56,-150
1,6915395,487,-1512,-536,319,-3398,313,390,56,-150
1,6915403,491,-1510,-518,311,-3390,331,390,56,-150
1,6915411,491,-1510,-518,311,-3390,331,390,56,-150
1,6915420,491,-1510,-518,311,-3390,331,390,56,-150
1,6915428,493,-1508,-511,280,-3385,343,390,56,-150
1,6915436,493,-1508,-511,280,-3385,343,390,56,-150
1,6915444,497,-1505,-520,262,-3379,350,403,65,-141
1,6915452,497,-1505,-520,262,-3379,350,403,65,-141
1,6915461,497,-1505,-520,262,-3379,350,403,65,-141
1,6915469,494,-1505,-509,223,-3377,355,403,65,-141
1,6915477,494,-1505,-509,223,-3377,355,403,65,-141
1,6915485,499,-1503,-521,199,-3379,354,403,65,-141
1,6915492,499,-1503,-521,199,-3379,354,403,65,-141
1,6915501,499,-1503,-521,199,-3379,354,403,65,-141
1,6915509,497,-1493,-519,222,-3375,372,403,65,-141
1,6915517,497,-1493,-519,222,-3375,372,403,65,-141
1,6915525,489,-1502,-505,240,-3366,391,403,65,-141
1,6915533,489,-1502,-505,240,-3366,391,403,65,-141
1,6915543,489,-1502,-505,240,-3366,391,403,65,-141
1,6915551,489,-1502,-505,240,-3366,391,403,65,-141
1,6915560,489,-1502,-505,240,-3366,391,403,65,-141
1,6915568,491,-1498,-485,210,-3357,409,403,65,-141
1,6915578,491,-1498,-485,210,-3357,409,403,65,-141
