imu,time,ax,ay,az,gx,gy,gz,mx,my,mz
2,7418396,-3455,-1651,-980,-160,-247,-90,300,44,-128
2,7418416,-3456,-1647,-979,-157,-236,-89,300,44,-128
2,7418424,-3456,-1647,-979,-157,-236,-89,300,44,-128
2,7418431,-3456,-1647,-979,-157,-236,-89,300,44,-128
2,7418440,-3455,-1647,-982,-163,-240,-88,300,44,-128
2,7418449,-3455,-1647,-982,-163,-240,-88,300,44,-128
2,7418457,-3456,-1649,-976,-162,-245,-84,300,44,-128
2,7418466,-3456,-1649,-976,-162,-245,-84,300,44,-128
2,7418473,-3456,-1649,-976,-162,-245,-84,300,44,-128
2,7418481,-3456,-1650,-980,-160,-241,-84,304,38,-144
2,7418488,-3456,-1650,-980,-160,-241,-84,304,38,-144
2,7418497,-3454,-1650,-974,-158,-244,-87,304,38,-144
2,7418505,-3454,-1650,-974,-158,-244,-87,304,38,-144
2,7418513,-3454,-1650,-974,-158,-244,-87,304,38,-144
2,7418520,-3452,-1650,-984,-159,-243,-86,304,38,-144
2,7418528,-3452,-1650,-984,-159,-243,-86,304,38,-144
2,7418536,-3450,-1650,-986,-165,-246,-82,304,38,-144
2,7418546,-3450,-1650,-986,-165,-246,-82,304,38,-144
2,7418553,-3450,-1650,-986,-165,-246,-82,304,38,-144
2,7418563,-3456,-1651,-981,-166,-249,-85,304,38,-144
2,7418571,-3456,-1651,-981,-166,-249,-85,304,38,-144
2,7418579,-3454,-1651,-981,-163,-243,-86,304,38,-144
2,7418588,-3454,-1651,-981,-163,-243,-86,304,38,-144
2,7418595,-3455,-1648,-979,-165,-240,-79,304,38,-144
2,7418603,-3455,-1648,-979,-165,-240,-79,304,38,-144
2,7418610,-3455,-1648,-979,-165,-240,-79,304,38,-144
2,7418617,-3455,-1648,-973,-167,-238,-81,300,34,-132
2,7418627,-3455,-1648,-973,-167,-238,-81,300,34,-132
2,7418635,-3455,-1648,-973,-167,-238,-81,300,34,-132
2,7418642,-3448,-1649,-977,-163,-244,-81,300,34,-132
2,7418650,-3448,-1649,-977,-163,-244,-81,300,34,-132
2,7418658,-3454,-1649,-978,-163,-244,-80,300,34,-132
2,7418667,-3454,-1649,-978,-163,-244,-80,300,34,-132
2,7418674,-3454,-1649,-978,-163,-244,-80,300,34,-132
2,7418683,-3453,-1650,-982,-165,-247,-91,300,34,-132
2,7418692,-3453,-1650,-982,-165,-247,-91,300,34,-132
2,7418700,-3456,-1648,-983,-156,-244,-94,300,34,-132
2,7418708,-3456,-1648,-983,-156,-244,-94,300,34,-132
2,7418717,-3455,-1648,-984,-155,-241,-88,300,34,-132
2,7418725,-3455,-1648,-984,-155,-241,-88,300,34,-132
2,7418732,-3455,-1648,-984,-155,-241,-88,300,34,-132
2,7418744,-3450,-1646,-981,-160,-245,-81,307,41,-137
2,7418752,-3450,-1646,-981,-160,-245,-81,307,41,-137
2,7418760,-3452,-1646,-978,-161,-244,-88,307,41,-137
2,7418767,-3452,-1646,-978,-161,-244,-88,307,41,-137
2,7418774,-3452,-1646,-978,-161,-244,-88,307,41,-137
2,7418782,-3452,-1649,-976,-160,-245,-80,307,41,-137
2,7418789,-3452,-1649,-976,-160,-245,-80,307,41,-137
2,7418798,-3452,-1650,-980,-158,-247,-77,307,41,-137
2,7418805,-3452,-1650,-980,-158,-247,-77,307,41,-137
2,7418812,-3452,-1650,-980,-158,-247,-77,307,41,-137
2,7418820,-3448,-1647,-981,-163,-251,-84,307,41,-137
2,7418829,-3448,-1647,-981,-163,-251,-84,307,41,-137
2,7418838,-3452,-1647,-985,-165,-248,-85,307,41,-137
2,7418847,-3452,-1647,-985,-165,-248,-85,307,41,-137
2,7418857,-3455,-1648,-980,-160,-248,-92,299,39,-129
2,7418866,-3455,-1648,-980,-160,-248,-92,299,39,-129
2,7418874,-3455,-1648,-980,-160,-248,-92,299,39,-129
2,7418883,-3454,-1650,-974,-155,-245,-96,299,39,-129
2,7418892,-3454,-1650,-974,-155,-245,-96,299,39,-129
2,7418901,-3461,-1651,-979,-154,-242,-90,299,39,-129
2,7418909,-3461,-1651,-979,-154,-242,-90,299,39,-129
2,7418918,-3452,-1648,-984,-161,-240,-87,299,39,-129
2,7418928,-3452,-1648,-984,-161,-240,-87,299,39,-129
2,7418937,-3451,-1646,-981,-163,-233,-79,299,39,-129
2,7418949,-3451,-1646,-981,-163,-233,-79,299,39,-129
2,7418961,-3452,-1651,-984,-159,-236,-89,299,39,-129
2,7418974,-3452,-1651,-984,-159,-236,-89,299,39,-129
2,7418987,-3447,-1650,-984,-157,-236,-90,303,41,-141
2,7418999,-3453,-1651,-980,-158,-243,-85,303,41,-141
2,7419013,-3453,-1651,-980,-158,-243,-85,303,41,-141
2,7419027,-3455,-1648,-980,-162,-244,-80,303,41,-141
2,7419038,-3455,-1648,-980,-162,-244,-80,303,41,-141
2,7419048,-3455,-1648,-980,-162,-244,-80,303,41,-141
2,7419057,-3454,-1648,-980,-162,-244,-85,303,41,-141
2,7419064,-3454,-1648,-980,-162,-244,-85,303,41,-141
2,7419072,-3454,-1648,-980,-162,-244,-85,303,41,-141
2,7419081,-3455,-1647,-984,-158,-246,-84,303,41,-141
2,7419089,-3455,-1647,-984,-158,-246,-84,303,41,-141
2,7419102,-3449,-1649,-982,-156,-245,-85,298,34,-136
2,7419116,-3445,-1647,-980,-167,-240,-85,298,34,-136
2,7419131,-3445,-1647,-980,-167,-240,-85,298,34,-136
2,7419141,-3447,-1648,-983,-168,-240,-84,298,34,-136
2,7419153,-3447,-1648,-983,-168,-240,-84,298,34,-136
2,7419165,-3455,-1650,-976,-162,-233,-85,298,34,-136
2,7419180,-3454,-1653,-984,-163,-246,-89,298,34,-136
2,7419189,-3454,-1653,-984,-163,-246,-89,298,34,-136
2,7419202,-3456,-1650,-981,-164,-246,-84,298,34,-136
2,7419214,-3456,-1650,-981,-164,-246,-84,298,34,-136
2,7419228,-3451,-1647,-984,-168,-247,-85,298,34,-136
2,7419239,-3450,-1644,-981,-166,-245,-90,300,42,-132
2,7419250,-3450,-1644,-981,-166,-245,-90,300,42,-132
2,7419265,-3448,-1650,-978,-167,-241,-77,300,42,-132
2,7419277,-3454,-1650,-985,-157,-238,-79,300,42,-132
2,7419289,-3454,-1650,-985,-157,-238,-79,300,42,-132
2,7419303,-3451,-1647,-982,-160,-245,-78,300,42,-132
2,7419317,-3454,-1650,-983,-158,-245,-85,300,42,-132
2,7419330,-3454,-1650,-983,-158,-245,-85,300,42,-132
2,7419339,-3455,-1652,-987,-163,-243,-85,300,42,-132
2,7419346,-3455,-1652,-987,-163,-243,-85,300,42,-132
2,7419354,-3455,-1652,-987,-163,-243,-85,300,42,-132
2,7419361,-3453,-1651,-985,-160,-241,-83,300,44,-128
2,7419367,-3453,-1651,-985,-160,-241,-83,300,44,-128
2,7419372,-3453,-1651,-985,-160,-241,-83,300,44,-128
2,7419379,-3453,-1650,-978,-162,-239,-84,300,44,-128
2,7419386,-3453,-1650,-978,-162,-239,-84,300,44,-128
2,7419392,-3453,-1650,-978,-162,-239,-84,300,44,-128
2,7419400,-3452,-1649,-977,-161,-242,-90,300,44,-128
2,7419408,-3452,-1649,-977,-161,-242,-90,300,44,-128
2,7419414,-3452,-1649,-977,-161,-242,-90,300,44,-128
2,7419419,-3450,-1644,-983,-157,-234,-86,300,44,-128
2,7419424,-3450,-1644,-983,-157,-234,-86,300,44,-128
2,7419430,-3450,-1644,-983,-157,-234,-86,300,44,-128
2,7419438,-3452,-1647,-977,-161,-239,-82,300,44,-128
2,7419446,-3452,-1647,-977,-161,-239,-82,300,44,-128
2,7419453,-3452,-1647,-977,-161,-239,-82,300,44,-128
2,7419460,-3452,-1649,-988,-163,-244,-75,300,44,-128
2,7419466,-3452,-1649,-988,-163,-244,-75,300,44,-128
2,7419473,-3452,-1649,-988,-163,-244,-75,300,44,-128
2,7419480,-3456,-1650,-980,-164,-250,-78,300,42,-136
2,7419487,-3456,-1650,-980,-164,-250,-78,300,42,-136
2,7419495,-3456,-1650,-980,-164,-250,-78,300,42,-136
2,7419503,-3454,-1648,-980,-166,-243,-75,300,42,-136
2,7419510,-3454,-1648,-980,-166,-243,-75,300,42,-136
2,7419517,-3450,-1651,-982,-164,-245,-80,300,42,-136
2,7419525,-3450,-1651,-982,-164,-245,-80,300,42,-136
2,7419532,-3450,-1651,-982,-164,-245,-80,300,42,-136
2,7419540,-3452,-1650,-985,-158,-244,-80,300,42,-136
2,7419547,-3452,-1650,-985,-158,-244,-80,300,42,-136
2,7419553,-3452,-1650,-985,-158,-244,-80,300,42,-136
2,7419561,-3449,-1649,-980,-159,-242,-90,300,42,-136
2,7419570,-3449,-1649,-980,-159,-242,-90,300,42,-136
2,7419576,-3449,-1649,-980,-159,-242,-90,300,42,-136
2,7419582,-3453,-1649,-979,-159,-241,-89,300,42,-136
2,7419589,-3453,-1649,-979,-159,-241,-89,300,42,-136
2,7419596,-3453,-1649,-982,-160,-245,-91,305,39,-133
2,7419603,-3453,-1649,-982,-160,-245,-91,305,39,-133
2,7419610,-3453,-1649,-982,-160,-245,-91,305,39,-133
2,7419615,-3453,-1649,-982,-160,-245,-91,305,39,-133
2,7419620,-3455,-1648,-983,-160,-251,-88,305,39,-133
2,7419627,-3455,-1648,-983,-160,-251,-88,305,39,-133
2,7419633,-3455,-1648,-983,-160,-251,-88,305,39,-133
2,7419639,-3455,-1651,-981,-168,-251,-85,305,39,-133
2,7419646,-3455,-1651,-981,-168,-251,-85,305,39,-133
2,7419653,-3455,-1651,-981,-168,-251,-85,305,39,-133
2,7419659,-3452,-1648,-977,-169,-250,-85,305,39,-133
2,7419664,-3452,-1648,-977,-169,-250,-85,305,39,-133
2,7419669,-3452,-1648,-977,-169,-250,-85,305,39,-133
2,7419674,-3452,-1648,-977,-169,-250,-85,305,39,-133
2,7419681,-3454,-1648,-982,-166,-243,-81,305,39,-133
2,7419687,-3454,-1648,-982,-166,-243,-81,305,39,-133
2,7419694,-3454,-1648,-982,-166,-243,-81,305,39,-133
2,7419700,-3449,-1649,-979,-158,-245,-86,305,39,-133
2,7419705,-3449,-1649,-979,-158,-245,-86,305,39,-133
2,7419710,-3449,-1649,-979,-158,-245,-86,305,39,-133
2,7419715,-3449,-1649,-979,-158,-245,-86,305,39,-133
2,7419720,-3450,-1648,-985,-162,-240,-77,300,40,-134
2,7419725,-3450,-1648,-985,-162,-240,-77,300,40,-134
2,7419730,-3450,-1648,-985,-162,-240,-77,300,40,-134
2,7419736,-3450,-1648,-985,-162,-240,-77,300,40,-134
2,7419741,-3452,-1646,-979,-168,-241,-83,300,40,-134
2,7419747,-3452,-1646,-979,-168,-241,-83,300,40,-134
2,7419752,-3452,-1646,-979,-168,-241,-83,300,40,-134
2,7419758,-3452,-1645,-978,-159,-237,-87,300,40,-134
2,7419763,-3452,-1645,-978,-159,-237,-87,300,40,-134
2,7419768,-3452,-1645,-978,-159,-237,-87,300,40,-134
2,7419776,-3452,-1645,-978,-159,-237,-87,300,40,-134
2,7419781,-3457,-1651,-983,-161,-241,-86,300,40,-134
2,7419786,-3457,-1651,-983,-161,-241,-86,300,40,-134
2,7419791,-3457,-1651,-983,-161,-241,-86,300,40,-134
2,7419797,-3455,-1649,-983,-166,-244,-86,300,40,-134
2,7419803,-3455,-1649,-983,-166,-244,-86,300,40,-134
2,7419808,-3455,-1649,-983,-166,-244,-86,300,40,-134
2,7419814,-3455,-1649,-983,-166,-244,-86,300,40,-134
2,7419821,-3453,-1647,-980,-171,-241,-83,300,40,-134
2,7419826,-3453,-1647,-980,-171,-241,-83,300,40,-134
2,7419832,-3453,-1647,-980,-171,-241,-83,300,40,-134
2,7419838,-3453,-1648,-981,-173,-240,-84,300,40,-134
2,7419844,-3453,-1648,-981,-173,-240,-84,300,40,-134
2,7419851,-3453,-1648,-981,-173,-240,-84,300,40,-134
2,7419857,-3448,-1650,-975,-166,-238,-89,297,35,-125
2,7419866,-3448,-1650,-975,-166,-238,-89,297,35,-125
2,7419873,-3448,-1650,-975,-166,-238,-89,297,35,-125
2,7419882,-3456,-1647,-982,-162,-243,-81,297,35,-125
2,7419889,-3456,-1647,-982,-162,-243,-81,297,35,-125
2,7419896,-3453,-1650,-978,-162,-247,-86,297,35,-125
2,7419902,-3453,-1650,-978,-162,-247,-86,297,35,-125
2,7419910,-3453,-1650,-978,-162,-247,-86,297,35,-125
2,7419916,-3453,-1650,-978,-162,-247,-86,297,35,-125
2,7419923,-3458,-1649,-980,-162,-250,-84,297,35,-125
2,7419931,-3458,-1649,-980,-162,-250,-84,297,35,-125
2,7419937,-3454,-1646,-983,-158,-242,-85,297,35,-125
2,7419943,-3454,-1646,-983,-158,-242,-85,297,35,-125
2,7419952,-3454,-1646,-983,-158,-242,-85,297,35,-125
2,7419960,-3452,-1648,-980,-161,-240,-84,297,35,-125
2,7419967,-3452,-1648,-980,-161,-240,-84,297,35,-125
2,7419974,-3452,-1648,-980,-161,-240,-84,297,35,-125
2,7419981,-3456,-1648,-976,-162,-239,-86,296,42,-128
2,7419987,-3456,-1648,-976,-162,-239,-86,296,42,-128
2,7419995,-3456,-1648,-976,-162,-239,-86,296,42,-128
2,7420002,-3453,-1647,-979,-169,-235,-89,296,42,-128
2,7420010,-3453,-1647,-979,-169,-235,-89,296,42,-128
2,7420017,-3452,-1648,-983,-168,-237,-87,296,42,-128
2,7420024,-3452,-1648,-983,-168,-237,-87,296,42,-128
2,7420030,-3452,-1648,-983,-168,-237,-87,296,42,-128
2,7420038,-3451,-1647,-986,-171,-243,-91,296,42,-128
2,7420045,-3451,-1647,-986,-171,-243,-91,296,42,-128
2,7420052,-3451,-1647,-986,-171,-243,-91,296,42,-128
2,7420060,-3456,-1646,-985,-164,-235,-90,296,42,-128
2,7420067,-3456,-1646,-985,-164,-235,-90,296,42,-128
2,7420075,-3456,-1646,-985,-164,-235,-90,296,42,-128
2,7420083,-3456,-1647,-983,-164,-244,-82,296,42,-128
2,7420091,-3456,-1647,-983,-164,-244,-82,296,42,-128
2,7420098,-3451,-1647,-977,-164,-244,-86,294,34,-126
2,7420107,-3451,-1647,-977,-164,-244,-86,294,34,-126
2,7420114,-3451,-1647,-977,-164,-244,-86,294,34,-126
2,7420121,-3459,-1648,-978,-160,-247,-81,294,34,-126
2,7420127,-3459,-1648,-978,-160,-247,-81,294,34,-126
2,7420134,-3459,-1648,-978,-160,-247,-81,294,34,-126
2,7420141,-3454,-1648,-980,-156,-242,-89,294,34,-126
2,7420149,-3454,-1648,-980,-156,-242,-89,294,34,-126
2,7420157,-3454,-1647,-980,-161,-240,-89,294,34,-126
2,7420165,-3454,-1647,-980,-161,-240,-89,294,34,-126
2,7420171,-3454,-1647,-980,-161,-240,-89,294,34,-126
2,7420178,-3456,-1651,-983,-157,-248,-89,294,34,-126
2,7420185,-3456,-1651,-983,-157,-248,-89,294,34,-126
2,7420192,-3456,-1651,-983,-157,-248,-89,294,34,-126
2,7420197,-3455,-1650,-980,-162,-244,-90,294,34,-126
2,7420203,-3455,-1650,-980,-162,-244,-90,294,34,-126
2,7420209,-3455,-1650,-980,-162,-244,-90,294,34,-126
2,7420216,-3455,-1650,-980,-162,-244,-90,294,34,-126
2,7420223,-3455,-1648,-979,-160,-243,-86,299,37,-129
2,7420231,-3455,-1648,-979,-160,-243,-86,299,37,-129
2,7420237,-3457,-1647,-977,-162,-249,-81,299,37,-129
2,7420244,-3457,-1647,-977,-162,-249,-81,299,37,-129
2,7420252,-3457,-1647,-977,-162,-249,-81,299,37,-129
2,7420259,-3452,-1646,-984,-160,-247,-87,299,37,-129
2,7420266,-3452,-1646,-984,-160,-247,-87,299,37,-129
2,7420273,-3452,-1646,-984,-160,-247,-87,299,37,-129
2,7420278,-3455,-1647,-983,-161,-243,-92,299,37,-129
2,7420285,-3455,-1647,-983,-161,-243,-92,299,37,-129
2,7420293,-3455,-1647,-983,-161,-243,-92,299,37,-129
2,7420301,-3455,-1647,-983,-157,-243,-87,299,37,-129
2,7420308,-3455,-1647,-983,-157,-243,-87,299,37,-129
2,7420316,-3455,-1647,-983,-157,-243,-87,299,37,-129
2,7420323,-3455,-1649,-984,-166,-245,-78,299,37,-129
2,7420331,-3455,-1649,-984,-166,-245,-78,299,37,-129
2,7420338,-3454,-1649,-978,-162,-239,-90,301,43,-131
2,7420343,-3454,-1649,-978,-162,-239,-90,301,43,-131
2,7420355,-3454,-1649,-978,-162,-239,-90,301,43,-131
2,7420364,-3457,-1649,-979,-160,-241,-85,301,43,-131
2,7420376,-3457,-1649,-979,-160,-241,-85,301,43,-131
2,7420390,-3457,-1649,-984,-162,-247,-86,301,43,-131
2,7420404,-3454,-1648,-976,-162,-241,-87,301,43,-131
2,7420412,-3454,-1648,-976,-162,-241,-87,301,43,-131
2,7420424,-3453,-1648,-982,-159,-242,-88,301,43,-131
2,7420439,-3452,-1647,-982,-155,-246,-85,301,43,-131
2,7420452,-3452,-1647,-982,-155,-246,-85,301,43,-131
2,7420463,-3455,-1648,-979,-157,-247,-84,301,43,-131
2,7420475,-3455,-1648,-979,-157,-247,-84,301,43,-131
2,7420489,-3455,-1648,-977,-159,-236,-79,307,33,-133
2,7420503,-3458,-1647,-980,-162,-248,-89,307,33,-133
2,7420513,-3458,-1647,-980,-162,-248,-89,307,33,-133
2,7420526,-3459,-1648,-982,-161,-239,-88,307,33,-133
2,7420539,-3455,-1651,-983,-157,-243,-86,307,33,-133
2,7420554,-3455,-1651,-983,-157,-243,-86,307,33,-133
2,7420563,-3455,-1650,-976,-160,-243,-83,307,33,-133
2,7420575,-3455,-1650,-976,-160,-243,-83,307,33,-133
2,7420588,-3453,-1650,-981,-160,-242,-93,307,33,-133
2,7420601,-3456,-1647,-979,-163,-239,-81,298,40,-130
2,7420612,-3456,-1647,-979,-163,-239,-81,298,40,-130
2,7420627,-3457,-1650,-978,-165,-244,-88,298,40,-130
2,7420639,-3457,-1650,-978,-165,-244,-88,298,40,-130
2,7420652,-3457,-1650,-978,-165,-244,-88,298,40,-130
2,7420660,-3456,-1649,-978,-167,-240,-79,298,40,-130
2,7420668,-3456,-1649,-978,-167,-240,-79,298,40,-130
2,7420676,-3456,-1649,-978,-167,-240,-79,298,40,-130
2,7420686,-3458,-1650,-979,-160,-245,-82,298,40,-130
2,7420695,-3458,-1650,-979,-160,-245,-82,298,40,-130
2,7420703,-3458,-1649,-985,-160,-238,-85,298,40,-130
2,7420711,-3458,-1649,-985,-160,-238,-85,298,40,-130
2,7420720,-3458,-1649,-985,-160,-238,-85,300,50,-136
2,7420727,-3458,-1649,-985,-160,-238,-85,300,50,-136
2,7420735,-3458,-1649,-985,-160,-238,-85,300,50,-136
2,7420742,-3456,-1650,-976,-162,-242,-83,300,50,-136
2,7420750,-3456,-1650,-976,-162,-242,-83,300,50,-136
2,7420759,-3457,-1647,-982,-165,-242,-82,300,50,-136
2,7420767,-3457,-1647,-982,-165,-242,-82,300,50,-136
2,7420774,-3457,-1647,-982,-165,-242,-82,300,50,-136
2,7420783,-3458,-1648,-980,-171,-237,-91,300,50,-136
2,7420790,-3458,-1648,-980,-171,-237,-91,300,50,-136
2,7420798,-3458,-1649,-980,-167,-246,-82,300,50,-136
2,7420811,-3458,-1649,-980,-167,-246,-82,300,50,-136
2,7420823,-3460,-1651,-981,-166,-250,-84,300,50,-136
2,7420836,-3460,-1651,-981,-166,-250,-84,300,50,-136
2,7420849,-3454,-1649,-982,-161,-248,-79,297,47,-127
2,7420862,-3453,-1649,-976,-164,-241,-86,297,47,-127
2,7420874,-3453,-1649,-976,-164,-241,-86,297,47,-127
2,7420887,-3457,-1649,-980,-166,-242,-86,297,47,-127
2,7420901,-3457,-1648,-978,-162,-244,-88,297,47,-127
2,7420914,-3457,-1648,-978,-162,-244,-88,297,47,-127
2,7420926,-3459,-1648,-982,-164,-243,-76,297,47,-127
2,7420942,-3460,-1649,-979,-161,-243,-88,297,47,-127
2,7420955,-3460,-1649,-979,-161,-243,-88,297,47,-127
2,7420965,-3458,-1646,-979,-160,-243,-79,303,41,-137
2,7420979,-3454,-1650,-976,-165,-242,-81,303,41,-137
2,7420992,-3454,-1650,-976,-165,-242,-81,303,41,-137
2,7421004,-3456,-1649,-979,-166,-240,-92,303,41,-137
2,7421015,-3456,-1649,-979,-166,-240,-92,303,41,-137
2,7421028,-3457,-1649,-977,-168,-239,-85,303,41,-137
2,7421041,-3455,-1646,-984,-163,-240,-84,303,41,-137
2,7421053,-3455,-1646,-984,-163,-240,-84,303,41,-137
2,7421065,-3458,-1648,-978,-159,-247,-77,303,41,-137
2,7421079,-3460,-1649,-983,-158,-236,-81,303,41,-137
2,7421091,-3460,-1649,-983,-158,-236,-81,303,41,-137
2,7421105,-3461,-1650,-976,-160,-238,-85,301,39,-133
2,7421118,-3457,-1650,-976,-164,-237,-88,301,39,-133
2,7421130,-3457,-1650,-976,-164,-237,-88,301,39,-133
2,7421144,-3455,-1647,-978,-164,-242,-89,301,39,-133
2,7421157,-3455,-1647,-978,-164,-242,-89,301,39,-133
2,7421169,-3452,-1649,-974,-164,-234,-85,301,39,-133
2,7421181,-3453,-1650,-978,-166,-236,-87,301,39,-133
2,7421196,-3453,-1650,-978,-166,-236,-87,301,39,-133
2,7421209,-3457,-1647,-977,-159,-237,-86,301,39,-133
2,7421222,-3459,-1647,-975,-158,-239,-83,303,39,-129
2,7421234,-3459,-1647,-975,-158,-239,-83,303,39,-129
2,7421246,-3458,-1648,-980,-159,-245,-95,303,39,-129
2,7421258,-3458,-1648,-982,-157,-244,-90,303,39,-129
2,7421272,-3458,-1648,-982,-157,-244,-90,303,39,-129
2,7421283,-3454,-1648,-979,-156,-232,-83,303,39,-129
2,7421296,-3454,-1648,-979,-156,-232,-83,303,39,-129
2,7421308,-3455,-1649,-979,-162,-237,-91,303,39,-129
2,7421322,-3456,-1648,-982,-163,-240,-83,303,39,-129
2,7421335,-3456,-1648,-982,-163,-240,-83,303,39,-129
2,7421348,-3455,-1647,-977,-158,-244,-84,312,40,-136
2,7421356,-3455,-1647,-977,-158,-244,-84,312,40,-136
2,7421363,-3457,-1650,-978,-163,-240,-83,312,40,-136
2,7421371,-3457,-1650,-978,-163,-240,-83,312,40,-136
2,7421378,-3457,-1647,-978,-161,-241,-83,312,40,-136
2,7421385,-3457,-1647,-978,-161,-241,-83,312,40,-136
2,7421391,-3457,-1647,-978,-161,-241,-83,312,40,-136
2,7421399,-3457,-1648,-984,-161,-231,-83,312,40,-136
2,7421404,-3457,-1648,-984,-161,-231,-83,312,40,-136
2,7421409,-3457,-1648,-984,-161,-231,-83,312,40,-136
2,7421414,-3457,-1648,-984,-161,-231,-83,312,40,-136
2,7421421,-3458,-1645,-983,-159,-231,-80,312,40,-136
2,7421427,-3458,-1645,-983,-159,-231,-80,312,40,-136
2,7421435,-3458,-1645,-983,-159,-231,-80,312,40,-136
2,7421442,-3454,-1647,-983,-162,-234,-78,312,40,-136
2,7421448,-3454,-1647,-983,-162,-234,-78,312,40,-136
2,7421453,-3454,-1647,-983,-162,-234,-78,312,40,-136
2,7421461,-3451,-1651,-977,-161,-245,-82,297,35,-129
2,7421468,-3451,-1651,-977,-161,-245,-82,297,35,-129
2,7421475,-3451,-1651,-977,-161,-245,-82,297,35,-129
2,7421481,-3452,-1648,-979,-162,-238,-84,297,35,-129
2,7421491,-3452,-1648,-979,-162,-238,-84,297,35,-129
2,7421498,-3457,-1647,-983,-162,-241,-79,297,35,-129
2,7421506,-3457,-1647,-983,-162,-241,-79,297,35,-129
2,7421512,-3457,-1647,-983,-162,-241,-79,297,35,-129
2,7421518,-3460,-1645,-977,-157,-242,-77,297,35,-129
2,7421524,-3460,-1645,-977,-157,-242,-77,297,35,-129
2,7421531,-3460,-1645,-977,-157,-242,-77,297,35,-129
2,7421537,-3460,-1645,-977,-157,-242,-77,297,35,-129
2,7421545,-3459,-1644,-980,-164,-241,-81,297,35,-129
2,7421550,-3459,-1644,-980,-164,-241,-81,297,35,-129
2,7421557,-3459,-1644,-980,-164,-241,-81,297,35,-129
2,7421564,-3455,-1647,-980,-155,-230,-93,297,35,-129
2,7421574,-3455,-1647,-980,-155,-230,-93,297,35,-129
2,7421581,-3455,-1646,-981,-157,-231,-94,294,46,-134
2,7421587,-3455,-1646,-981,-157,-231,-94,294,46,-134
2,7421593,-3455,-1646,-981,-157,-231,-94,294,46,-134
2,7421600,-3451,-1646,-981,-164,-239,-93,294,46,-134
2,7421607,-3451,-1646,-981,-164,-239,-93,294,46,-134
2,7421614,-3451,-1646,-981,-164,-239,-93,294,46,-134
2,7421620,-3451,-1650,-977,-158,-238,-92,294,46,-134
2,7421629,-3451,-1650,-977,-158,-238,-92,294,46,-134
2,7421634,-3451,-1650,-977,-158,-238,-92,294,46,-134
2,7421643,-3453,-1648,-975,-166,-238,-91,294,46,-134
2,7421650,-3453,-1648,-975,-166,-238,-91,294,46,-134
2,7421656,-3453,-1648,-975,-166,-238,-91,294,46,-134
2,7421661,-3454,-1647,-979,-161,-243,-83,294,46,-134
2,7421666,-3454,-1647,-979,-161,-243,-83,294,46,-134
2,7421671,-3454,-1647,-979,-161,-243,-83,294,46,-134
2,7421676,-3454,-1647,-979,-161,-243,-83,294,46,-134
2,7421681,-3458,-1647,-981,-162,-228,-78,294,46,-134
2,7421686,-3458,-1647,-981,-162,-228,-78,294,46,-134
2,7421692,-3458,-1647,-981,-162,-228,-78,294,46,-134
2,7421699,-3458,-1650,-978,-161,-231,-76,296,44,-120
2,7421704,-3458,-1650,-978,-161,-231,-76,296,44,-120
2,7421709,-3458,-1650,-978,-161,-231,-76,296,44,-120
2,7421715,-3458,-1650,-978,-161,-231,-76,296,44,-120
2,7421720,-3455,-1650,-979,-157,-243,-79,296,44,-120
2,7421725,-3455,-1650,-979,-157,-243,-79,296,44,-120
2,7421730,-3455,-1650,-979,-157,-243,-79,296,44,-120
2,7421735,-3455,-1650,-979,-157,-243,-79,296,44,-120
2,7421742,-3454,-1649,-981,-165,-255,-79,296,44,-120
2,7421747,-3454,-1649,-981,-165,-255,-79,296,44,-120
2,7421752,-3454,-1649,-981,-165,-255,-79,296,44,-120
2,7421758,-3454,-1649,-981,-165,-255,-79,296,44,-120
2,7421763,-3451,-1647,-979,-165,-245,-87,296,44,-120
2,7421769,-3451,-1647,-979,-165,-245,-87,296,44,-120
2,7421774,-3451,-1647,-979,-165,-245,-87,296,44,-120
2,7421780,-3450,-1647,-979,-162,-243,-94,296,44,-120
2,7421787,-3450,-1647,-979,-162,-243,-94,296,44,-120
2,7421792,-3450,-1647,-979,-162,-243,-94,296,44,-120
2,7421798,-3453,-1648,-983,-164,-237,-97,296,44,-120
2,7421806,-3453,-1648,-983,-164,-237,-97,296,44,-120
2,7421813,-3453,-1648,-983,-164,-237,-97,296,44,-120
2,7421821,-3457,-1648,-981,-166,-237,-86,296,44,-120
2,7421829,-3457,-1648,-981,-166,-237,-86,296,44,-120
2,7421834,-3457,-1648,-981,-166,-237,-86,296,44,-120
2,7421842,-3455,-1648,-982,-162,-232,-89,304,36,-124
2,7421850,-3455,-1648,-982,-162,-232,-89,304,36,-124
2,7421858,-3455,-1648,-982,-162,-232,-89,304,36,-124
2,7421865,-3455,-1648,-982,-162,-232,-89,304,36,-124
2,7421871,-3455,-1648,-982,-162,-232,-89,304,36,-124
2,7421878,-3455,-1648,-982,-162,-232,-89,304,36,-124
2,7421886,-3454,-1648,-982,-160,-237,-88,304,36,-124
2,7421892,-3454,-1648,-982,-160,-237,-88,304,36,-124
2,7421899,-3451,-1650,-981,-162,-241,-87,304,36,-124
2,7421904,-3451,-1650,-981,-162,-241,-87,304,36,-124
2,7421913,-3451,-1650,-981,-162,-241,-87,304,36,-124
2,7421921,-3451,-1648,-983,-167,-240,-77,304,36,-124
2,7421927,-3451,-1648,-983,-167,-240,-77,304,36,-124
2,7421933,-3451,-1648,-983,-167,-240,-77,304,36,-124
2,7421942,-3456,-1647,-975,-164,-244,-81,304,36,-124
2,7421949,-3456,-1647,-975,-164,-244,-81,304,36,-124
2,7421957,-3456,-1647,-975,-164,-244,-81,304,36,-124
2,7421963,-3455,-1648,-983,-157,-240,-86,298,46,-130
2,7421970,-3455,-1648,-983,-157,-240,-86,298,46,-130
2,7421977,-3455,-1648,-983,-157,-240,-86,298,46,-130
2,7421984,-3454,-1647,-979,-153,-243,-80,298,46,-130
2,7421992,-3454,-1647,-979,-153,-243,-80,298,46,-130
2,7422000,-3455,-1648,-986,-161,-240,-85,298,46,-130
2,7422007,-3455,-1648,-986,-161,-240,-85,298,46,-130
2,7422014,-3455,-1648,-986,-161,-240,-85,298,46,-130
2,7422021,-3452,-1650,-984,-169,-247,-92,298,46,-130
2,7422028,-3452,-1650,-984,-169,-247,-92,298,46,-130
2,7422036,-3452,-1650,-984,-169,-247,-92,298,46,-130
2,7422043,-3454,-1649,-984,-158,-241,-79,298,46,-130
2,7422050,-3454,-1649,-984,-158,-241,-79,298,46,-130
2,7422057,-3454,-1649,-984,-158,-241,-79,298,46,-130
2,7422064,-3451,-1650,-988,-161,-251,-83,298,46,-130
2,7422070,-3451,-1650,-988,-161,-251,-83,298,46,-130
2,7422077,-3451,-1650,-988,-161,-251,-83,298,46,-130
2,7422086,-3456,-1646,-977,-163,-243,-85,301,35,-125
2,7422093,-3456,-1646,-977,-163,-243,-85,301,35,-125
2,7422100,-3453,-1645,-979,-162,-243,-88,301,35,-125
2,7422105,-3453,-1645,-979,-162,-243,-88,301,35,-125
2,7422111,-3453,-1645,-979,-162,-243,-88,301,35,-125
2,7422118,-3453,-1645,-979,-162,-243,-88,301,35,-125
2,7422127,-3459,-1651,-976,-158,-234,-87,301,35,-125
2,7422134,-3459,-1651,-976,-158,-234,-87,301,35,-125
2,7422139,-3453,-1650,-982,-163,-234,-90,301,35,-125
2,7422145,-3453,-1650,-982,-163,-234,-90,301,35,-125
2,7422152,-3453,-1650,-982,-163,-234,-90,301,35,-125
2,7422160,-3449,-1648,-985,-166,-238,-92,301,35,-125
2,7422168,-3449,-1648,-985,-166,-238,-92,301,35,-125
2,7422176,-3449,-1648,-985,-166,-238,-92,301,35,-125
2,7422183,-3452,-1648,-986,-161,-247,-90,301,35,-125
2,7422191,-3452,-1648,-986,-161,-247,-90,301,35,-125
2,7422198,-3452,-1648,-986,-161,-247,-90,301,35,-125
2,7422203,-3452,-1645,-982,-156,-243,-89,296,44,-136
2,7422209,-3452,-1645,-982,-156,-243,-89,296,44,-136
2,7422215,-3452,-1645,-982,-156,-243,-89,296,44,-136
2,7422220,-3450,-1644,-980,-162,-243,-90,296,44,-136
2,7422229,-3450,-1644,-980,-162,-243,-90,296,44,-136
2,7422235,-3450,-1644,-980,-162,-243,-90,296,44,-136
2,7422242,-3457,-1646,-980,-170,-244,-88,296,44,-136
2,7422249,-3457,-1646,-980,-170,-244,-88,296,44,-136
2,7422257,-3457,-1646,-980,-170,-244,-88,296,44,-136
2,7422264,-3453,-1649,-979,-166,-234,-82,296,44,-136
2,7422270,-3453,-1649,-979,-166,-234,-82,296,44,-136
2,7422277,-3453,-1649,-979,-166,-234,-82,296,44,-136
2,7422284,-3458,-1650,-987,-155,-233,-83,296,44,-136
2,7422290,-3458,-1650,-987,-155,-233,-83,296,44,-136
2,7422298,-3458,-1650,-987,-155,-233,-83,296,44,-136
2,7422305,-3453,-1651,-982,-159,-238,-82,296,44,-136
2,7422312,-3453,-1651,-982,-159,-238,-82,296,44,-136
2,7422319,-3453,-1652,-985,-162,-242,-85,296,44,-136
2,7422325,-3453,-1652,-985,-162,-242,-85,296,42,-134
2,7422331,-3453,-1652,-985,-162,-242,-85,296,42,-134
2,7422337,-3453,-1652,-985,-162,-242,-85,296,42,-134
2,7422345,-3447,-1645,-975,-162,-237,-83,296,42,-134
2,7422352,-3447,-1645,-975,-162,-237,-83,296,42,-134
2,7422362,-3451,-1647,-978,-152,-233,-87,296,42,-134
2,7422372,-3451,-1647,-978,-152,-233,-87,296,42,-134
2,7422387,-3454,-1645,-984,-156,-243,-87,296,42,-134
2,7422399,-3453,-1650,-989,-156,-239,-83,296,42,-134
2,7422412,-3453,-1650,-989,-156,-239,-83,296,42,-134
2,7422424,-3458,-1652,-987,-160,-245,-88,296,42,-134
2,7422437,-3458,-1652,-987,-160,-245,-88,296,42,-134
2,7422449,-3457,-1650,-982,-161,-238,-81,296,42,-134
2,7422458,-3453,-1650,-980,-165,-234,-81,296,42,-134
2,7422471,-3453,-1650,-980,-165,-234,-81,300,42,-130
2,7422484,-3450,-1647,-981,-158,-239,-84,300,42,-130
2,7422498,-3450,-1647,-981,-158,-239,-84,300,42,-130
2,7422508,-3449,-1646,-980,-164,-234,-86,300,42,-130
2,7422520,-3448,-1644,-986,-167,-239,-83,300,42,-130
2,7422535,-3448,-1644,-986,-167,-239,-83,300,42,-130
2,7422550,-3452,-1648,-981,-165,-243,-84,300,42,-130
2,7422558,-3452,-1648,-981,-165,-243,-84,300,42,-130
2,7422571,-3456,-1652,-983,-168,-234,-85,300,42,-130
2,7422584,-3452,-1648,-976,-163,-243,-84,308,42,-132
2,7422597,-3452,-1648,-976,-163,-243,-84,308,42,-132
2,7422608,-3451,-1649,-980,-166,-240,-86,308,42,-132
2,7422621,-3452,-1649,-985,-161,-238,-86,308,42,-132
2,7422633,-3452,-1649,-985,-161,-238,-86,308,42,-132
2,7422646,-3449,-1651,-986,-165,-232,-87,308,42,-132
2,7422656,-3449,-1651,-986,-165,-232,-87,308,42,-132
2,7422664,-3452,-1646,-984,-162,-237,-82,308,42,-132
2,7422673,-3452,-1646,-984,-162,-237,-82,308,42,-132
2,7422682,-3452,-1647,-985,-155,-242,-98,308,42,-132
2,7422692,-3452,-1647,-985,-155,-242,-98,308,42,-132
2,7422702,-3450,-1649,-977,-160,-247,-90,307,35,-127
2,7422710,-3450,-1649,-977,-160,-247,-90,307,35,-127
2,7422718,-3450,-1649,-977,-160,-247,-90,307,35,-127
2,7422728,-3456,-1650,-982,-160,-238,-90,307,35,-127
2,7422736,-3456,-1650,-982,-160,-238,-90,307,35,-127
2,7422744,-3453,-1650,-982,-159,-239,-87,307,35,-127
2,7422751,-3453,-1650,-982,-159,-239,-87,307,35,-127
2,7422760,-3453,-1652,-986,-167,-246,-84,307,35,-127
2,7422768,-3453,-1652,-986,-167,-246,-84,307,35,-127
2,7422776,-3453,-1652,-986,-167,-246,-84,307,35,-127
2,7422784,-3452,-1648,-981,-165,-243,-87,307,35,-127
2,7422793,-3452,-1648,-981,-165,-243,-87,307,35,-127
2,7422800,-3453,-1649,-985,-161,-246,-86,307,35,-127
2,7422810,-3453,-1649,-985,-161,-246,-86,307,35,-127
2,7422820,-3456,-1646,-985,-160,-238,-82,295,47,-125
2,7422829,-3456,-1646,-985,-160,-238,-82,295,47,-125
2,7422837,-3456,-1646,-985,-160,-238,-82,295,47,-125
2,7422845,-3457,-1649,-976,-155,-245,-88,295,47,-125
2,7422853,-3457,-1649,-976,-155,-245,-88,295,47,-125
2,7422861,-3454,-1649,-989,-166,-240,-88,295,47,-125
2,7422872,-3454,-1649,-989,-166,-240,-88,295,47,-125
2,7422884,-3455,-1649,-983,-163,-244,-80,295,47,-125
2,7422894,-3455,-1649,-983,-163,-244,-80,295,47,-125
2,7422906,-3453,-1647,-986,-160,-238,-84,295,47,-125
2,7422919,-3452,-1647,-984,-159,-238,-86,295,47,-125
2,7422934,-3452,-1647,-984,-159,-238,-86,295,47,-125
2,7422943,-3449,-1650,-986,-160,-243,-90,306,34,-128
2,7422956,-3449,-1650,-986,-160,-243,-90,306,34,-128
2,7422969,-3452,-1649,-980,-160,-235,-89,306,34,-128
2,7422984,-3454,-1649,-983,-164,-241,-89,306,34,-128
2,7422993,-3454,-1649,-983,-164,-241,-89,306,34,-128
2,7423006,-3456,-1647,-978,-160,-244,-89,306,34,-128
2,7423020,-3460,-1649,-979,-158,-245,-86,306,34,-128
2,7423034,-3460,-1649,-979,-158,-245,-86,306,34,-128
2,7423043,-3455,-1647,-980,-162,-242,-70,306,34,-128
2,7423056,-3455,-1647,-980,-162,-242,-70,306,34,-128
2,7423070,-3455,-1649,-990,-159,-241,-86,306,34,-128
2,7423083,-3454,-1645,-982,-157,-231,-89,299,37,-135
2,7423092,-3454,-1645,-982,-157,-231,-89,299,37,-135
2,7423106,-3452,-1647,-979,-154,-232,-83,299,37,-135
2,7423116,-3452,-1647,-979,-154,-232,-83,299,37,-135
2,7423127,-3451,-1648,-985,-151,-235,-85,299,37,-135
2,7423140,-3452,-1650,-984,-156,-238,-87,299,37,-135
2,7423154,-3452,-1650,-984,-156,-238,-87,299,37,-135
2,7423164,-3454,-1650,-983,-164,-235,-90,299,37,-135
2,7423174,-3454,-1650,-983,-164,-235,-90,299,37,-135
2,7423188,-3454,-1648,-981,-158,-244,-88,299,37,-135
2,7423203,-3454,-1648,-976,-157,-242,-80,296,34,-130
2,7423211,-3454,-1648,-976,-157,-242,-80,296,34,-130
2,7423223,-3455,-1649,-978,-157,-241,-87,296,34,-130
2,7423238,-3455,-1649,-978,-157,-241,-87,296,34,-130
2,7423252,-3453,-1650,-979,-161,-243,-84,296,34,-130
2,7423261,-3453,-1647,-978,-165,-249,-83,296,34,-130
2,7423275,-3453,-1647,-978,-165,-249,-83,296,34,-130
2,7423288,-3452,-1649,-983,-165,-249,-84,296,34,-130
2,7423300,-3454,-1648,-979,-164,-248,-88,296,34,-130
2,7423310,-3454,-1648,-979,-164,-248,-88,296,34,-130
2,7423324,-3454,-1646,-978,-164,-244,-77,303,37,-129
2,7423336,-3454,-1646,-978,-164,-244,-77,303,37,-129
2,7423348,-3454,-1646,-987,-167,-243,-85,303,37,-129
2,7423360,-3453,-1649,-978,-168,-242,-87,303,37,-129
2,7423369,-3453,-1649,-978,-168,-242,-87,303,37,-129
2,7423376,-3453,-1649,-978,-168,-242,-87,303,37,-129
2,7423383,-3450,-1646,-978,-169,-246,-82,303,37,-129
2,7423390,-3450,-1646,-978,-169,-246,-82,303,37,-129
2,7423396,-3450,-1646,-978,-169,-246,-82,303,37,-129
2,7423404,-3454,-1647,-984,-165,-245,-89,303,37,-129
2,7423412,-3454,-1647,-984,-165,-245,-89,303,37,-129
2,7423419,-3454,-1647,-984,-165,-245,-89,303,37,-129
2,7423424,-3453,-1649,-981,-166,-238,-90,303,37,-129
2,7423429,-3453,-1649,-981,-166,-238,-90,303,37,-129
2,7423436,-3453,-1649,-981,-166,-238,-90,303,37,-129
2,7423443,-3455,-1648,-978,-166,-235,-81,301,41,-133
2,7423451,-3455,-1648,-978,-166,-235,-81,301,41,-133
2,7423457,-3455,-1648,-978,-166,-235,-81,301,41,-133
2,7423464,-3457,-1648,-976,-159,-243,-80,301,41,-133
2,7423472,-3457,-1648,-976,-159,-243,-80,301,41,-133
2,7423479,-3457,-1648,-976,-159,-243,-80,301,41,-133
2,7423486,-3456,-1648,-974,-166,-243,-83,301,41,-133
2,7423494,-3456,-1648,-974,-166,-243,-83,301,41,-133
2,7423501,-3451,-1648,-981,-164,-237,-82,301,41,-133
2,7423507,-3451,-1648,-981,-164,-237,-82,301,41,-133
2,7423513,-3451,-1648,-981,-164,-237,-82,301,41,-133
2,7423521,-3448,-1648,-984,-163,-243,-84,301,41,-133
2,7423528,-3448,-1648,-984,-163,-243,-84,301,41,-133
2,7423535,-3448,-1648,-984,-163,-243,-84,301,41,-133
2,7423542,-3455,-1650,-983,-161,-243,-79,301,41,-133
2,7423551,-3455,-1650,-983,-161,-243,-79,301,41,-133
2,7423558,-3455,-1650,-983,-161,-243,-79,301,41,-133
2,7423564,-3458,-1647,-976,-165,-240,-85,302,40,-132
2,7423571,-3458,-1647,-976,-165,-240,-85,302,40,-132
2,7423577,-3458,-1647,-976,-165,-240,-85,302,40,-132
2,7423582,-3454,-1647,-978,-161,-239,-86,302,40,-132
2,7423589,-3454,-1647,-978,-161,-239,-86,302,40,-132
2,7423596,-3454,-1647,-978,-161,-239,-86,302,40,-132
2,7423602,-3456,-1644,-981,-158,-237,-84,302,40,-132
2,7423609,-3456,-1644,-981,-158,-237,-84,302,40,-132
2,7423618,-3456,-1644,-981,-158,-237,-84,302,40,-132
2,7423625,-3455,-1649,-981,-160,-239,-76,302,40,-132
2,7423633,-3455,-1649,-981,-160,-239,-76,302,40,-132
2,7423639,-3455,-1649,-981,-160,-239,-76,302,40,-132
2,7423646,-3457,-1650,-981,-156,-240,-83,302,40,-132
2,7423653,-3457,-1650,-981,-156,-240,-83,302,40,-132
2,7423659,-3457,-1650,-981,-156,-240,-83,302,40,-132
2,7423663,-3453,-1646,-982,-161,-240,-82,302,40,-132
2,7423668,-3453,-1646,-982,-161,-240,-82,302,40,-132
2,7423673,-3453,-1646,-982,-161,-240,-82,302,40,-132
2,7423678,-3453,-1646,-982,-161,-240,-82,302,40,-132
2,7423685,-3452,-1649,-981,-155,-239,-82,302,40,-132
2,7423692,-3452,-1649,-981,-155,-239,-82,302,40,-132
2,7423699,-3452,-1649,-981,-155,-239,-82,302,40,-132
2,7423705,-3452,-1647,-973,-159,-246,-85,302,34,-132
2,7423710,-3452,-1647,-973,-159,-246,-85,302,34,-132
2,7423715,-3452,-1647,-973,-159,-246,-85,302,34,-132
2,7423720,-3455,-1651,-983,-164,-242,-92,302,34,-132
2,7423725,-3455,-1651,-983,-164,-242,-92,302,34,-132
2,7423730,-3455,-1651,-983,-164,-242,-92,302,34,-132
2,7423735,-3455,-1651,-983,-164,-242,-92,302,34,-132
2,7423742,-3458,-1651,-978,-160,-239,-89,302,34,-132
2,7423751,-3458,-1651,-978,-160,-239,-89,302,34,-132
2,7423758,-3458,-1651,-978,-160,-239,-89,302,34,-132
2,7423765,-3455,-1648,-980,-161,-236,-87,302,34,-132
2,7423772,-3455,-1648,-980,-161,-236,-87,302,34,-132
2,7423778,-3455,-1648,-980,-161,-236,-87,302,34,-132
2,7423785,-3455,-1649,-985,-157,-239,-83,302,34,-132
2,7423794,-3455,-1649,-985,-157,-239,-83,302,34,-132
2,7423801,-3452,-1650,-981,-158,-243,-84,302,34,-132
2,7423808,-3452,-1650,-981,-158,-243,-84,302,34,-132
2,7423815,-3452,-1650,-981,-158,-243,-84,302,34,-132
2,7423821,-3451,-1648,-977,-160,-249,-84,294,34,-132
2,7423828,-3451,-1648,-977,-160,-249,-84,294,34,-132
2,7423836,-3451,-1648,-977,-160,-249,-84,294,34,-132
2,7423843,-3457,-1651,-978,-164,-243,-86,294,34,-132
2,7423850,-3457,-1651,-978,-164,-243,-86,294,34,-132
2,7423858,-3457,-1651,-978,-164,-243,-86,294,34,-132
2,7423865,-3456,-1649,-978,-155,-241,-94,294,34,-132
2,7423873,-3456,-1649,-978,-155,-241,-94,294,34,-132
2,7423879,-3456,-1649,-978,-155,-241,-94,294,34,-132
2,7423886,-3460,-1650,-975,-159,-231,-83,294,34,-132
2,7423893,-3460,-1650,-975,-159,-231,-83,294,34,-132
2,7423899,-3460,-1650,-975,-159,-231,-83,294,34,-132
2,7423907,-3454,-1649,-983,-162,-242,-80,294,34,-132
2,7423916,-3454,-1649,-983,-162,-242,-80,294,34,-132
2,7423923,-3457,-1648,-980,-164,-247,-84,294,34,-132
2,7423931,-3457,-1648,-980,-164,-247,-84,294,34,-132
2,7423937,-3457,-1648,-980,-164,-247,-84,294,34,-132
2,7423944,-3456,-1647,-976,-166,-240,-83,301,37,-123
2,7423950,-3456,-1647,-976,-166,-240,-83,301,37,-123
2,7423959,-3456,-1647,-976,-166,-240,-83,301,37,-123
2,7423966,-3450,-1648,-978,-162,-242,-84,301,37,-123
2,7423972,-3450,-1648,-978,-162,-242,-84,301,37,-123
2,7423980,-3450,-1648,-978,-162,-242,-84,301,37,-123
2,7423987,-3454,-1647,-981,-172,-248,-95,301,37,-123
2,7423993,-3454,-1647,-981,-172,-248,-95,301,37,-123
2,7424000,-3454,-1647,-981,-172,-248,-95,301,37,-123
2,7424005,-3455,-1646,-984,-170,-245,-88,301,37,-123
2,7424010,-3455,-1646,-984,-170,-245,-88,301,37,-123
2,7424017,-3455,-1646,-984,-170,-245,-88,301,37,-123
2,7424024,-3458,-1650,-981,-158,-242,-86,301,37,-123
2,7424029,-3458,-1650,-981,-158,-242,-86,301,37,-123
2,7424037,-3458,-1650,-981,-158,-242,-86,301,37,-123
2,7424045,-3461,-1647,-980,-160,-246,-82,301,37,-123
2,7424053,-3461,-1647,-980,-160,-246,-82,301,37,-123
2,7424060,-3461,-1647,-980,-160,-246,-82,301,37,-123
2,7424065,-3458,-1648,-976,-163,-237,-80,301,37,-127
2,7424072,-3458,-1648,-976,-163,-237,-80,301,37,-127
2,7424078,-3458,-1648,-976,-163,-237,-80,301,37,-127
2,7424088,-3458,-1648,-976,-163,-237,-80,301,37,-127
2,7424094,-3458,-1648,-976,-163,-237,-80,301,37,-127
2,7424101,-3453,-1646,-977,-159,-251,-84,301,37,-127
2,7424107,-3453,-1646,-977,-159,-251,-84,301,37,-127
2,7424113,-3453,-1646,-977,-159,-251,-84,301,37,-127
2,7424120,-3449,-1649,-981,-162,-240,-85,301,37,-127
2,7424128,-3449,-1649,-981,-162,-240,-85,301,37,-127
2,7424135,-3449,-1649,-981,-162,-240,-85,301,37,-127
2,7424143,-3453,-1649,-980,-160,-238,-88,301,37,-127
2,7424150,-3453,-1649,-980,-160,-238,-88,301,37,-127
2,7424157,-3453,-1649,-980,-160,-238,-88,301,37,-127
2,7424163,-3456,-1647,-980,-158,-245,-90,301,37,-127
2,7424172,-3456,-1647,-980,-158,-245,-90,301,37,-127
2,7424179,-3456,-1647,-980,-158,-245,-90,301,37,-127
2,7424186,-3459,-1649,-978,-157,-245,-80,295,41,-129
2,7424193,-3459,-1649,-978,-157,-245,-80,295,41,-129
2,7424200,-3459,-1649,-978,-157,-245,-80,295,41,-129
2,7424206,-3459,-1648,-972,-158,-243,-90,295,41,-129
2,7424212,-3459,-1648,-972,-158,-243,-90,295,41,-129
2,7424221,-3457,-1649,-980,-163,-247,-81,295,41,-129
2,7424228,-3457,-1649,-980,-163,-247,-81,295,41,-129
2,7424234,-3457,-1649,-980,-163,-247,-81,295,41,-129
2,7424240,-3454,-1643,-984,-158,-252,-82,295,41,-129
2,7424247,-3454,-1643,-984,-158,-252,-82,295,41,-129
2,7424254,-3454,-1643,-984,-158,-252,-82,295,41,-129
2,7424261,-3448,-1649,-975,-162,-248,-82,295,41,-129
2,7424268,-3448,-1649,-975,-162,-248,-82,295,41,-129
2,7424275,-3448,-1649,-975,-162,-248,-82,295,41,-129
2,7424283,-3453,-1649,-981,-162,-244,-81,295,41,-129
2,7424291,-3453,-1649,-981,-162,-244,-81,295,41,-129
2,7424297,-3453,-1649,-981,-162,-244,-81,295,41,-129
2,7424305,-3453,-1648,-981,-164,-249,-84,295,41,-129
2,7424311,-3453,-1648,-981,-164,-249,-84,295,41,-129
2,7424317,-3453,-1648,-981,-164,-249,-84,295,41,-129
2,7424325,-3462,-1651,-973,-174,-249,-89,305,35,-121
2,7424331,-3462,-1651,-973,-174,-249,-89,305,35,-121
2,7424339,-3462,-1651,-973,-174,-249,-89,305,35,-121
2,7424347,-3458,-1644,-977,-157,-253,-88,305,35,-121
2,7424353,-3458,-1644,-977,-157,-253,-88,305,35,-121
2,7424359,-3458,-1644,-977,-157,-253,-88,305,35,-121
2,7424367,-3455,-1652,-979,-163,-247,-83,305,35,-121
2,7424376,-3455,-1652,-979,-163,-247,-83,305,35,-121
2,7424386,-3453,-1650,-975,-161,-249,-82,305,35,-121
2,7424397,-3453,-1650,-975,-161,-249,-82,305,35,-121
2,7424412,-3453,-1648,-982,-159,-246,-94,305,35,-121
2,7424425,-3452,-1649,-980,-165,-251,-89,305,35,-121
2,7424435,-3452,-1649,-980,-165,-251,-89,305,35,-121
2,7424445,-3453,-1645,-975,-162,-250,-88,296,36,-128
2,7424459,-3453,-1645,-975,-162,-250,-88,296,36,-128
2,7424473,-3458,-1645,-977,-162,-244,-84,296,36,-128
2,7424484,-3458,-1649,-977,-165,-250,-82,296,36,-128
2,7424496,-3458,-1649,-977,-165,-250,-82,296,36,-128
2,7424508,-3458,-1650,-981,-161,-243,-83,296,36,-128
2,7424522,-3456,-1650,-981,-161,-247,-81,296,36,-128
2,7424533,-3456,-1650,-981,-161,-247,-81,296,36,-128
2,7424547,-3448,-1646,-979,-171,-244,-82,296,36,-128
2,7424560,-3448,-1646,-979,-171,-244,-82,296,36,-128
2,7424573,-3454,-1651,-975,-165,-245,-81,304,36,-132
2,7424587,-3453,-1649,-980,-166,-242,-80,304,36,-132
2,7424600,-3453,-1649,-980,-166,-242,-80,304,36,-132
2,7424611,-3453,-1650,-977,-165,-245,-89,304,36,-132
2,7424620,-3453,-1650,-977,-165,-245,-89,304,36,-132
2,7424627,-3458,-1651,-979,-166,-243,-81,304,36,-132
2,7424636,-3458,-1651,-979,-166,-243,-81,304,36,-132
2,7424647,-3460,-1645,-978,-161,-249,-84,304,36,-132
2,7424655,-3460,-1645,-978,-161,-249,-84,304,36,-132
2,7424663,-3454,-1646,-978,-158,-261,-88,304,36,-132
2,7424671,-3454,-1646,-978,-158,-261,-88,304,36,-132
2,7424679,-3454,-1646,-978,-158,-261,-88,304,36,-132
2,7424693,-3450,-1646,-974,-159,-252,-81,299,33,-133
2,7424702,-3450,-1647,-976,-163,-242,-85,299,33,-133
2,7424710,-3450,-1647,-976,-163,-242,-85,299,33,-133
2,7424719,-3450,-1647,-976,-163,-242,-85,299,33,-133
2,7424728,-3452,-1648,-979,-164,-253,-81,299,33,-133
2,7424736,-3452,-1648,-979,-164,-253,-81,299,33,-133
2,7424744,-3455,-1652,-984,-161,-250,-89,299,33,-133
2,7424752,-3455,-1652,-984,-161,-250,-89,299,33,-133
2,7424760,-3455,-1652,-984,-161,-250,-89,299,33,-133
2,7424769,-3456,-1647,-979,-165,-245,-90,299,33,-133
2,7424776,-3456,-1647,-979,-165,-245,-90,299,33,-133
2,7424785,-3456,-1649,-978,-164,-252,-89,299,33,-133
2,7424793,-3456,-1649,-978,-164,-252,-89,299,33,-133
2,7424801,-3456,-1647,-974,-161,-252,-86,299,39,-133
2,7424816,-3456,-1647,-974,-161,-252,-86,299,39,-133
2,7424828,-3451,-1649,-975,-168,-252,-80,299,39,-133
2,7424840,-3451,-1649,-975,-168,-252,-80,299,39,-133
2,7424854,-3453,-1647,-979,-159,-254,-83,299,39,-133
2,7424866,-3453,-1649,-978,-149,-248,-88,299,39,-133
2,7424878,-3453,-1649,-978,-149,-248,-88,299,39,-133
2,7424890,-3453,-1647,-979,-162,-246,-90,299,39,-133
2,7424903,-3455,-1648,-983,-156,-244,-87,299,39,-133
2,7424915,-3455,-1648,-983,-156,-244,-87,299,39,-133
2,7424927,-3457,-1647,-974,-155,-244,-80,299,39,-133
2,7424941,-3458,-1648,-980,-165,-251,-79,296,39,-133
2,7424953,-3458,-1648,-980,-165,-251,-79,296,38,-126
2,7424966,-3457,-1651,-980,-160,-259,-84,296,38,-126
2,7424978,-3457,-1651,-980,-160,-259,-84,296,38,-126
2,7424988,-3450,-1649,-979,-157,-249,-82,296,38,-126
2,7425000,-3450,-1649,-979,-157,-249,-82,296,38,-126
2,7425013,-3450,-1648,-978,-157,-253,-85,296,38,-126
2,7425027,-3451,-1647,-978,-159,-249,-86,296,38,-126
2,7425037,-3451,-1647,-978,-159,-249,-86,296,38,-126
2,7425048,-3452,-1649,-979,-159,-250,-79,296,38,-126
2,7425062,-3455,-1646,-977,-156,-244,-86,308,38,-134
2,7425075,-3455,-1646,-977,-156,-244,-86,308,38,-134
2,7425086,-3458,-1651,-975,-164,-244,-82,308,38,-134
2,7425100,-3458,-1651,-975,-164,-244,-82,308,38,-134
2,7425114,-3456,-1650,-978,-158,-246,-89,308,38,-134
2,7425127,-3448,-1645,-984,-154,-245,-88,308,38,-134
2,7425137,-3448,-1645,-984,-154,-245,-88,308,38,-134
2,7425152,-3453,-1651,-980,-165,-255,-86,308,38,-134
2,7425165,-3451,-1648,-982,-159,-250,-82,308,38,-134
2,7425177,-3451,-1648,-982,-159,-250,-82,308,38,-134
2,7425187,-3452,-1646,-975,-159,-252,-89,301,39,-127
2,7425200,-3452,-1646,-975,-159,-252,-89,301,39,-127
2,7425212,-3455,-1645,-976,-159,-243,-86,301,39,-127
2,7425225,-3455,-1648,-984,-164,-245,-92,301,39,-127
2,7425236,-3455,-1648,-984,-164,-245,-92,301,39,-127
2,7425251,-3453,-1649,-985,-166,-243,-85,301,39,-127
2,7425262,-3451,-1646,-983,-161,-244,-91,301,39,-127
2,7425271,-3451,-1646,-983,-161,-244,-91,301,39,-127
2,7425280,-3451,-1646,-983,-161,-244,-91,301,39,-127
2,7425288,-3450,-1650,-977,-160,-244,-86,301,39,-127
2,7425295,-3450,-1650,-977,-160,-244,-86,301,39,-127
2,7425305,-3450,-1646,-980,-155,-239,-78,301,41,-131
2,7425317,-3450,-1646,-980,-155,-239,-78,301,41,-131
2,7425332,-3448,-1649,-983,-160,-240,-82,301,41,-131
2,7425343,-3451,-1648,-982,-161,-240,-84,301,41,-131
2,7425355,-3451,-1648,-982,-161,-240,-84,301,41,-131
2,7425369,-3457,-1647,-979,-157,-240,-79,301,41,-131
2,7425382,-3456,-1651,-985,-158,-247,-81,301,41,-131
2,7425389,-3456,-1651,-985,-158,-247,-81,301,41,-131
2,7425395,-3456,-1651,-985,-158,-247,-81,301,41,-131
2,7425402,-3451,-1646,-985,-156,-246,-84,301,41,-131
2,7425411,-3451,-1646,-985,-156,-246,-84,301,41,-131
2,7425419,-3451,-1646,-985,-156,-246,-84,301,41,-131
2,7425427,-3447,-1648,-978,-160,-238,-87,296,44,-134
2,7425435,-3447,-1648,-978,-160,-238,-87,296,44,-134
2,7425442,-3447,-1644,-977,-162,-239,-88,296,44,-134
2,7425449,-3447,-1644,-977,-162,-239,-88,296,44,-134
2,7425455,-3447,-1644,-977,-162,-239,-88,296,44,-134
2,7425462,-3450,-1650,-982,-158,-241,-82,296,44,-134
2,7425469,-3450,-1650,-982,-158,-241,-82,296,44,-134
2,7425478,-3450,-1650,-982,-158,-241,-82,296,44,-134
2,7425485,-3451,-1649,-979,-163,-242,-85,296,44,-134
2,7425492,-3451,-1649,-979,-163,-242,-85,296,44,-134
2,7425499,-3451,-1649,-979,-163,-242,-85,296,44,-134
2,7425506,-3454,-1646,-982,-173,-246,-84,296,44,-134
2,7425513,-3454,-1646,-982,-173,-246,-84,296,44,-134
2,7425520,-3454,-1646,-982,-173,-246,-84,296,44,-134
2,7425528,-3455,-1651,-981,-161,-250,-87,296,44,-134
2,7425536,-3455,-1651,-981,-161,-250,-87,296,44,-134
2,7425543,-3453,-1649,-983,-163,-239,-92,300,38,-134
2,7425549,-3453,-1649,-983,-163,-239,-92,300,38,-134
2,7425556,-3453,-1649,-983,-163,-239,-92,300,38,-134
2,7425562,-3451,-1648,-979,-163,-241,-90,300,38,-134
2,7425569,-3451,-1648,-979,-163,-241,-90,300,38,-134
2,7425576,-3451,-1648,-979,-163,-241,-90,300,38,-134
2,7425584,-3449,-1646,-979,-167,-241,-85,300,38,-134
2,7425590,-3449,-1646,-979,-167,-241,-85,300,38,-134
2,7425597,-3449,-1646,-979,-167,-241,-85,300,38,-134
2,7425604,-3448,-1647,-980,-163,-240,-81,300,38,-134
2,7425611,-3448,-1647,-980,-163,-240,-81,300,38,-134
2,7425617,-3448,-1647,-980,-163,-240,-81,300,38,-134
2,7425625,-3450,-1645,-982,-160,-248,-85,300,38,-134
2,7425632,-3450,-1645,-982,-160,-248,-85,300,38,-134
2,7425638,-3450,-1645,-982,-160,-248,-85,300,38,-134
2,7425646,-3451,-1650,-976,-162,-245,-83,300,38,-134
2,7425653,-3451,-1650,-976,-162,-245,-83,300,38,-134
2,7425658,-3451,-1650,-976,-162,-245,-83,300,38,-134
2,7425664,-3451,-1649,-986,-162,-244,-81,300,38,-134
2,7425669,-3451,-1649,-986,-162,-244,-81,300,38,-134
2,7425674,-3451,-1649,-986,-162,-244,-81,300,38,-134
2,7425679,-3451,-1649,-986,-162,-244,-81,300,38,-134
2,7425684,-3450,-1646,-982,-160,-243,-84,297,33,-131
2,7425691,-3450,-1646,-982,-160,-243,-84,297,33,-131
2,7425698,-3450,-1646,-982,-160,-243,-84,297,33,-131
2,7425703,-3452,-1648,-987,-157,-242,-85,297,33,-131
2,7425709,-3452,-1648,-987,-157,-242,-85,297,33,-131
2,7425714,-3452,-1648,-987,-157,-242,-85,297,33,-131
2,7425719,-3452,-1648,-987,-157,-242,-85,297,33,-131
2,7425724,-3449,-1646,-978,-159,-245,-83,297,33,-131
2,7425729,-3449,-1646,-978,-159,-245,-83,297,33,-131
2,7425736,-3449,-1646,-978,-159,-245,-83,297,33,-131
2,7425742,-3447,-1650,-981,-158,-252,-79,297,33,-131
2,7425751,-3447,-1650,-981,-158,-252,-79,297,33,-131
2,7425756,-3447,-1650,-981,-158,-252,-79,297,33,-131
2,7425764,-3452,-1649,-980,-166,-246,-76,297,33,-131
2,7425771,-3452,-1649,-980,-166,-246,-76,297,33,-131
2,7425778,-3452,-1649,-980,-166,-246,-76,297,33,-131
2,7425785,-3455,-1649,-984,-161,-247,-82,297,33,-131
2,7425793,-3455,-1649,-984,-161,-247,-82,297,33,-131
2,7425799,-3455,-1649,-984,-161,-247,-82,297,33,-131
2,7425805,-3453,-1647,-980,-159,-243,-79,298,38,-130
2,7425813,-3453,-1647,-980,-159,-243,-79,298,38,-130
2,7425821,-3453,-1647,-980,-159,-243,-79,298,38,-130
2,7425828,-3452,-1649,-979,-168,-242,-82,298,38,-130
2,7425835,-3452,-1649,-979,-168,-242,-82,298,38,-130
2,7425842,-3449,-1645,-988,-164,-241,-82,298,38,-130
2,7425848,-3449,-1645,-988,-164,-241,-82,298,38,-130
2,7425855,-3449,-1645,-988,-164,-241,-82,298,38,-130
2,7425863,-3446,-1649,-983,-154,-246,-78,298,38,-130
2,7425870,-3446,-1649,-983,-154,-246,-78,298,38,-130
2,7425875,-3446,-1649,-983,-154,-246,-78,298,38,-130
2,7425883,-3448,-1649,-985,-156,-244,-82,298,38,-130
2,7425889,-3448,-1649,-985,-156,-244,-82,298,38,-130
2,7425897,-3448,-1649,-985,-156,-244,-82,298,38,-130
2,7425904,-3451,-1650,-986,-163,-246,-83,298,38,-130
2,7425912,-3451,-1650,-986,-163,-246,-83,298,38,-130
2,7425920,-3451,-1650,-986,-163,-246,-83,298,38,-130
2,7425926,-3453,-1648,-978,-168,-247,-82,298,44,-132
2,7425932,-3453,-1648,-978,-168,-247,-82,298,44,-132
2,7425940,-3453,-1648,-978,-168,-247,-82,298,44,-132
2,7425946,-3457,-1647,-980,-161,-243,-76,298,44,-132
2,7425953,-3457,-1647,-980,-161,-243,-76,298,44,-132
2,7425961,-3457,-1647,-980,-161,-243,-76,298,44,-132
2,7425968,-3457,-1644,-978,-160,-240,-74,298,44,-132
2,7425973,-3457,-1644,-978,-160,-240,-74,298,44,-132
2,7425981,-3457,-1644,-978,-160,-240,-74,298,44,-132
2,7425988,-3453,-1645,-979,-161,-248,-77,298,44,-132
2,7425996,-3453,-1645,-979,-161,-248,-77,298,44,-132
2,7426002,-3448,-1648,-980,-155,-251,-87,298,44,-132
2,7426011,-3448,-1648,-980,-155,-251,-87,298,44,-132
2,7426017,-3448,-1648,-980,-155,-251,-87,298,44,-132
2,7426023,-3448,-1647,-977,-154,-246,-100,298,44,-132
2,7426031,-3448,-1647,-977,-154,-246,-100,298,44,-132
2,7426037,-3448,-1647,-977,-154,-246,-100,298,44,-132
2,7426043,-3446,-1647,-978,-163,-246,-102,298,38,-126
2,7426050,-3446,-1647,-978,-163,-246,-102,298,38,-126
2,7426055,-3446,-1647,-978,-163,-246,-102,298,38,-126
2,7426062,-3446,-1647,-978,-163,-246,-102,298,38,-126
2,7426069,-3452,-1653,-974,-163,-247,-94,298,38,-126
2,7426074,-3452,-1653,-974,-163,-247,-94,298,38,-126
2,7426081,-3452,-1653,-974,-163,-247,-94,298,38,-126
2,7426089,-3453,-1651,-979,-164,-241,-88,298,38,-126
2,7426097,-3453,-1651,-979,-164,-241,-88,298,38,-126
2,7426103,-3456,-1651,-985,-159,-250,-86,298,38,-126
2,7426108,-3456,-1651,-985,-159,-250,-86,298,38,-126
2,7426116,-3456,-1651,-985,-159,-250,-86,298,38,-126
2,7426123,-3452,-1648,-978,-155,-245,-83,298,38,-126
2,7426131,-3452,-1648,-978,-155,-245,-83,298,38,-126
2,7426140,-3452,-1648,-978,-155,-245,-83,298,38,-126
2,7426147,-3448,-1647,-977,-161,-240,-85,298,38,-126
2,7426154,-3448,-1647,-977,-161,-240,-85,298,38,-126
2,7426161,-3448,-1647,-977,-161,-240,-85,298,38,-126
2,7426168,-3451,-1646,-979,-159,-252,-88,298,36,-132
2,7426173,-3451,-1646,-979,-159,-252,-88,298,36,-132
2,7426183,-3451,-1649,-978,-165,-257,-86,298,36,-132
2,7426189,-3451,-1649,-978,-165,-257,-86,298,36,-132
2,7426194,-3451,-1649,-978,-165,-257,-86,298,36,-132
2,7426201,-3451,-1649,-978,-165,-257,-86,298,36,-132
2,7426210,-3457,-1647,-982,-159,-243,-90,298,36,-132
2,7426217,-3457,-1647,-982,-159,-243,-90,298,36,-132
2,7426224,-3454,-1649,-976,-165,-248,-96,298,36,-132
2,7426233,-3454,-1649,-976,-165,-248,-96,298,36,-132
2,7426241,-3454,-1649,-976,-165,-248,-96,298,36,-132
2,7426249,-3458,-1649,-980,-161,-249,-91,298,36,-132
2,7426256,-3458,-1649,-980,-161,-249,-91,298,36,-132
2,7426264,-3450,-1648,-980,-163,-240,-82,298,36,-132
2,7426271,-3450,-1648,-980,-163,-240,-82,298,36,-132
2,7426278,-3450,-1648,-980,-163,-240,-82,298,36,-132
2,7426285,-3449,-1651,-983,-168,-246,-86,298,36,-132
2,7426291,-3449,-1651,-983,-168,-246,-86,298,36,-132
2,7426298,-3449,-1651,-983,-168,-246,-86,298,36,-132
2,7426308,-3452,-1649,-978,-162,-244,-77,294,38,-130
2,7426314,-3452,-1649,-978,-162,-244,-77,294,38,-130
2,7426321,-3452,-1649,-978,-162,-244,-77,294,38,-130
2,7426327,-3450,-1649,-976,-160,-242,-89,294,38,-130
2,7426335,-3450,-1649,-976,-160,-242,-89,294,38,-130
2,7426341,-3450,-1649,-976,-160,-242,-89,294,38,-130
2,7426350,-3453,-1647,-974,-164,-246,-77,294,38,-130
2,7426358,-3453,-1647,-974,-164,-246,-77,294,38,-130
2,7426365,-3457,-1646,-980,-161,-238,-81,294,38,-130
2,7426371,-3457,-1646,-980,-161,-238,-81,294,38,-130
2,7426378,-3457,-1646,-980,-161,-238,-81,294,38,-130
2,7426386,-3454,-1648,-980,-162,-243,-81,294,38,-130
2,7426395,-3454,-1648,-980,-162,-243,-81,294,38,-130
2,7426408,-3459,-1647,-979,-162,-244,-85,294,38,-130
2,7426423,-3453,-1647,-980,-159,-244,-81,298,44,-134
2,7426437,-3453,-1647,-980,-159,-244,-81,298,44,-134
2,7426445,-3448,-1651,-979,-155,-240,-87,298,44,-134
2,7426457,-3448,-1651,-979,-155,-240,-87,298,44,-134
2,7426471,-3447,-1648,-978,-161,-242,-87,298,44,-134
2,7426487,-3448,-1651,-985,-158,-241,-84,298,44,-134
2,7426495,-3448,-1651,-985,-158,-241,-84,298,44,-134
2,7426508,-3458,-1652,-973,-162,-240,-87,298,44,-134
2,7426522,-3458,-1652,-973,-162,-240,-87,298,44,-134
2,7426536,-3455,-1648,-978,-161,-244,-87,298,44,-134
2,7426545,-3459,-1649,-978,-163,-245,-87,301,41,-135
2,7426556,-3459,-1649,-978,-163,-245,-87,301,41,-135
2,7426570,-3455,-1648,-975,-159,-239,-86,301,41,-135
2,7426583,-3450,-1646,-982,-161,-239,-87,301,41,-135
2,7426594,-3450,-1646,-982,-161,-239,-87,301,41,-135
2,7426606,-3449,-1651,-982,-160,-242,-89,301,41,-135
2,7426615,-3449,-1651,-982,-160,-242,-89,301,41,-135
2,7426623,-3450,-1650,-979,-157,-243,-88,301,41,-135
2,7426631,-3450,-1650,-979,-157,-243,-88,301,41,-135
2,7426640,-3450,-1650,-979,-157,-243,-88,301,41,-135
2,7426651,-3453,-1647,-984,-163,-243,-94,301,41,-135
2,7426659,-3453,-1647,-984,-163,-243,-94,301,41,-135
2,7426666,-3455,-1645,-981,-160,-244,-88,294,44,-132
2,7426674,-3455,-1645,-981,-160,-244,-88,294,44,-132
2,7426683,-3460,-1649,-975,-164,-249,-82,294,44,-132
2,7426695,-3460,-1649,-975,-164,-249,-82,294,44,-132
2,7426704,-3459,-1648,-980,-163,-245,-79,294,44,-132
2,7426712,-3459,-1648,-980,-163,-245,-79,294,44,-132
2,7426720,-3459,-1648,-980,-163,-245,-79,294,44,-132
2,7426728,-3452,-1649,-976,-159,-240,-89,294,44,-132
2,7426737,-3452,-1649,-976,-159,-240,-89,294,44,-132
2,7426745,-3452,-1648,-975,-161,-246,-88,294,44,-132
2,7426753,-3452,-1648,-975,-161,-246,-88,294,44,-132
2,7426762,-3452,-1648,-975,-161,-246,-88,294,44,-132
2,7426769,-3450,-1646,-978,-162,-240,-87,294,44,-132
2,7426778,-3450,-1646,-978,-162,-240,-87,294,44,-132
2,7426786,-3453,-1652,-980,-158,-245,-93,298,48,-126
2,7426793,-3453,-1652,-980,-158,-245,-93,298,48,-126
2,7426801,-3453,-1652,-980,-158,-245,-93,298,48,-126
2,7426809,-3460,-1649,-972,-164,-247,-80,298,48,-126
2,7426818,-3460,-1649,-972,-164,-247,-80,298,48,-126
2,7426826,-3458,-1649,-985,-167,-241,-89,298,48,-126
2,7426839,-3458,-1649,-985,-167,-241,-89,298,48,-126
2,7426852,-3459,-1651,-980,-158,-240,-95,298,48,-126
2,7426864,-3458,-1649,-981,-159,-238,-88,298,48,-126
2,7426877,-3458,-1649,-981,-159,-238,-88,298,48,-126
2,7426889,-3456,-1651,-982,-163,-237,-84,298,48,-126
2,7426903,-3456,-1651,-982,-163,-237,-84,298,48,-126
2,7426913,-3452,-1649,-978,-164,-235,-87,298,48,-126
2,7426924,-3451,-1648,-976,-166,-244,-81,293,41,-129
2,7426938,-3451,-1648,-976,-166,-244,-81,293,41,-129
2,7426951,-3456,-1644,-975,-157,-232,-84,293,41,-129
2,7426963,-3451,-1648,-976,-162,-241,-86,293,41,-129
2,7426977,-3451,-1648,-976,-162,-241,-86,293,41,-129
2,7426991,-3456,-1650,-984,-154,-244,-87,293,41,-129
2,7427004,-3461,-1651,-981,-167,-240,-84,293,41,-129
2,7427014,-3461,-1651,-981,-167,-240,-84,293,41,-129
2,7427027,-3458,-1650,-977,-164,-238,-84,293,41,-129
2,7427040,-3458,-1650,-977,-164,-238,-84,293,41,-129
2,7427053,-3454,-1646,-976,-163,-239,-81,299,35,-133
2,7427063,-3454,-1647,-980,-165,-243,-79,299,35,-133
2,7427078,-3454,-1647,-980,-165,-243,-79,299,35,-133
2,7427090,-3457,-1650,-972,-161,-231,-92,299,35,-133
2,7427098,-3457,-1650,-972,-161,-231,-92,299,35,-133
2,7427110,-3458,-1651,-983,-163,-235,-88,299,35,-133
2,7427125,-3459,-1649,-978,-160,-244,-88,299,35,-133
2,7427133,-3459,-1649,-978,-160,-244,-88,299,35,-133
2,7427144,-3457,-1649,-982,-161,-244,-82,299,35,-133
2,7427160,-3457,-1649,-982,-161,-244,-82,299,35,-133
2,7427173,-3458,-1646,-979,-159,-246,-83,297,35,-135
2,7427182,-3458,-1646,-979,-159,-246,-83,297,35,-135
2,7427192,-3453,-1647,-975,-163,-256,-80,297,35,-135
2,7427207,-3455,-1648,-977,-160,-250,-83,297,35,-135
2,7427219,-3455,-1648,-977,-160,-250,-83,297,35,-135
2,7427231,-3453,-1648,-976,-160,-247,-81,297,35,-135
2,7427245,-3456,-1648,-978,-161,-251,-90,297,35,-135
2,7427257,-3456,-1648,-978,-161,-251,-90,297,35,-135
2,7427269,-3456,-1650,-986,-157,-250,-86,297,35,-135
2,7427281,-3456,-1650,-986,-157,-250,-86,297,35,-135
2,7427294,-3456,-1647,-977,-150,-248,-82,291,35,-131
2,7427303,-3456,-1647,-977,-150,-248,-82,291,35,-131
2,7427311,-3454,-1647,-974,-162,-245,-85,291,35,-131
2,7427318,-3454,-1647,-974,-162,-245,-85,291,35,-131
2,7427329,-3451,-1646,-975,-162,-242,-90,291,35,-131
2,7427341,-3451,-1646,-975,-162,-242,-90,291,35,-131
2,7427353,-3454,-1650,-981,-161,-245,-81,291,35,-131
2,7427365,-3451,-1648,-979,-154,-252,-81,291,35,-131
2,7427380,-3451,-1648,-979,-154,-252,-81,291,35,-131
2,7427391,-3455,-1648,-981,-150,-242,-84,291,35,-131
2,7427399,-3455,-1648,-981,-150,-242,-84,291,35,-131
2,7427406,-3458,-1652,-975,-163,-246,-86,305,39,-127
2,7427412,-3458,-1652,-975,-163,-246,-86,305,39,-127
2,7427421,-3458,-1652,-975,-163,-246,-86,305,39,-127
2,7427426,-3458,-1648,-978,-159,-252,-88,305,39,-127
2,7427432,-3458,-1648,-978,-159,-252,-88,305,39,-127
2,7427439,-3458,-1648,-978,-159,-252,-88,305,39,-127
2,7427446,-3457,-1649,-980,-161,-252,-85,305,39,-127
2,7427453,-3457,-1649,-980,-161,-252,-85,305,39,-127
2,7427461,-3457,-1649,-980,-161,-252,-85,305,39,-127
2,7427468,-3454,-1649,-974,-159,-245,-84,305,39,-127
2,7427474,-3454,-1649,-974,-159,-245,-84,305,39,-127
2,7427481,-3454,-1649,-974,-159,-245,-84,305,39,-127
2,7427486,-3453,-1648,-975,-162,-246,-86,305,39,-127
2,7427494,-3453,-1648,-975,-162,-246,-86,305,39,-127
2,7427501,-3453,-1648,-975,-162,-246,-86,305,39,-127
2,7427508,-3451,-1650,-978,-163,-247,-84,305,39,-127
2,7427514,-3451,-1650,-978,-163,-247,-84,305,39,-127
2,7427522,-3451,-1650,-978,-163,-247,-84,305,39,-127
2,7427530,-3456,-1647,-976,-160,-248,-83,305,39,-127
2,7427538,-3456,-1647,-976,-160,-248,-83,305,39,-127
2,7427547,-3456,-1645,-974,-164,-254,-90,297,41,-133
2,7427554,-3456,-1645,-974,-164,-254,-90,297,41,-133
2,7427561,-3456,-1645,-974,-164,-254,-90,297,41,-133
2,7427568,-3456,-1652,-975,-160,-248,-91,297,41,-133
2,7427574,-3456,-1652,-975,-160,-248,-91,297,41,-133
2,7427581,-3456,-1652,-975,-160,-248,-91,297,41,-133
2,7427589,-3458,-1650,-983,-168,-239,-86,297,41,-133
2,7427597,-3458,-1650,-983,-168,-239,-86,297,41,-133
2,7427605,-3453,-1645,-982,-166,-243,-81,297,41,-133
2,7427611,-3453,-1645,-982,-166,-243,-81,297,41,-133
2,7427618,-3453,-1645,-982,-166,-243,-81,297,41,-133
2,7427627,-3454,-1647,-977,-167,-253,-81,297,41,-133
2,7427634,-3454,-1647,-977,-167,-253,-81,297,41,-133
2,7427640,-3454,-1647,-977,-167,-253,-81,297,41,-133
2,7427646,-3451,-1649,-981,-155,-247,-89,297,41,-133
2,7427653,-3451,-1649,-981,-155,-247,-89,297,41,-133
2,7427658,-3451,-1649,-981,-155,-247,-89,297,41,-133
2,7427663,-3453,-1648,-974,-155,-247,-92,293,41,-133
2,7427668,-3453,-1648,-974,-155,-247,-92,293,41,-131
2,7427674,-3453,-1648,-974,-155,-247,-92,293,41,-131
2,7427679,-3453,-1648,-974,-155,-247,-92,293,41,-131
2,7427684,-3457,-1645,-975,-161,-250,-86,293,41,-131
2,7427691,-3457,-1645,-975,-161,-250,-86,293,41,-131
2,7427696,-3457,-1645,-975,-161,-250,-86,293,41,-131
2,7427702,-3457,-1645,-975,-161,-250,-86,293,41,-131
2,7427706,-3456,-1650,-978,-154,-249,-77,293,41,-131
2,7427712,-3456,-1650,-978,-154,-249,-77,293,41,-131
2,7427717,-3456,-1650,-978,-154,-249,-77,293,41,-131
2,7427722,-3456,-1650,-978,-154,-249,-77,293,41,-131
2,7427727,-3459,-1647,-978,-164,-248,-83,293,41,-131
2,7427732,-3459,-1647,-978,-164,-248,-83,293,41,-131
2,7427739,-3459,-1647,-978,-164,-248,-83,293,41,-131
2,7427744,-3454,-1649,-978,-159,-252,-86,293,41,-131
2,7427749,-3454,-1649,-978,-159,-252,-86,293,41,-131
2,7427756,-3454,-1649,-978,-159,-252,-86,293,41,-131
2,7427762,-3454,-1649,-978,-159,-252,-86,293,41,-131
2,7427767,-3455,-1647,-975,-171,-246,-81,293,41,-131
2,7427772,-3455,-1647,-975,-171,-246,-81,293,41,-131
2,7427778,-3455,-1647,-975,-171,-246,-81,293,41,-131
2,7427784,-3450,-1648,-978,-164,-244,-87,298,44,-132
2,7427789,-3450,-1648,-978,-164,-244,-87,298,44,-132
2,7427795,-3450,-1648,-978,-164,-244,-87,298,44,-132
2,7427801,-3450,-1648,-978,-164,-244,-87,298,44,-132
2,7427807,-3453,-1650,-980,-163,-247,-86,298,44,-132
2,7427813,-3453,-1650,-980,-163,-247,-86,298,44,-132
2,7427819,-3453,-1650,-980,-163,-247,-86,298,44,-132
2,7427825,-3455,-1648,-980,-171,-247,-86,298,44,-132
2,7427830,-3455,-1648,-980,-171,-247,-86,298,44,-132
2,7427836,-3455,-1648,-980,-171,-247,-86,298,44,-132
2,7427842,-3455,-1648,-980,-171,-247,-86,298,44,-132
2,7427848,-3458,-1646,-978,-160,-242,-87,298,44,-132
2,7427853,-3458,-1646,-978,-160,-242,-87,298,44,-132
2,7427860,-3458,-1646,-978,-160,-242,-87,298,44,-132
2,7427866,-3456,-1648,-982,-163,-238,-85,298,44,-132
2,7427871,-3456,-1648,-982,-163,-238,-85,298,44,-132
2,7427877,-3456,-1648,-982,-163,-238,-85,298,44,-132
2,7427881,-3456,-1648,-982,-163,-238,-85,298,44,-132
2,7427889,-3456,-1646,-976,-171,-242,-82,298,44,-132
2,7427897,-3456,-1646,-976,-171,-242,-82,298,44,-132
2,7427902,-3456,-1646,-976,-171,-242,-82,298,44,-132
2,7427909,-3452,-1647,-970,-173,-237,-86,298,42,-132
2,7427915,-3452,-1647,-970,-173,-237,-86,298,42,-132
2,7427923,-3451,-1647,-977,-166,-246,-86,298,42,-132
2,7427931,-3451,-1647,-977,-166,-246,-86,298,42,-132
2,7427938,-3451,-1647,-977,-166,-246,-86,298,42,-132
2,7427944,-3448,-1650,-978,-155,-248,-84,298,42,-132
2,7427950,-3448,-1650,-978,-155,-248,-84,298,42,-132
2,7427958,-3448,-1650,-978,-155,-248,-84,298,42,-132
2,7427965,-3452,-1648,-981,-163,-241,-77,298,42,-132
2,7427975,-3452,-1648,-981,-163,-241,-77,298,42,-132
2,7427982,-3452,-1648,-981,-163,-241,-77,298,42,-132
2,7427989,-3456,-1649,-979,-163,-236,-84,298,42,-132
2,7427995,-3456,-1649,-979,-163,-236,-84,298,42,-132
2,7428000,-3456,-1649,-979,-163,-236,-84,298,42,-132
2,7428008,-3458,-1647,-978,-167,-241,-88,298,42,-132
2,7428017,-3458,-1647,-978,-167,-241,-88,298,42,-132
2,7428024,-3455,-1649,-984,-163,-244,-89,298,42,-132
2,7428031,-3455,-1649,-984,-163,-244,-89,304,38,-130
2,7428038,-3455,-1649,-984,-163,-244,-89,304,38,-130
2,7428045,-3455,-1649,-984,-163,-244,-89,304,38,-130
2,7428052,-3455,-1649,-984,-163,-244,-89,304,38,-130
2,7428060,-3455,-1649,-984,-163,-244,-89,304,38,-130
2,7428067,-3452,-1648,-977,-161,-242,-79,304,38,-130
2,7428075,-3452,-1648,-977,-161,-242,-79,304,38,-130
2,7428082,-3452,-1648,-977,-161,-242,-79,304,38,-130
2,7428090,-3454,-1649,-980,-162,-246,-81,304,38,-130
2,7428099,-3454,-1649,-980,-162,-246,-81,304,38,-130
2,7428104,-3452,-1649,-980,-164,-240,-84,304,38,-130
2,7428111,-3452,-1649,-980,-164,-240,-84,304,38,-130
2,7428119,-3452,-1649,-980,-164,-240,-84,304,38,-130
2,7428125,-3451,-1649,-987,-159,-245,-83,304,38,-130
2,7428132,-3451,-1649,-987,-159,-245,-83,304,38,-130
2,7428139,-3451,-1649,-987,-159,-245,-83,304,38,-130
2,7428146,-3454,-1647,-982,-166,-243,-84,304,38,-130
2,7428152,-3454,-1647,-982,-166,-243,-84,304,38,-130
2,7428159,-3454,-1647,-982,-166,-243,-84,304,38,-130
2,7428166,-3456,-1647,-983,-161,-244,-82,298,32,-134
2,7428174,-3456,-1647,-983,-161,-244,-82,298,32,-134
2,7428182,-3456,-1647,-983,-161,-244,-82,298,32,-134
2,7428189,-3451,-1648,-979,-162,-250,-92,298,32,-134
2,7428196,-3451,-1648,-979,-162,-250,-92,298,32,-134
2,7428204,-3450,-1647,-979,-165,-242,-79,298,32,-134
2,7428210,-3450,-1647,-979,-165,-242,-79,298,32,-134
2,7428217,-3450,-1647,-979,-165,-242,-79,298,32,-134
2,7428227,-3453,-1649,-982,-165,-244,-80,298,32,-134
2,7428235,-3453,-1649,-982,-165,-244,-80,298,32,-134
2,7428242,-3453,-1649,-982,-165,-244,-80,298,32,-134
2,7428248,-3448,-1648,-976,-159,-244,-81,298,32,-134
2,7428254,-3448,-1648,-976,-159,-244,-81,298,32,-134
2,7428260,-3448,-1648,-976,-159,-244,-81,298,32,-134
2,7428268,-3456,-1646,-978,-161,-244,-85,298,32,-134
2,7428274,-3456,-1646,-978,-161,-244,-85,298,32,-134
2,7428281,-3456,-1646,-978,-161,-244,-85,298,32,-134
2,7428288,-3454,-1647,-977,-160,-247,-91,302,42,-130
2,7428295,-3454,-1647,-977,-160,-247,-91,302,42,-130
2,7428301,-3454,-1647,-977,-160,-247,-91,302,42,-130
2,7428310,-3454,-1648,-981,-160,-245,-90,302,42,-130
2,7428316,-3454,-1648,-981,-160,-245,-90,302,42,-130
2,7428324,-3454,-1648,-981,-160,-245,-90,302,42,-130
2,7428329,-3452,-1649,-985,-161,-240,-87,302,42,-130
2,7428334,-3452,-1649,-985,-161,-240,-87,302,42,-130
2,7428342,-3452,-1649,-985,-161,-240,-87,302,42,-130
2,7428348,-3448,-1648,-984,-163,-245,-84,302,42,-130
2,7428356,-3448,-1648,-984,-163,-245,-84,302,42,-130
2,7428363,-3448,-1648,-984,-163,-245,-84,302,42,-130
2,7428370,-3451,-1648,-984,-159,-243,-84,302,42,-130
2,7428375,-3451,-1648,-984,-159,-243,-84,302,42,-130
2,7428380,-3451,-1648,-984,-159,-243,-84,302,42,-130
2,7428385,-3448,-1647,-989,-162,-245,-83,302,42,-130
2,7428390,-3448,-1647,-989,-162,-245,-83,302,42,-130
2,7428396,-3448,-1647,-989,-162,-245,-83,302,42,-130
2,7428401,-3448,-1647,-989,-162,-245,-83,302,42,-130
2,7428409,-3451,-1646,-981,-162,-251,-85,293,43,-129
2,7428417,-3451,-1646,-981,-162,-251,-85,293,43,-129
2,7428425,-3455,-1649,-980,-160,-244,-90,293,43,-129
2,7428433,-3455,-1649,-980,-160,-244,-90,293,43,-129
2,7428442,-3455,-1649,-980,-160,-244,-90,293,43,-129
2,7428450,-3455,-1649,-983,-163,-239,-89,293,43,-129
2,7428458,-3455,-1649,-983,-163,-239,-89,293,43,-129
2,7428467,-3456,-1648,-983,-160,-241,-88,293,43,-129
2,7428475,-3456,-1648,-983,-160,-241,-88,293,43,-129
2,7428484,-3456,-1648,-983,-160,-241,-88,293,43,-129
2,7428492,-3451,-1648,-981,-153,-236,-92,293,43,-129
2,7428500,-3451,-1648,-981,-153,-236,-92,293,43,-129
2,7428509,-3453,-1650,-982,-155,-244,-92,293,43,-129
2,7428517,-3453,-1650,-982,-155,-244,-92,293,43,-129
2,7428526,-3451,-1649,-983,-162,-239,-89,294,38,-126
2,7428534,-3451,-1649,-983,-162,-239,-89,294,38,-126
2,7428541,-3451,-1649,-983,-162,-239,-89,294,38,-126
2,7428549,-3450,-1650,-984,-155,-241,-87,294,38,-126
2,7428557,-3450,-1650,-984,-155,-241,-87,294,38,-126
2,7428567,-3450,-1650,-984,-155,-241,-87,294,38,-126
2,7428575,-3450,-1650,-984,-155,-241,-87,294,38,-126
2,7428583,-3450,-1650,-984,-155,-241,-87,294,38,-126
2,7428591,-3453,-1648,-986,-157,-236,-93,294,38,-126
2,7428599,-3453,-1648,-986,-157,-236,-93,294,38,-126
2,7428608,-3454,-1648,-980,-159,-245,-88,294,38,-126
2,7428616,-3454,-1648,-980,-159,-245,-88,294,38,-126
2,7428624,-3454,-1647,-983,-167,-240,-92,294,38,-126
2,7428632,-3454,-1647,-983,-167,-240,-92,294,38,-126
2,7428640,-3454,-1647,-983,-167,-240,-92,294,38,-126
2,7428647,-3451,-1649,-984,-161,-239,-87,292,44,-130
2,7428657,-3451,-1649,-984,-161,-239,-87,292,44,-130
2,7428665,-3450,-1650,-981,-159,-240,-88,292,44,-130
2,7428673,-3450,-1650,-981,-159,-240,-88,292,44,-130
2,7428684,-3450,-1650,-981,-159,-240,-88,292,44,-130
2,7428691,-3448,-1647,-983,-157,-237,-83,292,44,-130
2,7428700,-3448,-1647,-983,-157,-237,-83,292,44,-130
2,7428708,-3453,-1652,-982,-162,-238,-78,292,44,-130
2,7428716,-3453,-1652,-982,-162,-238,-78,292,44,-130
2,7428724,-3453,-1652,-982,-162,-238,-78,292,44,-130
2,7428732,-3456,-1648,-984,-165,-246,-89,292,44,-130
2,7428740,-3456,-1648,-984,-165,-246,-89,292,44,-130
2,7428747,-3456,-1650,-985,-164,-246,-86,292,44,-130
2,7428755,-3456,-1650,-985,-164,-246,-86,292,44,-130
2,7428762,-3456,-1650,-985,-164,-246,-86,292,44,-130
2,7428770,-3453,-1647,-983,-160,-246,-90,302,40,-128
2,7428779,-3453,-1647,-983,-160,-246,-90,302,40,-128
2,7428787,-3449,-1648,-981,-165,-245,-86,302,40,-128
2,7428795,-3449,-1648,-981,-165,-245,-86,302,40,-128
2,7428802,-3449,-1648,-981,-165,-245,-86,302,40,-128
2,7428809,-3451,-1650,-975,-159,-248,-86,302,40,-128
2,7428817,-3451,-1650,-975,-159,-248,-86,302,40,-128
2,7428826,-3449,-1648,-984,-162,-251,-87,302,40,-128
2,7428833,-3449,-1648,-984,-162,-251,-87,302,40,-128
2,7428841,-3449,-1648,-984,-162,-251,-87,302,40,-128
2,7428849,-3453,-1648,-982,-169,-244,-84,302,40,-128
2,7428856,-3453,-1648,-982,-169,-244,-84,302,40,-128
2,7428864,-3453,-1648,-982,-169,-244,-84,302,40,-128
2,7428872,-3452,-1646,-984,-157,-242,-83,302,40,-128
2,7428879,-3452,-1646,-984,-157,-242,-83,302,40,-128
2,7428887,-3455,-1647,-988,-158,-249,-88,302,40,-128
2,7428894,-3455,-1647,-988,-158,-249,-88,302,40,-128
2,7428902,-3455,-1647,-988,-158,-249,-88,302,40,-128
2,7428910,-3457,-1651,-978,-163,-249,-85,290,42,-128
2,7428917,-3457,-1651,-978,-163,-249,-85,290,42,-128
2,7428925,-3457,-1651,-978,-163,-249,-85,290,42,-128
2,7428933,-3452,-1651,-975,-160,-243,-76,290,42,-128
2,7428941,-3452,-1651,-975,-160,-243,-76,290,42,-128
2,7428950,-3451,-1647,-978,-154,-237,-76,290,42,-128
2,7428958,-3451,-1647,-978,-154,-237,-76,290,42,-128
2,7428966,-3446,-1649,-981,-154,-243,-75,290,42,-128
2,7428973,-3446,-1649,-981,-154,-243,-75,290,42,-128
2,7428981,-3446,-1649,-981,-154,-243,-75,290,42,-128
2,7428988,-3448,-1648,-981,-163,-239,-81,290,42,-128
2,7428997,-3448,-1648,-981,-163,-239,-81,290,42,-128
2,7429005,-3455,-1648,-983,-163,-238,-84,290,42,-128
2,7429012,-3455,-1648,-983,-163,-238,-84,290,42,-128
2,7429019,-3455,-1648,-983,-163,-238,-84,290,42,-128
2,7429027,-3455,-1647,-977,-162,-244,-84,297,37,-131
2,7429035,-3455,-1647,-977,-162,-244,-84,297,37,-131
2,7429045,-3458,-1650,-984,-163,-244,-85,297,37,-131
2,7429053,-3458,-1650,-984,-163,-244,-85,297,37,-131
2,7429060,-3458,-1650,-984,-163,-244,-85,297,37,-131
2,7429067,-3452,-1648,-987,-162,-242,-83,297,37,-131
2,7429075,-3452,-1648,-987,-162,-242,-83,297,37,-131
2,7429083,-3452,-1648,-987,-162,-242,-83,297,37,-131
2,7429090,-3450,-1648,-984,-158,-239,-82,297,37,-131
2,7429098,-3450,-1648,-984,-158,-239,-82,297,37,-131
2,7429105,-3450,-1647,-987,-154,-242,-90,297,37,-131
2,7429113,-3450,-1647,-987,-154,-242,-90,297,37,-131
2,7429122,-3450,-1647,-987,-154,-242,-90,297,37,-131
2,7429129,-3450,-1650,-984,-161,-243,-87,297,37,-131
2,7429136,-3450,-1650,-984,-161,-243,-87,297,37,-131
2,7429143,-3450,-1650,-984,-161,-243,-87,297,37,-131
2,7429150,-3454,-1652,-979,-165,-244,-85,305,33,-135
2,7429158,-3454,-1652,-979,-165,-244,-85,305,33,-135
2,7429166,-3452,-1649,-983,-163,-237,-90,305,33,-135
2,7429173,-3452,-1649,-983,-163,-237,-90,305,33,-135
2,7429181,-3452,-1649,-983,-163,-237,-90,305,33,-135
2,7429188,-3458,-1649,-977,-158,-239,-89,305,33,-135
2,7429196,-3458,-1649,-977,-158,-239,-89,305,33,-135
2,7429203,-3458,-1649,-977,-158,-239,-89,305,33,-135
2,7429212,-3454,-1648,-973,-161,-239,-94,305,33,-135
2,7429220,-3454,-1648,-973,-161,-239,-94,305,33,-135
2,7429229,-3455,-1648,-982,-163,-235,-87,305,33,-135
2,7429237,-3455,-1648,-982,-163,-235,-87,305,33,-135
2,7429245,-3454,-1648,-980,-156,-241,-89,305,33,-135
2,7429254,-3454,-1648,-980,-156,-241,-89,305,33,-135
2,7429263,-3454,-1648,-980,-156,-241,-89,305,33,-135
2,7429272,-3448,-1649,-982,-162,-237,-82,302,38,-136
2,7429281,-3448,-1649,-982,-162,-237,-82,302,38,-136
2,7429291,-3453,-1648,-981,-162,-250,-93,302,38,-136
2,7429300,-3453,-1648,-981,-162,-250,-93,302,38,-136
2,7429310,-3454,-1651,-983,-165,-246,-88,302,38,-136
2,7429323,-3454,-1651,-983,-165,-246,-88,302,38,-136
2,7429336,-3455,-1647,-978,-166,-237,-80,302,38,-136
2,7429349,-3456,-1647,-980,-164,-248,-90,302,38,-136
2,7429359,-3456,-1647,-980,-164,-248,-90,302,38,-136
2,7429371,-3452,-1646,-983,-161,-243,-84,302,38,-136
2,7429384,-3452,-1646,-983,-161,-243,-84,302,38,-136
2,7429397,-3451,-1649,-978,-162,-232,-87,299,51,-135
2,7429408,-3449,-1648,-977,-172,-241,-91,299,51,-135
2,7429415,-3449,-1648,-977,-172,-241,-91,299,51,-135
2,7429422,-3449,-1648,-977,-172,-241,-91,299,51,-135
2,7429429,-3450,-1645,-979,-166,-241,-83,299,51,-135
2,7429436,-3450,-1645,-979,-166,-241,-83,299,51,-135
2,7429442,-3450,-1645,-979,-166,-241,-83,299,51,-135
2,7429449,-3455,-1648,-982,-161,-240,-77,299,51,-135
2,7429457,-3455,-1648,-982,-161,-240,-77,299,51,-135
2,7429465,-3455,-1648,-982,-161,-240,-77,299,51,-135
2,7429471,-3457,-1649,-979,-158,-238,-84,299,51,-135
2,7429477,-3457,-1649,-979,-158,-238,-84,299,51,-135
2,7429483,-3457,-1649,-979,-158,-238,-84,299,51,-135
2,7429490,-3457,-1648,-986,-160,-245,-90,299,51,-135
2,7429496,-3457,-1648,-986,-160,-245,-90,299,51,-135
2,7429502,-3457,-1648,-986,-160,-245,-90,299,51,-135
2,7429508,-3455,-1649,-976,-160,-242,-90,299,51,-135
2,7429516,-3455,-1649,-976,-160,-242,-90,299,51,-135
2,7429522,-3455,-1649,-976,-160,-242,-90,299,51,-135
2,7429529,-3453,-1647,-977,-166,-250,-92,295,45,-129
2,7429534,-3453,-1647,-977,-166,-250,-92,295,45,-129
2,7429540,-3453,-1647,-977,-166,-250,-92,295,45,-129
2,7429549,-3453,-1652,-980,-167,-246,-92,295,45,-129
2,7429555,-3453,-1652,-980,-167,-246,-92,295,45,-129
2,7429562,-3453,-1652,-980,-167,-246,-92,295,45,-129
2,7429568,-3456,-1646,-981,-153,-238,-90,295,45,-129
2,7429574,-3456,-1646,-981,-153,-238,-90,295,45,-129
2,7429582,-3456,-1646,-981,-153,-238,-90,295,45,-129
2,7429590,-3456,-1650,-981,-161,-237,-91,295,45,-129
2,7429597,-3456,-1650,-981,-161,-237,-91,295,45,-129
2,7429604,-3456,-1650,-981,-161,-237,-91,295,45,-129
2,7429612,-3457,-1648,-983,-159,-243,-85,295,45,-129
2,7429618,-3457,-1648,-983,-159,-243,-85,295,45,-129
2,7429625,-3462,-1650,-987,-165,-237,-87,295,45,-129
2,7429633,-3462,-1650,-987,-165,-237,-87,295,45,-129
2,7429640,-3462,-1650,-987,-165,-237,-87,295,45,-129
2,7429645,-3459,-1649,-981,-162,-239,-85,295,45,-129
2,7429653,-3459,-1649,-981,-162,-239,-85,298,36,-132
2,7429658,-3459,-1649,-981,-162,-239,-85,298,36,-132
2,7429663,-3459,-1649,-981,-162,-239,-85,298,36,-132
2,7429669,-3456,-1648,-976,-164,-242,-89,298,36,-132
2,7429675,-3456,-1648,-976,-164,-242,-89,298,36,-132
2,7429680,-3456,-1648,-976,-164,-242,-89,298,36,-132
2,7429685,-3456,-1648,-976,-164,-242,-89,298,36,-132
2,7429691,-3456,-1650,-985,-164,-243,-87,298,36,-132
2,7429698,-3456,-1650,-985,-164,-243,-87,298,36,-132
2,7429703,-3456,-1650,-985,-164,-243,-87,298,36,-132
2,7429708,-3451,-1648,-983,-157,-236,-88,298,36,-132
2,7429713,-3451,-1648,-983,-157,-236,-88,298,36,-132
2,7429719,-3451,-1648,-983,-157,-236,-88,298,36,-132
2,7429724,-3451,-1648,-983,-157,-236,-88,298,36,-132
2,7429729,-3454,-1650,-984,-154,-246,-88,298,36,-132
2,7429734,-3454,-1650,-984,-154,-246,-88,298,36,-132
2,7429741,-3454,-1650,-984,-154,-246,-88,298,36,-132
2,7429748,-3458,-1646,-980,-159,-245,-85,298,36,-132
2,7429754,-3458,-1646,-980,-159,-245,-85,298,36,-132
2,7429761,-3458,-1646,-980,-159,-245,-85,298,36,-132
2,7429768,-3458,-1649,-979,-165,-246,-82,302,32,-132
2,7429776,-3458,-1649,-979,-165,-246,-82,302,32,-132
2,7429782,-3458,-1649,-979,-165,-246,-82,302,32,-132
2,7429789,-3459,-1649,-983,-164,-247,-93,302,32,-132
2,7429796,-3459,-1649,-983,-164,-247,-93,302,32,-132
2,7429805,-3459,-1649,-983,-164,-247,-93,302,32,-132
2,7429810,-3457,-1648,-985,-155,-245,-93,302,32,-132
2,7429818,-3457,-1648,-985,-155,-245,-93,302,32,-132
2,7429824,-3457,-1648,-985,-155,-245,-93,302,32,-132
2,7429829,-3451,-1647,-982,-161,-240,-97,302,32,-132
2,7429836,-3451,-1647,-982,-161,-240,-97,302,32,-132
2,7429843,-3451,-1647,-982,-161,-240,-97,302,32,-132
2,7429852,-3452,-1650,-979,-156,-239,-91,302,32,-132
2,7429859,-3452,-1650,-979,-156,-239,-91,302,32,-132
2,7429867,-3455,-1648,-985,-161,-241,-83,302,32,-132
2,7429874,-3455,-1648,-985,-161,-241,-83,302,32,-132
2,7429879,-3455,-1648,-985,-161,-241,-83,302,32,-132
2,7429885,-3455,-1648,-985,-161,-241,-83,302,32,-132
2,7429892,-3457,-1650,-981,-166,-240,-86,297,39,-131
2,7429897,-3457,-1650,-981,-166,-240,-86,297,39,-131
2,7429904,-3457,-1650,-981,-166,-240,-86,297,39,-131
2,7429910,-3458,-1648,-981,-158,-241,-83,297,39,-131
2,7429919,-3458,-1648,-981,-158,-241,-83,297,39,-131
2,7429925,-3458,-1648,-981,-158,-241,-83,297,39,-131
2,7429932,-3462,-1649,-981,-164,-246,-77,297,39,-131
2,7429939,-3462,-1649,-981,-164,-246,-77,297,39,-131
2,7429946,-3458,-1648,-978,-161,-242,-80,297,39,-131
2,7429952,-3458,-1648,-978,-161,-242,-80,297,39,-131
2,7429959,-3458,-1648,-978,-161,-242,-80,297,39,-131
2,7429967,-3455,-1649,-982,-163,-239,-85,297,39,-131
2,7429975,-3455,-1649,-982,-163,-239,-85,297,39,-131
2,7429983,-3455,-1649,-982,-163,-239,-85,297,39,-131
2,7429990,-3457,-1648,-978,-162,-243,-88,297,39,-131
2,7429997,-3457,-1648,-978,-162,-243,-88,297,39,-131
2,7430004,-3457,-1648,-978,-162,-243,-88,297,39,-131
2,7430011,-3453,-1647,-975,-159,-243,-85,294,34,-134
2,7430019,-3453,-1647,-975,-159,-243,-85,294,34,-134
2,7430026,-3455,-1649,-974,-164,-238,-90,294,34,-134
2,7430035,-3455,-1649,-974,-164,-238,-90,294,34,-134
2,7430042,-3455,-1649,-974,-164,-238,-90,294,34,-134
2,7430047,-3457,-1646,-975,-163,-238,-79,294,34,-134
2,7430053,-3457,-1646,-975,-163,-238,-79,294,34,-134
2,7430061,-3457,-1646,-975,-163,-238,-79,294,34,-134
2,7430069,-3461,-1647,-985,-165,-233,-90,294,34,-134
2,7430077,-3461,-1647,-985,-165,-233,-90,294,34,-134
2,7430085,-3461,-1647,-985,-165,-233,-90,294,34,-134
2,7430093,-3458,-1647,-982,-165,-244,-82,294,34,-134
2,7430100,-3458,-1647,-982,-165,-244,-82,294,34,-134
2,7430108,-3460,-1649,-978,-165,-243,-83,294,34,-134
2,7430114,-3460,-1649,-978,-165,-243,-83,294,34,-134
2,7430121,-3460,-1649,-978,-165,-243,-83,294,34,-134
2,7430128,-3455,-1648,-983,-165,-246,-81,294,34,-134
2,7430136,-3455,-1648,-983,-165,-246,-81,294,34,-134
2,7430142,-3455,-1648,-983,-165,-246,-81,294,34,-134
2,7430150,-3451,-1649,-976,-169,-241,-82,291,29,-133
2,7430157,-3451,-1649,-976,-169,-241,-82,291,29,-133
2,7430164,-3451,-1649,-976,-169,-241,-82,291,29,-133
2,7430170,-3458,-1646,-979,-159,-240,-86,291,29,-133
2,7430177,-3458,-1646,-979,-159,-240,-86,291,29,-133
2,7430185,-3458,-1646,-979,-159,-240,-86,291,29,-133
2,7430193,-3454,-1646,-975,-161,-243,-83,291,29,-133
2,7430199,-3454,-1646,-975,-161,-243,-83,291,29,-133
2,7430206,-3455,-1649,-977,-158,-239,-84,291,29,-133
2,7430212,-3455,-1649,-977,-158,-239,-84,291,29,-133
2,7430220,-3455,-1649,-977,-158,-239,-84,291,29,-133
2,7430228,-3460,-1644,-976,-158,-248,-80,291,29,-133
2,7430236,-3460,-1644,-976,-158,-248,-80,291,29,-133
2,7430243,-3460,-1644,-976,-158,-248,-80,291,29,-133
2,7430248,-3458,-1649,-983,-157,-243,-91,291,29,-133
2,7430255,-3458,-1649,-983,-157,-243,-91,291,29,-133
2,7430263,-3458,-1649,-983,-157,-243,-91,291,29,-133
2,7430269,-3458,-1648,-978,-165,-237,-85,295,47,-139
2,7430276,-3458,-1648,-978,-165,-237,-85,295,47,-139
2,7430282,-3458,-1648,-978,-165,-237,-85,295,47,-139
2,7430289,-3452,-1648,-976,-158,-240,-88,295,47,-139
2,7430295,-3452,-1648,-976,-158,-240,-88,295,47,-139
2,7430303,-3452,-1648,-976,-158,-240,-88,295,47,-139
2,7430310,-3449,-1650,-980,-157,-244,-84,295,47,-139
2,7430319,-3449,-1650,-980,-157,-244,-84,295,47,-139
2,7430326,-3458,-1647,-981,-158,-245,-74,295,47,-139
2,7430332,-3458,-1647,-981,-158,-245,-74,295,47,-139
2,7430339,-3458,-1647,-981,-158,-245,-74,295,47,-139
2,7430346,-3457,-1647,-981,-157,-242,-74,295,47,-139
2,7430354,-3457,-1647,-981,-157,-242,-74,295,47,-139
2,7430362,-3457,-1647,-981,-157,-242,-74,295,47,-139
2,7430370,-3460,-1648,-977,-157,-246,-76,295,47,-139
2,7430377,-3460,-1648,-977,-157,-246,-76,295,47,-139
2,7430384,-3460,-1648,-977,-157,-246,-76,295,47,-139
2,7430390,-3460,-1646,-980,-161,-252,-81,296,40,-130
2,7430398,-3460,-1646,-980,-161,-252,-81,296,40,-130
2,7430405,-3460,-1646,-980,-161,-252,-81,296,40,-130
2,7430413,-3458,-1649,-984,-157,-247,-88,296,40,-130
2,7430426,-3458,-1649,-984,-157,-247,-88,296,40,-130
2,7430439,-3454,-1647,-980,-155,-245,-97,296,40,-130
2,7430452,-3454,-1651,-984,-160,-239,-91,296,40,-130
2,7430465,-3454,-1651,-984,-160,-239,-91,296,40,-130
2,7430478,-3457,-1649,-981,-155,-240,-88,296,40,-130
2,7430494,-3451,-1649,-979,-153,-244,-92,296,40,-130
2,7430507,-3457,-1650,-974,-161,-239,-84,299,41,-133
2,7430516,-3457,-1650,-974,-161,-239,-84,299,41,-133
2,7430528,-3453,-1649,-983,-162,-239,-85,299,41,-133
2,7430541,-3453,-1649,-983,-162,-239,-85,299,41,-133
2,7430554,-3455,-1649,-980,-161,-243,-82,299,41,-133
2,7430565,-3455,-1649,-980,-161,-243,-82,299,41,-133
2,7430580,-3456,-1649,-977,-164,-244,-83,299,41,-133
2,7430592,-3457,-1647,-981,-159,-239,-78,299,41,-133
2,7430606,-3457,-1647,-981,-159,-239,-78,299,41,-133
2,7430620,-3455,-1645,-981,-158,-250,-83,299,41,-133
2,7430632,-3455,-1651,-978,-155,-247,-87,300,40,-120
2,7430644,-3455,-1651,-978,-155,-247,-87,300,40,-120
2,7430653,-3457,-1648,-974,-163,-247,-80,300,40,-120
2,7430662,-3457,-1648,-974,-163,-247,-80,300,40,-120
2,7430670,-3455,-1646,-981,-155,-240,-89,300,40,-120
2,7430677,-3455,-1646,-981,-155,-240,-89,300,40,-120
2,7430687,-3450,-1647,-981,-158,-246,-95,300,40,-120
2,7430697,-3450,-1647,-981,-158,-246,-95,300,40,-120
2,7430706,-3450,-1647,-981,-158,-246,-95,300,40,-120
2,7430714,-3454,-1647,-979,-157,-245,-89,300,40,-120
2,7430722,-3454,-1647,-979,-157,-245,-89,300,40,-120
2,7430729,-3454,-1646,-984,-159,-248,-79,300,40,-120
2,7430737,-3454,-1646,-984,-159,-248,-79,300,40,-120
2,7430747,-3457,-1650,-986,-165,-242,-78,300,40,-120
2,7430755,-3457,-1650,-986,-165,-242,-78,300,40,-120
2,7430763,-3457,-1650,-986,-165,-242,-78,300,40,-120
2,7430770,-3459,-1649,-973,-158,-242,-82,299,37,-133
2,7430778,-3459,-1649,-973,-158,-242,-82,299,37,-133
2,7430787,-3459,-1646,-979,-157,-248,-89,299,37,-133
2,7430795,-3459,-1646,-979,-157,-248,-89,299,37,-133
2,7430803,-3459,-1646,-979,-157,-248,-89,299,37,-133
2,7430812,-3454,-1645,-981,-157,-243,-92,299,37,-133
2,7430819,-3454,-1645,-981,-157,-243,-92,299,37,-133
2,7430828,-3454,-1647,-980,-164,-243,-88,299,37,-133
2,7430835,-3454,-1647,-980,-164,-243,-88,299,37,-133
2,7430844,-3454,-1647,-980,-164,-243,-88,299,37,-133
2,7430853,-3454,-1650,-981,-162,-238,-81,299,37,-133
2,7430862,-3454,-1650,-981,-162,-238,-81,299,37,-133
2,7430873,-3451,-1649,-983,-159,-238,-86,299,37,-133
2,7430882,-3451,-1649,-983,-159,-238,-86,299,37,-133
2,7430892,-3452,-1646,-986,-159,-239,-83,292,36,-134
2,7430902,-3452,-1646,-986,-159,-239,-83,292,36,-134
2,7430914,-3454,-1648,-987,-160,-240,-83,292,36,-134
2,7430928,-3455,-1649,-980,-161,-245,-83,292,36,-134
2,7430936,-3455,-1649,-980,-161,-245,-83,292,36,-134
2,7430948,-3456,-1649,-983,-157,-248,-78,292,36,-134
2,7430961,-3456,-1649,-983,-157,-248,-78,292,36,-134
2,7430974,-3453,-1648,-983,-160,-231,-89,292,36,-134
2,7430986,-3452,-1650,-984,-165,-240,-95,292,36,-134
2,7431000,-3452,-1650,-984,-165,-240,-95,292,36,-134
2,7431013,-3450,-1648,-979,-159,-243,-87,301,43,-135
2,7431023,-3450,-1648,-979,-159,-243,-87,301,43,-135
2,7431033,-3451,-1648,-983,-159,-239,-88,301,43,-135
2,7431048,-3454,-1650,-984,-166,-242,-87,301,43,-135
2,7431062,-3454,-1650,-984,-166,-242,-87,301,43,-135
2,7431070,-3454,-1650,-986,-162,-249,-87,301,43,-135
2,7431083,-3454,-1650,-986,-162,-249,-87,301,43,-135
2,7431097,-3453,-1649,-986,-163,-238,-84,301,43,-135
2,7431111,-3453,-1649,-980,-159,-240,-90,301,43,-135
2,7431120,-3453,-1649,-980,-159,-240,-90,301,43,-135
2,7431133,-3454,-1648,-984,-155,-247,-81,297,47,-131
2,7431145,-3454,-1648,-984,-155,-247,-81,297,47,-131
2,7431158,-3453,-1648,-982,-163,-239,-82,297,47,-131
2,7431169,-3450,-1649,-983,-168,-239,-94,297,47,-131
2,7431180,-3450,-1649,-983,-168,-239,-94,297,47,-131
2,7431193,-3450,-1650,-982,-160,-240,-83,297,47,-131
2,7431205,-3450,-1650,-982,-160,-240,-83,297,47,-131
2,7431218,-3455,-1647,-983,-164,-235,-86,297,47,-131
2,7431230,-3456,-1649,-982,-161,-234,-83,297,47,-131
2,7431240,-3456,-1649,-982,-161,-234,-83,297,47,-131
2,7431250,-3459,-1651,-987,-158,-242,-79,302,38,-132
2,7431265,-3459,-1651,-987,-158,-242,-79,302,38,-132
2,7431277,-3454,-1650,-979,-154,-241,-89,302,38,-132
2,7431287,-3451,-1651,-983,-163,-238,-81,302,38,-132
2,7431299,-3451,-1651,-983,-163,-238,-81,302,38,-132
2,7431315,-3449,-1647,-984,-163,-237,-81,302,38,-132
2,7431329,-3449,-1649,-986,-162,-247,-83,302,38,-132
2,7431337,-3449,-1649,-986,-162,-247,-83,302,38,-132
2,7431351,-3454,-1648,-980,-159,-243,-89,302,38,-132
2,7431364,-3454,-1648,-980,-159,-243,-89,302,38,-132
2,7431377,-3453,-1650,-985,-154,-241,-83,302,38,-132
2,7431388,-3453,-1649,-974,-154,-244,-96,299,33,-127
2,7431398,-3453,-1649,-974,-154,-244,-96,299,33,-127
2,7431406,-3453,-1649,-974,-154,-244,-96,299,33,-127
2,7431414,-3454,-1648,-982,-156,-242,-87,299,33,-127
2,7431422,-3454,-1648,-982,-156,-242,-87,299,33,-127
2,7431430,-3454,-1649,-983,-165,-246,-89,299,33,-127
2,7431435,-3454,-1649,-983,-165,-246,-89,299,33,-127
2,7431443,-3454,-1649,-983,-165,-246,-89,299,33,-127
2,7431451,-3453,-1646,-984,-162,-247,-88,299,33,-127
2,7431458,-3453,-1646,-984,-162,-247,-88,299,33,-127
2,7431467,-3453,-1646,-984,-162,-247,-88,299,33,-127
2,7431473,-3450,-1648,-986,-172,-244,-87,299,33,-127
2,7431479,-3450,-1648,-986,-172,-244,-87,299,33,-127
2,7431485,-3450,-1648,-986,-172,-244,-87,299,33,-127
2,7431493,-3452,-1650,-985,-162,-246,-83,299,33,-127
2,7431499,-3452,-1650,-985,-162,-246,-83,299,33,-127
2,7431504,-3452,-1650,-985,-162,-246,-83,299,33,-127
2,7431514,-3451,-1646,-976,-168,-243,-93,307,39,-135
2,7431521,-3451,-1646,-976,-168,-243,-93,307,39,-135
2,7431527,-3458,-1648,-978,-160,-244,-87,307,39,-135
2,7431533,-3458,-1648,-978,-160,-244,-87,307,39,-135
2,7431538,-3458,-1648,-978,-160,-244,-87,307,39,-135
2,7431545,-3458,-1648,-978,-160,-244,-87,307,39,-135
2,7431553,-3455,-1648,-984,-163,-252,-89,307,39,-135
2,7431561,-3455,-1648,-984,-163,-252,-89,307,39,-135
2,7431567,-3455,-1648,-984,-163,-252,-89,307,39,-135
2,7431573,-3455,-1649,-979,-161,-247,-86,307,39,-135
2,7431580,-3455,-1649,-979,-161,-247,-86,307,39,-135
2,7431588,-3451,-1649,-982,-161,-241,-76,307,39,-135
2,7431595,-3451,-1649,-982,-161,-241,-76,307,39,-135
2,7431602,-3451,-1649,-982,-161,-241,-76,307,39,-135
2,7431609,-3450,-1646,-985,-163,-241,-81,307,39,-135
2,7431616,-3450,-1646,-985,-163,-241,-81,307,39,-135
2,7431623,-3450,-1646,-985,-163,-241,-81,307,39,-135
2,7431630,-3453,-1647,-980,-165,-245,-85,303,37,-135
2,7431636,-3453,-1647,-980,-165,-245,-85,303,37,-135
2,7431644,-3453,-1647,-980,-165,-245,-85,303,37,-135
2,7431650,-3452,-1650,-980,-168,-243,-86,303,37,-135
2,7431655,-3452,-1650,-980,-168,-243,-86,303,37,-135
2,7431661,-3452,-1650,-980,-168,-243,-86,303,37,-135
2,7431666,-3452,-1650,-980,-168,-243,-86,303,37,-135
2,7431671,-3455,-1649,-987,-159,-242,-89,303,37,-135
2,7431676,-3455,-1649,-987,-159,-242,-89,303,37,-135
2,7431682,-3455,-1649,-987,-159,-242,-89,303,37,-135
2,7431690,-3455,-1650,-985,-157,-241,-89,303,37,-135
2,7431696,-3455,-1650,-985,-157,-241,-89,303,37,-135
2,7431701,-3455,-1650,-985,-157,-241,-89,303,37,-135
2,7431706,-3455,-1650,-985,-157,-241,-89,303,37,-135
2,7431711,-3454,-1647,-980,-165,-243,-88,303,37,-135
2,7431716,-3454,-1647,-980,-165,-243,-88,303,37,-135
2,7431721,-3454,-1647,-980,-165,-243,-88,303,37,-135
2,7431727,-3454,-1647,-980,-165,-243,-88,303,37,-135
2,7431733,-3455,-1648,-984,-158,-243,-81,303,37,-135
2,7431738,-3455,-1648,-984,-158,-243,-81,303,37,-135
2,7431746,-3455,-1648,-984,-158,-243,-81,303,37,-135
2,7431753,-3454,-1647,-983,-157,-245,-79,297,43,-137
2,7431759,-3454,-1647,-983,-157,-245,-79,297,43,-137
2,7431767,-3454,-1647,-983,-157,-245,-79,297,43,-137
2,7431774,-3452,-1647,-985,-164,-238,-88,297,43,-137
2,7431781,-3452,-1647,-985,-164,-238,-88,297,43,-137
2,7431787,-3452,-1647,-985,-164,-238,-88,297,43,-137
2,7431794,-3455,-1648,-981,-165,-247,-82,297,43,-137
2,7431802,-3455,-1648,-981,-165,-247,-82,297,43,-137
2,7431811,-3452,-1649,-982,-167,-250,-83,297,43,-137
2,7431818,-3452,-1649,-982,-167,-250,-83,297,43,-137
2,7431824,-3452,-1649,-982,-167,-250,-83,297,43,-137
2,7431831,-3454,-1649,-981,-163,-245,-85,297,43,-137
2,7431839,-3454,-1649,-981,-163,-245,-85,297,43,-137
2,7431846,-3454,-1649,-981,-163,-245,-85,297,43,-137
2,7431853,-3453,-1649,-984,-164,-233,-84,297,43,-137
2,7431861,-3453,-1649,-984,-164,-233,-84,297,43,-137
2,7431868,-3452,-1652,-985,-168,-241,-82,300,42,-124
2,7431876,-3452,-1652,-985,-168,-241,-82,300,42,-124
2,7431882,-3452,-1652,-985,-168,-241,-82,300,42,-124
2,7431887,-3449,-1650,-980,-156,-244,-89,300,42,-124
2,7431894,-3449,-1650,-980,-156,-244,-89,300,42,-124
2,7431899,-3449,-1650,-980,-156,-244,-89,300,42,-124
2,7431904,-3449,-1650,-980,-156,-244,-89,300,42,-124
2,7431911,-3453,-1647,-979,-159,-245,-92,300,42,-124
2,7431919,-3453,-1647,-979,-159,-245,-92,300,42,-124
2,7431925,-3453,-1647,-979,-159,-245,-92,300,42,-124
2,7431932,-3450,-1647,-981,-167,-240,-88,300,42,-124
2,7431938,-3450,-1647,-981,-167,-240,-88,300,42,-124
2,7431946,-3450,-1647,-981,-167,-240,-88,300,42,-124
2,7431953,-3451,-1648,-986,-163,-242,-88,300,42,-124
2,7431959,-3451,-1648,-986,-163,-242,-88,300,42,-124
2,7431966,-3451,-1648,-986,-163,-242,-88,300,42,-124
2,7431973,-3452,-1652,-980,-161,-233,-91,300,42,-124
2,7431981,-3452,-1652,-980,-161,-233,-91,300,42,-124
2,7431988,-3452,-1652,-980,-161,-233,-91,300,42,-124
2,7431995,-3453,-1649,-983,-156,-242,-86,300,42,-124
2,7432001,-3453,-1649,-983,-156,-242,-86,300,42,-124
2,7432008,-3454,-1651,-981,-160,-243,-87,300,42,-124
2,7432015,-3454,-1651,-981,-160,-243,-87,300,42,-124
2,7432022,-3454,-1651,-981,-160,-243,-87,300,42,-124
2,7432030,-3451,-1650,-981,-162,-238,-92,300,42,-124
2,7432037,-3451,-1650,-981,-162,-238,-92,300,42,-124
2,7432045,-3451,-1650,-981,-162,-238,-92,300,42,-124
2,7432051,-3451,-1651,-979,-170,-236,-84,300,42,-124
2,7432059,-3451,-1651,-979,-170,-236,-84,300,42,-124
2,7432067,-3451,-1651,-979,-170,-236,-84,300,42,-124
2,7432072,-3454,-1649,-983,-164,-226,-90,300,42,-124
2,7432080,-3454,-1649,-983,-164,-226,-90,300,42,-124
2,7432088,-3449,-1647,-981,-161,-239,-91,300,42,-124
2,7432095,-3449,-1647,-981,-161,-239,-91,300,42,-124
2,7432101,-3449,-1647,-981,-161,-239,-91,300,42,-124
2,7432107,-3449,-1647,-981,-161,-239,-91,300,42,-124
2,7432115,-3456,-1648,-981,-159,-240,-81,300,42,-124
2,7432122,-3456,-1648,-981,-159,-240,-81,300,42,-124
2,7432130,-3451,-1644,-981,-170,-240,-85,295,43,-119
2,7432138,-3451,-1644,-981,-170,-240,-85,295,43,-119
2,7432144,-3451,-1644,-981,-170,-240,-85,295,43,-119
2,7432152,-3454,-1649,-982,-166,-240,-92,295,43,-119
2,7432158,-3454,-1649,-982,-166,-240,-92,295,43,-119
2,7432165,-3454,-1649,-982,-166,-240,-92,295,43,-119
2,7432172,-3457,-1650,-983,-166,-239,-86,295,43,-119
2,7432180,-3457,-1650,-983,-166,-239,-86,295,43,-119
2,7432187,-3455,-1649,-978,-160,-240,-84,295,43,-119
2,7432195,-3455,-1649,-978,-160,-240,-84,295,43,-119
2,7432201,-3455,-1649,-978,-160,-240,-84,295,43,-119
2,7432208,-3455,-1648,-982,-166,-243,-84,295,43,-119
2,7432216,-3455,-1648,-982,-166,-243,-84,295,43,-119
2,7432222,-3455,-1648,-982,-166,-243,-84,295,43,-119
2,7432231,-3451,-1649,-983,-166,-237,-83,295,43,-119
2,7432238,-3451,-1649,-983,-166,-237,-83,295,43,-119
2,7432246,-3451,-1649,-983,-166,-237,-83,295,43,-119
2,7432254,-3455,-1649,-977,-163,-237,-87,300,36,-132
2,7432261,-3455,-1649,-977,-163,-237,-87,300,36,-132
2,7432267,-3455,-1647,-980,-158,-244,-85,300,36,-132
2,7432275,-3455,-1647,-980,-158,-244,-85,300,36,-132
2,7432282,-3455,-1647,-980,-158,-244,-85,300,36,-132
2,7432289,-3455,-1646,-977,-155,-242,-85,300,36,-132
2,7432296,-3455,-1646,-977,-155,-242,-85,300,36,-132
2,7432303,-3455,-1646,-977,-155,-242,-85,300,36,-132
2,7432310,-3453,-1646,-978,-153,-248,-84,300,36,-132
2,7432317,-3453,-1646,-978,-153,-248,-84,300,36,-132
2,7432325,-3453,-1646,-978,-153,-248,-84,300,36,-132
2,7432332,-3453,-1650,-987,-161,-235,-90,300,36,-132
2,7432338,-3453,-1650,-987,-161,-235,-90,300,36,-132
2,7432346,-3453,-1650,-987,-161,-235,-90,300,36,-132
2,7432352,-3454,-1646,-983,-162,-235,-85,300,36,-132
2,7432359,-3454,-1646,-983,-162,-235,-85,300,36,-132
2,7432367,-3454,-1646,-983,-162,-235,-85,300,36,-132
2,7432373,-3452,-1648,-972,-163,-248,-87,302,36,-132
2,7432381,-3452,-1648,-972,-163,-248,-87,302,36,-132
2,7432389,-3452,-1646,-979,-161,-249,-91,302,36,-132
2,7432398,-3452,-1646,-979,-161,-249,-91,302,36,-132
2,7432406,-3452,-1646,-979,-161,-249,-91,302,36,-132
2,7432414,-3454,-1650,-979,-159,-242,-93,302,36,-132
2,7432419,-3454,-1650,-979,-159,-242,-93,302,36,-132
2,7432425,-3454,-1650,-979,-159,-242,-93,302,36,-132
2,7432430,-3449,-1650,-980,-159,-243,-89,302,36,-132
2,7432440,-3449,-1650,-980,-159,-243,-89,302,36,-132
2,7432453,-3456,-1647,-983,-157,-237,-89,302,36,-132
2,7432464,-3456,-1647,-983,-157,-237,-89,302,36,-132
2,7432475,-3459,-1645,-981,-160,-242,-92,302,36,-132
2,7432491,-3455,-1647,-979,-163,-246,-86,298,44,-126
2,7432502,-3455,-1647,-979,-163,-246,-86,298,44,-126
2,7432513,-3454,-1647,-974,-164,-243,-81,298,44,-126
2,7432526,-3454,-1647,-974,-164,-243,-81,298,44,-126
2,7432541,-3454,-1648,-977,-164,-250,-86,298,44,-126
2,7432552,-3455,-1647,-981,-158,-243,-90,298,44,-126
2,7432565,-3455,-1647,-981,-158,-243,-90,298,44,-126
2,7432580,-3454,-1648,-983,-157,-243,-88,298,44,-126
2,7432592,-3456,-1647,-982,-160,-237,-84,298,44,-126
2,7432606,-3456,-1647,-982,-160,-237,-84,298,44,-126
2,7432619,-3456,-1648,-977,-157,-236,-81,301,39,-139
2,7432632,-3454,-1648,-973,-160,-243,-84,301,39,-139
2,7432643,-3454,-1648,-973,-160,-243,-84,301,39,-139
2,7432654,-3459,-1650,-979,-156,-242,-91,301,39,-139
2,7432663,-3459,-1650,-979,-156,-242,-91,301,39,-139
2,7432671,-3455,-1647,-979,-161,-242,-86,301,39,-139
2,7432679,-3455,-1647,-979,-161,-242,-86,301,39,-139
2,7432687,-3455,-1647,-979,-161,-242,-86,301,39,-139
2,7432699,-3455,-1648,-986,-158,-233,-81,301,39,-139
2,7432708,-3455,-1648,-986,-158,-233,-81,301,39,-139
2,7432716,-3456,-1647,-984,-156,-235,-84,301,39,-139
2,7432724,-3456,-1647,-984,-156,-235,-84,301,39,-139
2,7432732,-3457,-1649,-978,-156,-237,-89,301,39,-139
2,7432740,-3457,-1649,-978,-156,-237,-89,301,39,-139
2,7432749,-3455,-1650,-976,-165,-238,-92,301,39,-139
2,7432756,-3455,-1650,-976,-165,-238,-92,297,43,-133
2,7432764,-3455,-1650,-976,-165,-238,-92,297,43,-133
2,7432772,-3456,-1649,-979,-168,-244,-85,297,43,-133
2,7432780,-3456,-1649,-979,-168,-244,-85,297,43,-133
2,7432788,-3458,-1651,-977,-162,-245,-89,297,43,-133
2,7432797,-3458,-1651,-977,-162,-245,-89,297,43,-133
2,7432809,-3455,-1648,-982,-158,-238,-86,297,43,-133
2,7432822,-3455,-1648,-982,-158,-238,-86,297,43,-133
2,7432836,-3452,-1647,-979,-152,-241,-82,297,43,-133
2,7432847,-3452,-1647,-979,-152,-241,-82,297,43,-133
2,7432860,-3454,-1648,-979,-157,-245,-87,297,43,-133
2,7432875,-3457,-1646,-978,-163,-240,-93,297,37,-131
2,7432888,-3457,-1646,-978,-163,-240,-93,297,37,-131
2,7432901,-3456,-1648,-981,-163,-247,-83,297,37,-131
2,7432914,-3456,-1649,-978,-161,-248,-79,297,37,-131
2,7432928,-3456,-1649,-978,-161,-248,-79,297,37,-131
2,7432939,-3458,-1650,-976,-156,-235,-77,297,37,-131
2,7432951,-3453,-1650,-976,-158,-239,-85,297,37,-131
2,7432965,-3453,-1650,-976,-158,-239,-85,297,37,-131
2,7432978,-3453,-1650,-979,-158,-243,-87,297,37,-131
2,7432991,-3457,-1652,-977,-162,-248,-86,295,35,-137
2,7433006,-3457,-1652,-977,-162,-248,-86,295,35,-137
2,7433020,-3455,-1646,-977,-160,-253,-85,295,35,-137
2,7433029,-3452,-1648,-981,-165,-250,-89,295,35,-137
2,7433043,-3452,-1648,-981,-165,-250,-89,295,35,-137
2,7433060,-3452,-1648,-977,-163,-240,-87,295,35,-137
2,7433072,-3457,-1647,-978,-156,-243,-94,295,35,-137
2,7433082,-3457,-1647,-978,-156,-243,-94,295,35,-137
2,7433094,-3458,-1651,-979,-157,-245,-84,295,35,-137
2,7433106,-3458,-1651,-979,-157,-245,-84,295,35,-137
2,7433119,-3458,-1649,-976,-155,-244,-83,298,36,-122
2,7433132,-3453,-1649,-978,-160,-248,-87,298,36,-122
2,7433145,-3453,-1649,-978,-160,-248,-87,298,36,-122
2,7433157,-3450,-1649,-978,-159,-239,-85,298,36,-122
2,7433171,-3454,-1648,-975,-163,-245,-97,298,36,-122
2,7433184,-3454,-1648,-975,-163,-245,-97,298,36,-122
2,7433196,-3455,-1649,-976,-160,-243,-86,298,36,-122
2,7433207,-3455,-1649,-976,-160,-243,-86,298,36,-122
2,7433221,-3454,-1650,-980,-160,-247,-82,298,36,-122
2,7433234,-3457,-1649,-981,-168,-247,-81,297,39,-133
2,7433246,-3457,-1649,-981,-168,-247,-81,297,39,-133
2,7433257,-3454,-1649,-979,-162,-244,-80,297,39,-133
2,7433266,-3454,-1649,-979,-162,-244,-80,297,39,-133
2,7433274,-3456,-1648,-982,-162,-243,-83,297,39,-133
2,7433282,-3456,-1648,-982,-162,-243,-83,297,39,-133
2,7433293,-3457,-1649,-977,-162,-245,-87,297,39,-133
2,7433306,-3457,-1649,-977,-162,-245,-87,297,39,-133
2,7433315,-3456,-1650,-979,-162,-246,-90,297,39,-133
2,7433326,-3456,-1650,-979,-162,-246,-90,297,39,-133
2,7433341,-3453,-1650,-976,-163,-245,-90,297,39,-133
2,7433356,-3453,-1650,-980,-158,-244,-83,297,39,-133
2,7433365,-3453,-1650,-980,-158,-244,-83,297,39,-133
2,7433377,-3453,-1651,-975,-162,-243,-90,292,38,-134
2,7433392,-3453,-1648,-981,-165,-239,-78,292,38,-134
2,7433406,-3453,-1648,-981,-165,-239,-78,292,38,-134
2,7433415,-3451,-1648,-980,-160,-239,-87,292,38,-134
2,7433428,-3451,-1648,-980,-160,-239,-87,292,38,-134
2,7433440,-3455,-1648,-986,-163,-242,-89,292,38,-134
2,7433448,-3455,-1648,-986,-163,-242,-89,292,38,-134
2,7433454,-3453,-1646,-981,-161,-244,-84,292,38,-134
2,7433460,-3453,-1646,-981,-161,-244,-84,292,38,-134
2,7433467,-3453,-1646,-981,-161,-244,-84,292,38,-134
2,7433476,-3458,-1650,-977,-158,-241,-89,292,38,-134
2,7433483,-3458,-1650,-977,-158,-241,-89,292,38,-134
2,7433490,-3457,-1650,-974,-158,-237,-91,301,39,-135
2,7433497,-3457,-1650,-974,-158,-237,-91,301,39,-135
2,7433504,-3457,-1650,-974,-158,-237,-91,301,39,-135
2,7433511,-3452,-1649,-976,-159,-237,-88,301,39,-135
2,7433521,-3452,-1649,-976,-159,-237,-88,301,39,-135
2,7433527,-3452,-1649,-976,-159,-237,-88,301,39,-135
2,7433533,-3450,-1648,-983,-162,-243,-80,301,39,-135
2,7433540,-3450,-1648,-983,-162,-243,-80,301,39,-135
2,7433546,-3450,-1648,-983,-162,-243,-80,301,39,-135
2,7433554,-3454,-1649,-983,-161,-247,-76,301,39,-135
2,7433562,-3454,-1649,-983,-161,-247,-76,301,39,-135
2,7433570,-3453,-1650,-979,-160,-246,-78,301,39,-135
2,7433577,-3453,-1650,-979,-160,-246,-78,301,39,-135
2,7433583,-3453,-1650,-979,-160,-246,-78,301,39,-135
2,7433589,-3453,-1649,-981,-152,-244,-88,301,39,-135
2,7433596,-3453,-1649,-981,-152,-244,-88,301,39,-135
2,7433603,-3453,-1649,-981,-152,-244,-88,301,39,-135
2,7433608,-3453,-1649,-981,-152,-244,-88,301,39,-135
2,7433613,-3451,-1649,-977,-163,-229,-87,305,31,-131
2,7433621,-3451,-1649,-977,-163,-229,-87,305,31,-131
2,7433628,-3451,-1649,-977,-163,-229,-87,305,31,-131
2,7433634,-3454,-1649,-977,-159,-233,-83,305,31,-131
2,7433641,-3454,-1649,-977,-159,-233,-83,305,31,-131
2,7433649,-3455,-1646,-979,-160,-242,-85,305,31,-131
2,7433654,-3455,-1646,-979,-160,-242,-85,305,31,-131
2,7433659,-3455,-1646,-979,-160,-242,-85,305,31,-131
2,7433664,-3455,-1646,-979,-160,-242,-85,305,31,-131
2,7433669,-3456,-1649,-979,-163,-241,-80,305,31,-131
2,7433674,-3456,-1649,-979,-163,-241,-80,305,31,-131
2,7433680,-3456,-1649,-979,-163,-241,-80,305,31,-131
2,7433686,-3456,-1649,-979,-163,-241,-80,305,31,-131
2,7433694,-3454,-1646,-981,-162,-239,-80,305,31,-131
2,7433700,-3454,-1646,-981,-162,-239,-80,305,31,-131
2,7433705,-3454,-1646,-981,-162,-239,-80,305,31,-131
2,7433710,-3451,-1650,-981,-161,-246,-81,305,31,-131
2,7433715,-3451,-1650,-981,-161,-246,-81,305,31,-131
2,7433720,-3451,-1650,-981,-161,-246,-81,305,31,-131
2,7433725,-3451,-1650,-981,-161,-246,-81,305,31,-131
2,7433731,-3453,-1644,-978,-160,-242,-86,297,43,-133
2,7433739,-3453,-1644,-978,-160,-242,-86,297,43,-133
2,7433746,-3453,-1644,-978,-160,-242,-86,297,43,-133
2,7433753,-3450,-1651,-977,-162,-240,-90,297,43,-133
2,7433759,-3450,-1651,-977,-162,-240,-90,297,43,-133
2,7433764,-3450,-1651,-977,-162,-240,-90,297,43,-133
2,7433772,-3455,-1649,-979,-160,-242,-87,297,43,-133
2,7433780,-3455,-1649,-979,-160,-242,-87,297,43,-133
2,7433788,-3455,-1649,-979,-160,-242,-87,297,43,-133
2,7433796,-3449,-1647,-980,-158,-238,-86,297,43,-133
2,7433803,-3449,-1647,-980,-158,-238,-86,297,43,-133
2,7433810,-3452,-1650,-979,-164,-238,-82,297,43,-133
2,7433817,-3452,-1650,-979,-164,-238,-82,297,43,-133
2,7433822,-3452,-1650,-979,-164,-238,-82,297,43,-133
2,7433827,-3452,-1650,-979,-164,-238,-82,297,43,-133
2,7433832,-3453,-1649,-981,-157,-252,-93,297,43,-133
2,7433840,-3453,-1649,-981,-157,-252,-93,297,43,-133
2,7433849,-3453,-1649,-981,-157,-252,-93,297,43,-133
2,7433857,-3451,-1651,-977,-162,-240,-85,295,35,-133
2,7433863,-3451,-1651,-977,-162,-240,-85,295,35,-133
2,7433870,-3453,-1648,-976,-166,-241,-86,295,35,-133
2,7433877,-3453,-1648,-976,-166,-241,-86,295,35,-133
2,7433882,-3453,-1648,-976,-166,-241,-86,295,35,-133
2,7433889,-3452,-1647,-977,-161,-240,-84,295,35,-133
2,7433896,-3452,-1647,-977,-161,-240,-84,295,35,-133
2,7433905,-3452,-1647,-977,-161,-240,-84,295,35,-133
2,7433913,-3457,-1650,-981,-167,-242,-89,295,35,-133
2,7433920,-3457,-1650,-981,-167,-242,-89,295,35,-133
2,7433927,-3457,-1650,-981,-167,-242,-89,295,35,-133
2,7433933,-3453,-1647,-980,-162,-240,-81,295,35,-133
2,7433939,-3453,-1647,-980,-162,-240,-81,295,35,-133
2,7433946,-3453,-1647,-980,-162,-240,-81,295,35,-133
2,7433952,-3451,-1648,-980,-161,-243,-85,295,35,-133
2,7433960,-3451,-1648,-980,-161,-243,-85,295,35,-133
2,7433967,-3451,-1648,-980,-161,-243,-85,295,35,-133
2,7433975,-3451,-1649,-981,-163,-231,-78,295,35,-133
2,7433981,-3451,-1649,-981,-163,-231,-78,295,35,-133
2,7433990,-3449,-1647,-974,-168,-241,-83,297,41,-133
2,7433998,-3449,-1647,-974,-168,-241,-83,297,41,-133
2,7434006,-3449,-1647,-974,-168,-241,-83,297,41,-133
2,7434014,-3453,-1647,-982,-162,-241,-90,297,41,-133
2,7434021,-3453,-1647,-982,-162,-241,-90,297,41,-133
2,7434030,-3453,-1647,-982,-162,-241,-90,297,41,-133
2,7434039,-3450,-1646,-980,-164,-237,-91,297,41,-133
2,7434050,-3455,-1647,-976,-164,-242,-89,297,41,-133
2,7434060,-3455,-1647,-976,-164,-242,-89,297,41,-133
2,7434073,-3456,-1648,-981,-164,-244,-84,297,41,-133
2,7434086,-3456,-1648,-981,-164,-244,-84,297,41,-133
2,7434099,-3452,-1649,-979,-162,-239,-85,297,41,-133
2,7434108,-3452,-1649,-979,-162,-239,-85,297,41,-133
2,7434122,-3452,-1649,-982,-165,-244,-86,291,41,-127
2,7434135,-3450,-1650,-979,-162,-237,-83,291,41,-127
2,7434148,-3450,-1650,-979,-162,-237,-83,291,41,-127
2,7434158,-3449,-1648,-986,-164,-236,-79,291,41,-127
2,7434169,-3449,-1648,-986,-164,-236,-79,291,41,-127
2,7434182,-3447,-1647,-983,-161,-233,-75,291,41,-127
2,7434192,-3452,-1649,-979,-161,-242,-85,291,41,-127
2,7434203,-3452,-1649,-979,-161,-242,-85,291,41,-127
2,7434216,-3453,-1648,-981,-159,-242,-89,291,41,-127
2,7434229,-3453,-1648,-981,-159,-242,-89,291,41,-127
2,7434243,-3454,-1646,-980,-159,-242,-87,294,42,-132
2,7434253,-3453,-1645,-982,-161,-240,-80,294,42,-132
2,7434266,-3453,-1645,-982,-161,-240,-80,294,42,-132
2,7434275,-3451,-1648,-981,-165,-246,-89,294,42,-132
2,7434289,-3451,-1648,-981,-165,-246,-89,294,42,-132
2,7434301,-3451,-1646,-981,-159,-246,-95,294,42,-132
2,7434315,-3449,-1647,-985,-158,-241,-81,294,42,-132
2,7434324,-3449,-1647,-985,-158,-241,-81,294,42,-132
2,7434336,-3448,-1644,-982,-154,-241,-87,294,42,-132
2,7434344,-3448,-1644,-982,-154,-241,-87,294,42,-132
2,7434353,-3450,-1647,-976,-157,-240,-82,300,42,-128
2,7434361,-3450,-1647,-976,-157,-240,-82,300,42,-128
2,7434370,-3452,-1647,-979,-151,-245,-83,300,42,-128
2,7434379,-3452,-1647,-979,-151,-245,-83,300,42,-128
2,7434390,-3454,-1648,-980,-152,-247,-81,300,42,-128
2,7434402,-3454,-1648,-980,-152,-247,-81,300,42,-128
2,7434417,-3455,-1647,-980,-163,-239,-88,300,42,-128
2,7434427,-3455,-1647,-980,-163,-239,-88,300,42,-128
2,7434439,-3453,-1649,-985,-161,-238,-88,300,42,-128
2,7434451,-3453,-1649,-982,-162,-244,-90,300,42,-128
2,7434466,-3453,-1649,-982,-162,-244,-90,300,42,-128
2,7434478,-3450,-1648,-976,-153,-236,-86,293,43,-139
2,7434487,-3450,-1648,-976,-153,-236,-86,293,43,-139
2,7434501,-3453,-1648,-980,-157,-245,-85,293,43,-139
2,7434514,-3452,-1644,-987,-162,-240,-83,293,43,-139
2,7434526,-3452,-1644,-987,-162,-240,-83,293,43,-139
2,7434537,-3448,-1652,-977,-160,-236,-83,293,43,-139
2,7434550,-3448,-1652,-977,-160,-236,-83,293,43,-139
2,7434564,-3450,-1648,-982,-160,-246,-82,293,43,-139
2,7434577,-3450,-1647,-979,-159,-245,-76,293,43,-139
2,7434588,-3450,-1647,-979,-159,-245,-76,293,43,-139
2,7434601,-3454,-1649,-980,-161,-238,-74,293,43,-139
2,7434615,-3452,-1645,-982,-161,-241,-82,291,37,-123
2,7434629,-3452,-1645,-982,-161,-241,-82,291,37,-123
2,7434638,-3453,-1648,-981,-159,-243,-89,291,37,-123
2,7434651,-3455,-1648,-985,-159,-237,-97,291,37,-123
2,7434658,-3455,-1648,-985,-159,-237,-97,291,37,-123
2,7434667,-3455,-1648,-985,-159,-237,-97,291,37,-123
2,7434674,-3455,-1648,-985,-159,-237,-97,291,37,-123
2,7434682,-3455,-1648,-985,-159,-237,-97,291,37,-123
2,7434692,-3451,-1647,-982,-166,-238,-93,291,37,-123
2,7434701,-3451,-1647,-982,-166,-238,-93,291,37,-123
2,7434710,-3451,-1647,-982,-166,-238,-93,291,37,-123
2,7434718,-3451,-1649,-980,-162,-239,-83,291,37,-123
2,7434726,-3451,-1649,-980,-162,-239,-83,291,37,-123
2,7434734,-3444,-1649,-978,-156,-238,-93,305,43,-131
2,7434742,-3444,-1649,-978,-156,-238,-93,305,43,-131
2,7434750,-3448,-1649,-980,-160,-234,-93,305,43,-131
2,7434759,-3448,-1649,-980,-160,-234,-93,305,43,-131
2,7434767,-3448,-1649,-980,-160,-234,-93,305,43,-131
2,7434775,-3451,-1647,-984,-167,-239,-85,305,43,-131
2,7434782,-3451,-1647,-984,-167,-239,-85,305,43,-131
2,7434790,-3452,-1645,-977,-161,-233,-77,305,43,-131
2,7434799,-3452,-1645,-977,-161,-233,-77,305,43,-131
2,7434807,-3452,-1645,-977,-161,-233,-77,305,43,-131
2,7434815,-3456,-1645,-979,-158,-236,-72,305,43,-131
2,7434825,-3456,-1645,-979,-158,-236,-72,305,43,-131
2,7434834,-3455,-1646,-979,-159,-244,-80,305,43,-131
2,7434849,-3455,-1646,-979,-159,-244,-80,305,43,-131
2,7434857,-3455,-1647,-980,-159,-241,-83,299,41,-131
2,7434869,-3455,-1647,-980,-159,-241,-83,299,41,-131
2,7434883,-3452,-1646,-975,-158,-245,-89,299,41,-131
2,7434896,-3452,-1647,-982,-164,-245,-90,299,41,-131
2,7434906,-3452,-1647,-982,-164,-245,-90,299,41,-131
2,7434916,-3451,-1645,-979,-160,-241,-88,299,41,-131
2,7434930,-3451,-1645,-979,-160,-241,-88,299,41,-131
2,7434942,-3447,-1649,-979,-166,-233,-84,299,41,-131
2,7434954,-3452,-1648,-982,-168,-232,-82,299,41,-131
2,7434968,-3452,-1648,-982,-168,-232,-82,299,41,-131
2,7434978,-3453,-1650,-981,-162,-238,-85,297,39,-125
2,7434986,-3453,-1650,-981,-162,-238,-85,297,39,-125
2,7434994,-3457,-1648,-981,-160,-234,-87,297,39,-125
2,7435002,-3457,-1648,-981,-160,-234,-87,297,39,-125
2,7435011,-3455,-1653,-977,-159,-237,-83,297,39,-125
2,7435022,-3455,-1653,-977,-159,-237,-83,297,39,-125
2,7435034,-3455,-1649,-982,-163,-241,-82,297,39,-125
2,7435047,-3455,-1649,-982,-163,-241,-82,297,39,-125
2,7435060,-3450,-1648,-980,-159,-245,-82,297,39,-125
2,7435072,-3450,-1646,-981,-154,-246,-79,297,39,-125
2,7435084,-3450,-1646,-981,-154,-246,-79,297,39,-125
2,7435098,-3456,-1647,-979,-155,-240,-81,297,35,-133
2,7435110,-3456,-1647,-979,-155,-240,-81,297,35,-133
2,7435123,-3451,-1650,-975,-158,-236,-78,297,35,-133
2,7435137,-3457,-1648,-970,-160,-246,-85,297,35,-133
2,7435149,-3457,-1648,-970,-160,-246,-85,297,35,-133
2,7435161,-3453,-1646,-982,-164,-242,-85,297,35,-133
2,7435173,-3453,-1646,-978,-155,-243,-85,297,35,-133
2,7435188,-3453,-1646,-978,-155,-243,-85,297,35,-133
2,7435200,-3454,-1647,-983,-162,-235,-85,297,35,-133
2,7435208,-3454,-1647,-983,-162,-235,-85,297,35,-133
2,7435220,-3455,-1652,-981,-169,-240,-81,297,35,-133
2,7435235,-3458,-1649,-975,-162,-238,-81,296,36,-130
2,7435244,-3458,-1649,-975,-162,-238,-81,296,36,-130
2,7435255,-3455,-1647,-980,-161,-233,-83,296,36,-130
2,7435270,-3455,-1647,-980,-161,-233,-83,296,36,-130
2,7435284,-3455,-1647,-981,-153,-243,-77,296,36,-130
2,7435292,-3455,-1649,-978,-157,-242,-83,296,36,-130
2,7435304,-3455,-1649,-978,-157,-242,-83,296,36,-130
2,7435319,-3454,-1647,-980,-156,-238,-81,296,36,-130
2,7435332,-3451,-1649,-982,-160,-236,-83,296,36,-130
2,7435341,-3451,-1649,-982,-160,-236,-83,296,36,-130
2,7435355,-3455,-1647,-969,-167,-240,-77,300,44,-134
2,7435367,-3455,-1647,-969,-167,-240,-77,300,44,-134
2,7435380,-3454,-1645,-980,-166,-241,-84,300,44,-134
2,7435390,-3454,-1647,-976,-158,-240,-89,300,44,-134
2,7435403,-3454,-1647,-976,-158,-240,-89,300,44,-134
2,7435413,-3458,-1652,-978,-161,-248,-88,300,44,-134
2,7435425,-3458,-1652,-978,-161,-248,-88,300,44,-134
2,7435440,-3456,-1647,-976,-160,-242,-87,300,44,-134
2,7435453,-3453,-1649,-978,-160,-241,-78,300,44,-134
2,7435462,-3453,-1649,-978,-160,-241,-78,300,44,-134
2,7435473,-3454,-1647,-978,-160,-241,-81,298,40,-128
2,7435487,-3454,-1647,-978,-160,-241,-81,298,40,-128
2,7435501,-3456,-1645,-980,-163,-242,-87,298,40,-128
2,7435512,-3456,-1647,-974,-158,-241,-86,298,40,-128
2,7435525,-3456,-1647,-974,-158,-241,-86,298,40,-128
2,7435537,-3458,-1648,-982,-159,-240,-81,298,40,-128
2,7435550,-3458,-1648,-982,-159,-240,-81,298,40,-128
2,7435563,-3459,-1652,-983,-159,-240,-84,298,40,-128
2,7435575,-3457,-1649,-976,-154,-239,-86,298,40,-128
2,7435586,-3457,-1649,-976,-154,-239,-86,298,40,-128
2,7435599,-3459,-1651,-974,-157,-238,-83,290,34,-132
2,7435609,-3459,-1651,-974,-157,-238,-83,290,34,-132
2,7435617,-3458,-1649,-976,-156,-232,-86,290,34,-132
2,7435625,-3458,-1649,-976,-156,-232,-86,290,34,-132
2,7435631,-3458,-1648,-975,-156,-238,-91,290,34,-132
2,7435639,-3458,-1648,-975,-156,-238,-91,290,34,-132
2,7435649,-3458,-1648,-975,-156,-238,-91,290,34,-132
2,7435657,-3451,-1646,-975,-161,-233,-84,290,34,-132
2,7435664,-3451,-1646,-975,-161,-233,-84,290,34,-132
2,7435672,-3454,-1645,-977,-161,-245,-82,290,34,-132
2,7435679,-3454,-1645,-977,-161,-245,-82,290,34,-132
2,7435693,-3458,-1648,-975,-161,-243,-86,290,34,-132
2,7435702,-3458,-1648,-975,-161,-243,-86,290,34,-132
2,7435711,-3458,-1648,-975,-161,-243,-86,290,34,-132
2,7435719,-3455,-1653,-975,-156,-240,-90,298,42,-126
2,7435726,-3455,-1653,-975,-156,-240,-90,298,42,-126
2,7435735,-3458,-1649,-979,-158,-232,-92,298,42,-126
2,7435743,-3458,-1649,-979,-158,-232,-92,298,42,-126
2,7435748,-3458,-1649,-979,-158,-232,-92,298,42,-126
2,7435754,-3455,-1648,-976,-160,-235,-83,298,42,-126
2,7435760,-3455,-1648,-976,-160,-235,-83,298,42,-126
2,7435766,-3455,-1648,-976,-160,-235,-83,298,42,-126
2,7435773,-3458,-1648,-983,-157,-242,-87,298,42,-126
2,7435783,-3458,-1648,-983,-157,-242,-87,298,42,-126
2,7435792,-3457,-1648,-979,-162,-242,-80,298,42,-126
2,7435802,-3457,-1648,-979,-162,-242,-80,298,42,-126
2,7435812,-3458,-1649,-982,-166,-238,-90,298,42,-126
2,7435822,-3458,-1649,-982,-166,-238,-90,298,42,-126
2,7435830,-3458,-1649,-982,-166,-238,-90,298,42,-126
2,7435840,-3457,-1647,-983,-163,-240,-89,298,42,-126
2,7435847,-3457,-1647,-983,-163,-240,-89,298,42,-126
2,7435856,-3458,-1648,-975,-159,-244,-82,298,42,-126
2,7435866,-3458,-1648,-975,-159,-244,-82,298,42,-126
2,7435875,-3458,-1647,-974,-160,-245,-83,298,42,-126
2,7435884,-3458,-1647,-974,-160,-245,-83,298,42,-126
2,7435892,-3451,-1647,-979,-161,-248,-86,298,42,-126
2,7435902,-3451,-1647,-979,-161,-248,-86,298,42,-126
2,7435913,-3460,-1649,-975,-155,-246,-81,298,42,-126
2,7435921,-3460,-1649,-975,-155,-246,-81,298,42,-126
2,7435931,-3459,-1647,-978,-163,-241,-88,298,42,-126
2,7435941,-3459,-1647,-978,-163,-241,-88,298,42,-126
2,7435950,-3459,-1647,-978,-163,-241,-88,298,42,-126
2,7435959,-3459,-1647,-978,-158,-239,-87,298,42,-126
2,7435969,-3459,-1647,-978,-158,-239,-87,298,42,-126
2,7435980,-3459,-1647,-977,-162,-242,-83,296,36,-134
2,7435991,-3459,-1647,-977,-162,-242,-83,296,36,-134
2,7436000,-3454,-1646,-976,-153,-241,-85,296,36,-134
2,7436009,-3454,-1646,-976,-153,-241,-85,296,36,-134
2,7436019,-3458,-1648,-975,-161,-233,-88,296,36,-134
2,7436027,-3458,-1648,-975,-161,-233,-88,296,36,-134
2,7436037,-3455,-1649,-975,-161,-238,-85,296,36,-134
2,7436044,-3455,-1649,-975,-161,-238,-85,296,36,-134
2,7436053,-3454,-1650,-981,-161,-246,-89,296,36,-134
2,7436061,-3454,-1650,-981,-161,-246,-89,296,36,-134
2,7436070,-3454,-1650,-981,-161,-246,-89,296,36,-134
2,7436080,-3453,-1647,-980,-157,-232,-87,296,36,-134
2,7436089,-3453,-1647,-980,-157,-232,-87,296,36,-134
2,7436096,-3453,-1648,-977,-162,-237,-83,285,37,-129
2,7436105,-3453,-1648,-977,-162,-237,-83,285,37,-129
2,7436111,-3456,-1649,-976,-162,-240,-86,285,37,-129
2,7436121,-3456,-1649,-976,-162,-240,-86,285,37,-129
2,7436132,-3455,-1647,-983,-162,-245,-95,285,37,-129
2,7436141,-3455,-1647,-983,-162,-245,-95,285,37,-129
2,7436151,-3455,-1647,-983,-162,-245,-95,285,37,-129
2,7436161,-3457,-1643,-973,-159,-236,-84,285,37,-129
2,7436169,-3457,-1643,-973,-159,-236,-84,285,37,-129
2,7436178,-3456,-1647,-978,-159,-238,-88,285,37,-129
2,7436188,-3456,-1647,-978,-159,-238,-88,285,37,-129
2,7436198,-3457,-1647,-980,-158,-242,-80,285,37,-129
2,7436207,-3457,-1647,-980,-158,-242,-80,285,37,-129
2,7436216,-3456,-1648,-973,-159,-241,-82,295,43,-131
2,7436225,-3456,-1648,-973,-159,-241,-82,295,43,-131
2,7436232,-3453,-1650,-981,-158,-241,-87,295,43,-131
2,7436242,-3453,-1650,-981,-158,-241,-87,295,43,-131
2,7436252,-3453,-1650,-980,-161,-239,-88,295,43,-131
2,7436262,-3453,-1650,-980,-161,-239,-88,295,43,-131
2,7436270,-3453,-1650,-980,-161,-239,-88,295,43,-131
2,7436278,-3455,-1647,-981,-164,-245,-89,295,43,-131
2,7436285,-3455,-1647,-981,-164,-245,-89,295,43,-131
2,7436292,-3455,-1647,-981,-164,-245,-89,295,43,-131
2,7436298,-3452,-1649,-984,-163,-250,-88,295,43,-131
2,7436306,-3452,-1649,-984,-163,-250,-88,295,43,-131
2,7436313,-3455,-1648,-982,-162,-243,-90,295,43,-131
2,7436323,-3455,-1648,-982,-162,-243,-90,295,43,-131
2,7436331,-3455,-1648,-982,-162,-243,-90,295,43,-131
2,7436340,-3455,-1646,-978,-166,-242,-85,294,34,-128
2,7436351,-3455,-1648,-983,-162,-245,-84,294,34,-128
2,7436361,-3455,-1648,-983,-162,-245,-84,294,34,-128
2,7436370,-3455,-1648,-983,-162,-245,-84,294,34,-128
2,7436379,-3455,-1647,-977,-166,-245,-88,294,34,-128
2,7436390,-3455,-1647,-977,-166,-245,-88,294,34,-128
2,7436397,-3456,-1648,-979,-162,-247,-87,294,34,-128
2,7436408,-3456,-1648,-979,-162,-247,-87,294,34,-128
2,7436418,-3459,-1651,-976,-154,-244,-74,294,34,-128
2,7436427,-3459,-1651,-976,-154,-244,-74,294,34,-128
2,7436437,-3453,-1650,-977,-162,-238,-82,294,34,-128
2,7436445,-3453,-1650,-977,-162,-238,-82,294,34,-128
2,7436455,-3454,-1648,-978,-160,-245,-84,295,43,-131
2,7436467,-3454,-1648,-978,-160,-245,-84,295,43,-131
2,7436481,-3451,-1647,-976,-157,-243,-89,295,43,-131
2,7436494,-3454,-1647,-983,-147,-243,-85,295,43,-131
2,7436507,-3454,-1647,-983,-147,-243,-85,295,43,-131
2,7436517,-3453,-1647,-981,-161,-243,-85,295,43,-131
2,7436530,-3453,-1647,-981,-161,-243,-85,295,43,-131
2,7436544,-3455,-1649,-980,-159,-246,-86,295,43,-131
2,7436556,-3455,-1646,-977,-160,-244,-82,295,43,-131
2,7436566,-3455,-1646,-977,-160,-244,-82,295,43,-131
2,7436578,-3454,-1646,-984,-161,-246,-84,295,43,-131
2,7436592,-3454,-1646,-984,-161,-246,-84,295,43,-131
2,7436605,-3454,-1644,-976,-158,-240,-89,301,41,-125
2,7436615,-3452,-1649,-977,-163,-235,-87,301,41,-125
2,7436627,-3452,-1649,-977,-163,-235,-87,301,41,-125
2,7436642,-3454,-1647,-981,-154,-241,-83,301,41,-125
2,7436654,-3454,-1647,-981,-156,-240,-87,301,41,-125
2,7436661,-3454,-1647,-981,-156,-240,-87,301,41,-125
2,7436669,-3454,-1647,-981,-156,-240,-87,301,41,-125
2,7436678,-3449,-1648,-981,-159,-237,-87,301,41,-125
2,7436686,-3449,-1648,-981,-159,-237,-87,301,41,-125
2,7436699,-3454,-1645,-983,-159,-242,-80,301,41,-125
2,7436707,-3454,-1645,-983,-159,-242,-80,301,41,-125
2,7436716,-3453,-1646,-978,-168,-246,-80,295,45,-137
2,7436724,-3453,-1646,-978,-168,-246,-80,295,45,-137
2,7436732,-3453,-1646,-978,-168,-246,-80,295,45,-137
2,7436740,-3458,-1649,-983,-168,-246,-82,295,45,-137
2,7436748,-3458,-1649,-983,-168,-246,-82,295,45,-137
2,7436755,-3456,-1645,-981,-162,-250,-85,295,45,-137
2,7436764,-3456,-1645,-981,-162,-250,-85,295,45,-137
2,7436772,-3449,-1646,-978,-151,-248,-85,295,45,-137
2,7436780,-3449,-1646,-978,-151,-248,-85,295,45,-137
2,7436788,-3449,-1646,-978,-151,-248,-85,295,45,-137
2,7436796,-3453,-1647,-982,-163,-240,-81,295,45,-137
2,7436809,-3453,-1647,-982,-163,-240,-81,295,45,-137
2,7436822,-3454,-1650,-988,-163,-248,-82,295,45,-137
2,7436835,-3458,-1648,-980,-162,-249,-84,302,44,-130
2,7436848,-3458,-1648,-980,-162,-249,-84,302,44,-130
2,7436860,-3453,-1645,-979,-160,-242,-82,302,44,-130
2,7436873,-3448,-1648,-981,-162,-243,-86,302,44,-130
2,7436888,-3448,-1648,-981,-162,-243,-86,302,44,-130
2,7436899,-3452,-1646,-979,-157,-243,-81,302,44,-130
2,7436909,-3452,-1646,-979,-157,-243,-81,302,44,-130
2,7436918,-3451,-1647,-983,-160,-243,-86,302,44,-130
2,7436926,-3451,-1647,-983,-160,-243,-86,302,44,-130
2,7436935,-3453,-1647,-988,-163,-241,-81,302,44,-130
2,7436946,-3453,-1647,-988,-163,-241,-81,302,44,-130
2,7436957,-3455,-1649,-981,-162,-247,-79,298,38,-128
2,7436969,-3455,-1649,-981,-162,-247,-79,298,38,-128
2,7436982,-3453,-1649,-981,-164,-242,-87,298,38,-128
2,7436995,-3452,-1648,-983,-160,-240,-83,298,38,-128
2,7437007,-3452,-1648,-983,-160,-240,-83,298,38,-128
2,7437018,-3452,-1648,-984,-166,-240,-83,298,38,-128
2,7437030,-3452,-1648,-984,-166,-240,-83,298,38,-128
2,7437044,-3451,-1647,-978,-168,-239,-85,298,38,-128
2,7437058,-3450,-1647,-984,-165,-243,-72,298,38,-128
2,7437068,-3450,-1647,-984,-165,-243,-72,298,38,-128
2,7437081,-3454,-1649,-980,-161,-249,-82,297,41,-135
2,7437096,-3452,-1646,-981,-157,-245,-83,297,41,-135
2,7437109,-3452,-1646,-981,-157,-245,-83,297,41,-135
2,7437118,-3453,-1647,-982,-160,-240,-84,297,41,-135
2,7437131,-3453,-1647,-982,-160,-240,-84,297,41,-135
2,7437147,-3456,-1649,-981,-157,-246,-81,297,41,-135
2,7437160,-3454,-1648,-985,-162,-246,-85,297,41,-135
2,7437168,-3454,-1648,-985,-162,-246,-85,297,41,-135
2,7437179,-3454,-1649,-977,-160,-244,-88,297,41,-135
2,7437194,-3450,-1649,-981,-163,-241,-88,297,41,-135
2,7437207,-3450,-1649,-981,-163,-241,-88,297,41,-135
2,7437218,-3450,-1646,-983,-165,-241,-82,299,41,-141
2,7437231,-3450,-1646,-983,-165,-241,-82,299,41,-141
2,7437243,-3449,-1650,-982,-164,-245,-87,299,41,-141
2,7437256,-3449,-1648,-985,-163,-247,-77,299,41,-141
2,7437267,-3449,-1648,-985,-163,-247,-77,299,41,-141
2,7437282,-3452,-1647,-982,-168,-241,-75,299,41,-141
2,7437294,-3457,-1647,-987,-166,-245,-86,299,41,-141
2,7437306,-3457,-1647,-987,-166,-245,-86,299,41,-141
2,7437319,-3453,-1648,-983,-157,-246,-86,299,41,-141
2,7437333,-3454,-1649,-981,-160,-239,-82,291,39,-133
2,7437345,-3454,-1649,-981,-160,-239,-82,291,39,-133
2,7437359,-3451,-1651,-984,-157,-242,-86,291,39,-133
2,7437372,-3451,-1651,-984,-157,-242,-86,291,39,-133
2,7437384,-3453,-1649,-984,-156,-239,-83,291,39,-133
2,7437396,-3448,-1648,-985,-164,-240,-82,291,39,-133
2,7437410,-3448,-1648,-985,-164,-240,-82,291,39,-133
2,7437423,-3450,-1648,-983,-162,-235,-78,291,39,-133
2,7437435,-3454,-1648,-984,-161,-244,-80,291,39,-133
2,7437448,-3454,-1648,-984,-161,-244,-80,291,39,-133
2,7437461,-3454,-1650,-980,-166,-249,-86,301,43,-129
2,7437471,-3454,-1650,-980,-166,-249,-86,301,43,-129
2,7437479,-3456,-1648,-981,-159,-244,-80,301,43,-129
2,7437486,-3456,-1648,-981,-159,-244,-80,301,43,-129
2,7437496,-3452,-1646,-984,-168,-243,-84,301,43,-129
2,7437502,-3452,-1646,-984,-168,-243,-84,301,43,-129
2,7437513,-3452,-1648,-984,-166,-247,-84,301,43,-129
2,7437521,-3452,-1648,-984,-166,-247,-84,301,43,-129
2,7437530,-3452,-1648,-984,-166,-247,-84,301,43,-129
2,7437536,-3452,-1648,-984,-166,-247,-84,301,43,-129
2,7437542,-3452,-1648,-984,-166,-247,-84,301,43,-129
2,7437548,-3452,-1648,-984,-166,-247,-84,301,43,-129
2,7437555,-3452,-1649,-984,-159,-245,-82,301,43,-129
2,7437564,-3452,-1649,-984,-159,-245,-82,301,43,-129
2,7437572,-3452,-1649,-984,-159,-245,-82,301,43,-129
2,7437582,-3453,-1645,-980,-161,-242,-89,294,32,-132
2,7437591,-3453,-1645,-980,-161,-242,-89,294,32,-132
2,7437600,-3451,-1646,-977,-162,-240,-93,294,32,-132
2,7437611,-3451,-1646,-977,-162,-240,-93,294,32,-132
2,7437619,-3454,-1649,-982,-163,-238,-78,294,32,-132
2,7437629,-3454,-1649,-982,-163,-238,-78,294,32,-132
2,7437638,-3454,-1649,-984,-170,-246,-77,294,32,-132
2,7437647,-3454,-1649,-984,-170,-246,-77,294,32,-132
2,7437655,-3455,-1650,-986,-161,-242,-80,294,32,-132
2,7437661,-3455,-1650,-986,-161,-242,-80,294,32,-132
2,7437667,-3455,-1650,-986,-161,-242,-80,294,32,-132
2,7437672,-3455,-1650,-986,-161,-242,-80,294,32,-132
2,7437678,-3451,-1646,-981,-154,-238,-81,294,32,-132
2,7437686,-3451,-1646,-981,-154,-238,-81,294,32,-132
2,7437697,-3451,-1646,-986,-152,-236,-84,291,41,-127
2,7437703,-3451,-1646,-986,-152,-236,-84,291,41,-127
2,7437709,-3451,-1646,-986,-152,-236,-84,291,41,-127
2,7437715,-3452,-1646,-981,-154,-238,-87,291,41,-127
2,7437721,-3452,-1646,-981,-154,-238,-87,291,41,-127
2,7437727,-3452,-1646,-981,-154,-238,-87,291,41,-127
2,7437733,-3456,-1648,-979,-161,-238,-84,291,41,-127
2,7437740,-3456,-1648,-979,-161,-238,-84,291,41,-127
2,7437747,-3456,-1648,-979,-161,-238,-84,291,41,-127
2,7437753,-3456,-1649,-987,-162,-237,-92,291,41,-127
2,7437765,-3456,-1649,-987,-162,-237,-92,291,41,-127
2,7437772,-3456,-1649,-987,-162,-237,-92,291,41,-127
2,7437784,-3452,-1652,-983,-155,-236,-89,291,41,-127
2,7437791,-3452,-1652,-983,-155,-236,-89,291,41,-127
2,7437800,-3450,-1650,-985,-163,-242,-82,291,41,-127
2,7437809,-3450,-1650,-985,-163,-242,-82,291,41,-127
2,7437818,-3449,-1648,-982,-162,-241,-78,291,41,-127
2,7437830,-3449,-1648,-982,-162,-241,-78,291,41,-127
2,7437837,-3449,-1649,-980,-151,-240,-78,295,39,-131
2,7437846,-3449,-1649,-980,-151,-240,-78,295,39,-131
2,7437855,-3455,-1646,-980,-160,-240,-80,295,39,-131
2,7437865,-3455,-1646,-980,-160,-240,-80,295,39,-131
2,7437875,-3454,-1648,-979,-160,-235,-87,295,39,-131
2,7437884,-3454,-1648,-979,-160,-235,-87,295,39,-131
2,7437893,-3456,-1648,-985,-169,-242,-88,295,39,-131
2,7437901,-3456,-1648,-985,-169,-242,-88,295,39,-131
2,7437912,-3456,-1648,-985,-169,-242,-88,295,39,-131
2,7437920,-3457,-1650,-983,-166,-242,-85,295,39,-131
2,7437928,-3457,-1650,-983,-166,-242,-85,295,39,-131
2,7437936,-3453,-1651,-982,-164,-240,-85,295,39,-131
