imu,time,ax,ay,az,gx,gy,gz,mx,my,mz
2,9071425,-3456,-1639,-1011,-162,-260,-89,302,54,-138
2,9071429,-3451,-1642,-1003,-167,-262,-90,303,43,-141
2,9071434,-3451,-1642,-1003,-167,-262,-90,303,43,-141
2,9071439,-3451,-1642,-1003,-167,-262,-90,303,43,-141
2,9071444,-3451,-1642,-1003,-167,-262,-90,303,43,-141
2,9071450,-3457,-1641,-1003,-164,-264,-83,303,43,-141
2,9071455,-3457,-1641,-1003,-164,-264,-83,303,43,-141
2,9071461,-3457,-1641,-1003,-164,-264,-83,303,43,-141
2,9071466,-3449,-1645,-996,-161,-260,-86,303,43,-141
2,9071471,-3449,-1645,-996,-161,-260,-86,303,43,-141
2,9071476,-3449,-1645,-996,-161,-260,-86,303,43,-141
2,9071481,-3449,-1645,-996,-161,-260,-86,303,43,-141
2,9071486,-3462,-1642,-1004,-162,-254,-87,303,43,-141
2,9071492,-3462,-1642,-1004,-162,-254,-87,303,43,-141
2,9071497,-3462,-1642,-1004,-162,-254,-87,303,43,-141
2,9071503,-3462,-1642,-1004,-162,-254,-87,303,43,-141
2,9071509,-3454,-1643,-1003,-159,-257,-97,303,43,-141
2,9071514,-3454,-1643,-1003,-159,-257,-97,303,43,-141
2,9071520,-3454,-1643,-1003,-159,-257,-97,303,43,-141
2,9071527,-3461,-1642,-996,-157,-258,-86,303,43,-141
2,9071536,-3461,-1642,-996,-157,-258,-86,303,43,-141
2,9071543,-3461,-1642,-996,-157,-258,-86,303,43,-141
2,9071550,-3453,-1644,-990,-160,-254,-86,306,50,-134
2,9071557,-3453,-1644,-990,-160,-254,-86,306,50,-134
2,9071564,-3453,-1644,-990,-160,-254,-86,306,50,-134
2,9071571,-3451,-1643,-997,-160,-251,-87,306,50,-134
2,9071579,-3451,-1643,-997,-160,-251,-87,306,50,-134
2,9071587,-3455,-1645,-999,-158,-252,-82,306,50,-134
2,9071592,-3455,-1645,-999,-158,-252,-82,306,50,-134
2,9071597,-3455,-1645,-999,-158,-252,-82,306,50,-134
2,9071604,-3455,-1645,-999,-158,-252,-82,306,50,-134
2,9071611,-3452,-1641,-1002,-161,-250,-82,306,50,-134
2,9071619,-3452,-1641,-1002,-161,-250,-82,306,50,-134
2,9071625,-3452,-1641,-1002,-161,-250,-82,306,50,-134
2,9071633,-3456,-1647,-994,-159,-247,-81,306,50,-134
2,9071640,-3456,-1647,-994,-159,-247,-81,306,50,-134
2,9071646,-3454,-1644,-998,-164,-248,-82,306,50,-134
2,9071654,-3454,-1644,-998,-164,-248,-82,306,50,-134
2,9071662,-3454,-1644,-998,-164,-248,-82,306,50,-134
2,9071668,-3456,-1645,-994,-158,-253,-82,301,49,-143
2,9071674,-3456,-1645,-994,-158,-253,-82,301,49,-143
2,9071681,-3456,-1645,-994,-158,-253,-82,301,49,-143
2,9071689,-3456,-1645,-1000,-159,-252,-89,301,49,-143
2,9071695,-3456,-1645,-1000,-159,-252,-89,301,49,-143
2,9071704,-3456,-1645,-1000,-159,-252,-89,301,49,-143
2,9071710,-3450,-1645,-997,-159,-242,-89,301,49,-143
2,9071716,-3450,-1645,-997,-159,-242,-89,301,49,-143
2,9071721,-3450,-1645,-997,-159,-242,-89,301,49,-143
2,9071726,-3454,-1643,-997,-164,-254,-83,301,49,-143
2,9071733,-3454,-1643,-997,-164,-254,-83,301,49,-143
2,9071741,-3454,-1643,-997,-164,-254,-83,301,49,-143
2,9071749,-3452,-1644,-997,-160,-247,-83,301,49,-143
2,9071757,-3452,-1644,-997,-160,-247,-83,301,49,-143
2,9071765,-3452,-1644,-997,-160,-247,-83,301,49,-143
2,9071773,-3457,-1641,-1001,-162,-241,-88,301,49,-143
2,9071781,-3457,-1641,-1001,-162,-241,-88,301,49,-143
2,9071791,-3457,-1641,-1001,-162,-241,-88,304,52,-136
2,9071802,-3457,-1641,-1001,-162,-241,-88,304,52,-136
2,9071809,-3457,-1645,-999,-160,-240,-87,304,52,-136
2,9071818,-3457,-1645,-999,-160,-240,-87,304,52,-136
2,9071826,-3455,-1641,-997,-157,-242,-77,304,52,-136
2,9071837,-3455,-1641,-997,-157,-242,-77,304,52,-136
2,9071844,-3455,-1641,-997,-157,-242,-77,304,52,-136
2,9071854,-3450,-1643,-995,-162,-241,-75,304,52,-136
2,9071865,-3450,-1643,-995,-162,-241,-75,304,52,-136
2,9071874,-3455,-1647,-1002,-161,-240,-80,304,52,-136
2,9071887,-3454,-1653,-946,-158,-247,-79,304,52,-136
2,9071899,-3454,-1653,-946,-158,-247,-79,304,52,-136
2,9071909,-3459,-1650,-991,-165,-249,-80,304,52,-136
2,9071922,-3459,-1650,-991,-165,-249,-80,304,52,-136
2,9071931,-3454,-1649,-964,-165,-243,-75,302,52,-142
2,9071943,-3454,-1649,-964,-165,-243,-75,302,52,-142
2,9071956,-3459,-1641,-1016,-159,-247,-79,302,52,-142
2,9071969,-3450,-1652,-929,-155,-251,-79,302,52,-142
2,9071978,-3450,-1652,-929,-155,-251,-79,302,52,-142
2,9071991,-3458,-1650,-983,-160,-256,-84,302,52,-142
2,9072002,-3458,-1650,-983,-160,-256,-84,302,52,-142
2,9072013,-3444,-1648,-948,-166,-246,-86,302,52,-142
2,9072026,-3454,-1647,-991,-167,-245,-94,302,52,-142
2,9072039,-3454,-1647,-991,-167,-245,-94,302,52,-142
2,9072049,-3455,-1652,-943,-157,-238,-89,305,53,-141
2,9072062,-3455,-1652,-943,-157,-238,-89,305,53,-141
2,9072075,-3457,-1650,-957,-160,-243,-93,305,53,-141
2,9072088,-3450,-1650,-976,-160,-247,-86,305,53,-141
2,9072096,-3450,-1650,-976,-160,-247,-86,305,53,-141
2,9072104,-3450,-1650,-976,-160,-247,-86,305,53,-141
2,9072113,-3454,-1646,-981,-162,-243,-83,305,53,-141
2,9072121,-3454,-1646,-981,-162,-243,-83,305,53,-141
2,9072130,-3452,-1650,-967,-164,-254,-85,305,53,-141
2,9072138,-3452,-1650,-967,-164,-254,-85,305,53,-141
2,9072146,-3452,-1647,-976,-168,-248,-77,305,53,-141
2,9072154,-3452,-1647,-976,-168,-248,-77,305,53,-141
2,9072162,-3452,-1647,-976,-168,-248,-77,305,53,-141
2,9072171,-3449,-1645,-985,-163,-256,-84,302,42,-146
2,9072179,-3449,-1645,-985,-163,-256,-84,302,42,-146
2,9072186,-3452,-1640,-1004,-158,-249,-86,302,42,-146
2,9072195,-3452,-1640,-1004,-158,-249,-86,302,42,-146
2,9072203,-3452,-1640,-1004,-158,-249,-86,302,42,-146
2,9072211,-3453,-1645,-986,-161,-241,-82,302,42,-146
2,9072221,-3453,-1645,-986,-161,-241,-82,302,42,-146
2,9072230,-3458,-1647,-993,-162,-247,-87,302,42,-146
2,9072241,-3458,-1647,-993,-162,-247,-87,302,42,-146
2,9072250,-3451,-1643,-996,-166,-241,-84,302,42,-146
2,9072264,-3451,-1643,-996,-166,-241,-84,302,42,-146
2,9072277,-3456,-1644,-1006,-161,-245,-82,302,42,-146
2,9072290,-3450,-1651,-991,-163,-233,-83,304,50,-136
2,9072303,-3450,-1651,-991,-163,-233,-83,304,50,-136
2,9072314,-3455,-1648,-982,-156,-244,-85,304,50,-136
2,9072327,-3454,-1647,-989,-166,-249,-88,304,50,-136
2,9072340,-3454,-1647,-989,-166,-249,-88,304,50,-136
2,9072353,-3452,-1645,-981,-161,-256,-86,304,50,-136
2,9072362,-3452,-1645,-981,-161,-256,-86,304,50,-136
2,9072369,-3455,-1649,-970,-162,-246,-86,304,50,-136
2,9072378,-3455,-1649,-970,-162,-246,-86,304,50,-136
2,9072387,-3455,-1649,-970,-162,-246,-86,304,50,-136
2,9072395,-3456,-1648,-965,-161,-241,-84,304,50,-136
2,9072406,-3451,-1650,-968,-166,-241,-88,304,50,-136
2,9072418,-3451,-1650,-968,-166,-241,-88,308,46,-138
2,9072427,-3457,-1649,-965,-156,-247,-81,308,46,-138
2,9072438,-3457,-1649,-965,-156,-247,-81,308,46,-138
2,9072450,-3447,-1650,-963,-165,-245,-85,308,46,-138
2,9072461,-3447,-1650,-963,-165,-245,-85,308,46,-138
2,9072472,-3457,-1654,-960,-169,-245,-80,308,46,-138
2,9072481,-3457,-1654,-960,-169,-245,-80,308,46,-138
2,9072489,-3455,-1646,-973,-165,-246,-86,308,46,-138
2,9072498,-3455,-1646,-973,-165,-246,-86,308,46,-138
2,9072509,-3455,-1642,-976,-162,-246,-85,308,46,-138
2,9072522,-3455,-1642,-976,-162,-246,-85,308,46,-138
2,9072533,-3457,-1646,-973,-152,-253,-89,308,46,-138
2,9072545,-3457,-1646,-973,-152,-253,-89,308,46,-138
2,9072560,-3448,-1651,-973,-159,-251,-94,302,48,-144
2,9072572,-3455,-1643,-985,-156,-250,-84,302,48,-144
2,9072585,-3455,-1643,-985,-156,-250,-84,302,48,-144
2,9072599,-3452,-1648,-999,-161,-246,-86,302,48,-144
2,9072612,-3452,-1647,-995,-163,-246,-90,302,48,-144
2,9072625,-3452,-1647,-995,-163,-246,-90,302,48,-144
2,9072638,-3457,-1647,-991,-162,-240,-95,302,48,-144
2,9072652,-3456,-1642,-1002,-165,-240,-80,302,48,-144
2,9072664,-3456,-1642,-1002,-165,-240,-80,302,48,-144
2,9072677,-3461,-1646,-996,-164,-240,-81,304,46,-142
2,9072690,-3448,-1646,-989,-165,-246,-77,304,46,-142
2,9072703,-3448,-1646,-989,-165,-246,-77,304,46,-142
2,9072717,-3454,-1649,-986,-160,-243,-85,304,46,-142
2,9072729,-3449,-1648,-984,-163,-250,-87,304,46,-142
2,9072741,-3449,-1648,-984,-163,-250,-87,304,46,-142
2,9072751,-3454,-1648,-987,-166,-247,-87,304,46,-142
2,9072759,-3454,-1648,-987,-166,-247,-87,304,46,-142
2,9072768,-3454,-1648,-972,-158,-241,-87,304,46,-142
2,9072775,-3454,-1648,-972,-158,-241,-87,304,46,-142
2,9072787,-3454,-1649,-963,-162,-241,-88,302,44,-134
2,9072799,-3454,-1649,-963,-162,-241,-88,302,44,-134
2,9072813,-3455,-1647,-968,-166,-245,-85,302,44,-134
2,9072826,-3455,-1647,-968,-166,-245,-85,302,44,-134
2,9072836,-3457,-1650,-971,-167,-243,-84,302,44,-134
2,9072848,-3453,-1651,-965,-161,-239,-85,302,44,-134
2,9072861,-3453,-1651,-965,-161,-239,-85,302,44,-134
2,9072875,-3449,-1651,-963,-165,-249,-85,302,44,-134
2,9072889,-3454,-1649,-969,-165,-253,-88,302,44,-134
2,9072899,-3454,-1649,-969,-165,-253,-88,302,44,-134
2,9072911,-3455,-1646,-976,-163,-249,-86,310,38,-130
2,9072923,-3455,-1646,-976,-163,-249,-86,310,38,-130
2,9072936,-3455,-1648,-970,-166,-256,-90,310,38,-130
2,9072949,-3457,-1649,-984,-162,-253,-87,310,38,-130
2,9072962,-3457,-1649,-984,-162,-253,-87,310,38,-130
2,9072974,-3446,-1641,-985,-161,-246,-90,310,38,-130
2,9072987,-3446,-1641,-985,-161,-246,-90,310,38,-130
2,9073001,-3454,-1645,-997,-156,-250,-87,310,38,-130
2,9073013,-3450,-1642,-988,-162,-243,-92,310,38,-130
2,9073028,-3456,-1642,-996,-161,-247,-87,309,53,-145
2,9073040,-3456,-1642,-996,-161,-247,-87,309,53,-145
2,9073053,-3455,-1645,-989,-161,-242,-72,309,53,-145
2,9073064,-3455,-1645,-989,-161,-242,-72,309,53,-145
2,9073078,-3455,-1644,-994,-162,-244,-79,309,53,-145
2,9073090,-3458,-1644,-986,-161,-239,-82,309,53,-145
2,9073098,-3458,-1644,-986,-161,-239,-82,309,53,-145
2,9073106,-3458,-1644,-986,-161,-239,-82,309,53,-145
2,9073115,-3450,-1646,-983,-162,-240,-83,309,53,-145
2,9073122,-3450,-1646,-983,-162,-240,-83,309,53,-145
2,9073129,-3452,-1648,-986,-161,-241,-87,309,53,-145
2,9073134,-3452,-1648,-986,-161,-241,-87,309,53,-145
2,9073141,-3452,-1648,-986,-161,-241,-87,309,53,-145
2,9073147,-3449,-1649,-983,-164,-241,-91,309,53,-145
2,9073154,-3449,-1649,-983,-164,-241,-91,309,53,-145
2,9073160,-3449,-1649,-983,-164,-241,-91,309,53,-145
2,9073170,-3451,-1650,-966,-166,-242,-83,305,45,-141
2,9073176,-3451,-1650,-966,-166,-242,-83,305,45,-141
2,9073182,-3451,-1650,-966,-166,-242,-83,305,45,-141
2,9073188,-3456,-1648,-970,-170,-245,-79,305,45,-141
2,9073198,-3456,-1648,-970,-170,-245,-79,305,45,-141
2,9073206,-3456,-1648,-970,-170,-245,-79,305,45,-141
2,9073214,-3450,-1652,-966,-169,-245,-86,305,45,-141
2,9073225,-3450,-1652,-966,-169,-245,-86,305,45,-141
2,9073234,-3459,-1651,-967,-157,-242,-89,305,45,-141
2,9073245,-3459,-1651,-967,-157,-242,-89,305,45,-141
2,9073257,-3450,-1650,-968,-165,-241,-90,305,45,-141
2,9073265,-3450,-1650,-968,-165,-241,-90,305,45,-141
2,9073275,-3454,-1646,-966,-166,-241,-88,305,45,-141
2,9073285,-3454,-1646,-966,-166,-241,-88,305,45,-141
2,9073296,-3451,-1645,-963,-160,-241,-82,305,41,-129
2,9073303,-3451,-1645,-963,-160,-241,-82,305,41,-129
2,9073313,-3452,-1646,-977,-161,-247,-85,305,41,-129
2,9073325,-3452,-1646,-977,-161,-247,-85,305,41,-129
2,9073334,-3455,-1649,-976,-160,-238,-86,305,41,-129
2,9073344,-3455,-1649,-976,-160,-238,-86,305,41,-129
2,9073352,-3453,-1646,-983,-158,-240,-85,305,41,-129
2,9073363,-3453,-1646,-983,-158,-240,-85,305,41,-129
2,9073372,-3457,-1644,-990,-160,-244,-88,305,41,-129
2,9073379,-3457,-1644,-990,-160,-244,-88,305,41,-129
2,9073389,-3450,-1646,-991,-157,-247,-81,305,41,-129
2,9073400,-3450,-1646,-991,-157,-247,-81,305,41,-129
2,9073412,-3450,-1643,-988,-159,-249,-85,302,42,-140
2,9073419,-3450,-1643,-988,-159,-249,-85,302,42,-140
2,9073431,-3454,-1646,-996,-160,-247,-88,302,42,-140
2,9073438,-3454,-1646,-996,-160,-247,-88,302,42,-140
2,9073449,-3452,-1641,-991,-161,-243,-85,302,42,-140
2,9073461,-3452,-1641,-991,-161,-243,-85,302,42,-140
2,9073468,-3455,-1649,-990,-163,-239,-89,302,42,-140
2,9073479,-3455,-1649,-990,-163,-239,-89,302,42,-140
2,9073486,-3455,-1649,-990,-163,-239,-89,302,42,-140
2,9073498,-3451,-1647,-992,-156,-241,-76,302,42,-140
2,9073507,-3451,-1647,-992,-156,-241,-76,302,42,-140
2,9073520,-3458,-1649,-988,-162,-231,-79,302,42,-140
2,9073531,-3452,-1648,-979,-156,-234,-89,301,51,-143
2,9073542,-3452,-1648,-979,-156,-234,-89,301,51,-143
2,9073551,-3452,-1649,-971,-153,-248,-87,301,51,-143
2,9073561,-3452,-1649,-971,-153,-248,-87,301,51,-143
2,9073567,-3452,-1649,-971,-153,-248,-87,301,51,-143
2,9073579,-3453,-1649,-980,-161,-244,-88,301,51,-143
2,9073587,-3453,-1649,-980,-161,-244,-88,301,51,-143
2,9073598,-3450,-1648,-968,-162,-246,-88,301,51,-143
2,9073607,-3458,-1647,-971,-164,-243,-84,301,51,-143
2,9073618,-3458,-1647,-971,-164,-243,-84,301,51,-143
2,9073630,-3453,-1653,-960,-163,-247,-88,301,51,-143
2,9073637,-3453,-1653,-960,-163,-247,-88,301,51,-143
2,9073648,-3457,-1648,-969,-162,-239,-83,294,48,-140
2,9073658,-3457,-1648,-969,-162,-239,-83,294,48,-140
2,9073670,-3448,-1648,-964,-166,-245,-80,294,48,-140
2,9073680,-3448,-1648,-964,-166,-245,-80,294,48,-140
2,9073691,-3450,-1649,-972,-163,-247,-86,294,48,-140
2,9073700,-3450,-1649,-972,-163,-247,-86,294,48,-140
2,9073712,-3446,-1645,-977,-157,-245,-88,294,48,-140
2,9073722,-3446,-1645,-977,-157,-245,-88,294,48,-140
2,9073733,-3450,-1649,-976,-155,-245,-79,294,48,-140
2,9073744,-3450,-1649,-976,-155,-245,-79,294,48,-140
2,9073754,-3454,-1644,-976,-161,-247,-78,294,48,-140
2,9073761,-3454,-1644,-976,-161,-247,-78,294,48,-140
2,9073769,-3458,-1647,-985,-162,-250,-83,294,48,-140
2,9073776,-3458,-1647,-985,-162,-250,-83,294,48,-140
2,9073787,-3459,-1646,-988,-161,-242,-82,303,45,-139
2,9073801,-3459,-1646,-988,-161,-242,-82,303,45,-139
2,9073809,-3454,-1643,-992,-160,-235,-84,303,45,-139
2,9073818,-3454,-1643,-992,-160,-235,-84,303,45,-139
2,9073823,-3454,-1643,-992,-160,-235,-84,303,45,-139
2,9073831,-3452,-1643,-993,-168,-238,-84,303,45,-139
2,9073840,-3452,-1643,-993,-168,-238,-84,303,45,-139
2,9073851,-3452,-1645,-995,-160,-244,-85,303,45,-139
2,9073866,-3452,-1645,-995,-160,-244,-85,303,45,-139
2,9073875,-3451,-1645,-993,-156,-239,-83,303,45,-139
2,9073887,-3451,-1645,-993,-156,-239,-83,303,45,-139
2,9073899,-3454,-1649,-992,-153,-240,-89,303,45,-139
2,9073912,-3452,-1646,-979,-160,-246,-85,300,54,-140
2,9073926,-3452,-1646,-979,-160,-246,-85,300,54,-140
2,9073935,-3456,-1651,-979,-158,-247,-86,300,54,-140
2,9073948,-3453,-1649,-972,-159,-237,-94,300,54,-140
2,9073960,-3453,-1649,-972,-159,-237,-94,300,54,-140
2,9073972,-3452,-1650,-972,-162,-243,-83,300,54,-140
2,9073985,-3452,-1650,-972,-162,-243,-83,300,54,-140
2,9073997,-3452,-1647,-967,-160,-247,-83,300,54,-140
2,9074011,-3449,-1650,-968,-165,-244,-88,300,54,-140
2,9074020,-3449,-1650,-968,-165,-244,-88,300,54,-140
2,9074032,-3450,-1649,-967,-166,-243,-84,306,48,-138
2,9074041,-3450,-1649,-967,-166,-243,-84,306,48,-138
2,9074054,-3452,-1651,-966,-155,-242,-84,306,48,-138
2,9074067,-3452,-1651,-966,-155,-242,-84,306,48,-138
2,9074081,-3455,-1646,-970,-161,-254,-90,306,48,-138
2,9074091,-3455,-1644,-971,-159,-252,-89,306,48,-138
2,9074099,-3455,-1644,-971,-159,-252,-89,306,48,-138
2,9074107,-3455,-1644,-971,-159,-252,-89,306,48,-138
2,9074115,-3453,-1648,-974,-163,-248,-84,306,48,-138
2,9074123,-3453,-1648,-974,-163,-248,-84,306,48,-138
2,9074129,-3455,-1646,-975,-162,-254,-85,306,48,-138
2,9074138,-3455,-1646,-975,-162,-254,-85,306,48,-138
2,9074146,-3455,-1646,-975,-162,-254,-85,306,48,-138
2,9074154,-3449,-1644,-976,-170,-248,-82,299,49,-143
2,9074162,-3449,-1644,-976,-170,-248,-82,299,49,-143
2,9074170,-3455,-1648,-989,-158,-244,-85,299,49,-143
2,9074178,-3455,-1648,-989,-158,-244,-85,299,49,-143
2,9074186,-3455,-1648,-989,-158,-244,-85,299,49,-143
2,9074195,-3451,-1644,-988,-158,-243,-91,299,49,-143
2,9074206,-3451,-1644,-988,-158,-243,-91,299,49,-143
2,9074214,-3455,-1647,-993,-160,-246,-86,299,49,-143
2,9074225,-3455,-1647,-993,-160,-246,-86,299,49,-143
2,9074233,-3456,-1644,-994,-162,-251,-80,299,49,-143
2,9074247,-3456,-1644,-994,-162,-251,-80,299,49,-143
2,9074255,-3450,-1645,-994,-160,-245,-78,299,49,-143
2,9074268,-3450,-1645,-994,-160,-245,-78,299,49,-143
2,9074280,-3453,-1649,-987,-163,-245,-86,302,54,-142
2,9074293,-3450,-1648,-984,-162,-236,-78,302,54,-142
2,9074302,-3450,-1648,-984,-162,-236,-78,302,54,-142
2,9074318,-3450,-1648,-984,-162,-236,-78,302,54,-142
2,9074330,-3454,-1651,-977,-160,-237,-83,302,54,-142
2,9074343,-3454,-1651,-977,-160,-237,-83,302,54,-142
2,9074357,-3454,-1648,-974,-162,-239,-86,302,54,-142
2,9074370,-3458,-1650,-965,-163,-234,-85,302,54,-142
2,9074381,-3458,-1650,-965,-163,-234,-85,302,54,-142
2,9074395,-3450,-1650,-969,-167,-243,-91,300,52,-136
2,9074407,-3450,-1650,-969,-167,-243,-91,300,52,-136
2,9074420,-3454,-1648,-970,-162,-245,-86,300,52,-136
2,9074433,-3449,-1648,-967,-163,-238,-84,300,52,-136
2,9074441,-3449,-1648,-967,-163,-238,-84,300,52,-136
2,9074449,-3451,-1648,-965,-163,-248,-86,300,52,-136
2,9074457,-3451,-1648,-965,-163,-248,-86,300,52,-136
2,9074466,-3451,-1648,-965,-163,-248,-86,300,52,-136
2,9074476,-3452,-1651,-965,-165,-253,-84,300,52,-136
2,9074487,-3452,-1651,-965,-165,-253,-84,300,52,-136
2,9074499,-3453,-1648,-974,-159,-252,-89,300,52,-136
2,9074512,-3460,-1649,-974,-156,-245,-87,300,52,-136
2,9074527,-3460,-1649,-974,-156,-245,-87,300,52,-136
2,9074537,-3455,-1647,-978,-160,-247,-80,299,47,-137
2,9074549,-3453,-1642,-983,-160,-256,-83,299,47,-137
2,9074558,-3453,-1642,-983,-160,-256,-83,299,47,-137
2,9074572,-3449,-1644,-988,-164,-250,-86,299,47,-137
2,9074586,-3449,-1644,-988,-164,-250,-86,299,47,-137
2,9074598,-3451,-1646,-990,-165,-245,-82,299,47,-137
2,9074610,-3450,-1648,-992,-163,-241,-79,299,47,-137
2,9074622,-3450,-1648,-992,-163,-241,-79,299,47,-137
2,9074635,-3451,-1646,-993,-157,-244,-89,299,47,-137
2,9074649,-3451,-1646,-993,-157,-244,-89,299,47,-137
2,9074660,-3457,-1645,-990,-154,-244,-84,299,47,-135
2,9074673,-3455,-1648,-985,-163,-242,-82,299,47,-135
2,9074686,-3455,-1648,-985,-163,-242,-82,299,47,-135
2,9074699,-3458,-1649,-983,-160,-244,-83,299,47,-135
2,9074708,-3458,-1649,-983,-160,-244,-83,299,47,-135
2,9074720,-3452,-1646,-985,-164,-244,-85,299,47,-135
2,9074734,-3453,-1646,-979,-167,-241,-84,299,47,-135
2,9074745,-3453,-1646,-979,-167,-241,-84,299,47,-135
2,9074754,-3458,-1650,-973,-158,-245,-83,299,47,-135
2,9074762,-3458,-1650,-973,-158,-245,-83,299,47,-135
2,9074770,-3450,-1648,-968,-160,-239,-84,295,47,-141
2,9074779,-3450,-1648,-968,-160,-239,-84,295,47,-141
2,9074789,-3456,-1649,-972,-163,-245,-85,295,47,-141
2,9074803,-3456,-1649,-972,-163,-245,-85,295,47,-141
2,9074816,-3450,-1648,-972,-159,-247,-92,295,47,-141
2,9074829,-3453,-1650,-967,-160,-240,-92,295,47,-141
2,9074842,-3453,-1650,-967,-160,-240,-92,295,47,-141
2,9074855,-3453,-1650,-967,-160,-240,-92,295,47,-141
2,9074868,-3453,-1650,-967,-160,-240,-92,295,47,-141
2,9074880,-3450,-1650,-970,-168,-238,-92,295,47,-141
2,9074892,-3455,-1646,-973,-162,-242,-81,306,50,-138
2,9074906,-3455,-1646,-973,-162,-242,-81,306,50,-138
2,9074919,-3452,-1647,-975,-161,-249,-94,306,50,-138
2,9074928,-3452,-1647,-975,-161,-249,-94,306,50,-138
2,9074938,-3459,-1645,-984,-161,-250,-85,306,50,-138
2,9074952,-3450,-1648,-984,-161,-251,-86,306,50,-138
2,9074967,-3450,-1648,-984,-161,-251,-86,306,50,-138
2,9074976,-3450,-1644,-989,-158,-244,-82,306,50,-138
2,9074989,-3455,-1644,-990,-156,-239,-78,306,50,-138
2,9075002,-3455,-1644,-990,-156,-239,-78,306,50,-138
2,9075015,-3448,-1648,-989,-163,-239,-79,305,45,-141
2,9075028,-3448,-1648,-989,-163,-239,-79,305,45,-141
2,9075042,-3454,-1645,-983,-162,-236,-87,305,45,-141
2,9075054,-3453,-1647,-992,-166,-243,-96,305,45,-141
2,9075068,-3453,-1647,-992,-166,-243,-96,305,45,-141
2,9075082,-3456,-1648,-985,-164,-240,-89,305,45,-141
2,9075093,-3452,-1647,-984,-165,-240,-82,305,45,-141
2,9075100,-3452,-1647,-984,-165,-240,-82,305,45,-141
2,9075108,-3454,-1647,-988,-162,-240,-78,305,45,-141
2,9075117,-3454,-1647,-988,-162,-240,-78,305,45,-141
2,9075126,-3454,-1647,-988,-162,-240,-78,305,45,-141
2,9075134,-3456,-1650,-975,-159,-236,-86,305,45,-141
2,9075141,-3456,-1650,-975,-159,-236,-86,305,45,-141
2,9075147,-3456,-1650,-975,-159,-236,-86,305,45,-141
2,9075153,-3453,-1648,-972,-166,-245,-88,302,48,-140
2,9075160,-3453,-1648,-972,-166,-245,-88,302,48,-140
2,9075170,-3453,-1650,-971,-161,-247,-85,302,48,-140
2,9075178,-3453,-1650,-971,-161,-247,-85,302,48,-140
2,9075189,-3449,-1647,-966,-162,-251,-87,302,48,-140
2,9075201,-3449,-1647,-966,-162,-251,-87,302,48,-140
2,9075208,-3449,-1647,-966,-162,-251,-87,302,48,-140
2,9075219,-3452,-1647,-970,-162,-250,-80,302,48,-140
2,9075229,-3452,-1647,-970,-162,-250,-80,302,48,-140
2,9075241,-3452,-1648,-972,-160,-243,-83,302,48,-140
2,9075253,-3451,-1650,-973,-153,-236,-87,302,48,-140
2,9075261,-3451,-1650,-973,-153,-236,-87,302,48,-140
2,9075273,-3453,-1647,-971,-160,-241,-87,308,40,-140
2,9075284,-3453,-1647,-971,-160,-241,-87,308,40,-140
2,9075294,-3450,-1646,-976,-165,-244,-85,308,40,-140
2,9075302,-3450,-1646,-976,-165,-244,-85,308,40,-140
2,9075310,-3450,-1645,-979,-164,-245,-87,308,40,-140
2,9075317,-3450,-1645,-979,-164,-245,-87,308,40,-140
2,9075329,-3450,-1645,-979,-164,-245,-87,308,40,-140
2,9075342,-3454,-1647,-979,-161,-246,-86,308,40,-140
2,9075357,-3453,-1646,-986,-164,-247,-89,308,40,-140
2,9075366,-3453,-1646,-986,-164,-247,-89,308,40,-140
2,9075379,-3455,-1642,-986,-165,-247,-78,308,40,-140
2,9075392,-3451,-1646,-988,-165,-241,-83,297,51,-143
2,9075402,-3451,-1646,-988,-165,-241,-83,297,51,-143
2,9075411,-3453,-1644,-988,-162,-236,-85,297,51,-143
2,9075424,-3453,-1644,-988,-162,-236,-85,297,51,-143
2,9075437,-3449,-1649,-989,-162,-244,-87,297,51,-143
2,9075449,-3457,-1647,-986,-161,-241,-90,297,51,-143
2,9075462,-3457,-1647,-986,-161,-241,-90,297,51,-143
2,9075474,-3455,-1649,-989,-164,-240,-78,297,51,-143
2,9075483,-3455,-1649,-989,-164,-240,-78,297,51,-143
2,9075496,-3454,-1646,-979,-166,-246,-88,297,51,-143
2,9075509,-3454,-1646,-979,-166,-246,-88,297,51,-143
2,9075523,-3455,-1647,-978,-164,-239,-85,312,42,-132
2,9075532,-3451,-1649,-980,-171,-247,-84,312,42,-132
2,9075545,-3451,-1649,-980,-171,-247,-84,312,42,-132
2,9075558,-3455,-1648,-973,-166,-245,-77,312,42,-132
2,9075571,-3446,-1650,-967,-163,-245,-88,312,42,-132
2,9075580,-3446,-1650,-967,-163,-245,-88,312,42,-132
2,9075593,-3451,-1653,-971,-164,-248,-87,312,42,-132
2,9075606,-3451,-1653,-971,-164,-248,-87,312,42,-132
2,9075615,-3455,-1651,-970,-159,-252,-91,312,42,-132
2,9075628,-3455,-1651,-970,-159,-252,-91,312,42,-132
2,9075634,-3455,-1648,-969,-163,-252,-87,305,51,-137
2,9075642,-3455,-1648,-969,-163,-252,-87,305,51,-137
2,9075655,-3459,-1651,-969,-164,-252,-89,305,51,-137
2,9075667,-3459,-1651,-969,-164,-252,-89,305,51,-137
2,9075679,-3448,-1646,-973,-168,-262,-83,305,51,-137
2,9075691,-3454,-1647,-976,-167,-249,-87,305,51,-137
2,9075700,-3454,-1647,-976,-167,-249,-87,305,51,-137
2,9075714,-3451,-1644,-978,-161,-247,-83,305,51,-137
2,9075727,-3451,-1644,-978,-161,-247,-83,305,51,-137
2,9075741,-3454,-1647,-985,-161,-247,-85,305,51,-137
2,9075750,-3457,-1645,-985,-163,-248,-87,305,51,-137
2,9075759,-3457,-1645,-985,-163,-248,-87,305,51,-137
2,9075766,-3457,-1645,-985,-163,-248,-87,305,51,-137
2,9075774,-3455,-1647,-988,-164,-248,-88,303,55,-141
2,9075782,-3455,-1647,-988,-164,-248,-88,303,55,-141
2,9075791,-3457,-1648,-987,-163,-253,-87,303,55,-141
2,9075799,-3457,-1648,-987,-163,-253,-87,303,55,-141
2,9075809,-3457,-1648,-987,-163,-253,-87,303,55,-141
2,9075818,-3454,-1644,-985,-169,-244,-87,303,55,-141
2,9075826,-3454,-1644,-985,-169,-244,-87,303,55,-141
2,9075835,-3457,-1645,-988,-168,-244,-80,303,55,-141
2,9075845,-3457,-1645,-988,-168,-244,-80,303,55,-141
2,9075851,-3449,-1646,-991,-159,-236,-81,303,55,-141
2,9075856,-3449,-1646,-991,-159,-236,-81,303,55,-141
2,9075862,-3449,-1646,-991,-159,-236,-81,303,55,-141
2,9075870,-3451,-1648,-986,-162,-246,-89,303,55,-141
2,9075877,-3451,-1648,-986,-162,-246,-89,303,55,-141
2,9075888,-3451,-1648,-986,-162,-246,-89,303,55,-141
2,9075895,-3451,-1645,-981,-165,-245,-86,293,51,-137
2,9075904,-3451,-1645,-981,-165,-245,-86,293,51,-137
2,9075912,-3454,-1647,-977,-164,-240,-78,293,51,-137
2,9075921,-3454,-1647,-977,-164,-240,-78,293,51,-137
2,9075931,-3459,-1648,-979,-164,-237,-84,293,51,-137
2,9075941,-3459,-1648,-979,-164,-237,-84,293,51,-137
2,9075948,-3459,-1648,-979,-164,-237,-84,293,51,-137
2,9075958,-3450,-1651,-969,-167,-245,-81,293,51,-137
2,9075965,-3450,-1651,-969,-167,-245,-81,293,51,-137
2,9075974,-3451,-1650,-976,-158,-235,-87,293,51,-137
2,9075983,-3451,-1650,-976,-158,-235,-87,293,51,-137
2,9075992,-3449,-1649,-971,-165,-243,-85,293,51,-137
2,9075998,-3449,-1649,-971,-165,-243,-85,293,51,-137
2,9076007,-3449,-1649,-971,-165,-243,-85,293,51,-137
2,9076014,-3451,-1650,-965,-163,-245,-80,301,41,-139
2,9076024,-3451,-1650,-965,-163,-245,-80,301,41,-139
2,9076030,-3455,-1650,-974,-166,-247,-81,301,41,-139
2,9076039,-3455,-1650,-974,-166,-247,-81,301,41,-139
2,9076047,-3455,-1650,-974,-166,-247,-81,301,41,-139
2,9076057,-3454,-1650,-972,-165,-250,-79,301,41,-139
2,9076063,-3454,-1650,-972,-165,-250,-79,301,41,-139
2,9076072,-3456,-1647,-979,-159,-246,-82,301,41,-139
2,9076082,-3456,-1647,-979,-159,-246,-82,301,41,-139
2,9076091,-3450,-1648,-979,-161,-245,-79,301,41,-139
2,9076098,-3450,-1648,-979,-161,-245,-79,301,41,-139
2,9076103,-3450,-1648,-979,-161,-245,-79,301,41,-139
2,9076109,-3450,-1648,-979,-161,-245,-79,301,41,-139
2,9076115,-3455,-1644,-981,-159,-249,-79,301,41,-139
2,9076120,-3455,-1644,-981,-159,-249,-79,301,41,-139
2,9076126,-3455,-1644,-981,-159,-249,-79,301,41,-139
2,9076131,-3453,-1646,-983,-168,-246,-75,301,45,-141
2,9076137,-3453,-1646,-983,-168,-246,-75,301,45,-141
2,9076144,-3453,-1646,-983,-168,-246,-75,301,45,-141
2,9076151,-3451,-1643,-985,-167,-243,-76,301,45,-141
2,9076162,-3451,-1643,-985,-167,-243,-76,301,45,-141
2,9076174,-3455,-1646,-987,-159,-245,-77,301,45,-141
2,9076188,-3455,-1646,-987,-159,-245,-77,301,45,-141
2,9076201,-3452,-1644,-992,-163,-239,-77,301,45,-141
2,9076213,-3457,-1648,-993,-173,-252,-85,301,45,-141
2,9076226,-3457,-1648,-993,-173,-252,-85,301,45,-141
2,9076239,-3457,-1648,-991,-163,-249,-86,301,45,-141
2,9076251,-3454,-1647,-984,-160,-241,-89,307,53,-141
2,9076263,-3454,-1647,-984,-160,-241,-89,307,53,-141
2,9076276,-3451,-1650,-986,-155,-243,-91,307,53,-141
2,9076289,-3451,-1650,-986,-155,-243,-91,307,53,-141
2,9076302,-3449,-1649,-983,-166,-245,-81,307,53,-141
2,9076316,-3453,-1650,-982,-165,-246,-87,307,53,-141
2,9076329,-3453,-1650,-982,-165,-246,-87,307,53,-141
2,9076341,-3452,-1649,-977,-167,-243,-85,307,53,-141
2,9076354,-3457,-1651,-977,-169,-243,-80,307,53,-141
2,9076364,-3457,-1651,-977,-169,-243,-80,307,53,-141
2,9076378,-3453,-1649,-971,-159,-239,-74,307,53,-141
2,9076390,-3455,-1651,-966,-163,-246,-82,308,44,-134
2,9076400,-3455,-1651,-966,-163,-246,-82,308,44,-134
2,9076408,-3455,-1651,-966,-163,-246,-82,308,44,-134
2,9076416,-3452,-1649,-969,-159,-249,-84,308,44,-134
2,9076424,-3452,-1649,-969,-159,-249,-84,308,44,-134
2,9076433,-3452,-1647,-971,-162,-246,-79,308,44,-134
2,9076446,-3452,-1647,-971,-162,-246,-79,308,44,-134
2,9076460,-3453,-1649,-972,-160,-246,-88,308,44,-134
2,9076473,-3451,-1647,-976,-165,-246,-77,308,44,-134
2,9076484,-3451,-1647,-976,-165,-246,-77,308,44,-134
2,9076496,-3455,-1650,-981,-163,-253,-78,308,44,-134
2,9076510,-3455,-1650,-981,-163,-253,-78,308,44,-134
2,9076521,-3450,-1645,-980,-163,-241,-82,303,45,-139
2,9076534,-3450,-1641,-977,-165,-238,-79,303,45,-139
2,9076547,-3450,-1641,-977,-165,-238,-79,303,45,-139
2,9076560,-3455,-1642,-979,-167,-248,-79,303,45,-139
2,9076573,-3448,-1643,-986,-160,-251,-82,303,45,-139
2,9076584,-3448,-1643,-986,-160,-251,-82,303,45,-139
2,9076595,-3456,-1645,-986,-161,-242,-80,303,45,-139
2,9076608,-3456,-1645,-986,-161,-242,-80,303,45,-139
2,9076621,-3455,-1645,-987,-159,-239,-84,303,45,-139
2,9076632,-3455,-1647,-988,-168,-245,-80,306,48,-140
2,9076646,-3455,-1647,-988,-168,-245,-80,306,48,-140
2,9076657,-3456,-1647,-984,-169,-248,-77,306,48,-140
2,9076669,-3456,-1647,-984,-169,-248,-77,306,48,-140
2,9076681,-3452,-1649,-978,-165,-240,-86,306,48,-140
2,9076696,-3455,-1649,-983,-159,-241,-85,306,48,-140
2,9076706,-3455,-1649,-983,-159,-241,-85,306,48,-140
2,9076718,-3452,-1649,-979,-159,-250,-87,306,48,-140
2,9076731,-3448,-1649,-981,-154,-239,-87,306,48,-140
2,9076746,-3448,-1649,-981,-154,-239,-87,306,48,-140
2,9076754,-3456,-1650,-973,-158,-239,-84,308,40,-140
2,9076762,-3456,-1650,-973,-158,-239,-84,308,40,-140
2,9076770,-3456,-1650,-973,-158,-239,-84,308,40,-140
2,9076777,-3453,-1650,-970,-163,-235,-83,308,40,-140
2,9076792,-3457,-1651,-976,-158,-234,-78,308,40,-140
2,9076801,-3457,-1651,-976,-158,-234,-78,308,40,-140
2,9076813,-3450,-1650,-973,-162,-242,-81,308,40,-140
2,9076825,-3450,-1650,-973,-162,-242,-81,308,40,-140
2,9076837,-3455,-1648,-973,-160,-243,-82,308,40,-140
2,9076849,-3455,-1648,-973,-160,-243,-82,308,40,-140
2,9076862,-3453,-1648,-977,-164,-245,-82,308,40,-140
2,9076874,-3451,-1650,-979,-154,-246,-84,300,44,-144
2,9076885,-3451,-1650,-979,-154,-246,-84,300,44,-144
2,9076899,-3454,-1648,-979,-158,-245,-88,300,44,-144
2,9076914,-3451,-1646,-984,-155,-243,-88,300,44,-144
2,9076926,-3451,-1646,-984,-155,-243,-88,300,44,-144
2,9076938,-3454,-1647,-982,-166,-248,-79,300,44,-144
2,9076952,-3453,-1645,-987,-171,-250,-84,300,44,-144
2,9076966,-3453,-1645,-987,-171,-250,-84,300,44,-144
2,9076978,-3456,-1645,-987,-161,-250,-82,300,44,-144
2,9076990,-3456,-1644,-989,-167,-238,-86,300,44,-144
2,9077004,-3456,-1644,-989,-167,-238,-86,302,52,-142
2,9077016,-3450,-1646,-982,-164,-240,-87,302,52,-142
2,9077029,-3450,-1646,-982,-164,-240,-87,302,52,-142
2,9077038,-3455,-1644,-988,-160,-248,-80,302,52,-142
2,9077050,-3455,-1644,-988,-160,-248,-80,302,52,-142
2,9077063,-3448,-1649,-986,-155,-240,-77,302,52,-142
2,9077076,-3458,-1648,-983,-155,-239,-85,302,52,-142
2,9077087,-3458,-1648,-983,-155,-239,-85,302,52,-142
2,9077097,-3455,-1649,-987,-160,-248,-83,302,52,-142
2,9077105,-3455,-1649,-987,-160,-248,-83,302,52,-142
2,9077113,-3453,-1647,-979,-156,-248,-79,302,52,-142
2,9077122,-3453,-1647,-979,-156,-248,-79,302,52,-142
2,9077130,-3453,-1647,-979,-156,-248,-79,302,52,-142
2,9077138,-3457,-1653,-975,-156,-244,-82,304,48,-140
2,9077146,-3457,-1653,-975,-156,-244,-82,304,48,-140
2,9077154,-3453,-1650,-977,-151,-240,-89,304,48,-140
2,9077163,-3453,-1650,-977,-151,-240,-89,304,48,-140
2,9077171,-3453,-1650,-977,-151,-240,-89,304,48,-140
2,9077179,-3454,-1651,-976,-159,-235,-85,304,48,-140
2,9077188,-3454,-1651,-976,-159,-235,-85,304,48,-140
2,9077202,-3451,-1649,-972,-164,-239,-84,304,48,-140
2,9077215,-3454,-1649,-975,-159,-248,-89,304,48,-140
2,9077224,-3454,-1649,-975,-159,-248,-89,304,48,-140
2,9077236,-3458,-1650,-972,-157,-241,-85,304,48,-140
2,9077249,-3458,-1650,-972,-157,-241,-85,304,48,-140
2,9077262,-3450,-1649,-970,-169,-240,-87,303,39,-139
2,9077270,-3450,-1649,-970,-169,-240,-87,303,39,-139
2,9077282,-3458,-1650,-979,-160,-244,-89,303,39,-139
2,9077292,-3450,-1651,-981,-166,-244,-85,303,39,-139
2,9077299,-3450,-1651,-981,-166,-244,-85,303,39,-139
2,9077307,-3450,-1651,-981,-166,-244,-85,303,39,-139
2,9077315,-3454,-1648,-982,-167,-245,-79,303,39,-139
2,9077322,-3454,-1648,-982,-167,-245,-79,303,39,-139
2,9077336,-3456,-1647,-987,-161,-241,-83,303,39,-139
2,9077346,-3456,-1647,-987,-161,-241,-83,303,39,-139
2,9077355,-3454,-1647,-986,-158,-242,-87,303,39,-139
2,9077368,-3454,-1647,-986,-158,-242,-87,303,39,-139
2,9077383,-3456,-1646,-984,-160,-250,-85,302,46,-140
2,9077397,-3453,-1645,-986,-164,-242,-92,302,46,-140
2,9077405,-3453,-1645,-986,-164,-242,-92,302,46,-140
2,9077419,-3456,-1646,-991,-162,-248,-82,302,46,-140
2,9077433,-3453,-1646,-989,-164,-252,-87,302,46,-140
2,9077447,-3453,-1646,-989,-164,-252,-87,302,46,-140
2,9077456,-3451,-1649,-992,-165,-250,-85,302,46,-140
2,9077470,-3451,-1649,-992,-165,-250,-85,302,46,-140
2,9077483,-3454,-1648,-979,-154,-248,-80,302,46,-140
2,9077492,-3454,-1650,-978,-164,-246,-90,313,51,-139
2,9077504,-3454,-1650,-978,-164,-246,-90,313,51,-139
2,9077516,-3453,-1651,-975,-162,-244,-88,313,51,-139
2,9077529,-3453,-1651,-975,-162,-244,-88,313,51,-139
2,9077542,-3453,-1651,-978,-172,-242,-85,313,51,-139
2,9077555,-3458,-1650,-973,-168,-250,-83,313,51,-139
2,9077565,-3458,-1650,-973,-168,-250,-83,313,51,-139
2,9077574,-3458,-1649,-976,-161,-238,-78,313,51,-139
2,9077586,-3458,-1649,-976,-161,-238,-78,313,51,-139
2,9077602,-3452,-1652,-978,-159,-240,-84,313,51,-139
2,9077616,-3455,-1649,-977,-163,-251,-83,295,43,-143
2,9077625,-3455,-1649,-977,-163,-251,-83,295,43,-143
2,9077638,-3450,-1649,-976,-159,-251,-85,295,43,-143
2,9077651,-3451,-1646,-974,-162,-246,-84,295,43,-143
2,9077665,-3451,-1646,-974,-162,-246,-84,295,43,-143
2,9077673,-3454,-1647,-978,-162,-250,-85,295,43,-143
2,9077687,-3454,-1647,-978,-162,-250,-85,295,43,-143
2,9077700,-3455,-1648,-983,-159,-244,-90,295,43,-143
2,9077709,-3455,-1648,-983,-159,-244,-90,295,43,-143
2,9077722,-3454,-1647,-984,-161,-250,-88,295,43,-143
2,9077731,-3454,-1647,-984,-161,-250,-88,295,43,-143
2,9077743,-3451,-1645,-987,-159,-245,-89,295,43,-143
2,9077753,-3456,-1647,-987,-157,-247,-92,298,44,-140
2,9077762,-3456,-1647,-987,-157,-247,-92,298,44,-140
2,9077769,-3456,-1647,-987,-157,-247,-92,298,44,-140
2,9077776,-3452,-1645,-989,-157,-245,-94,298,44,-140
2,9077783,-3452,-1645,-989,-157,-245,-94,298,44,-140
2,9077789,-3452,-1645,-989,-157,-245,-94,298,44,-140
2,9077799,-3456,-1644,-987,-163,-244,-89,298,44,-140
2,9077810,-3456,-1644,-987,-163,-244,-89,298,44,-140
2,9077817,-3451,-1646,-987,-165,-248,-76,298,44,-140
2,9077826,-3451,-1646,-987,-165,-248,-76,298,44,-140
2,9077836,-3453,-1649,-986,-164,-250,-84,298,44,-140
2,9077842,-3453,-1649,-986,-164,-250,-84,298,44,-140
2,9077853,-3454,-1648,-981,-164,-245,-85,298,44,-140
2,9077860,-3454,-1648,-981,-164,-245,-85,298,44,-140
2,9077869,-3454,-1648,-981,-164,-245,-85,298,44,-140
2,9077879,-3450,-1650,-975,-167,-243,-88,307,47,-143
2,9077888,-3450,-1650,-975,-167,-243,-88,307,47,-143
2,9077896,-3455,-1647,-981,-164,-245,-83,307,47,-143
2,9077906,-3455,-1647,-981,-164,-245,-83,307,47,-143
2,9077915,-3453,-1651,-980,-163,-247,-81,307,47,-143
2,9077924,-3453,-1651,-980,-163,-247,-81,307,47,-143
2,9077934,-3451,-1648,-974,-166,-246,-80,307,47,-143
2,9077943,-3451,-1648,-974,-166,-246,-80,307,47,-143
2,9077951,-3451,-1648,-974,-166,-246,-80,307,47,-143
2,9077959,-3457,-1649,-977,-159,-247,-82,307,47,-143
2,9077967,-3457,-1649,-977,-159,-247,-82,307,47,-143
2,9077976,-3454,-1648,-978,-162,-244,-87,307,47,-143
2,9077989,-3454,-1648,-978,-162,-244,-87,307,47,-143
2,9077999,-3455,-1650,-973,-160,-249,-93,303,47,-139
2,9078008,-3455,-1650,-973,-160,-249,-93,303,47,-139
2,9078021,-3448,-1645,-975,-156,-242,-87,303,47,-139
2,9078036,-3450,-1650,-972,-159,-245,-87,303,47,-139
2,9078049,-3450,-1650,-972,-159,-245,-87,303,47,-139
2,9078059,-3451,-1652,-977,-161,-241,-80,303,47,-139
2,9078072,-3451,-1651,-977,-159,-245,-85,303,47,-139
2,9078081,-3451,-1651,-977,-159,-245,-85,303,47,-139
2,9078094,-3454,-1645,-981,-156,-245,-73,303,47,-139
2,9078103,-3454,-1645,-981,-156,-245,-73,303,47,-139
2,9078111,-3454,-1645,-981,-156,-245,-73,303,47,-139
2,9078117,-3455,-1645,-978,-159,-242,-83,302,48,-136
2,9078123,-3455,-1645,-978,-159,-242,-83,302,48,-136
2,9078129,-3455,-1645,-978,-159,-242,-83,302,48,-136
2,9078135,-3458,-1648,-982,-162,-242,-83,302,48,-136
2,9078141,-3458,-1648,-982,-162,-242,-83,302,48,-136
2,9078148,-3458,-1648,-982,-162,-242,-83,302,48,-136
2,9078154,-3453,-1648,-989,-163,-243,-89,302,48,-136
2,9078160,-3453,-1648,-989,-163,-243,-89,302,48,-136
2,9078169,-3453,-1648,-989,-163,-243,-89,302,48,-136
2,9078178,-3450,-1646,-993,-154,-238,-87,302,48,-136
2,9078189,-3450,-1646,-993,-154,-238,-87,302,48,-136
2,9078197,-3453,-1645,-990,-162,-247,-90,302,48,-136
2,9078207,-3453,-1645,-990,-162,-247,-90,302,48,-136
2,9078216,-3450,-1643,-986,-151,-248,-85,302,48,-136
2,9078226,-3450,-1643,-986,-151,-248,-85,302,48,-136
2,9078236,-3455,-1646,-980,-164,-251,-88,306,52,-148
2,9078245,-3455,-1646,-980,-164,-251,-88,306,52,-148
2,9078254,-3452,-1647,-976,-157,-244,-83,306,52,-148
2,9078266,-3452,-1647,-976,-157,-244,-83,306,52,-148
2,9078280,-3456,-1649,-983,-164,-243,-86,306,52,-148
2,9078293,-3453,-1648,-981,-173,-246,-73,306,52,-148
2,9078306,-3453,-1648,-981,-173,-246,-73,306,52,-148
2,9078319,-3451,-1651,-980,-164,-242,-80,306,52,-148
2,9078330,-3451,-1651,-980,-164,-242,-80,306,52,-148
2,9078343,-3457,-1651,-981,-162,-247,-81,306,52,-148
2,9078356,-3453,-1651,-969,-160,-246,-80,306,52,-148
2,9078369,-3453,-1651,-969,-160,-246,-80,306,52,-148
2,9078382,-3455,-1647,-974,-163,-246,-78,298,50,-134
2,9078395,-3456,-1648,-974,-160,-246,-81,298,50,-134
2,9078408,-3456,-1648,-974,-160,-246,-81,298,50,-134
2,9078422,-3456,-1649,-979,-169,-251,-88,298,50,-134
2,9078434,-3453,-1651,-982,-164,-246,-78,298,50,-134
2,9078446,-3453,-1651,-982,-164,-246,-78,298,50,-134
2,9078458,-3451,-1647,-981,-166,-258,-93,298,50,-134
2,9078472,-3455,-1649,-987,-157,-247,-89,298,50,-134
2,9078482,-3455,-1649,-987,-157,-247,-89,298,50,-134
2,9078494,-3454,-1648,-984,-156,-241,-83,305,51,-137
2,9078508,-3454,-1648,-984,-156,-241,-83,305,51,-137
2,9078522,-3458,-1646,-985,-162,-252,-81,305,51,-137
2,9078535,-3455,-1649,-987,-162,-247,-81,305,51,-137
2,9078548,-3455,-1649,-987,-162,-247,-81,305,51,-137
2,9078561,-3452,-1648,-987,-160,-248,-79,305,51,-137
2,9078576,-3455,-1644,-989,-166,-239,-86,305,51,-137
2,9078588,-3455,-1644,-989,-166,-239,-86,305,51,-137
2,9078597,-3453,-1648,-989,-163,-241,-77,305,51,-137
2,9078605,-3453,-1648,-989,-163,-241,-77,305,51,-137
2,9078614,-3453,-1648,-983,-160,-242,-83,302,48,-138
2,9078625,-3453,-1648,-983,-160,-242,-83,302,48,-138
2,9078637,-3454,-1650,-980,-163,-239,-87,302,48,-138
2,9078645,-3454,-1650,-980,-163,-239,-87,302,48,-138
2,9078658,-3456,-1650,-985,-160,-238,-82,302,48,-138
2,9078671,-3456,-1650,-985,-160,-238,-82,302,48,-138
2,9078682,-3457,-1648,-977,-156,-243,-84,302,48,-138
2,9078693,-3454,-1649,-980,-157,-242,-75,302,48,-138
2,9078705,-3454,-1649,-980,-157,-242,-75,302,48,-138
2,9078719,-3458,-1652,-979,-155,-244,-78,302,48,-138
2,9078733,-3452,-1649,-971,-151,-241,-76,301,47,-129
2,9078745,-3452,-1649,-971,-151,-241,-76,301,47,-129
2,9078754,-3457,-1647,-972,-158,-242,-83,301,47,-129
2,9078762,-3457,-1647,-972,-158,-242,-83,301,47,-129
2,9078770,-3457,-1647,-972,-158,-242,-83,301,47,-129
2,9078779,-3456,-1649,-972,-165,-250,-90,301,47,-129
2,9078793,-3451,-1649,-978,-160,-245,-84,301,47,-129
2,9078805,-3451,-1649,-978,-160,-245,-84,301,47,-129
2,9078817,-3458,-1648,-977,-164,-235,-87,301,47,-129
2,9078830,-3458,-1648,-977,-164,-235,-87,301,47,-129
2,9078843,-3449,-1647,-978,-159,-245,-88,301,47,-129
2,9078855,-3455,-1649,-979,-148,-250,-92,304,50,-138
2,9078868,-3455,-1649,-979,-148,-250,-92,304,50,-138
2,9078882,-3452,-1645,-976,-157,-254,-85,304,50,-138
2,9078894,-3452,-1650,-979,-161,-253,-83,304,50,-138
2,9078907,-3452,-1650,-979,-161,-253,-83,304,50,-138
2,9078919,-3457,-1644,-984,-163,-253,-89,304,50,-138
2,9078931,-3457,-1644,-984,-163,-253,-89,304,50,-138
2,9078944,-3452,-1645,-984,-163,-249,-85,304,50,-138
2,9078959,-3455,-1646,-984,-165,-244,-81,304,50,-138
2,9078970,-3455,-1646,-984,-165,-244,-81,304,50,-138
2,9078983,-3451,-1647,-989,-156,-246,-85,304,50,-138
2,9078998,-3453,-1644,-980,-166,-248,-84,303,47,-143
2,9079010,-3453,-1644,-980,-166,-248,-84,303,47,-143
2,9079022,-3455,-1646,-984,-160,-240,-80,303,47,-143
2,9079034,-3451,-1651,-983,-157,-234,-88,303,47,-143
2,9079048,-3451,-1651,-983,-157,-234,-88,303,47,-143
2,9079061,-3456,-1650,-981,-160,-233,-88,303,47,-143
2,9079073,-3452,-1650,-984,-165,-240,-85,303,47,-143
2,9079087,-3452,-1650,-984,-165,-240,-85,303,47,-143
2,9079096,-3453,-1648,-978,-163,-246,-84,303,47,-143
2,9079104,-3453,-1648,-978,-163,-246,-84,303,47,-143
2,9079112,-3455,-1648,-972,-155,-247,-86,303,47,-143
2,9079120,-3455,-1648,-972,-155,-247,-86,304,48,-136
2,9079129,-3455,-1648,-972,-155,-247,-86,304,48,-136
2,9079137,-3454,-1647,-978,-158,-240,-84,304,48,-136
2,9079145,-3454,-1647,-978,-158,-240,-84,304,48,-136
2,9079153,-3456,-1652,-980,-164,-245,-84,304,48,-136
2,9079161,-3456,-1652,-980,-164,-245,-84,304,48,-136
2,9079169,-3456,-1652,-980,-164,-245,-84,304,48,-136
2,9079175,-3452,-1646,-980,-164,-242,-87,304,48,-136
2,9079182,-3452,-1646,-980,-164,-242,-87,304,48,-136
2,9079192,-3452,-1646,-980,-164,-242,-87,304,48,-136
2,9079199,-3452,-1648,-981,-161,-248,-86,304,48,-136
2,9079209,-3452,-1648,-981,-161,-248,-86,304,48,-136
2,9079219,-3452,-1648,-981,-161,-248,-86,304,48,-136
2,9079229,-3452,-1648,-981,-161,-248,-86,304,48,-136
2,9079241,-3456,-1647,-978,-160,-240,-87,308,50,-138
2,9079250,-3456,-1647,-978,-160,-240,-87,308,50,-138
2,9079263,-3455,-1646,-981,-164,-245,-86,308,50,-138
2,9079276,-3452,-1647,-979,-162,-246,-90,308,50,-138
2,9079290,-3452,-1647,-979,-162,-246,-90,308,50,-138
2,9079299,-3456,-1648,-985,-159,-243,-87,308,50,-138
2,9079312,-3456,-1648,-985,-159,-243,-87,308,50,-138
2,9079325,-3451,-1647,-989,-159,-244,-85,308,50,-138
2,9079334,-3454,-1646,-987,-158,-244,-88,308,50,-138
2,9079346,-3454,-1646,-987,-158,-244,-88,308,50,-138
2,9079356,-3454,-1647,-984,-155,-243,-87,301,49,-139
2,9079368,-3454,-1647,-984,-155,-243,-87,301,49,-139
2,9079380,-3450,-1647,-984,-158,-239,-89,301,49,-139
2,9079395,-3454,-1647,-986,-156,-243,-80,301,49,-139
2,9079404,-3454,-1647,-986,-156,-243,-80,301,49,-139
2,9079412,-3454,-1647,-986,-156,-243,-80,301,49,-139
2,9079419,-3454,-1647,-985,-159,-249,-76,301,49,-139
2,9079428,-3454,-1647,-985,-159,-249,-76,301,49,-139
2,9079436,-3459,-1647,-986,-163,-252,-78,301,49,-139
2,9079448,-3459,-1647,-986,-163,-252,-78,301,49,-139
2,9079459,-3459,-1647,-982,-154,-242,-82,301,49,-139
2,9079470,-3459,-1647,-982,-154,-242,-82,301,49,-139
2,9079482,-3453,-1648,-979,-161,-242,-85,297,51,-147
2,9079496,-3451,-1650,-976,-160,-248,-82,297,51,-147
2,9079505,-3451,-1650,-976,-160,-248,-82,297,51,-147
2,9079517,-3450,-1649,-978,-159,-245,-78,297,51,-147
2,9079530,-3450,-1649,-978,-159,-245,-78,297,51,-147
2,9079544,-3457,-1654,-981,-158,-243,-80,297,51,-147
2,9079554,-3450,-1647,-976,-165,-239,-78,297,51,-147
2,9079568,-3450,-1647,-976,-165,-239,-78,297,51,-147
2,9079581,-3450,-1647,-976,-165,-239,-78,297,51,-147
2,9079592,-3450,-1647,-976,-165,-239,-78,297,51,-147
2,9079602,-3458,-1649,-975,-157,-245,-78,297,51,-147
2,9079615,-3456,-1652,-976,-162,-248,-78,297,51,-147
2,9079629,-3456,-1652,-976,-162,-248,-78,297,51,-147
2,9079642,-3457,-1650,-983,-160,-247,-85,297,51,-147
2,9079651,-3457,-1650,-983,-160,-247,-85,297,51,-147
2,9079663,-3452,-1647,-979,-165,-247,-88,297,51,-147
2,9079672,-3452,-1647,-979,-165,-247,-88,297,51,-147
2,9079686,-3454,-1645,-987,-167,-242,-81,297,51,-147
2,9079699,-3454,-1643,-984,-157,-245,-90,297,51,-147
2,9079712,-3454,-1643,-984,-157,-245,-90,297,51,-147
2,9079721,-3452,-1642,-988,-162,-248,-85,297,51,-147
2,9079734,-3456,-1645,-987,-156,-247,-87,302,42,-144
2,9079747,-3456,-1645,-987,-156,-247,-87,302,42,-144
2,9079755,-3455,-1647,-989,-160,-246,-92,302,42,-144
2,9079762,-3455,-1647,-989,-160,-246,-92,302,42,-144
2,9079770,-3455,-1647,-989,-160,-246,-92,302,42,-144
2,9079779,-3452,-1647,-990,-160,-242,-93,302,42,-144
2,9079791,-3452,-1647,-990,-160,-242,-93,302,42,-144
2,9079805,-3453,-1647,-986,-159,-244,-91,302,42,-144
2,9079817,-3454,-1647,-984,-163,-235,-85,302,42,-144
2,9079829,-3454,-1647,-984,-163,-235,-85,302,42,-144
2,9079838,-3457,-1646,-982,-164,-239,-85,302,42,-144
2,9079851,-3457,-1646,-982,-164,-239,-85,302,42,-144
2,9079865,-3451,-1647,-977,-163,-246,-90,304,44,-140
2,9079879,-3455,-1647,-976,-158,-236,-81,304,44,-140
2,9079888,-3455,-1647,-976,-158,-236,-81,304,44,-140
2,9079901,-3455,-1647,-976,-162,-240,-85,304,44,-140
2,9079912,-3455,-1647,-976,-162,-240,-85,304,44,-140
2,9079926,-3458,-1650,-978,-160,-242,-91,304,44,-140
2,9079939,-3447,-1649,-984,-154,-239,-90,304,44,-140
2,9079951,-3447,-1649,-984,-154,-239,-90,304,44,-140
2,9079959,-3458,-1652,-974,-165,-242,-88,304,44,-140
2,9079967,-3458,-1652,-974,-165,-242,-88,304,44,-140
2,9079975,-3451,-1647,-974,-159,-238,-92,308,50,-146
2,9079984,-3451,-1647,-974,-159,-238,-92,308,50,-146
2,9079996,-3458,-1650,-972,-156,-245,-89,308,50,-146
2,9080004,-3458,-1650,-972,-156,-245,-89,308,50,-146
2,9080016,-3457,-1648,-979,-165,-244,-88,308,50,-146
2,9080032,-3457,-1648,-979,-165,-244,-88,308,50,-146
2,9080041,-3456,-1646,-983,-172,-248,-85,308,50,-146
2,9080051,-3456,-1646,-983,-172,-248,-85,308,50,-146
2,9080064,-3457,-1647,-979,-165,-242,-87,308,50,-146
2,9080077,-3452,-1646,-986,-166,-238,-87,308,50,-146
2,9080089,-3452,-1646,-986,-166,-238,-87,308,50,-146
2,9080098,-3451,-1647,-987,-162,-240,-86,300,50,-144
2,9080105,-3451,-1647,-987,-162,-240,-86,300,50,-144
2,9080114,-3453,-1646,-979,-174,-250,-86,300,50,-144
2,9080123,-3453,-1646,-979,-174,-250,-86,300,50,-144
2,9080131,-3453,-1646,-979,-174,-250,-86,300,50,-144
2,9080139,-3453,-1642,-988,-170,-244,-82,300,50,-144
2,9080147,-3453,-1642,-988,-170,-244,-82,300,50,-144
2,9080156,-3453,-1645,-985,-165,-244,-79,300,50,-144
2,9080163,-3453,-1645,-985,-165,-244,-79,300,50,-144
2,9080172,-3453,-1645,-985,-165,-244,-79,300,50,-144
2,9080179,-3458,-1649,-983,-165,-248,-86,300,50,-144
2,9080188,-3458,-1649,-983,-165,-248,-86,300,50,-144
2,9080196,-3459,-1648,-981,-172,-244,-88,300,50,-144
2,9080209,-3459,-1648,-981,-172,-244,-88,300,50,-144
2,9080220,-3462,-1657,-966,-189,-242,-81,299,47,-135
2,9080232,-3462,-1657,-966,-189,-242,-81,299,47,-135
2,9080246,-3456,-1657,-965,-234,-240,-94,299,47,-135
2,9080259,-3458,-1652,-967,-276,-245,-87,299,47,-135
2,9080269,-3458,-1652,-967,-276,-245,-87,299,47,-135
2,9080281,-3453,-1648,-967,-304,-247,-84,299,47,-135
2,9080289,-3453,-1648,-967,-304,-247,-84,299,47,-135
2,9080300,-3455,-1650,-969,-319,-243,-80,299,47,-135
2,9080314,-3457,-1654,-968,-337,-244,-84,299,47,-135
2,9080329,-3457,-1654,-968,-337,-244,-84,299,47,-135
2,9080338,-3454,-1661,-964,-376,-243,-84,299,47,-135
2,9080350,-3454,-1661,-964,-376,-243,-84,299,47,-135
2,9080365,-3461,-1653,-969,-433,-247,-81,300,52,-146
2,9080379,-3455,-1644,-982,-448,-246,-80,300,52,-146
2,9080388,-3455,-1644,-982,-448,-246,-80,300,52,-146
2,9080401,-3454,-1644,-998,-445,-245,-84,300,52,-146
2,9080415,-3457,-1642,-987,-436,-248,-90,300,52,-146
2,9080430,-3457,-1642,-987,-436,-248,-90,300,52,-146
2,9080438,-3451,-1642,-999,-426,-252,-91,300,52,-146
2,9080452,-3451,-1642,-999,-426,-252,-91,300,52,-146
2,9080465,-3453,-1650,-1007,-417,-251,-76,300,52,-146
2,9080476,-3460,-1619,-1015,-389,-250,-82,294,44,-132
2,9080488,-3460,-1619,-1015,-389,-250,-82,294,44,-132
2,9080501,-3449,-1630,-1024,-333,-249,-86,294,44,-132
2,9080515,-3456,-1644,-1040,-264,-253,-91,294,44,-132
2,9080528,-3456,-1644,-1040,-264,-253,-91,294,44,-132
2,9080538,-3446,-1641,-998,-236,-245,-73,294,44,-132
2,9080549,-3446,-1641,-998,-236,-245,-73,294,44,-132
2,9080558,-3454,-1637,-1005,-206,-246,-75,294,44,-132
2,9080566,-3454,-1637,-1005,-206,-246,-75,294,44,-132
2,9080574,-3453,-1639,-1031,-187,-246,-77,294,44,-132
2,9080583,-3453,-1639,-1031,-187,-246,-77,294,44,-132
2,9080592,-3453,-1639,-1031,-187,-246,-77,294,44,-132
2,9080603,-3455,-1640,-984,-153,-235,-82,296,42,-144
2,9080617,-3458,-1643,-987,-145,-236,-76,296,42,-144
2,9080632,-3458,-1643,-987,-145,-236,-76,296,42,-144
2,9080641,-3453,-1634,-1020,-132,-244,-84,296,42,-144
2,9080649,-3453,-1634,-1020,-132,-244,-84,296,42,-144
2,9080658,-3458,-1636,-1011,-87,-238,-85,296,42,-144
2,9080669,-3458,-1636,-1011,-87,-238,-85,296,42,-144
2,9080683,-3451,-1643,-1003,-52,-238,-79,296,42,-144
2,9080694,-3457,-1648,-989,-36,-246,-83,296,42,-144
2,9080705,-3457,-1648,-989,-36,-246,-83,296,42,-144
2,9080720,-3455,-1642,-992,-29,-248,-88,301,51,-135
2,9080730,-3455,-1642,-992,-29,-248,-88,301,51,-135
2,9080739,-3456,-1643,-1012,-34,-241,-83,301,51,-135
2,9080751,-3456,-1643,-1012,-34,-241,-83,301,51,-135
2,9080759,-3458,-1654,-969,-36,-241,-83,301,51,-135
2,9080767,-3458,-1654,-969,-36,-241,-83,301,51,-135
2,9080775,-3459,-1657,-963,-66,-245,-87,301,51,-135
2,9080783,-3459,-1657,-963,-66,-245,-87,301,51,-135
2,9080798,-3454,-1660,-982,-104,-258,-84,301,51,-135
2,9080807,-3454,-1660,-982,-104,-258,-84,301,51,-135
2,9080817,-3456,-1657,-968,-152,-258,-83,301,51,-135
2,9080830,-3456,-1657,-968,-152,-258,-83,301,51,-135
2,9080844,-3447,-1655,-977,-214,-248,-93,290,48,-130
2,9080856,-3456,-1646,-991,-252,-240,-93,290,48,-130
2,9080869,-3456,-1646,-991,-252,-240,-93,290,48,-130
2,9080884,-3453,-1639,-1001,-251,-242,-88,290,48,-130
2,9080898,-3459,-1638,-1020,-240,-250,-82,290,48,-130
2,9080907,-3459,-1638,-1020,-240,-250,-82,290,48,-130
2,9080921,-3452,-1644,-999,-234,-238,-79,290,48,-130
2,9080934,-3452,-1644,-999,-234,-238,-79,290,48,-130
2,9080947,-3459,-1653,-972,-247,-238,-82,290,48,-130
2,9080958,-3451,-1649,-1001,-275,-240,-76,290,48,-130
2,9080970,-3451,-1649,-1001,-275,-240,-76,290,48,-130
2,9080983,-3454,-1645,-1003,-298,-249,-84,282,46,-144
2,9080996,-3455,-1642,-987,-299,-241,-90,282,46,-144
2,9081009,-3455,-1642,-987,-299,-241,-90,282,46,-144
2,9081022,-3454,-1641,-995,-289,-244,-91,282,46,-144
2,9081033,-3454,-1641,-995,-289,-244,-91,282,46,-144
2,9081048,-3451,-1638,-1006,-283,-245,-87,282,46,-144
2,9081061,-3453,-1642,-1006,-271,-243,-78,282,46,-144
2,9081073,-3453,-1642,-1006,-271,-243,-78,282,46,-144
2,9081085,-3457,-1647,-997,-276,-233,-88,282,46,-144
2,9081097,-3452,-1645,-977,-286,-239,-84,288,56,-140
2,9081105,-3452,-1645,-977,-286,-239,-84,288,56,-140
2,9081113,-3452,-1645,-977,-286,-239,-84,288,56,-140
2,9081121,-3449,-1638,-1013,-276,-239,-87,288,56,-140
2,9081128,-3449,-1638,-1013,-276,-239,-87,288,56,-140
2,9081137,-3450,-1642,-1008,-250,-245,-83,288,56,-140
2,9081145,-3450,-1642,-1008,-250,-245,-83,288,56,-140
2,9081153,-3450,-1642,-1008,-250,-245,-83,288,56,-140
2,9081161,-3458,-1647,-990,-247,-245,-85,288,56,-140
2,9081168,-3458,-1647,-990,-247,-245,-85,288,56,-140
2,9081179,-3456,-1644,-1001,-256,-244,-87,288,56,-140
2,9081189,-3456,-1644,-1001,-256,-244,-87,288,56,-140
2,9081198,-3453,-1634,-1010,-242,-237,-86,288,56,-140
2,9081207,-3453,-1634,-1010,-242,-237,-86,288,56,-140
2,9081217,-3454,-1635,-1024,-218,-233,-87,290,56,-132
2,9081224,-3454,-1635,-1024,-218,-233,-87,290,56,-132
2,9081233,-3454,-1635,-1024,-218,-233,-87,290,56,-132
2,9081240,-3446,-1645,-995,-205,-242,-89,290,56,-132
2,9081251,-3446,-1645,-995,-205,-242,-89,290,56,-132
2,9081262,-3446,-1645,-995,-205,-242,-89,290,56,-132
2,9081271,-3446,-1645,-995,-205,-242,-89,290,56,-132
2,9081277,-3447,-1643,-1016,-231,-238,-85,290,56,-132
2,9081287,-3447,-1643,-1016,-231,-238,-85,290,56,-132
2,9081294,-3457,-1637,-1016,-232,-241,-87,290,56,-132
2,9081306,-3457,-1637,-1016,-232,-241,-87,290,56,-132
2,9081316,-3450,-1639,-1009,-220,-241,-81,290,56,-132
2,9081326,-3450,-1639,-1009,-220,-241,-81,290,56,-132
2,9081339,-3458,-1640,-996,-212,-241,-79,289,51,-139
2,9081353,-3458,-1640,-996,-212,-241,-79,289,51,-139
2,9081362,-3453,-1640,-1009,-213,-251,-85,289,51,-139
2,9081376,-3454,-1643,-1019,-207,-242,-83,289,51,-139
2,9081389,-3454,-1643,-1019,-207,-242,-83,289,51,-139
2,9081402,-3453,-1644,-997,-219,-246,-84,289,51,-139
2,9081411,-3453,-1644,-997,-219,-246,-84,289,51,-139
2,9081423,-3451,-1640,-1003,-236,-247,-91,289,51,-139
2,9081437,-3452,-1639,-1006,-238,-238,-86,289,51,-139
2,9081445,-3452,-1639,-1006,-238,-238,-86,289,51,-139
2,9081457,-3453,-1642,-1017,-230,-237,-82,281,51,-145
2,9081468,-3453,-1642,-1017,-230,-237,-82,281,51,-145
2,9081482,-3454,-1644,-999,-222,-244,-79,281,51,-145
2,9081492,-3454,-1644,-999,-222,-244,-79,281,51,-145
2,9081506,-3453,-1644,-999,-218,-243,-79,281,51,-145
2,9081517,-3456,-1643,-1009,-204,-239,-80,281,51,-145
2,9081527,-3456,-1643,-1009,-204,-239,-80,281,51,-145
2,9081540,-3450,-1644,-1008,-205,-238,-88,281,51,-145
2,9081554,-3450,-1644,-1008,-205,-238,-88,281,51,-145
2,9081569,-3450,-1647,-999,-218,-232,-78,281,51,-145
2,9081578,-3454,-1639,-997,-227,-244,-83,281,51,-145
2,9081590,-3454,-1639,-997,-227,-244,-83,281,51,-145
2,9081604,-3454,-1636,-1012,-230,-244,-76,285,53,-139
2,9081618,-3451,-1637,-1018,-222,-235,-85,285,53,-139
2,9081627,-3451,-1637,-1018,-222,-235,-85,285,53,-139
2,9081640,-3450,-1642,-1008,-218,-241,-88,285,53,-139
2,9081654,-3450,-1642,-1008,-218,-241,-88,285,53,-139
2,9081663,-3453,-1645,-1008,-202,-239,-83,285,53,-139
2,9081675,-3448,-1646,-1021,-216,-236,-90,285,53,-139
2,9081688,-3448,-1646,-1021,-216,-236,-90,285,53,-139
2,9081703,-3456,-1641,-1019,-227,-239,-82,285,53,-139
2,9081715,-3450,-1637,-1018,-226,-236,-86,284,46,-140
2,9081728,-3450,-1637,-1018,-226,-236,-86,284,46,-140
2,9081736,-3451,-1645,-1010,-225,-237,-89,284,46,-140
2,9081746,-3451,-1645,-1010,-225,-237,-89,284,46,-140
2,9081754,-3451,-1645,-1010,-225,-237,-89,284,46,-140
2,9081762,-3452,-1644,-1011,-230,-243,-86,284,46,-140
2,9081769,-3452,-1644,-1011,-230,-243,-86,284,46,-140
2,9081778,-3457,-1637,-1027,-222,-238,-85,284,46,-140
2,9081785,-3457,-1637,-1027,-222,-238,-85,284,46,-140
2,9081793,-3457,-1637,-1027,-222,-238,-85,284,46,-140
2,9081801,-3450,-1643,-1009,-226,-238,-88,284,46,-140
2,9081808,-3450,-1643,-1009,-226,-238,-88,284,46,-140
2,9081816,-3451,-1641,-1005,-227,-239,-86,284,46,-140
2,9081825,-3451,-1641,-1005,-227,-239,-86,284,46,-140
2,9081834,-3451,-1641,-1005,-227,-239,-86,284,46,-140
2,9081843,-3451,-1637,-1014,-216,-246,-85,282,52,-144
2,9081856,-3452,-1643,-1014,-210,-244,-79,282,52,-144
2,9081869,-3452,-1643,-1014,-210,-244,-79,282,52,-144
2,9081879,-3450,-1642,-1012,-220,-231,-81,282,52,-144
2,9081892,-3450,-1642,-1012,-220,-231,-81,282,52,-144
2,9081901,-3454,-1642,-1013,-237,-239,-86,282,52,-144
2,9081913,-3454,-1642,-1013,-237,-239,-86,282,52,-144
2,9081926,-3455,-1641,-1012,-238,-241,-89,282,52,-144
2,9081942,-3455,-1641,-1023,-231,-244,-84,282,52,-144
2,9081951,-3455,-1641,-1023,-231,-244,-84,282,52,-144
2,9081962,-3450,-1644,-1000,-220,-240,-84,290,52,-142
2,9081971,-3450,-1644,-1000,-220,-240,-84,290,52,-142
2,9081985,-3451,-1642,-1005,-222,-240,-87,290,52,-142
2,9081998,-3450,-1639,-1017,-235,-240,-80,290,52,-142
2,9082011,-3450,-1639,-1017,-235,-240,-80,290,52,-142
2,9082019,-3448,-1634,-1020,-235,-241,-84,290,52,-142
2,9082032,-3448,-1634,-1020,-235,-241,-84,290,52,-142
2,9082045,-3453,-1635,-1028,-224,-239,-85,290,52,-142
2,9082058,-3456,-1640,-1020,-221,-239,-82,290,52,-142
2,9082067,-3456,-1640,-1020,-221,-239,-82,290,52,-142
2,9082079,-3456,-1638,-1022,-222,-243,-74,285,47,-135
2,9082092,-3456,-1638,-1022,-222,-243,-74,285,47,-135
2,9082100,-3461,-1640,-1031,-233,-238,-78,285,47,-135
2,9082107,-3461,-1640,-1031,-233,-238,-78,285,47,-135
2,9082116,-3454,-1638,-1028,-233,-235,-82,285,47,-135
2,9082124,-3454,-1638,-1028,-233,-235,-82,285,47,-135
2,9082132,-3454,-1638,-1028,-233,-235,-82,285,47,-135
2,9082140,-3451,-1637,-1025,-223,-234,-89,285,47,-135
2,9082146,-3451,-1637,-1025,-223,-234,-89,285,47,-135
2,9082152,-3451,-1637,-1025,-223,-234,-89,285,47,-135
2,9082159,-3447,-1639,-1023,-223,-241,-89,285,47,-135
2,9082165,-3447,-1639,-1023,-223,-241,-89,285,47,-135
2,9082171,-3447,-1639,-1023,-223,-241,-89,285,47,-135
2,9082179,-3450,-1646,-1019,-228,-241,-84,285,47,-135
2,9082190,-3450,-1646,-1019,-228,-241,-84,285,47,-135
2,9082203,-3446,-1644,-1024,-237,-243,-80,285,47,-135
2,9082216,-3456,-1641,-1025,-244,-237,-80,285,45,-141
2,9082229,-3456,-1641,-1025,-244,-237,-80,285,45,-141
2,9082242,-3464,-1638,-1017,-242,-238,-78,285,45,-141
2,9082255,-3462,-1641,-1025,-239,-231,-81,285,45,-141
2,9082268,-3462,-1641,-1025,-239,-231,-81,285,45,-141
2,9082279,-3463,-1636,-1020,-242,-240,-85,285,45,-141
2,9082291,-3463,-1636,-1020,-242,-240,-85,285,45,-141
2,9082304,-3451,-1635,-1018,-247,-249,-94,285,45,-141
2,9082316,-3452,-1637,-1017,-241,-237,-88,285,45,-141
2,9082330,-3452,-1637,-1017,-241,-237,-88,285,45,-141
2,9082343,-3457,-1636,-1019,-234,-233,-84,288,54,-142
2,9082356,-3457,-1639,-1021,-240,-240,-86,288,54,-142
2,9082368,-3457,-1639,-1021,-240,-240,-86,288,54,-142
2,9082380,-3460,-1637,-1023,-247,-234,-81,288,54,-142
2,9082392,-3460,-1637,-1023,-247,-234,-81,288,54,-142
2,9082402,-3454,-1637,-1022,-253,-229,-85,288,54,-142
2,9082414,-3454,-1637,-1022,-253,-229,-85,288,54,-142
2,9082429,-3449,-1636,-1030,-238,-237,-83,288,54,-142
2,9082442,-3451,-1637,-1034,-230,-243,-83,288,54,-142
2,9082455,-3451,-1637,-1034,-230,-243,-83,288,54,-142
2,9082463,-3454,-1638,-1019,-227,-236,-89,287,47,-143
2,9082471,-3454,-1638,-1019,-227,-236,-89,287,47,-143
2,9082479,-3461,-1632,-1033,-231,-234,-82,287,47,-143
2,9082487,-3461,-1632,-1033,-231,-234,-82,287,47,-143
2,9082499,-3458,-1633,-1044,-221,-244,-79,287,47,-143
2,9082511,-3458,-1633,-1044,-221,-244,-79,287,47,-143
2,9082525,-3453,-1637,-1021,-212,-240,-75,287,47,-143
2,9082539,-3462,-1642,-1011,-206,-241,-85,287,47,-143
2,9082549,-3462,-1642,-1011,-206,-241,-85,287,47,-143
2,9082562,-3457,-1639,-1046,-221,-242,-81,287,47,-143
2,9082575,-3457,-1639,-1046,-221,-242,-81,287,47,-143
2,9082589,-3443,-1630,-1022,-219,-244,-79,289,47,-141
2,9082597,-3461,-1638,-1025,-204,-232,-86,289,47,-141
2,9082609,-3461,-1638,-1025,-204,-232,-86,289,47,-141
2,9082620,-3449,-1644,-1034,-208,-239,-78,289,47,-141
2,9082631,-3449,-1644,-1034,-208,-239,-78,289,47,-141
2,9082646,-3456,-1643,-1009,-228,-244,-89,289,47,-141
2,9082659,-3450,-1635,-1026,-239,-239,-81,289,47,-141
2,9082668,-3450,-1635,-1026,-239,-239,-81,289,47,-141
2,9082679,-3463,-1641,-1034,-228,-241,-80,289,47,-141
2,9082693,-3463,-1641,-1034,-228,-241,-80,289,47,-141
2,9082707,-3451,-1637,-1019,-222,-240,-82,281,49,-133
2,9082717,-3460,-1636,-1031,-210,-235,-86,281,49,-133
2,9082729,-3460,-1636,-1031,-210,-235,-86,281,49,-133
2,9082743,-3452,-1636,-1020,-203,-236,-85,281,49,-133
2,9082754,-3452,-1636,-1020,-203,-236,-85,281,49,-133
2,9082761,-3448,-1637,-1022,-209,-238,-86,281,49,-133
2,9082769,-3448,-1637,-1022,-209,-238,-86,281,49,-133
2,9082778,-3460,-1635,-1042,-225,-239,-82,281,49,-133
2,9082788,-3460,-1635,-1042,-225,-239,-82,281,49,-133
2,9082800,-3448,-1636,-1020,-231,-239,-78,281,49,-133
2,9082809,-3448,-1636,-1020,-231,-239,-78,281,49,-133
2,9082817,-3453,-1636,-1037,-227,-236,-86,290,48,-144
2,9082827,-3453,-1636,-1037,-227,-236,-86,290,48,-144
2,9082835,-3463,-1638,-1037,-225,-243,-82,290,48,-144
2,9082846,-3463,-1638,-1037,-225,-243,-82,290,48,-144
2,9082859,-3448,-1640,-1015,-227,-239,-81,290,48,-144
2,9082871,-3448,-1640,-1015,-227,-239,-81,290,48,-144
2,9082884,-3461,-1639,-1042,-240,-236,-74,290,48,-144
2,9082896,-3461,-1639,-1042,-240,-236,-74,290,48,-144
2,9082909,-3458,-1635,-1030,-251,-238,-77,290,48,-144
2,9082923,-3453,-1634,-1029,-246,-232,-75,290,48,-144
2,9082934,-3453,-1634,-1029,-246,-232,-75,290,48,-144
2,9082945,-3456,-1633,-1048,-239,-236,-75,290,48,-144
2,9082959,-3457,-1636,-1023,-224,-230,-71,284,52,-142
2,9082972,-3457,-1636,-1023,-224,-230,-71,284,52,-142
2,9082984,-3448,-1633,-1020,-217,-238,-78,284,52,-142
2,9082997,-3457,-1639,-1043,-213,-243,-80,284,52,-142
2,9083011,-3457,-1639,-1043,-213,-243,-80,284,52,-142
2,9083019,-3462,-1635,-1031,-221,-237,-83,284,52,-142
2,9083029,-3462,-1635,-1031,-221,-237,-83,284,52,-142
2,9083038,-3445,-1636,-1025,-219,-236,-81,284,52,-142
2,9083046,-3445,-1636,-1025,-219,-236,-81,284,52,-142
2,9083055,-3445,-1636,-1025,-219,-236,-81,284,52,-142
2,9083062,-3464,-1635,-1027,-213,-233,-79,284,52,-142
2,9083076,-3463,-1634,-1021,-211,-239,-81,275,49,-141
2,9083085,-3463,-1634,-1021,-211,-239,-81,275,49,-141
2,9083096,-3463,-1634,-1021,-211,-239,-81,275,49,-141
2,9083104,-3460,-1635,-1035,-202,-240,-80,275,49,-141
2,9083112,-3460,-1635,-1035,-202,-240,-80,275,49,-141
2,9083120,-3455,-1643,-1027,-202,-243,-88,275,49,-141
2,9083128,-3455,-1643,-1027,-202,-243,-88,275,49,-141
2,9083138,-3450,-1637,-1020,-227,-243,-95,275,49,-141
2,9083147,-3450,-1637,-1020,-227,-243,-95,275,49,-141
2,9083155,-3450,-1637,-1020,-227,-243,-95,275,49,-141
2,9083163,-3449,-1633,-1030,-232,-241,-86,275,49,-141
2,9083171,-3449,-1633,-1030,-232,-241,-86,275,49,-141
2,9083180,-3449,-1635,-1037,-236,-241,-80,275,49,-141
2,9083188,-3449,-1635,-1037,-236,-241,-80,275,49,-141
2,9083197,-3454,-1633,-1035,-234,-240,-79,288,52,-142
2,9083204,-3454,-1633,-1035,-234,-240,-79,288,52,-142
2,9083210,-3454,-1633,-1035,-234,-240,-79,288,52,-142
2,9083217,-3458,-1633,-1033,-233,-241,-79,288,52,-142
2,9083223,-3458,-1633,-1033,-233,-241,-79,288,52,-142
2,9083230,-3458,-1633,-1033,-233,-241,-79,288,52,-142
2,9083236,-3458,-1633,-1033,-233,-241,-79,288,52,-142
2,9083241,-3457,-1636,-1033,-234,-237,-83,288,52,-142
2,9083249,-3457,-1636,-1033,-234,-237,-83,288,52,-142
2,9083256,-3456,-1635,-1048,-224,-238,-84,288,52,-142
2,9083264,-3456,-1635,-1048,-224,-238,-84,288,52,-142
2,9083270,-3456,-1635,-1048,-224,-238,-84,288,52,-142
2,9083278,-3458,-1632,-1036,-229,-241,-86,288,52,-142
2,9083284,-3458,-1632,-1036,-229,-241,-86,288,52,-142
2,9083292,-3458,-1632,-1036,-229,-241,-86,288,52,-142
2,9083300,-3451,-1643,-1020,-249,-233,-81,288,52,-142
2,9083311,-3451,-1643,-1020,-249,-233,-81,288,52,-142
2,9083318,-3445,-1634,-1041,-268,-235,-81,278,54,-144
2,9083324,-3445,-1634,-1041,-268,-235,-81,278,54,-144
2,9083334,-3445,-1634,-1041,-268,-235,-81,278,54,-144
2,9083344,-3451,-1629,-1031,-270,-239,-79,278,54,-144
2,9083356,-3451,-1629,-1031,-270,-239,-79,278,54,-144
2,9083366,-3453,-1628,-1043,-257,-237,-81,278,54,-144
2,9083377,-3465,-1632,-1049,-249,-237,-79,278,54,-144
2,9083385,-3465,-1632,-1049,-249,-237,-79,278,54,-144
2,9083396,-3465,-1632,-1049,-249,-237,-79,278,54,-144
2,9083402,-3468,-1630,-1044,-237,-237,-80,278,54,-144
2,9083413,-3468,-1630,-1044,-237,-237,-80,278,54,-144
2,9083423,-3459,-1634,-1051,-230,-237,-79,278,54,-144
2,9083433,-3459,-1634,-1051,-230,-237,-79,278,54,-144
2,9083444,-3452,-1635,-1038,-215,-237,-81,287,53,-133
2,9083452,-3452,-1635,-1038,-215,-237,-81,287,53,-133
2,9083463,-3443,-1636,-1017,-211,-232,-82,287,53,-133
2,9083472,-3443,-1636,-1017,-211,-232,-82,287,53,-133
2,9083484,-3451,-1635,-1041,-219,-239,-76,287,53,-133
2,9083494,-3451,-1635,-1041,-219,-239,-76,287,53,-133
2,9083502,-3456,-1637,-1035,-231,-231,-82,287,53,-133
2,9083513,-3456,-1637,-1035,-231,-231,-82,287,53,-133
2,9083525,-3453,-1634,-1031,-228,-232,-83,287,53,-133
2,9083534,-3453,-1634,-1031,-228,-232,-83,287,53,-133
2,9083541,-3457,-1630,-1053,-213,-236,-79,287,53,-133
2,9083547,-3457,-1630,-1053,-213,-236,-79,287,53,-133
2,9083553,-3457,-1630,-1053,-213,-236,-79,287,53,-133
2,9083559,-3452,-1627,-1045,-193,-237,-78,287,53,-133
2,9083571,-3452,-1627,-1045,-193,-237,-78,287,53,-133
2,9083582,-3458,-1634,-1031,-186,-229,-84,282,52,-138
2,9083593,-3458,-1634,-1031,-186,-229,-84,282,52,-138
2,9083602,-3458,-1635,-1046,-203,-232,-79,282,52,-138
2,9083612,-3458,-1635,-1046,-203,-232,-79,282,52,-138
2,9083620,-3454,-1636,-1037,-207,-239,-74,282,52,-138
2,9083631,-3454,-1636,-1037,-207,-239,-74,282,52,-138
2,9083639,-3454,-1624,-1053,-203,-229,-85,282,52,-138
2,9083650,-3454,-1624,-1053,-203,-229,-85,282,52,-138
2,9083657,-3456,-1635,-1047,-194,-232,-81,282,52,-138
2,9083668,-3456,-1635,-1047,-194,-232,-81,282,52,-138
2,9083675,-3456,-1635,-1047,-194,-232,-81,282,52,-138
2,9083685,-3461,-1637,-1031,-210,-234,-80,282,52,-138
2,9083697,-3461,-1637,-1031,-210,-234,-80,282,52,-138
2,9083707,-3454,-1632,-1042,-226,-247,-86,279,49,-139
2,9083717,-3451,-1630,-1052,-223,-243,-78,279,49,-139
2,9083725,-3451,-1630,-1052,-223,-243,-78,279,49,-139
2,9083736,-3451,-1630,-1052,-223,-243,-78,279,49,-139
2,9083747,-3453,-1636,-1043,-216,-236,-75,279,49,-139
2,9083754,-3453,-1636,-1043,-216,-236,-75,279,49,-139
2,9083760,-3453,-1634,-1046,-214,-240,-85,279,49,-139
2,9083766,-3453,-1634,-1046,-214,-240,-85,279,49,-139
2,9083772,-3453,-1634,-1046,-214,-240,-85,279,49,-139
2,9083779,-3452,-1638,-1034,-219,-241,-75,279,49,-139
2,9083784,-3452,-1638,-1034,-219,-241,-75,279,49,-139
2,9083791,-3452,-1638,-1034,-219,-241,-75,279,49,-139
2,9083798,-3454,-1634,-1047,-235,-241,-73,279,49,-139
2,9083805,-3454,-1634,-1047,-235,-241,-73,279,49,-139
2,9083812,-3454,-1634,-1047,-235,-241,-73,279,49,-139
2,9083820,-3458,-1633,-1038,-245,-238,-79,285,51,-147
2,9083828,-3458,-1633,-1038,-245,-238,-79,285,51,-147
2,9083835,-3458,-1633,-1038,-245,-238,-79,285,51,-147
2,9083844,-3452,-1632,-1029,-242,-238,-78,285,51,-147
2,9083851,-3452,-1632,-1029,-242,-238,-78,285,51,-147
2,9083858,-3458,-1629,-1060,-233,-238,-86,285,51,-147
2,9083865,-3458,-1629,-1060,-233,-238,-86,285,51,-147
2,9083873,-3458,-1629,-1060,-233,-238,-86,285,51,-147
2,9083879,-3450,-1631,-1041,-230,-246,-82,285,51,-147
2,9083886,-3450,-1631,-1041,-230,-246,-82,285,51,-147
2,9083894,-3450,-1631,-1041,-230,-246,-82,285,51,-147
2,9083902,-3455,-1640,-1027,-233,-232,-80,285,51,-147
2,9083909,-3455,-1640,-1027,-233,-232,-80,285,51,-147
2,9083917,-3449,-1635,-1050,-259,-239,-80,285,51,-147
2,9083924,-3449,-1635,-1050,-259,-239,-80,285,51,-147
2,9083931,-3449,-1635,-1050,-259,-239,-80,285,51,-147
2,9083937,-3456,-1628,-1039,-273,-245,-82,278,50,-147
2,9083944,-3456,-1628,-1039,-273,-245,-82,278,50,-144
2,9083953,-3456,-1628,-1039,-273,-245,-82,278,50,-144
2,9083960,-3454,-1628,-1052,-266,-230,-82,278,50,-144
2,9083967,-3454,-1628,-1052,-266,-230,-82,278,50,-144
2,9083974,-3454,-1628,-1052,-266,-230,-82,278,50,-144
2,9083981,-3449,-1631,-1059,-257,-230,-80,278,50,-144
2,9083987,-3449,-1631,-1059,-257,-230,-80,278,50,-144
2,9083996,-3449,-1631,-1059,-257,-230,-80,278,50,-144
2,9084003,-3458,-1632,-1053,-245,-239,-81,278,50,-144
2,9084010,-3458,-1632,-1053,-245,-239,-81,278,50,-144
2,9084017,-3450,-1629,-1065,-234,-232,-74,278,50,-144
2,9084023,-3450,-1629,-1065,-234,-232,-74,278,50,-144
2,9084028,-3450,-1629,-1065,-234,-232,-74,278,50,-144
2,9084034,-3450,-1629,-1065,-234,-232,-74,278,50,-144
2,9084041,-3452,-1631,-1043,-230,-238,-73,278,50,-144
2,9084048,-3452,-1631,-1043,-230,-238,-73,278,50,-144
2,9084056,-3452,-1631,-1043,-230,-238,-73,278,50,-144
2,9084063,-3454,-1637,-1052,-241,-237,-75,290,50,-142
2,9084069,-3454,-1637,-1052,-241,-237,-75,290,50,-142
2,9084078,-3455,-1628,-1062,-247,-229,-78,290,50,-142
2,9084085,-3455,-1628,-1062,-247,-229,-78,290,50,-142
2,9084091,-3455,-1628,-1062,-247,-229,-78,290,50,-142
2,9084096,-3455,-1628,-1062,-247,-229,-78,290,50,-142
2,9084101,-3450,-1627,-1057,-243,-240,-80,290,50,-142
2,9084107,-3450,-1627,-1057,-243,-240,-80,290,50,-142
2,9084112,-3450,-1627,-1057,-243,-240,-80,290,50,-142
2,9084118,-3456,-1631,-1057,-238,-238,-75,290,50,-142
2,9084123,-3456,-1631,-1057,-238,-238,-75,290,50,-142
2,9084128,-3456,-1631,-1057,-238,-238,-75,290,50,-142
2,9084133,-3456,-1631,-1057,-238,-238,-75,290,50,-142
2,9084138,-3460,-1635,-1054,-229,-237,-76,290,50,-142
2,9084145,-3460,-1635,-1054,-229,-237,-76,290,50,-142
2,9084152,-3460,-1635,-1054,-229,-237,-76,290,50,-142
2,9084158,-3450,-1631,-1055,-231,-229,-79,290,50,-142
2,9084166,-3450,-1631,-1055,-231,-229,-79,290,50,-142
2,9084173,-3450,-1631,-1055,-231,-229,-79,290,50,-142
2,9084180,-3451,-1628,-1063,-230,-233,-85,290,50,-142
2,9084187,-3451,-1628,-1063,-230,-233,-85,290,50,-142
2,9084194,-3451,-1628,-1063,-230,-233,-85,290,50,-142
2,9084203,-3454,-1628,-1060,-221,-232,-82,285,53,-139
2,9084215,-3454,-1628,-1060,-221,-232,-82,285,53,-139
2,9084227,-3451,-1629,-1047,-208,-231,-71,285,53,-139
2,9084239,-3449,-1629,-1032,-202,-235,-80,285,53,-139
2,9084252,-3449,-1629,-1032,-202,-235,-80,285,53,-139
2,9084264,-3462,-1632,-1058,-208,-234,-74,285,53,-139
2,9084275,-3462,-1632,-1058,-208,-234,-74,285,53,-139
2,9084286,-3461,-1631,-1082,-220,-238,-77,285,53,-139
2,9084301,-3466,-1628,-1072,-218,-232,-79,285,53,-139
2,9084309,-3466,-1628,-1072,-218,-232,-79,285,53,-139
2,9084321,-3452,-1625,-1069,-190,-230,-75,282,50,-144
2,9084335,-3452,-1625,-1069,-190,-230,-75,282,50,-144
2,9084349,-3452,-1624,-1053,-164,-231,-72,282,50,-144
2,9084358,-3446,-1630,-1028,-154,-233,-75,282,50,-144
2,9084371,-3446,-1630,-1028,-154,-233,-75,282,50,-144
2,9084385,-3448,-1637,-1045,-187,-235,-63,282,50,-144
2,9084397,-3460,-1633,-1056,-221,-235,-71,282,50,-144
2,9084408,-3460,-1633,-1056,-221,-235,-71,282,50,-144
2,9084422,-3458,-1629,-1062,-226,-233,-80,282,50,-144
2,9084435,-3458,-1629,-1062,-226,-233,-80,282,50,-144
2,9084448,-3457,-1630,-1079,-227,-229,-76,282,52,-152
2,9084457,-3457,-1630,-1079,-227,-229,-76,282,52,-152
2,9084470,-3454,-1627,-1058,-219,-237,-76,282,52,-152
2,9084481,-3450,-1627,-1053,-211,-226,-74,282,52,-152
2,9084492,-3450,-1627,-1053,-211,-226,-74,282,52,-152
2,9084507,-3448,-1641,-1045,-223,-228,-74,282,52,-152
2,9084521,-3451,-1629,-1052,-280,-239,-80,282,52,-152
2,9084532,-3451,-1629,-1052,-280,-239,-80,282,52,-152
2,9084540,-3453,-1629,-1050,-289,-242,-76,282,52,-152
2,9084549,-3453,-1629,-1050,-289,-242,-76,282,52,-152
2,9084557,-3453,-1629,-1050,-289,-242,-76,282,52,-152
2,9084565,-3458,-1625,-1079,-283,-222,-68,284,48,-140
2,9084576,-3458,-1625,-1079,-283,-222,-68,284,48,-140
2,9084590,-3457,-1629,-1054,-272,-236,-78,284,48,-140
2,9084604,-3451,-1629,-1057,-254,-228,-85,284,48,-140
2,9084618,-3449,-1623,-1081,-238,-231,-78,284,48,-140
2,9084627,-3449,-1623,-1081,-238,-231,-78,284,48,-140
2,9084640,-3450,-1627,-1060,-235,-229,-72,284,48,-140
2,9084654,-3450,-1627,-1060,-235,-229,-72,284,48,-140
2,9084667,-3450,-1624,-1067,-231,-235,-71,284,48,-140
2,9084678,-3450,-1624,-1067,-231,-235,-71,284,48,-140
2,9084689,-3452,-1631,-1057,-222,-240,-79,289,43,-139
2,9084701,-3454,-1638,-1047,-222,-232,-78,289,43,-139
2,9084715,-3454,-1638,-1047,-222,-232,-78,289,43,-139
2,9084726,-3452,-1626,-1075,-240,-240,-80,289,43,-139
2,9084740,-3448,-1625,-1067,-230,-234,-77,289,43,-139
2,9084752,-3448,-1625,-1067,-230,-234,-77,289,43,-139
2,9084761,-3445,-1625,-1063,-196,-232,-71,289,43,-139
2,9084769,-3445,-1625,-1063,-196,-232,-71,289,43,-139
2,9084777,-3445,-1625,-1063,-196,-232,-71,289,43,-139
2,9084787,-3448,-1632,-1057,-171,-232,-73,289,43,-139
2,9084795,-3448,-1632,-1057,-171,-232,-73,289,43,-139
2,9084805,-3445,-1630,-1069,-175,-229,-73,289,43,-139
2,9084815,-3445,-1630,-1069,-175,-229,-73,289,43,-139
2,9084824,-3450,-1626,-1073,-174,-236,-78,290,48,-136
2,9084833,-3450,-1626,-1073,-174,-236,-78,290,48,-136
2,9084843,-3449,-1624,-1067,-165,-234,-78,290,48,-136
2,9084852,-3449,-1624,-1067,-165,-234,-78,290,48,-136
2,9084862,-3450,-1635,-1057,-159,-231,-73,290,48,-136
2,9084870,-3450,-1635,-1057,-159,-231,-73,290,48,-136
2,9084879,-3450,-1632,-1055,-173,-229,-72,290,48,-136
2,9084889,-3450,-1632,-1055,-173,-229,-72,290,48,-136
2,9084898,-3443,-1629,-1071,-183,-233,-73,290,48,-136
2,9084909,-3443,-1629,-1071,-183,-233,-73,290,48,-136
2,9084921,-3454,-1626,-1062,-181,-231,-72,290,48,-136
2,9084934,-3454,-1626,-1062,-181,-231,-72,290,48,-136
2,9084944,-3458,-1630,-1065,-185,-233,-76,283,49,-137
2,9084958,-3455,-1624,-1072,-175,-234,-75,283,49,-137
2,9084975,-3455,-1624,-1072,-175,-234,-75,283,49,-137
2,9084990,-3459,-1626,-1059,-167,-230,-75,283,49,-137
2,9085004,-3453,-1628,-1072,-148,-229,-82,283,49,-137
2,9085012,-3453,-1628,-1072,-148,-229,-82,283,49,-137
2,9085022,-3456,-1637,-1035,-143,-232,-80,283,49,-137
2,9085035,-3456,-1637,-1035,-143,-232,-80,283,49,-137
2,9085048,-3453,-1630,-1073,-189,-227,-71,283,49,-137
2,9085061,-3450,-1627,-1050,-215,-238,-72,287,47,-139
2,9085075,-3450,-1627,-1050,-215,-238,-72,287,47,-139
2,9085088,-3453,-1624,-1054,-209,-227,-74,287,47,-139
2,9085096,-3453,-1624,-1054,-209,-227,-74,287,47,-139
2,9085104,-3456,-1624,-1081,-193,-237,-75,287,47,-139
2,9085113,-3456,-1624,-1081,-193,-237,-75,287,47,-139
2,9085120,-3458,-1626,-1060,-182,-233,-75,287,47,-139
2,9085129,-3458,-1626,-1060,-182,-233,-75,287,47,-139
2,9085136,-3458,-1626,-1060,-182,-233,-75,287,47,-139
2,9085145,-3457,-1621,-1080,-170,-227,-74,287,47,-139
2,9085153,-3457,-1621,-1080,-170,-227,-74,287,47,-139
2,9085161,-3457,-1627,-1078,-161,-239,-68,287,47,-139
2,9085169,-3457,-1627,-1078,-161,-239,-68,287,47,-139
2,9085178,-3457,-1627,-1078,-161,-239,-68,287,47,-139
2,9085187,-3458,-1626,-1055,-159,-230,-75,287,57,-135
2,9085196,-3458,-1626,-1055,-159,-230,-75,287,57,-135
2,9085204,-3454,-1625,-1066,-153,-227,-75,287,57,-135
2,9085212,-3454,-1625,-1066,-153,-227,-75,287,57,-135
2,9085218,-3449,-1630,-1071,-151,-225,-77,287,57,-135
2,9085224,-3449,-1630,-1071,-151,-225,-77,287,57,-135
2,9085231,-3449,-1630,-1071,-151,-225,-77,287,57,-135
2,9085237,-3449,-1630,-1071,-151,-225,-77,287,57,-135
2,9085242,-3453,-1629,-1059,-160,-232,-72,287,57,-135
2,9085248,-3453,-1629,-1059,-160,-232,-72,287,57,-135
2,9085253,-3453,-1629,-1059,-160,-232,-72,287,57,-135
2,9085258,-3456,-1626,-1074,-150,-229,-75,287,57,-135
2,9085263,-3456,-1626,-1074,-150,-229,-75,287,57,-135
2,9085271,-3456,-1626,-1074,-150,-229,-75,287,57,-135
2,9085278,-3456,-1626,-1074,-150,-229,-75,287,57,-135
2,9085284,-3453,-1627,-1074,-130,-231,-75,287,57,-135
2,9085292,-3453,-1627,-1074,-130,-231,-75,287,57,-135
2,9085298,-3450,-1626,-1062,-107,-238,-70,287,57,-135
2,9085305,-3450,-1626,-1062,-107,-238,-70,283,59,-143
2,9085313,-3450,-1626,-1062,-107,-238,-70,283,59,-143
2,9085321,-3456,-1627,-1068,-119,-230,-68,283,59,-143
2,9085328,-3456,-1627,-1068,-119,-230,-68,283,59,-143
2,9085335,-3456,-1627,-1068,-119,-230,-68,283,59,-143
2,9085342,-3452,-1633,-1064,-126,-227,-81,283,59,-143
2,9085350,-3452,-1633,-1064,-126,-227,-81,283,59,-143
2,9085358,-3452,-1633,-1064,-126,-227,-81,283,59,-143
2,9085363,-3457,-1632,-1055,-130,-232,-77,283,59,-143
2,9085371,-3457,-1632,-1055,-130,-232,-77,283,59,-143
2,9085378,-3457,-1632,-1055,-130,-232,-77,283,59,-143
2,9085385,-3457,-1628,-1073,-142,-234,-80,283,59,-143
2,9085393,-3457,-1628,-1073,-142,-234,-80,283,59,-143
2,9085401,-3456,-1633,-1059,-155,-235,-70,283,59,-143
2,9085409,-3456,-1633,-1059,-155,-235,-70,283,59,-143
2,9085415,-3456,-1633,-1059,-155,-235,-70,283,59,-143
2,9085422,-3460,-1629,-1053,-148,-224,-72,283,59,-143
2,9085428,-3460,-1629,-1053,-148,-224,-72,283,59,-143
2,9085436,-3460,-1629,-1053,-148,-224,-72,283,59,-143
2,9085445,-3456,-1630,-1067,-145,-224,-81,292,42,-148
2,9085452,-3456,-1630,-1067,-145,-224,-81,292,42,-148
2,9085458,-3456,-1630,-1067,-145,-224,-81,292,42,-148
2,9085464,-3458,-1623,-1063,-147,-239,-78,292,42,-148
2,9085470,-3458,-1623,-1063,-147,-239,-78,292,42,-148
2,9085476,-3458,-1623,-1063,-147,-239,-78,292,42,-148
2,9085483,-3451,-1629,-1061,-148,-232,-74,292,42,-148
2,9085491,-3451,-1629,-1061,-148,-232,-74,292,42,-148
2,9085496,-3451,-1629,-1061,-148,-232,-74,292,42,-148
2,9085504,-3451,-1631,-1052,-155,-229,-70,292,42,-148
2,9085511,-3451,-1631,-1052,-155,-229,-70,292,42,-148
2,9085519,-3457,-1632,-1060,-175,-233,-74,292,42,-148
2,9085526,-3457,-1632,-1060,-175,-233,-74,292,42,-148
2,9085532,-3457,-1632,-1060,-175,-233,-74,292,42,-148
2,9085538,-3456,-1629,-1071,-184,-236,-68,292,42,-148
2,9085545,-3456,-1629,-1071,-184,-236,-68,292,42,-148
2,9085551,-3456,-1629,-1071,-184,-236,-68,292,42,-148
2,9085559,-3464,-1628,-1068,-175,-236,-70,288,52,-138
2,9085564,-3464,-1628,-1068,-175,-236,-70,288,52,-138
2,9085572,-3464,-1628,-1068,-175,-236,-70,288,52,-138
2,9085579,-3455,-1627,-1071,-167,-233,-76,288,52,-138
2,9085587,-3455,-1627,-1071,-167,-233,-76,288,52,-138
2,9085595,-3455,-1627,-1071,-167,-233,-76,288,52,-138
2,9085602,-3460,-1624,-1068,-155,-239,-78,288,52,-138
2,9085611,-3460,-1624,-1068,-155,-239,-78,288,52,-138
2,9085617,-3460,-1624,-1068,-155,-239,-78,288,52,-138
2,9085624,-3453,-1628,-1070,-142,-233,-77,288,52,-138
2,9085630,-3453,-1628,-1070,-142,-233,-77,288,52,-138
2,9085637,-3453,-1628,-1070,-142,-233,-77,288,52,-138
2,9085643,-3451,-1639,-1060,-148,-227,-72,288,52,-138
2,9085648,-3451,-1639,-1060,-148,-227,-72,288,52,-138
2,9085654,-3451,-1639,-1060,-148,-227,-72,288,52,-138
2,9085661,-3451,-1633,-1067,-170,-236,-75,288,52,-138
2,9085668,-3451,-1633,-1067,-170,-236,-75,288,52,-138
2,9085674,-3451,-1633,-1067,-170,-236,-75,288,52,-138
2,9085679,-3456,-1626,-1062,-183,-225,-71,286,48,-140
2,9085684,-3456,-1626,-1062,-183,-225,-71,286,48,-140
2,9085691,-3456,-1626,-1062,-183,-225,-71,286,48,-140
2,9085697,-3456,-1626,-1062,-183,-225,-71,286,48,-140
2,9085706,-3462,-1628,-1067,-176,-240,-77,286,48,-140
2,9085713,-3462,-1628,-1067,-176,-240,-77,286,48,-140
2,9085721,-3460,-1621,-1070,-173,-239,-75,286,48,-140
2,9085727,-3460,-1621,-1070,-173,-239,-75,286,48,-140
2,9085733,-3460,-1621,-1070,-173,-239,-75,286,48,-140
2,9085741,-3463,-1625,-1065,-154,-232,-71,286,48,-140
2,9085746,-3463,-1625,-1065,-154,-232,-71,286,48,-140
2,9085752,-3463,-1625,-1065,-154,-232,-71,286,48,-140
2,9085757,-3463,-1625,-1065,-154,-232,-71,286,48,-140
2,9085762,-3457,-1625,-1062,-144,-227,-63,286,48,-140
2,9085767,-3457,-1625,-1062,-144,-227,-63,286,48,-140
2,9085772,-3457,-1625,-1062,-144,-227,-63,286,48,-140
2,9085777,-3457,-1625,-1062,-144,-227,-63,286,48,-140
2,9085785,-3459,-1631,-1061,-145,-234,-75,286,48,-140
2,9085791,-3459,-1631,-1061,-145,-234,-75,286,48,-140
2,9085798,-3459,-1631,-1061,-145,-234,-75,286,48,-140
2,9085805,-3454,-1629,-1059,-153,-236,-81,291,49,-141
2,9085811,-3454,-1629,-1059,-153,-236,-81,291,49,-141
2,9085819,-3458,-1631,-1060,-161,-240,-76,291,49,-141
2,9085827,-3458,-1631,-1060,-161,-240,-76,291,49,-141
2,9085834,-3458,-1631,-1060,-161,-240,-76,291,49,-141
2,9085841,-3459,-1625,-1078,-161,-233,-78,291,49,-141
2,9085847,-3459,-1625,-1078,-161,-233,-78,291,49,-141
2,9085854,-3459,-1625,-1078,-161,-233,-78,291,49,-141
2,9085862,-3459,-1627,-1060,-144,-235,-77,291,49,-141
2,9085872,-3459,-1627,-1060,-144,-235,-77,291,49,-141
2,9085880,-3462,-1629,-1062,-134,-237,-68,291,49,-141
2,9085887,-3462,-1629,-1062,-134,-237,-68,291,49,-141
2,9085894,-3462,-1629,-1062,-134,-237,-68,291,49,-141
2,9085900,-3457,-1630,-1062,-136,-233,-68,291,49,-141
2,9085906,-3457,-1630,-1062,-136,-233,-68,291,49,-141
2,9085914,-3457,-1630,-1062,-136,-233,-68,291,49,-141
2,9085922,-3456,-1631,-1051,-144,-234,-65,295,59,-139
2,9085929,-3456,-1631,-1051,-144,-234,-65,295,59,-139
2,9085936,-3456,-1631,-1051,-144,-234,-65,295,59,-139
2,9085942,-3457,-1626,-1061,-176,-237,-68,295,59,-139
2,9085950,-3457,-1626,-1061,-176,-237,-68,295,59,-139
2,9085957,-3457,-1626,-1061,-176,-237,-68,295,59,-139
2,9085964,-3459,-1627,-1063,-173,-238,-75,295,59,-139
2,9085971,-3459,-1627,-1063,-173,-238,-75,295,59,-139
2,9085977,-3459,-1627,-1063,-173,-238,-75,295,59,-139
2,9085985,-3462,-1624,-1064,-174,-226,-75,295,59,-139
2,9085992,-3462,-1624,-1064,-174,-226,-75,295,59,-139
2,9086001,-3463,-1630,-1067,-173,-229,-75,295,59,-139
2,9086008,-3463,-1630,-1067,-173,-229,-75,295,59,-139
2,9086016,-3463,-1630,-1067,-173,-229,-75,295,59,-139
2,9086022,-3463,-1625,-1062,-170,-235,-70,295,59,-139
2,9086029,-3463,-1625,-1062,-170,-235,-70,295,59,-139
2,9086035,-3463,-1625,-1062,-170,-235,-70,295,59,-139
2,9086044,-3462,-1627,-1056,-176,-233,-67,291,49,-141
2,9086051,-3462,-1627,-1056,-176,-233,-67,291,49,-141
2,9086057,-3462,-1627,-1056,-176,-233,-67,291,49,-141
2,9086065,-3463,-1625,-1067,-190,-230,-70,291,49,-141
2,9086072,-3463,-1625,-1067,-190,-230,-70,291,49,-141
2,9086081,-3461,-1628,-1063,-195,-235,-68,291,49,-141
2,9086089,-3461,-1628,-1063,-195,-235,-68,291,49,-141
2,9086096,-3461,-1628,-1063,-195,-235,-68,291,49,-141
2,9086100,-3461,-1628,-1064,-198,-230,-69,291,49,-141
2,9086105,-3461,-1628,-1064,-198,-230,-69,291,49,-141
2,9086110,-3461,-1628,-1064,-198,-230,-69,291,49,-141
2,9086115,-3461,-1628,-1064,-198,-230,-69,291,49,-141
2,9086121,-3459,-1624,-1077,-196,-237,-71,291,49,-141
2,9086127,-3459,-1624,-1077,-196,-237,-71,291,49,-141
2,9086132,-3459,-1624,-1077,-196,-237,-71,291,49,-141
2,9086137,-3459,-1624,-1077,-196,-237,-71,291,49,-141
2,9086144,-3462,-1624,-1062,-180,-228,-69,291,49,-141
2,9086152,-3462,-1624,-1062,-180,-228,-69,291,49,-141
2,9086159,-3461,-1627,-1060,-168,-223,-69,291,49,-141
2,9086167,-3461,-1627,-1060,-168,-223,-69,291,49,-141
2,9086174,-3461,-1627,-1060,-168,-223,-69,291,49,-141
2,9086181,-3461,-1626,-1061,-166,-236,-81,288,58,-144
2,9086187,-3461,-1626,-1061,-166,-236,-81,288,58,-144
2,9086192,-3461,-1626,-1061,-166,-236,-81,288,58,-144
2,9086198,-3461,-1626,-1061,-166,-236,-81,288,58,-144
2,9086208,-3460,-1627,-1056,-159,-232,-80,288,58,-144
2,9086215,-3460,-1627,-1056,-159,-232,-80,288,58,-144
2,9086229,-3458,-1625,-1068,-155,-234,-71,288,58,-144
2,9086243,-3459,-1627,-1063,-163,-234,-71,288,58,-144
2,9086253,-3459,-1627,-1063,-163,-234,-71,288,58,-144
2,9086264,-3458,-1628,-1065,-155,-227,-71,288,58,-144
2,9086277,-3458,-1628,-1065,-155,-227,-71,288,58,-144
2,9086290,-3465,-1626,-1068,-151,-235,-78,288,58,-144
2,9086301,-3463,-1624,-1067,-147,-231,-77,290,52,-146
2,9086312,-3463,-1624,-1067,-147,-231,-77,290,52,-146
2,9086321,-3463,-1630,-1055,-145,-228,-67,290,52,-146
2,9086332,-3463,-1630,-1055,-145,-228,-67,290,52,-146
2,9086345,-3460,-1628,-1068,-144,-229,-66,290,52,-146
2,9086357,-3460,-1628,-1068,-144,-229,-66,290,52,-146
2,9086368,-3459,-1626,-1072,-150,-231,-71,290,52,-146
2,9086381,-3457,-1624,-1066,-143,-232,-70,290,52,-146
2,9086394,-3457,-1624,-1066,-143,-232,-70,290,52,-146
2,9086406,-3462,-1623,-1068,-129,-237,-72,290,52,-146
2,9086418,-3462,-1623,-1068,-129,-237,-72,290,52,-146
2,9086430,-3464,-1627,-1062,-117,-237,-77,302,50,-140
2,9086444,-3466,-1627,-1062,-116,-236,-82,302,50,-140
2,9086456,-3466,-1627,-1062,-116,-236,-82,302,50,-140
2,9086469,-3467,-1630,-1069,-112,-230,-77,302,50,-140
2,9086482,-3459,-1630,-1059,-123,-226,-76,302,50,-140
2,9086494,-3459,-1630,-1059,-123,-226,-76,302,50,-140
2,9086508,-3459,-1634,-1045,-129,-232,-64,302,50,-140
2,9086520,-3455,-1632,-1073,-137,-233,-73,302,50,-140
2,9086532,-3455,-1632,-1073,-137,-233,-73,302,50,-140
2,9086544,-3453,-1629,-1059,-139,-235,-71,296,58,-140
2,9086558,-3453,-1629,-1059,-139,-235,-71,296,58,-140
2,9086568,-3462,-1626,-1053,-137,-234,-64,296,58,-140
2,9086580,-3465,-1629,-1061,-138,-235,-69,296,58,-140
2,9086589,-3465,-1629,-1061,-138,-235,-69,296,58,-140
2,9086601,-3468,-1632,-1055,-142,-226,-65,296,58,-140
2,9086614,-3468,-1632,-1055,-142,-226,-65,296,58,-140
2,9086629,-3458,-1633,-1064,-162,-233,-71,296,58,-140
2,9086638,-3458,-1633,-1064,-162,-233,-71,296,58,-140
2,9086650,-3456,-1631,-1054,-172,-227,-77,296,58,-140
2,9086664,-3460,-1632,-1045,-191,-227,-70,300,46,-144
2,9086679,-3460,-1632,-1045,-191,-227,-70,300,46,-144
2,9086690,-3455,-1623,-1070,-199,-234,-67,300,46,-144
2,9086701,-3457,-1628,-1053,-196,-235,-69,300,46,-144
2,9086714,-3457,-1628,-1053,-196,-235,-69,300,46,-144
2,9086725,-3464,-1626,-1064,-191,-229,-73,300,46,-144
2,9086736,-3464,-1626,-1064,-191,-229,-73,300,46,-144
2,9086748,-3460,-1633,-1063,-181,-233,-69,300,46,-144
2,9086756,-3460,-1633,-1063,-181,-233,-69,300,46,-144
2,9086764,-3461,-1624,-1074,-196,-232,-69,300,46,-144
2,9086773,-3461,-1624,-1074,-196,-232,-69,300,46,-144
2,9086784,-3459,-1631,-1072,-215,-236,-73,300,46,-144
2,9086791,-3459,-1631,-1072,-215,-236,-73,300,46,-144
2,9086799,-3461,-1629,-1056,-209,-229,-69,300,46,-144
2,9086808,-3461,-1629,-1056,-209,-229,-69,292,54,-144
2,9086819,-3461,-1629,-1056,-209,-229,-69,292,54,-144
2,9086834,-3460,-1623,-1073,-195,-235,-74,292,54,-144
2,9086845,-3461,-1629,-1078,-190,-235,-68,292,54,-144
2,9086858,-3461,-1629,-1078,-190,-235,-68,292,54,-144
2,9086871,-3467,-1623,-1072,-172,-234,-67,292,54,-144
2,9086885,-3469,-1625,-1068,-169,-241,-70,292,54,-144
2,9086898,-3469,-1625,-1068,-169,-241,-70,292,54,-144
2,9086910,-3462,-1628,-1069,-150,-236,-69,292,54,-144
2,9086923,-3467,-1626,-1066,-148,-224,-73,292,52,-142
2,9086936,-3467,-1626,-1066,-148,-224,-73,292,52,-142
2,9086948,-3455,-1629,-1057,-161,-231,-73,292,52,-142
2,9086962,-3460,-1625,-1068,-155,-228,-79,292,52,-142
2,9086976,-3460,-1625,-1068,-155,-228,-79,292,52,-142
2,9086988,-3456,-1623,-1064,-142,-234,-73,292,52,-142
2,9087001,-3461,-1632,-1061,-137,-232,-69,292,52,-142
2,9087013,-3461,-1632,-1061,-137,-232,-69,292,52,-142
2,9087026,-3468,-1627,-1070,-143,-229,-73,292,52,-142
2,9087036,-3468,-1627,-1070,-143,-229,-73,292,52,-142
2,9087049,-3464,-1628,-1052,-154,-229,-76,292,50,-136
2,9087058,-3464,-1628,-1052,-154,-229,-76,292,50,-136
2,9087070,-3462,-1626,-1063,-152,-228,-75,292,50,-136
2,9087083,-3460,-1629,-1067,-146,-234,-79,292,50,-136
2,9087096,-3460,-1629,-1067,-146,-234,-79,292,50,-136
2,9087105,-3460,-1631,-1062,-153,-246,-72,292,50,-136
2,9087113,-3460,-1631,-1062,-153,-246,-72,292,50,-136
2,9087121,-3458,-1629,-1065,-164,-242,-72,292,50,-136
2,9087129,-3458,-1629,-1065,-164,-242,-72,292,50,-136
2,9087136,-3458,-1629,-1065,-164,-242,-72,292,50,-136
2,9087144,-3465,-1630,-1065,-157,-232,-73,292,50,-136
2,9087153,-3465,-1630,-1065,-157,-232,-73,292,50,-136
2,9087161,-3462,-1632,-1074,-158,-227,-71,293,49,-149
2,9087169,-3462,-1632,-1074,-158,-227,-71,293,49,-149
2,9087176,-3462,-1632,-1074,-158,-227,-71,293,49,-149
2,9087184,-3464,-1630,-1054,-164,-235,-74,293,49,-149
2,9087195,-3464,-1630,-1054,-164,-235,-74,293,49,-149
2,9087207,-3471,-1632,-1045,-177,-236,-77,293,49,-149
2,9087220,-3471,-1632,-1045,-177,-236,-77,293,49,-149
2,9087228,-3452,-1632,-1081,-174,-237,-66,293,49,-149
2,9087236,-3452,-1632,-1081,-174,-237,-66,293,49,-149
2,9087243,-3453,-1628,-1054,-177,-235,-73,293,49,-149
2,9087250,-3453,-1628,-1054,-177,-235,-73,293,49,-149
2,9087257,-3453,-1628,-1054,-177,-235,-73,293,49,-149
2,9087264,-3461,-1628,-1061,-183,-238,-76,293,49,-149
2,9087271,-3461,-1628,-1061,-183,-238,-76,293,49,-149
2,9087279,-3461,-1628,-1061,-183,-238,-76,293,49,-149
2,9087286,-3456,-1631,-1073,-178,-239,-66,292,56,-140
2,9087291,-3456,-1631,-1073,-178,-239,-66,292,56,-140
2,9087299,-3456,-1631,-1073,-178,-239,-66,292,56,-140
2,9087307,-3470,-1626,-1057,-171,-235,-71,292,56,-140
2,9087313,-3470,-1626,-1057,-171,-235,-71,292,56,-140
2,9087321,-3463,-1631,-1069,-167,-231,-76,292,56,-140
2,9087328,-3463,-1631,-1069,-167,-231,-76,292,56,-140
2,9087334,-3463,-1631,-1069,-167,-231,-76,292,56,-140
2,9087340,-3463,-1631,-1069,-167,-231,-76,292,56,-140
2,9087345,-3469,-1627,-1071,-169,-237,-65,292,56,-140
2,9087351,-3469,-1627,-1071,-169,-237,-65,292,56,-140
2,9087356,-3469,-1627,-1071,-169,-237,-65,292,56,-140
2,9087364,-3461,-1627,-1055,-172,-242,-70,292,56,-140
2,9087371,-3461,-1627,-1055,-172,-242,-70,292,56,-140
2,9087378,-3461,-1627,-1055,-172,-242,-70,292,56,-140
2,9087384,-3463,-1629,-1074,-168,-239,-67,292,56,-140
2,9087389,-3463,-1629,-1074,-168,-239,-67,292,56,-140
2,9087397,-3463,-1629,-1074,-168,-239,-67,292,56,-140
2,9087405,-3461,-1629,-1065,-161,-237,-73,292,56,-140
2,9087413,-3461,-1629,-1065,-161,-237,-73,292,56,-140
2,9087419,-3461,-1629,-1065,-161,-237,-73,292,56,-140
2,9087425,-3462,-1626,-1056,-171,-239,-72,302,58,-146
2,9087432,-3462,-1626,-1056,-171,-239,-72,302,58,-146
2,9087439,-3462,-1626,-1056,-171,-239,-72,302,58,-146
2,9087448,-3466,-1623,-1067,-177,-237,-68,302,58,-146
2,9087455,-3466,-1623,-1067,-177,-237,-68,302,58,-146
2,9087462,-3462,-1628,-1071,-166,-240,-71,302,58,-146
2,9087468,-3462,-1628,-1071,-166,-240,-71,302,58,-146
2,9087473,-3462,-1628,-1071,-166,-240,-71,302,58,-146
2,9087481,-3469,-1624,-1073,-149,-243,-70,302,58,-146
2,9087489,-3469,-1624,-1073,-149,-243,-70,302,58,-146
2,9087497,-3469,-1624,-1073,-149,-243,-70,302,58,-146
2,9087505,-3465,-1624,-1062,-140,-236,-70,302,58,-146
2,9087512,-3465,-1624,-1062,-140,-236,-70,302,58,-146
2,9087519,-3465,-1624,-1062,-140,-236,-70,302,58,-146
2,9087526,-3462,-1630,-1062,-141,-229,-72,302,58,-146
2,9087533,-3462,-1630,-1062,-141,-229,-72,302,58,-146
2,9087540,-3462,-1630,-1062,-141,-229,-72,302,58,-146
2,9087547,-3461,-1634,-1072,-156,-235,-70,296,56,-136
2,9087555,-3461,-1634,-1072,-156,-235,-70,296,56,-136
2,9087562,-3466,-1623,-1070,-176,-230,-68,296,56,-136
2,9087569,-3466,-1623,-1070,-176,-230,-68,296,56,-136
2,9087576,-3466,-1623,-1070,-176,-230,-68,296,56,-136
2,9087583,-3466,-1627,-1056,-170,-242,-72,296,56,-136
2,9087591,-3466,-1627,-1056,-170,-242,-72,296,56,-136
2,9087597,-3466,-1627,-1056,-170,-242,-72,296,56,-136
2,9087604,-3468,-1634,-1064,-168,-240,-70,296,56,-136
2,9087610,-3468,-1634,-1064,-168,-240,-70,296,56,-136
2,9087618,-3468,-1634,-1064,-168,-240,-70,296,56,-136
2,9087626,-3463,-1623,-1081,-167,-239,-60,296,56,-136
2,9087633,-3463,-1623,-1081,-167,-239,-60,296,56,-136
2,9087641,-3467,-1629,-1060,-160,-245,-73,296,56,-136
2,9087647,-3467,-1629,-1060,-160,-245,-73,296,56,-136
2,9087654,-3467,-1629,-1060,-160,-245,-73,296,56,-136
2,9087662,-3462,-1630,-1070,-154,-245,-69,295,49,-147
2,9087669,-3462,-1630,-1070,-154,-245,-69,295,49,-147
2,9087676,-3462,-1630,-1070,-154,-245,-69,295,49,-147
2,9087683,-3464,-1631,-1063,-160,-239,-70,295,49,-147
2,9087690,-3464,-1631,-1063,-160,-239,-70,295,49,-147
2,9087698,-3464,-1631,-1063,-160,-239,-70,295,49,-147
2,9087707,-3468,-1623,-1065,-162,-242,-71,295,49,-147
2,9087714,-3468,-1623,-1065,-162,-242,-71,295,49,-147
2,9087723,-3466,-1624,-1068,-156,-246,-65,295,49,-147
2,9087729,-3466,-1624,-1068,-156,-246,-65,295,49,-147
2,9087735,-3466,-1624,-1068,-156,-246,-65,295,49,-147
2,9087741,-3466,-1628,-1061,-149,-241,-70,295,49,-147
2,9087749,-3466,-1628,-1061,-149,-241,-70,295,49,-147
2,9087754,-3466,-1628,-1061,-149,-241,-70,295,49,-147
2,9087759,-3466,-1628,-1061,-149,-241,-70,295,49,-147
2,9087764,-3470,-1629,-1076,-151,-227,-70,295,49,-147
2,9087770,-3470,-1629,-1076,-151,-227,-70,295,49,-147
2,9087775,-3470,-1629,-1076,-151,-227,-70,295,49,-147
2,9087779,-3470,-1629,-1076,-151,-227,-70,295,49,-147
2,9087785,-3469,-1624,-1064,-139,-240,-64,303,51,-149
2,9087793,-3469,-1624,-1064,-139,-240,-64,303,51,-149
2,9087801,-3465,-1625,-1052,-138,-243,-72,303,51,-149
2,9087807,-3465,-1625,-1052,-138,-243,-72,303,51,-149
2,9087816,-3465,-1625,-1052,-138,-243,-72,303,51,-149
2,9087823,-3462,-1625,-1071,-142,-243,-64,303,51,-149
2,9087832,-3462,-1625,-1071,-142,-243,-64,303,51,-149
2,9087838,-3462,-1625,-1071,-142,-243,-64,303,51,-149
2,9087845,-3464,-1628,-1065,-141,-242,-58,303,51,-149
2,9087851,-3464,-1628,-1065,-141,-242,-58,303,51,-149
2,9087859,-3464,-1628,-1065,-141,-242,-58,303,51,-149
2,9087866,-3462,-1626,-1075,-138,-237,-68,303,51,-149
2,9087873,-3462,-1626,-1075,-138,-237,-68,303,51,-149
2,9087879,-3462,-1626,-1075,-138,-237,-68,303,51,-149
2,9087886,-3464,-1627,-1071,-121,-241,-69,303,51,-149
2,9087893,-3464,-1627,-1071,-121,-241,-69,303,51,-149
2,9087900,-3464,-1627,-1071,-121,-241,-69,303,51,-149
2,9087906,-3464,-1626,-1059,-112,-248,-68,304,50,-148
2,9087916,-3464,-1626,-1059,-112,-248,-68,304,50,-148
2,9087923,-3470,-1619,-1080,-96,-252,-70,304,50,-148
2,9087929,-3470,-1619,-1080,-96,-252,-70,304,50,-148
2,9087936,-3470,-1619,-1080,-96,-252,-70,304,50,-148
2,9087944,-3466,-1620,-1073,-73,-237,-67,304,50,-148
2,9087950,-3466,-1620,-1073,-73,-237,-67,304,50,-148
2,9087958,-3466,-1620,-1073,-73,-237,-67,304,50,-148
2,9087966,-3463,-1627,-1056,-52,-239,-72,304,50,-148
2,9087974,-3463,-1627,-1056,-52,-239,-72,304,50,-148
2,9087982,-3463,-1623,-1071,-44,-239,-69,304,50,-148
2,9087988,-3463,-1623,-1071,-44,-239,-69,304,50,-148
2,9087996,-3463,-1623,-1071,-44,-239,-69,304,50,-148
2,9088004,-3462,-1625,-1059,-41,-240,-75,304,50,-148
2,9088011,-3462,-1625,-1059,-41,-240,-75,304,50,-148
2,9088019,-3462,-1625,-1059,-41,-240,-75,304,50,-148
2,9088025,-3461,-1625,-1069,-20,-232,-72,304,50,-148
2,9088034,-3461,-1625,-1069,-20,-232,-72,304,50,-148
2,9088041,-3471,-1630,-1072,-5,-238,-70,310,56,-146
2,9088050,-3471,-1630,-1072,-5,-238,-70,310,56,-146
2,9088056,-3471,-1630,-1072,-5,-238,-70,310,56,-146
2,9088063,-3477,-1631,-1067,1,-250,-66,310,56,-146
2,9088069,-3477,-1631,-1067,1,-250,-66,310,56,-146
2,9088077,-3477,-1631,-1067,1,-250,-66,310,56,-146
2,9088084,-3466,-1626,-1066,16,-237,-67,310,56,-146
2,9088092,-3466,-1626,-1066,16,-237,-67,310,56,-146
2,9088097,-3466,-1626,-1066,16,-237,-67,310,56,-146
2,9088102,-3461,-1627,-1048,23,-240,-67,310,56,-146
2,9088108,-3461,-1627,-1048,23,-240,-67,310,56,-146
2,9088113,-3461,-1627,-1048,23,-240,-67,310,56,-146
2,9088118,-3461,-1627,-1048,23,-240,-67,310,56,-146
2,9088123,-3464,-1631,-1050,22,-239,-74,310,56,-146
2,9088129,-3464,-1631,-1050,22,-239,-74,310,56,-146
2,9088134,-3464,-1631,-1050,22,-239,-74,310,56,-146
2,9088140,-3464,-1631,-1050,22,-239,-74,310,56,-146
2,9088147,-3469,-1633,-1065,8,-239,-68,310,56,-146
2,9088154,-3469,-1633,-1065,8,-239,-68,310,56,-146
2,9088161,-3468,-1631,-1053,5,-234,-67,307,51,-147
2,9088167,-3468,-1631,-1053,5,-234,-67,307,51,-147
2,9088175,-3468,-1631,-1053,5,-234,-67,307,51,-147
2,9088183,-3464,-1630,-1046,-1,-240,-61,307,51,-147
2,9088190,-3464,-1630,-1046,-1,-240,-61,307,51,-147
2,9088196,-3464,-1630,-1046,-1,-240,-61,307,51,-147
2,9088203,-3461,-1637,-1042,-20,-236,-65,307,51,-147
2,9088211,-3461,-1637,-1042,-20,-236,-65,307,51,-147
2,9088218,-3461,-1637,-1042,-20,-236,-65,307,51,-147
2,9088223,-3469,-1635,-1050,-49,-239,-69,307,51,-147
2,9088229,-3469,-1635,-1050,-49,-239,-69,307,51,-147
2,9088238,-3469,-1635,-1050,-49,-239,-69,307,51,-147
2,9088247,-3465,-1629,-1058,-65,-237,-70,307,51,-147
2,9088259,-3465,-1629,-1058,-65,-237,-70,307,51,-147
2,9088273,-3470,-1628,-1072,-54,-239,-73,307,51,-147
2,9088286,-3461,-1629,-1050,-44,-241,-71,305,49,-135
2,9088296,-3461,-1629,-1050,-44,-241,-71,305,49,-135
2,9088309,-3467,-1630,-1042,-34,-247,-69,305,49,-135
2,9088324,-3466,-1627,-1048,-25,-236,-61,305,49,-135
2,9088337,-3466,-1627,-1048,-25,-236,-61,305,49,-135
2,9088347,-3472,-1630,-1050,-15,-238,-61,305,49,-135
2,9088359,-3472,-1630,-1050,-15,-238,-61,305,49,-135
2,9088371,-3473,-1632,-1068,1,-245,-66,305,49,-135
2,9088384,-3479,-1628,-1071,17,-234,-74,305,49,-135
2,9088396,-3479,-1628,-1071,17,-234,-74,305,49,-135
2,9088407,-3458,-1627,-1043,38,-239,-66,303,57,-145
2,9088416,-3458,-1627,-1043,38,-239,-66,303,57,-145
2,9088428,-3461,-1628,-1039,61,-242,-67,303,57,-145
2,9088441,-3461,-1628,-1039,61,-242,-67,303,57,-145
2,9088454,-3460,-1632,-1063,85,-231,-75,303,57,-145
2,9088464,-3466,-1629,-1052,119,-231,-72,303,57,-145
2,9088476,-3466,-1629,-1052,119,-231,-72,303,57,-145
2,9088490,-3466,-1629,-1036,146,-237,-67,303,57,-145
2,9088504,-3471,-1630,-1058,167,-234,-68,303,57,-145
2,9088514,-3471,-1630,-1058,167,-234,-68,303,57,-145
2,9088527,-3467,-1637,-1033,169,-238,-71,307,55,-145
2,9088540,-3467,-1637,-1033,169,-238,-71,307,55,-145
2,9088555,-3472,-1634,-1039,182,-242,-73,307,55,-145
2,9088564,-3473,-1631,-1036,203,-239,-73,307,55,-145
2,9088577,-3473,-1631,-1036,203,-239,-73,307,55,-145
2,9088589,-3472,-1633,-1034,222,-234,-71,307,55,-145
2,9088603,-3473,-1643,-1026,234,-234,-70,307,55,-145
2,9088614,-3473,-1643,-1026,234,-234,-70,307,55,-145
2,9088626,-3461,-1650,-1027,208,-235,-69,307,55,-145
2,9088638,-3461,-1650,-1027,208,-235,-69,307,55,-145
2,9088652,-3461,-1650,-1027,208,-235,-69,307,55,-145
2,9088663,-3460,-1641,-1018,125,-247,-70,308,56,-152
2,9088677,-3460,-1641,-1018,125,-247,-70,308,56,-152
2,9088690,-3462,-1648,-999,105,-241,-70,308,56,-152
2,9088704,-3474,-1643,-1010,85,-236,-67,308,56,-152
2,9088717,-3474,-1643,-1010,85,-236,-67,308,56,-152
2,9088731,-3472,-1641,-1035,63,-234,-70,308,56,-152
2,9088742,-3472,-1637,-1022,67,-239,-70,308,56,-152
2,9088752,-3472,-1637,-1022,67,-239,-70,308,56,-152
2,9088760,-3472,-1637,-1022,67,-239,-70,308,56,-152
2,9088769,-3467,-1637,-1013,71,-243,-67,308,56,-152
2,9088777,-3467,-1637,-1013,71,-243,-67,308,56,-152
2,9088787,-3469,-1639,-1020,78,-241,-62,306,48,-148
2,9088797,-3469,-1639,-1020,78,-241,-62,306,48,-148
2,9088809,-3466,-1638,-1017,89,-242,-67,306,48,-148
2,9088824,-3471,-1635,-1018,98,-237,-64,306,48,-148
2,9088833,-3471,-1635,-1018,98,-237,-64,306,48,-148
2,9088845,-3473,-1642,-1008,107,-232,-70,306,48,-148
2,9088858,-3473,-1642,-1008,107,-232,-70,306,48,-148
2,9088870,-3469,-1641,-1010,123,-232,-70,306,48,-148
2,9088882,-3471,-1641,-1016,130,-232,-72,306,48,-148
2,9088897,-3471,-1641,-1016,130,-232,-72,306,48,-148
2,9088909,-3471,-1641,-1016,130,-232,-72,309,59,-147
2,9088918,-3471,-1641,-1016,130,-232,-72,309,59,-147
2,9088930,-3469,-1643,-1005,136,-238,-67,309,59,-147
2,9088944,-3470,-1643,-1015,129,-242,-63,309,59,-147
2,9088954,-3470,-1643,-1015,129,-242,-63,309,59,-147
2,9088965,-3464,-1644,-1006,138,-238,-62,309,59,-147
2,9088978,-3464,-1644,-1006,138,-238,-62,309,59,-147
2,9088994,-3465,-1639,-1009,152,-226,-72,309,59,-147
2,9089005,-3463,-1642,-1002,174,-239,-65,309,59,-147
2,9089017,-3463,-1642,-1002,174,-239,-65,309,59,-147
2,9089031,-3471,-1635,-999,203,-235,-66,305,53,-147
2,9089044,-3474,-1638,-1005,221,-231,-63,305,53,-147
2,9089056,-3474,-1638,-1005,221,-231,-63,305,53,-147
2,9089067,-3476,-1641,-997,233,-239,-70,305,53,-147
2,9089080,-3476,-1641,-997,233,-239,-70,305,53,-147
2,9089093,-3472,-1646,-1001,223,-240,-73,305,53,-147
2,9089101,-3467,-1646,-988,222,-239,-62,305,53,-147
2,9089110,-3467,-1646,-988,222,-239,-62,305,53,-147
2,9089118,-3467,-1646,-988,222,-239,-62,305,53,-147
2,9089126,-3462,-1637,-982,228,-241,-70,305,53,-147
2,9089135,-3462,-1637,-982,228,-241,-70,305,53,-147
2,9089143,-3466,-1645,-977,241,-239,-72,317,55,-129
2,9089152,-3466,-1645,-977,241,-239,-72,317,55,-129
2,9089159,-3466,-1645,-977,241,-239,-72,317,55,-129
2,9089168,-3474,-1643,-978,242,-243,-70,317,55,-129
2,9089176,-3474,-1643,-978,242,-243,-70,317,55,-129
2,9089185,-3486,-1649,-979,245,-245,-73,317,55,-129
2,9089196,-3486,-1649,-979,245,-245,-73,317,55,-129
2,9089211,-3482,-1653,-970,240,-232,-69,317,55,-129
2,9089220,-3482,-1653,-970,240,-232,-69,317,55,-129
2,9089231,-3466,-1654,-967,217,-233,-65,317,55,-129
2,9089243,-3470,-1655,-956,172,-238,-70,317,55,-129
2,9089251,-3470,-1655,-956,172,-238,-70,317,55,-129
2,9089257,-3470,-1655,-956,172,-238,-70,317,55,-129
2,9089264,-3464,-1647,-965,150,-239,-70,312,54,-142
2,9089272,-3464,-1647,-965,150,-239,-70,312,54,-142
2,9089280,-3464,-1647,-965,150,-239,-70,312,54,-142
2,9089285,-3472,-1650,-962,153,-241,-72,312,54,-142
2,9089291,-3472,-1650,-962,153,-241,-72,312,54,-142
2,9089298,-3472,-1650,-962,153,-241,-72,312,54,-142
2,9089306,-3472,-1647,-982,154,-242,-70,312,54,-142
2,9089313,-3472,-1647,-982,154,-242,-70,312,54,-142
2,9089318,-3472,-1647,-982,154,-242,-70,312,54,-142
2,9089327,-3480,-1649,-980,163,-242,-75,312,54,-142
2,9089334,-3480,-1649,-980,163,-242,-75,312,54,-142
2,9089341,-3480,-1649,-980,163,-242,-75,312,54,-142
2,9089347,-3477,-1649,-967,173,-239,-70,312,54,-142
2,9089356,-3477,-1649,-967,173,-239,-70,312,54,-142
2,9089363,-3481,-1656,-956,181,-242,-72,312,54,-142
2,9089370,-3481,-1656,-956,181,-242,-72,312,54,-142
2,9089377,-3481,-1656,-956,181,-242,-72,312,54,-142
2,9089385,-3476,-1658,-958,165,-234,-70,312,54,-142
2,9089391,-3476,-1658,-958,165,-234,-70,312,54,-142
2,9089398,-3476,-1658,-958,165,-234,-70,312,54,-142
2,9089404,-3475,-1650,-967,163,-236,-74,311,59,-139
2,9089411,-3475,-1650,-967,163,-236,-74,311,59,-139
2,9089417,-3475,-1650,-967,163,-236,-74,311,59,-139
2,9089424,-3467,-1651,-950,163,-240,-74,311,59,-139
2,9089432,-3467,-1651,-950,163,-240,-74,311,59,-139
2,9089440,-3467,-1651,-950,163,-240,-74,311,59,-139
2,9089447,-3466,-1651,-949,154,-240,-73,311,59,-139
2,9089453,-3466,-1651,-949,154,-240,-73,311,59,-139
2,9089458,-3466,-1651,-949,154,-240,-73,311,59,-139
2,9089463,-3466,-1651,-949,154,-240,-73,311,59,-139
2,9089468,-3466,-1651,-949,154,-240,-73,311,59,-139
2,9089475,-3466,-1651,-949,154,-240,-73,311,59,-139
2,9089482,-3474,-1652,-972,169,-247,-72,311,59,-139
2,9089491,-3474,-1652,-972,169,-247,-72,311,59,-139
2,9089498,-3474,-1652,-972,169,-247,-72,311,59,-139
2,9089504,-3467,-1653,-955,192,-245,-69,311,59,-139
2,9089510,-3467,-1653,-955,192,-245,-69,311,59,-139
2,9089517,-3467,-1653,-955,192,-245,-69,311,59,-139
2,9089524,-3475,-1654,-969,220,-240,-75,306,50,-134
2,9089531,-3475,-1654,-969,220,-240,-75,306,50,-134
2,9089541,-3475,-1654,-969,220,-240,-75,306,50,-134
2,9089547,-3459,-1648,-945,256,-234,-71,306,50,-134
2,9089555,-3459,-1648,-945,256,-234,-71,306,50,-134
2,9089561,-3459,-1648,-945,256,-234,-71,306,50,-134
2,9089567,-3465,-1659,-931,274,-235,-71,306,50,-134
2,9089574,-3465,-1659,-931,274,-235,-71,306,50,-134
2,9089583,-3474,-1652,-954,280,-242,-65,306,50,-134
2,9089590,-3474,-1652,-954,280,-242,-65,306,50,-134
2,9089597,-3474,-1652,-954,280,-242,-65,306,50,-134
2,9089603,-3471,-1658,-927,277,-237,-72,306,50,-134
2,9089610,-3471,-1658,-927,277,-237,-72,306,50,-134
2,9089617,-3471,-1658,-927,277,-237,-72,306,50,-134
2,9089624,-3471,-1654,-945,263,-240,-71,306,50,-134
2,9089631,-3471,-1654,-945,263,-240,-71,306,50,-134
2,9089637,-3471,-1654,-945,263,-240,-71,306,50,-134
2,9089645,-3480,-1659,-934,263,-238,-73,310,48,-134
2,9089651,-3480,-1659,-934,263,-238,-73,310,48,-134
2,9089659,-3480,-1659,-934,263,-238,-73,310,48,-134
2,9089666,-3472,-1659,-900,263,-243,-74,310,48,-134
2,9089674,-3472,-1659,-900,263,-243,-74,310,48,-134
2,9089681,-3472,-1659,-900,263,-243,-74,310,48,-134
2,9089688,-3480,-1656,-937,256,-238,-73,310,48,-134
2,9089695,-3480,-1656,-937,256,-238,-73,310,48,-134
2,9089701,-3480,-1656,-937,256,-238,-73,310,48,-134
2,9089710,-3459,-1662,-917,252,-245,-70,310,48,-134
2,9089717,-3459,-1662,-917,252,-245,-70,310,48,-134
2,9089723,-3475,-1670,-907,251,-243,-66,310,48,-134
2,9089729,-3475,-1670,-907,251,-243,-66,310,48,-134
2,9089736,-3475,-1670,-907,251,-243,-66,310,48,-134
2,9089743,-3477,-1662,-926,209,-238,-70,310,48,-134
2,9089750,-3477,-1662,-926,209,-238,-70,310,48,-134
2,9089755,-3477,-1662,-926,209,-238,-70,310,48,-134
2,9089760,-3477,-1662,-926,209,-238,-70,310,48,-134
2,9089765,-3469,-1666,-894,168,-252,-69,310,54,-142
2,9089770,-3469,-1666,-894,168,-252,-69,310,54,-142
2,9089775,-3469,-1666,-894,168,-252,-69,310,54,-142
2,9089780,-3469,-1666,-894,168,-252,-69,310,54,-142
2,9089786,-3483,-1660,-925,143,-247,-72,310,54,-142
2,9089794,-3483,-1660,-925,143,-247,-72,310,54,-142
2,9089802,-3483,-1660,-925,143,-247,-72,310,54,-142
2,9089809,-3468,-1661,-903,140,-244,-70,310,54,-142
2,9089816,-3468,-1661,-903,140,-244,-70,310,54,-142
2,9089822,-3468,-1661,-903,140,-244,-70,310,54,-142
2,9089828,-3474,-1661,-932,153,-239,-67,310,54,-142
2,9089835,-3474,-1661,-932,153,-239,-67,310,54,-142
2,9089843,-3463,-1655,-916,159,-241,-64,310,54,-142
2,9089850,-3463,-1655,-916,159,-241,-64,310,54,-142
2,9089859,-3463,-1655,-916,159,-241,-64,310,54,-142
2,9089866,-3478,-1665,-900,161,-241,-64,310,54,-142
2,9089872,-3478,-1665,-900,161,-241,-64,310,54,-142
2,9089880,-3478,-1665,-900,161,-241,-64,310,54,-142
2,9089888,-3464,-1664,-907,136,-237,-65,312,58,-132
2,9089894,-3464,-1664,-907,136,-237,-65,312,58,-132
2,9089901,-3464,-1664,-907,136,-237,-65,312,58,-132
2,9089908,-3479,-1666,-909,116,-241,-67,312,58,-132
2,9089915,-3479,-1666,-909,116,-241,-67,312,58,-132
2,9089923,-3474,-1663,-917,111,-242,-77,312,58,-132
2,9089930,-3474,-1663,-917,111,-242,-77,312,58,-132
2,9089938,-3474,-1663,-917,111,-242,-77,312,58,-132
2,9089944,-3470,-1660,-883,117,-236,-69,312,58,-132
2,9089953,-3470,-1660,-883,117,-236,-69,312,58,-132
2,9089959,-3470,-1660,-883,117,-236,-69,312,58,-132
2,9089967,-3480,-1665,-929,115,-242,-76,312,58,-132
2,9089972,-3480,-1665,-929,115,-242,-76,312,58,-132
2,9089980,-3480,-1665,-929,115,-242,-76,312,58,-132
2,9089988,-3463,-1655,-890,119,-239,-67,312,58,-132
2,9089995,-3463,-1655,-890,119,-239,-67,312,58,-132
2,9090002,-3463,-1655,-890,119,-239,-67,312,58,-132
2,9090008,-3462,-1660,-901,149,-243,-74,312,58,-132
2,9090013,-3462,-1660,-901,149,-243,-74,312,58,-132
2,9090018,-3462,-1660,-901,149,-243,-74,312,58,-132
2,9090023,-3481,-1660,-947,171,-247,-80,305,47,-125
2,9090031,-3481,-1660,-947,171,-247,-80,305,47,-125
2,9090038,-3481,-1660,-947,171,-247,-80,305,47,-125
2,9090044,-3465,-1656,-880,192,-254,-74,305,47,-125
2,9090052,-3465,-1656,-880,192,-254,-74,305,47,-125
2,9090058,-3465,-1656,-880,192,-254,-74,305,47,-125
2,9090065,-3470,-1667,-897,218,-245,-74,305,47,-125
2,9090071,-3470,-1667,-897,218,-245,-74,305,47,-125
2,9090078,-3470,-1667,-897,218,-245,-74,305,47,-125
2,9090085,-3477,-1664,-930,230,-252,-65,305,47,-125
2,9090094,-3477,-1664,-930,230,-252,-65,305,47,-125
2,9090099,-3477,-1664,-930,230,-252,-65,305,47,-125
2,9090105,-3473,-1664,-857,246,-248,-67,305,47,-125
2,9090109,-3473,-1664,-857,246,-248,-67,305,47,-125
2,9090114,-3473,-1664,-857,246,-248,-67,305,47,-125
2,9090120,-3473,-1664,-857,246,-248,-67,305,47,-125
2,9090125,-3472,-1664,-918,242,-240,-72,305,47,-125
2,9090130,-3472,-1664,-918,242,-240,-72,305,47,-125
2,9090136,-3472,-1664,-918,242,-240,-72,305,47,-125
2,9090144,-3478,-1666,-898,232,-241,-71,319,51,-131
2,9090151,-3478,-1666,-898,232,-241,-71,319,51,-131
2,9090157,-3478,-1666,-898,232,-241,-71,319,51,-131
2,9090165,-3469,-1663,-856,223,-245,-71,319,51,-131
2,9090172,-3469,-1663,-856,223,-245,-71,319,51,-131
2,9090180,-3469,-1663,-856,223,-245,-71,319,51,-131
2,9090187,-3462,-1667,-900,239,-238,-72,319,51,-131
2,9090194,-3462,-1667,-900,239,-238,-72,319,51,-131
2,9090201,-3462,-1667,-900,239,-238,-72,319,51,-131
2,9090208,-3464,-1675,-869,259,-243,-66,319,51,-131
2,9090216,-3464,-1675,-869,259,-243,-66,319,51,-131
2,9090224,-3464,-1677,-865,271,-246,-61,319,51,-131
2,9090231,-3464,-1677,-865,271,-246,-61,319,51,-131
2,9090237,-3464,-1677,-865,271,-246,-61,319,51,-131
2,9090245,-3457,-1675,-895,262,-246,-61,319,51,-131
2,9090256,-3457,-1675,-895,262,-246,-61,319,51,-131
2,9090269,-3456,-1676,-847,252,-243,-73,309,49,-121
2,9090282,-3456,-1676,-847,252,-243,-73,309,49,-121
2,9090295,-3465,-1669,-868,238,-238,-65,309,49,-121
2,9090307,-3458,-1670,-880,225,-246,-71,309,49,-121
2,9090319,-3458,-1670,-880,225,-246,-71,309,49,-121
2,9090333,-3470,-1673,-847,223,-247,-71,309,49,-121
2,9090347,-3466,-1669,-876,219,-247,-75,309,49,-121
2,9090357,-3466,-1669,-876,219,-247,-75,309,49,-121
2,9090369,-3475,-1669,-865,212,-245,-78,309,49,-121
2,9090382,-3475,-1669,-865,212,-245,-78,309,49,-121
2,9090395,-3475,-1670,-857,200,-235,-77,309,55,-123
2,9090407,-3478,-1671,-858,190,-242,-71,309,55,-123
2,9090419,-3478,-1671,-858,190,-242,-71,309,55,-123
2,9090433,-3478,-1669,-844,166,-245,-71,309,55,-123
2,9090446,-3478,-1669,-860,163,-243,-71,309,55,-123
2,9090457,-3478,-1669,-860,163,-243,-71,309,55,-123
2,9090470,-3471,-1669,-862,169,-247,-74,309,55,-123
2,9090483,-3469,-1673,-837,179,-246,-76,309,55,-123
2,9090496,-3469,-1673,-837,179,-246,-76,309,55,-123
2,9090506,-3469,-1677,-850,179,-241,-75,320,56,-116
2,9090522,-3469,-1677,-850,179,-241,-75,320,56,-116
2,9090534,-3468,-1672,-852,174,-240,-73,320,56,-116
2,9090546,-3473,-1670,-847,180,-239,-73,320,56,-116
2,9090560,-3473,-1670,-847,180,-239,-73,320,56,-116
2,9090573,-3472,-1673,-853,174,-244,-69,320,56,-116
2,9090584,-3481,-1672,-840,170,-248,-66,320,56,-116
2,9090597,-3481,-1672,-840,170,-248,-66,320,56,-116
2,9090611,-3487,-1668,-849,160,-250,-61,320,56,-116
2,9090623,-3478,-1670,-853,167,-249,-64,320,56,-116
2,9090636,-3478,-1670,-853,167,-249,-64,320,56,-116
2,9090644,-3475,-1673,-818,185,-247,-72,313,57,-125
2,9090653,-3475,-1673,-818,185,-247,-72,313,57,-125
2,9090661,-3475,-1673,-818,185,-247,-72,313,57,-125
2,9090670,-3471,-1670,-836,200,-240,-76,313,57,-125
2,9090678,-3471,-1670,-836,200,-240,-76,313,57,-125
2,9090690,-3470,-1670,-845,212,-243,-76,313,57,-125
2,9090702,-3470,-1670,-845,212,-243,-76,313,57,-125
2,9090715,-3475,-1668,-830,230,-242,-71,313,57,-125
2,9090727,-3478,-1669,-834,231,-243,-69,313,57,-125
2,9090740,-3478,-1669,-834,231,-243,-69,313,57,-125
2,9090752,-3477,-1673,-825,239,-243,-75,313,57,-125
2,9090760,-3477,-1673,-825,239,-243,-75,313,57,-125
2,9090768,-3479,-1674,-831,238,-241,-69,315,49,-125
2,9090777,-3479,-1674,-831,238,-241,-69,315,49,-125
2,9090790,-3473,-1676,-824,257,-243,-72,315,49,-125
2,9090802,-3473,-1676,-824,257,-243,-72,315,49,-125
2,9090814,-3477,-1678,-812,257,-242,-78,315,49,-125
2,9090828,-3475,-1679,-813,249,-245,-84,315,49,-125
2,9090842,-3475,-1679,-813,249,-245,-84,315,49,-125
2,9090855,-3470,-1677,-806,240,-246,-77,315,49,-125
2,9090870,-3477,-1676,-810,226,-243,-77,315,49,-125
2,9090884,-3469,-1677,-798,226,-235,-76,322,56,-122
2,9090893,-3469,-1677,-798,226,-235,-76,322,56,-122
2,9090907,-3474,-1678,-804,217,-243,-75,322,56,-122
2,9090920,-3474,-1678,-804,217,-243,-75,322,56,-122
2,9090934,-3479,-1681,-802,195,-243,-76,322,56,-122
2,9090944,-3475,-1682,-796,183,-245,-80,322,56,-122
2,9090956,-3475,-1682,-796,183,-245,-80,322,56,-122
2,9090967,-3475,-1676,-799,163,-246,-76,322,56,-122
2,9090980,-3475,-1676,-799,163,-246,-76,322,56,-122
2,9090992,-3476,-1677,-806,167,-242,-74,322,56,-122
2,9091007,-3478,-1678,-811,173,-250,-74,313,55,-117
2,9091019,-3478,-1678,-811,173,-250,-74,313,55,-117
2,9091033,-3477,-1678,-786,178,-251,-74,313,55,-117
2,9091047,-3477,-1680,-792,179,-245,-72,313,55,-117
2,9091059,-3477,-1680,-792,179,-245,-72,313,55,-117
2,9091072,-3471,-1676,-800,178,-249,-71,313,55,-117
2,9091086,-3474,-1678,-791,176,-239,-79,313,55,-117
2,9091096,-3474,-1678,-791,176,-239,-79,313,55,-117
2,9091104,-3475,-1677,-784,176,-236,-76,313,55,-117
2,9091112,-3475,-1677,-784,176,-236,-76,313,55,-117
2,9091122,-3475,-1677,-784,176,-236,-76,313,55,-117
2,9091130,-3471,-1677,-790,185,-246,-74,314,54,-118
2,9091138,-3471,-1677,-790,185,-246,-74,314,54,-118
2,9091146,-3470,-1677,-798,195,-243,-74,314,54,-118
2,9091154,-3470,-1677,-798,195,-243,-74,314,54,-118
2,9091163,-3470,-1677,-798,195,-243,-74,314,54,-118
2,9091171,-3470,-1676,-796,204,-239,-70,314,54,-118
2,9091179,-3470,-1676,-796,204,-239,-70,314,54,-118
2,9091187,-3479,-1676,-774,228,-241,-74,314,54,-118
2,9091196,-3479,-1676,-774,228,-241,-74,314,54,-118
2,9091206,-3478,-1679,-783,244,-245,-71,314,54,-118
2,9091214,-3478,-1679,-783,244,-245,-71,314,54,-118
2,9091222,-3478,-1679,-783,244,-245,-71,314,54,-118
2,9091231,-3473,-1671,-783,263,-248,-71,314,54,-118
2,9091239,-3473,-1671,-783,263,-248,-71,314,54,-118
2,9091249,-3477,-1679,-785,281,-248,-80,314,54,-118
2,9091256,-3477,-1679,-785,281,-248,-80,314,54,-118
2,9091262,-3477,-1679,-785,281,-248,-80,314,54,-118
2,9091267,-3470,-1687,-753,285,-242,-79,325,55,-125
2,9091272,-3470,-1687,-753,285,-242,-79,325,55,-125
2,9091278,-3470,-1687,-753,285,-242,-79,325,55,-125
2,9091284,-3475,-1682,-778,268,-243,-67,325,55,-125
2,9091291,-3475,-1682,-778,268,-243,-67,325,55,-125
2,9091296,-3475,-1682,-778,268,-243,-67,325,55,-125
2,9091304,-3475,-1682,-778,268,-243,-67,325,55,-125
2,9091311,-3472,-1682,-771,261,-241,-74,325,55,-125
2,9091316,-3472,-1682,-771,261,-241,-74,325,55,-125
2,9091321,-3472,-1682,-771,261,-241,-74,325,55,-125
2,9091326,-3473,-1679,-767,249,-248,-75,325,55,-125
2,9091334,-3473,-1679,-767,249,-248,-75,325,55,-125
2,9091341,-3473,-1679,-767,249,-248,-75,325,55,-125
2,9091347,-3480,-1686,-745,251,-250,-78,325,55,-125
2,9091354,-3480,-1686,-745,251,-250,-78,325,55,-125
2,9091361,-3480,-1686,-745,251,-250,-78,325,55,-125
2,9091368,-3477,-1689,-757,252,-245,-74,325,55,-125
2,9091375,-3477,-1689,-757,252,-245,-74,325,55,-125
2,9091383,-3477,-1689,-757,252,-245,-74,325,55,-125
2,9091390,-3476,-1685,-763,245,-243,-73,319,55,-117
2,9091397,-3476,-1685,-763,245,-243,-73,319,55,-117
2,9091404,-3478,-1688,-735,226,-239,-73,319,55,-117
2,9091412,-3478,-1688,-735,226,-239,-73,319,55,-117
2,9091420,-3478,-1688,-735,226,-239,-73,319,55,-117
2,9091427,-3473,-1684,-754,215,-240,-72,319,55,-117
2,9091434,-3473,-1684,-754,215,-240,-72,319,55,-117
2,9091441,-3473,-1684,-754,215,-240,-72,319,55,-117
2,9091448,-3480,-1681,-753,218,-243,-76,319,55,-117
2,9091456,-3480,-1681,-753,218,-243,-76,319,55,-117
2,9091463,-3480,-1681,-753,218,-243,-76,319,55,-117
2,9091470,-3470,-1686,-748,203,-247,-76,319,55,-117
2,9091478,-3470,-1686,-748,203,-247,-76,319,55,-117
2,9091484,-3470,-1687,-736,185,-243,-78,319,55,-117
2,9091491,-3470,-1687,-736,185,-243,-78,319,55,-117
2,9091499,-3470,-1687,-736,185,-243,-78,319,55,-117
2,9091506,-3475,-1684,-740,177,-245,-71,318,56,-110
2,9091512,-3475,-1684,-740,177,-245,-71,318,56,-110
2,9091520,-3475,-1684,-740,177,-245,-71,318,56,-110
2,9091528,-3480,-1683,-757,173,-243,-76,318,56,-110
2,9091536,-3480,-1683,-757,173,-243,-76,318,56,-110
2,9091544,-3480,-1683,-757,173,-243,-76,318,56,-110
2,9091551,-3482,-1684,-737,174,-245,-79,318,56,-110
2,9091557,-3482,-1684,-737,174,-245,-79,318,56,-110
2,9091564,-3482,-1684,-737,174,-245,-79,318,56,-110
2,9091571,-3474,-1688,-722,176,-245,-77,318,56,-110
2,9091579,-3474,-1688,-722,176,-245,-77,318,56,-110
2,9091586,-3475,-1687,-750,173,-244,-79,318,56,-110
2,9091592,-3475,-1687,-750,173,-244,-79,318,56,-110
2,9091597,-3475,-1687,-750,173,-244,-79,318,56,-110
2,9091604,-3474,-1686,-736,171,-241,-79,318,56,-110
2,9091611,-3474,-1686,-736,171,-241,-79,318,56,-110
2,9091619,-3474,-1686,-736,171,-241,-79,318,56,-110
2,9091627,-3476,-1689,-732,167,-249,-71,309,51,-109
2,9091633,-3476,-1689,-732,167,-249,-71,309,51,-109
2,9091640,-3476,-1689,-732,167,-249,-71,309,51,-109
2,9091645,-3475,-1682,-726,172,-241,-81,309,51,-109
2,9091653,-3475,-1682,-726,172,-241,-81,309,51,-109
2,9091661,-3475,-1682,-726,172,-241,-81,309,51,-109
2,9091668,-3476,-1678,-744,178,-252,-78,309,51,-109
2,9091677,-3476,-1678,-744,178,-252,-78,309,51,-109
2,9091682,-3476,-1678,-744,178,-252,-78,309,51,-109
2,9091689,-3476,-1682,-751,193,-241,-77,309,51,-109
2,9091696,-3476,-1682,-751,193,-241,-77,309,51,-109
2,9091703,-3476,-1682,-751,193,-241,-77,309,51,-109
2,9091710,-3478,-1679,-707,219,-249,-75,309,51,-109
2,9091719,-3478,-1679,-707,219,-249,-75,309,51,-109
2,9091726,-3476,-1689,-718,216,-245,-75,309,51,-109
2,9091733,-3476,-1689,-718,216,-245,-75,309,51,-109
2,9091739,-3476,-1689,-718,216,-245,-75,309,51,-109
2,9091747,-3474,-1687,-733,209,-243,-80,314,52,-114
2,9091753,-3474,-1687,-733,209,-243,-80,314,52,-114
2,9091758,-3474,-1687,-733,209,-243,-80,314,52,-114
2,9091764,-3474,-1687,-733,209,-243,-80,314,52,-114
2,9091769,-3480,-1689,-723,201,-241,-74,314,52,-114
2,9091774,-3480,-1689,-723,201,-241,-74,314,52,-114
2,9091780,-3480,-1689,-723,201,-241,-74,314,52,-114
2,9091787,-3474,-1683,-717,202,-245,-76,314,52,-114
2,9091794,-3474,-1683,-717,202,-245,-76,314,52,-114
2,9091802,-3474,-1683,-717,202,-245,-76,314,52,-114
2,9091809,-3477,-1686,-711,214,-244,-82,314,52,-114
2,9091816,-3477,-1686,-711,214,-244,-82,314,52,-114
2,9091823,-3477,-1686,-711,214,-244,-82,314,52,-114
2,9091829,-3471,-1683,-735,228,-244,-81,314,52,-114
2,9091837,-3471,-1683,-735,228,-244,-81,314,52,-114
2,9091845,-3481,-1687,-703,246,-243,-77,314,52,-114
2,9091852,-3481,-1687,-703,246,-243,-77,314,52,-114
2,9091859,-3481,-1687,-703,246,-243,-77,314,52,-114
2,9091866,-3478,-1687,-712,237,-254,-76,314,52,-114
2,9091871,-3478,-1687,-712,237,-254,-76,314,52,-114
2,9091876,-3478,-1687,-712,237,-254,-76,314,52,-114
2,9091881,-3478,-1687,-712,237,-254,-76,314,52,-114
2,9091889,-3475,-1688,-706,215,-250,-81,308,54,-118
2,9091897,-3475,-1688,-706,215,-250,-81,308,54,-118
2,9091904,-3475,-1688,-706,215,-250,-81,308,54,-118
2,9091910,-3475,-1682,-693,215,-244,-84,308,54,-118
2,9091915,-3475,-1682,-693,215,-244,-84,308,54,-118
2,9091922,-3475,-1682,-693,215,-244,-84,308,54,-118
2,9091930,-3477,-1689,-706,222,-239,-84,308,54,-118
2,9091937,-3477,-1689,-706,222,-239,-84,308,54,-118
2,9091943,-3477,-1689,-706,222,-239,-84,308,54,-118
2,9091950,-3477,-1686,-696,229,-251,-82,308,54,-118
2,9091958,-3477,-1686,-696,229,-251,-82,308,54,-118
2,9091968,-3477,-1682,-703,241,-245,-77,308,54,-118
2,9091974,-3477,-1682,-703,241,-245,-77,308,54,-118
2,9091979,-3477,-1682,-703,241,-245,-77,308,54,-118
2,9091986,-3476,-1688,-712,242,-251,-83,308,54,-118
2,9091992,-3476,-1688,-712,242,-251,-83,308,54,-118
2,9091999,-3476,-1688,-712,242,-251,-83,308,54,-118
2,9092006,-3479,-1688,-677,250,-251,-78,312,60,-106
2,9092014,-3479,-1688,-677,250,-251,-78,312,60,-106
2,9092022,-3479,-1688,-677,250,-251,-78,312,60,-106
2,9092028,-3476,-1687,-685,257,-248,-81,312,60,-106
2,9092035,-3476,-1687,-685,257,-248,-81,312,60,-106
2,9092040,-3476,-1687,-685,257,-248,-81,312,60,-106
2,9092047,-3477,-1683,-703,263,-249,-81,312,60,-106
2,9092056,-3477,-1683,-703,263,-249,-81,312,60,-106
2,9092063,-3477,-1683,-703,263,-249,-81,312,60,-106
2,9092070,-3480,-1685,-678,264,-250,-83,312,60,-106
2,9092076,-3480,-1685,-678,264,-250,-83,312,60,-106
2,9092081,-3480,-1685,-678,264,-250,-83,312,60,-106
2,9092088,-3479,-1693,-672,258,-249,-82,312,60,-106
2,9092097,-3479,-1693,-672,258,-249,-82,312,60,-106
2,9092102,-3479,-1693,-672,258,-249,-82,312,60,-106
2,9092107,-3472,-1692,-695,228,-244,-83,312,60,-106
2,9092112,-3472,-1692,-695,228,-244,-83,312,60,-106
2,9092117,-3472,-1692,-695,228,-244,-83,312,60,-106
2,9092122,-3472,-1692,-695,228,-244,-83,312,60,-106
2,9092127,-3478,-1691,-675,210,-250,-77,327,57,-107
2,9092132,-3478,-1691,-675,210,-250,-77,327,57,-107
2,9092137,-3478,-1691,-675,210,-250,-77,327,57,-107
2,9092145,-3477,-1687,-680,183,-250,-78,327,57,-107
2,9092152,-3477,-1687,-680,183,-250,-78,327,57,-107
2,9092160,-3477,-1687,-680,183,-250,-78,327,57,-107
2,9092167,-3481,-1686,-671,183,-247,-73,327,57,-107
2,9092173,-3481,-1686,-671,183,-247,-73,327,57,-107
2,9092179,-3481,-1686,-671,183,-247,-73,327,57,-107
2,9092187,-3474,-1687,-689,192,-238,-69,327,57,-107
2,9092194,-3474,-1687,-689,192,-238,-69,327,57,-107
2,9092201,-3474,-1687,-689,192,-238,-69,327,57,-107
2,9092208,-3469,-1685,-682,200,-244,-73,327,57,-107
2,9092214,-3469,-1685,-682,200,-244,-73,327,57,-107
2,9092224,-3469,-1685,-682,200,-244,-73,327,57,-107
2,9092232,-3475,-1688,-662,210,-249,-75,327,57,-107
2,9092239,-3475,-1688,-662,210,-249,-75,327,57,-107
2,9092246,-3473,-1689,-661,206,-248,-77,318,58,-120
2,9092253,-3473,-1689,-661,206,-248,-77,318,58,-120
2,9092260,-3473,-1689,-661,206,-248,-77,318,58,-120
2,9092272,-3475,-1689,-663,211,-251,-73,318,58,-120
2,9092282,-3475,-1689,-663,211,-251,-73,318,58,-120
2,9092295,-3476,-1697,-663,206,-245,-80,318,58,-120
2,9092308,-3476,-1695,-660,196,-242,-72,318,58,-120
2,9092318,-3476,-1695,-660,196,-242,-72,318,58,-120
2,9092328,-3484,-1692,-661,172,-241,-72,318,58,-120
2,9092340,-3484,-1692,-661,172,-241,-72,318,58,-120
2,9092353,-3479,-1686,-658,162,-241,-77,318,58,-120
2,9092365,-3482,-1689,-659,164,-249,-70,312,52,-100
2,9092379,-3482,-1689,-659,164,-249,-70,312,52,-100
2,9092390,-3474,-1690,-649,174,-254,-77,312,52,-100
2,9092400,-3474,-1690,-649,174,-254,-77,312,52,-100
2,9092408,-3469,-1688,-648,171,-248,-75,312,52,-100
2,9092416,-3469,-1688,-648,171,-248,-75,312,52,-100
2,9092424,-3470,-1692,-657,151,-246,-88,312,52,-100
2,9092434,-3470,-1692,-657,151,-246,-88,312,52,-100
2,9092448,-3472,-1691,-647,151,-252,-79,312,52,-100
2,9092462,-3472,-1691,-647,151,-252,-79,312,52,-100
2,9092475,-3475,-1691,-650,142,-255,-79,312,52,-100
2,9092486,-3477,-1687,-651,149,-252,-81,312,52,-100
2,9092497,-3477,-1687,-651,149,-252,-81,312,52,-100
2,9092509,-3478,-1691,-648,162,-257,-83,312,52,-100
2,9092523,-3478,-1691,-648,162,-257,-83,312,52,-100
2,9092535,-3477,-1689,-653,182,-250,-80,312,52,-100
2,9092549,-3479,-1685,-648,203,-246,-74,312,52,-100
2,9092563,-3479,-1685,-648,203,-246,-74,312,52,-100
2,9092576,-3474,-1686,-642,221,-243,-86,312,52,-100
2,9092586,-3475,-1688,-633,238,-241,-74,312,52,-100
2,9092596,-3475,-1688,-633,238,-241,-74,312,52,-100
2,9092605,-3478,-1694,-638,242,-238,-79,312,52,-100
2,9092617,-3478,-1694,-638,242,-238,-79,312,52,-100
2,9092632,-3475,-1689,-637,242,-243,-86,319,47,-99
2,9092646,-3476,-1692,-611,235,-240,-79,319,47,-99
2,9092656,-3476,-1692,-611,235,-240,-79,319,47,-99
2,9092667,-3482,-1693,-624,222,-238,-76,319,47,-99
2,9092680,-3482,-1693,-624,222,-238,-76,319,47,-99
2,9092694,-3483,-1690,-625,209,-248,-79,319,47,-99
2,9092703,-3483,-1690,-625,209,-248,-79,319,47,-99
2,9092716,-3474,-1694,-626,211,-245,-78,319,47,-99
2,9092728,-3476,-1687,-627,210,-244,-76,319,47,-99
2,9092742,-3476,-1687,-627,210,-244,-76,319,47,-99
2,9092753,-3475,-1692,-611,216,-240,-76,326,50,-108
2,9092761,-3475,-1692,-611,216,-240,-76,326,50,-108
2,9092768,-3475,-1693,-620,223,-247,-85,326,50,-108
2,9092776,-3475,-1693,-620,223,-247,-85,326,50,-108
2,9092786,-3478,-1692,-616,217,-252,-76,326,50,-108
2,9092799,-3478,-1692,-616,217,-252,-76,326,50,-108
2,9092811,-3475,-1690,-605,205,-249,-81,326,50,-108
2,9092820,-3475,-1690,-605,205,-249,-81,326,50,-108
2,9092833,-3477,-1696,-605,198,-240,-71,326,50,-108
2,9092846,-3478,-1692,-604,174,-242,-78,326,50,-108
2,9092858,-3478,-1692,-604,174,-242,-78,326,50,-108
2,9092870,-3477,-1693,-599,159,-235,-75,319,59,-97
2,9092882,-3477,-1693,-599,159,-235,-75,319,59,-97
2,9092896,-3478,-1695,-604,155,-241,-88,319,59,-97
2,9092909,-3476,-1694,-602,154,-247,-88,319,59,-97
2,9092920,-3476,-1694,-602,154,-247,-88,319,59,-97
2,9092933,-3478,-1695,-598,150,-243,-87,319,59,-97
2,9092946,-3477,-1695,-598,136,-236,-86,319,59,-97
2,9092959,-3477,-1695,-598,136,-236,-86,319,59,-97
2,9092970,-3473,-1696,-591,120,-241,-76,319,59,-97
