imu,time,ax,ay,az,gx,gy,gz,mx,my,mz
0,5518718,199,-1874,-382,-1041,-602,-321,251,137,-443
0,5518724,199,-1874,-382,-1041,-602,-321,251,137,-443
0,5518730,198,-1875,-398,-1044,-608,-324,251,137,-443
0,5518735,198,-1875,-398,-1044,-608,-324,251,137,-443
0,5518740,198,-1875,-398,-1044,-608,-324,251,137,-443
0,5518745,198,-1875,-398,-1044,-608,-324,251,137,-443
0,5518750,200,-1872,-366,-1034,-586,-331,251,137,-443
0,5518755,200,-1872,-366,-1034,-586,-331,251,137,-443
0,5518760,200,-1872,-366,-1034,-586,-331,251,137,-443
0,5518766,200,-1872,-366,-1034,-586,-331,251,137,-443
0,5518771,204,-1876,-385,-1023,-560,-329,251,137,-443
0,5518776,204,-1876,-385,-1023,-560,-329,251,137,-443
0,5518782,204,-1876,-385,-1023,-560,-329,251,137,-443
0,5518790,199,-1874,-373,-1012,-509,-327,251,137,-443
0,5518797,199,-1874,-373,-1012,-509,-327,251,137,-443
0,5518807,201,-1873,-325,-1044,-623,-319,251,137,-443
0,5518812,201,-1873,-325,-1044,-623,-319,261,147,-445
0,5518820,201,-1873,-325,-1044,-623,-319,261,147,-445
0,5518828,201,-1878,-436,-1034,-586,-325,261,147,-445
0,5518836,201,-1878,-436,-1034,-586,-325,261,147,-445
0,5518843,201,-1878,-436,-1034,-586,-325,261,147,-445
0,5518853,198,-1874,-384,-1017,-570,-323,261,147,-445
0,5518861,198,-1874,-384,-1017,-570,-323,261,147,-445
0,5518870,197,-1874,-351,-1022,-572,-324,261,147,-445
0,5518877,197,-1874,-351,-1022,-572,-324,261,147,-445
0,5518886,204,-1879,-438,-1032,-557,-328,261,147,-445
0,5518895,204,-1879,-438,-1032,-557,-328,261,147,-445
0,5518908,200,-1874,-360,-1028,-558,-327,261,147,-445
0,5518916,200,-1874,-360,-1028,-558,-327,261,147,-445
0,5518931,207,-1875,-364,-1026,-569,-322,261,147,-445
0,5518942,207,-1875,-364,-1026,-569,-322,261,147,-445
0,5518952,205,-1875,-403,-1023,-558,-327,262,150,-444
0,5518964,205,-1875,-403,-1023,-558,-327,262,150,-444
0,5518976,202,-1873,-364,-1031,-570,-333,262,150,-444
0,5518989,200,-1872,-378,-1023,-568,-332,262,150,-444
0,5519000,200,-1872,-378,-1023,-568,-332,262,150,-444
0,5519013,211,-1875,-386,-1023,-580,-325,262,150,-444
0,5519024,211,-1875,-386,-1023,-580,-325,262,150,-444
0,5519034,203,-1873,-361,-1030,-578,-321,262,150,-444
0,5519046,203,-1873,-361,-1030,-578,-321,262,150,-444
0,5519057,195,-1875,-405,-1028,-570,-325,262,150,-444
0,5519068,200,-1873,-375,-1022,-573,-323,262,142,-452
0,5519080,200,-1873,-375,-1022,-573,-323,262,142,-452
0,5519094,202,-1873,-366,-1026,-570,-324,262,142,-452
0,5519107,202,-1873,-366,-1026,-570,-324,262,142,-452
0,5519117,197,-1877,-415,-1030,-572,-324,262,142,-452
0,5519129,197,-1871,-356,-1026,-566,-322,262,142,-452
0,5519140,197,-1871,-356,-1026,-566,-322,262,142,-452
0,5519154,198,-1875,-387,-1030,-566,-324,262,142,-452
0,5519167,199,-1876,-391,-1025,-568,-322,262,142,-452
0,5519180,199,-1876,-391,-1025,-568,-322,262,142,-452
0,5519188,198,-1873,-369,-1025,-563,-325,262,142,-452
0,5519198,198,-1873,-369,-1025,-563,-325,262,142,-452
0,5519206,198,-1873,-369,-1025,-563,-325,262,142,-452
0,5519213,201,-1873,-387,-1040,-565,-333,256,138,-450
0,5519226,200,-1875,-386,-1037,-558,-328,256,138,-450
0,5519237,200,-1875,-386,-1037,-558,-328,256,138,-450
0,5519250,201,-1875,-378,-1042,-558,-324,256,138,-450
0,5519265,201,-1875,-378,-1042,-558,-324,256,138,-450
0,5519279,202,-1873,-389,-1037,-564,-328,256,138,-450
0,5519288,202,-1873,-389,-1037,-564,-328,256,138,-450
0,5519299,202,-1873,-389,-1037,-564,-328,256,138,-450
0,5519312,201,-1874,-392,-1021,-563,-334,256,138,-450
0,5519324,201,-1874,-392,-1021,-563,-334,256,138,-450
0,5519336,198,-1875,-383,-1022,-553,-330,262,148,-444
0,5519349,201,-1872,-380,-1014,-552,-331,262,148,-444
0,5519364,201,-1872,-380,-1014,-552,-331,262,148,-444
0,5519373,202,-1875,-387,-1015,-552,-333,262,148,-444
0,5519381,202,-1875,-387,-1015,-552,-333,262,148,-444
0,5519389,200,-1876,-377,-1021,-550,-325,262,148,-444
0,5519398,200,-1876,-377,-1021,-550,-325,262,148,-444
0,5519407,200,-1876,-377,-1021,-550,-325,262,148,-444
0,5519415,200,-1874,-382,-1023,-548,-316,262,148,-444
0,5519423,200,-1874,-382,-1023,-548,-316,262,148,-444
0,5519431,199,-1874,-384,-1029,-558,-318,262,148,-444
0,5519439,199,-1874,-384,-1029,-558,-318,262,148,-444
0,5519448,199,-1871,-377,-1032,-567,-328,262,148,-444
0,5519456,199,-1871,-377,-1032,-567,-328,262,148,-444
0,5519464,199,-1871,-377,-1032,-567,-328,262,148,-444
0,5519473,201,-1875,-380,-1037,-577,-323,252,150,-446
0,5519481,201,-1875,-380,-1037,-577,-323,252,150,-446
0,5519490,201,-1876,-382,-1039,-583,-322,252,150,-446
0,5519499,201,-1876,-382,-1039,-583,-322,252,150,-446
0,5519507,200,-1873,-372,-1036,-595,-322,252,150,-446
0,5519515,200,-1873,-372,-1036,-595,-322,252,150,-446
0,5519523,200,-1873,-372,-1036,-595,-322,252,150,-446
0,5519532,202,-1871,-400,-1052,-590,-330,252,150,-446
0,5519541,202,-1871,-400,-1052,-590,-330,252,150,-446
0,5519551,200,-1874,-394,-1040,-576,-327,252,150,-446
0,5519558,200,-1874,-394,-1040,-576,-327,252,150,-446
0,5519567,198,-1874,-368,-1031,-576,-321,252,150,-446
0,5519578,198,-1874,-368,-1031,-576,-321,252,150,-446
0,5519589,201,-1873,-392,-1037,-586,-331,258,152,-444
0,5519603,201,-1873,-392,-1037,-586,-331,258,152,-444
0,5519616,201,-1874,-390,-1033,-580,-335,258,152,-444
0,5519628,198,-1871,-377,-1032,-577,-330,258,152,-444
0,5519641,198,-1871,-377,-1032,-577,-330,258,152,-444
0,5519654,202,-1873,-386,-1025,-567,-325,258,152,-444
0,5519666,202,-1873,-386,-1025,-567,-325,258,152,-444
0,5519675,201,-1874,-395,-1034,-557,-324,258,152,-444
0,5519686,201,-1874,-395,-1034,-557,-324,258,152,-444
0,5519698,198,-1872,-378,-1037,-569,-323,258,152,-444
0,5519708,201,-1877,-439,-1039,-574,-330,260,134,-442
0,5519720,201,-1877,-439,-1039,-574,-330,260,134,-442
0,5519731,201,-1874,-352,-1017,-566,-325,260,134,-442
0,5519741,201,-1874,-352,-1017,-566,-325,260,134,-442
0,5519750,195,-1874,-382,-1036,-565,-330,260,134,-442
0,5519758,195,-1874,-382,-1036,-565,-330,260,134,-442
0,5519767,195,-1874,-382,-1036,-565,-330,260,134,-442
0,5519777,199,-1878,-393,-1042,-564,-329,260,134,-442
0,5519787,199,-1878,-393,-1042,-564,-329,260,134,-442
0,5519802,202,-1872,-363,-1042,-572,-320,260,134,-442
0,5519811,201,-1876,-396,-1036,-584,-322,260,134,-442
0,5519819,201,-1876,-396,-1036,-584,-322,260,134,-442
0,5519824,201,-1876,-396,-1036,-584,-322,260,134,-442
0,5519830,198,-1876,-388,-1033,-572,-321,260,134,-442
0,5519835,198,-1876,-388,-1033,-572,-321,260,134,-442
0,5519842,198,-1876,-388,-1033,-572,-321,260,134,-442
0,5519848,199,-1876,-379,-1030,-564,-323,260,146,-440
0,5519855,199,-1876,-379,-1030,-564,-323,260,146,-440
0,5519862,199,-1876,-379,-1030,-564,-323,260,146,-440
0,5519868,201,-1877,-391,-1032,-572,-322,260,146,-440
0,5519877,201,-1877,-391,-1032,-572,-322,260,146,-440
0,5519883,201,-1877,-391,-1032,-572,-322,260,146,-440
0,5519891,198,-1876,-379,-1032,-569,-320,260,146,-440
0,5519897,198,-1876,-379,-1032,-569,-320,260,146,-440
0,5519904,198,-1876,-379,-1032,-569,-320,260,146,-440
0,5519912,202,-1875,-386,-1028,-567,-324,260,146,-440
0,5519919,202,-1875,-386,-1028,-567,-324,260,146,-440
0,5519927,202,-1875,-386,-1028,-567,-324,260,146,-440
0,5519934,198,-1877,-378,-1027,-557,-327,260,146,-440
0,5519941,198,-1877,-378,-1027,-557,-327,260,146,-440
0,5519947,198,-1877,-378,-1027,-557,-327,260,146,-440
0,5519952,196,-1873,-383,-1021,-549,-329,260,146,-440
0,5519958,196,-1873,-383,-1021,-549,-329,260,146,-440
0,5519963,196,-1873,-383,-1021,-549,-329,260,146,-440
0,5519970,198,-1873,-380,-1024,-548,-328,251,145,-451
0,5519979,198,-1873,-380,-1024,-548,-328,251,145,-451
0,5519986,198,-1873,-380,-1024,-548,-328,251,145,-451
0,5519991,202,-1875,-384,-1029,-560,-326,251,145,-451
0,5520000,202,-1875,-384,-1029,-560,-326,251,145,-451
0,5520007,202,-1875,-384,-1029,-560,-326,251,145,-451
0,5520015,200,-1873,-384,-1024,-562,-324,251,145,-451
0,5520021,200,-1873,-384,-1024,-562,-324,251,145,-451
0,5520029,198,-1875,-391,-1020,-558,-330,251,145,-451
0,5520036,198,-1875,-391,-1020,-558,-330,251,145,-451
0,5520044,198,-1875,-391,-1020,-558,-330,251,145,-451
0,5520051,201,-1872,-388,-1025,-569,-328,251,145,-451
0,5520058,201,-1872,-388,-1025,-569,-328,251,145,-451
0,5520063,201,-1872,-388,-1025,-569,-328,251,145,-451
0,5520071,206,-1878,-394,-1022,-570,-324,251,145,-451
0,5520078,206,-1878,-394,-1022,-570,-324,251,145,-451
0,5520086,206,-1878,-394,-1022,-570,-324,251,145,-451
0,5520091,203,-1875,-389,-1023,-575,-323,251,145,-451
0,5520098,203,-1875,-389,-1023,-575,-323,251,145,-451
0,5520105,203,-1875,-389,-1023,-575,-323,251,145,-451
0,5520111,202,-1873,-358,-1027,-574,-326,256,142,-456
0,5520118,202,-1873,-358,-1027,-574,-326,256,142,-456
0,5520125,202,-1873,-358,-1027,-574,-326,256,142,-456
0,5520134,198,-1874,-404,-1027,-578,-327,256,142,-456
0,5520140,198,-1874,-404,-1027,-578,-327,256,142,-456
0,5520147,198,-1874,-404,-1027,-578,-327,256,142,-456
0,5520156,198,-1874,-375,-1028,-587,-322,256,142,-456
0,5520161,198,-1874,-375,-1028,-587,-322,256,142,-456
0,5520166,198,-1874,-375,-1028,-587,-322,256,142,-456
0,5520175,201,-1877,-394,-1039,-584,-324,256,142,-456
0,5520181,201,-1877,-394,-1039,-584,-324,256,142,-456
0,5520188,202,-1873,-389,-1027,-574,-327,256,142,-456
0,5520197,202,-1873,-389,-1027,-574,-327,256,142,-456
0,5520204,202,-1873,-389,-1027,-574,-327,256,142,-456
0,5520210,198,-1873,-375,-1029,-564,-329,256,142,-456
0,5520218,198,-1873,-375,-1029,-564,-329,256,142,-456
0,5520225,198,-1873,-375,-1029,-564,-329,256,142,-456
0,5520232,200,-1878,-387,-1026,-557,-323,258,144,-446
0,5520239,200,-1878,-387,-1026,-557,-323,258,144,-446
0,5520246,200,-1878,-387,-1026,-557,-323,258,144,-446
0,5520254,201,-1876,-379,-1030,-559,-330,258,144,-446
0,5520262,201,-1876,-379,-1030,-559,-330,258,144,-446
0,5520269,200,-1879,-387,-1025,-555,-321,258,144,-446
0,5520274,200,-1879,-387,-1025,-555,-321,258,144,-446
0,5520282,200,-1879,-387,-1025,-555,-321,258,144,-446
0,5520290,199,-1873,-388,-1025,-557,-327,258,144,-446
0,5520296,199,-1873,-388,-1025,-557,-327,258,144,-446
0,5520303,199,-1873,-388,-1025,-557,-327,258,144,-446
0,5520308,199,-1873,-388,-1025,-557,-327,258,144,-446
0,5520315,199,-1874,-382,-1026,-562,-315,258,144,-446
0,5520323,199,-1874,-382,-1026,-562,-315,258,144,-446
0,5520330,200,-1872,-386,-1024,-562,-320,258,144,-446
0,5520337,200,-1872,-386,-1024,-562,-320,258,144,-446
0,5520345,200,-1872,-386,-1024,-562,-320,258,144,-446
0,5520353,199,-1877,-388,-1016,-561,-319,258,144,-446
0,5520358,199,-1877,-388,-1016,-561,-319,258,144,-446
0,5520365,199,-1877,-388,-1016,-561,-319,258,144,-446
0,5520373,198,-1873,-378,-1019,-560,-319,259,143,-447
0,5520380,198,-1873,-378,-1019,-560,-319,259,143,-447
0,5520388,198,-1873,-378,-1019,-560,-319,259,143,-447
0,5520393,199,-1873,-392,-1026,-570,-328,259,143,-447
0,5520400,199,-1873,-392,-1026,-570,-328,259,143,-447
0,5520407,199,-1873,-392,-1026,-570,-328,259,143,-447
0,5520415,200,-1872,-376,-1021,-560,-331,259,143,-447
0,5520422,200,-1872,-376,-1021,-560,-331,259,143,-447
0,5520430,201,-1876,-384,-1024,-560,-320,259,143,-447
0,5520438,201,-1876,-384,-1024,-560,-320,259,143,-447
0,5520445,201,-1876,-384,-1024,-560,-320,259,143,-447
0,5520451,199,-1872,-381,-1031,-565,-329,259,143,-447
0,5520458,199,-1872,-381,-1031,-565,-329,259,143,-447
0,5520466,199,-1872,-381,-1031,-565,-329,259,143,-447
0,5520474,199,-1874,-386,-1022,-558,-327,259,143,-447
0,5520482,199,-1874,-386,-1022,-558,-327,259,143,-447
0,5520489,196,-1875,-373,-1019,-562,-320,255,141,-443
0,5520494,196,-1875,-373,-1019,-562,-320,255,141,-443
0,5520501,196,-1875,-373,-1019,-562,-320,255,141,-443
0,5520509,199,-1873,-375,-1020,-559,-322,255,141,-443
0,5520515,199,-1873,-375,-1020,-559,-322,255,141,-443
0,5520520,199,-1873,-375,-1020,-559,-322,255,141,-443
0,5520525,199,-1873,-375,-1020,-559,-322,255,141,-443
0,5520530,200,-1874,-389,-1024,-556,-322,255,141,-443
0,5520535,200,-1874,-389,-1024,-556,-322,255,141,-443
0,5520541,200,-1874,-389,-1024,-556,-322,255,141,-443
0,5520546,200,-1874,-389,-1024,-556,-322,255,141,-443
0,5520555,201,-1874,-390,-1022,-553,-330,255,141,-443
0,5520561,201,-1874,-390,-1022,-553,-330,255,141,-443
0,5520568,201,-1874,-390,-1022,-553,-330,255,141,-443
0,5520574,198,-1873,-383,-1025,-564,-326,255,141,-443
0,5520583,198,-1873,-383,-1025,-564,-326,255,141,-443
0,5520590,199,-1874,-385,-1032,-564,-324,255,141,-443
0,5520599,199,-1874,-385,-1032,-564,-324,255,141,-443
0,5520606,199,-1874,-385,-1032,-564,-324,255,141,-443
0,5520612,202,-1873,-377,-1030,-563,-328,255,141,-445
0,5520620,202,-1873,-377,-1030,-563,-328,255,141,-445
0,5520625,202,-1873,-377,-1030,-563,-328,255,141,-445
0,5520633,200,-1874,-365,-1024,-566,-324,255,141,-445
0,5520640,200,-1874,-365,-1024,-566,-324,255,141,-445
0,5520646,200,-1874,-365,-1024,-566,-324,255,141,-445
0,5520652,200,-1873,-394,-1028,-577,-322,255,141,-445
0,5520658,200,-1873,-394,-1028,-577,-322,255,141,-445
0,5520664,200,-1873,-394,-1028,-577,-322,255,141,-445
0,5520671,202,-1873,-368,-1032,-578,-327,255,141,-445
0,5520679,202,-1873,-368,-1032,-578,-327,255,141,-445
0,5520685,202,-1873,-368,-1032,-578,-327,255,141,-445
0,5520690,199,-1874,-383,-1028,-579,-320,255,141,-445
0,5520696,199,-1874,-383,-1028,-579,-320,255,141,-445
0,5520704,199,-1874,-383,-1028,-579,-320,255,141,-445
0,5520711,202,-1874,-392,-1028,-571,-331,255,141,-445
0,5520718,202,-1874,-392,-1028,-571,-331,255,141,-445
0,5520724,202,-1874,-392,-1028,-571,-331,255,141,-445
0,5520733,201,-1872,-380,-1024,-569,-320,255,141,-445
0,5520740,201,-1872,-380,-1024,-569,-320,255,141,-445
0,5520746,201,-1872,-380,-1024,-569,-320,255,141,-445
0,5520754,196,-1874,-385,-1025,-568,-332,260,144,-444
0,5520761,196,-1874,-385,-1025,-568,-332,260,144,-444
0,5520769,195,-1873,-379,-1024,-564,-323,260,144,-444
0,5520777,195,-1873,-379,-1024,-564,-323,260,144,-444
0,5520783,195,-1873,-379,-1024,-564,-323,260,144,-444
0,5520790,200,-1873,-381,-1037,-567,-316,260,144,-444
0,5520796,200,-1873,-381,-1037,-567,-316,260,144,-444
0,5520804,200,-1873,-381,-1037,-567,-316,260,144,-444
0,5520809,200,-1872,-386,-1029,-560,-321,260,144,-444
0,5520815,200,-1872,-386,-1029,-560,-321,260,144,-444
0,5520820,200,-1872,-386,-1029,-560,-321,260,144,-444
0,5520825,200,-1872,-386,-1029,-560,-321,260,144,-444
0,5520833,201,-1874,-380,-1029,-561,-318,260,144,-444
0,5520841,201,-1874,-380,-1029,-561,-318,260,144,-444
0,5520849,198,-1873,-382,-1023,-561,-325,260,144,-444
0,5520859,198,-1873,-382,-1023,-561,-325,260,144,-444
0,5520867,198,-1873,-382,-1023,-561,-325,260,144,-444
0,5520874,201,-1870,-381,-1025,-561,-322,258,152,-444
0,5520882,201,-1870,-381,-1025,-561,-322,258,152,-444
0,5520891,197,-1874,-373,-1021,-562,-322,258,152,-444
0,5520900,197,-1874,-373,-1021,-562,-322,258,152,-444
0,5520909,201,-1874,-369,-1020,-571,-329,258,152,-444
0,5520919,201,-1874,-369,-1020,-571,-329,258,152,-444
0,5520927,201,-1874,-369,-1020,-571,-329,258,152,-444
0,5520937,201,-1874,-393,-1023,-558,-328,258,152,-444
0,5520948,201,-1874,-393,-1023,-558,-328,258,152,-444
0,5520957,200,-1872,-373,-1030,-564,-323,258,152,-444
0,5520966,200,-1872,-373,-1030,-564,-323,258,152,-444
0,5520975,200,-1874,-389,-1026,-566,-320,258,152,-444
0,5520985,200,-1874,-389,-1026,-566,-320,258,152,-444
0,5520993,199,-1874,-389,-1024,-560,-325,258,152,-444
0,5521005,199,-1874,-389,-1024,-560,-325,258,152,-444
0,5521018,202,-1874,-375,-1029,-555,-317,261,147,-447
0,5521029,199,-1875,-386,-1026,-555,-326,261,147,-447
0,5521043,199,-1875,-386,-1026,-555,-326,261,147,-447
0,5521054,198,-1873,-384,-1026,-545,-325,261,147,-447
0,5521067,198,-1873,-384,-1026,-545,-325,261,147,-447
0,5521079,200,-1872,-380,-1029,-550,-324,261,147,-447
0,5521091,200,-1874,-388,-1034,-552,-327,261,147,-447
0,5521102,200,-1874,-388,-1034,-552,-327,261,147,-447
0,5521113,204,-1875,-380,-1028,-562,-330,261,147,-447
0,5521127,204,-1875,-380,-1028,-562,-330,261,147,-447
0,5521140,200,-1873,-385,-1028,-568,-328,246,142,-450
0,5521148,200,-1873,-385,-1028,-568,-328,246,142,-450
0,5521159,201,-1871,-380,-1027,-561,-325,246,142,-450
0,5521167,201,-1871,-380,-1027,-561,-325,246,142,-450
0,5521175,200,-1875,-376,-1038,-566,-326,246,142,-450
0,5521183,200,-1875,-376,-1038,-566,-326,246,142,-450
0,5521195,200,-1877,-392,-1029,-562,-331,246,142,-450
0,5521207,200,-1877,-392,-1029,-562,-331,246,142,-450
0,5521218,200,-1871,-377,-1028,-572,-334,246,142,-450
0,5521230,196,-1874,-394,-1032,-569,-332,246,142,-450
0,5521245,196,-1874,-394,-1032,-569,-332,246,142,-450
0,5521256,197,-1874,-380,-1028,-566,-331,246,142,-450
0,5521268,197,-1874,-380,-1028,-566,-331,246,142,-450
0,5521280,201,-1872,-388,-1026,-557,-332,256,144,-444
0,5521293,202,-1872,-383,-1020,-560,-319,256,144,-444
0,5521304,202,-1872,-383,-1020,-560,-319,256,144,-444
0,5521314,199,-1872,-379,-1017,-558,-326,256,144,-444
0,5521325,199,-1872,-379,-1017,-558,-326,256,144,-444
0,5521337,201,-1873,-387,-1032,-560,-331,256,144,-444
0,5521348,201,-1873,-387,-1032,-560,-331,256,144,-444
0,5521361,203,-1873,-387,-1024,-554,-335,256,144,-444
0,5521373,204,-1873,-388,-1032,-566,-331,256,144,-444
0,5521384,204,-1873,-388,-1032,-566,-331,256,144,-444
0,5521396,200,-1872,-379,-1031,-565,-316,252,142,-442
0,5521411,201,-1874,-381,-1026,-570,-323,252,142,-442
0,5521423,201,-1874,-381,-1026,-570,-323,252,142,-442
0,5521434,200,-1874,-384,-1033,-568,-327,252,142,-442
0,5521446,200,-1874,-384,-1033,-568,-327,252,142,-442
0,5521460,197,-1875,-389,-1029,-571,-327,252,142,-442
0,5521470,200,-1875,-387,-1023,-562,-327,252,142,-442
0,5521480,200,-1875,-387,-1023,-562,-327,252,142,-442
0,5521494,201,-1875,-380,-1027,-555,-330,252,142,-442
0,5521509,201,-1875,-380,-1027,-555,-330,252,142,-442
0,5521517,200,-1874,-385,-1028,-561,-323,263,147,-441
0,5521525,200,-1874,-385,-1028,-561,-323,263,147,-441
0,5521533,201,-1872,-377,-1030,-558,-318,263,147,-441
0,5521543,201,-1872,-377,-1030,-558,-318,263,147,-441
0,5521557,201,-1872,-380,-1024,-566,-322,263,147,-441
0,5521567,201,-1872,-380,-1024,-566,-322,263,147,-441
0,5521581,203,-1874,-382,-1027,-572,-329,263,147,-441
0,5521594,200,-1874,-382,-1014,-562,-321,263,147,-441
0,5521608,200,-1874,-382,-1014,-562,-321,263,147,-441
0,5521618,202,-1874,-382,-1027,-571,-315,263,147,-441
0,5521632,201,-1875,-388,-1022,-570,-319,263,147,-441
0,5521643,201,-1875,-388,-1022,-570,-319,263,147,-441
0,5521655,199,-1873,-383,-1028,-565,-324,250,146,-444
0,5521668,199,-1873,-383,-1028,-565,-324,250,146,-444
0,5521681,200,-1872,-379,-1028,-568,-329,250,146,-444
0,5521693,198,-1873,-392,-1024,-565,-324,250,146,-444
0,5521707,198,-1873,-392,-1024,-565,-324,250,146,-444
0,5521719,198,-1874,-383,-1026,-568,-320,250,146,-444
0,5521731,202,-1874,-384,-1031,-572,-328,250,146,-444
0,5521743,202,-1874,-384,-1031,-572,-328,250,146,-444
0,5521754,200,-1874,-386,-1031,-558,-328,250,146,-444
0,5521764,200,-1874,-386,-1031,-558,-328,250,146,-444
0,5521778,197,-1875,-384,-1036,-562,-330,260,150,-438
0,5521793,200,-1876,-387,-1031,-566,-326,260,150,-438
0,5521802,200,-1876,-387,-1031,-566,-326,260,150,-438
0,5521811,201,-1873,-381,-1026,-567,-332,260,150,-438
0,5521819,201,-1873,-381,-1026,-567,-332,260,150,-438
0,5521827,201,-1873,-381,-1026,-567,-332,260,150,-438
0,5521835,204,-1872,-387,-1035,-573,-324,260,150,-438
0,5521840,204,-1872,-387,-1035,-573,-324,260,150,-438
0,5521845,204,-1872,-387,-1035,-573,-324,260,150,-438
0,5521850,201,-1876,-383,-1037,-573,-316,260,150,-438
0,5521856,201,-1876,-383,-1037,-573,-316,260,150,-438
0,5521863,201,-1876,-383,-1037,-573,-316,260,150,-438
0,5521870,197,-1873,-390,-1026,-564,-318,260,150,-438
0,5521878,197,-1873,-390,-1026,-564,-318,260,150,-438
0,5521885,197,-1873,-390,-1026,-564,-318,260,150,-438
0,5521890,199,-1871,-387,-1029,-569,-326,260,150,-438
0,5521895,199,-1871,-387,-1029,-569,-326,260,150,-438
0,5521901,199,-1871,-387,-1029,-569,-326,260,150,-438
0,5521908,199,-1871,-387,-1029,-569,-326,260,150,-438
0,5521914,198,-1874,-379,-1028,-569,-321,260,140,-446
0,5521924,198,-1874,-379,-1028,-569,-321,260,140,-446
0,5521931,202,-1874,-383,-1032,-567,-322,260,140,-446
0,5521939,202,-1874,-383,-1032,-567,-322,260,140,-446
0,5521946,202,-1874,-383,-1032,-567,-322,260,140,-446
0,5521953,199,-1876,-383,-1031,-558,-322,260,140,-446
0,5521960,199,-1876,-383,-1031,-558,-322,260,140,-446
0,5521966,199,-1876,-383,-1031,-558,-322,260,140,-446
0,5521974,202,-1874,-383,-1025,-564,-326,260,140,-446
0,5521982,202,-1874,-383,-1025,-564,-326,260,140,-446
0,5521989,202,-1874,-383,-1025,-564,-326,260,140,-446
0,5521997,199,-1872,-385,-1017,-563,-319,260,140,-446
0,5522006,199,-1872,-385,-1017,-563,-319,260,140,-446
0,5522014,198,-1872,-369,-1024,-568,-318,260,140,-446
0,5522020,198,-1872,-369,-1024,-568,-318,260,140,-446
0,5522028,198,-1872,-369,-1024,-568,-318,260,140,-446
0,5522035,201,-1875,-424,-1028,-576,-327,257,137,-443
0,5522042,201,-1875,-424,-1028,-576,-327,257,137,-443
0,5522049,201,-1875,-424,-1028,-576,-327,257,137,-443
0,5522056,203,-1870,-339,-1029,-562,-327,257,137,-443
0,5522063,203,-1870,-339,-1029,-562,-327,257,137,-443
0,5522070,203,-1870,-339,-1029,-562,-327,257,137,-443
0,5522077,199,-1876,-398,-1020,-564,-326,257,137,-443
0,5522083,199,-1876,-398,-1020,-564,-326,257,137,-443
0,5522092,201,-1874,-376,-1027,-561,-324,257,137,-443
0,5522098,201,-1874,-376,-1027,-561,-324,257,137,-443
0,5522104,201,-1874,-376,-1027,-561,-324,257,137,-443
0,5522109,201,-1874,-376,-1027,-561,-324,257,137,-443
0,5522116,196,-1874,-380,-1025,-560,-323,257,137,-443
0,5522123,196,-1874,-380,-1025,-560,-323,257,137,-443
0,5522130,200,-1876,-396,-1028,-564,-321,257,137,-443
0,5522138,200,-1876,-396,-1028,-564,-321,257,137,-443
0,5522145,200,-1876,-396,-1028,-564,-321,257,137,-443
0,5522152,198,-1874,-375,-1037,-565,-323,257,137,-443
0,5522159,198,-1874,-375,-1037,-565,-323,257,137,-443
0,5522165,198,-1874,-375,-1037,-565,-323,257,137,-443
0,5522173,200,-1874,-391,-1022,-563,-321,257,137,-443
0,5522180,200,-1874,-391,-1022,-563,-321,257,137,-443
0,5522185,200,-1874,-391,-1022,-563,-321,257,137,-443
0,5522193,200,-1876,-382,-1026,-569,-323,257,137,-443
0,5522200,200,-1876,-382,-1026,-569,-323,257,137,-443
0,5522207,200,-1876,-382,-1026,-569,-323,257,137,-443
0,5522213,201,-1874,-381,-1027,-568,-323,257,137,-443
0,5522221,201,-1874,-381,-1027,-568,-323,257,137,-443
0,5522228,201,-1874,-381,-1027,-568,-323,257,137,-443
0,5522234,201,-1873,-394,-1033,-566,-321,257,137,-443
0,5522242,201,-1873,-394,-1033,-566,-321,257,137,-443
0,5522250,201,-1873,-394,-1033,-566,-321,257,137,-443
0,5522256,200,-1873,-382,-1033,-562,-327,257,137,-443
0,5522264,200,-1873,-382,-1033,-562,-327,257,137,-443
0,5522270,200,-1873,-382,-1033,-562,-327,257,137,-443
0,5522276,202,-1873,-381,-1032,-568,-321,257,137,-443
0,5522282,202,-1873,-381,-1032,-568,-321,257,137,-443
0,5522289,202,-1873,-381,-1032,-568,-321,257,137,-443
0,5522296,200,-1875,-381,-1022,-564,-322,262,148,-448
0,5522302,200,-1875,-381,-1022,-564,-322,262,148,-448
0,5522310,200,-1875,-381,-1022,-564,-322,262,148,-448
0,5522318,200,-1874,-375,-1028,-562,-321,262,148,-448
0,5522326,200,-1874,-375,-1028,-562,-321,262,148,-448
0,5522332,202,-1873,-381,-1030,-561,-324,262,148,-448
0,5522339,202,-1873,-381,-1030,-561,-324,262,148,-448
0,5522347,202,-1873,-381,-1030,-561,-324,262,148,-448
0,5522352,204,-1872,-382,-1031,-580,-318,262,148,-448
0,5522359,204,-1872,-382,-1031,-580,-318,262,148,-448
0,5522366,204,-1872,-382,-1031,-580,-318,262,148,-448
0,5522373,203,-1874,-386,-1028,-584,-323,262,148,-448
0,5522382,203,-1874,-386,-1028,-584,-323,262,148,-448
0,5522391,203,-1874,-386,-1028,-584,-323,262,148,-448
0,5522397,198,-1877,-386,-1031,-581,-325,262,148,-448
0,5522402,198,-1877,-386,-1031,-581,-325,262,148,-448
0,5522409,198,-1877,-386,-1031,-581,-325,262,148,-448
0,5522416,200,-1873,-384,-1028,-573,-321,255,137,-445
0,5522423,200,-1873,-384,-1028,-573,-321,255,137,-445
0,5522429,200,-1873,-384,-1028,-573,-321,255,137,-445
0,5522435,203,-1873,-364,-1031,-563,-326,255,137,-445
0,5522443,203,-1873,-364,-1031,-563,-326,255,137,-445
0,5522451,200,-1875,-383,-1027,-555,-321,255,137,-445
0,5522459,200,-1875,-383,-1027,-555,-321,255,137,-445
0,5522466,200,-1875,-383,-1027,-555,-321,255,137,-445
0,5522472,202,-1875,-384,-1022,-560,-327,255,137,-445
0,5522479,202,-1875,-384,-1022,-560,-327,255,137,-445
0,5522484,202,-1875,-384,-1022,-560,-327,255,137,-445
0,5522489,202,-1875,-384,-1022,-560,-327,255,137,-445
0,5522494,201,-1878,-385,-1019,-565,-334,255,137,-445
0,5522502,201,-1878,-385,-1019,-565,-334,255,137,-445
0,5522510,201,-1878,-385,-1019,-565,-334,255,137,-445
0,5522515,203,-1873,-382,-1028,-567,-334,255,137,-445
0,5522521,203,-1873,-382,-1028,-567,-334,255,137,-445
0,5522526,203,-1873,-382,-1028,-567,-334,255,137,-445
0,5522531,202,-1875,-385,-1028,-575,-333,255,137,-445
0,5522536,202,-1875,-385,-1028,-575,-333,255,137,-445
0,5522543,202,-1875,-385,-1028,-575,-333,255,137,-445
0,5522549,202,-1875,-385,-1028,-575,-333,255,137,-445
0,5522555,203,-1872,-381,-1032,-580,-324,250,140,-442
0,5522561,203,-1872,-381,-1032,-580,-324,250,140,-442
0,5522567,203,-1872,-381,-1032,-580,-324,250,140,-442
0,5522572,198,-1874,-381,-1019,-574,-328,250,140,-442
0,5522578,198,-1874,-381,-1019,-574,-328,250,140,-442
0,5522583,198,-1874,-381,-1019,-574,-328,250,140,-442
0,5522589,198,-1874,-381,-1019,-574,-328,250,140,-442
0,5522595,201,-1871,-379,-1025,-563,-327,250,140,-442
0,5522600,201,-1871,-379,-1025,-563,-327,250,140,-442
0,5522606,201,-1871,-379,-1025,-563,-327,250,140,-442
0,5522611,198,-1878,-378,-1036,-562,-333,250,140,-442
0,5522617,198,-1878,-378,-1036,-562,-333,250,140,-442
0,5522622,198,-1878,-378,-1036,-562,-333,250,140,-442
0,5522628,198,-1878,-378,-1036,-562,-333,250,140,-442
0,5522633,198,-1879,-388,-1033,-547,-326,250,140,-442
0,5522639,198,-1879,-388,-1033,-547,-326,250,140,-442
0,5522646,198,-1879,-388,-1033,-547,-326,250,140,-442
0,5522650,198,-1879,-388,-1033,-547,-326,250,140,-442
0,5522656,197,-1874,-385,-1036,-551,-321,250,140,-442
0,5522663,197,-1874,-385,-1036,-551,-321,250,140,-442
0,5522668,197,-1874,-385,-1036,-551,-321,250,140,-442
0,5522675,203,-1877,-381,-1023,-561,-322,260,136,-452
0,5522681,203,-1877,-381,-1023,-561,-322,260,136,-452
0,5522688,203,-1877,-381,-1023,-561,-322,260,136,-452
0,5522693,198,-1876,-370,-1026,-566,-320,260,136,-452
0,5522698,198,-1876,-370,-1026,-566,-320,260,136,-452
0,5522703,198,-1876,-370,-1026,-566,-320,260,136,-452
0,5522709,198,-1876,-370,-1026,-566,-320,260,136,-452
0,5522714,201,-1873,-379,-1023,-566,-325,260,136,-452
0,5522720,201,-1873,-379,-1023,-566,-325,260,136,-452
0,5522726,201,-1873,-379,-1023,-566,-325,260,136,-452
0,5522732,200,-1874,-374,-1023,-560,-326,260,136,-452
0,5522738,200,-1874,-374,-1023,-560,-326,260,136,-452
0,5522744,200,-1874,-374,-1023,-560,-326,260,136,-452
0,5522750,200,-1874,-374,-1023,-560,-326,260,136,-452
0,5522755,198,-1878,-391,-1030,-547,-325,260,136,-452
0,5522761,198,-1878,-391,-1030,-547,-325,260,136,-452
0,5522766,198,-1878,-391,-1030,-547,-325,260,136,-452
0,5522772,200,-1874,-376,-1026,-561,-327,260,136,-452
0,5522779,200,-1874,-376,-1026,-561,-327,260,136,-452
0,5522785,200,-1874,-376,-1026,-561,-327,260,136,-452
0,5522790,200,-1874,-376,-1026,-561,-327,260,136,-452
0,5522797,202,-1878,-382,-1031,-569,-327,260,136,-452
0,5522803,202,-1878,-382,-1031,-569,-327,260,136,-452
0,5522809,202,-1878,-382,-1031,-569,-327,260,136,-452
0,5522814,203,-1873,-384,-1038,-582,-329,258,146,-446
0,5522820,203,-1873,-384,-1038,-582,-329,258,146,-446
0,5522825,203,-1873,-384,-1038,-582,-329,258,146,-446
0,5522830,203,-1873,-384,-1038,-582,-329,258,146,-446
0,5522834,201,-1870,-386,-1036,-571,-324,258,146,-446
0,5522840,201,-1870,-386,-1036,-571,-324,258,146,-446
0,5522848,201,-1870,-386,-1036,-571,-324,258,146,-446
0,5522856,200,-1873,-385,-1030,-572,-328,258,146,-446
0,5522865,200,-1873,-385,-1030,-572,-328,258,146,-446
0,5522874,202,-1877,-402,-1033,-572,-326,258,146,-446
0,5522884,202,-1877,-402,-1033,-572,-326,258,146,-446
0,5522892,198,-1872,-376,-1029,-566,-326,258,146,-446
0,5522903,198,-1872,-376,-1029,-566,-326,258,146,-446
0,5522911,198,-1872,-376,-1029,-566,-326,258,146,-446
0,5522922,201,-1874,-389,-1033,-571,-325,258,146,-446
0,5522935,200,-1871,-372,-1024,-569,-332,258,144,-448
0,5522947,200,-1871,-372,-1024,-569,-332,258,144,-448
0,5522957,203,-1871,-384,-1024,-569,-332,258,144,-448
0,5522970,203,-1871,-384,-1024,-569,-332,258,144,-448
0,5522983,197,-1875,-393,-1026,-557,-330,258,144,-448
0,5522993,202,-1877,-380,-1021,-572,-325,258,144,-448
0,5523004,202,-1877,-380,-1021,-572,-325,258,144,-448
0,5523017,198,-1876,-395,-1023,-571,-331,258,144,-448
0,5523032,199,-1874,-386,-1022,-554,-329,258,144,-448
0,5523041,199,-1874,-386,-1022,-554,-329,258,144,-448
0,5523053,200,-1873,-386,-1032,-562,-323,259,141,-449
0,5523067,200,-1873,-386,-1032,-562,-323,259,141,-449
0,5523076,199,-1874,-376,-1026,-562,-327,259,141,-449
0,5523084,199,-1874,-376,-1026,-562,-327,259,141,-449
0,5523093,199,-1874,-385,-1031,-569,-328,259,141,-449
0,5523103,199,-1874,-385,-1031,-569,-328,259,141,-449
0,5523117,199,-1874,-384,-1033,-580,-329,259,141,-449
0,5523128,199,-1874,-384,-1033,-580,-329,259,141,-449
0,5523139,196,-1874,-380,-1035,-569,-322,259,141,-449
0,5523151,198,-1875,-388,-1035,-577,-326,259,141,-449
0,5523161,198,-1875,-388,-1035,-577,-326,259,141,-449
0,5523169,198,-1875,-388,-1035,-577,-326,259,141,-449
0,5523177,199,-1873,-385,-1027,-583,-330,259,141,-449
0,5523185,199,-1873,-385,-1027,-583,-330,259,141,-449
0,5523193,202,-1875,-377,-1034,-568,-330,267,147,-447
0,5523205,202,-1875,-377,-1034,-568,-330,267,147,-447
0,5523219,199,-1876,-379,-1035,-551,-326,267,147,-447
0,5523233,198,-1877,-385,-1040,-566,-331,267,147,-447
0,5523243,198,-1877,-385,-1040,-566,-331,267,147,-447
0,5523254,201,-1877,-386,-1023,-569,-327,267,147,-447
0,5523267,201,-1877,-386,-1023,-569,-327,267,147,-447
0,5523277,197,-1873,-381,-1026,-570,-328,267,147,-447
0,5523290,197,-1873,-381,-1026,-570,-328,267,147,-447
0,5523302,197,-1873,-381,-1026,-570,-328,267,147,-447
0,5523312,199,-1878,-377,-1024,-560,-327,262,148,-450
0,5523324,199,-1878,-377,-1024,-560,-327,262,148,-450
0,5523340,199,-1873,-376,-1039,-573,-322,262,148,-450
0,5523352,201,-1873,-395,-1029,-569,-325,262,148,-450
0,5523360,201,-1873,-395,-1029,-569,-325,262,148,-450
0,5523373,201,-1875,-390,-1020,-562,-317,262,148,-450
0,5523386,201,-1875,-390,-1020,-562,-317,262,148,-450
0,5523399,201,-1872,-379,-1017,-551,-317,262,148,-450
0,5523409,201,-1872,-379,-1017,-551,-317,262,148,-450
0,5523423,202,-1878,-389,-1022,-563,-325,262,148,-450
0,5523438,202,-1875,-384,-1021,-556,-335,262,148,-450
0,5523449,202,-1875,-384,-1021,-556,-335,262,148,-450
0,5523459,198,-1873,-383,-1030,-559,-322,257,137,-447
0,5523470,198,-1873,-383,-1030,-559,-322,257,137,-447
0,5523482,203,-1873,-381,-1034,-556,-321,257,137,-447
0,5523494,200,-1877,-378,-1023,-564,-323,257,137,-447
0,5523508,200,-1877,-378,-1023,-564,-323,257,137,-447
0,5523516,202,-1873,-380,-1034,-578,-334,257,137,-447
0,5523524,202,-1873,-380,-1034,-578,-334,257,137,-447
0,5523532,200,-1876,-380,-1024,-572,-328,257,137,-447
0,5523543,200,-1876,-380,-1024,-572,-328,257,137,-447
0,5523557,200,-1873,-384,-1018,-574,-325,257,137,-447
0,5523568,200,-1873,-384,-1018,-574,-325,257,137,-447
0,5523577,201,-1878,-384,-1024,-576,-328,249,139,-457
0,5523590,201,-1878,-384,-1024,-576,-328,249,139,-457
0,5523604,201,-1875,-378,-1027,-570,-329,249,139,-457
0,5523618,202,-1874,-383,-1021,-576,-330,249,139,-457
0,5523628,202,-1874,-383,-1021,-576,-330,249,139,-457
0,5523639,202,-1874,-383,-1021,-576,-330,249,139,-457
0,5523651,202,-1874,-383,-1021,-576,-330,249,139,-457
0,5523664,204,-1874,-381,-1027,-561,-321,249,139,-457
0,5523677,197,-1875,-386,-1028,-558,-320,249,139,-457
0,5523687,197,-1875,-386,-1028,-558,-320,249,139,-457
0,5523700,200,-1873,-375,-1033,-566,-325,249,139,-457
0,5523708,200,-1873,-375,-1033,-566,-325,249,139,-457
0,5523723,202,-1873,-387,-1027,-552,-322,264,146,-442
0,5523735,201,-1873,-376,-1020,-542,-333,264,146,-442
0,5523743,201,-1873,-376,-1020,-542,-333,264,146,-442
0,5523752,201,-1873,-376,-1020,-542,-333,264,146,-442
0,5523761,201,-1874,-382,-1028,-553,-334,264,146,-442
0,5523770,201,-1874,-382,-1028,-553,-334,264,146,-442
0,5523778,198,-1873,-382,-1024,-570,-325,264,146,-442
0,5523791,198,-1873,-382,-1024,-570,-325,264,146,-442
0,5523807,199,-1873,-384,-1025,-570,-324,264,146,-442
0,5523815,195,-1875,-388,-1031,-564,-322,264,146,-442
0,5523824,195,-1875,-388,-1031,-564,-322,264,146,-442
0,5523832,195,-1875,-388,-1031,-564,-322,264,146,-442
0,5523841,200,-1875,-376,-1019,-554,-325,258,148,-452
0,5523849,200,-1875,-376,-1019,-554,-325,258,148,-452
0,5523854,202,-1876,-382,-1020,-567,-327,258,148,-452
0,5523859,202,-1876,-382,-1020,-567,-327,258,148,-452
0,5523865,202,-1876,-382,-1020,-567,-327,258,148,-452
0,5523870,202,-1876,-382,-1020,-567,-327,258,148,-452
0,5523876,201,-1876,-381,-1021,-577,-325,258,148,-452
0,5523881,201,-1876,-381,-1021,-577,-325,258,148,-452
0,5523888,201,-1876,-381,-1021,-577,-325,258,148,-452
0,5523893,201,-1877,-383,-1026,-572,-328,258,148,-452
0,5523899,201,-1877,-383,-1026,-572,-328,258,148,-452
0,5523904,201,-1877,-383,-1026,-572,-328,258,148,-452
0,5523909,201,-1877,-383,-1026,-572,-328,258,148,-452
0,5523917,200,-1875,-386,-1024,-559,-318,258,148,-452
0,5523926,200,-1875,-386,-1024,-559,-318,258,148,-452
0,5523932,200,-1875,-386,-1024,-559,-318,258,148,-452
0,5523940,202,-1874,-385,-1029,-563,-325,258,148,-452
0,5523945,202,-1874,-385,-1029,-563,-325,258,148,-452
0,5523952,202,-1874,-385,-1029,-563,-325,258,148,-452
0,5523959,199,-1876,-380,-1025,-556,-327,262,142,-444
0,5523966,199,-1876,-380,-1025,-556,-327,262,142,-444
0,5523974,199,-1874,-377,-1025,-564,-326,262,142,-444
0,5523981,199,-1874,-377,-1025,-564,-326,262,142,-444
0,5523988,199,-1874,-377,-1025,-564,-326,262,142,-444
0,5523995,203,-1876,-383,-1037,-568,-328,262,142,-444
0,5524002,203,-1876,-383,-1037,-568,-328,262,142,-444
0,5524008,203,-1876,-383,-1037,-568,-328,262,142,-444
0,5524014,201,-1871,-380,-1032,-559,-333,262,142,-444
0,5524022,201,-1871,-380,-1032,-559,-333,262,142,-444
0,5524028,201,-1871,-380,-1032,-559,-333,262,142,-444
0,5524035,201,-1875,-377,-1020,-555,-333,262,142,-444
0,5524042,201,-1875,-377,-1020,-555,-333,262,142,-444
0,5524049,201,-1875,-377,-1020,-555,-333,262,142,-444
0,5524058,201,-1872,-376,-1021,-569,-332,262,142,-444
0,5524065,201,-1872,-376,-1021,-569,-332,262,142,-444
0,5524071,201,-1872,-376,-1021,-569,-332,262,142,-444
0,5524078,199,-1872,-390,-1034,-578,-330,262,142,-444
0,5524085,199,-1872,-390,-1034,-578,-330,262,142,-444
0,5524092,203,-1876,-383,-1027,-573,-324,262,142,-444
0,5524101,203,-1876,-383,-1027,-573,-324,255,147,-443
0,5524109,203,-1876,-383,-1027,-573,-324,255,147,-443
0,5524116,199,-1875,-382,-1027,-568,-325,255,147,-443
0,5524122,199,-1875,-382,-1027,-568,-325,255,147,-443
0,5524129,199,-1875,-382,-1027,-568,-325,255,147,-443
0,5524136,202,-1878,-385,-1019,-567,-328,255,147,-443
0,5524144,202,-1878,-385,-1019,-567,-328,255,147,-443
0,5524152,202,-1878,-385,-1019,-567,-328,255,147,-443
0,5524158,200,-1877,-386,-1027,-568,-324,255,147,-443
0,5524164,200,-1877,-386,-1027,-568,-324,255,147,-443
0,5524171,200,-1877,-386,-1027,-568,-324,255,147,-443
0,5524177,200,-1875,-391,-1023,-562,-327,255,147,-443
0,5524186,200,-1875,-391,-1023,-562,-327,255,147,-443
0,5524193,196,-1873,-348,-1029,-560,-316,255,147,-443
0,5524201,196,-1873,-348,-1029,-560,-316,255,147,-443
0,5524208,196,-1873,-348,-1029,-560,-316,255,147,-443
0,5524213,202,-1874,-413,-1022,-564,-322,255,147,-443
0,5524220,202,-1874,-413,-1022,-564,-322,264,150,-440
0,5524228,202,-1874,-413,-1022,-564,-322,264,150,-440
0,5524235,199,-1876,-373,-1018,-555,-326,264,150,-440
0,5524242,199,-1876,-373,-1018,-555,-326,264,150,-440
0,5524249,199,-1876,-373,-1018,-555,-326,264,150,-440
0,5524257,202,-1875,-390,-1026,-561,-326,264,150,-440
0,5524263,202,-1875,-390,-1026,-561,-326,264,150,-440
0,5524268,202,-1875,-390,-1026,-561,-326,264,150,-440
0,5524274,200,-1873,-385,-1028,-567,-330,264,150,-440
0,5524279,200,-1873,-385,-1028,-567,-330,264,150,-440
0,5524288,200,-1873,-385,-1028,-567,-330,264,150,-440
0,5524294,201,-1874,-386,-1033,-576,-334,264,150,-440
0,5524301,201,-1874,-386,-1033,-576,-334,264,150,-440
0,5524306,201,-1874,-386,-1033,-576,-334,264,150,-440
0,5524312,201,-1874,-386,-1033,-576,-334,264,150,-440
0,5524320,199,-1873,-390,-1034,-575,-324,264,150,-440
0,5524327,199,-1873,-390,-1034,-575,-324,264,150,-440
0,5524334,201,-1876,-382,-1030,-580,-329,264,150,-440
0,5524340,201,-1876,-382,-1030,-580,-329,264,150,-440
0,5524346,201,-1876,-382,-1030,-580,-329,264,150,-440
0,5524352,201,-1876,-382,-1030,-580,-329,264,150,-440
0,5524359,200,-1874,-373,-1034,-577,-331,253,149,-445
0,5524364,200,-1874,-373,-1034,-577,-331,253,149,-445
0,5524371,200,-1874,-373,-1034,-577,-331,253,149,-445
0,5524377,205,-1875,-395,-1022,-567,-324,253,149,-445
0,5524385,205,-1875,-395,-1022,-567,-324,253,149,-445
0,5524392,205,-1875,-395,-1022,-567,-324,253,149,-445
0,5524400,199,-1876,-380,-1017,-567,-328,253,149,-445
0,5524408,199,-1876,-380,-1017,-567,-328,253,149,-445
0,5524415,199,-1875,-381,-1016,-569,-327,253,149,-445
0,5524421,199,-1875,-381,-1016,-569,-327,253,149,-445
0,5524430,199,-1875,-381,-1016,-569,-327,253,149,-445
0,5524436,204,-1875,-389,-1027,-568,-335,253,149,-445
0,5524444,204,-1875,-389,-1027,-568,-335,253,149,-445
0,5524450,204,-1875,-389,-1027,-568,-335,253,149,-445
0,5524458,199,-1876,-378,-1027,-566,-329,253,149,-445
0,5524463,199,-1876,-378,-1027,-566,-329,253,149,-445
0,5524469,199,-1876,-378,-1027,-566,-329,253,149,-445
0,5524474,200,-1874,-386,-1029,-569,-321,261,143,-441
0,5524482,200,-1874,-386,-1029,-569,-321,261,143,-441
0,5524488,200,-1874,-386,-1029,-569,-321,261,143,-441
0,5524494,202,-1874,-381,-1024,-562,-323,261,143,-441
0,5524499,202,-1874,-381,-1024,-562,-323,261,143,-441
0,5524507,202,-1874,-381,-1024,-562,-323,261,143,-441
0,5524513,202,-1874,-381,-1024,-562,-323,261,143,-441
0,5524518,203,-1875,-383,-1027,-561,-324,261,143,-441
0,5524523,203,-1875,-383,-1027,-561,-324,261,143,-441
0,5524528,203,-1875,-383,-1027,-561,-324,261,143,-441
0,5524534,200,-1873,-379,-1030,-572,-330,261,143,-441
0,5524539,200,-1873,-379,-1030,-572,-330,261,143,-441
0,5524544,200,-1873,-379,-1030,-572,-330,261,143,-441
0,5524551,200,-1873,-379,-1030,-572,-330,261,143,-441
0,5524556,204,-1875,-377,-1023,-567,-327,261,143,-441
0,5524564,204,-1875,-377,-1023,-567,-327,261,143,-441
0,5524572,204,-1875,-377,-1023,-567,-327,261,143,-441
0,5524579,202,-1875,-399,-1034,-577,-326,261,143,-441
0,5524588,202,-1875,-399,-1034,-577,-326,261,143,-441
0,5524595,197,-1875,-372,-1032,-573,-316,261,143,-441
0,5524601,197,-1875,-372,-1032,-573,-316,261,143,-441
0,5524609,197,-1875,-372,-1032,-573,-316,261,143,-441
0,5524615,202,-1874,-387,-1036,-579,-326,257,145,-439
0,5524623,202,-1874,-387,-1036,-579,-326,257,145,-439
0,5524630,202,-1874,-387,-1036,-579,-326,257,145,-439
0,5524637,201,-1875,-380,-1028,-566,-321,257,145,-439
0,5524643,201,-1875,-380,-1028,-566,-321,257,145,-439
0,5524649,201,-1875,-380,-1028,-566,-321,257,145,-439
0,5524656,199,-1875,-371,-1035,-575,-328,257,145,-439
0,5524663,199,-1875,-371,-1035,-575,-328,257,145,-439
0,5524671,199,-1875,-371,-1035,-575,-328,257,145,-439
0,5524677,197,-1874,-387,-1027,-597,-328,257,145,-439
0,5524683,197,-1874,-387,-1027,-597,-328,257,145,-439
0,5524691,197,-1874,-387,-1027,-597,-328,257,145,-439
0,5524699,200,-1872,-390,-1014,-591,-324,257,145,-439
0,5524705,200,-1872,-390,-1014,-591,-324,257,145,-439
0,5524712,200,-1872,-390,-1014,-591,-324,257,145,-439
0,5524718,197,-1876,-384,-1025,-578,-326,257,145,-439
0,5524726,197,-1876,-384,-1025,-578,-326,257,145,-439
0,5524731,197,-1876,-384,-1025,-578,-326,257,145,-439
0,5524740,200,-1877,-382,-1029,-573,-326,262,148,-452
0,5524747,200,-1877,-382,-1029,-573,-326,262,148,-452
0,5524753,200,-1872,-373,-1021,-568,-331,262,148,-452
0,5524762,200,-1872,-373,-1021,-568,-331,262,148,-452
0,5524769,200,-1872,-373,-1021,-568,-331,262,148,-452
0,5524775,200,-1874,-380,-1022,-570,-327,262,148,-452
0,5524782,200,-1874,-380,-1022,-570,-327,262,148,-452
0,5524787,200,-1874,-380,-1022,-570,-327,262,148,-452
0,5524792,200,-1874,-380,-1022,-570,-327,262,148,-452
0,5524798,200,-1874,-379,-1031,-578,-329,262,148,-452
0,5524805,200,-1874,-379,-1031,-578,-329,262,148,-452
0,5524810,200,-1874,-379,-1031,-578,-329,262,148,-452
0,5524816,200,-1874,-387,-1024,-570,-330,262,148,-452
0,5524822,200,-1874,-387,-1024,-570,-330,262,148,-452
0,5524827,200,-1874,-387,-1024,-570,-330,262,148,-452
0,5524832,200,-1874,-387,-1024,-570,-330,262,148,-452
0,5524837,202,-1875,-387,-1028,-562,-325,262,148,-452
0,5524842,202,-1875,-387,-1028,-562,-325,262,148,-452
0,5524847,202,-1875,-387,-1028,-562,-325,262,148,-452
0,5524853,198,-1876,-381,-1025,-555,-320,262,148,-452
0,5524865,198,-1876,-381,-1025,-555,-320,256,138,-436
0,5524877,202,-1873,-367,-1029,-552,-324,256,138,-436
0,5524889,202,-1873,-367,-1029,-552,-324,256,138,-436
0,5524902,198,-1875,-394,-1037,-557,-326,256,138,-436
0,5524915,200,-1875,-377,-1024,-573,-336,256,138,-436
0,5524926,200,-1875,-377,-1024,-573,-336,256,138,-436
0,5524937,199,-1875,-384,-1034,-561,-330,256,138,-436
0,5524948,199,-1875,-384,-1034,-561,-330,256,138,-436
0,5524962,196,-1876,-387,-1029,-557,-327,256,138,-436
0,5524975,199,-1877,-378,-1032,-567,-322,256,138,-436
0,5524984,199,-1877,-378,-1032,-567,-322,256,138,-436
0,5524996,199,-1875,-378,-1034,-558,-317,253,145,-451
0,5525008,199,-1875,-378,-1034,-558,-317,253,145,-451
0,5525020,199,-1873,-379,-1036,-566,-325,253,145,-451
0,5525031,199,-1873,-379,-1036,-566,-325,253,145,-451
0,5525044,202,-1874,-386,-1033,-567,-320,253,145,-451
0,5525056,200,-1877,-382,-1032,-569,-325,253,145,-451
0,5525070,200,-1877,-382,-1032,-569,-325,253,145,-451
0,5525083,200,-1876,-383,-1034,-577,-327,253,145,-451
0,5525093,200,-1876,-383,-1034,-577,-327,253,145,-451
0,5525105,197,-1876,-385,-1028,-571,-329,253,145,-451
0,5525117,198,-1873,-375,-1024,-564,-321,258,146,-436
0,5525131,198,-1873,-375,-1024,-564,-321,258,146,-436
0,5525141,197,-1876,-385,-1026,-567,-326,258,146,-436
0,5525154,200,-1876,-390,-1029,-572,-326,258,146,-436
0,5525168,200,-1876,-390,-1029,-572,-326,258,146,-436
0,5525182,201,-1874,-381,-1024,-572,-327,258,146,-436
0,5525193,201,-1874,-381,-1024,-572,-327,258,146,-436
0,5525203,199,-1874,-388,-1025,-570,-326,258,146,-436
0,5525217,198,-1874,-387,-1034,-566,-322,258,146,-436
0,5525229,198,-1874,-387,-1034,-566,-322,258,146,-436
0,5525237,202,-1876,-379,-1030,-557,-326,258,146,-436
0,5525249,202,-1876,-379,-1030,-557,-326,258,146,-436
0,5525260,202,-1874,-377,-1036,-562,-329,263,135,-447
0,5525273,202,-1874,-377,-1036,-562,-329,263,135,-447
0,5525284,203,-1873,-380,-1024,-559,-318,263,135,-447
0,5525299,201,-1874,-389,-1025,-557,-321,263,135,-447
0,5525311,201,-1874,-389,-1025,-557,-321,263,135,-447
0,5525324,201,-1875,-382,-1027,-560,-321,263,135,-447
0,5525338,203,-1874,-381,-1022,-565,-327,263,135,-447
0,5525350,203,-1874,-381,-1022,-565,-327,263,135,-447
0,5525363,199,-1874,-380,-1022,-572,-328,263,135,-447
0,5525377,200,-1873,-375,-1020,-550,-333,263,149,-451
0,5525389,200,-1873,-375,-1020,-550,-333,263,149,-451
0,5525401,202,-1874,-379,-1021,-562,-332,263,149,-451
0,5525413,202,-1874,-379,-1021,-562,-332,263,149,-451
0,5525428,203,-1875,-378,-1034,-575,-326,263,149,-451
0,5525441,201,-1876,-383,-1037,-585,-324,263,149,-451
0,5525452,201,-1876,-383,-1037,-585,-324,263,149,-451
0,5525464,199,-1874,-383,-1034,-581,-328,263,149,-451
0,5525472,199,-1874,-383,-1034,-581,-328,263,149,-451
0,5525480,201,-1874,-377,-1024,-564,-328,263,149,-451
0,5525488,201,-1874,-377,-1024,-564,-328,263,149,-451
0,5525496,199,-1873,-383,-1028,-562,-327,255,139,-439
0,5525505,199,-1873,-383,-1028,-562,-327,255,139,-439
0,5525513,199,-1873,-383,-1028,-562,-327,255,139,-439
0,5525521,201,-1874,-381,-1027,-567,-325,255,139,-439
0,5525529,201,-1874,-381,-1027,-567,-325,255,139,-439
0,5525537,203,-1875,-383,-1034,-571,-326,255,139,-439
0,5525548,203,-1875,-383,-1034,-571,-326,255,139,-439
0,5525557,200,-1876,-384,-1038,-576,-328,255,139,-439
0,5525565,200,-1876,-384,-1038,-576,-328,255,139,-439
0,5525575,201,-1872,-390,-1034,-573,-324,255,139,-439
0,5525585,201,-1872,-390,-1034,-573,-324,255,139,-439
0,5525594,201,-1872,-390,-1034,-573,-324,255,139,-439
0,5525604,202,-1877,-385,-1035,-575,-327,255,139,-439
0,5525615,200,-1877,-387,-1034,-565,-333,255,139,-439
0,5525629,200,-1877,-387,-1034,-565,-333,255,139,-439
0,5525642,202,-1874,-378,-1030,-549,-323,258,144,-450
0,5525654,202,-1874,-378,-1030,-549,-323,258,144,-450
0,5525668,199,-1875,-390,-1026,-549,-328,258,144,-450
0,5525680,202,-1874,-387,-1020,-534,-331,258,144,-450
0,5525693,202,-1874,-387,-1020,-534,-331,258,144,-450
0,5525702,198,-1878,-378,-1024,-546,-326,258,144,-450
0,5525710,198,-1878,-378,-1024,-546,-326,258,144,-450
0,5525719,201,-1873,-378,-1029,-564,-334,258,144,-450
0,5525731,201,-1873,-378,-1029,-564,-334,258,144,-450
0,5525745,198,-1876,-379,-1026,-557,-327,258,144,-450
0,5525758,196,-1874,-382,-1027,-558,-326,252,150,-446
0,5525771,196,-1874,-382,-1027,-558,-326,252,150,-446
0,5525781,198,-1876,-379,-1029,-559,-331,252,150,-446
0,5525794,198,-1876,-379,-1029,-559,-331,252,150,-446
0,5525809,199,-1876,-384,-1030,-569,-325,252,150,-446
0,5525817,200,-1875,-380,-1021,-564,-324,252,150,-446
0,5525825,200,-1875,-380,-1021,-564,-324,252,150,-446
0,5525833,200,-1875,-380,-1021,-564,-324,252,150,-446
0,5525841,202,-1875,-384,-1021,-562,-324,252,150,-446
0,5525850,202,-1875,-384,-1021,-562,-324,252,150,-446
0,5525858,200,-1874,-374,-1029,-592,-313,252,150,-446
0,5525864,200,-1874,-374,-1029,-592,-313,252,150,-446
0,5525870,200,-1874,-374,-1029,-592,-313,252,150,-446
0,5525875,201,-1874,-391,-1014,-589,-322,252,150,-446
0,5525881,201,-1874,-391,-1014,-589,-322,252,150,-446
0,5525886,201,-1874,-391,-1014,-589,-322,252,150,-446
0,5525892,201,-1874,-391,-1014,-589,-322,252,150,-446
0,5525897,202,-1874,-379,-1025,-561,-324,261,153,-445
0,5525902,202,-1874,-379,-1025,-561,-324,261,153,-445
0,5525908,202,-1874,-379,-1025,-561,-324,261,153,-445
0,5525914,202,-1874,-379,-1025,-561,-324,261,153,-445
0,5525920,199,-1875,-382,-1027,-548,-328,261,153,-445
0,5525925,199,-1875,-382,-1027,-548,-328,261,153,-445
0,5525932,199,-1875,-382,-1027,-548,-328,261,153,-445
0,5525939,199,-1874,-392,-1025,-572,-323,261,153,-445
0,5525944,199,-1874,-392,-1025,-572,-323,261,153,-445
0,5525949,199,-1874,-392,-1025,-572,-323,261,153,-445
0,5525954,199,-1874,-392,-1025,-572,-323,261,153,-445
0,5525960,200,-1876,-380,-1018,-575,-330,261,153,-445
0,5525965,200,-1876,-380,-1018,-575,-330,261,153,-445
0,5525970,200,-1876,-380,-1018,-575,-330,261,153,-445
0,5525976,202,-1874,-389,-1022,-567,-325,261,153,-445
0,5525981,202,-1874,-389,-1022,-567,-325,261,153,-445
0,5525989,202,-1874,-389,-1022,-567,-325,261,153,-445
0,5525998,200,-1877,-384,-1021,-570,-323,261,153,-445
0,5526003,200,-1877,-384,-1021,-570,-323,261,153,-445
0,5526010,200,-1877,-384,-1021,-570,-323,261,153,-445
0,5526018,202,-1872,-385,-1020,-571,-317,257,143,-443
0,5526024,202,-1872,-385,-1020,-571,-317,257,143,-443
0,5526030,202,-1872,-385,-1020,-571,-317,257,143,-443
0,5526035,202,-1872,-385,-1020,-571,-317,257,143,-443
0,5526040,198,-1877,-379,-1020,-565,-321,257,143,-443
0,5526048,198,-1877,-379,-1020,-565,-321,257,143,-443
0,5526055,202,-1877,-379,-1017,-570,-321,257,143,-443
0,5526064,202,-1877,-379,-1017,-570,-321,257,143,-443
0,5526071,202,-1877,-379,-1017,-570,-321,257,143,-443
0,5526078,198,-1874,-383,-1020,-568,-321,257,143,-443
0,5526085,198,-1874,-383,-1020,-568,-321,257,143,-443
0,5526091,198,-1874,-383,-1020,-568,-321,257,143,-443
0,5526098,198,-1874,-385,-1032,-565,-326,257,143,-443
0,5526106,198,-1874,-385,-1032,-565,-326,257,143,-443
0,5526114,198,-1874,-385,-1032,-565,-326,257,143,-443
0,5526121,202,-1877,-382,-1019,-563,-322,257,143,-443
0,5526129,202,-1877,-382,-1019,-563,-322,257,143,-443
0,5526136,201,-1875,-380,-1023,-563,-327,257,143,-443
0,5526145,201,-1875,-380,-1023,-563,-327,257,143,-443
0,5526152,201,-1875,-380,-1023,-563,-327,257,143,-443
0,5526158,201,-1875,-378,-1024,-560,-326,259,141,-445
0,5526164,201,-1875,-378,-1024,-560,-326,259,141,-445
0,5526171,201,-1875,-378,-1024,-560,-326,259,141,-445
0,5526178,200,-1875,-384,-1025,-556,-319,259,141,-445
0,5526187,200,-1875,-384,-1025,-556,-319,259,141,-445
0,5526194,200,-1875,-384,-1025,-556,-319,259,141,-445
0,5526202,199,-1876,-382,-1022,-554,-327,259,141,-445
0,5526208,199,-1876,-382,-1022,-554,-327,259,141,-445
0,5526214,199,-1876,-382,-1022,-554,-327,259,141,-445
0,5526220,199,-1876,-384,-1022,-558,-330,259,141,-445
0,5526227,199,-1876,-384,-1022,-558,-330,259,141,-445
0,5526234,199,-1876,-384,-1022,-558,-330,259,141,-445
0,5526239,203,-1873,-383,-1018,-554,-335,259,141,-445
0,5526247,203,-1873,-383,-1018,-554,-335,259,141,-445
0,5526254,203,-1873,-383,-1018,-554,-335,259,141,-445
0,5526261,197,-1874,-388,-1027,-547,-335,259,141,-445
0,5526268,197,-1874,-388,-1027,-547,-335,259,141,-445
0,5526277,201,-1872,-384,-1025,-562,-325,254,142,-448
0,5526284,201,-1872,-384,-1025,-562,-325,254,142,-448
0,5526292,201,-1872,-384,-1025,-562,-325,254,142,-448
0,5526298,200,-1873,-379,-1022,-564,-324,254,142,-448
0,5526305,200,-1873,-379,-1022,-564,-324,254,142,-448
0,5526312,200,-1873,-379,-1022,-564,-324,254,142,-448
0,5526321,202,-1872,-398,-1018,-563,-323,254,142,-448
0,5526327,202,-1872,-398,-1018,-563,-323,254,142,-448
0,5526333,202,-1872,-398,-1018,-563,-323,254,142,-448
0,5526339,199,-1870,-364,-1033,-569,-325,254,142,-448
0,5526347,199,-1870,-364,-1033,-569,-325,254,142,-448
0,5526353,199,-1870,-364,-1033,-569,-325,254,142,-448
0,5526361,200,-1874,-394,-1025,-562,-321,254,142,-448
0,5526369,200,-1874,-394,-1025,-562,-321,254,142,-448
0,5526376,200,-1879,-382,-1028,-561,-320,254,142,-448
0,5526384,200,-1879,-382,-1028,-561,-320,254,142,-448
0,5526390,200,-1879,-382,-1028,-561,-320,254,142,-448
0,5526397,197,-1873,-385,-1017,-572,-320,257,145,-455
0,5526404,197,-1873,-385,-1017,-572,-320,257,145,-455
0,5526411,197,-1873,-385,-1017,-572,-320,257,145,-455
0,5526417,199,-1874,-377,-1022,-582,-324,257,145,-455
0,5526425,199,-1874,-377,-1022,-582,-324,257,145,-455
0,5526432,199,-1874,-377,-1022,-582,-324,257,145,-455
0,5526437,200,-1874,-381,-1028,-569,-324,257,145,-455
0,5526444,200,-1874,-381,-1028,-569,-324,257,145,-455
0,5526449,200,-1874,-381,-1028,-569,-324,257,145,-455
0,5526454,200,-1874,-381,-1028,-569,-324,257,145,-455
0,5526462,198,-1873,-382,-1033,-562,-314,257,145,-455
0,5526467,198,-1873,-382,-1033,-562,-314,257,145,-455
0,5526473,198,-1873,-382,-1033,-562,-314,257,145,-455
0,5526480,200,-1874,-392,-1027,-569,-316,257,145,-455
0,5526488,200,-1874,-392,-1027,-569,-316,257,145,-455
0,5526493,200,-1874,-392,-1027,-569,-316,257,145,-455
0,5526498,202,-1872,-380,-1030,-570,-325,257,145,-455
0,5526504,202,-1872,-380,-1030,-570,-325,257,145,-455
0,5526509,202,-1872,-380,-1030,-570,-325,257,145,-455
0,5526515,202,-1872,-380,-1030,-570,-325,257,145,-455
0,5526520,201,-1876,-385,-1022,-564,-325,257,145,-455
0,5526524,201,-1876,-385,-1022,-564,-325,257,145,-455
0,5526531,201,-1876,-385,-1022,-564,-325,257,145,-455
0,5526536,201,-1876,-385,-1022,-564,-325,257,145,-455
0,5526541,199,-1876,-394,-1020,-552,-325,264,154,-444
0,5526548,199,-1876,-394,-1020,-552,-325,264,154,-444
0,5526556,201,-1873,-375,-1028,-552,-321,264,154,-444
0,5526563,201,-1873,-375,-1028,-552,-321,264,154,-444
0,5526568,201,-1873,-375,-1028,-552,-321,264,154,-444
0,5526574,201,-1873,-375,-1028,-552,-321,264,154,-444
0,5526579,201,-1873,-375,-1028,-552,-321,264,154,-444
0,5526584,201,-1873,-375,-1028,-552,-321,264,154,-444
0,5526590,201,-1873,-375,-1028,-552,-321,264,154,-444
0,5526597,200,-1875,-384,-1032,-562,-330,264,154,-444
0,5526604,200,-1875,-384,-1032,-562,-330,264,154,-444
0,5526611,200,-1875,-384,-1032,-562,-330,264,154,-444
0,5526619,199,-1876,-380,-1031,-564,-332,264,154,-444
0,5526624,199,-1876,-380,-1031,-564,-332,264,154,-444
0,5526632,199,-1876,-380,-1031,-564,-332,264,154,-444
0,5526640,201,-1874,-392,-1032,-567,-321,264,154,-444
0,5526647,201,-1874,-392,-1032,-567,-321,264,154,-444
0,5526654,201,-1874,-392,-1032,-567,-321,264,154,-444
0,5526660,201,-1873,-377,-1021,-556,-327,259,143,-443
0,5526665,201,-1873,-377,-1021,-556,-327,259,143,-443
0,5526672,201,-1873,-377,-1021,-556,-327,259,143,-443
0,5526678,196,-1874,-382,-1018,-553,-327,259,143,-443
0,5526685,196,-1874,-382,-1018,-553,-327,259,143,-443
0,5526691,196,-1874,-382,-1018,-553,-327,259,143,-443
0,5526700,201,-1874,-379,-1035,-563,-318,259,143,-443
0,5526707,201,-1874,-379,-1035,-563,-318,259,143,-443
0,5526714,201,-1874,-379,-1035,-563,-318,259,143,-443
0,5526721,200,-1875,-392,-1032,-566,-323,259,143,-443
0,5526728,200,-1875,-392,-1032,-566,-323,259,143,-443
0,5526734,200,-1875,-392,-1032,-566,-323,259,143,-443
0,5526740,198,-1878,-383,-1025,-568,-320,259,143,-443
0,5526749,198,-1878,-383,-1025,-568,-320,259,143,-443
0,5526755,198,-1878,-383,-1025,-568,-320,259,143,-443
0,5526762,198,-1874,-388,-1024,-572,-324,259,143,-443
0,5526769,198,-1874,-388,-1024,-572,-324,259,143,-443
0,5526776,201,-1875,-392,-1032,-579,-323,259,143,-443
0,5526784,201,-1875,-392,-1032,-579,-323,259,143,-443
0,5526791,201,-1875,-392,-1032,-579,-323,259,143,-443
0,5526798,202,-1873,-376,-1029,-569,-329,256,146,-446
0,5526805,202,-1873,-376,-1029,-569,-329,256,146,-446
0,5526810,202,-1873,-376,-1029,-569,-329,256,146,-446
0,5526815,202,-1873,-376,-1029,-569,-329,256,146,-446
0,5526820,198,-1873,-386,-1018,-566,-329,256,146,-446
0,5526825,198,-1873,-386,-1018,-566,-329,256,146,-446
0,5526832,198,-1873,-386,-1018,-566,-329,256,146,-446
0,5526837,202,-1877,-385,-1017,-557,-321,256,146,-446
0,5526842,202,-1877,-385,-1017,-557,-321,256,146,-446
0,5526847,202,-1877,-385,-1017,-557,-321,256,146,-446
0,5526855,202,-1877,-385,-1017,-557,-321,256,146,-446
0,5526862,200,-1875,-370,-1017,-561,-318,256,146,-446
0,5526872,200,-1875,-370,-1017,-561,-318,256,146,-446
0,5526885,204,-1874,-391,-1025,-560,-324,256,146,-446
0,5526894,204,-1874,-391,-1025,-560,-324,256,146,-446
0,5526906,200,-1875,-391,-1027,-559,-316,256,146,-446
0,5526922,198,-1873,-375,-1026,-558,-319,255,139,-451
0,5526935,198,-1873,-375,-1026,-558,-319,255,139,-451
0,5526945,199,-1875,-384,-1031,-560,-325,255,139,-451
0,5526958,203,-1875,-378,-1025,-552,-323,255,139,-451
0,5526973,203,-1875,-378,-1025,-552,-323,255,139,-451
0,5526987,202,-1871,-386,-1026,-557,-322,255,139,-451
0,5526996,202,-1871,-386,-1026,-557,-322,255,139,-451
0,5527009,200,-1875,-385,-1025,-570,-317,255,139,-451
0,5527021,198,-1875,-381,-1010,-585,-331,255,139,-451
0,5527033,198,-1875,-381,-1010,-585,-331,255,139,-451
0,5527045,202,-1876,-390,-1022,-579,-328,255,139,-451
0,5527058,202,-1876,-388,-1026,-555,-326,257,151,-445
0,5527068,202,-1876,-388,-1026,-555,-326,257,151,-445
0,5527081,198,-1876,-388,-1028,-543,-324,257,151,-445
0,5527093,198,-1876,-388,-1028,-543,-324,257,151,-445
0,5527109,201,-1878,-378,-1038,-562,-328,257,151,-445
0,5527121,197,-1872,-391,-1031,-569,-324,257,151,-445
0,5527130,197,-1872,-391,-1031,-569,-324,257,151,-445
0,5527140,200,-1877,-399,-1016,-568,-329,257,151,-445
0,5527148,200,-1877,-399,-1016,-568,-329,257,151,-445
0,5527156,200,-1877,-399,-1016,-568,-329,257,151,-445
0,5527164,198,-1872,-369,-1015,-559,-327,257,151,-445
0,5527173,198,-1872,-369,-1015,-559,-327,257,151,-445
0,5527186,199,-1876,-389,-1022,-551,-329,265,137,-439
0,5527199,198,-1873,-379,-1028,-564,-332,265,137,-439
0,5527212,198,-1873,-379,-1028,-564,-332,265,137,-439
0,5527223,197,-1876,-400,-1023,-564,-333,265,137,-439
0,5527237,201,-1876,-386,-1013,-560,-329,265,137,-439
0,5527249,201,-1876,-386,-1013,-560,-329,265,137,-439
0,5527262,201,-1874,-392,-1015,-559,-322,265,137,-439
0,5527274,201,-1874,-392,-1015,-559,-322,265,137,-439
0,5527288,202,-1876,-380,-1021,-557,-316,265,137,-439
0,5527301,199,-1873,-381,-1018,-559,-322,261,141,-445
0,5527312,199,-1873,-381,-1018,-559,-322,261,141,-445
0,5527323,199,-1875,-385,-1023,-560,-331,261,141,-445
0,5527331,199,-1875,-385,-1023,-560,-331,261,141,-445
0,5527342,199,-1873,-387,-1024,-559,-326,261,141,-445
0,5527350,199,-1873,-387,-1024,-559,-326,261,141,-445
0,5527358,200,-1873,-387,-1027,-559,-318,261,141,-445
0,5527365,200,-1873,-387,-1027,-559,-318,261,141,-445
0,5527373,200,-1873,-387,-1027,-559,-318,261,141,-445
0,5527383,201,-1876,-386,-1024,-562,-328,261,141,-445
0,5527391,201,-1876,-386,-1024,-562,-328,261,141,-445
0,5527399,197,-1875,-381,-1030,-569,-326,261,141,-445
0,5527407,197,-1875,-381,-1030,-569,-326,261,141,-445
0,5527415,197,-1875,-381,-1030,-569,-326,261,141,-445
0,5527424,197,-1875,-386,-1026,-565,-329,261,141,-445
0,5527432,197,-1875,-386,-1026,-565,-329,261,141,-445
0,5527440,200,-1875,-383,-1022,-560,-324,268,138,-448
0,5527449,200,-1875,-383,-1022,-560,-324,268,138,-448
0,5527457,201,-1876,-382,-1020,-558,-323,268,138,-448
0,5527467,201,-1876,-382,-1020,-558,-323,268,138,-448
0,5527474,201,-1876,-382,-1020,-558,-323,268,138,-448
0,5527483,203,-1876,-384,-1030,-557,-323,268,138,-448
0,5527491,203,-1876,-384,-1030,-557,-323,268,138,-448
0,5527499,197,-1874,-385,-1032,-560,-322,268,138,-448
0,5527508,197,-1874,-385,-1032,-560,-322,268,138,-448
0,5527517,197,-1874,-385,-1032,-560,-322,268,138,-448
0,5527524,199,-1874,-386,-1027,-564,-324,268,138,-448
0,5527532,199,-1874,-386,-1027,-564,-324,268,138,-448
0,5527541,200,-1872,-383,-1020,-558,-321,268,138,-448
0,5527550,200,-1872,-383,-1020,-558,-321,268,138,-448
0,5527559,197,-1875,-379,-1030,-562,-328,261,139,-439
0,5527567,197,-1875,-379,-1030,-562,-328,261,139,-439
0,5527574,197,-1875,-379,-1030,-562,-328,261,139,-439
0,5527582,199,-1877,-382,-1027,-559,-323,261,139,-439
0,5527590,199,-1877,-382,-1027,-559,-323,261,139,-439
0,5527599,199,-1875,-378,-1025,-562,-321,261,139,-439
0,5527608,199,-1875,-378,-1025,-562,-321,261,139,-439
0,5527616,199,-1875,-378,-1025,-562,-321,261,139,-439
0,5527625,203,-1874,-384,-1027,-560,-323,261,139,-439
0,5527633,203,-1874,-384,-1027,-560,-323,261,139,-439
0,5527643,201,-1874,-405,-1033,-562,-332,261,139,-439
0,5527653,201,-1874,-405,-1033,-562,-332,261,139,-439
0,5527665,203,-1871,-374,-1028,-566,-325,261,139,-439
0,5527678,199,-1878,-378,-1027,-552,-320,261,139,-439
0,5527692,199,-1878,-378,-1027,-552,-320,261,139,-439
0,5527701,202,-1877,-390,-1033,-555,-325,258,144,-438
0,5527712,202,-1877,-390,-1033,-555,-325,258,144,-438
0,5527727,200,-1873,-366,-1021,-554,-322,258,144,-438
0,5527741,200,-1877,-396,-1027,-550,-327,258,144,-438
0,5527750,200,-1877,-396,-1027,-550,-327,258,144,-438
0,5527760,203,-1874,-378,-1023,-556,-332,258,144,-438
0,5527770,203,-1874,-378,-1023,-556,-332,258,144,-438
0,5527778,200,-1872,-381,-1020,-558,-332,258,144,-438
0,5527786,200,-1872,-381,-1020,-558,-332,258,144,-438
0,5527793,200,-1872,-381,-1020,-558,-332,258,144,-438
0,5527809,202,-1876,-387,-1028,-557,-327,258,144,-438
0,5527817,202,-1876,-387,-1028,-557,-327,258,144,-438
0,5527825,202,-1876,-387,-1028,-557,-327,253,143,-447
0,5527833,202,-1876,-387,-1028,-557,-327,253,143,-447
0,5527841,193,-1877,-415,-1013,-566,-320,253,143,-447
0,5527849,193,-1877,-415,-1013,-566,-320,253,143,-447
0,5527858,196,-1873,-382,-1026,-572,-326,253,143,-447
0,5527866,196,-1873,-382,-1026,-572,-326,253,143,-447
0,5527875,196,-1873,-382,-1026,-572,-326,253,143,-447
0,5527880,199,-1877,-375,-1040,-564,-322,253,143,-447
0,5527885,199,-1877,-375,-1040,-564,-322,253,143,-447
0,5527890,199,-1877,-375,-1040,-564,-322,253,143,-447
0,5527897,199,-1877,-375,-1040,-564,-322,253,143,-447
0,5527902,201,-1874,-397,-1036,-562,-320,253,143,-447
0,5527908,201,-1874,-397,-1036,-562,-320,253,143,-447
0,5527913,201,-1874,-397,-1036,-562,-320,253,143,-447
0,5527920,200,-1874,-375,-1024,-574,-321,253,143,-447
0,5527928,200,-1874,-375,-1024,-574,-321,253,143,-447
0,5527934,200,-1874,-375,-1024,-574,-321,253,143,-447
0,5527943,201,-1876,-388,-1029,-556,-323,251,141,-443
0,5527950,201,-1876,-388,-1029,-556,-323,251,141,-443
0,5527957,201,-1876,-388,-1029,-556,-323,251,141,-443
0,5527963,201,-1874,-388,-1027,-557,-327,251,141,-443
0,5527971,201,-1874,-388,-1027,-557,-327,251,141,-443
0,5527980,198,-1875,-360,-1027,-562,-321,251,141,-443
0,5527987,198,-1875,-360,-1027,-562,-321,251,141,-443
0,5527993,198,-1875,-360,-1027,-562,-321,251,141,-443
0,5528000,201,-1875,-401,-1027,-556,-323,251,141,-443
0,5528006,201,-1875,-401,-1027,-556,-323,251,141,-443
0,5528014,201,-1875,-401,-1027,-556,-323,251,141,-443
0,5528022,199,-1872,-387,-1024,-563,-325,251,141,-443
0,5528029,199,-1872,-387,-1024,-563,-325,251,141,-443
0,5528036,199,-1872,-387,-1024,-563,-325,251,141,-443
0,5528041,201,-1871,-374,-1028,-578,-328,251,141,-443
0,5528048,201,-1871,-374,-1028,-578,-328,251,141,-443
0,5528055,201,-1871,-374,-1028,-578,-328,251,141,-443
0,5528064,197,-1875,-398,-1030,-590,-324,251,141,-443
0,5528071,197,-1875,-398,-1030,-590,-324,251,141,-443
0,5528079,197,-1872,-359,-1023,-587,-324,259,149,-449
0,5528085,197,-1872,-359,-1023,-587,-324,259,149,-449
0,5528093,197,-1872,-359,-1023,-587,-324,259,149,-449
0,5528101,203,-1876,-381,-1025,-588,-324,259,149,-449
0,5528108,203,-1876,-381,-1025,-588,-324,259,149,-449
0,5528114,203,-1876,-381,-1025,-588,-324,259,149,-449
0,5528121,201,-1877,-388,-1027,-581,-327,259,149,-449
0,5528127,201,-1877,-388,-1027,-581,-327,259,149,-449
0,5528132,201,-1877,-388,-1027,-581,-327,259,149,-449
0,5528141,196,-1874,-366,-1020,-578,-320,259,149,-449
0,5528146,196,-1874,-366,-1020,-578,-320,259,149,-449
0,5528153,196,-1874,-366,-1020,-578,-320,259,149,-449
0,5528160,199,-1878,-392,-1022,-568,-332,259,149,-449
0,5528167,199,-1878,-392,-1022,-568,-332,259,149,-449
0,5528174,199,-1878,-392,-1022,-568,-332,259,149,-449
0,5528180,205,-1873,-390,-1029,-569,-326,259,149,-449
0,5528188,205,-1873,-390,-1029,-569,-326,259,149,-449
0,5528194,205,-1873,-390,-1029,-569,-326,259,149,-449
0,5528202,201,-1873,-370,-1029,-568,-322,251,139,-445
0,5528208,201,-1873,-370,-1029,-568,-322,251,139,-445
0,5528214,201,-1873,-370,-1029,-568,-322,251,139,-445
0,5528223,203,-1875,-391,-1023,-568,-322,251,139,-445
0,5528230,203,-1875,-391,-1023,-568,-322,251,139,-445
0,5528239,204,-1875,-374,-1021,-571,-325,251,139,-445
0,5528245,204,-1875,-374,-1021,-571,-325,251,139,-445
0,5528252,204,-1875,-374,-1021,-571,-325,251,139,-445
0,5528259,200,-1875,-381,-1033,-564,-323,251,139,-445
0,5528266,200,-1875,-381,-1033,-564,-323,251,139,-445
0,5528274,200,-1875,-381,-1033,-564,-323,251,139,-445
0,5528281,200,-1874,-384,-1026,-560,-318,251,139,-445
0,5528289,200,-1874,-384,-1026,-560,-318,251,139,-445
0,5528297,200,-1874,-384,-1026,-560,-318,251,139,-445
0,5528302,201,-1875,-380,-1030,-561,-321,251,139,-445
0,5528308,201,-1875,-380,-1030,-561,-321,251,139,-445
0,5528314,201,-1875,-380,-1030,-561,-321,251,139,-445
0,5528322,198,-1876,-386,-1033,-572,-320,251,139,-445
0,5528329,198,-1876,-386,-1033,-572,-320,251,139,-445
0,5528334,198,-1876,-386,-1033,-572,-320,251,139,-445
0,5528342,201,-1874,-378,-1029,-582,-325,257,145,-445
0,5528349,201,-1874,-378,-1029,-582,-325,257,145,-445
0,5528358,200,-1876,-379,-1034,-573,-321,257,145,-445
0,5528366,200,-1876,-379,-1034,-573,-321,257,145,-445
0,5528374,200,-1876,-379,-1034,-573,-321,257,145,-445
0,5528380,197,-1874,-387,-1033,-575,-317,257,145,-445
0,5528387,197,-1874,-387,-1033,-575,-317,257,145,-445
0,5528395,197,-1874,-387,-1033,-575,-317,257,145,-445
0,5528400,198,-1871,-380,-1042,-581,-330,257,145,-445
0,5528409,198,-1871,-380,-1042,-581,-330,257,145,-445
0,5528414,198,-1871,-380,-1042,-581,-330,257,145,-445
0,5528421,200,-1869,-389,-1034,-566,-322,257,145,-445
0,5528427,200,-1869,-389,-1034,-566,-322,257,145,-445
0,5528433,200,-1869,-389,-1034,-566,-322,257,145,-445
0,5528439,200,-1873,-384,-1026,-552,-324,257,145,-445
0,5528444,200,-1873,-384,-1026,-552,-324,257,145,-445
0,5528450,200,-1873,-384,-1026,-552,-324,257,145,-445
0,5528458,200,-1873,-384,-1026,-552,-324,257,145,-445
0,5528465,203,-1873,-379,-1035,-565,-324,253,147,-441
0,5528470,203,-1873,-379,-1035,-565,-324,253,147,-441
0,5528477,203,-1873,-379,-1035,-565,-324,253,147,-441
0,5528482,191,-1874,-393,-1030,-585,-324,253,147,-441
0,5528492,191,-1874,-393,-1030,-585,-324,253,147,-441
0,5528497,191,-1874,-393,-1030,-585,-324,253,147,-441
0,5528504,206,-1872,-320,-1026,-573,-328,253,147,-441
0,5528511,206,-1872,-320,-1026,-573,-328,253,147,-441
0,5528516,206,-1872,-320,-1026,-573,-328,253,147,-441
0,5528521,198,-1877,-419,-1029,-563,-326,253,147,-441
0,5528526,198,-1877,-419,-1029,-563,-326,253,147,-441
0,5528531,198,-1877,-419,-1029,-563,-326,253,147,-441
0,5528537,198,-1877,-419,-1029,-563,-326,253,147,-441
0,5528542,183,-1873,-374,-1036,-539,-325,253,147,-441
0,5528549,183,-1873,-374,-1036,-539,-325,253,147,-441
0,5528558,183,-1873,-374,-1036,-539,-325,253,147,-441
0,5528564,197,-1875,-390,-1026,-560,-327,253,147,-441
0,5528569,197,-1875,-390,-1026,-560,-327,253,147,-441
0,5528579,201,-1877,-404,-1011,-568,-324,253,147,-441
0,5528586,201,-1877,-404,-1011,-568,-324,253,147,-441
0,5528593,201,-1877,-404,-1011,-568,-324,253,147,-441
0,5528599,202,-1873,-340,-1026,-557,-332,253,145,-445
0,5528603,202,-1873,-340,-1026,-557,-332,253,145,-445
0,5528609,202,-1873,-340,-1026,-557,-332,253,145,-445
0,5528616,202,-1873,-340,-1026,-557,-332,253,145,-445
0,5528624,200,-1875,-395,-1026,-549,-325,253,145,-445
0,5528631,200,-1875,-395,-1026,-549,-325,253,145,-445
0,5528639,203,-1874,-391,-1029,-559,-326,253,145,-445
0,5528645,203,-1874,-391,-1029,-559,-326,253,145,-445
0,5528651,203,-1874,-391,-1029,-559,-326,253,145,-445
0,5528659,200,-1874,-372,-1023,-556,-328,253,145,-445
0,5528667,200,-1874,-372,-1023,-556,-328,253,145,-445
0,5528674,200,-1874,-372,-1023,-556,-328,253,145,-445
0,5528682,204,-1877,-396,-1031,-562,-323,253,145,-445
0,5528689,204,-1877,-396,-1031,-562,-323,253,145,-445
0,5528695,204,-1877,-396,-1031,-562,-323,253,145,-445
0,5528701,198,-1874,-379,-1033,-578,-323,253,145,-445
0,5528710,198,-1874,-379,-1033,-578,-323,253,145,-445
0,5528717,198,-1874,-379,-1033,-578,-323,253,145,-445
0,5528725,200,-1872,-380,-1030,-571,-327,259,141,-445
0,5528732,200,-1872,-380,-1030,-571,-327,259,141,-445
0,5528737,200,-1872,-380,-1030,-571,-327,259,141,-445
0,5528742,200,-1872,-380,-1030,-571,-327,259,141,-445
0,5528750,200,-1872,-380,-1030,-571,-327,259,141,-445
0,5528756,200,-1872,-380,-1030,-571,-327,259,141,-445
0,5528761,199,-1876,-364,-1018,-564,-327,259,141,-445
0,5528768,199,-1876,-364,-1018,-564,-327,259,141,-445
0,5528775,199,-1876,-364,-1018,-564,-327,259,141,-445
0,5528783,202,-1877,-406,-1029,-570,-311,259,141,-445
0,5528790,202,-1877,-406,-1029,-570,-311,259,141,-445
0,5528797,202,-1877,-406,-1029,-570,-311,259,141,-445
0,5528802,202,-1877,-375,-1031,-578,-323,259,141,-445
0,5528809,202,-1877,-375,-1031,-578,-323,259,141,-445
0,5528814,202,-1877,-375,-1031,-578,-323,259,141,-445
0,5528819,198,-1874,-393,-1021,-567,-324,259,141,-445
0,5528824,198,-1874,-393,-1021,-567,-324,259,141,-445
0,5528829,198,-1874,-393,-1021,-567,-324,259,141,-445
0,5528835,198,-1874,-393,-1021,-567,-324,259,141,-445
0,5528841,199,-1876,-388,-1024,-559,-323,258,146,-448
0,5528848,199,-1876,-388,-1024,-559,-323,258,146,-448
0,5528854,199,-1876,-388,-1024,-559,-323,258,146,-448
0,5528861,203,-1875,-370,-1021,-559,-320,258,146,-448
0,5528868,203,-1875,-370,-1021,-559,-320,258,146,-448
0,5528876,203,-1875,-370,-1021,-559,-320,258,146,-448
0,5528885,196,-1877,-447,-1014,-553,-326,258,146,-448
0,5528895,196,-1877,-447,-1014,-553,-326,258,146,-448
0,5528908,203,-1876,-368,-1022,-557,-323,258,146,-448
0,5528920,203,-1879,-498,-1018,-558,-328,258,146,-448
0,5528933,203,-1879,-498,-1018,-558,-328,258,146,-448
0,5528944,202,-1877,-388,-1017,-569,-330,258,146,-448
0,5528954,202,-1877,-388,-1017,-569,-330,258,146,-448
0,5528965,198,-1870,-329,-1015,-555,-326,258,146,-448
0,5528978,198,-1870,-329,-1015,-555,-326,258,146,-448
0,5528990,197,-1876,-428,-1018,-558,-317,256,146,-438
0,5529004,200,-1875,-349,-1019,-561,-330,256,146,-438
0,5529016,200,-1875,-349,-1019,-561,-330,256,146,-438
0,5529024,200,-1878,-374,-1022,-565,-324,256,146,-438
0,5529032,200,-1878,-374,-1022,-565,-324,256,146,-438
0,5529040,200,-1875,-395,-1022,-570,-319,256,146,-438
0,5529049,200,-1875,-395,-1022,-570,-319,256,146,-438
0,5529058,200,-1875,-395,-1022,-570,-319,256,146,-438
0,5529069,201,-1874,-366,-1011,-563,-322,256,146,-438
0,5529082,199,-1874,-390,-1026,-565,-331,256,146,-438
0,5529094,199,-1874,-390,-1026,-565,-331,256,146,-438
0,5529106,199,-1875,-385,-1029,-564,-328,256,142,-446
0,5529116,199,-1875,-385,-1029,-564,-328,256,142,-446
0,5529128,200,-1873,-376,-1032,-561,-326,256,142,-446
0,5529140,200,-1873,-392,-1035,-561,-322,256,142,-446
0,5529153,200,-1873,-392,-1035,-561,-322,256,142,-446
0,5529165,206,-1877,-397,-1018,-570,-322,256,142,-446
0,5529175,206,-1877,-397,-1018,-570,-322,256,142,-446
0,5529186,196,-1875,-379,-1013,-581,-324,256,142,-446
0,5529198,196,-1875,-379,-1013,-581,-324,256,142,-446
0,5529209,200,-1875,-379,-1029,-551,-329,256,142,-446
0,5529222,202,-1876,-395,-1031,-565,-330,256,142,-446
0,5529233,202,-1876,-395,-1031,-565,-330,256,142,-446
0,5529246,202,-1870,-372,-1026,-570,-325,253,147,-439
0,5529260,198,-1876,-374,-1026,-555,-322,253,147,-439
0,5529271,198,-1876,-374,-1026,-555,-322,253,147,-439
0,5529283,205,-1872,-384,-1014,-577,-327,253,147,-439
0,5529297,205,-1872,-384,-1014,-577,-327,253,147,-439
0,5529309,204,-1876,-383,-1018,-568,-326,253,147,-439
0,5529322,201,-1874,-372,-1026,-554,-322,253,147,-439
0,5529334,201,-1874,-372,-1026,-554,-322,253,147,-439
0,5529348,202,-1875,-392,-1034,-545,-325,253,147,-439
0,5529361,198,-1874,-377,-1032,-553,-330,252,146,-444
0,5529373,198,-1874,-377,-1032,-553,-330,252,146,-444
0,5529387,199,-1871,-359,-1025,-563,-321,252,146,-444
0,5529399,199,-1871,-359,-1025,-563,-321,252,146,-444
0,5529412,198,-1878,-412,-1021,-571,-322,252,146,-444
0,5529422,205,-1875,-391,-1037,-573,-330,252,146,-444
0,5529437,205,-1875,-391,-1037,-573,-330,252,146,-444
0,5529448,193,-1876,-386,-1030,-566,-331,252,146,-444
0,5529458,193,-1876,-386,-1030,-566,-331,252,146,-444
0,5529469,203,-1874,-362,-1026,-570,-319,252,146,-444
0,5529483,199,-1871,-363,-1025,-568,-320,252,146,-444
0,5529492,199,-1871,-363,-1025,-568,-320,252,146,-444
0,5529502,202,-1875,-416,-1032,-570,-322,255,145,-447
0,5529512,202,-1875,-416,-1032,-570,-322,255,145,-447
0,5529521,200,-1874,-369,-1031,-575,-325,255,145,-447
0,5529529,200,-1874,-369,-1031,-575,-325,255,145,-447
0,5529536,200,-1874,-369,-1031,-575,-325,255,145,-447
0,5529545,201,-1875,-368,-1029,-565,-320,255,145,-447
0,5529553,201,-1875,-368,-1029,-565,-320,255,145,-447
0,5529562,202,-1874,-385,-1027,-568,-319,255,145,-447
0,5529571,202,-1874,-385,-1027,-568,-319,255,145,-447
0,5529578,202,-1874,-385,-1027,-568,-319,255,145,-447
0,5529589,202,-1876,-383,-1032,-570,-322,255,145,-447
0,5529597,202,-1876,-383,-1032,-570,-322,255,145,-447
0,5529607,201,-1874,-380,-1032,-566,-326,255,145,-447
0,5529616,201,-1874,-380,-1032,-566,-326,255,145,-447
0,5529626,200,-1874,-381,-1026,-563,-326,264,146,-448
0,5529639,197,-1874,-383,-1033,-572,-326,264,146,-448
0,5529653,197,-1874,-383,-1033,-572,-326,264,146,-448
0,5529661,197,-1875,-379,-1030,-567,-323,264,146,-448
0,5529670,197,-1875,-379,-1030,-567,-323,264,146,-448
0,5529678,197,-1875,-379,-1030,-567,-323,264,146,-448
0,5529687,201,-1876,-375,-1026,-565,-327,264,146,-448
0,5529695,201,-1876,-375,-1026,-565,-327,264,146,-448
0,5529706,199,-1872,-388,-1016,-560,-325,264,146,-448
0,5529721,201,-1874,-379,-1026,-558,-327,264,146,-448
0,5529738,201,-1874,-379,-1026,-558,-327,264,146,-448
0,5529749,202,-1875,-381,-1026,-566,-325,259,143,-447
0,5529759,202,-1875,-381,-1026,-566,-325,259,143,-447
0,5529774,201,-1873,-381,-1021,-570,-326,259,143,-447
0,5529787,201,-1874,-376,-1033,-562,-329,259,143,-447
0,5529798,201,-1874,-376,-1033,-562,-329,259,143,-447
0,5529808,198,-1876,-391,-1034,-563,-328,259,143,-447
0,5529817,198,-1876,-391,-1034,-563,-328,259,143,-447
0,5529825,202,-1875,-377,-1017,-556,-328,259,143,-447
0,5529833,202,-1875,-377,-1017,-556,-328,259,143,-447
0,5529841,201,-1875,-387,-1028,-561,-324,259,143,-447
0,5529849,201,-1875,-387,-1028,-561,-324,259,143,-447
0,5529858,201,-1875,-387,-1028,-561,-324,259,143,-447
0,5529866,201,-1874,-376,-1035,-564,-324,259,143,-447
0,5529877,201,-1874,-376,-1035,-564,-324,259,143,-447
0,5529884,200,-1874,-381,-1028,-573,-327,259,151,-443
0,5529892,200,-1874,-381,-1028,-573,-327,259,151,-443
0,5529900,200,-1874,-381,-1028,-573,-327,259,151,-443
0,5529906,201,-1877,-383,-1019,-568,-325,259,151,-443
0,5529912,201,-1877,-383,-1019,-568,-325,259,151,-443
0,5529918,201,-1877,-383,-1019,-568,-325,259,151,-443
0,5529924,200,-1876,-381,-1028,-568,-319,259,151,-443
0,5529930,200,-1876,-381,-1028,-568,-319,259,151,-443
0,5529935,200,-1876,-381,-1028,-568,-319,259,151,-443
0,5529943,200,-1877,-390,-1028,-569,-323,259,151,-443
0,5529949,200,-1877,-390,-1028,-569,-323,259,151,-443
0,5529956,200,-1877,-390,-1028,-569,-323,259,151,-443
0,5529962,200,-1872,-381,-1025,-561,-326,259,151,-443
0,5529968,200,-1872,-381,-1025,-561,-326,259,151,-443
0,5529973,200,-1872,-381,-1025,-561,-326,259,151,-443
0,5529981,201,-1875,-378,-1024,-555,-325,259,151,-443
0,5529989,201,-1875,-378,-1024,-555,-325,259,151,-443
0,5529995,201,-1875,-378,-1024,-555,-325,259,151,-443
0,5530003,198,-1875,-379,-1020,-557,-322,253,149,-445
0,5530010,198,-1875,-379,-1020,-557,-322,253,149,-445
0,5530017,198,-1875,-379,-1020,-557,-322,253,149,-445
0,5530024,199,-1874,-377,-1027,-565,-322,253,149,-445
0,5530031,199,-1874,-377,-1027,-565,-322,253,149,-445
0,5530036,199,-1874,-377,-1027,-565,-322,253,149,-445
0,5530042,199,-1876,-380,-1026,-558,-325,253,149,-445
0,5530049,199,-1876,-380,-1026,-558,-325,253,149,-445
0,5530056,199,-1876,-380,-1026,-558,-325,253,149,-445
0,5530064,201,-1874,-382,-1026,-563,-324,253,149,-445
0,5530070,201,-1874,-382,-1026,-563,-324,253,149,-445
0,5530076,201,-1874,-382,-1026,-563,-324,253,149,-445
0,5530083,199,-1878,-384,-1024,-566,-328,253,149,-445
0,5530090,199,-1878,-384,-1024,-566,-328,253,149,-445
0,5530096,199,-1878,-384,-1024,-566,-328,253,149,-445
0,5530103,202,-1875,-377,-1020,-560,-327,253,149,-445
0,5530112,202,-1875,-377,-1020,-560,-327,253,149,-445
0,5530118,202,-1875,-377,-1020,-560,-327,253,149,-445
0,5530125,203,-1876,-387,-1024,-570,-334,253,149,-445
0,5530133,203,-1876,-387,-1024,-570,-334,253,149,-445
0,5530139,203,-1876,-387,-1024,-570,-334,253,149,-445
0,5530145,200,-1877,-382,-1028,-580,-326,259,143,-449
0,5530152,200,-1877,-382,-1028,-580,-326,259,143,-449
0,5530159,200,-1877,-382,-1028,-580,-326,259,143,-449
0,5530166,200,-1876,-379,-1022,-576,-324,259,143,-449
0,5530172,200,-1876,-379,-1022,-576,-324,259,143,-449
0,5530178,200,-1876,-379,-1022,-576,-324,259,143,-449
0,5530186,198,-1876,-390,-1020,-569,-316,259,143,-449
0,5530192,198,-1876,-390,-1020,-569,-316,259,143,-449
0,5530198,198,-1876,-390,-1020,-569,-316,259,143,-449
0,5530204,196,-1877,-384,-1028,-570,-315,259,143,-449
0,5530209,196,-1877,-384,-1028,-570,-315,259,143,-449
0,5530216,196,-1877,-384,-1028,-570,-315,259,143,-449
0,5530224,197,-1878,-378,-1029,-572,-325,259,143,-449
0,5530231,197,-1878,-378,-1029,-572,-325,259,143,-449
0,5530237,197,-1878,-378,-1029,-572,-325,259,143,-449
0,5530245,200,-1876,-385,-1026,-578,-328,259,143,-449
0,5530252,200,-1876,-385,-1026,-578,-328,259,143,-449
0,5530258,200,-1876,-385,-1026,-578,-328,259,143,-449
0,5530266,201,-1874,-378,-1030,-571,-329,257,143,-443
0,5530273,201,-1874,-378,-1030,-571,-329,257,143,-443
0,5530278,201,-1874,-378,-1030,-571,-329,257,143,-443
0,5530285,200,-1875,-370,-1026,-567,-324,257,143,-443
0,5530290,200,-1875,-370,-1026,-567,-324,257,143,-443
0,5530296,200,-1875,-370,-1026,-567,-324,257,143,-443
0,5530303,197,-1875,-432,-1026,-575,-319,257,143,-443
0,5530308,197,-1875,-432,-1026,-575,-319,257,143,-443
0,5530318,197,-1875,-432,-1026,-575,-319,257,143,-443
0,5530327,195,-1874,-358,-1027,-584,-325,257,143,-443
0,5530333,195,-1874,-358,-1027,-584,-325,257,143,-443
0,5530341,194,-1874,-380,-1033,-557,-328,257,143,-443
0,5530347,194,-1874,-380,-1033,-557,-328,257,143,-443
0,5530354,194,-1874,-380,-1033,-557,-328,257,143,-443
0,5530360,200,-1877,-399,-1023,-560,-328,257,143,-443
0,5530368,200,-1877,-399,-1023,-560,-328,257,143,-443
0,5530375,200,-1877,-399,-1023,-560,-328,257,143,-443
0,5530380,200,-1877,-399,-1023,-560,-328,257,143,-443
0,5530386,200,-1876,-375,-1019,-561,-322,260,148,-440
0,5530394,200,-1876,-375,-1019,-561,-322,260,148,-440
0,5530401,198,-1876,-381,-1011,-562,-318,260,148,-440
0,5530407,198,-1876,-381,-1011,-562,-318,260,148,-440
0,5530415,198,-1876,-381,-1011,-562,-318,260,148,-440
0,5530423,202,-1875,-386,-1018,-562,-319,260,148,-440
0,5530428,202,-1875,-386,-1018,-562,-319,260,148,-440
0,5530436,202,-1875,-386,-1018,-562,-319,260,148,-440
0,5530443,199,-1872,-378,-1019,-563,-333,260,148,-440
0,5530451,199,-1872,-378,-1019,-563,-333,260,148,-440
0,5530458,199,-1872,-378,-1019,-563,-333,260,148,-440
0,5530466,197,-1878,-379,-1032,-553,-333,260,148,-440
0,5530473,197,-1878,-379,-1032,-553,-333,260,148,-440
0,5530479,197,-1878,-379,-1032,-553,-333,260,148,-440
0,5530487,200,-1876,-387,-1029,-559,-324,260,148,-440
0,5530493,200,-1876,-387,-1029,-559,-324,260,148,-440
0,5530501,199,-1871,-377,-1027,-556,-322,260,148,-440
0,5530507,199,-1871,-377,-1027,-556,-322,260,148,-440
0,5530513,199,-1871,-377,-1027,-556,-322,260,148,-440
0,5530518,199,-1871,-377,-1027,-556,-322,260,148,-440
0,5530522,199,-1874,-383,-1021,-560,-320,247,143,-447
0,5530528,199,-1874,-383,-1021,-560,-320,247,143,-447
0,5530533,199,-1874,-383,-1021,-560,-320,247,143,-447
0,5530539,199,-1874,-383,-1021,-560,-320,247,143,-447
0,5530544,198,-1875,-376,-1024,-567,-329,247,143,-447
0,5530552,198,-1875,-376,-1024,-567,-329,247,143,-447
0,5530559,198,-1875,-376,-1024,-567,-329,247,143,-447
0,5530565,199,-1874,-384,-1022,-570,-324,247,143,-447
0,5530572,199,-1874,-384,-1022,-570,-324,247,143,-447
0,5530577,199,-1874,-384,-1022,-570,-324,247,143,-447
0,5530586,197,-1874,-382,-1022,-573,-325,247,143,-447
0,5530594,197,-1874,-382,-1022,-573,-325,247,143,-447
0,5530601,201,-1873,-379,-1034,-562,-320,247,143,-447
0,5530608,201,-1873,-379,-1034,-562,-320,247,143,-447
0,5530614,201,-1873,-379,-1034,-562,-320,247,143,-447
0,5530621,203,-1873,-383,-1029,-556,-318,247,143,-447
0,5530629,203,-1873,-383,-1029,-556,-318,247,143,-447
0,5530636,203,-1873,-383,-1029,-556,-318,247,143,-447
0,5530644,200,-1873,-382,-1026,-562,-326,259,147,-443
0,5530651,200,-1873,-382,-1026,-562,-326,259,147,-443
0,5530658,200,-1873,-382,-1026,-562,-326,259,147,-443
0,5530665,198,-1875,-382,-1026,-574,-317,259,147,-443
0,5530673,198,-1875,-382,-1026,-574,-317,259,147,-443
0,5530681,199,-1872,-381,-1022,-572,-328,259,147,-443
0,5530687,199,-1872,-381,-1022,-572,-328,259,147,-443
0,5530695,199,-1872,-381,-1022,-572,-328,259,147,-443
0,5530700,199,-1872,-381,-1022,-572,-328,259,147,-443
0,5530705,199,-1873,-390,-1028,-571,-331,259,147,-443
0,5530711,199,-1873,-390,-1028,-571,-331,259,147,-443
0,5530716,199,-1873,-390,-1028,-571,-331,259,147,-443
0,5530722,195,-1873,-381,-1029,-567,-321,259,147,-443
0,5530729,195,-1873,-381,-1029,-567,-321,259,147,-443
0,5530736,195,-1873,-381,-1029,-567,-321,259,147,-443
0,5530742,199,-1873,-388,-1024,-568,-328,259,147,-443
0,5530747,199,-1873,-388,-1024,-568,-328,259,147,-443
0,5530755,199,-1873,-388,-1024,-568,-328,259,147,-443
0,5530761,199,-1873,-388,-1024,-568,-328,259,147,-443
0,5530768,203,-1871,-381,-1026,-562,-328,259,147,-443
0,5530775,203,-1871,-381,-1026,-562,-328,259,147,-443
0,5530782,203,-1874,-377,-1022,-565,-321,260,146,-446
0,5530790,203,-1874,-377,-1022,-565,-321,260,146,-446
0,5530797,203,-1874,-377,-1022,-565,-321,260,146,-446
0,5530805,199,-1872,-370,-1023,-568,-325,260,146,-446
0,5530810,199,-1872,-370,-1023,-568,-325,260,146,-446
0,5530815,199,-1872,-370,-1023,-568,-325,260,146,-446
0,5530820,199,-1872,-370,-1023,-568,-325,260,146,-446
0,5530825,199,-1875,-387,-1028,-574,-330,260,146,-446
0,5530830,199,-1875,-387,-1028,-574,-330,260,146,-446
0,5530835,199,-1875,-387,-1028,-574,-330,260,146,-446
0,5530841,199,-1875,-387,-1028,-574,-330,260,146,-446
0,5530847,200,-1874,-387,-1026,-571,-325,260,146,-446
0,5530854,200,-1874,-387,-1026,-571,-325,260,146,-446
0,5530862,202,-1872,-384,-1028,-563,-321,260,146,-446
0,5530870,202,-1872,-384,-1028,-563,-321,260,146,-446
0,5530877,202,-1872,-384,-1028,-563,-321,260,146,-446
0,5530884,203,-1875,-394,-1029,-562,-328,260,146,-446
0,5530890,203,-1875,-394,-1029,-562,-328,260,146,-446
0,5530896,203,-1875,-394,-1029,-562,-328,260,146,-446
0,5530910,199,-1874,-366,-1024,-565,-315,256,148,-452
0,5530921,200,-1875,-386,-1023,-563,-322,256,148,-452
0,5530934,200,-1875,-386,-1023,-563,-322,256,148,-452
0,5530946,206,-1876,-381,-1028,-561,-322,256,148,-452
0,5530960,206,-1876,-381,-1028,-561,-322,256,148,-452
0,5530972,202,-1872,-358,-1030,-561,-332,256,148,-452
0,5530984,194,-1876,-385,-1019,-564,-326,256,148,-452
0,5530997,194,-1876,-385,-1019,-564,-326,256,148,-452
0,5531010,202,-1872,-312,-1027,-560,-325,256,148,-452
0,5531019,202,-1872,-312,-1027,-560,-325,256,148,-452
0,5531030,201,-1876,-444,-1030,-564,-329,256,148,-452
0,5531042,196,-1872,-369,-1024,-570,-328,263,145,-435
0,5531056,196,-1872,-369,-1024,-570,-328,263,145,-435
0,5531068,200,-1874,-354,-1032,-557,-324,263,145,-435
0,5531080,200,-1874,-354,-1032,-557,-324,263,145,-435
0,5531094,200,-1874,-402,-1025,-557,-328,263,145,-435
0,5531106,197,-1872,-394,-1019,-569,-327,263,145,-435
0,5531116,197,-1872,-394,-1019,-569,-327,263,145,-435
0,5531129,201,-1872,-365,-1020,-571,-322,263,145,-435
0,5531142,201,-1875,-403,-1025,-577,-326,263,145,-435
0,5531154,201,-1875,-403,-1025,-577,-326,263,145,-435
0,5531167,198,-1871,-375,-1019,-570,-327,255,151,-443
0,5531181,198,-1871,-375,-1019,-570,-327,255,151,-443
0,5531189,201,-1875,-372,-1021,-562,-320,255,151,-443
0,5531198,201,-1875,-372,-1021,-562,-320,255,151,-443
0,5531211,199,-1876,-395,-1017,-554,-319,255,151,-443
0,5531225,200,-1876,-374,-1017,-554,-317,255,151,-443
0,5531234,200,-1876,-374,-1017,-554,-317,255,151,-443
0,5531245,205,-1874,-368,-1020,-562,-324,255,151,-443
0,5531256,205,-1874,-368,-1020,-562,-324,255,151,-443
0,5531269,196,-1875,-386,-1030,-561,-328,255,151,-443
0,5531281,196,-1875,-386,-1030,-561,-328,255,151,-443
0,5531294,195,-1875,-383,-1035,-554,-323,259,145,-443
0,5531303,200,-1875,-382,-1028,-568,-323,259,145,-443
0,5531312,200,-1875,-382,-1028,-568,-323,259,145,-443
0,5531325,200,-1873,-380,-1023,-578,-322,259,145,-443
0,5531338,200,-1873,-380,-1023,-578,-322,259,145,-443
0,5531351,202,-1872,-387,-1019,-576,-325,259,145,-443
0,5531363,201,-1874,-371,-1028,-571,-312,259,145,-443
0,5531377,201,-1874,-371,-1028,-571,-312,259,145,-443
0,5531387,205,-1877,-400,-1033,-565,-322,259,145,-443
0,5531401,205,-1877,-400,-1033,-565,-322,259,145,-443
0,5531415,198,-1872,-384,-1029,-565,-321,259,145,-443
0,5531428,203,-1873,-367,-1026,-561,-325,252,150,-442
0,5531441,203,-1873,-367,-1026,-561,-325,252,150,-442
0,5531452,214,-1880,-441,-1033,-560,-315,252,150,-442
0,5531463,198,-1871,-334,-1026,-564,-321,252,150,-442
0,5531471,198,-1871,-334,-1026,-564,-321,252,150,-442
0,5531483,199,-1873,-402,-1023,-552,-329,252,150,-442
0,5531497,199,-1873,-402,-1023,-552,-329,252,150,-442
0,5531511,204,-1872,-421,-1031,-565,-323,252,150,-442
0,5531520,204,-1872,-421,-1031,-565,-323,252,150,-442
0,5531529,200,-1872,-344,-1026,-566,-327,252,150,-442
0,5531537,200,-1872,-344,-1026,-566,-327,252,150,-442
0,5531547,200,-1875,-405,-1024,-571,-325,251,145,-439
0,5531561,200,-1875,-405,-1024,-571,-325,251,145,-439
0,5531570,201,-1873,-385,-1029,-574,-319,251,145,-439
0,5531582,198,-1870,-356,-1026,-563,-322,251,145,-439
0,5531597,198,-1870,-356,-1026,-563,-322,251,145,-439
0,5531611,200,-1877,-403,-1031,-566,-326,251,145,-439
0,5531620,200,-1877,-403,-1031,-566,-326,251,145,-439
0,5531633,200,-1872,-379,-1034,-570,-330,251,145,-439
0,5531646,202,-1875,-378,-1029,-560,-322,251,145,-439
0,5531660,202,-1875,-378,-1029,-560,-322,251,145,-439
0,5531670,198,-1873,-399,-1037,-565,-329,251,145,-439
0,5531682,201,-1874,-378,-1030,-564,-323,252,146,-444
0,5531696,201,-1874,-378,-1030,-564,-323,252,146,-444
0,5531710,204,-1875,-376,-1020,-559,-325,252,146,-444
0,5531720,204,-1875,-376,-1020,-559,-325,252,146,-444
0,5531731,200,-1877,-389,-1021,-545,-327,252,146,-444
0,5531741,200,-1877,-389,-1021,-545,-327,252,146,-444
0,5531749,200,-1875,-378,-1026,-567,-328,252,146,-444
0,5531757,200,-1875,-378,-1026,-567,-328,252,146,-444
0,5531765,198,-1872,-378,-1028,-586,-322,252,146,-444
0,5531778,198,-1872,-378,-1028,-586,-322,252,146,-444
0,5531789,196,-1877,-388,-1029,-569,-333,252,146,-444
0,5531801,196,-1877,-388,-1029,-569,-333,252,146,-444
0,5531812,200,-1878,-397,-1024,-565,-326,262,144,-446
0,5531822,200,-1878,-397,-1024,-565,-326,262,144,-446
0,5531830,203,-1871,-372,-1018,-564,-330,262,144,-446
0,5531838,203,-1871,-372,-1018,-564,-330,262,144,-446
0,5531846,200,-1872,-385,-1019,-563,-328,262,144,-446
0,5531855,200,-1872,-385,-1019,-563,-328,262,144,-446
0,5531864,198,-1875,-393,-1022,-559,-325,262,144,-446
0,5531873,198,-1875,-393,-1022,-559,-325,262,144,-446
0,5531881,198,-1875,-393,-1022,-559,-325,262,144,-446
0,5531889,199,-1876,-368,-1025,-560,-326,262,144,-446
0,5531901,199,-1876,-368,-1025,-560,-326,262,144,-446
0,5531909,199,-1874,-383,-1018,-563,-317,262,144,-446
0,5531915,199,-1874,-383,-1018,-563,-317,262,144,-446
0,5531922,198,-1873,-388,-1029,-563,-324,253,141,-446
0,5531930,198,-1873,-388,-1029,-563,-324,253,141,-447
0,5531935,198,-1873,-388,-1029,-563,-324,253,141,-447
0,5531944,196,-1875,-383,-1025,-549,-327,253,141,-447
0,5531952,196,-1875,-383,-1025,-549,-327,253,141,-447
0,5531959,196,-1875,-383,-1025,-549,-327,253,141,-447
0,5531964,199,-1873,-385,-1032,-568,-328,253,141,-447
0,5531970,199,-1873,-385,-1032,-568,-328,253,141,-447
0,5531977,199,-1873,-385,-1032,-568,-328,253,141,-447
0,5531984,198,-1873,-375,-1030,-575,-331,253,141,-447
0,5531994,198,-1873,-375,-1030,-575,-331,253,141,-447
0,5532000,198,-1873,-375,-1030,-575,-331,253,141,-447
0,5532005,201,-1875,-386,-1027,-561,-325,253,141,-447
0,5532010,201,-1875,-386,-1027,-561,-325,253,141,-447
0,5532017,201,-1875,-386,-1027,-561,-325,253,141,-447
0,5532025,200,-1873,-376,-1029,-569,-320,253,141,-447
0,5532033,200,-1873,-376,-1029,-569,-320,253,141,-447
0,5532039,200,-1873,-376,-1029,-569,-320,253,141,-447
0,5532046,198,-1873,-374,-1028,-567,-330,253,141,-447
0,5532052,198,-1873,-374,-1028,-567,-330,253,141,-447
0,5532060,198,-1873,-374,-1028,-567,-330,253,141,-447
0,5532066,198,-1877,-390,-1031,-559,-320,259,145,-445
0,5532075,198,-1877,-390,-1031,-559,-320,259,145,-445
0,5532080,198,-1877,-390,-1031,-559,-320,259,145,-445
0,5532089,201,-1873,-372,-1021,-567,-316,259,145,-445
0,5532096,201,-1873,-372,-1021,-567,-316,259,145,-445
0,5532103,202,-1873,-376,-1023,-568,-321,259,145,-445
0,5532111,202,-1873,-376,-1023,-568,-321,259,145,-445
0,5532119,202,-1873,-376,-1023,-568,-321,259,145,-445
0,5532126,199,-1876,-396,-1025,-568,-332,259,145,-445
0,5532132,199,-1876,-396,-1025,-568,-332,259,145,-445
0,5532138,199,-1876,-396,-1025,-568,-332,259,145,-445
0,5532145,200,-1875,-377,-1024,-568,-328,259,145,-445
0,5532153,200,-1875,-377,-1024,-568,-328,259,145,-445
0,5532161,200,-1875,-377,-1024,-568,-328,259,145,-445
0,5532168,199,-1876,-388,-1024,-564,-333,259,145,-445
0,5532176,199,-1876,-388,-1024,-564,-333,259,145,-445
0,5532183,196,-1874,-388,-1031,-570,-328,258,142,-446
0,5532190,196,-1874,-388,-1031,-570,-328,258,142,-446
0,5532198,196,-1874,-388,-1031,-570,-328,258,142,-446
0,5532204,200,-1875,-376,-1024,-565,-321,258,142,-446
0,5532212,200,-1875,-376,-1024,-565,-321,258,142,-446
0,5532218,200,-1875,-376,-1024,-565,-321,258,142,-446
0,5532223,202,-1874,-386,-1015,-563,-329,258,142,-446
0,5532231,202,-1874,-386,-1015,-563,-329,258,142,-446
0,5532239,202,-1874,-386,-1015,-563,-329,258,142,-446
0,5532246,198,-1872,-386,-1025,-567,-325,258,142,-446
0,5532253,198,-1872,-386,-1025,-567,-325,258,142,-446
0,5532259,198,-1872,-386,-1025,-567,-325,258,142,-446
0,5532264,199,-1873,-380,-1027,-570,-330,258,142,-446
0,5532269,199,-1873,-380,-1027,-570,-330,258,142,-446
0,5532278,199,-1873,-380,-1027,-570,-330,258,142,-446
0,5532286,199,-1875,-390,-1024,-570,-328,258,142,-446
0,5532293,199,-1875,-390,-1024,-570,-328,258,142,-446
0,5532300,199,-1875,-390,-1024,-570,-328,258,142,-446
0,5532307,198,-1873,-383,-1028,-569,-330,258,142,-446
0,5532313,198,-1873,-383,-1028,-569,-330,258,142,-446
0,5532319,198,-1873,-383,-1028,-569,-330,258,142,-446
0,5532327,201,-1874,-376,-1028,-565,-323,263,139,-449
0,5532335,201,-1874,-376,-1028,-565,-323,263,139,-449
0,5532340,201,-1874,-376,-1028,-565,-323,263,139,-449
0,5532347,201,-1873,-389,-1029,-565,-326,263,139,-449
0,5532353,201,-1873,-389,-1029,-565,-326,263,139,-449
0,5532360,201,-1873,-389,-1029,-565,-326,263,139,-449
0,5532367,204,-1874,-379,-1023,-565,-323,263,139,-449
0,5532375,204,-1874,-379,-1023,-565,-323,263,139,-449
0,5532382,204,-1874,-379,-1023,-565,-323,263,139,-449
0,5532389,202,-1871,-380,-1025,-568,-323,263,139,-449
0,5532396,202,-1871,-380,-1025,-568,-323,263,139,-449
0,5532401,202,-1871,-380,-1025,-568,-323,263,139,-449
0,5532408,201,-1875,-382,-1028,-564,-325,263,139,-449
0,5532416,201,-1875,-382,-1028,-564,-325,263,139,-449
0,5532422,201,-1875,-382,-1028,-564,-325,263,139,-449
0,5532430,197,-1873,-378,-1019,-563,-330,263,139,-449
0,5532437,197,-1873,-378,-1019,-563,-330,263,139,-449
0,5532444,203,-1873,-382,-1023,-556,-329,258,142,-448
0,5532451,203,-1873,-382,-1023,-556,-329,258,142,-448
0,5532456,203,-1873,-382,-1023,-556,-329,258,142,-448
0,5532464,199,-1875,-380,-1024,-567,-326,258,142,-448
0,5532470,199,-1875,-380,-1024,-567,-326,258,142,-448
0,5532475,199,-1875,-380,-1024,-567,-326,258,142,-448
0,5532484,200,-1872,-378,-1029,-563,-321,258,142,-448
0,5532489,200,-1872,-378,-1029,-563,-321,258,142,-448
0,5532497,200,-1872,-378,-1029,-563,-321,258,142,-448
0,5532506,198,-1873,-386,-1033,-566,-327,258,142,-448
0,5532512,198,-1873,-386,-1033,-566,-327,258,142,-448
0,5532517,198,-1873,-386,-1033,-566,-327,258,142,-448
0,5532522,198,-1873,-386,-1033,-566,-327,258,142,-448
0,5532527,197,-1873,-379,-1030,-564,-319,258,142,-448
0,5532532,197,-1873,-379,-1030,-564,-319,258,142,-448
0,5532538,197,-1873,-379,-1030,-564,-319,258,142,-448
0,5532545,199,-1871,-380,-1024,-561,-325,258,142,-448
0,5532553,199,-1871,-380,-1024,-561,-325,258,142,-448
0,5532559,199,-1871,-380,-1024,-561,-325,258,142,-448
0,5532566,199,-1874,-386,-1018,-570,-325,258,142,-448
0,5532573,199,-1874,-386,-1018,-570,-325,258,142,-448
0,5532579,199,-1874,-386,-1018,-570,-325,258,142,-448
0,5532587,199,-1873,-378,-1021,-563,-326,255,143,-445
0,5532594,199,-1873,-378,-1021,-563,-326,255,143,-445
0,5532601,199,-1873,-378,-1021,-563,-326,255,143,-445
0,5532609,200,-1872,-380,-1029,-558,-323,255,143,-445
0,5532616,200,-1872,-380,-1029,-558,-323,255,143,-445
0,5532622,200,-1872,-380,-1029,-558,-323,255,143,-445
0,5532630,198,-1873,-386,-1024,-570,-318,255,143,-445
0,5532638,198,-1873,-386,-1024,-570,-318,255,143,-445
0,5532646,196,-1875,-380,-1027,-561,-323,255,143,-445
0,5532652,196,-1875,-380,-1027,-561,-323,255,143,-445
0,5532658,196,-1875,-380,-1027,-561,-323,255,143,-445
0,5532664,199,-1874,-390,-1032,-566,-322,255,143,-445
0,5532673,199,-1874,-390,-1032,-566,-322,255,143,-445
0,5532680,199,-1874,-390,-1032,-566,-322,255,143,-445
0,5532687,201,-1871,-388,-1024,-567,-319,255,143,-445
0,5532694,201,-1871,-388,-1024,-567,-319,255,143,-445
0,5532701,201,-1871,-388,-1024,-567,-319,255,143,-445
0,5532708,199,-1876,-373,-1032,-566,-332,259,149,-443
0,5532715,199,-1876,-373,-1032,-566,-332,259,149,-443
0,5532724,200,-1874,-377,-1028,-569,-328,259,149,-443
0,5532730,200,-1874,-377,-1028,-569,-328,259,149,-443
0,5532736,200,-1874,-377,-1028,-569,-328,259,149,-443
0,5532743,200,-1874,-377,-1028,-569,-328,259,149,-443
0,5532751,201,-1874,-379,-1022,-565,-325,259,149,-443
0,5532756,201,-1874,-379,-1022,-565,-325,259,149,-443
0,5532765,197,-1873,-382,-1013,-557,-322,259,149,-443
0,5532771,197,-1873,-382,-1013,-557,-322,259,149,-443
0,5532776,197,-1873,-382,-1013,-557,-322,259,149,-443
0,5532782,197,-1873,-382,-1013,-557,-322,259,149,-443
0,5532788,201,-1877,-385,-1027,-563,-326,259,149,-443
0,5532796,201,-1877,-385,-1027,-563,-326,259,149,-443
0,5532803,201,-1877,-385,-1027,-563,-326,259,149,-443
0,5532809,201,-1875,-384,-1031,-559,-324,259,149,-443
0,5532814,201,-1875,-384,-1031,-559,-324,259,149,-443
0,5532819,201,-1875,-384,-1031,-559,-324,259,149,-443
0,5532824,201,-1874,-381,-1024,-559,-328,259,143,-447
0,5532829,201,-1874,-381,-1024,-559,-328,259,143,-447
0,5532834,201,-1874,-381,-1024,-559,-328,259,143,-447
0,5532839,201,-1874,-381,-1024,-559,-328,259,143,-447
0,5532846,199,-1877,-379,-1030,-563,-333,259,143,-447
0,5532853,199,-1877,-379,-1030,-563,-333,259,143,-447
0,5532858,199,-1877,-379,-1030,-563,-333,259,143,-447
0,5532865,201,-1876,-380,-1028,-558,-329,259,143,-447
0,5532873,201,-1876,-380,-1028,-558,-329,259,143,-447
0,5532880,201,-1876,-380,-1028,-558,-329,259,143,-447
0,5532889,201,-1872,-388,-1023,-562,-332,259,143,-447
0,5532894,201,-1872,-388,-1023,-562,-332,259,143,-447
0,5532901,201,-1872,-388,-1023,-562,-332,259,143,-447
0,5532907,197,-1872,-381,-1021,-563,-328,259,143,-447
0,5532918,197,-1872,-381,-1021,-563,-328,259,143,-447
0,5532932,196,-1873,-384,-1028,-565,-324,259,143,-447
0,5532944,201,-1877,-383,-1031,-563,-322,259,143,-447
0,5532957,201,-1877,-383,-1031,-563,-322,259,143,-447
0,5532969,198,-1876,-378,-1031,-567,-327,257,135,-445
0,5532982,198,-1876,-378,-1031,-567,-327,257,135,-445
0,5532993,197,-1872,-387,-1032,-563,-329,257,135,-445
0,5533005,200,-1874,-387,-1023,-562,-326,257,135,-445
0,5533015,200,-1874,-387,-1023,-562,-326,257,135,-445
0,5533025,202,-1874,-383,-1021,-564,-326,257,135,-445
0,5533038,202,-1874,-383,-1021,-564,-326,257,135,-445
0,5533051,201,-1877,-383,-1025,-565,-323,257,135,-445
0,5533065,199,-1872,-381,-1030,-568,-328,257,135,-445
0,5533077,199,-1872,-381,-1030,-568,-328,257,135,-445
0,5533090,199,-1874,-379,-1019,-566,-325,258,144,-446
0,5533104,199,-1874,-379,-1019,-566,-325,258,144,-446
0,5533116,201,-1875,-377,-1026,-567,-326,258,144,-446
0,5533126,199,-1869,-386,-1034,-569,-331,258,144,-446
0,5533139,199,-1869,-386,-1034,-569,-331,258,144,-446
0,5533151,199,-1872,-378,-1031,-564,-322,258,144,-446
0,5533164,201,-1875,-382,-1024,-564,-321,258,144,-446
0,5533175,201,-1875,-382,-1024,-564,-321,258,144,-446
0,5533190,204,-1874,-384,-1017,-562,-321,258,144,-446
0,5533199,204,-1874,-384,-1017,-562,-321,258,144,-446
0,5533210,199,-1874,-377,-1025,-554,-324,258,144,-446
0,5533224,206,-1874,-384,-1023,-551,-327,254,148,-442
0,5533239,206,-1874,-384,-1023,-551,-327,254,148,-442
0,5533250,205,-1874,-390,-1025,-568,-324,254,148,-442
0,5533260,205,-1874,-390,-1025,-568,-324,254,148,-442
0,5533274,199,-1875,-373,-1029,-573,-324,254,148,-442
0,5533288,192,-1873,-385,-1021,-559,-322,254,148,-442
0,5533296,192,-1873,-385,-1021,-559,-322,254,148,-442
0,5533306,200,-1873,-408,-1023,-568,-322,254,148,-442
0,5533318,200,-1873,-408,-1023,-568,-322,254,148,-442
0,5533329,202,-1874,-364,-1019,-560,-320,254,148,-442
0,5533342,202,-1874,-364,-1019,-560,-320,254,148,-442
0,5533356,197,-1874,-381,-1015,-554,-323,265,135,-445
0,5533364,198,-1875,-389,-1019,-546,-323,265,135,-445
0,5533375,198,-1875,-389,-1019,-546,-323,265,135,-445
0,5533388,201,-1876,-364,-1010,-544,-327,265,135,-445
0,5533399,201,-1876,-364,-1010,-544,-327,265,135,-445
0,5533411,201,-1873,-396,-1021,-555,-331,265,135,-445
0,5533422,201,-1873,-396,-1021,-555,-331,265,135,-445
0,5533430,199,-1874,-385,-1018,-558,-331,265,135,-445
0,5533438,199,-1874,-385,-1018,-558,-331,265,135,-445
0,5533447,198,-1873,-373,-1021,-553,-318,265,135,-445
0,5533455,198,-1873,-373,-1021,-553,-318,265,135,-445
0,5533463,198,-1873,-373,-1021,-553,-318,265,135,-445
0,5533473,200,-1877,-394,-1022,-553,-320,260,140,-448
0,5533489,197,-1872,-375,-1029,-557,-323,260,140,-448
0,5533500,197,-1872,-375,-1029,-557,-323,260,140,-448
0,5533512,194,-1872,-375,-1026,-566,-323,260,140,-448
0,5533520,194,-1872,-375,-1026,-566,-323,260,140,-448
0,5533529,201,-1872,-390,-1020,-560,-325,260,140,-448
0,5533536,201,-1872,-390,-1020,-560,-325,260,140,-448
0,5533546,198,-1875,-374,-1017,-564,-318,260,140,-448
0,5533559,198,-1875,-374,-1017,-564,-318,260,140,-448
0,5533571,200,-1874,-394,-1025,-566,-326,260,140,-448
0,5533580,200,-1874,-394,-1025,-566,-326,260,140,-448
0,5533592,196,-1874,-381,-1020,-566,-327,260,140,-448
0,5533605,196,-1872,-373,-1011,-564,-329,259,149,-445
0,5533619,196,-1872,-373,-1011,-564,-329,259,149,-445
0,5533629,198,-1872,-389,-1009,-555,-325,259,149,-445
0,5533641,198,-1872,-389,-1009,-555,-325,259,149,-445
0,5533654,199,-1872,-385,-1018,-559,-322,259,149,-445
0,5533667,198,-1875,-377,-1024,-559,-326,259,149,-445
0,5533679,198,-1875,-377,-1024,-559,-326,259,149,-445
0,5533690,202,-1876,-385,-1023,-559,-331,259,149,-445
0,5533704,202,-1876,-385,-1023,-559,-331,259,149,-445
0,5533716,201,-1871,-377,-1023,-563,-326,259,149,-445
0,5533728,196,-1875,-377,-1027,-567,-319,255,147,-451
0,5533739,196,-1875,-377,-1027,-567,-319,255,147,-451
0,5533749,197,-1874,-380,-1032,-568,-323,255,147,-451
0,5533762,197,-1874,-380,-1032,-568,-323,255,147,-451
0,5533775,198,-1874,-377,-1024,-573,-324,255,147,-451
0,5533786,199,-1876,-381,-1029,-568,-323,255,147,-451
0,5533795,199,-1876,-381,-1029,-568,-323,255,147,-451
0,5533807,199,-1874,-383,-1030,-571,-326,255,147,-451
0,5533815,199,-1874,-383,-1030,-571,-326,255,147,-451
0,5533824,199,-1874,-383,-1030,-571,-326,255,147,-451
0,5533832,202,-1872,-380,-1038,-573,-328,255,147,-451
0,5533840,202,-1872,-380,-1038,-573,-328,255,147,-451
0,5533849,202,-1874,-417,-1046,-591,-324,255,147,-451
0,5533857,202,-1874,-417,-1046,-591,-324,255,147,-451
0,5533865,203,-1877,-402,-1025,-569,-323,263,143,-445
0,5533874,203,-1877,-402,-1025,-569,-323,263,143,-445
0,5533882,203,-1877,-402,-1025,-569,-323,263,143,-445
0,5533890,200,-1877,-353,-1024,-569,-327,263,143,-445
0,5533898,200,-1877,-353,-1024,-569,-327,263,143,-445
0,5533912,196,-1875,-411,-1029,-563,-323,263,143,-445
0,5533923,196,-1875,-411,-1029,-563,-323,263,143,-445
0,5533931,197,-1874,-377,-1027,-569,-327,263,143,-445
0,5533937,197,-1874,-377,-1027,-569,-327,263,143,-445
0,5533943,197,-1874,-377,-1027,-569,-327,263,143,-445
0,5533949,199,-1874,-365,-1024,-573,-318,263,143,-445
0,5533957,199,-1874,-365,-1024,-573,-318,263,143,-445
0,5533965,199,-1874,-365,-1024,-573,-318,263,143,-445
0,5533972,200,-1878,-408,-1030,-582,-322,263,143,-445
0,5533978,200,-1878,-408,-1030,-582,-322,263,143,-445
0,5533985,199,-1877,-361,-1028,-575,-328,263,143,-445
0,5533990,199,-1877,-361,-1028,-575,-328,252,140,-448
0,5533997,199,-1877,-361,-1028,-575,-328,252,140,-448
0,5534005,199,-1877,-361,-1028,-575,-328,252,140,-448
0,5534012,198,-1874,-385,-1030,-571,-323,252,140,-448
0,5534018,198,-1874,-385,-1030,-571,-323,252,140,-448
0,5534025,198,-1876,-395,-1024,-557,-322,252,140,-448
0,5534030,198,-1876,-395,-1024,-557,-322,252,140,-448
0,5534039,198,-1876,-395,-1024,-557,-322,252,140,-448
0,5534047,198,-1876,-360,-1017,-560,-327,252,140,-448
0,5534055,198,-1876,-360,-1017,-560,-327,252,140,-448
0,5534062,198,-1876,-360,-1017,-560,-327,252,140,-448
0,5534069,200,-1879,-391,-1020,-559,-331,252,140,-448
0,5534076,200,-1879,-391,-1020,-559,-331,252,140,-448
0,5534083,200,-1879,-391,-1020,-559,-331,252,140,-448
0,5534089,201,-1876,-396,-1016,-562,-325,252,140,-448
0,5534096,201,-1876,-396,-1016,-562,-325,252,140,-448
0,5534101,201,-1876,-396,-1016,-562,-325,252,140,-448
0,5534107,197,-1873,-370,-1012,-554,-320,252,140,-448
0,5534112,197,-1873,-370,-1012,-554,-320,252,140,-448
0,5534119,197,-1873,-370,-1012,-554,-320,252,140,-448
0,5534126,205,-1870,-345,-1027,-566,-325,256,136,-440
0,5534134,205,-1870,-345,-1027,-566,-325,256,136,-440
0,5534140,205,-1870,-345,-1027,-566,-325,256,136,-440
0,5534145,199,-1877,-394,-1040,-573,-321,256,136,-440
0,5534152,199,-1877,-394,-1040,-573,-321,256,136,-440
0,5534160,199,-1877,-394,-1040,-573,-321,256,136,-440
0,5534167,197,-1873,-377,-1024,-549,-321,256,136,-440
0,5534173,197,-1873,-377,-1024,-549,-321,256,136,-440
0,5534179,197,-1873,-377,-1024,-549,-321,256,136,-440
0,5534187,198,-1874,-374,-1018,-555,-322,256,136,-440
0,5534191,198,-1874,-374,-1018,-555,-322,256,136,-440
0,5534198,198,-1874,-374,-1018,-555,-322,256,136,-440
0,5534206,201,-1878,-397,-1024,-557,-329,256,136,-440
0,5534213,201,-1878,-397,-1024,-557,-329,256,136,-440
0,5534221,201,-1878,-397,-1024,-557,-329,256,136,-440
0,5534228,201,-1872,-376,-1026,-558,-321,256,136,-440
0,5534233,201,-1872,-376,-1026,-558,-321,256,136,-440
0,5534240,201,-1872,-376,-1026,-558,-321,256,136,-440
0,5534246,198,-1873,-385,-1023,-557,-327,257,149,-451
0,5534255,198,-1873,-385,-1023,-557,-327,257,149,-451
0,5534262,198,-1873,-385,-1023,-557,-327,257,149,-451
0,5534267,201,-1874,-388,-1027,-563,-316,257,149,-451
0,5534275,201,-1874,-388,-1027,-563,-316,257,149,-451
0,5534282,201,-1874,-388,-1027,-563,-316,257,149,-451
0,5534289,201,-1874,-388,-1027,-563,-316,257,149,-451
0,5534296,201,-1874,-388,-1027,-563,-316,257,149,-451
0,5534303,201,-1874,-388,-1027,-563,-316,257,149,-451
0,5534311,202,-1871,-380,-1017,-560,-323,257,149,-451
0,5534316,202,-1871,-380,-1017,-560,-323,257,149,-451
0,5534325,202,-1871,-380,-1017,-560,-323,257,149,-451
0,5534332,198,-1874,-385,-1019,-569,-324,257,149,-451
0,5534340,198,-1874,-385,-1019,-569,-324,257,149,-451
0,5534347,201,-1873,-368,-1029,-577,-316,257,149,-451
0,5534354,201,-1873,-368,-1029,-577,-316,257,149,-451
0,5534360,201,-1873,-368,-1029,-577,-316,257,149,-451
0,5534365,206,-1875,-411,-1033,-584,-323,257,149,-451
0,5534374,206,-1875,-411,-1033,-584,-323,254,140,-450
0,5534382,206,-1875,-411,-1033,-584,-323,254,140,-450
0,5534391,201,-1875,-405,-1020,-567,-325,254,140,-450
0,5534396,201,-1875,-405,-1020,-567,-325,254,140,-450
0,5534405,201,-1875,-405,-1020,-567,-325,254,140,-450
0,5534411,198,-1873,-346,-1025,-567,-316,254,140,-450
0,5534418,198,-1873,-346,-1025,-567,-316,254,140,-450
0,5534426,199,-1875,-406,-1028,-569,-324,254,140,-450
0,5534432,199,-1875,-406,-1028,-569,-324,254,140,-450
0,5534440,199,-1875,-406,-1028,-569,-324,254,140,-450
0,5534449,201,-1872,-382,-1033,-569,-324,254,140,-450
0,5534455,201,-1872,-382,-1033,-569,-324,254,140,-450
0,5534461,201,-1872,-382,-1033,-569,-324,254,140,-450
0,5534469,199,-1870,-363,-1038,-579,-327,254,140,-450
0,5534477,199,-1870,-363,-1038,-579,-327,254,140,-450
0,5534482,199,-1870,-363,-1038,-579,-327,254,140,-450
0,5534490,199,-1876,-407,-1029,-569,-325,254,140,-450
0,5534498,199,-1876,-407,-1029,-569,-325,254,140,-450
0,5534505,199,-1876,-407,-1029,-569,-325,254,140,-450
0,5534513,200,-1876,-369,-1021,-569,-320,251,145,-449
0,5534518,200,-1876,-369,-1021,-569,-320,251,145,-449
0,5534523,200,-1876,-369,-1021,-569,-320,251,145,-449
0,5534528,199,-1874,-375,-1020,-562,-326,251,145,-449
0,5534533,199,-1874,-375,-1020,-562,-326,251,145,-449
0,5534539,199,-1874,-375,-1020,-562,-326,251,145,-449
0,5534544,199,-1874,-375,-1020,-562,-326,251,145,-449
0,5534552,201,-1876,-411,-1029,-564,-331,251,145,-449
0,5534559,201,-1876,-411,-1029,-564,-331,251,145,-449
0,5534565,201,-1876,-411,-1029,-564,-331,251,145,-449
0,5534569,200,-1874,-360,-1028,-563,-323,251,145,-449
0,5534576,200,-1874,-360,-1028,-563,-323,251,145,-449
0,5534582,200,-1874,-360,-1028,-563,-323,251,145,-449
0,5534592,199,-1875,-395,-1026,-560,-322,251,145,-449
0,5534598,199,-1875,-395,-1026,-560,-322,251,145,-449
0,5534606,200,-1879,-388,-1022,-561,-319,251,145,-449
0,5534613,200,-1879,-388,-1022,-561,-319,251,145,-449
0,5534621,200,-1879,-388,-1022,-561,-319,251,145,-449
0,5534627,199,-1875,-363,-1019,-561,-314,257,145,-435
0,5534635,199,-1875,-363,-1019,-561,-314,257,145,-435
0,5534643,199,-1875,-363,-1019,-561,-314,257,145,-435
0,5534649,201,-1876,-397,-1020,-565,-318,257,145,-435
0,5534657,201,-1876,-397,-1020,-565,-318,257,145,-435
0,5534663,201,-1876,-397,-1020,-565,-318,257,145,-435
0,5534671,201,-1873,-379,-1022,-563,-312,257,145,-435
0,5534678,201,-1873,-379,-1022,-563,-312,257,145,-435
0,5534685,201,-1873,-379,-1022,-563,-312,257,145,-435
0,5534692,199,-1872,-377,-1023,-565,-318,257,145,-435
0,5534699,199,-1872,-377,-1023,-565,-318,257,145,-435
0,5534707,200,-1874,-405,-1026,-561,-324,257,145,-435
0,5534715,200,-1874,-405,-1026,-561,-324,257,145,-435
0,5534723,200,-1874,-405,-1026,-561,-324,257,145,-435
0,5534730,201,-1875,-379,-1028,-569,-320,257,145,-435
0,5534737,201,-1875,-379,-1028,-569,-320,257,145,-435
0,5534744,201,-1875,-379,-1028,-569,-320,257,145,-435
0,5534750,199,-1872,-383,-1022,-559,-322,257,145,-435
0,5534757,199,-1872,-383,-1022,-559,-322,257,145,-435
0,5534766,198,-1873,-381,-1023,-566,-322,257,145,-435
0,5534773,198,-1873,-381,-1023,-566,-322,262,142,-446
0,5534781,198,-1873,-381,-1023,-566,-322,262,142,-446
0,5534787,199,-1871,-375,-1026,-557,-317,262,142,-446
0,5534795,199,-1871,-375,-1026,-557,-317,262,142,-446
0,5534800,199,-1871,-375,-1026,-557,-317,262,142,-446
0,5534809,198,-1873,-387,-1041,-552,-322,262,142,-446
0,5534813,198,-1873,-387,-1041,-552,-322,262,142,-446
0,5534819,198,-1873,-387,-1041,-552,-322,262,142,-446
0,5534824,198,-1873,-387,-1041,-552,-322,262,142,-446
0,5534829,199,-1876,-380,-1031,-568,-320,262,142,-446
0,5534834,199,-1876,-380,-1031,-568,-320,262,142,-446
0,5534839,199,-1876,-380,-1031,-568,-320,262,142,-446
0,5534844,199,-1876,-380,-1031,-568,-320,262,142,-446
0,5534853,200,-1874,-380,-1031,-566,-318,262,142,-446
0,5534860,200,-1874,-380,-1031,-566,-318,262,142,-446
0,5534868,200,-1873,-378,-1033,-569,-321,262,142,-446
0,5534875,200,-1873,-378,-1033,-569,-321,262,142,-446
0,5534882,200,-1873,-378,-1033,-569,-321,262,142,-446
0,5534889,197,-1875,-382,-1030,-567,-326,258,140,-454
0,5534897,197,-1875,-382,-1030,-567,-326,258,140,-454
0,5534904,197,-1875,-382,-1030,-567,-326,258,140,-454
0,5534911,198,-1875,-377,-1028,-570,-323,258,140,-454
0,5534917,198,-1875,-377,-1028,-570,-323,258,140,-454
0,5534924,198,-1875,-377,-1028,-570,-323,258,140,-454
0,5534937,198,-1875,-377,-1028,-570,-323,258,140,-454
0,5534949,202,-1872,-379,-1025,-565,-320,258,140,-454
0,5534962,202,-1872,-379,-1025,-565,-320,258,140,-454
0,5534971,198,-1872,-380,-1026,-570,-326,258,140,-454
0,5534981,198,-1872,-380,-1026,-570,-326,258,140,-454
0,5534995,198,-1872,-380,-1026,-570,-326,258,140,-454
0,5535006,201,-1872,-377,-1029,-563,-323,258,140,-454
0,5535020,201,-1872,-377,-1029,-563,-323,258,140,-454
0,5535032,202,-1872,-378,-1024,-569,-317,259,143,-439
0,5535043,202,-1872,-378,-1024,-569,-317,259,143,-439
0,5535055,204,-1873,-383,-1021,-569,-323,259,143,-439
0,5535069,200,-1875,-377,-1028,-569,-321,259,143,-439
0,5535080,200,-1875,-377,-1028,-569,-321,259,143,-439
0,5535089,202,-1874,-383,-1030,-560,-320,259,143,-439
0,5535097,202,-1874,-383,-1030,-560,-320,259,143,-439
0,5535106,202,-1874,-383,-1030,-560,-320,259,143,-439
0,5535114,199,-1875,-384,-1028,-568,-320,259,143,-439
0,5535123,199,-1875,-384,-1028,-568,-320,259,143,-439
0,5535135,199,-1872,-374,-1030,-570,-335,259,143,-439
0,5535149,200,-1876,-385,-1036,-570,-326,266,138,-448
0,5535162,200,-1876,-385,-1036,-570,-326,266,138,-448
0,5535171,197,-1878,-384,-1032,-566,-328,266,138,-448
0,5535184,197,-1878,-384,-1032,-566,-328,266,138,-448
0,5535196,198,-1873,-379,-1038,-564,-324,266,138,-448
0,5535208,201,-1872,-383,-1031,-569,-324,266,138,-448
0,5535220,201,-1872,-383,-1031,-569,-324,266,138,-448
0,5535235,200,-1873,-381,-1029,-573,-324,266,138,-448
0,5535247,202,-1873,-380,-1027,-566,-328,266,138,-448
0,5535260,202,-1873,-380,-1027,-566,-328,266,138,-448
0,5535271,200,-1873,-383,-1032,-572,-324,262,142,-436
0,5535286,200,-1873,-383,-1032,-572,-324,262,142,-436
0,5535298,198,-1873,-380,-1022,-571,-327,262,142,-436
0,5535309,198,-1872,-384,-1021,-567,-323,262,142,-436
0,5535323,198,-1872,-384,-1021,-567,-323,262,142,-436
0,5535337,197,-1875,-384,-1024,-567,-325,262,142,-436
0,5535348,199,-1875,-382,-1028,-569,-329,262,142,-436
0,5535361,199,-1875,-382,-1028,-569,-329,262,142,-436
0,5535373,198,-1874,-384,-1019,-564,-328,262,142,-436
0,5535387,202,-1874,-383,-1023,-569,-324,262,142,-436
0,5535399,202,-1874,-383,-1023,-569,-324,262,142,-436
0,5535410,199,-1874,-379,-1024,-562,-325,246,142,-442
0,5535420,199,-1874,-379,-1024,-562,-325,246,142,-442
0,5535434,199,-1879,-383,-1016,-561,-322,246,142,-442
0,5535447,197,-1878,-383,-1023,-558,-327,246,142,-442
0,5535457,197,-1878,-383,-1023,-558,-327,246,142,-442
0,5535469,203,-1875,-384,-1023,-573,-323,246,142,-442
0,5535480,203,-1875,-384,-1023,-573,-323,246,142,-442
0,5535494,201,-1873,-381,-1030,-565,-329,246,142,-442
0,5535506,201,-1873,-381,-1030,-565,-329,246,142,-442
0,5535515,196,-1875,-384,-1024,-566,-324,246,142,-442
0,5535524,196,-1875,-384,-1024,-566,-324,246,142,-442
0,5535532,200,-1873,-383,-1017,-561,-326,249,141,-447
0,5535541,200,-1873,-383,-1017,-561,-326,249,141,-447
0,5535554,202,-1874,-380,-1020,-564,-320,249,141,-447
0,5535566,202,-1874,-380,-1020,-564,-320,249,141,-447
0,5535579,198,-1874,-379,-1020,-569,-326,249,141,-447
0,5535591,200,-1876,-378,-1021,-558,-326,249,141,-447
0,5535604,200,-1876,-378,-1021,-558,-326,249,141,-447
0,5535617,199,-1875,-389,-1025,-563,-327,249,141,-447
0,5535630,201,-1875,-387,-1033,-563,-326,249,141,-447
0,5535641,201,-1875,-387,-1033,-563,-326,249,141,-447
0,5535654,202,-1873,-388,-1023,-560,-317,249,141,-447
0,5535666,202,-1873,-388,-1023,-560,-317,249,141,-447
0,5535675,200,-1872,-382,-1025,-566,-321,257,141,-439
0,5535687,195,-1875,-380,-1024,-562,-323,257,141,-439
0,5535703,195,-1875,-380,-1024,-562,-323,257,141,-439
0,5535714,199,-1872,-378,-1024,-566,-325,257,141,-439
0,5535726,199,-1872,-378,-1024,-566,-325,257,141,-439
0,5535735,199,-1875,-381,-1022,-565,-328,257,141,-439
0,5535744,199,-1875,-381,-1022,-565,-328,257,141,-439
0,5535753,196,-1875,-385,-1024,-564,-327,257,141,-439
0,5535761,196,-1875,-385,-1024,-564,-327,257,141,-439
0,5535768,201,-1873,-375,-1021,-563,-326,257,141,-439
0,5535777,201,-1873,-375,-1021,-563,-326,257,141,-439
0,5535785,201,-1873,-375,-1021,-563,-326,257,141,-439
0,5535795,199,-1876,-382,-1021,-567,-322,256,148,-442
0,5535802,199,-1876,-382,-1021,-567,-322,256,148,-442
0,5535811,199,-1877,-386,-1022,-569,-325,256,148,-442
0,5535819,199,-1877,-386,-1022,-569,-325,256,148,-442
0,5535827,197,-1877,-384,-1024,-569,-328,256,148,-442
0,5535835,197,-1877,-384,-1024,-569,-328,256,148,-442
0,5535844,197,-1877,-384,-1024,-569,-328,256,148,-442
0,5535852,201,-1875,-379,-1021,-565,-325,256,148,-442
0,5535860,201,-1875,-379,-1021,-565,-325,256,148,-442
0,5535868,201,-1874,-373,-1029,-558,-326,256,148,-442
0,5535877,201,-1874,-373,-1029,-558,-326,256,148,-442
0,5535885,201,-1874,-373,-1029,-558,-326,256,148,-442
0,5535894,200,-1874,-374,-1022,-570,-328,256,148,-442
0,5535902,200,-1874,-374,-1022,-570,-328,256,148,-442
0,5535910,201,-1872,-380,-1020,-579,-324,257,147,-441
0,5535919,201,-1872,-380,-1020,-579,-324,257,147,-441
0,5535927,200,-1872,-373,-1021,-572,-327,257,147,-441
0,5535935,200,-1872,-373,-1021,-572,-327,257,147,-441
0,5535940,200,-1872,-373,-1021,-572,-327,257,147,-441
0,5535944,200,-1872,-373,-1021,-572,-327,257,147,-441
0,5535950,199,-1879,-383,-1022,-559,-325,257,147,-441
0,5535955,199,-1879,-383,-1022,-559,-325,257,147,-441
0,5535961,199,-1879,-383,-1022,-559,-325,257,147,-441
0,5535966,199,-1879,-383,-1022,-559,-325,257,147,-441
0,5535971,199,-1873,-380,-1019,-566,-326,257,147,-441
0,5535976,199,-1873,-380,-1019,-566,-326,257,147,-441
0,5535982,199,-1873,-380,-1019,-566,-326,257,147,-441
0,5535989,199,-1873,-374,-1024,-570,-322,257,147,-441
0,5535995,199,-1873,-374,-1024,-570,-322,257,147,-441
0,5536001,199,-1873,-374,-1024,-570,-322,257,147,-441
0,5536006,199,-1873,-374,-1024,-570,-322,257,147,-441
0,5536011,199,-1873,-380,-1025,-570,-323,257,147,-441
0,5536017,199,-1873,-380,-1025,-570,-323,257,147,-441
0,5536022,199,-1873,-380,-1025,-570,-323,257,147,-441
0,5536029,199,-1874,-385,-1030,-574,-322,257,147,-441
0,5536036,199,-1874,-385,-1030,-574,-322,257,147,-441
0,5536044,199,-1874,-385,-1030,-574,-322,257,147,-441
0,5536052,197,-1873,-375,-1027,-564,-320,259,139,-439
0,5536058,197,-1873,-375,-1027,-564,-320,259,139,-439
0,5536066,197,-1873,-375,-1027,-564,-320,259,139,-439
0,5536073,201,-1873,-385,-1031,-560,-326,259,139,-439
0,5536080,201,-1873,-385,-1031,-560,-326,259,139,-439
0,5536089,199,-1877,-388,-1030,-567,-327,259,139,-439
0,5536094,199,-1877,-388,-1030,-567,-327,259,139,-439
0,5536100,199,-1877,-388,-1030,-567,-327,259,139,-439
0,5536106,199,-1877,-388,-1030,-567,-327,259,139,-439
0,5536113,198,-1874,-385,-1025,-569,-329,259,139,-439
0,5536122,198,-1874,-385,-1025,-569,-329,259,139,-439
0,5536129,201,-1873,-378,-1027,-571,-326,259,139,-439
0,5536136,201,-1873,-378,-1027,-571,-326,259,139,-439
0,5536143,201,-1873,-378,-1027,-571,-326,259,139,-439
0,5536150,198,-1873,-385,-1025,-563,-323,259,139,-439
0,5536156,198,-1873,-385,-1025,-563,-323,259,139,-439
0,5536165,198,-1873,-385,-1025,-563,-323,259,139,-439
0,5536172,199,-1871,-374,-1019,-572,-316,263,139,-443
0,5536179,199,-1871,-374,-1019,-572,-316,263,139,-443
0,5536186,199,-1871,-374,-1019,-572,-316,263,139,-443
0,5536194,197,-1875,-384,-1023,-582,-323,263,139,-443
0,5536201,197,-1875,-384,-1023,-582,-323,263,139,-443
0,5536209,201,-1870,-299,-1024,-577,-327,263,139,-443
0,5536218,201,-1870,-299,-1024,-577,-327,263,139,-443
0,5536225,201,-1870,-299,-1024,-577,-327,263,139,-443
0,5536233,203,-1874,-374,-1019,-563,-325,263,139,-443
0,5536240,203,-1874,-374,-1019,-563,-325,263,139,-443
0,5536246,203,-1874,-374,-1019,-563,-325,263,139,-443
0,5536253,198,-1878,-445,-1031,-576,-321,263,139,-443
0,5536262,198,-1878,-445,-1031,-576,-321,263,139,-443
0,5536268,202,-1870,-312,-1026,-562,-317,263,139,-443
0,5536274,202,-1870,-312,-1026,-562,-317,263,139,-443
0,5536280,202,-1870,-312,-1026,-562,-317,263,139,-443
0,5536287,202,-1870,-312,-1026,-562,-317,263,139,-443
0,5536292,198,-1877,-413,-1028,-557,-316,263,139,-443
0,5536301,198,-1877,-413,-1028,-557,-316,263,139,-443
0,5536311,196,-1875,-392,-1031,-562,-326,257,135,-439
0,5536319,196,-1875,-392,-1031,-562,-326,257,135,-439
0,5536325,196,-1875,-392,-1031,-562,-326,257,135,-439
0,5536332,201,-1873,-332,-1028,-546,-325,257,135,-439
0,5536339,201,-1873,-332,-1028,-546,-325,257,135,-439
0,5536346,201,-1873,-332,-1028,-546,-325,257,135,-439
0,5536353,200,-1874,-419,-1029,-549,-326,257,135,-439
0,5536360,200,-1874,-419,-1029,-549,-326,257,135,-439
0,5536367,200,-1874,-419,-1029,-549,-326,257,135,-439
0,5536374,198,-1875,-375,-1023,-560,-321,257,135,-439
0,5536382,198,-1875,-375,-1023,-560,-321,257,135,-439
0,5536391,197,-1873,-369,-1025,-567,-320,257,135,-439
0,5536399,197,-1873,-369,-1025,-567,-320,257,135,-439
0,5536406,197,-1873,-369,-1025,-567,-320,257,135,-439
0,5536411,201,-1876,-416,-1032,-563,-319,257,135,-439
0,5536419,201,-1876,-416,-1032,-563,-319,257,135,-439
0,5536425,201,-1876,-416,-1032,-563,-319,257,135,-439
0,5536433,200,-1871,-362,-1027,-562,-327,256,148,-438
0,5536439,200,-1871,-362,-1027,-562,-327,256,148,-438
0,5536446,200,-1871,-362,-1027,-562,-327,256,148,-438
0,5536453,201,-1873,-380,-1027,-570,-322,256,148,-438
0,5536459,201,-1873,-380,-1027,-570,-322,256,148,-438
0,5536467,201,-1873,-380,-1027,-570,-322,256,148,-438
0,5536474,202,-1875,-406,-1025,-561,-318,256,148,-438
0,5536480,202,-1875,-406,-1025,-561,-318,256,148,-438
0,5536486,202,-1875,-406,-1025,-561,-318,256,148,-438
0,5536495,199,-1875,-365,-1027,-550,-315,256,148,-438
0,5536502,199,-1875,-365,-1027,-550,-315,256,148,-438
0,5536508,196,-1873,-388,-1023,-560,-320,256,148,-438
0,5536515,196,-1873,-388,-1023,-560,-320,256,148,-438
0,5536520,196,-1873,-388,-1023,-560,-320,256,148,-438
0,5536524,196,-1873,-388,-1023,-560,-320,256,148,-438
0,5536529,197,-1876,-387,-1026,-554,-322,256,148,-438
0,5536534,197,-1876,-387,-1026,-554,-322,256,148,-438
0,5536539,197,-1876,-387,-1026,-554,-322,256,148,-438
0,5536545,197,-1876,-387,-1026,-554,-322,256,148,-438
0,5536552,200,-1873,-375,-1023,-555,-319,256,148,-438
0,5536559,200,-1873,-375,-1023,-555,-319,256,148,-438
0,5536565,200,-1873,-375,-1023,-555,-319,256,148,-438
0,5536570,200,-1875,-388,-1022,-565,-323,259,153,-449
0,5536575,200,-1875,-388,-1022,-565,-323,259,153,-449
0,5536583,200,-1875,-388,-1022,-565,-323,259,153,-449
0,5536589,198,-1873,-384,-1021,-569,-322,259,153,-449
0,5536596,198,-1873,-384,-1021,-569,-322,259,153,-449
0,5536604,198,-1873,-384,-1021,-569,-322,259,153,-449
0,5536610,199,-1875,-381,-1024,-562,-323,259,153,-449
0,5536618,199,-1875,-381,-1024,-562,-323,259,153,-449
0,5536625,199,-1875,-381,-1024,-562,-323,259,153,-449
0,5536630,198,-1873,-386,-1026,-551,-322,259,153,-449
0,5536637,198,-1873,-386,-1026,-551,-322,259,153,-449
0,5536645,198,-1873,-386,-1026,-551,-322,259,153,-449
0,5536652,200,-1873,-379,-1025,-557,-322,259,153,-449
0,5536659,200,-1873,-379,-1025,-557,-322,259,153,-449
0,5536667,200,-1873,-379,-1025,-557,-322,259,153,-449
0,5536675,196,-1877,-385,-1026,-553,-324,259,153,-449
0,5536684,196,-1877,-385,-1026,-553,-324,259,153,-449
0,5536691,198,-1875,-370,-1037,-569,-325,259,141,-437
0,5536696,198,-1875,-370,-1037,-569,-325,259,141,-437
0,5536704,198,-1875,-370,-1037,-569,-325,259,141,-437
0,5536712,200,-1871,-378,-1029,-566,-322,259,141,-437
0,5536719,200,-1871,-378,-1029,-566,-322,259,141,-437
0,5536726,200,-1871,-378,-1029,-566,-322,259,141,-437
0,5536732,198,-1871,-378,-1028,-579,-318,259,141,-437
0,5536739,198,-1871,-378,-1028,-579,-318,259,141,-437
0,5536746,198,-1871,-378,-1028,-579,-318,259,141,-437
0,5536753,201,-1875,-387,-1035,-569,-315,259,141,-437
0,5536761,201,-1875,-387,-1035,-569,-315,259,141,-437
0,5536769,202,-1873,-379,-1036,-573,-320,259,141,-437
0,5536777,202,-1873,-379,-1036,-573,-320,259,141,-437
0,5536783,202,-1873,-379,-1036,-573,-320,259,141,-437
0,5536790,200,-1876,-383,-1020,-575,-327,259,141,-437
0,5536798,200,-1876,-383,-1020,-575,-327,259,141,-437
0,5536804,200,-1876,-383,-1020,-575,-327,259,141,-437
0,5536811,202,-1873,-386,-1025,-571,-318,258,142,-442
0,5536816,202,-1873,-386,-1025,-571,-318,258,142,-442
0,5536821,202,-1873,-386,-1025,-571,-318,258,142,-442
0,5536826,202,-1873,-386,-1025,-571,-318,258,142,-442
0,5536831,201,-1874,-385,-1024,-585,-323,258,142,-442
0,5536836,201,-1874,-385,-1024,-585,-323,258,142,-442
0,5536842,201,-1874,-385,-1024,-585,-323,258,142,-442
0,5536846,201,-1874,-385,-1024,-585,-323,258,142,-442
0,5536851,199,-1875,-375,-1015,-574,-324,258,142,-442
0,5536860,199,-1875,-375,-1015,-574,-324,258,142,-442
0,5536868,199,-1875,-375,-1015,-574,-324,258,142,-442
0,5536874,200,-1878,-387,-1014,-580,-317,258,142,-442
0,5536880,200,-1878,-387,-1014,-580,-317,258,142,-442
0,5536888,190,-1875,-389,-1020,-569,-324,258,142,-442
0,5536894,190,-1875,-389,-1020,-569,-324,258,142,-442
0,5536903,190,-1875,-389,-1020,-569,-324,258,142,-442
0,5536910,202,-1873,-367,-1017,-548,-322,258,142,-442
0,5536917,202,-1873,-367,-1017,-548,-322,258,142,-442
0,5536924,202,-1873,-367,-1017,-548,-322,258,142,-442
0,5536931,202,-1873,-367,-1017,-548,-322,258,142,-442
0,5536937,202,-1873,-367,-1017,-548,-322,258,142,-442
0,5536948,202,-1873,-367,-1017,-548,-322,258,142,-442
0,5536960,200,-1874,-362,-1025,-568,-317,264,142,-450
0,5536973,201,-1874,-385,-1035,-567,-325,264,142,-450
0,5536982,201,-1874,-385,-1035,-567,-325,264,142,-450
0,5536995,200,-1872,-394,-1028,-564,-324,264,142,-450
0,5537007,200,-1872,-394,-1028,-564,-324,264,142,-450
0,5537019,201,-1873,-371,-1027,-574,-325,264,142,-450
0,5537030,199,-1874,-400,-1019,-571,-319,264,142,-450
0,5537038,199,-1874,-400,-1019,-571,-319,264,142,-450
0,5537048,199,-1874,-400,-1019,-571,-319,264,142,-450
0,5537059,200,-1874,-388,-1021,-552,-324,264,142,-450
0,5537069,198,-1875,-370,-1029,-542,-319,254,140,-444
0,5537080,198,-1875,-370,-1029,-542,-319,254,140,-444
0,5537093,200,-1876,-387,-1025,-547,-323,254,140,-444
0,5537108,200,-1876,-387,-1025,-547,-323,254,140,-444
0,5537118,202,-1877,-375,-1017,-570,-325,254,140,-444
