imu,time,ax,ay,az,gx,gy,gz,mx,my,mz
1,4874259,422,-1365,-486,-1482,-301,-44,388,154,-272
1,4874274,425,-1366,-490,-1487,-305,-37,388,154,-272
1,4874283,425,-1366,-490,-1487,-305,-37,388,154,-272
1,4874291,424,-1364,-489,-1481,-309,-50,388,154,-272
1,4874300,424,-1364,-489,-1481,-309,-50,388,154,-272
1,4874309,424,-1367,-490,-1480,-310,-45,388,154,-272
1,4874317,424,-1367,-490,-1480,-310,-45,388,154,-272
1,4874327,424,-1367,-490,-1480,-310,-45,388,154,-272
1,4874334,424,-1368,-494,-1486,-303,-40,388,154,-272
1,4874342,424,-1368,-494,-1486,-303,-40,388,154,-272
1,4874349,422,-1363,-490,-1491,-300,-38,388,154,-272
1,4874355,422,-1363,-490,-1491,-300,-38,388,154,-272
1,4874364,422,-1363,-490,-1491,-300,-38,388,154,-272
1,4874376,424,-1365,-491,-1496,-306,-40,382,154,-268
1,4874387,424,-1365,-491,-1496,-306,-40,382,154,-268
1,4874397,424,-1365,-493,-1491,-304,-41,382,154,-268
1,4874406,424,-1365,-493,-1491,-304,-41,382,154,-268
1,4874415,422,-1364,-491,-1490,-302,-43,382,154,-268
1,4874425,422,-1364,-491,-1490,-302,-43,382,154,-268
1,4874433,422,-1365,-493,-1485,-300,-42,382,154,-268
1,4874442,422,-1365,-493,-1485,-300,-42,382,154,-268
1,4874452,421,-1365,-492,-1481,-298,-44,382,154,-268
1,4874465,421,-1365,-492,-1481,-298,-44,382,154,-268
1,4874472,426,-1364,-493,-1483,-295,-41,382,154,-268
1,4874479,426,-1364,-493,-1483,-295,-41,382,154,-268
1,4874485,426,-1364,-493,-1483,-295,-41,382,154,-268
1,4874491,425,-1363,-491,-1485,-303,-41,382,154,-272
1,4874498,425,-1363,-491,-1485,-303,-41,382,154,-272
1,4874505,425,-1363,-491,-1485,-303,-41,382,154,-272
1,4874512,420,-1364,-488,-1480,-299,-38,382,154,-272
1,4874517,420,-1364,-488,-1480,-299,-38,382,154,-272
1,4874523,420,-1364,-488,-1480,-299,-38,382,154,-272
1,4874528,422,-1366,-493,-1485,-303,-38,382,154,-272
1,4874534,422,-1366,-493,-1485,-303,-38,382,154,-272
1,4874540,422,-1366,-493,-1485,-303,-38,382,154,-272
1,4874546,422,-1366,-493,-1485,-303,-38,382,154,-272
1,4874552,423,-1365,-487,-1481,-302,-38,382,154,-272
1,4874557,423,-1365,-487,-1481,-302,-38,382,154,-272
1,4874563,423,-1365,-487,-1481,-302,-38,382,154,-272
1,4874569,424,-1367,-493,-1484,-299,-39,382,154,-272
1,4874575,424,-1367,-493,-1484,-299,-39,382,154,-272
1,4874580,424,-1367,-493,-1484,-299,-39,382,154,-272
1,4874587,424,-1367,-493,-1484,-299,-39,382,154,-272
1,4874592,424,-1364,-492,-1485,-306,-38,382,154,-272
1,4874598,424,-1364,-492,-1485,-306,-38,382,154,-272
1,4874604,424,-1364,-492,-1485,-306,-38,382,154,-272
1,4874609,423,-1364,-484,-1491,-299,-42,386,154,-274
1,4874614,423,-1364,-484,-1491,-299,-42,386,154,-274
1,4874620,423,-1364,-484,-1491,-299,-42,386,154,-274
1,4874626,423,-1364,-484,-1491,-299,-42,386,154,-274
1,4874631,424,-1366,-488,-1480,-301,-43,386,154,-274
1,4874636,424,-1366,-488,-1480,-301,-43,386,154,-274
1,4874641,424,-1366,-488,-1480,-301,-43,386,154,-274
1,4874646,424,-1366,-488,-1480,-301,-43,386,154,-274
1,4874651,420,-1366,-493,-1485,-301,-43,386,154,-274
1,4874656,420,-1366,-493,-1485,-301,-43,386,154,-274
1,4874661,420,-1366,-493,-1485,-301,-43,386,154,-274
1,4874668,420,-1366,-493,-1485,-301,-43,386,154,-274
1,4874674,424,-1367,-491,-1488,-307,-34,386,154,-274
1,4874679,424,-1367,-491,-1488,-307,-34,386,154,-274
1,4874685,424,-1367,-491,-1488,-307,-34,386,154,-274
1,4874690,422,-1365,-495,-1487,-307,-41,386,154,-274
1,4874695,422,-1365,-495,-1487,-307,-41,386,154,-274
1,4874700,422,-1365,-495,-1487,-307,-41,386,154,-274
1,4874705,422,-1365,-495,-1487,-307,-41,386,154,-274
1,4874711,424,-1366,-497,-1485,-307,-45,386,154,-274
1,4874716,424,-1366,-497,-1485,-307,-45,386,154,-274
1,4874721,424,-1366,-497,-1485,-307,-45,386,154,-274
1,4874726,424,-1366,-497,-1485,-307,-45,386,154,-274
1,4874732,421,-1368,-493,-1484,-305,-43,386,154,-274
1,4874736,421,-1368,-493,-1484,-305,-43,386,154,-274
1,4874741,421,-1368,-493,-1484,-305,-43,386,154,-274
1,4874747,421,-1368,-493,-1484,-305,-43,386,154,-274
1,4874752,421,-1368,-493,-1484,-305,-43,381,151,-273
1,4874757,421,-1368,-493,-1484,-305,-43,381,151,-273
1,4874763,421,-1368,-493,-1484,-305,-43,381,151,-273
1,4874768,421,-1368,-493,-1484,-305,-43,381,151,-273
1,4874773,424,-1364,-491,-1485,-305,-43,381,151,-273
1,4874779,424,-1364,-491,-1485,-305,-43,381,151,-273
1,4874784,424,-1364,-491,-1485,-305,-43,381,151,-273
1,4874789,425,-1363,-491,-1481,-305,-42,381,151,-273
1,4874796,425,-1363,-491,-1481,-305,-42,381,151,-273
1,4874801,425,-1363,-491,-1481,-305,-42,381,151,-273
1,4874806,425,-1363,-491,-1481,-305,-42,381,151,-273
1,4874811,422,-1365,-489,-1486,-302,-46,381,151,-273
1,4874817,422,-1365,-489,-1486,-302,-46,381,151,-273
1,4874822,422,-1365,-489,-1486,-302,-46,381,151,-273
1,4874828,422,-1365,-489,-1486,-302,-46,381,151,-273
1,4874833,425,-1364,-490,-1488,-301,-34,381,151,-273
1,4874839,425,-1364,-490,-1488,-301,-34,381,151,-273
1,4874844,425,-1364,-490,-1488,-301,-34,381,151,-273
1,4874849,422,-1366,-496,-1489,-299,-35,381,151,-273
1,4874854,422,-1366,-496,-1489,-299,-35,381,151,-273
1,4874860,422,-1366,-496,-1489,-299,-35,381,151,-273
1,4874865,422,-1366,-496,-1489,-299,-35,381,151,-273
1,4874870,421,-1364,-489,-1476,-297,-38,383,155,-277
1,4874875,421,-1364,-489,-1476,-297,-38,383,155,-277
1,4874882,421,-1364,-489,-1476,-297,-38,383,155,-277
1,4874887,421,-1364,-489,-1476,-297,-38,383,155,-277
1,4874893,424,-1364,-491,-1479,-299,-40,383,155,-277
1,4874899,424,-1364,-491,-1479,-299,-40,383,155,-277
1,4874905,424,-1364,-491,-1479,-299,-40,383,155,-277
1,4874910,424,-1363,-496,-1483,-306,-33,383,155,-277
1,4874915,424,-1363,-496,-1483,-306,-33,383,155,-277
1,4874920,424,-1363,-496,-1483,-306,-33,383,155,-277
1,4874929,424,-1363,-496,-1483,-306,-33,383,155,-277
1,4874937,422,-1366,-491,-1480,-299,-37,383,155,-277
1,4874943,422,-1366,-491,-1480,-299,-37,383,155,-277
1,4874948,422,-1366,-491,-1480,-299,-37,383,155,-277
1,4874953,422,-1366,-493,-1485,-298,-34,383,155,-277
1,4874959,422,-1366,-493,-1485,-298,-34,383,155,-277
1,4874966,422,-1366,-493,-1485,-298,-34,383,155,-277
1,4874974,423,-1364,-487,-1482,-301,-30,383,155,-277
1,4874980,423,-1364,-487,-1482,-301,-30,383,155,-277
1,4874987,423,-1364,-487,-1482,-301,-30,383,155,-277
1,4874995,426,-1367,-490,-1481,-306,-33,375,155,-281
1,4875002,426,-1367,-490,-1481,-306,-33,375,155,-281
1,4875009,426,-1370,-486,-1482,-310,-42,375,155,-281
1,4875015,426,-1370,-486,-1482,-310,-42,375,155,-281
1,4875022,426,-1370,-486,-1482,-310,-42,375,155,-281
1,4875028,426,-1370,-486,-1482,-310,-42,375,155,-281
1,4875034,421,-1367,-491,-1482,-303,-42,375,155,-281
1,4875041,421,-1367,-491,-1482,-303,-42,375,155,-281
1,4875049,422,-1366,-489,-1484,-305,-43,375,155,-281
1,4875057,422,-1366,-489,-1484,-305,-43,375,155,-281
1,4875062,422,-1366,-489,-1484,-305,-43,375,155,-281
1,4875067,422,-1366,-489,-1484,-305,-43,375,155,-281
1,4875075,424,-1364,-490,-1484,-306,-44,375,155,-281
1,4875081,424,-1364,-490,-1484,-306,-44,375,155,-281
1,4875088,423,-1364,-495,-1485,-297,-40,375,155,-281
1,4875096,423,-1364,-495,-1485,-297,-40,375,155,-281
1,4875101,423,-1364,-495,-1485,-297,-40,375,155,-281
1,4875108,423,-1364,-495,-1485,-297,-40,375,155,-281
1,4875116,424,-1365,-489,-1474,-305,-35,384,146,-272
1,4875122,424,-1365,-489,-1474,-305,-35,384,146,-272
1,4875127,424,-1365,-489,-1474,-305,-35,384,146,-272
1,4875133,423,-1366,-486,-1486,-307,-39,384,146,-272
1,4875139,423,-1366,-486,-1486,-307,-39,384,146,-272
1,4875145,423,-1366,-486,-1486,-307,-39,384,146,-272
1,4875152,425,-1366,-491,-1487,-307,-39,384,146,-272
1,4875158,425,-1366,-491,-1487,-307,-39,384,146,-272
1,4875166,425,-1366,-491,-1487,-307,-39,384,146,-272
1,4875172,423,-1366,-494,-1491,-299,-40,384,146,-272
1,4875180,423,-1366,-494,-1491,-299,-40,384,146,-272
1,4875188,423,-1366,-494,-1491,-299,-40,384,146,-272
1,4875195,425,-1365,-491,-1482,-301,-34,384,146,-272
1,4875202,425,-1365,-491,-1482,-301,-34,384,146,-272
1,4875209,424,-1366,-494,-1476,-301,-42,384,146,-272
1,4875217,424,-1366,-494,-1476,-301,-42,384,146,-272
1,4875224,424,-1366,-494,-1476,-301,-42,384,146,-272
1,4875231,423,-1366,-491,-1475,-304,-38,378,158,-274
1,4875239,423,-1366,-491,-1475,-304,-38,378,158,-274
1,4875244,423,-1366,-491,-1475,-304,-38,378,158,-274
1,4875250,423,-1367,-492,-1479,-308,-38,378,158,-274
1,4875258,423,-1367,-492,-1479,-308,-38,378,158,-274
1,4875266,423,-1367,-492,-1479,-308,-38,378,158,-274
1,4875274,425,-1364,-486,-1482,-303,-44,378,158,-274
1,4875281,425,-1364,-486,-1482,-303,-44,378,158,-274
1,4875288,425,-1364,-486,-1482,-303,-44,378,158,-274
1,4875294,422,-1364,-492,-1481,-299,-46,378,158,-274
1,4875301,422,-1364,-492,-1481,-299,-46,378,158,-274
1,4875309,422,-1364,-492,-1481,-299,-46,378,158,-274
1,4875315,420,-1365,-495,-1472,-301,-40,378,158,-274
1,4875323,420,-1365,-495,-1472,-301,-40,378,158,-274
1,4875332,423,-1362,-490,-1481,-304,-40,378,158,-274
1,4875339,423,-1362,-490,-1481,-304,-40,378,158,-274
1,4875345,423,-1362,-490,-1481,-304,-40,378,158,-274
1,4875352,425,-1366,-490,-1476,-309,-41,378,158,-274
1,4875359,425,-1366,-490,-1476,-309,-41,378,158,-274
1,4875366,425,-1366,-490,-1476,-309,-41,378,158,-274
1,4875373,425,-1366,-484,-1474,-305,-38,381,153,-277
1,4875381,425,-1366,-484,-1474,-305,-38,381,153,-277
1,4875388,425,-1366,-484,-1474,-305,-38,381,153,-277
1,4875395,423,-1365,-487,-1480,-306,-38,381,153,-277
1,4875402,423,-1365,-487,-1480,-306,-38,381,153,-277
1,4875410,424,-1363,-494,-1477,-302,-46,381,153,-277
1,4875416,424,-1363,-494,-1477,-302,-46,381,153,-277
1,4875423,424,-1363,-494,-1477,-302,-46,381,153,-277
1,4875431,425,-1364,-495,-1486,-298,-40,381,153,-277
1,4875439,425,-1364,-495,-1486,-298,-40,381,153,-277
1,4875446,425,-1364,-495,-1486,-298,-40,381,153,-277
1,4875453,421,-1363,-494,-1486,-306,-38,381,153,-277
1,4875461,421,-1363,-494,-1486,-306,-38,381,153,-277
1,4875466,421,-1363,-494,-1486,-306,-38,381,153,-277
1,4875473,424,-1364,-493,-1485,-305,-36,381,153,-277
1,4875479,424,-1364,-493,-1485,-305,-36,381,153,-277
1,4875484,424,-1364,-493,-1485,-305,-36,381,153,-277
1,4875489,424,-1364,-493,-1485,-305,-36,381,153,-277
1,4875494,421,-1367,-488,-1482,-305,-40,378,158,-272
1,4875499,421,-1367,-488,-1482,-305,-40,378,158,-272
1,4875504,421,-1367,-488,-1482,-305,-40,378,158,-272
1,4875509,425,-1366,-495,-1479,-303,-43,378,158,-272
1,4875516,425,-1366,-495,-1479,-303,-43,378,158,-272
1,4875523,425,-1366,-495,-1479,-303,-43,378,158,-272
1,4875529,425,-1366,-495,-1479,-303,-43,378,158,-272
1,4875534,424,-1366,-493,-1475,-312,-44,378,158,-272
1,4875542,424,-1366,-493,-1475,-312,-44,378,158,-272
1,4875547,424,-1366,-493,-1475,-312,-44,378,158,-272
1,4875552,421,-1364,-495,-1482,-308,-38,378,158,-272
1,4875558,421,-1364,-495,-1482,-308,-38,378,158,-272
1,4875566,421,-1364,-495,-1482,-308,-38,378,158,-272
1,4875573,423,-1365,-491,-1486,-304,-43,378,158,-272
1,4875579,423,-1365,-491,-1486,-304,-43,378,158,-272
1,4875584,423,-1365,-491,-1486,-304,-43,378,158,-272
1,4875592,425,-1366,-494,-1480,-302,-41,378,158,-272
1,4875600,425,-1366,-494,-1480,-302,-41,378,158,-272
1,4875608,425,-1366,-494,-1480,-302,-41,378,158,-272
1,4875615,423,-1365,-492,-1482,-299,-39,384,150,-276
1,4875620,423,-1365,-492,-1482,-299,-39,384,150,-276
1,4875626,423,-1365,-492,-1482,-299,-39,384,150,-276
1,4875632,424,-1366,-492,-1492,-305,-37,384,150,-276
1,4875640,424,-1366,-492,-1492,-305,-37,384,150,-276
1,4875649,424,-1366,-492,-1492,-305,-37,384,150,-276
1,4875656,421,-1367,-488,-1490,-307,-30,384,150,-276
1,4875664,421,-1367,-488,-1490,-307,-30,384,150,-276
1,4875671,423,-1366,-492,-1486,-298,-40,384,150,-276
1,4875677,423,-1366,-492,-1486,-298,-40,384,150,-276
1,4875682,423,-1366,-492,-1486,-298,-40,384,150,-276
1,4875688,423,-1366,-492,-1486,-298,-40,384,150,-276
1,4875694,421,-1364,-486,-1481,-307,-43,384,150,-276
1,4875699,421,-1364,-486,-1481,-307,-43,384,150,-276
1,4875704,421,-1364,-486,-1481,-307,-43,384,150,-276
1,4875709,421,-1364,-486,-1481,-307,-43,384,150,-276
1,4875714,424,-1364,-492,-1485,-305,-38,384,150,-276
1,4875719,424,-1364,-492,-1485,-305,-38,384,150,-276
1,4875724,424,-1364,-492,-1485,-305,-38,384,150,-276
1,4875730,424,-1367,-496,-1484,-305,-33,378,148,-282
1,4875738,424,-1367,-496,-1484,-305,-33,378,148,-282
1,4875745,424,-1367,-496,-1484,-305,-33,378,148,-282
1,4875751,425,-1365,-491,-1477,-298,-35,378,148,-282
1,4875758,425,-1365,-491,-1477,-298,-35,378,148,-282
1,4875765,425,-1365,-491,-1477,-298,-35,378,148,-282
1,4875771,424,-1364,-489,-1481,-297,-36,378,148,-282
1,4875779,424,-1364,-489,-1481,-297,-36,378,148,-282
1,4875787,424,-1364,-489,-1481,-297,-36,378,148,-282
1,4875793,422,-1367,-488,-1480,-303,-34,378,148,-282
1,4875800,422,-1367,-488,-1480,-303,-34,378,148,-282
1,4875808,422,-1367,-488,-1480,-303,-34,378,148,-282
1,4875814,424,-1364,-490,-1475,-303,-42,378,148,-282
1,4875822,424,-1364,-490,-1475,-303,-42,378,148,-282
1,4875829,423,-1366,-491,-1482,-309,-37,378,148,-282
1,4875837,423,-1366,-491,-1482,-309,-37,378,148,-282
1,4875843,423,-1366,-491,-1482,-309,-37,378,148,-282
1,4875850,424,-1365,-486,-1474,-313,-39,378,148,-282
1,4875858,424,-1365,-486,-1474,-313,-39,378,148,-282
1,4875865,424,-1365,-486,-1474,-313,-39,378,148,-282
1,4875872,423,-1367,-486,-1483,-303,-33,379,155,-275
1,4875879,423,-1367,-486,-1483,-303,-33,379,155,-275
1,4875885,423,-1367,-486,-1483,-303,-33,379,155,-275
1,4875893,425,-1367,-491,-1484,-295,-42,379,155,-275
1,4875901,425,-1367,-491,-1484,-295,-42,379,155,-275
1,4875909,424,-1364,-488,-1478,-297,-39,379,155,-275
1,4875917,424,-1364,-488,-1478,-297,-39,379,155,-275
1,4875924,424,-1364,-488,-1478,-297,-39,379,155,-275
1,4875931,425,-1364,-492,-1483,-304,-46,379,155,-275
1,4875938,425,-1364,-492,-1483,-304,-46,379,155,-275
1,4875945,425,-1364,-492,-1483,-304,-46,379,155,-275
1,4875953,427,-1364,-492,-1488,-310,-43,379,155,-275
1,4875960,427,-1364,-492,-1488,-310,-43,379,155,-275
1,4875967,427,-1364,-492,-1488,-310,-43,379,155,-275
1,4875972,424,-1367,-491,-1485,-301,-44,379,155,-275
1,4875981,424,-1367,-491,-1485,-301,-44,379,155,-275
1,4875988,424,-1367,-491,-1485,-301,-44,379,155,-275
1,4875995,423,-1368,-487,-1480,-303,-40,373,157,-279
1,4876000,423,-1368,-487,-1480,-303,-40,373,157,-279
1,4876005,423,-1368,-487,-1480,-303,-40,373,157,-279
1,4876012,424,-1365,-489,-1481,-301,-36,373,157,-279
1,4876019,424,-1365,-489,-1481,-301,-36,373,157,-279
1,4876027,424,-1365,-489,-1481,-301,-36,373,157,-279
1,4876034,425,-1365,-488,-1487,-307,-46,373,157,-279
1,4876040,425,-1365,-488,-1487,-307,-46,373,157,-279
1,4876047,425,-1365,-488,-1487,-307,-46,373,157,-279
1,4876054,424,-1363,-494,-1486,-298,-42,373,157,-279
1,4876062,424,-1363,-494,-1486,-298,-42,373,157,-279
1,4876068,424,-1363,-494,-1486,-298,-42,373,157,-279
1,4876075,425,-1365,-490,-1484,-302,-45,373,157,-279
1,4876082,425,-1365,-490,-1484,-302,-45,373,157,-279
1,4876090,426,-1363,-492,-1487,-305,-38,373,157,-279
1,4876096,426,-1363,-492,-1487,-305,-38,373,157,-279
1,4876103,426,-1363,-492,-1487,-305,-38,373,157,-279
1,4876110,423,-1366,-484,-1479,-302,-42,376,150,-272
1,4876118,423,-1366,-484,-1479,-302,-42,376,150,-272
1,4876124,423,-1366,-484,-1479,-302,-42,376,150,-272
1,4876130,423,-1365,-488,-1479,-298,-37,376,150,-272
1,4876138,423,-1365,-488,-1479,-298,-37,376,150,-272
1,4876145,423,-1365,-488,-1479,-298,-37,376,150,-272
1,4876152,424,-1364,-492,-1479,-300,-43,376,150,-272
1,4876162,424,-1364,-492,-1479,-300,-43,376,150,-272
1,4876169,424,-1364,-492,-1479,-300,-43,376,150,-272
1,4876178,424,-1365,-491,-1483,-303,-36,376,150,-272
1,4876184,424,-1365,-491,-1483,-303,-36,376,150,-272
1,4876190,425,-1366,-488,-1479,-305,-34,376,150,-272
1,4876198,425,-1366,-488,-1479,-305,-34,376,150,-272
1,4876206,425,-1366,-488,-1479,-305,-34,376,150,-272
1,4876212,423,-1363,-490,-1481,-307,-35,376,150,-272
1,4876220,423,-1363,-490,-1481,-307,-35,376,150,-272
1,4876227,423,-1363,-490,-1481,-307,-35,376,150,-272
1,4876234,424,-1365,-489,-1486,-300,-40,384,158,-278
1,4876240,424,-1365,-489,-1486,-300,-40,384,158,-278
1,4876248,424,-1365,-489,-1486,-300,-40,384,158,-278
1,4876256,425,-1365,-488,-1486,-303,-40,384,158,-278
1,4876262,425,-1365,-488,-1486,-303,-40,384,158,-278
1,4876269,424,-1366,-491,-1483,-299,-43,384,158,-278
1,4876276,424,-1366,-491,-1483,-299,-43,384,158,-278
1,4876283,424,-1366,-491,-1483,-299,-43,384,158,-278
1,4876290,423,-1365,-497,-1479,-308,-38,384,158,-278
1,4876298,423,-1365,-497,-1479,-308,-38,384,158,-278
1,4876305,423,-1365,-497,-1479,-308,-38,384,158,-278
1,4876313,423,-1361,-495,-1475,-304,-38,384,158,-278
1,4876319,423,-1361,-495,-1475,-304,-38,384,158,-278
1,4876326,423,-1361,-495,-1475,-304,-38,384,158,-278
1,4876333,423,-1364,-494,-1490,-301,-40,384,158,-278
1,4876339,423,-1364,-494,-1490,-301,-40,384,158,-278
1,4876346,423,-1364,-494,-1490,-301,-40,384,158,-278
1,4876352,425,-1363,-488,-1475,-308,-38,384,158,-278
1,4876359,425,-1363,-488,-1475,-308,-38,384,158,-278
1,4876365,425,-1363,-488,-1475,-308,-38,384,158,-278
1,4876371,426,-1364,-488,-1484,-308,-32,379,159,-271
1,4876379,426,-1364,-488,-1484,-308,-32,379,159,-271
1,4876386,426,-1364,-488,-1484,-308,-32,379,159,-271
1,4876393,424,-1365,-488,-1490,-301,-32,379,159,-271
1,4876399,424,-1365,-488,-1490,-301,-32,379,159,-271
1,4876407,424,-1365,-488,-1490,-301,-32,379,159,-271
1,4876413,424,-1365,-492,-1478,-308,-34,379,159,-271
1,4876421,424,-1365,-492,-1478,-308,-34,379,159,-271
1,4876428,424,-1365,-492,-1478,-308,-34,379,159,-271
1,4876434,423,-1363,-486,-1484,-307,-33,379,159,-271
1,4876439,423,-1363,-486,-1484,-307,-33,379,159,-271
1,4876448,423,-1363,-486,-1484,-307,-33,379,159,-271
1,4876454,425,-1366,-488,-1485,-303,-43,379,159,-271
1,4876463,425,-1366,-488,-1485,-303,-43,379,159,-271
1,4876470,425,-1365,-491,-1485,-304,-36,379,159,-271
1,4876475,425,-1365,-491,-1485,-304,-36,379,159,-271
1,4876482,425,-1365,-491,-1485,-304,-36,379,159,-271
1,4876487,425,-1365,-491,-1485,-304,-36,379,159,-271
1,4876492,423,-1365,-486,-1487,-304,-39,388,154,-276
1,4876497,423,-1365,-486,-1487,-304,-39,388,154,-276
1,4876503,423,-1365,-486,-1487,-304,-39,388,154,-276
1,4876510,420,-1364,-490,-1479,-306,-34,388,154,-276
1,4876517,420,-1364,-490,-1479,-306,-34,388,154,-276
1,4876524,420,-1364,-490,-1479,-306,-34,388,154,-276
1,4876530,422,-1363,-492,-1483,-306,-37,388,154,-276
1,4876537,422,-1363,-492,-1483,-306,-37,388,154,-276
1,4876545,422,-1363,-492,-1483,-306,-37,388,154,-276
1,4876551,425,-1364,-493,-1487,-302,-36,388,154,-276
1,4876556,425,-1364,-493,-1487,-302,-36,388,154,-276
1,4876563,425,-1364,-493,-1487,-302,-36,388,154,-276
1,4876571,425,-1360,-491,-1478,-305,-38,388,154,-276
1,4876578,425,-1360,-491,-1478,-305,-38,388,154,-276
1,4876585,425,-1360,-491,-1478,-305,-38,388,154,-276
1,4876593,424,-1365,-493,-1477,-302,-45,388,154,-276
1,4876600,424,-1365,-493,-1477,-302,-45,388,154,-276
1,4876606,424,-1365,-493,-1477,-302,-45,388,154,-276
1,4876614,425,-1367,-486,-1486,-296,-40,373,161,-273
1,4876621,425,-1367,-486,-1486,-296,-40,373,161,-273
1,4876628,425,-1367,-486,-1486,-296,-40,373,161,-273
1,4876636,427,-1364,-491,-1483,-305,-38,373,161,-273
1,4876642,427,-1364,-491,-1483,-305,-38,373,161,-273
1,4876649,427,-1364,-491,-1483,-305,-38,373,161,-273
1,4876656,425,-1363,-493,-1488,-305,-45,373,161,-273
1,4876663,425,-1363,-493,-1488,-305,-45,373,161,-273
1,4876670,426,-1365,-488,-1485,-302,-38,373,161,-273
1,4876678,426,-1365,-488,-1485,-302,-38,373,161,-273
1,4876683,426,-1365,-488,-1485,-302,-38,373,161,-273
1,4876688,426,-1365,-488,-1485,-302,-38,373,161,-273
1,4876693,425,-1362,-491,-1485,-300,-37,373,161,-273
1,4876698,425,-1362,-491,-1485,-300,-37,373,161,-273
1,4876703,425,-1362,-491,-1485,-300,-37,373,161,-273
1,4876708,425,-1362,-491,-1485,-300,-37,373,161,-273
1,4876713,424,-1362,-494,-1487,-301,-36,373,161,-273
1,4876719,424,-1362,-494,-1487,-301,-36,373,161,-273
1,4876724,424,-1362,-494,-1487,-301,-36,373,161,-273
1,4876732,423,-1365,-487,-1482,-302,-35,382,156,-268
1,4876740,423,-1365,-487,-1482,-302,-35,382,156,-268
1,4876746,423,-1365,-487,-1482,-302,-35,382,156,-268
1,4876753,424,-1365,-488,-1480,-302,-42,382,156,-268
1,4876761,424,-1365,-488,-1480,-302,-42,382,156,-268
1,4876769,424,-1365,-488,-1480,-302,-42,382,156,-268
1,4876774,423,-1366,-488,-1487,-302,-46,382,156,-268
1,4876781,423,-1366,-488,-1487,-302,-46,382,156,-268
1,4876789,423,-1366,-488,-1487,-302,-46,382,156,-268
1,4876796,421,-1363,-491,-1489,-305,-37,382,156,-268
1,4876803,421,-1363,-491,-1489,-305,-37,382,156,-268
1,4876810,426,-1363,-488,-1485,-306,-38,382,156,-268
1,4876817,426,-1363,-488,-1485,-306,-38,382,156,-268
1,4876823,426,-1363,-488,-1485,-306,-38,382,156,-268
1,4876831,423,-1366,-493,-1484,-305,-36,382,156,-268
1,4876837,423,-1366,-493,-1484,-305,-36,382,156,-268
1,4876844,423,-1366,-493,-1484,-305,-36,382,156,-268
1,4876851,420,-1364,-489,-1477,-299,-38,382,156,-268
1,4876857,420,-1364,-489,-1477,-299,-38,382,156,-268
1,4876864,420,-1364,-489,-1477,-299,-38,382,156,-268
1,4876870,421,-1366,-490,-1482,-310,-40,382,156,-268
1,4876877,421,-1366,-490,-1482,-310,-40,382,156,-268
1,4876884,421,-1366,-490,-1482,-310,-40,382,156,-268
1,4876893,425,-1364,-491,-1478,-307,-37,382,156,-268
1,4876899,425,-1364,-491,-1478,-307,-37,382,156,-268
1,4876906,425,-1364,-491,-1478,-307,-37,382,156,-268
1,4876913,420,-1365,-489,-1479,-308,-37,382,156,-268
1,4876918,420,-1365,-489,-1479,-308,-37,382,156,-268
1,4876924,420,-1365,-489,-1479,-308,-37,382,156,-268
1,4876932,423,-1366,-498,-1486,-304,-42,382,156,-268
1,4876939,423,-1366,-498,-1486,-304,-42,382,156,-268
1,4876946,423,-1366,-498,-1486,-304,-42,382,156,-268
1,4876953,422,-1365,-490,-1476,-301,-37,382,156,-268
1,4876960,422,-1365,-490,-1476,-301,-37,382,156,-268
1,4876967,422,-1365,-490,-1476,-301,-37,382,156,-268
1,4876976,423,-1363,-491,-1470,-302,-41,382,156,-268
1,4876982,423,-1363,-491,-1470,-302,-41,382,156,-268
1,4876989,423,-1363,-491,-1470,-302,-41,382,156,-268
1,4876996,422,-1364,-486,-1482,-303,-39,386,150,-272
1,4877002,422,-1364,-486,-1482,-303,-39,386,150,-272
1,4877007,422,-1364,-486,-1482,-303,-39,386,150,-272
1,4877015,423,-1364,-493,-1480,-309,-48,386,150,-272
1,4877022,423,-1364,-493,-1480,-309,-48,386,150,-272
1,4877028,423,-1364,-493,-1480,-309,-48,386,150,-272
1,4877033,423,-1367,-496,-1488,-303,-47,386,150,-272
1,4877038,423,-1367,-496,-1488,-303,-47,386,150,-272
1,4877044,423,-1367,-496,-1488,-303,-47,386,150,-272
1,4877052,424,-1365,-489,-1487,-300,-40,386,150,-272
1,4877061,424,-1365,-489,-1487,-300,-40,386,150,-272
1,4877067,424,-1365,-489,-1487,-300,-40,386,150,-272
1,4877074,422,-1362,-491,-1481,-301,-42,386,150,-272
1,4877081,422,-1362,-491,-1481,-301,-42,386,150,-272
1,4877088,422,-1362,-491,-1481,-301,-42,386,150,-272
1,4877095,423,-1364,-488,-1482,-305,-35,386,150,-272
1,4877103,423,-1364,-488,-1482,-305,-35,386,150,-272
1,4877111,423,-1363,-485,-1487,-311,-42,386,156,-268
1,4877117,423,-1363,-485,-1487,-311,-42,386,156,-268
1,4877124,423,-1363,-485,-1487,-311,-42,386,156,-268
1,4877131,424,-1365,-491,-1480,-302,-40,386,156,-268
1,4877138,424,-1365,-491,-1480,-302,-40,386,156,-268
1,4877145,424,-1365,-491,-1480,-302,-40,386,156,-268
1,4877153,423,-1365,-493,-1487,-306,-44,386,156,-268
1,4877159,423,-1365,-493,-1487,-306,-44,386,156,-268
1,4877167,423,-1365,-493,-1487,-306,-44,386,156,-268
1,4877174,425,-1365,-495,-1487,-297,-37,386,156,-268
1,4877184,425,-1365,-495,-1487,-297,-37,386,156,-268
1,4877190,422,-1365,-488,-1485,-303,-30,386,156,-268
1,4877196,422,-1365,-488,-1485,-303,-30,386,156,-268
1,4877204,422,-1365,-488,-1485,-303,-30,386,156,-268
1,4877209,422,-1365,-488,-1485,-303,-30,386,156,-268
1,4877217,423,-1362,-488,-1483,-298,-32,386,156,-268
1,4877225,423,-1362,-488,-1483,-298,-32,386,156,-268
1,4877233,423,-1364,-493,-1487,-303,-37,381,155,-279
1,4877239,423,-1364,-493,-1487,-303,-37,381,155,-279
1,4877245,423,-1364,-493,-1487,-303,-37,381,155,-279
1,4877252,424,-1364,-490,-1489,-306,-39,381,155,-279
1,4877259,424,-1364,-490,-1489,-306,-39,381,155,-279
1,4877265,424,-1364,-490,-1489,-306,-39,381,155,-279
1,4877273,425,-1365,-491,-1485,-312,-43,381,155,-279
1,4877279,425,-1365,-491,-1485,-312,-43,381,155,-279
1,4877284,425,-1365,-491,-1485,-312,-43,381,155,-279
1,4877291,424,-1365,-486,-1485,-303,-39,381,155,-279
1,4877299,424,-1365,-486,-1485,-303,-39,381,155,-279
1,4877305,424,-1365,-486,-1485,-303,-39,381,155,-279
1,4877313,427,-1363,-493,-1482,-309,-43,381,155,-279
1,4877321,427,-1363,-493,-1482,-309,-43,381,155,-279
1,4877328,427,-1363,-493,-1482,-309,-43,381,155,-279
1,4877334,422,-1364,-491,-1486,-310,-47,381,155,-279
1,4877341,422,-1364,-491,-1486,-310,-47,381,155,-279
1,4877348,422,-1364,-491,-1486,-310,-47,381,155,-279
1,4877353,423,-1363,-488,-1486,-306,-42,379,149,-269
1,4877360,423,-1363,-488,-1486,-306,-42,379,149,-269
1,4877368,423,-1363,-488,-1486,-306,-42,379,149,-269
1,4877375,427,-1365,-491,-1483,-307,-39,379,149,-269
1,4877382,427,-1365,-491,-1483,-307,-39,379,149,-269
1,4877389,427,-1365,-491,-1483,-307,-39,379,149,-269
1,4877396,427,-1365,-491,-1483,-307,-39,379,149,-269
1,4877404,427,-1365,-491,-1483,-307,-39,379,149,-269
1,4877411,421,-1365,-490,-1478,-303,-40,379,149,-269
1,4877418,421,-1365,-490,-1478,-303,-40,379,149,-269
1,4877424,421,-1365,-490,-1478,-303,-40,379,149,-269
1,4877430,423,-1364,-491,-1480,-306,-43,379,149,-269
1,4877437,423,-1364,-491,-1480,-306,-43,379,149,-269
1,4877446,423,-1364,-491,-1480,-306,-43,379,149,-269
1,4877453,423,-1362,-493,-1486,-301,-43,379,149,-269
1,4877461,423,-1362,-493,-1486,-301,-43,379,149,-269
1,4877469,423,-1362,-493,-1486,-301,-43,379,149,-269
1,4877476,425,-1363,-491,-1489,-304,-41,379,149,-269
1,4877483,425,-1363,-491,-1489,-304,-41,379,149,-269
1,4877488,425,-1363,-491,-1489,-304,-41,379,149,-269
1,4877493,423,-1364,-490,-1485,-299,-36,383,155,-273
1,4877498,423,-1364,-490,-1485,-299,-36,383,155,-273
1,4877503,423,-1364,-490,-1485,-299,-36,383,155,-273
1,4877508,423,-1364,-490,-1485,-299,-36,383,155,-273
1,4877515,425,-1366,-489,-1476,-297,-41,383,155,-273
1,4877521,425,-1366,-489,-1476,-297,-41,383,155,-273
1,4877528,425,-1366,-489,-1476,-297,-41,383,155,-273
1,4877535,425,-1362,-490,-1485,-304,-40,383,155,-273
1,4877542,425,-1362,-490,-1485,-304,-40,383,155,-273
1,4877550,425,-1362,-494,-1485,-303,-37,383,155,-273
1,4877557,425,-1362,-494,-1485,-303,-37,383,155,-273
1,4877564,425,-1362,-494,-1485,-303,-37,383,155,-273
1,4877571,424,-1365,-495,-1485,-306,-32,383,155,-273
1,4877578,424,-1365,-495,-1485,-306,-32,383,155,-273
1,4877585,424,-1365,-495,-1485,-306,-32,383,155,-273
1,4877592,428,-1364,-491,-1485,-306,-37,383,155,-273
1,4877599,428,-1364,-491,-1485,-306,-37,383,155,-273
1,4877605,428,-1364,-491,-1485,-306,-37,383,155,-273
1,4877613,425,-1362,-487,-1486,-303,-39,380,156,-268
1,4877621,425,-1362,-487,-1486,-303,-39,380,156,-268
1,4877628,425,-1362,-487,-1486,-303,-39,380,156,-268
1,4877634,420,-1365,-492,-1486,-302,-42,380,156,-268
1,4877640,420,-1365,-492,-1486,-302,-42,380,156,-268
1,4877647,420,-1365,-492,-1486,-302,-42,380,156,-268
1,4877655,425,-1363,-493,-1493,-306,-44,380,156,-268
1,4877661,425,-1363,-493,-1493,-306,-44,380,156,-268
1,4877669,425,-1363,-493,-1493,-306,-44,380,156,-268
1,4877676,424,-1365,-494,-1486,-305,-45,380,156,-268
1,4877681,424,-1365,-494,-1486,-305,-45,380,156,-268
1,4877687,424,-1365,-494,-1486,-305,-45,380,156,-268
1,4877691,423,-1362,-488,-1480,-300,-36,380,156,-268
1,4877697,423,-1362,-488,-1480,-300,-36,380,156,-268
1,4877702,423,-1362,-488,-1480,-300,-36,380,156,-268
1,4877707,423,-1362,-488,-1480,-300,-36,380,156,-268
1,4877712,423,-1365,-491,-1475,-306,-46,380,156,-268
1,4877718,423,-1365,-491,-1475,-306,-46,380,156,-268
1,4877723,423,-1365,-491,-1475,-306,-46,380,156,-268
1,4877731,422,-1367,-480,-1481,-301,-40,372,150,-272
1,4877737,422,-1367,-480,-1481,-301,-40,372,150,-272
1,4877745,422,-1367,-480,-1481,-301,-40,372,150,-272
1,4877750,423,-1364,-486,-1484,-302,-43,372,150,-272
1,4877757,423,-1364,-486,-1484,-302,-43,372,150,-272
1,4877762,423,-1364,-486,-1484,-302,-43,372,150,-272
1,4877770,425,-1363,-491,-1485,-303,-39,372,150,-272
1,4877777,425,-1363,-491,-1485,-303,-39,372,150,-272
1,4877785,425,-1363,-491,-1485,-303,-39,372,150,-272
1,4877792,423,-1366,-496,-1487,-305,-43,372,150,-272
1,4877799,423,-1366,-496,-1487,-305,-43,372,150,-272
1,4877804,423,-1366,-496,-1487,-305,-43,372,150,-272
1,4877809,423,-1366,-496,-1487,-305,-43,372,150,-272
1,4877816,422,-1366,-493,-1484,-301,-39,372,150,-272
1,4877824,422,-1366,-493,-1484,-301,-39,372,150,-272
1,4877831,422,-1364,-491,-1477,-302,-35,372,150,-272
1,4877838,422,-1364,-491,-1477,-302,-35,372,150,-272
1,4877845,422,-1364,-491,-1477,-302,-35,372,150,-272
1,4877852,421,-1366,-493,-1480,-302,-38,378,156,-270
1,4877859,421,-1366,-493,-1480,-302,-38,378,156,-270
1,4877867,421,-1366,-493,-1480,-302,-38,378,156,-270
1,4877874,422,-1363,-488,-1486,-299,-36,378,156,-270
1,4877879,422,-1363,-488,-1486,-299,-36,378,156,-270
1,4877886,422,-1363,-488,-1486,-299,-36,378,156,-270
1,4877893,422,-1364,-488,-1482,-303,-46,378,156,-270
1,4877900,422,-1364,-488,-1482,-303,-46,378,156,-270
1,4877906,422,-1364,-488,-1482,-303,-46,378,156,-270
1,4877915,427,-1363,-491,-1480,-301,-41,378,156,-270
1,4877921,427,-1363,-491,-1480,-301,-41,378,156,-270
1,4877927,427,-1363,-491,-1480,-301,-41,378,156,-270
1,4877933,424,-1362,-487,-1485,-295,-41,378,156,-270
1,4877939,424,-1362,-487,-1485,-295,-41,378,156,-270
1,4877946,424,-1362,-487,-1485,-295,-41,378,156,-270
1,4877953,424,-1363,-493,-1479,-297,-44,378,156,-270
1,4877959,424,-1363,-493,-1479,-297,-44,378,156,-270
1,4877966,424,-1363,-493,-1479,-297,-44,378,156,-270
1,4877973,424,-1363,-493,-1479,-297,-44,378,156,-270
1,4877979,424,-1363,-493,-1479,-297,-44,378,156,-270
1,4877987,424,-1363,-493,-1479,-297,-44,378,156,-270
1,4877996,426,-1366,-489,-1484,-300,-43,389,151,-269
1,4878002,426,-1366,-489,-1484,-300,-43,389,151,-269
1,4878010,423,-1364,-495,-1487,-309,-40,389,151,-269
1,4878015,423,-1364,-495,-1487,-309,-40,389,151,-269
1,4878023,423,-1364,-495,-1487,-309,-40,389,151,-269
1,4878029,426,-1364,-491,-1485,-310,-37,389,151,-269
1,4878038,426,-1364,-491,-1485,-310,-37,389,151,-269
1,4878045,426,-1364,-491,-1485,-310,-37,389,151,-269
1,4878053,426,-1364,-491,-1485,-310,-37,389,151,-269
1,4878059,426,-1364,-491,-1485,-310,-37,389,151,-269
1,4878066,426,-1364,-491,-1485,-310,-37,389,151,-269
1,4878073,422,-1360,-493,-1479,-304,-37,389,151,-269
1,4878080,422,-1360,-493,-1479,-304,-37,389,151,-269
1,4878089,422,-1360,-493,-1479,-304,-37,389,151,-269
1,4878096,424,-1366,-494,-1484,-302,-40,389,151,-269
1,4878104,424,-1366,-494,-1484,-302,-40,389,151,-269
1,4878111,425,-1364,-484,-1489,-303,-41,377,149,-275
1,4878116,425,-1364,-484,-1489,-303,-41,377,149,-275
1,4878123,425,-1364,-484,-1489,-303,-41,377,149,-275
1,4878131,422,-1364,-494,-1493,-308,-45,377,149,-275
1,4878137,422,-1364,-494,-1493,-308,-45,377,149,-275
1,4878144,422,-1364,-494,-1493,-308,-45,377,149,-275
1,4878150,422,-1366,-490,-1493,-304,-36,377,149,-275
1,4878158,422,-1366,-490,-1493,-304,-36,377,149,-275
1,4878166,422,-1366,-490,-1493,-304,-36,377,149,-275
1,4878173,426,-1365,-487,-1486,-302,-39,377,149,-275
1,4878180,426,-1365,-487,-1486,-302,-39,377,149,-275
1,4878187,426,-1365,-487,-1486,-302,-39,377,149,-275
1,4878194,422,-1366,-491,-1477,-301,-37,377,149,-275
1,4878201,422,-1366,-491,-1477,-301,-37,377,149,-275
1,4878209,422,-1366,-491,-1477,-301,-37,377,149,-275
1,4878217,421,-1362,-490,-1483,-307,-44,377,149,-275
1,4878223,421,-1362,-490,-1483,-307,-44,377,149,-275
1,4878230,423,-1365,-486,-1482,-303,-47,377,149,-275
1,4878237,423,-1365,-486,-1482,-303,-47,378,160,-272
1,4878244,423,-1365,-486,-1482,-303,-47,378,160,-272
1,4878252,423,-1367,-487,-1485,-311,-41,378,160,-272
1,4878260,423,-1367,-487,-1485,-311,-41,378,160,-272
1,4878267,423,-1367,-487,-1485,-311,-41,378,160,-272
1,4878274,424,-1364,-491,-1483,-308,-41,378,160,-272
1,4878279,424,-1364,-491,-1483,-308,-41,378,160,-272
1,4878284,424,-1364,-491,-1483,-308,-41,378,160,-272
1,4878290,424,-1363,-489,-1481,-305,-44,378,160,-272
1,4878298,424,-1363,-489,-1481,-305,-44,378,160,-272
1,4878305,424,-1363,-489,-1481,-305,-44,378,160,-272
1,4878312,421,-1366,-496,-1485,-304,-42,378,160,-272
1,4878318,421,-1366,-496,-1485,-304,-42,378,160,-272
1,4878325,421,-1366,-496,-1485,-304,-42,378,160,-272
1,4878330,421,-1362,-493,-1484,-306,-41,378,160,-272
1,4878338,421,-1362,-493,-1484,-306,-41,378,160,-272
1,4878344,421,-1362,-493,-1484,-306,-41,378,160,-272
1,4878351,424,-1362,-489,-1476,-308,-39,384,154,-276
1,4878357,424,-1362,-489,-1476,-308,-39,384,154,-276
1,4878363,424,-1362,-489,-1476,-308,-39,384,154,-276
1,4878371,426,-1366,-492,-1480,-310,-37,384,154,-276
1,4878380,426,-1366,-492,-1480,-310,-37,384,154,-276
1,4878387,426,-1366,-492,-1480,-310,-37,384,154,-276
1,4878394,422,-1364,-493,-1477,-303,-40,384,154,-276
1,4878402,422,-1364,-493,-1477,-303,-40,384,154,-276
1,4878408,422,-1364,-493,-1477,-303,-40,384,154,-276
1,4878415,424,-1365,-491,-1478,-298,-38,384,154,-276
1,4878423,424,-1365,-491,-1478,-298,-38,384,154,-276
1,4878429,424,-1365,-491,-1478,-298,-38,384,154,-276
1,4878435,421,-1366,-492,-1481,-308,-42,384,154,-276
1,4878441,421,-1366,-492,-1481,-308,-42,384,154,-276
1,4878448,421,-1366,-492,-1481,-308,-42,384,154,-276
1,4878455,425,-1366,-488,-1478,-306,-39,384,154,-276
1,4878462,425,-1366,-488,-1478,-306,-39,384,154,-276
1,4878469,425,-1366,-488,-1478,-306,-39,384,154,-276
1,4878475,422,-1363,-490,-1485,-305,-41,384,154,-276
1,4878480,422,-1363,-490,-1485,-305,-41,384,154,-276
1,4878485,422,-1363,-490,-1485,-305,-41,384,154,-276
1,4878490,422,-1363,-490,-1485,-305,-41,384,154,-276
1,4878495,422,-1363,-490,-1485,-305,-41,382,152,-278
1,4878500,422,-1363,-490,-1485,-305,-41,382,152,-278
1,4878505,422,-1363,-490,-1485,-305,-41,382,152,-278
1,4878510,422,-1367,-490,-1487,-303,-37,382,152,-278
1,4878516,422,-1367,-490,-1487,-303,-37,382,152,-278
1,4878524,422,-1367,-490,-1487,-303,-37,382,152,-278
1,4878532,423,-1362,-491,-1485,-298,-40,382,152,-278
1,4878539,423,-1362,-491,-1485,-298,-40,382,152,-278
1,4878548,423,-1362,-491,-1485,-298,-40,382,152,-278
1,4878556,422,-1368,-496,-1478,-302,-29,382,152,-278
1,4878562,422,-1368,-496,-1478,-302,-29,382,152,-278
1,4878570,422,-1368,-496,-1478,-302,-29,382,152,-278
1,4878576,424,-1365,-492,-1487,-302,-41,382,152,-278
1,4878582,424,-1365,-492,-1487,-302,-41,382,152,-278
1,4878590,423,-1368,-495,-1487,-306,-38,382,152,-278
1,4878596,423,-1368,-495,-1487,-306,-38,382,152,-278
1,4878603,423,-1368,-495,-1487,-306,-38,382,152,-278
1,4878610,423,-1364,-488,-1482,-299,-39,380,158,-272
1,4878618,423,-1364,-488,-1482,-299,-39,380,158,-272
1,4878624,423,-1364,-488,-1482,-299,-39,380,158,-272
1,4878630,423,-1361,-486,-1476,-297,-42,380,158,-272
1,4878637,423,-1361,-486,-1476,-297,-42,380,158,-272
1,4878644,423,-1361,-486,-1476,-297,-42,380,158,-272
1,4878652,422,-1363,-490,-1482,-300,-40,380,158,-272
1,4878658,422,-1363,-490,-1482,-300,-40,380,158,-272
1,4878664,422,-1363,-490,-1482,-300,-40,380,158,-272
1,4878670,422,-1364,-489,-1488,-305,-43,380,158,-272
1,4878679,422,-1364,-489,-1488,-305,-43,380,158,-272
1,4878684,422,-1364,-489,-1488,-305,-43,380,158,-272
1,4878689,422,-1364,-489,-1488,-305,-43,380,158,-272
1,4878694,423,-1365,-495,-1489,-309,-43,380,158,-272
1,4878699,423,-1365,-495,-1489,-309,-43,380,158,-272
1,4878704,423,-1365,-495,-1489,-309,-43,380,158,-272
1,4878709,423,-1365,-495,-1489,-309,-43,380,158,-272
1,4878714,421,-1366,-489,-1482,-309,-40,380,158,-272
1,4878720,421,-1366,-489,-1482,-309,-40,380,158,-272
1,4878725,421,-1366,-489,-1482,-309,-40,380,158,-272
1,4878732,424,-1365,-487,-1487,-310,-38,387,147,-273
1,4878738,424,-1365,-487,-1487,-310,-38,387,147,-273
1,4878747,424,-1365,-487,-1487,-310,-38,387,147,-273
1,4878753,424,-1365,-486,-1485,-305,-43,387,147,-273
1,4878761,424,-1365,-486,-1485,-305,-43,387,147,-273
1,4878769,424,-1365,-486,-1485,-305,-43,387,147,-273
1,4878776,421,-1364,-491,-1481,-304,-35,387,147,-273
1,4878781,421,-1364,-491,-1481,-304,-35,387,147,-273
1,4878786,421,-1364,-491,-1481,-304,-35,387,147,-273
1,4878792,428,-1363,-492,-1482,-300,-38,387,147,-273
1,4878798,428,-1363,-492,-1482,-300,-38,387,147,-273
1,4878806,428,-1363,-492,-1482,-300,-38,387,147,-273
1,4878813,423,-1367,-493,-1482,-311,-33,387,147,-273
1,4878819,423,-1367,-493,-1482,-311,-33,387,147,-273
1,4878827,423,-1367,-493,-1482,-311,-33,387,147,-273
1,4878835,424,-1365,-488,-1488,-305,-37,387,147,-273
1,4878842,424,-1365,-488,-1488,-305,-37,387,147,-273
1,4878850,424,-1365,-488,-1488,-305,-37,387,147,-273
1,4878858,423,-1366,-486,-1489,-305,-37,383,157,-277
1,4878864,423,-1366,-486,-1489,-305,-37,383,157,-277
1,4878871,424,-1367,-487,-1483,-295,-40,383,157,-277
1,4878877,424,-1367,-487,-1483,-295,-40,383,157,-277
1,4878884,424,-1367,-487,-1483,-295,-40,383,157,-277
1,4878893,424,-1366,-492,-1488,-308,-41,383,157,-277
1,4878901,424,-1366,-492,-1488,-308,-41,383,157,-277
1,4878909,424,-1366,-492,-1488,-308,-41,383,157,-277
1,4878917,425,-1365,-492,-1488,-305,-41,383,157,-277
1,4878924,425,-1365,-492,-1488,-305,-41,383,157,-277
1,4878932,423,-1365,-492,-1483,-307,-46,383,157,-277
1,4878940,423,-1365,-492,-1483,-307,-46,383,157,-277
1,4878947,423,-1365,-492,-1483,-307,-46,383,157,-277
1,4878952,424,-1365,-494,-1480,-303,-39,383,157,-277
1,4878960,424,-1365,-494,-1480,-303,-39,383,157,-277
1,4878968,424,-1365,-494,-1480,-303,-39,383,157,-277
1,4878976,422,-1365,-490,-1480,-297,-35,378,152,-276
1,4878982,422,-1365,-490,-1480,-297,-35,378,152,-276
1,4878988,422,-1365,-490,-1480,-297,-35,378,152,-276
1,4878996,423,-1364,-488,-1485,-303,-41,378,152,-276
1,4879002,423,-1364,-488,-1485,-303,-41,378,152,-276
1,4879009,423,-1364,-488,-1485,-303,-41,378,152,-276
1,4879016,426,-1363,-493,-1484,-304,-40,378,152,-276
1,4879022,426,-1363,-493,-1484,-304,-40,378,152,-276
1,4879029,426,-1363,-493,-1484,-304,-40,378,152,-276
1,4879037,423,-1366,-492,-1491,-301,-41,378,152,-276
1,4879044,423,-1366,-492,-1491,-301,-41,378,152,-276
1,4879051,425,-1364,-492,-1486,-303,-39,378,152,-276
1,4879058,425,-1364,-492,-1486,-303,-39,378,152,-276
1,4879066,425,-1364,-492,-1486,-303,-39,378,152,-276
1,4879072,424,-1365,-491,-1485,-302,-37,378,152,-276
1,4879081,424,-1365,-491,-1485,-302,-37,378,152,-276
1,4879088,424,-1365,-491,-1485,-302,-37,378,152,-276
1,4879095,421,-1366,-493,-1476,-302,-35,378,152,-276
1,4879102,421,-1366,-493,-1476,-302,-35,378,152,-276
1,4879109,421,-1366,-493,-1476,-302,-35,378,152,-276
1,4879116,424,-1368,-491,-1483,-301,-41,381,147,-275
1,4879123,424,-1368,-491,-1483,-301,-41,381,147,-275
1,4879130,423,-1365,-489,-1491,-308,-47,381,147,-275
1,4879138,423,-1365,-489,-1491,-308,-47,381,147,-275
1,4879144,423,-1365,-489,-1491,-308,-47,381,147,-275
1,4879152,423,-1366,-492,-1484,-310,-43,381,147,-275
1,4879160,423,-1366,-492,-1484,-310,-43,381,147,-275
1,4879167,423,-1366,-492,-1484,-310,-43,381,147,-275
1,4879173,423,-1365,-492,-1485,-308,-34,381,147,-275
1,4879180,423,-1365,-492,-1485,-308,-34,381,147,-275
1,4879188,423,-1365,-492,-1485,-308,-34,381,147,-275
1,4879196,424,-1365,-490,-1478,-312,-40,381,147,-275
1,4879202,424,-1365,-490,-1478,-312,-40,381,147,-275
1,4879208,424,-1365,-490,-1478,-312,-40,381,147,-275
1,4879214,425,-1365,-491,-1481,-308,-33,381,147,-275
1,4879220,425,-1365,-491,-1481,-308,-33,381,147,-275
1,4879227,425,-1365,-491,-1481,-308,-33,381,147,-275
1,4879235,424,-1365,-490,-1490,-304,-42,375,157,-279
1,4879243,424,-1365,-490,-1490,-304,-42,375,157,-279
1,4879248,424,-1365,-490,-1490,-304,-42,375,157,-279
1,4879255,422,-1364,-488,-1487,-304,-44,375,157,-279
1,4879260,422,-1364,-488,-1487,-304,-44,375,157,-279
1,4879265,422,-1364,-488,-1487,-304,-44,375,157,-279
1,4879270,423,-1365,-492,-1484,-308,-42,375,157,-279
1,4879278,423,-1365,-492,-1484,-308,-42,375,157,-279
1,4879285,423,-1365,-492,-1484,-308,-42,375,157,-279
1,4879291,424,-1368,-491,-1480,-307,-36,375,157,-279
1,4879298,424,-1368,-491,-1480,-307,-36,375,157,-279
1,4879305,424,-1368,-491,-1480,-307,-36,375,157,-279
1,4879311,424,-1366,-492,-1489,-302,-39,375,157,-279
1,4879318,424,-1366,-492,-1489,-302,-39,375,157,-279
1,4879325,424,-1366,-492,-1489,-302,-39,375,157,-279
1,4879331,425,-1365,-492,-1483,-309,-38,375,157,-279
1,4879337,425,-1365,-492,-1483,-309,-38,375,157,-279
1,4879344,425,-1365,-492,-1483,-309,-38,375,157,-279
1,4879350,422,-1363,-490,-1481,-308,-48,370,148,-278
1,4879357,422,-1363,-490,-1481,-308,-48,370,148,-278
1,4879364,422,-1363,-490,-1481,-308,-48,370,148,-278
1,4879370,422,-1363,-490,-1481,-308,-48,370,148,-278
1,4879377,426,-1366,-490,-1490,-300,-41,370,148,-278
1,4879385,426,-1366,-490,-1490,-300,-41,370,148,-278
1,4879392,425,-1366,-491,-1485,-304,-51,370,148,-278
1,4879398,425,-1366,-491,-1485,-304,-51,370,148,-278
1,4879407,425,-1366,-491,-1485,-304,-51,370,148,-278
1,4879413,421,-1362,-492,-1487,-307,-44,370,148,-278
1,4879419,421,-1362,-492,-1487,-307,-44,370,148,-278
1,4879426,421,-1362,-492,-1487,-307,-44,370,148,-278
1,4879432,423,-1364,-492,-1489,-303,-46,370,148,-278
1,4879438,423,-1364,-492,-1489,-303,-46,370,148,-278
1,4879446,423,-1364,-492,-1489,-303,-46,370,148,-278
1,4879452,423,-1367,-487,-1485,-303,-40,370,148,-278
1,4879460,423,-1367,-487,-1485,-303,-40,370,148,-278
1,4879466,423,-1367,-487,-1485,-303,-40,370,148,-278
1,4879473,427,-1362,-490,-1490,-301,-45,381,149,-273
1,4879478,427,-1362,-490,-1490,-301,-45,381,149,-273
1,4879483,427,-1362,-490,-1490,-301,-45,381,149,-273
1,4879489,427,-1362,-490,-1490,-301,-45,381,149,-273
1,4879494,424,-1364,-490,-1491,-305,-44,381,149,-273
1,4879499,424,-1364,-490,-1491,-305,-44,381,149,-273
1,4879505,424,-1364,-490,-1491,-305,-44,381,149,-273
1,4879512,423,-1362,-489,-1482,-303,-36,381,149,-273
1,4879520,423,-1362,-489,-1482,-303,-36,381,149,-273
1,4879527,423,-1362,-489,-1482,-303,-36,381,149,-273
1,4879534,423,-1366,-488,-1484,-298,-37,381,149,-273
1,4879541,423,-1366,-488,-1484,-298,-37,381,149,-273
1,4879548,423,-1366,-488,-1484,-298,-37,381,149,-273
1,4879555,424,-1365,-494,-1488,-299,-49,381,149,-273
1,4879562,424,-1365,-494,-1488,-299,-49,381,149,-273
1,4879570,424,-1365,-494,-1488,-299,-49,381,149,-273
1,4879577,425,-1363,-486,-1488,-302,-50,381,149,-273
1,4879583,425,-1363,-486,-1488,-302,-50,381,149,-273
1,4879588,425,-1363,-486,-1488,-302,-50,381,149,-273
1,4879596,425,-1365,-490,-1482,-301,-44,381,149,-273
1,4879603,425,-1365,-490,-1482,-301,-44,381,149,-273
1,4879612,423,-1362,-487,-1485,-306,-35,380,150,-268
1,4879619,423,-1362,-487,-1485,-306,-35,380,150,-268
1,4879626,423,-1362,-487,-1485,-306,-35,380,150,-268
1,4879633,422,-1365,-490,-1481,-304,-37,380,150,-268
1,4879638,422,-1365,-490,-1481,-304,-37,380,150,-268
1,4879646,422,-1365,-490,-1481,-304,-37,380,150,-268
1,4879653,422,-1365,-493,-1480,-305,-39,380,150,-268
1,4879662,422,-1365,-493,-1480,-305,-39,380,150,-268
1,4879669,422,-1365,-493,-1480,-305,-39,380,150,-268
1,4879676,425,-1365,-492,-1483,-308,-42,380,150,-268
1,4879682,425,-1365,-492,-1483,-308,-42,380,150,-268
1,4879687,425,-1365,-492,-1483,-308,-42,380,150,-268
1,4879692,428,-1364,-493,-1484,-304,-44,380,150,-268
1,4879697,428,-1364,-493,-1484,-304,-44,380,150,-268
1,4879703,428,-1364,-493,-1484,-304,-44,380,150,-268
1,4879708,428,-1364,-493,-1484,-304,-44,380,150,-268
1,4879713,425,-1365,-493,-1487,-309,-43,380,150,-268
1,4879718,425,-1365,-493,-1487,-309,-43,380,150,-268
1,4879723,425,-1365,-493,-1487,-309,-43,380,150,-268
1,4879730,424,-1368,-488,-1486,-309,-43,383,157,-273
1,4879739,424,-1368,-488,-1486,-309,-43,383,157,-273
1,4879745,424,-1368,-488,-1486,-309,-43,383,157,-273
1,4879750,424,-1368,-488,-1486,-309,-43,383,157,-273
1,4879755,425,-1365,-492,-1487,-306,-44,383,157,-273
1,4879761,425,-1365,-492,-1487,-306,-44,383,157,-273
1,4879768,425,-1365,-492,-1487,-306,-44,383,157,-273
1,4879773,423,-1365,-493,-1483,-306,-43,383,157,-273
1,4879780,423,-1365,-493,-1483,-306,-43,383,157,-273
1,4879789,423,-1365,-493,-1483,-306,-43,383,157,-273
1,4879796,424,-1366,-492,-1479,-300,-37,383,157,-273
1,4879801,424,-1366,-492,-1479,-300,-37,383,157,-273
1,4879807,424,-1366,-492,-1479,-300,-37,383,157,-273
1,4879814,424,-1363,-489,-1493,-301,-41,383,157,-273
1,4879821,424,-1363,-489,-1493,-301,-41,383,157,-273
1,4879830,424,-1363,-489,-1493,-301,-41,383,157,-273
1,4879838,424,-1366,-491,-1486,-303,-49,383,157,-273
1,4879845,424,-1366,-491,-1486,-303,-49,383,157,-273
1,4879852,424,-1361,-489,-1483,-298,-45,386,154,-272
1,4879857,424,-1361,-489,-1483,-298,-45,386,154,-272
1,4879864,424,-1361,-489,-1483,-298,-45,386,154,-272
1,4879872,422,-1364,-487,-1485,-307,-47,386,154,-272
1,4879880,422,-1364,-487,-1485,-307,-47,386,154,-272
1,4879886,422,-1364,-487,-1485,-307,-47,386,154,-272
1,4879893,424,-1363,-486,-1489,-300,-44,386,154,-272
1,4879900,424,-1363,-486,-1489,-300,-44,386,154,-272
1,4879908,424,-1363,-486,-1489,-300,-44,386,154,-272
1,4879916,425,-1365,-489,-1486,-307,-40,386,154,-272
1,4879923,425,-1365,-489,-1486,-307,-40,386,154,-272
1,4879930,425,-1365,-489,-1486,-307,-40,386,154,-272
1,4879936,425,-1363,-495,-1487,-302,-44,386,154,-272
1,4879942,425,-1363,-495,-1487,-302,-44,386,154,-272
1,4879949,425,-1363,-495,-1487,-302,-44,386,154,-272
1,4879955,424,-1364,-490,-1490,-306,-50,386,154,-272
1,4879963,424,-1364,-490,-1490,-306,-50,386,154,-272
1,4879968,424,-1364,-490,-1490,-306,-50,386,154,-272
1,4879973,424,-1363,-488,-1490,-305,-51,392,156,-272
1,4879978,424,-1363,-488,-1490,-305,-51,392,156,-272
1,4879985,424,-1363,-488,-1490,-305,-51,392,156,-272
1,4879990,422,-1364,-488,-1489,-313,-39,392,156,-272
1,4879998,422,-1364,-488,-1489,-313,-39,392,156,-272
1,4880005,422,-1364,-488,-1489,-313,-39,392,156,-272
1,4880012,422,-1366,-490,-1486,-314,-40,392,156,-272
1,4880018,422,-1366,-490,-1486,-314,-40,392,156,-272
1,4880025,422,-1366,-490,-1486,-314,-40,392,156,-272
1,4880032,422,-1362,-487,-1481,-306,-43,392,156,-272
1,4880038,422,-1362,-487,-1481,-306,-43,392,156,-272
1,4880047,422,-1362,-487,-1481,-306,-43,392,156,-272
1,4880053,423,-1366,-489,-1484,-305,-43,392,156,-272
1,4880061,423,-1366,-489,-1484,-305,-43,392,156,-272
1,4880067,423,-1366,-489,-1484,-305,-43,392,156,-272
1,4880074,425,-1363,-490,-1481,-306,-40,392,156,-272
1,4880079,425,-1363,-490,-1481,-306,-40,392,156,-272
1,4880087,425,-1363,-490,-1481,-306,-40,392,156,-272
1,4880095,425,-1364,-490,-1485,-308,-41,392,156,-272
1,4880101,425,-1364,-490,-1485,-308,-41,392,156,-272
1,4880107,425,-1364,-490,-1485,-308,-41,392,156,-272
1,4880113,423,-1364,-487,-1495,-300,-36,380,160,-274
1,4880120,423,-1364,-487,-1495,-300,-36,380,160,-274
1,4880125,423,-1364,-487,-1495,-300,-36,380,160,-274
1,4880133,427,-1364,-494,-1489,-302,-36,380,160,-274
1,4880140,427,-1364,-494,-1489,-302,-36,380,160,-274
1,4880146,427,-1364,-494,-1489,-302,-36,380,160,-274
1,4880152,425,-1366,-490,-1484,-302,-37,380,160,-274
1,4880159,425,-1366,-490,-1484,-302,-37,380,160,-274
1,4880167,425,-1366,-490,-1484,-302,-37,380,160,-274
1,4880174,428,-1365,-487,-1484,-309,-42,380,160,-274
1,4880180,428,-1365,-487,-1484,-309,-42,380,160,-274
1,4880187,428,-1365,-487,-1484,-309,-42,380,160,-274
1,4880195,422,-1365,-492,-1484,-303,-40,380,160,-274
1,4880201,422,-1365,-492,-1484,-303,-40,380,160,-274
1,4880209,422,-1365,-492,-1484,-303,-40,380,160,-274
1,4880216,424,-1366,-491,-1492,-302,-40,380,160,-274
1,4880223,424,-1366,-491,-1492,-302,-40,380,160,-274
1,4880228,424,-1366,-491,-1492,-302,-40,380,160,-274
1,4880235,425,-1363,-489,-1496,-304,-37,381,155,-273
1,4880242,425,-1363,-489,-1496,-304,-37,381,155,-273
1,4880248,425,-1363,-489,-1496,-304,-37,381,155,-273
1,4880254,425,-1365,-490,-1485,-298,-33,381,155,-273
1,4880261,425,-1365,-490,-1485,-298,-33,381,155,-273
1,4880268,425,-1365,-490,-1485,-298,-33,381,155,-273
1,4880275,423,-1363,-489,-1483,-301,-40,381,155,-273
1,4880281,423,-1363,-489,-1483,-301,-40,381,155,-273
1,4880286,423,-1363,-489,-1483,-301,-40,381,155,-273
1,4880291,424,-1364,-492,-1482,-309,-38,381,155,-273
1,4880299,424,-1364,-492,-1482,-309,-38,381,155,-273
1,4880306,424,-1364,-492,-1482,-309,-38,381,155,-273
1,4880313,426,-1365,-491,-1481,-307,-38,381,155,-273
1,4880319,426,-1365,-491,-1481,-307,-38,381,155,-273
1,4880325,426,-1365,-491,-1481,-307,-38,381,155,-273
1,4880333,424,-1366,-487,-1475,-302,-42,381,155,-273
1,4880340,424,-1366,-487,-1475,-302,-42,381,155,-273
1,4880346,424,-1366,-487,-1475,-302,-42,381,155,-273
1,4880352,424,-1365,-488,-1488,-313,-42,383,153,-271
1,4880358,424,-1365,-488,-1488,-313,-42,383,153,-271
1,4880365,424,-1365,-488,-1488,-313,-42,383,153,-271
1,4880370,424,-1366,-487,-1492,-307,-40,383,153,-271
1,4880376,424,-1366,-487,-1492,-307,-40,383,153,-271
1,4880384,424,-1366,-487,-1492,-307,-40,383,153,-271
1,4880392,423,-1367,-491,-1479,-297,-45,383,153,-271
1,4880399,423,-1367,-491,-1479,-297,-45,383,153,-271
1,4880405,423,-1367,-491,-1479,-297,-45,383,153,-271
1,4880412,421,-1364,-492,-1480,-306,-35,383,153,-271
1,4880419,421,-1364,-492,-1480,-306,-35,383,153,-271
1,4880427,421,-1364,-492,-1480,-306,-35,383,153,-271
1,4880434,422,-1363,-492,-1478,-299,-40,383,153,-271
1,4880440,422,-1363,-492,-1478,-299,-40,383,153,-271
1,4880447,422,-1363,-492,-1478,-299,-40,383,153,-271
1,4880454,426,-1364,-494,-1476,-304,-45,383,153,-271
1,4880461,426,-1364,-494,-1476,-304,-45,383,153,-271
1,4880467,426,-1364,-494,-1476,-304,-45,383,153,-271
1,4880476,425,-1365,-487,-1484,-296,-41,379,153,-275
1,4880481,425,-1365,-487,-1484,-296,-41,379,153,-275
1,4880486,425,-1365,-487,-1484,-296,-41,379,153,-275
1,4880491,423,-1366,-492,-1490,-300,-46,379,153,-275
1,4880496,423,-1366,-492,-1490,-300,-46,379,153,-275
1,4880501,423,-1366,-492,-1490,-300,-46,379,153,-275
1,4880506,423,-1366,-492,-1490,-300,-46,379,153,-275
1,4880513,426,-1363,-492,-1489,-301,-39,379,153,-275
1,4880517,426,-1363,-492,-1489,-301,-39,379,153,-275
1,4880523,426,-1363,-492,-1489,-301,-39,379,153,-275
1,4880528,426,-1363,-492,-1489,-301,-39,379,153,-275
1,4880534,425,-1369,-492,-1484,-298,-41,379,153,-275
1,4880539,425,-1369,-492,-1484,-298,-41,379,153,-275
1,4880545,425,-1369,-492,-1484,-298,-41,379,153,-275
1,4880550,424,-1367,-491,-1484,-299,-42,379,153,-275
1,4880557,424,-1367,-491,-1484,-299,-42,379,153,-275
1,4880562,424,-1367,-491,-1484,-299,-42,379,153,-275
1,4880567,424,-1367,-491,-1484,-299,-42,379,153,-275
1,4880574,422,-1369,-491,-1488,-307,-45,379,153,-275
1,4880582,422,-1369,-491,-1488,-307,-45,379,153,-275
1,4880588,422,-1369,-491,-1488,-307,-45,379,153,-275
1,4880593,425,-1365,-489,-1479,-310,-43,379,153,-275
1,4880602,425,-1365,-489,-1479,-310,-43,379,153,-275
1,4880609,425,-1365,-489,-1479,-310,-43,379,153,-275
1,4880615,424,-1367,-487,-1476,-306,-34,377,145,-271
1,4880622,424,-1367,-487,-1476,-306,-34,377,145,-271
1,4880629,424,-1367,-487,-1476,-306,-34,377,145,-271
1,4880636,426,-1365,-489,-1483,-302,-38,377,145,-271
1,4880643,426,-1365,-489,-1483,-302,-38,377,145,-271
1,4880650,426,-1365,-489,-1483,-302,-38,377,145,-271
1,4880656,425,-1365,-489,-1482,-302,-39,377,145,-271
1,4880661,425,-1365,-489,-1482,-302,-39,377,145,-271
1,4880668,425,-1365,-489,-1482,-302,-39,377,145,-271
1,4880677,424,-1364,-491,-1483,-309,-39,377,145,-271
1,4880683,424,-1364,-491,-1483,-309,-39,377,145,-271
1,4880688,424,-1364,-491,-1483,-309,-39,377,145,-271
1,4880693,424,-1366,-489,-1488,-304,-46,377,145,-271
1,4880698,424,-1366,-489,-1488,-304,-46,377,145,-271
1,4880703,424,-1366,-489,-1488,-304,-46,377,145,-271
1,4880708,424,-1366,-489,-1488,-304,-46,377,145,-271
1,4880713,421,-1364,-493,-1489,-312,-43,377,145,-271
1,4880718,421,-1364,-493,-1489,-312,-43,377,145,-271
1,4880723,421,-1364,-493,-1489,-312,-43,377,145,-271
1,4880731,423,-1364,-484,-1479,-313,-38,377,145,-271
1,4880738,423,-1364,-484,-1479,-313,-38,383,147,-287
1,4880744,423,-1364,-484,-1479,-313,-38,383,147,-287
1,4880749,423,-1364,-484,-1479,-313,-38,383,147,-287
1,4880758,420,-1367,-488,-1480,-302,-41,383,147,-287
1,4880764,420,-1367,-488,-1480,-302,-41,383,147,-287
1,4880772,423,-1365,-493,-1484,-307,-44,383,147,-287
1,4880778,423,-1365,-493,-1484,-307,-44,383,147,-287
1,4880784,423,-1365,-493,-1484,-307,-44,383,147,-287
1,4880790,423,-1365,-493,-1484,-307,-44,383,147,-287
1,4880796,424,-1366,-491,-1486,-307,-38,383,147,-287
1,4880801,424,-1366,-491,-1486,-307,-38,383,147,-287
1,4880807,424,-1366,-491,-1486,-307,-38,383,147,-287
1,4880813,425,-1366,-486,-1482,-310,-45,383,147,-287
1,4880818,425,-1366,-486,-1482,-310,-45,383,147,-287
1,4880825,425,-1366,-486,-1482,-310,-45,383,147,-287
1,4880832,422,-1365,-488,-1481,-302,-36,383,147,-287
1,4880838,422,-1365,-488,-1481,-302,-36,383,147,-287
1,4880844,422,-1365,-488,-1481,-302,-36,383,147,-287
1,4880851,423,-1363,-488,-1482,-302,-29,390,148,-274
1,4880859,423,-1363,-488,-1482,-302,-29,390,148,-274
1,4880866,423,-1363,-488,-1482,-302,-29,390,148,-274
1,4880872,424,-1364,-486,-1487,-302,-39,390,148,-274
1,4880878,424,-1364,-486,-1487,-302,-39,390,148,-274
1,4880885,424,-1364,-486,-1487,-302,-39,390,148,-274
1,4880893,425,-1367,-491,-1486,-309,-34,390,148,-274
1,4880901,425,-1367,-491,-1486,-309,-34,390,148,-274
1,4880908,425,-1367,-491,-1486,-309,-34,390,148,-274
1,4880914,422,-1365,-493,-1483,-302,-41,390,148,-274
1,4880921,422,-1365,-493,-1483,-302,-41,390,148,-274
1,4880929,422,-1365,-493,-1483,-302,-41,390,148,-274
1,4880936,422,-1366,-490,-1481,-302,-41,390,148,-274
1,4880942,422,-1366,-490,-1481,-302,-41,390,148,-274
1,4880947,422,-1366,-490,-1481,-302,-41,390,148,-274
1,4880954,422,-1366,-494,-1484,-299,-43,390,148,-274
1,4880962,422,-1366,-494,-1484,-299,-43,390,148,-274
1,4880969,422,-1366,-494,-1484,-299,-43,390,148,-274
1,4880976,422,-1366,-488,-1488,-308,-42,381,149,-277
1,4880984,422,-1366,-488,-1488,-308,-42,381,149,-277
1,4880991,422,-1366,-488,-1488,-308,-42,381,149,-277
1,4880996,423,-1364,-489,-1484,-308,-44,381,149,-277
1,4881004,423,-1364,-489,-1484,-308,-44,381,149,-277
1,4881011,425,-1364,-491,-1482,-309,-41,381,149,-277
1,4881019,425,-1364,-491,-1482,-309,-41,381,149,-277
1,4881027,425,-1364,-491,-1482,-309,-41,381,149,-277
1,4881033,422,-1364,-496,-1479,-303,-46,381,149,-277
1,4881039,422,-1364,-496,-1479,-303,-46,381,149,-277
1,4881046,422,-1364,-496,-1479,-303,-46,381,149,-277
1,4881053,426,-1366,-489,-1486,-311,-45,381,149,-277
1,4881059,426,-1366,-489,-1486,-311,-45,381,149,-277
1,4881067,426,-1366,-489,-1486,-311,-45,381,149,-277
1,4881074,425,-1363,-494,-1483,-307,-53,381,149,-277
1,4881080,425,-1363,-494,-1483,-307,-53,381,149,-277
1,4881087,425,-1363,-494,-1483,-307,-53,381,149,-277
1,4881094,423,-1366,-490,-1477,-304,-38,385,155,-265
1,4881101,423,-1366,-490,-1477,-304,-38,385,155,-265
1,4881107,423,-1366,-490,-1477,-304,-38,385,155,-265
1,4881116,424,-1365,-487,-1483,-304,-38,385,155,-265
1,4881123,424,-1365,-487,-1483,-304,-38,385,155,-265
1,4881129,424,-1365,-487,-1483,-304,-38,385,155,-265
1,4881137,426,-1364,-494,-1484,-300,-44,385,155,-265
1,4881144,426,-1364,-494,-1484,-300,-44,385,155,-265
1,4881152,422,-1366,-492,-1484,-307,-42,385,155,-265
1,4881159,422,-1366,-492,-1484,-307,-42,385,155,-265
1,4881166,422,-1366,-492,-1484,-307,-42,385,155,-265
1,4881172,424,-1365,-489,-1490,-301,-40,385,155,-265
1,4881179,424,-1365,-489,-1490,-301,-40,385,155,-265
1,4881186,424,-1365,-489,-1490,-301,-40,385,155,-265
1,4881195,425,-1364,-493,-1489,-298,-41,385,155,-265
1,4881203,425,-1364,-493,-1489,-298,-41,385,155,-265
1,4881210,425,-1364,-493,-1489,-298,-41,385,155,-265
1,4881217,424,-1365,-485,-1485,-300,-36,385,155,-265
1,4881222,424,-1365,-485,-1485,-300,-36,385,155,-265
1,4881227,424,-1365,-485,-1485,-300,-36,385,155,-265
1,4881234,424,-1363,-491,-1487,-307,-37,380,162,-272
1,4881242,424,-1363,-491,-1487,-307,-37,380,162,-272
1,4881249,424,-1363,-491,-1487,-307,-37,380,162,-272
1,4881256,423,-1366,-490,-1487,-308,-40,380,162,-272
1,4881262,423,-1366,-490,-1487,-308,-40,380,162,-272
1,4881269,423,-1366,-490,-1487,-308,-40,380,162,-272
1,4881275,425,-1365,-490,-1485,-303,-34,380,162,-272
1,4881281,425,-1365,-490,-1485,-303,-34,380,162,-272
1,4881288,425,-1365,-490,-1485,-303,-34,380,162,-272
1,4881296,424,-1368,-496,-1484,-301,-42,380,162,-272
1,4881304,424,-1368,-496,-1484,-301,-42,380,162,-272
1,4881310,424,-1368,-496,-1484,-301,-42,380,162,-272
1,4881317,423,-1368,-488,-1483,-302,-41,380,162,-272
1,4881323,423,-1368,-488,-1483,-302,-41,380,162,-272
1,4881330,423,-1368,-488,-1483,-302,-41,380,162,-272
1,4881337,422,-1364,-488,-1480,-299,-40,380,162,-272
1,4881343,422,-1364,-488,-1480,-299,-40,380,162,-272
1,4881350,422,-1364,-488,-1480,-299,-40,380,162,-272
1,4881357,423,-1364,-487,-1480,-301,-45,383,149,-267
1,4881364,423,-1364,-487,-1480,-301,-45,383,149,-267
1,4881372,426,-1364,-491,-1479,-303,-40,383,149,-267
1,4881379,426,-1364,-491,-1479,-303,-40,383,149,-267
1,4881386,426,-1364,-491,-1479,-303,-40,383,149,-267
1,4881392,424,-1365,-488,-1481,-307,-41,383,149,-267
1,4881399,424,-1365,-488,-1481,-307,-41,383,149,-267
1,4881406,424,-1365,-488,-1481,-307,-41,383,149,-267
1,4881414,424,-1361,-494,-1484,-299,-38,383,149,-267
1,4881421,424,-1361,-494,-1484,-299,-38,383,149,-267
1,4881427,424,-1361,-494,-1484,-299,-38,383,149,-267
1,4881434,426,-1365,-495,-1480,-304,-44,383,149,-267
1,4881440,426,-1365,-495,-1480,-304,-44,383,149,-267
1,4881447,426,-1365,-495,-1480,-304,-44,383,149,-267
1,4881455,423,-1364,-494,-1483,-306,-40,383,149,-267
1,4881463,423,-1364,-494,-1483,-306,-40,383,149,-267
1,4881468,423,-1364,-494,-1483,-306,-40,383,149,-267
1,4881475,424,-1366,-487,-1482,-313,-38,378,156,-278
1,4881480,424,-1366,-487,-1482,-313,-38,378,156,-278
1,4881485,424,-1366,-487,-1482,-313,-38,378,156,-278
1,4881490,424,-1366,-487,-1482,-313,-38,378,156,-278
1,4881496,426,-1367,-488,-1488,-301,-45,378,156,-278
1,4881501,426,-1367,-488,-1488,-301,-45,378,156,-278
1,4881506,426,-1367,-488,-1488,-301,-45,378,156,-278
1,4881512,421,-1365,-494,-1486,-304,-42,378,156,-278
1,4881519,421,-1365,-494,-1486,-304,-42,378,156,-278
1,4881525,421,-1365,-494,-1486,-304,-42,378,156,-278
1,4881533,423,-1366,-493,-1479,-298,-45,378,156,-278
1,4881540,423,-1366,-493,-1479,-298,-45,378,156,-278
1,4881547,423,-1366,-493,-1479,-298,-45,378,156,-278
1,4881554,424,-1366,-488,-1487,-304,-39,378,156,-278
1,4881561,424,-1366,-488,-1487,-304,-39,378,156,-278
1,4881568,424,-1366,-488,-1487,-304,-39,378,156,-278
1,4881574,426,-1363,-492,-1487,-303,-34,378,156,-278
1,4881582,426,-1363,-492,-1487,-303,-34,378,156,-278
1,4881590,426,-1363,-492,-1487,-303,-34,378,156,-278
1,4881597,423,-1364,-494,-1485,-305,-37,380,154,-272
1,4881603,423,-1364,-494,-1485,-305,-37,380,154,-272
1,4881610,423,-1364,-494,-1485,-305,-37,380,154,-272
1,4881618,424,-1364,-491,-1485,-303,-42,380,154,-272
1,4881625,424,-1364,-491,-1485,-303,-42,380,154,-272
1,4881632,426,-1364,-487,-1482,-300,-44,380,154,-272
1,4881640,426,-1364,-487,-1482,-300,-44,380,154,-272
1,4881647,426,-1364,-487,-1482,-300,-44,380,154,-272
1,4881654,426,-1365,-489,-1482,-304,-38,380,154,-272
1,4881660,426,-1365,-489,-1482,-304,-38,380,154,-272
1,4881666,426,-1365,-489,-1482,-304,-38,380,154,-272
1,4881674,421,-1363,-490,-1484,-305,-37,380,154,-272
1,4881682,421,-1363,-490,-1484,-305,-37,380,154,-272
1,4881687,421,-1363,-490,-1484,-305,-37,380,154,-272
1,4881692,421,-1363,-490,-1484,-305,-37,380,154,-272
1,4881697,421,-1363,-490,-1484,-305,-37,380,154,-272
1,4881702,421,-1363,-490,-1484,-305,-37,380,154,-272
1,4881708,421,-1363,-490,-1484,-305,-37,380,154,-272
1,4881713,421,-1366,-493,-1487,-297,-42,380,154,-272
1,4881718,421,-1366,-493,-1487,-297,-42,380,154,-272
1,4881724,421,-1366,-493,-1487,-297,-42,380,154,-272
1,4881729,421,-1366,-493,-1487,-297,-42,380,154,-272
1,4881735,429,-1363,-491,-1480,-299,-38,379,153,-277
1,4881741,429,-1363,-491,-1480,-299,-38,379,153,-277
1,4881746,429,-1363,-491,-1480,-299,-38,379,153,-277
1,4881753,425,-1365,-491,-1489,-309,-38,379,153,-277
1,4881759,425,-1365,-491,-1489,-309,-38,379,153,-277
1,4881764,425,-1365,-491,-1489,-309,-38,379,153,-277
1,4881769,425,-1365,-491,-1489,-309,-38,379,153,-277
1,4881775,425,-1364,-490,-1483,-306,-42,379,153,-277
1,4881779,425,-1364,-490,-1483,-306,-42,379,153,-277
1,4881786,425,-1364,-490,-1483,-306,-42,379,153,-277
1,4881794,425,-1367,-486,-1489,-308,-49,379,153,-277
1,4881800,425,-1367,-486,-1489,-308,-49,379,153,-277
1,4881808,425,-1367,-486,-1489,-308,-49,379,153,-277
1,4881814,424,-1364,-490,-1491,-306,-42,379,153,-277
1,4881821,424,-1364,-490,-1491,-306,-42,379,153,-277
1,4881828,424,-1364,-490,-1491,-306,-42,379,153,-277
1,4881836,427,-1365,-492,-1485,-302,-41,379,153,-277
1,4881842,427,-1365,-492,-1485,-302,-41,379,153,-277
1,4881849,427,-1365,-492,-1485,-302,-41,379,153,-277
1,4881856,423,-1365,-484,-1476,-302,-48,389,155,-275
1,4881862,423,-1365,-484,-1476,-302,-48,389,155,-275
1,4881869,423,-1365,-484,-1476,-302,-48,389,155,-275
1,4881875,424,-1364,-490,-1483,-302,-39,389,155,-275
1,4881883,424,-1364,-490,-1483,-302,-39,389,155,-275
1,4881890,424,-1364,-490,-1483,-302,-39,389,155,-275
1,4881896,425,-1363,-488,-1483,-299,-37,389,155,-275
1,4881901,425,-1363,-488,-1483,-299,-37,389,155,-275
1,4881909,425,-1363,-488,-1483,-299,-37,389,155,-275
1,4881916,422,-1366,-493,-1487,-302,-35,389,155,-275
1,4881924,422,-1366,-493,-1487,-302,-35,389,155,-275
1,4881931,422,-1366,-493,-1487,-302,-35,389,155,-275
1,4881937,426,-1362,-492,-1488,-308,-41,389,155,-275
1,4881944,426,-1362,-492,-1488,-308,-41,389,155,-275
1,4881950,426,-1362,-492,-1488,-308,-41,389,155,-275
1,4881957,423,-1364,-491,-1492,-307,-37,389,155,-275
1,4881965,423,-1364,-491,-1492,-307,-37,389,155,-275
1,4881970,423,-1364,-491,-1492,-307,-37,389,155,-275
1,4881976,422,-1365,-492,-1485,-307,-36,379,151,-277
1,4881983,422,-1365,-492,-1485,-307,-36,379,151,-277
1,4881990,422,-1365,-492,-1485,-307,-36,379,151,-277
1,4881996,423,-1365,-488,-1480,-302,-41,379,151,-277
1,4882003,423,-1365,-488,-1480,-302,-41,379,151,-277
1,4882011,423,-1365,-488,-1480,-302,-41,379,151,-277
1,4882017,425,-1363,-491,-1482,-303,-37,379,151,-277
1,4882025,425,-1363,-491,-1482,-303,-37,379,151,-277
1,4882031,423,-1367,-485,-1478,-302,-37,379,151,-277
1,4882036,423,-1367,-485,-1478,-302,-37,379,151,-277
1,4882043,423,-1367,-485,-1478,-302,-37,379,151,-277
1,4882051,423,-1367,-485,-1478,-302,-37,379,151,-277
1,4882058,424,-1366,-488,-1478,-304,-40,379,151,-277
1,4882065,424,-1366,-488,-1478,-304,-40,379,151,-277
1,4882072,422,-1366,-492,-1486,-303,-40,379,151,-277
1,4882079,422,-1366,-492,-1486,-303,-40,379,151,-277
1,4882086,422,-1366,-492,-1486,-303,-40,379,151,-277
1,4882094,423,-1364,-488,-1483,-299,-31,391,145,-279
1,4882101,423,-1364,-488,-1483,-299,-31,391,145,-279
1,4882108,423,-1364,-488,-1483,-299,-31,391,145,-279
1,4882115,422,-1362,-491,-1483,-302,-39,391,145,-279
1,4882121,422,-1362,-491,-1483,-302,-39,391,145,-279
1,4882128,422,-1362,-491,-1483,-302,-39,391,145,-279
1,4882137,422,-1363,-490,-1480,-303,-38,391,145,-279
1,4882144,422,-1363,-490,-1480,-303,-38,391,145,-279
1,4882151,422,-1363,-490,-1480,-303,-38,391,145,-279
1,4882159,423,-1366,-489,-1482,-299,-40,391,145,-279
1,4882165,423,-1366,-489,-1482,-299,-40,391,145,-279
1,4882172,425,-1367,-488,-1485,-305,-44,391,145,-279
1,4882180,425,-1367,-488,-1485,-305,-44,391,145,-279
1,4882187,425,-1367,-488,-1485,-305,-44,391,145,-279
1,4882194,422,-1364,-492,-1477,-304,-48,391,145,-279
1,4882201,422,-1364,-492,-1477,-304,-48,391,145,-279
1,4882207,422,-1364,-492,-1477,-304,-48,391,145,-279
1,4882215,423,-1367,-490,-1485,-304,-38,391,145,-279
1,4882223,423,-1367,-490,-1485,-304,-38,391,145,-279
1,4882228,423,-1367,-490,-1485,-304,-38,391,145,-279
1,4882233,425,-1365,-488,-1488,-303,-43,380,156,-266
1,4882240,425,-1365,-488,-1488,-303,-43,380,156,-266
1,4882247,425,-1365,-488,-1488,-303,-43,380,156,-266
1,4882255,426,-1364,-490,-1483,-299,-41,380,156,-266
1,4882262,426,-1364,-490,-1483,-299,-41,380,156,-266
1,4882269,426,-1364,-490,-1483,-299,-41,380,156,-266
1,4882276,428,-1364,-489,-1480,-305,-35,380,156,-266
1,4882283,428,-1364,-489,-1480,-305,-35,380,156,-266
1,4882290,428,-1364,-489,-1480,-305,-35,380,156,-266
1,4882297,427,-1367,-488,-1488,-307,-36,380,156,-266
1,4882302,427,-1367,-488,-1488,-307,-36,380,156,-266
1,4882311,427,-1367,-488,-1488,-307,-36,380,156,-266
1,4882319,426,-1366,-492,-1483,-305,-40,380,156,-266
1,4882326,426,-1366,-492,-1483,-305,-40,380,156,-266
1,4882333,424,-1363,-494,-1483,-304,-44,380,156,-266
1,4882340,424,-1363,-494,-1483,-304,-44,380,156,-266
1,4882348,424,-1363,-494,-1483,-304,-44,380,156,-266
1,4882355,426,-1365,-488,-1479,-302,-44,384,154,-276
1,4882362,426,-1365,-488,-1479,-302,-44,384,154,-276
1,4882369,426,-1365,-488,-1479,-302,-44,384,154,-276
1,4882376,422,-1366,-492,-1485,-306,-44,384,154,-276
1,4882383,422,-1366,-492,-1485,-306,-44,384,154,-276
1,4882390,422,-1366,-492,-1485,-306,-44,384,154,-276
1,4882396,421,-1365,-485,-1483,-304,-42,384,154,-276
1,4882403,421,-1365,-485,-1483,-304,-42,384,154,-276
1,4882410,421,-1365,-485,-1483,-304,-42,384,154,-276
1,4882416,424,-1366,-495,-1480,-303,-38,384,154,-276
1,4882423,424,-1366,-495,-1480,-303,-38,384,154,-276
1,4882432,424,-1367,-489,-1484,-306,-32,384,154,-276
1,4882437,424,-1367,-489,-1484,-306,-32,384,154,-276
1,4882445,424,-1367,-489,-1484,-306,-32,384,154,-276
1,4882452,422,-1364,-490,-1483,-305,-36,384,154,-276
1,4882459,422,-1364,-490,-1483,-305,-36,384,154,-276
1,4882466,422,-1364,-490,-1483,-305,-36,384,154,-276
1,4882473,423,-1368,-492,-1483,-298,-39,377,151,-277
1,4882479,423,-1368,-492,-1483,-298,-39,377,151,-277
1,4882484,423,-1368,-492,-1483,-298,-39,377,151,-277
1,4882489,423,-1368,-492,-1483,-298,-39,377,151,-277
1,4882495,426,-1365,-488,-1485,-303,-38,377,151,-277
1,4882499,426,-1365,-488,-1485,-303,-38,377,151,-277
1,4882506,426,-1365,-488,-1485,-303,-38,377,151,-277
1,4882514,423,-1363,-487,-1485,-295,-38,377,151,-277
1,4882522,423,-1363,-487,-1485,-295,-38,377,151,-277
1,4882528,423,-1363,-487,-1485,-295,-38,377,151,-277
1,4882535,422,-1363,-490,-1479,-302,-49,377,151,-277
1,4882543,422,-1363,-490,-1479,-302,-49,377,151,-277
1,4882549,422,-1363,-490,-1479,-302,-49,377,151,-277
1,4882554,424,-1361,-493,-1483,-298,-36,377,151,-277
1,4882562,424,-1361,-493,-1483,-298,-36,377,151,-277
1,4882570,424,-1361,-493,-1483,-298,-36,377,151,-277
1,4882576,423,-1367,-494,-1487,-298,-34,377,151,-277
1,4882582,423,-1367,-494,-1487,-298,-34,377,151,-277
1,4882587,423,-1367,-494,-1487,-298,-34,377,151,-277
1,4882595,424,-1364,-486,-1469,-302,-37,376,156,-266
1,4882603,424,-1364,-486,-1469,-302,-37,376,156,-266
1,4882612,425,-1367,-484,-1476,-308,-44,376,156,-266
1,4882619,425,-1367,-484,-1476,-308,-44,376,156,-266
1,4882624,425,-1367,-484,-1476,-308,-44,376,156,-266
1,4882631,427,-1364,-492,-1487,-304,-42,376,156,-266
1,4882637,427,-1364,-492,-1487,-304,-42,376,156,-266
1,4882646,427,-1364,-492,-1487,-304,-42,376,156,-266
1,4882654,424,-1365,-490,-1487,-299,-42,376,156,-266
1,4882662,424,-1365,-490,-1487,-299,-42,376,156,-266
1,4882668,424,-1365,-490,-1487,-299,-42,376,156,-266
1,4882675,424,-1365,-491,-1491,-302,-45,376,156,-266
1,4882681,424,-1365,-491,-1491,-302,-45,376,156,-266
1,4882688,424,-1365,-491,-1491,-302,-45,376,156,-266
1,4882693,422,-1363,-490,-1491,-305,-37,376,156,-266
1,4882698,422,-1363,-490,-1491,-305,-37,376,156,-266
1,4882704,422,-1363,-490,-1491,-305,-37,376,156,-266
1,4882709,422,-1363,-490,-1491,-305,-37,376,156,-266
1,4882714,424,-1367,-489,-1482,-305,-36,376,156,-266
1,4882719,424,-1367,-489,-1482,-305,-36,376,156,-266
1,4882725,424,-1367,-489,-1482,-305,-36,376,156,-266
1,4882731,424,-1367,-489,-1482,-305,-36,376,156,-266
1,4882736,425,-1365,-485,-1483,-304,-30,376,156,-266
1,4882741,425,-1365,-485,-1483,-304,-30,376,156,-266
1,4882748,425,-1365,-485,-1483,-304,-30,376,156,-266
1,4882754,424,-1366,-490,-1482,-301,-39,376,156,-266
1,4882762,424,-1366,-490,-1482,-301,-39,376,156,-266
1,4882768,424,-1366,-490,-1482,-301,-39,376,156,-266
1,4882776,424,-1368,-490,-1486,-309,-44,376,156,-266
1,4882783,424,-1368,-490,-1486,-309,-44,376,156,-266
1,4882790,424,-1368,-490,-1486,-309,-44,376,156,-266
1,4882797,424,-1366,-487,-1484,-303,-41,376,156,-266
1,4882804,424,-1366,-487,-1484,-303,-41,376,156,-266
1,4882811,424,-1366,-487,-1484,-303,-41,376,156,-266
1,4882818,428,-1365,-495,-1481,-304,-42,376,156,-266
1,4882825,428,-1365,-495,-1481,-304,-42,376,156,-266
1,4882831,426,-1365,-489,-1485,-303,-34,376,156,-266
1,4882838,426,-1365,-489,-1485,-303,-34,376,156,-266
1,4882845,426,-1365,-489,-1485,-303,-34,376,156,-266
1,4882853,424,-1367,-485,-1476,-298,-36,393,155,-269
1,4882861,424,-1367,-485,-1476,-298,-36,393,155,-269
1,4882867,424,-1367,-485,-1476,-298,-36,393,155,-269
1,4882873,425,-1364,-488,-1486,-309,-41,393,155,-269
1,4882880,425,-1364,-488,-1486,-309,-41,393,155,-269
1,4882888,425,-1364,-488,-1486,-309,-41,393,155,-269
1,4882895,426,-1365,-493,-1489,-305,-41,393,155,-269
1,4882903,426,-1365,-493,-1489,-305,-41,393,155,-269
1,4882909,426,-1365,-493,-1489,-305,-41,393,155,-269
1,4882915,425,-1364,-494,-1479,-302,-38,393,155,-269
1,4882922,425,-1364,-494,-1479,-302,-38,393,155,-269
1,4882929,425,-1364,-494,-1479,-302,-38,393,155,-269
1,4882935,427,-1363,-487,-1481,-305,-42,393,155,-269
1,4882942,427,-1363,-487,-1481,-305,-42,393,155,-269
1,4882950,427,-1363,-487,-1481,-305,-42,393,155,-269
1,4882958,428,-1366,-492,-1481,-301,-37,393,155,-269
1,4882965,428,-1366,-492,-1481,-301,-37,393,155,-269
1,4882973,424,-1365,-486,-1489,-300,-31,383,153,-269
1,4882980,424,-1365,-486,-1489,-300,-31,383,153,-269
1,4882987,424,-1365,-486,-1489,-300,-31,383,153,-269
1,4882993,427,-1364,-490,-1483,-306,-36,383,153,-269
1,4883000,427,-1364,-490,-1483,-306,-36,383,153,-269
1,4883006,427,-1364,-490,-1483,-306,-36,383,153,-269
1,4883014,422,-1362,-492,-1480,-304,-36,383,153,-269
1,4883021,422,-1362,-492,-1480,-304,-36,383,153,-269
1,4883028,422,-1362,-492,-1480,-304,-36,383,153,-269
1,4883035,423,-1366,-493,-1481,-306,-37,383,153,-269
1,4883041,423,-1366,-493,-1481,-306,-37,383,153,-269
1,4883048,423,-1366,-493,-1481,-306,-37,383,153,-269
1,4883056,423,-1365,-493,-1487,-310,-39,383,153,-269
1,4883063,423,-1365,-493,-1487,-310,-39,383,153,-269
1,4883072,423,-1365,-493,-1487,-310,-39,383,153,-269
1,4883077,422,-1364,-492,-1479,-304,-33,383,153,-269
1,4883085,422,-1364,-492,-1479,-304,-33,383,153,-269
1,4883090,422,-1364,-492,-1479,-304,-33,383,153,-269
1,4883097,422,-1364,-489,-1485,-302,-38,378,154,-268
1,4883105,422,-1364,-489,-1485,-302,-38,378,154,-268
1,4883112,424,-1365,-489,-1479,-305,-35,378,154,-268
1,4883120,424,-1365,-489,-1479,-305,-35,378,154,-268
1,4883127,424,-1365,-489,-1479,-305,-35,378,154,-268
1,4883134,420,-1364,-491,-1480,-302,-40,378,154,-268
1,4883140,420,-1364,-491,-1480,-302,-40,378,154,-268
1,4883146,420,-1364,-491,-1480,-302,-40,378,154,-268
1,4883151,420,-1364,-491,-1480,-302,-40,378,154,-268
1,4883158,420,-1363,-496,-1481,-300,-38,378,154,-268
1,4883165,420,-1363,-496,-1481,-300,-38,378,154,-268
1,4883171,420,-1363,-496,-1481,-300,-38,378,154,-268
1,4883176,424,-1363,-492,-1478,-300,-40,378,154,-268
1,4883183,424,-1363,-492,-1478,-300,-40,378,154,-268
1,4883189,424,-1363,-492,-1478,-300,-40,378,154,-268
1,4883197,422,-1365,-488,-1487,-302,-40,378,154,-268
1,4883206,422,-1365,-488,-1487,-302,-40,378,154,-268
1,4883212,426,-1365,-491,-1489,-304,-48,378,154,-268
1,4883219,426,-1365,-491,-1489,-304,-48,383,149,-277
1,4883226,426,-1365,-491,-1489,-304,-48,383,149,-277
1,4883232,423,-1365,-485,-1485,-304,-35,383,149,-277
1,4883240,423,-1365,-485,-1485,-304,-35,383,149,-277
1,4883247,423,-1365,-485,-1485,-304,-35,383,149,-277
1,4883254,425,-1365,-496,-1482,-300,-41,383,149,-277
1,4883261,425,-1365,-496,-1482,-300,-41,383,149,-277
1,4883267,425,-1365,-496,-1482,-300,-41,383,149,-277
1,4883274,425,-1364,-493,-1484,-310,-40,383,149,-277
1,4883281,425,-1364,-493,-1484,-310,-40,383,149,-277
1,4883288,425,-1364,-493,-1484,-310,-40,383,149,-277
1,4883296,424,-1364,-487,-1493,-310,-45,383,149,-277
1,4883303,424,-1364,-487,-1493,-310,-45,383,149,-277
1,4883308,424,-1364,-487,-1493,-310,-45,383,149,-277
1,4883316,422,-1364,-488,-1485,-302,-41,383,149,-277
1,4883323,422,-1364,-488,-1485,-302,-41,383,149,-277
1,4883332,422,-1364,-488,-1485,-302,-41,383,149,-277
1,4883338,422,-1363,-491,-1481,-307,-40,383,149,-277
1,4883345,422,-1363,-491,-1481,-307,-40,383,149,-277
1,4883353,422,-1368,-489,-1482,-300,-40,379,159,-273
1,4883358,422,-1368,-489,-1482,-300,-40,379,159,-273
1,4883366,422,-1368,-489,-1482,-300,-40,379,159,-273
1,4883374,423,-1364,-498,-1487,-304,-35,379,159,-273
1,4883381,423,-1364,-498,-1487,-304,-35,379,159,-273
1,4883387,423,-1364,-498,-1487,-304,-35,379,159,-273
1,4883394,422,-1362,-494,-1488,-305,-37,379,159,-273
1,4883401,422,-1362,-494,-1488,-305,-37,379,159,-273
1,4883408,422,-1362,-494,-1488,-305,-37,379,159,-273
1,4883417,424,-1363,-494,-1480,-310,-44,379,159,-273
1,4883424,424,-1363,-494,-1480,-310,-44,379,159,-273
1,4883432,424,-1363,-494,-1480,-310,-44,379,159,-273
1,4883439,424,-1363,-494,-1480,-310,-44,379,159,-273
1,4883447,424,-1363,-494,-1480,-310,-44,379,159,-273
1,4883454,423,-1364,-487,-1489,-304,-39,379,159,-273
1,4883461,423,-1364,-487,-1489,-304,-39,379,159,-273
1,4883468,423,-1364,-487,-1489,-304,-39,379,159,-273
1,4883474,425,-1365,-487,-1484,-299,-41,372,152,-274
1,4883480,425,-1365,-487,-1484,-299,-41,372,152,-274
1,4883485,425,-1365,-487,-1484,-299,-41,372,152,-274
1,4883490,425,-1365,-487,-1484,-299,-41,372,152,-274
1,4883495,421,-1365,-488,-1486,-303,-43,372,152,-274
1,4883501,421,-1365,-488,-1486,-303,-43,372,152,-274
1,4883506,421,-1365,-488,-1486,-303,-43,372,152,-274
1,4883511,421,-1365,-488,-1486,-303,-43,372,152,-274
1,4883518,422,-1364,-490,-1482,-303,-43,372,152,-274
1,4883524,422,-1364,-490,-1482,-303,-43,372,152,-274
1,4883532,424,-1365,-487,-1488,-300,-39,372,152,-274
1,4883538,424,-1365,-487,-1488,-300,-39,372,152,-274
1,4883545,424,-1365,-487,-1488,-300,-39,372,152,-274
1,4883551,424,-1365,-487,-1488,-300,-39,372,152,-274
1,4883559,424,-1362,-493,-1484,-308,-41,372,152,-274
1,4883566,424,-1362,-493,-1484,-308,-41,372,152,-274
1,4883572,420,-1365,-490,-1480,-311,-43,372,152,-274
1,4883577,420,-1365,-490,-1480,-311,-43,372,152,-274
1,4883586,420,-1365,-490,-1480,-311,-43,372,152,-274
1,4883594,424,-1365,-485,-1481,-303,-41,379,149,-273
1,4883600,424,-1365,-485,-1481,-303,-41,379,149,-273
1,4883606,424,-1365,-485,-1481,-303,-41,379,149,-273
1,4883611,424,-1365,-485,-1481,-303,-41,379,149,-273
1,4883616,428,-1363,-491,-1482,-301,-38,379,149,-273
1,4883623,428,-1363,-491,-1482,-301,-38,379,149,-273
1,4883630,428,-1363,-491,-1482,-301,-38,379,149,-273
1,4883637,423,-1364,-495,-1481,-301,-36,379,149,-273
1,4883643,423,-1364,-495,-1481,-301,-36,379,149,-273
1,4883651,423,-1364,-495,-1481,-301,-36,379,149,-273
1,4883658,423,-1363,-491,-1488,-302,-44,379,149,-273
1,4883665,423,-1363,-491,-1488,-302,-44,379,149,-273
1,4883672,424,-1368,-490,-1484,-308,-43,379,149,-273
1,4883680,424,-1368,-490,-1484,-308,-43,379,149,-273
1,4883685,424,-1368,-490,-1484,-308,-43,379,149,-273
1,4883690,424,-1368,-490,-1484,-308,-43,379,149,-273
1,4883695,427,-1366,-492,-1481,-300,-39,379,149,-273
1,4883700,427,-1366,-492,-1481,-300,-39,379,149,-273
1,4883706,427,-1366,-492,-1481,-300,-39,379,149,-273
1,4883712,427,-1366,-492,-1481,-300,-39,379,149,-273
1,4883717,423,-1363,-487,-1476,-301,-45,376,162,-272
1,4883722,423,-1363,-487,-1476,-301,-45,376,162,-272
1,4883728,423,-1363,-487,-1476,-301,-45,376,162,-272
1,4883735,422,-1362,-488,-1481,-300,-43,376,162,-272
1,4883741,422,-1362,-488,-1481,-300,-43,376,162,-272
1,4883748,422,-1362,-488,-1481,-300,-43,376,162,-272
1,4883757,422,-1361,-491,-1484,-301,-50,376,162,-272
1,4883764,422,-1361,-491,-1484,-301,-50,376,162,-272
1,4883771,422,-1361,-491,-1484,-301,-50,376,162,-272
1,4883777,423,-1365,-495,-1487,-301,-34,376,162,-272
1,4883784,423,-1365,-495,-1487,-301,-34,376,162,-272
1,4883790,423,-1365,-495,-1487,-301,-34,376,162,-272
1,4883798,425,-1367,-495,-1484,-304,-35,376,162,-272
1,4883804,425,-1367,-495,-1484,-304,-35,376,162,-272
1,4883813,423,-1364,-490,-1483,-302,-42,376,162,-272
1,4883819,423,-1364,-490,-1483,-302,-42,376,162,-272
1,4883825,423,-1364,-490,-1483,-302,-42,376,162,-272
1,4883831,423,-1364,-490,-1483,-302,-42,376,162,-272
1,4883838,423,-1364,-489,-1482,-308,-48,376,162,-272
1,4883845,423,-1364,-489,-1482,-308,-48,376,162,-272
1,4883852,423,-1364,-489,-1482,-308,-48,376,162,-272
1,4883858,424,-1365,-489,-1476,-302,-44,381,155,-275
1,4883864,424,-1365,-489,-1476,-302,-44,381,155,-275
1,4883871,424,-1365,-489,-1476,-302,-44,381,155,-275
1,4883879,424,-1366,-490,-1489,-298,-36,381,155,-275
1,4883886,424,-1366,-490,-1489,-298,-36,381,155,-275
1,4883893,423,-1364,-490,-1485,-301,-43,381,155,-275
1,4883900,423,-1364,-490,-1485,-301,-43,381,155,-275
1,4883907,423,-1364,-490,-1485,-301,-43,381,155,-275
1,4883914,425,-1367,-492,-1484,-297,-41,381,155,-275
1,4883921,425,-1367,-492,-1484,-297,-41,381,155,-275
1,4883929,425,-1367,-492,-1484,-297,-41,381,155,-275
1,4883935,423,-1364,-491,-1483,-302,-42,381,155,-275
1,4883942,423,-1364,-491,-1483,-302,-42,381,155,-275
1,4883949,423,-1364,-491,-1483,-302,-42,381,155,-275
1,4883955,423,-1363,-493,-1490,-298,-42,381,155,-275
1,4883961,423,-1363,-493,-1490,-298,-42,381,155,-275
1,4883969,423,-1363,-493,-1490,-298,-42,381,155,-275
1,4883977,424,-1367,-489,-1480,-301,-43,375,161,-279
1,4883983,424,-1367,-489,-1480,-301,-43,375,161,-279
1,4883990,424,-1367,-489,-1480,-301,-43,375,161,-279
1,4883995,424,-1366,-491,-1481,-296,-47,375,161,-279
1,4884003,424,-1366,-491,-1481,-296,-47,375,161,-279
1,4884011,424,-1366,-491,-1481,-296,-47,375,161,-279
1,4884019,424,-1367,-493,-1480,-300,-43,375,161,-279
1,4884026,424,-1367,-493,-1480,-300,-43,375,161,-279
1,4884033,422,-1364,-489,-1484,-303,-46,375,161,-279
1,4884039,422,-1364,-489,-1484,-303,-46,375,161,-279
1,4884045,422,-1364,-489,-1484,-303,-46,375,161,-279
1,4884052,424,-1367,-491,-1480,-309,-42,375,161,-279
1,4884060,424,-1367,-491,-1480,-309,-42,375,161,-279
1,4884067,424,-1367,-491,-1480,-309,-42,375,161,-279
1,4884075,425,-1367,-492,-1484,-301,-41,375,161,-279
1,4884082,425,-1367,-492,-1484,-301,-41,375,161,-279
1,4884088,425,-1367,-492,-1484,-301,-41,375,161,-279
1,4884093,424,-1369,-489,-1485,-301,-43,378,148,-278
1,4884099,424,-1369,-489,-1485,-301,-43,378,148,-278
1,4884107,424,-1369,-489,-1485,-301,-43,378,148,-278
1,4884113,424,-1364,-491,-1485,-300,-45,378,148,-278
1,4884120,424,-1364,-491,-1485,-300,-45,378,148,-278
1,4884127,424,-1364,-491,-1485,-300,-45,378,148,-278
1,4884134,425,-1367,-492,-1482,-302,-44,378,148,-278
1,4884142,425,-1367,-492,-1482,-302,-44,378,148,-278
1,4884148,425,-1367,-492,-1482,-302,-44,378,148,-278
1,4884156,426,-1364,-491,-1485,-304,-44,378,148,-278
1,4884164,426,-1364,-491,-1485,-304,-44,378,148,-278
1,4884169,426,-1364,-491,-1485,-304,-44,378,148,-278
1,4884175,425,-1366,-498,-1481,-304,-47,378,148,-278
1,4884183,425,-1366,-498,-1481,-304,-47,378,148,-278
1,4884190,425,-1366,-498,-1481,-304,-47,378,148,-278
1,4884197,423,-1366,-490,-1487,-307,-41,378,148,-278
1,4884204,423,-1366,-490,-1487,-307,-41,378,148,-278
1,4884211,423,-1366,-490,-1487,-307,-41,378,148,-278
1,4884217,424,-1361,-491,-1484,-305,-44,384,154,-278
1,4884224,424,-1361,-491,-1484,-305,-44,384,154,-278
1,4884230,424,-1361,-491,-1484,-305,-44,384,154,-278
1,4884237,423,-1362,-484,-1482,-300,-36,384,154,-278
1,4884244,423,-1362,-484,-1482,-300,-36,384,154,-278
1,4884251,423,-1362,-484,-1482,-300,-36,384,154,-278
1,4884258,425,-1366,-490,-1487,-301,-36,384,154,-278
1,4884263,425,-1366,-490,-1487,-301,-36,384,154,-278
1,4884271,425,-1366,-490,-1487,-301,-36,384,154,-278
1,4884279,423,-1364,-495,-1482,-301,-38,384,154,-278
1,4884286,423,-1364,-495,-1482,-301,-38,384,154,-278
1,4884293,425,-1364,-495,-1483,-307,-35,384,154,-278
1,4884300,425,-1364,-495,-1483,-307,-35,384,154,-278
1,4884307,425,-1364,-495,-1483,-307,-35,384,154,-278
1,4884315,424,-1367,-493,-1488,-304,-44,384,154,-278
1,4884323,424,-1367,-493,-1488,-304,-44,384,154,-278
1,4884330,424,-1367,-493,-1488,-304,-44,384,154,-278
1,4884337,428,-1364,-491,-1488,-302,-39,384,154,-278
1,4884343,428,-1364,-491,-1488,-302,-39,384,154,-278
1,4884350,428,-1364,-491,-1488,-302,-39,384,154,-278
1,4884357,426,-1366,-486,-1482,-304,-38,378,164,-270
1,4884365,426,-1366,-486,-1482,-304,-38,378,164,-270
1,4884372,425,-1365,-493,-1485,-305,-33,378,164,-270
1,4884379,425,-1365,-493,-1485,-305,-33,378,164,-270
1,4884387,425,-1365,-493,-1485,-305,-33,378,164,-270
1,4884395,426,-1365,-491,-1480,-300,-37,378,164,-270
1,4884401,426,-1365,-491,-1480,-300,-37,378,164,-270
1,4884409,426,-1365,-491,-1480,-300,-37,378,164,-270
1,4884417,425,-1363,-495,-1486,-308,-46,378,164,-270
1,4884424,425,-1363,-495,-1486,-308,-46,378,164,-270
1,4884431,425,-1363,-495,-1486,-308,-46,378,164,-270
1,4884439,423,-1364,-491,-1483,-301,-44,378,164,-270
1,4884445,423,-1364,-491,-1483,-301,-44,378,164,-270
1,4884453,423,-1364,-490,-1479,-298,-35,378,164,-270
1,4884460,423,-1364,-490,-1479,-298,-35,378,164,-270
1,4884467,423,-1364,-490,-1479,-298,-35,378,164,-270
1,4884474,424,-1366,-492,-1482,-303,-45,389,159,-267
1,4884481,424,-1366,-492,-1482,-303,-45,389,159,-267
1,4884486,424,-1366,-492,-1482,-303,-45,389,159,-267
1,4884491,424,-1366,-492,-1482,-303,-45,389,159,-267
1,4884495,423,-1367,-490,-1486,-306,-47,389,159,-267
1,4884501,423,-1367,-490,-1486,-306,-47,389,159,-267
1,4884506,423,-1367,-490,-1486,-306,-47,389,159,-267
1,4884510,423,-1367,-490,-1486,-306,-47,389,159,-267
1,4884518,424,-1365,-487,-1477,-302,-36,389,159,-267
1,4884526,424,-1365,-487,-1477,-302,-36,389,159,-267
1,4884533,423,-1364,-491,-1487,-300,-38,389,159,-267
1,4884540,423,-1364,-491,-1487,-300,-38,389,159,-267
1,4884545,423,-1364,-491,-1487,-300,-38,389,159,-267
1,4884551,423,-1364,-491,-1487,-300,-38,389,159,-267
1,4884559,427,-1362,-489,-1479,-301,-33,389,159,-267
1,4884564,427,-1362,-489,-1479,-301,-33,389,159,-267
1,4884573,425,-1365,-493,-1477,-306,-35,389,159,-267
1,4884580,425,-1365,-493,-1477,-306,-35,389,159,-267
1,4884586,425,-1365,-493,-1477,-306,-35,389,159,-267
1,4884591,425,-1365,-493,-1477,-306,-35,389,159,-267
1,4884596,424,-1366,-487,-1486,-304,-40,375,155,-275
1,4884601,424,-1366,-487,-1486,-304,-40,375,155,-275
1,4884609,424,-1366,-487,-1486,-304,-40,375,155,-275
1,4884615,426,-1366,-490,-1485,-296,-40,375,155,-275
1,4884623,426,-1366,-490,-1485,-296,-40,375,155,-275
1,4884631,426,-1366,-490,-1485,-296,-40,375,155,-275
1,4884639,427,-1362,-492,-1485,-297,-39,375,155,-275
1,4884646,427,-1362,-492,-1485,-297,-39,375,155,-275
1,4884653,424,-1365,-493,-1479,-298,-42,375,155,-275
1,4884659,424,-1365,-493,-1479,-298,-42,375,155,-275
1,4884665,424,-1365,-493,-1479,-298,-42,375,155,-275
1,4884673,422,-1364,-493,-1482,-294,-42,375,155,-275
1,4884679,422,-1364,-493,-1482,-294,-42,375,155,-275
1,4884684,422,-1364,-493,-1482,-294,-42,375,155,-275
1,4884689,422,-1364,-493,-1482,-294,-42,375,155,-275
1,4884695,423,-1364,-491,-1483,-302,-40,375,155,-275
1,4884700,423,-1364,-491,-1483,-302,-40,375,155,-275
1,4884705,423,-1364,-491,-1483,-302,-40,375,155,-275
1,4884710,423,-1364,-491,-1483,-302,-40,375,155,-275
1,4884716,426,-1363,-494,-1488,-300,-38,381,159,-273
1,4884721,426,-1363,-494,-1488,-300,-38,381,159,-273
1,4884726,426,-1363,-494,-1488,-300,-38,381,159,-273
1,4884734,422,-1364,-488,-1482,-308,-42,381,159,-273
1,4884742,422,-1364,-488,-1482,-308,-42,381,159,-273
1,4884749,422,-1364,-488,-1482,-308,-42,381,159,-273
1,4884756,424,-1365,-494,-1484,-307,-45,381,159,-273
1,4884762,424,-1365,-494,-1484,-307,-45,381,159,-273
1,4884769,424,-1365,-494,-1484,-307,-45,381,159,-273
1,4884777,425,-1366,-488,-1485,-310,-33,381,159,-273
1,4884783,425,-1366,-488,-1485,-310,-33,381,159,-273
1,4884790,425,-1366,-488,-1485,-310,-33,381,159,-273
1,4884797,420,-1363,-492,-1481,-304,-42,381,159,-273
1,4884803,420,-1363,-492,-1481,-304,-42,381,159,-273
1,4884809,420,-1363,-492,-1481,-304,-42,381,159,-273
1,4884817,422,-1365,-493,-1488,-304,-45,381,159,-273
1,4884826,422,-1365,-493,-1488,-304,-45,381,159,-273
1,4884832,422,-1365,-493,-1488,-304,-45,381,159,-273
1,4884840,423,-1365,-491,-1488,-300,-40,386,152,-274
1,4884846,423,-1365,-491,-1488,-300,-40,386,152,-274
1,4884852,425,-1363,-487,-1491,-301,-40,386,152,-274
1,4884859,425,-1363,-487,-1491,-301,-40,386,152,-274
1,4884866,425,-1363,-487,-1491,-301,-40,386,152,-274
1,4884873,424,-1364,-485,-1486,-307,-44,386,152,-274
1,4884880,424,-1364,-485,-1486,-307,-44,386,152,-274
1,4884885,424,-1364,-485,-1486,-307,-44,386,152,-274
1,4884891,424,-1364,-485,-1486,-307,-44,386,152,-274
1,4884898,426,-1363,-485,-1483,-302,-42,386,152,-274
1,4884905,426,-1363,-485,-1483,-302,-42,386,152,-274
1,4884912,422,-1363,-498,-1482,-297,-38,386,152,-274
1,4884918,422,-1363,-498,-1482,-297,-38,386,152,-274
1,4884926,422,-1363,-498,-1482,-297,-38,386,152,-274
1,4884933,423,-1368,-492,-1480,-302,-36,386,152,-274
1,4884940,423,-1368,-492,-1480,-302,-36,386,152,-274
1,4884948,423,-1368,-492,-1480,-302,-36,386,152,-274
1,4884957,423,-1368,-496,-1484,-301,-35,386,152,-274
1,4884963,423,-1368,-496,-1484,-301,-35,386,152,-274
1,4884969,423,-1368,-496,-1484,-301,-35,386,152,-274
1,4884977,424,-1365,-488,-1481,-305,-35,383,153,-269
1,4884983,424,-1365,-488,-1481,-305,-35,383,153,-269
1,4884992,424,-1365,-488,-1481,-305,-35,383,153,-269
1,4885000,423,-1363,-490,-1477,-299,-38,383,153,-269
1,4885006,423,-1363,-490,-1477,-299,-38,383,153,-269
1,4885012,423,-1363,-490,-1477,-299,-38,383,153,-269
1,4885017,422,-1366,-490,-1480,-305,-37,383,153,-269
1,4885022,422,-1366,-490,-1480,-305,-37,383,153,-269
1,4885029,422,-1366,-490,-1480,-305,-37,383,153,-269
1,4885037,424,-1365,-493,-1477,-306,-41,383,153,-269
1,4885045,424,-1365,-493,-1477,-306,-41,383,153,-269
1,4885051,424,-1365,-493,-1477,-306,-41,383,153,-269
1,4885059,424,-1365,-492,-1481,-301,-35,383,153,-269
1,4885066,424,-1365,-492,-1481,-301,-35,383,153,-269
1,4885073,424,-1363,-488,-1480,-296,-35,383,153,-269
1,4885081,424,-1363,-488,-1480,-296,-35,383,153,-269
1,4885087,424,-1363,-488,-1480,-296,-35,383,153,-269
1,4885092,424,-1363,-488,-1480,-296,-35,383,153,-269
1,4885098,423,-1365,-484,-1480,-302,-42,386,158,-274
1,4885105,423,-1365,-484,-1480,-302,-42,386,158,-274
1,4885112,423,-1363,-492,-1486,-303,-42,386,158,-274
1,4885121,423,-1363,-492,-1486,-303,-42,386,158,-274
1,4885127,423,-1363,-492,-1486,-303,-42,386,158,-274
1,4885134,423,-1366,-491,-1485,-306,-41,386,158,-274
1,4885142,423,-1366,-491,-1485,-306,-41,386,158,-274
1,4885149,423,-1366,-491,-1485,-306,-41,386,158,-274
1,4885157,424,-1367,-493,-1484,-303,-41,386,158,-274
1,4885165,424,-1367,-493,-1484,-303,-41,386,158,-274
1,4885171,424,-1367,-493,-1484,-303,-41,386,158,-274
1,4885178,425,-1369,-487,-1483,-305,-35,386,158,-274
1,4885184,425,-1369,-487,-1483,-305,-35,386,158,-274
1,4885192,425,-1363,-496,-1483,-311,-42,386,158,-274
1,4885200,425,-1363,-496,-1483,-311,-42,386,158,-274
1,4885209,425,-1363,-496,-1483,-311,-42,386,158,-274
1,4885216,426,-1362,-488,-1485,-309,-48,385,151,-269
1,4885224,426,-1362,-488,-1485,-309,-48,385,151,-269
1,4885231,426,-1362,-488,-1485,-309,-48,385,151,-269
1,4885238,427,-1365,-490,-1483,-304,-44,385,151,-269
1,4885245,427,-1365,-490,-1483,-304,-44,385,151,-269
1,4885252,427,-1365,-490,-1483,-304,-44,385,151,-269
1,4885260,426,-1364,-489,-1483,-304,-39,385,151,-269
1,4885266,426,-1364,-489,-1483,-304,-39,385,151,-269
1,4885272,423,-1363,-497,-1487,-306,-43,385,151,-269
1,4885278,423,-1363,-497,-1487,-306,-43,385,151,-269
1,4885287,423,-1363,-497,-1487,-306,-43,385,151,-269
1,4885294,422,-1363,-493,-1478,-306,-40,385,151,-269
1,4885302,422,-1363,-493,-1478,-306,-40,385,151,-269
1,4885309,422,-1363,-493,-1478,-306,-40,385,151,-269
1,4885316,425,-1364,-492,-1483,-307,-40,385,151,-269
1,4885323,425,-1364,-492,-1483,-307,-40,385,151,-269
1,4885331,425,-1364,-492,-1483,-307,-40,385,151,-269
1,4885340,424,-1363,-490,-1486,-310,-37,380,158,-278
1,4885346,424,-1363,-490,-1486,-310,-37,380,158,-278
1,4885353,424,-1363,-490,-1486,-310,-37,380,158,-278
1,4885360,424,-1363,-490,-1486,-310,-37,380,158,-278
1,4885367,424,-1363,-490,-1486,-310,-37,380,158,-278
1,4885376,423,-1367,-489,-1487,-302,-39,380,158,-278
1,4885382,423,-1367,-489,-1487,-302,-39,380,158,-278
1,4885389,423,-1367,-489,-1487,-302,-39,380,158,-278
1,4885396,425,-1364,-494,-1492,-299,-39,380,158,-278
1,4885402,425,-1364,-494,-1492,-299,-39,380,158,-278
1,4885410,425,-1364,-494,-1492,-299,-39,380,158,-278
1,4885419,423,-1366,-492,-1487,-302,-39,380,158,-278
1,4885426,423,-1366,-492,-1487,-302,-39,380,158,-278
1,4885433,424,-1365,-490,-1486,-306,-38,380,158,-278
1,4885441,424,-1365,-490,-1486,-306,-38,380,158,-278
1,4885447,424,-1365,-490,-1486,-306,-38,380,158,-278
1,4885454,427,-1366,-491,-1491,-303,-39,380,158,-278
1,4885460,427,-1366,-491,-1491,-303,-39,380,158,-278
1,4885467,427,-1366,-491,-1491,-303,-39,380,158,-278
1,4885474,423,-1363,-485,-1485,-302,-32,385,151,-277
1,4885481,423,-1363,-485,-1485,-302,-32,385,151,-277
1,4885485,423,-1363,-485,-1485,-302,-32,385,151,-277
1,4885491,423,-1363,-485,-1485,-302,-32,385,151,-277
1,4885496,424,-1367,-488,-1483,-304,-35,385,151,-277
1,4885501,424,-1367,-488,-1483,-304,-35,385,151,-277
1,4885507,424,-1367,-488,-1483,-304,-35,385,151,-277
1,4885515,428,-1363,-491,-1492,-310,-35,385,151,-277
1,4885522,428,-1363,-491,-1492,-310,-35,385,151,-277
1,4885529,428,-1363,-491,-1492,-310,-35,385,151,-277
1,4885536,426,-1364,-491,-1499,-303,-42,385,151,-277
1,4885543,426,-1364,-491,-1499,-303,-42,385,151,-277
1,4885551,426,-1364,-491,-1499,-303,-42,385,151,-277
1,4885557,423,-1364,-493,-1490,-306,-39,385,151,-277
1,4885565,423,-1364,-493,-1490,-306,-39,385,151,-277
1,4885572,423,-1364,-493,-1490,-306,-39,385,151,-277
1,4885579,424,-1365,-494,-1486,-304,-34,385,151,-277
1,4885585,424,-1365,-494,-1486,-304,-34,385,151,-277
1,4885594,422,-1368,-490,-1482,-307,-35,381,161,-275
1,4885602,422,-1368,-490,-1482,-307,-35,381,161,-275
1,4885608,422,-1368,-490,-1482,-307,-35,381,161,-275
1,4885614,422,-1365,-495,-1482,-307,-42,381,161,-275
1,4885620,422,-1365,-495,-1482,-307,-42,381,161,-275
1,4885627,422,-1365,-495,-1482,-307,-42,381,161,-275
1,4885635,424,-1365,-488,-1485,-305,-46,381,161,-275
1,4885641,424,-1365,-488,-1485,-305,-46,381,161,-275
1,4885648,424,-1365,-488,-1485,-305,-46,381,161,-275
1,4885656,422,-1365,-492,-1484,-306,-45,381,161,-275
1,4885663,422,-1365,-492,-1484,-306,-45,381,161,-275
1,4885669,422,-1365,-492,-1484,-306,-45,381,161,-275
1,4885678,425,-1364,-496,-1480,-305,-44,381,161,-275
1,4885683,425,-1364,-496,-1480,-305,-44,381,161,-275
1,4885688,425,-1364,-496,-1480,-305,-44,381,161,-275
1,4885693,422,-1365,-490,-1479,-306,-41,381,161,-275
1,4885698,422,-1365,-490,-1479,-306,-41,381,161,-275
1,4885703,422,-1365,-490,-1479,-306,-41,381,161,-275
1,4885708,422,-1365,-490,-1479,-306,-41,381,161,-275
1,4885713,423,-1367,-489,-1479,-307,-46,384,152,-282
1,4885718,423,-1367,-489,-1479,-307,-46,384,152,-282
1,4885723,423,-1367,-489,-1479,-307,-46,384,152,-282
1,4885731,423,-1367,-489,-1479,-307,-46,384,152,-282
1,4885738,426,-1366,-489,-1480,-304,-45,384,152,-282
1,4885743,426,-1366,-489,-1480,-304,-45,384,152,-282
1,4885750,426,-1366,-489,-1480,-304,-45,384,152,-282
1,4885757,423,-1367,-487,-1481,-301,-41,384,152,-282
1,4885765,423,-1367,-487,-1481,-301,-41,384,152,-282
1,4885773,424,-1365,-492,-1484,-304,-43,384,152,-282
1,4885780,424,-1365,-492,-1484,-304,-43,384,152,-282
1,4885787,424,-1365,-492,-1484,-304,-43,384,152,-282
1,4885793,424,-1365,-490,-1484,-303,-40,384,152,-282
1,4885799,424,-1365,-490,-1484,-303,-40,384,152,-282
1,4885806,424,-1365,-490,-1484,-303,-40,384,152,-282
1,4885813,423,-1366,-499,-1483,-300,-38,384,152,-282
1,4885820,423,-1366,-499,-1483,-300,-38,384,152,-282
1,4885826,423,-1366,-499,-1483,-300,-38,384,152,-282
1,4885833,423,-1365,-494,-1480,-299,-35,390,158,-272
1,4885838,423,-1365,-494,-1480,-299,-35,390,158,-272
1,4885847,423,-1365,-494,-1480,-299,-35,390,158,-272
1,4885854,428,-1364,-488,-1480,-301,-42,390,158,-272
1,4885861,428,-1364,-488,-1480,-301,-42,390,158,-272
1,4885867,428,-1364,-488,-1480,-301,-42,390,158,-272
1,4885872,428,-1364,-488,-1480,-301,-42,390,158,-272
1,4885879,423,-1363,-487,-1492,-304,-42,390,158,-272
1,4885888,423,-1363,-487,-1492,-304,-42,390,158,-272
1,4885894,424,-1366,-488,-1485,-303,-34,390,158,-272
1,4885902,424,-1366,-488,-1485,-303,-34,390,158,-272
1,4885907,424,-1366,-488,-1485,-303,-34,390,158,-272
1,4885915,422,-1364,-493,-1489,-304,-39,390,158,-272
1,4885921,422,-1364,-493,-1489,-304,-39,390,158,-272
1,4885929,422,-1364,-493,-1489,-304,-39,390,158,-272
1,4885937,422,-1366,-490,-1486,-302,-38,390,158,-272
1,4885944,422,-1366,-490,-1486,-302,-38,390,158,-272
1,4885949,422,-1366,-490,-1486,-302,-38,390,158,-272
1,4885955,423,-1362,-494,-1485,-303,-45,390,158,-272
1,4885959,423,-1362,-494,-1485,-303,-45,390,158,-272
1,4885966,423,-1362,-494,-1485,-303,-45,390,158,-272
1,4885972,423,-1362,-494,-1485,-303,-45,390,158,-272
1,4885981,424,-1363,-489,-1485,-310,-41,379,155,-271
1,4885988,424,-1363,-489,-1485,-310,-41,379,155,-271
1,4885996,425,-1365,-491,-1492,-303,-39,379,155,-271
1,4886003,425,-1365,-491,-1492,-303,-39,379,155,-271
1,4886010,425,-1365,-491,-1492,-303,-39,379,155,-271
1,4886018,424,-1366,-489,-1490,-304,-37,379,155,-271
1,4886025,424,-1366,-489,-1490,-304,-37,379,155,-271
1,4886031,424,-1366,-489,-1490,-304,-37,379,155,-271
1,4886038,425,-1366,-497,-1488,-308,-44,379,155,-271
1,4886043,425,-1366,-497,-1488,-308,-44,379,155,-271
1,4886050,425,-1366,-497,-1488,-308,-44,379,155,-271
1,4886059,427,-1363,-497,-1490,-311,-43,379,155,-271
1,4886066,427,-1363,-497,-1490,-311,-43,379,155,-271
1,4886073,427,-1364,-494,-1486,-309,-35,379,155,-271
1,4886080,427,-1364,-494,-1486,-309,-35,379,155,-271
1,4886089,427,-1364,-494,-1486,-309,-35,379,155,-271
1,4886096,422,-1366,-488,-1482,-302,-40,382,158,-272
1,4886105,422,-1366,-488,-1482,-302,-40,382,158,-272
1,4886112,422,-1366,-488,-1482,-302,-40,382,158,-272
1,4886118,423,-1365,-491,-1482,-298,-36,382,158,-272
1,4886123,423,-1365,-491,-1482,-298,-36,382,158,-272
1,4886130,423,-1365,-491,-1482,-298,-36,382,158,-272
1,4886138,425,-1365,-486,-1479,-296,-46,382,158,-272
1,4886146,425,-1365,-486,-1479,-296,-46,382,158,-272
1,4886153,423,-1365,-488,-1481,-304,-37,382,158,-272
1,4886158,423,-1365,-488,-1481,-304,-37,382,158,-272
1,4886165,423,-1365,-488,-1481,-304,-37,382,158,-272
1,4886170,423,-1365,-488,-1481,-304,-37,382,158,-272
1,4886177,424,-1368,-489,-1481,-303,-37,382,158,-272
1,4886183,424,-1368,-489,-1481,-303,-37,382,158,-272
1,4886190,424,-1368,-489,-1481,-303,-37,382,158,-272
1,4886199,424,-1365,-493,-1479,-303,-41,382,158,-272
1,4886206,424,-1365,-493,-1479,-303,-41,382,158,-272
1,4886214,424,-1364,-491,-1479,-307,-42,378,156,-280
1,4886220,424,-1364,-491,-1479,-307,-42,378,156,-280
1,4886226,424,-1364,-491,-1479,-307,-42,378,156,-280
1,4886233,424,-1364,-491,-1479,-307,-42,378,156,-280
1,4886239,423,-1364,-490,-1479,-302,-34,378,156,-280
1,4886247,423,-1364,-490,-1479,-302,-34,378,156,-280
1,4886253,423,-1364,-485,-1478,-300,-42,378,156,-280
1,4886259,423,-1364,-485,-1478,-300,-42,378,156,-280
1,4886266,423,-1364,-485,-1478,-300,-42,378,156,-280
1,4886275,422,-1365,-494,-1477,-301,-41,378,156,-280
1,4886282,422,-1365,-494,-1477,-301,-41,378,156,-280
1,4886289,422,-1365,-494,-1477,-301,-41,378,156,-280
1,4886296,425,-1365,-491,-1483,-300,-40,378,156,-280
1,4886303,425,-1365,-491,-1483,-300,-40,378,156,-280
1,4886310,425,-1365,-491,-1483,-300,-40,378,156,-280
1,4886317,425,-1365,-493,-1482,-299,-39,378,156,-280
1,4886324,425,-1365,-493,-1482,-299,-39,378,156,-280
1,4886331,425,-1365,-493,-1482,-299,-39,378,156,-280
1,4886337,424,-1364,-494,-1483,-301,-44,374,152,-268
1,4886344,424,-1364,-494,-1483,-301,-44,374,152,-268
1,4886351,424,-1364,-494,-1483,-301,-44,374,152,-268
1,4886358,425,-1363,-494,-1478,-305,-43,374,152,-268
1,4886366,425,-1363,-494,-1478,-305,-43,374,152,-268
1,4886372,425,-1363,-494,-1478,-305,-43,374,152,-268
1,4886377,424,-1366,-491,-1485,-299,-41,374,152,-268
1,4886384,424,-1366,-491,-1485,-299,-41,374,152,-268
1,4886391,424,-1366,-491,-1485,-299,-41,374,152,-268
1,4886398,424,-1363,-496,-1489,-308,-36,374,152,-268
1,4886406,424,-1363,-496,-1489,-308,-36,374,152,-268
1,4886412,424,-1363,-496,-1489,-308,-36,374,152,-268
1,4886418,424,-1365,-491,-1490,-300,-36,374,152,-268
1,4886422,424,-1365,-491,-1490,-300,-36,374,152,-268
1,4886431,424,-1365,-491,-1490,-300,-36,374,152,-268
1,4886438,425,-1360,-489,-1484,-303,-43,374,152,-268
1,4886445,425,-1360,-489,-1484,-303,-43,374,152,-268
1,4886451,425,-1360,-489,-1484,-303,-43,374,152,-268
1,4886458,427,-1365,-492,-1491,-304,-37,383,151,-279
1,4886465,427,-1365,-492,-1491,-304,-37,383,151,-279
1,4886471,427,-1365,-492,-1491,-304,-37,383,151,-279
1,4886478,426,-1365,-489,-1478,-303,-38,383,151,-279
1,4886483,426,-1365,-489,-1478,-303,-38,383,151,-279
1,4886489,426,-1365,-489,-1478,-303,-38,383,151,-279
1,4886493,426,-1365,-492,-1482,-304,-41,383,151,-279
1,4886498,426,-1365,-492,-1482,-304,-41,383,151,-279
1,4886503,426,-1365,-492,-1482,-304,-41,383,151,-279
1,4886511,426,-1365,-492,-1482,-304,-41,383,151,-279
1,4886517,425,-1364,-492,-1481,-308,-39,383,151,-279
1,4886524,425,-1364,-492,-1481,-308,-39,383,151,-279
1,4886533,425,-1364,-492,-1481,-308,-39,383,151,-279
1,4886539,425,-1367,-495,-1483,-297,-37,383,151,-279
1,4886547,425,-1367,-495,-1483,-297,-37,383,151,-279
1,4886553,425,-1362,-489,-1483,-307,-42,383,151,-279
1,4886558,425,-1362,-489,-1483,-307,-42,383,151,-279
1,4886566,425,-1362,-489,-1483,-307,-42,383,151,-279
1,4886575,422,-1365,-488,-1487,-297,-36,383,151,-279
1,4886582,422,-1365,-488,-1487,-297,-36,383,151,-279
1,4886590,422,-1365,-488,-1487,-297,-36,383,151,-279
1,4886596,423,-1364,-489,-1494,-308,-37,382,148,-278
1,4886601,423,-1364,-489,-1494,-308,-37,382,148,-278
1,4886608,423,-1364,-489,-1494,-308,-37,382,148,-278
1,4886617,424,-1366,-493,-1481,-308,-41,382,148,-278
1,4886624,424,-1366,-493,-1481,-308,-41,382,148,-278
1,4886632,424,-1366,-493,-1481,-308,-41,382,148,-278
1,4886638,424,-1364,-490,-1482,-309,-39,382,148,-278
1,4886645,424,-1364,-490,-1482,-309,-39,382,148,-278
1,4886652,424,-1364,-490,-1482,-309,-39,382,148,-278
1,4886661,424,-1365,-491,-1489,-298,-38,382,148,-278
1,4886668,424,-1365,-491,-1489,-298,-38,382,148,-278
1,4886673,428,-1365,-487,-1488,-300,-42,382,148,-278
1,4886680,428,-1365,-487,-1488,-300,-42,382,148,-278
1,4886685,428,-1365,-487,-1488,-300,-42,382,148,-278
1,4886690,428,-1365,-487,-1488,-300,-42,382,148,-278
1,4886695,425,-1366,-485,-1481,-302,-49,382,148,-278
1,4886701,425,-1366,-485,-1481,-302,-49,382,148,-278
1,4886706,425,-1366,-485,-1481,-302,-49,382,148,-278
1,4886711,425,-1366,-485,-1481,-302,-49,382,148,-278
1,4886716,424,-1367,-485,-1482,-309,-44,381,151,-275
1,4886721,424,-1367,-485,-1482,-309,-44,381,151,-275
1,4886726,424,-1367,-485,-1482,-309,-44,381,151,-275
1,4886733,421,-1365,-492,-1480,-312,-38,381,151,-275
1,4886739,421,-1365,-492,-1480,-312,-38,381,151,-275
1,4886747,421,-1365,-492,-1480,-312,-38,381,151,-275
1,4886754,423,-1363,-490,-1486,-307,-39,381,151,-275
1,4886762,423,-1363,-490,-1486,-307,-39,381,151,-275
1,4886769,423,-1363,-490,-1486,-307,-39,381,151,-275
1,4886775,422,-1369,-495,-1483,-301,-37,381,151,-275
1,4886782,422,-1369,-495,-1483,-301,-37,381,151,-275
1,4886789,422,-1369,-495,-1483,-301,-37,381,151,-275
1,4886796,424,-1365,-491,-1478,-298,-43,381,151,-275
1,4886803,424,-1365,-491,-1478,-298,-43,381,151,-275
1,4886810,424,-1365,-491,-1478,-298,-43,381,151,-275
1,4886816,424,-1368,-493,-1486,-302,-37,381,151,-275
1,4886824,424,-1368,-493,-1486,-302,-37,381,151,-275
1,4886831,424,-1368,-493,-1486,-302,-37,381,151,-275
1,4886839,425,-1364,-488,-1489,-302,-37,382,152,-268
1,4886844,425,-1364,-488,-1489,-302,-37,382,152,-268
1,4886852,425,-1364,-488,-1489,-302,-37,382,152,-268
1,4886860,422,-1364,-484,-1480,-306,-45,382,152,-268
1,4886866,422,-1364,-484,-1480,-306,-45,382,152,-268
1,4886874,420,-1365,-490,-1480,-303,-43,382,152,-268
1,4886881,420,-1365,-490,-1480,-303,-43,382,152,-268
1,4886888,420,-1365,-490,-1480,-303,-43,382,152,-268
1,4886894,420,-1365,-489,-1486,-296,-49,382,152,-268
1,4886899,420,-1365,-489,-1486,-296,-49,382,152,-268
1,4886904,420,-1365,-489,-1486,-296,-49,382,152,-268
1,4886909,420,-1365,-489,-1486,-296,-49,382,152,-268
1,4886918,420,-1363,-495,-1488,-304,-41,382,152,-268
1,4886926,420,-1363,-495,-1488,-304,-41,382,152,-268
1,4886934,425,-1364,-494,-1490,-304,-47,382,152,-268
1,4886939,425,-1364,-494,-1490,-304,-47,382,152,-268
1,4886946,425,-1364,-494,-1490,-304,-47,382,152,-268
1,4886953,423,-1362,-494,-1482,-304,-39,380,148,-268
1,4886961,423,-1362,-494,-1482,-304,-39,380,148,-280
1,4886969,423,-1362,-494,-1482,-304,-39,380,148,-280
1,4886976,423,-1363,-489,-1478,-303,-37,380,148,-280
1,4886983,423,-1363,-489,-1478,-303,-37,380,148,-280
1,4886990,423,-1363,-489,-1478,-303,-37,380,148,-280
1,4886996,424,-1365,-492,-1484,-304,-38,380,148,-280
1,4887004,424,-1365,-492,-1484,-304,-38,380,148,-280
1,4887011,424,-1365,-492,-1484,-304,-38,380,148,-280
1,4887019,422,-1364,-488,-1486,-307,-39,380,148,-280
1,4887025,422,-1364,-488,-1486,-307,-39,380,148,-280
1,4887032,422,-1364,-488,-1486,-307,-39,380,148,-280
1,4887038,420,-1367,-493,-1488,-304,-35,380,148,-280
1,4887045,420,-1367,-493,-1488,-304,-35,380,148,-280
1,4887052,420,-1367,-493,-1488,-304,-35,380,148,-280
1,4887058,426,-1366,-495,-1482,-300,-41,380,148,-280
1,4887065,426,-1366,-495,-1482,-300,-41,380,148,-280
1,4887073,424,-1364,-495,-1480,-303,-40,380,148,-280
1,4887080,424,-1364,-495,-1480,-303,-40,380,148,-280
1,4887088,424,-1364,-495,-1480,-303,-40,380,148,-280
1,4887095,424,-1365,-485,-1481,-297,-37,385,161,-279
1,4887101,424,-1365,-485,-1481,-297,-37,385,161,-279
1,4887109,424,-1365,-485,-1481,-297,-37,385,161,-279
1,4887116,422,-1368,-492,-1495,-302,-38,385,161,-279
1,4887122,422,-1368,-492,-1495,-302,-38,385,161,-279
1,4887129,422,-1368,-492,-1495,-302,-38,385,161,-279
1,4887137,423,-1364,-493,-1487,-296,-35,385,161,-279
1,4887144,423,-1364,-493,-1487,-296,-35,385,161,-279
1,4887151,423,-1364,-493,-1487,-296,-35,385,161,-279
1,4887158,426,-1363,-490,-1481,-300,-30,385,161,-279
1,4887165,426,-1363,-490,-1481,-300,-30,385,161,-279
1,4887172,426,-1363,-490,-1481,-300,-30,385,161,-279
1,4887178,425,-1363,-491,-1482,-300,-39,385,161,-279
1,4887186,425,-1363,-491,-1482,-300,-39,385,161,-279
1,4887194,421,-1363,-491,-1485,-295,-32,385,161,-279
1,4887201,421,-1363,-491,-1485,-295,-32,385,161,-279
1,4887207,421,-1363,-491,-1485,-295,-32,385,161,-279
1,4887215,424,-1365,-488,-1486,-305,-42,380,156,-270
1,4887222,424,-1365,-488,-1486,-305,-42,380,156,-270
1,4887229,424,-1365,-488,-1486,-305,-42,380,156,-270
1,4887236,424,-1363,-492,-1478,-302,-39,380,156,-270
1,4887243,424,-1363,-492,-1478,-302,-39,380,156,-270
1,4887248,424,-1363,-492,-1478,-302,-39,380,156,-270
1,4887255,424,-1364,-496,-1489,-303,-32,380,156,-270
1,4887262,424,-1364,-496,-1489,-303,-32,380,156,-270
1,4887268,424,-1364,-496,-1489,-303,-32,380,156,-270
1,4887274,423,-1364,-495,-1485,-295,-40,380,156,-270
1,4887281,423,-1364,-495,-1485,-295,-40,380,156,-270
1,4887287,423,-1364,-495,-1485,-295,-40,380,156,-270
1,4887293,425,-1365,-490,-1484,-302,-43,380,156,-270
1,4887300,425,-1365,-490,-1484,-302,-43,380,156,-270
1,4887307,425,-1365,-490,-1484,-302,-43,380,156,-270
1,4887315,424,-1366,-497,-1480,-303,-40,380,156,-270
1,4887321,424,-1366,-497,-1480,-303,-40,380,156,-270
1,4887327,424,-1366,-497,-1480,-303,-40,380,156,-270
1,4887332,424,-1366,-497,-1480,-303,-40,380,156,-270
1,4887342,424,-1365,-488,-1487,-298,-41,377,155,-271
1,4887347,424,-1365,-488,-1487,-298,-41,377,155,-271
1,4887354,422,-1363,-493,-1489,-312,-38,377,155,-271
1,4887362,422,-1363,-493,-1489,-312,-38,377,155,-271
1,4887368,422,-1363,-493,-1489,-312,-38,377,155,-271
1,4887374,423,-1363,-491,-1488,-306,-37,377,155,-271
1,4887382,423,-1363,-491,-1488,-306,-37,377,155,-271
1,4887389,423,-1363,-491,-1488,-306,-37,377,155,-271
1,4887395,423,-1361,-495,-1482,-298,-32,377,155,-271
1,4887403,423,-1361,-495,-1482,-298,-32,377,155,-271
1,4887408,423,-1361,-495,-1482,-298,-32,377,155,-271
1,4887413,422,-1366,-491,-1490,-299,-42,377,155,-271
1,4887419,422,-1366,-491,-1490,-299,-42,377,155,-271
1,4887426,422,-1366,-491,-1490,-299,-42,377,155,-271
1,4887433,424,-1366,-489,-1478,-304,-41,377,155,-271
1,4887439,424,-1366,-489,-1478,-304,-41,377,155,-271
1,4887446,424,-1366,-489,-1478,-304,-41,377,155,-271
1,4887454,423,-1366,-492,-1491,-304,-48,387,151,-277
1,4887461,423,-1366,-492,-1491,-304,-48,387,151,-277
1,4887469,423,-1366,-492,-1491,-304,-48,387,151,-277
1,4887476,427,-1367,-488,-1485,-302,-50,387,151,-277
1,4887482,427,-1367,-488,-1485,-302,-50,387,151,-277
1,4887487,427,-1367,-488,-1485,-302,-50,387,151,-277
1,4887492,427,-1367,-488,-1485,-302,-50,387,151,-277
1,4887497,421,-1365,-487,-1488,-299,-44,387,151,-277
1,4887502,421,-1365,-487,-1488,-299,-44,387,151,-277
1,4887507,421,-1365,-487,-1488,-299,-44,387,151,-277
1,4887515,423,-1367,-495,-1484,-295,-40,387,151,-277
1,4887523,423,-1367,-495,-1484,-295,-40,387,151,-277
1,4887530,423,-1367,-495,-1484,-295,-40,387,151,-277
1,4887537,425,-1366,-491,-1486,-308,-42,387,151,-277
1,4887544,425,-1366,-491,-1486,-308,-42,387,151,-277
1,4887553,425,-1366,-491,-1486,-308,-42,387,151,-277
1,4887560,425,-1366,-491,-1483,-305,-38,387,151,-277
1,4887567,425,-1366,-491,-1483,-305,-38,387,151,-277
1,4887574,425,-1367,-494,-1490,-307,-37,387,151,-277
1,4887582,425,-1367,-494,-1490,-307,-37,387,151,-277
1,4887589,425,-1367,-494,-1490,-307,-37,387,151,-277
1,4887597,421,-1370,-491,-1485,-295,-42,373,155,-269
1,4887604,421,-1370,-491,-1485,-295,-42,373,155,-269
1,4887611,421,-1370,-491,-1485,-295,-42,373,155,-269
1,4887618,424,-1364,-494,-1489,-300,-44,373,155,-269
1,4887624,424,-1364,-494,-1489,-300,-44,373,155,-269
1,4887632,424,-1364,-494,-1489,-300,-44,373,155,-269
1,4887639,422,-1362,-493,-1493,-297,-36,373,155,-269
1,4887645,422,-1362,-493,-1493,-297,-36,373,155,-269
1,4887650,422,-1362,-493,-1493,-297,-36,373,155,-269
1,4887656,423,-1364,-493,-1485,-306,-34,373,155,-269
1,4887664,423,-1364,-493,-1485,-306,-34,373,155,-269
1,4887672,423,-1364,-493,-1485,-306,-34,373,155,-269
1,4887680,424,-1365,-492,-1477,-298,-37,373,155,-269
1,4887685,424,-1365,-492,-1477,-298,-37,373,155,-269
1,4887690,424,-1365,-492,-1477,-298,-37,373,155,-269
1,4887695,424,-1366,-491,-1487,-308,-40,373,155,-269
1,4887700,424,-1366,-491,-1487,-308,-40,373,155,-269
1,4887705,424,-1366,-491,-1487,-308,-40,373,155,-269
1,4887711,424,-1366,-491,-1487,-308,-40,373,155,-269
1,4887716,423,-1363,-493,-1480,-307,-42,382,148,-272
1,4887721,423,-1363,-493,-1480,-307,-42,382,148,-272
1,4887727,423,-1363,-493,-1480,-307,-42,382,148,-272
1,4887734,421,-1366,-496,-1481,-306,-34,382,148,-272
1,4887740,421,-1366,-496,-1481,-306,-34,382,148,-272
1,4887748,421,-1366,-496,-1481,-306,-34,382,148,-272
1,4887755,424,-1364,-493,-1481,-310,-45,382,148,-272
1,4887762,424,-1364,-493,-1481,-310,-45,382,148,-272
1,4887768,424,-1364,-493,-1481,-310,-45,382,148,-272
1,4887775,427,-1363,-485,-1484,-307,-40,382,148,-272
1,4887783,427,-1363,-485,-1484,-307,-40,382,148,-272
1,4887791,427,-1363,-485,-1484,-307,-40,382,148,-272
1,4887798,422,-1362,-488,-1487,-305,-38,382,148,-272
1,4887805,422,-1362,-488,-1487,-305,-38,382,148,-272
1,4887813,422,-1362,-488,-1487,-305,-38,382,148,-272
1,4887820,428,-1363,-487,-1483,-300,-37,382,148,-272
1,4887828,428,-1363,-487,-1483,-300,-37,382,148,-272
1,4887834,426,-1364,-490,-1482,-305,-44,383,157,-271
1,4887841,426,-1364,-490,-1482,-305,-44,383,157,-271
1,4887849,426,-1364,-490,-1482,-305,-44,383,157,-271
1,4887857,425,-1365,-492,-1482,-308,-35,383,157,-271
1,4887864,425,-1365,-492,-1482,-308,-35,383,157,-271
1,4887871,425,-1365,-492,-1482,-308,-35,383,157,-271
1,4887878,425,-1365,-492,-1482,-308,-35,383,157,-271
1,4887884,425,-1365,-492,-1482,-308,-35,383,157,-271
1,4887889,425,-1365,-492,-1482,-308,-35,383,157,-271
1,4887895,423,-1366,-488,-1493,-298,-39,383,157,-271
1,4887900,423,-1366,-488,-1493,-298,-39,383,157,-271
1,4887908,423,-1366,-488,-1493,-298,-39,383,157,-271
1,4887914,424,-1365,-491,-1491,-302,-45,383,157,-271
1,4887922,424,-1365,-491,-1491,-302,-45,383,157,-271
1,4887929,424,-1365,-491,-1491,-302,-45,383,157,-271
1,4887937,423,-1364,-492,-1477,-304,-45,383,157,-271
1,4887944,423,-1364,-492,-1477,-304,-45,383,157,-271
1,4887952,423,-1364,-492,-1477,-304,-45,383,157,-271
1,4887958,422,-1361,-490,-1484,-309,-43,384,148,-272
1,4887965,422,-1361,-490,-1484,-309,-43,384,148,-272
1,4887972,422,-1361,-490,-1484,-309,-43,384,148,-272
1,4887981,425,-1363,-487,-1490,-299,-43,384,148,-272
1,4887988,425,-1363,-487,-1490,-299,-43,384,148,-272
1,4887994,424,-1363,-487,-1488,-303,-44,384,148,-272
1,4888000,424,-1363,-487,-1488,-303,-44,384,148,-272
1,4888007,424,-1363,-487,-1488,-303,-44,384,148,-272
1,4888014,421,-1366,-491,-1483,-303,-44,384,148,-272
1,4888022,421,-1366,-491,-1483,-303,-44,384,148,-272
1,4888029,421,-1366,-491,-1483,-303,-44,384,148,-272
1,4888036,424,-1368,-493,-1485,-309,-39,384,148,-272
1,4888043,424,-1368,-493,-1485,-309,-39,384,148,-272
1,4888049,424,-1368,-493,-1485,-309,-39,384,148,-272
1,4888058,423,-1363,-487,-1486,-309,-36,384,148,-272
1,4888066,423,-1363,-487,-1486,-309,-36,384,148,-272
1,4888074,424,-1366,-486,-1490,-304,-40,384,148,-272
1,4888080,424,-1366,-486,-1490,-304,-40,384,148,-272
1,4888087,424,-1366,-486,-1490,-304,-40,384,148,-272
1,4888093,424,-1366,-486,-1490,-304,-40,384,148,-272
1,4888099,423,-1362,-488,-1490,-304,-43,383,153,-279
1,4888107,423,-1362,-488,-1490,-304,-43,383,153,-279
1,4888115,423,-1363,-492,-1487,-304,-46,383,153,-279
1,4888122,423,-1363,-492,-1487,-304,-46,383,153,-279
1,4888128,423,-1363,-492,-1487,-304,-46,383,153,-279
1,4888136,422,-1363,-492,-1490,-305,-44,383,153,-279
1,4888142,422,-1363,-492,-1490,-305,-44,383,153,-279
1,4888150,422,-1363,-492,-1490,-305,-44,383,153,-279
1,4888158,425,-1364,-493,-1492,-303,-41,383,153,-279
1,4888164,425,-1364,-493,-1492,-303,-41,383,153,-279
1,4888171,425,-1364,-493,-1492,-303,-41,383,153,-279
1,4888177,425,-1369,-490,-1486,-302,-35,383,153,-279
1,4888183,425,-1369,-490,-1486,-302,-35,383,153,-279
1,4888192,425,-1369,-490,-1486,-302,-35,383,153,-279
1,4888200,425,-1366,-496,-1488,-296,-40,383,153,-279
1,4888208,425,-1366,-496,-1488,-296,-40,383,153,-279
1,4888216,425,-1365,-488,-1478,-305,-34,378,160,-274
1,4888222,425,-1365,-488,-1478,-305,-34,378,160,-274
1,4888230,425,-1365,-488,-1478,-305,-34,378,160,-274
1,4888237,424,-1364,-488,-1480,-307,-39,378,160,-274
1,4888244,424,-1364,-488,-1480,-307,-39,378,160,-274
1,4888251,424,-1364,-488,-1480,-307,-39,378,160,-274
1,4888258,426,-1363,-493,-1485,-305,-40,378,160,-274
1,4888266,426,-1363,-493,-1485,-305,-40,378,160,-274
1,4888274,423,-1366,-491,-1486,-302,-42,378,160,-274
1,4888281,423,-1366,-491,-1486,-302,-42,378,160,-274
1,4888289,423,-1366,-491,-1486,-302,-42,378,160,-274
1,4888294,423,-1364,-493,-1486,-308,-38,378,160,-274
1,4888300,423,-1364,-493,-1486,-308,-38,378,160,-274
1,4888308,423,-1364,-493,-1486,-308,-38,378,160,-274
1,4888315,425,-1368,-492,-1489,-306,-39,378,160,-274
1,4888322,425,-1368,-492,-1489,-306,-39,378,160,-274
1,4888329,425,-1368,-492,-1489,-306,-39,378,160,-274
1,4888335,421,-1362,-490,-1474,-303,-38,388,160,-266
1,4888342,421,-1362,-490,-1474,-303,-38,388,160,-266
1,4888350,421,-1362,-490,-1474,-303,-38,388,160,-266
1,4888356,425,-1364,-488,-1481,-297,-39,388,160,-266
1,4888365,425,-1364,-488,-1481,-297,-39,388,160,-266
1,4888371,425,-1364,-488,-1481,-297,-39,388,160,-266
1,4888376,424,-1367,-493,-1486,-300,-44,388,160,-266
1,4888381,424,-1367,-493,-1486,-300,-44,388,160,-266
1,4888388,424,-1367,-493,-1486,-300,-44,388,160,-266
1,4888394,423,-1369,-488,-1488,-306,-34,388,160,-266
1,4888400,423,-1369,-488,-1488,-306,-34,388,160,-266
1,4888409,423,-1369,-488,-1488,-306,-34,388,160,-266
1,4888415,422,-1366,-498,-1487,-303,-33,388,160,-266
1,4888422,422,-1366,-498,-1487,-303,-33,388,160,-266
1,4888429,422,-1366,-498,-1487,-303,-33,388,160,-266
1,4888436,423,-1365,-491,-1486,-304,-40,388,160,-266
1,4888443,423,-1365,-491,-1486,-304,-40,388,160,-266
1,4888450,423,-1365,-491,-1486,-304,-40,388,160,-266
1,4888457,426,-1364,-492,-1489,-316,-37,380,148,-276
1,4888464,426,-1364,-492,-1489,-316,-37,380,148,-276
1,4888469,426,-1364,-492,-1489,-316,-37,380,148,-276
1,4888476,423,-1364,-488,-1478,-309,-40,380,148,-276
1,4888481,423,-1364,-488,-1478,-309,-40,380,148,-276
1,4888486,423,-1364,-488,-1478,-309,-40,380,148,-276
1,4888492,423,-1364,-488,-1478,-309,-40,380,148,-276
1,4888497,422,-1361,-493,-1478,-302,-37,380,148,-276
1,4888502,422,-1361,-493,-1478,-302,-37,380,148,-276
1,4888507,422,-1361,-493,-1478,-302,-37,380,148,-276
1,4888515,424,-1363,-494,-1485,-306,-46,380,148,-276
1,4888522,424,-1363,-494,-1485,-306,-46,380,148,-276
1,4888529,424,-1363,-494,-1485,-306,-46,380,148,-276
1,4888536,423,-1366,-494,-1484,-302,-39,380,148,-276
1,4888543,423,-1366,-494,-1484,-302,-39,380,148,-276
1,4888551,423,-1366,-494,-1484,-302,-39,380,148,-276
1,4888558,426,-1363,-492,-1484,-303,-43,380,148,-276
1,4888565,426,-1363,-492,-1484,-303,-43,380,148,-276
1,4888572,426,-1363,-492,-1484,-303,-43,380,148,-276
1,4888580,426,-1367,-490,-1478,-300,-44,384,152,-274
1,4888586,426,-1367,-490,-1478,-300,-44,384,152,-274
1,4888594,422,-1364,-494,-1484,-307,-52,384,152,-274
1,4888602,422,-1364,-494,-1484,-307,-52,384,152,-274
1,4888608,422,-1364,-494,-1484,-307,-52,384,152,-274
1,4888615,424,-1365,-492,-1482,-307,-43,384,152,-274
1,4888623,424,-1365,-492,-1482,-307,-43,384,152,-274
1,4888631,424,-1365,-492,-1482,-307,-43,384,152,-274
1,4888636,424,-1366,-488,-1478,-308,-38,384,152,-274
1,4888644,424,-1366,-488,-1478,-308,-38,384,152,-274
1,4888652,424,-1366,-488,-1478,-308,-38,384,152,-274
1,4888659,424,-1366,-491,-1481,-307,-39,384,152,-274
1,4888666,424,-1366,-491,-1481,-307,-39,384,152,-274
1,4888672,424,-1366,-491,-1481,-307,-39,384,152,-274
1,4888679,424,-1365,-495,-1491,-303,-41,384,152,-274
1,4888684,424,-1365,-495,-1491,-303,-41,384,152,-274
1,4888690,424,-1365,-495,-1491,-303,-41,384,152,-274
1,4888695,422,-1364,-493,-1486,-306,-41,384,152,-274
1,4888700,422,-1364,-493,-1486,-306,-41,384,152,-274
1,4888706,422,-1364,-493,-1486,-306,-41,384,152,-274
1,4888711,422,-1364,-493,-1486,-306,-41,384,152,-274
1,4888716,424,-1362,-490,-1479,-310,-47,379,157,-273
1,4888721,424,-1362,-490,-1479,-310,-47,379,157,-273
1,4888725,424,-1362,-490,-1479,-310,-47,379,157,-273
1,4888732,424,-1362,-490,-1479,-310,-47,379,157,-273
1,4888739,425,-1363,-491,-1484,-307,-33,379,157,-273
1,4888747,425,-1363,-491,-1484,-307,-33,379,157,-273
1,4888754,425,-1363,-491,-1484,-307,-33,379,157,-273
1,4888761,423,-1367,-486,-1486,-302,-40,379,157,-273
1,4888769,423,-1367,-486,-1486,-302,-40,379,157,-273
1,4888777,425,-1364,-492,-1484,-302,-41,379,157,-273
1,4888783,425,-1364,-492,-1484,-302,-41,379,157,-273
1,4888792,425,-1364,-492,-1484,-302,-41,379,157,-273
1,4888798,424,-1363,-492,-1484,-301,-40,379,157,-273
1,4888804,424,-1363,-492,-1484,-301,-40,379,157,-273
1,4888812,424,-1363,-492,-1484,-301,-40,379,157,-273
1,4888820,426,-1366,-492,-1486,-297,-41,379,157,-273
1,4888828,426,-1366,-492,-1486,-297,-41,379,157,-273
1,4888835,424,-1364,-487,-1484,-296,-41,380,154,-270
1,4888840,424,-1364,-487,-1484,-296,-41,380,154,-270
1,4888847,424,-1364,-487,-1484,-296,-41,380,154,-270
1,4888853,424,-1364,-487,-1484,-296,-41,380,154,-270
1,4888858,424,-1364,-487,-1484,-296,-41,380,154,-270
1,4888863,424,-1364,-487,-1484,-296,-41,380,154,-270
1,4888869,424,-1364,-487,-1484,-296,-41,380,154,-270
1,4888876,425,-1362,-486,-1489,-306,-37,380,154,-270
1,4888882,425,-1362,-486,-1489,-306,-37,380,154,-270
1,4888888,425,-1362,-486,-1489,-306,-37,380,154,-270
1,4888895,422,-1365,-490,-1485,-307,-43,380,154,-270
1,4888902,422,-1365,-490,-1485,-307,-43,380,154,-270
1,4888909,422,-1365,-490,-1485,-307,-43,380,154,-270
1,4888916,424,-1364,-489,-1492,-306,-44,380,154,-270
1,4888924,424,-1364,-489,-1492,-306,-44,380,154,-270
1,4888930,424,-1364,-489,-1492,-306,-44,380,154,-270
1,4888936,426,-1365,-491,-1484,-301,-44,380,154,-270
1,4888943,426,-1365,-491,-1484,-301,-44,380,154,-270
1,4888949,426,-1365,-491,-1484,-301,-44,380,154,-270
1,4888954,427,-1365,-488,-1484,-299,-42,378,152,-282
1,4888963,427,-1365,-488,-1484,-299,-42,378,152,-282
1,4888970,427,-1365,-488,-1484,-299,-42,378,152,-282
1,4888978,423,-1365,-489,-1487,-302,-38,378,152,-282
1,4888985,423,-1365,-489,-1487,-302,-38,378,152,-282
1,4888992,423,-1365,-489,-1487,-302,-38,378,152,-282
1,4888999,426,-1365,-485,-1491,-310,-44,378,152,-282
1,4889008,426,-1365,-485,-1491,-310,-44,378,152,-282
1,4889014,424,-1364,-490,-1488,-304,-37,378,152,-282
1,4889021,424,-1364,-490,-1488,-304,-37,378,152,-282
1,4889029,424,-1364,-490,-1488,-304,-37,378,152,-282
1,4889035,425,-1364,-489,-1484,-297,-33,378,152,-282
1,4889041,425,-1364,-489,-1484,-297,-33,378,152,-282
1,4889049,425,-1364,-489,-1484,-297,-33,378,152,-282
1,4889056,426,-1365,-494,-1481,-304,-36,378,152,-282
1,4889063,426,-1365,-494,-1481,-304,-36,378,152,-282
1,4889070,426,-1365,-494,-1481,-304,-36,378,152,-282
1,4889075,422,-1366,-482,-1481,-304,-40,377,155,-277
1,4889083,422,-1366,-482,-1481,-304,-40,377,155,-277
1,4889091,422,-1366,-482,-1481,-304,-40,377,155,-277
1,4889098,425,-1367,-490,-1482,-303,-38,377,155,-277
1,4889105,425,-1367,-490,-1482,-303,-38,377,155,-277
1,4889113,425,-1367,-490,-1482,-303,-38,377,155,-277
1,4889121,424,-1364,-491,-1479,-303,-36,377,155,-277
1,4889128,424,-1364,-491,-1479,-303,-36,377,155,-277
1,4889137,423,-1364,-491,-1489,-307,-38,377,155,-277
1,4889142,423,-1364,-491,-1489,-307,-38,377,155,-277
1,4889149,423,-1364,-491,-1489,-307,-38,377,155,-277
1,4889155,425,-1363,-490,-1486,-307,-37,377,155,-277
1,4889162,425,-1363,-490,-1486,-307,-37,377,155,-277
1,4889169,425,-1363,-490,-1486,-307,-37,377,155,-277
1,4889177,422,-1365,-494,-1482,-304,-37,377,155,-277
1,4889184,422,-1365,-494,-1482,-304,-37,377,155,-277
1,4889191,422,-1365,-494,-1482,-304,-37,377,155,-277
1,4889199,422,-1364,-490,-1484,-303,-41,377,155,-277
1,4889205,422,-1364,-490,-1484,-303,-41,377,155,-277
1,4889212,422,-1364,-490,-1484,-303,-41,377,155,-277
1,4889219,424,-1367,-492,-1483,-303,-41,379,151,-275
1,4889226,424,-1367,-492,-1483,-303,-41,379,151,-275
1,4889234,424,-1366,-489,-1488,-304,-43,379,151,-275
1,4889239,424,-1366,-489,-1488,-304,-43,379,151,-275
1,4889246,424,-1366,-489,-1488,-304,-43,379,151,-275
1,4889252,424,-1366,-489,-1488,-304,-43,379,151,-275
1,4889261,423,-1365,-493,-1483,-300,-38,379,151,-275
1,4889268,423,-1365,-493,-1483,-300,-38,379,151,-275
1,4889275,423,-1368,-494,-1476,-301,-39,379,151,-275
1,4889282,423,-1368,-494,-1476,-301,-39,379,151,-275
1,4889288,423,-1368,-494,-1476,-301,-39,379,151,-275
1,4889296,425,-1363,-491,-1486,-304,-42,379,151,-275
1,4889304,425,-1363,-491,-1486,-304,-42,379,151,-275
1,4889311,425,-1363,-491,-1486,-304,-42,379,151,-275
1,4889318,422,-1364,-487,-1494,-298,-38,379,151,-275
1,4889323,422,-1364,-487,-1494,-298,-38,379,151,-275
1,4889328,422,-1364,-487,-1494,-298,-38,379,151,-275
1,4889334,424,-1365,-484,-1482,-300,-46,378,156,-276
1,4889339,424,-1365,-484,-1482,-300,-46,378,156,-276
1,4889347,424,-1365,-484,-1482,-300,-46,378,156,-276
1,4889354,423,-1367,-492,-1477,-299,-44,378,156,-276
1,4889361,423,-1367,-492,-1477,-299,-44,378,156,-276
1,4889368,423,-1367,-492,-1477,-299,-44,378,156,-276
1,4889373,423,-1366,-494,-1484,-303,-42,378,156,-276
1,4889381,423,-1366,-494,-1484,-303,-42,378,156,-276
1,4889389,423,-1366,-494,-1484,-303,-42,378,156,-276
1,4889397,421,-1366,-496,-1481,-309,-33,378,156,-276
1,4889403,421,-1366,-496,-1481,-309,-33,378,156,-276
1,4889410,421,-1366,-496,-1481,-309,-33,378,156,-276
1,4889417,420,-1367,-495,-1487,-307,-48,378,156,-276
1,4889425,420,-1367,-495,-1487,-307,-48,378,156,-276
1,4889433,420,-1367,-495,-1487,-307,-48,378,156,-276
1,4889439,426,-1367,-494,-1491,-303,-40,378,156,-276
1,4889447,426,-1367,-494,-1491,-303,-40,378,156,-276
1,4889455,426,-1367,-494,-1491,-303,-40,384,146,-278
1,4889462,426,-1367,-494,-1491,-303,-40,384,146,-278
1,4889469,426,-1367,-494,-1491,-303,-40,384,146,-278
1,4889476,424,-1362,-490,-1491,-304,-39,384,146,-278
1,4889481,424,-1362,-490,-1491,-304,-39,384,146,-278
1,4889486,424,-1362,-490,-1491,-304,-39,384,146,-278
1,4889491,424,-1362,-490,-1491,-304,-39,384,146,-278
