imu,time,ax,ay,az,gx,gy,gz,mx,my,mz
1,5336326,425,-1367,-486,-1484,-305,-45,381,157,-273
1,5336334,425,-1367,-486,-1484,-305,-45,381,157,-273
1,5336342,425,-1366,-492,-1479,-301,-41,381,157,-273
1,5336350,425,-1366,-492,-1479,-301,-41,381,157,-273
1,5336359,425,-1366,-492,-1479,-301,-41,381,157,-273
1,5336368,425,-1366,-494,-1485,-295,-36,381,157,-273
1,5336376,425,-1366,-494,-1485,-295,-36,381,157,-273
1,5336384,425,-1365,-490,-1490,-296,-40,381,157,-273
1,5336392,425,-1365,-490,-1490,-296,-40,381,157,-273
1,5336400,423,-1366,-493,-1492,-301,-36,381,157,-273
1,5336408,423,-1366,-493,-1492,-301,-36,381,157,-273
1,5336416,423,-1366,-493,-1492,-301,-36,381,157,-273
1,5336424,421,-1364,-488,-1490,-303,-35,391,165,-271
1,5336432,421,-1364,-488,-1490,-303,-35,391,165,-271
1,5336439,421,-1364,-488,-1490,-303,-35,391,165,-271
1,5336448,424,-1367,-491,-1488,-296,-36,391,165,-271
1,5336455,424,-1367,-491,-1488,-296,-36,391,165,-271
1,5336462,422,-1362,-491,-1491,-297,-43,391,165,-271
1,5336471,422,-1362,-491,-1491,-297,-43,391,165,-271
1,5336478,422,-1362,-491,-1491,-297,-43,391,165,-271
1,5336486,422,-1366,-496,-1482,-298,-38,391,165,-271
1,5336495,422,-1366,-496,-1482,-298,-38,391,165,-271
1,5336503,424,-1364,-490,-1489,-297,-37,391,165,-271
1,5336510,424,-1364,-490,-1489,-297,-37,391,165,-271
1,5336521,426,-1367,-488,-1492,-300,-37,391,165,-271
1,5336525,426,-1367,-488,-1492,-300,-37,391,165,-271
1,5336531,426,-1367,-488,-1492,-300,-37,391,165,-271
1,5336537,426,-1367,-488,-1492,-300,-37,391,165,-271
1,5336542,423,-1366,-488,-1491,-298,-39,375,149,-275
1,5336547,423,-1366,-488,-1491,-298,-39,375,149,-275
1,5336552,423,-1366,-488,-1491,-298,-39,375,149,-275
1,5336557,423,-1366,-488,-1491,-298,-39,375,149,-275
1,5336561,426,-1363,-493,-1493,-300,-44,375,149,-275
1,5336566,426,-1363,-493,-1493,-300,-44,375,149,-275
1,5336572,426,-1363,-493,-1493,-300,-44,375,149,-275
1,5336578,426,-1363,-493,-1493,-300,-44,375,149,-275
1,5336583,422,-1367,-485,-1484,-299,-43,375,149,-275
1,5336589,422,-1367,-485,-1484,-299,-43,375,149,-275
1,5336594,422,-1367,-485,-1484,-299,-43,375,149,-275
1,5336600,422,-1367,-485,-1484,-299,-43,375,149,-275
1,5336606,425,-1365,-487,-1492,-298,-42,375,149,-275
1,5336612,425,-1365,-487,-1492,-298,-42,375,149,-275
1,5336619,425,-1365,-487,-1492,-298,-42,375,149,-275
1,5336625,424,-1362,-491,-1483,-302,-41,375,149,-275
1,5336630,424,-1362,-491,-1483,-302,-41,375,149,-275
1,5336636,424,-1362,-491,-1483,-302,-41,375,149,-275
1,5336643,426,-1366,-492,-1481,-298,-43,375,149,-275
1,5336649,426,-1366,-492,-1481,-298,-43,375,149,-275
1,5336656,426,-1366,-492,-1481,-298,-43,375,149,-275
1,5336663,424,-1364,-488,-1481,-303,-44,379,165,-269
1,5336669,424,-1364,-488,-1481,-303,-44,379,165,-269
1,5336677,424,-1364,-488,-1481,-303,-44,379,165,-269
1,5336682,423,-1365,-490,-1480,-303,-46,379,165,-269
1,5336690,423,-1365,-490,-1480,-303,-46,379,165,-269
1,5336696,423,-1365,-490,-1480,-303,-46,379,165,-269
1,5336704,425,-1366,-489,-1495,-294,-34,379,165,-269
1,5336711,425,-1366,-489,-1495,-294,-34,379,165,-269
1,5336718,425,-1366,-489,-1495,-294,-34,379,165,-269
1,5336725,424,-1364,-493,-1493,-299,-41,379,165,-269
1,5336732,424,-1364,-493,-1493,-299,-41,379,165,-269
1,5336740,424,-1364,-493,-1493,-299,-41,379,165,-269
1,5336748,423,-1365,-494,-1486,-306,-43,379,165,-269
1,5336756,423,-1365,-494,-1486,-306,-43,379,165,-269
1,5336762,423,-1365,-494,-1486,-306,-43,379,165,-269
1,5336770,423,-1365,-494,-1486,-306,-43,379,165,-269
1,5336776,423,-1365,-494,-1486,-306,-43,379,165,-269
1,5336782,423,-1366,-493,-1488,-302,-46,379,165,-269
1,5336791,423,-1366,-493,-1488,-302,-46,379,165,-269
1,5336799,423,-1366,-493,-1488,-302,-46,379,165,-269
1,5336805,424,-1365,-490,-1485,-301,-38,367,153,-271
1,5336813,424,-1365,-490,-1485,-301,-38,367,153,-271
1,5336818,424,-1365,-490,-1485,-301,-38,367,153,-271
1,5336824,422,-1365,-489,-1486,-304,-45,367,153,-271
1,5336833,422,-1365,-489,-1486,-304,-45,367,153,-271
1,5336841,426,-1367,-487,-1489,-303,-49,367,153,-271
1,5336848,426,-1367,-487,-1489,-303,-49,367,153,-271
1,5336855,426,-1367,-487,-1489,-303,-49,367,153,-271
1,5336862,422,-1366,-486,-1495,-302,-42,367,153,-271
1,5336868,422,-1366,-486,-1495,-302,-42,367,153,-271
1,5336877,422,-1366,-486,-1495,-302,-42,367,153,-271
1,5336883,424,-1369,-495,-1495,-296,-45,367,153,-271
1,5336891,424,-1369,-495,-1495,-296,-45,367,153,-271
1,5336899,424,-1369,-495,-1495,-296,-45,367,153,-271
1,5336906,425,-1368,-488,-1485,-302,-50,367,153,-271
1,5336911,425,-1368,-488,-1485,-302,-50,367,153,-271
1,5336919,425,-1368,-488,-1485,-302,-50,367,153,-271
1,5336926,423,-1366,-487,-1485,-305,-45,380,156,-276
1,5336933,423,-1366,-487,-1485,-305,-45,380,156,-276
1,5336940,423,-1366,-487,-1485,-305,-45,380,156,-276
1,5336947,424,-1366,-489,-1478,-299,-47,380,156,-276
1,5336953,424,-1366,-489,-1478,-299,-47,380,156,-276
1,5336963,424,-1366,-493,-1480,-301,-44,380,156,-276
1,5336969,424,-1366,-493,-1480,-301,-44,380,156,-276
1,5336976,424,-1366,-493,-1480,-301,-44,380,156,-276
1,5336982,426,-1368,-494,-1480,-303,-41,380,156,-276
1,5336989,426,-1368,-494,-1480,-303,-41,380,156,-276
1,5336995,426,-1368,-494,-1480,-303,-41,380,156,-276
1,5337000,423,-1365,-490,-1489,-304,-37,380,156,-276
1,5337008,423,-1365,-490,-1489,-304,-37,380,156,-276
1,5337016,423,-1365,-490,-1489,-304,-37,380,156,-276
1,5337023,426,-1366,-489,-1483,-303,-43,380,156,-276
1,5337029,426,-1366,-489,-1483,-303,-43,380,156,-276
1,5337034,426,-1366,-489,-1483,-303,-43,380,156,-276
1,5337039,426,-1366,-489,-1483,-303,-43,380,156,-276
1,5337046,420,-1364,-487,-1484,-306,-47,383,153,-277
1,5337051,420,-1364,-487,-1484,-306,-47,383,153,-277
1,5337058,420,-1364,-487,-1484,-306,-47,383,153,-277
1,5337066,420,-1364,-487,-1484,-306,-47,383,153,-277
1,5337073,420,-1364,-487,-1484,-306,-47,383,153,-277
1,5337079,420,-1364,-487,-1484,-306,-47,383,153,-277
1,5337085,425,-1366,-495,-1482,-308,-43,383,153,-277
1,5337093,425,-1366,-495,-1482,-308,-43,383,153,-277
1,5337100,425,-1366,-495,-1482,-308,-43,383,153,-277
1,5337108,425,-1364,-494,-1484,-299,-38,383,153,-277
1,5337114,425,-1364,-494,-1484,-299,-38,383,153,-277
1,5337120,425,-1364,-494,-1484,-299,-38,383,153,-277
1,5337127,423,-1363,-491,-1487,-301,-44,383,153,-277
1,5337134,423,-1363,-491,-1487,-301,-44,383,153,-277
1,5337141,423,-1366,-489,-1482,-298,-35,383,153,-277
1,5337147,423,-1366,-489,-1482,-298,-35,383,153,-277
1,5337154,423,-1366,-489,-1482,-298,-35,383,153,-277
1,5337161,426,-1363,-484,-1481,-303,-36,373,157,-273
1,5337167,426,-1363,-484,-1481,-303,-36,373,157,-273
1,5337177,426,-1363,-484,-1481,-303,-36,373,157,-273
1,5337184,424,-1365,-480,-1487,-302,-38,373,157,-273
1,5337191,424,-1365,-480,-1487,-302,-38,373,157,-273
1,5337197,424,-1365,-480,-1487,-302,-38,373,157,-273
1,5337204,423,-1364,-491,-1492,-300,-41,373,157,-273
1,5337210,423,-1364,-491,-1492,-300,-41,373,157,-273
1,5337218,423,-1364,-491,-1492,-300,-41,373,157,-273
1,5337226,424,-1363,-493,-1494,-298,-43,373,157,-273
1,5337233,424,-1363,-493,-1494,-298,-43,373,157,-273
1,5337240,424,-1363,-493,-1494,-298,-43,373,157,-273
1,5337248,428,-1365,-489,-1497,-299,-39,373,157,-273
1,5337255,428,-1365,-489,-1497,-299,-39,373,157,-273
1,5337262,425,-1365,-491,-1487,-300,-39,373,157,-273
1,5337269,425,-1365,-491,-1487,-300,-39,373,157,-273
1,5337276,425,-1365,-491,-1487,-300,-39,373,157,-273
1,5337284,426,-1366,-490,-1485,-302,-49,378,158,-274
1,5337291,426,-1366,-490,-1485,-302,-49,378,158,-274
1,5337298,426,-1366,-490,-1485,-302,-49,378,158,-274
1,5337305,425,-1366,-490,-1481,-304,-42,378,158,-274
1,5337313,425,-1366,-490,-1481,-304,-42,378,158,-274
1,5337319,425,-1366,-490,-1481,-304,-42,378,158,-274
1,5337326,426,-1364,-489,-1485,-301,-41,378,158,-274
1,5337331,426,-1364,-489,-1485,-301,-41,378,158,-274
1,5337336,426,-1364,-489,-1485,-301,-41,378,158,-274
1,5337341,426,-1362,-490,-1488,-301,-42,378,158,-274
1,5337349,426,-1362,-490,-1488,-301,-42,378,158,-274
1,5337356,426,-1362,-490,-1488,-301,-42,378,158,-274
1,5337363,425,-1362,-492,-1486,-302,-45,378,158,-274
1,5337369,425,-1362,-492,-1486,-302,-45,378,158,-274
1,5337377,425,-1362,-492,-1486,-302,-45,378,158,-274
1,5337384,426,-1363,-496,-1485,-298,-45,378,158,-274
1,5337393,426,-1363,-496,-1485,-298,-45,378,158,-274
1,5337400,426,-1363,-496,-1485,-298,-45,378,158,-274
1,5337406,425,-1363,-494,-1485,-297,-40,378,158,-274
1,5337412,425,-1363,-494,-1485,-297,-40,378,158,-274
1,5337421,425,-1361,-489,-1483,-298,-49,381,155,-274
1,5337428,425,-1361,-489,-1483,-298,-49,381,155,-261
1,5337435,425,-1361,-489,-1483,-298,-49,381,155,-261
1,5337443,427,-1362,-491,-1487,-298,-43,381,155,-261
1,5337450,427,-1362,-491,-1487,-298,-43,381,155,-261
1,5337458,427,-1362,-491,-1487,-298,-43,381,155,-261
1,5337465,426,-1365,-491,-1489,-303,-39,381,155,-261
1,5337473,426,-1365,-491,-1489,-303,-39,381,155,-261
1,5337480,426,-1365,-491,-1489,-303,-39,381,155,-261
1,5337486,424,-1361,-489,-1490,-303,-44,381,155,-261
1,5337494,424,-1361,-489,-1490,-303,-44,381,155,-261
1,5337500,424,-1361,-489,-1490,-303,-44,381,155,-261
1,5337505,423,-1365,-496,-1493,-297,-42,381,155,-261
1,5337510,423,-1365,-496,-1493,-297,-42,381,155,-261
1,5337516,423,-1365,-496,-1493,-297,-42,381,155,-261
1,5337521,423,-1365,-496,-1493,-297,-42,381,155,-261
1,5337529,424,-1364,-493,-1489,-302,-39,381,155,-261
1,5337538,424,-1364,-493,-1489,-302,-39,381,155,-261
1,5337552,425,-1362,-485,-1487,-300,-43,379,155,-271
1,5337565,423,-1362,-490,-1492,-305,-48,379,155,-271
1,5337574,423,-1362,-490,-1492,-305,-48,379,155,-271
1,5337582,424,-1362,-488,-1482,-303,-47,379,155,-271
1,5337590,424,-1362,-488,-1482,-303,-47,379,155,-271
1,5337598,424,-1362,-488,-1482,-303,-47,379,155,-271
1,5337612,424,-1364,-491,-1480,-299,-38,379,155,-271
1,5337624,425,-1365,-493,-1489,-300,-42,379,155,-271
1,5337637,425,-1365,-493,-1489,-300,-42,379,155,-271
1,5337650,424,-1367,-497,-1488,-301,-36,379,155,-271
1,5337663,424,-1367,-484,-1493,-303,-40,381,143,-275
1,5337675,424,-1367,-484,-1493,-303,-40,381,143,-275
1,5337689,425,-1364,-485,-1488,-301,-39,381,143,-275
1,5337703,425,-1365,-489,-1484,-305,-43,381,143,-275
1,5337715,425,-1365,-489,-1484,-305,-43,381,143,-275
1,5337729,426,-1366,-487,-1485,-302,-41,381,143,-275
1,5337742,425,-1362,-490,-1483,-298,-50,381,143,-275
1,5337754,425,-1362,-490,-1483,-298,-50,381,143,-275
1,5337766,424,-1365,-491,-1483,-298,-45,381,143,-275
1,5337775,424,-1365,-491,-1483,-298,-45,381,143,-275
1,5337788,424,-1365,-495,-1489,-292,-38,385,149,-271
1,5337800,424,-1365,-495,-1489,-292,-38,385,149,-271
1,5337808,422,-1363,-486,-1484,-299,-41,385,149,-271
1,5337822,425,-1367,-493,-1485,-302,-45,385,149,-271
1,5337834,425,-1367,-493,-1485,-302,-45,385,149,-271
1,5337847,424,-1362,-492,-1481,-305,-47,385,149,-271
1,5337862,426,-1364,-492,-1489,-303,-45,385,149,-271
1,5337873,426,-1364,-492,-1489,-303,-45,385,149,-271
1,5337887,425,-1364,-488,-1489,-302,-39,385,149,-271
1,5337902,424,-1363,-491,-1488,-308,-43,385,149,-271
1,5337916,424,-1363,-491,-1488,-308,-43,385,149,-271
1,5337925,427,-1362,-486,-1484,-296,-37,376,150,-272
1,5337938,427,-1362,-486,-1484,-296,-37,376,150,-272
1,5337952,424,-1366,-489,-1482,-296,-45,376,150,-272
1,5337964,424,-1370,-493,-1488,-300,-33,376,150,-272
1,5337974,424,-1370,-493,-1488,-300,-33,376,150,-272
1,5337988,426,-1364,-492,-1488,-301,-39,376,150,-272
1,5337999,426,-1364,-492,-1488,-301,-39,376,150,-272
1,5338012,423,-1366,-493,-1487,-299,-43,376,150,-272
1,5338023,425,-1364,-491,-1493,-306,-42,376,150,-272
1,5338039,425,-1364,-491,-1493,-306,-42,376,150,-272
1,5338050,422,-1364,-487,-1490,-301,-41,376,152,-268
1,5338064,425,-1366,-490,-1487,-305,-43,376,152,-268
1,5338078,425,-1366,-490,-1487,-305,-43,376,152,-268
1,5338091,423,-1362,-491,-1494,-294,-38,376,152,-268
1,5338104,425,-1366,-490,-1492,-299,-35,376,152,-268
1,5338119,425,-1366,-490,-1492,-299,-35,376,152,-268
1,5338133,423,-1364,-493,-1484,-303,-45,376,152,-268
1,5338143,423,-1364,-488,-1487,-298,-39,376,152,-268
1,5338156,423,-1364,-488,-1487,-298,-39,376,152,-268
1,5338170,422,-1363,-485,-1484,-296,-36,380,152,-272
1,5338183,423,-1366,-492,-1490,-302,-39,380,152,-272
1,5338192,423,-1366,-492,-1490,-302,-39,380,152,-272
1,5338204,425,-1365,-492,-1487,-302,-38,380,152,-272
1,5338212,425,-1365,-492,-1487,-302,-38,380,152,-272
1,5338221,425,-1365,-492,-1487,-302,-38,380,152,-272
1,5338228,426,-1364,-491,-1487,-296,-36,380,152,-272
1,5338236,426,-1364,-491,-1487,-296,-36,380,152,-272
1,5338251,424,-1364,-495,-1481,-305,-39,380,152,-272
1,5338260,424,-1364,-495,-1481,-305,-39,380,152,-272
1,5338271,424,-1363,-495,-1489,-301,-43,380,152,-272
1,5338283,426,-1367,-491,-1485,-306,-46,380,148,-274
1,5338294,426,-1367,-491,-1485,-306,-46,380,148,-274
1,5338307,424,-1366,-491,-1488,-299,-39,380,148,-274
1,5338319,424,-1366,-491,-1488,-299,-39,380,148,-274
1,5338332,424,-1363,-485,-1486,-295,-41,380,148,-274
1,5338346,424,-1363,-489,-1488,-303,-44,380,148,-274
1,5338358,424,-1363,-489,-1488,-303,-44,380,148,-274
1,5338371,421,-1363,-492,-1489,-294,-40,380,148,-274
1,5338385,424,-1365,-490,-1488,-295,-30,380,148,-274
1,5338396,424,-1365,-490,-1488,-295,-30,380,148,-274
1,5338408,425,-1365,-492,-1487,-298,-31,380,148,-274
1,5338422,424,-1365,-488,-1484,-296,-37,380,154,-278
1,5338436,424,-1365,-488,-1484,-296,-37,380,154,-278
1,5338449,424,-1363,-493,-1487,-299,-38,380,154,-278
1,5338460,424,-1363,-493,-1487,-299,-38,380,154,-278
1,5338471,425,-1365,-492,-1489,-299,-37,380,154,-278
1,5338480,425,-1365,-492,-1489,-299,-37,380,154,-278
1,5338491,425,-1366,-491,-1484,-303,-41,380,154,-278
1,5338504,426,-1363,-490,-1490,-303,-37,380,154,-278
1,5338512,426,-1363,-490,-1490,-303,-37,380,154,-278
1,5338520,426,-1363,-490,-1490,-303,-37,380,154,-278
1,5338530,423,-1366,-492,-1480,-296,-41,380,154,-278
1,5338537,423,-1366,-492,-1480,-296,-41,380,154,-278
1,5338545,423,-1363,-484,-1487,-294,-42,381,153,-269
1,5338552,423,-1363,-484,-1487,-294,-42,381,153,-269
1,5338558,423,-1363,-484,-1487,-294,-42,381,153,-269
1,5338565,423,-1363,-484,-1487,-294,-42,381,153,-269
1,5338571,423,-1363,-484,-1487,-294,-42,381,153,-269
1,5338578,423,-1363,-484,-1487,-294,-42,381,153,-269
1,5338587,427,-1364,-492,-1489,-302,-37,381,153,-269
1,5338592,427,-1364,-492,-1489,-302,-37,381,153,-269
1,5338600,427,-1364,-492,-1489,-302,-37,381,153,-269
1,5338607,424,-1365,-500,-1487,-303,-38,381,153,-269
1,5338615,424,-1365,-500,-1487,-303,-38,381,153,-269
1,5338621,424,-1365,-500,-1487,-303,-38,381,153,-269
1,5338630,424,-1365,-500,-1487,-303,-38,381,153,-269
1,5338636,424,-1365,-500,-1487,-303,-38,381,153,-269
1,5338642,422,-1365,-494,-1479,-296,-40,381,153,-269
1,5338650,422,-1365,-494,-1479,-296,-40,381,153,-269
1,5338657,422,-1365,-494,-1479,-296,-40,381,153,-269
1,5338664,425,-1363,-486,-1484,-299,-44,376,158,-280
1,5338671,425,-1363,-486,-1484,-299,-44,376,158,-280
1,5338676,425,-1363,-486,-1484,-299,-44,376,158,-280
1,5338684,423,-1367,-488,-1492,-300,-40,376,158,-280
1,5338690,423,-1367,-488,-1492,-300,-40,376,158,-280
1,5338697,423,-1367,-488,-1492,-300,-40,376,158,-280
1,5338704,422,-1364,-491,-1493,-304,-36,376,158,-280
1,5338712,422,-1364,-491,-1493,-304,-36,376,158,-280
1,5338718,422,-1364,-491,-1493,-304,-36,376,158,-280
1,5338724,423,-1368,-496,-1481,-304,-39,376,158,-280
1,5338730,423,-1368,-496,-1481,-304,-39,376,158,-280
1,5338738,423,-1368,-496,-1481,-304,-39,376,158,-280
1,5338743,424,-1367,-492,-1483,-302,-37,376,158,-280
1,5338752,424,-1367,-492,-1483,-302,-37,376,158,-280
1,5338759,424,-1367,-492,-1483,-302,-37,376,158,-280
1,5338766,423,-1363,-493,-1492,-304,-42,376,158,-280
1,5338772,423,-1363,-493,-1492,-304,-42,376,158,-280
1,5338777,423,-1363,-493,-1492,-304,-42,376,158,-280
1,5338782,424,-1364,-490,-1492,-302,-39,383,161,-273
1,5338789,424,-1364,-490,-1492,-302,-39,383,161,-273
1,5338796,424,-1364,-490,-1492,-302,-39,383,161,-273
1,5338801,424,-1364,-490,-1492,-302,-39,383,161,-273
1,5338808,428,-1364,-486,-1491,-298,-47,383,161,-273
1,5338816,428,-1364,-486,-1491,-298,-47,383,161,-273
1,5338823,423,-1366,-491,-1492,-301,-46,383,161,-273
1,5338830,423,-1366,-491,-1492,-301,-46,383,161,-273
1,5338835,423,-1366,-491,-1492,-301,-46,383,161,-273
1,5338843,425,-1364,-492,-1487,-304,-44,383,161,-273
1,5338850,425,-1364,-492,-1487,-304,-44,383,161,-273
1,5338856,425,-1364,-492,-1487,-304,-44,383,161,-273
1,5338863,422,-1364,-496,-1491,-304,-41,383,161,-273
1,5338870,422,-1364,-496,-1491,-304,-41,383,161,-273
1,5338880,422,-1364,-496,-1491,-304,-41,383,161,-273
1,5338886,425,-1366,-492,-1487,-299,-37,383,161,-273
1,5338892,425,-1366,-492,-1487,-299,-37,383,161,-273
1,5338900,425,-1366,-492,-1487,-299,-37,383,161,-273
1,5338907,425,-1362,-491,-1486,-306,-39,383,161,-273
1,5338914,425,-1362,-491,-1486,-306,-39,383,161,-273
1,5338920,425,-1362,-491,-1486,-306,-39,383,161,-273
1,5338929,424,-1364,-493,-1487,-298,-44,387,161,-269
1,5338936,424,-1364,-493,-1487,-298,-44,387,161,-269
1,5338942,424,-1366,-492,-1488,-300,-46,387,161,-269
1,5338950,424,-1366,-492,-1488,-300,-46,387,161,-269
1,5338957,424,-1366,-492,-1488,-300,-46,387,161,-269
1,5338964,424,-1363,-489,-1488,-299,-43,387,161,-269
1,5338972,424,-1363,-489,-1488,-299,-43,387,161,-269
1,5338979,424,-1363,-489,-1488,-299,-43,387,161,-269
1,5338986,427,-1366,-492,-1482,-295,-42,387,161,-269
1,5338994,427,-1366,-492,-1482,-295,-42,387,161,-269
1,5339000,427,-1366,-492,-1482,-295,-42,387,161,-269
1,5339009,424,-1365,-494,-1489,-300,-43,387,161,-269
1,5339016,424,-1365,-494,-1489,-300,-43,387,161,-269
1,5339022,423,-1364,-496,-1486,-296,-47,387,161,-269
1,5339028,423,-1364,-496,-1486,-296,-47,387,161,-269
1,5339036,423,-1364,-496,-1486,-296,-47,387,161,-269
1,5339043,426,-1364,-489,-1484,-299,-46,382,160,-272
1,5339051,426,-1364,-489,-1484,-299,-46,382,160,-272
1,5339057,426,-1364,-489,-1484,-299,-46,382,160,-272
1,5339065,422,-1365,-491,-1483,-300,-40,382,160,-272
1,5339071,422,-1365,-491,-1483,-300,-40,382,160,-272
1,5339078,422,-1365,-491,-1483,-300,-40,382,160,-272
1,5339086,423,-1367,-491,-1480,-297,-44,382,160,-272
1,5339094,423,-1367,-491,-1480,-297,-44,382,160,-272
1,5339101,423,-1367,-491,-1480,-297,-44,382,160,-272
1,5339108,425,-1365,-490,-1482,-302,-37,382,160,-272
1,5339113,425,-1365,-490,-1482,-302,-37,382,160,-272
1,5339120,425,-1365,-490,-1482,-302,-37,382,160,-272
1,5339128,425,-1365,-493,-1478,-298,-43,382,160,-272
1,5339136,425,-1365,-493,-1478,-298,-43,382,160,-272
1,5339143,424,-1364,-494,-1481,-299,-43,382,160,-272
1,5339148,424,-1364,-494,-1481,-299,-43,382,160,-272
1,5339154,424,-1364,-494,-1481,-299,-43,382,160,-272
1,5339161,424,-1364,-494,-1481,-299,-43,382,160,-272
1,5339167,424,-1368,-490,-1484,-307,-39,374,152,-266
1,5339174,424,-1368,-490,-1484,-307,-39,374,152,-266
1,5339180,424,-1368,-490,-1484,-307,-39,374,152,-266
1,5339187,423,-1365,-487,-1489,-305,-38,374,152,-266
1,5339194,423,-1365,-487,-1489,-305,-38,374,152,-266
1,5339202,421,-1365,-490,-1491,-303,-46,374,152,-266
1,5339209,421,-1365,-490,-1491,-303,-46,374,152,-266
1,5339215,421,-1365,-490,-1491,-303,-46,374,152,-266
1,5339222,424,-1365,-492,-1489,-303,-41,374,152,-266
1,5339227,424,-1365,-492,-1489,-303,-41,374,152,-266
1,5339233,424,-1365,-492,-1489,-303,-41,374,152,-266
1,5339239,424,-1365,-492,-1489,-303,-41,374,152,-266
1,5339244,424,-1364,-488,-1490,-299,-45,374,152,-266
1,5339253,424,-1364,-488,-1490,-299,-45,374,152,-266
1,5339260,424,-1364,-488,-1490,-299,-45,374,152,-266
1,5339267,428,-1364,-490,-1492,-300,-49,374,152,-266
1,5339274,428,-1364,-490,-1492,-300,-49,374,152,-266
1,5339281,428,-1364,-490,-1492,-300,-49,374,152,-266
1,5339287,426,-1364,-491,-1493,-300,-48,384,158,-272
1,5339294,426,-1364,-491,-1493,-300,-48,384,158,-272
1,5339301,424,-1364,-488,-1490,-298,-39,384,158,-272
1,5339309,424,-1364,-488,-1490,-298,-39,384,158,-272
1,5339314,424,-1364,-488,-1490,-298,-39,384,158,-272
1,5339321,424,-1363,-486,-1490,-297,-40,384,158,-272
1,5339329,424,-1363,-486,-1490,-297,-40,384,158,-272
1,5339335,424,-1363,-486,-1490,-297,-40,384,158,-272
1,5339342,423,-1365,-492,-1491,-295,-41,384,158,-272
1,5339348,423,-1365,-492,-1491,-295,-41,384,158,-272
1,5339356,423,-1365,-492,-1491,-295,-41,384,158,-272
1,5339363,425,-1363,-492,-1490,-299,-44,384,158,-272
1,5339370,425,-1363,-492,-1490,-299,-44,384,158,-272
1,5339377,425,-1363,-492,-1490,-299,-44,384,158,-272
1,5339383,424,-1364,-489,-1485,-307,-40,384,158,-272
1,5339392,424,-1364,-489,-1485,-307,-40,384,158,-272
1,5339397,424,-1364,-489,-1485,-307,-40,384,158,-272
1,5339405,424,-1364,-491,-1490,-300,-35,377,155,-271
1,5339412,424,-1364,-491,-1490,-300,-35,377,155,-271
1,5339420,424,-1364,-491,-1490,-300,-35,377,155,-271
1,5339428,422,-1359,-487,-1490,-303,-35,377,155,-271
1,5339436,422,-1359,-487,-1490,-303,-35,377,155,-271
1,5339443,421,-1362,-493,-1487,-305,-43,377,155,-271
1,5339450,421,-1362,-493,-1487,-305,-43,377,155,-271
1,5339457,421,-1362,-493,-1487,-305,-43,377,155,-271
1,5339463,425,-1363,-495,-1492,-305,-36,377,155,-271
1,5339471,425,-1363,-495,-1492,-305,-36,377,155,-271
1,5339479,425,-1363,-495,-1492,-305,-36,377,155,-271
1,5339487,425,-1363,-495,-1492,-305,-36,377,155,-271
1,5339495,425,-1363,-495,-1492,-305,-36,377,155,-271
1,5339502,423,-1364,-491,-1485,-299,-47,377,155,-271
1,5339507,423,-1364,-491,-1485,-299,-47,377,155,-271
1,5339512,423,-1364,-491,-1485,-299,-47,377,155,-271
1,5339516,423,-1364,-491,-1485,-299,-47,377,155,-271
1,5339522,423,-1365,-493,-1486,-306,-43,377,155,-271
1,5339527,423,-1365,-493,-1486,-306,-43,377,155,-271
1,5339532,423,-1365,-493,-1486,-306,-43,377,155,-271
1,5339545,425,-1365,-485,-1483,-305,-50,374,162,-268
1,5339558,425,-1365,-485,-1483,-305,-50,374,162,-268
1,5339567,424,-1365,-489,-1488,-304,-42,374,162,-268
1,5339580,424,-1365,-489,-1488,-304,-42,374,162,-268
1,5339592,425,-1367,-490,-1490,-297,-41,374,162,-268
1,5339604,424,-1365,-492,-1483,-296,-44,374,162,-268
1,5339616,424,-1365,-492,-1483,-296,-44,374,162,-268
1,5339629,422,-1365,-488,-1482,-296,-40,374,162,-268
1,5339639,422,-1365,-488,-1482,-296,-40,374,162,-268
1,5339651,425,-1362,-492,-1487,-301,-40,374,162,-268
1,5339664,425,-1365,-487,-1480,-303,-39,376,156,-274
1,5339678,425,-1365,-487,-1480,-303,-39,376,156,-274
1,5339688,423,-1364,-485,-1484,-303,-33,376,156,-274
1,5339699,423,-1364,-485,-1484,-303,-33,376,156,-274
1,5339714,424,-1364,-487,-1489,-300,-40,376,156,-274
1,5339727,424,-1365,-487,-1491,-298,-37,376,156,-274
1,5339736,424,-1365,-487,-1491,-298,-37,376,156,-274
1,5339745,425,-1366,-491,-1485,-301,-45,376,156,-274
1,5339755,425,-1366,-491,-1485,-301,-45,376,156,-274
1,5339762,422,-1365,-495,-1490,-300,-40,376,156,-274
1,5339771,422,-1365,-495,-1490,-300,-40,376,156,-274
1,5339781,422,-1365,-495,-1490,-300,-40,376,156,-274
1,5339793,421,-1365,-486,-1489,-301,-42,376,156,-280
1,5339802,424,-1365,-486,-1487,-305,-41,376,156,-280
1,5339815,424,-1365,-486,-1487,-305,-41,376,156,-280
1,5339829,424,-1366,-492,-1491,-306,-40,376,156,-280
1,5339840,424,-1366,-492,-1491,-306,-40,376,156,-280
1,5339851,424,-1365,-493,-1490,-307,-45,376,156,-280
1,5339865,426,-1365,-493,-1493,-308,-40,376,156,-280
1,5339880,426,-1365,-493,-1493,-308,-40,376,156,-280
1,5339893,424,-1367,-492,-1488,-302,-39,376,156,-280
1,5339901,424,-1364,-489,-1484,-296,-40,380,156,-280
1,5339915,424,-1364,-489,-1484,-296,-40,380,150,-284
1,5339929,425,-1366,-490,-1488,-302,-48,380,150,-284
1,5339943,422,-1366,-491,-1485,-297,-45,380,150,-284
1,5339952,422,-1366,-491,-1485,-297,-45,380,150,-284
1,5339965,424,-1365,-491,-1483,-298,-41,380,150,-284
1,5339979,424,-1365,-491,-1483,-298,-41,380,150,-284
1,5339994,424,-1364,-495,-1477,-297,-40,380,150,-284
1,5340003,422,-1363,-486,-1485,-300,-40,380,150,-284
1,5340016,422,-1363,-486,-1485,-300,-40,380,150,-284
1,5340028,426,-1365,-493,-1492,-298,-43,380,150,-284
1,5340042,426,-1364,-490,-1499,-305,-46,374,152,-278
1,5340052,426,-1364,-490,-1499,-305,-46,374,152,-278
1,5340063,424,-1365,-487,-1491,-305,-44,374,152,-278
1,5340075,424,-1365,-487,-1491,-305,-44,374,152,-278
1,5340086,425,-1364,-488,-1482,-300,-39,374,152,-278
1,5340100,425,-1364,-488,-1482,-300,-39,374,152,-278
1,5340113,428,-1365,-492,-1484,-302,-41,374,152,-278
1,5340123,424,-1365,-489,-1489,-300,-38,374,152,-278
1,5340134,424,-1365,-489,-1489,-300,-38,374,152,-278
1,5340147,423,-1365,-493,-1485,-296,-41,374,152,-278
1,5340160,423,-1365,-493,-1485,-296,-41,374,152,-278
1,5340170,426,-1362,-490,-1485,-297,-46,378,154,-278
1,5340182,424,-1365,-486,-1485,-300,-41,378,154,-278
1,5340196,424,-1365,-486,-1485,-300,-41,378,154,-278
1,5340211,424,-1366,-492,-1486,-298,-43,378,154,-278
1,5340221,424,-1366,-492,-1486,-298,-43,378,154,-278
1,5340233,423,-1367,-491,-1482,-296,-42,378,154,-278
1,5340248,424,-1363,-493,-1486,-297,-40,378,154,-278
1,5340261,424,-1363,-493,-1486,-297,-40,378,154,-278
1,5340270,425,-1364,-494,-1489,-298,-50,378,154,-278
1,5340283,425,-1365,-490,-1487,-299,-43,379,153,-267
1,5340297,425,-1365,-490,-1487,-299,-43,379,153,-267
1,5340309,425,-1365,-490,-1487,-299,-43,379,153,-267
1,5340319,425,-1365,-490,-1487,-299,-43,379,153,-267
1,5340333,425,-1363,-488,-1485,-296,-40,379,153,-267
1,5340344,426,-1365,-492,-1480,-303,-41,379,153,-267
1,5340357,426,-1365,-492,-1480,-303,-41,379,153,-267
1,5340369,426,-1366,-494,-1483,-309,-39,379,153,-267
1,5340383,424,-1362,-489,-1488,-306,-43,379,153,-267
1,5340395,424,-1362,-489,-1488,-306,-43,379,153,-267
1,5340403,424,-1362,-487,-1483,-303,-42,379,161,-275
1,5340411,424,-1362,-487,-1483,-303,-42,379,161,-275
1,5340421,424,-1362,-487,-1483,-303,-42,379,161,-275
1,5340429,426,-1361,-490,-1479,-290,-43,379,161,-275
1,5340437,426,-1361,-490,-1479,-290,-43,379,161,-275
1,5340445,425,-1364,-490,-1484,-293,-41,379,161,-275
1,5340455,425,-1364,-490,-1484,-293,-41,379,161,-275
1,5340465,422,-1365,-487,-1482,-306,-44,379,161,-275
1,5340475,422,-1365,-487,-1482,-306,-44,379,161,-275
1,5340483,425,-1363,-489,-1477,-309,-38,379,161,-275
1,5340492,425,-1363,-489,-1477,-309,-38,379,161,-275
1,5340503,421,-1367,-489,-1486,-311,-33,379,161,-275
1,5340511,421,-1367,-489,-1486,-311,-33,379,161,-275
1,5340518,421,-1367,-489,-1486,-311,-33,379,161,-275
1,5340526,420,-1367,-490,-1481,-302,-38,379,161,-275
1,5340538,420,-1367,-490,-1481,-302,-38,379,161,-275
1,5340549,425,-1368,-493,-1484,-300,-43,375,151,-277
1,5340554,425,-1368,-493,-1484,-300,-43,375,151,-277
1,5340562,427,-1363,-489,-1483,-305,-42,375,151,-277
1,5340569,427,-1363,-489,-1483,-305,-42,375,151,-277
1,5340576,427,-1363,-489,-1483,-305,-42,375,151,-277
1,5340583,425,-1364,-489,-1482,-303,-38,375,151,-277
1,5340591,425,-1364,-489,-1482,-303,-38,375,151,-277
1,5340599,425,-1364,-489,-1482,-303,-38,375,151,-277
1,5340606,423,-1366,-493,-1491,-303,-38,375,151,-277
1,5340614,423,-1366,-493,-1491,-303,-38,375,151,-277
1,5340619,423,-1366,-493,-1491,-303,-38,375,151,-277
1,5340628,424,-1362,-488,-1492,-300,-42,375,151,-277
1,5340636,424,-1362,-488,-1492,-300,-42,375,151,-277
1,5340645,422,-1366,-489,-1489,-298,-40,375,151,-277
1,5340651,422,-1366,-489,-1489,-298,-40,375,151,-277
1,5340656,422,-1366,-489,-1489,-298,-40,375,151,-277
1,5340664,424,-1366,-490,-1485,-299,-38,377,157,-275
1,5340672,424,-1366,-490,-1485,-299,-38,377,157,-275
1,5340679,424,-1366,-490,-1485,-299,-38,377,157,-275
1,5340685,423,-1364,-493,-1487,-302,-39,377,157,-275
1,5340694,423,-1364,-493,-1487,-302,-39,377,157,-275
1,5340701,423,-1364,-493,-1487,-302,-39,377,157,-275
1,5340708,424,-1364,-490,-1483,-307,-38,377,157,-275
1,5340716,424,-1364,-490,-1483,-307,-38,377,157,-275
1,5340724,426,-1364,-496,-1486,-301,-38,377,157,-275
1,5340729,426,-1364,-496,-1486,-301,-38,377,157,-275
1,5340737,426,-1364,-496,-1486,-301,-38,377,157,-275
1,5340744,422,-1366,-496,-1482,-307,-37,377,157,-275
1,5340751,422,-1366,-496,-1482,-307,-37,377,157,-275
1,5340758,422,-1366,-496,-1482,-307,-37,377,157,-275
1,5340764,420,-1364,-490,-1484,-300,-42,377,157,-275
1,5340771,420,-1364,-490,-1484,-300,-42,377,157,-275
1,5340776,420,-1364,-490,-1484,-300,-42,377,157,-275
1,5340784,424,-1366,-488,-1483,-301,-40,379,155,-269
1,5340790,424,-1366,-488,-1483,-301,-40,379,155,-269
1,5340798,424,-1366,-488,-1483,-301,-40,379,155,-269
1,5340806,425,-1363,-491,-1491,-301,-41,379,155,-269
1,5340813,425,-1363,-491,-1491,-301,-41,379,155,-269
1,5340818,425,-1363,-491,-1491,-301,-41,379,155,-269
1,5340824,424,-1365,-489,-1482,-299,-33,379,155,-269
1,5340831,424,-1365,-489,-1482,-299,-33,379,155,-269
1,5340837,424,-1365,-489,-1482,-299,-33,379,155,-269
1,5340845,423,-1368,-492,-1483,-299,-40,379,155,-269
1,5340851,423,-1368,-492,-1483,-299,-40,379,155,-269
1,5340858,423,-1368,-492,-1483,-299,-40,379,155,-269
1,5340865,421,-1364,-491,-1486,-306,-42,379,155,-269
1,5340872,421,-1364,-491,-1486,-306,-42,379,155,-269
1,5340878,421,-1364,-491,-1486,-306,-42,379,155,-269
1,5340886,421,-1364,-491,-1486,-306,-42,379,155,-269
1,5340892,421,-1364,-491,-1486,-306,-42,379,155,-269
1,5340899,421,-1364,-491,-1486,-306,-42,379,155,-269
1,5340905,424,-1360,-489,-1481,-304,-39,378,152,-280
1,5340910,424,-1360,-489,-1481,-304,-39,378,152,-280
1,5340915,424,-1360,-489,-1481,-304,-39,378,152,-280
1,5340921,424,-1360,-489,-1481,-304,-39,378,152,-280
1,5340930,423,-1364,-488,-1479,-301,-39,378,152,-280
1,5340938,423,-1364,-488,-1479,-301,-39,378,152,-280
1,5340945,426,-1366,-492,-1481,-301,-43,378,152,-280
1,5340952,426,-1366,-492,-1481,-301,-43,378,152,-280
1,5340958,426,-1366,-492,-1481,-301,-43,378,152,-280
1,5340965,420,-1368,-491,-1480,-304,-35,378,152,-280
1,5340973,420,-1368,-491,-1480,-304,-35,378,152,-280
1,5340981,420,-1368,-491,-1480,-304,-35,378,152,-280
1,5340988,423,-1365,-491,-1484,-298,-35,378,152,-280
1,5340995,423,-1365,-491,-1484,-298,-35,378,152,-280
1,5341003,425,-1365,-489,-1488,-298,-37,378,152,-280
1,5341010,425,-1365,-489,-1488,-298,-37,378,152,-280
1,5341018,425,-1365,-489,-1488,-298,-37,378,152,-280
1,5341025,423,-1364,-493,-1479,-302,-42,378,152,-280
1,5341033,423,-1364,-493,-1479,-302,-42,378,152,-280
1,5341040,423,-1364,-493,-1479,-302,-42,378,152,-280
1,5341046,426,-1365,-486,-1483,-304,-34,387,153,-273
1,5341053,426,-1365,-486,-1483,-304,-34,387,153,-273
1,5341062,425,-1368,-496,-1479,-309,-36,387,153,-273
1,5341069,425,-1368,-496,-1479,-309,-36,387,153,-273
1,5341077,425,-1368,-496,-1479,-309,-36,387,153,-273
1,5341083,423,-1366,-491,-1488,-300,-32,387,153,-273
1,5341091,423,-1366,-491,-1488,-300,-32,387,153,-273
1,5341099,423,-1366,-491,-1488,-300,-32,387,153,-273
1,5341107,423,-1365,-491,-1487,-296,-29,387,153,-273
1,5341115,423,-1365,-491,-1487,-296,-29,387,153,-273
1,5341121,423,-1365,-491,-1487,-296,-29,387,153,-273
1,5341130,424,-1365,-489,-1487,-303,-41,387,153,-273
1,5341137,424,-1365,-489,-1487,-303,-41,387,153,-273
1,5341145,426,-1363,-495,-1494,-301,-39,387,153,-273
1,5341152,426,-1363,-495,-1494,-301,-39,387,153,-273
1,5341159,426,-1363,-495,-1494,-301,-39,387,153,-273
1,5341166,423,-1361,-485,-1488,-298,-41,382,150,-278
1,5341172,423,-1361,-485,-1488,-298,-41,382,150,-278
1,5341180,423,-1361,-485,-1488,-298,-41,382,150,-278
1,5341188,423,-1364,-492,-1491,-300,-43,382,150,-278
1,5341195,423,-1364,-492,-1491,-300,-43,382,150,-278
1,5341201,423,-1364,-492,-1491,-300,-43,382,150,-278
1,5341207,425,-1361,-492,-1489,-301,-34,382,150,-278
1,5341214,425,-1361,-492,-1489,-301,-34,382,150,-278
1,5341222,425,-1365,-488,-1492,-307,-34,382,150,-278
1,5341231,425,-1365,-488,-1492,-307,-34,382,150,-278
1,5341239,425,-1365,-488,-1492,-307,-34,382,150,-278
1,5341245,424,-1367,-493,-1483,-299,-38,382,150,-278
1,5341251,424,-1367,-493,-1483,-299,-38,382,150,-278
1,5341257,424,-1367,-493,-1483,-299,-38,382,150,-278
1,5341265,422,-1366,-491,-1489,-297,-35,382,150,-278
1,5341273,422,-1366,-491,-1489,-297,-35,382,150,-278
1,5341280,422,-1366,-491,-1489,-297,-35,382,150,-278
1,5341287,426,-1366,-489,-1485,-298,-39,388,152,-284
1,5341294,426,-1366,-489,-1485,-298,-39,388,152,-284
1,5341301,426,-1366,-489,-1485,-298,-39,388,152,-284
1,5341308,425,-1366,-491,-1489,-302,-45,388,152,-284
1,5341316,425,-1366,-491,-1489,-302,-45,388,152,-284
1,5341323,424,-1364,-495,-1490,-300,-36,388,152,-284
1,5341329,424,-1364,-495,-1490,-300,-36,388,152,-284
1,5341334,424,-1364,-495,-1490,-300,-36,388,152,-284
1,5341339,424,-1364,-495,-1490,-300,-36,388,152,-284
1,5341345,422,-1364,-485,-1485,-298,-40,388,152,-284
1,5341353,422,-1364,-485,-1485,-298,-40,388,152,-284
1,5341361,422,-1364,-485,-1485,-298,-40,388,152,-284
1,5341367,424,-1363,-489,-1485,-297,-37,388,152,-284
1,5341375,424,-1363,-489,-1485,-297,-37,388,152,-284
1,5341381,424,-1363,-489,-1485,-297,-37,388,152,-284
1,5341387,424,-1365,-495,-1484,-302,-38,388,152,-284
1,5341394,424,-1365,-495,-1484,-302,-38,388,152,-284
1,5341402,424,-1365,-495,-1484,-302,-38,388,152,-284
1,5341410,425,-1364,-488,-1488,-303,-38,383,153,-271
1,5341416,425,-1364,-488,-1488,-303,-38,383,153,-271
1,5341422,424,-1363,-488,-1483,-297,-38,383,153,-271
1,5341429,424,-1363,-488,-1483,-297,-38,383,153,-271
1,5341435,424,-1363,-488,-1483,-297,-38,383,153,-271
1,5341441,424,-1363,-488,-1483,-297,-38,383,153,-271
1,5341449,423,-1365,-487,-1480,-301,-39,383,153,-271
1,5341456,423,-1365,-487,-1480,-301,-39,383,153,-271
1,5341463,422,-1360,-490,-1483,-306,-46,383,153,-271
1,5341469,422,-1360,-490,-1483,-306,-46,383,153,-271
1,5341475,422,-1360,-490,-1483,-306,-46,383,153,-271
1,5341481,422,-1360,-490,-1483,-306,-46,383,153,-271
1,5341490,420,-1366,-489,-1485,-296,-44,383,153,-271
1,5341498,420,-1366,-489,-1485,-296,-44,383,153,-271
1,5341503,423,-1366,-493,-1485,-296,-40,383,153,-271
1,5341508,423,-1366,-493,-1485,-296,-40,383,153,-271
1,5341513,423,-1366,-493,-1485,-296,-40,383,153,-271
1,5341518,423,-1366,-493,-1485,-296,-40,383,153,-271
1,5341523,424,-1363,-489,-1487,-300,-38,383,153,-271
1,5341529,424,-1363,-489,-1487,-300,-38,383,153,-271
1,5341535,424,-1363,-489,-1487,-300,-38,383,153,-271
1,5341541,424,-1363,-489,-1487,-300,-38,383,153,-271
1,5341548,426,-1363,-487,-1482,-302,-40,383,153,-271
1,5341559,426,-1363,-487,-1482,-302,-40,383,153,-271
1,5341574,425,-1365,-492,-1486,-298,-40,383,153,-271
1,5341587,425,-1364,-486,-1489,-300,-34,383,153,-271
1,5341596,425,-1364,-486,-1489,-300,-34,383,153,-271
1,5341608,424,-1366,-486,-1492,-303,-31,383,153,-271
1,5341621,424,-1366,-486,-1492,-303,-31,383,153,-271
1,5341634,425,-1364,-490,-1487,-303,-37,383,153,-271
1,5341646,423,-1367,-488,-1480,-299,-42,383,153,-271
1,5341660,423,-1367,-488,-1480,-299,-42,383,153,-271
1,5341674,424,-1365,-488,-1486,-303,-36,377,149,-275
1,5341688,427,-1366,-493,-1488,-302,-38,377,149,-275
1,5341702,427,-1366,-493,-1488,-302,-38,377,149,-275
1,5341711,426,-1364,-488,-1492,-302,-35,377,149,-275
1,5341724,424,-1364,-495,-1490,-298,-40,377,149,-275
1,5341737,424,-1364,-495,-1490,-298,-40,377,149,-275
1,5341751,423,-1364,-491,-1485,-304,-40,377,149,-275
1,5341760,423,-1364,-491,-1485,-304,-40,377,149,-275
1,5341772,426,-1364,-493,-1484,-302,-44,377,149,-275
1,5341786,423,-1363,-492,-1482,-300,-44,386,150,-268
1,5341799,423,-1363,-492,-1482,-300,-44,386,150,-268
1,5341807,423,-1364,-492,-1488,-299,-38,386,150,-268
1,5341819,423,-1364,-492,-1488,-299,-38,386,150,-268
1,5341832,423,-1362,-487,-1485,-299,-36,386,150,-268
1,5341846,424,-1367,-492,-1486,-295,-40,386,150,-268
1,5341859,424,-1367,-492,-1486,-295,-40,386,150,-268
1,5341872,425,-1368,-494,-1482,-303,-38,386,150,-268
1,5341881,425,-1368,-494,-1482,-303,-38,386,150,-268
1,5341889,425,-1364,-494,-1492,-303,-37,386,150,-268
1,5341897,425,-1364,-494,-1492,-303,-37,386,150,-268
1,5341905,425,-1365,-490,-1483,-299,-40,380,154,-270
1,5341915,425,-1365,-490,-1483,-299,-40,380,154,-270
1,5341926,425,-1363,-490,-1487,-309,-41,380,154,-270
1,5341938,425,-1363,-490,-1487,-309,-41,380,154,-270
1,5341949,427,-1364,-495,-1484,-306,-36,380,154,-270
1,5341962,427,-1364,-495,-1484,-306,-36,380,154,-270
1,5341976,423,-1362,-489,-1486,-296,-32,380,154,-270
1,5341987,425,-1366,-489,-1492,-293,-34,380,154,-270
1,5342000,425,-1366,-489,-1492,-293,-34,380,154,-270
1,5342012,424,-1361,-491,-1482,-296,-42,380,154,-270
1,5342026,423,-1365,-490,-1486,-295,-43,373,161,-279
1,5342039,423,-1365,-490,-1486,-295,-43,373,161,-279
1,5342050,422,-1367,-492,-1481,-302,-39,373,161,-279
1,5342062,422,-1367,-492,-1481,-302,-39,373,161,-279
1,5342075,422,-1365,-487,-1483,-309,-34,373,161,-279
1,5342086,424,-1365,-485,-1479,-300,-43,373,161,-279
1,5342098,424,-1365,-485,-1479,-300,-43,373,161,-279
1,5342110,425,-1366,-491,-1484,-299,-43,373,161,-279
1,5342124,422,-1365,-490,-1476,-307,-44,373,161,-279
1,5342132,422,-1365,-490,-1476,-307,-44,373,161,-279
1,5342144,423,-1365,-493,-1489,-307,-31,373,161,-279
1,5342156,423,-1365,-493,-1489,-307,-31,373,161,-279
1,5342170,424,-1364,-487,-1483,-301,-42,385,155,-269
1,5342181,424,-1364,-487,-1483,-301,-42,385,155,-269
1,5342194,426,-1364,-491,-1484,-304,-42,385,155,-269
1,5342206,423,-1363,-486,-1486,-302,-38,385,155,-269
1,5342220,423,-1363,-486,-1486,-302,-38,385,155,-269
1,5342233,425,-1365,-492,-1486,-299,-39,385,155,-269
1,5342246,424,-1363,-494,-1490,-301,-36,385,155,-269
1,5342260,424,-1363,-494,-1490,-301,-36,385,155,-269
1,5342274,424,-1365,-492,-1484,-304,-36,385,155,-269
1,5342287,424,-1365,-488,-1490,-298,-43,384,154,-270
1,5342298,424,-1365,-488,-1490,-298,-43,384,154,-270
1,5342309,425,-1361,-490,-1485,-295,-41,384,154,-270
1,5342322,425,-1361,-490,-1485,-295,-41,384,154,-270
1,5342334,422,-1363,-487,-1483,-298,-40,384,154,-270
1,5342347,425,-1363,-494,-1486,-299,-43,384,154,-270
1,5342361,425,-1363,-494,-1486,-299,-43,384,154,-270
1,5342373,420,-1362,-496,-1484,-304,-37,384,154,-270
1,5342387,422,-1366,-494,-1484,-301,-39,384,154,-270
1,5342397,422,-1366,-494,-1484,-301,-39,384,154,-270
1,5342412,425,-1366,-488,-1485,-302,-39,374,152,-278
1,5342425,422,-1363,-488,-1495,-301,-42,374,152,-278
1,5342438,422,-1363,-488,-1495,-301,-42,374,152,-278
1,5342451,425,-1366,-490,-1494,-300,-40,374,152,-278
1,5342464,426,-1366,-490,-1482,-295,-46,374,152,-278
1,5342476,426,-1366,-490,-1482,-295,-46,374,152,-278
1,5342485,422,-1368,-492,-1484,-297,-43,374,152,-278
1,5342493,422,-1368,-492,-1484,-297,-43,374,152,-278
1,5342501,422,-1368,-492,-1484,-297,-43,374,152,-278
1,5342509,424,-1366,-487,-1488,-295,-39,374,152,-278
1,5342518,424,-1366,-487,-1488,-295,-39,374,152,-278
1,5342526,421,-1368,-489,-1489,-302,-41,375,157,-277
1,5342534,421,-1368,-489,-1489,-302,-41,375,157,-277
1,5342543,425,-1366,-487,-1485,-304,-37,375,157,-277
1,5342552,425,-1366,-487,-1485,-304,-37,375,157,-277
1,5342560,425,-1366,-487,-1485,-304,-37,375,157,-277
1,5342567,425,-1365,-493,-1486,-299,-37,375,157,-277
1,5342572,425,-1365,-493,-1486,-299,-37,375,157,-277
1,5342578,425,-1365,-493,-1486,-299,-37,375,157,-277
1,5342584,424,-1364,-492,-1488,-307,-33,375,157,-277
1,5342589,424,-1364,-492,-1488,-307,-33,375,157,-277
1,5342597,424,-1364,-492,-1488,-307,-33,375,157,-277
1,5342605,421,-1364,-494,-1487,-297,-37,375,157,-277
1,5342611,421,-1364,-494,-1487,-297,-37,375,157,-277
1,5342617,421,-1364,-494,-1487,-297,-37,375,157,-277
1,5342624,424,-1363,-492,-1485,-299,-37,375,157,-277
1,5342631,424,-1363,-492,-1485,-299,-37,375,157,-277
1,5342639,424,-1363,-492,-1485,-299,-37,375,157,-277
1,5342646,425,-1361,-490,-1482,-306,-38,375,157,-277
1,5342654,425,-1361,-490,-1482,-306,-38,375,157,-277
1,5342660,425,-1361,-490,-1482,-306,-38,375,157,-277
1,5342667,424,-1368,-489,-1484,-297,-39,375,149,-279
1,5342674,424,-1368,-489,-1484,-297,-39,375,149,-279
1,5342683,423,-1364,-489,-1483,-295,-35,375,149,-279
1,5342690,423,-1364,-489,-1483,-295,-35,375,149,-279
1,5342697,423,-1364,-489,-1483,-295,-35,375,149,-279
1,5342704,423,-1364,-486,-1489,-303,-39,375,149,-279
1,5342710,423,-1364,-486,-1489,-303,-39,375,149,-279
1,5342716,423,-1364,-486,-1489,-303,-39,375,149,-279
1,5342724,425,-1368,-492,-1492,-306,-40,375,149,-279
1,5342731,425,-1368,-492,-1492,-306,-40,375,149,-279
1,5342739,425,-1368,-492,-1492,-306,-40,375,149,-279
1,5342746,425,-1364,-488,-1487,-299,-34,375,149,-279
1,5342753,425,-1364,-488,-1487,-299,-34,375,149,-279
1,5342760,425,-1364,-488,-1487,-299,-34,375,149,-279
1,5342768,424,-1368,-491,-1479,-295,-38,375,149,-279
1,5342776,424,-1368,-491,-1479,-295,-38,375,149,-279
1,5342781,424,-1368,-491,-1479,-295,-38,375,149,-279
1,5342789,425,-1364,-483,-1480,-294,-41,377,141,-267
1,5342796,425,-1364,-483,-1480,-294,-41,377,141,-267
1,5342801,425,-1364,-483,-1480,-294,-41,377,141,-267
1,5342808,425,-1366,-484,-1485,-292,-37,377,141,-267
1,5342815,425,-1366,-484,-1485,-292,-37,377,141,-267
1,5342823,425,-1365,-491,-1483,-300,-41,377,141,-267
1,5342830,425,-1365,-491,-1483,-300,-41,377,141,-267
1,5342838,425,-1365,-491,-1483,-300,-41,377,141,-267
1,5342846,425,-1364,-491,-1482,-302,-42,377,141,-267
1,5342855,425,-1364,-491,-1482,-302,-42,377,141,-267
1,5342861,425,-1364,-491,-1482,-302,-42,377,141,-267
1,5342868,424,-1363,-492,-1491,-299,-39,377,141,-267
1,5342875,424,-1363,-492,-1491,-299,-39,377,141,-267
1,5342881,424,-1363,-492,-1491,-299,-39,377,141,-267
1,5342889,425,-1365,-495,-1494,-300,-36,377,141,-267
1,5342898,425,-1365,-495,-1494,-300,-36,377,141,-267
1,5342905,425,-1366,-485,-1490,-303,-37,380,158,-270
1,5342911,425,-1366,-485,-1490,-303,-37,380,158,-270
1,5342918,425,-1366,-485,-1490,-303,-37,380,158,-270
1,5342925,427,-1366,-485,-1489,-307,-43,380,158,-270
1,5342931,427,-1366,-485,-1489,-307,-43,380,158,-270
1,5342941,427,-1366,-485,-1489,-307,-43,380,158,-270
1,5342948,426,-1366,-491,-1488,-302,-49,380,158,-270
1,5342957,426,-1366,-491,-1488,-302,-49,380,158,-270
1,5342964,422,-1363,-490,-1492,-298,-46,380,158,-270
1,5342971,422,-1363,-490,-1492,-298,-46,380,158,-270
1,5342978,422,-1363,-490,-1492,-298,-46,380,158,-270
1,5342983,422,-1363,-490,-1492,-298,-46,380,158,-270
1,5342990,421,-1364,-490,-1488,-299,-42,380,158,-270
1,5342995,421,-1364,-490,-1488,-299,-42,380,158,-270
1,5343002,421,-1364,-490,-1488,-299,-42,380,158,-270
1,5343009,421,-1361,-496,-1485,-303,-42,380,158,-270
1,5343015,421,-1361,-496,-1485,-303,-42,380,158,-270
1,5343022,421,-1361,-496,-1485,-303,-42,380,158,-270
1,5343030,426,-1365,-484,-1481,-305,-41,377,151,-283
1,5343037,426,-1365,-484,-1481,-305,-41,377,151,-283
1,5343043,424,-1366,-486,-1490,-304,-41,377,151,-283
1,5343049,424,-1366,-486,-1490,-304,-41,377,151,-283
1,5343056,424,-1366,-486,-1490,-304,-41,377,151,-283
1,5343064,423,-1366,-488,-1483,-305,-37,377,151,-283
1,5343070,423,-1366,-488,-1483,-305,-37,377,151,-283
1,5343076,423,-1366,-488,-1483,-305,-37,377,151,-283
1,5343082,423,-1366,-488,-1483,-305,-37,377,151,-283
1,5343091,425,-1365,-490,-1489,-305,-34,377,151,-283
1,5343097,425,-1365,-490,-1489,-305,-34,377,151,-283
1,5343106,424,-1365,-493,-1480,-298,-40,377,151,-283
1,5343112,424,-1365,-493,-1480,-298,-40,377,151,-283
1,5343119,424,-1365,-493,-1480,-298,-40,377,151,-283
1,5343126,422,-1368,-493,-1482,-300,-38,377,151,-283
1,5343134,422,-1368,-493,-1482,-300,-38,377,151,-283
1,5343140,422,-1368,-493,-1482,-300,-38,377,151,-283
1,5343148,422,-1363,-491,-1488,-306,-33,377,151,-283
1,5343153,422,-1363,-491,-1488,-306,-33,377,151,-283
1,5343161,422,-1363,-491,-1488,-306,-33,377,151,-283
1,5343167,423,-1365,-488,-1485,-308,-37,387,161,-281
1,5343174,423,-1365,-488,-1485,-308,-37,387,161,-281
1,5343180,423,-1365,-488,-1485,-308,-37,387,161,-281
1,5343185,426,-1367,-490,-1489,-302,-40,387,161,-281
1,5343193,426,-1367,-490,-1489,-302,-40,387,161,-281
1,5343201,426,-1367,-490,-1489,-302,-40,387,161,-281
1,5343208,423,-1366,-490,-1491,-306,-39,387,161,-281
1,5343215,423,-1366,-490,-1491,-306,-39,387,161,-281
1,5343223,423,-1366,-490,-1488,-302,-36,387,161,-281
1,5343230,423,-1366,-490,-1488,-302,-36,387,161,-281
1,5343238,423,-1366,-490,-1488,-302,-36,387,161,-281
1,5343245,421,-1363,-492,-1485,-302,-29,387,161,-281
1,5343252,421,-1363,-492,-1485,-302,-29,387,161,-281
1,5343258,421,-1363,-492,-1485,-302,-29,387,161,-281
1,5343265,426,-1362,-493,-1491,-301,-41,387,161,-281
1,5343273,426,-1362,-493,-1491,-301,-41,387,161,-281
1,5343282,426,-1362,-493,-1491,-301,-41,387,161,-281
1,5343289,424,-1364,-488,-1491,-299,-35,383,157,-279
1,5343296,424,-1364,-488,-1491,-299,-35,383,157,-279
1,5343301,424,-1364,-488,-1491,-299,-35,383,157,-279
1,5343308,423,-1363,-488,-1487,-296,-40,383,157,-279
1,5343315,423,-1363,-488,-1487,-296,-40,383,157,-279
1,5343324,423,-1366,-492,-1491,-304,-40,383,157,-279
1,5343330,423,-1366,-492,-1491,-304,-40,383,157,-279
1,5343337,423,-1366,-492,-1491,-304,-40,383,157,-279
1,5343343,423,-1365,-490,-1491,-294,-39,383,157,-279
1,5343350,423,-1365,-490,-1491,-294,-39,383,157,-279
1,5343358,423,-1365,-490,-1491,-294,-39,383,157,-279
1,5343365,424,-1364,-494,-1483,-307,-41,383,157,-279
1,5343372,424,-1364,-494,-1483,-307,-41,383,157,-279
1,5343378,424,-1364,-494,-1483,-307,-41,383,157,-279
1,5343386,423,-1366,-497,-1479,-304,-46,383,157,-279
1,5343392,423,-1366,-497,-1479,-304,-46,383,157,-279
1,5343399,423,-1366,-497,-1479,-304,-46,383,157,-279
1,5343406,424,-1364,-488,-1485,-308,-44,377,159,-275
1,5343413,424,-1364,-488,-1485,-308,-44,377,159,-275
1,5343419,424,-1364,-488,-1485,-308,-44,377,159,-275
1,5343426,423,-1364,-491,-1490,-303,-43,377,159,-275
1,5343434,423,-1364,-491,-1490,-303,-43,377,159,-275
1,5343442,423,-1364,-491,-1490,-303,-43,377,159,-275
1,5343451,425,-1364,-489,-1489,-300,-34,377,159,-275
1,5343456,425,-1364,-489,-1489,-300,-34,377,159,-275
1,5343463,425,-1364,-489,-1489,-300,-34,377,159,-275
1,5343468,424,-1367,-489,-1485,-302,-41,377,159,-275
1,5343474,424,-1367,-489,-1485,-302,-41,377,159,-275
1,5343481,424,-1367,-489,-1485,-302,-41,377,159,-275
1,5343489,424,-1365,-495,-1489,-306,-40,377,159,-275
1,5343496,424,-1365,-495,-1489,-306,-40,377,159,-275
1,5343502,424,-1365,-495,-1489,-306,-40,377,159,-275
1,5343507,426,-1363,-491,-1489,-308,-36,377,159,-275
1,5343512,426,-1363,-491,-1489,-308,-36,377,159,-275
1,5343517,426,-1363,-491,-1489,-308,-36,377,159,-275
1,5343522,426,-1363,-491,-1489,-308,-36,377,159,-275
1,5343527,424,-1363,-488,-1487,-297,-34,379,155,-271
1,5343535,424,-1363,-488,-1487,-297,-34,379,155,-271
1,5343543,426,-1363,-490,-1484,-296,-33,379,155,-271
1,5343550,426,-1363,-490,-1484,-296,-33,379,155,-271
1,5343557,426,-1363,-490,-1484,-296,-33,379,155,-271
1,5343563,425,-1364,-488,-1489,-298,-36,379,155,-271
1,5343577,425,-1364,-488,-1489,-298,-36,379,155,-271
1,5343588,424,-1366,-489,-1478,-298,-37,379,155,-271
1,5343601,424,-1366,-489,-1478,-298,-37,379,155,-271
1,5343614,424,-1364,-486,-1477,-297,-38,379,155,-271
1,5343627,421,-1365,-490,-1476,-303,-41,379,155,-271
1,5343638,421,-1365,-490,-1476,-303,-41,379,155,-271
1,5343651,425,-1366,-485,-1477,-300,-41,379,155,-271
1,5343666,423,-1364,-488,-1480,-299,-41,379,155,-271
1,5343680,423,-1364,-488,-1480,-299,-41,379,155,-271
1,5343689,426,-1363,-485,-1482,-301,-39,379,155,-271
1,5343702,426,-1363,-485,-1482,-301,-39,379,155,-271
1,5343716,426,-1367,-488,-1485,-299,-43,379,155,-271
1,5343729,424,-1364,-493,-1485,-307,-48,379,155,-271
1,5343739,424,-1364,-493,-1485,-307,-48,379,155,-271
1,5343753,427,-1362,-490,-1482,-300,-37,379,155,-271
1,5343766,426,-1362,-497,-1488,-300,-39,379,155,-271
1,5343779,426,-1362,-497,-1488,-300,-39,379,155,-271
1,5343789,424,-1363,-492,-1489,-306,-34,378,154,-276
1,5343800,424,-1363,-492,-1489,-306,-34,378,154,-276
1,5343808,423,-1365,-486,-1493,-303,-36,378,154,-276
1,5343819,423,-1365,-486,-1493,-303,-36,378,154,-276
1,5343834,424,-1363,-488,-1487,-313,-45,378,154,-276
1,5343843,423,-1365,-494,-1492,-304,-39,378,154,-276
1,5343854,423,-1365,-494,-1492,-304,-39,378,154,-276
1,5343868,425,-1363,-492,-1487,-303,-35,378,154,-276
1,5343883,423,-1362,-492,-1485,-304,-43,378,154,-276
1,5343893,423,-1362,-492,-1485,-304,-43,378,154,-276
1,5343904,426,-1363,-489,-1487,-301,-38,378,156,-274
1,5343918,426,-1363,-489,-1487,-301,-38,378,156,-274
1,5343928,426,-1365,-492,-1491,-298,-34,378,156,-274
1,5343939,426,-1365,-492,-1491,-298,-34,378,156,-274
1,5343952,424,-1361,-493,-1488,-301,-41,378,156,-274
1,5343966,422,-1365,-492,-1487,-296,-39,378,156,-274
1,5343979,422,-1365,-492,-1487,-296,-39,378,156,-274
1,5343990,423,-1366,-494,-1489,-300,-37,378,156,-274
1,5344004,423,-1365,-491,-1493,-299,-44,378,156,-274
1,5344016,423,-1365,-491,-1493,-299,-44,378,156,-274
1,5344028,424,-1366,-488,-1486,-299,-43,377,153,-283
1,5344039,424,-1366,-488,-1486,-299,-43,377,153,-283
1,5344054,425,-1366,-491,-1482,-299,-45,377,153,-283
1,5344066,424,-1364,-491,-1483,-303,-44,377,153,-283
1,5344074,424,-1364,-491,-1483,-303,-44,377,153,-283
1,5344082,424,-1364,-491,-1483,-303,-44,377,153,-283
1,5344091,425,-1365,-489,-1491,-299,-43,377,153,-283
1,5344099,425,-1365,-489,-1491,-299,-43,377,153,-283
1,5344108,424,-1367,-489,-1487,-301,-39,377,153,-283
1,5344120,424,-1367,-489,-1487,-301,-39,377,153,-283
1,5344134,427,-1365,-497,-1479,-303,-37,377,153,-283
1,5344146,426,-1364,-492,-1487,-308,-38,378,144,-276
1,5344158,426,-1364,-492,-1487,-308,-38,378,144,-276
1,5344172,420,-1368,-491,-1488,-303,-37,378,144,-276
1,5344185,425,-1361,-488,-1491,-301,-41,378,144,-276
1,5344198,425,-1361,-488,-1491,-301,-41,378,144,-276
1,5344207,423,-1366,-490,-1485,-304,-42,378,144,-276
1,5344221,423,-1366,-490,-1485,-304,-42,378,144,-276
1,5344234,427,-1363,-492,-1487,-301,-42,378,144,-276
1,5344246,425,-1366,-491,-1493,-302,-39,378,144,-276
1,5344258,425,-1366,-491,-1493,-302,-39,378,144,-276
1,5344272,423,-1366,-492,-1485,-302,-34,378,144,-276
1,5344284,423,-1365,-491,-1487,-297,-34,377,149,-277
1,5344292,423,-1365,-491,-1487,-297,-34,377,149,-277
1,5344305,425,-1365,-494,-1486,-298,-40,377,149,-277
1,5344319,425,-1365,-494,-1486,-298,-40,377,149,-277
1,5344328,425,-1362,-490,-1494,-304,-37,377,149,-277
1,5344339,425,-1362,-490,-1494,-304,-37,377,149,-277
1,5344354,424,-1364,-488,-1497,-308,-39,377,149,-277
1,5344367,422,-1364,-495,-1496,-298,-46,377,149,-277
1,5344376,422,-1364,-495,-1496,-298,-46,377,149,-277
1,5344389,426,-1365,-490,-1484,-299,-47,377,149,-277
1,5344402,426,-1365,-490,-1484,-299,-47,377,149,-277
1,5344415,426,-1365,-486,-1487,-302,-38,377,151,-271
1,5344428,422,-1363,-487,-1485,-301,-38,377,151,-271
1,5344440,422,-1363,-487,-1485,-301,-38,377,151,-271
1,5344453,426,-1365,-491,-1487,-303,-34,377,151,-271
1,5344466,425,-1364,-492,-1488,-298,-43,377,151,-271
1,5344479,425,-1364,-492,-1488,-298,-43,377,151,-271
1,5344491,425,-1364,-492,-1488,-298,-43,377,151,-271
1,5344503,424,-1365,-493,-1482,-297,-37,377,151,-271
1,5344512,424,-1365,-493,-1482,-297,-37,377,151,-271
1,5344519,424,-1365,-493,-1482,-297,-37,377,151,-271
1,5344528,428,-1364,-488,-1485,-306,-35,379,153,-269
1,5344536,428,-1364,-488,-1485,-306,-35,379,153,-269
1,5344544,428,-1364,-488,-1485,-306,-35,379,153,-269
1,5344557,428,-1364,-488,-1485,-306,-35,379,153,-269
1,5344571,424,-1364,-488,-1482,-299,-37,379,153,-269
1,5344578,424,-1364,-488,-1482,-299,-37,379,153,-269
1,5344585,425,-1368,-489,-1482,-293,-39,379,153,-269
1,5344591,425,-1368,-489,-1482,-293,-39,379,153,-269
1,5344599,425,-1368,-489,-1482,-293,-39,379,153,-269
1,5344607,422,-1365,-492,-1477,-299,-39,379,153,-269
1,5344614,422,-1365,-492,-1477,-299,-39,379,153,-269
1,5344621,422,-1365,-492,-1477,-299,-39,379,153,-269
1,5344627,424,-1365,-493,-1483,-303,-41,379,153,-269
1,5344634,424,-1365,-493,-1483,-303,-41,379,153,-269
1,5344643,424,-1365,-493,-1483,-303,-41,379,153,-269
1,5344649,425,-1366,-487,-1483,-297,-36,382,152,-276
1,5344655,425,-1366,-487,-1483,-297,-36,382,152,-276
1,5344663,425,-1366,-487,-1483,-297,-36,382,152,-276
1,5344668,426,-1365,-485,-1487,-302,-37,382,152,-276
1,5344673,426,-1365,-485,-1487,-302,-37,382,152,-276
1,5344680,426,-1365,-485,-1487,-302,-37,382,152,-276
1,5344688,426,-1364,-490,-1482,-304,-45,382,152,-276
1,5344695,426,-1364,-490,-1482,-304,-45,382,152,-276
1,5344701,426,-1364,-490,-1482,-304,-45,382,152,-276
1,5344707,426,-1365,-491,-1488,-303,-43,382,152,-276
1,5344715,426,-1365,-491,-1488,-303,-43,382,152,-276
1,5344722,426,-1365,-491,-1488,-303,-43,382,152,-276
1,5344728,423,-1361,-488,-1492,-303,-38,382,152,-276
1,5344735,423,-1361,-488,-1492,-303,-38,382,152,-276
1,5344742,423,-1361,-488,-1492,-303,-38,382,152,-276
1,5344749,422,-1364,-492,-1482,-307,-37,382,152,-276
1,5344756,422,-1364,-492,-1482,-307,-37,382,152,-276
1,5344763,426,-1364,-491,-1487,-307,-37,382,152,-276
1,5344770,426,-1364,-491,-1487,-307,-37,382,152,-276
1,5344776,426,-1364,-491,-1487,-307,-37,382,152,-276
1,5344783,423,-1365,-486,-1487,-306,-43,382,152,-276
1,5344791,423,-1365,-486,-1487,-306,-43,380,158,-276
1,5344798,423,-1365,-486,-1487,-306,-43,380,158,-276
1,5344803,425,-1365,-489,-1484,-302,-37,380,158,-276
1,5344811,425,-1365,-489,-1484,-302,-37,380,158,-276
1,5344817,425,-1365,-489,-1484,-302,-37,380,158,-276
1,5344824,424,-1364,-493,-1478,-305,-44,380,158,-276
1,5344832,424,-1364,-493,-1478,-305,-44,380,158,-276
1,5344838,424,-1364,-493,-1478,-305,-44,380,158,-276
1,5344846,426,-1367,-492,-1479,-304,-43,380,158,-276
1,5344854,426,-1367,-492,-1479,-304,-43,380,158,-276
1,5344861,426,-1367,-492,-1479,-304,-43,380,158,-276
1,5344868,427,-1365,-488,-1489,-302,-44,380,158,-276
1,5344874,427,-1365,-488,-1489,-302,-44,380,158,-276
1,5344882,427,-1365,-488,-1489,-302,-44,380,158,-276
1,5344890,425,-1364,-493,-1488,-299,-38,380,158,-276
1,5344896,425,-1364,-493,-1488,-299,-38,380,158,-276
1,5344902,425,-1364,-493,-1488,-299,-38,380,158,-276
1,5344909,424,-1365,-491,-1485,-296,-41,370,150,-276
1,5344917,424,-1365,-491,-1485,-296,-41,370,150,-276
1,5344924,424,-1366,-490,-1492,-299,-34,370,150,-276
1,5344932,424,-1366,-490,-1492,-299,-34,370,150,-276
1,5344940,424,-1366,-490,-1492,-299,-34,370,150,-276
1,5344948,424,-1363,-493,-1486,-299,-36,370,150,-276
1,5344954,424,-1363,-493,-1486,-299,-36,370,150,-276
1,5344960,424,-1363,-493,-1486,-299,-36,370,150,-276
1,5344967,426,-1366,-488,-1476,-297,-41,370,150,-276
1,5344975,426,-1366,-488,-1476,-297,-41,370,150,-276
1,5344983,426,-1366,-488,-1476,-297,-41,370,150,-276
1,5344990,425,-1366,-491,-1486,-302,-33,370,150,-276
1,5344995,425,-1366,-491,-1486,-302,-33,370,150,-276
1,5345002,425,-1366,-491,-1486,-302,-33,370,150,-276
1,5345008,424,-1365,-489,-1485,-299,-38,370,150,-276
1,5345015,424,-1365,-489,-1485,-299,-38,370,150,-276
1,5345022,424,-1365,-489,-1485,-299,-38,370,150,-276
1,5345028,423,-1367,-493,-1486,-297,-43,375,155,-269
1,5345035,423,-1367,-493,-1486,-297,-43,375,155,-269
1,5345042,423,-1367,-493,-1486,-297,-43,375,155,-269
1,5345049,425,-1366,-493,-1486,-306,-41,375,155,-269
1,5345056,425,-1366,-493,-1486,-306,-41,375,155,-269
1,5345064,423,-1366,-488,-1492,-302,-41,375,155,-269
1,5345072,423,-1366,-488,-1492,-302,-41,375,155,-269
1,5345079,423,-1366,-488,-1492,-302,-41,375,155,-269
1,5345085,423,-1363,-492,-1489,-303,-34,375,155,-269
1,5345092,423,-1363,-492,-1489,-303,-34,375,155,-269
1,5345098,423,-1363,-492,-1489,-303,-34,375,155,-269
1,5345104,425,-1366,-490,-1485,-301,-36,375,155,-269
1,5345110,425,-1366,-490,-1485,-301,-36,375,155,-269
1,5345117,425,-1366,-490,-1485,-301,-36,375,155,-269
1,5345123,425,-1366,-490,-1485,-301,-36,375,155,-269
1,5345130,425,-1366,-490,-1485,-301,-36,375,155,-269
1,5345136,425,-1366,-490,-1485,-301,-36,375,155,-269
1,5345142,425,-1366,-490,-1485,-301,-36,375,155,-269
1,5345150,422,-1365,-491,-1484,-298,-37,376,146,-276
1,5345158,422,-1365,-491,-1484,-298,-37,376,146,-276
1,5345165,424,-1365,-491,-1487,-302,-33,376,146,-276
1,5345171,424,-1365,-491,-1487,-302,-33,376,146,-276
1,5345177,424,-1365,-491,-1487,-302,-33,376,146,-276
1,5345185,421,-1363,-494,-1486,-300,-38,376,146,-276
1,5345192,421,-1363,-494,-1486,-300,-38,376,146,-276
1,5345200,421,-1363,-494,-1486,-300,-38,376,146,-276
1,5345208,424,-1365,-493,-1479,-301,-36,376,146,-276
1,5345213,424,-1365,-493,-1479,-301,-36,376,146,-276
1,5345220,424,-1365,-493,-1479,-301,-36,376,146,-276
1,5345226,425,-1364,-492,-1484,-292,-42,376,146,-276
1,5345232,425,-1364,-492,-1484,-292,-42,376,146,-276
1,5345240,425,-1364,-492,-1484,-292,-42,376,146,-276
1,5345245,423,-1362,-491,-1490,-295,-45,376,146,-276
1,5345253,423,-1362,-491,-1490,-295,-45,376,146,-276
1,5345260,423,-1362,-491,-1490,-295,-45,376,146,-276
1,5345269,424,-1368,-493,-1486,-300,-43,376,146,-276
1,5345275,424,-1368,-493,-1486,-300,-43,376,146,-276
1,5345283,424,-1368,-493,-1486,-300,-43,376,146,-276
1,5345289,422,-1364,-488,-1490,-299,-39,370,152,-270
1,5345296,422,-1364,-488,-1490,-299,-39,370,152,-270
1,5345303,422,-1364,-488,-1490,-299,-39,370,152,-270
1,5345310,425,-1367,-490,-1489,-301,-38,370,152,-270
1,5345318,425,-1367,-490,-1489,-301,-38,370,152,-270
1,5345327,426,-1365,-489,-1490,-299,-39,370,152,-270
1,5345334,426,-1365,-489,-1490,-299,-39,370,152,-270
1,5345340,426,-1365,-489,-1490,-299,-39,370,152,-270
1,5345347,425,-1361,-492,-1488,-301,-39,370,152,-270
1,5345354,425,-1361,-492,-1488,-301,-39,370,152,-270
1,5345361,425,-1361,-492,-1488,-301,-39,370,152,-270
1,5345369,424,-1363,-493,-1487,-300,-42,370,152,-270
1,5345375,424,-1363,-493,-1487,-300,-42,370,152,-270
1,5345382,424,-1363,-493,-1487,-300,-42,370,152,-270
1,5345389,424,-1365,-489,-1485,-305,-37,370,152,-270
1,5345395,424,-1365,-489,-1485,-305,-37,370,152,-270
1,5345402,424,-1365,-489,-1485,-305,-37,370,152,-270
1,5345411,424,-1365,-487,-1492,-302,-40,373,155,-277
1,5345419,424,-1365,-487,-1492,-302,-40,373,155,-277
1,5345427,423,-1362,-492,-1483,-298,-40,373,155,-277
1,5345433,423,-1362,-492,-1483,-298,-40,373,155,-277
1,5345440,423,-1362,-492,-1483,-298,-40,373,155,-277
1,5345446,424,-1362,-488,-1485,-303,-41,373,155,-277
1,5345454,424,-1362,-488,-1485,-303,-41,373,155,-277
1,5345461,424,-1362,-488,-1485,-303,-41,373,155,-277
1,5345468,425,-1362,-494,-1489,-298,-36,373,155,-277
1,5345476,425,-1362,-494,-1489,-298,-36,373,155,-277
1,5345483,424,-1361,-488,-1482,-299,-37,373,155,-277
1,5345490,424,-1361,-488,-1482,-299,-37,373,155,-277
1,5345498,424,-1361,-488,-1482,-299,-37,373,155,-277
1,5345503,424,-1361,-488,-1482,-299,-37,373,155,-277
1,5345508,426,-1364,-488,-1491,-306,-40,373,155,-277
1,5345513,426,-1364,-488,-1491,-306,-40,373,155,-277
1,5345518,426,-1364,-488,-1491,-306,-40,373,155,-277
1,5345523,423,-1366,-487,-1491,-302,-39,378,152,-280
1,5345529,423,-1366,-487,-1491,-302,-39,378,152,-280
1,5345534,423,-1366,-487,-1491,-302,-39,378,152,-280
1,5345543,423,-1366,-487,-1491,-302,-39,378,152,-280
1,5345550,421,-1364,-490,-1484,-304,-37,378,152,-280
1,5345557,421,-1364,-490,-1484,-304,-37,378,152,-280
1,5345562,421,-1364,-490,-1484,-304,-37,378,152,-280
1,5345570,426,-1366,-488,-1483,-299,-31,378,152,-280
1,5345577,426,-1366,-488,-1483,-299,-31,378,152,-280
1,5345590,427,-1364,-489,-1495,-300,-33,378,152,-280
1,5345599,427,-1364,-489,-1495,-300,-33,378,152,-280
1,5345612,422,-1364,-490,-1487,-305,-40,378,152,-280
1,5345624,426,-1364,-493,-1493,-300,-39,378,152,-280
1,5345637,426,-1364,-493,-1493,-300,-39,378,152,-280
1,5345647,426,-1363,-489,-1489,-308,-29,384,148,-270
1,5345660,426,-1363,-489,-1489,-308,-29,384,148,-270
1,5345672,425,-1365,-487,-1485,-304,-36,384,148,-270
1,5345682,425,-1365,-487,-1485,-304,-36,384,148,-270
1,5345696,423,-1368,-488,-1484,-296,-35,384,148,-270
1,5345711,424,-1364,-491,-1493,-298,-38,384,148,-270
1,5345720,424,-1364,-491,-1493,-298,-38,384,148,-270
1,5345728,424,-1363,-497,-1488,-306,-32,384,148,-270
1,5345737,424,-1363,-497,-1488,-306,-32,384,148,-270
1,5345744,422,-1365,-492,-1486,-300,-35,384,148,-270
1,5345753,422,-1365,-492,-1486,-300,-35,384,148,-270
1,5345761,422,-1365,-492,-1486,-300,-35,384,148,-270
1,5345772,423,-1365,-486,-1487,-306,-39,384,148,-270
1,5345784,425,-1365,-488,-1487,-307,-39,384,148,-270
1,5345797,425,-1365,-488,-1487,-307,-39,384,148,-270
1,5345805,428,-1366,-488,-1484,-306,-38,384,148,-270
1,5345817,428,-1366,-488,-1484,-306,-38,384,148,-270
1,5345830,421,-1365,-494,-1484,-307,-39,384,148,-270
1,5345844,425,-1365,-492,-1490,-308,-37,384,148,-270
1,5345858,425,-1365,-492,-1490,-308,-37,384,148,-270
1,5345867,422,-1367,-496,-1488,-303,-38,384,148,-270
1,5345880,422,-1367,-496,-1488,-303,-38,384,148,-270
1,5345892,425,-1365,-491,-1481,-295,-39,384,148,-270
1,5345905,424,-1363,-490,-1478,-302,-37,382,162,-268
1,5345918,424,-1363,-490,-1478,-302,-37,382,162,-268
1,5345931,427,-1366,-487,-1483,-302,-42,382,162,-268
1,5345943,427,-1366,-487,-1483,-302,-42,382,162,-268
1,5345956,427,-1366,-490,-1483,-300,-45,382,162,-268
1,5345970,423,-1368,-491,-1484,-297,-41,382,162,-268
1,5345983,423,-1368,-491,-1484,-297,-41,382,162,-268
1,5345995,423,-1365,-490,-1491,-301,-36,382,162,-268
1,5346010,423,-1366,-492,-1482,-303,-39,382,162,-268
1,5346022,423,-1366,-492,-1482,-303,-39,382,162,-268
1,5346034,426,-1365,-486,-1490,-309,-43,378,150,-276
1,5346048,425,-1365,-489,-1484,-298,-36,378,150,-276
1,5346061,425,-1365,-489,-1484,-298,-36,378,150,-276
1,5346074,423,-1365,-490,-1486,-296,-43,378,150,-276
1,5346083,424,-1363,-487,-1487,-295,-39,378,150,-276
1,5346097,424,-1363,-487,-1487,-295,-39,378,150,-276
1,5346109,425,-1365,-493,-1488,-300,-37,378,150,-276
1,5346122,425,-1365,-493,-1488,-300,-37,378,150,-276
1,5346132,422,-1364,-492,-1488,-305,-38,378,150,-276
1,5346148,422,-1365,-490,-1488,-304,-43,373,151,-275
1,5346159,422,-1365,-490,-1488,-304,-43,373,151,-275
1,5346171,424,-1365,-486,-1480,-296,-40,373,151,-275
1,5346185,424,-1365,-488,-1485,-300,-34,373,151,-275
1,5346198,424,-1365,-488,-1485,-300,-34,373,151,-275
1,5346210,426,-1366,-491,-1487,-301,-36,373,151,-275
1,5346223,426,-1366,-491,-1487,-301,-36,373,151,-275
1,5346236,423,-1364,-493,-1479,-300,-38,373,151,-275
1,5346248,423,-1364,-491,-1471,-303,-35,373,151,-275
1,5346260,423,-1364,-491,-1471,-303,-35,373,151,-275
1,5346272,425,-1366,-491,-1483,-300,-36,373,155,-273
1,5346285,422,-1368,-488,-1486,-303,-37,373,155,-273
1,5346297,422,-1368,-488,-1486,-303,-37,373,155,-273
1,5346309,424,-1363,-487,-1484,-304,-43,373,155,-273
1,5346318,424,-1363,-487,-1484,-304,-43,373,155,-273
1,5346331,425,-1365,-491,-1492,-300,-44,373,155,-273
1,5346344,424,-1365,-484,-1483,-303,-43,373,155,-273
1,5346353,424,-1365,-484,-1483,-303,-43,373,155,-273
1,5346362,424,-1365,-484,-1483,-303,-43,373,155,-273
1,5346370,423,-1367,-493,-1483,-301,-41,373,155,-273
1,5346378,423,-1367,-493,-1483,-301,-41,373,155,-273
1,5346386,423,-1364,-494,-1483,-303,-37,373,155,-273
1,5346400,423,-1364,-494,-1483,-303,-37,373,155,-273
1,5346415,423,-1364,-485,-1485,-297,-40,365,149,-273
1,5346427,425,-1364,-487,-1485,-303,-38,365,149,-273
1,5346440,425,-1364,-487,-1485,-303,-38,365,149,-273
1,5346453,425,-1364,-487,-1485,-303,-38,365,149,-273
1,5346467,424,-1366,-495,-1486,-301,-52,365,149,-273
1,5346480,424,-1366,-495,-1486,-301,-52,365,149,-273
1,5346492,424,-1365,-494,-1493,-303,-47,365,149,-273
1,5346503,424,-1365,-494,-1493,-303,-47,365,149,-273
1,5346510,425,-1367,-489,-1492,-304,-37,365,149,-273
1,5346519,425,-1367,-489,-1492,-304,-37,365,149,-273
1,5346527,422,-1362,-491,-1480,-304,-49,381,159,-271
1,5346536,422,-1362,-491,-1480,-304,-49,381,159,-271
1,5346549,424,-1364,-491,-1487,-304,-47,381,159,-271
1,5346562,424,-1364,-491,-1487,-304,-47,381,159,-271
1,5346574,424,-1363,-492,-1480,-306,-45,381,159,-271
1,5346585,424,-1364,-489,-1488,-307,-48,381,159,-271
1,5346592,424,-1364,-489,-1488,-307,-48,381,159,-271
1,5346600,424,-1364,-489,-1488,-307,-48,381,159,-271
1,5346608,424,-1366,-494,-1494,-301,-48,381,159,-271
1,5346614,424,-1366,-494,-1494,-301,-48,381,159,-271
1,5346621,424,-1366,-494,-1494,-301,-48,381,159,-271
1,5346628,424,-1364,-490,-1484,-302,-39,381,159,-271
1,5346635,424,-1364,-490,-1484,-302,-39,381,159,-271
1,5346642,424,-1364,-490,-1484,-302,-39,381,159,-271
1,5346650,424,-1363,-489,-1485,-305,-46,376,152,-274
1,5346658,424,-1363,-489,-1485,-305,-46,376,152,-274
1,5346664,424,-1363,-489,-1485,-305,-46,376,152,-274
1,5346670,425,-1363,-491,-1488,-301,-42,376,152,-274
1,5346678,425,-1363,-491,-1488,-301,-42,376,152,-274
1,5346686,423,-1363,-492,-1489,-300,-34,376,152,-274
1,5346694,423,-1363,-492,-1489,-300,-34,376,152,-274
1,5346701,423,-1363,-492,-1489,-300,-34,376,152,-274
1,5346708,426,-1363,-491,-1486,-297,-45,376,152,-274
1,5346714,426,-1363,-491,-1486,-297,-45,376,152,-274
1,5346720,426,-1363,-491,-1486,-297,-45,376,152,-274
1,5346728,423,-1364,-493,-1492,-306,-36,376,152,-274
1,5346737,423,-1364,-493,-1492,-306,-36,376,152,-274
1,5346744,423,-1364,-493,-1492,-306,-36,376,152,-274
1,5346750,424,-1367,-494,-1493,-301,-37,376,152,-274
1,5346757,424,-1367,-494,-1493,-301,-37,376,152,-274
1,5346764,423,-1366,-492,-1490,-304,-45,376,152,-274
1,5346769,423,-1366,-492,-1490,-304,-45,376,160,-274
1,5346777,423,-1366,-492,-1490,-304,-45,376,160,-274
1,5346785,421,-1365,-493,-1489,-302,-49,376,160,-274
1,5346792,421,-1365,-493,-1489,-302,-49,376,160,-274
1,5346798,421,-1365,-493,-1489,-302,-49,376,160,-274
1,5346803,421,-1365,-493,-1489,-302,-49,376,160,-274
1,5346810,424,-1367,-490,-1496,-299,-47,376,160,-274
1,5346819,424,-1367,-490,-1496,-299,-47,376,160,-274
1,5346827,425,-1365,-492,-1486,-302,-41,376,160,-274
1,5346835,425,-1365,-492,-1486,-302,-41,376,160,-274
1,5346841,425,-1365,-492,-1486,-302,-41,376,160,-274
1,5346849,425,-1364,-490,-1490,-295,-35,376,160,-274
1,5346856,425,-1364,-490,-1490,-295,-35,376,160,-274
1,5346863,425,-1364,-490,-1490,-295,-35,376,160,-274
1,5346870,424,-1366,-494,-1490,-299,-41,376,160,-274
1,5346875,424,-1366,-494,-1490,-299,-41,376,160,-274
1,5346880,424,-1366,-494,-1490,-299,-41,376,160,-274
1,5346885,423,-1367,-494,-1490,-302,-37,376,160,-274
1,5346893,423,-1367,-494,-1490,-302,-37,376,160,-274
1,5346899,423,-1367,-494,-1490,-302,-37,376,160,-274
1,5346907,423,-1364,-490,-1487,-303,-39,375,153,-277
1,5346913,423,-1364,-490,-1487,-303,-39,375,153,-277
1,5346918,423,-1364,-490,-1487,-303,-39,375,153,-277
1,5346924,423,-1364,-490,-1487,-303,-39,375,153,-277
1,5346930,422,-1367,-493,-1485,-301,-41,375,153,-277
1,5346936,422,-1367,-493,-1485,-301,-41,375,153,-277
1,5346944,425,-1363,-490,-1486,-296,-35,375,153,-277
1,5346952,425,-1363,-490,-1486,-296,-35,375,153,-277
1,5346959,425,-1363,-490,-1486,-296,-35,375,153,-277
1,5346965,422,-1365,-493,-1484,-306,-46,375,153,-277
1,5346972,422,-1365,-493,-1484,-306,-46,375,153,-277
1,5346978,422,-1365,-493,-1484,-306,-46,375,153,-277
1,5346985,421,-1366,-490,-1486,-303,-42,375,153,-277
1,5346994,421,-1366,-490,-1486,-303,-42,375,153,-277
1,5347001,421,-1366,-490,-1486,-303,-42,375,153,-277
1,5347008,426,-1366,-489,-1486,-300,-41,375,153,-277
1,5347015,426,-1366,-489,-1486,-300,-41,375,153,-277
1,5347020,426,-1366,-489,-1486,-300,-41,375,153,-277
1,5347027,424,-1362,-484,-1488,-301,-38,374,150,-272
1,5347036,424,-1362,-484,-1488,-301,-38,374,150,-272
1,5347043,424,-1362,-484,-1488,-301,-38,374,150,-272
1,5347050,425,-1365,-487,-1488,-300,-49,374,150,-272
1,5347057,425,-1365,-487,-1488,-300,-49,374,150,-272
1,5347064,426,-1366,-491,-1490,-302,-50,374,150,-272
1,5347073,426,-1366,-491,-1490,-302,-50,374,150,-272
1,5347080,426,-1366,-491,-1490,-302,-50,374,150,-272
1,5347087,425,-1367,-489,-1489,-300,-39,374,150,-272
1,5347095,425,-1367,-489,-1489,-300,-39,374,150,-272
1,5347102,425,-1367,-489,-1489,-300,-39,374,150,-272
1,5347110,426,-1368,-488,-1487,-305,-41,374,150,-272
1,5347118,426,-1368,-488,-1487,-305,-41,374,150,-272
1,5347125,421,-1364,-489,-1486,-305,-41,374,150,-272
1,5347132,421,-1364,-489,-1486,-305,-41,374,150,-272
1,5347140,421,-1364,-489,-1486,-305,-41,374,150,-272
1,5347147,424,-1364,-487,-1486,-301,-44,380,146,-266
1,5347154,424,-1364,-487,-1486,-301,-44,380,146,-266
1,5347162,424,-1364,-487,-1486,-301,-44,380,146,-266
1,5347169,422,-1368,-491,-1487,-307,-37,380,146,-266
1,5347176,422,-1368,-491,-1487,-307,-37,380,146,-266
1,5347183,422,-1368,-491,-1487,-307,-37,380,146,-266
1,5347190,422,-1368,-491,-1487,-307,-37,380,146,-266
1,5347196,422,-1368,-491,-1487,-307,-37,380,146,-266
1,5347204,422,-1368,-491,-1487,-307,-37,380,146,-266
1,5347212,426,-1366,-486,-1485,-301,-39,380,146,-266
1,5347219,426,-1366,-486,-1485,-301,-39,380,146,-266
1,5347226,423,-1367,-488,-1486,-305,-37,380,146,-266
1,5347233,423,-1367,-488,-1486,-305,-37,380,146,-266
1,5347238,423,-1367,-488,-1486,-305,-37,380,146,-266
1,5347247,424,-1364,-491,-1493,-299,-45,380,146,-266
1,5347254,424,-1364,-491,-1493,-299,-45,380,146,-266
1,5347262,424,-1364,-491,-1493,-299,-45,380,146,-266
1,5347270,424,-1364,-491,-1493,-299,-45,380,152,-274
1,5347277,424,-1364,-491,-1493,-299,-45,380,152,-274
1,5347286,423,-1363,-490,-1493,-299,-46,380,152,-274
1,5347291,423,-1363,-490,-1493,-299,-46,380,152,-274
1,5347298,423,-1363,-490,-1493,-299,-46,380,152,-274
1,5347304,424,-1363,-490,-1487,-304,-42,380,152,-274
1,5347310,424,-1363,-490,-1487,-304,-42,380,152,-274
1,5347316,424,-1363,-490,-1487,-304,-42,380,152,-274
1,5347321,424,-1363,-490,-1487,-304,-42,380,152,-274
1,5347330,423,-1364,-491,-1484,-305,-36,380,152,-274
1,5347336,423,-1364,-491,-1484,-305,-36,380,152,-274
1,5347341,423,-1364,-491,-1484,-305,-36,380,152,-274
1,5347349,421,-1364,-487,-1486,-304,-33,380,152,-274
1,5347354,421,-1364,-487,-1486,-304,-33,380,152,-274
1,5347362,421,-1364,-487,-1486,-304,-33,380,152,-274
1,5347368,422,-1366,-494,-1480,-298,-38,380,152,-274
1,5347376,422,-1366,-494,-1480,-298,-38,380,152,-274
1,5347383,422,-1366,-494,-1480,-298,-38,380,152,-274
1,5347389,421,-1366,-491,-1478,-307,-44,380,152,-274
1,5347397,421,-1366,-491,-1478,-307,-44,380,152,-274
1,5347404,421,-1366,-491,-1478,-307,-44,380,152,-274
1,5347410,423,-1364,-489,-1486,-304,-40,373,151,-277
1,5347418,423,-1364,-489,-1486,-304,-40,373,151,-277
1,5347425,423,-1366,-489,-1487,-303,-42,373,151,-277
1,5347431,423,-1366,-489,-1487,-303,-42,373,151,-277
1,5347438,423,-1366,-489,-1487,-303,-42,373,151,-277
1,5347446,423,-1367,-493,-1482,-303,-35,373,151,-277
1,5347452,423,-1367,-493,-1482,-303,-35,373,151,-277
1,5347460,423,-1367,-493,-1482,-303,-35,373,151,-277
1,5347466,423,-1366,-489,-1486,-295,-38,373,151,-277
1,5347472,423,-1366,-489,-1486,-295,-38,373,151,-277
1,5347480,423,-1366,-489,-1486,-295,-38,373,151,-277
1,5347486,424,-1367,-489,-1487,-299,-38,373,151,-277
1,5347492,424,-1367,-489,-1487,-299,-38,373,151,-277
1,5347500,424,-1367,-489,-1487,-299,-38,373,151,-277
1,5347505,424,-1366,-495,-1485,-297,-46,373,151,-277
1,5347510,424,-1366,-495,-1485,-297,-46,373,151,-277
1,5347514,424,-1366,-495,-1485,-297,-46,373,151,-277
1,5347519,424,-1366,-495,-1485,-297,-46,373,151,-277
1,5347525,423,-1366,-488,-1481,-298,-46,376,162,-266
1,5347530,423,-1366,-488,-1481,-298,-46,376,162,-266
1,5347536,423,-1366,-488,-1481,-298,-46,376,162,-266
1,5347544,423,-1366,-488,-1481,-298,-46,376,162,-266
1,5347552,423,-1363,-489,-1478,-301,-37,376,162,-266
1,5347559,423,-1363,-489,-1478,-301,-37,376,162,-266
1,5347567,426,-1365,-486,-1486,-304,-37,376,162,-266
1,5347575,426,-1365,-486,-1486,-304,-37,376,162,-266
1,5347582,426,-1365,-486,-1486,-304,-37,376,162,-266
1,5347590,426,-1365,-492,-1493,-303,-45,376,162,-266
1,5347601,426,-1365,-492,-1493,-303,-45,376,162,-266
1,5347610,425,-1364,-488,-1488,-299,-38,376,162,-266
1,5347622,425,-1364,-488,-1488,-299,-38,376,162,-266
1,5347636,423,-1365,-492,-1487,-300,-42,376,162,-266
1,5347644,423,-1365,-492,-1487,-300,-42,376,162,-266
1,5347656,424,-1367,-487,-1488,-294,-44,375,153,-277
1,5347670,424,-1364,-484,-1488,-297,-43,375,153,-277
1,5347682,424,-1364,-484,-1488,-297,-43,375,153,-277
1,5347693,425,-1364,-489,-1479,-300,-40,375,153,-277
1,5347706,422,-1362,-489,-1489,-300,-40,375,153,-277
1,5347719,422,-1362,-489,-1489,-300,-40,375,153,-277
1,5347732,425,-1363,-494,-1495,-304,-39,375,153,-277
1,5347742,425,-1363,-494,-1495,-304,-39,375,153,-277
1,5347757,424,-1367,-495,-1497,-302,-44,375,153,-277
1,5347770,422,-1362,-490,-1492,-304,-33,374,156,-274
1,5347783,422,-1362,-490,-1492,-304,-33,374,156,-274
1,5347796,424,-1365,-489,-1484,-301,-33,374,156,-274
1,5347805,424,-1365,-484,-1479,-302,-36,374,156,-274
1,5347815,424,-1365,-484,-1479,-302,-36,374,156,-274
1,5347826,423,-1363,-490,-1481,-304,-43,374,156,-274
1,5347840,423,-1363,-490,-1481,-304,-43,374,156,-274
1,5347854,422,-1366,-488,-1487,-294,-44,374,156,-274
1,5347864,422,-1366,-488,-1487,-294,-44,374,156,-274
1,5347872,424,-1364,-493,-1488,-297,-33,374,156,-274
1,5347881,424,-1364,-493,-1488,-297,-33,374,156,-274
1,5347890,423,-1366,-490,-1490,-296,-42,374,156,-274
1,5347897,423,-1366,-490,-1490,-296,-42,374,156,-274
1,5347909,424,-1362,-487,-1485,-304,-41,374,156,-274
1,5347921,424,-1362,-487,-1485,-304,-41,374,156,-274
1,5347933,423,-1365,-490,-1482,-304,-49,374,156,-274
1,5347943,423,-1365,-490,-1482,-304,-49,374,156,-274
1,5347957,422,-1367,-496,-1486,-301,-39,374,156,-274
1,5347971,425,-1364,-491,-1486,-302,-43,374,156,-274
1,5347978,425,-1364,-491,-1486,-302,-43,374,156,-274
1,5347991,425,-1367,-491,-1487,-304,-40,374,156,-274
1,5348002,425,-1367,-491,-1487,-304,-40,374,156,-274
1,5348017,423,-1366,-486,-1484,-292,-46,374,156,-274
1,5348028,427,-1365,-485,-1479,-297,-43,383,151,-275
1,5348041,427,-1365,-485,-1479,-297,-43,383,151,-275
1,5348056,423,-1367,-490,-1484,-305,-42,383,151,-275
1,5348070,422,-1367,-488,-1482,-303,-39,383,151,-275
1,5348078,422,-1367,-488,-1482,-303,-39,383,151,-275
1,5348091,427,-1364,-489,-1483,-306,-42,383,151,-275
1,5348105,426,-1364,-489,-1481,-306,-36,383,151,-275
1,5348118,426,-1364,-489,-1481,-306,-36,383,151,-275
1,5348128,422,-1366,-489,-1492,-299,-42,383,151,-275
1,5348142,422,-1366,-489,-1492,-299,-42,383,151,-275
1,5348155,423,-1366,-489,-1495,-302,-42,379,159,-275
1,5348167,427,-1365,-487,-1495,-305,-40,379,159,-275
1,5348178,427,-1365,-487,-1495,-305,-40,379,159,-275
1,5348192,424,-1363,-491,-1486,-303,-37,379,159,-275
1,5348203,424,-1363,-491,-1486,-303,-37,379,159,-275
1,5348216,425,-1364,-487,-1486,-304,-31,379,159,-275
1,5348227,425,-1366,-490,-1492,-308,-36,379,159,-275
1,5348241,425,-1366,-490,-1492,-308,-36,379,159,-275
1,5348252,423,-1368,-495,-1487,-302,-30,379,159,-275
1,5348267,424,-1364,-492,-1489,-304,-35,382,158,-280
1,5348280,424,-1364,-492,-1489,-304,-35,382,158,-280
1,5348292,422,-1365,-495,-1487,-305,-33,382,158,-280
1,5348302,422,-1365,-495,-1487,-305,-33,382,158,-280
1,5348314,422,-1365,-489,-1488,-306,-37,382,158,-280
1,5348326,423,-1364,-493,-1487,-302,-36,382,158,-280
1,5348339,423,-1364,-493,-1487,-302,-36,382,158,-280
1,5348347,422,-1364,-487,-1481,-306,-36,382,158,-280
1,5348361,422,-1364,-487,-1481,-306,-36,382,158,-280
1,5348374,423,-1368,-489,-1489,-295,-34,382,158,-280
1,5348386,422,-1363,-490,-1490,-304,-35,378,156,-270
1,5348397,422,-1363,-490,-1490,-304,-35,378,156,-270
1,5348410,424,-1360,-492,-1489,-304,-42,378,156,-270
1,5348422,424,-1360,-492,-1489,-304,-42,378,156,-270
1,5348434,421,-1368,-490,-1485,-307,-42,378,156,-270
1,5348446,422,-1366,-487,-1488,-306,-37,378,156,-270
1,5348458,422,-1366,-487,-1488,-306,-37,378,156,-270
1,5348469,423,-1366,-490,-1487,-306,-36,378,156,-270
1,5348477,423,-1366,-490,-1487,-306,-36,378,156,-270
1,5348485,425,-1366,-488,-1482,-307,-40,378,156,-270
1,5348493,425,-1366,-488,-1482,-307,-40,378,156,-270
1,5348501,425,-1366,-488,-1482,-307,-40,378,156,-270
1,5348508,423,-1366,-488,-1478,-310,-31,378,156,-270
1,5348516,423,-1366,-488,-1478,-310,-31,378,156,-270
1,5348525,426,-1366,-488,-1487,-302,-35,378,156,-270
1,5348534,426,-1366,-488,-1487,-302,-35,381,151,-271
1,5348546,423,-1367,-491,-1489,-305,-37,381,151,-271
1,5348555,423,-1367,-491,-1489,-305,-37,381,151,-271
1,5348564,423,-1367,-491,-1489,-305,-37,381,151,-271
1,5348573,423,-1364,-492,-1483,-298,-33,381,151,-271
1,5348582,423,-1364,-492,-1483,-298,-33,381,151,-271
1,5348591,423,-1366,-491,-1481,-303,-38,381,151,-271
1,5348601,423,-1366,-491,-1481,-303,-38,381,151,-271
1,5348606,423,-1362,-492,-1489,-302,-41,381,151,-271
1,5348613,423,-1362,-492,-1489,-302,-41,381,151,-271
1,5348620,423,-1362,-492,-1489,-302,-41,381,151,-271
1,5348628,424,-1366,-494,-1483,-305,-41,381,151,-271
1,5348636,424,-1366,-494,-1483,-305,-41,381,151,-271
1,5348644,423,-1364,-486,-1486,-306,-38,381,151,-271
1,5348652,423,-1364,-486,-1486,-306,-38,378,156,-276
1,5348658,423,-1364,-486,-1486,-306,-38,378,156,-276
1,5348663,423,-1364,-486,-1486,-306,-38,378,156,-276
1,5348671,425,-1366,-489,-1487,-305,-35,378,156,-276
1,5348679,425,-1366,-489,-1487,-305,-35,378,156,-276
1,5348686,424,-1367,-492,-1486,-303,-38,378,156,-276
1,5348695,424,-1367,-492,-1486,-303,-38,378,156,-276
1,5348702,424,-1367,-492,-1486,-303,-38,378,156,-276
1,5348709,423,-1365,-491,-1487,-304,-38,378,156,-276
1,5348717,423,-1365,-491,-1487,-304,-38,378,156,-276
1,5348724,423,-1365,-491,-1487,-304,-38,378,156,-276
1,5348729,421,-1365,-491,-1481,-304,-27,378,156,-276
1,5348738,421,-1365,-491,-1481,-304,-27,378,156,-276
1,5348745,425,-1365,-490,-1488,-301,-36,378,156,-276
1,5348754,425,-1365,-490,-1488,-301,-36,378,156,-276
1,5348760,425,-1365,-490,-1488,-301,-36,378,156,-276
1,5348767,424,-1362,-488,-1490,-302,-38,375,147,-275
1,5348772,424,-1362,-488,-1490,-302,-38,375,147,-275
1,5348779,424,-1362,-488,-1490,-302,-38,375,147,-275
1,5348786,424,-1365,-489,-1492,-305,-46,375,147,-275
1,5348793,424,-1365,-489,-1492,-305,-46,375,147,-275
1,5348799,424,-1365,-489,-1492,-305,-46,375,147,-275
1,5348804,424,-1365,-489,-1492,-305,-46,375,147,-275
1,5348812,424,-1363,-489,-1484,-300,-37,375,147,-275
1,5348819,424,-1363,-489,-1484,-300,-37,375,147,-275
1,5348827,424,-1367,-488,-1486,-305,-39,375,147,-275
1,5348833,424,-1367,-488,-1486,-305,-39,375,147,-275
1,5348840,424,-1367,-488,-1486,-305,-39,375,147,-275
1,5348846,425,-1363,-488,-1491,-307,-39,375,147,-275
1,5348853,425,-1363,-488,-1491,-307,-39,375,147,-275
1,5348860,425,-1363,-488,-1491,-307,-39,375,147,-275
1,5348866,426,-1362,-491,-1494,-301,-38,375,147,-275
1,5348873,426,-1362,-491,-1494,-301,-38,375,147,-275
1,5348880,426,-1362,-491,-1494,-301,-38,375,147,-275
1,5348887,424,-1365,-491,-1481,-296,-41,378,152,-274
1,5348894,424,-1365,-491,-1481,-296,-41,378,152,-274
1,5348901,424,-1365,-491,-1481,-296,-41,378,152,-274
1,5348908,424,-1368,-482,-1487,-299,-40,378,152,-274
1,5348916,424,-1368,-482,-1487,-299,-40,378,152,-274
1,5348922,424,-1368,-482,-1487,-299,-40,378,152,-274
1,5348929,424,-1367,-487,-1487,-298,-48,378,152,-274
1,5348937,424,-1367,-487,-1487,-298,-48,378,152,-274
1,5348943,424,-1367,-487,-1487,-298,-48,378,152,-274
1,5348951,423,-1363,-495,-1487,-295,-43,378,152,-274
1,5348958,423,-1363,-495,-1487,-295,-43,378,152,-274
1,5348964,423,-1363,-495,-1487,-295,-43,378,152,-274
1,5348972,426,-1364,-488,-1493,-301,-36,378,152,-274
1,5348979,426,-1364,-488,-1493,-301,-36,378,152,-274
1,5348987,425,-1363,-490,-1485,-304,-40,378,152,-274
1,5348995,425,-1363,-490,-1485,-304,-40,378,152,-274
1,5349000,425,-1363,-490,-1485,-304,-40,378,152,-274
1,5349006,424,-1365,-493,-1491,-303,-40,378,152,-274
1,5349012,424,-1365,-493,-1491,-303,-40,378,152,-274
1,5349019,424,-1365,-493,-1491,-303,-40,378,152,-274
1,5349024,424,-1363,-486,-1491,-303,-44,378,152,-274
1,5349029,424,-1363,-486,-1491,-303,-44,383,159,-279
1,5349037,424,-1363,-486,-1491,-303,-44,383,159,-279
1,5349044,424,-1363,-486,-1491,-303,-44,383,159,-279
1,5349051,425,-1363,-490,-1483,-297,-40,383,159,-279
1,5349058,425,-1363,-490,-1483,-297,-40,383,159,-279
1,5349064,425,-1363,-490,-1483,-297,-40,383,159,-279
1,5349072,423,-1362,-491,-1489,-301,-48,383,159,-279
1,5349080,423,-1362,-491,-1489,-301,-48,383,159,-279
1,5349088,423,-1363,-487,-1485,-300,-45,383,159,-279
1,5349094,423,-1363,-487,-1485,-300,-45,383,159,-279
1,5349101,423,-1363,-487,-1485,-300,-45,383,159,-279
1,5349108,425,-1364,-491,-1484,-301,-45,383,159,-279
1,5349114,425,-1364,-491,-1484,-301,-45,383,159,-279
1,5349123,425,-1364,-491,-1484,-301,-45,383,159,-279
1,5349131,425,-1362,-494,-1487,-303,-41,383,159,-279
1,5349137,425,-1362,-494,-1487,-303,-41,383,159,-279
1,5349144,425,-1362,-494,-1487,-303,-41,383,159,-279
1,5349151,424,-1365,-487,-1488,-301,-37,383,165,-271
1,5349158,424,-1365,-487,-1488,-301,-37,383,165,-271
1,5349165,427,-1363,-485,-1480,-295,-42,383,165,-271
1,5349173,427,-1363,-485,-1480,-295,-42,383,165,-271
1,5349181,427,-1363,-485,-1480,-295,-42,383,165,-271
1,5349187,426,-1364,-492,-1488,-297,-40,383,165,-271
1,5349193,426,-1364,-492,-1488,-297,-40,383,165,-271
1,5349200,426,-1364,-492,-1488,-297,-40,383,165,-271
1,5349208,427,-1365,-489,-1489,-297,-38,383,165,-271
1,5349215,427,-1365,-489,-1489,-297,-38,383,165,-271
1,5349223,427,-1365,-489,-1489,-297,-38,383,165,-271
1,5349230,427,-1363,-491,-1490,-299,-40,383,165,-271
1,5349238,427,-1363,-491,-1490,-299,-40,383,165,-271
1,5349244,427,-1363,-491,-1490,-299,-40,383,165,-271
1,5349252,425,-1367,-491,-1493,-305,-37,383,165,-271
1,5349258,425,-1367,-491,-1493,-305,-37,383,165,-271
1,5349265,425,-1367,-491,-1493,-305,-37,383,165,-271
1,5349271,420,-1362,-483,-1479,-304,-41,377,153,-279
1,5349278,420,-1362,-483,-1479,-304,-41,377,153,-279
1,5349284,420,-1362,-483,-1479,-304,-41,377,153,-279
1,5349292,425,-1362,-487,-1482,-303,-46,377,153,-279
1,5349299,425,-1362,-487,-1482,-303,-46,377,153,-279
1,5349306,423,-1365,-493,-1486,-312,-43,377,153,-279
1,5349312,423,-1365,-493,-1486,-312,-43,377,153,-279
1,5349319,423,-1365,-493,-1486,-312,-43,377,153,-279
1,5349326,425,-1363,-491,-1489,-306,-40,377,153,-279
1,5349332,425,-1363,-491,-1489,-306,-40,377,153,-279
1,5349341,425,-1363,-491,-1489,-306,-40,377,153,-279
1,5349348,426,-1365,-490,-1488,-298,-38,377,153,-279
1,5349356,426,-1365,-490,-1488,-298,-38,377,153,-279
1,5349362,426,-1365,-490,-1488,-298,-38,377,153,-279
1,5349368,426,-1365,-493,-1485,-304,-39,377,153,-279
1,5349376,426,-1365,-493,-1485,-304,-39,377,153,-279
1,5349383,426,-1365,-493,-1485,-304,-39,377,153,-279
1,5349390,424,-1364,-488,-1483,-309,-46,376,156,-272
1,5349396,424,-1364,-488,-1483,-309,-46,376,156,-272
1,5349402,424,-1364,-488,-1483,-309,-46,376,156,-272
1,5349409,425,-1366,-484,-1485,-299,-38,376,156,-272
1,5349416,425,-1366,-484,-1485,-299,-38,376,156,-272
1,5349424,425,-1366,-484,-1485,-299,-38,376,156,-272
1,5349430,423,-1365,-485,-1490,-292,-33,376,156,-272
1,5349438,423,-1365,-485,-1490,-292,-33,376,156,-272
1,5349445,423,-1365,-485,-1490,-292,-33,376,156,-272
1,5349450,421,-1364,-491,-1484,-300,-32,376,156,-272
1,5349458,421,-1364,-491,-1484,-300,-32,376,156,-272
1,5349466,423,-1365,-493,-1492,-295,-36,376,156,-272
1,5349474,423,-1365,-493,-1492,-295,-36,376,156,-272
1,5349480,423,-1365,-493,-1492,-295,-36,376,156,-272
1,5349487,425,-1366,-492,-1497,-301,-41,376,156,-272
1,5349494,425,-1366,-492,-1497,-301,-41,376,156,-272
1,5349500,425,-1366,-492,-1497,-301,-41,376,156,-272
1,5349506,424,-1364,-489,-1484,-301,-45,376,156,-272
1,5349511,424,-1364,-489,-1484,-301,-45,376,156,-272
1,5349516,424,-1364,-489,-1484,-301,-45,376,156,-272
1,5349521,424,-1364,-489,-1484,-301,-45,376,156,-272
1,5349526,422,-1364,-486,-1488,-303,-39,381,149,-275
1,5349531,422,-1364,-486,-1488,-303,-39,381,149,-275
1,5349539,422,-1364,-486,-1488,-303,-39,381,149,-275
1,5349545,424,-1364,-490,-1489,-300,-33,381,149,-275
1,5349551,424,-1364,-490,-1489,-300,-33,381,149,-275
1,5349556,424,-1364,-490,-1489,-300,-33,381,149,-275
1,5349562,424,-1364,-490,-1489,-300,-33,381,149,-275
1,5349567,427,-1365,-489,-1488,-299,-34,381,149,-275
1,5349574,427,-1365,-489,-1488,-299,-34,381,149,-275
1,5349580,427,-1365,-489,-1488,-299,-34,381,149,-275
1,5349587,425,-1366,-487,-1486,-306,-39,381,149,-275
1,5349595,425,-1366,-487,-1486,-306,-39,381,149,-275
1,5349601,425,-1366,-487,-1486,-306,-39,381,149,-275
1,5349609,424,-1365,-492,-1484,-304,-38,381,149,-275
1,5349621,424,-1365,-492,-1484,-304,-38,381,149,-275
1,5349634,425,-1364,-491,-1488,-295,-36,381,149,-275
1,5349649,424,-1365,-486,-1489,-292,-40,382,152,-268
1,5349659,424,-1365,-486,-1489,-292,-40,382,152,-268
1,5349671,424,-1366,-488,-1484,-295,-38,382,152,-268
1,5349684,424,-1366,-488,-1484,-295,-38,382,152,-268
1,5349699,424,-1364,-484,-1479,-297,-36,382,152,-268
1,5349710,425,-1366,-491,-1469,-305,-44,382,152,-268
1,5349722,425,-1366,-491,-1469,-305,-44,382,152,-268
1,5349735,424,-1366,-492,-1488,-298,-42,382,152,-268
1,5349747,427,-1364,-494,-1484,-306,-45,382,152,-268
1,5349756,427,-1364,-494,-1484,-306,-45,382,152,-268
1,5349767,424,-1362,-485,-1485,-309,-50,390,142,-268
1,5349780,424,-1362,-485,-1485,-309,-50,390,142,-268
1,5349792,423,-1365,-492,-1492,-299,-44,390,142,-268
1,5349803,423,-1365,-492,-1492,-299,-44,390,142,-268
1,5349811,424,-1369,-488,-1490,-302,-38,390,142,-268
1,5349821,424,-1369,-488,-1490,-302,-38,390,142,-268
1,5349833,424,-1362,-492,-1488,-302,-41,390,142,-268
1,5349847,424,-1366,-493,-1479,-302,-36,390,142,-268
1,5349860,424,-1366,-493,-1479,-302,-36,390,142,-268
1,5349871,421,-1368,-493,-1488,-304,-36,390,142,-268
1,5349883,421,-1368,-493,-1488,-304,-36,390,142,-268
1,5349899,425,-1364,-482,-1485,-304,-35,384,156,-280
1,5349912,422,-1367,-491,-1490,-302,-36,384,156,-280
1,5349921,422,-1367,-491,-1490,-302,-36,384,156,-280
1,5349935,424,-1366,-492,-1487,-298,-40,384,156,-280
1,5349949,424,-1365,-491,-1486,-302,-33,384,156,-280
1,5349963,424,-1365,-491,-1486,-302,-33,384,156,-280
1,5349971,427,-1365,-488,-1485,-303,-29,384,156,-280
1,5349985,419,-1366,-486,-1488,-303,-39,384,156,-280
1,5349999,419,-1366,-486,-1488,-303,-39,384,156,-280
1,5350011,424,-1365,-491,-1489,-302,-43,384,156,-280
1,5350022,424,-1365,-491,-1489,-302,-43,384,156,-280
1,5350033,424,-1366,-483,-1491,-306,-36,384,156,-280
1,5350045,424,-1366,-488,-1489,-299,-42,384,156,-280
1,5350057,424,-1366,-488,-1489,-299,-42,384,156,-280
1,5350070,424,-1365,-492,-1483,-303,-44,384,156,-280
1,5350084,424,-1365,-492,-1483,-303,-44,384,156,-280
1,5350096,424,-1364,-488,-1481,-304,-38,384,156,-280
1,5350105,424,-1364,-488,-1481,-304,-38,384,156,-280
1,5350113,423,-1365,-490,-1482,-300,-42,384,156,-280
1,5350121,423,-1365,-490,-1482,-300,-42,384,156,-280
1,5350129,421,-1366,-492,-1487,-301,-39,384,156,-280
1,5350139,421,-1366,-492,-1487,-301,-39,384,156,-280
1,5350152,425,-1363,-484,-1484,-302,-41,377,159,-277
1,5350166,424,-1365,-487,-1495,-298,-36,377,159,-277
1,5350179,424,-1365,-487,-1495,-298,-36,377,159,-277
1,5350190,426,-1362,-491,-1492,-295,-34,377,159,-277
1,5350204,426,-1362,-491,-1492,-295,-34,377,159,-277
1,5350218,426,-1366,-490,-1485,-299,-39,377,159,-277
1,5350231,424,-1365,-492,-1488,-302,-43,377,159,-277
1,5350240,424,-1365,-492,-1488,-302,-43,377,159,-277
1,5350253,425,-1363,-491,-1482,-302,-30,377,159,-277
1,5350265,422,-1361,-483,-1485,-300,-40,380,152,-274
1,5350278,422,-1361,-483,-1485,-300,-40,380,152,-274
1,5350288,424,-1364,-490,-1490,-298,-41,380,152,-274
1,5350303,424,-1364,-490,-1490,-298,-41,380,152,-274
1,5350316,424,-1364,-488,-1488,-299,-44,380,152,-274
1,5350328,425,-1364,-491,-1491,-296,-40,380,152,-274
1,5350341,425,-1364,-491,-1491,-296,-40,380,152,-274
1,5350354,425,-1364,-491,-1486,-300,-39,380,152,-274
1,5350367,425,-1367,-496,-1488,-297,-41,380,152,-274
1,5350378,425,-1367,-496,-1488,-297,-41,380,152,-274
1,5350390,425,-1364,-488,-1485,-305,-39,380,158,-274
1,5350404,425,-1364,-488,-1485,-305,-39,380,158,-274
1,5350416,422,-1364,-490,-1487,-301,-31,380,158,-274
1,5350428,424,-1361,-493,-1494,-305,-42,380,158,-274
1,5350440,424,-1361,-493,-1494,-305,-42,380,158,-274
1,5350454,425,-1364,-491,-1491,-307,-33,380,158,-274
1,5350462,425,-1364,-491,-1491,-307,-33,380,158,-274
1,5350469,426,-1364,-490,-1490,-298,-35,380,158,-274
1,5350483,426,-1364,-490,-1490,-298,-35,380,158,-274
1,5350495,422,-1362,-493,-1492,-304,-41,380,158,-274
1,5350506,427,-1363,-489,-1492,-303,-40,381,151,-273
1,5350513,427,-1363,-489,-1492,-303,-40,381,151,-273
1,5350521,427,-1363,-489,-1492,-303,-40,381,151,-273
1,5350530,422,-1366,-486,-1490,-300,-39,381,151,-273
1,5350539,422,-1366,-486,-1490,-300,-39,381,151,-273
1,5350554,424,-1364,-496,-1492,-296,-45,381,151,-273
1,5350565,425,-1364,-488,-1493,-301,-42,381,151,-273
1,5350575,425,-1364,-488,-1493,-301,-42,381,151,-273
1,5350588,426,-1364,-490,-1486,-305,-43,381,151,-273
1,5350602,426,-1364,-490,-1486,-305,-43,381,151,-273
1,5350614,423,-1362,-492,-1486,-303,-44,381,151,-273
1,5350621,423,-1362,-492,-1486,-303,-44,381,151,-273
1,5350626,424,-1362,-491,-1483,-303,-35,381,151,-273
1,5350634,424,-1362,-491,-1483,-303,-35,381,151,-273
1,5350639,424,-1362,-491,-1483,-303,-35,381,151,-273
1,5350647,427,-1367,-487,-1482,-300,-40,376,154,-276
1,5350654,427,-1367,-487,-1482,-300,-40,376,154,-276
1,5350662,427,-1367,-487,-1482,-300,-40,376,154,-276
1,5350669,428,-1361,-488,-1481,-298,-40,376,154,-276
1,5350674,428,-1361,-488,-1481,-298,-40,376,154,-276
1,5350679,428,-1361,-488,-1481,-298,-40,376,154,-276
1,5350685,424,-1363,-488,-1485,-299,-40,376,154,-276
1,5350690,424,-1363,-488,-1485,-299,-40,376,154,-276
1,5350697,424,-1363,-488,-1485,-299,-40,376,154,-276
1,5350705,424,-1363,-488,-1485,-299,-40,376,154,-276
1,5350710,425,-1366,-487,-1484,-301,-41,376,154,-276
1,5350718,425,-1366,-487,-1484,-301,-41,376,154,-276
1,5350723,425,-1366,-487,-1484,-301,-41,376,154,-276
1,5350731,424,-1363,-491,-1488,-298,-41,376,154,-276
1,5350738,424,-1363,-491,-1488,-298,-41,376,154,-276
1,5350746,421,-1366,-492,-1488,-299,-46,376,154,-276
1,5350753,421,-1366,-492,-1488,-299,-46,376,154,-276
1,5350760,421,-1366,-492,-1488,-299,-46,376,154,-276
1,5350767,424,-1365,-488,-1485,-298,-44,385,159,-271
1,5350772,424,-1365,-488,-1485,-298,-44,385,159,-271
1,5350780,424,-1365,-488,-1485,-298,-44,385,159,-271
1,5350787,424,-1363,-489,-1484,-301,-49,385,159,-271
1,5350794,424,-1363,-489,-1484,-301,-49,385,159,-271
1,5350800,424,-1363,-489,-1484,-301,-49,385,159,-271
1,5350808,424,-1363,-494,-1488,-302,-44,385,159,-271
1,5350815,424,-1363,-494,-1488,-302,-44,385,159,-271
1,5350821,424,-1363,-494,-1488,-302,-44,385,159,-271
1,5350830,424,-1365,-490,-1493,-302,-41,385,159,-271
1,5350836,424,-1365,-490,-1493,-302,-41,385,159,-271
1,5350842,424,-1365,-490,-1493,-302,-41,385,159,-271
1,5350849,422,-1365,-490,-1484,-301,-47,385,159,-271
1,5350857,422,-1365,-490,-1484,-301,-47,385,159,-271
1,5350864,422,-1365,-490,-1484,-301,-47,385,159,-271
1,5350872,422,-1365,-493,-1473,-292,-41,385,159,-271
1,5350877,422,-1365,-493,-1473,-292,-41,385,159,-271
1,5350884,422,-1365,-493,-1473,-292,-41,385,159,-271
1,5350890,427,-1363,-486,-1486,-304,-45,386,158,-274
1,5350898,427,-1363,-486,-1486,-304,-45,386,158,-274
1,5350906,425,-1361,-491,-1485,-309,-37,386,158,-274
1,5350914,425,-1361,-491,-1485,-309,-37,386,158,-274
1,5350920,425,-1361,-491,-1485,-309,-37,386,158,-274
1,5350928,422,-1366,-491,-1487,-303,-42,386,158,-274
1,5350934,422,-1366,-491,-1487,-303,-42,386,158,-274
1,5350941,422,-1366,-491,-1487,-303,-42,386,158,-274
1,5350949,424,-1365,-486,-1487,-305,-42,386,158,-274
1,5350957,424,-1365,-486,-1487,-305,-42,386,158,-274
1,5350964,424,-1365,-486,-1487,-305,-42,386,158,-274
1,5350971,423,-1366,-492,-1486,-301,-42,386,158,-274
1,5350977,423,-1366,-492,-1486,-301,-42,386,158,-274
1,5350984,423,-1366,-492,-1486,-301,-42,386,158,-274
1,5350991,419,-1366,-494,-1479,-300,-42,386,158,-274
1,5351000,419,-1366,-494,-1479,-300,-42,386,158,-274
1,5351008,424,-1365,-490,-1487,-305,-35,381,163,-265
1,5351015,424,-1365,-490,-1487,-305,-35,381,163,-265
1,5351022,424,-1365,-490,-1487,-305,-35,381,163,-265
1,5351027,425,-1363,-490,-1490,-302,-39,381,163,-265
1,5351035,425,-1363,-490,-1490,-302,-39,381,163,-265
1,5351042,425,-1363,-490,-1490,-302,-39,381,163,-265
1,5351050,425,-1363,-486,-1491,-310,-48,381,163,-265
1,5351058,425,-1363,-486,-1491,-310,-48,381,163,-265
1,5351066,421,-1366,-490,-1490,-299,-40,381,163,-265
1,5351073,421,-1366,-490,-1490,-299,-40,381,163,-265
1,5351078,421,-1366,-490,-1490,-299,-40,381,163,-265
1,5351086,426,-1365,-486,-1488,-305,-37,381,163,-265
1,5351094,426,-1365,-486,-1488,-305,-37,381,163,-265
1,5351100,426,-1365,-486,-1488,-305,-37,381,163,-265
1,5351107,425,-1366,-492,-1490,-301,-41,381,163,-265
1,5351114,425,-1366,-492,-1490,-301,-41,381,163,-265
1,5351122,425,-1366,-492,-1490,-301,-41,381,163,-265
1,5351128,424,-1366,-493,-1485,-306,-45,381,163,-265
1,5351134,424,-1366,-493,-1485,-306,-45,381,163,-265
1,5351141,424,-1366,-493,-1485,-306,-45,381,163,-265
1,5351148,427,-1366,-488,-1486,-308,-37,377,155,-275
1,5351155,427,-1366,-488,-1486,-308,-37,377,155,-275
1,5351160,427,-1366,-488,-1486,-308,-37,377,155,-275
1,5351168,424,-1365,-492,-1485,-301,-41,377,155,-275
1,5351175,424,-1365,-492,-1485,-301,-41,377,155,-275
1,5351182,424,-1365,-492,-1485,-301,-41,377,155,-275
1,5351189,422,-1363,-489,-1488,-297,-37,377,155,-275
1,5351196,422,-1363,-489,-1488,-297,-37,377,155,-275
1,5351202,422,-1363,-489,-1488,-297,-37,377,155,-275
1,5351207,423,-1367,-485,-1489,-304,-41,377,155,-275
1,5351213,423,-1367,-485,-1489,-304,-41,377,155,-275
1,5351222,423,-1367,-485,-1489,-304,-41,377,155,-275
1,5351229,426,-1366,-491,-1489,-304,-34,377,155,-275
1,5351236,426,-1366,-491,-1489,-304,-34,377,155,-275
1,5351242,426,-1366,-491,-1489,-304,-34,377,155,-275
1,5351249,424,-1367,-485,-1483,-304,-40,377,155,-275
1,5351257,424,-1367,-485,-1483,-304,-40,377,155,-275
1,5351263,424,-1367,-485,-1483,-304,-40,377,155,-275
1,5351271,423,-1364,-487,-1481,-296,-35,374,156,-272
1,5351276,423,-1364,-487,-1481,-296,-35,374,156,-272
1,5351284,423,-1364,-487,-1481,-296,-35,374,156,-272
1,5351291,421,-1366,-488,-1489,-300,-42,374,156,-272
1,5351300,421,-1366,-488,-1489,-300,-42,374,156,-272
1,5351306,423,-1362,-490,-1488,-298,-41,374,156,-272
1,5351313,423,-1362,-490,-1488,-298,-41,374,156,-272
1,5351321,423,-1362,-490,-1488,-298,-41,374,156,-272
1,5351327,425,-1368,-489,-1483,-303,-43,374,156,-272
1,5351334,425,-1368,-489,-1483,-303,-43,374,156,-272
1,5351343,425,-1368,-489,-1483,-303,-43,374,156,-272
1,5351351,422,-1365,-492,-1483,-301,-38,374,156,-272
1,5351357,422,-1365,-492,-1483,-301,-38,374,156,-272
1,5351362,422,-1365,-492,-1483,-301,-38,374,156,-272
1,5351369,424,-1365,-492,-1487,-303,-41,374,156,-272
1,5351375,424,-1365,-492,-1487,-303,-41,374,156,-272
1,5351384,424,-1365,-492,-1487,-303,-41,374,156,-272
1,5351392,424,-1365,-489,-1485,-304,-37,376,156,-272
1,5351399,424,-1365,-489,-1485,-304,-37,376,156,-272
1,5351406,420,-1366,-487,-1488,-306,-34,376,156,-272
1,5351411,420,-1366,-487,-1488,-306,-34,376,156,-272
1,5351418,420,-1366,-487,-1488,-306,-34,376,156,-272
1,5351427,423,-1363,-489,-1495,-304,-39,376,156,-272
1,5351435,423,-1363,-489,-1495,-304,-39,376,156,-272
1,5351443,423,-1363,-489,-1495,-304,-39,376,156,-272
1,5351450,425,-1364,-491,-1491,-295,-34,376,156,-272
1,5351457,425,-1364,-491,-1491,-295,-34,376,156,-272
1,5351464,425,-1364,-491,-1491,-295,-34,376,156,-272
1,5351473,425,-1367,-494,-1491,-304,-34,376,156,-272
1,5351478,425,-1367,-494,-1491,-304,-34,376,156,-272
1,5351486,423,-1362,-485,-1490,-302,-31,376,156,-272
1,5351494,423,-1362,-485,-1490,-302,-31,376,156,-272
1,5351502,423,-1362,-485,-1490,-302,-31,376,156,-272
1,5351507,428,-1367,-490,-1491,-301,-45,384,152,-272
1,5351513,428,-1367,-490,-1491,-301,-45,384,152,-272
1,5351518,428,-1367,-490,-1491,-301,-45,384,152,-272
1,5351522,428,-1367,-490,-1491,-301,-45,384,152,-272
1,5351527,424,-1365,-487,-1487,-306,-34,384,152,-272
1,5351534,424,-1365,-487,-1487,-306,-34,384,152,-272
1,5351542,424,-1365,-487,-1487,-306,-34,384,152,-272
1,5351548,423,-1368,-492,-1486,-306,-40,384,152,-272
1,5351555,423,-1368,-492,-1486,-306,-40,384,152,-272
1,5351564,423,-1368,-492,-1486,-306,-40,384,152,-272
1,5351570,426,-1364,-495,-1487,-304,-46,384,152,-272
1,5351577,426,-1364,-495,-1487,-304,-46,384,152,-272
1,5351585,426,-1364,-495,-1487,-304,-46,384,152,-272
1,5351592,423,-1364,-487,-1486,-303,-38,384,152,-272
1,5351600,423,-1364,-487,-1486,-303,-38,384,152,-272
1,5351606,422,-1364,-493,-1481,-303,-36,384,152,-272
1,5351614,422,-1364,-493,-1481,-303,-36,384,152,-272
1,5351620,422,-1364,-493,-1481,-303,-36,384,152,-272
1,5351630,424,-1366,-488,-1484,-298,-40,384,152,-272
1,5351644,424,-1366,-488,-1484,-298,-40,384,152,-272
1,5351656,423,-1364,-493,-1483,-307,-40,368,146,-280
1,5351668,424,-1365,-492,-1485,-308,-39,368,146,-280
1,5351680,424,-1365,-492,-1485,-308,-39,368,146,-280
1,5351694,423,-1365,-494,-1485,-305,-41,368,146,-280
1,5351706,422,-1366,-490,-1485,-301,-36,368,146,-280
1,5351718,422,-1366,-490,-1485,-301,-36,368,146,-280
1,5351731,422,-1366,-492,-1481,-300,-40,368,146,-280
1,5351744,422,-1366,-492,-1481,-300,-40,368,146,-280
1,5351759,424,-1365,-492,-1479,-300,-45,368,146,-280
1,5351774,422,-1364,-492,-1483,-305,-39,388,152,-272
1,5351782,422,-1364,-492,-1483,-305,-39,388,152,-272
1,5351793,425,-1363,-488,-1490,-309,-34,388,152,-272
1,5351802,425,-1363,-488,-1490,-309,-34,388,152,-272
1,5351811,423,-1364,-492,-1484,-301,-41,388,152,-272
1,5351827,421,-1364,-493,-1488,-296,-38,388,152,-272
1,5351839,421,-1364,-493,-1488,-296,-38,388,152,-272
1,5351853,424,-1368,-494,-1482,-294,-41,388,152,-272
1,5351866,424,-1368,-494,-1482,-294,-41,388,152,-272
1,5351879,424,-1368,-494,-1482,-294,-41,388,152,-272
1,5351892,427,-1364,-489,-1487,-302,-45,380,154,-276
1,5351902,427,-1364,-489,-1487,-302,-45,380,154,-276
1,5351910,424,-1364,-491,-1483,-305,-38,380,154,-276
1,5351918,424,-1364,-491,-1483,-305,-38,380,154,-276
1,5351925,423,-1367,-487,-1479,-301,-37,380,154,-276
1,5351940,423,-1367,-487,-1479,-301,-37,380,154,-276
1,5351949,424,-1369,-486,-1481,-293,-41,380,154,-276
1,5351961,424,-1369,-486,-1481,-293,-41,380,154,-276
1,5351975,423,-1367,-488,-1489,-297,-35,380,154,-276
1,5351990,425,-1363,-493,-1489,-301,-40,380,154,-276
1,5351999,425,-1363,-493,-1489,-301,-40,380,154,-276
1,5352011,423,-1364,-483,-1482,-301,-39,380,162,-272
1,5352027,426,-1369,-487,-1484,-303,-41,380,162,-272
1,5352040,426,-1369,-487,-1484,-303,-41,380,162,-272
1,5352050,425,-1364,-487,-1491,-308,-37,380,162,-272
1,5352062,425,-1364,-487,-1491,-308,-37,380,162,-272
1,5352077,422,-1367,-487,-1492,-308,-43,380,162,-272
1,5352090,423,-1364,-494,-1483,-307,-39,380,162,-272
1,5352100,423,-1364,-494,-1483,-307,-39,380,162,-272
1,5352113,425,-1364,-494,-1488,-301,-43,380,162,-272
1,5352124,425,-1364,-494,-1488,-301,-43,380,162,-272
1,5352137,428,-1364,-488,-1490,-295,-39,385,157,-271
1,5352148,421,-1364,-484,-1490,-304,-48,385,157,-271
1,5352164,421,-1364,-484,-1490,-304,-48,385,157,-271
1,5352176,422,-1364,-491,-1486,-306,-46,385,157,-271
1,5352184,422,-1364,-491,-1486,-306,-46,385,157,-271
1,5352196,422,-1363,-494,-1490,-304,-41,385,157,-271
1,5352210,425,-1363,-491,-1483,-300,-40,385,157,-271
1,5352219,425,-1363,-491,-1483,-300,-40,385,157,-271
1,5352230,425,-1367,-489,-1486,-301,-43,385,157,-271
1,5352245,425,-1367,-489,-1486,-301,-43,385,157,-271
1,5352259,425,-1365,-490,-1489,-298,-40,385,157,-271
1,5352268,424,-1363,-484,-1486,-305,-37,382,152,-274
1,5352280,424,-1363,-484,-1486,-305,-37,382,152,-274
1,5352295,425,-1366,-486,-1488,-307,-38,382,152,-274
1,5352308,426,-1366,-491,-1494,-298,-34,382,152,-274
1,5352317,426,-1366,-491,-1494,-298,-34,382,152,-274
1,5352329,427,-1362,-489,-1486,-300,-36,382,152,-274
1,5352342,427,-1362,-489,-1486,-300,-36,382,152,-274
1,5352354,421,-1362,-492,-1482,-300,-29,382,152,-274
1,5352367,425,-1365,-494,-1489,-303,-41,382,152,-274
1,5352378,425,-1365,-494,-1489,-303,-41,382,152,-274
1,5352388,427,-1363,-488,-1486,-300,-39,379,157,-265
1,5352399,427,-1363,-488,-1486,-300,-39,379,157,-265
1,5352415,423,-1363,-491,-1482,-301,-39,379,157,-265
1,5352429,423,-1364,-489,-1490,-300,-34,379,157,-265
1,5352441,423,-1364,-489,-1490,-300,-34,379,157,-265
1,5352455,424,-1366,-488,-1492,-300,-38,379,157,-265
1,5352467,423,-1363,-494,-1485,-304,-39,379,157,-265
1,5352481,423,-1363,-494,-1485,-304,-39,379,157,-265
1,5352494,422,-1364,-486,-1487,-300,-32,379,157,-265
1,5352502,422,-1364,-486,-1487,-300,-32,379,157,-265
1,5352509,424,-1363,-490,-1484,-300,-35,379,151,-277
1,5352517,424,-1363,-490,-1484,-300,-35,379,151,-277
1,5352525,424,-1363,-490,-1484,-300,-35,379,151,-277
1,5352535,425,-1363,-488,-1479,-306,-38,379,151,-277
1,5352544,425,-1363,-488,-1479,-306,-38,379,151,-277
1,5352553,424,-1365,-493,-1479,-305,-39,379,151,-277
1,5352561,424,-1365,-493,-1479,-305,-39,379,151,-277
1,5352572,427,-1364,-492,-1481,-298,-42,379,151,-277
1,5352583,427,-1364,-492,-1481,-298,-42,379,151,-277
1,5352592,425,-1364,-487,-1486,-300,-38,379,151,-277
1,5352603,425,-1364,-487,-1486,-300,-38,379,151,-277
1,5352616,426,-1364,-491,-1485,-307,-37,379,151,-277
1,5352632,424,-1365,-491,-1491,-303,-36,377,163,-265
1,5352639,424,-1365,-491,-1491,-303,-36,377,163,-265
1,5352645,424,-1365,-491,-1491,-303,-36,377,163,-265
1,5352651,423,-1364,-492,-1490,-303,-36,377,163,-265
1,5352658,423,-1364,-492,-1490,-303,-36,377,163,-265
1,5352666,423,-1365,-490,-1483,-300,-35,377,163,-265
1,5352674,423,-1365,-490,-1483,-300,-35,377,163,-265
1,5352682,423,-1365,-490,-1483,-300,-35,377,163,-265
1,5352687,426,-1363,-487,-1479,-300,-34,377,163,-265
1,5352693,426,-1363,-487,-1479,-300,-34,377,163,-265
1,5352701,426,-1363,-487,-1479,-300,-34,377,163,-265
1,5352709,423,-1366,-492,-1482,-304,-41,377,163,-265
1,5352716,423,-1366,-492,-1482,-304,-41,377,163,-265
1,5352725,423,-1366,-492,-1482,-304,-41,377,163,-265
1,5352731,424,-1363,-494,-1487,-296,-41,377,163,-265
1,5352738,424,-1363,-494,-1487,-296,-41,377,163,-265
1,5352747,424,-1363,-487,-1483,-300,-36,377,163,-265
1,5352755,424,-1363,-487,-1483,-300,-36,377,163,-265
1,5352762,424,-1363,-487,-1483,-300,-36,377,163,-265
1,5352767,424,-1363,-487,-1483,-300,-36,383,155,-269
1,5352775,424,-1363,-487,-1483,-300,-36,383,155,-269
1,5352781,424,-1363,-487,-1483,-300,-36,383,155,-269
1,5352788,423,-1364,-488,-1483,-304,-41,383,155,-269
1,5352795,423,-1364,-488,-1483,-304,-41,383,155,-269
1,5352801,423,-1364,-488,-1483,-304,-41,383,155,-269
1,5352809,425,-1362,-488,-1494,-305,-38,383,155,-269
1,5352816,425,-1362,-488,-1494,-305,-38,383,155,-269
1,5352824,425,-1362,-488,-1494,-305,-38,383,155,-269
1,5352832,422,-1364,-492,-1489,-303,-37,383,155,-269
1,5352838,422,-1364,-492,-1489,-303,-37,383,155,-269
1,5352844,422,-1364,-492,-1489,-303,-37,383,155,-269
1,5352851,421,-1364,-497,-1490,-298,-47,383,155,-269
1,5352859,421,-1364,-497,-1490,-298,-47,383,155,-269
1,5352866,423,-1366,-496,-1486,-303,-45,383,155,-269
1,5352873,423,-1366,-496,-1486,-303,-45,383,155,-269
1,5352881,423,-1366,-496,-1486,-303,-45,383,155,-269
1,5352888,423,-1365,-482,-1481,-303,-41,388,156,-272
1,5352895,423,-1365,-482,-1481,-303,-41,388,156,-272
1,5352902,423,-1365,-482,-1481,-303,-41,388,156,-272
1,5352910,424,-1364,-488,-1489,-299,-38,388,156,-272
1,5352916,424,-1364,-488,-1489,-299,-38,388,156,-272
1,5352923,424,-1364,-488,-1489,-299,-38,388,156,-272
1,5352929,422,-1365,-489,-1488,-302,-44,388,156,-272
1,5352935,422,-1365,-489,-1488,-302,-44,388,156,-272
1,5352944,422,-1365,-489,-1488,-302,-44,388,156,-272
1,5352952,423,-1364,-489,-1483,-302,-35,388,156,-272
1,5352960,423,-1364,-489,-1483,-302,-35,388,156,-272
1,5352966,423,-1364,-489,-1483,-302,-35,388,156,-272
1,5352972,426,-1365,-484,-1484,-304,-41,388,156,-272
1,5352978,426,-1365,-484,-1484,-304,-41,388,156,-272
1,5352984,426,-1365,-484,-1484,-304,-41,388,156,-272
1,5352990,426,-1367,-493,-1486,-300,-46,388,156,-272
1,5352995,426,-1367,-493,-1486,-300,-46,388,156,-272
1,5353000,426,-1367,-493,-1486,-300,-46,388,156,-272
1,5353008,425,-1366,-488,-1485,-299,-39,386,146,-278
1,5353015,425,-1366,-488,-1485,-299,-39,386,146,-278
1,5353022,425,-1366,-488,-1485,-299,-39,386,146,-278
1,5353029,423,-1363,-492,-1484,-305,-37,386,146,-278
1,5353035,423,-1363,-492,-1484,-305,-37,386,146,-278
1,5353043,423,-1363,-492,-1484,-305,-37,386,146,-278
1,5353051,422,-1362,-488,-1488,-303,-44,386,146,-278
1,5353057,422,-1362,-488,-1488,-303,-44,386,146,-278
1,5353063,422,-1362,-488,-1488,-303,-44,386,146,-278
1,5353069,426,-1365,-492,-1484,-299,-46,386,146,-278
1,5353076,426,-1365,-492,-1484,-299,-46,386,146,-278
1,5353081,426,-1365,-492,-1484,-299,-46,386,146,-278
1,5353090,423,-1367,-489,-1482,-301,-45,386,146,-278
1,5353096,423,-1367,-489,-1482,-301,-45,386,146,-278
1,5353104,423,-1367,-489,-1482,-301,-45,386,146,-278
1,5353111,426,-1362,-492,-1486,-296,-47,386,146,-278
1,5353118,426,-1362,-492,-1486,-296,-47,386,146,-278
1,5353125,426,-1362,-492,-1486,-296,-47,386,146,-278
1,5353133,425,-1362,-494,-1495,-305,-44,384,146,-282
1,5353139,425,-1362,-494,-1495,-305,-44,384,146,-282
1,5353146,423,-1362,-490,-1485,-307,-35,384,146,-282
1,5353152,423,-1362,-490,-1485,-307,-35,384,146,-282
1,5353160,423,-1362,-490,-1485,-307,-35,384,146,-282
1,5353166,425,-1363,-493,-1486,-308,-41,384,146,-282
1,5353175,425,-1363,-493,-1486,-308,-41,384,146,-282
1,5353181,425,-1363,-493,-1486,-308,-41,384,146,-282
1,5353188,425,-1367,-489,-1484,-310,-41,384,146,-282
1,5353195,425,-1367,-489,-1484,-310,-41,384,146,-282
1,5353201,425,-1367,-489,-1484,-310,-41,384,146,-282
1,5353209,426,-1365,-494,-1487,-300,-48,384,146,-282
1,5353218,426,-1365,-494,-1487,-300,-48,384,146,-282
1,5353223,426,-1365,-494,-1487,-300,-48,384,146,-282
1,5353230,424,-1365,-490,-1482,-300,-42,384,146,-282
1,5353237,424,-1365,-490,-1482,-300,-42,384,146,-282
1,5353244,424,-1365,-490,-1482,-300,-42,384,146,-282
1,5353250,424,-1368,-490,-1490,-294,-44,384,146,-282
1,5353256,424,-1368,-490,-1490,-294,-44,384,146,-282
1,5353264,424,-1368,-490,-1490,-294,-44,384,146,-282
1,5353271,425,-1365,-485,-1489,-299,-38,379,153,-273
1,5353278,425,-1365,-485,-1489,-299,-38,379,153,-273
1,5353285,425,-1365,-485,-1489,-299,-38,379,153,-273
1,5353292,422,-1365,-492,-1487,-302,-38,379,153,-273
1,5353299,422,-1365,-492,-1487,-302,-38,379,153,-273
1,5353306,422,-1365,-492,-1487,-302,-38,379,153,-273
1,5353314,423,-1360,-490,-1488,-299,-39,379,153,-273
1,5353322,423,-1360,-490,-1488,-299,-39,379,153,-273
1,5353329,420,-1365,-492,-1489,-301,-47,379,153,-273
1,5353335,420,-1365,-492,-1489,-301,-47,379,153,-273
1,5353344,420,-1365,-492,-1489,-301,-47,379,153,-273
1,5353350,424,-1364,-491,-1493,-297,-34,379,153,-273
1,5353355,424,-1364,-491,-1493,-297,-34,379,153,-273
1,5353362,424,-1364,-491,-1493,-297,-34,379,153,-273
1,5353368,421,-1368,-493,-1492,-302,-38,379,153,-273
1,5353376,421,-1368,-493,-1492,-302,-38,379,153,-273
1,5353382,421,-1368,-493,-1492,-302,-38,379,153,-273
1,5353390,425,-1365,-491,-1487,-300,-42,377,149,-273
1,5353397,425,-1365,-491,-1487,-300,-42,377,149,-273
1,5353405,425,-1365,-491,-1487,-300,-42,377,149,-273
1,5353412,425,-1363,-488,-1485,-303,-37,377,149,-273
1,5353419,425,-1363,-488,-1485,-303,-37,377,149,-273
1,5353427,424,-1364,-488,-1488,-299,-41,377,149,-273
1,5353435,424,-1364,-488,-1488,-299,-41,377,149,-273
1,5353440,424,-1364,-488,-1488,-299,-41,377,149,-273
1,5353447,424,-1364,-488,-1488,-299,-41,377,149,-273
1,5353453,424,-1364,-488,-1488,-299,-41,377,149,-273
1,5353460,424,-1364,-488,-1488,-299,-41,377,149,-273
1,5353467,423,-1364,-495,-1486,-294,-39,377,149,-273
1,5353473,423,-1364,-495,-1486,-294,-39,377,149,-273
1,5353481,423,-1364,-495,-1486,-294,-39,377,149,-273
1,5353488,424,-1365,-489,-1490,-298,-44,377,149,-273
1,5353495,424,-1365,-489,-1490,-298,-44,377,149,-273
1,5353501,424,-1365,-489,-1490,-298,-44,377,149,-273
1,5353506,427,-1367,-489,-1483,-305,-39,374,160,-276
1,5353512,427,-1367,-489,-1483,-305,-39,374,160,-276
1,5353518,427,-1367,-489,-1483,-305,-39,374,160,-276
1,5353523,427,-1367,-489,-1483,-305,-39,374,160,-276
1,5353530,422,-1365,-490,-1485,-298,-40,374,160,-276
1,5353535,422,-1365,-490,-1485,-298,-40,374,160,-276
1,5353543,422,-1365,-490,-1485,-298,-40,374,160,-276
1,5353551,425,-1363,-491,-1497,-304,-42,374,160,-276
1,5353556,425,-1363,-491,-1497,-304,-42,374,160,-276
1,5353563,425,-1363,-491,-1497,-304,-42,374,160,-276
1,5353569,423,-1365,-489,-1495,-307,-41,374,160,-276
1,5353576,423,-1365,-489,-1495,-307,-41,374,160,-276
1,5353583,423,-1365,-489,-1495,-307,-41,374,160,-276
1,5353588,424,-1365,-492,-1488,-300,-43,374,160,-276
1,5353596,424,-1365,-492,-1488,-300,-43,374,160,-276
1,5353605,424,-1365,-492,-1488,-300,-43,374,160,-276
1,5353612,420,-1367,-488,-1489,-300,-44,374,160,-276
1,5353618,420,-1367,-488,-1489,-300,-44,374,160,-276
1,5353625,420,-1367,-488,-1489,-300,-44,374,160,-276
1,5353633,424,-1364,-487,-1484,-300,-32,383,155,-273
1,5353640,424,-1364,-487,-1484,-300,-32,383,155,-273
1,5353654,423,-1366,-487,-1481,-298,-41,383,155,-273
1,5353668,422,-1367,-488,-1486,-302,-36,383,155,-273
1,5353680,422,-1367,-488,-1486,-302,-36,383,155,-273
1,5353692,421,-1366,-492,-1492,-302,-41,383,155,-273
1,5353705,421,-1366,-492,-1492,-302,-41,383,155,-273
1,5353718,425,-1367,-491,-1487,-304,-42,383,155,-273
1,5353731,423,-1365,-485,-1490,-300,-43,383,155,-273
1,5353741,423,-1365,-485,-1490,-300,-43,383,155,-273
1,5353754,423,-1369,-491,-1490,-298,-42,383,155,-273
1,5353762,423,-1369,-491,-1490,-298,-42,383,155,-273
1,5353774,422,-1364,-489,-1491,-307,-42,383,151,-275
1,5353787,424,-1365,-491,-1488,-300,-41,383,151,-275
1,5353800,424,-1365,-491,-1488,-300,-41,383,151,-275
1,5353808,424,-1364,-489,-1488,-294,-35,383,151,-275
1,5353822,424,-1364,-489,-1488,-294,-35,383,151,-275
1,5353836,423,-1366,-490,-1486,-299,-33,383,151,-275
1,5353851,425,-1366,-491,-1482,-302,-49,383,151,-275
1,5353860,425,-1366,-491,-1482,-302,-49,383,151,-275
1,5353873,425,-1365,-492,-1481,-302,-44,383,151,-275
1,5353887,424,-1363,-491,-1492,-296,-38,379,161,-273
1,5353902,424,-1363,-491,-1492,-296,-38,379,161,-273
1,5353910,423,-1367,-492,-1490,-299,-42,379,161,-273
1,5353923,423,-1367,-492,-1490,-299,-42,379,161,-273
1,5353936,423,-1365,-484,-1482,-299,-39,379,161,-273
1,5353950,420,-1361,-494,-1483,-297,-35,379,161,-273
1,5353960,420,-1361,-494,-1483,-297,-35,379,161,-273
1,5353972,425,-1367,-490,-1484,-300,-38,379,161,-273
1,5353985,425,-1367,-490,-1484,-300,-38,379,161,-273
1,5353998,421,-1367,-496,-1477,-299,-40,379,161,-273
1,5354009,425,-1364,-484,-1494,-298,-46,379,153,-269
1,5354023,425,-1364,-484,-1494,-298,-46,379,153,-269
1,5354035,422,-1367,-491,-1486,-303,-45,379,153,-269
1,5354048,423,-1363,-484,-1480,-305,-37,379,153,-269
1,5354061,423,-1363,-484,-1480,-305,-37,379,153,-269
1,5354074,423,-1364,-489,-1486,-309,-45,379,153,-269
1,5354086,423,-1364,-489,-1486,-309,-45,379,153,-269
1,5354095,424,-1367,-490,-1487,-306,-39,379,153,-269
1,5354103,424,-1367,-490,-1487,-306,-39,379,153,-269
1,5354112,425,-1366,-487,-1483,-302,-36,379,153,-269
1,5354119,425,-1366,-487,-1483,-302,-36,379,153,-269
1,5354128,422,-1366,-487,-1484,-300,-52,378,148,-278
1,5354140,422,-1366,-487,-1484,-300,-52,378,148,-278
1,5354157,424,-1367,-485,-1481,-305,-40,378,148,-278
1,5354169,427,-1364,-487,-1483,-305,-40,378,148,-278
1,5354178,427,-1364,-487,-1483,-305,-40,378,148,-278
1,5354191,428,-1367,-483,-1488,-301,-38,378,148,-278
1,5354204,428,-1367,-483,-1488,-301,-38,378,148,-278
1,5354219,425,-1368,-493,-1487,-304,-36,378,148,-278
1,5354230,424,-1365,-490,-1492,-303,-36,378,148,-278
1,5354243,424,-1365,-490,-1492,-303,-36,378,148,-278
1,5354257,425,-1367,-488,-1489,-299,-32,368,154,-274
1,5354271,423,-1364,-485,-1489,-303,-41,368,154,-274
1,5354284,423,-1364,-485,-1489,-303,-41,368,154,-274
1,5354294,426,-1366,-488,-1485,-299,-44,368,154,-274
1,5354305,426,-1366,-488,-1485,-299,-44,368,154,-274
1,5354318,424,-1364,-488,-1490,-299,-43,368,154,-274
1,5354332,424,-1365,-495,-1483,-298,-36,368,154,-274
1,5354344,424,-1365,-495,-1483,-298,-36,368,154,-274
1,5354358,425,-1367,-489,-1482,-307,-39,368,154,-274
1,5354372,424,-1367,-490,-1479,-305,-33,368,154,-274
1,5354385,424,-1367,-490,-1479,-305,-33,368,154,-274
1,5354395,426,-1364,-489,-1492,-300,-45,374,148,-278
1,5354408,425,-1364,-492,-1491,-301,-37,374,148,-278
1,5354423,425,-1364,-492,-1491,-301,-37,374,148,-278
1,5354435,426,-1367,-493,-1489,-301,-37,374,148,-278
1,5354445,426,-1367,-493,-1489,-301,-37,374,148,-278
1,5354459,423,-1365,-490,-1486,-295,-39,374,148,-278
1,5354471,426,-1364,-489,-1497,-292,-43,374,148,-278
1,5354484,426,-1364,-489,-1497,-292,-43,374,148,-278
1,5354497,424,-1365,-488,-1491,-300,-39,374,148,-278
1,5354506,424,-1365,-488,-1491,-300,-39,374,148,-278
1,5354514,425,-1365,-489,-1485,-298,-36,387,155,-275
1,5354522,425,-1365,-489,-1485,-298,-36,387,155,-275
1,5354531,424,-1363,-489,-1485,-300,-36,387,155,-275
1,5354544,424,-1363,-489,-1485,-300,-36,387,155,-275
1,5354558,424,-1364,-491,-1488,-301,-37,387,155,-275
1,5354569,425,-1364,-490,-1486,-292,-40,387,155,-275
1,5354582,425,-1364,-490,-1486,-292,-40,387,155,-275
1,5354594,424,-1367,-492,-1481,-289,-38,387,155,-275
1,5354608,423,-1368,-489,-1481,-300,-47,387,155,-275
1,5354618,423,-1368,-489,-1481,-300,-47,387,155,-275
1,5354631,425,-1363,-489,-1479,-299,-36,378,154,-272
1,5354644,425,-1363,-489,-1479,-299,-36,378,154,-272
1,5354651,425,-1367,-490,-1481,-304,-42,378,154,-272
1,5354658,425,-1367,-490,-1481,-304,-42,378,154,-272
1,5354664,425,-1367,-490,-1481,-304,-42,378,154,-272
1,5354672,424,-1364,-490,-1487,-302,-45,378,154,-272
1,5354678,424,-1364,-490,-1487,-302,-45,378,154,-272
1,5354685,424,-1364,-490,-1487,-302,-45,378,154,-272
1,5354692,425,-1369,-491,-1478,-295,-36,378,154,-272
1,5354698,425,-1369,-491,-1478,-295,-36,378,154,-272
1,5354704,425,-1369,-491,-1478,-295,-36,378,154,-272
1,5354714,421,-1368,-494,-1489,-300,-40,378,154,-272
1,5354720,421,-1368,-494,-1489,-300,-40,378,154,-272
1,5354726,421,-1368,-494,-1489,-300,-40,378,154,-272
1,5354731,424,-1365,-490,-1487,-309,-44,378,154,-272
1,5354737,424,-1365,-490,-1487,-309,-44,378,154,-272
1,5354742,424,-1365,-490,-1487,-309,-44,378,154,-272
1,5354747,423,-1365,-487,-1483,-302,-42,376,152,-278
1,5354756,423,-1365,-487,-1483,-302,-42,376,152,-278
1,5354764,423,-1365,-487,-1483,-302,-42,376,152,-278
1,5354771,422,-1365,-486,-1482,-298,-41,376,152,-278
1,5354780,422,-1365,-486,-1482,-298,-41,376,152,-278
1,5354786,425,-1367,-489,-1488,-297,-42,376,152,-278
1,5354793,425,-1367,-489,-1488,-297,-42,376,152,-278
1,5354800,425,-1367,-489,-1488,-297,-42,376,152,-278
1,5354807,423,-1363,-490,-1484,-309,-34,376,152,-278
1,5354812,423,-1363,-490,-1484,-309,-34,376,152,-278
1,5354820,423,-1363,-490,-1484,-309,-34,376,152,-278
1,5354827,423,-1363,-493,-1488,-302,-36,376,152,-278
1,5354834,423,-1363,-493,-1488,-302,-36,376,152,-278
1,5354841,423,-1363,-493,-1488,-302,-36,376,152,-278
1,5354848,422,-1365,-488,-1485,-298,-40,376,152,-278
1,5354855,422,-1365,-488,-1485,-298,-40,376,152,-278
1,5354862,422,-1365,-488,-1485,-298,-40,376,152,-278
1,5354869,424,-1364,-490,-1485,-300,-45,376,152,-278
1,5354877,424,-1364,-490,-1485,-300,-45,376,152,-278
1,5354885,424,-1364,-490,-1485,-300,-45,376,152,-278
1,5354892,424,-1364,-485,-1483,-302,-42,381,153,-279
1,5354899,424,-1364,-485,-1483,-302,-42,381,153,-279
1,5354906,424,-1364,-485,-1483,-302,-42,381,153,-279
1,5354912,424,-1368,-489,-1481,-309,-45,381,153,-279
1,5354919,424,-1368,-489,-1481,-309,-45,381,153,-279
1,5354928,423,-1366,-486,-1483,-300,-38,381,153,-279
1,5354935,423,-1366,-486,-1483,-300,-38,381,153,-279
1,5354942,423,-1366,-486,-1483,-300,-38,381,153,-279
1,5354949,424,-1367,-487,-1481,-302,-38,381,153,-279
1,5354956,424,-1367,-487,-1481,-302,-38,381,153,-279
1,5354962,424,-1367,-487,-1481,-302,-38,381,153,-279
1,5354970,423,-1366,-490,-1484,-305,-45,381,153,-279
1,5354978,423,-1366,-490,-1484,-305,-45,381,153,-279
1,5354985,423,-1366,-490,-1484,-305,-45,381,153,-279
1,5354992,421,-1367,-487,-1483,-304,-40,381,153,-279
1,5354999,421,-1367,-487,-1483,-304,-40,381,153,-279
1,5355005,421,-1367,-487,-1483,-304,-40,381,153,-279
1,5355013,424,-1365,-487,-1483,-303,-39,384,158,-276
1,5355021,424,-1365,-487,-1483,-303,-39,384,158,-276
1,5355027,424,-1364,-483,-1485,-307,-41,384,158,-276
1,5355033,424,-1364,-483,-1485,-307,-41,384,158,-276
1,5355040,424,-1364,-483,-1485,-307,-41,384,158,-276
1,5355048,420,-1365,-487,-1484,-309,-40,384,158,-276
1,5355055,420,-1365,-487,-1484,-309,-40,384,158,-276
1,5355062,420,-1365,-487,-1484,-309,-40,384,158,-276
1,5355069,423,-1367,-489,-1490,-307,-41,384,158,-276
1,5355075,423,-1367,-489,-1490,-307,-41,384,158,-276
1,5355080,423,-1367,-489,-1490,-307,-41,384,158,-276
1,5355089,425,-1365,-489,-1486,-306,-49,384,158,-276
1,5355097,425,-1365,-489,-1486,-306,-49,384,158,-276
1,5355104,425,-1365,-489,-1486,-306,-49,384,158,-276
1,5355110,422,-1366,-490,-1482,-304,-46,384,158,-276
1,5355117,422,-1366,-490,-1482,-304,-46,384,158,-276
1,5355124,422,-1366,-490,-1482,-304,-46,384,158,-276
1,5355130,425,-1364,-488,-1476,-304,-43,380,160,-270
1,5355139,425,-1364,-488,-1476,-304,-43,380,160,-270
1,5355146,425,-1364,-488,-1476,-304,-43,380,160,-270
1,5355153,425,-1363,-489,-1488,-305,-47,380,160,-270
1,5355160,425,-1363,-489,-1488,-305,-47,380,160,-270
1,5355168,426,-1362,-493,-1494,-299,-41,380,160,-270
1,5355175,426,-1362,-493,-1494,-299,-41,380,160,-270
1,5355182,426,-1362,-493,-1494,-299,-41,380,160,-270
1,5355188,425,-1365,-491,-1494,-298,-37,380,160,-270
1,5355196,425,-1365,-491,-1494,-298,-37,380,160,-270
1,5355203,425,-1365,-491,-1494,-298,-37,380,160,-270
1,5355208,423,-1367,-494,-1490,-303,-40,380,160,-270
1,5355213,423,-1367,-494,-1490,-303,-40,380,160,-270
1,5355218,423,-1367,-494,-1490,-303,-40,380,160,-270
1,5355225,423,-1367,-494,-1490,-303,-40,380,160,-270
1,5355231,425,-1365,-495,-1489,-303,-43,380,160,-270
1,5355239,425,-1365,-495,-1489,-303,-43,380,160,-270
1,5355245,425,-1365,-495,-1489,-303,-43,380,160,-270
1,5355252,423,-1366,-489,-1483,-303,-41,386,156,-282
1,5355259,423,-1366,-489,-1483,-303,-41,386,156,-282
1,5355267,424,-1368,-485,-1488,-302,-41,386,156,-282
1,5355274,424,-1368,-485,-1488,-302,-41,386,156,-282
1,5355279,424,-1368,-485,-1488,-302,-41,386,156,-282
1,5355287,426,-1365,-491,-1479,-304,-39,386,156,-282
1,5355293,426,-1365,-491,-1479,-304,-39,386,156,-282
1,5355298,426,-1365,-491,-1479,-304,-39,386,156,-282
1,5355307,426,-1365,-491,-1479,-304,-39,386,156,-282
1,5355314,426,-1367,-489,-1481,-301,-37,386,156,-282
1,5355320,426,-1367,-489,-1481,-301,-37,386,156,-282
1,5355328,424,-1363,-491,-1489,-306,-41,386,156,-282
1,5355335,424,-1363,-491,-1489,-306,-41,386,156,-282
1,5355342,424,-1363,-491,-1489,-306,-41,386,156,-282
1,5355347,425,-1364,-493,-1487,-304,-41,386,156,-282
1,5355356,425,-1364,-493,-1487,-304,-41,386,156,-282
1,5355363,425,-1364,-493,-1487,-304,-41,386,156,-282
1,5355370,425,-1364,-493,-1487,-304,-41,386,156,-282
1,5355377,425,-1364,-493,-1487,-304,-41,386,156,-282
1,5355382,425,-1364,-493,-1487,-304,-41,386,156,-282
1,5355390,427,-1368,-486,-1492,-301,-47,382,156,-282
1,5355397,427,-1368,-486,-1492,-301,-47,382,156,-282
1,5355405,427,-1368,-486,-1492,-301,-47,382,156,-282
1,5355412,425,-1366,-483,-1486,-298,-46,382,156,-282
1,5355419,425,-1366,-483,-1486,-298,-46,382,156,-282
1,5355427,425,-1365,-488,-1486,-298,-42,382,156,-282
1,5355435,425,-1365,-488,-1486,-298,-42,382,156,-282
1,5355442,425,-1365,-488,-1486,-298,-42,382,156,-282
1,5355449,426,-1363,-493,-1488,-306,-37,382,156,-282
1,5355457,426,-1363,-493,-1488,-306,-37,382,156,-282
1,5355464,426,-1363,-493,-1488,-306,-37,382,156,-282
1,5355471,426,-1363,-484,-1495,-305,-37,382,156,-282
1,5355478,426,-1363,-484,-1495,-305,-37,382,156,-282
1,5355485,426,-1363,-484,-1495,-305,-37,382,156,-282
1,5355491,425,-1362,-491,-1493,-305,-34,382,156,-282
1,5355499,425,-1362,-491,-1493,-305,-34,382,156,-282
1,5355504,425,-1362,-491,-1493,-305,-34,382,156,-282
1,5355508,428,-1364,-487,-1486,-303,-36,380,158,-272
1,5355513,428,-1364,-487,-1486,-303,-36,380,158,-272
1,5355520,428,-1364,-487,-1486,-303,-36,380,158,-272
1,5355524,428,-1364,-487,-1486,-303,-36,380,158,-272
1,5355530,428,-1365,-485,-1488,-298,-43,380,158,-272
1,5355535,428,-1365,-485,-1488,-298,-43,380,158,-272
1,5355541,428,-1365,-485,-1488,-298,-43,380,158,-272
1,5355549,425,-1364,-492,-1484,-300,-36,380,158,-272
1,5355555,425,-1364,-492,-1484,-300,-36,380,158,-272
1,5355563,425,-1364,-492,-1484,-300,-36,380,158,-272
1,5355568,423,-1365,-492,-1485,-302,-36,380,158,-272
1,5355575,423,-1365,-492,-1485,-302,-36,380,158,-272
1,5355582,423,-1365,-492,-1485,-302,-36,380,158,-272
1,5355589,425,-1365,-492,-1492,-300,-40,380,158,-272
1,5355596,425,-1365,-492,-1492,-300,-40,380,158,-272
1,5355603,425,-1365,-492,-1492,-300,-40,380,158,-272
1,5355611,426,-1366,-491,-1483,-306,-42,380,158,-272
1,5355616,426,-1366,-491,-1483,-306,-42,380,158,-272
1,5355624,426,-1366,-491,-1483,-306,-42,380,158,-272
1,5355631,427,-1365,-486,-1491,-300,-39,383,153,-275
1,5355638,427,-1365,-486,-1491,-300,-39,383,153,-275
1,5355646,427,-1365,-486,-1491,-300,-39,383,153,-275
1,5355652,424,-1365,-488,-1490,-303,-41,383,153,-275
1,5355666,424,-1365,-488,-1490,-303,-41,383,153,-275
1,5355677,423,-1365,-488,-1487,-300,-47,383,153,-275
1,5355691,425,-1365,-489,-1493,-298,-41,383,153,-275
1,5355704,425,-1365,-489,-1493,-298,-41,383,153,-275
