imu,server_time,arduino_time,ax,ay,az,gx,gy,gz,mx,my,mz
1,2021-07-02 11:02:24.456,8844456,0.14866163913561792,-10.045366672872685,-0.5889432943900125,2.8310023692964297,-17.148268102663557,-4.041264892224546,397.0,151.0,-143.0
1,2021-07-02 11:02:24.464,8844464,0.14866163913561792,-10.045366672872685,-0.5889432943900125,2.8310023692964297,-17.148268102663557,-4.041264892224546,397.0,151.0,-143.0
1,2021-07-02 11:02:24.471,8844471,0.14866163913561792,-10.045366672872685,-0.5889432943900125,2.8310023692964297,-17.148268102663557,-4.041264892224546,397.0,151.0,-143.0
1,2021-07-02 11:02:24.478,8844478,0.14866163913561792,-10.045366672872685,-0.5889432943900125,2.8310023692964297,-17.148268102663557,-4.041264892224546,397.0,151.0,-143.0
1,2021-07-02 11:02:24.486,8844486,0.15821541863275568,-10.083777357092861,-0.3075410412678161,2.3368456005391907,-17.24846489925962,-3.9352561262932135,397.0,151.0,-143.0
1,2021-07-02 11:02:24.492,8844492,0.15821541863275568,-10.083777357092861,-0.3075410412678161,2.3368456005391907,-17.24846489925962,-3.9352561262932135,397.0,151.0,-143.0
1,2021-07-02 11:02:24.503,8844503,0.09611585190136182,-10.059770679455251,-0.3266191601235579,2.190142809814386,-17.340954249963684,-3.99583256396826,397.0,151.0,-143.0
1,2021-07-02 11:02:24.516,8844516,0.09611585190136182,-10.059770679455251,-0.3266191601235579,2.190142809814386,-17.340954249963684,-3.99583256396826,397.0,151.0,-143.0
1,2021-07-02 11:02:24.530,8844530,0.005354946678556053,-9.987750646542422,-0.15491609042187884,2.112930814696067,-17.3717840335317,-4.275998588215352,397.0,151.0,-143.0
1,2021-07-02 11:02:24.544,8844544,-0.013752612315718789,-10.05016800840021,0.016786979279800253,2.0588824181132446,-17.425736154775738,-4.78332625374387,403.0,147.0,-151.0
1,2021-07-02 11:02:24.553,8844553,-0.013752612315718789,-10.05016800840021,0.016786979279800253,2.0588824181132446,-17.425736154775738,-4.78332625374387,403.0,147.0,-151.0
1,2021-07-02 11:02:24.566,8844566,0.07223140315851855,-10.160598725533214,0.026326038707671168,1.8504100312937837,-17.32553935817967,-5.320942138109911,403.0,147.0,-151.0
1,2021-07-02 11:02:24.579,8844579,0.07223140315851855,-10.160598725533214,0.026326038707671168,1.8504100312937837,-17.32553935817967,-5.320942138109911,403.0,147.0,-151.0
1,2021-07-02 11:02:24.592,8844592,0.06745451340994946,-10.126989376840559,0.031095568421607066,1.4875136542376879,-17.425736154775738,-5.623824326485145,403.0,147.0,-151.0
1,2021-07-02 11:02:24.603,8844603,-0.008975722567150134,-10.088578692620384,0.08356039527489798,1.4257440581430332,-17.410321262991726,-5.820697748929048,403.0,147.0,-151.0
1,2021-07-02 11:02:24.617,8844617,-0.008975722567150134,-10.088578692620384,0.08356039527489798,1.4257440581430332,-17.410321262991726,-5.820697748929048,403.0,147.0,-151.0
1,2021-07-02 11:02:24.631,8844631,-0.05674462005283735,-10.078976021565339,0.08832992498883344,1.4103016591193687,-17.448858492451752,-6.358313633295088,403.0,147.0,-151.0
1,2021-07-02 11:02:24.645,8844645,-0.03763706105856251,-10.083777357092861,0.14079475184212434,1.603331646915165,-17.448858492451752,-6.956505955336176,403.0,147.0,-151.0
1,2021-07-02 11:02:24.654,8844654,-0.03763706105856251,-10.083777357092861,0.14079475184212434,1.603331646915165,-17.448858492451752,-6.956505955336176,403.0,147.0,-151.0
1,2021-07-02 11:02:24.665,8844665,-0.008975722567150134,-10.078976021565339,0.02155650899373571,1.8426888317819532,-17.487395721911778,-7.448689511445933,403.0,147.0,-151.0
1,2021-07-02 11:02:24.677,8844677,-0.008975722567150134,-10.078976021565339,0.02155650899373571,1.8426888317819532,-17.487395721911778,-7.448689511445933,403.0,147.0,-151.0
1,2021-07-02 11:02:24.690,8844690,-0.02330639181285632,-10.107784034730471,0.14079475184212434,2.3136820020036954,-17.58759251850784,-7.766715809239929,396.0,156.0,-146.0
1,2021-07-02 11:02:24.701,8844701,-0.03763706105856251,-10.12218804131304,0.28388064326019025,2.7306267756426155,-17.549055289047818,-8.22103909180278,396.0,156.0,-146.0
1,2021-07-02 11:02:24.717,8844717,-0.03763706105856251,-10.12218804131304,0.28388064326019025,2.7306267756426155,-17.549055289047818,-8.22103909180278,396.0,156.0,-146.0
1,2021-07-02 11:02:24.728,8844728,-0.013752612315718789,-10.141393383423125,0.23141581640689934,2.946820361973907,-17.572177626723832,-8.73593881204068,396.0,156.0,-146.0
1,2021-07-02 11:02:24.742,8844742,-0.02330639181285632,-10.09818136367543,0.11217757355851116,3.340601537077332,-17.633837193859872,-9.273554696406718,396.0,156.0,-146.0
1,2021-07-02 11:02:24.750,8844750,-0.02330639181285632,-10.09818136367543,0.11217757355851116,3.340601537077332,-17.633837193859872,-9.273554696406718,396.0,156.0,-146.0
1,2021-07-02 11:02:24.758,8844758,-0.02330639181285632,-10.09818136367543,0.11217757355851116,3.340601537077332,-17.633837193859872,-9.273554696406718,396.0,156.0,-146.0
1,2021-07-02 11:02:24.766,8844766,0.005354946678556053,-10.112585370257994,0.04063462784947798,3.9274126999765513,-17.610714856183858,-9.637013322457,396.0,156.0,-146.0
1,2021-07-02 11:02:24.775,8844775,0.005354946678556053,-10.112585370257994,0.04063462784947798,3.9274126999765513,-17.610714856183858,-9.637013322457,396.0,156.0,-146.0
1,2021-07-02 11:02:24.785,8844785,-0.013752612315718789,-10.175002732115779,0.22664628669296388,4.4524542667811176,-17.687789315103906,-9.970183729669758,396.0,156.0,-146.0
1,2021-07-02 11:02:24.798,8844798,-0.013752612315718789,-10.175002732115779,0.22664628669296388,4.4524542667811176,-17.687789315103906,-9.970183729669758,396.0,156.0,-146.0
1,2021-07-02 11:02:24.813,8844813,-0.008975722567150134,-10.175002732115779,0.2743415838323189,4.668647853112409,-17.703204206887914,-10.265493863335612,415.0,153.0,-143.0
1,2021-07-02 11:02:24.825,8844825,0.01968561592426224,-10.189406738698345,0.2600329946905125,4.606878257017755,-17.795693557591974,-10.62138043467651,415.0,153.0,-143.0
1,2021-07-02 11:02:24.837,8844837,0.01968561592426224,-10.189406738698345,0.2600329946905125,4.606878257017755,-17.795693557591974,-10.62138043467651,415.0,153.0,-143.0
1,2021-07-02 11:02:24.852,8844852,0.04357006466710596,-10.223016087390999,0.2600329946905125,4.5682722594585945,-17.826523341159994,-10.909118513632984,415.0,153.0,-143.0
1,2021-07-02 11:02:24.865,8844865,0.04357006466710596,-10.213413416335955,0.20279863812328616,4.630041855553251,-17.965257367216083,-11.03784344369246,415.0,153.0,-143.0
1,2021-07-02 11:02:24.879,8844879,0.04357006466710596,-10.213413416335955,0.20279863812328616,4.630041855553251,-17.965257367216083,-11.03784344369246,415.0,153.0,-143.0
1,2021-07-02 11:02:24.889,8844889,0.05790073391281214,-10.208612080808434,0.22187675697902842,4.799908244813551,-18.034624380244132,-11.13628015491441,415.0,153.0,-143.0
1,2021-07-02 11:02:24.900,8844900,0.05790073391281214,-10.208612080808434,0.22187675697902842,4.799908244813551,-18.034624380244132,-11.13628015491441,415.0,153.0,-143.0
1,2021-07-02 11:02:24.913,8844913,0.0770082929070872,-10.232618758446044,0.2743415838323189,5.070150227727665,-18.034624380244132,-11.257433030264503,415.0,153.0,-143.0
1,2021-07-02 11:02:24.926,8844926,0.08656207240422452,-10.251824100556131,0.2886501729741257,5.1396410233341525,-18.11169883916418,-11.355869741486455,417.0,153.0,-139.0
1,2021-07-02 11:02:24.940,8844940,0.08656207240422452,-10.251824100556131,0.2886501729741257,5.1396410233341525,-18.11169883916418,-11.355869741486455,417.0,153.0,-139.0
1,2021-07-02 11:02:24.952,8844952,0.11522341089563688,-10.261426771611175,0.20279863812328616,5.247737816499798,-18.273555202896283,-11.461878507417786,417.0,153.0,-139.0
1,2021-07-02 11:02:24.964,8844964,0.09133896215279318,-10.150996054478169,0.15510334098393072,5.572028195996735,-18.396874337168367,-11.48459467154593,417.0,153.0,-139.0
1,2021-07-02 11:02:24.973,8844973,0.09133896215279318,-10.150996054478169,0.15510334098393072,5.572028195996735,-18.396874337168367,-11.48459467154593,417.0,153.0,-139.0
1,2021-07-02 11:02:24.981,8844981,0.09133896215279318,-10.150996054478169,0.15510334098393072,5.572028195996735,-18.396874337168367,-11.48459467154593,417.0,153.0,-139.0
1,2021-07-02 11:02:24.989,8844989,0.1247771903927742,-10.213413416335955,0.15510334098393072,5.934924573052832,-18.47394879608841,-11.530026999802214,417.0,153.0,-139.0
1,2021-07-02 11:02:25.001,8845001,0.15821541863275568,-10.271029442666219,0.13125569241425297,6.251493753037939,-18.520193471440443,-11.530026999802214,417.0,153.0,-139.0
1,2021-07-02 11:02:25.012,8845012,0.15821541863275568,-10.271029442666219,0.13125569241425297,6.251493753037939,-18.520193471440443,-11.530026999802214,417.0,153.0,-139.0
1,2021-07-02 11:02:25.025,8845025,0.1295540801413433,-10.285433449248785,0.12648616270031754,6.266936152061602,-18.65892749749653,-11.499738780964691,417.0,153.0,-139.0
1,2021-07-02 11:02:25.037,8845037,0.1295540801413433,-10.285433449248785,0.12648616270031754,6.266936152061602,-18.65892749749653,-11.499738780964691,417.0,153.0,-139.0
1,2021-07-02 11:02:25.050,8845050,0.14388474938704926,-10.280632113721264,0.12648616270031754,6.34414814717992,-18.789954077660617,-11.424018233870884,420.0,150.0,-138.0
1,2021-07-02 11:02:25.062,8845062,0.18687675712416804,-10.271029442666219,0.10740804384457525,6.514014536440221,-18.882443428364677,-11.371013850905216,420.0,150.0,-138.0
1,2021-07-02 11:02:25.074,8845074,0.18687675712416804,-10.271029442666219,0.10740804384457525,6.514014536440221,-18.882443428364677,-11.371013850905216,420.0,150.0,-138.0
1,2021-07-02 11:02:25.087,8845087,0.23942254435842414,-10.309440126886395,0.12648616270031754,6.853747314960822,-18.99034767085275,-11.257433030264503,420.0,150.0,-138.0
1,2021-07-02 11:02:25.095,8845095,0.23942254435842414,-10.309440126886395,0.12648616270031754,6.853747314960822,-18.99034767085275,-11.257433030264503,420.0,150.0,-138.0
1,2021-07-02 11:02:25.104,8845104,0.2441994341069928,-10.367056153216659,0.11694710327244662,7.224364891528752,-19.04429979209678,-11.022699334273696,420.0,150.0,-138.0
1,2021-07-02 11:02:25.112,8845112,0.2441994341069928,-10.367056153216659,0.11694710327244662,7.224364891528752,-19.04429979209678,-11.022699334273696,420.0,150.0,-138.0
1,2021-07-02 11:02:25.120,8845120,0.2441994341069928,-10.367056153216659,0.11694710327244662,7.224364891528752,-19.04429979209678,-11.022699334273696,420.0,150.0,-138.0
1,2021-07-02 11:02:25.128,8845128,0.2728607725984052,-10.386261495326746,0.17895098955360844,7.533212872002025,-19.206156155828886,-10.545659887582703,420.0,150.0,-138.0
1,2021-07-02 11:02:25.136,8845136,0.2728607725984052,-10.386261495326746,0.17895098955360844,7.533212872002025,-19.206156155828886,-10.545659887582703,420.0,150.0,-138.0
1,2021-07-02 11:02:25.144,8845144,0.22986876486128638,-10.367056153216659,0.2361853461208348,7.695358061750493,-19.452794424373046,-10.114052769147994,420.0,150.0,-138.0
1,2021-07-02 11:02:25.152,8845152,0.22986876486128638,-10.367056153216659,0.2361853461208348,7.695358061750493,-19.452794424373046,-10.114052769147994,420.0,150.0,-138.0
1,2021-07-02 11:02:25.160,8845160,0.22986876486128638,-10.367056153216659,0.2361853461208348,7.695358061750493,-19.452794424373046,-10.114052769147994,420.0,150.0,-138.0
1,2021-07-02 11:02:25.167,8845167,0.20120742636987402,-10.309440126886395,0.1980291084093507,7.7339640593096535,-19.583821004537132,-9.856602909029045,432.0,142.0,-140.0
1,2021-07-02 11:02:25.176,8845176,0.20120742636987402,-10.309440126886395,0.1980291084093507,7.7339640593096535,-19.583821004537132,-9.856602909029045,432.0,142.0,-140.0
1,2021-07-02 11:02:25.184,8845184,0.18687675712416804,-10.319042797941439,0.1980291084093507,7.981042443688272,-19.684017801133194,-9.705161814841428,432.0,142.0,-140.0
1,2021-07-02 11:02:25.194,8845194,0.18687675712416804,-10.319042797941439,0.1980291084093507,7.981042443688272,-19.684017801133194,-9.705161814841428,432.0,142.0,-140.0
1,2021-07-02 11:02:25.204,8845204,0.1916536468727367,-10.295036120303829,0.08356039527489798,8.22812082806689,-19.761092260053246,-9.659729486585142,432.0,142.0,-140.0
1,2021-07-02 11:02:25.214,8845214,0.1916536468727367,-10.295036120303829,0.08356039527489798,8.22812082806689,-19.761092260053246,-9.659729486585142,432.0,142.0,-140.0
1,2021-07-02 11:02:25.222,8845222,0.28241455209554245,-10.381460159799223,0.09786898441670434,8.544690008051997,-19.90753373200134,-9.417423735884956,432.0,142.0,-140.0
1,2021-07-02 11:02:25.235,8845235,0.28241455209554245,-10.381460159799223,0.09786898441670434,8.544690008051997,-19.90753373200134,-9.417423735884956,432.0,142.0,-140.0
1,2021-07-02 11:02:25.248,8845248,0.2871914418441111,-10.362254817689136,0.026326038707671168,8.691392798776803,-20.01543797448941,-9.046393055125293,432.0,142.0,-140.0
1,2021-07-02 11:02:25.260,8845260,0.2871914418441111,-10.362254817689136,0.026326038707671168,8.691392798776803,-20.01543797448941,-9.046393055125293,432.0,142.0,-140.0
1,2021-07-02 11:02:25.273,8845273,0.19643053662130536,-10.333446804524005,0.13602522212818843,8.814931990966112,-20.208124121789535,-8.713222647912534,432.0,142.0,-140.0
1,2021-07-02 11:02:25.284,8845284,0.22509187511271772,-10.309440126886395,0.11694710327244662,8.861259188037103,-20.362273039629635,-8.433056623665443,432.0,142.0,-140.0
1,2021-07-02 11:02:25.297,8845297,0.22509187511271772,-10.309440126886395,0.11694710327244662,8.861259188037103,-20.362273039629635,-8.433056623665443,432.0,142.0,-140.0
1,2021-07-02 11:02:25.309,8845309,0.14866163913561792,-10.304638791358874,0.02155650899373571,9.108337572415723,-20.43164005265768,-8.296759638896589,433.0,139.0,-135.0
1,2021-07-02 11:02:25.322,8845322,0.16299230838132434,-10.299837455831351,0.10740804384457525,9.394021954353502,-20.55495918692976,-8.236183201221541,433.0,139.0,-135.0
1,2021-07-02 11:02:25.335,8845335,0.16299230838132434,-10.299837455831351,0.10740804384457525,9.394021954353502,-20.55495918692976,-8.236183201221541,433.0,139.0,-135.0
1,2021-07-02 11:02:25.347,8845347,0.14388474938704926,-10.357453482161615,0.10740804384457525,9.610215540684793,-20.66286342941783,-8.168034708837114,433.0,139.0,-135.0
1,2021-07-02 11:02:25.361,8845361,0.14388474938704926,-10.357453482161615,0.10740804384457525,9.610215540684793,-20.66286342941783,-8.168034708837114,433.0,139.0,-135.0
1,2021-07-02 11:02:25.372,8845372,0.14866163913561792,-10.381460159799223,0.13602522212818843,9.865015124575244,-20.778475117797903,-8.04688183348702,433.0,139.0,-135.0
1,2021-07-02 11:02:25.384,8845384,0.14866163913561792,-10.39586416638179,0.22664628669296388,10.027160314323712,-20.840134684933943,-8.06202594290578,433.0,139.0,-135.0
1,2021-07-02 11:02:25.392,8845392,0.14866163913561792,-10.39586416638179,0.22664628669296388,10.027160314323712,-20.840134684933943,-8.06202594290578,433.0,139.0,-135.0
1,2021-07-02 11:02:25.402,8845402,0.14388474938704926,-10.391062830854269,0.07402133584702662,10.0966511099302,-20.932624035638,-8.016593614649496,433.0,139.0,-135.0
1,2021-07-02 11:02:25.410,8845410,0.14388474938704926,-10.391062830854269,0.07402133584702662,10.0966511099302,-20.932624035638,-8.016593614649496,433.0,139.0,-135.0
1,2021-07-02 11:02:25.422,8845422,0.12000030064420554,-10.357453482161615,0.06925180613309116,10.204747903095845,-21.04052827812607,-7.948445122265069,439.0,133.0,-129.0
1,2021-07-02 11:02:25.436,8845436,0.12000030064420554,-10.357453482161615,0.06925180613309116,10.204747903095845,-21.04052827812607,-7.948445122265069,439.0,133.0,-129.0
1,2021-07-02 11:02:25.449,8845449,0.12000030064420554,-10.34785081110657,0.0644822764191557,10.251075100166835,-21.16384741239815,-7.850008411043118,439.0,133.0,-129.0
1,2021-07-02 11:02:25.461,8845461,0.12000030064420554,-10.34785081110657,0.0644822764191557,10.251075100166835,-21.16384741239815,-7.850008411043118,439.0,133.0,-129.0
1,2021-07-02 11:02:25.474,8845474,0.09133896215279318,-10.338248140051526,0.05494321699128435,10.39005669137981,-21.202384641858174,-7.8272922469149755,439.0,133.0,-129.0
1,2021-07-02 11:02:25.488,8845488,0.05312384416424349,-10.304638791358874,0.10740804384457525,10.544480681616447,-21.264044208994214,-7.993877450521353,439.0,133.0,-129.0
1,2021-07-02 11:02:25.500,8845500,0.05312384416424349,-10.304638791358874,0.10740804384457525,10.544480681616447,-21.264044208994214,-7.993877450521353,439.0,133.0,-129.0
1,2021-07-02 11:02:25.507,8845507,0.07223140315851855,-10.367056153216659,0.050173687277348895,10.683462272829418,-21.279459100778226,-8.289187584187207,439.0,133.0,-129.0
1,2021-07-02 11:02:25.513,8845513,0.07223140315851855,-10.367056153216659,0.050173687277348895,10.683462272829418,-21.279459100778226,-8.289187584187207,439.0,133.0,-129.0
1,2021-07-02 11:02:25.520,8845520,0.07223140315851855,-10.367056153216659,0.050173687277348895,10.683462272829418,-21.279459100778226,-8.289187584187207,439.0,133.0,-129.0
1,2021-07-02 11:02:25.528,8845528,0.12000030064420554,-10.405466837436833,0.0644822764191557,10.845607462577888,-21.325703776130258,-8.463344842502966,439.0,133.0,-129.0
1,2021-07-02 11:02:25.535,8845535,0.12000030064420554,-10.405466837436833,0.0644822764191557,10.845607462577888,-21.325703776130258,-8.463344842502966,439.0,133.0,-129.0
1,2021-07-02 11:02:25.540,8845540,0.12000030064420554,-10.405466837436833,0.0644822764191557,10.845607462577888,-21.325703776130258,-8.463344842502966,439.0,133.0,-129.0
1,2021-07-02 11:02:25.545,8845545,0.09133896215279318,-10.434274850601966,0.16941193012573752,11.038637450373685,-21.433608018618326,-8.508777170759252,446.0,130.0,-134.0
1,2021-07-02 11:02:25.550,8845550,0.09133896215279318,-10.434274850601966,0.16941193012573752,11.038637450373685,-21.433608018618326,-8.508777170759252,446.0,130.0,-134.0
1,2021-07-02 11:02:25.556,8845556,0.09133896215279318,-10.434274850601966,0.16941193012573752,11.038637450373685,-21.433608018618326,-8.508777170759252,446.0,130.0,-134.0
1,2021-07-02 11:02:25.564,8845564,0.09133896215279318,-10.410268172964356,0.16941193012573752,11.046358649885516,-21.472145248078352,-8.463344842502966,446.0,130.0,-134.0
1,2021-07-02 11:02:25.572,8845572,0.09133896215279318,-10.410268172964356,0.16941193012573752,11.046358649885516,-21.472145248078352,-8.463344842502966,446.0,130.0,-134.0
1,2021-07-02 11:02:25.578,8845578,0.09133896215279318,-10.410268172964356,0.16941193012573752,11.046358649885516,-21.472145248078352,-8.463344842502966,446.0,130.0,-134.0
1,2021-07-02 11:02:25.585,8845585,0.06745451340994946,-10.381460159799223,0.05494321699128435,11.177619041586658,-21.603171828242434,-8.531493334887394,446.0,130.0,-134.0
1,2021-07-02 11:02:25.590,8845590,0.06745451340994946,-10.381460159799223,0.05494321699128435,11.177619041586658,-21.603171828242434,-8.531493334887394,446.0,130.0,-134.0
1,2021-07-02 11:02:25.597,8845597,0.06745451340994946,-10.381460159799223,0.05494321699128435,11.177619041586658,-21.603171828242434,-8.531493334887394,446.0,130.0,-134.0
1,2021-07-02 11:02:25.605,8845605,0.04834695441567483,-10.338248140051526,0.02155650899373571,11.239388637681312,-21.67253884127048,-8.629930046109346,446.0,130.0,-134.0
1,2021-07-02 11:02:25.614,8845614,0.04834695441567483,-10.338248140051526,0.02155650899373571,11.239388637681312,-21.67253884127048,-8.629930046109346,446.0,130.0,-134.0
1,2021-07-02 11:02:25.619,8845619,0.04834695441567483,-10.338248140051526,0.02155650899373571,11.239388637681312,-21.67253884127048,-8.629930046109346,446.0,130.0,-134.0
1,2021-07-02 11:02:25.625,8845625,0.10089274164993092,-10.39586416638179,0.02155650899373571,11.39381262791795,-21.67253884127048,-8.811659359134486,446.0,130.0,-134.0
1,2021-07-02 11:02:25.631,8845631,0.10089274164993092,-10.39586416638179,0.02155650899373571,11.39381262791795,-21.67253884127048,-8.811659359134486,446.0,130.0,-134.0
1,2021-07-02 11:02:25.637,8845637,0.10089274164993092,-10.39586416638179,0.02155650899373571,11.39381262791795,-21.67253884127048,-8.811659359134486,446.0,130.0,-134.0
1,2021-07-02 11:02:25.643,8845643,0.12000030064420554,-10.405466837436833,-0.0833731447128461,11.440139824988941,-21.84210265089459,-8.894951960937677,446.0,130.0,-134.0
1,2021-07-02 11:02:25.650,8845650,0.12000030064420554,-10.405466837436833,-0.0833731447128461,11.440139824988941,-21.84210265089459,-8.894951960937677,446.0,130.0,-134.0
1,2021-07-02 11:02:25.657,8845657,0.12000030064420554,-10.405466837436833,-0.0833731447128461,11.440139824988941,-21.84210265089459,-8.894951960937677,446.0,130.0,-134.0
1,2021-07-02 11:02:25.664,8845664,0.15821541863275568,-10.424672179546924,-0.18353326870549203,11.455582224012604,-21.78044308375855,-8.887379906228295,449.0,131.0,-121.0
1,2021-07-02 11:02:25.672,8845672,0.15821541863275568,-10.424672179546924,-0.18353326870549203,11.455582224012604,-21.78044308375855,-8.887379906228295,449.0,131.0,-121.0
1,2021-07-02 11:02:25.680,8845680,0.15821541863275568,-10.424672179546924,-0.18353326870549203,11.455582224012604,-21.78044308375855,-8.887379906228295,449.0,131.0,-121.0
1,2021-07-02 11:02:25.687,8845687,0.1916536468727367,-10.463082863767099,-0.2789238629842029,11.478745822548099,-21.911469663922635,-8.66779031965625,449.0,131.0,-121.0
1,2021-07-02 11:02:25.693,8845693,0.1916536468727367,-10.463082863767099,-0.2789238629842029,11.478745822548099,-21.911469663922635,-8.66779031965625,449.0,131.0,-121.0
1,2021-07-02 11:02:25.700,8845700,0.1916536468727367,-10.463082863767099,-0.2789238629842029,11.478745822548099,-21.911469663922635,-8.66779031965625,449.0,131.0,-121.0
1,2021-07-02 11:02:25.709,8845709,0.20598431611844267,-10.434274850601966,-0.25030668470058975,11.586842615713746,-21.973129231058675,-8.417912514246682,449.0,131.0,-121.0
1,2021-07-02 11:02:25.715,8845715,0.20598431611844267,-10.434274850601966,-0.25030668470058975,11.586842615713746,-21.973129231058675,-8.417912514246682,449.0,131.0,-121.0
1,2021-07-02 11:02:25.721,8845721,0.14388474938704926,-10.415069508491879,-0.15014656070794338,11.525073019619091,-22.065618581762735,-8.327047857734112,449.0,131.0,-121.0
1,2021-07-02 11:02:25.728,8845728,0.14388474938704926,-10.415069508491879,-0.15014656070794338,11.525073019619091,-22.065618581762735,-8.327047857734112,449.0,131.0,-121.0
1,2021-07-02 11:02:25.736,8845736,0.14388474938704926,-10.415069508491879,-0.15014656070794338,11.525073019619091,-22.065618581762735,-8.327047857734112,449.0,131.0,-121.0
1,2021-07-02 11:02:25.743,8845743,0.1391078596384806,-10.410268172964356,-0.20261138756123429,11.494188221571763,-22.127278148898775,-8.13017443529021,449.0,131.0,-121.0
1,2021-07-02 11:02:25.748,8845748,0.1391078596384806,-10.410268172964356,-0.20261138756123429,11.494188221571763,-22.127278148898775,-8.13017443529021,449.0,131.0,-121.0
1,2021-07-02 11:02:25.752,8845752,0.1391078596384806,-10.410268172964356,-0.20261138756123429,11.494188221571763,-22.127278148898775,-8.13017443529021,449.0,131.0,-121.0
1,2021-07-02 11:02:25.758,8845758,0.1391078596384806,-10.410268172964356,-0.20261138756123429,11.494188221571763,-22.127278148898775,-8.13017443529021,449.0,131.0,-121.0
1,2021-07-02 11:02:25.763,8845763,0.167769198129893,-10.39586416638179,-0.3075410412678161,11.409255026941613,-22.15040048657479,-8.0544538881964,449.0,131.0,-121.0
1,2021-07-02 11:02:25.768,8845768,0.167769198129893,-10.39586416638179,-0.3075410412678161,11.409255026941613,-22.15040048657479,-8.0544538881964,449.0,131.0,-121.0
1,2021-07-02 11:02:25.773,8845773,0.167769198129893,-10.39586416638179,-0.3075410412678161,11.409255026941613,-22.15040048657479,-8.0544538881964,449.0,131.0,-121.0
1,2021-07-02 11:02:25.782,8845782,0.167769198129893,-10.39586416638179,-0.3075410412678161,11.409255026941613,-22.15040048657479,-8.0544538881964,449.0,131.0,-121.0
1,2021-07-02 11:02:25.789,8845789,0.1916536468727367,-10.405466837436833,-0.226459036130912,11.401533827429782,-22.21206005371083,-7.918156903427546,449.0,131.0,-121.0
1,2021-07-02 11:02:25.796,8845796,0.1916536468727367,-10.405466837436833,-0.226459036130912,11.401533827429782,-22.21206005371083,-7.918156903427546,449.0,131.0,-121.0
1,2021-07-02 11:02:25.802,8845802,0.2155380956155804,-10.448678857184534,-0.17876373899155656,11.486467022059932,-22.28913451263088,-7.789431973368071,449.0,129.0,-123.0
1,2021-07-02 11:02:25.807,8845807,0.2155380956155804,-10.448678857184534,-0.17876373899155656,11.486467022059932,-22.28913451263088,-7.789431973368071,449.0,129.0,-123.0
1,2021-07-02 11:02:25.815,8845815,0.2155380956155804,-10.448678857184534,-0.17876373899155656,11.486467022059932,-22.28913451263088,-7.789431973368071,449.0,129.0,-123.0
1,2021-07-02 11:02:25.824,8845824,0.23464565460985504,-10.46788419929462,-0.18353326870549203,11.633169812784738,-22.43557598457897,-7.562270332086644,449.0,129.0,-123.0
1,2021-07-02 11:02:25.831,8845831,0.23464565460985504,-10.46788419929462,-0.18353326870549203,11.633169812784738,-22.43557598457897,-7.562270332086644,449.0,129.0,-123.0
1,2021-07-02 11:02:25.838,8845838,0.23464565460985504,-10.46788419929462,-0.18353326870549203,11.633169812784738,-22.43557598457897,-7.562270332086644,449.0,129.0,-123.0
1,2021-07-02 11:02:25.844,8845844,0.22031498536414906,-10.448678857184534,-0.26938480355633154,11.702660608391223,-22.481820659931003,-7.3275366360958385,449.0,129.0,-123.0
1,2021-07-02 11:02:25.851,8845851,0.22031498536414906,-10.448678857184534,-0.26938480355633154,11.702660608391223,-22.481820659931003,-7.3275366360958385,449.0,129.0,-123.0
1,2021-07-02 11:02:25.859,8845859,0.22031498536414906,-10.448678857184534,-0.26938480355633154,11.702660608391223,-22.481820659931003,-7.3275366360958385,449.0,129.0,-123.0
1,2021-07-02 11:02:25.867,8845867,0.2155380956155804,-10.434274850601966,-0.3218496304096225,11.810757401556868,-22.56660256474306,-7.017082393011223,449.0,129.0,-123.0
1,2021-07-02 11:02:25.874,8845874,0.2155380956155804,-10.434274850601966,-0.3218496304096225,11.810757401556868,-22.56660256474306,-7.017082393011223,449.0,129.0,-123.0
1,2021-07-02 11:02:25.882,8845882,0.22509187511271772,-10.439076186129489,-0.20738091727516975,11.880248197163356,-22.60513979420308,-6.759632532892274,449.0,129.0,-123.0
1,2021-07-02 11:02:25.889,8845889,0.22509187511271772,-10.439076186129489,-0.20738091727516975,11.880248197163356,-22.60513979420308,-6.759632532892274,449.0,129.0,-123.0
1,2021-07-02 11:02:25.897,8845897,0.22509187511271772,-10.439076186129489,-0.20738091727516975,11.880248197163356,-22.60513979420308,-6.759632532892274,449.0,129.0,-123.0
1,2021-07-02 11:02:25.904,8845904,0.21076120586701175,-10.4198708440194,-0.18353326870549203,12.088720583982814,-22.697629144907143,-6.487038563354563,449.0,129.0,-123.0
1,2021-07-02 11:02:25.910,8845910,0.21076120586701175,-10.4198708440194,-0.18353326870549203,12.088720583982814,-22.697629144907143,-6.487038563354563,449.0,129.0,-123.0
1,2021-07-02 11:02:25.917,8845917,0.21076120586701175,-10.4198708440194,-0.18353326870549203,12.088720583982814,-22.697629144907143,-6.487038563354563,449.0,129.0,-123.0
1,2021-07-02 11:02:25.923,8845923,0.20120742636987402,-10.429473515074443,-0.1596856201358143,12.312635369825939,-22.720751482583157,-6.267448976782518,447.0,117.0,-117.0
1,2021-07-02 11:02:25.930,8845930,0.20120742636987402,-10.429473515074443,-0.1596856201358143,12.312635369825939,-22.720751482583157,-6.267448976782518,447.0,117.0,-117.0
1,2021-07-02 11:02:25.938,8845938,0.20120742636987402,-10.429473515074443,-0.1596856201358143,12.312635369825939,-22.720751482583157,-6.267448976782518,447.0,117.0,-117.0
1,2021-07-02 11:02:25.945,8845945,0.18687675712416804,-10.458281528239576,-0.13583797156613656,12.590598552251887,-22.759288712043183,-6.169012265560567,447.0,117.0,-117.0
1,2021-07-02 11:02:25.952,8845952,0.18687675712416804,-10.458281528239576,-0.13583797156613656,12.590598552251887,-22.759288712043183,-6.169012265560567,447.0,117.0,-117.0
1,2021-07-02 11:02:25.960,8845960,0.18687675712416804,-10.458281528239576,-0.13583797156613656,12.590598552251887,-22.759288712043183,-6.169012265560567,447.0,117.0,-117.0
1,2021-07-02 11:02:25.967,8845967,0.19643053662130536,-10.501493547987273,-0.007060669289877471,12.729580143464858,-22.80553338739521,-6.01757117137295,447.0,117.0,-117.0
1,2021-07-02 11:02:25.973,8845973,0.19643053662130536,-10.501493547987273,-0.007060669289877471,12.729580143464858,-22.80553338739521,-6.01757117137295,447.0,117.0,-117.0
1,2021-07-02 11:02:25.980,8845980,0.19643053662130536,-10.501493547987273,-0.007060669289877471,12.729580143464858,-22.80553338739521,-6.01757117137295,447.0,117.0,-117.0
1,2021-07-02 11:02:25.987,8845987,0.1916536468727367,-10.487089541404709,0.04063462784947798,12.860840535166,-22.936559967559297,-5.949422678988522,447.0,117.0,-117.0
1,2021-07-02 11:02:25.993,8845993,0.1916536468727367,-10.487089541404709,0.04063462784947798,12.860840535166,-22.936559967559297,-5.949422678988522,447.0,117.0,-117.0
1,2021-07-02 11:02:26.001,8846001,0.1916536468727367,-10.487089541404709,0.04063462784947798,12.860840535166,-22.936559967559297,-5.949422678988522,447.0,117.0,-117.0
1,2021-07-02 11:02:26.008,8846008,0.167769198129893,-10.415069508491879,-0.035677847573490656,13.06931292198546,-23.029049318263354,-5.896418296022857,447.0,117.0,-117.0
1,2021-07-02 11:02:26.015,8846015,0.167769198129893,-10.415069508491879,-0.035677847573490656,13.06931292198546,-23.029049318263354,-5.896418296022857,447.0,117.0,-117.0
1,2021-07-02 11:02:26.022,8846022,0.1247771903927742,-10.386261495326746,-0.04044737728742611,13.493978895136213,-23.044464210047366,-5.820697748929048,447.0,117.0,-117.0
1,2021-07-02 11:02:26.030,8846030,0.1247771903927742,-10.386261495326746,-0.04044737728742611,13.493978895136213,-23.044464210047366,-5.820697748929048,447.0,117.0,-117.0
1,2021-07-02 11:02:26.035,8846035,0.1247771903927742,-10.386261495326746,-0.04044737728742611,13.493978895136213,-23.044464210047366,-5.820697748929048,447.0,117.0,-117.0
1,2021-07-02 11:02:26.042,8846042,0.16299230838132434,-10.46788419929462,0.16464240041180161,14.03446286096444,-23.13695356075143,-5.84341391305719,447.0,117.0,-117.0
1,2021-07-02 11:02:26.049,8846049,0.16299230838132434,-10.46788419929462,0.16464240041180161,14.03446286096444,-23.13695356075143,-5.84341391305719,460.0,124.0,-112.0
1,2021-07-02 11:02:26.056,8846056,0.16299230838132434,-10.46788419929462,0.16464240041180161,14.03446286096444,-23.13695356075143,-5.84341391305719,460.0,124.0,-112.0
1,2021-07-02 11:02:26.062,8846062,0.167769198129893,-10.544705567734972,0.17418145983967298,14.181165651689247,-23.13695356075143,-5.888846241313475,460.0,124.0,-112.0
1,2021-07-02 11:02:26.068,8846068,0.167769198129893,-10.544705567734972,0.17418145983967298,14.181165651689247,-23.13695356075143,-5.888846241313475,460.0,124.0,-112.0
1,2021-07-02 11:02:26.074,8846074,0.167769198129893,-10.544705567734972,0.17418145983967298,14.181165651689247,-23.13695356075143,-5.888846241313475,460.0,124.0,-112.0
1,2021-07-02 11:02:26.082,8846082,0.18687675712416804,-10.535102896679929,0.15510334098393072,14.158002053153751,-23.244857803239498,-5.873702131894714,460.0,124.0,-112.0
1,2021-07-02 11:02:26.088,8846088,0.18687675712416804,-10.535102896679929,0.15510334098393072,14.158002053153751,-23.244857803239498,-5.873702131894714,460.0,124.0,-112.0
1,2021-07-02 11:02:26.093,8846093,0.18687675712416804,-10.535102896679929,0.15510334098393072,14.158002053153751,-23.244857803239498,-5.873702131894714,460.0,124.0,-112.0
1,2021-07-02 11:02:26.098,8846098,0.18687675712416804,-10.535102896679929,0.15510334098393072,14.158002053153751,-23.244857803239498,-5.873702131894714,460.0,124.0,-112.0
1,2021-07-02 11:02:26.103,8846103,0.15343852888418658,-10.525500225624883,-0.09291220414071702,14.165723252665583,-23.31422481626754,-5.797981584800905,460.0,124.0,-112.0
1,2021-07-02 11:02:26.108,8846108,0.15343852888418658,-10.525500225624883,-0.09291220414071702,14.165723252665583,-23.31422481626754,-5.797981584800905,460.0,124.0,-112.0
1,2021-07-02 11:02:26.113,8846113,0.15343852888418658,-10.525500225624883,-0.09291220414071702,14.165723252665583,-23.31422481626754,-5.797981584800905,460.0,124.0,-112.0
1,2021-07-02 11:02:26.118,8846118,0.15343852888418658,-10.525500225624883,-0.09291220414071702,14.165723252665583,-23.31422481626754,-5.797981584800905,460.0,124.0,-112.0
1,2021-07-02 11:02:26.125,8846125,0.15343852888418658,-10.482288205877186,0.14079475184212434,14.49001363216252,-23.360469491619572,-5.66925665474143,460.0,124.0,-112.0
1,2021-07-02 11:02:26.131,8846131,0.15343852888418658,-10.482288205877186,0.14079475184212434,14.49001363216252,-23.360469491619572,-5.66925665474143,460.0,124.0,-112.0
1,2021-07-02 11:02:26.138,8846138,0.15343852888418658,-10.482288205877186,0.14079475184212434,14.49001363216252,-23.360469491619572,-5.66925665474143,460.0,124.0,-112.0
1,2021-07-02 11:02:26.144,8846144,0.11044652114706824,-10.46788419929462,0.1980291084093507,14.752534415564805,-23.391299275187592,-5.7525492565446195,460.0,124.0,-112.0
1,2021-07-02 11:02:26.151,8846151,0.11044652114706824,-10.46788419929462,0.1980291084093507,14.752534415564805,-23.391299275187592,-5.7525492565446195,460.0,124.0,-112.0
1,2021-07-02 11:02:26.158,8846158,0.11044652114706824,-10.46788419929462,0.1980291084093507,14.752534415564805,-23.391299275187592,-5.7525492565446195,460.0,124.0,-112.0
1,2021-07-02 11:02:26.167,8846167,0.0626776236613808,-10.487089541404709,0.11217757355851116,14.837467610194954,-23.4067141669716,-5.964566788407283,458.0,128.0,-102.0
1,2021-07-02 11:02:26.174,8846174,0.0626776236613808,-10.487089541404709,0.11217757355851116,14.837467610194954,-23.4067141669716,-5.964566788407283,458.0,128.0,-102.0
1,2021-07-02 11:02:26.181,8846181,0.0626776236613808,-10.487089541404709,0.11217757355851116,14.837467610194954,-23.4067141669716,-5.964566788407283,458.0,128.0,-102.0
1,2021-07-02 11:02:26.188,8846188,0.17254608787846162,-10.477486870349663,0.12171663298638206,15.038218797502582,-23.46837373410764,-6.123579937304282,458.0,128.0,-102.0
1,2021-07-02 11:02:26.194,8846194,0.17254608787846162,-10.477486870349663,0.12171663298638206,15.038218797502582,-23.46837373410764,-6.123579937304282,458.0,128.0,-102.0
1,2021-07-02 11:02:26.201,8846201,0.17254608787846162,-10.477486870349663,0.12171663298638206,15.038218797502582,-23.46837373410764,-6.123579937304282,458.0,128.0,-102.0
1,2021-07-02 11:02:26.209,8846209,0.12000030064420554,-10.535102896679929,0.08832992498883344,15.169479189203724,-23.53003330124368,-6.146296101432425,458.0,128.0,-102.0
1,2021-07-02 11:02:26.216,8846216,0.12000030064420554,-10.535102896679929,0.08832992498883344,15.169479189203724,-23.53003330124368,-6.146296101432425,458.0,128.0,-102.0
1,2021-07-02 11:02:26.223,8846223,0.12000030064420554,-10.506294883514796,0.15987287069786615,15.339345578464023,-23.599400314271723,-6.116007882594901,458.0,128.0,-102.0
1,2021-07-02 11:02:26.230,8846230,0.12000030064420554,-10.506294883514796,0.15987287069786615,15.339345578464023,-23.599400314271723,-6.116007882594901,458.0,128.0,-102.0
1,2021-07-02 11:02:26.236,8846236,0.12000030064420554,-10.506294883514796,0.15987287069786615,15.339345578464023,-23.599400314271723,-6.116007882594901,458.0,128.0,-102.0
1,2021-07-02 11:02:26.242,8846242,0.11522341089563688,-10.506294883514796,0.15033381126999526,15.424278773094173,-23.668767327299772,-6.161440210851186,458.0,128.0,-102.0
1,2021-07-02 11:02:26.251,8846251,0.11522341089563688,-10.506294883514796,0.15033381126999526,15.424278773094173,-23.668767327299772,-6.161440210851186,458.0,128.0,-102.0
1,2021-07-02 11:02:26.259,8846259,0.11522341089563688,-10.506294883514796,0.15033381126999526,15.424278773094173,-23.668767327299772,-6.161440210851186,458.0,128.0,-102.0
1,2021-07-02 11:02:26.267,8846267,0.1247771903927742,-10.511096219042319,0.08356039527489798,15.625029960401802,-23.7150120026518,-6.244732812654376,458.0,128.0,-102.0
1,2021-07-02 11:02:26.273,8846273,0.1247771903927742,-10.511096219042319,0.08356039527489798,15.625029960401802,-23.7150120026518,-6.244732812654376,458.0,128.0,-102.0
1,2021-07-02 11:02:26.280,8846280,0.1247771903927742,-10.511096219042319,0.08356039527489798,15.625029960401802,-23.7150120026518,-6.244732812654376,458.0,128.0,-102.0
1,2021-07-02 11:02:26.287,8846287,0.15821541863275568,-10.549506903262493,0.09786898441670434,15.74084795307928,-23.668767327299772,-6.2523048673637565,458.0,128.0,-102.0
1,2021-07-02 11:02:26.292,8846292,0.15821541863275568,-10.549506903262493,0.09786898441670434,15.74084795307928,-23.668767327299772,-6.2523048673637565,458.0,128.0,-102.0
1,2021-07-02 11:02:26.301,8846301,0.15821541863275568,-10.549506903262493,0.09786898441670434,15.74084795307928,-23.668767327299772,-6.2523048673637565,458.0,128.0,-102.0
1,2021-07-02 11:02:26.308,8846308,0.1916536468727367,-10.56391090984506,0.1980291084093507,15.848944746244925,-23.76125667800383,-6.297737195620042,458.0,126.0,-102.0
1,2021-07-02 11:02:26.316,8846316,0.1916536468727367,-10.56391090984506,0.1980291084093507,15.848944746244925,-23.76125667800383,-6.297737195620042,458.0,126.0,-102.0
1,2021-07-02 11:02:26.323,8846323,0.16299230838132434,-10.535102896679929,0.1026385141306398,15.94932033989874,-23.77667156978784,-6.206872539107471,458.0,126.0,-102.0
1,2021-07-02 11:02:26.328,8846328,0.16299230838132434,-10.535102896679929,0.1026385141306398,15.94932033989874,-23.77667156978784,-6.206872539107471,458.0,126.0,-102.0
1,2021-07-02 11:02:26.336,8846336,0.16299230838132434,-10.535102896679929,0.1026385141306398,15.94932033989874,-23.77667156978784,-6.206872539107471,458.0,126.0,-102.0
1,2021-07-02 11:02:26.341,8846341,0.16299230838132434,-10.535102896679929,0.1026385141306398,15.94932033989874,-23.77667156978784,-6.206872539107471,458.0,126.0,-102.0
1,2021-07-02 11:02:26.347,8846347,0.1391078596384806,-10.525500225624883,0.09309945470276888,16.018811135505224,-23.830623691031875,-6.1538681561418045,458.0,126.0,-102.0
1,2021-07-02 11:02:26.354,8846354,0.1391078596384806,-10.525500225624883,0.09309945470276888,16.018811135505224,-23.830623691031875,-6.1538681561418045,458.0,126.0,-102.0
1,2021-07-02 11:02:26.360,8846360,0.1391078596384806,-10.525500225624883,0.09309945470276888,16.018811135505224,-23.830623691031875,-6.1538681561418045,458.0,126.0,-102.0
1,2021-07-02 11:02:26.367,8846367,0.18209986737559938,-10.554308238790016,0.19325957869541524,16.335380315490333,-23.861453474599895,-6.055431444919854,458.0,126.0,-102.0
1,2021-07-02 11:02:26.374,8846374,0.18209986737559938,-10.554308238790016,0.19325957869541524,16.335380315490333,-23.861453474599895,-6.055431444919854,458.0,126.0,-102.0
1,2021-07-02 11:02:26.381,8846381,0.18209986737559938,-10.554308238790016,0.19325957869541524,16.335380315490333,-23.861453474599895,-6.055431444919854,458.0,126.0,-102.0
1,2021-07-02 11:02:26.389,8846389,0.21076120586701175,-10.583116251955149,0.2457244055487057,16.559295101333458,-23.89999070405992,-5.896418296022857,458.0,126.0,-102.0
1,2021-07-02 11:02:26.396,8846396,0.21076120586701175,-10.583116251955149,0.2457244055487057,16.559295101333458,-23.89999070405992,-5.896418296022857,458.0,126.0,-102.0
1,2021-07-02 11:02:26.403,8846403,0.23942254435842414,-10.58791758748267,0.28388064326019025,16.4975255052388,-23.96165027119596,-5.797981584800905,458.0,126.0,-102.0
1,2021-07-02 11:02:26.411,8846411,0.23942254435842414,-10.58791758748267,0.28388064326019025,16.4975255052388,-23.96165027119596,-5.797981584800905,458.0,126.0,-102.0
1,2021-07-02 11:02:26.417,8846417,0.23942254435842414,-10.58791758748267,0.28388064326019025,16.4975255052388,-23.96165027119596,-5.797981584800905,458.0,126.0,-102.0
1,2021-07-02 11:02:26.425,8846425,0.24897632385556145,-10.597520258537713,0.2743415838323189,16.428034709632318,-24.046432176008015,-5.676828709450811,462.0,110.0,-90.0
1,2021-07-02 11:02:26.432,8846432,0.24897632385556145,-10.597520258537713,0.2743415838323189,16.428034709632318,-24.046432176008015,-5.676828709450811,462.0,110.0,-90.0
1,2021-07-02 11:02:26.439,8846439,0.24897632385556145,-10.597520258537713,0.2743415838323189,16.428034709632318,-24.046432176008015,-5.676828709450811,462.0,110.0,-90.0
1,2021-07-02 11:02:26.445,8846445,0.2155380956155804,-10.583116251955149,0.21233769755115708,16.443477108655976,-24.084969405468037,-5.4496670681693855,462.0,110.0,-90.0
1,2021-07-02 11:02:26.453,8846453,0.2155380956155804,-10.583116251955149,0.21233769755115708,16.443477108655976,-24.084969405468037,-5.4496670681693855,462.0,110.0,-90.0
1,2021-07-02 11:02:26.459,8846459,0.2155380956155804,-10.583116251955149,0.21233769755115708,16.443477108655976,-24.084969405468037,-5.4496670681693855,462.0,110.0,-90.0
1,2021-07-02 11:02:26.468,8846468,0.2155380956155804,-10.56871224537258,0.22187675697902842,16.644228295963607,-24.13121408082007,-5.245221591016102,462.0,110.0,-90.0
1,2021-07-02 11:02:26.475,8846475,0.2155380956155804,-10.56871224537258,0.22187675697902842,16.644228295963607,-24.13121408082007,-5.245221591016102,462.0,110.0,-90.0
1,2021-07-02 11:02:26.482,8846482,0.20120742636987402,-10.58791758748267,0.14079475184212434,16.844979483271235,-24.23911832330814,-5.033204059153438,462.0,110.0,-90.0
1,2021-07-02 11:02:26.488,8846488,0.20120742636987402,-10.58791758748267,0.14079475184212434,16.844979483271235,-24.23911832330814,-5.033204059153438,462.0,110.0,-90.0
1,2021-07-02 11:02:26.496,8846496,0.20120742636987402,-10.58791758748267,0.14079475184212434,16.844979483271235,-24.23911832330814,-5.033204059153438,462.0,110.0,-90.0
1,2021-07-02 11:02:26.502,8846502,0.23464565460985504,-10.626328271702844,0.17895098955360844,16.91447027887772,-24.262240660984155,-4.836330636709536,462.0,110.0,-90.0
1,2021-07-02 11:02:26.512,8846512,0.23464565460985504,-10.626328271702844,0.17895098955360844,16.91447027887772,-24.262240660984155,-4.836330636709536,462.0,110.0,-90.0
1,2021-07-02 11:02:26.523,8846523,0.26330699310126743,-10.6167256006478,0.10740804384457525,16.814094685223907,-24.28536299866017,-4.601596940718729,462.0,110.0,-90.0
1,2021-07-02 11:02:26.532,8846532,0.26330699310126743,-10.6167256006478,0.10740804384457525,16.814094685223907,-24.28536299866017,-4.601596940718729,462.0,110.0,-90.0
1,2021-07-02 11:02:26.540,8846540,0.26330699310126743,-10.6167256006478,0.10740804384457525,16.814094685223907,-24.28536299866017,-4.601596940718729,462.0,110.0,-90.0
1,2021-07-02 11:02:26.548,8846548,0.2919683315926802,-10.607122929592759,0.06925180613309116,16.775488687664748,-24.30077789044418,-4.366863244727923,458.0,110.0,-84.0
1,2021-07-02 11:02:26.557,8846557,0.2919683315926802,-10.607122929592759,0.06925180613309116,16.775488687664748,-24.30077789044418,-4.366863244727923,458.0,110.0,-84.0
1,2021-07-02 11:02:26.567,8846567,0.3062990008383862,-10.626328271702844,0.050173687277348895,16.814094685223907,-24.339315119904203,-4.154845712865258,458.0,110.0,-84.0
1,2021-07-02 11:02:26.577,8846577,0.3062990008383862,-10.626328271702844,0.050173687277348895,16.814094685223907,-24.339315119904203,-4.154845712865258,458.0,110.0,-84.0
1,2021-07-02 11:02:26.593,8846593,0.25853010335269877,-10.61192426512028,0.050173687277348895,16.953076276436878,-24.362437457580217,-3.7762429773962154,458.0,110.0,-84.0
1,2021-07-02 11:02:26.608,8846608,0.26330699310126743,-10.63593094275789,0.08356039527489798,17.176991062280003,-24.431804470608263,-3.435500515474077,458.0,110.0,-84.0
1,2021-07-02 11:02:26.617,8846617,0.26330699310126743,-10.63593094275789,0.08356039527489798,17.176991062280003,-24.431804470608263,-3.435500515474077,458.0,110.0,-84.0
1,2021-07-02 11:02:26.627,8846627,0.22509187511271772,-10.626328271702844,0.11217757355851116,17.24648185788649,-24.40868213293225,-3.170478600645747,458.0,110.0,-84.0
1,2021-07-02 11:02:26.643,8846643,0.24897632385556145,-10.626328271702844,0.10740804384457525,17.23876065837466,-24.41638957882425,-2.867596412270513,458.0,110.0,-84.0
1,2021-07-02 11:02:26.657,8846657,0.24897632385556145,-10.626328271702844,0.10740804384457525,17.23876065837466,-24.41638957882425,-2.867596412270513,458.0,110.0,-84.0
1,2021-07-02 11:02:26.666,8846666,0.2537532136041301,-10.621526936175323,0.18849004898147934,17.16926986276817,-24.47804914596029,-2.6101465521515634,468.0,112.0,-84.0
1,2021-07-02 11:02:26.678,8846678,0.2537532136041301,-10.621526936175323,0.18849004898147934,17.16926986276817,-24.47804914596029,-2.6101465521515634,468.0,112.0,-84.0
1,2021-07-02 11:02:26.692,8846692,0.2728607725984052,-10.59271892301019,0.15033381126999526,17.277366655933818,-24.532001267204326,-2.3678408014513765,468.0,112.0,-84.0
1,2021-07-02 11:02:26.705,8846705,0.32540655983266126,-10.61192426512028,0.050173687277348895,17.478117843241446,-24.524293821312323,-2.1633953242980932,468.0,112.0,-84.0
1,2021-07-02 11:02:26.714,8846714,0.32540655983266126,-10.61192426512028,0.050173687277348895,17.478117843241446,-24.524293821312323,-2.1633953242980932,468.0,112.0,-84.0
1,2021-07-02 11:02:26.727,8846727,0.29674522134124887,-10.655136284867979,0.04063462784947798,17.64798423250175,-24.539708713096335,-1.7847925888290506,468.0,112.0,-84.0
1,2021-07-02 11:02:26.740,8846740,0.29674522134124887,-10.655136284867979,0.04063462784947798,17.64798423250175,-24.539708713096335,-1.7847925888290506,468.0,112.0,-84.0
1,2021-07-02 11:02:26.748,8846748,0.28241455209554245,-10.631129607230369,0.04063462784947798,17.57849343689526,-24.57053849666435,-1.4440501269069117,468.0,112.0,-84.0
1,2021-07-02 11:02:26.755,8846755,0.28241455209554245,-10.631129607230369,0.04063462784947798,17.57849343689526,-24.57053849666435,-1.4440501269069117,468.0,112.0,-84.0
1,2021-07-02 11:02:26.764,8846764,0.26808388284983653,-10.602321594065236,0.050173687277348895,17.454954244705952,-24.593660834340366,-1.1033076649847733,468.0,112.0,-84.0
1,2021-07-02 11:02:26.772,8846772,0.26808388284983653,-10.602321594065236,0.050173687277348895,17.454954244705952,-24.593660834340366,-1.1033076649847733,468.0,112.0,-84.0
1,2021-07-02 11:02:26.782,8846782,0.26808388284983653,-10.602321594065236,0.050173687277348895,17.454954244705952,-24.593660834340366,-1.1033076649847733,468.0,112.0,-84.0
1,2021-07-02 11:02:26.794,8846794,0.2537532136041301,-10.597520258537713,-0.007060669289877471,17.33141505251664,-24.57053849666435,-0.89886218783149,463.0,109.0,-77.0
1,2021-07-02 11:02:26.809,8846809,0.2919683315926802,-10.61192426512028,-0.011830199003812927,17.38546344909946,-24.609075726124377,-0.5959799994562557,463.0,109.0,-77.0
1,2021-07-02 11:02:26.823,8846823,0.26330699310126743,-10.59271892301019,0.0024783901379938846,17.485839042753277,-24.62449061790839,-0.28552575637164046,463.0,109.0,-77.0
1,2021-07-02 11:02:26.832,8846832,0.26330699310126743,-10.59271892301019,0.0024783901379938846,17.485839042753277,-24.62449061790839,-0.28552575637164046,463.0,109.0,-77.0
1,2021-07-02 11:02:26.843,8846843,0.26330699310126743,-10.626328271702844,-0.007060669289877471,17.61709943445442,-24.61678317201638,0.040072596131736415,463.0,109.0,-77.0
1,2021-07-02 11:02:26.858,8846858,0.26330699310126743,-10.626328271702844,-0.007060669289877471,17.61709943445442,-24.61678317201638,0.040072596131736415,463.0,109.0,-77.0
1,2021-07-02 11:02:26.871,8846871,0.23942254435842414,-10.626328271702844,0.07402133584702662,17.78696582371472,-24.61678317201638,0.2596621827037813,463.0,109.0,-77.0
1,2021-07-02 11:02:26.881,8846881,0.23942254435842414,-10.626328271702844,0.07402133584702662,17.78696582371472,-24.61678317201638,0.2596621827037813,463.0,109.0,-77.0
1,2021-07-02 11:02:26.895,8846895,0.20598431611844267,-10.621526936175323,-0.13583797156613656,17.725196227620064,-24.639905509692397,0.4035312221820176,463.0,109.0,-77.0
1,2021-07-02 11:02:26.909,8846909,0.23464565460985504,-10.6167256006478,0.07402133584702662,17.70203262908457,-24.63219806380039,0.592832589916539,463.0,109.0,-77.0
1,2021-07-02 11:02:26.922,8846922,0.21076120586701175,-10.597520258537713,-0.026138788145619297,17.794687023226555,-24.601368280232375,0.6609810823009667,456.0,116.0,-68.0
1,2021-07-02 11:02:26.932,8846932,0.21076120586701175,-10.597520258537713,-0.026138788145619297,17.794687023226555,-24.601368280232375,0.6609810823009667,456.0,116.0,-68.0
1,2021-07-02 11:02:26.945,8846945,0.2728607725984052,-10.559109574317539,0.15510334098393072,17.964553412486854,-24.539708713096335,0.7821339576510605,456.0,116.0,-68.0
1,2021-07-02 11:02:26.957,8846957,0.2728607725984052,-10.559109574317539,0.15510334098393072,17.964553412486854,-24.539708713096335,0.7821339576510605,456.0,116.0,-68.0
1,2021-07-02 11:02:26.970,8846970,0.26330699310126743,-10.631129607230369,-0.15014656070794338,18.018601809069676,-24.609075726124377,0.9865794348043435,456.0,116.0,-68.0
1,2021-07-02 11:02:26.982,8846982,0.26330699310126743,-10.631129607230369,-0.15014656070794338,18.018601809069676,-24.609075726124377,0.9865794348043435,456.0,116.0,-68.0
1,2021-07-02 11:02:26.996,8846996,0.28241455209554245,-10.626328271702844,0.007247919851929341,18.111256203211656,-24.57053849666435,1.1607366931201033,456.0,116.0,-68.0
1,2021-07-02 11:02:27.008,8847008,0.28241455209554245,-10.626328271702844,0.007247919851929341,18.111256203211656,-24.57053849666435,1.1607366931201033,456.0,116.0,-68.0
1,2021-07-02 11:02:27.016,8847016,0.28241455209554245,-10.626328271702844,0.007247919851929341,18.111256203211656,-24.57053849666435,1.1607366931201033,456.0,116.0,-68.0
1,2021-07-02 11:02:27.028,8847028,0.28241455209554245,-10.56391090984506,0.08832992498883344,18.265680193448297,-24.485756591852297,1.5166232644610038,456.0,116.0,-68.0
1,2021-07-02 11:02:27.042,8847042,0.26330699310126743,-10.626328271702844,-0.0786036149989102,18.312007390519284,-24.578245942556357,1.554483538007908,456.0,110.0,-58.0
1,2021-07-02 11:02:27.051,8847051,0.26330699310126743,-10.626328271702844,-0.0786036149989102,18.312007390519284,-24.578245942556357,1.554483538007908,456.0,110.0,-58.0
1,2021-07-02 11:02:27.060,8847060,0.26330699310126743,-10.626328271702844,-0.0786036149989102,18.312007390519284,-24.578245942556357,1.554483538007908,456.0,110.0,-58.0
1,2021-07-02 11:02:27.069,8847069,0.25853010335269877,-10.61192426512028,0.05971274670522025,18.265680193448297,-24.47034170006829,1.721068741614287,456.0,110.0,-58.0
1,2021-07-02 11:02:27.077,8847077,0.25853010335269877,-10.61192426512028,0.05971274670522025,18.265680193448297,-24.47034170006829,1.721068741614287,456.0,110.0,-58.0
1,2021-07-02 11:02:27.085,8847085,0.2537532136041301,-10.621526936175323,-0.0833731447128461,18.173025799306313,-24.47804914596029,1.872509835801904,456.0,110.0,-58.0
1,2021-07-02 11:02:27.093,8847093,0.2537532136041301,-10.621526936175323,-0.0833731447128461,18.173025799306313,-24.47804914596029,1.872509835801904,456.0,110.0,-58.0
1,2021-07-02 11:02:27.101,8847101,0.2537532136041301,-10.621526936175323,-0.0833731447128461,18.173025799306313,-24.47804914596029,1.872509835801904,456.0,110.0,-58.0
1,2021-07-02 11:02:27.110,8847110,0.2871914418441111,-10.602321594065236,0.15510334098393072,18.072650205652497,-24.462634254176283,1.9558024376050938,456.0,110.0,-58.0
1,2021-07-02 11:02:27.118,8847118,0.2871914418441111,-10.602321594065236,0.15510334098393072,18.072650205652497,-24.462634254176283,1.9558024376050938,456.0,110.0,-58.0
1,2021-07-02 11:02:27.126,8847126,0.2776376623469738,-10.58791758748267,0.1455642815560598,18.088092604676163,-24.44721936239227,2.084527367664568,456.0,110.0,-58.0
1,2021-07-02 11:02:27.134,8847134,0.2776376623469738,-10.58791758748267,0.1455642815560598,18.088092604676163,-24.44721936239227,2.084527367664568,456.0,110.0,-58.0
1,2021-07-02 11:02:27.142,8847142,0.2871914418441111,-10.58791758748267,0.11694710327244662,18.064929006140666,-24.41638957882425,2.273828735399089,456.0,110.0,-58.0
1,2021-07-02 11:02:27.151,8847151,0.2871914418441111,-10.58791758748267,0.11694710327244662,18.064929006140666,-24.41638957882425,2.273828735399089,456.0,110.0,-58.0
1,2021-07-02 11:02:27.159,8847159,0.2871914418441111,-10.58791758748267,0.11694710327244662,18.064929006140666,-24.41638957882425,2.273828735399089,456.0,110.0,-58.0
1,2021-07-02 11:02:27.168,8847168,0.2919683315926802,-10.6167256006478,0.026326038707671168,18.111256203211656,-24.40868213293225,2.470702157842992,450.0,100.0,-56.0
1,2021-07-02 11:02:27.176,8847176,0.2919683315926802,-10.6167256006478,0.026326038707671168,18.111256203211656,-24.40868213293225,2.470702157842992,450.0,100.0,-56.0
1,2021-07-02 11:02:27.185,8847185,0.2871914418441111,-10.61192426512028,0.11694710327244662,18.041765407605173,-24.34702256579621,2.6069991426118473,450.0,100.0,-56.0
1,2021-07-02 11:02:27.193,8847193,0.2871914418441111,-10.61192426512028,0.11694710327244662,18.041765407605173,-24.34702256579621,2.6069991426118473,450.0,100.0,-56.0
1,2021-07-02 11:02:27.202,8847202,0.26808388284983653,-10.63593094275789,0.14079475184212434,17.949111013463188,-24.35473001168821,2.7508681820900835,450.0,100.0,-56.0
1,2021-07-02 11:02:27.211,8847211,0.26808388284983653,-10.63593094275789,0.14079475184212434,17.949111013463188,-24.35473001168821,2.7508681820900835,450.0,100.0,-56.0
1,2021-07-02 11:02:27.220,8847220,0.26808388284983653,-10.63593094275789,0.14079475184212434,17.949111013463188,-24.35473001168821,2.7508681820900835,450.0,100.0,-56.0
1,2021-07-02 11:02:27.229,8847229,0.25853010335269877,-10.602321594065236,0.07402133584702662,17.7329174271319,-24.277655552768163,2.864449002730797,450.0,100.0,-56.0
1,2021-07-02 11:02:27.238,8847238,0.25853010335269877,-10.602321594065236,0.07402133584702662,17.7329174271319,-24.277655552768163,2.864449002730797,450.0,100.0,-56.0
1,2021-07-02 11:02:27.247,8847247,0.2537532136041301,-10.63593094275789,-0.007060669289877471,17.609378234942586,-24.25453321509215,3.000745987499652,450.0,100.0,-56.0
1,2021-07-02 11:02:27.256,8847256,0.2537532136041301,-10.63593094275789,-0.007060669289877471,17.609378234942586,-24.25453321509215,3.000745987499652,450.0,100.0,-56.0
1,2021-07-02 11:02:27.266,8847266,0.3158527803355235,-10.58791758748267,0.050173687277348895,17.431790646170455,-24.25453321509215,3.1446150269778883,450.0,100.0,-56.0
1,2021-07-02 11:02:27.280,8847280,0.3158527803355235,-10.58791758748267,0.050173687277348895,17.431790646170455,-24.25453321509215,3.1446150269778883,450.0,100.0,-56.0
1,2021-07-02 11:02:27.294,8847294,0.29674522134124887,-10.602321594065236,0.15987287069786615,17.393184648611296,-24.192873647956105,3.379348722968695,449.0,97.0,-39.0
1,2021-07-02 11:02:27.307,8847307,0.31107589058695484,-10.61192426512028,0.22187675697902842,17.25420305739832,-24.13121408082007,3.508073653028169,449.0,97.0,-39.0
1,2021-07-02 11:02:27.318,8847318,0.31107589058695484,-10.61192426512028,0.22187675697902842,17.25420305739832,-24.13121408082007,3.508073653028169,449.0,97.0,-39.0
1,2021-07-02 11:02:27.331,8847331,0.3301834495812299,-10.61192426512028,0.16464240041180161,17.099779067161688,-24.023309838331997,3.6519426925064056,449.0,97.0,-39.0
1,2021-07-02 11:02:27.343,8847343,0.31107589058695484,-10.56871224537258,0.14079475184212434,16.97623987497238,-24.03872473011601,3.704947075472072,449.0,97.0,-39.0
1,2021-07-02 11:02:27.356,8847356,0.31107589058695484,-10.56871224537258,0.14079475184212434,16.97623987497238,-24.03872473011601,3.704947075472072,449.0,97.0,-39.0
1,2021-07-02 11:02:27.368,8847368,0.3301834495812299,-10.56391090984506,0.1837205192675439,16.85270068278307,-24.000187500655983,3.879104333787832,449.0,97.0,-39.0
1,2021-07-02 11:02:27.381,8847381,0.3301834495812299,-10.56391090984506,0.1837205192675439,16.85270068278307,-24.000187500655983,3.879104333787832,449.0,97.0,-39.0
1,2021-07-02 11:02:27.394,8847394,0.29674522134124887,-10.56391090984506,0.1455642815560598,16.82953708424757,-24.03872473011601,4.000257209137925,449.0,97.0,-39.0
1,2021-07-02 11:02:27.408,8847408,0.349291008575505,-10.56391090984506,0.16941193012573752,16.89902787985406,-23.96165027119596,4.106265975069257,449.0,97.0,-39.0
1,2021-07-02 11:02:27.418,8847418,0.349291008575505,-10.56391090984506,0.16941193012573752,16.89902787985406,-23.96165027119596,4.106265975069257,449.0,97.0,-39.0
1,2021-07-02 11:02:27.430,8847430,0.29674522134124887,-10.53990423220745,0.09309945470276888,16.89902787985406,-23.953942825303955,4.310711452222541,447.0,103.0,-41.0
1,2021-07-02 11:02:27.442,8847442,0.3062990008383862,-10.53990423220745,0.13602522212818843,16.97623987497238,-23.876868366383906,4.424292272863253,447.0,103.0,-41.0
1,2021-07-02 11:02:27.455,8847455,0.3062990008383862,-10.53990423220745,0.13602522212818843,16.97623987497238,-23.876868366383906,4.424292272863253,447.0,103.0,-41.0
1,2021-07-02 11:02:27.466,8847466,0.3015221110898175,-10.56391090984506,0.1026385141306398,17.07661546862619,-23.77667156978784,4.537873093503967,447.0,103.0,-41.0
1,2021-07-02 11:02:27.480,8847480,0.3015221110898175,-10.56391090984506,0.1026385141306398,17.07661546862619,-23.77667156978784,4.537873093503967,447.0,103.0,-41.0
1,2021-07-02 11:02:27.493,8847493,0.3301834495812299,-10.597520258537713,0.16464240041180161,17.014845872531534,-23.730426894435812,4.704458297110345,447.0,103.0,-41.0
1,2021-07-02 11:02:27.504,8847504,0.3301834495812299,-10.525500225624883,0.11694710327244662,16.922191478389554,-23.668767327299772,4.969480211938675,447.0,103.0,-41.0
1,2021-07-02 11:02:27.517,8847517,0.3301834495812299,-10.525500225624883,0.11694710327244662,16.922191478389554,-23.668767327299772,4.969480211938675,447.0,103.0,-41.0
1,2021-07-02 11:02:27.524,8847524,0.31107589058695484,-10.535102896679929,0.18849004898147934,16.98396107448421,-23.614815206055734,5.18906979851072,447.0,103.0,-41.0
1,2021-07-02 11:02:27.532,8847532,0.31107589058695484,-10.535102896679929,0.18849004898147934,16.98396107448421,-23.614815206055734,5.18906979851072,447.0,103.0,-41.0
1,2021-07-02 11:02:27.539,8847539,0.31107589058695484,-10.535102896679929,0.18849004898147934,16.98396107448421,-23.614815206055734,5.18906979851072,447.0,103.0,-41.0
1,2021-07-02 11:02:27.546,8847546,0.3301834495812299,-10.535102896679929,0.2695720541183834,17.10750026667352,-23.57627797659571,5.310222673860814,461.0,105.0,-35.0
1,2021-07-02 11:02:27.552,8847552,0.3301834495812299,-10.535102896679929,0.2695720541183834,17.10750026667352,-23.57627797659571,5.310222673860814,461.0,105.0,-35.0
1,2021-07-02 11:02:27.559,8847559,0.3301834495812299,-10.535102896679929,0.2695720541183834,17.10750026667352,-23.57627797659571,5.310222673860814,461.0,105.0,-35.0
1,2021-07-02 11:02:27.565,8847565,0.31107589058695484,-10.549506903262493,0.29818923240199663,17.10750026667352,-23.491496071783654,5.438947603920289,461.0,105.0,-35.0
1,2021-07-02 11:02:27.572,8847572,0.31107589058695484,-10.549506903262493,0.29818923240199663,17.10750026667352,-23.491496071783654,5.438947603920289,461.0,105.0,-35.0
1,2021-07-02 11:02:27.579,8847579,0.31107589058695484,-10.549506903262493,0.29818923240199663,17.10750026667352,-23.491496071783654,5.438947603920289,461.0,105.0,-35.0
1,2021-07-02 11:02:27.586,8847586,0.31107589058695484,-10.53990423220745,0.20756816783722162,16.953076276436878,-23.476081179999646,5.5676725339797635,461.0,105.0,-35.0
1,2021-07-02 11:02:27.593,8847593,0.31107589058695484,-10.53990423220745,0.20756816783722162,16.953076276436878,-23.476081179999646,5.5676725339797635,461.0,105.0,-35.0
1,2021-07-02 11:02:27.599,8847599,0.31107589058695484,-10.53990423220745,0.20756816783722162,16.953076276436878,-23.476081179999646,5.5676725339797635,461.0,105.0,-35.0
1,2021-07-02 11:02:27.605,8847605,0.3206296700840926,-10.559109574317539,0.18849004898147934,16.883585480830394,-23.445251396431626,5.779690065842427,461.0,105.0,-35.0
1,2021-07-02 11:02:27.610,8847610,0.3206296700840926,-10.559109574317539,0.18849004898147934,16.883585480830394,-23.445251396431626,5.779690065842427,461.0,105.0,-35.0
1,2021-07-02 11:02:27.616,8847616,0.3206296700840926,-10.559109574317539,0.18849004898147934,16.883585480830394,-23.445251396431626,5.779690065842427,461.0,105.0,-35.0
1,2021-07-02 11:02:27.623,8847623,0.33973722907836723,-10.53990423220745,0.23141581640689934,16.78320988717658,-23.352762045727566,5.855410612936235,461.0,105.0,-35.0
1,2021-07-02 11:02:27.629,8847629,0.33973722907836723,-10.53990423220745,0.23141581640689934,16.78320988717658,-23.352762045727566,5.855410612936235,461.0,105.0,-35.0
1,2021-07-02 11:02:27.634,8847634,0.33973722907836723,-10.53990423220745,0.23141581640689934,16.78320988717658,-23.352762045727566,5.855410612936235,461.0,105.0,-35.0
1,2021-07-02 11:02:27.642,8847642,0.33973722907836723,-10.53990423220745,0.23141581640689934,16.78320988717658,-23.352762045727566,5.855410612936235,461.0,105.0,-35.0
1,2021-07-02 11:02:27.649,8847649,0.3301834495812299,-10.549506903262493,0.31726735125773886,16.628785896939945,-23.275687586807514,6.150720746602089,461.0,105.0,-35.0
1,2021-07-02 11:02:27.657,8847657,0.3301834495812299,-10.549506903262493,0.31726735125773886,16.628785896939945,-23.275687586807514,6.150720746602089,461.0,105.0,-35.0
1,2021-07-02 11:02:27.664,8847664,0.28241455209554245,-10.496692212459754,0.28388064326019025,16.53613150279796,-23.244857803239498,6.324878004917848,444.0,104.0,-26.0
1,2021-07-02 11:02:27.670,8847670,0.28241455209554245,-10.496692212459754,0.28388064326019025,16.53613150279796,-23.244857803239498,6.324878004917848,444.0,104.0,-26.0
1,2021-07-02 11:02:27.676,8847676,0.28241455209554245,-10.496692212459754,0.28388064326019025,16.53613150279796,-23.244857803239498,6.324878004917848,444.0,104.0,-26.0
1,2021-07-02 11:02:27.683,8847683,0.2441994341069928,-10.525500225624883,0.23141581640689934,16.381707512561324,-23.121538668967418,6.438458825558562,444.0,104.0,-26.0
1,2021-07-02 11:02:27.691,8847691,0.2441994341069928,-10.525500225624883,0.23141581640689934,16.381707512561324,-23.121538668967418,6.438458825558562,444.0,104.0,-26.0
1,2021-07-02 11:02:27.698,8847698,0.2441994341069928,-10.525500225624883,0.23141581640689934,16.381707512561324,-23.121538668967418,6.438458825558562,444.0,104.0,-26.0
1,2021-07-02 11:02:27.707,8847707,0.3062990008383862,-10.535102896679929,0.3220368809716743,16.211841123301024,-23.08300143950739,6.6201881385837025,444.0,104.0,-26.0
1,2021-07-02 11:02:27.715,8847715,0.3062990008383862,-10.535102896679929,0.3220368809716743,16.211841123301024,-23.08300143950739,6.6201881385837025,444.0,104.0,-26.0
1,2021-07-02 11:02:27.721,8847721,0.3062990008383862,-10.535102896679929,0.3220368809716743,16.211841123301024,-23.08300143950739,6.6201881385837025,444.0,104.0,-26.0
1,2021-07-02 11:02:27.728,8847728,0.3062990008383862,-10.544705567734972,0.4603532426758048,15.91071434233958,-22.975097197019323,6.7716292327713195,444.0,104.0,-26.0
1,2021-07-02 11:02:27.736,8847736,0.3062990008383862,-10.544705567734972,0.4603532426758048,15.91071434233958,-22.975097197019323,6.7716292327713195,444.0,104.0,-26.0
1,2021-07-02 11:02:27.742,8847742,0.3206296700840926,-10.56871224537258,0.5223571289569668,15.493769568700662,-22.982804642911326,6.95335854579646,444.0,104.0,-26.0
1,2021-07-02 11:02:27.748,8847748,0.3206296700840926,-10.56871224537258,0.5223571289569668,15.493769568700662,-22.982804642911326,6.95335854579646,444.0,104.0,-26.0
1,2021-07-02 11:02:27.753,8847753,0.3206296700840926,-10.56871224537258,0.5223571289569668,15.493769568700662,-22.982804642911326,6.95335854579646,444.0,104.0,-26.0
1,2021-07-02 11:02:27.758,8847758,0.3206296700840926,-10.56871224537258,0.5223571289569668,15.493769568700662,-22.982804642911326,6.95335854579646,444.0,104.0,-26.0
1,2021-07-02 11:02:27.763,8847763,0.3206296700840926,-10.530301561152406,0.4937399506733534,15.015055198967085,-22.905730183991277,7.135087858821601,444.0,104.0,-26.0
1,2021-07-02 11:02:27.769,8847769,0.3206296700840926,-10.530301561152406,0.4937399506733534,15.015055198967085,-22.905730183991277,7.135087858821601,444.0,104.0,-26.0
1,2021-07-02 11:02:27.775,8847775,0.3206296700840926,-10.530301561152406,0.4937399506733534,15.015055198967085,-22.905730183991277,7.135087858821601,444.0,104.0,-26.0
1,2021-07-02 11:02:27.782,8847782,0.3062990008383862,-10.506294883514796,0.4460446535339984,14.659880021422822,-22.820948279179223,7.203236351206028,444.0,104.0,-26.0
1,2021-07-02 11:02:27.788,8847788,0.3062990008383862,-10.506294883514796,0.4460446535339984,14.659880021422822,-22.820948279179223,7.203236351206028,432.0,108.0,-22.0
1,2021-07-02 11:02:27.794,8847794,0.3062990008383862,-10.506294883514796,0.4460446535339984,14.659880021422822,-22.820948279179223,7.203236351206028,432.0,108.0,-22.0
1,2021-07-02 11:02:27.802,8847802,0.3062990008383862,-10.506294883514796,0.4460446535339984,14.659880021422822,-22.820948279179223,7.203236351206028,432.0,108.0,-22.0
1,2021-07-02 11:02:27.808,8847808,0.28241455209554245,-10.506294883514796,0.4794313615315471,14.374195639485043,-22.80553338739521,7.3243892265561215,432.0,108.0,-22.0
1,2021-07-02 11:02:27.815,8847815,0.28241455209554245,-10.506294883514796,0.4794313615315471,14.374195639485043,-22.80553338739521,7.3243892265561215,432.0,108.0,-22.0
1,2021-07-02 11:02:27.821,8847821,0.28241455209554245,-10.506294883514796,0.4794313615315471,14.374195639485043,-22.80553338739521,7.3243892265561215,432.0,108.0,-22.0
1,2021-07-02 11:02:27.828,8847828,0.3062990008383862,-10.496692212459754,0.38404076725283615,14.165723252665583,-22.751581266151177,7.468258266034358,432.0,108.0,-22.0
1,2021-07-02 11:02:27.836,8847836,0.3062990008383862,-10.496692212459754,0.38404076725283615,14.165723252665583,-22.751581266151177,7.468258266034358,432.0,108.0,-22.0
1,2021-07-02 11:02:27.844,8847844,0.33973722907836723,-10.49189087693223,0.3601931186831589,13.995856863405281,-22.705336590799146,7.604555250803214,432.0,108.0,-22.0
1,2021-07-02 11:02:27.851,8847851,0.33973722907836723,-10.49189087693223,0.3601931186831589,13.995856863405281,-22.705336590799146,7.604555250803214,432.0,108.0,-22.0
1,2021-07-02 11:02:27.858,8847858,0.33973722907836723,-10.49189087693223,0.3601931186831589,13.995856863405281,-22.705336590799146,7.604555250803214,432.0,108.0,-22.0
1,2021-07-02 11:02:27.865,8847865,0.2919683315926802,-10.487089541404709,0.3601931186831589,13.972693264869786,-22.60513979420308,7.763568399700212,432.0,108.0,-22.0
1,2021-07-02 11:02:27.873,8847873,0.2919683315926802,-10.487089541404709,0.3601931186831589,13.972693264869786,-22.60513979420308,7.763568399700212,432.0,108.0,-22.0
1,2021-07-02 11:02:27.880,8847880,0.2919683315926802,-10.487089541404709,0.3601931186831589,13.972693264869786,-22.60513979420308,7.763568399700212,432.0,108.0,-22.0
1,2021-07-02 11:02:27.886,8847886,0.2871914418441111,-10.501493547987273,0.31726735125773886,13.802826875609487,-22.543480227067043,7.8998653844690665,432.0,108.0,-22.0
1,2021-07-02 11:02:27.893,8847893,0.2871914418441111,-10.501493547987273,0.31726735125773886,13.802826875609487,-22.543480227067043,7.8998653844690665,432.0,108.0,-22.0
1,2021-07-02 11:02:27.900,8847900,0.2871914418441111,-10.501493547987273,0.31726735125773886,13.802826875609487,-22.543480227067043,7.8998653844690665,432.0,108.0,-22.0
1,2021-07-02 11:02:27.908,8847908,0.26808388284983653,-10.506294883514796,0.30295876211593253,13.571190890254531,-22.48952810582301,7.9983020956910185,432.0,108.0,-22.0
1,2021-07-02 11:02:27.916,8847916,0.26808388284983653,-10.506294883514796,0.30295876211593253,13.571190890254531,-22.48952810582301,7.9983020956910185,432.0,108.0,-22.0
1,2021-07-02 11:02:27.922,8847922,0.26808388284983653,-10.506294883514796,0.30295876211593253,13.571190890254531,-22.48952810582301,7.9983020956910185,432.0,108.0,-22.0
1,2021-07-02 11:02:27.930,8847930,0.2441994341069928,-10.51589755456984,0.2457244055487057,13.347276104411407,-22.39703875511895,8.111882916331732,428.0,100.0,-24.0
1,2021-07-02 11:02:27.937,8847937,0.2441994341069928,-10.51589755456984,0.2457244055487057,13.347276104411407,-22.39703875511895,8.111882916331732,428.0,100.0,-24.0
1,2021-07-02 11:02:27.944,8847944,0.28241455209554245,-10.458281528239576,0.2600329946905125,13.177409715151105,-22.30454940441489,8.26332401051935,428.0,100.0,-24.0
1,2021-07-02 11:02:27.949,8847949,0.28241455209554245,-10.458281528239576,0.2600329946905125,13.177409715151105,-22.30454940441489,8.26332401051935,428.0,100.0,-24.0
1,2021-07-02 11:02:27.956,8847956,0.28241455209554245,-10.458281528239576,0.2600329946905125,13.177409715151105,-22.30454940441489,8.26332401051935,428.0,100.0,-24.0
1,2021-07-02 11:02:27.963,8847963,0.22986876486128638,-10.439076186129489,0.3268064106856098,13.11564011905645,-22.22747494549484,8.3617607217413,428.0,100.0,-24.0
1,2021-07-02 11:02:27.969,8847969,0.22986876486128638,-10.439076186129489,0.3268064106856098,13.11564011905645,-22.22747494549484,8.3617607217413,428.0,100.0,-24.0
1,2021-07-02 11:02:27.976,8847976,0.22986876486128638,-10.439076186129489,0.3268064106856098,13.11564011905645,-22.22747494549484,8.3617607217413,428.0,100.0,-24.0
1,2021-07-02 11:02:27.984,8847984,0.29674522134124887,-10.439076186129489,0.28388064326019025,13.223736912222098,-22.15040048657479,8.45262537825387,428.0,100.0,-24.0
1,2021-07-02 11:02:27.992,8847992,0.29674522134124887,-10.439076186129489,0.28388064326019025,13.223736912222098,-22.15040048657479,8.45262537825387,428.0,100.0,-24.0
1,2021-07-02 11:02:28.000,8848000,0.29674522134124887,-10.439076186129489,0.28388064326019025,13.223736912222098,-22.15040048657479,8.45262537825387,428.0,100.0,-24.0
1,2021-07-02 11:02:28.007,8848007,0.26808388284983653,-10.458281528239576,0.2743415838323189,13.285506508316752,-22.057911135870732,8.505629761219536,428.0,100.0,-24.0
1,2021-07-02 11:02:28.013,8848013,0.26808388284983653,-10.458281528239576,0.2743415838323189,13.285506508316752,-22.057911135870732,8.505629761219536,428.0,100.0,-24.0
1,2021-07-02 11:02:28.021,8848021,0.26808388284983653,-10.458281528239576,0.2743415838323189,13.285506508316752,-22.057911135870732,8.505629761219536,428.0,100.0,-24.0
1,2021-07-02 11:02:28.027,8848027,0.31107589058695484,-10.453480192712053,0.3220368809716743,13.331833705387742,-22.019373906410706,8.581350308313345,428.0,100.0,-24.0
1,2021-07-02 11:02:28.033,8848033,0.31107589058695484,-10.453480192712053,0.3220368809716743,13.331833705387742,-22.019373906410706,8.581350308313345,428.0,100.0,-24.0
1,2021-07-02 11:02:28.041,8848041,0.31107589058695484,-10.453480192712053,0.3220368809716743,13.331833705387742,-22.019373906410706,8.581350308313345,428.0,100.0,-24.0
1,2021-07-02 11:02:28.049,8848049,0.3062990008383862,-10.410268172964356,0.2791111135462548,13.378160902458735,-21.95000689338266,8.687359074244677,421.0,101.0,-11.0
1,2021-07-02 11:02:28.056,8848056,0.3062990008383862,-10.410268172964356,0.2791111135462548,13.378160902458735,-21.95000689338266,8.687359074244677,421.0,101.0,-11.0
1,2021-07-02 11:02:28.062,8848062,0.3062990008383862,-10.410268172964356,0.2791111135462548,13.378160902458735,-21.95000689338266,8.687359074244677,421.0,101.0,-11.0
1,2021-07-02 11:02:28.069,8848069,0.24897632385556145,-10.405466837436833,0.25049393526264163,13.48625769562438,-21.84210265089459,8.702503183663438,421.0,101.0,-11.0
1,2021-07-02 11:02:28.076,8848076,0.24897632385556145,-10.405466837436833,0.25049393526264163,13.48625769562438,-21.84210265089459,8.702503183663438,421.0,101.0,-11.0
1,2021-07-02 11:02:28.083,8848083,0.24897632385556145,-10.4198708440194,0.23141581640689934,13.524863693183539,-21.74961330019053,8.80093989488539,421.0,101.0,-11.0
1,2021-07-02 11:02:28.089,8848089,0.24897632385556145,-10.4198708440194,0.23141581640689934,13.524863693183539,-21.74961330019053,8.80093989488539,421.0,101.0,-11.0
1,2021-07-02 11:02:28.094,8848094,0.24897632385556145,-10.4198708440194,0.23141581640689934,13.524863693183539,-21.74961330019053,8.80093989488539,421.0,101.0,-11.0
1,2021-07-02 11:02:28.099,8848099,0.24897632385556145,-10.4198708440194,0.23141581640689934,13.524863693183539,-21.74961330019053,8.80093989488539,421.0,101.0,-11.0
1,2021-07-02 11:02:28.104,8848104,0.23942254435842414,-10.44387752165701,0.1837205192675439,13.501700094648044,-21.695661178946494,8.876660441979197,421.0,101.0,-11.0
1,2021-07-02 11:02:28.109,8848109,0.23942254435842414,-10.44387752165701,0.1837205192675439,13.501700094648044,-21.695661178946494,8.876660441979197,421.0,101.0,-11.0
1,2021-07-02 11:02:28.114,8848114,0.23942254435842414,-10.44387752165701,0.1837205192675439,13.501700094648044,-21.695661178946494,8.876660441979197,421.0,101.0,-11.0
1,2021-07-02 11:02:28.119,8848119,0.23942254435842414,-10.44387752165701,0.1837205192675439,13.501700094648044,-21.695661178946494,8.876660441979197,421.0,101.0,-11.0
1,2021-07-02 11:02:28.125,8848125,0.25853010335269877,-10.429473515074443,0.2552634649765771,13.424488099529725,-21.634001611810458,8.952380989073006,421.0,101.0,-11.0
1,2021-07-02 11:02:28.131,8848131,0.25853010335269877,-10.429473515074443,0.2552634649765771,13.424488099529725,-21.634001611810458,8.952380989073006,421.0,101.0,-11.0
1,2021-07-02 11:02:28.136,8848136,0.25853010335269877,-10.429473515074443,0.2552634649765771,13.424488099529725,-21.634001611810458,8.952380989073006,421.0,101.0,-11.0
1,2021-07-02 11:02:28.142,8848142,0.25853010335269877,-10.429473515074443,0.2552634649765771,13.424488099529725,-21.634001611810458,8.952380989073006,421.0,101.0,-11.0
1,2021-07-02 11:02:28.149,8848149,0.26330699310126743,-10.405466837436833,0.20279863812328616,13.324112505875913,-21.50297503164637,9.012957426748054,421.0,101.0,-11.0
1,2021-07-02 11:02:28.156,8848156,0.26330699310126743,-10.405466837436833,0.20279863812328616,13.324112505875913,-21.50297503164637,9.012957426748054,421.0,101.0,-11.0
1,2021-07-02 11:02:28.162,8848162,0.26330699310126743,-10.405466837436833,0.20279863812328616,13.324112505875913,-21.50297503164637,9.012957426748054,429.0,103.0,-11.0
1,2021-07-02 11:02:28.168,8848168,0.26330699310126743,-10.405466837436833,0.20279863812328616,13.324112505875913,-21.50297503164637,9.012957426748054,429.0,103.0,-7.0
1,2021-07-02 11:02:28.176,8848176,0.26330699310126743,-10.405466837436833,0.20279863812328616,13.324112505875913,-21.50297503164637,9.012957426748054,429.0,103.0,-7.0
1,2021-07-02 11:02:28.183,8848183,0.23942254435842414,-10.400665501909314,0.30295876211593253,13.393603301482397,-21.356533559698274,8.952380989073006,429.0,103.0,-7.0
1,2021-07-02 11:02:28.189,8848189,0.23942254435842414,-10.400665501909314,0.30295876211593253,13.393603301482397,-21.356533559698274,8.952380989073006,429.0,103.0,-7.0
1,2021-07-02 11:02:28.197,8848197,0.23942254435842414,-10.400665501909314,0.30295876211593253,13.393603301482397,-21.356533559698274,8.952380989073006,429.0,103.0,-7.0
1,2021-07-02 11:02:28.203,8848203,0.2776376623469738,-10.410268172964356,0.3268064106856098,13.339554904899575,-21.33341122202226,8.982669207910531,429.0,103.0,-7.0
1,2021-07-02 11:02:28.210,8848210,0.2776376623469738,-10.410268172964356,0.3268064106856098,13.339554904899575,-21.33341122202226,8.982669207910531,429.0,103.0,-7.0
1,2021-07-02 11:02:28.218,8848218,0.2776376623469738,-10.410268172964356,0.3268064106856098,13.339554904899575,-21.33341122202226,8.982669207910531,429.0,103.0,-7.0
1,2021-07-02 11:02:28.223,8848223,0.2919683315926802,-10.400665501909314,0.3935798266807075,13.239179311245762,-21.248629317210206,8.959953043782386,429.0,103.0,-7.0
1,2021-07-02 11:02:28.229,8848229,0.2919683315926802,-10.400665501909314,0.3935798266807075,13.239179311245762,-21.248629317210206,8.959953043782386,429.0,103.0,-7.0
1,2021-07-02 11:02:28.235,8848235,0.2919683315926802,-10.400665501909314,0.3935798266807075,13.239179311245762,-21.248629317210206,8.959953043782386,429.0,103.0,-7.0
1,2021-07-02 11:02:28.242,8848242,0.2919683315926802,-10.400665501909314,0.3935798266807075,13.239179311245762,-21.248629317210206,8.959953043782386,429.0,103.0,-7.0
1,2021-07-02 11:02:28.248,8848248,0.22509187511271772,-10.424672179546924,0.2600329946905125,13.11564011905645,-21.186969750074166,9.088677973841861,429.0,103.0,-7.0
1,2021-07-02 11:02:28.253,8848253,0.22509187511271772,-10.424672179546924,0.2600329946905125,13.11564011905645,-21.186969750074166,9.088677973841861,429.0,103.0,-7.0
1,2021-07-02 11:02:28.261,8848261,0.22509187511271772,-10.424672179546924,0.2600329946905125,13.11564011905645,-21.186969750074166,9.088677973841861,429.0,103.0,-7.0
1,2021-07-02 11:02:28.269,8848269,0.26808388284983653,-10.386261495326746,0.307728291829868,12.968937328331647,-21.017405940450054,9.15682646622629,429.0,103.0,-7.0
1,2021-07-02 11:02:28.276,8848276,0.26808388284983653,-10.386261495326746,0.307728291829868,12.968937328331647,-21.017405940450054,9.15682646622629,429.0,103.0,-7.0
1,2021-07-02 11:02:28.283,8848283,0.2441994341069928,-10.381460159799223,0.4269665346782562,12.868561734677833,-20.894086806177977,9.247691122738859,427.0,103.0,-11.0
1,2021-07-02 11:02:28.291,8848291,0.2441994341069928,-10.381460159799223,0.4269665346782562,12.868561734677833,-20.894086806177977,9.247691122738859,427.0,103.0,-11.0
1,2021-07-02 11:02:28.297,8848297,0.2441994341069928,-10.381460159799223,0.4269665346782562,12.868561734677833,-20.894086806177977,9.247691122738859,427.0,103.0,-11.0
1,2021-07-02 11:02:28.304,8848304,0.3206296700840926,-10.458281528239576,0.4126579455364498,12.613762150787382,-20.847842130825946,9.34612783396081,427.0,103.0,-11.0
1,2021-07-02 11:02:28.312,8848312,0.3206296700840926,-10.458281528239576,0.4126579455364498,12.613762150787382,-20.847842130825946,9.34612783396081,427.0,103.0,-11.0
1,2021-07-02 11:02:28.320,8848320,0.3206296700840926,-10.458281528239576,0.4126579455364498,12.613762150787382,-20.847842130825946,9.34612783396081,427.0,103.0,-11.0
1,2021-07-02 11:02:28.327,8848327,0.3445141188269359,-10.482288205877186,0.43650559410612705,11.965181391793505,-20.770767671905897,9.383988107507715,427.0,103.0,-11.0
1,2021-07-02 11:02:28.333,8848333,0.3445141188269359,-10.482288205877186,0.43650559410612705,11.965181391793505,-20.770767671905897,9.383988107507715,427.0,103.0,-11.0
1,2021-07-02 11:02:28.340,8848340,0.3445141188269359,-10.482288205877186,0.43650559410612705,11.965181391793505,-20.770767671905897,9.383988107507715,427.0,103.0,-11.0
1,2021-07-02 11:02:28.349,8848349,0.29674522134124887,-10.453480192712053,0.34588452954135207,11.277994635240471,-20.639741091741815,9.34612783396081,427.0,103.0,-11.0
1,2021-07-02 11:02:28.354,8848354,0.29674522134124887,-10.453480192712053,0.34588452954135207,11.277994635240471,-20.639741091741815,9.34612783396081,427.0,103.0,-11.0
1,2021-07-02 11:02:28.362,8848362,0.29674522134124887,-10.453480192712053,0.34588452954135207,11.277994635240471,-20.639741091741815,9.34612783396081,427.0,103.0,-11.0
1,2021-07-02 11:02:28.370,8848370,0.29674522134124887,-10.405466837436833,0.31249782154380346,10.907377058672543,-20.54725174103775,9.444564545182763,427.0,103.0,-11.0
1,2021-07-02 11:02:28.376,8848376,0.29674522134124887,-10.405466837436833,0.31249782154380346,10.907377058672543,-20.54725174103775,9.444564545182763,427.0,103.0,-11.0
1,2021-07-02 11:02:28.384,8848384,0.2919683315926802,-10.376658824271704,0.3697321781110298,10.64485627527026,-20.44705494444169,9.482424818729667,427.0,103.0,-11.0
1,2021-07-02 11:02:28.390,8848390,0.2919683315926802,-10.376658824271704,0.3697321781110298,10.64485627527026,-20.44705494444169,9.482424818729667,427.0,103.0,-11.0
1,2021-07-02 11:02:28.397,8848397,0.2919683315926802,-10.376658824271704,0.3697321781110298,10.64485627527026,-20.44705494444169,9.482424818729667,427.0,103.0,-11.0
1,2021-07-02 11:02:28.404,8848404,0.26808388284983653,-10.34785081110657,0.3935798266807075,10.4363838884508,-20.408517714981663,9.573289475242238,430.0,108.0,-10.0
1,2021-07-02 11:02:28.412,8848412,0.26808388284983653,-10.34785081110657,0.3935798266807075,10.4363838884508,-20.408517714981663,9.573289475242238,430.0,108.0,-10.0
1,2021-07-02 11:02:28.419,8848419,0.26808388284983653,-10.34785081110657,0.3935798266807075,10.4363838884508,-20.408517714981663,9.573289475242238,430.0,108.0,-10.0
1,2021-07-02 11:02:28.428,8848428,0.2537532136041301,-10.338248140051526,0.36496264839709436,10.320565895773322,-20.29290602660159,9.649010022336045,430.0,108.0,-10.0
1,2021-07-02 11:02:28.435,8848435,0.2537532136041301,-10.338248140051526,0.36496264839709436,10.320565895773322,-20.29290602660159,9.649010022336045,430.0,108.0,-10.0
1,2021-07-02 11:02:28.442,8848442,0.2537532136041301,-10.338248140051526,0.36496264839709436,10.320565895773322,-20.29290602660159,9.649010022336045,430.0,108.0,-10.0
1,2021-07-02 11:02:28.448,8848448,0.24897632385556145,-10.309440126886395,0.4460446535339984,10.18158430456035,-20.223539013573543,9.580861529951619,430.0,108.0,-10.0
1,2021-07-02 11:02:28.456,8848456,0.24897632385556145,-10.309440126886395,0.4460446535339984,10.18158430456035,-20.223539013573543,9.580861529951619,430.0,108.0,-10.0
1,2021-07-02 11:02:28.462,8848462,0.3301834495812299,-10.343049475579049,0.40311888610857843,10.0966511099302,-20.069390095733446,9.641437967626665,430.0,108.0,-10.0
1,2021-07-02 11:02:28.470,8848470,0.3301834495812299,-10.343049475579049,0.40311888610857843,10.0966511099302,-20.069390095733446,9.641437967626665,430.0,108.0,-10.0
1,2021-07-02 11:02:28.476,8848476,0.3301834495812299,-10.343049475579049,0.40311888610857843,10.0966511099302,-20.069390095733446,9.641437967626665,430.0,108.0,-10.0
1,2021-07-02 11:02:28.484,8848484,0.26330699310126743,-10.367056153216659,0.4794313615315471,9.865015124575244,-20.007730528597406,9.60357769407976,430.0,108.0,-10.0
1,2021-07-02 11:02:28.490,8848490,0.26330699310126743,-10.367056153216659,0.4794313615315471,9.865015124575244,-20.007730528597406,9.60357769407976,430.0,108.0,-10.0
1,2021-07-02 11:02:28.498,8848498,0.26330699310126743,-10.367056153216659,0.4794313615315471,9.865015124575244,-20.007730528597406,9.60357769407976,430.0,108.0,-10.0
1,2021-07-02 11:02:28.506,8848506,0.2919683315926802,-10.376658824271704,0.48420089124548255,9.64110033873212,-19.95377840735337,9.543001256404713,430.0,108.0,-10.0
1,2021-07-02 11:02:28.513,8848513,0.2919683315926802,-10.376658824271704,0.48420089124548255,9.64110033873212,-19.95377840735337,9.543001256404713,430.0,108.0,-10.0
1,2021-07-02 11:02:28.520,8848520,0.2919683315926802,-10.376658824271704,0.48420089124548255,9.64110033873212,-19.95377840735337,9.543001256404713,430.0,108.0,-10.0
1,2021-07-02 11:02:28.533,8848533,0.23942254435842414,-10.381460159799223,0.4460446535339984,9.239597964116864,-19.89211884021733,9.520285092276572,430.0,108.0,-10.0
1,2021-07-02 11:02:28.547,8848547,0.28241455209554245,-10.343049475579049,0.46989230210367616,8.784047192918784,-19.81504438129728,9.51271303756719,412.0,110.0,-4.0
1,2021-07-02 11:02:28.558,8848558,0.28241455209554245,-10.343049475579049,0.46989230210367616,8.784047192918784,-19.81504438129728,9.51271303756719,412.0,110.0,-4.0
1,2021-07-02 11:02:28.570,8848570,0.2537532136041301,-10.309440126886395,0.35065405925528753,8.660508000729475,-19.72255503059322,9.550573311114094,412.0,110.0,-4.0
1,2021-07-02 11:02:28.582,8848582,0.26330699310126743,-10.333446804524005,0.35065405925528753,8.668229200241308,-19.67631035524119,9.656582077045426,412.0,110.0,-4.0
1,2021-07-02 11:02:28.596,8848596,0.26330699310126743,-10.333446804524005,0.35065405925528753,8.668229200241308,-19.67631035524119,9.656582077045426,412.0,110.0,-4.0
1,2021-07-02 11:02:28.609,8848609,0.3158527803355235,-10.333446804524005,0.3745017078249652,8.544690008051997,-19.49133165383307,9.649010022336045,412.0,110.0,-4.0
1,2021-07-02 11:02:28.622,8848622,0.2919683315926802,-10.343049475579049,0.3745017078249652,8.251284426602387,-19.452794424373046,9.732302624139235,412.0,110.0,-4.0
1,2021-07-02 11:02:28.636,8848636,0.2919683315926802,-10.343049475579049,0.3745017078249652,8.251284426602387,-19.452794424373046,9.732302624139235,412.0,110.0,-4.0
1,2021-07-02 11:02:28.648,8848648,0.3206296700840926,-10.338248140051526,0.3315759403995457,8.004206042223768,-19.360305073668986,9.86102755419871,412.0,110.0,-4.0
1,2021-07-02 11:02:28.662,8848662,0.3206296700840926,-10.338248140051526,0.3315759403995457,8.004206042223768,-19.360305073668986,9.86102755419871,412.0,110.0,-4.0
1,2021-07-02 11:02:28.674,8848674,0.2728607725984052,-10.357453482161615,0.36496264839709436,7.826618453451635,-19.198448709936883,9.989752484258183,419.0,107.0,5.0
1,2021-07-02 11:02:28.687,8848687,0.3158527803355235,-10.34785081110657,0.24095487583477027,7.625867266144009,-19.12137425101683,10.186625906702085,419.0,107.0,5.0
1,2021-07-02 11:02:28.701,8848701,0.3158527803355235,-10.34785081110657,0.24095487583477027,7.625867266144009,-19.12137425101683,10.186625906702085,419.0,107.0,5.0
1,2021-07-02 11:02:28.713,8848713,0.26808388284983653,-10.309440126886395,0.29341970268806117,7.556376470537519,-18.974932779068737,10.277490563214656,419.0,107.0,5.0
1,2021-07-02 11:02:28.724,8848724,0.3015221110898175,-10.251824100556131,0.36496264839709436,7.432837278348211,-18.828491307120643,10.40621549327413,419.0,107.0,5.0
1,2021-07-02 11:02:28.738,8848738,0.3015221110898175,-10.251824100556131,0.36496264839709436,7.432837278348211,-18.828491307120643,10.40621549327413,419.0,107.0,5.0
1,2021-07-02 11:02:28.746,8848746,0.2919683315926802,-10.266228107138696,0.3411149998274166,7.47144327590737,-18.75141684820059,10.360783165017846,419.0,107.0,5.0
1,2021-07-02 11:02:28.753,8848753,0.2919683315926802,-10.266228107138696,0.3411149998274166,7.47144327590737,-18.75141684820059,10.360783165017846,419.0,107.0,5.0
1,2021-07-02 11:02:28.761,8848761,0.2919683315926802,-10.266228107138696,0.3411149998274166,7.47144327590737,-18.75141684820059,10.360783165017846,419.0,107.0,5.0
1,2021-07-02 11:02:28.770,8848770,0.2919683315926802,-10.261426771611175,0.35065405925528753,7.401952480300884,-18.68204983517255,10.413787547983512,419.0,107.0,5.0
1,2021-07-02 11:02:28.782,8848782,0.2919683315926802,-10.261426771611175,0.35065405925528753,7.401952480300884,-18.68204983517255,10.413787547983512,419.0,107.0,5.0
1,2021-07-02 11:02:28.792,8848792,0.29674522134124887,-10.295036120303829,0.3792712375389007,7.239807290552415,-18.551023255008463,10.48950809507732,414.0,106.0,-4.0
1,2021-07-02 11:02:28.804,8848804,0.25853010335269877,-10.275830778193741,0.38404076725283615,7.123989297874937,-18.48165624198042,10.57280069688051,414.0,106.0,-4.0
1,2021-07-02 11:02:28.820,8848820,0.25853010335269877,-10.275830778193741,0.38404076725283615,7.123989297874937,-18.48165624198042,10.57280069688051,414.0,106.0,-4.0
1,2021-07-02 11:02:28.833,8848833,0.25853010335269877,-10.295036120303829,0.46989230210367616,6.884632113008149,-18.31209243235631,10.625805079846176,414.0,106.0,-4.0
1,2021-07-02 11:02:28.842,8848842,0.26808388284983653,-10.32384413346896,0.41742747525038526,6.514014536440221,-18.21960308165225,10.716669736358746,414.0,106.0,-4.0
1,2021-07-02 11:02:28.856,8848856,0.26808388284983653,-10.32384413346896,0.41742747525038526,6.514014536440221,-18.21960308165225,10.716669736358746,414.0,106.0,-4.0
1,2021-07-02 11:02:28.868,8848868,0.3015221110898175,-10.328645468996484,0.34588452954135207,6.019857767682982,-18.12711373094819,10.784818228743173,414.0,106.0,-4.0
1,2021-07-02 11:02:28.881,8848881,0.3015221110898175,-10.328645468996484,0.34588452954135207,6.019857767682982,-18.12711373094819,10.784818228743173,414.0,106.0,-4.0
1,2021-07-02 11:02:28.892,8848892,0.26808388284983653,-10.285433449248785,0.355423588969223,5.633797792091391,-18.00379459667611,10.913543158802648,414.0,106.0,-4.0
1,2021-07-02 11:02:28.906,8848906,0.28241455209554245,-10.266228107138696,0.34588452954135207,5.317228612106284,-17.972964813108092,10.943831377640173,419.0,95.0,9.0
1,2021-07-02 11:02:28.920,8848920,0.28241455209554245,-10.266228107138696,0.34588452954135207,5.317228612106284,-17.972964813108092,10.943831377640173,419.0,95.0,9.0
1,2021-07-02 11:02:28.935,8848935,0.2776376623469738,-10.266228107138696,0.35065405925528753,5.147362222845984,-17.834230787052,10.966547541768314,419.0,95.0,9.0
1,2021-07-02 11:02:28.944,8848944,0.23464565460985504,-10.247022765028609,0.3220368809716743,5.04698662919217,-17.734033990455934,10.958975487058932,419.0,95.0,9.0
1,2021-07-02 11:02:28.953,8848953,0.23464565460985504,-10.247022765028609,0.3220368809716743,5.04698662919217,-17.734033990455934,10.958975487058932,419.0,95.0,9.0
1,2021-07-02 11:02:28.962,8848962,0.23464565460985504,-10.247022765028609,0.3220368809716743,5.04698662919217,-17.734033990455934,10.958975487058932,419.0,95.0,9.0
1,2021-07-02 11:02:28.969,8848969,0.20598431611844267,-10.237420093973565,0.3411149998274166,4.877120239931869,-17.633837193859872,10.974119596477696,419.0,95.0,9.0
1,2021-07-02 11:02:28.977,8848977,0.20598431611844267,-10.237420093973565,0.3411149998274166,4.877120239931869,-17.633837193859872,10.974119596477696,419.0,95.0,9.0
1,2021-07-02 11:02:28.988,8848988,0.22509187511271772,-10.213413416335955,0.38404076725283615,4.769023446766224,-17.579885072615834,10.868110830546362,419.0,95.0,9.0
1,2021-07-02 11:02:28.997,8848997,0.22509187511271772,-10.213413416335955,0.38404076725283615,4.769023446766224,-17.579885072615834,10.868110830546362,419.0,95.0,9.0
1,2021-07-02 11:02:29.005,8849005,0.21076120586701175,-10.194208074225868,0.35065405925528753,4.707253850671568,-17.47968827601977,10.822678502290078,419.0,95.0,9.0
1,2021-07-02 11:02:29.016,8849016,0.21076120586701175,-10.194208074225868,0.35065405925528753,4.707253850671568,-17.47968827601977,10.822678502290078,419.0,95.0,9.0
1,2021-07-02 11:02:29.027,8849027,0.18687675712416804,-10.189406738698345,0.3268064106856098,4.5682722594585945,-17.3717840335317,10.640949189264939,419.0,95.0,9.0
1,2021-07-02 11:02:29.036,8849036,0.18687675712416804,-10.189406738698345,0.3268064106856098,4.5682722594585945,-17.3717840335317,10.640949189264939,419.0,95.0,9.0
1,2021-07-02 11:02:29.044,8849044,0.19643053662130536,-10.165400061060735,0.35065405925528753,4.560551059946763,-17.410321262991726,10.451647821530416,410.0,96.0,4.0
1,2021-07-02 11:02:29.055,8849055,0.19643053662130536,-10.165400061060735,0.35065405925528753,4.560551059946763,-17.410321262991726,10.451647821530416,410.0,96.0,4.0
1,2021-07-02 11:02:29.068,8849068,0.21076120586701175,-10.194208074225868,0.31726735125773886,4.50650266336394,-17.279294682827643,10.285062617924037,410.0,96.0,4.0
1,2021-07-02 11:02:29.080,8849080,0.21076120586701175,-10.194208074225868,0.31726735125773886,4.50650266336394,-17.279294682827643,10.285062617924037,410.0,96.0,4.0
1,2021-07-02 11:02:29.089,8849089,0.22031498536414906,-10.189406738698345,0.355423588969223,4.437011867757454,-17.24846489925962,10.179053851992705,410.0,96.0,4.0
1,2021-07-02 11:02:29.097,8849097,0.22031498536414906,-10.189406738698345,0.355423588969223,4.437011867757454,-17.24846489925962,10.179053851992705,410.0,96.0,4.0
1,2021-07-02 11:02:29.105,8849105,0.22031498536414906,-10.189406738698345,0.355423588969223,4.437011867757454,-17.24846489925962,10.179053851992705,410.0,96.0,4.0
1,2021-07-02 11:02:29.114,8849114,0.22031498536414906,-10.189406738698345,0.355423588969223,4.437011867757454,-17.24846489925962,10.179053851992705,410.0,96.0,4.0
1,2021-07-02 11:02:29.122,8849122,0.22031498536414906,-10.189406738698345,0.355423588969223,4.437011867757454,-17.24846489925962,10.179053851992705,410.0,96.0,4.0
1,2021-07-02 11:02:29.130,8849130,0.167769198129893,-10.242221429501088,0.3697321781110298,4.151327485819675,-17.04807130606749,9.982180429548803,410.0,96.0,4.0
1,2021-07-02 11:02:29.137,8849137,0.167769198129893,-10.242221429501088,0.3697321781110298,4.151327485819675,-17.04807130606749,9.982180429548803,410.0,96.0,4.0
1,2021-07-02 11:02:29.146,8849146,0.21076120586701175,-10.266228107138696,0.34588452954135207,3.549073923896791,-17.01724152249947,9.883743718326851,410.0,96.0,4.0
1,2021-07-02 11:02:29.154,8849154,0.21076120586701175,-10.266228107138696,0.34588452954135207,3.549073923896791,-17.01724152249947,9.883743718326851,410.0,96.0,4.0
1,2021-07-02 11:02:29.162,8849162,0.21076120586701175,-10.266228107138696,0.34588452954135207,3.549073923896791,-17.01724152249947,9.883743718326851,410.0,96.0,4.0
1,2021-07-02 11:02:29.170,8849170,0.18209986737559938,-10.17020139658826,0.3268064106856098,3.1244079507460403,-16.947874509471426,9.815595225942424,406.0,96.0,6.0
1,2021-07-02 11:02:29.178,8849178,0.18209986737559938,-10.17020139658826,0.3268064106856098,3.1244079507460403,-16.947874509471426,9.815595225942424,406.0,96.0,6.0
1,2021-07-02 11:02:29.186,8849186,0.20598431611844267,-10.189406738698345,0.26480252440444796,2.946820361973907,-16.87080005055138,9.679298241173568,406.0,96.0,6.0
1,2021-07-02 11:02:29.199,8849199,0.20598431611844267,-10.189406738698345,0.26480252440444796,2.946820361973907,-16.87080005055138,9.679298241173568,406.0,96.0,6.0
1,2021-07-02 11:02:29.211,8849211,0.1916536468727367,-10.199009409753389,0.355423588969223,2.885050765879252,-16.770603253955315,9.641437967626665,406.0,96.0,6.0
1,2021-07-02 11:02:29.223,8849223,0.21076120586701175,-10.199009409753389,0.307728291829868,2.5916451844296415,-16.708943686819275,9.611149748789142,406.0,96.0,6.0
1,2021-07-02 11:02:29.236,8849236,0.21076120586701175,-10.199009409753389,0.307728291829868,2.5916451844296415,-16.708943686819275,9.611149748789142,406.0,96.0,6.0
1,2021-07-02 11:02:29.250,8849250,0.20598431611844267,-10.165400061060735,0.3220368809716743,2.2673548049327037,-16.593331998439197,9.520285092276572,406.0,96.0,6.0
1,2021-07-02 11:02:29.260,8849260,0.20598431611844267,-10.165400061060735,0.3220368809716743,2.2673548049327037,-16.593331998439197,9.520285092276572,406.0,96.0,6.0
1,2021-07-02 11:02:29.271,8849271,0.18209986737559938,-10.136592047895604,0.36496264839709436,2.0666036176250766,-16.554794768979175,9.474852764020286,406.0,96.0,6.0
1,2021-07-02 11:02:29.283,8849283,0.18209986737559938,-10.136592047895604,0.36496264839709436,2.0666036176250766,-16.554794768979175,9.474852764020286,406.0,96.0,6.0
1,2021-07-02 11:02:29.293,8849293,0.18209986737559938,-10.12218804131304,0.40311888610857843,1.9816704229949254,-16.446890526491106,9.391560162217097,396.0,108.0,-4.0
1,2021-07-02 11:02:29.306,8849306,0.18687675712416804,-10.141393383423125,0.4603532426758048,1.8735736298292804,-16.377523513463057,9.32341166983267,396.0,108.0,-4.0
1,2021-07-02 11:02:29.316,8849316,0.18687675712416804,-10.141393383423125,0.4603532426758048,1.8735736298292804,-16.377523513463057,9.32341166983267,396.0,108.0,-4.0
1,2021-07-02 11:02:29.328,8849328,0.1916536468727367,-10.112585370257994,0.43650559410612705,1.7114284400808115,-16.292741608651003,9.25526317744824,396.0,108.0,-4.0
1,2021-07-02 11:02:29.341,8849341,0.1916536468727367,-10.112585370257994,0.43650559410612705,1.7114284400808115,-16.292741608651003,9.25526317744824,396.0,108.0,-4.0
1,2021-07-02 11:02:29.356,8849356,0.17254608787846162,-10.112585370257994,0.41742747525038526,1.402580459607538,-16.26961927097499,9.149254411516909,396.0,108.0,-4.0
1,2021-07-02 11:02:29.369,8849369,0.1916536468727367,-10.07417468603782,0.5032790101012248,1.240435269859069,-16.23878948740697,9.020529481457434,396.0,108.0,-4.0
1,2021-07-02 11:02:29.378,8849378,0.1916536468727367,-10.07417468603782,0.5032790101012248,1.240435269859069,-16.23878948740697,9.020529481457434,396.0,108.0,-4.0
1,2021-07-02 11:02:29.390,8849390,0.15343852888418658,-10.09818136367543,0.5128180695290957,1.1555020752289176,-16.154007582594915,8.89937660610734,396.0,108.0,-4.0
1,2021-07-02 11:02:29.404,8849404,0.15821541863275568,-10.102982699202949,0.5032790101012248,1.0474052820632729,-16.092348015458874,8.846372223141675,392.0,106.0,-8.0
1,2021-07-02 11:02:29.416,8849416,0.15821541863275568,-10.102982699202949,0.5032790101012248,1.0474052820632729,-16.092348015458874,8.846372223141675,392.0,106.0,-8.0
1,2021-07-02 11:02:29.428,8849428,0.14866163913561792,-10.102982699202949,0.55097430724058,0.9161448903621312,-16.030688448322834,8.687359074244677,392.0,106.0,-8.0
1,2021-07-02 11:02:29.441,8849441,0.14866163913561792,-10.102982699202949,0.55097430724058,0.9161448903621312,-16.030688448322834,8.687359074244677,392.0,106.0,-8.0
1,2021-07-02 11:02:29.455,8849455,0.17254608787846162,-10.078976021565339,0.46989230210367616,0.6767877054953431,-15.984443772970804,8.596494417732107,392.0,106.0,-8.0
1,2021-07-02 11:02:29.468,8849468,0.17254608787846162,-10.078976021565339,0.46989230210367616,0.6767877054953431,-15.984443772970804,8.596494417732107,392.0,106.0,-8.0
1,2021-07-02 11:02:29.478,8849478,0.17254608787846162,-10.078976021565339,0.46989230210367616,0.6767877054953431,-15.984443772970804,8.596494417732107,392.0,106.0,-8.0
1,2021-07-02 11:02:29.492,8849492,0.16299230838132434,-10.09818136367543,0.41742747525038526,0.36793972502206956,-15.907369314050754,8.407193049997584,392.0,106.0,-8.0
1,2021-07-02 11:02:29.506,8849506,0.167769198129893,-10.09818136367543,0.3935798266807075,0.1903521362499378,-15.791757625670678,8.308756338775632,392.0,106.0,-8.0
1,2021-07-02 11:02:29.519,8849519,0.167769198129893,-10.09818136367543,0.3935798266807075,0.1903521362499378,-15.791757625670678,8.308756338775632,392.0,106.0,-8.0
1,2021-07-02 11:02:29.528,8849528,0.11044652114706824,-10.112585370257994,0.3792712375389007,0.028206946501468825,-15.706975720858624,8.293612229356873,392.0,106.0,-8.0
1,2021-07-02 11:02:29.537,8849537,0.11044652114706824,-10.112585370257994,0.3792712375389007,0.028206946501468825,-15.706975720858624,8.293612229356873,392.0,106.0,-8.0
1,2021-07-02 11:02:29.544,8849544,0.1295540801413433,-10.102982699202949,0.3601931186831589,-0.14938064227066464,-15.637608707830582,8.164887299297398,401.0,95.0,3.0
1,2021-07-02 11:02:29.551,8849551,0.1295540801413433,-10.102982699202949,0.3601931186831589,-0.14938064227066464,-15.637608707830582,8.164887299297398,401.0,95.0,3.0
1,2021-07-02 11:02:29.559,8849559,0.1295540801413433,-10.102982699202949,0.3601931186831589,-0.14938064227066464,-15.637608707830582,8.164887299297398,401.0,95.0,3.0
1,2021-07-02 11:02:29.566,8849566,0.12000030064420554,-10.102982699202949,0.3220368809716743,-0.32696823104279643,-15.62219381604657,8.01344620510978,401.0,95.0,3.0
1,2021-07-02 11:02:29.571,8849571,0.12000030064420554,-10.102982699202949,0.3220368809716743,-0.32696823104279643,-15.62219381604657,8.01344620510978,401.0,95.0,3.0
1,2021-07-02 11:02:29.576,8849576,0.12000030064420554,-10.102982699202949,0.3220368809716743,-0.32696823104279643,-15.62219381604657,8.01344620510978,401.0,95.0,3.0
1,2021-07-02 11:02:29.582,8849582,0.12000030064420554,-10.102982699202949,0.3220368809716743,-0.32696823104279643,-15.62219381604657,8.01344620510978,401.0,95.0,3.0
1,2021-07-02 11:02:29.589,8849589,0.14388474938704926,-10.093380028147905,0.36496264839709436,-0.435065024208443,-15.60677892426256,7.937725658015971,401.0,95.0,3.0
1,2021-07-02 11:02:29.594,8849594,0.14388474938704926,-10.093380028147905,0.36496264839709436,-0.435065024208443,-15.60677892426256,7.937725658015971,401.0,95.0,3.0
1,2021-07-02 11:02:29.603,8849603,0.14866163913561792,-10.07417468603782,0.38404076725283615,-0.5354406178622573,-15.498874681774492,7.8468610015034015,401.0,95.0,3.0
1,2021-07-02 11:02:29.609,8849609,0.14866163913561792,-10.07417468603782,0.38404076725283615,-0.5354406178622573,-15.498874681774492,7.8468610015034015,401.0,95.0,3.0
1,2021-07-02 11:02:29.616,8849616,0.14866163913561792,-10.07417468603782,0.38404076725283615,-0.5354406178622573,-15.498874681774492,7.8468610015034015,401.0,95.0,3.0
1,2021-07-02 11:02:29.623,8849623,0.1247771903927742,-10.054969343927729,0.4126579455364498,-0.6280950120042393,-15.48345978999048,7.680275797897021,401.0,95.0,3.0
1,2021-07-02 11:02:29.630,8849630,0.1247771903927742,-10.054969343927729,0.4126579455364498,-0.6280950120042393,-15.48345978999048,7.680275797897021,401.0,95.0,3.0
1,2021-07-02 11:02:29.637,8849637,0.1247771903927742,-10.054969343927729,0.4126579455364498,-0.6280950120042393,-15.48345978999048,7.680275797897021,401.0,95.0,3.0
1,2021-07-02 11:02:29.643,8849643,0.17254608787846162,-10.05016800840021,0.4221970049643207,-0.7516342041935486,-15.444922560530456,7.528834703709405,401.0,95.0,3.0
1,2021-07-02 11:02:29.650,8849650,0.17254608787846162,-10.05016800840021,0.4221970049643207,-0.7516342041935486,-15.444922560530456,7.528834703709405,401.0,95.0,3.0
1,2021-07-02 11:02:29.656,8849656,0.17254608787846162,-10.05016800840021,0.4221970049643207,-0.7516342041935486,-15.444922560530456,7.528834703709405,401.0,95.0,3.0
1,2021-07-02 11:02:29.661,8849661,0.17254608787846162,-10.05016800840021,0.4221970049643207,-0.7516342041935486,-15.444922560530456,7.528834703709405,401.0,95.0,3.0
1,2021-07-02 11:02:29.670,8849670,0.12000030064420554,-10.083777357092861,0.4317360643921916,-0.8597309973591952,-15.34472576393439,7.407681828359311,393.0,99.0,3.0
1,2021-07-02 11:02:29.677,8849677,0.12000030064420554,-10.083777357092861,0.4317360643921916,-0.8597309973591952,-15.34472576393439,7.407681828359311,393.0,99.0,3.0
1,2021-07-02 11:02:29.684,8849684,0.1295540801413433,-10.069373350510295,0.4078884158225139,-1.0218761871076625,-15.259943859122336,7.339533335974883,393.0,99.0,3.0
1,2021-07-02 11:02:29.690,8849690,0.1295540801413433,-10.069373350510295,0.4078884158225139,-1.0218761871076625,-15.259943859122336,7.339533335974883,393.0,99.0,3.0
1,2021-07-02 11:02:29.697,8849697,0.1295540801413433,-10.069373350510295,0.4078884158225139,-1.0218761871076625,-15.259943859122336,7.339533335974883,393.0,99.0,3.0
1,2021-07-02 11:02:29.704,8849704,0.167769198129893,-10.05016800840021,0.35065405925528753,-1.2149061749034589,-15.236821521446322,7.2713848435904564,393.0,99.0,3.0
1,2021-07-02 11:02:29.711,8849711,0.167769198129893,-10.05016800840021,0.35065405925528753,-1.2149061749034589,-15.236821521446322,7.2713848435904564,393.0,99.0,3.0
1,2021-07-02 11:02:29.719,8849719,0.167769198129893,-10.05016800840021,0.35065405925528753,-1.2149061749034589,-15.236821521446322,7.2713848435904564,393.0,99.0,3.0
1,2021-07-02 11:02:29.726,8849726,0.11044652114706824,-10.054969343927729,0.34588452954135207,-1.3924937636755923,-15.198284291986296,7.180520187077886,393.0,99.0,3.0
1,2021-07-02 11:02:29.733,8849733,0.11044652114706824,-10.054969343927729,0.34588452954135207,-1.3924937636755923,-15.198284291986296,7.180520187077886,393.0,99.0,3.0
1,2021-07-02 11:02:29.740,8849740,0.11044652114706824,-10.054969343927729,0.34588452954135207,-1.3924937636755923,-15.198284291986296,7.180520187077886,393.0,99.0,3.0
1,2021-07-02 11:02:29.745,8849745,0.14388474938704926,-10.040565337345164,0.3268064106856098,-1.4697057587939097,-15.159747062526272,7.0215070381808875,393.0,99.0,3.0
1,2021-07-02 11:02:29.751,8849751,0.14388474938704926,-10.040565337345164,0.3268064106856098,-1.4697057587939097,-15.159747062526272,7.0215070381808875,393.0,99.0,3.0
1,2021-07-02 11:02:29.757,8849757,0.14388474938704926,-10.040565337345164,0.3268064106856098,-1.4697057587939097,-15.159747062526272,7.0215070381808875,393.0,99.0,3.0
1,2021-07-02 11:02:29.761,8849761,0.14388474938704926,-10.040565337345164,0.3268064106856098,-1.4697057587939097,-15.159747062526272,7.0215070381808875,393.0,99.0,3.0
1,2021-07-02 11:02:29.767,8849767,0.09133896215279318,-10.035764001817641,0.29818923240199663,-1.6781781456133706,-15.090380049498227,6.9457864910870795,393.0,99.0,3.0
1,2021-07-02 11:02:29.773,8849773,0.09133896215279318,-10.035764001817641,0.29818923240199663,-1.6781781456133706,-15.090380049498227,6.9457864910870795,393.0,99.0,3.0
1,2021-07-02 11:02:29.781,8849781,0.09133896215279318,-10.035764001817641,0.29818923240199663,-1.6781781456133706,-15.090380049498227,6.9457864910870795,393.0,99.0,3.0
1,2021-07-02 11:02:29.787,8849787,0.1295540801413433,-10.030962666290119,0.28388064326019025,-1.8403233353618396,-15.098087495390232,6.809489506318223,388.0,100.0,-4.0
1,2021-07-02 11:02:29.795,8849795,0.1295540801413433,-10.030962666290119,0.28388064326019025,-1.8403233353618396,-15.098087495390232,6.809489506318223,388.0,100.0,-4.0
1,2021-07-02 11:02:29.801,8849801,0.1295540801413433,-10.030962666290119,0.28388064326019025,-1.8403233353618396,-15.098087495390232,6.809489506318223,388.0,100.0,-4.0
1,2021-07-02 11:02:29.807,8849807,0.13433096988991194,-10.0261613307626,0.33634547011348115,-1.8557657343855023,-15.013305590578177,6.665620466839988,388.0,100.0,-4.0
1,2021-07-02 11:02:29.812,8849812,0.13433096988991194,-10.0261613307626,0.33634547011348115,-1.8557657343855023,-15.013305590578177,6.665620466839988,388.0,100.0,-4.0
1,2021-07-02 11:02:29.820,8849820,0.13433096988991194,-10.0261613307626,0.33634547011348115,-1.8557657343855023,-15.013305590578177,6.665620466839988,388.0,100.0,-4.0
1,2021-07-02 11:02:29.827,8849827,0.1247771903927742,-10.030962666290119,0.30295876211593253,-1.9947473255984762,-14.936231131658126,6.60504402916494,388.0,100.0,-4.0
1,2021-07-02 11:02:29.836,8849836,0.1247771903927742,-10.030962666290119,0.30295876211593253,-1.9947473255984762,-14.936231131658126,6.60504402916494,388.0,100.0,-4.0
1,2021-07-02 11:02:29.843,8849843,0.12000030064420554,-10.00215465312499,0.3411149998274166,-2.1414501163232806,-14.874571564522087,6.476319099105466,388.0,100.0,-4.0
1,2021-07-02 11:02:29.848,8849848,0.12000030064420554,-10.00215465312499,0.3411149998274166,-2.1414501163232806,-14.874571564522087,6.476319099105466,388.0,100.0,-4.0
1,2021-07-02 11:02:29.855,8849855,0.12000030064420554,-10.00215465312499,0.3411149998274166,-2.1414501163232806,-14.874571564522087,6.476319099105466,388.0,100.0,-4.0
1,2021-07-02 11:02:29.862,8849862,0.12000030064420554,-10.00215465312499,0.3411149998274166,-2.1414501163232806,-14.874571564522087,6.476319099105466,388.0,100.0,-4.0
1,2021-07-02 11:02:29.869,8849869,0.06745451340994946,-10.00215465312499,0.31726735125773886,-2.2109409119297676,-14.797497105602039,6.393026497302277,388.0,100.0,-4.0
1,2021-07-02 11:02:29.876,8849876,0.06745451340994946,-10.00215465312499,0.31726735125773886,-2.2109409119297676,-14.797497105602039,6.393026497302277,388.0,100.0,-4.0
1,2021-07-02 11:02:29.882,8849882,0.06745451340994946,-10.00215465312499,0.31726735125773886,-2.2109409119297676,-14.797497105602039,6.393026497302277,388.0,100.0,-4.0
1,2021-07-02 11:02:29.890,8849890,0.10566963139849958,-10.006955988652509,0.36496264839709436,-2.2572681090007594,-14.728130092573993,6.302161840789706,388.0,100.0,-4.0
1,2021-07-02 11:02:29.895,8849895,0.10566963139849958,-10.006955988652509,0.36496264839709436,-2.2572681090007594,-14.728130092573993,6.302161840789706,388.0,100.0,-4.0
1,2021-07-02 11:02:29.903,8849903,0.09133896215279318,-10.011757324180032,0.3220368809716743,-2.3422013036309095,-14.681885417221963,6.150720746602089,388.0,100.0,-4.0
1,2021-07-02 11:02:29.910,8849910,0.09133896215279318,-10.011757324180032,0.3220368809716743,-2.3422013036309095,-14.681885417221963,6.150720746602089,385.0,95.0,-9.0
1,2021-07-02 11:02:29.917,8849917,0.09133896215279318,-10.011757324180032,0.3220368809716743,-2.3422013036309095,-14.681885417221963,6.150720746602089,385.0,95.0,-9.0
1,2021-07-02 11:02:29.925,8849925,0.11522341089563688,-10.021359995235077,0.3268064106856098,-2.496625293867546,-14.67417797132996,6.006851707123853,385.0,95.0,-9.0
1,2021-07-02 11:02:29.931,8849931,0.11522341089563688,-10.021359995235077,0.3268064106856098,-2.496625293867546,-14.67417797132996,6.006851707123853,385.0,95.0,-9.0
1,2021-07-02 11:02:29.938,8849938,0.11522341089563688,-10.021359995235077,0.3268064106856098,-2.496625293867546,-14.67417797132996,6.006851707123853,385.0,95.0,-9.0
1,2021-07-02 11:02:29.946,8849946,0.13433096988991194,-10.011757324180032,0.2743415838323189,-2.612443286545025,-14.604810958301913,5.908414995901902,385.0,95.0,-9.0
1,2021-07-02 11:02:29.953,8849953,0.13433096988991194,-10.011757324180032,0.2743415838323189,-2.612443286545025,-14.604810958301913,5.908414995901902,385.0,95.0,-9.0
1,2021-07-02 11:02:29.960,8849960,0.13433096988991194,-10.011757324180032,0.2743415838323189,-2.612443286545025,-14.604810958301913,5.908414995901902,385.0,95.0,-9.0
1,2021-07-02 11:02:29.969,8849969,0.11522341089563688,-10.021359995235077,0.2552634649765771,-2.6973764811751746,-14.558566282949885,5.855410612936235,385.0,95.0,-9.0
1,2021-07-02 11:02:29.976,8849976,0.11522341089563688,-10.021359995235077,0.2552634649765771,-2.6973764811751746,-14.558566282949885,5.855410612936235,385.0,95.0,-9.0
1,2021-07-02 11:02:29.981,8849981,0.11522341089563688,-10.021359995235077,0.2552634649765771,-2.6973764811751746,-14.558566282949885,5.855410612936235,385.0,95.0,-9.0
1,2021-07-02 11:02:29.989,8849989,0.11044652114706824,-10.045366672872685,0.2457244055487057,-2.898127668482803,-14.527736499381863,5.749401847004903,385.0,95.0,-9.0
1,2021-07-02 11:02:29.997,8849997,0.11044652114706824,-10.045366672872685,0.2457244055487057,-2.898127668482803,-14.527736499381863,5.749401847004903,385.0,95.0,-9.0
1,2021-07-02 11:02:30.003,8850003,0.11522341089563688,-10.030962666290119,0.22187675697902842,-3.1220424543259266,-14.481491824029833,5.613104862236048,385.0,95.0,-9.0
1,2021-07-02 11:02:30.012,8850012,0.11522341089563688,-10.030962666290119,0.22187675697902842,-3.1220424543259266,-14.481491824029833,5.613104862236048,385.0,95.0,-9.0
1,2021-07-02 11:02:30.018,8850018,0.11522341089563688,-10.030962666290119,0.22187675697902842,-3.1220424543259266,-14.481491824029833,5.613104862236048,385.0,95.0,-9.0
1,2021-07-02 11:02:30.025,8850025,0.13433096988991194,-9.973346639959857,0.18849004898147934,-3.145206052861422,-14.41212481100179,5.484379932176573,396.0,90.0,-8.0
1,2021-07-02 11:02:30.032,8850032,0.13433096988991194,-9.973346639959857,0.18849004898147934,-3.145206052861422,-14.41212481100179,5.484379932176573,396.0,90.0,-8.0
1,2021-07-02 11:02:30.039,8850039,0.13433096988991194,-9.973346639959857,0.18849004898147934,-3.145206052861422,-14.41212481100179,5.484379932176573,396.0,90.0,-8.0
1,2021-07-02 11:02:30.046,8850046,0.10089274164993092,-9.97814797548738,0.2552634649765771,-3.1606484518850846,-14.342757797973743,5.325366783279575,396.0,90.0,-8.0
1,2021-07-02 11:02:30.055,8850055,0.10089274164993092,-9.97814797548738,0.2552634649765771,-3.1606484518850846,-14.342757797973743,5.325366783279575,396.0,90.0,-8.0
1,2021-07-02 11:02:30.062,8850062,0.10089274164993092,-9.97814797548738,0.2552634649765771,-3.1606484518850846,-14.342757797973743,5.325366783279575,396.0,90.0,-8.0
1,2021-07-02 11:02:30.069,8850069,0.08656207240422452,-10.011757324180032,0.31726735125773886,-3.191533249932412,-14.304220568513719,5.226930072057625,396.0,90.0,-8.0
1,2021-07-02 11:02:30.076,8850076,0.08656207240422452,-10.011757324180032,0.31726735125773886,-3.191533249932412,-14.304220568513719,5.226930072057625,396.0,90.0,-8.0
1,2021-07-02 11:02:30.083,8850083,0.1391078596384806,-10.006955988652509,0.2457244055487057,-3.376842038216378,-14.296513122621715,5.120921306126292,396.0,90.0,-8.0
1,2021-07-02 11:02:30.088,8850088,0.1391078596384806,-10.006955988652509,0.2457244055487057,-3.376842038216378,-14.296513122621715,5.120921306126292,396.0,90.0,-8.0
1,2021-07-02 11:02:30.094,8850094,0.1391078596384806,-10.006955988652509,0.2457244055487057,-3.376842038216378,-14.296513122621715,5.120921306126292,396.0,90.0,-8.0
1,2021-07-02 11:02:30.099,8850099,0.1391078596384806,-10.006955988652509,0.2457244055487057,-3.376842038216378,-14.296513122621715,5.120921306126292,396.0,90.0,-8.0
1,2021-07-02 11:02:30.104,8850104,0.13433096988991194,-9.9829493110149,0.22664628669296388,-3.5775932255240046,-14.281098230837705,5.022484594904341,396.0,90.0,-8.0
1,2021-07-02 11:02:30.109,8850109,0.13433096988991194,-9.9829493110149,0.22664628669296388,-3.5775932255240046,-14.281098230837705,5.022484594904341,396.0,90.0,-8.0
1,2021-07-02 11:02:30.115,8850115,0.13433096988991194,-9.9829493110149,0.22664628669296388,-3.5775932255240046,-14.281098230837705,5.022484594904341,396.0,90.0,-8.0
1,2021-07-02 11:02:30.119,8850119,0.13433096988991194,-9.9829493110149,0.22664628669296388,-3.5775932255240046,-14.281098230837705,5.022484594904341,396.0,90.0,-8.0
1,2021-07-02 11:02:30.126,8850126,0.10089274164993092,-10.016558659707554,0.24095487583477027,-3.6161992230831643,-14.13465675888961,4.9164758289730095,396.0,90.0,-8.0
1,2021-07-02 11:02:30.134,8850134,0.10089274164993092,-10.016558659707554,0.24095487583477027,-3.6161992230831643,-14.13465675888961,4.9164758289730095,396.0,90.0,-8.0
1,2021-07-02 11:02:30.140,8850140,0.10089274164993092,-10.016558659707554,0.24095487583477027,-3.6161992230831643,-14.13465675888961,4.9164758289730095,396.0,90.0,-8.0
1,2021-07-02 11:02:30.147,8850147,0.1247771903927742,-10.00215465312499,0.2457244055487057,-3.8246716099026234,-14.103826975321589,4.848327336588581,396.0,90.0,-8.0
1,2021-07-02 11:02:30.154,8850154,0.1247771903927742,-10.00215465312499,0.2457244055487057,-3.8246716099026234,-14.103826975321589,4.848327336588581,396.0,90.0,-8.0
1,2021-07-02 11:02:30.162,8850162,0.1247771903927742,-10.00215465312499,0.2457244055487057,-3.8246716099026234,-14.103826975321589,4.848327336588581,396.0,90.0,-8.0
1,2021-07-02 11:02:30.169,8850169,0.10566963139849958,-9.973346639959857,0.2743415838323189,-4.040865196233916,-14.049874854077556,4.727174461238488,387.0,87.0,-9.0
1,2021-07-02 11:02:30.177,8850177,0.10566963139849958,-9.973346639959857,0.2743415838323189,-4.040865196233916,-14.049874854077556,4.727174461238488,387.0,87.0,-9.0
1,2021-07-02 11:02:30.184,8850184,0.10566963139849958,-9.973346639959857,0.2743415838323189,-4.040865196233916,-14.049874854077556,4.727174461238488,387.0,87.0,-9.0
1,2021-07-02 11:02:30.191,8850191,0.10566963139849958,-9.973346639959857,0.2743415838323189,-4.040865196233916,-14.049874854077556,4.727174461238488,387.0,87.0,-9.0
1,2021-07-02 11:02:30.197,8850197,0.10566963139849958,-9.973346639959857,0.2743415838323189,-4.040865196233916,-14.049874854077556,4.727174461238488,387.0,87.0,-9.0
1,2021-07-02 11:02:30.205,8850205,0.12000030064420554,-9.992551982069944,0.1837205192675439,-4.226173984517881,-14.019045070509534,4.621165695307155,387.0,87.0,-9.0
1,2021-07-02 11:02:30.213,8850213,0.12000030064420554,-9.992551982069944,0.1837205192675439,-4.226173984517881,-14.019045070509534,4.621165695307155,387.0,87.0,-9.0
1,2021-07-02 11:02:30.220,8850220,0.12000030064420554,-9.992551982069944,0.1837205192675439,-4.226173984517881,-14.019045070509534,4.621165695307155,387.0,87.0,-9.0
1,2021-07-02 11:02:30.226,8850226,0.1247771903927742,-9.9829493110149,0.2743415838323189,-4.303385979636199,-13.972800395157504,4.447008436991396,387.0,87.0,-9.0
1,2021-07-02 11:02:30.232,8850232,0.1247771903927742,-9.9829493110149,0.2743415838323189,-4.303385979636199,-13.972800395157504,4.447008436991396,387.0,87.0,-9.0
1,2021-07-02 11:02:30.240,8850240,0.1247771903927742,-9.9829493110149,0.2743415838323189,-4.303385979636199,-13.972800395157504,4.447008436991396,387.0,87.0,-9.0
1,2021-07-02 11:02:30.247,8850247,0.14388474938704926,-9.987750646542422,0.2695720541183834,-4.519579565967489,-13.88801849034545,4.340999671060064,387.0,87.0,-9.0
1,2021-07-02 11:02:30.254,8850254,0.14388474938704926,-9.987750646542422,0.2695720541183834,-4.519579565967489,-13.88801849034545,4.340999671060064,387.0,87.0,-9.0
1,2021-07-02 11:02:30.262,8850262,0.14388474938704926,-9.987750646542422,0.2695720541183834,-4.519579565967489,-13.88801849034545,4.340999671060064,387.0,87.0,-9.0
1,2021-07-02 11:02:30.268,8850268,0.1247771903927742,-9.925333284684637,0.2791111135462548,-4.5813491620621445,-13.880311044453444,4.234990905128732,387.0,87.0,-9.0
1,2021-07-02 11:02:30.275,8850275,0.1247771903927742,-9.925333284684637,0.2791111135462548,-4.5813491620621445,-13.880311044453444,4.234990905128732,387.0,87.0,-9.0
1,2021-07-02 11:02:30.282,8850282,0.1247771903927742,-9.925333284684637,0.2791111135462548,-4.5813491620621445,-13.880311044453444,4.234990905128732,387.0,87.0,-9.0
1,2021-07-02 11:02:30.289,8850289,0.12000030064420554,-9.95894263337729,0.3411149998274166,-4.604512760597642,-13.803236585533396,4.151698303325542,397.0,91.0,-19.0
1,2021-07-02 11:02:30.295,8850295,0.12000030064420554,-9.95894263337729,0.3411149998274166,-4.604512760597642,-13.803236585533396,4.151698303325542,397.0,91.0,-19.0
1,2021-07-02 11:02:30.305,8850305,0.10566963139849958,-9.968545304432334,0.355423588969223,-4.565906763038483,-13.772406801965376,4.121410084488018,397.0,91.0,-19.0
1,2021-07-02 11:02:30.312,8850312,0.10566963139849958,-9.968545304432334,0.355423588969223,-4.565906763038483,-13.772406801965376,4.121410084488018,397.0,91.0,-19.0
1,2021-07-02 11:02:30.318,8850318,0.10566963139849958,-9.968545304432334,0.355423588969223,-4.565906763038483,-13.772406801965376,4.121410084488018,397.0,91.0,-19.0
1,2021-07-02 11:02:30.326,8850326,0.12000030064420554,-9.944538626794724,0.355423588969223,-4.674003556204128,-13.68762489715332,4.007829263847307,397.0,91.0,-19.0
1,2021-07-02 11:02:30.334,8850334,0.12000030064420554,-9.944538626794724,0.355423588969223,-4.674003556204128,-13.68762489715332,4.007829263847307,397.0,91.0,-19.0
1,2021-07-02 11:02:30.340,8850340,0.12000030064420554,-9.944538626794724,0.355423588969223,-4.674003556204128,-13.68762489715332,4.007829263847307,397.0,91.0,-19.0
1,2021-07-02 11:02:30.349,8850349,0.13433096988991194,-9.91092927810207,0.3220368809716743,-4.782100349369773,-13.710747234829336,3.848816114950308,397.0,91.0,-19.0
1,2021-07-02 11:02:30.356,8850356,0.13433096988991194,-9.91092927810207,0.3220368809716743,-4.782100349369773,-13.710747234829336,3.848816114950308,397.0,91.0,-19.0
1,2021-07-02 11:02:30.362,8850362,0.13433096988991194,-9.91092927810207,0.3220368809716743,-4.782100349369773,-13.710747234829336,3.848816114950308,397.0,91.0,-19.0
1,2021-07-02 11:02:30.369,8850369,0.1391078596384806,-9.920531949157114,0.2791111135462548,-4.789821548881607,-13.679917451261318,3.712519130181452,397.0,91.0,-19.0
1,2021-07-02 11:02:30.376,8850376,0.1391078596384806,-9.920531949157114,0.2791111135462548,-4.789821548881607,-13.679917451261318,3.712519130181452,397.0,91.0,-19.0
1,2021-07-02 11:02:30.382,8850382,0.1391078596384806,-9.920531949157114,0.2791111135462548,-4.789821548881607,-13.679917451261318,3.712519130181452,397.0,91.0,-19.0
1,2021-07-02 11:02:30.390,8850390,0.08656207240422452,-9.915730613629593,0.29818923240199663,-4.766657950346108,-13.67221000536931,3.6065103642501204,397.0,91.0,-19.0
1,2021-07-02 11:02:30.396,8850396,0.08656207240422452,-9.915730613629593,0.29818923240199663,-4.766657950346108,-13.67221000536931,3.6065103642501204,397.0,91.0,-19.0
1,2021-07-02 11:02:30.401,8850401,0.08656207240422452,-9.915730613629593,0.29818923240199663,-4.766657950346108,-13.67221000536931,3.6065103642501204,397.0,91.0,-19.0
1,2021-07-02 11:02:30.406,8850406,0.10566963139849958,-9.915730613629593,0.31726735125773886,-4.6122339601094735,-13.61055043823327,3.553505981284454,398.0,100.0,-14.0
1,2021-07-02 11:02:30.413,8850413,0.10566963139849958,-9.915730613629593,0.31726735125773886,-4.6122339601094735,-13.61055043823327,3.553505981284454,398.0,100.0,-14.0
1,2021-07-02 11:02:30.419,8850419,0.10566963139849958,-9.915730613629593,0.31726735125773886,-4.6122339601094735,-13.61055043823327,3.553505981284454,398.0,100.0,-14.0
1,2021-07-02 11:02:30.426,8850426,0.1391078596384806,-9.925333284684637,0.2886501729741257,-4.604512760597642,-13.579720654665252,3.3717766682593138,398.0,100.0,-14.0
1,2021-07-02 11:02:30.435,8850435,0.1391078596384806,-9.925333284684637,0.2886501729741257,-4.604512760597642,-13.579720654665252,3.3717766682593138,398.0,100.0,-14.0
1,2021-07-02 11:02:30.441,8850441,0.1391078596384806,-9.925333284684637,0.2886501729741257,-4.604512760597642,-13.579720654665252,3.3717766682593138,398.0,100.0,-14.0
1,2021-07-02 11:02:30.448,8850448,0.10089274164993092,-9.93493595573968,0.2695720541183834,-4.6122339601094735,-13.572013208773246,3.2354796834904587,398.0,100.0,-14.0
1,2021-07-02 11:02:30.455,8850455,0.10089274164993092,-9.93493595573968,0.2695720541183834,-4.6122339601094735,-13.572013208773246,3.2354796834904587,398.0,100.0,-14.0
1,2021-07-02 11:02:30.464,8850464,0.07223140315851855,-9.915730613629593,0.2743415838323189,-4.7048883542514535,-13.602842992341266,3.2051914646529354,398.0,100.0,-14.0
1,2021-07-02 11:02:30.472,8850472,0.07223140315851855,-9.915730613629593,0.2743415838323189,-4.7048883542514535,-13.602842992341266,3.2051914646529354,398.0,100.0,-14.0
1,2021-07-02 11:02:30.480,8850480,0.07223140315851855,-9.915730613629593,0.2743415838323189,-4.7048883542514535,-13.602842992341266,3.2051914646529354,398.0,100.0,-14.0
1,2021-07-02 11:02:30.485,8850485,0.12000030064420554,-9.88212126493694,0.2886501729741257,-4.751215551322447,-13.579720654665252,2.9098813309870817,398.0,100.0,-14.0
1,2021-07-02 11:02:30.492,8850492,0.12000030064420554,-9.88212126493694,0.2886501729741257,-4.751215551322447,-13.579720654665252,2.9098813309870817,398.0,100.0,-14.0
