imu,time,ax,ay,az,gx,gy,gz,mx,my,mz
1,2628359,2481,839,2400,5021,129,-53,228,232,-84
1,2628373,2473,856,2397,5016,124,-47,228,232,-84
1,2628388,2473,856,2397,5016,124,-47,228,232,-84
1,2628401,2475,857,2390,5024,128,-54,228,232,-84
1,2628417,2474,864,2395,5013,124,-52,228,232,-84
1,2628429,2474,864,2395,5013,124,-52,228,232,-84
1,2628444,2477,844,2394,5016,125,-48,228,232,-84
1,2628457,2471,862,2396,5021,120,-50,228,232,-84
1,2628471,2474,867,2400,5019,124,-50,214,228,-84
1,2628486,2474,867,2400,5019,124,-50,214,228,-86
1,2628496,2472,877,2397,5020,126,-54,214,228,-86
1,2628512,2474,852,2395,5015,121,-50,214,228,-86
1,2628527,2474,852,2395,5015,121,-50,214,228,-86
1,2628542,2471,863,2398,5027,128,-49,214,228,-86
1,2628555,2473,863,2398,5033,128,-48,214,228,-86
1,2628569,2473,863,2398,5033,128,-48,214,228,-86
1,2628577,2473,863,2398,5033,128,-48,214,228,-86
1,2628586,2473,863,2398,5033,128,-48,214,228,-86
1,2628599,2474,860,2399,5022,128,-56,230,232,-94
1,2628614,2474,877,2402,5023,124,-54,230,232,-94
1,2628629,2474,877,2402,5023,124,-54,230,232,-94
1,2628637,2472,853,2396,5028,123,-54,230,232,-94
1,2628651,2472,872,2398,5029,120,-60,230,232,-94
1,2628663,2472,872,2398,5029,120,-60,230,232,-94
1,2628671,2473,838,2393,5029,119,-57,230,232,-94
1,2628679,2473,838,2393,5029,119,-57,230,232,-94
1,2628687,2473,838,2393,5029,119,-57,230,232,-94
1,2628697,2473,859,2398,5027,119,-55,230,232,-94
1,2628702,2473,859,2398,5027,119,-55,230,232,-94
1,2628708,2473,859,2398,5027,119,-55,230,232,-94
1,2628714,2477,834,2400,5027,124,-50,226,228,-96
1,2628720,2477,834,2400,5027,124,-50,226,228,-96
1,2628727,2477,834,2400,5027,124,-50,226,228,-96
1,2628733,2470,819,2398,5022,121,-51,226,228,-96
1,2628740,2470,819,2398,5022,121,-51,226,228,-96
1,2628746,2470,819,2398,5022,121,-51,226,228,-96
1,2628751,2481,844,2391,5024,133,-52,226,228,-96
1,2628758,2481,844,2391,5024,133,-52,226,228,-96
1,2628764,2481,844,2391,5024,133,-52,226,228,-96
1,2628769,2481,844,2391,5024,133,-52,226,228,-96
1,2628775,2472,845,2403,5027,128,-55,226,228,-96
1,2628782,2472,845,2403,5027,128,-55,226,228,-96
1,2628789,2472,845,2403,5027,128,-55,226,228,-96
1,2628794,2474,819,2392,5013,131,-51,226,228,-96
1,2628800,2474,819,2392,5013,131,-51,226,228,-96
1,2628806,2474,819,2392,5013,131,-51,226,228,-96
1,2628812,2475,839,2394,5021,118,-55,226,228,-96
1,2628818,2475,839,2394,5021,118,-55,226,228,-96
1,2628825,2475,839,2394,5021,118,-55,226,228,-96
1,2628834,2477,836,2394,5021,128,-58,227,221,-103
1,2628842,2477,836,2394,5021,128,-58,227,221,-103
1,2628852,2478,848,2396,5021,121,-53,227,221,-103
1,2628860,2478,848,2396,5021,121,-53,227,221,-103
1,2628869,2478,848,2396,5021,121,-53,227,221,-103
1,2628877,2475,828,2382,5018,127,-54,227,221,-103
1,2628891,2475,828,2382,5018,127,-54,227,221,-103
1,2628904,2470,852,2387,5011,129,-59,227,221,-103
1,2628917,2475,833,2392,5014,122,-50,227,221,-103
1,2628931,2474,845,2383,5012,119,-47,227,221,-103
1,2628946,2474,845,2383,5012,119,-47,227,221,-103
1,2628960,2475,830,2389,5013,121,-60,227,221,-103
1,2628974,2476,845,2393,5012,123,-54,220,222,-112
1,2628985,2476,845,2393,5012,123,-54,220,222,-112
1,2628999,2476,843,2389,5011,121,-51,220,222,-112
1,2629014,2469,844,2384,5015,121,-59,220,222,-112
1,2629029,2469,844,2384,5015,121,-59,220,222,-112
1,2629045,2477,843,2388,5009,129,-56,220,222,-112
1,2629059,2478,849,2388,5013,128,-55,220,222,-112
1,2629071,2476,839,2391,5010,121,-54,220,222,-112
1,2629086,2476,839,2391,5010,121,-54,220,222,-112
1,2629100,2475,844,2385,5002,123,-52,220,224,-124
1,2629113,2473,842,2387,5001,123,-55,220,224,-124
1,2629127,2473,842,2387,5001,123,-55,220,224,-124
1,2629141,2474,847,2385,5015,126,-55,220,224,-124
1,2629155,2474,847,2385,5015,126,-55,220,224,-124
1,2629169,2474,847,2385,5015,126,-55,220,224,-124
1,2629182,2471,856,2382,5016,123,-59,220,224,-124
1,2629195,2476,863,2384,5011,124,-55,220,224,-124
1,2629210,2476,863,2384,5011,124,-55,220,224,-124
1,2629224,2470,904,2390,5007,128,-57,243,227,-131
1,2629238,2468,895,2389,5007,124,-49,243,227,-131
1,2629248,2468,895,2389,5007,124,-49,243,227,-131
1,2629260,2475,903,2387,5011,125,-55,243,227,-131
1,2629274,2471,883,2385,5013,127,-57,243,227,-131
1,2629289,2471,883,2385,5013,127,-57,243,227,-131
1,2629297,2469,919,2390,5016,130,-53,243,227,-131
1,2629307,2469,919,2390,5016,130,-53,243,227,-131
1,2629315,2469,875,2386,5018,129,-56,243,227,-131
1,2629324,2469,875,2386,5018,129,-56,243,227,-131
1,2629334,2468,894,2393,5019,122,-57,244,228,-140
1,2629343,2468,894,2393,5019,122,-57,244,228,-140
1,2629351,2481,859,2395,5016,122,-49,244,228,-140
1,2629360,2481,859,2395,5016,122,-49,244,228,-140
1,2629369,2481,859,2395,5016,122,-49,244,228,-140
1,2629379,2471,896,2401,5022,125,-54,244,228,-140
1,2629390,2471,896,2401,5022,125,-54,244,228,-140
1,2629403,2472,845,2397,5017,123,-51,244,228,-140
1,2629416,2469,882,2399,5018,129,-61,244,228,-140
1,2629430,2469,882,2399,5018,129,-61,244,228,-140
1,2629444,2480,836,2397,5024,129,-54,244,228,-140
1,2629456,2468,869,2397,5023,123,-45,244,228,-140
1,2629469,2468,869,2397,5023,123,-45,244,228,-140
1,2629482,2475,840,2400,5017,119,-55,266,224,-140
1,2629495,2468,874,2398,5016,126,-65,266,224,-140
1,2629510,2468,874,2398,5016,126,-65,266,224,-140
1,2629525,2486,835,2395,5019,123,-60,266,224,-140
1,2629541,2470,860,2397,5023,126,-57,266,224,-140
1,2629555,2477,845,2397,5026,119,-58,266,224,-140
1,2629568,2477,845,2397,5026,119,-58,266,224,-140
1,2629583,2469,871,2396,5028,128,-59,266,224,-140
1,2629595,2476,847,2397,5028,127,-57,271,229,-149
1,2629602,2476,847,2397,5028,127,-57,271,229,-149
1,2629616,2475,863,2395,5018,117,-56,271,229,-149
1,2629630,2475,863,2395,5018,117,-56,271,229,-149
1,2629642,2474,850,2402,5022,122,-54,271,229,-149
1,2629653,2473,862,2400,5022,129,-53,271,229,-149
1,2629667,2473,862,2400,5022,129,-53,271,229,-149
1,2629681,2475,847,2397,5020,116,-60,271,229,-149
1,2629695,2475,849,2394,5021,120,-59,271,229,-149
1,2629707,2475,849,2394,5021,120,-59,271,229,-149
1,2629720,2474,846,2403,5022,126,-57,280,228,-150
1,2629734,2469,851,2398,5021,120,-57,280,228,-150
1,2629748,2469,851,2398,5021,120,-57,280,228,-150
1,2629762,2470,848,2396,5018,123,-64,280,228,-150
1,2629777,2472,844,2391,5016,123,-70,280,228,-150
1,2629792,2477,820,2399,5023,123,-56,280,228,-150
1,2629808,2477,820,2399,5023,123,-56,280,228,-150
1,2629823,2477,845,2390,5022,120,-48,280,228,-150
1,2629836,2473,838,2400,5021,121,-50,280,222,-152
1,2629850,2473,838,2400,5021,121,-50,280,222,-152
1,2629865,2475,835,2387,5018,126,-52,280,222,-152
1,2629875,2477,831,2390,5019,127,-51,280,222,-152
1,2629889,2477,831,2390,5019,127,-51,280,222,-152
1,2629902,2472,837,2384,5017,133,-52,280,222,-152
1,2629915,2476,843,2393,5013,126,-52,280,222,-152
1,2629929,2476,843,2393,5013,126,-52,280,222,-152
1,2629944,2474,833,2388,5012,131,-51,280,222,-152
1,2629956,2475,841,2390,5014,123,-56,288,216,-152
1,2629969,2475,841,2390,5014,123,-56,288,216,-152
1,2629983,2475,842,2394,5010,125,-51,288,216,-152
1,2629996,2472,847,2391,5007,123,-49,288,216,-152
1,2630011,2472,847,2391,5007,123,-49,288,216,-152
1,2630026,2470,840,2386,5011,125,-45,288,216,-152
1,2630039,2476,851,2385,5016,124,-50,288,216,-152
1,2630053,2474,841,2383,5021,123,-43,288,216,-152
1,2630069,2474,841,2383,5021,123,-43,288,216,-152
1,2630081,2474,849,2385,5014,119,-49,288,216,-152
1,2630092,2472,850,2389,5012,134,-54,295,213,-159
1,2630107,2472,850,2389,5012,134,-54,295,213,-159
1,2630120,2476,861,2386,5010,119,-53,295,213,-159
1,2630133,2475,854,2390,5006,119,-55,295,213,-159
1,2630148,2475,854,2390,5006,119,-55,295,213,-159
1,2630162,2471,863,2386,5018,117,-55,295,213,-159
1,2630173,2470,873,2386,5016,123,-58,295,213,-159
1,2630188,2470,873,2386,5016,123,-58,295,213,-159
1,2630202,2471,867,2387,5011,125,-54,295,213,-159
1,2630215,2471,877,2396,5016,121,-52,304,208,-142
1,2630231,2471,877,2396,5016,121,-52,304,208,-142
1,2630245,2472,875,2393,5016,123,-57,304,208,-142
1,2630258,2468,892,2391,5010,127,-50,304,208,-142
1,2630269,2468,892,2391,5010,127,-50,304,208,-142
1,2630285,2473,875,2392,5009,120,-54,304,208,-142
1,2630296,2469,898,2388,5019,121,-55,304,208,-142
1,2630310,2469,898,2388,5019,121,-55,304,208,-142
1,2630326,2469,866,2394,5022,128,-52,304,208,-142
1,2630339,2469,866,2394,5022,128,-52,301,213,-153
1,2630353,2473,865,2402,5016,126,-58,301,213,-153
1,2630367,2473,865,2402,5016,126,-58,301,213,-153
1,2630382,2467,883,2396,5019,125,-52,301,213,-153
1,2630394,2475,858,2403,5019,124,-50,301,213,-153
1,2630407,2475,858,2403,5019,124,-50,301,213,-153
1,2630420,2467,883,2396,5023,124,-47,301,213,-153
1,2630432,2475,854,2398,5017,120,-51,301,213,-153
1,2630448,2475,854,2398,5017,120,-51,301,213,-153
1,2630464,2470,874,2396,5021,126,-56,304,220,-158
1,2630479,2474,841,2400,5026,121,-56,304,220,-158
1,2630495,2468,857,2395,5023,123,-60,304,220,-158
1,2630510,2468,857,2395,5023,123,-60,304,220,-158
1,2630523,2475,843,2405,5019,127,-50,304,220,-158
1,2630538,2470,859,2400,5022,117,-57,304,220,-158
1,2630552,2476,797,2402,5018,120,-53,304,220,-158
1,2630563,2476,797,2402,5018,120,-53,304,220,-158
1,2630576,2478,857,2391,5013,122,-59,304,220,-158
1,2630589,2478,857,2391,5013,122,-59,304,220,-158
1,2630602,2473,836,2408,5016,125,-57,308,226,-156
1,2630617,2470,854,2393,5026,126,-54,308,226,-156
1,2630629,2470,854,2393,5026,126,-54,308,226,-156
1,2630642,2477,824,2391,5024,129,-62,308,226,-156
1,2630657,2473,845,2386,5016,123,-62,308,226,-156
1,2630671,2473,845,2386,5016,123,-62,308,226,-156
1,2630683,2480,835,2396,5012,122,-53,308,226,-156
1,2630700,2471,840,2392,5010,118,-48,308,226,-156
1,2630716,2478,841,2398,5013,119,-54,319,229,-147
1,2630731,2478,841,2398,5013,119,-54,319,229,-147
1,2630746,2475,845,2394,5017,126,-55,319,229,-147
1,2630760,2475,843,2393,5021,123,-52,319,229,-147
1,2630773,2470,842,2393,5019,116,-58,319,229,-147
1,2630788,2470,842,2393,5019,116,-58,319,229,-147
1,2630800,2471,852,2386,5011,121,-63,319,229,-147
1,2630812,2478,833,2390,5014,122,-56,319,229,-147
1,2630825,2478,833,2390,5014,122,-56,319,229,-147
1,2630840,2474,839,2390,5015,116,-56,326,226,-142
1,2630853,2470,833,2393,5014,115,-51,326,226,-142
1,2630866,2470,833,2393,5014,115,-51,326,226,-142
1,2630878,2478,854,2389,5015,124,-56,326,226,-142
1,2630892,2477,832,2388,5013,120,-54,326,226,-142
1,2630905,2477,832,2388,5013,120,-54,326,226,-142
1,2630919,2471,846,2387,5015,123,-57,326,226,-142
1,2630934,2478,842,2392,5007,129,-58,326,226,-142
1,2630946,2478,842,2392,5007,129,-58,326,226,-142
1,2630961,2471,857,2390,5008,125,-50,322,240,-136
1,2630975,2475,845,2388,5011,123,-55,322,240,-136
1,2630989,2475,845,2388,5011,123,-55,322,240,-136
1,2631006,2471,871,2387,5003,128,-53,322,240,-136
1,2631019,2474,895,2393,5007,124,-53,322,240,-136
1,2631031,2474,895,2393,5007,124,-53,322,240,-136
1,2631046,2465,895,2387,5013,115,-52,322,240,-136
1,2631059,2472,876,2394,5012,120,-60,322,240,-136
1,2631072,2473,871,2384,5016,122,-57,322,240,-136
1,2631087,2473,871,2384,5016,122,-57,322,240,-136
1,2631101,2474,885,2399,5016,120,-51,327,239,-141
1,2631112,2469,878,2395,5020,115,-54,327,239,-141
1,2631126,2469,878,2395,5020,115,-54,327,239,-141
1,2631139,2468,874,2402,5018,120,-56,327,239,-141
1,2631153,2478,861,2395,5018,119,-62,327,239,-141
1,2631168,2478,861,2395,5018,119,-62,327,239,-141
1,2631182,2471,875,2400,5016,124,-53,327,239,-141
1,2631195,2473,858,2398,5027,123,-41,327,239,-141
1,2631209,2473,858,2398,5027,123,-41,327,239,-141
1,2631225,2469,867,2398,5024,123,-57,322,248,-130
1,2631240,2476,845,2406,5020,125,-62,322,248,-130
1,2631255,2476,855,2394,5031,124,-62,322,248,-130
1,2631267,2476,855,2394,5031,124,-62,322,248,-130
1,2631281,2471,846,2390,5026,126,-54,322,248,-130
1,2631294,2471,863,2394,5015,131,-60,322,248,-130
1,2631308,2471,863,2394,5015,131,-60,322,248,-130
1,2631322,2475,847,2403,5021,125,-54,322,248,-130
1,2631336,2475,855,2397,5026,123,-56,330,242,-132
1,2631350,2475,855,2397,5026,123,-56,330,242,-132
1,2631362,2475,856,2396,5021,122,-56,330,242,-132
1,2631377,2473,873,2392,5018,124,-61,330,242,-132
1,2631392,2470,861,2400,5021,118,-56,330,242,-132
1,2631404,2470,861,2400,5021,118,-56,330,242,-132
1,2631419,2475,865,2393,5015,121,-62,330,242,-132
1,2631435,2472,853,2394,5021,125,-53,330,242,-132
1,2631447,2472,853,2394,5021,125,-53,330,242,-132
1,2631460,2474,877,2393,5023,129,-62,336,236,-124
1,2631475,2469,855,2399,5026,130,-48,336,236,-124
1,2631490,2469,855,2399,5026,130,-48,336,236,-124
1,2631502,2474,867,2397,5025,118,-47,336,236,-124
1,2631515,2478,849,2405,5020,120,-54,336,236,-124
1,2631528,2478,849,2405,5020,120,-54,336,236,-124
1,2631542,2474,863,2398,5028,131,-58,336,236,-124
1,2631556,2477,844,2399,5025,127,-59,336,236,-124
1,2631570,2477,844,2399,5025,127,-59,336,236,-124
1,2631580,2470,857,2399,5027,124,-60,336,236,-124
1,2631595,2479,807,2399,5019,123,-57,336,236,-124
1,2631607,2479,807,2399,5019,123,-57,336,236,-124
1,2631619,2473,847,2397,5030,124,-60,336,236,-124
1,2631631,2473,847,2397,5030,124,-60,336,236,-124
1,2631646,2470,831,2395,5023,126,-62,336,236,-124
1,2631661,2467,844,2402,5016,131,-58,336,236,-124
1,2631676,2479,815,2397,5025,124,-60,336,236,-124
1,2631692,2479,815,2397,5025,124,-60,336,236,-124
1,2631703,2477,836,2402,5020,124,-55,336,236,-124
1,2631716,2482,843,2398,5015,117,-58,336,238,-110
1,2631731,2482,843,2398,5015,117,-58,336,238,-110
1,2631744,2467,843,2400,5014,121,-47,336,238,-110
1,2631758,2477,837,2384,5018,128,-59,336,238,-110
1,2631770,2477,837,2384,5018,128,-59,336,238,-110
1,2631784,2475,837,2397,5013,125,-59,336,238,-110
1,2631797,2473,837,2385,5011,124,-50,336,238,-110
1,2631812,2473,837,2385,5011,124,-50,336,238,-110
1,2631825,2468,841,2392,5022,122,-55,336,238,-110
1,2631839,2475,849,2391,5015,132,-59,327,241,-105
1,2631852,2475,849,2391,5015,132,-59,327,241,-105
1,2631864,2478,825,2395,5015,127,-62,327,241,-105
1,2631872,2478,825,2395,5015,127,-62,327,241,-105
1,2631885,2474,839,2388,5018,121,-53,327,241,-105
1,2631898,2474,840,2384,5013,121,-60,327,241,-105
1,2631912,2471,853,2389,5011,124,-59,327,241,-105
1,2631927,2471,853,2389,5011,124,-59,327,241,-105
1,2631944,2477,834,2391,5006,126,-56,327,241,-105
1,2631956,2473,838,2385,5014,125,-58,337,251,-99
1,2631968,2473,838,2385,5014,125,-58,337,251,-99
1,2631983,2476,839,2385,5009,122,-58,337,251,-99
1,2631996,2472,850,2385,5013,128,-59,337,251,-99
1,2632009,2472,850,2385,5013,128,-59,337,251,-99
1,2632024,2475,840,2384,5014,125,-63,337,251,-99
1,2632038,2476,850,2386,5005,122,-59,337,251,-99
1,2632050,2476,850,2386,5005,122,-59,337,251,-99
1,2632065,2477,864,2387,5001,119,-58,337,251,-99
1,2632078,2471,917,2392,5007,119,-58,326,242,-102
1,2632092,2471,917,2392,5007,119,-58,326,242,-102
1,2632107,2470,893,2392,5003,120,-56,326,242,-102
1,2632122,2473,896,2392,5012,122,-60,326,242,-102
1,2632136,2474,881,2388,5009,121,-66,326,242,-102
1,2632151,2474,881,2388,5009,121,-66,326,242,-102
1,2632165,2469,908,2393,5018,124,-53,326,242,-102
1,2632179,2468,893,2391,5030,122,-55,326,242,-102
1,2632193,2467,883,2392,5024,124,-61,326,242,-102
1,2632204,2467,883,2392,5024,124,-61,326,242,-102
1,2632216,2477,874,2395,5026,124,-63,324,240,-84
1,2632229,2477,874,2395,5026,124,-63,324,240,-84
1,2632244,2472,880,2398,5021,123,-55,324,240,-84
1,2632258,2468,870,2398,5025,122,-62,324,240,-84
1,2632270,2468,870,2398,5025,122,-62,324,240,-84
1,2632283,2474,864,2398,5026,123,-62,324,240,-84
1,2632297,2476,848,2396,5023,125,-60,324,240,-84
1,2632311,2476,848,2396,5023,125,-60,324,240,-84
1,2632323,2475,854,2400,5028,127,-50,324,240,-84
1,2632336,2470,849,2399,5026,121,-49,306,238,-76
1,2632349,2470,849,2399,5026,121,-49,306,238,-76
1,2632365,2473,864,2407,5019,126,-58,306,238,-76
1,2632379,2471,836,2399,5018,124,-60,306,238,-76
1,2632392,2471,836,2399,5018,124,-60,306,238,-76
1,2632404,2476,848,2394,5021,127,-49,306,238,-76
1,2632418,2470,843,2398,5021,129,-46,306,238,-76
1,2632431,2470,843,2398,5021,129,-46,306,238,-76
1,2632445,2472,865,2399,5019,128,-53,306,238,-76
1,2632459,2478,842,2400,5022,123,-53,307,243,-79
1,2632470,2478,842,2400,5022,123,-53,307,243,-79
1,2632483,2478,842,2400,5022,123,-53,307,243,-79
1,2632497,2474,847,2400,5027,119,-55,307,243,-79
1,2632508,2474,847,2400,5027,119,-55,307,243,-79
1,2632522,2470,867,2396,5022,114,-59,307,243,-79
1,2632536,2469,844,2402,5021,118,-59,307,243,-79
1,2632550,2469,844,2402,5021,118,-59,307,243,-79
1,2632566,2473,847,2397,5024,128,-63,307,243,-79
1,2632581,2475,842,2398,5016,132,-56,306,240,-56
1,2632594,2469,853,2398,5020,127,-56,306,240,-56
1,2632605,2469,853,2398,5020,127,-56,306,240,-56
1,2632620,2472,844,2405,5020,127,-57,306,240,-56
1,2632633,2474,845,2395,5017,122,-59,306,240,-56
1,2632646,2474,845,2395,5017,122,-59,306,240,-56
1,2632659,2476,841,2396,5016,127,-63,306,240,-56
1,2632672,2476,841,2396,5016,127,-63,306,240,-56
1,2632685,2476,826,2398,5021,120,-58,306,240,-56
1,2632698,2479,843,2396,5017,127,-57,306,240,-56
1,2632713,2477,840,2397,5019,126,-57,306,240,-56
1,2632727,2477,840,2397,5019,126,-57,291,239,-49
1,2632737,2472,828,2392,5022,119,-61,291,239,-49
1,2632751,2472,828,2392,5022,119,-61,291,239,-49
1,2632766,2478,839,2387,5012,129,-60,291,239,-49
1,2632781,2472,838,2392,5006,127,-54,291,239,-49
1,2632794,2476,840,2392,5007,123,-55,291,239,-49
1,2632808,2476,840,2392,5007,123,-55,291,239,-49
1,2632823,2472,834,2389,5014,121,-52,291,239,-49
1,2632839,2475,844,2396,5016,124,-52,302,236,-46
1,2632852,2475,844,2396,5016,124,-52,302,236,-46
1,2632865,2479,837,2398,5013,121,-52,302,236,-46
1,2632879,2474,844,2385,5011,119,-59,302,236,-46
1,2632893,2473,845,2389,5014,116,-56,302,236,-46
1,2632905,2473,845,2389,5014,116,-56,302,236,-46
1,2632919,2476,851,2389,5014,118,-54,302,236,-46
1,2632932,2476,851,2389,5014,118,-54,302,236,-46
1,2632946,2470,846,2388,5010,117,-50,302,236,-46
1,2632962,2471,859,2387,5010,116,-47,288,242,-42
1,2632975,2471,855,2387,5007,116,-59,288,242,-42
1,2632987,2471,855,2387,5007,116,-59,288,242,-42
1,2633001,2473,862,2395,5012,125,-53,288,242,-42
1,2633017,2475,869,2387,5015,121,-59,288,242,-42
1,2633031,2475,869,2387,5015,121,-59,288,242,-42
1,2633043,2472,858,2394,5006,122,-50,288,242,-42
1,2633058,2474,864,2390,5004,119,-53,288,242,-42
1,2633071,2474,864,2390,5004,119,-53,288,242,-42
1,2633084,2473,870,2395,5013,120,-56,287,235,-37
1,2633099,2470,875,2393,5011,124,-55,287,235,-37
1,2633112,2470,875,2393,5011,124,-55,287,235,-37
1,2633122,2470,877,2392,5010,122,-55,287,235,-37
1,2633136,2469,874,2395,5020,119,-56,287,235,-37
1,2633146,2469,874,2395,5020,119,-56,287,235,-37
1,2633161,2472,889,2393,5019,121,-52,287,235,-37
1,2633172,2471,871,2393,5018,119,-56,287,235,-37
1,2633187,2471,871,2393,5018,119,-56,287,235,-37
1,2633200,2470,875,2389,5013,116,-57,287,235,-37
1,2633213,2468,872,2403,5018,126,-55,280,232,-40
1,2633229,2468,872,2403,5018,126,-55,280,232,-40
1,2633244,2471,879,2398,5020,130,-49,280,232,-40
1,2633260,2472,866,2397,5024,126,-49,280,232,-40
1,2633275,2473,874,2393,5014,125,-62,280,232,-40
1,2633289,2473,874,2393,5014,125,-62,280,232,-40
1,2633303,2474,860,2401,5022,127,-58,280,232,-40
1,2633316,2475,861,2405,5023,127,-57,280,232,-40
1,2633327,2475,861,2405,5023,127,-57,280,232,-40
1,2633341,2469,851,2404,5022,124,-48,272,236,-38
1,2633355,2475,852,2402,5025,123,-53,272,236,-38
1,2633369,2475,852,2402,5025,123,-53,272,236,-38
1,2633382,2474,846,2395,5017,121,-61,272,236,-38
1,2633396,2473,858,2394,5028,122,-56,272,236,-38
1,2633407,2473,858,2394,5028,122,-56,272,236,-38
1,2633421,2473,805,2399,5028,123,-60,272,236,-38
1,2633436,2479,854,2395,5021,119,-55,272,236,-38
1,2633449,2479,854,2395,5021,119,-55,272,236,-38
1,2633464,2475,826,2400,5022,126,-52,263,229,-29
1,2633480,2476,857,2402,5020,124,-45,263,229,-29
1,2633495,2477,814,2396,5017,124,-57,263,229,-29
1,2633509,2477,814,2396,5017,124,-57,263,229,-29
1,2633524,2476,854,2399,5018,125,-57,263,229,-29
1,2633537,2479,828,2392,5023,124,-47,263,229,-29
1,2633550,2479,828,2392,5023,124,-47,263,229,-29
1,2633562,2463,855,2392,5019,114,-50,263,229,-29
1,2633575,2482,828,2391,5017,120,-57,254,232,-32
1,2633588,2482,828,2391,5017,120,-57,254,232,-32
1,2633603,2472,851,2397,5006,118,-56,254,232,-32
1,2633616,2477,834,2389,5015,120,-50,254,232,-32
1,2633631,2477,834,2389,5015,120,-50,254,232,-32
1,2633645,2474,848,2392,5016,123,-49,254,232,-32
1,2633657,2475,839,2394,5010,120,-61,254,232,-32
1,2633670,2475,839,2394,5010,120,-61,254,232,-32
1,2633684,2477,843,2394,5005,116,-51,254,232,-32
1,2633699,2474,834,2386,5006,116,-59,253,227,-25
1,2633714,2476,849,2394,5013,124,-56,253,227,-25
1,2633730,2476,849,2394,5013,124,-56,253,227,-25
1,2633745,2474,849,2386,5020,124,-63,253,227,-25
1,2633758,2473,843,2386,5014,119,-66,253,227,-25
1,2633773,2473,843,2386,5014,119,-66,253,227,-25
1,2633787,2470,837,2387,5015,119,-61,253,227,-25
1,2633799,2473,849,2385,5013,131,-65,253,227,-25
1,2633811,2473,849,2385,5013,131,-65,253,227,-25
1,2633825,2473,855,2393,5011,121,-56,253,227,-25
1,2633838,2473,857,2388,5006,122,-59,253,235,-25
1,2633852,2473,857,2388,5006,122,-59,253,235,-25
1,2633867,2471,868,2392,5009,121,-56,253,235,-25
1,2633878,2472,906,2392,5005,120,-54,253,235,-25
1,2633891,2472,906,2392,5005,120,-54,253,235,-25
1,2633905,2469,886,2385,5012,128,-58,253,235,-25
1,2633918,2469,879,2389,5014,125,-58,253,235,-25
1,2633933,2477,880,2387,5017,125,-54,253,235,-25
1,2633947,2477,880,2387,5017,125,-54,253,235,-25
1,2633959,2471,885,2399,5019,126,-52,255,237,-27
1,2633972,2472,880,2391,5028,117,-53,255,237,-27
1,2633988,2472,880,2391,5028,117,-53,255,237,-27
1,2634000,2470,865,2402,5014,121,-58,255,237,-27
1,2634014,2474,869,2398,5016,113,-57,255,237,-27
1,2634029,2474,869,2398,5016,113,-57,255,237,-27
1,2634043,2474,866,2401,5018,120,-50,255,237,-27
1,2634056,2469,874,2393,5019,119,-59,255,237,-27
1,2634070,2469,874,2393,5019,119,-59,255,237,-27
1,2634084,2476,859,2399,5022,123,-59,245,233,-25
1,2634095,2474,853,2404,5022,125,-61,245,233,-25
1,2634108,2474,853,2404,5022,125,-61,245,233,-25
1,2634124,2476,847,2398,5029,122,-55,245,233,-25
1,2634135,2471,859,2391,5026,125,-57,245,233,-25
1,2634150,2471,859,2391,5026,125,-57,245,233,-25
1,2634166,2473,856,2403,5016,124,-60,245,233,-25
1,2634179,2471,839,2395,5022,124,-60,245,233,-25
1,2634192,2477,847,2392,5019,125,-56,245,233,-25
1,2634207,2477,847,2392,5019,125,-56,239,237,-23
1,2634222,2472,851,2405,5015,127,-51,239,237,-23
1,2634234,2470,864,2403,5021,125,-55,239,237,-23
1,2634248,2470,864,2403,5021,125,-55,239,237,-23
1,2634261,2477,852,2400,5025,127,-57,239,237,-23
1,2634273,2474,853,2396,5022,124,-61,239,237,-23
1,2634287,2474,853,2396,5022,124,-61,239,237,-23
1,2634302,2479,854,2398,5022,122,-53,239,237,-23
1,2634313,2470,862,2394,5012,121,-57,239,237,-23
1,2634327,2470,862,2394,5012,121,-57,239,237,-23
1,2634341,2474,854,2402,5018,128,-60,238,240,-26
1,2634354,2475,861,2403,5021,120,-59,238,240,-26
1,2634369,2475,861,2403,5021,120,-59,238,240,-26
1,2634379,2474,858,2395,5025,131,-55,238,240,-26
1,2634393,2475,860,2401,5026,128,-55,238,240,-26
1,2634407,2475,860,2401,5026,128,-55,238,240,-26
1,2634421,2474,847,2397,5025,118,-63,238,240,-26
1,2634434,2477,855,2402,5022,120,-58,238,240,-26
1,2634447,2477,855,2402,5022,120,-58,238,240,-26
1,2634462,2474,833,2400,5018,129,-55,238,240,-28
1,2634475,2475,822,2399,5021,125,-54,238,240,-28
1,2634488,2475,822,2399,5021,125,-54,238,240,-28
1,2634503,2476,839,2396,5021,121,-62,238,240,-28
1,2634519,2473,844,2399,5018,122,-53,238,240,-28
1,2634533,2470,816,2398,5023,126,-52,238,240,-28
1,2634546,2470,816,2398,5023,126,-52,238,240,-28
1,2634559,2477,842,2390,5018,128,-62,238,240,-28
1,2634571,2477,842,2390,5018,128,-62,238,240,-28
1,2634586,2472,830,2397,5014,124,-54,228,232,-30
1,2634600,2475,850,2392,5012,122,-49,228,232,-30
1,2634613,2472,822,2390,5019,121,-63,228,232,-30
1,2634628,2472,822,2390,5019,121,-63,228,232,-30
1,2634638,2472,822,2390,5019,121,-63,228,232,-30
1,2634651,2472,822,2390,5019,121,-63,228,232,-30
1,2634667,2483,832,2398,5014,121,-49,228,232,-30
1,2634682,2473,845,2390,5010,117,-54,228,232,-30
1,2634695,2477,829,2384,5014,121,-58,221,237,-31
1,2634708,2477,829,2384,5014,121,-58,221,237,-31
1,2634722,2475,853,2390,5010,126,-58,221,237,-31
1,2634735,2477,829,2386,5012,125,-51,221,237,-31
1,2634750,2477,829,2386,5012,125,-51,221,237,-31
1,2634764,2472,846,2387,5012,124,-57,221,237,-31
1,2634777,2477,833,2383,5014,123,-56,221,237,-31
1,2634790,2477,833,2383,5014,123,-56,221,237,-31
1,2634805,2473,848,2391,5009,117,-58,221,237,-31
1,2634819,2476,831,2383,5011,117,-57,221,237,-31
1,2634831,2476,831,2383,5011,117,-57,221,237,-31
1,2634846,2474,847,2394,5009,125,-50,218,236,-44
1,2634861,2478,845,2383,5007,128,-54,218,236,-44
1,2634871,2478,845,2383,5007,128,-54,218,236,-44
1,2634880,2472,851,2392,5007,119,-56,218,236,-44
1,2634888,2472,851,2392,5007,119,-56,218,236,-44
1,2634895,2475,843,2382,5012,118,-53,218,236,-44
1,2634903,2475,843,2382,5012,118,-53,218,236,-44
1,2634918,2471,865,2385,5005,121,-64,218,236,-44
1,2634935,2472,872,2377,5001,119,-57,218,236,-44
1,2634950,2472,872,2377,5001,119,-57,218,236,-44
1,2634963,2468,918,2390,4999,119,-51,221,229,-51
1,2634977,2470,878,2391,5012,122,-53,221,229,-51
1,2634990,2470,878,2391,5012,122,-53,221,229,-51
1,2635005,2476,893,2390,5011,120,-52,221,229,-51
1,2635018,2475,890,2394,5010,121,-52,221,229,-51
1,2635031,2475,890,2394,5010,121,-52,221,229,-51
1,2635044,2469,915,2389,5014,126,-53,221,229,-51
1,2635058,2470,888,2397,5010,127,-59,221,229,-51
1,2635073,2470,888,2397,5010,127,-59,221,229,-51
1,2635088,2473,894,2397,5016,122,-56,224,232,-48
1,2635104,2471,867,2401,5018,123,-55,224,232,-48
1,2635119,2473,887,2398,5014,121,-47,224,232,-48
1,2635132,2473,887,2398,5014,121,-47,224,232,-48
1,2635146,2473,887,2398,5014,121,-47,224,232,-48
1,2635160,2477,871,2403,5028,116,-63,224,232,-48
1,2635171,2477,871,2403,5028,116,-63,224,232,-48
1,2635184,2480,836,2398,5030,126,-54,224,232,-48
1,2635197,2472,855,2403,5033,119,-51,220,240,-60
1,2635211,2472,855,2403,5033,119,-51,220,240,-60
1,2635225,2478,850,2400,5026,124,-50,220,240,-60
1,2635237,2475,864,2406,5019,127,-51,220,240,-60
1,2635245,2475,864,2406,5019,127,-51,220,240,-60
1,2635257,2481,834,2398,5021,123,-57,220,240,-60
1,2635271,2481,834,2398,5021,123,-57,220,240,-60
1,2635282,2471,856,2397,5021,121,-58,220,240,-60
1,2635297,2476,851,2395,5020,123,-54,220,240,-60
1,2635313,2476,851,2395,5020,123,-54,220,240,-60
1,2635326,2468,859,2403,5020,129,-54,220,240,-60
1,2635339,2475,836,2408,5018,127,-64,222,234,-58
1,2635354,2472,851,2396,5019,119,-61,222,234,-58
1,2635368,2472,851,2396,5019,119,-61,222,234,-58
1,2635382,2477,853,2405,5027,118,-54,222,234,-58
1,2635396,2476,855,2400,5022,116,-50,222,234,-58
1,2635408,2476,855,2400,5022,116,-50,222,234,-58
1,2635424,2476,855,2400,5022,116,-50,222,234,-58
1,2635440,2477,845,2398,5020,125,-50,222,234,-58
1,2635452,2477,845,2398,5020,125,-50,222,234,-58
1,2635466,2477,847,2400,5018,128,-51,222,230,-78
1,2635480,2472,846,2393,5023,124,-53,222,230,-78
1,2635493,2472,846,2393,5023,124,-53,222,230,-78
1,2635507,2476,843,2395,5023,123,-51,222,230,-78
1,2635522,2476,844,2394,5016,124,-48,222,230,-78
1,2635534,2474,819,2397,5012,132,-50,222,230,-78
1,2635549,2474,819,2397,5012,132,-50,222,230,-78
1,2635565,2473,843,2398,5020,133,-58,222,230,-78
1,2635579,2478,834,2395,5021,129,-54,225,229,-85
1,2635589,2478,834,2395,5021,129,-54,225,229,-85
1,2635604,2479,842,2403,5017,123,-55,225,229,-85
1,2635618,2476,822,2389,5020,122,-50,225,229,-85
1,2635631,2476,822,2389,5020,122,-50,225,229,-85
1,2635645,2475,844,2392,5017,119,-53,225,229,-85
1,2635658,2477,837,2388,5016,125,-44,225,229,-85
1,2635669,2477,837,2388,5016,125,-44,225,229,-85
1,2635682,2468,847,2388,5011,118,-55,225,229,-85
1,2635696,2478,831,2387,5014,120,-53,225,223,-81
1,2635710,2478,831,2387,5014,120,-53,225,223,-81
1,2635722,2474,839,2393,5016,123,-49,225,223,-81
1,2635735,2476,837,2393,5012,120,-55,225,223,-81
1,2635748,2476,837,2393,5012,120,-55,225,223,-81
1,2635761,2479,843,2389,5011,132,-51,225,223,-81
1,2635776,2476,845,2387,5007,121,-57,225,223,-81
1,2635790,2476,845,2387,5007,121,-57,225,223,-81
1,2635802,2478,849,2385,5016,125,-51,225,223,-81
1,2635817,2473,860,2387,5013,120,-52,220,226,-92
1,2635832,2473,860,2387,5013,120,-52,220,226,-92
1,2635847,2473,861,2390,5010,128,-47,220,226,-92
1,2635858,2470,879,2387,5001,127,-53,220,226,-92
1,2635873,2470,879,2387,5001,127,-53,220,226,-92
1,2635888,2472,866,2392,5007,119,-56,220,226,-92
1,2635901,2473,855,2390,5015,121,-52,220,226,-92
1,2635915,2474,866,2388,5015,120,-51,220,226,-92
1,2635928,2474,866,2388,5015,120,-51,220,226,-92
1,2635944,2473,866,2386,5018,124,-52,220,226,-92
1,2635958,2472,873,2395,5014,123,-58,222,228,-98
1,2635969,2472,873,2395,5014,123,-58,222,228,-98
1,2635983,2471,871,2392,5015,124,-57,222,228,-98
1,2635997,2475,880,2395,5015,132,-57,222,228,-98
1,2636011,2475,880,2395,5015,132,-57,222,228,-98
1,2636024,2474,872,2395,5021,129,-45,222,228,-98
1,2636037,2469,894,2391,5020,124,-49,222,228,-98
1,2636051,2469,894,2391,5020,124,-49,222,228,-98
1,2636066,2472,872,2394,5018,127,-55,222,228,-98
1,2636080,2471,885,2395,5025,127,-53,227,229,-109
1,2636091,2471,885,2395,5025,127,-53,227,229,-109
1,2636106,2475,859,2396,5029,119,-62,227,229,-109
1,2636119,2471,878,2398,5029,124,-60,227,229,-109
1,2636132,2471,878,2398,5029,124,-60,227,229,-109
1,2636146,2475,852,2400,5029,125,-52,227,229,-109
1,2636156,2471,871,2400,5017,122,-48,227,229,-109
1,2636170,2471,871,2400,5017,122,-48,227,229,-109
1,2636183,2479,852,2404,5023,121,-52,227,229,-109
1,2636196,2473,865,2404,5030,128,-51,238,224,-122
1,2636211,2473,865,2404,5030,128,-51,238,224,-122
1,2636222,2478,847,2399,5023,119,-56,238,224,-122
1,2636236,2474,857,2400,5025,122,-50,238,224,-122
1,2636252,2474,857,2400,5025,122,-50,238,224,-122
1,2636267,2478,841,2396,5028,127,-54,238,224,-122
1,2636279,2476,839,2393,5031,131,-51,238,224,-122
1,2636293,2476,839,2393,5031,131,-51,238,224,-122
1,2636309,2475,814,2396,5025,122,-60,238,224,-122
1,2636323,2475,846,2401,5011,122,-57,237,225,-123
1,2636337,2477,840,2405,5015,121,-51,237,225,-123
1,2636351,2477,840,2405,5015,121,-51,237,225,-123
1,2636365,2473,832,2400,5022,116,-46,237,225,-123
1,2636379,2479,836,2397,5015,121,-55,237,225,-123
1,2636394,2479,836,2397,5015,121,-55,237,225,-123
1,2636405,2474,840,2385,5017,120,-48,237,225,-123
1,2636419,2473,851,2391,5011,116,-55,237,225,-123
1,2636433,2473,851,2391,5011,116,-55,237,225,-123
1,2636446,2473,838,2385,5013,121,-48,237,225,-123
1,2636460,2473,853,2396,5015,121,-49,243,227,-141
1,2636472,2473,853,2396,5015,121,-49,243,227,-141
1,2636484,2482,827,2393,5020,124,-48,243,227,-141
1,2636497,2474,846,2393,5013,120,-47,243,227,-141
1,2636513,2474,846,2393,5013,120,-47,243,227,-141
1,2636527,2478,840,2392,5011,121,-56,243,227,-141
1,2636542,2475,854,2397,5005,118,-53,243,227,-141
1,2636556,2476,836,2392,5009,126,-50,243,227,-141
1,2636569,2476,836,2392,5009,126,-50,243,227,-141
1,2636584,2473,846,2387,5013,125,-59,253,219,-135
1,2636598,2475,850,2393,5012,126,-54,253,219,-135
1,2636610,2475,850,2393,5012,126,-54,253,219,-135
1,2636623,2473,852,2387,5009,118,-53,253,219,-135
1,2636638,2473,838,2390,5014,119,-50,253,219,-135
1,2636651,2473,838,2390,5014,119,-50,253,219,-135
1,2636665,2480,852,2390,5009,120,-51,253,219,-135
1,2636677,2476,848,2393,5004,124,-46,253,219,-135
1,2636690,2476,848,2393,5004,124,-46,253,219,-135
1,2636704,2476,860,2389,5009,122,-48,262,214,-154
1,2636717,2473,855,2399,5017,120,-51,262,214,-154
1,2636731,2473,855,2399,5017,120,-51,262,214,-154
1,2636747,2474,887,2386,5014,119,-50,262,214,-154
1,2636762,2471,894,2390,5009,115,-40,262,214,-154
1,2636778,2471,886,2392,5011,118,-48,262,214,-154
1,2636791,2471,886,2392,5011,118,-48,262,214,-154
1,2636805,2469,873,2391,5010,125,-56,262,214,-154
1,2636820,2477,879,2393,5013,130,-50,267,223,-145
1,2636833,2477,879,2393,5013,130,-50,267,223,-145
1,2636846,2468,882,2393,5030,123,-49,267,223,-145
1,2636859,2470,872,2398,5023,122,-50,267,223,-145
1,2636872,2470,872,2398,5023,122,-50,267,223,-145
1,2636886,2474,871,2395,5022,125,-58,267,223,-145
1,2636899,2479,870,2401,5024,122,-54,267,223,-145
1,2636913,2479,870,2401,5024,122,-54,267,223,-145
1,2636925,2473,870,2395,5020,125,-45,267,223,-145
1,2636941,2473,870,2395,5020,125,-45,267,223,-145
1,2636956,2475,863,2398,5024,126,-57,287,215,-161
1,2636969,2475,863,2398,5024,126,-57,287,215,-161
1,2636983,2479,843,2395,5026,129,-54,287,215,-161
1,2636998,2473,855,2397,5024,122,-61,287,215,-161
1,2637014,2473,855,2397,5024,122,-61,287,215,-161
1,2637025,2475,851,2394,5020,122,-58,287,215,-161
1,2637039,2472,858,2402,5020,123,-60,287,215,-161
1,2637052,2472,858,2402,5020,123,-60,287,215,-161
1,2637065,2480,843,2395,5017,119,-52,287,215,-161
1,2637077,2472,855,2403,5018,120,-52,272,216,-154
1,2637090,2472,855,2403,5018,120,-52,272,216,-154
1,2637104,2475,859,2404,5020,125,-55,272,216,-154
1,2637118,2473,862,2397,5022,126,-59,272,216,-154
1,2637129,2473,862,2397,5022,126,-59,272,216,-154
1,2637143,2475,857,2396,5020,128,-53,272,216,-154
1,2637156,2476,858,2392,5025,120,-54,272,216,-154
1,2637169,2476,858,2392,5025,120,-54,272,216,-154
1,2637184,2475,863,2397,5016,116,-57,272,216,-154
1,2637195,2474,863,2396,5015,127,-53,283,211,-153
1,2637209,2474,863,2396,5015,127,-53,283,211,-153
1,2637224,2473,863,2396,5011,120,-61,283,211,-153
1,2637241,2472,875,2394,5017,119,-61,283,211,-153
1,2637255,2473,857,2397,5027,121,-52,283,211,-153
1,2637271,2473,857,2397,5027,121,-52,283,211,-153
1,2637282,2472,861,2397,5024,121,-54,283,211,-153
1,2637295,2474,846,2403,5016,126,-45,283,211,-153
1,2637308,2474,846,2403,5016,126,-45,283,211,-153
1,2637322,2475,861,2402,5023,128,-47,296,226,-150
1,2637336,2475,812,2400,5029,128,-42,296,226,-150
1,2637349,2475,812,2400,5029,128,-42,296,226,-150
1,2637361,2473,840,2400,5027,126,-45,296,226,-150
1,2637376,2477,833,2395,5025,129,-47,296,226,-150
1,2637389,2477,833,2395,5025,129,-47,296,226,-150
1,2637403,2471,858,2395,5027,124,-50,296,226,-150
1,2637418,2474,818,2391,5019,119,-49,296,226,-150
1,2637429,2474,818,2391,5019,119,-49,296,226,-150
1,2637443,2473,848,2395,5017,129,-55,296,226,-150
1,2637458,2480,832,2394,5024,126,-49,306,224,-158
1,2637473,2480,832,2394,5024,126,-49,306,224,-158
1,2637487,2469,849,2395,5023,129,-44,306,224,-158
1,2637499,2484,836,2395,5012,121,-53,306,224,-158
1,2637513,2484,836,2395,5012,121,-53,306,224,-158
1,2637527,2470,850,2400,5008,126,-55,306,224,-158
1,2637541,2482,830,2394,5011,118,-53,306,224,-158
1,2637554,2469,845,2391,5005,118,-50,306,224,-158
1,2637568,2469,845,2391,5005,118,-50,306,224,-158
1,2637580,2474,841,2395,5017,124,-52,309,215,-145
1,2637594,2474,841,2395,5017,124,-52,309,215,-145
1,2637607,2477,845,2392,5012,124,-58,309,215,-145
1,2637621,2477,829,2395,5009,120,-55,309,215,-145
1,2637636,2474,837,2389,5004,123,-55,309,215,-145
1,2637650,2474,837,2389,5004,123,-55,309,215,-145
1,2637665,2474,851,2393,5008,123,-56,309,215,-145
1,2637673,2474,851,2393,5008,123,-56,309,215,-145
1,2637685,2474,842,2391,5016,123,-58,309,215,-145
1,2637700,2474,840,2392,5021,118,-63,310,222,-158
1,2637716,2477,846,2388,5013,117,-58,310,222,-158
1,2637729,2477,846,2388,5013,117,-58,310,222,-158
1,2637743,2477,852,2389,5014,123,-52,310,222,-158
1,2637757,2475,844,2387,5014,123,-48,310,222,-158
1,2637769,2475,844,2387,5014,123,-48,310,222,-158
1,2637783,2473,852,2388,5009,119,-54,310,222,-158
1,2637796,2477,856,2383,5008,121,-49,310,222,-158
1,2637810,2477,856,2383,5008,121,-49,310,222,-158
1,2637824,2469,906,2391,5006,126,-48,314,228,-154
1,2637837,2471,901,2387,5007,117,-49,314,228,-154
1,2637849,2471,901,2387,5007,117,-49,314,228,-154
1,2637862,2469,902,2395,5008,117,-49,314,228,-154
1,2637876,2475,890,2392,5016,123,-60,314,228,-154
1,2637890,2475,890,2392,5016,123,-60,314,228,-154
1,2637904,2472,904,2390,5019,124,-52,314,228,-154
1,2637920,2470,895,2397,5026,117,-53,314,228,-154
1,2637935,2468,893,2402,5023,125,-57,318,232,-146
1,2637950,2468,893,2402,5023,125,-57,318,232,-146
1,2637964,2477,879,2404,5021,128,-61,318,232,-146
1,2637978,2472,876,2399,5030,121,-52,318,232,-146
1,2637991,2472,876,2399,5030,121,-52,318,232,-146
1,2638005,2472,873,2402,5024,122,-52,318,232,-146
1,2638017,2473,869,2395,5022,128,-57,318,232,-146
1,2638030,2473,869,2395,5022,128,-57,318,232,-146
1,2638045,2476,856,2407,5030,132,-56,318,232,-146
1,2638058,2479,849,2403,5029,123,-50,318,232,-146
1,2638072,2479,849,2403,5029,123,-50,318,232,-146
1,2638085,2475,851,2409,5025,118,-59,324,232,-148
1,2638097,2471,859,2405,5018,121,-64,324,232,-148
1,2638112,2471,859,2405,5018,121,-64,324,232,-148
1,2638127,2477,844,2400,5019,121,-57,324,232,-148
1,2638140,2477,844,2400,5019,121,-57,324,232,-148
1,2638154,2475,846,2402,5020,123,-52,324,232,-148
1,2638170,2475,846,2402,5020,123,-52,324,232,-148
1,2638184,2473,859,2399,5026,127,-46,324,232,-148
1,2638198,2474,848,2403,5032,125,-52,331,231,-147
1,2638213,2474,848,2403,5032,125,-52,331,231,-147
1,2638222,2476,847,2393,5024,121,-61,331,231,-147
1,2638235,2477,842,2398,5023,128,-59,331,231,-147
1,2638248,2477,842,2398,5023,128,-59,331,231,-147
1,2638263,2473,851,2398,5021,122,-57,331,231,-147
1,2638276,2474,849,2396,5022,130,-55,331,231,-147
1,2638287,2474,849,2396,5022,130,-55,331,231,-147
1,2638301,2475,851,2397,5017,122,-57,331,231,-147
1,2638314,2475,851,2397,5017,122,-57,331,231,-147
1,2638330,2480,842,2402,5024,118,-58,324,246,-142
1,2638344,2476,856,2398,5026,124,-50,324,246,-142
1,2638358,2478,844,2399,5025,127,-54,324,246,-142
1,2638373,2478,844,2399,5025,127,-54,324,246,-142
1,2638387,2475,846,2391,5018,130,-51,324,246,-142
1,2638399,2479,833,2395,5020,122,-57,324,246,-142
1,2638413,2479,833,2395,5020,122,-57,324,246,-142
1,2638430,2475,828,2396,5026,123,-56,324,246,-142
1,2638445,2474,842,2395,5018,127,-55,327,241,-133
1,2638458,2471,842,2400,5018,122,-51,327,241,-133
1,2638471,2471,842,2400,5018,122,-51,327,241,-133
1,2638485,2476,825,2397,5011,124,-54,327,241,-133
1,2638498,2479,836,2392,5017,124,-53,327,241,-133
1,2638512,2479,836,2392,5017,124,-53,327,241,-133
1,2638526,2475,837,2391,5010,129,-51,327,241,-133
1,2638540,2472,844,2393,5018,120,-48,327,241,-133
1,2638553,2472,844,2393,5018,120,-48,327,241,-133
1,2638566,2475,844,2386,5019,122,-52,327,241,-133
1,2638579,2472,842,2390,5009,126,-60,343,247,-129
1,2638587,2472,842,2390,5009,126,-60,343,247,-129
1,2638598,2476,842,2390,5015,119,-47,343,247,-129
1,2638611,2476,842,2390,5015,119,-47,343,247,-129
1,2638625,2472,845,2382,5011,116,-52,343,247,-129
1,2638636,2478,845,2388,5009,124,-63,343,247,-129
1,2638650,2478,845,2388,5009,124,-63,343,247,-129
1,2638665,2477,843,2385,5012,125,-58,343,247,-129
1,2638681,2477,849,2388,5011,122,-50,343,247,-129
1,2638694,2477,863,2392,5004,118,-52,343,247,-129
1,2638706,2477,863,2392,5004,118,-52,327,237,-127
1,2638721,2473,868,2394,5000,123,-54,327,237,-127
1,2638734,2473,868,2394,5000,123,-54,327,237,-127
1,2638747,2471,880,2388,5005,123,-58,327,237,-127
1,2638760,2474,872,2387,5006,130,-55,327,237,-127
1,2638775,2472,861,2385,5001,129,-55,327,237,-127
1,2638788,2472,861,2385,5001,129,-55,327,237,-127
1,2638801,2476,873,2387,5014,125,-53,327,237,-127
1,2638817,2471,867,2392,5012,123,-53,338,246,-120
1,2638832,2471,867,2392,5012,123,-53,338,246,-120
1,2638848,2472,875,2396,5008,121,-56,338,246,-120
1,2638862,2476,867,2395,5012,124,-52,338,246,-120
1,2638874,2476,867,2395,5012,124,-52,338,246,-120
1,2638888,2473,887,2397,5013,121,-56,338,246,-120
1,2638902,2473,878,2394,5026,123,-48,338,246,-120
1,2638916,2471,889,2392,5018,127,-56,338,246,-120
1,2638929,2471,889,2392,5018,127,-56,338,246,-120
1,2638944,2476,877,2393,5015,124,-56,325,247,-111
1,2638957,2468,880,2395,5016,123,-54,325,247,-111
1,2638969,2468,880,2395,5016,123,-54,325,247,-111
1,2638983,2474,867,2396,5019,122,-53,325,247,-111
1,2638997,2468,874,2399,5023,121,-59,325,247,-111
1,2639010,2468,874,2399,5023,121,-59,325,247,-111
1,2639025,2475,861,2398,5029,118,-54,325,247,-111
1,2639037,2475,863,2402,5022,124,-49,325,247,-111
1,2639052,2475,863,2402,5022,124,-49,325,247,-111
1,2639068,2475,855,2399,5021,127,-55,325,247,-111
1,2639081,2476,861,2404,5025,121,-54,325,239,-107
1,2639094,2476,861,2404,5025,121,-54,325,239,-107
1,2639108,2475,851,2395,5025,125,-57,325,239,-107
1,2639124,2473,856,2394,5021,120,-59,325,239,-107
1,2639138,2477,816,2397,5023,122,-50,325,239,-107
1,2639153,2477,816,2397,5023,122,-50,325,239,-107
1,2639166,2475,847,2396,5021,119,-48,325,239,-107
1,2639179,2476,832,2394,5018,128,-48,325,239,-107
1,2639191,2476,832,2394,5018,128,-48,325,239,-107
1,2639203,2479,850,2405,5022,121,-50,329,241,-101
1,2639217,2479,817,2397,5021,121,-53,329,241,-101
1,2639232,2479,817,2397,5021,121,-53,329,241,-101
1,2639246,2481,843,2393,5018,124,-50,329,241,-101
1,2639259,2481,835,2400,5019,121,-56,329,241,-101
1,2639271,2481,835,2400,5019,121,-56,329,241,-101
1,2639286,2471,850,2391,5013,121,-49,329,241,-101
1,2639300,2479,832,2392,5022,122,-55,329,241,-101
1,2639314,2479,832,2392,5022,122,-55,329,241,-101
1,2639328,2474,843,2398,5018,129,-63,321,247,-91
1,2639342,2476,840,2390,5018,121,-51,321,247,-91
1,2639357,2472,842,2396,5015,124,-53,321,247,-91
1,2639371,2472,842,2396,5015,124,-53,321,247,-91
1,2639385,2479,838,2390,5011,126,-52,321,247,-91
1,2639398,2478,840,2396,5012,123,-51,321,247,-91
1,2639412,2478,840,2396,5012,123,-51,321,247,-91
1,2639425,2476,840,2388,5019,118,-56,321,247,-91
1,2639439,2475,850,2396,5004,122,-48,312,238,-90
1,2639453,2475,850,2396,5004,122,-48,312,238,-90
1,2639468,2478,855,2391,5003,124,-56,312,238,-90
1,2639481,2478,846,2392,5005,123,-57,312,238,-90
1,2639496,2475,843,2387,5014,122,-55,312,238,-90
1,2639511,2475,843,2387,5014,122,-55,312,238,-90
1,2639526,2474,854,2385,5007,128,-54,312,238,-90
1,2639541,2474,858,2391,5005,124,-61,312,238,-90
1,2639554,2474,858,2391,5005,124,-61,312,238,-90
1,2639569,2473,854,2391,5015,127,-55,309,241,-73
1,2639585,2475,866,2388,5012,123,-52,309,241,-73
1,2639598,2474,897,2382,5013,123,-58,309,241,-73
1,2639610,2474,897,2382,5013,123,-58,309,241,-73
1,2639624,2474,889,2391,5013,130,-54,309,241,-73
1,2639637,2474,885,2389,5013,121,-55,309,241,-73
1,2639651,2474,885,2389,5013,121,-55,309,241,-73
1,2639666,2478,887,2400,5016,121,-52,309,241,-73
1,2639679,2472,890,2394,5019,121,-57,309,241,-73
1,2639690,2472,890,2394,5019,121,-57,309,241,-73
1,2639705,2474,886,2396,5017,123,-59,306,242,-70
1,2639718,2469,867,2387,5016,129,-60,306,242,-70
1,2639731,2469,867,2387,5016,129,-60,306,242,-70
1,2639747,2472,881,2390,5015,129,-53,306,242,-70
1,2639762,2478,870,2396,5012,129,-56,306,242,-70
1,2639774,2478,870,2396,5012,129,-56,306,242,-70
1,2639789,2469,877,2397,5020,125,-54,306,242,-70
1,2639804,2476,863,2405,5022,129,-60,306,242,-70
1,2639819,2476,863,2399,5026,119,-51,292,238,-60
1,2639834,2476,863,2399,5026,119,-51,292,238,-60
1,2639846,2475,848,2394,5023,116,-45,292,238,-60
1,2639858,2473,864,2395,5026,113,-48,292,238,-60
1,2639873,2473,864,2395,5026,113,-48,292,238,-60
1,2639886,2475,856,2400,5026,115,-53,292,238,-60
1,2639900,2474,854,2399,5018,124,-53,292,238,-60
1,2639913,2474,854,2399,5018,124,-53,292,238,-60
1,2639925,2477,834,2393,5028,126,-61,292,238,-60
1,2639939,2474,862,2399,5024,128,-59,296,240,-62
1,2639953,2474,862,2399,5024,128,-59,296,240,-62
1,2639968,2478,856,2407,5020,122,-59,296,240,-62
1,2639982,2479,859,2405,5020,122,-61,296,240,-62
1,2639997,2483,848,2399,5024,119,-60,296,240,-62
1,2640013,2483,848,2399,5024,119,-60,296,240,-62
1,2640027,2475,871,2398,5022,125,-54,296,240,-62
1,2640041,2479,862,2398,5024,123,-48,296,240,-62
1,2640056,2474,868,2398,5028,118,-56,293,241,-43
1,2640065,2474,868,2398,5028,118,-56,293,241,-43
1,2640077,2477,861,2398,5019,127,-55,293,241,-43
1,2640091,2477,861,2398,5019,127,-55,293,241,-43
1,2640105,2471,876,2391,5020,129,-57,293,241,-43
1,2640118,2474,862,2400,5020,127,-55,293,241,-43
1,2640132,2474,862,2400,5020,127,-55,293,241,-43
1,2640144,2475,856,2402,5024,125,-60,293,241,-43
1,2640157,2475,856,2403,5024,123,-53,293,241,-43
1,2640172,2475,856,2403,5024,123,-53,293,241,-43
1,2640186,2476,854,2400,5015,125,-50,293,241,-43
1,2640200,2474,847,2403,5017,120,-54,283,239,-43
1,2640216,2477,814,2397,5020,120,-57,283,239,-43
1,2640230,2477,814,2397,5020,120,-57,283,239,-43
1,2640242,2477,814,2397,5020,120,-57,283,239,-43
1,2640258,2476,845,2400,5013,128,-49,283,239,-43
1,2640273,2476,845,2400,5013,128,-49,283,239,-43
1,2640288,2466,829,2389,5019,123,-55,283,239,-43
1,2640304,2478,838,2393,5029,124,-61,283,239,-43
1,2640315,2474,837,2394,5021,124,-57,283,239,-43
1,2640328,2474,837,2394,5021,124,-57,280,234,-40
1,2640342,2478,850,2401,5016,128,-52,280,234,-40
1,2640356,2474,839,2393,5016,127,-53,280,234,-40
1,2640370,2474,839,2393,5016,127,-53,280,234,-40
1,2640381,2474,854,2400,5020,130,-59,280,234,-40
1,2640396,2485,834,2395,5014,126,-56,280,234,-40
1,2640409,2485,834,2395,5014,126,-56,280,234,-40
1,2640423,2473,845,2396,5013,121,-49,280,234,-40
1,2640437,2477,846,2391,5017,119,-52,271,235,-35
1,2640451,2477,846,2391,5017,119,-52,271,235,-35
1,2640466,2475,853,2394,5011,123,-60,271,235,-35
1,2640482,2478,831,2381,5012,123,-58,271,235,-35
1,2640497,2471,843,2389,5011,115,-54,271,235,-35
1,2640513,2471,843,2389,5011,115,-54,271,235,-35
1,2640526,2476,846,2388,5009,125,-46,271,235,-35
1,2640539,2475,854,2394,5012,120,-59,271,235,-35
1,2640549,2475,854,2394,5012,120,-59,271,235,-35
1,2640562,2477,840,2391,5009,121,-59,261,235,-27
1,2640575,2480,849,2399,5012,120,-59,261,235,-27
1,2640589,2480,849,2399,5012,120,-59,261,235,-27
1,2640603,2477,852,2388,5016,120,-52,261,235,-27
1,2640615,2477,852,2388,5016,120,-52,261,235,-27
1,2640627,2473,856,2389,5016,122,-51,261,235,-27
1,2640641,2475,853,2382,5007,121,-52,261,235,-27
1,2640655,2475,853,2382,5007,121,-52,261,235,-27
1,2640669,2475,863,2388,5006,125,-53,261,235,-27
1,2640685,2472,892,2388,5005,123,-47,261,235,-27
1,2640700,2468,908,2391,5013,122,-55,266,228,-26
1,2640710,2468,908,2391,5013,122,-55,266,228,-26
1,2640724,2472,893,2397,5012,123,-58,266,228,-26
1,2640740,2476,886,2387,5007,122,-54,266,228,-26
1,2640753,2476,886,2387,5007,122,-54,266,228,-26
1,2640765,2473,903,2392,5022,124,-50,266,228,-26
1,2640780,2472,904,2393,5019,119,-48,266,228,-26
1,2640793,2472,904,2393,5019,119,-48,266,228,-26
1,2640807,2469,894,2395,5016,123,-51,266,228,-26
1,2640821,2478,888,2406,5027,129,-53,255,241,-23
1,2640833,2478,888,2406,5027,129,-53,255,241,-23
1,2640845,2470,883,2401,5025,124,-52,255,241,-23
1,2640859,2474,879,2398,5029,120,-52,255,241,-23
1,2640872,2474,879,2398,5029,120,-52,255,241,-23
1,2640886,2471,873,2397,5025,121,-57,255,241,-23
1,2640901,2475,861,2396,5021,129,-58,255,241,-23
1,2640916,2480,851,2398,5027,123,-55,255,241,-23
1,2640930,2480,851,2398,5027,123,-55,255,241,-23
1,2640945,2475,858,2409,5022,120,-52,253,233,-21
1,2640956,2477,856,2402,5019,124,-57,253,233,-21
1,2640968,2477,856,2402,5019,124,-57,253,233,-21
1,2640982,2477,863,2404,5018,130,-60,253,233,-21
1,2640996,2475,836,2402,5028,121,-57,253,233,-21
1,2641009,2475,836,2402,5028,121,-57,253,233,-21
1,2641024,2475,860,2399,5023,127,-51,253,233,-21
1,2641037,2473,858,2396,5027,124,-51,253,233,-21
1,2641052,2473,858,2396,5027,124,-51,253,233,-21
1,2641064,2470,868,2401,5028,126,-54,248,226,-22
1,2641079,2480,844,2403,5024,126,-56,248,226,-22
1,2641093,2480,844,2403,5024,126,-56,248,226,-22
1,2641107,2472,859,2401,5018,126,-55,248,226,-22
1,2641122,2477,851,2396,5026,124,-46,248,226,-22
1,2641136,2473,860,2397,5027,131,-50,248,226,-22
1,2641150,2473,860,2397,5027,131,-50,248,226,-22
1,2641164,2477,843,2399,5024,130,-59,248,226,-22
1,2641179,2473,859,2404,5024,127,-58,248,226,-22
1,2641195,2473,859,2404,5024,127,-58,248,226,-22
1,2641210,2477,849,2394,5021,126,-53,247,231,-21
1,2641224,2470,856,2394,5027,131,-50,247,231,-21
1,2641236,2470,856,2394,5027,131,-50,247,231,-21
1,2641249,2470,856,2394,5027,131,-50,247,231,-21
1,2641262,2473,850,2397,5023,130,-56,247,231,-21
1,2641276,2473,816,2396,5010,127,-51,247,231,-21
1,2641291,2473,816,2396,5010,127,-51,247,231,-21
1,2641302,2474,854,2399,5018,129,-54,247,231,-21
1,2641314,2474,854,2399,5018,129,-54,247,231,-21
1,2641328,2472,833,2402,5018,125,-58,237,233,-21
1,2641342,2475,849,2401,5019,122,-55,237,233,-21
1,2641356,2478,826,2398,5020,113,-53,237,233,-21
1,2641370,2478,826,2398,5020,113,-53,237,233,-21
1,2641382,2479,852,2390,5016,121,-62,237,233,-21
1,2641397,2479,835,2393,5020,126,-54,237,233,-21
1,2641413,2479,835,2393,5020,126,-54,237,233,-21
1,2641425,2471,845,2383,5015,116,-60,237,233,-21
1,2641438,2476,842,2393,5014,119,-53,233,239,-25
1,2641452,2476,842,2393,5014,119,-53,233,239,-25
1,2641466,2474,844,2391,5013,123,-51,233,239,-25
1,2641479,2473,843,2394,5009,128,-55,233,239,-25
1,2641492,2473,843,2394,5009,128,-55,233,239,-25
1,2641507,2475,841,2395,5012,126,-59,233,239,-25
1,2641520,2477,848,2391,5004,124,-51,233,239,-25
1,2641532,2477,848,2391,5004,124,-51,233,239,-25
1,2641546,2477,847,2396,5004,122,-41,233,239,-25
1,2641560,2474,854,2386,5009,126,-49,236,242,-24
1,2641573,2474,854,2386,5009,126,-49,236,242,-24
1,2641589,2476,856,2393,5010,128,-60,236,242,-24
1,2641600,2474,863,2386,5011,122,-64,236,242,-24
1,2641615,2474,863,2386,5011,122,-64,236,242,-24
1,2641630,2475,854,2386,5010,121,-55,236,242,-24
1,2641646,2472,865,2386,5009,127,-51,236,242,-24
1,2641661,2475,869,2393,5013,131,-54,236,242,-24
1,2641675,2475,869,2393,5013,131,-54,236,242,-24
1,2641688,2475,867,2386,5009,121,-51,230,240,-32
1,2641703,2474,868,2396,5011,123,-61,230,240,-32
1,2641717,2477,875,2388,5010,124,-60,230,240,-32
1,2641730,2477,875,2388,5010,124,-60,230,240,-32
1,2641743,2476,889,2398,5012,119,-46,230,240,-32
1,2641759,2471,878,2387,5017,124,-52,230,240,-32
1,2641773,2471,878,2387,5017,124,-52,230,240,-32
1,2641783,2474,891,2395,5019,127,-54,230,240,-32
1,2641797,2476,883,2389,5013,119,-50,230,240,-32
1,2641811,2476,883,2389,5013,119,-50,230,240,-32
1,2641825,2469,881,2395,5018,126,-51,227,249,-33
1,2641840,2476,862,2393,5026,128,-49,227,249,-33
1,2641853,2476,862,2393,5026,128,-49,227,249,-33
1,2641867,2472,888,2398,5033,129,-52,227,249,-33
1,2641883,2476,862,2394,5020,128,-54,227,249,-33
1,2641898,2469,873,2402,5017,125,-54,227,249,-33
1,2641913,2469,873,2402,5017,125,-54,227,249,-33
1,2641927,2479,862,2393,5027,130,-59,227,249,-33
1,2641940,2472,878,2405,5027,125,-60,226,240,-40
1,2641953,2472,878,2405,5027,125,-60,226,240,-40
1,2641968,2478,849,2397,5021,119,-58,226,240,-40
1,2641981,2474,860,2397,5017,124,-53,226,240,-40
1,2641994,2474,860,2397,5017,124,-53,226,240,-40
1,2642007,2477,845,2399,5018,132,-55,226,240,-40
1,2642019,2475,848,2393,5020,122,-58,226,240,-40
1,2642034,2475,848,2393,5020,122,-58,226,240,-40
1,2642048,2475,809,2396,5028,120,-58,226,240,-40
1,2642062,2478,856,2388,5015,120,-58,226,240,-38
1,2642071,2478,856,2388,5015,120,-58,226,240,-38
1,2642081,2476,840,2406,5016,121,-48,226,240,-38
1,2642097,2473,834,2390,5016,119,-49,226,240,-38
1,2642109,2473,834,2390,5016,119,-49,226,240,-38
1,2642124,2479,833,2398,5018,123,-62,226,240,-38
1,2642140,2475,850,2392,5027,131,-63,226,240,-38
1,2642154,2475,850,2392,5027,131,-63,226,240,-38
1,2642167,2479,849,2399,5018,127,-53,226,240,-38
1,2642181,2474,839,2391,5016,119,-53,222,240,-38
1,2642193,2474,839,2391,5016,119,-53,222,240,-38
1,2642204,2475,845,2397,5010,119,-59,222,240,-38
1,2642219,2481,841,2389,5012,124,-61,222,240,-38
1,2642231,2481,841,2389,5012,124,-61,222,240,-38
1,2642245,2472,844,2385,5005,116,-56,222,240,-38
1,2642256,2472,839,2392,5010,128,-51,222,240,-38
1,2642270,2472,839,2392,5010,128,-51,222,240,-38
1,2642283,2477,847,2389,5011,126,-60,222,240,-38
1,2642296,2478,837,2394,5017,116,-51,222,240,-38
1,2642312,2478,837,2394,5017,116,-51,222,240,-38
1,2642326,2475,846,2397,5013,115,-48,221,243,-53
1,2642339,2479,849,2396,5011,128,-56,221,243,-53
1,2642353,2479,849,2396,5011,128,-56,221,243,-53
1,2642367,2477,852,2387,5011,122,-60,221,243,-53
1,2642382,2478,839,2387,5012,123,-52,221,243,-53
1,2642396,2478,839,2387,5012,123,-52,221,243,-53
1,2642408,2478,839,2387,5012,123,-52,221,243,-53
1,2642421,2474,857,2387,5017,131,-62,221,243,-53
1,2642436,2474,857,2387,5017,131,-62,221,243,-53
1,2642449,2474,859,2385,5000,124,-57,220,232,-56
1,2642463,2475,856,2393,5004,120,-52,220,232,-56
1,2642478,2475,879,2387,5002,125,-54,220,232,-56
1,2642492,2475,879,2387,5002,125,-54,220,232,-56
1,2642504,2475,908,2387,5004,123,-52,220,232,-56
1,2642518,2473,882,2388,5007,111,-51,220,232,-56
1,2642531,2473,882,2388,5007,111,-51,220,232,-56
1,2642545,2472,881,2387,5009,119,-61,220,232,-56
1,2642561,2480,883,2392,5003,120,-55,228,238,-68
1,2642576,2480,883,2392,5003,120,-55,228,238,-68
1,2642589,2466,896,2391,5014,113,-50,228,238,-68
1,2642603,2470,878,2388,5018,115,-56,228,238,-68
1,2642616,2470,879,2392,5019,126,-57,228,238,-68
1,2642627,2470,879,2392,5019,126,-57,228,238,-68
1,2642640,2479,871,2391,5018,120,-55,228,238,-68
1,2642655,2479,871,2391,5018,120,-55,228,238,-68
1,2642668,2470,878,2395,5017,125,-53,228,238,-68
1,2642681,2473,863,2398,5020,125,-62,219,229,-75
1,2642696,2474,868,2404,5020,123,-58,219,229,-75
1,2642707,2474,868,2404,5020,123,-58,219,229,-75
1,2642717,2481,849,2401,5020,114,-55,219,229,-75
1,2642732,2481,849,2401,5020,114,-55,219,229,-75
1,2642744,2473,857,2392,5023,118,-53,219,229,-75
1,2642755,2473,857,2392,5023,118,-53,219,229,-75
1,2642770,2476,859,2391,5025,118,-52,219,229,-75
1,2642786,2477,866,2395,5021,126,-61,219,229,-75
1,2642800,2475,843,2393,5018,122,-51,219,229,-75
1,2642812,2475,843,2393,5018,122,-51,219,229,-75
1,2642827,2474,858,2396,5018,120,-49,228,230,-80
1,2642842,2475,862,2397,5015,118,-45,228,230,-80
1,2642855,2475,862,2397,5015,118,-45,228,230,-80
1,2642870,2474,883,2392,5022,120,-48,228,230,-80
1,2642883,2475,861,2399,5021,114,-59,228,230,-80
1,2642896,2477,873,2390,5020,117,-54,228,230,-80
1,2642910,2477,873,2390,5020,117,-54,228,230,-80
1,2642922,2476,868,2397,5026,121,-50,228,230,-80
1,2642936,2472,890,2399,5024,119,-50,228,230,-80
1,2642950,2472,890,2399,5024,119,-50,214,228,-94
1,2642966,2473,859,2393,5022,129,-50,214,228,-94
1,2642980,2475,873,2395,5028,126,-55,214,228,-94
1,2642995,2475,873,2395,5028,126,-55,214,228,-94
1,2643008,2476,846,2400,5028,124,-50,214,228,-94
1,2643019,2470,865,2397,5023,130,-53,214,228,-94
1,2643032,2470,865,2397,5023,130,-53,214,228,-94
1,2643045,2477,840,2400,5020,127,-48,214,228,-94
1,2643060,2474,863,2398,5025,122,-54,222,214,-92
1,2643074,2474,863,2398,5025,122,-54,222,214,-92
1,2643087,2480,816,2399,5030,124,-52,222,214,-92
1,2643101,2471,841,2399,5027,123,-55,222,214,-92
1,2643116,2471,841,2399,5027,123,-55,222,214,-92
1,2643129,2480,833,2394,5026,117,-55,222,214,-92
1,2643141,2477,859,2397,5013,116,-47,222,214,-92
1,2643154,2477,859,2397,5013,116,-47,222,214,-92
1,2643168,2477,817,2391,5025,124,-55,222,214,-92
1,2643182,2474,850,2393,5027,123,-57,225,213,-103
1,2643196,2478,835,2393,5017,119,-49,225,213,-103
1,2643208,2478,835,2393,5017,119,-49,225,213,-103
1,2643223,2467,855,2393,5020,120,-52,225,213,-103
1,2643238,2483,828,2387,5010,117,-59,225,213,-103
1,2643253,2483,828,2387,5010,117,-59,225,213,-103
1,2643264,2472,855,2396,5020,124,-55,225,213,-103
1,2643277,2482,835,2397,5021,117,-56,225,213,-103
1,2643292,2482,835,2397,5021,117,-56,225,213,-103
1,2643305,2473,846,2388,5018,113,-48,225,213,-103
1,2643318,2476,837,2394,5014,126,-61,219,219,-109
1,2643333,2476,837,2394,5014,126,-61,219,219,-109
1,2643346,2476,847,2391,5016,127,-54,219,219,-109
1,2643358,2476,841,2388,5017,124,-52,219,219,-109
1,2643373,2476,841,2388,5017,124,-52,219,219,-109
1,2643386,2470,849,2380,5017,128,-43,219,219,-109
1,2643401,2477,846,2391,5016,127,-64,219,219,-109
1,2643416,2477,846,2391,5016,127,-64,219,219,-109
1,2643428,2473,840,2388,5009,121,-67,219,219,-109
1,2643442,2477,843,2388,5012,123,-54,233,225,-119
1,2643457,2477,846,2390,5009,126,-47,233,225,-119
1,2643472,2477,846,2390,5009,126,-47,233,225,-119
1,2643484,2480,852,2393,5009,126,-49,233,225,-119
1,2643497,2478,845,2388,5006,122,-48,233,225,-119
1,2643511,2478,845,2388,5006,122,-48,233,225,-119
1,2643525,2474,849,2384,5012,119,-59,233,225,-119
1,2643538,2475,853,2379,5004,128,-60,233,225,-119
1,2643553,2475,853,2379,5004,128,-60,233,225,-119
1,2643565,2471,868,2385,5003,125,-55,248,224,-122
1,2643577,2472,866,2382,5004,124,-52,248,224,-122
1,2643593,2472,866,2382,5004,124,-52,248,224,-122
1,2643606,2471,913,2390,4996,118,-56,248,224,-122
1,2643619,2471,913,2390,4996,118,-56,248,224,-122
1,2643634,2471,913,2390,4996,118,-56,248,224,-122
1,2643649,2475,894,2388,5014,121,-56,248,224,-122
1,2643664,2476,904,2391,5018,125,-54,248,224,-122
1,2643680,2467,909,2397,5022,130,-49,251,223,-141
1,2643693,2467,909,2397,5022,130,-49,251,223,-141
1,2643707,2476,906,2399,5017,126,-49,251,223,-141
1,2643722,2467,879,2390,5023,122,-59,251,223,-141
1,2643731,2467,879,2390,5023,122,-59,251,223,-141
1,2643745,2473,884,2393,5032,125,-54,251,223,-141
1,2643759,2478,863,2397,5029,127,-52,251,223,-141
1,2643772,2478,863,2397,5029,127,-52,251,223,-141
1,2643786,2471,867,2397,5023,125,-53,251,223,-141
1,2643798,2477,850,2399,5011,127,-62,253,231,-135
1,2643811,2477,850,2399,5011,127,-62,253,231,-135
1,2643824,2474,859,2408,5016,126,-55,253,231,-135
1,2643838,2479,851,2399,5026,118,-48,253,231,-135
1,2643853,2479,851,2399,5026,118,-48,253,231,-135
1,2643867,2472,872,2398,5017,116,-54,253,231,-135
1,2643883,2481,857,2400,5014,122,-56,253,231,-135
1,2643896,2481,857,2400,5014,122,-56,253,231,-135
1,2643910,2473,865,2394,5015,128,-52,253,231,-135
1,2643924,2477,852,2395,5015,128,-48,253,231,-135
1,2643939,2470,871,2399,5025,127,-43,271,219,-149
1,2643950,2470,871,2399,5025,127,-43,271,219,-149
1,2643964,2476,858,2402,5022,125,-53,271,219,-149
1,2643979,2475,859,2397,5022,127,-55,271,219,-149
1,2643992,2475,859,2397,5022,127,-55,271,219,-149
1,2644005,2477,842,2400,5024,127,-56,271,219,-149
1,2644020,2479,861,2393,5027,125,-51,271,219,-149
1,2644032,2479,861,2393,5027,125,-51,271,219,-149
1,2644045,2479,851,2400,5021,125,-50,271,219,-149
1,2644059,2474,855,2401,5020,123,-52,275,229,-153
1,2644072,2474,855,2401,5020,123,-52,275,229,-153
1,2644087,2478,846,2395,5019,124,-63,275,229,-153
1,2644102,2474,855,2390,5023,123,-48,275,229,-153
1,2644117,2474,847,2397,5018,122,-43,275,229,-153
1,2644130,2474,847,2397,5018,122,-43,275,229,-153
1,2644145,2474,828,2388,5021,120,-50,275,229,-153
1,2644160,2478,847,2397,5020,120,-58,275,229,-153
1,2644172,2478,847,2397,5020,120,-58,275,229,-153
1,2644184,2475,840,2394,5023,115,-52,276,214,-156
1,2644198,2477,841,2399,5021,119,-47,276,214,-156
1,2644211,2477,841,2399,5021,119,-47,276,214,-156
1,2644226,2481,836,2399,5020,120,-55,276,214,-156
1,2644240,2478,846,2397,5018,123,-50,276,214,-156
1,2644250,2478,846,2397,5018,123,-50,276,214,-156
1,2644263,2478,846,2397,5018,123,-50,276,214,-156
1,2644277,2474,843,2393,5017,124,-48,276,214,-156
1,2644290,2474,843,2393,5017,124,-48,276,214,-156
1,2644304,2479,843,2386,5022,126,-60,285,215,-155
1,2644320,2477,841,2392,5016,122,-57,285,215,-155
1,2644333,2477,841,2392,5016,122,-57,285,215,-155
1,2644346,2474,850,2381,5010,122,-47,285,215,-155
1,2644362,2471,845,2388,5011,124,-44,285,215,-155
1,2644377,2478,845,2390,5012,117,-59,285,215,-155
1,2644391,2478,845,2390,5012,117,-59,285,215,-155
1,2644403,2478,845,2390,5012,117,-59,285,215,-155
1,2644416,2478,845,2390,5012,117,-59,285,215,-155
1,2644430,2475,854,2386,5017,119,-48,285,215,-155
1,2644444,2479,856,2392,5004,115,-50,293,223,-151
1,2644458,2475,868,2396,5008,126,-52,293,223,-151
1,2644470,2475,868,2396,5008,126,-52,293,223,-151
1,2644482,2479,856,2385,5005,125,-55,293,223,-151
1,2644495,2479,856,2385,5005,125,-55,293,223,-151
1,2644507,2471,867,2383,5013,123,-50,293,223,-151
1,2644521,2474,868,2387,5009,126,-53,293,223,-151
1,2644536,2474,868,2387,5009,126,-53,293,223,-151
1,2644548,2473,874,2388,5007,120,-52,293,223,-151
1,2644563,2474,860,2392,5014,117,-51,298,218,-158
1,2644579,2472,878,2396,5009,124,-58,298,218,-158
1,2644593,2472,878,2396,5009,124,-58,298,218,-158
1,2644604,2472,877,2386,5013,128,-60,298,218,-158
1,2644618,2472,894,2388,5010,133,-59,298,218,-158
1,2644632,2472,894,2388,5010,133,-59,298,218,-158
1,2644645,2471,877,2388,5021,123,-61,298,218,-158
1,2644660,2475,906,2390,5020,124,-58,298,218,-158
1,2644674,2475,906,2390,5020,124,-58,298,218,-158
1,2644685,2476,873,2398,5017,122,-54,303,221,-153
1,2644699,2470,889,2391,5025,125,-55,303,221,-153
1,2644712,2470,889,2391,5025,125,-55,303,221,-153
1,2644726,2472,866,2396,5019,114,-53,303,221,-153
1,2644741,2472,888,2392,5023,121,-51,303,221,-153
1,2644755,2472,888,2392,5023,121,-51,303,221,-153
1,2644768,2477,860,2397,5017,116,-57,303,221,-153
1,2644782,2471,882,2395,5023,124,-57,303,221,-153
1,2644797,2476,864,2405,5023,125,-51,313,221,-151
1,2644813,2476,864,2405,5023,125,-51,313,221,-151
1,2644828,2472,876,2398,5013,123,-52,313,221,-151
1,2644841,2476,852,2402,5027,124,-56,313,221,-151
1,2644853,2476,852,2402,5027,124,-56,313,221,-151
1,2644867,2474,866,2396,5027,133,-50,313,221,-151
1,2644880,2478,855,2396,5025,127,-53,313,221,-151
1,2644889,2478,855,2396,5025,127,-53,313,221,-151
1,2644902,2473,842,2396,5027,123,-49,313,221,-151
1,2644917,2473,842,2396,5027,123,-49,313,221,-151
1,2644930,2472,822,2395,5026,124,-61,313,221,-151
1,2644943,2478,847,2398,5017,128,-51,315,221,-153
1,2644958,2480,849,2402,5026,126,-51,315,221,-153
1,2644969,2480,849,2402,5026,126,-51,315,221,-153
1,2644983,2472,825,2393,5030,120,-55,315,221,-153
1,2644998,2481,850,2399,5019,119,-61,315,221,-153
1,2645011,2481,850,2399,5019,119,-61,315,221,-153
1,2645024,2478,841,2395,5011,128,-54,315,221,-153
1,2645040,2469,855,2394,5018,123,-56,315,221,-153
1,2645055,2469,855,2394,5018,123,-56,315,221,-153
1,2645069,2476,830,2396,5016,121,-61,317,229,-155
1,2645084,2469,858,2394,5019,132,-62,317,229,-155
1,2645096,2469,858,2394,5019,132,-62,317,229,-155
1,2645108,2482,827,2393,5018,121,-61,317,229,-155
1,2645120,2472,853,2382,5015,119,-56,317,229,-155
1,2645134,2472,853,2382,5015,119,-56,317,229,-155
1,2645147,2475,832,2397,5022,121,-54,317,229,-155
1,2645160,2476,861,2393,5020,128,-54,317,229,-155
1,2645172,2476,861,2393,5020,128,-54,317,229,-155
1,2645184,2477,826,2400,5018,119,-49,318,230,-148
1,2645198,2476,856,2387,5019,127,-53,318,230,-148
1,2645213,2476,856,2387,5019,127,-53,318,230,-148
1,2645227,2478,843,2400,5008,127,-49,318,230,-148
1,2645241,2473,861,2384,5007,121,-54,318,230,-148
1,2645254,2473,861,2384,5007,121,-54,318,230,-148
1,2645268,2477,832,2391,5008,122,-53,318,230,-148
1,2645280,2473,852,2384,4999,124,-49,318,230,-148
1,2645294,2473,852,2384,4999,124,-49,318,230,-148
1,2645307,2479,839,2394,5009,120,-45,323,247,-143
1,2645320,2478,856,2392,5016,119,-54,323,247,-143
1,2645335,2478,856,2392,5016,119,-54,323,247,-143
1,2645347,2479,845,2387,5014,119,-59,323,247,-143
1,2645358,2476,870,2388,5010,125,-52,323,247,-143
1,2645371,2476,870,2388,5010,125,-52,323,247,-143
1,2645384,2475,872,2392,5011,130,-49,323,247,-143
1,2645398,2471,912,2383,5017,122,-57,323,247,-143
1,2645411,2471,912,2383,5017,122,-57,323,247,-143
1,2645424,2474,875,2395,5010,122,-55,323,247,-143
1,2645436,2474,875,2395,5010,122,-55,323,247,-143
1,2645450,2472,884,2394,5010,122,-55,330,246,-136
1,2645464,2475,882,2399,5017,131,-53,330,246,-136
1,2645478,2469,888,2390,5009,121,-53,330,246,-136
1,2645493,2469,888,2390,5009,121,-53,330,246,-136
1,2645508,2471,875,2394,5018,125,-43,330,246,-136
1,2645522,2472,876,2394,5011,121,-57,330,246,-136
1,2645535,2472,876,2394,5011,121,-57,330,246,-136
1,2645548,2474,877,2395,5016,117,-55,330,246,-136
1,2645559,2470,869,2401,5024,124,-55,326,234,-140
1,2645573,2470,869,2401,5024,124,-55,326,234,-140
1,2645586,2473,870,2392,5013,121,-54,326,234,-140
1,2645601,2475,853,2402,5014,128,-53,326,234,-140
1,2645614,2475,853,2402,5014,128,-53,326,234,-140
1,2645628,2474,860,2392,5015,127,-50,326,234,-140
1,2645641,2473,856,2396,5015,127,-53,326,234,-140
1,2645654,2473,856,2396,5015,127,-53,326,234,-140
1,2645667,2471,870,2396,5023,125,-58,326,234,-140
1,2645681,2475,854,2401,5025,123,-63,330,246,-134
1,2645695,2475,854,2401,5025,123,-63,330,246,-134
1,2645708,2473,861,2397,5025,124,-55,330,246,-134
1,2645722,2477,863,2395,5030,122,-56,330,246,-134
1,2645736,2477,863,2395,5030,122,-56,330,246,-134
1,2645751,2471,880,2395,5028,120,-51,330,246,-134
1,2645768,2474,862,2397,5021,117,-54,330,246,-134
1,2645782,2476,874,2395,5019,119,-54,330,246,-134
1,2645795,2476,874,2395,5019,119,-54,330,246,-134
1,2645810,2475,863,2401,5020,120,-47,335,245,-119
1,2645824,2472,890,2402,5018,115,-50,335,245,-119
1,2645837,2474,863,2399,5022,124,-54,335,245,-119
1,2645851,2474,863,2399,5022,124,-54,335,245,-119
1,2645863,2472,873,2397,5020,124,-63,335,245,-119
1,2645878,2477,844,2399,5027,130,-56,335,245,-119
1,2645894,2477,844,2399,5027,130,-56,335,245,-119
1,2645908,2472,866,2393,5024,127,-49,335,245,-119
1,2645922,2474,853,2398,5032,125,-59,333,243,-119
1,2645937,2474,853,2398,5032,125,-59,333,243,-119
1,2645950,2471,862,2403,5026,130,-52,333,243,-119
1,2645964,2482,803,2401,5030,128,-56,333,243,-119
1,2645977,2480,853,2397,5024,120,-49,333,243,-119
1,2645988,2480,853,2397,5024,120,-49,333,243,-119
1,2646003,2478,843,2393,5029,124,-52,333,243,-119
1,2646020,2471,851,2400,5020,126,-52,333,243,-119
1,2646034,2471,851,2400,5020,126,-52,333,243,-119
1,2646045,2480,825,2389,5021,129,-61,333,243,-119
1,2646060,2477,842,2391,5020,131,-54,329,243,-113
1,2646073,2477,842,2391,5020,131,-54,329,243,-113
1,2646086,2481,844,2396,5017,127,-53,329,243,-113
1,2646100,2470,840,2395,5021,124,-50,329,243,-113
1,2646115,2470,840,2395,5021,124,-50,329,243,-113
1,2646129,2480,836,2391,5024,127,-56,329,243,-113
1,2646142,2475,837,2397,5015,126,-47,329,243,-113
1,2646157,2475,837,2397,5015,126,-47,329,243,-113
1,2646170,2475,846,2389,5016,123,-51,329,243,-113
1,2646183,2469,839,2397,5014,125,-47,335,243,-107
1,2646198,2474,846,2387,5009,123,-56,335,243,-107
1,2646213,2474,846,2387,5009,123,-56,335,243,-107
1,2646227,2481,830,2392,5016,126,-48,335,243,-107
1,2646242,2475,845,2385,5016,119,-45,335,243,-107
1,2646256,2475,845,2385,5016,119,-45,335,243,-107
1,2646272,2474,845,2389,5012,121,-49,335,243,-107
1,2646287,2472,855,2389,5015,129,-59,335,243,-107
1,2646299,2477,830,2386,5007,129,-61,326,244,-90
1,2646309,2477,830,2386,5007,129,-61,326,244,-90
1,2646323,2472,835,2384,5012,123,-51,326,244,-90
1,2646336,2472,835,2384,5012,123,-51,326,244,-90
1,2646350,2479,850,2384,5009,123,-51,326,244,-90
1,2646364,2473,853,2389,5015,123,-47,326,244,-90
1,2646375,2473,853,2389,5015,123,-47,326,244,-90
1,2646390,2478,839,2384,5006,123,-58,326,244,-90
1,2646405,2476,846,2391,5009,124,-55,326,244,-90
1,2646417,2476,846,2391,5009,124,-55,326,244,-90
1,2646431,2479,858,2390,5011,122,-49,330,246,-96
1,2646446,2474,872,2390,5003,117,-51,330,246,-96
1,2646458,2473,875,2384,5000,121,-58,330,246,-96
1,2646473,2473,875,2384,5000,121,-58,330,246,-96
1,2646489,2474,918,2381,5001,123,-64,330,246,-96
1,2646504,2469,891,2390,5006,123,-53,330,246,-96
1,2646515,2469,891,2390,5006,123,-53,330,246,-96
1,2646531,2468,897,2384,5012,120,-56,330,246,-96
1,2646546,2473,912,2385,5018,123,-52,330,246,-96
1,2646560,2465,907,2397,5020,125,-49,322,244,-86
1,2646574,2465,907,2397,5020,125,-49,322,244,-86
1,2646587,2471,897,2391,5020,119,-47,322,244,-86
1,2646599,2470,878,2401,5033,121,-57,322,244,-86
1,2646615,2470,878,2401,5033,121,-57,322,244,-86
1,2646630,2472,875,2396,5026,123,-58,322,244,-86
1,2646643,2476,860,2403,5022,120,-50,322,244,-86
1,2646657,2476,860,2403,5022,120,-50,322,244,-86
1,2646671,2469,865,2391,5027,118,-49,322,244,-86
1,2646684,2473,855,2400,5028,124,-59,312,236,-72
1,2646700,2478,848,2390,5017,123,-57,312,236,-72
1,2646713,2478,848,2390,5017,123,-57,312,236,-72
1,2646726,2474,858,2399,5017,114,-56,312,236,-72
1,2646742,2468,859,2390,5020,121,-45,312,236,-72
1,2646753,2468,859,2390,5020,121,-45,312,236,-72
1,2646766,2477,869,2398,5017,131,-52,312,236,-72
1,2646782,2478,853,2396,5019,123,-60,312,236,-72
1,2646797,2474,863,2396,5022,115,-56,307,241,-72
1,2646810,2474,863,2396,5022,115,-56,307,241,-81
1,2646824,2473,859,2399,5025,119,-54,307,241,-81
1,2646838,2475,868,2396,5027,125,-54,307,241,-81
1,2646850,2475,868,2396,5027,125,-54,307,241,-81
1,2646864,2475,847,2398,5021,127,-51,307,241,-81
1,2646878,2475,857,2392,5026,120,-50,307,241,-81
1,2646891,2475,857,2392,5026,120,-50,307,241,-81
1,2646905,2473,858,2400,5025,124,-51,307,241,-81
1,2646919,2472,857,2399,5018,123,-51,299,239,-65
1,2646932,2472,857,2399,5018,123,-51,299,239,-65
1,2646944,2477,847,2400,5016,124,-58,299,239,-65
1,2646958,2478,855,2403,5020,120,-52,299,239,-65
1,2646971,2478,855,2403,5020,120,-52,299,239,-65
1,2646985,2478,851,2393,5018,125,-52,299,239,-65
1,2647001,2474,855,2393,5019,118,-54,299,239,-65
1,2647016,2474,855,2393,5019,118,-54,299,239,-65
1,2647031,2474,832,2394,5020,116,-53,299,239,-65
1,2647045,2475,844,2389,5024,124,-62,299,239,-65
1,2647059,2477,838,2397,5024,120,-49,293,237,-63
1,2647070,2477,838,2397,5024,120,-49,293,237,-63
1,2647081,2473,849,2391,5022,124,-53,293,237,-63
1,2647095,2473,849,2391,5022,124,-53,293,237,-63
1,2647109,2473,823,2388,5027,123,-60,293,237,-63
1,2647122,2481,845,2389,5018,122,-59,293,237,-63
1,2647137,2481,845,2389,5018,122,-59,293,237,-63
1,2647149,2478,839,2397,5022,123,-51,293,237,-63
1,2647162,2474,855,2392,5022,124,-45,293,237,-63
1,2647176,2474,855,2392,5022,124,-45,293,237,-63
1,2647189,2479,838,2392,5025,119,-64,293,247,-49
1,2647203,2477,853,2390,5016,121,-57,293,247,-49
1,2647217,2477,853,2390,5016,121,-57,293,247,-49
1,2647231,2475,847,2392,5018,127,-50,293,247,-49
1,2647245,2472,850,2383,5017,126,-56,293,247,-49
1,2647261,2472,842,2387,5017,126,-62,293,247,-49
1,2647276,2472,842,2387,5017,126,-62,293,247,-49
1,2647288,2478,846,2385,5013,119,-51,293,247,-49
1,2647301,2476,844,2391,5012,121,-48,298,238,-44
1,2647316,2476,844,2391,5012,121,-48,298,238,-44
1,2647329,2476,844,2391,5012,121,-48,298,238,-44
1,2647344,2475,866,2388,5013,122,-47,298,238,-44
1,2647357,2475,866,2388,5013,122,-47,298,238,-44
1,2647371,2477,865,2389,5007,120,-58,298,238,-44
1,2647387,2474,857,2386,5007,117,-56,298,238,-44
1,2647400,2471,864,2384,5007,119,-50,298,238,-44
1,2647413,2471,864,2384,5007,119,-50,298,238,-44
1,2647428,2476,869,2383,5009,117,-52,283,233,-43
1,2647441,2471,870,2393,5009,115,-49,283,233,-43
1,2647455,2471,870,2393,5009,115,-49,283,233,-43
1,2647469,2471,874,2389,5009,120,-51,283,233,-43
1,2647483,2471,882,2393,5017,122,-55,283,233,-43
1,2647497,2471,882,2393,5017,122,-55,283,233,-43
1,2647512,2469,880,2387,5016,121,-51,283,233,-43
1,2647526,2473,890,2389,5017,123,-58,283,233,-43
1,2647538,2471,886,2393,5023,123,-57,283,233,-43
1,2647553,2471,886,2393,5023,123,-57,283,233,-43
1,2647569,2473,888,2397,5022,124,-56,279,229,-31
1,2647576,2473,888,2397,5022,124,-56,279,229,-31
1,2647585,2468,875,2388,5016,126,-55,279,229,-31
1,2647592,2468,875,2388,5016,126,-55,279,229,-31
1,2647605,2475,883,2397,5023,126,-60,279,229,-31
1,2647617,2472,864,2389,5023,122,-51,279,229,-31
1,2647631,2472,864,2389,5023,122,-51,279,229,-31
1,2647645,2468,875,2397,5026,125,-58,279,229,-31
1,2647658,2471,863,2389,5022,123,-51,279,229,-31
1,2647672,2471,863,2389,5022,123,-51,279,229,-31
1,2647687,2469,869,2406,5016,123,-54,271,239,-31
1,2647699,2474,851,2396,5017,117,-55,271,239,-31
1,2647713,2474,851,2396,5017,117,-55,271,239,-31
1,2647727,2474,860,2395,5020,115,-51,271,239,-31
1,2647741,2476,851,2394,5016,124,-45,271,239,-31
1,2647756,2476,851,2394,5016,124,-45,271,239,-31
1,2647772,2474,860,2396,5021,126,-57,271,239,-31
1,2647787,2477,824,2395,5026,122,-58,271,239,-31
1,2647801,2478,839,2398,5023,122,-55,278,232,-32
1,2647815,2478,839,2398,5023,122,-55,278,232,-32
1,2647829,2473,838,2391,5020,125,-51,278,232,-32
1,2647844,2474,857,2395,5017,124,-48,278,232,-32
1,2647857,2474,857,2395,5017,124,-48,278,232,-32
1,2647868,2472,821,2392,5024,121,-56,278,232,-32
1,2647881,2480,852,2394,5024,119,-62,278,232,-32
1,2647895,2480,852,2394,5024,119,-62,278,232,-32
1,2647909,2477,830,2388,5029,120,-53,278,232,-32
1,2647921,2472,863,2394,5026,117,-48,262,230,-32
1,2647932,2472,863,2394,5026,117,-48,262,230,-32
1,2647947,2478,840,2392,5014,126,-55,262,230,-32
1,2647961,2476,858,2392,5015,124,-61,262,230,-32
1,2647974,2476,858,2392,5015,124,-61,262,230,-32
1,2647990,2479,832,2390,5013,123,-54,262,230,-32
1,2648004,2469,852,2386,5019,121,-49,262,230,-32
1,2648018,2473,841,2389,5016,126,-50,262,230,-32
1,2648032,2473,841,2389,5016,126,-50,262,230,-32
1,2648046,2475,852,2388,5016,129,-53,255,233,-21
1,2648059,2475,832,2395,5008,116,-50,255,233,-21
1,2648072,2475,832,2395,5008,116,-50,255,233,-21
1,2648085,2474,851,2388,5011,113,-53,255,233,-21
1,2648098,2476,851,2392,5012,121,-51,255,233,-21
1,2648113,2476,851,2392,5012,121,-51,255,233,-21
1,2648126,2477,855,2388,5010,124,-54,255,233,-21
1,2648136,2477,855,2388,5010,124,-54,255,233,-21
1,2648150,2473,845,2382,5010,124,-49,255,233,-21
1,2648164,2475,856,2387,5009,127,-55,255,233,-21
1,2648177,2475,856,2387,5009,127,-55,255,233,-21
1,2648192,2475,859,2390,5007,127,-50,247,233,-25
1,2648208,2471,863,2384,5008,123,-56,247,233,-25
1,2648222,2472,859,2384,5008,129,-56,247,233,-25
1,2648237,2472,859,2384,5008,129,-56,247,233,-25
1,2648251,2474,909,2389,5012,125,-54,247,233,-25
1,2648260,2471,883,2393,5018,123,-47,247,233,-25
1,2648273,2471,883,2393,5018,123,-47,247,233,-25
1,2648288,2473,886,2392,5018,123,-54,247,233,-25
1,2648301,2477,875,2393,5018,129,-61,242,234,-16
1,2648315,2477,875,2393,5018,129,-61,242,234,-16
1,2648329,2473,899,2393,5019,127,-45,242,234,-16
1,2648343,2470,876,2390,5016,121,-47,242,234,-16
1,2648357,2470,880,2395,5023,122,-54,242,234,-16
1,2648371,2470,880,2395,5023,122,-54,242,234,-16
1,2648385,2475,867,2383,5023,119,-54,242,234,-16
1,2648398,2469,870,2398,5026,129,-46,242,234,-16
1,2648413,2469,870,2398,5026,129,-46,242,234,-16
1,2648427,2471,861,2396,5026,118,-48,242,234,-30
1,2648440,2474,862,2405,5022,125,-59,242,234,-30
1,2648453,2474,862,2405,5022,125,-59,242,234,-30
1,2648468,2475,849,2393,5020,121,-57,242,234,-30
1,2648482,2477,854,2402,5020,115,-53,242,234,-30
1,2648497,2477,854,2402,5020,115,-53,242,234,-30
1,2648509,2470,853,2391,5016,117,-51,242,234,-30
1,2648524,2473,863,2403,5019,128,-54,242,234,-30
1,2648540,2474,846,2392,5023,121,-63,238,228,-22
1,2648554,2474,846,2392,5023,121,-63,238,228,-22
1,2648567,2471,847,2398,5020,115,-56,238,228,-22
1,2648582,2474,851,2389,5022,124,-56,238,228,-22
1,2648595,2474,851,2389,5022,124,-56,238,228,-22
1,2648611,2473,862,2391,5024,122,-59,238,228,-22
1,2648623,2476,848,2392,5025,125,-52,238,228,-22
1,2648636,2476,848,2392,5025,125,-52,238,228,-22
1,2648649,2476,857,2398,5020,127,-53,238,228,-22
1,2648664,2477,858,2401,5026,125,-54,238,228,-22
1,2648678,2477,858,2401,5026,125,-54,238,228,-22
1,2648693,2475,869,2408,5023,127,-57,237,243,-29
1,2648708,2472,860,2393,5026,124,-51,237,243,-29
1,2648720,2477,863,2392,5023,118,-58,237,243,-29
1,2648735,2477,863,2392,5023,118,-58,237,243,-29
1,2648751,2473,862,2398,5025,122,-61,237,243,-29
1,2648765,2475,854,2394,5026,114,-61,237,243,-29
1,2648775,2475,854,2394,5026,114,-61,237,243,-29
1,2648788,2472,851,2396,5013,115,-57,237,243,-29
1,2648803,2478,854,2402,5020,119,-62,237,235,-29
1,2648816,2478,854,2402,5020,119,-62,237,235,-29
1,2648829,2476,817,2398,5027,123,-50,237,235,-29
1,2648842,2478,842,2397,5026,121,-51,237,235,-29
1,2648850,2478,842,2397,5026,121,-51,237,235,-29
1,2648864,2479,838,2396,5019,121,-50,237,235,-29
1,2648879,2474,859,2394,5025,121,-47,237,235,-29
1,2648887,2474,859,2394,5025,121,-47,237,235,-29
1,2648901,2477,817,2391,5018,124,-54,237,235,-29
1,2648915,2477,817,2391,5018,124,-54,237,235,-29
1,2648930,2476,853,2398,5012,126,-46,228,242,-34
1,2648944,2478,832,2391,5013,124,-48,228,242,-34
1,2648958,2467,850,2393,5016,118,-39,228,242,-34
1,2648971,2467,850,2393,5016,118,-39,228,242,-34
1,2648986,2480,825,2389,5007,118,-57,228,242,-34
1,2649001,2473,846,2386,5013,130,-56,228,242,-34
1,2649015,2473,846,2386,5013,130,-56,228,242,-34
1,2649026,2476,830,2393,5009,121,-57,228,242,-34
1,2649040,2470,847,2389,5020,117,-56,229,241,-37
1,2649055,2470,847,2389,5020,117,-56,229,241,-37
1,2649069,2477,836,2397,5020,128,-60,229,241,-37
1,2649082,2474,849,2387,5016,127,-58,229,241,-37
1,2649095,2474,849,2387,5016,127,-58,229,241,-37
1,2649109,2479,835,2387,5009,122,-53,229,241,-37
1,2649122,2470,846,2384,5009,120,-50,229,241,-37
1,2649138,2470,846,2384,5009,120,-50,229,241,-37
1,2649152,2478,843,2387,5012,117,-64,229,241,-37
1,2649166,2477,846,2390,5007,127,-54,229,241,-37
1,2649180,2473,833,2384,5016,120,-49,222,240,-40
1,2649194,2473,833,2384,5016,120,-49,222,240,-40
1,2649208,2474,849,2388,5011,120,-53,222,240,-40
1,2649222,2476,845,2386,5012,126,-60,222,240,-40
1,2649236,2476,845,2386,5012,126,-60,222,240,-40
1,2649249,2476,845,2386,5012,126,-60,222,240,-40
1,2649262,2477,847,2384,5006,127,-59,222,240,-40
1,2649275,2477,847,2384,5006,127,-59,222,240,-40
1,2649288,2473,865,2385,5002,122,-62,222,240,-40
1,2649303,2472,871,2384,5003,119,-56,220,244,-38
1,2649316,2472,871,2384,5003,119,-56,220,244,-38
1,2649328,2469,919,2386,5003,127,-54,220,244,-38
1,2649340,2470,878,2385,5005,123,-53,220,244,-38
1,2649354,2470,878,2385,5005,123,-53,220,244,-38
1,2649366,2471,895,2384,5005,122,-55,220,244,-38
1,2649381,2477,882,2383,5015,122,-51,220,244,-38
1,2649397,2477,882,2383,5015,122,-51,220,244,-38
1,2649412,2465,910,2395,5017,120,-51,220,244,-38
1,2649425,2471,881,2398,5018,120,-54,226,242,-52
1,2649439,2469,897,2397,5021,122,-63,226,242,-52
1,2649450,2469,897,2397,5021,122,-63,226,242,-52
1,2649463,2475,868,2393,5025,124,-57,226,242,-52
1,2649479,2468,885,2399,5026,124,-55,226,242,-52
1,2649494,2468,885,2399,5026,124,-55,226,242,-52
1,2649507,2470,856,2391,5028,119,-50,226,242,-52
1,2649521,2473,868,2397,5017,120,-59,226,242,-52
1,2649538,2473,868,2397,5017,120,-59,226,242,-52
1,2649550,2477,836,2397,5020,125,-61,223,237,-67
1,2649562,2474,856,2403,5026,126,-61,223,237,-67
1,2649575,2474,856,2403,5026,126,-61,223,237,-67
1,2649588,2477,848,2403,5020,119,-49,223,237,-67
1,2649604,2474,865,2401,5020,120,-54,223,237,-67
1,2649617,2474,865,2401,5020,120,-54,223,237,-67
1,2649631,2479,840,2398,5021,124,-53,223,237,-67
1,2649646,2471,863,2391,5023,129,-54,223,237,-67
1,2649659,2479,853,2401,5017,124,-51,223,237,-67
1,2649673,2479,853,2401,5017,124,-51,223,237,-67
1,2649689,2471,869,2395,5016,123,-54,225,239,-67
1,2649704,2477,848,2399,5018,124,-58,225,239,-67
1,2649715,2477,848,2399,5018,124,-58,225,239,-67
1,2649729,2472,856,2391,5024,117,-57,225,239,-67
1,2649742,2472,847,2402,5020,124,-57,225,239,-67
1,2649755,2472,847,2402,5020,124,-57,225,239,-67
1,2649769,2473,858,2392,5022,122,-52,225,239,-67
1,2649779,2475,844,2401,5026,125,-56,225,239,-67
1,2649787,2475,844,2401,5026,125,-56,225,239,-67
1,2649800,2474,852,2397,5018,121,-53,222,236,-66
1,2649812,2474,852,2397,5018,121,-53,222,236,-66
1,2649826,2474,853,2400,5030,117,-54,222,236,-66
1,2649840,2474,860,2392,5028,127,-54,222,236,-66
1,2649854,2474,860,2392,5028,127,-54,222,236,-66
1,2649868,2475,848,2394,5018,127,-52,222,236,-66
1,2649880,2476,844,2392,5020,130,-56,222,236,-66
1,2649893,2476,844,2392,5020,130,-56,222,236,-66
1,2649909,2475,824,2396,5022,129,-53,222,236,-66
1,2649923,2473,841,2396,5018,121,-48,229,227,-75
1,2649935,2473,841,2396,5018,121,-48,229,227,-75
1,2649949,2475,840,2398,5019,118,-48,229,227,-75
1,2649963,2475,846,2393,5018,128,-53,229,227,-75
1,2649976,2475,846,2393,5018,128,-53,229,227,-75
1,2649990,2475,827,2390,5014,118,-50,229,227,-75
1,2650004,2478,848,2390,5008,121,-56,229,227,-75
1,2650018,2479,838,2390,5006,125,-49,229,227,-75
1,2650033,2479,838,2390,5006,125,-49,229,227,-75
1,2650047,2470,852,2391,5011,123,-50,224,222,-76
1,2650060,2481,842,2394,5012,125,-51,224,222,-76
1,2650074,2481,842,2394,5012,125,-51,224,222,-76
1,2650087,2475,847,2389,5008,127,-54,224,222,-76
1,2650102,2478,841,2391,5018,125,-49,224,222,-76
1,2650118,2478,841,2391,5018,125,-49,224,222,-76
1,2650131,2475,844,2389,5011,121,-47,224,222,-76
1,2650144,2476,845,2389,5014,128,-56,224,222,-76
1,2650160,2474,850,2389,5012,126,-53,224,222,-76
1,2650175,2474,850,2389,5012,126,-53,224,222,-76
1,2650189,2473,855,2390,5010,121,-52,222,220,-104
1,2650202,2471,870,2385,5011,116,-50,222,220,-104
1,2650215,2471,870,2385,5011,116,-50,222,220,-104
1,2650229,2477,863,2391,5014,125,-57,222,220,-104
1,2650242,2473,872,2383,5015,131,-59,222,220,-104
1,2650256,2473,872,2383,5015,131,-59,222,220,-104
1,2650269,2472,865,2391,5013,122,-48,222,220,-104
1,2650285,2475,859,2387,5008,127,-57,222,220,-104
1,2650298,2475,859,2387,5008,127,-57,222,220,-104
1,2650311,2476,854,2398,5019,126,-53,224,222,-94
1,2650324,2470,872,2391,5012,125,-49,224,222,-94
1,2650338,2470,872,2391,5012,125,-49,224,222,-94
1,2650352,2474,874,2391,5010,125,-49,224,222,-94
1,2650363,2474,884,2388,5008,124,-52,224,222,-94
1,2650378,2474,884,2388,5008,124,-52,224,222,-94
1,2650388,2474,869,2387,5007,132,-52,224,222,-94
1,2650403,2472,894,2389,5018,128,-56,224,222,-94
1,2650418,2472,894,2389,5018,128,-56,224,222,-94
1,2650431,2469,871,2399,5019,124,-50,228,214,-106
1,2650449,2473,892,2394,5016,123,-50,228,214,-106
1,2650463,2473,892,2394,5016,123,-50,228,214,-106
1,2650477,2473,892,2394,5016,123,-50,228,214,-106
1,2650491,2469,880,2394,5025,118,-53,228,214,-106
1,2650503,2468,855,2397,5022,124,-52,228,214,-106
1,2650517,2468,855,2397,5022,124,-52,228,214,-106
1,2650532,2471,876,2394,5022,123,-55,228,214,-106
1,2650546,2477,851,2400,5023,124,-53,218,216,-120
1,2650560,2471,858,2403,5022,123,-55,218,216,-120
1,2650573,2471,858,2403,5022,123,-55,218,216,-120
1,2650588,2474,846,2399,5014,126,-49,218,216,-120
1,2650603,2470,863,2395,5025,124,-59,218,216,-120
1,2650619,2477,848,2397,5032,114,-55,218,216,-120
1,2650635,2477,848,2397,5032,114,-55,218,216,-120
1,2650648,2474,816,2394,5017,122,-55,218,216,-120
1,2650661,2476,840,2394,5018,120,-58,218,224,-130
1,2650676,2476,840,2394,5018,120,-58,218,224,-130
1,2650689,2474,839,2396,5021,125,-50,218,224,-130
1,2650701,2477,855,2394,5019,127,-50,218,224,-130
1,2650715,2477,855,2394,5019,127,-50,218,224,-130
1,2650728,2473,817,2385,5021,124,-60,218,224,-130
1,2650741,2477,847,2392,5023,127,-59,218,224,-130
1,2650755,2477,847,2392,5023,127,-59,218,224,-130
1,2650767,2480,836,2386,5014,125,-55,218,224,-130
1,2650781,2465,853,2389,5012,122,-49,218,224,-130
1,2650796,2465,853,2389,5012,122,-49,218,224,-130
1,2650810,2481,831,2390,5015,127,-54,247,227,-125
1,2650823,2476,849,2393,5019,132,-52,247,227,-125
1,2650834,2476,849,2393,5019,132,-52,247,227,-125
1,2650848,2478,839,2391,5014,119,-48,247,227,-125
1,2650862,2472,843,2388,5015,116,-48,247,227,-125
1,2650875,2472,843,2388,5015,116,-48,247,227,-125
1,2650889,2472,843,2388,5015,116,-48,247,227,-125
1,2650901,2476,840,2392,5005,122,-45,247,227,-125
1,2650914,2476,840,2392,5005,122,-45,247,227,-125
1,2650928,2472,838,2390,5015,119,-47,246,216,-132
1,2650942,2472,848,2389,5010,115,-53,246,216,-132
1,2650954,2472,848,2389,5010,115,-53,246,216,-132
1,2650967,2477,849,2390,5010,123,-63,246,216,-132
1,2650981,2475,847,2387,5002,111,-61,246,216,-132
1,2650995,2475,847,2387,5002,111,-61,246,216,-132
1,2651009,2473,841,2386,5000,113,-54,246,216,-132
1,2651024,2474,853,2389,5007,128,-52,246,216,-132
1,2651038,2474,853,2389,5007,128,-52,246,216,-132
1,2651054,2474,856,2393,5012,125,-50,265,225,-145
1,2651067,2474,855,2384,5005,128,-50,265,225,-145
1,2651081,2471,858,2388,5004,115,-60,265,225,-145
1,2651096,2471,858,2388,5004,115,-60,265,225,-145
1,2651110,2472,873,2385,5008,118,-51,265,225,-145
1,2651121,2469,905,2387,5011,116,-51,265,225,-145
1,2651134,2469,905,2387,5011,116,-51,265,225,-145
1,2651148,2471,874,2394,5006,122,-50,265,225,-145
1,2651162,2471,880,2389,5011,126,-55,275,217,-157
1,2651175,2471,880,2389,5011,126,-55,275,217,-157
1,2651187,2474,878,2403,5014,121,-56,275,217,-157
1,2651200,2465,893,2392,5014,119,-52,275,217,-157
1,2651213,2465,893,2392,5014,119,-52,275,217,-157
1,2651227,2474,868,2393,5015,118,-53,275,217,-157
1,2651240,2475,879,2391,5021,130,-56,275,217,-157
1,2651255,2475,879,2391,5021,130,-56,275,217,-157
1,2651270,2473,860,2393,5022,131,-57,275,217,-157
1,2651283,2471,872,2389,5026,125,-41,275,217,-157
1,2651293,2471,872,2389,5026,125,-41,275,217,-157
1,2651305,2464,849,2397,5023,119,-57,271,207,-151
1,2651322,2473,865,2399,5021,126,-59,271,207,-151
1,2651335,2473,865,2399,5021,126,-59,271,207,-151
1,2651348,2476,842,2401,5021,130,-53,271,207,-151
1,2651357,2476,842,2401,5021,130,-53,271,207,-151
1,2651369,2472,855,2396,5025,117,-47,271,207,-151
1,2651382,2473,851,2399,5020,122,-50,271,207,-151
1,2651396,2473,851,2399,5020,122,-50,271,207,-151
1,2651411,2475,861,2401,5019,122,-56,271,207,-151
1,2651422,2474,846,2398,5017,116,-60,278,220,-154
1,2651436,2474,846,2398,5017,116,-60,278,220,-154
1,2651449,2472,853,2388,5023,122,-53,278,220,-154
1,2651463,2473,857,2394,5020,125,-60,278,220,-154
1,2651479,2473,857,2394,5020,125,-60,278,220,-154
1,2651493,2472,858,2393,5021,122,-57,278,220,-154
1,2651508,2471,852,2397,5024,115,-50,278,220,-154
1,2651523,2474,857,2393,5032,119,-52,278,220,-154
1,2651537,2474,857,2393,5032,119,-52,278,220,-154
1,2651550,2474,863,2396,5022,123,-49,288,216,-154
1,2651566,2472,871,2401,5026,121,-45,288,216,-154
1,2651576,2472,871,2401,5026,121,-45,288,216,-154
1,2651588,2473,856,2397,5017,124,-53,288,216,-154
1,2651601,2475,865,2401,5015,120,-54,288,216,-154
1,2651615,2475,865,2401,5015,120,-54,288,216,-154
1,2651629,2473,852,2397,5026,124,-51,288,216,-154
1,2651640,2473,859,2395,5023,118,-53,288,216,-154
1,2651653,2473,859,2395,5023,118,-53,288,216,-154
1,2651667,2472,845,2397,5012,119,-45,296,216,-158
1,2651680,2471,859,2397,5019,127,-50,296,216,-158
1,2651695,2471,859,2397,5019,127,-50,296,216,-158
1,2651709,2478,806,2394,5021,118,-50,296,216,-158
1,2651724,2475,846,2397,5018,120,-65,296,216,-158
1,2651739,2475,846,2397,5018,120,-65,296,216,-158
1,2651752,2478,834,2395,5025,124,-53,296,216,-158
1,2651767,2473,854,2398,5019,121,-53,296,216,-158
1,2651783,2476,820,2390,5023,113,-58,296,216,-158
1,2651797,2476,820,2390,5023,113,-58,296,216,-158
1,2651809,2476,849,2393,5014,114,-61,299,217,-149
1,2651823,2480,837,2393,5016,119,-52,299,217,-149
1,2651836,2480,837,2393,5016,119,-52,299,217,-149
1,2651850,2467,849,2388,5019,122,-49,299,217,-149
1,2651864,2481,833,2391,5016,129,-56,299,217,-149
1,2651880,2474,842,2394,5019,125,-61,299,217,-149
1,2651894,2474,842,2394,5019,125,-61,299,217,-149
1,2651906,2477,829,2390,5016,121,-44,299,217,-149
1,2651920,2474,841,2392,5015,116,-47,302,212,-152
1,2651933,2474,841,2392,5015,116,-47,302,212,-152
1,2651948,2474,840,2390,5013,133,-54,302,212,-152
1,2651962,2483,850,2395,5013,128,-50,302,212,-152
1,2651977,2483,850,2395,5013,128,-50,302,212,-152
1,2651993,2474,839,2386,5019,121,-53,302,212,-152
1,2652008,2474,845,2388,5020,125,-56,302,212,-152
1,2652021,2476,852,2390,5015,123,-51,302,212,-152
1,2652035,2476,852,2390,5015,123,-51,302,212,-152
1,2652049,2475,842,2389,5009,119,-58,303,217,-161
1,2652062,2474,833,2390,5006,120,-53,303,217,-161
1,2652076,2474,833,2390,5006,120,-53,303,217,-161
1,2652090,2477,839,2384,5011,117,-47,303,217,-161
1,2652103,2473,848,2396,5008,120,-56,303,217,-161
1,2652118,2473,848,2396,5008,120,-56,303,217,-161
1,2652131,2476,842,2389,5008,116,-56,303,217,-161
1,2652145,2476,851,2390,5012,118,-59,303,217,-161
1,2652157,2476,851,2390,5012,118,-59,303,217,-161
1,2652172,2475,862,2389,5010,128,-58,314,230,-150
1,2652187,2471,878,2383,5010,126,-51,314,230,-150
1,2652203,2471,919,2387,5008,122,-53,314,230,-150
1,2652217,2471,919,2387,5008,122,-53,314,230,-150
1,2652229,2470,884,2390,5008,123,-55,314,230,-150
1,2652242,2472,892,2399,5007,125,-64,314,230,-150
1,2652257,2472,892,2399,5007,125,-64,314,230,-150
1,2652270,2475,887,2392,5007,118,-56,314,230,-150
1,2652283,2466,909,2398,5017,124,-52,324,234,-152
1,2652298,2466,909,2398,5017,124,-52,324,234,-152
1,2652309,2475,878,2394,5019,127,-54,324,234,-152
1,2652322,2469,887,2398,5024,128,-59,324,234,-152
1,2652336,2469,887,2398,5024,128,-59,324,234,-152
1,2652349,2469,887,2398,5024,128,-59,324,234,-152
1,2652364,2466,880,2400,5023,123,-43,324,234,-152
1,2652378,2466,880,2400,5023,123,-43,324,234,-152
1,2652390,2468,854,2396,5017,122,-50,324,234,-152
1,2652406,2472,858,2393,5024,127,-57,324,234,-152
1,2652422,2475,836,2399,5018,128,-55,328,236,-152
1,2652437,2475,836,2399,5018,128,-55,328,236,-152
1,2652452,2468,855,2397,5018,128,-55,328,236,-152
1,2652466,2473,850,2399,5017,118,-50,328,236,-152
1,2652477,2473,850,2399,5017,118,-50,328,236,-152
1,2652491,2472,849,2391,5022,121,-47,328,236,-152
1,2652505,2476,843,2400,5015,118,-51,328,236,-152
1,2652518,2476,843,2400,5015,118,-51,328,236,-152
1,2652532,2471,848,2400,5022,125,-46,328,236,-152
1,2652542,2473,858,2401,5026,125,-53,323,243,-139
1,2652553,2473,858,2401,5026,125,-53,323,243,-139
1,2652567,2475,853,2395,5018,121,-51,323,243,-139
1,2652579,2473,849,2397,5024,123,-52,323,243,-139
1,2652592,2473,849,2397,5024,123,-52,323,243,-139
1,2652606,2477,840,2395,5016,121,-51,323,243,-139
1,2652621,2471,851,2395,5023,119,-51,323,243,-139
1,2652637,2471,851,2395,5023,119,-51,323,243,-139
1,2652649,2472,844,2397,5023,120,-50,323,243,-139
1,2652664,2471,850,2397,5024,115,-52,326,254,-136
1,2652680,2475,837,2397,5027,122,-57,326,254,-136
1,2652694,2475,837,2397,5027,122,-57,326,254,-136
1,2652708,2472,852,2396,5026,125,-52,326,254,-136
1,2652722,2472,844,2400,5022,123,-52,326,254,-136
1,2652735,2472,844,2400,5022,123,-52,326,254,-136
1,2652747,2475,853,2398,5026,125,-55,326,254,-136
1,2652761,2478,828,2398,5022,129,-49,326,254,-136
1,2652775,2478,828,2398,5022,129,-49,326,254,-136
1,2652788,2476,836,2395,5016,128,-49,331,251,-131
1,2652803,2476,835,2395,5022,119,-47,331,251,-131
1,2652811,2476,835,2395,5022,119,-47,331,251,-131
1,2652825,2472,847,2392,5016,125,-50,331,251,-131
1,2652838,2472,847,2392,5016,125,-50,331,251,-131
1,2652853,2476,819,2392,5016,124,-59,331,251,-131
1,2652867,2476,819,2392,5016,124,-59,331,251,-131
1,2652879,2480,830,2394,5020,123,-54,331,251,-131
1,2652889,2480,830,2394,5020,123,-54,331,251,-131
1,2652903,2473,848,2393,5010,122,-57,331,251,-131
1,2652917,2473,848,2393,5010,122,-57,331,251,-131
1,2652933,2481,839,2393,5013,123,-54,328,246,-132
1,2652947,2475,848,2391,5010,129,-51,328,246,-132
1,2652962,2479,836,2385,5019,123,-48,328,246,-132
1,2652977,2479,836,2385,5019,123,-48,328,246,-132
1,2652990,2472,847,2388,5010,125,-53,328,246,-132
1,2653004,2477,842,2394,5012,130,-53,328,246,-132
1,2653016,2477,842,2394,5012,130,-53,328,246,-132
1,2653029,2477,844,2389,5013,130,-53,328,246,-132
1,2653043,2475,841,2392,5015,125,-54,338,244,-124
1,2653057,2475,841,2392,5015,125,-54,338,244,-124
1,2653070,2477,862,2391,5008,124,-55,338,244,-124
1,2653084,2474,860,2388,5011,123,-55,338,244,-124
1,2653097,2474,860,2388,5011,123,-55,338,244,-124
1,2653110,2474,870,2392,5013,119,-56,338,244,-124
1,2653125,2474,876,2387,5009,119,-57,338,244,-124
1,2653139,2474,864,2389,5016,124,-51,338,244,-124
1,2653152,2474,864,2389,5016,124,-51,338,244,-124
1,2653165,2476,864,2386,5016,122,-56,330,240,-118
1,2653180,2469,860,2390,5017,120,-50,330,240,-118
1,2653194,2469,860,2390,5017,120,-50,330,240,-118
1,2653208,2471,876,2393,5019,124,-54,330,240,-118
1,2653221,2471,866,2397,5011,116,-60,330,240,-118
1,2653235,2471,866,2397,5011,116,-60,330,240,-118
1,2653248,2472,877,2392,5014,125,-56,330,240,-118
1,2653262,2475,878,2393,5010,122,-49,330,240,-118
1,2653277,2475,878,2393,5010,122,-49,330,240,-118
1,2653290,2471,887,2397,5014,121,-54,329,249,-107
1,2653303,2471,876,2399,5016,124,-51,329,249,-107
1,2653316,2471,876,2399,5016,124,-51,329,249,-107
1,2653330,2472,879,2394,5016,124,-58,329,249,-107
1,2653344,2474,873,2396,5020,123,-52,329,249,-107
1,2653359,2474,873,2396,5020,123,-52,329,249,-107
1,2653374,2469,869,2396,5025,116,-48,329,249,-107
1,2653387,2471,859,2397,5028,126,-47,329,249,-107
1,2653400,2471,854,2400,5025,133,-50,329,249,-107
1,2653415,2471,854,2400,5025,133,-50,329,249,-107
1,2653428,2473,851,2401,5024,134,-55,333,247,-99
1,2653442,2472,848,2402,5024,125,-57,333,247,-99
1,2653456,2472,848,2402,5024,125,-57,333,247,-99
1,2653471,2475,851,2397,5028,123,-56,333,247,-99
1,2653484,2478,851,2405,5022,125,-56,333,247,-99
1,2653496,2478,851,2405,5022,125,-56,333,247,-99
1,2653509,2476,821,2394,5027,121,-63,333,247,-99
1,2653516,2476,821,2394,5027,121,-63,333,247,-99
1,2653529,2474,825,2398,5023,128,-56,333,247,-99
1,2653544,2475,843,2398,5025,129,-47,321,237,-99
1,2653554,2475,843,2398,5025,129,-47,321,237,-99
1,2653570,2471,850,2405,5032,134,-52,321,237,-99
1,2653585,2470,816,2389,5024,127,-53,321,237,-99
1,2653600,2478,834,2398,5024,130,-55,321,237,-99
1,2653614,2478,834,2398,5024,130,-55,321,237,-99
1,2653627,2475,836,2394,5016,129,-57,321,237,-99
1,2653640,2468,847,2395,5019,128,-53,321,237,-99
1,2653651,2468,847,2395,5019,128,-53,321,237,-99
1,2653665,2478,836,2394,5015,126,-58,324,244,-80
1,2653678,2478,836,2394,5015,126,-58,324,244,-80
1,2653692,2477,839,2396,5018,132,-51,324,244,-80
1,2653706,2480,836,2392,5011,126,-51,324,244,-80
1,2653718,2480,836,2392,5011,126,-51,324,244,-80
1,2653730,2467,845,2389,5010,119,-41,324,244,-80
1,2653744,2474,841,2388,5012,126,-54,324,244,-80
1,2653757,2474,841,2388,5012,126,-54,324,244,-80
1,2653772,2475,838,2391,5016,122,-54,324,244,-80
1,2653787,2477,834,2396,5011,122,-53,321,241,-91
1,2653803,2468,843,2393,5006,126,-58,321,241,-91
1,2653818,2468,843,2393,5006,126,-58,321,241,-91
1,2653832,2476,846,2387,5008,134,-55,321,241,-91
1,2653845,2474,838,2387,5013,124,-59,321,241,-91
1,2653859,2474,838,2387,5013,124,-59,321,241,-91
1,2653870,2474,840,2389,5012,126,-55,321,241,-91
1,2653883,2475,846,2387,5012,115,-52,321,241,-91
1,2653896,2475,846,2387,5012,115,-52,321,241,-91
1,2653911,2473,856,2392,5002,125,-52,321,241,-91
1,2653924,2471,848,2390,5005,126,-56,311,245,-79
1,2653937,2471,848,2390,5005,126,-56,311,245,-79
1,2653948,2473,856,2392,5005,125,-51,311,245,-79
1,2653962,2473,865,2388,5009,125,-51,311,245,-79
1,2653975,2473,865,2388,5009,125,-51,311,245,-79
1,2653989,2469,910,2394,5007,121,-45,311,245,-79
1,2654005,2469,879,2385,5005,123,-54,311,245,-79
1,2654020,2470,876,2393,5012,125,-60,311,245,-79
1,2654035,2470,876,2393,5012,125,-60,311,245,-79
1,2654050,2479,876,2394,5014,127,-56,305,239,-65
1,2654063,2469,900,2398,5017,122,-40,305,239,-65
1,2654076,2469,900,2398,5017,122,-40,305,239,-65
1,2654088,2473,876,2394,5011,125,-52,305,239,-65
1,2654102,2474,876,2398,5016,125,-52,305,239,-65
1,2654115,2474,876,2398,5016,125,-52,305,239,-65
1,2654130,2476,863,2401,5013,131,-54,305,239,-65
1,2654143,2471,880,2402,5019,125,-43,305,239,-65
1,2654157,2471,880,2402,5019,125,-43,305,239,-65
1,2654169,2468,861,2395,5019,124,-52,302,242,-54
1,2654182,2475,861,2398,5022,128,-60,302,242,-54
1,2654196,2475,861,2398,5022,128,-60,302,242,-54
1,2654210,2479,844,2403,5021,124,-58,302,242,-54
1,2654224,2475,851,2396,5023,125,-49,302,242,-54
1,2654240,2470,856,2405,5031,119,-51,302,242,-54
1,2654255,2470,856,2405,5031,119,-51,302,242,-54
1,2654270,2475,858,2397,5015,123,-53,302,242,-54
1,2654283,2474,841,2406,5020,122,-51,300,236,-64
1,2654298,2474,841,2406,5020,122,-51,300,236,-64
1,2654310,2475,849,2395,5018,124,-50,300,236,-64
1,2654322,2468,849,2399,5015,132,-51,300,236,-64
1,2654337,2468,849,2399,5015,132,-51,300,236,-64
1,2654350,2475,863,2392,5020,123,-53,300,236,-64
1,2654363,2475,848,2396,5019,124,-51,300,236,-64
1,2654376,2475,848,2396,5019,124,-51,300,236,-64
1,2654391,2475,856,2397,5020,120,-50,300,236,-64
1,2654403,2471,864,2399,5022,126,-56,300,236,-64
1,2654416,2471,864,2399,5022,126,-56,300,236,-64
1,2654430,2475,873,2405,5018,127,-54,294,236,-46
1,2654444,2475,864,2398,5022,134,-55,294,236,-46
1,2654458,2475,864,2398,5022,134,-55,294,236,-46
1,2654475,2475,864,2398,5022,134,-55,294,236,-46
1,2654489,2471,866,2401,5019,122,-50,294,236,-46
1,2654501,2474,857,2400,5022,113,-53,294,236,-46
1,2654517,2474,857,2400,5022,113,-53,294,236,-46
1,2654531,2473,853,2401,5021,123,-57,294,236,-46
1,2654543,2477,848,2405,5027,131,-57,288,238,-52
1,2654557,2477,848,2405,5027,131,-57,288,238,-52
1,2654570,2471,834,2397,5031,126,-52,288,238,-52
1,2654584,2474,818,2402,5019,117,-52,288,238,-52
1,2654598,2474,818,2402,5019,117,-52,288,238,-52
1,2654612,2473,838,2396,5023,123,-57,288,238,-52
1,2654625,2484,847,2408,5017,131,-52,288,238,-52
1,2654640,2484,847,2408,5017,131,-52,288,238,-52
1,2654652,2471,818,2389,5022,120,-49,288,238,-52
1,2654666,2481,846,2400,5016,128,-58,285,229,-45
1,2654680,2481,846,2400,5016,128,-58,285,229,-45
1,2654694,2477,839,2396,5019,120,-61,285,229,-45
1,2654705,2472,855,2400,5020,123,-46,285,229,-45
1,2654718,2472,855,2400,5020,123,-46,285,229,-45
1,2654733,2476,826,2391,5015,117,-44,285,229,-45
1,2654748,2474,846,2392,5011,133,-57,285,229,-45
1,2654760,2481,830,2393,5011,130,-56,285,229,-45
1,2654774,2481,830,2393,5011,130,-56,285,229,-45
1,2654789,2471,845,2403,5017,121,-52,272,226,-28
1,2654803,2476,827,2390,5022,124,-55,272,226,-28
1,2654817,2476,827,2390,5022,124,-55,272,226,-28
1,2654831,2477,849,2394,5009,128,-55,272,226,-28
1,2654839,2477,849,2394,5009,128,-55,272,226,-28
1,2654852,2481,837,2393,5018,122,-52,272,226,-28
1,2654866,2470,847,2399,5013,124,-48,272,226,-28
1,2654879,2470,847,2399,5013,124,-48,272,226,-28
1,2654893,2480,840,2388,5017,127,-58,272,226,-28
1,2654905,2474,846,2395,5020,124,-59,274,234,-30
1,2654919,2474,846,2395,5020,124,-59,274,234,-30
1,2654934,2476,836,2388,5013,120,-57,274,234,-30
1,2654947,2472,843,2390,5007,123,-55,274,234,-30
1,2654961,2474,845,2391,5014,124,-48,274,234,-30
1,2654977,2474,845,2391,5014,124,-48,274,234,-30
1,2654992,2476,845,2387,5014,130,-55,274,234,-30
1,2655006,2475,837,2388,5006,124,-57,274,234,-30
1,2655020,2475,837,2388,5006,124,-57,274,234,-30
1,2655034,2476,856,2385,5004,124,-56,274,234,-30
1,2655049,2474,866,2396,5004,127,-53,263,229,-35
1,2655059,2474,866,2396,5004,127,-53,263,229,-35
1,2655073,2477,896,2385,5008,121,-50,263,229,-35
1,2655087,2470,901,2391,5008,126,-52,263,229,-35
1,2655100,2476,893,2391,5015,120,-53,263,229,-35
1,2655115,2476,893,2391,5015,120,-53,263,229,-35
1,2655129,2469,882,2392,5022,125,-50,263,229,-35
1,2655142,2479,912,2387,5013,124,-52,263,229,-35
1,2655155,2479,912,2387,5013,124,-52,263,229,-35
1,2655171,2479,912,2387,5013,124,-52,264,232,-22
1,2655186,2473,903,2403,5019,122,-55,264,232,-22
1,2655198,2473,903,2403,5019,122,-55,264,232,-22
1,2655212,2476,869,2396,5022,127,-57,264,232,-22
1,2655228,2475,885,2403,5026,122,-59,264,232,-22
1,2655244,2478,861,2398,5026,120,-51,264,232,-22
1,2655259,2478,861,2398,5026,120,-51,264,232,-22
1,2655272,2478,861,2398,5026,120,-51,264,232,-22
1,2655286,2481,850,2400,5021,129,-49,255,233,-27
1,2655299,2481,850,2400,5021,129,-49,255,233,-27
1,2655313,2471,856,2405,5030,124,-51,255,233,-27
1,2655329,2477,841,2395,5027,120,-54,255,233,-27
1,2655341,2470,873,2401,5024,123,-54,255,233,-27
1,2655355,2470,873,2401,5024,123,-54,255,233,-27
1,2655369,2481,841,2398,5026,123,-56,255,233,-27
1,2655380,2474,857,2406,5022,118,-53,255,233,-27
1,2655389,2474,857,2406,5022,118,-53,255,233,-27
1,2655397,2474,857,2406,5022,118,-53,255,233,-27
1,2655411,2478,843,2402,5023,123,-52,245,227,-15
1,2655425,2474,866,2409,5021,124,-53,245,227,-15
1,2655438,2474,866,2409,5021,124,-53,245,227,-15
1,2655454,2479,843,2403,5021,120,-52,245,227,-15
1,2655469,2473,856,2399,5024,125,-45,245,227,-15
1,2655482,2478,843,2403,5024,127,-49,245,227,-15
1,2655494,2478,843,2403,5024,127,-49,245,227,-15
1,2655508,2471,865,2392,5024,128,-47,245,227,-15
1,2655522,2472,841,2396,5024,122,-51,245,227,-15
1,2655536,2472,841,2396,5024,122,-51,245,227,-15
1,2655550,2473,850,2397,5022,122,-53,251,227,-29
1,2655563,2479,837,2403,5027,125,-48,251,227,-29
1,2655577,2479,837,2403,5027,125,-48,251,227,-29
1,2655590,2476,854,2403,5021,120,-52,251,227,-29
1,2655603,2478,840,2399,5023,119,-60,251,227,-29
1,2655618,2478,840,2399,5023,119,-60,251,227,-29
1,2655632,2477,846,2398,5019,126,-58,251,227,-29
1,2655646,2480,816,2398,5023,126,-60,251,227,-29
1,2655659,2480,816,2398,5023,126,-60,251,227,-29
1,2655673,2479,849,2399,5025,123,-58,244,234,-22
1,2655688,2479,835,2397,5018,123,-50,244,234,-22
1,2655704,2479,835,2397,5018,123,-50,244,234,-22
1,2655719,2479,835,2397,5018,123,-50,244,234,-22
1,2655732,2478,825,2394,5025,125,-62,244,234,-22
1,2655746,2473,837,2398,5019,126,-55,244,234,-22
1,2655761,2477,837,2394,5010,124,-61,244,234,-22
1,2655774,2477,837,2394,5010,124,-61,244,234,-22
1,2655788,2473,835,2398,5022,121,-60,236,238,-30
1,2655802,2478,835,2396,5017,124,-62,236,238,-30
1,2655815,2478,835,2396,5017,124,-62,236,238,-30
1,2655827,2483,836,2394,5018,126,-55,236,238,-30
1,2655841,2474,853,2393,5013,122,-56,236,238,-30
1,2655855,2474,853,2393,5013,122,-56,236,238,-30
1,2655868,2477,841,2395,5006,121,-56,236,238,-30
1,2655883,2476,843,2387,5014,125,-57,236,238,-30
1,2655897,2476,843,2387,5014,125,-57,236,238,-30
1,2655909,2478,836,2398,5016,118,-52,239,231,-35
1,2655924,2474,852,2384,5018,119,-60,239,231,-35
1,2655939,2474,852,2384,5018,119,-60,239,231,-35
1,2655950,2474,851,2394,5009,121,-52,239,231,-35
1,2655965,2476,853,2393,5005,122,-54,239,231,-35
1,2655980,2476,853,2393,5005,122,-54,239,231,-35
1,2655994,2478,851,2394,5009,121,-48,239,231,-35
1,2656009,2476,858,2391,5013,119,-58,239,231,-35
1,2656022,2474,859,2393,5012,129,-54,239,231,-35
1,2656035,2474,859,2393,5012,129,-54,239,231,-35
1,2656051,2479,860,2389,5015,128,-59,230,244,-36
1,2656062,2476,854,2392,5011,117,-52,230,244,-36
1,2656075,2476,854,2392,5011,117,-52,230,244,-36
1,2656089,2476,871,2386,5014,124,-52,230,244,-36
1,2656103,2471,892,2393,5006,124,-52,230,244,-36
1,2656117,2471,892,2393,5006,124,-52,230,244,-36
1,2656133,2473,883,2387,5020,130,-58,230,244,-36
1,2656148,2472,882,2397,5019,125,-61,230,244,-36
1,2656161,2480,880,2395,5023,122,-51,233,239,-33
1,2656176,2480,880,2395,5023,122,-51,233,239,-33
1,2656185,2475,891,2399,5026,122,-47,233,239,-33
1,2656198,2475,891,2399,5026,122,-47,233,239,-33
1,2656212,2477,878,2397,5020,122,-53,233,239,-33
1,2656226,2475,883,2400,5021,130,-52,233,239,-33
1,2656239,2475,883,2400,5021,130,-52,233,239,-33
1,2656253,2478,868,2400,5017,128,-49,233,239,-33
1,2656269,2471,879,2395,5017,126,-43,233,239,-33
1,2656281,2475,864,2399,5022,120,-47,221,247,-43
1,2656294,2475,864,2399,5022,120,-47,221,247,-43
1,2656308,2471,868,2390,5024,120,-52,221,247,-43
1,2656320,2471,868,2390,5024,120,-52,221,247,-43
1,2656335,2477,843,2404,5028,121,-51,221,247,-43
1,2656350,2477,862,2398,5024,117,-50,221,247,-43
1,2656363,2472,852,2404,5027,121,-48,221,247,-43
1,2656377,2472,852,2404,5027,121,-48,221,247,-43
1,2656392,2474,860,2398,5026,125,-52,221,247,-43
1,2656407,2476,802,2402,5025,122,-52,223,249,-47
1,2656420,2476,802,2402,5025,122,-52,223,249,-47
1,2656432,2478,851,2395,5022,123,-55,223,249,-47
1,2656445,2475,834,2403,5022,121,-47,223,249,-47
1,2656458,2475,834,2403,5022,121,-47,223,249,-47
1,2656472,2473,861,2390,5018,118,-52,223,249,-47
1,2656487,2474,806,2401,5024,120,-64,223,249,-47
1,2656498,2474,806,2401,5024,120,-64,223,249,-47
1,2656512,2476,845,2386,5026,122,-62,223,249,-47
1,2656527,2480,825,2400,5019,124,-60,223,249,-47
1,2656542,2466,851,2395,5017,120,-53,227,239,-41
1,2656557,2466,851,2395,5017,120,-53,227,239,-41
1,2656571,2466,851,2395,5017,120,-53,227,239,-41
1,2656585,2477,846,2395,5021,121,-57,227,239,-41
1,2656601,2477,846,2395,5021,121,-57,227,239,-41
1,2656615,2479,840,2392,5017,128,-46,227,239,-41
1,2656629,2468,847,2386,5012,120,-46,227,239,-41
1,2656643,2475,840,2386,5013,125,-63,227,239,-41
1,2656656,2475,840,2386,5013,125,-63,227,239,-41
1,2656666,2474,840,2388,5016,123,-59,220,240,-52
1,2656680,2475,835,2389,5013,113,-56,220,240,-52
1,2656695,2475,835,2389,5013,113,-56,220,240,-52
1,2656708,2472,840,2394,5012,122,-53,220,240,-52
1,2656722,2478,848,2390,5017,124,-52,220,240,-52
1,2656736,2478,848,2390,5017,124,-52,220,240,-52
1,2656749,2477,838,2396,5012,123,-48,220,240,-52
1,2656762,2478,837,2391,5014,117,-48,220,240,-52
1,2656777,2478,837,2391,5014,117,-48,220,240,-52
1,2656790,2475,853,2392,5009,123,-47,223,237,-63
1,2656804,2476,858,2389,5011,124,-45,223,237,-63
1,2656813,2476,858,2389,5011,124,-45,223,237,-63
1,2656828,2475,858,2388,5010,113,-53,223,237,-63
1,2656837,2475,858,2388,5010,113,-53,223,237,-63
1,2656851,2475,860,2390,5007,114,-54,223,237,-63
1,2656867,2475,914,2383,5010,119,-54,223,237,-63
1,2656881,2471,878,2392,5007,121,-51,223,237,-63
1,2656894,2471,878,2392,5007,121,-51,223,237,-63
1,2656908,2474,885,2396,5008,129,-56,215,235,-67
1,2656922,2481,871,2398,5012,125,-52,215,235,-67
1,2656937,2481,871,2398,5012,125,-52,215,235,-67
1,2656951,2471,903,2398,5014,123,-40,215,235,-67
1,2656964,2477,878,2399,5020,121,-49,215,235,-67
1,2656977,2477,878,2399,5020,121,-49,215,235,-67
1,2656991,2474,880,2395,5025,123,-59,215,235,-67
1,2657005,2484,865,2395,5020,123,-57,215,235,-67
1,2657020,2484,865,2395,5020,123,-57,215,235,-67
1,2657033,2475,881,2396,5022,121,-44,233,221,-79
1,2657047,2472,864,2393,5028,123,-48,233,221,-79
1,2657062,2474,866,2397,5017,123,-58,233,221,-79
1,2657075,2474,866,2397,5017,123,-58,233,221,-79
1,2657087,2481,842,2393,5016,128,-60,233,221,-79
1,2657101,2478,858,2395,5019,118,-59,233,221,-79
1,2657115,2478,858,2395,5019,118,-59,233,221,-79
1,2657131,2474,855,2397,5020,119,-57,233,221,-79
1,2657143,2472,868,2397,5021,117,-58,233,221,-79
1,2657158,2472,868,2397,5021,117,-58,233,221,-79
1,2657171,2478,848,2401,5018,118,-53,228,230,-80
1,2657182,2473,855,2394,5010,116,-52,228,230,-80
1,2657197,2473,855,2394,5010,116,-52,228,230,-80
1,2657211,2473,858,2398,5012,120,-54,228,230,-80
1,2657225,2470,883,2394,5010,117,-62,228,230,-80
1,2657240,2470,883,2394,5010,117,-62,228,230,-80
1,2657256,2474,856,2401,5010,122,-48,228,230,-80
1,2657270,2476,864,2394,5018,119,-52,228,230,-80
1,2657285,2473,862,2402,5023,122,-52,221,227,-85
1,2657299,2473,862,2402,5023,122,-52,221,227,-85
1,2657313,2473,862,2402,5023,122,-52,221,227,-85
1,2657328,2475,858,2404,5028,120,-54,221,227,-85
1,2657339,2475,858,2404,5028,120,-54,221,227,-85
1,2657354,2474,875,2399,5022,125,-52,221,227,-85
1,2657370,2479,851,2405,5019,125,-57,221,227,-85
1,2657384,2477,874,2402,5018,128,-53,221,227,-85
1,2657397,2477,874,2402,5018,128,-53,221,227,-85
1,2657411,2479,848,2402,5018,128,-46,225,217,-105
1,2657425,2474,864,2406,5026,126,-55,225,217,-105
1,2657439,2474,864,2406,5026,126,-55,225,217,-105
1,2657453,2482,813,2403,5020,125,-55,225,217,-105
1,2657466,2473,847,2402,5026,121,-56,225,217,-105
1,2657480,2473,847,2402,5026,121,-56,225,217,-105
1,2657494,2478,834,2400,5026,124,-54,225,217,-105
1,2657509,2474,858,2403,5021,120,-54,225,217,-105
1,2657522,2479,809,2399,5018,121,-62,222,214,-104
1,2657534,2479,809,2399,5018,121,-62,222,214,-104
1,2657549,2475,848,2394,5020,124,-54,222,214,-104
1,2657565,2481,834,2396,5015,126,-50,222,214,-104
1,2657581,2481,834,2396,5015,126,-50,222,214,-104
1,2657594,2468,852,2391,5013,130,-49,222,214,-104
1,2657607,2483,827,2397,5021,124,-58,222,214,-104
1,2657619,2483,827,2397,5021,124,-58,222,214,-104
1,2657633,2474,844,2386,5010,127,-61,222,214,-104
1,2657647,2479,833,2391,5010,123,-53,222,214,-104
1,2657660,2479,833,2391,5010,123,-53,222,214,-104
1,2657674,2475,847,2397,5015,119,-51,225,219,-113
1,2657689,2478,833,2399,5016,124,-54,225,219,-113
1,2657701,2477,839,2391,5015,121,-53,225,219,-113
1,2657716,2477,839,2391,5015,121,-53,225,219,-113
1,2657729,2479,834,2388,5015,121,-53,225,219,-113
1,2657743,2475,849,2391,5008,125,-55,225,219,-113
1,2657757,2475,849,2391,5008,125,-55,225,219,-113
1,2657769,2477,853,2394,5008,132,-58,225,219,-113
1,2657784,2477,838,2388,5010,125,-60,224,218,-118
1,2657799,2477,838,2388,5010,125,-60,224,218,-118
1,2657814,2476,833,2384,5014,124,-59,224,218,-118
1,2657827,2473,844,2388,5011,129,-44,224,218,-118
1,2657839,2473,844,2388,5011,129,-44,224,218,-118
1,2657853,2473,844,2388,5015,135,-55,224,218,-118
1,2657866,2477,842,2392,5006,117,-58,224,218,-118
1,2657880,2477,842,2392,5006,117,-58,224,218,-118
1,2657895,2479,841,2386,5007,118,-56,224,218,-118
1,2657908,2480,850,2390,5015,118,-54,233,227,-131
1,2657921,2480,850,2390,5015,118,-54,233,227,-131
1,2657935,2478,856,2389,5008,123,-59,233,227,-131
1,2657948,2474,871,2387,5005,124,-58,233,227,-131
1,2657963,2474,871,2387,5005,124,-58,233,227,-131
1,2657978,2474,871,2387,5005,124,-58,233,227,-131
1,2657992,2470,906,2390,5008,125,-46,233,227,-131
1,2658009,2472,896,2395,5011,127,-54,233,227,-131
1,2658024,2475,898,2384,5010,117,-56,251,229,-137
1,2658038,2475,898,2384,5010,117,-56,251,229,-137
1,2658050,2477,908,2397,5015,121,-48,251,229,-137
1,2658066,2471,905,2391,5016,118,-43,251,229,-137
1,2658078,2471,905,2391,5016,118,-43,251,229,-137
1,2658092,2472,882,2395,5022,122,-50,251,229,-137
1,2658105,2478,884,2398,5024,130,-54,251,229,-137
1,2658118,2478,884,2398,5024,130,-54,251,229,-137
1,2658131,2474,867,2398,5026,122,-49,251,229,-137
1,2658146,2471,871,2392,5024,123,-43,251,229,-137
1,2658157,2471,871,2392,5024,123,-43,251,229,-137
1,2658170,2475,850,2402,5018,126,-55,254,220,-152
1,2658186,2471,859,2400,5016,126,-57,254,220,-152
1,2658200,2471,859,2400,5016,126,-57,254,220,-152
1,2658214,2480,851,2394,5017,122,-55,254,220,-152
1,2658229,2468,859,2394,5019,121,-47,254,220,-152
1,2658244,2475,859,2396,5021,124,-49,254,220,-152
1,2658259,2475,859,2396,5021,124,-49,254,220,-152
1,2658275,2476,858,2400,5026,121,-59,254,220,-152
1,2658288,2478,857,2400,5028,117,-47,268,222,-144
1,2658302,2472,862,2402,5026,124,-53,268,222,-144
1,2658316,2472,862,2402,5026,124,-53,268,222,-144
1,2658327,2476,869,2399,5023,124,-55,268,222,-144
1,2658340,2476,869,2399,5023,124,-55,268,222,-144
1,2658355,2478,858,2403,5020,126,-52,268,222,-144
1,2658368,2473,849,2399,5023,121,-48,268,222,-144
1,2658379,2473,849,2399,5023,121,-48,268,222,-144
1,2658391,2474,854,2397,5031,121,-54,268,222,-144
1,2658405,2474,854,2397,5031,121,-54,276,216,-142
1,2658418,2474,854,2397,5031,121,-54,276,216,-142
1,2658432,2476,850,2398,5022,127,-53,276,216,-142
1,2658446,2471,848,2398,5022,123,-58,276,216,-142
1,2658460,2471,848,2398,5022,123,-58,276,216,-142
1,2658472,2480,856,2401,5018,127,-55,276,216,-142
1,2658487,2473,854,2402,5027,119,-55,276,216,-142
1,2658502,2477,832,2398,5026,122,-53,276,216,-142
1,2658519,2477,832,2398,5026,122,-53,276,216,-142
1,2658532,2475,839,2407,5020,127,-58,289,215,-153
1,2658544,2479,842,2399,5020,124,-58,289,215,-153
1,2658556,2479,842,2399,5020,124,-58,289,215,-153
1,2658571,2477,850,2401,5021,123,-53,289,215,-153
1,2658584,2473,829,2395,5017,129,-53,289,215,-153
1,2658598,2473,829,2395,5017,129,-53,289,215,-153
1,2658612,2477,840,2396,5020,125,-53,289,215,-153
1,2658624,2476,833,2392,5012,124,-51,289,215,-153
1,2658637,2476,833,2392,5012,124,-51,289,215,-153
1,2658651,2472,847,2393,5013,125,-59,289,215,-153
1,2658665,2477,834,2394,5022,120,-60,285,215,-157
1,2658679,2477,834,2394,5022,120,-60,285,215,-157
1,2658695,2476,846,2393,5013,123,-61,285,215,-157
1,2658709,2478,844,2395,5017,121,-57,285,215,-157
1,2658723,2475,848,2390,5008,121,-48,285,215,-157
1,2658738,2475,848,2390,5008,121,-48,285,215,-157
1,2658753,2479,843,2396,5011,122,-59,285,215,-157
1,2658766,2479,846,2393,5011,119,-55,285,215,-157
1,2658778,2479,846,2393,5011,119,-55,285,215,-157
1,2658791,2479,844,2396,5015,114,-51,297,223,-145
1,2658804,2477,852,2387,5010,121,-49,297,223,-145
1,2658819,2477,852,2387,5010,121,-49,297,223,-145
1,2658832,2475,856,2392,5016,128,-52,297,223,-145
1,2658845,2476,856,2390,5005,129,-56,297,223,-145
1,2658857,2476,856,2390,5005,129,-56,297,223,-145
1,2658871,2472,855,2390,5007,124,-55,297,223,-145
1,2658884,2476,862,2390,5011,122,-59,297,223,-145
1,2658899,2476,862,2390,5011,122,-59,297,223,-145
1,2658915,2477,862,2399,5009,117,-54,299,223,-157
1,2658929,2477,861,2395,5017,124,-48,299,223,-157
1,2658941,2473,872,2391,5013,118,-51,299,223,-157
1,2658950,2473,872,2391,5013,118,-51,299,223,-157
1,2658964,2471,891,2388,5014,118,-53,299,223,-157
1,2658980,2471,891,2388,5014,118,-53,299,223,-157
1,2658996,2470,888,2391,5013,124,-53,299,223,-157
1,2659010,2471,884,2392,5020,122,-53,299,223,-157
1,2659022,2475,895,2399,5023,131,-56,306,216,-156
1,2659036,2475,895,2399,5023,131,-56,306,216,-156
1,2659048,2476,888,2401,5017,126,-50,306,216,-156
1,2659064,2473,898,2396,5015,124,-53,306,216,-156
1,2659077,2473,898,2396,5015,124,-53,306,216,-156
1,2659091,2478,875,2401,5023,128,-57,306,216,-156
1,2659104,2478,888,2397,5021,129,-52,306,216,-156
1,2659117,2478,888,2397,5021,129,-52,306,216,-156
1,2659131,2474,870,2397,5022,119,-44,306,216,-156
1,2659143,2471,885,2397,5027,118,-53,306,218,-148
1,2659159,2471,885,2397,5027,118,-53,306,218,-148
1,2659174,2477,868,2401,5021,126,-62,306,218,-148
1,2659189,2478,873,2394,5023,130,-55,306,218,-148
1,2659205,2478,849,2398,5027,123,-50,306,218,-148
1,2659218,2478,849,2398,5027,123,-50,306,218,-148
1,2659231,2478,863,2396,5030,117,-53,306,218,-148
1,2659247,2476,854,2402,5030,123,-54,306,218,-148
1,2659260,2476,854,2402,5030,123,-54,306,218,-148
1,2659273,2476,857,2394,5022,123,-53,306,218,-148
1,2659287,2481,814,2403,5022,121,-55,312,228,-152
1,2659302,2477,859,2399,5022,120,-62,312,228,-152
1,2659314,2477,859,2399,5022,120,-62,312,228,-152
1,2659326,2477,842,2402,5025,124,-50,312,228,-152
1,2659340,2477,842,2402,5025,124,-50,312,228,-152
1,2659354,2470,839,2392,5024,125,-52,312,228,-152
1,2659368,2482,830,2391,5016,126,-54,312,228,-152
1,2659382,2473,843,2394,5019,119,-49,312,228,-152
1,2659394,2473,843,2394,5019,119,-49,312,228,-152
1,2659408,2475,845,2405,5020,122,-48,312,226,-148
1,2659425,2473,841,2396,5017,122,-52,312,226,-148
1,2659439,2473,841,2396,5017,122,-52,312,226,-148
1,2659452,2477,848,2392,5004,120,-55,312,226,-148
1,2659465,2478,843,2401,5018,125,-51,312,226,-148
1,2659480,2478,843,2401,5018,125,-51,312,226,-148
1,2659493,2472,844,2395,5022,130,-56,312,226,-148
1,2659507,2476,838,2392,5016,124,-62,312,226,-148
1,2659521,2476,838,2392,5016,124,-62,312,226,-148
1,2659533,2475,848,2398,5013,123,-54,327,235,-147
1,2659547,2478,839,2398,5016,120,-54,327,235,-147
1,2659560,2478,839,2398,5016,120,-54,327,235,-147
1,2659574,2475,849,2388,5016,119,-48,327,235,-147
1,2659589,2475,845,2392,5022,124,-46,327,235,-147
1,2659603,2476,854,2382,5020,125,-49,327,235,-147
1,2659618,2476,854,2382,5020,125,-49,327,235,-147
1,2659631,2477,833,2397,5014,114,-51,327,235,-147
1,2659645,2475,849,2393,5012,123,-50,322,236,-138
1,2659660,2475,849,2393,5012,123,-50,322,236,-138
1,2659671,2477,847,2400,5010,128,-51,322,236,-138
1,2659685,2477,847,2400,5010,128,-51,322,236,-138
1,2659700,2477,847,2400,5010,128,-51,322,236,-138
1,2659715,2476,851,2398,5011,126,-57,322,236,-138
1,2659729,2475,870,2385,5013,123,-49,322,236,-138
1,2659742,2472,903,2396,5007,120,-49,322,236,-138
1,2659757,2472,903,2396,5007,120,-49,322,236,-138
1,2659768,2471,894,2382,5011,128,-53,322,236,-138
1,2659781,2471,894,2382,5011,128,-53,322,236,-138
1,2659794,2476,889,2395,5013,126,-56,323,247,-141
1,2659808,2476,876,2384,5019,132,-61,323,247,-141
1,2659821,2476,876,2384,5019,132,-61,323,247,-141
1,2659834,2477,902,2398,5021,125,-47,323,247,-141
1,2659847,2479,879,2394,5020,122,-52,323,247,-141
1,2659860,2479,879,2394,5020,122,-52,323,247,-141
1,2659873,2474,885,2396,5018,123,-59,323,247,-141
1,2659888,2487,874,2397,5016,126,-50,323,247,-141
1,2659902,2478,886,2407,5019,123,-51,320,248,-134
1,2659916,2478,886,2407,5019,123,-51,320,248,-134
1,2659930,2476,858,2394,5016,120,-41,320,248,-134
1,2659944,2475,880,2397,5023,123,-54,320,248,-134
1,2659959,2475,880,2397,5023,123,-54,320,248,-134
1,2659974,2480,847,2397,5021,124,-62,320,248,-134
1,2659985,2478,864,2397,5022,119,-59,320,248,-134
1,2659998,2478,864,2397,5022,119,-59,320,248,-134
1,2660012,2476,852,2394,5018,128,-65,320,248,-134
1,2660025,2474,869,2401,5015,122,-56,329,247,-131
1,2660041,2474,869,2401,5015,122,-56,329,247,-131
1,2660056,2481,849,2404,5023,127,-55,329,247,-131
1,2660068,2476,860,2401,5013,120,-55,329,247,-131
1,2660080,2476,860,2401,5013,120,-55,329,247,-131
1,2660094,2477,863,2404,5015,124,-51,329,247,-131
1,2660107,2477,882,2396,5018,123,-51,329,247,-131
1,2660121,2477,882,2396,5018,123,-51,329,247,-131
1,2660136,2475,864,2400,5015,122,-56,329,247,-131
1,2660152,2475,870,2392,5015,122,-54,330,240,-130
1,2660167,2476,865,2401,5017,128,-54,330,240,-130
1,2660180,2476,865,2401,5017,128,-54,330,240,-130
1,2660194,2475,882,2398,5022,127,-60,330,240,-130
1,2660205,2474,862,2402,5022,130,-55,330,240,-130
1,2660215,2474,862,2402,5022,130,-55,330,240,-130
1,2660230,2473,871,2397,5023,123,-52,330,240,-130
1,2660243,2479,857,2402,5020,122,-44,330,240,-130
1,2660257,2479,857,2402,5020,122,-44,330,240,-130
1,2660271,2475,864,2401,5026,120,-49,330,240,-130
1,2660282,2479,862,2411,5027,124,-55,327,247,-121
1,2660295,2479,862,2411,5027,124,-55,327,247,-121
1,2660310,2473,857,2397,5024,121,-52,327,247,-121
1,2660324,2478,807,2401,5028,121,-49,327,247,-121
1,2660338,2478,807,2401,5028,121,-49,327,247,-121
1,2660354,2477,850,2397,5029,122,-48,327,247,-121
1,2660370,2475,839,2405,5023,127,-54,327,247,-121
1,2660382,2477,842,2395,5024,121,-53,327,247,-121
1,2660396,2477,842,2395,5024,121,-53,327,247,-121
1,2660409,2479,828,2403,5024,120,-61,326,240,-118
1,2660420,2479,828,2403,5024,120,-61,326,240,-118
1,2660434,2476,844,2401,5020,127,-59,326,240,-118
1,2660448,2481,854,2400,5014,118,-53,326,240,-118
1,2660462,2481,854,2400,5014,118,-53,326,240,-118
1,2660475,2472,843,2395,5020,119,-51,326,240,-118
1,2660488,2481,842,2392,5010,126,-52,326,240,-118
1,2660500,2481,842,2392,5010,126,-52,326,240,-118
1,2660514,2479,834,2397,5016,125,-55,326,240,-118
1,2660527,2476,843,2391,5021,124,-52,334,252,-116
1,2660541,2476,843,2391,5021,124,-52,334,252,-116
1,2660556,2472,835,2398,5014,124,-54,334,252,-116
1,2660570,2477,846,2392,5011,124,-54,334,252,-116
1,2660583,2479,834,2398,5012,117,-44,334,252,-116
1,2660598,2479,834,2398,5012,117,-44,334,252,-116
1,2660613,2477,843,2393,5020,122,-47,334,252,-116
1,2660627,2476,841,2388,5018,119,-47,334,252,-116
1,2660637,2476,841,2388,5018,119,-47,334,252,-116
1,2660652,2476,857,2395,5015,118,-55,325,243,-105
1,2660665,2479,834,2394,5014,121,-53,325,243,-105
1,2660679,2479,834,2394,5014,121,-53,325,243,-105
1,2660692,2476,846,2390,5016,121,-51,325,243,-105
1,2660705,2476,844,2388,5015,123,-58,325,243,-105
1,2660717,2476,844,2388,5015,123,-58,325,243,-105
1,2660731,2474,853,2383,5012,123,-47,325,243,-105
1,2660745,2479,841,2388,5009,121,-49,325,243,-105
1,2660759,2479,841,2388,5009,121,-49,325,243,-105
1,2660771,2476,857,2388,5006,120,-47,325,243,-105
1,2660782,2476,857,2388,5006,120,-47,325,243,-105
1,2660794,2477,868,2389,5009,119,-53,325,243,-105
1,2660809,2474,902,2389,5005,114,-57,325,243,-105
1,2660824,2472,912,2389,5003,120,-57,325,243,-105
1,2660839,2472,912,2389,5003,120,-57,325,243,-105
1,2660854,2476,899,2391,5004,127,-53,325,243,-105
1,2660868,2475,894,2389,5007,121,-52,325,243,-105
1,2660881,2475,894,2389,5007,121,-52,325,243,-105
1,2660894,2480,914,2394,5017,125,-52,325,243,-105
1,2660904,2472,907,2395,5021,120,-48,318,242,-86
1,2660919,2472,907,2395,5021,120,-48,318,242,-86
1,2660932,2475,901,2395,5016,124,-55,318,242,-86
1,2660950,2475,885,2395,5020,123,-57,318,242,-86
1,2660963,2476,889,2405,5029,122,-50,318,242,-86
1,2660974,2476,889,2405,5029,122,-50,318,242,-86
1,2660986,2475,877,2398,5026,123,-46,318,242,-86
1,2661000,2475,877,2398,5026,123,-46,318,242,-86
1,2661012,2480,875,2397,5023,120,-53,318,242,-86
1,2661026,2481,856,2401,5020,123,-53,318,236,-84
1,2661042,2481,856,2401,5020,123,-53,318,236,-84
1,2661055,2478,856,2401,5019,126,-53,318,236,-84
1,2661068,2474,856,2395,5026,123,-53,318,236,-84
1,2661084,2473,868,2396,5023,127,-51,318,236,-84
1,2661098,2473,868,2396,5023,127,-51,318,236,-84
1,2661110,2476,848,2395,5024,125,-60,318,236,-84
1,2661125,2478,858,2396,5027,126,-60,318,236,-84
1,2661137,2478,858,2396,5027,126,-60,318,236,-84
1,2661150,2475,854,2395,5022,121,-51,316,240,-78
1,2661165,2476,874,2402,5020,123,-49,316,240,-78
1,2661179,2476,874,2402,5020,123,-49,316,240,-78
