imu,time,ax,ay,az,gx,gy,gz,mx,my,mz
2,4470565,-1695,4671,-521,7659,263,-107,165,-13,-73
2,4470579,-1696,4673,-506,7662,272,-107,165,-13,-73
2,4470592,-1693,4670,-513,7656,262,-107,165,-13,-73
2,4470605,-1693,4670,-513,7656,262,-107,165,-13,-73
2,4470619,-1700,4673,-515,7653,261,-108,165,-13,-73
2,4470629,-1700,4673,-515,7653,261,-108,165,-13,-73
2,4470643,-1699,4668,-500,7658,266,-105,155,-19,-83
2,4470658,-1694,4672,-504,7656,265,-111,155,-19,-83
2,4470671,-1698,4671,-499,7654,265,-115,155,-19,-83
2,4470685,-1698,4671,-499,7654,265,-115,155,-19,-83
2,4470696,-1698,4666,-505,7656,266,-113,155,-19,-83
2,4470711,-1696,4669,-498,7655,262,-103,155,-19,-83
2,4470725,-1696,4669,-498,7655,262,-103,155,-19,-83
2,4470740,-1700,4668,-511,7651,264,-108,155,-19,-83
2,4470754,-1693,4671,-503,7652,261,-108,155,-19,-83
2,4470766,-1693,4671,-503,7652,261,-108,155,-19,-83
2,4470780,-1696,4663,-511,7662,267,-108,141,-7,-81
2,4470789,-1696,4663,-511,7662,267,-108,141,-7,-81
2,4470801,-1695,4667,-500,7651,271,-110,141,-7,-81
2,4470814,-1695,4663,-516,7657,268,-99,141,-7,-81
2,4470829,-1695,4663,-516,7657,268,-99,141,-7,-81
2,4470842,-1696,4670,-530,7649,261,-99,141,-7,-81
2,4470855,-1695,4670,-531,7651,263,-108,141,-7,-81
2,4470870,-1695,4670,-531,7651,263,-108,141,-7,-81
2,4470880,-1697,4670,-522,7646,251,-104,141,-7,-81
2,4470895,-1696,4672,-517,7653,260,-103,133,-11,-95
2,4470908,-1696,4672,-517,7653,260,-103,133,-11,-95
2,4470920,-1698,4670,-523,7656,269,-98,133,-11,-95
2,4470935,-1693,4669,-502,7654,272,-108,133,-11,-95
2,4470950,-1697,4668,-503,7656,263,-107,133,-11,-95
2,4470959,-1697,4668,-503,7656,263,-107,133,-11,-95
2,4470967,-1697,4668,-503,7656,263,-107,133,-11,-95
2,4470974,-1700,4667,-496,7654,267,-105,133,-11,-95
2,4470983,-1700,4667,-496,7654,267,-105,133,-11,-95
2,4470990,-1697,4668,-513,7656,272,-100,133,-11,-95
2,4470999,-1697,4668,-513,7656,272,-100,133,-11,-95
2,4471007,-1697,4668,-513,7656,272,-100,133,-11,-95
2,4471015,-1696,4668,-492,7655,268,-103,125,-9,-85
2,4471022,-1696,4668,-492,7655,268,-103,125,-9,-85
2,4471031,-1696,4674,-503,7655,258,-99,125,-9,-85
2,4471040,-1696,4674,-503,7655,258,-99,125,-9,-85
2,4471048,-1696,4674,-503,7655,258,-99,125,-9,-85
2,4471056,-1696,4671,-501,7655,257,-114,125,-9,-85
2,4471064,-1696,4671,-501,7655,257,-114,125,-9,-85
2,4471071,-1694,4659,-510,7657,265,-101,125,-9,-85
2,4471079,-1694,4659,-510,7657,265,-101,125,-9,-85
2,4471088,-1694,4659,-510,7657,265,-101,125,-9,-85
2,4471096,-1694,4659,-510,7657,265,-101,125,-9,-85
2,4471103,-1694,4659,-510,7657,265,-101,125,-9,-85
2,4471111,-1697,4663,-525,7652,262,-111,125,-9,-85
2,4471118,-1697,4663,-525,7652,262,-111,125,-9,-85
2,4471126,-1697,4663,-525,7652,262,-111,125,-9,-85
2,4471134,-1699,4670,-503,7651,267,-108,118,-6,-84
2,4471142,-1699,4670,-503,7651,267,-108,118,-6,-84
2,4471150,-1699,4670,-503,7651,267,-108,118,-6,-84
2,4471158,-1698,4667,-522,7656,267,-108,118,-6,-84
2,4471166,-1698,4667,-522,7656,267,-108,118,-6,-84
2,4471175,-1697,4668,-508,7663,260,-113,118,-6,-84
2,4471183,-1697,4668,-508,7663,260,-113,118,-6,-84
2,4471190,-1697,4668,-508,7663,260,-113,118,-6,-84
2,4471198,-1691,4668,-518,7657,262,-111,118,-6,-84
2,4471206,-1691,4668,-518,7657,262,-111,118,-6,-84
2,4471214,-1697,4666,-506,7659,267,-107,118,-6,-84
2,4471224,-1697,4666,-506,7659,267,-107,118,-6,-84
2,4471231,-1693,4667,-508,7661,262,-103,118,-6,-84
2,4471239,-1693,4667,-508,7661,262,-103,118,-6,-84
2,4471248,-1693,4667,-508,7661,262,-103,118,-6,-84
2,4471258,-1694,4662,-504,7655,264,-105,96,-22,-98
2,4471267,-1694,4662,-504,7655,264,-105,96,-22,-98
2,4471276,-1696,4667,-503,7652,269,-109,96,-22,-98
2,4471285,-1696,4667,-503,7652,269,-109,96,-22,-98
2,4471294,-1696,4669,-499,7652,267,-105,96,-22,-98
2,4471304,-1696,4669,-499,7652,267,-105,96,-22,-98
2,4471318,-1692,4664,-501,7659,270,-106,96,-22,-98
2,4471331,-1695,4670,-504,7658,257,-112,96,-22,-98
2,4471345,-1695,4670,-504,7658,257,-112,96,-22,-98
2,4471359,-1696,4672,-508,7656,264,-108,96,-22,-98
2,4471372,-1694,4663,-509,7653,272,-107,96,-22,-98
2,4471386,-1694,4663,-509,7653,272,-107,96,-22,-98
2,4471398,-1694,4667,-533,7648,258,-109,101,-19,-109
2,4471411,-1696,4668,-536,7644,262,-102,101,-19,-109
2,4471425,-1696,4668,-536,7644,262,-102,101,-19,-109
2,4471440,-1695,4674,-520,7652,258,-106,101,-19,-109
2,4471450,-1695,4674,-520,7652,258,-106,101,-19,-109
2,4471461,-1697,4666,-535,7656,254,-109,101,-19,-109
2,4471473,-1698,4670,-535,7657,265,-113,101,-19,-109
2,4471481,-1698,4670,-535,7657,265,-113,101,-19,-109
2,4471490,-1698,4670,-535,7657,265,-113,101,-19,-109
2,4471498,-1694,4666,-522,7653,266,-110,101,-19,-109
2,4471506,-1694,4666,-522,7653,266,-110,101,-19,-109
2,4471513,-1699,4670,-513,7659,259,-109,93,-23,-113
2,4471519,-1699,4670,-513,7659,259,-109,93,-23,-113
2,4471525,-1699,4670,-513,7659,259,-109,93,-23,-113
2,4471534,-1700,4674,-495,7654,260,-107,93,-23,-113
2,4471542,-1700,4674,-495,7654,260,-107,93,-23,-113
2,4471552,-1700,4674,-513,7649,263,-110,93,-23,-113
2,4471560,-1700,4674,-513,7649,263,-110,93,-23,-113
2,4471567,-1700,4674,-513,7649,263,-110,93,-23,-113
2,4471575,-1694,4667,-498,7653,264,-106,93,-23,-113
2,4471583,-1694,4667,-498,7653,264,-106,93,-23,-113
2,4471591,-1697,4669,-506,7650,254,-113,93,-23,-113
2,4471600,-1697,4669,-506,7650,254,-113,93,-23,-113
2,4471607,-1697,4669,-506,7650,254,-113,93,-23,-113
2,4471614,-1695,4671,-500,7651,264,-105,93,-23,-113
2,4471621,-1695,4671,-500,7651,264,-105,93,-23,-113
2,4471629,-1695,4671,-500,7651,264,-105,93,-23,-113
2,4471639,-1697,4668,-504,7656,271,-106,85,-31,-119
2,4471650,-1697,4668,-504,7656,271,-106,85,-31,-119
2,4471663,-1699,4669,-513,7657,260,-101,85,-31,-119
2,4471676,-1696,4667,-512,7655,259,-108,85,-31,-119
2,4471691,-1699,4669,-500,7654,269,-101,85,-31,-119
2,4471702,-1699,4669,-500,7654,269,-101,85,-31,-119
2,4471715,-1698,4668,-506,7654,263,-100,85,-31,-119
2,4471731,-1698,4668,-506,7654,263,-100,85,-31,-119
2,4471741,-1695,4673,-515,7658,264,-101,85,-31,-119
2,4471755,-1697,4671,-513,7661,263,-103,79,-33,-119
2,4471770,-1697,4671,-513,7661,263,-103,79,-33,-119
2,4471783,-1696,4669,-508,7655,262,-105,79,-33,-119
2,4471797,-1697,4667,-504,7648,259,-102,79,-33,-119
2,4471806,-1697,4667,-504,7648,259,-102,79,-33,-119
2,4471817,-1697,4667,-512,7653,261,-112,79,-33,-119
2,4471830,-1697,4667,-512,7653,261,-112,79,-33,-119
2,4471843,-1696,4667,-511,7658,266,-109,79,-33,-119
2,4471856,-1698,4669,-504,7656,260,-108,79,-33,-119
2,4471870,-1698,4669,-504,7656,260,-108,79,-33,-119
2,4471883,-1696,4673,-501,7656,260,-103,75,-31,-123
2,4471897,-1698,4666,-506,7653,257,-105,75,-31,-123
2,4471911,-1698,4666,-506,7653,257,-105,75,-31,-123
2,4471925,-1695,4667,-503,7656,258,-101,75,-31,-123
2,4471938,-1691,4666,-508,7650,260,-108,75,-31,-123
2,4471951,-1691,4666,-508,7650,260,-108,75,-31,-123
2,4471965,-1698,4668,-506,7661,261,-110,75,-31,-123
2,4471980,-1692,4665,-517,7657,263,-108,75,-31,-123
2,4471993,-1695,4667,-533,7655,262,-97,75,-31,-123
2,4472008,-1695,4667,-533,7655,262,-97,75,-31,-123
2,4472024,-1695,4675,-534,7658,268,-105,83,-29,-135
2,4472038,-1693,4671,-519,7659,271,-114,83,-29,-135
2,4472052,-1700,4669,-530,7663,264,-101,83,-29,-135
2,4472066,-1700,4669,-530,7663,264,-101,83,-29,-135
2,4472080,-1696,4666,-532,7661,266,-103,83,-29,-135
2,4472091,-1695,4669,-523,7656,263,-106,83,-29,-135
2,4472107,-1695,4669,-523,7656,263,-106,83,-29,-135
2,4472121,-1696,4666,-522,7654,266,-107,83,-29,-135
2,4472134,-1699,4675,-494,7658,261,-112,79,-33,-135
2,4472148,-1699,4675,-494,7658,261,-112,79,-33,-135
2,4472162,-1695,4672,-514,7654,269,-102,79,-33,-135
2,4472177,-1697,4674,-503,7657,262,-104,79,-33,-135
2,4472187,-1697,4674,-503,7657,262,-104,79,-33,-135
2,4472197,-1697,4671,-510,7651,259,-105,79,-33,-135
2,4472211,-1697,4671,-510,7651,259,-105,79,-33,-135
2,4472226,-1697,4670,-497,7650,258,-104,79,-33,-135
2,4472241,-1693,4672,-510,7654,262,-104,79,-33,-135
2,4472249,-1693,4672,-510,7654,262,-104,79,-33,-135
2,4472264,-1697,4671,-509,7661,262,-100,81,-33,-137
2,4472275,-1693,4665,-507,7664,263,-105,81,-33,-137
2,4472289,-1693,4665,-507,7664,263,-105,81,-33,-137
2,4472302,-1695,4673,-505,7651,266,-106,81,-33,-137
2,4472316,-1694,4669,-510,7659,261,-105,81,-33,-137
2,4472330,-1694,4669,-510,7659,261,-105,81,-33,-137
2,4472344,-1699,4673,-512,7652,267,-107,81,-33,-137
2,4472357,-1694,4672,-507,7652,268,-112,81,-33,-137
2,4472370,-1694,4672,-507,7652,268,-112,81,-33,-137
2,4472384,-1698,4668,-503,7657,263,-107,70,-32,-142
2,4472397,-1693,4668,-504,7659,262,-107,70,-32,-142
2,4472412,-1693,4668,-504,7659,262,-107,70,-32,-142
2,4472427,-1701,4665,-514,7659,261,-105,70,-32,-142
2,4472442,-1699,4671,-515,7662,267,-102,70,-32,-142
2,4472457,-1700,4670,-505,7663,263,-102,70,-32,-142
2,4472470,-1700,4670,-505,7663,263,-102,70,-32,-142
2,4472484,-1698,4672,-508,7658,263,-101,70,-32,-142
2,4472494,-1697,4671,-508,7655,268,-100,82,-22,-158
2,4472507,-1697,4671,-508,7655,268,-100,82,-22,-158
2,4472521,-1696,4667,-507,7654,256,-98,82,-22,-158
2,4472534,-1697,4663,-504,7652,267,-100,82,-22,-158
2,4472546,-1697,4663,-504,7652,267,-100,82,-22,-158
2,4472559,-1695,4672,-502,7657,260,-106,82,-22,-158
2,4472576,-1694,4667,-509,7655,266,-112,82,-22,-158
2,4472590,-1694,4667,-509,7655,266,-112,82,-22,-158
2,4472603,-1695,4672,-526,7653,266,-104,82,-22,-158
2,4472617,-1695,4672,-526,7653,266,-104,82,-22,-158
2,4472631,-1695,4672,-526,7653,266,-104,82,-22,-158
2,4472646,-1694,4676,-518,7655,261,-105,81,-33,-159
2,4472660,-1698,4669,-527,7660,255,-109,81,-33,-159
2,4472672,-1694,4666,-533,7664,270,-106,81,-33,-159
2,4472687,-1694,4666,-533,7664,270,-106,81,-33,-159
2,4472702,-1694,4672,-520,7662,268,-103,81,-33,-159
2,4472717,-1700,4670,-517,7661,264,-102,81,-33,-159
2,4472729,-1700,4670,-517,7661,264,-102,81,-33,-159
2,4472743,-1698,4675,-500,7662,259,-111,81,-33,-159
2,4472758,-1699,4671,-511,7657,269,-106,79,-31,-155
2,4472772,-1697,4670,-496,7661,269,-106,79,-31,-155
2,4472785,-1697,4670,-496,7661,269,-106,79,-31,-155
2,4472800,-1697,4666,-508,7657,270,-110,79,-31,-155
2,4472810,-1697,4666,-508,7657,270,-110,79,-31,-155
2,4472823,-1695,4669,-498,7656,269,-105,79,-31,-155
2,4472837,-1693,4664,-509,7651,274,-109,79,-31,-155
2,4472851,-1693,4664,-509,7651,274,-109,79,-31,-155
2,4472864,-1696,4670,-506,7653,265,-103,79,-31,-155
2,4472877,-1699,4668,-511,7660,263,-106,88,-18,-170
2,4472889,-1699,4668,-511,7660,263,-106,88,-18,-170
2,4472905,-1698,4674,-499,7658,270,-110,88,-18,-170
2,4472921,-1697,4668,-505,7658,273,-106,88,-18,-170
2,4472935,-1696,4674,-507,7656,270,-110,88,-18,-170
2,4472948,-1696,4674,-507,7656,270,-110,88,-18,-170
2,4472962,-1693,4670,-511,7658,261,-109,88,-18,-170
2,4472977,-1696,4668,-504,7649,272,-103,88,-18,-170
2,4472990,-1696,4668,-504,7649,272,-103,88,-18,-170
2,4473003,-1694,4668,-503,7653,268,-107,94,-26,-172
2,4473017,-1696,4669,-504,7651,275,-104,94,-26,-172
2,4473030,-1696,4669,-504,7651,275,-104,94,-26,-172
2,4473043,-1695,4675,-506,7657,266,-105,94,-26,-172
2,4473058,-1695,4674,-511,7656,269,-100,94,-26,-172
2,4473072,-1695,4674,-511,7656,269,-100,94,-26,-172
2,4473085,-1699,4671,-499,7650,269,-103,94,-26,-172
2,4473100,-1699,4664,-495,7652,271,-98,94,-26,-172
2,4473115,-1694,4669,-500,7654,261,-102,96,-24,-172
2,4473126,-1694,4669,-500,7654,261,-102,96,-24,-172
2,4473140,-1696,4666,-501,7660,259,-104,96,-24,-172
2,4473155,-1697,4670,-505,7644,258,-106,96,-24,-172
2,4473170,-1697,4670,-505,7644,258,-106,96,-24,-172
2,4473184,-1690,4667,-508,7646,264,-107,96,-24,-172
2,4473196,-1695,4670,-508,7652,261,-96,96,-24,-172
2,4473211,-1695,4670,-508,7652,261,-96,96,-24,-172
2,4473226,-1694,4668,-536,7650,259,-106,96,-24,-172
2,4473239,-1694,4667,-535,7651,262,-102,115,-23,-179
2,4473252,-1694,4667,-535,7651,262,-102,115,-23,-179
2,4473265,-1694,4667,-535,7651,262,-102,115,-23,-179
2,4473278,-1696,4665,-524,7650,257,-103,115,-23,-179
2,4473293,-1694,4672,-528,7648,269,-106,115,-23,-179
2,4473307,-1694,4672,-528,7648,269,-106,115,-23,-179
2,4473322,-1697,4668,-525,7662,267,-103,115,-23,-179
2,4473333,-1697,4676,-500,7655,267,-104,115,-23,-179
2,4473349,-1697,4676,-500,7655,267,-104,115,-23,-179
2,4473364,-1701,4671,-506,7657,255,-109,115,-23,-179
2,4473379,-1697,4667,-496,7652,261,-110,114,-22,-184
2,4473393,-1695,4665,-507,7650,263,-98,114,-22,-184
2,4473407,-1695,4665,-507,7650,263,-98,114,-22,-184
2,4473420,-1695,4668,-509,7651,252,-104,114,-22,-184
2,4473432,-1695,4668,-509,7651,252,-104,114,-22,-184
2,4473445,-1698,4668,-504,7650,260,-111,114,-22,-184
2,4473459,-1694,4668,-510,7648,262,-106,114,-22,-184
2,4473473,-1695,4672,-522,7657,268,-106,114,-22,-184
2,4473487,-1695,4672,-522,7657,268,-106,114,-22,-184
2,4473500,-1694,4668,-513,7662,272,-102,130,-26,-174
2,4473512,-1699,4670,-516,7656,262,-106,130,-26,-174
2,4473526,-1699,4670,-516,7656,262,-106,130,-26,-174
2,4473540,-1697,4667,-508,7650,260,-113,130,-26,-174
2,4473553,-1698,4671,-512,7651,261,-106,130,-26,-174
2,4473568,-1698,4671,-512,7651,261,-106,130,-26,-174
2,4473583,-1695,4667,-522,7658,271,-103,130,-26,-174
2,4473597,-1697,4671,-507,7656,270,-105,130,-26,-174
2,4473610,-1697,4671,-507,7656,270,-105,130,-26,-174
2,4473625,-1696,4667,-505,7653,272,-101,130,-24,-180
2,4473638,-1694,4669,-496,7656,260,-102,130,-24,-180
2,4473653,-1694,4669,-496,7656,260,-102,130,-24,-180
2,4473664,-1695,4670,-510,7650,262,-103,130,-24,-180
2,4473677,-1697,4666,-495,7650,264,-108,130,-24,-180
2,4473691,-1697,4666,-495,7650,264,-108,130,-24,-180
2,4473704,-1695,4668,-509,7650,266,-103,130,-24,-180
2,4473717,-1695,4668,-509,7650,266,-103,130,-24,-180
2,4473730,-1695,4668,-509,7650,266,-103,130,-24,-180
2,4473744,-1695,4671,-505,7655,267,-102,144,-36,-180
2,4473755,-1692,4668,-502,7655,267,-99,144,-36,-180
2,4473769,-1692,4668,-502,7655,267,-99,144,-36,-180
2,4473778,-1697,4665,-527,7661,260,-106,144,-36,-180
2,4473792,-1697,4665,-527,7661,260,-106,144,-36,-180
2,4473803,-1694,4668,-523,7656,265,-103,144,-36,-180
2,4473815,-1689,4671,-538,7645,260,-104,144,-36,-180
2,4473830,-1689,4671,-538,7645,260,-104,144,-36,-180
2,4473843,-1697,4670,-523,7642,263,-107,144,-36,-180
2,4473858,-1694,4672,-530,7654,259,-104,151,-35,-175
2,4473872,-1694,4672,-530,7654,259,-104,151,-35,-175
2,4473882,-1698,4670,-518,7658,264,-103,151,-35,-175
2,4473894,-1694,4677,-525,7647,257,-102,151,-35,-175
2,4473909,-1694,4677,-525,7647,257,-102,151,-35,-175
2,4473922,-1701,4672,-515,7649,259,-103,151,-35,-175
2,4473935,-1694,4674,-498,7658,268,-101,151,-35,-175
2,4473948,-1694,4674,-498,7658,268,-101,151,-35,-175
2,4473961,-1698,4670,-498,7659,255,-106,151,-35,-175
2,4473974,-1694,4668,-502,7658,266,-99,151,-35,-175
2,4473988,-1694,4668,-502,7658,266,-99,151,-35,-175
2,4474002,-1697,4668,-494,7647,256,-104,159,-37,-183
2,4474017,-1694,4674,-501,7648,261,-107,159,-37,-183
2,4474031,-1694,4674,-501,7648,261,-107,159,-37,-183
2,4474045,-1697,4671,-499,7649,257,-102,159,-37,-183
2,4474059,-1697,4672,-507,7653,264,-105,159,-37,-183
2,4474074,-1699,4671,-511,7655,262,-108,159,-37,-183
2,4474085,-1699,4671,-511,7655,262,-108,159,-37,-183
2,4474099,-1695,4670,-512,7656,262,-101,159,-37,-183
2,4474113,-1695,4670,-512,7656,262,-101,159,-37,-183
2,4474125,-1698,4671,-515,7653,253,-106,175,-35,-181
2,4474137,-1695,4673,-504,7655,264,-103,175,-35,-181
2,4474149,-1695,4673,-504,7655,264,-103,175,-35,-181
2,4474163,-1698,4674,-515,7652,258,-103,175,-35,-181
2,4474175,-1698,4669,-503,7651,265,-104,175,-35,-181
2,4474188,-1698,4669,-503,7651,265,-104,175,-35,-181
2,4474203,-1696,4670,-510,7652,263,-100,175,-35,-181
2,4474215,-1696,4669,-509,7653,262,-103,175,-35,-181
2,4474229,-1696,4669,-509,7653,262,-103,175,-35,-181
2,4474241,-1696,4672,-503,7652,269,-112,186,-26,-178
2,4474255,-1694,4672,-500,7653,264,-107,186,-26,-178
2,4474269,-1694,4672,-500,7653,264,-107,186,-26,-178
2,4474284,-1695,4668,-496,7654,261,-105,186,-26,-178
2,4474299,-1695,4670,-508,7654,265,-109,186,-26,-178
2,4474312,-1695,4670,-508,7654,265,-109,186,-26,-178
2,4474327,-1697,4673,-500,7648,262,-106,186,-26,-178
2,4474341,-1695,4670,-507,7647,262,-101,186,-26,-178
2,4474352,-1695,4670,-507,7647,262,-101,186,-26,-178
2,4474365,-1695,4673,-503,7653,259,-100,196,-36,-168
2,4474379,-1695,4665,-508,7652,257,-108,196,-36,-168
2,4474392,-1695,4665,-508,7652,257,-108,196,-36,-168
2,4474406,-1695,4668,-533,7647,259,-104,196,-36,-168
2,4474415,-1694,4666,-538,7651,263,-103,196,-36,-168
2,4474429,-1694,4666,-538,7651,263,-103,196,-36,-168
2,4474443,-1693,4678,-531,7652,264,-98,196,-36,-168
2,4474456,-1696,4673,-526,7657,260,-103,196,-36,-168
2,4474471,-1696,4673,-526,7657,260,-103,196,-36,-168
2,4474483,-1700,4681,-541,7658,273,-109,205,-25,-163
2,4474497,-1696,4673,-518,7663,263,-110,205,-25,-163
2,4474512,-1696,4673,-518,7663,263,-110,205,-25,-163
2,4474527,-1696,4677,-525,7658,255,-107,205,-25,-163
2,4474542,-1698,4669,-501,7656,260,-105,205,-25,-163
2,4474553,-1698,4669,-501,7656,260,-105,205,-25,-163
2,4474567,-1700,4673,-512,7655,265,-111,205,-25,-163
2,4474580,-1694,4669,-492,7663,265,-103,205,-25,-163
2,4474594,-1698,4674,-507,7655,256,-106,205,-25,-163
2,4474608,-1698,4674,-507,7655,256,-106,205,-25,-163
2,4474622,-1699,4677,-500,7653,257,-98,215,-25,-155
2,4474636,-1696,4676,-501,7652,259,-96,215,-25,-155
2,4474648,-1696,4676,-501,7652,259,-96,215,-25,-155
2,4474662,-1693,4669,-505,7652,259,-98,215,-25,-155
2,4474676,-1698,4670,-508,7648,265,-103,215,-25,-155
2,4474690,-1698,4670,-508,7648,265,-103,215,-25,-155
2,4474701,-1695,4671,-501,7653,268,-102,215,-25,-155
2,4474711,-1695,4671,-501,7653,268,-102,215,-25,-155
2,4474725,-1695,4671,-513,7650,265,-99,215,-25,-155
2,4474740,-1695,4676,-507,7654,263,-101,215,-31,-145
2,4474755,-1696,4672,-505,7657,264,-108,215,-31,-145
2,4474770,-1696,4672,-505,7657,264,-108,215,-31,-145
2,4474784,-1695,4671,-505,7655,264,-101,215,-31,-145
2,4474798,-1694,4670,-508,7654,259,-101,215,-31,-145
2,4474812,-1694,4670,-508,7654,259,-101,215,-31,-145
2,4474824,-1696,4675,-505,7652,259,-101,215,-31,-145
2,4474838,-1696,4674,-504,7651,258,-107,215,-31,-145
2,4474853,-1696,4674,-504,7651,258,-107,215,-31,-145
2,4474866,-1696,4670,-502,7653,260,-107,214,-28,-138
2,4474880,-1696,4669,-494,7655,263,-107,214,-28,-138
2,4474894,-1696,4669,-494,7655,263,-107,214,-28,-138
2,4474907,-1695,4672,-506,7651,266,-108,214,-28,-138
2,4474920,-1695,4671,-498,7644,264,-101,214,-28,-138
2,4474934,-1695,4671,-498,7644,264,-101,214,-28,-138
2,4474947,-1694,4669,-501,7649,260,-101,214,-28,-138
2,4474961,-1694,4670,-504,7650,264,-107,214,-28,-138
2,4474975,-1694,4664,-509,7648,262,-108,220,-24,-132
2,4474991,-1694,4664,-509,7648,262,-108,220,-24,-132
2,4475005,-1696,4673,-506,7647,263,-105,220,-24,-132
2,4475021,-1695,4672,-525,7654,264,-101,220,-24,-132
2,4475033,-1695,4672,-525,7654,264,-101,220,-24,-132
2,4475046,-1695,4676,-533,7659,258,-104,220,-24,-132
2,4475061,-1696,4672,-527,7657,262,-102,220,-24,-132
2,4475073,-1696,4672,-527,7657,262,-102,220,-24,-132
2,4475087,-1695,4668,-532,7654,260,-109,220,-24,-132
2,4475101,-1696,4671,-521,7653,258,-108,214,-30,-120
2,4475114,-1695,4669,-522,7659,267,-108,214,-30,-120
2,4475128,-1695,4669,-522,7659,267,-108,214,-30,-120
2,4475143,-1696,4674,-505,7657,264,-106,214,-30,-120
2,4475151,-1696,4674,-505,7657,264,-106,214,-30,-120
2,4475167,-1696,4670,-496,7661,264,-100,214,-30,-120
2,4475183,-1701,4676,-492,7650,258,-100,214,-30,-120
2,4475198,-1701,4676,-492,7650,258,-100,214,-30,-120
2,4475210,-1701,4676,-492,7650,258,-100,214,-30,-120
2,4475225,-1701,4676,-492,7650,258,-100,214,-30,-120
2,4475240,-1694,4667,-505,7650,261,-113,219,-29,-119
2,4475255,-1695,4670,-509,7655,262,-110,219,-29,-119
2,4475269,-1695,4670,-509,7655,262,-110,219,-29,-119
2,4475282,-1693,4667,-512,7656,265,-110,219,-29,-119
2,4475295,-1694,4668,-528,7650,266,-105,219,-29,-119
2,4475310,-1694,4668,-528,7650,266,-105,219,-29,-119
2,4475325,-1696,4676,-515,7656,262,-108,219,-29,-119
2,4475337,-1698,4675,-518,7657,261,-106,219,-29,-119
2,4475352,-1698,4675,-518,7657,261,-106,219,-29,-119
2,4475365,-1695,4674,-505,7656,258,-101,217,-29,-113
2,4475378,-1698,4667,-521,7658,262,-102,217,-29,-113
2,4475394,-1698,4667,-521,7658,262,-102,217,-29,-113
2,4475409,-1695,4671,-506,7656,259,-106,217,-29,-113
2,4475423,-1699,4666,-513,7658,263,-103,217,-29,-113
2,4475437,-1695,4675,-490,7655,260,-105,217,-29,-113
2,4475451,-1695,4675,-490,7655,260,-105,217,-29,-113
2,4475464,-1697,4668,-515,7659,256,-108,217,-29,-113
2,4475474,-1697,4677,-494,7662,253,-112,212,-22,-112
2,4475489,-1697,4677,-494,7662,253,-112,212,-22,-112
2,4475502,-1697,4670,-506,7652,253,-108,212,-22,-112
2,4475516,-1698,4675,-491,7653,260,-107,212,-22,-112
2,4475530,-1698,4675,-491,7653,260,-107,212,-22,-112
2,4475544,-1695,4669,-510,7651,269,-107,212,-22,-112
2,4475558,-1694,4668,-507,7650,267,-105,212,-22,-112
2,4475572,-1694,4668,-507,7650,267,-105,212,-22,-112
2,4475584,-1695,4670,-517,7657,270,-105,212,-22,-112
2,4475598,-1692,4672,-511,7655,264,-108,207,-21,-103
2,4475612,-1692,4672,-511,7655,264,-108,207,-21,-103
2,4475625,-1698,4676,-535,7661,262,-102,207,-21,-103
2,4475637,-1697,4676,-521,7660,272,-101,207,-21,-103
2,4475653,-1697,4676,-521,7660,272,-101,207,-21,-103
2,4475668,-1697,4677,-518,7660,266,-103,207,-21,-103
2,4475679,-1695,4669,-523,7657,259,-103,207,-21,-103
2,4475695,-1695,4669,-523,7657,259,-103,207,-21,-103
2,4475710,-1694,4675,-515,7656,267,-110,207,-21,-103
2,4475725,-1694,4671,-516,7657,264,-111,207,-7,-103
2,4475739,-1697,4674,-492,7665,261,-104,207,-7,-103
2,4475749,-1697,4674,-492,7665,261,-104,207,-7,-103
2,4475761,-1698,4674,-508,7658,261,-115,207,-7,-103
2,4475776,-1697,4678,-492,7656,260,-111,207,-7,-103
2,4475790,-1697,4678,-492,7656,260,-111,207,-7,-103
2,4475803,-1694,4674,-511,7654,262,-109,207,-7,-103
2,4475817,-1697,4678,-491,7654,264,-109,207,-7,-103
2,4475831,-1697,4678,-491,7654,264,-109,207,-7,-103
2,4475844,-1695,4672,-506,7652,269,-106,207,-7,-103
2,4475859,-1692,4675,-502,7654,260,-106,197,-7,-87
2,4475873,-1692,4675,-502,7654,260,-106,197,-7,-87
2,4475885,-1694,4672,-515,7656,261,-105,197,-7,-87
2,4475899,-1695,4673,-505,7655,257,-113,197,-7,-87
2,4475914,-1695,4673,-505,7655,257,-113,197,-7,-87
2,4475924,-1697,4676,-510,7650,259,-104,197,-7,-87
2,4475938,-1695,4674,-507,7655,266,-104,197,-7,-87
2,4475954,-1695,4674,-507,7655,266,-104,197,-7,-87
2,4475969,-1696,4676,-518,7656,261,-106,197,-7,-87
2,4475984,-1697,4667,-508,7651,258,-105,192,0,-80
2,4475998,-1695,4677,-503,7653,268,-105,192,0,-80
2,4476010,-1695,4677,-503,7653,268,-105,192,0,-80
2,4476024,-1693,4672,-504,7655,273,-106,192,0,-80
2,4476038,-1693,4680,-505,7658,264,-108,192,0,-80
2,4476051,-1693,4680,-505,7658,264,-108,192,0,-80
2,4476065,-1694,4671,-501,7655,269,-107,192,0,-80
2,4476079,-1697,4673,-505,7655,264,-104,192,0,-80
2,4476094,-1697,4673,-505,7655,264,-104,192,0,-80
2,4476107,-1692,4669,-496,7653,268,-100,187,-11,-87
2,4476121,-1697,4670,-500,7656,264,-102,187,-11,-87
2,4476134,-1697,4670,-500,7656,264,-102,187,-11,-87
2,4476147,-1693,4669,-511,7651,260,-101,187,-11,-87
2,4476162,-1694,4674,-506,7652,272,-111,187,-11,-87
2,4476170,-1694,4674,-506,7652,272,-111,187,-11,-87
2,4476183,-1693,4671,-507,7654,261,-104,187,-11,-87
2,4476197,-1696,4672,-509,7649,262,-102,187,-11,-87
2,4476213,-1696,4672,-509,7649,262,-102,187,-11,-87
2,4476229,-1696,4671,-535,7644,260,-107,175,1,-87
2,4476244,-1694,4678,-524,7652,263,-109,175,1,-87
2,4476259,-1694,4678,-524,7652,263,-109,175,1,-87
2,4476272,-1694,4678,-524,7652,263,-109,175,1,-87
2,4476285,-1694,4674,-534,7653,261,-103,175,1,-87
2,4476300,-1693,4673,-531,7658,273,-99,175,1,-87
2,4476314,-1693,4673,-531,7658,273,-99,175,1,-87
2,4476328,-1695,4675,-513,7660,269,-100,175,1,-87
2,4476341,-1698,4679,-508,7658,262,-103,164,-6,-76
2,4476354,-1698,4679,-508,7658,262,-103,164,-6,-76
2,4476367,-1696,4675,-497,7656,262,-105,164,-6,-76
2,4476382,-1695,4676,-502,7660,259,-112,164,-6,-76
2,4476394,-1695,4676,-502,7660,259,-112,164,-6,-76
2,4476407,-1693,4676,-499,7652,262,-110,164,-6,-76
2,4476423,-1699,4675,-509,7648,263,-106,164,-6,-76
2,4476438,-1693,4673,-492,7658,264,-100,164,-6,-76
2,4476452,-1693,4673,-492,7658,264,-100,164,-6,-76
2,4476465,-1693,4672,-512,7654,261,-105,164,-6,-76
2,4476480,-1697,4672,-512,7645,260,-105,163,-3,-79
2,4476495,-1698,4676,-512,7651,258,-112,163,-3,-79
2,4476510,-1698,4676,-512,7651,258,-112,163,-3,-79
2,4476523,-1698,4676,-512,7651,258,-112,163,-3,-79
2,4476536,-1697,4675,-514,7653,266,-96,163,-3,-79
2,4476549,-1697,4675,-514,7653,266,-96,163,-3,-79
2,4476564,-1696,4670,-510,7653,269,-104,163,-3,-79
2,4476579,-1701,4672,-510,7656,268,-112,163,-3,-79
2,4476594,-1701,4672,-510,7656,268,-112,163,-3,-79
2,4476608,-1695,4674,-494,7651,266,-104,151,-5,-79
2,4476623,-1694,4680,-508,7655,260,-105,151,-5,-79
2,4476639,-1696,4672,-499,7660,258,-105,151,-5,-79
2,4476652,-1696,4672,-499,7660,258,-105,151,-5,-79
2,4476665,-1696,4677,-503,7650,261,-108,151,-5,-79
2,4476681,-1693,4670,-495,7649,261,-106,151,-5,-79
2,4476696,-1695,4672,-496,7647,266,-98,151,-5,-79
2,4476709,-1695,4672,-496,7647,266,-98,151,-5,-79
2,4476723,-1694,4669,-494,7649,257,-106,146,-6,-76
2,4476738,-1692,4673,-508,7652,265,-104,146,-6,-76
2,4476749,-1692,4673,-508,7652,265,-104,146,-6,-76
2,4476762,-1692,4672,-503,7660,264,-103,146,-6,-76
2,4476775,-1692,4672,-503,7660,264,-103,146,-6,-76
2,4476788,-1691,4675,-509,7654,265,-101,146,-6,-76
2,4476802,-1696,4675,-510,7648,266,-104,146,-6,-76
2,4476815,-1696,4675,-510,7648,266,-104,146,-6,-76
2,4476827,-1693,4676,-534,7643,270,-113,146,-6,-76
2,4476841,-1694,4670,-528,7653,269,-109,134,-4,-84
2,4476856,-1694,4670,-528,7653,269,-109,134,-4,-84
2,4476869,-1692,4672,-525,7654,273,-101,134,-4,-84
2,4476884,-1693,4672,-525,7652,265,-98,134,-4,-84
2,4476900,-1695,4677,-523,7658,267,-105,134,-4,-84
2,4476914,-1695,4677,-523,7658,267,-105,134,-4,-84
2,4476928,-1698,4678,-512,7657,269,-107,134,-4,-84
2,4476942,-1698,4675,-493,7653,265,-104,134,-4,-84
2,4476956,-1700,4671,-497,7656,253,-105,126,-16,-76
2,4476968,-1700,4671,-497,7656,253,-105,126,-16,-76
2,4476981,-1699,4670,-500,7662,270,-101,126,-16,-76
2,4476995,-1699,4670,-500,7662,270,-101,126,-16,-76
2,4477008,-1697,4676,-507,7655,259,-107,126,-16,-76
2,4477023,-1697,4670,-498,7660,261,-102,126,-16,-76
2,4477036,-1696,4671,-504,7650,263,-103,126,-16,-76
2,4477046,-1696,4671,-504,7650,263,-103,126,-16,-76
2,4477057,-1695,4669,-508,7652,260,-105,126,-16,-76
2,4477071,-1695,4669,-508,7652,260,-105,126,-16,-76
2,4477085,-1698,4674,-510,7653,261,-105,120,-10,-84
2,4477101,-1699,4674,-511,7650,254,-108,120,-10,-84
2,4477114,-1699,4674,-511,7650,254,-108,120,-10,-84
2,4477128,-1696,4674,-511,7655,271,-101,120,-10,-84
2,4477144,-1696,4670,-520,7655,259,-108,120,-10,-84
2,4477159,-1695,4673,-517,7652,257,-96,120,-10,-84
2,4477174,-1695,4673,-517,7652,257,-96,120,-10,-84
2,4477188,-1692,4672,-513,7656,264,-99,120,-10,-84
2,4477200,-1695,4676,-510,7654,258,-105,120,-10,-84
2,4477213,-1695,4676,-510,7654,258,-105,120,-10,-84
2,4477227,-1691,4669,-504,7654,251,-99,106,-16,-96
2,4477241,-1690,4678,-503,7660,262,-103,106,-16,-96
2,4477254,-1690,4678,-503,7660,262,-103,106,-16,-96
2,4477263,-1696,4671,-509,7657,256,-96,106,-16,-96
2,4477278,-1694,4671,-498,7653,264,-99,106,-16,-96
2,4477290,-1694,4671,-498,7653,264,-99,106,-16,-96
2,4477304,-1692,4670,-511,7649,266,-103,106,-16,-96
2,4477315,-1692,4670,-511,7649,266,-103,106,-16,-96
2,4477329,-1693,4671,-501,7645,255,-105,106,-16,-96
2,4477344,-1696,4670,-503,7652,255,-101,105,-25,-93
2,4477360,-1697,4670,-498,7650,259,-96,105,-25,-93
2,4477375,-1697,4670,-498,7650,259,-96,105,-25,-93
2,4477386,-1691,4669,-511,7650,261,-104,105,-25,-93
2,4477401,-1694,4671,-519,7657,258,-98,105,-25,-93
2,4477416,-1694,4671,-519,7657,258,-98,105,-25,-93
2,4477429,-1698,4670,-542,7659,265,-103,105,-25,-93
2,4477444,-1697,4676,-522,7650,259,-103,105,-25,-93
2,4477457,-1693,4673,-520,7655,261,-104,91,-19,-111
2,4477471,-1693,4673,-520,7655,261,-104,91,-19,-111
2,4477486,-1698,4673,-533,7662,260,-105,91,-19,-111
2,4477499,-1692,4682,-520,7655,267,-108,91,-19,-111
2,4477512,-1692,4682,-520,7655,267,-108,91,-19,-111
2,4477528,-1696,4680,-513,7661,271,-109,91,-19,-111
2,4477542,-1699,4674,-505,7660,260,-104,91,-19,-111
2,4477556,-1699,4674,-505,7660,260,-104,91,-19,-111
2,4477571,-1696,4667,-505,7653,276,-104,91,-19,-111
2,4477583,-1692,4672,-505,7653,271,-101,90,-26,-108
2,4477596,-1692,4672,-505,7653,271,-101,90,-26,-108
2,4477611,-1694,4670,-505,7657,257,-103,90,-26,-108
2,4477624,-1697,4677,-500,7657,261,-107,90,-26,-108
2,4477636,-1697,4677,-500,7657,261,-107,90,-26,-108
2,4477649,-1693,4672,-501,7654,265,-113,90,-26,-108
2,4477664,-1691,4676,-510,7650,259,-107,90,-26,-108
2,4477677,-1691,4671,-516,7650,268,-107,90,-26,-108
2,4477690,-1691,4671,-516,7650,268,-107,90,-26,-108
2,4477704,-1694,4674,-509,7647,268,-102,79,-29,-119
2,4477713,-1694,4674,-509,7647,268,-102,79,-29,-119
2,4477727,-1692,4672,-500,7654,265,-101,79,-29,-119
2,4477742,-1693,4674,-516,7644,267,-106,79,-29,-119
2,4477755,-1693,4674,-516,7644,267,-106,79,-29,-119
2,4477769,-1693,4669,-515,7653,274,-100,79,-29,-119
2,4477782,-1697,4672,-513,7663,272,-102,79,-29,-119
2,4477797,-1698,4674,-513,7657,265,-106,79,-29,-119
2,4477808,-1698,4674,-513,7657,265,-106,79,-29,-119
2,4477822,-1694,4676,-516,7655,262,-101,79,-29,-119
2,4477838,-1693,4673,-498,7658,265,-110,79,-25,-117
2,4477853,-1693,4673,-498,7658,265,-110,79,-25,-117
2,4477867,-1695,4668,-506,7663,266,-108,79,-25,-117
2,4477881,-1695,4674,-504,7659,261,-100,79,-25,-117
2,4477894,-1695,4674,-504,7659,261,-100,79,-25,-117
2,4477908,-1693,4672,-503,7653,260,-109,79,-25,-117
2,4477924,-1698,4672,-507,7654,267,-111,79,-25,-117
2,4477937,-1697,4670,-505,7651,263,-111,79,-25,-117
2,4477949,-1697,4670,-505,7651,263,-111,79,-25,-117
2,4477963,-1692,4674,-504,7650,264,-104,70,-28,-126
2,4477976,-1692,4674,-504,7650,264,-104,70,-28,-126
2,4477991,-1693,4666,-503,7652,250,-105,70,-28,-126
2,4478005,-1691,4673,-524,7653,250,-105,70,-28,-126
2,4478017,-1694,4671,-534,7652,257,-107,70,-28,-126
2,4478031,-1694,4671,-534,7652,257,-107,70,-28,-126
2,4478047,-1696,4673,-526,7652,265,-112,70,-28,-126
2,4478062,-1698,4674,-518,7651,262,-106,70,-28,-126
2,4478076,-1698,4674,-518,7651,262,-106,70,-28,-126
2,4478089,-1696,4676,-534,7649,262,-107,84,-38,-134
2,4478103,-1695,4673,-502,7650,260,-103,84,-38,-134
2,4478116,-1695,4673,-502,7650,260,-103,84,-38,-134
2,4478131,-1695,4679,-520,7656,262,-104,84,-38,-134
2,4478144,-1694,4670,-500,7661,265,-101,84,-38,-134
2,4478158,-1694,4671,-501,7655,273,-101,84,-38,-134
2,4478174,-1694,4671,-501,7655,273,-101,84,-38,-134
2,4478188,-1693,4672,-499,7654,274,-104,84,-38,-134
2,4478200,-1697,4674,-499,7658,259,-108,71,-35,-137
2,4478215,-1697,4674,-499,7658,259,-108,71,-35,-137
2,4478228,-1699,4676,-494,7655,263,-104,71,-35,-137
2,4478242,-1693,4676,-505,7661,271,-105,71,-35,-137
2,4478255,-1693,4676,-505,7661,271,-105,71,-35,-137
2,4478268,-1694,4671,-504,7657,264,-106,71,-35,-137
2,4478282,-1694,4671,-504,7657,264,-106,71,-35,-137
2,4478298,-1691,4671,-507,7644,259,-96,71,-35,-137
2,4478310,-1691,4671,-507,7644,259,-96,71,-35,-137
2,4478320,-1694,4674,-510,7658,266,-95,78,-32,-146
2,4478333,-1694,4674,-510,7658,266,-95,78,-32,-146
2,4478348,-1695,4671,-514,7654,267,-106,78,-32,-146
2,4478361,-1698,4675,-517,7663,262,-108,78,-32,-146
2,4478373,-1698,4675,-517,7663,262,-108,78,-32,-146
2,4478387,-1695,4672,-510,7664,257,-107,78,-32,-146
2,4478401,-1698,4671,-507,7656,253,-111,78,-32,-146
2,4478415,-1698,4671,-507,7656,253,-111,78,-32,-146
2,4478429,-1694,4673,-501,7658,268,-105,78,-32,-146
2,4478441,-1696,4667,-498,7660,267,-95,78,-32,-146
2,4478453,-1696,4667,-498,7660,267,-95,78,-32,-146
2,4478468,-1695,4666,-499,7651,265,-107,81,-25,-149
2,4478482,-1698,4673,-500,7655,260,-103,81,-25,-149
2,4478495,-1698,4673,-500,7655,260,-103,81,-25,-149
2,4478511,-1695,4671,-497,7651,269,-101,81,-25,-149
2,4478526,-1692,4674,-505,7658,269,-104,81,-25,-149
2,4478541,-1695,4670,-501,7657,260,-106,81,-25,-149
2,4478557,-1695,4670,-501,7657,260,-106,81,-25,-149
2,4478570,-1693,4664,-501,7650,267,-103,81,-25,-149
2,4478584,-1694,4665,-500,7655,268,-106,81,-31,-155
2,4478599,-1694,4671,-513,7658,259,-108,81,-31,-155
2,4478611,-1694,4671,-513,7658,259,-108,81,-31,-155
2,4478622,-1694,4672,-527,7654,261,-109,81,-31,-155
2,4478637,-1694,4672,-527,7654,261,-109,81,-31,-155
2,4478650,-1696,4675,-519,7656,271,-105,81,-31,-155
2,4478664,-1693,4675,-515,7654,265,-106,81,-31,-155
2,4478678,-1698,4668,-527,7651,258,-108,81,-31,-155
2,4478686,-1698,4668,-527,7651,258,-108,81,-31,-155
2,4478699,-1696,4673,-511,7652,255,-99,89,-33,-157
2,4478713,-1696,4673,-511,7652,255,-99,89,-33,-157
2,4478728,-1695,4668,-509,7655,256,-96,89,-33,-157
2,4478742,-1699,4669,-495,7658,259,-100,89,-33,-157
2,4478754,-1699,4669,-495,7658,259,-100,89,-33,-157
2,4478770,-1696,4667,-497,7659,264,-102,89,-33,-157
2,4478781,-1696,4676,-500,7657,261,-104,89,-33,-157
2,4478793,-1696,4676,-500,7657,261,-104,89,-33,-157
2,4478809,-1698,4671,-496,7657,269,-101,89,-33,-157
2,4478823,-1697,4675,-502,7661,260,-102,81,-19,-167
2,4478837,-1697,4675,-502,7661,260,-102,81,-19,-167
2,4478851,-1694,4670,-500,7653,274,-102,81,-19,-167
2,4478864,-1690,4668,-506,7655,276,-109,81,-19,-167
2,4478878,-1697,4666,-512,7652,262,-102,81,-19,-167
2,4478892,-1697,4666,-512,7652,262,-102,81,-19,-167
2,4478905,-1694,4671,-509,7659,253,-113,81,-19,-167
2,4478919,-1694,4670,-505,7659,262,-99,81,-19,-167
2,4478934,-1694,4670,-505,7659,262,-99,81,-19,-167
2,4478947,-1697,4670,-512,7655,260,-102,92,-22,-170
2,4478962,-1692,4675,-508,7651,255,-102,92,-22,-170
2,4478978,-1692,4675,-508,7651,255,-102,92,-22,-170
2,4478993,-1695,4667,-510,7656,261,-103,92,-22,-170
2,4479006,-1696,4669,-505,7653,264,-106,92,-22,-170
2,4479021,-1695,4665,-513,7653,258,-106,92,-22,-170
2,4479035,-1695,4665,-513,7653,258,-106,92,-22,-170
2,4479050,-1696,4666,-496,7658,260,-100,92,-22,-170
2,4479062,-1698,4668,-504,7652,266,-100,92,-22,-170
2,4479075,-1698,4668,-504,7652,266,-100,92,-22,-170
2,4479088,-1696,4669,-495,7653,262,-105,95,-17,-175
2,4479101,-1694,4668,-502,7653,271,-110,95,-17,-175
2,4479116,-1694,4668,-502,7653,271,-110,95,-17,-175
2,4479129,-1696,4672,-504,7653,264,-108,95,-17,-175
2,4479142,-1695,4667,-504,7659,266,-102,95,-17,-175
2,4479156,-1695,4667,-504,7659,266,-102,95,-17,-175
2,4479169,-1692,4664,-502,7652,256,-102,95,-17,-175
2,4479182,-1692,4663,-505,7650,248,-103,95,-17,-175
2,4479198,-1692,4663,-505,7650,248,-103,95,-17,-175
2,4479212,-1694,4665,-520,7653,259,-102,112,-30,-176
2,4479225,-1696,4670,-534,7650,273,-106,112,-30,-176
2,4479239,-1699,4672,-534,7653,268,-96,112,-30,-176
2,4479254,-1699,4672,-534,7653,268,-96,112,-30,-176
2,4479268,-1696,4670,-517,7654,256,-106,112,-30,-176
2,4479281,-1700,4671,-542,7664,254,-105,112,-30,-176
2,4479294,-1700,4671,-542,7664,254,-105,112,-30,-176
2,4479308,-1693,4669,-517,7659,270,-108,112,-30,-176
2,4479322,-1694,4671,-511,7657,264,-102,119,-25,-177
2,4479335,-1694,4671,-511,7657,264,-102,119,-25,-177
2,4479349,-1694,4669,-490,7655,256,-96,119,-25,-177
2,4479363,-1698,4669,-501,7661,260,-100,119,-25,-177
2,4479375,-1698,4669,-501,7661,260,-100,119,-25,-177
2,4479388,-1698,4666,-493,7657,270,-109,119,-25,-177
2,4479403,-1697,4670,-511,7658,271,-98,119,-25,-177
2,4479415,-1697,4670,-511,7658,271,-98,119,-25,-177
2,4479428,-1696,4671,-498,7657,272,-99,119,-25,-177
2,4479440,-1696,4667,-496,7655,266,-101,125,-33,-175
2,4479455,-1696,4667,-496,7655,266,-101,125,-33,-175
2,4479469,-1695,4666,-507,7655,265,-102,125,-33,-175
2,4479482,-1693,4665,-525,7653,262,-103,125,-33,-175
2,4479498,-1693,4665,-525,7653,262,-103,125,-33,-175
2,4479513,-1694,4668,-516,7653,262,-103,125,-33,-175
2,4479528,-1694,4674,-508,7651,262,-103,125,-33,-175
2,4479543,-1699,4668,-511,7656,266,-101,125,-33,-175
2,4479556,-1699,4668,-511,7656,266,-101,125,-33,-175
2,4479570,-1696,4674,-505,7661,270,-104,134,-32,-180
2,4479584,-1694,4667,-512,7658,271,-102,134,-32,-180
2,4479596,-1694,4667,-512,7658,271,-102,134,-32,-180
2,4479609,-1691,4670,-501,7659,266,-103,134,-32,-180
2,4479623,-1698,4671,-505,7653,264,-111,134,-32,-180
2,4479636,-1698,4671,-505,7653,264,-111,134,-32,-180
2,4479649,-1694,4671,-504,7653,266,-109,134,-32,-180
2,4479661,-1696,4667,-505,7649,267,-111,134,-32,-180
2,4479675,-1696,4667,-505,7649,267,-111,134,-32,-180
2,4479690,-1696,4667,-505,7649,267,-111,134,-32,-180
2,4479706,-1695,4669,-498,7657,263,-102,144,-30,-178
2,4479721,-1699,4667,-509,7660,270,-98,144,-30,-178
2,4479735,-1699,4667,-509,7660,270,-98,144,-30,-178
2,4479748,-1697,4670,-505,7659,269,-98,144,-30,-178
2,4479762,-1695,4666,-503,7656,260,-107,144,-30,-178
2,4479776,-1695,4666,-503,7656,260,-107,144,-30,-178
2,4479790,-1699,4668,-510,7656,262,-107,144,-30,-178
2,4479803,-1699,4671,-530,7655,269,-103,144,-30,-178
2,4479817,-1699,4671,-530,7655,269,-103,144,-30,-178
2,4479830,-1699,4672,-528,7656,268,-106,153,-29,-181
2,4479843,-1698,4667,-530,7661,264,-107,153,-29,-181
2,4479856,-1698,4667,-530,7661,264,-107,153,-29,-181
2,4479869,-1702,4669,-514,7655,260,-101,153,-29,-181
2,4479884,-1695,4671,-542,7659,268,-105,153,-29,-181
2,4479900,-1697,4672,-512,7660,272,-106,153,-29,-181
2,4479916,-1697,4672,-512,7660,272,-106,153,-29,-181
2,4479931,-1696,4674,-513,7653,264,-103,153,-29,-181
2,4479945,-1698,4673,-494,7655,265,-105,162,-44,-182
2,4479960,-1696,4669,-503,7659,271,-108,162,-44,-182
2,4479974,-1696,4669,-503,7659,271,-108,162,-44,-182
2,4479984,-1698,4672,-504,7662,265,-105,162,-44,-182
2,4479996,-1698,4672,-504,7662,265,-105,162,-44,-182
2,4480011,-1696,4667,-503,7658,259,-112,162,-44,-182
2,4480024,-1698,4673,-495,7652,264,-106,162,-44,-182
2,4480037,-1698,4673,-495,7652,264,-106,162,-44,-182
2,4480053,-1697,4664,-501,7655,266,-103,162,-44,-182
2,4480065,-1698,4671,-507,7655,263,-101,170,-42,-190
2,4480077,-1698,4671,-507,7655,263,-101,170,-42,-190
2,4480091,-1695,4670,-510,7653,261,-103,170,-42,-190
2,4480105,-1699,4671,-508,7651,268,-99,170,-42,-190
2,4480118,-1694,4675,-507,7653,269,-101,170,-42,-190
2,4480134,-1694,4675,-507,7653,269,-101,170,-42,-190
2,4480145,-1697,4668,-508,7653,274,-107,170,-42,-190
2,4480160,-1694,4669,-509,7654,270,-110,170,-42,-190
2,4480176,-1694,4669,-509,7654,270,-110,170,-42,-190
2,4480191,-1696,4669,-509,7656,266,-105,182,-36,-182
2,4480205,-1695,4670,-507,7654,260,-104,182,-36,-182
2,4480217,-1695,4670,-507,7654,260,-104,182,-36,-182
2,4480231,-1696,4671,-506,7654,259,-100,182,-36,-182
2,4480244,-1693,4674,-506,7649,269,-107,182,-36,-182
2,4480258,-1693,4674,-506,7649,269,-107,182,-36,-182
2,4480272,-1695,4669,-506,7650,265,-108,182,-36,-182
2,4480285,-1695,4670,-504,7652,259,-112,182,-36,-182
2,4480295,-1695,4670,-504,7652,259,-112,182,-36,-182
2,4480309,-1695,4664,-497,7655,270,-111,182,-36,-182
2,4480323,-1693,4667,-502,7653,271,-106,182,-36,-182
2,4480336,-1693,4667,-502,7653,271,-106,182,-36,-182
2,4480352,-1699,4667,-508,7652,271,-104,182,-36,-182
2,4480363,-1695,4670,-506,7654,266,-107,182,-36,-182
2,4480378,-1695,4670,-506,7654,266,-107,182,-36,-182
2,4480393,-1699,4669,-513,7647,265,-107,182,-36,-182
2,4480408,-1696,4672,-515,7657,264,-107,182,-36,-182
2,4480420,-1698,4669,-540,7657,269,-105,182,-36,-182
2,4480435,-1698,4669,-540,7657,269,-105,182,-36,-182
2,4480450,-1692,4669,-531,7658,263,-103,204,-26,-164
2,4480465,-1696,4669,-522,7661,268,-107,204,-26,-164
2,4480479,-1696,4669,-522,7661,268,-107,204,-26,-164
2,4480492,-1698,4667,-537,7658,263,-99,204,-26,-164
2,4480506,-1697,4671,-523,7658,267,-102,204,-26,-164
2,4480519,-1697,4671,-523,7658,267,-102,204,-26,-164
2,4480534,-1697,4677,-506,7657,263,-101,204,-26,-164
2,4480547,-1699,4672,-503,7660,256,-100,204,-26,-164
2,4480561,-1696,4670,-493,7657,265,-106,202,-28,-158
2,4480574,-1696,4670,-493,7657,265,-106,202,-28,-158
2,4480588,-1695,4671,-505,7655,267,-101,202,-28,-158
2,4480600,-1698,4668,-497,7660,264,-108,202,-28,-158
2,4480613,-1698,4668,-497,7660,264,-108,202,-28,-158
2,4480626,-1699,4669,-504,7653,270,-108,202,-28,-158
2,4480640,-1695,4668,-501,7656,267,-101,202,-28,-158
2,4480655,-1695,4668,-501,7656,267,-101,202,-28,-158
2,4480670,-1694,4671,-510,7661,266,-101,202,-28,-158
2,4480686,-1700,4665,-509,7660,269,-102,216,-30,-148
2,4480700,-1698,4670,-509,7660,262,-96,216,-30,-148
2,4480713,-1698,4670,-509,7660,262,-96,216,-30,-148
2,4480728,-1698,4668,-501,7654,265,-98,216,-30,-148
2,4480742,-1697,4667,-512,7654,263,-108,216,-30,-148
2,4480754,-1697,4667,-512,7654,263,-108,216,-30,-148
2,4480768,-1695,4666,-505,7662,265,-110,216,-30,-148
2,4480781,-1696,4668,-509,7657,265,-105,216,-30,-148
2,4480795,-1696,4668,-509,7657,265,-105,216,-30,-148
2,4480808,-1695,4668,-504,7658,258,-103,214,-30,-144
2,4480824,-1700,4671,-509,7657,266,-106,214,-30,-144
2,4480838,-1700,4671,-509,7657,266,-106,214,-30,-144
2,4480850,-1699,4667,-503,7658,271,-105,214,-30,-144
2,4480864,-1696,4669,-506,7655,261,-104,214,-30,-144
2,4480877,-1696,4669,-506,7655,261,-104,214,-30,-144
2,4480891,-1695,4663,-500,7660,265,-106,214,-30,-144
2,4480907,-1698,4670,-503,7661,261,-107,214,-30,-144
2,4480920,-1697,4665,-504,7663,263,-110,209,-31,-127
2,4480931,-1697,4665,-504,7663,263,-110,209,-31,-127
2,4480947,-1698,4671,-504,7649,266,-107,209,-31,-127
2,4480962,-1697,4664,-509,7658,268,-104,209,-31,-127
2,4480976,-1697,4664,-509,7658,268,-104,209,-31,-127
2,4480988,-1699,4666,-514,7664,263,-103,209,-31,-127
2,4481001,-1696,4666,-517,7657,264,-96,209,-31,-127
2,4481014,-1696,4666,-517,7657,264,-96,209,-31,-127
2,4481029,-1696,4669,-536,7655,258,-103,209,-31,-127
2,4481043,-1697,4665,-536,7656,265,-103,209,-31,-127
2,4481056,-1697,4665,-536,7656,265,-103,209,-31,-127
2,4481069,-1698,4669,-522,7660,262,-106,211,-31,-127
2,4481082,-1698,4672,-532,7658,268,-113,211,-31,-127
2,4481095,-1698,4672,-532,7658,268,-113,211,-31,-127
2,4481110,-1697,4673,-526,7656,270,-109,211,-31,-127
2,4481124,-1698,4676,-517,7659,267,-107,211,-31,-127
2,4481138,-1698,4676,-517,7659,267,-107,211,-31,-127
2,4481150,-1695,4672,-504,7655,268,-106,211,-31,-127
2,4481166,-1699,4670,-500,7654,261,-108,211,-31,-127
2,4481181,-1699,4665,-506,7657,262,-99,212,-26,-120
2,4481196,-1699,4665,-506,7657,262,-99,212,-26,-120
2,4481210,-1695,4668,-506,7652,267,-97,212,-26,-120
2,4481222,-1697,4674,-513,7653,265,-104,212,-26,-120
2,4481234,-1697,4674,-513,7653,265,-104,212,-26,-120
2,4481249,-1696,4669,-502,7660,264,-105,212,-26,-120
2,4481262,-1696,4669,-502,7660,264,-105,212,-26,-120
2,4481276,-1696,4669,-502,7660,264,-105,212,-26,-120
2,4481288,-1698,4672,-515,7651,263,-109,212,-26,-120
2,4481300,-1699,4668,-516,7651,262,-110,211,-29,-115
2,4481313,-1699,4668,-516,7651,262,-110,211,-29,-115
2,4481326,-1696,4673,-512,7656,265,-105,211,-29,-115
2,4481341,-1695,4666,-521,7654,263,-102,211,-29,-115
2,4481357,-1695,4666,-521,7654,263,-102,211,-29,-115
2,4481372,-1695,4669,-515,7658,261,-104,211,-29,-115
2,4481388,-1696,4673,-521,7658,263,-107,211,-29,-115
2,4481401,-1698,4673,-510,7664,261,-107,211,-29,-115
2,4481415,-1698,4673,-510,7664,261,-107,211,-29,-115
2,4481430,-1696,4671,-502,7652,260,-103,205,-25,-119
2,4481443,-1697,4670,-502,7655,258,-110,205,-25,-119
2,4481456,-1697,4670,-502,7655,258,-110,205,-25,-119
2,4481469,-1697,4669,-510,7661,260,-109,205,-25,-119
2,4481482,-1696,4670,-508,7653,265,-105,205,-25,-119
2,4481496,-1696,4670,-508,7653,265,-105,205,-25,-119
2,4481510,-1697,4667,-506,7654,260,-103,205,-25,-119
2,4481522,-1699,4672,-500,7653,263,-105,205,-25,-119
2,4481534,-1699,4672,-500,7653,263,-105,205,-25,-119
2,4481549,-1697,4665,-505,7653,270,-98,208,-18,-102
2,4481562,-1697,4670,-508,7658,264,-101,208,-18,-102
2,4481577,-1697,4670,-508,7658,264,-101,208,-18,-102
2,4481590,-1696,4668,-509,7659,256,-108,208,-18,-102
2,4481602,-1696,4669,-513,7657,261,-105,208,-18,-102
2,4481616,-1696,4669,-513,7657,261,-105,208,-18,-102
2,4481632,-1696,4673,-522,7654,266,-98,208,-18,-102
2,4481645,-1699,4665,-542,7656,268,-103,208,-18,-102
2,4481658,-1699,4665,-542,7656,268,-103,208,-18,-102
2,4481674,-1698,4670,-523,7653,262,-106,208,-18,-102
2,4481689,-1700,4671,-519,7655,261,-102,210,-16,-96
2,4481702,-1700,4678,-516,7661,261,-107,210,-16,-96
2,4481717,-1700,4678,-516,7661,261,-107,210,-16,-96
2,4481730,-1697,4674,-513,7663,262,-106,210,-16,-96
2,4481742,-1696,4671,-504,7656,260,-97,210,-16,-96
2,4481755,-1696,4671,-504,7656,260,-97,210,-16,-96
2,4481763,-1696,4665,-499,7656,252,-105,210,-16,-96
2,4481777,-1696,4665,-499,7656,252,-105,210,-16,-96
2,4481790,-1695,4669,-506,7657,263,-110,210,-16,-96
2,4481803,-1695,4668,-494,7654,268,-99,205,-7,-93
2,4481816,-1695,4668,-494,7654,268,-99,205,-7,-93
2,4481830,-1694,4677,-511,7659,260,-108,205,-7,-93
2,4481845,-1696,4667,-503,7655,266,-105,205,-7,-93
2,4481860,-1692,4671,-507,7655,262,-101,205,-7,-93
2,4481875,-1692,4671,-507,7655,262,-101,205,-7,-93
2,4481891,-1695,4669,-509,7657,262,-102,205,-7,-93
2,4481904,-1696,4669,-510,7658,265,-104,205,-7,-93
2,4481917,-1696,4669,-510,7658,265,-104,205,-7,-93
2,4481932,-1697,4675,-504,7651,268,-102,195,1,-95
2,4481943,-1696,4665,-506,7653,257,-94,195,1,-95
2,4481954,-1696,4665,-506,7653,257,-94,195,1,-95
2,4481968,-1697,4668,-505,7655,261,-100,195,1,-95
2,4481981,-1699,4668,-515,7659,256,-105,195,1,-95
2,4481994,-1699,4668,-515,7659,256,-105,195,1,-95
2,4482006,-1696,4674,-504,7654,264,-106,195,1,-95
2,4482020,-1696,4674,-504,7654,264,-106,195,1,-95
2,4482033,-1696,4669,-510,7657,263,-105,195,1,-95
2,4482048,-1695,4668,-503,7651,267,-103,196,-4,-90
2,4482062,-1695,4669,-507,7655,260,-105,196,-4,-90
2,4482076,-1695,4669,-507,7655,260,-105,196,-4,-90
2,4482091,-1697,4671,-503,7653,257,-109,196,-4,-90
2,4482104,-1696,4668,-499,7650,261,-106,196,-4,-90
2,4482119,-1696,4668,-499,7650,261,-106,196,-4,-90
2,4482134,-1695,4671,-504,7652,267,-113,196,-4,-90
2,4482146,-1694,4668,-515,7656,271,-108,196,-4,-90
2,4482159,-1694,4668,-515,7656,271,-108,196,-4,-90
2,4482172,-1696,4665,-508,7650,266,-110,178,-4,-76
2,4482187,-1697,4665,-512,7651,255,-102,178,-4,-76
2,4482200,-1697,4665,-512,7651,255,-102,178,-4,-76
2,4482214,-1694,4666,-511,7651,269,-104,178,-4,-76
2,4482226,-1696,4669,-532,7656,267,-101,178,-4,-76
2,4482239,-1696,4669,-532,7656,267,-101,178,-4,-76
2,4482252,-1696,4669,-538,7660,269,-102,178,-4,-76
2,4482266,-1695,4673,-517,7650,259,-98,178,-4,-76
2,4482280,-1695,4673,-517,7650,259,-98,178,-4,-76
2,4482295,-1697,4671,-524,7649,257,-101,178,-4,-76
2,4482311,-1697,4671,-526,7658,268,-106,182,-6,-84
2,4482324,-1695,4670,-516,7658,267,-99,182,-6,-84
2,4482338,-1695,4670,-516,7658,267,-99,182,-6,-84
2,4482353,-1695,4669,-508,7659,264,-102,182,-6,-84
2,4482368,-1697,4671,-491,7647,264,-113,182,-6,-84
2,4482379,-1697,4671,-491,7647,264,-113,182,-6,-84
2,4482393,-1701,4674,-508,7658,262,-115,182,-6,-84
2,4482407,-1697,4675,-502,7652,265,-103,182,-6,-84
2,4482420,-1697,4675,-502,7652,265,-103,182,-6,-84
2,4482435,-1698,4678,-500,7661,268,-99,165,-5,-83
2,4482448,-1695,4670,-490,7659,263,-106,165,-5,-83
2,4482459,-1695,4670,-490,7659,263,-106,165,-5,-83
2,4482472,-1694,4670,-512,7655,256,-102,165,-5,-83
2,4482488,-1698,4667,-516,7657,269,-105,165,-5,-83
2,4482501,-1698,4667,-516,7657,269,-105,165,-5,-83
2,4482515,-1698,4669,-524,7653,266,-106,165,-5,-83
2,4482531,-1700,4671,-506,7648,258,-104,165,-5,-83
2,4482546,-1698,4674,-515,7652,262,-110,163,-9,-77
2,4482561,-1698,4674,-515,7652,262,-110,163,-9,-77
2,4482575,-1700,4673,-510,7649,261,-106,163,-9,-77
2,4482589,-1694,4672,-523,7652,264,-104,163,-9,-77
2,4482598,-1694,4672,-523,7652,264,-104,163,-9,-77
2,4482611,-1699,4672,-502,7655,261,-112,163,-9,-77
2,4482625,-1695,4669,-506,7659,263,-108,163,-9,-77
2,4482637,-1695,4669,-506,7659,263,-108,163,-9,-77
2,4482650,-1696,4666,-504,7656,272,-105,163,-9,-77
2,4482666,-1699,4669,-505,7660,270,-106,146,-4,-76
2,4482677,-1699,4669,-505,7660,270,-106,146,-4,-76
2,4482691,-1698,4672,-499,7660,262,-108,146,-4,-76
2,4482704,-1698,4673,-498,7653,258,-107,146,-4,-76
2,4482718,-1698,4673,-498,7653,258,-107,146,-4,-76
2,4482733,-1698,4667,-499,7649,261,-109,146,-4,-76
2,4482748,-1697,4667,-510,7655,267,-98,146,-4,-76
2,4482762,-1697,4665,-506,7649,271,-104,146,-4,-76
2,4482775,-1697,4665,-506,7649,271,-104,146,-4,-76
2,4482790,-1695,4670,-499,7650,264,-108,141,-19,-75
2,4482804,-1692,4664,-507,7657,262,-109,141,-19,-75
2,4482817,-1692,4664,-507,7657,262,-109,141,-19,-75
2,4482829,-1693,4666,-517,7655,265,-106,141,-19,-75
2,4482842,-1695,4669,-536,7658,260,-103,141,-19,-75
2,4482856,-1695,4669,-536,7658,260,-103,141,-19,-75
2,4482870,-1695,4673,-518,7654,268,-103,141,-19,-75
2,4482884,-1700,4669,-534,7652,266,-102,141,-19,-75
2,4482895,-1700,4669,-534,7652,266,-102,141,-19,-75
2,4482909,-1697,4671,-517,7657,262,-105,141,-19,-75
2,4482922,-1694,4668,-510,7658,259,-106,128,-8,-86
2,4482935,-1694,4668,-510,7658,259,-106,128,-8,-86
2,4482950,-1692,4666,-512,7659,262,-107,128,-8,-86
2,4482965,-1696,4667,-493,7655,262,-112,128,-8,-86
2,4482980,-1696,4667,-493,7655,262,-112,128,-8,-86
2,4482997,-1696,4673,-511,7652,272,-112,128,-8,-86
2,4483010,-1698,4673,-501,7655,264,-105,128,-8,-86
2,4483023,-1695,4669,-506,7655,256,-105,128,-8,-86
2,4483038,-1695,4669,-506,7655,256,-105,128,-8,-86
2,4483050,-1697,4669,-495,7649,260,-102,118,-14,-86
2,4483062,-1694,4666,-515,7657,266,-105,118,-14,-86
2,4483076,-1694,4666,-515,7657,266,-105,118,-14,-86
2,4483089,-1694,4668,-517,7658,264,-106,118,-14,-86
2,4483103,-1698,4667,-530,7655,270,-100,118,-14,-86
2,4483117,-1698,4667,-530,7655,270,-100,118,-14,-86
2,4483129,-1700,4673,-507,7657,264,-103,118,-14,-86
2,4483143,-1698,4667,-515,7659,265,-104,118,-14,-86
2,4483158,-1698,4667,-515,7659,265,-104,118,-14,-86
2,4483172,-1700,4670,-507,7658,260,-109,116,-18,-88
2,4483185,-1695,4667,-517,7652,263,-110,116,-18,-88
2,4483198,-1695,4667,-517,7652,263,-110,116,-18,-88
2,4483214,-1697,4673,-499,7654,262,-107,116,-18,-88
2,4483227,-1696,4672,-504,7653,263,-104,116,-18,-88
2,4483241,-1696,4672,-504,7653,263,-104,116,-18,-88
2,4483255,-1698,4670,-501,7654,262,-107,116,-18,-88
2,4483267,-1695,4667,-506,7653,268,-114,116,-18,-88
2,4483279,-1695,4667,-506,7653,268,-114,116,-18,-88
2,4483293,-1695,4669,-500,7654,263,-105,99,-23,-97
2,4483306,-1696,4669,-499,7656,277,-108,99,-23,-97
2,4483320,-1696,4669,-499,7656,277,-108,99,-23,-97
2,4483329,-1697,4666,-500,7662,279,-104,99,-23,-97
2,4483342,-1695,4662,-506,7654,263,-103,99,-23,-97
2,4483354,-1695,4662,-506,7654,263,-103,99,-23,-97
2,4483367,-1694,4663,-511,7656,267,-107,99,-23,-97
2,4483380,-1694,4663,-511,7656,267,-107,99,-23,-97
2,4483394,-1698,4668,-510,7647,271,-102,99,-23,-97
2,4483409,-1697,4665,-527,7652,271,-101,105,-23,-109
2,4483424,-1694,4675,-532,7652,261,-97,105,-23,-109
2,4483435,-1694,4675,-532,7652,261,-97,105,-23,-109
2,4483448,-1699,4667,-536,7654,265,-102,105,-23,-109
2,4483463,-1699,4673,-519,7656,267,-101,105,-23,-109
2,4483476,-1699,4673,-519,7656,267,-101,105,-23,-109
2,4483489,-1697,4668,-535,7653,266,-90,105,-23,-109
2,4483501,-1697,4668,-535,7653,266,-90,105,-23,-109
2,4483513,-1697,4671,-521,7659,272,-100,105,-23,-109
2,4483526,-1691,4667,-508,7655,258,-105,105,-23,-109
2,4483539,-1691,4667,-508,7655,258,-105,105,-23,-109
2,4483554,-1697,4675,-493,7652,255,-103,89,-23,-105
2,4483567,-1695,4671,-511,7661,271,-105,89,-23,-105
2,4483579,-1695,4671,-511,7661,271,-105,89,-23,-105
2,4483595,-1696,4674,-509,7655,262,-105,89,-23,-105
2,4483610,-1691,4677,-509,7652,263,-99,89,-23,-105
2,4483625,-1694,4672,-505,7652,262,-102,89,-23,-105
2,4483640,-1694,4672,-505,7652,262,-102,89,-23,-105
2,4483652,-1695,4667,-506,7656,268,-106,89,-23,-105
2,4483667,-1695,4664,-508,7653,263,-103,79,-25,-117
2,4483682,-1695,4664,-508,7653,263,-103,79,-25,-117
2,4483695,-1696,4672,-523,7653,264,-106,79,-25,-117
2,4483708,-1699,4672,-512,7655,267,-107,79,-25,-117
2,4483723,-1695,4670,-509,7653,266,-100,79,-25,-117
2,4483737,-1695,4670,-509,7653,266,-100,79,-25,-117
2,4483750,-1697,4664,-521,7658,266,-104,79,-25,-117
2,4483764,-1696,4669,-511,7652,266,-109,79,-25,-117
2,4483777,-1696,4669,-511,7652,266,-109,79,-25,-117
2,4483788,-1697,4666,-511,7655,267,-107,80,-32,-122
2,4483804,-1697,4672,-506,7661,266,-107,80,-32,-122
2,4483819,-1697,4672,-506,7661,266,-107,80,-32,-122
2,4483832,-1696,4670,-513,7656,258,-104,80,-32,-122
2,4483847,-1696,4672,-503,7649,263,-99,80,-32,-122
2,4483862,-1696,4670,-499,7654,264,-109,80,-32,-122
2,4483876,-1696,4670,-499,7654,264,-109,80,-32,-122
2,4483890,-1697,4673,-506,7657,264,-105,80,-32,-122
2,4483902,-1697,4673,-506,7657,264,-105,80,-32,-122
2,4483916,-1695,4668,-505,7655,261,-108,73,-23,-121
2,4483930,-1693,4667,-503,7655,268,-103,73,-23,-121
2,4483943,-1697,4665,-504,7648,259,-103,73,-23,-121
2,4483957,-1697,4665,-504,7648,259,-103,73,-23,-121
2,4483973,-1694,4670,-510,7656,269,-102,73,-23,-121
2,4483987,-1696,4670,-515,7654,268,-98,73,-23,-121
2,4483998,-1696,4670,-515,7654,268,-98,73,-23,-121
2,4484012,-1696,4673,-539,7657,261,-104,73,-23,-121
2,4484025,-1701,4671,-520,7659,264,-109,70,-28,-128
2,4484039,-1701,4671,-520,7659,264,-109,70,-28,-128
2,4484054,-1696,4672,-527,7657,261,-106,70,-28,-128
2,4484068,-1692,4668,-529,7655,262,-103,70,-28,-128
2,4484081,-1692,4668,-529,7655,262,-103,70,-28,-128
2,4484097,-1696,4673,-539,7657,265,-108,70,-28,-128
2,4484112,-1694,4674,-514,7654,263,-102,70,-28,-128
2,4484128,-1699,4674,-506,7658,264,-99,70,-28,-128
2,4484143,-1699,4674,-506,7658,264,-99,70,-28,-128
2,4484155,-1694,4672,-510,7657,261,-108,69,-31,-129
2,4484167,-1690,4675,-499,7657,268,-105,69,-31,-129
2,4484180,-1690,4675,-499,7657,268,-105,69,-31,-129
2,4484195,-1696,4673,-512,7651,266,-102,69,-31,-129
2,4484208,-1695,4673,-497,7655,258,-105,69,-31,-129
2,4484221,-1695,4673,-497,7655,258,-105,69,-31,-129
2,4484233,-1695,4671,-504,7648,263,-104,69,-31,-129
2,4484248,-1693,4670,-506,7655,268,-103,69,-31,-129
2,4484261,-1693,4670,-506,7655,268,-103,69,-31,-129
2,4484275,-1697,4672,-517,7657,264,-106,69,-31,-129
2,4484290,-1697,4677,-504,7652,255,-108,75,-23,-143
2,4484304,-1694,4676,-511,7657,254,-100,75,-23,-143
2,4484317,-1694,4676,-511,7657,254,-100,75,-23,-143
2,4484332,-1697,4667,-511,7659,261,-108,75,-23,-143
2,4484346,-1696,4668,-521,7658,263,-107,75,-23,-143
2,4484362,-1696,4668,-521,7658,263,-107,75,-23,-143
2,4484374,-1697,4673,-510,7656,262,-104,75,-23,-143
2,4484387,-1697,4673,-510,7656,262,-104,75,-23,-143
2,4484402,-1697,4673,-510,7656,262,-104,75,-23,-143
2,4484415,-1698,4671,-510,7657,270,-107,69,-33,-143
2,4484428,-1698,4679,-509,7649,268,-109,69,-33,-143
2,4484443,-1694,4670,-503,7651,266,-111,69,-33,-143
2,4484455,-1694,4670,-503,7651,266,-111,69,-33,-143
2,4484467,-1695,4670,-506,7654,253,-107,69,-33,-143
2,4484482,-1695,4670,-506,7654,253,-107,69,-33,-143
2,4484494,-1692,4667,-502,7655,255,-100,69,-33,-143
2,4484508,-1691,4672,-495,7652,266,-106,69,-33,-143
2,4484524,-1697,4669,-498,7661,264,-104,77,-31,-155
2,4484537,-1697,4669,-498,7661,264,-104,77,-31,-155
2,4484550,-1696,4675,-502,7649,266,-105,77,-31,-155
2,4484567,-1693,4668,-503,7646,265,-107,77,-31,-155
2,4484580,-1693,4668,-503,7646,265,-107,77,-31,-155
2,4484593,-1696,4675,-510,7654,253,-112,77,-31,-155
2,4484605,-1698,4667,-517,7657,263,-107,77,-31,-155
2,4484619,-1698,4667,-517,7657,263,-107,77,-31,-155
2,4484627,-1696,4669,-514,7652,271,-105,77,-31,-155
2,4484635,-1696,4669,-514,7652,271,-105,77,-31,-155
2,4484642,-1696,4669,-514,7652,271,-105,77,-31,-155
2,4484659,-1695,4664,-528,7654,254,-102,79,-29,-163
2,4484671,-1695,4667,-521,7655,252,-101,79,-29,-163
2,4484684,-1696,4673,-528,7655,252,-101,79,-29,-163
2,4484699,-1696,4673,-528,7655,252,-101,79,-29,-163
2,4484712,-1695,4673,-509,7665,262,-96,79,-29,-163
2,4484727,-1693,4675,-508,7661,259,-102,79,-29,-163
2,4484742,-1693,4675,-508,7661,259,-102,79,-29,-163
2,4484757,-1698,4672,-516,7655,276,-101,79,-29,-163
2,4484772,-1694,4670,-503,7650,263,-104,77,-29,-169
2,4484786,-1700,4668,-501,7650,257,-106,77,-29,-169
2,4484799,-1700,4668,-501,7650,257,-106,77,-29,-169
2,4484813,-1692,4671,-497,7656,267,-102,77,-29,-169
2,4484827,-1693,4670,-505,7653,257,-108,77,-29,-169
2,4484839,-1693,4670,-505,7653,257,-108,77,-29,-169
2,4484852,-1697,4673,-505,7655,267,-109,77,-29,-169
2,4484867,-1696,4666,-509,7655,253,-105,77,-29,-169
2,4484880,-1696,4666,-509,7655,253,-105,77,-29,-169
2,4484894,-1695,4675,-507,7648,260,-104,77,-29,-169
2,4484908,-1699,4671,-516,7646,260,-106,86,-16,-168
2,4484921,-1699,4671,-516,7646,260,-106,86,-16,-168
2,4484935,-1696,4675,-516,7654,259,-108,86,-16,-168
2,4484950,-1697,4665,-516,7651,257,-112,86,-16,-168
2,4484964,-1695,4673,-503,7653,261,-106,86,-16,-168
2,4484978,-1695,4673,-503,7653,261,-106,86,-16,-168
2,4484993,-1697,4671,-511,7656,279,-112,86,-16,-168
2,4485007,-1695,4671,-510,7660,272,-107,86,-16,-168
2,4485021,-1695,4671,-510,7660,272,-107,86,-16,-168
2,4485032,-1693,4673,-502,7654,266,-105,94,-16,-164
2,4485047,-1692,4673,-497,7650,257,-103,94,-16,-164
2,4485059,-1692,4673,-497,7650,257,-103,94,-16,-164
2,4485073,-1694,4668,-497,7649,256,-98,94,-16,-164
2,4485087,-1692,4670,-499,7656,262,-102,94,-16,-164
2,4485101,-1692,4670,-499,7656,262,-102,94,-16,-164
2,4485114,-1699,4666,-498,7655,261,-108,94,-16,-164
2,4485129,-1695,4673,-498,7657,268,-109,94,-16,-164
2,4485143,-1695,4673,-498,7657,268,-109,94,-16,-164
2,4485158,-1698,4672,-498,7649,264,-104,103,-27,-179
2,4485171,-1695,4667,-511,7654,257,-102,103,-27,-179
2,4485186,-1698,4669,-514,7652,260,-101,103,-27,-179
2,4485201,-1698,4669,-514,7652,260,-101,103,-27,-179
2,4485216,-1696,4666,-517,7647,258,-107,103,-27,-179
2,4485229,-1696,4670,-535,7650,261,-101,103,-27,-179
2,4485242,-1696,4670,-535,7650,261,-101,103,-27,-179
2,4485257,-1696,4665,-530,7650,265,-105,103,-27,-179
2,4485270,-1696,4672,-527,7654,258,-104,113,-19,-185
2,4485284,-1698,4672,-520,7660,258,-106,113,-19,-185
2,4485298,-1698,4672,-520,7660,258,-106,113,-19,-185
2,4485312,-1694,4677,-529,7656,262,-103,113,-19,-185
2,4485323,-1693,4674,-501,7658,259,-107,113,-19,-185
2,4485338,-1693,4674,-501,7658,259,-107,113,-19,-185
2,4485351,-1697,4672,-516,7660,256,-107,113,-19,-185
2,4485362,-1697,4672,-516,7660,256,-107,113,-19,-185
2,4485378,-1696,4672,-490,7658,266,-107,113,-19,-185
2,4485389,-1696,4671,-510,7654,258,-105,122,-28,-176
2,4485403,-1695,4668,-502,7653,257,-101,122,-28,-176
2,4485412,-1695,4668,-502,7653,257,-101,122,-28,-176
2,4485428,-1693,4673,-509,7658,262,-104,122,-28,-176
2,4485443,-1693,4673,-509,7658,262,-104,122,-28,-176
2,4485456,-1698,4677,-502,7657,263,-102,122,-28,-176
2,4485470,-1694,4671,-518,7660,258,-106,122,-28,-176
2,4485484,-1697,4671,-520,7656,258,-106,122,-28,-176
2,4485497,-1697,4671,-520,7656,258,-106,122,-28,-176
2,4485511,-1694,4670,-520,7658,268,-110,122,-28,-176
2,4485523,-1694,4670,-520,7658,268,-110,122,-28,-176
2,4485536,-1696,4676,-501,7661,271,-102,135,-35,-179
2,4485551,-1693,4672,-518,7663,261,-99,135,-35,-179
2,4485564,-1696,4670,-504,7662,263,-102,135,-35,-179
2,4485576,-1696,4670,-504,7662,263,-102,135,-35,-179
2,4485591,-1697,4676,-521,7656,265,-107,135,-35,-179
2,4485604,-1694,4673,-502,7656,264,-111,135,-35,-179
2,4485617,-1694,4673,-502,7656,264,-111,135,-35,-179
2,4485632,-1696,4674,-509,7657,264,-104,135,-35,-179
2,4485643,-1696,4674,-509,7657,264,-104,135,-35,-179
2,4485656,-1696,4668,-503,7654,265,-100,139,-31,-183
2,4485671,-1694,4668,-503,7654,270,-102,139,-31,-183
2,4485687,-1695,4672,-503,7651,266,-111,139,-31,-183
2,4485701,-1695,4672,-503,7651,266,-111,139,-31,-183
2,4485713,-1694,4673,-507,7652,263,-114,139,-31,-183
2,4485727,-1698,4671,-501,7660,270,-106,139,-31,-183
2,4485741,-1698,4671,-501,7660,270,-106,139,-31,-183
2,4485755,-1698,4671,-501,7660,270,-106,139,-31,-183
2,4485769,-1696,4668,-506,7657,266,-108,148,-46,-184
2,4485782,-1696,4668,-506,7657,266,-108,148,-46,-184
2,4485793,-1694,4669,-508,7657,272,-105,148,-46,-184
2,4485808,-1697,4670,-531,7651,263,-105,148,-46,-184
2,4485822,-1697,4670,-531,7651,263,-105,148,-46,-184
2,4485836,-1696,4669,-521,7653,259,-105,148,-46,-184
2,4485850,-1696,4676,-527,7658,264,-109,148,-46,-184
2,4485865,-1699,4670,-516,7657,263,-106,148,-46,-184
2,4485879,-1699,4670,-516,7657,263,-106,148,-46,-184
2,4485895,-1694,4675,-529,7650,263,-111,152,-34,-186
2,4485908,-1694,4670,-519,7653,269,-105,152,-34,-186
2,4485921,-1694,4670,-519,7653,269,-105,152,-34,-186
2,4485935,-1695,4673,-500,7655,261,-108,152,-34,-186
2,4485946,-1698,4672,-511,7657,256,-108,152,-34,-186
2,4485961,-1698,4672,-511,7657,256,-108,152,-34,-186
2,4485976,-1694,4677,-496,7659,266,-107,152,-34,-186
2,4485989,-1695,4672,-508,7654,270,-100,152,-34,-186
2,4486002,-1695,4672,-508,7654,270,-100,152,-34,-186
2,4486016,-1700,4677,-503,7650,264,-102,156,-38,-184
2,4486030,-1699,4674,-498,7658,270,-100,156,-38,-184
2,4486042,-1699,4674,-498,7658,270,-100,156,-38,-184
2,4486057,-1700,4673,-499,7653,264,-94,156,-38,-184
2,4486073,-1699,4666,-516,7656,263,-96,156,-38,-184
2,4486089,-1694,4673,-510,7652,262,-105,156,-38,-184
2,4486103,-1694,4673,-510,7652,262,-105,156,-38,-184
2,4486116,-1698,4673,-509,7662,269,-112,156,-38,-184
2,4486131,-1694,4675,-508,7653,265,-108,156,-38,-184
2,4486146,-1696,4668,-507,7656,255,-113,175,-33,-181
2,4486159,-1696,4668,-507,7656,255,-113,175,-33,-181
2,4486172,-1699,4673,-509,7648,260,-107,175,-33,-181
2,4486185,-1695,4673,-511,7655,263,-111,175,-33,-181
2,4486197,-1695,4673,-511,7655,263,-111,175,-33,-181
2,4486206,-1694,4671,-507,7655,270,-104,175,-33,-181
2,4486220,-1694,4671,-507,7655,270,-104,175,-33,-181
2,4486228,-1693,4669,-505,7651,255,-99,175,-33,-181
2,4486239,-1693,4669,-505,7651,255,-99,175,-33,-181
2,4486252,-1696,4671,-512,7655,260,-103,175,-33,-181
2,4486263,-1696,4671,-512,7655,260,-103,175,-33,-181
2,4486277,-1696,4671,-495,7654,255,-107,185,-37,-185
2,4486292,-1696,4673,-499,7654,263,-104,185,-37,-185
2,4486307,-1696,4672,-501,7654,265,-105,185,-37,-185
2,4486322,-1696,4672,-501,7654,265,-105,185,-37,-185
2,4486336,-1694,4670,-507,7653,266,-105,185,-37,-185
2,4486348,-1699,4669,-506,7651,263,-109,185,-37,-185
2,4486364,-1699,4669,-506,7651,263,-109,185,-37,-185
2,4486377,-1693,4668,-512,7655,262,-104,185,-37,-185
2,4486390,-1696,4671,-513,7651,258,-104,196,-32,-156
2,4486405,-1696,4671,-513,7651,258,-104,196,-32,-156
2,4486418,-1697,4673,-538,7653,261,-105,196,-32,-156
2,4486434,-1695,4677,-516,7653,260,-105,196,-32,-156
2,4486448,-1697,4671,-526,7656,256,-104,196,-32,-156
2,4486461,-1697,4671,-526,7656,256,-104,196,-32,-156
2,4486474,-1700,4675,-530,7658,262,-105,196,-32,-156
2,4486489,-1695,4673,-523,7659,266,-104,196,-32,-156
2,4486497,-1695,4673,-523,7659,266,-104,196,-32,-156
2,4486509,-1697,4678,-512,7656,266,-107,210,-32,-160
2,4486522,-1697,4678,-512,7656,266,-107,210,-32,-160
2,4486537,-1697,4672,-504,7659,265,-104,210,-32,-160
2,4486551,-1694,4678,-505,7654,261,-108,210,-32,-160
2,4486566,-1691,4672,-500,7652,265,-112,210,-32,-160
2,4486582,-1691,4672,-500,7652,265,-112,210,-32,-160
2,4486596,-1697,4673,-509,7648,259,-104,210,-32,-160
2,4486608,-1700,4677,-497,7655,259,-101,210,-32,-160
2,4486623,-1700,4677,-497,7655,259,-101,210,-32,-160
2,4486635,-1695,4674,-496,7656,268,-105,206,-18,-142
2,4486649,-1693,4669,-497,7661,267,-96,206,-18,-142
2,4486663,-1693,4669,-497,7661,267,-96,206,-18,-142
2,4486676,-1695,4668,-513,7663,268,-100,206,-18,-142
2,4486689,-1697,4671,-505,7658,263,-108,206,-18,-142
2,4486704,-1697,4671,-505,7658,263,-108,206,-18,-142
2,4486716,-1695,4671,-499,7653,258,-98,206,-18,-142
2,4486728,-1693,4677,-509,7658,259,-108,206,-18,-142
2,4486742,-1693,4677,-509,7658,259,-108,206,-18,-142
2,4486752,-1697,4669,-508,7656,261,-103,206,-18,-142
2,4486764,-1697,4669,-508,7656,261,-103,206,-18,-142
2,4486774,-1695,4676,-502,7655,265,-104,217,-21,-149
2,4486788,-1693,4671,-505,7654,257,-109,217,-21,-149
2,4486803,-1693,4671,-505,7654,257,-109,217,-21,-149
2,4486818,-1693,4671,-505,7654,257,-109,217,-21,-149
2,4486834,-1694,4668,-505,7653,260,-110,217,-21,-149
2,4486847,-1695,4671,-504,7656,265,-104,217,-21,-149
2,4486860,-1695,4671,-504,7656,265,-104,217,-21,-149
2,4486875,-1695,4669,-502,7644,258,-103,217,-21,-149
2,4486887,-1694,4672,-498,7650,263,-100,215,-31,-143
2,4486901,-1694,4672,-498,7650,263,-100,215,-31,-143
2,4486915,-1692,4672,-497,7654,260,-105,215,-31,-143
2,4486929,-1699,4673,-507,7654,258,-112,215,-31,-143
2,4486942,-1699,4673,-507,7654,258,-112,215,-31,-143
2,4486956,-1695,4667,-506,7651,261,-113,215,-31,-143
2,4486970,-1691,4667,-512,7653,267,-111,215,-31,-143
2,4486982,-1691,4667,-512,7653,267,-111,215,-31,-143
2,4486998,-1693,4669,-513,7653,260,-104,215,-31,-143
2,4487011,-1697,4671,-532,7651,262,-108,218,-26,-134
2,4487026,-1699,4673,-524,7656,262,-111,218,-26,-134
2,4487040,-1699,4673,-524,7656,262,-111,218,-26,-134
2,4487055,-1698,4674,-527,7665,253,-104,218,-26,-134
2,4487069,-1695,4671,-528,7656,255,-108,218,-26,-134
2,4487085,-1695,4671,-528,7656,255,-108,218,-26,-134
2,4487099,-1694,4675,-526,7660,267,-109,218,-26,-134
2,4487112,-1694,4674,-519,7654,269,-113,218,-26,-134
2,4487127,-1698,4672,-493,7653,260,-115,209,-31,-127
2,4487137,-1698,4672,-493,7653,260,-115,209,-31,-127
2,4487151,-1696,4674,-509,7651,261,-110,209,-31,-127
2,4487165,-1692,4671,-495,7648,265,-112,209,-31,-127
2,4487179,-1692,4671,-495,7648,265,-112,209,-31,-127
2,4487193,-1694,4673,-510,7652,263,-112,209,-31,-127
2,4487206,-1696,4674,-503,7659,262,-111,209,-31,-127
2,4487218,-1696,4674,-503,7659,262,-111,209,-31,-127
2,4487231,-1692,4672,-509,7656,267,-113,209,-31,-127
2,4487244,-1692,4672,-509,7656,267,-113,209,-31,-127
2,4487259,-1697,4667,-506,7656,261,-113,216,-26,-124
2,4487274,-1693,4670,-521,7651,257,-100,216,-26,-124
2,4487289,-1694,4674,-527,7650,264,-98,216,-26,-124
2,4487304,-1694,4674,-527,7650,264,-98,216,-26,-124
2,4487319,-1696,4674,-516,7653,257,-106,216,-26,-124
2,4487334,-1694,4676,-508,7650,253,-105,216,-26,-124
2,4487348,-1693,4671,-515,7654,259,-108,216,-26,-124
2,4487361,-1693,4671,-515,7654,259,-108,216,-26,-124
2,4487375,-1696,4669,-508,7656,259,-100,216,-26,-124
2,4487390,-1693,4676,-511,7659,258,-106,207,-27,-117
2,4487402,-1693,4676,-511,7659,258,-106,207,-27,-117
2,4487416,-1697,4674,-511,7656,263,-107,207,-27,-117
2,4487430,-1696,4674,-502,7654,269,-104,207,-27,-117
2,4487443,-1696,4674,-502,7654,269,-104,207,-27,-117
2,4487457,-1696,4672,-506,7661,259,-104,207,-27,-117
2,4487469,-1696,4676,-509,7659,260,-103,207,-27,-117
2,4487483,-1696,4676,-509,7659,260,-103,207,-27,-117
2,4487498,-1697,4670,-500,7649,259,-99,207,-27,-117
2,4487514,-1696,4677,-492,7652,264,-103,211,-17,-105
2,4487529,-1698,4669,-507,7659,264,-106,211,-17,-105
2,4487541,-1698,4669,-507,7659,264,-106,211,-17,-105
2,4487554,-1692,4670,-512,7660,262,-105,211,-17,-105
2,4487568,-1697,4668,-516,7652,257,-107,211,-17,-105
2,4487581,-1697,4668,-516,7652,257,-107,211,-17,-105
2,4487596,-1697,4673,-510,7649,261,-101,211,-17,-105
2,4487609,-1699,4676,-531,7657,263,-106,211,-17,-105
2,4487622,-1699,4676,-531,7657,263,-106,211,-17,-105
2,4487634,-1696,4675,-515,7651,264,-107,206,-16,-98
2,4487648,-1697,4673,-526,7650,256,-105,206,-16,-98
2,4487661,-1697,4673,-526,7650,256,-105,206,-16,-98
2,4487675,-1696,4672,-523,7654,264,-101,206,-16,-98
2,4487689,-1699,4675,-528,7662,265,-99,206,-16,-98
2,4487701,-1699,4675,-528,7662,265,-99,206,-16,-98
2,4487716,-1694,4675,-518,7665,256,-104,206,-16,-98
2,4487732,-1694,4675,-518,7665,256,-104,206,-16,-98
2,4487746,-1696,4670,-507,7657,265,-100,206,-16,-98
2,4487756,-1696,4670,-507,7657,265,-100,208,-12,-96
2,4487770,-1694,4670,-498,7662,267,-107,208,-12,-96
2,4487783,-1694,4670,-498,7662,267,-107,208,-12,-96
2,4487797,-1694,4670,-499,7659,264,-108,208,-12,-96
2,4487811,-1698,4680,-501,7659,262,-112,208,-12,-96
2,4487825,-1698,4680,-501,7659,262,-112,208,-12,-96
2,4487838,-1698,4675,-505,7661,265,-110,208,-12,-96
2,4487852,-1695,4670,-502,7656,269,-100,208,-12,-96
2,4487865,-1695,4670,-502,7656,269,-100,208,-12,-96
2,4487878,-1694,4673,-516,7656,263,-102,193,-9,-83
2,4487892,-1695,4674,-512,7652,263,-106,193,-9,-83
2,4487908,-1695,4672,-509,7651,278,-102,193,-9,-83
2,4487923,-1695,4672,-509,7651,278,-102,193,-9,-83
2,4487938,-1694,4675,-510,7652,274,-109,193,-9,-83
2,4487951,-1694,4675,-516,7652,257,-111,193,-9,-83
2,4487965,-1694,4675,-516,7652,257,-111,193,-9,-83
2,4487979,-1695,4671,-509,7653,256,-108,193,-9,-83
2,4487992,-1695,4671,-513,7655,270,-102,189,3,-89
2,4488007,-1695,4671,-513,7655,270,-102,189,3,-89
2,4488022,-1695,4671,-513,7655,270,-102,189,3,-89
2,4488035,-1694,4672,-503,7648,260,-101,189,3,-89
2,4488049,-1696,4670,-503,7660,261,-106,189,3,-89
2,4488064,-1696,4670,-503,7660,261,-106,189,3,-89
2,4488078,-1696,4670,-503,7656,263,-107,189,3,-89
2,4488091,-1695,4668,-501,7658,260,-109,189,3,-89
2,4488103,-1695,4668,-501,7658,260,-109,189,3,-89
2,4488118,-1695,4674,-506,7654,260,-109,189,3,-89
2,4488133,-1698,4667,-502,7658,260,-106,188,-6,-96
2,4488146,-1697,4667,-502,7650,258,-105,188,-6,-96
2,4488160,-1697,4667,-502,7650,258,-105,188,-6,-96
2,4488174,-1695,4669,-508,7656,254,-107,188,-6,-96
2,4488187,-1692,4675,-509,7656,264,-111,188,-6,-96
2,4488200,-1692,4675,-509,7656,264,-111,188,-6,-96
2,4488214,-1698,4669,-523,7651,263,-110,188,-6,-96
2,4488225,-1698,4669,-523,7651,263,-110,188,-6,-96
2,4488241,-1696,4674,-538,7649,259,-110,188,-6,-96
2,4488254,-1694,4670,-525,7651,260,-105,178,-2,-84
2,4488267,-1697,4672,-533,7654,259,-104,178,-2,-84
2,4488281,-1697,4672,-533,7654,259,-104,178,-2,-84
2,4488296,-1695,4678,-529,7656,257,-105,178,-2,-84
2,4488310,-1693,4677,-531,7655,259,-109,178,-2,-84
2,4488322,-1693,4677,-531,7655,259,-109,178,-2,-84
2,4488337,-1695,4675,-509,7649,258,-107,178,-2,-84
2,4488352,-1696,4674,-507,7653,258,-98,178,-2,-84
2,4488369,-1694,4672,-490,7657,267,-106,173,3,-75
2,4488383,-1694,4672,-490,7657,267,-106,173,3,-75
2,4488395,-1695,4674,-506,7655,262,-102,173,3,-75
2,4488411,-1696,4670,-503,7660,272,-102,173,3,-75
2,4488425,-1696,4670,-503,7660,272,-102,173,3,-75
2,4488439,-1695,4670,-499,7658,265,-110,173,3,-75
2,4488453,-1697,4671,-508,7654,266,-106,173,3,-75
2,4488467,-1692,4672,-519,7651,272,-110,173,3,-75
2,4488478,-1692,4672,-519,7651,272,-110,173,3,-75
2,4488492,-1695,4670,-514,7651,260,-103,160,-8,-68
2,4488505,-1695,4670,-514,7651,260,-103,160,-8,-68
2,4488519,-1698,4673,-517,7652,260,-98,160,-8,-68
2,4488532,-1695,4676,-503,7652,259,-109,160,-8,-68
2,4488547,-1695,4673,-512,7655,266,-108,160,-8,-68
2,4488558,-1695,4673,-512,7655,266,-108,160,-8,-68
2,4488571,-1696,4671,-520,7656,260,-107,160,-8,-68
2,4488585,-1696,4671,-520,7656,260,-107,160,-8,-68
2,4488599,-1697,4675,-514,7657,267,-103,160,-8,-68
2,4488613,-1694,4675,-502,7657,265,-98,155,-5,-75
2,4488629,-1696,4673,-499,7653,255,-102,155,-5,-75
2,4488644,-1696,4673,-499,7653,255,-102,155,-5,-75
2,4488658,-1693,4670,-513,7659,269,-103,155,-5,-75
2,4488672,-1696,4673,-503,7657,262,-98,155,-5,-75
2,4488686,-1696,4673,-503,7657,262,-98,155,-5,-75
2,4488697,-1695,4672,-507,7655,253,-99,155,-5,-75
2,4488706,-1695,4672,-507,7655,253,-99,155,-5,-75
2,4488720,-1697,4669,-499,7656,265,-97,155,-5,-75
2,4488734,-1693,4671,-503,7654,261,-100,155,-5,-75
2,4488749,-1695,4668,-508,7652,261,-108,149,-13,-69
2,4488760,-1695,4668,-508,7652,261,-108,149,-13,-69
2,4488774,-1694,4666,-508,7652,262,-107,149,-13,-69
2,4488786,-1694,4666,-508,7652,262,-107,149,-13,-69
2,4488800,-1694,4670,-504,7651,260,-106,149,-13,-69
2,4488811,-1693,4671,-517,7646,260,-102,149,-13,-69
2,4488825,-1693,4671,-517,7646,260,-102,149,-13,-69
2,4488840,-1698,4667,-534,7648,255,-103,149,-13,-69
2,4488855,-1691,4674,-532,7644,252,-106,149,-13,-69
2,4488869,-1692,4670,-516,7650,250,-111,135,-7,-79
2,4488883,-1692,4670,-516,7650,250,-111,135,-7,-79
2,4488898,-1696,4675,-515,7652,257,-103,135,-7,-79
2,4488914,-1693,4673,-531,7652,267,-102,135,-7,-79
2,4488930,-1695,4674,-498,7651,263,-101,135,-7,-79
2,4488945,-1695,4674,-498,7651,263,-101,135,-7,-79
2,4488958,-1698,4672,-508,7657,257,-106,135,-7,-79
2,4488972,-1695,4674,-497,7654,258,-105,135,-7,-79
2,4488986,-1695,4674,-497,7654,258,-105,135,-7,-79
2,4488998,-1694,4669,-504,7653,265,-106,126,-6,-82
2,4489010,-1694,4673,-505,7647,269,-103,126,-6,-82
2,4489023,-1694,4673,-505,7647,269,-103,126,-6,-82
2,4489037,-1696,4666,-501,7655,258,-99,126,-6,-82
2,4489051,-1695,4671,-508,7653,256,-98,126,-6,-82
2,4489065,-1695,4671,-508,7653,256,-98,126,-6,-82
2,4489076,-1693,4666,-510,7651,264,-106,126,-6,-82
2,4489090,-1695,4671,-514,7645,258,-108,126,-6,-82
2,4489102,-1695,4671,-514,7645,258,-108,126,-6,-82
2,4489116,-1699,4669,-507,7648,256,-105,119,-13,-87
2,4489132,-1697,4672,-508,7650,260,-102,119,-13,-87
2,4489146,-1697,4672,-508,7650,260,-102,119,-13,-87
2,4489160,-1695,4668,-512,7650,263,-103,119,-13,-87
2,4489175,-1698,4666,-518,7653,258,-107,119,-13,-87
2,4489189,-1697,4672,-507,7649,260,-110,119,-13,-87
2,4489201,-1697,4672,-507,7649,260,-110,119,-13,-87
2,4489213,-1697,4670,-509,7650,263,-102,119,-13,-87
2,4489227,-1696,4670,-507,7644,264,-101,119,-13,-87
2,4489241,-1696,4670,-507,7644,264,-101,111,-27,-87
2,4489254,-1694,4665,-514,7647,263,-108,111,-27,-87
2,4489268,-1697,4669,-502,7647,263,-104,111,-27,-87
2,4489280,-1697,4669,-502,7647,263,-104,111,-27,-87
2,4489294,-1695,4668,-509,7650,259,-105,111,-27,-87
2,4489309,-1698,4674,-504,7649,261,-107,111,-27,-87
2,4489322,-1698,4674,-504,7649,261,-107,111,-27,-87
2,4489334,-1695,4663,-511,7646,263,-104,111,-27,-87
2,4489350,-1696,4670,-507,7653,261,-110,111,-27,-87
2,4489366,-1696,4670,-507,7653,261,-110,111,-27,-87
2,4489380,-1695,4665,-509,7651,260,-108,100,-18,-106
2,4489394,-1693,4671,-531,7652,258,-101,100,-18,-106
2,4489407,-1696,4668,-537,7652,256,-102,100,-18,-106
2,4489421,-1696,4668,-537,7652,256,-102,100,-18,-106
2,4489434,-1696,4672,-520,7655,264,-99,100,-18,-106
2,4489447,-1696,4672,-520,7655,264,-99,100,-18,-106
2,4489460,-1695,4674,-529,7653,257,-101,100,-18,-106
2,4489474,-1694,4671,-542,7653,268,-111,100,-18,-106
2,4489488,-1694,4675,-513,7654,263,-102,92,-22,-106
2,4489501,-1694,4675,-513,7654,263,-102,92,-22,-110
2,4489516,-1698,4672,-519,7661,263,-94,92,-22,-110
2,4489528,-1695,4674,-497,7664,254,-101,92,-22,-110
2,4489542,-1695,4674,-497,7664,254,-101,92,-22,-110
2,4489552,-1696,4667,-511,7661,265,-105,92,-22,-110
2,4489569,-1694,4670,-499,7654,255,-105,92,-22,-110
2,4489584,-1694,4670,-499,7654,255,-105,92,-22,-110
2,4489601,-1696,4671,-510,7650,255,-104,92,-22,-110
2,4489615,-1696,4671,-510,7650,255,-104,83,-23,-115
2,4489629,-1693,4667,-505,7653,260,-108,83,-23,-115
2,4489643,-1693,4667,-505,7653,260,-108,83,-23,-115
2,4489656,-1694,4675,-509,7661,258,-105,83,-23,-115
2,4489669,-1693,4667,-514,7657,262,-100,83,-23,-115
2,4489682,-1693,4667,-514,7657,262,-100,83,-23,-115
2,4489696,-1693,4676,-504,7659,263,-103,83,-23,-115
2,4489711,-1696,4670,-509,7655,264,-97,83,-23,-115
2,4489723,-1696,4670,-509,7655,264,-97,83,-23,-115
2,4489738,-1698,4670,-512,7656,256,-105,79,-33,-113
2,4489752,-1692,4669,-511,7650,258,-105,79,-33,-113
2,4489766,-1692,4669,-511,7650,258,-105,79,-33,-113
2,4489781,-1697,4670,-505,7653,257,-102,79,-33,-113
2,4489794,-1697,4671,-509,7661,262,-105,79,-33,-113
2,4489808,-1697,4669,-512,7654,262,-108,79,-33,-113
2,4489823,-1697,4669,-512,7654,262,-108,79,-33,-113
2,4489835,-1695,4670,-511,7654,256,-102,79,-33,-113
2,4489848,-1693,4667,-506,7654,254,-100,69,-27,-121
2,4489862,-1693,4667,-506,7654,254,-100,69,-27,-121
2,4489875,-1697,4669,-499,7656,264,-106,69,-27,-121
2,4489889,-1693,4668,-505,7652,262,-106,69,-27,-121
2,4489904,-1693,4668,-505,7652,262,-106,69,-27,-121
2,4489916,-1695,4671,-509,7650,264,-108,69,-27,-121
2,4489929,-1693,4664,-504,7655,265,-103,69,-27,-121
2,4489944,-1693,4664,-504,7655,265,-103,69,-27,-121
2,4489956,-1695,4669,-507,7653,255,-98,69,-27,-121
2,4489970,-1692,4666,-510,7657,257,-107,69,-27,-121
2,4489984,-1692,4666,-510,7657,257,-107,69,-27,-121
2,4489997,-1695,4670,-524,7644,254,-107,72,-34,-124
2,4490012,-1699,4673,-534,7645,256,-103,72,-34,-124
2,4490028,-1699,4673,-534,7645,256,-103,72,-34,-124
2,4490042,-1695,4669,-524,7652,264,-103,72,-34,-124
2,4490055,-1690,4669,-524,7655,263,-108,72,-34,-124
2,4490067,-1690,4669,-524,7655,263,-108,72,-34,-124
2,4490081,-1698,4669,-543,7656,256,-108,72,-34,-124
2,4490094,-1693,4673,-515,7656,256,-107,72,-34,-124
2,4490108,-1698,4673,-513,7662,253,-106,72,-34,-124
2,4490122,-1698,4673,-513,7662,253,-106,74,-32,-130
2,4490133,-1699,4676,-494,7658,255,-102,74,-32,-130
2,4490146,-1699,4676,-494,7658,255,-102,74,-32,-130
2,4490161,-1693,4671,-509,7667,265,-99,74,-32,-130
2,4490172,-1697,4671,-500,7656,261,-106,74,-32,-130
2,4490187,-1697,4671,-500,7656,261,-106,74,-32,-130
2,4490204,-1697,4670,-511,7653,258,-107,74,-32,-130
2,4490219,-1699,4671,-497,7659,260,-104,74,-32,-130
2,4490233,-1696,4671,-498,7653,259,-106,76,-30,-146
2,4490248,-1696,4671,-498,7653,259,-106,76,-30,-146
2,4490262,-1696,4668,-510,7656,258,-106,76,-30,-146
2,4490273,-1694,4666,-518,7657,265,-103,76,-30,-146
2,4490286,-1694,4666,-518,7657,265,-103,76,-30,-146
2,4490300,-1692,4671,-511,7654,260,-108,76,-30,-146
2,4490313,-1694,4668,-520,7654,257,-104,76,-30,-146
2,4490328,-1694,4668,-520,7654,257,-104,76,-30,-146
2,4490341,-1694,4673,-514,7655,263,-108,76,-30,-146
2,4490354,-1695,4673,-513,7656,271,-110,70,-22,-146
2,4490369,-1694,4673,-511,7660,270,-103,70,-22,-146
2,4490382,-1694,4673,-511,7660,270,-103,70,-22,-146
2,4490396,-1694,4675,-508,7663,267,-101,70,-22,-146
2,4490411,-1694,4670,-509,7656,265,-108,70,-22,-146
2,4490424,-1694,4670,-509,7656,265,-108,70,-22,-146
2,4490435,-1700,4671,-506,7655,259,-97,70,-22,-146
2,4490448,-1698,4666,-503,7657,261,-105,70,-22,-146
2,4490463,-1698,4666,-503,7657,261,-105,70,-22,-146
2,4490477,-1696,4670,-498,7657,267,-98,74,-28,-152
2,4490490,-1694,4670,-504,7647,261,-106,74,-28,-152
2,4490506,-1694,4670,-504,7647,261,-106,74,-28,-152
2,4490521,-1696,4674,-499,7659,260,-104,74,-28,-152
2,4490535,-1696,4668,-502,7656,269,-96,74,-28,-152
2,4490549,-1690,4669,-508,7656,270,-94,74,-28,-152
2,4490562,-1690,4669,-508,7656,270,-94,74,-28,-152
2,4490576,-1695,4666,-512,7657,268,-98,74,-28,-152
2,4490589,-1697,4666,-512,7660,264,-107,74,-28,-152
2,4490602,-1697,4666,-512,7660,264,-107,74,-28,-152
2,4490615,-1698,4671,-535,7655,260,-104,81,-25,-161
2,4490624,-1698,4671,-535,7655,260,-104,81,-25,-161
2,4490635,-1695,4674,-522,7651,263,-104,81,-25,-161
2,4490649,-1695,4672,-529,7647,273,-100,81,-25,-161
2,4490662,-1695,4672,-529,7647,273,-100,81,-25,-161
2,4490677,-1698,4668,-525,7653,267,-99,81,-25,-161
2,4490692,-1695,4675,-523,7655,265,-97,81,-25,-161
2,4490707,-1695,4675,-523,7655,265,-97,81,-25,-161
2,4490723,-1694,4671,-513,7654,271,-105,81,-25,-161
2,4490738,-1699,4673,-499,7651,256,-102,91,-29,-163
2,4490752,-1695,4671,-503,7655,264,-103,91,-29,-163
2,4490766,-1695,4671,-503,7655,264,-103,91,-29,-163
2,4490780,-1693,4671,-502,7658,270,-107,91,-29,-163
2,4490795,-1698,4666,-502,7660,259,-102,91,-29,-163
2,4490809,-1698,4666,-502,7660,259,-102,91,-29,-163
2,4490820,-1696,4668,-502,7656,267,-100,91,-29,-163
2,4490833,-1693,4668,-501,7653,271,-100,91,-29,-163
2,4490847,-1693,4668,-501,7653,271,-100,91,-29,-163
2,4490861,-1693,4669,-507,7662,263,-104,81,-27,-163
2,4490873,-1693,4669,-507,7662,263,-104,81,-27,-163
2,4490884,-1693,4669,-507,7662,263,-104,81,-27,-163
2,4490897,-1692,4668,-508,7650,269,-106,81,-27,-163
2,4490911,-1694,4669,-510,7650,267,-105,81,-27,-163
2,4490926,-1694,4669,-510,7650,267,-105,81,-27,-163
2,4490938,-1694,4668,-519,7652,268,-99,81,-27,-163
2,4490952,-1698,4670,-518,7651,263,-104,81,-27,-163
2,4490967,-1698,4670,-518,7651,263,-104,81,-27,-163
2,4490981,-1692,4665,-503,7650,262,-104,91,-21,-175
2,4490994,-1697,4671,-506,7655,259,-105,91,-21,-175
2,4491006,-1697,4671,-506,7655,259,-105,91,-21,-175
2,4491021,-1693,4671,-512,7651,269,-99,91,-21,-175
2,4491034,-1694,4664,-505,7658,277,-109,91,-21,-175
2,4491047,-1694,4664,-505,7658,277,-109,91,-21,-175
2,4491062,-1699,4666,-510,7658,269,-104,91,-21,-175
2,4491073,-1699,4667,-503,7654,267,-110,91,-21,-175
2,4491083,-1699,4667,-503,7654,267,-110,91,-21,-175
2,4491097,-1696,4667,-501,7664,272,-108,89,-19,-175
2,4491111,-1699,4670,-504,7658,264,-109,89,-19,-175
2,4491123,-1699,4670,-504,7658,264,-109,89,-19,-175
2,4491136,-1695,4666,-503,7653,264,-108,89,-19,-175
2,4491150,-1695,4663,-504,7647,263,-111,89,-19,-175
2,4491164,-1695,4663,-504,7647,263,-111,89,-19,-175
2,4491177,-1693,4669,-512,7651,264,-107,89,-19,-175
2,4491192,-1694,4667,-519,7652,265,-107,89,-19,-175
2,4491207,-1694,4667,-519,7652,265,-107,89,-19,-175
2,4491222,-1695,4668,-536,7644,264,-107,89,-19,-175
2,4491234,-1697,4670,-521,7648,271,-109,106,-20,-180
2,4491248,-1697,4670,-521,7648,271,-109,106,-20,-180
2,4491262,-1697,4666,-526,7651,260,-107,106,-20,-180
2,4491274,-1699,4667,-530,7659,266,-105,106,-20,-180
2,4491288,-1699,4667,-530,7659,266,-105,106,-20,-180
2,4491301,-1695,4672,-525,7657,264,-109,106,-20,-180
2,4491315,-1696,4672,-517,7652,264,-106,106,-20,-180
2,4491328,-1696,4672,-517,7652,264,-106,106,-20,-180
2,4491340,-1697,4669,-501,7658,263,-106,106,-20,-180
2,4491354,-1696,4668,-500,7653,265,-98,127,-27,-181
2,4491368,-1696,4668,-500,7653,265,-98,127,-27,-181
2,4491381,-1697,4665,-502,7654,262,-98,127,-27,-181
2,4491396,-1697,4667,-502,7655,258,-105,127,-27,-181
2,4491411,-1698,4665,-501,7655,261,-100,127,-27,-181
2,4491426,-1698,4665,-501,7655,261,-100,127,-27,-181
2,4491442,-1699,4669,-499,7659,262,-99,127,-27,-181
2,4491455,-1698,4665,-510,7657,270,-106,127,-27,-181
2,4491468,-1698,4665,-510,7657,270,-106,127,-27,-181
2,4491481,-1695,4666,-517,7658,268,-97,125,-27,-175
2,4491495,-1695,4669,-521,7656,267,-98,125,-27,-175
2,4491507,-1695,4669,-521,7656,267,-98,125,-27,-175
2,4491521,-1698,4665,-512,7656,270,-100,125,-27,-175
2,4491534,-1695,4665,-517,7648,263,-101,125,-27,-175
2,4491548,-1695,4665,-517,7648,263,-101,125,-27,-175
2,4491560,-1692,4665,-517,7660,260,-103,125,-27,-175
2,4491572,-1696,4666,-524,7657,258,-105,125,-27,-175
2,4491587,-1696,4666,-524,7657,258,-105,125,-27,-175
2,4491602,-1692,4669,-500,7658,254,-102,142,-32,-180
2,4491616,-1696,4672,-511,7659,265,-105,142,-32,-180
2,4491630,-1698,4668,-503,7658,261,-107,142,-32,-180
2,4491645,-1698,4668,-503,7658,261,-107,142,-32,-180
2,4491661,-1695,4668,-505,7661,258,-103,142,-32,-180
2,4491676,-1695,4669,-496,7656,262,-97,142,-32,-180
2,4491692,-1699,4670,-507,7657,265,-107,142,-32,-180
2,4491705,-1699,4670,-507,7657,265,-107,142,-32,-180
2,4491718,-1695,4664,-500,7653,256,-105,146,-42,-184
2,4491735,-1695,4669,-498,7650,264,-107,146,-42,-184
2,4491748,-1695,4669,-498,7650,264,-107,146,-42,-184
2,4491759,-1694,4666,-509,7652,266,-99,146,-42,-184
2,4491772,-1694,4667,-510,7658,263,-103,146,-42,-184
2,4491786,-1694,4667,-510,7658,263,-103,146,-42,-184
2,4491800,-1693,4670,-515,7654,260,-108,146,-42,-184
2,4491813,-1701,4670,-546,7657,258,-107,146,-42,-184
2,4491826,-1701,4670,-546,7657,258,-107,146,-42,-184
2,4491839,-1696,4665,-527,7655,266,-107,152,-36,-176
2,4491853,-1694,4672,-519,7653,263,-104,152,-36,-176
2,4491867,-1694,4672,-519,7653,263,-104,152,-36,-176
2,4491881,-1700,4667,-539,7650,262,-104,152,-36,-176
2,4491896,-1698,4675,-518,7657,269,-107,152,-36,-176
2,4491908,-1698,4675,-518,7657,269,-107,152,-36,-176
2,4491918,-1696,4672,-525,7657,266,-113,152,-36,-176
2,4491931,-1699,4672,-501,7656,256,-102,152,-36,-176
2,4491945,-1699,4672,-501,7656,256,-102,152,-36,-176
2,4491961,-1697,4668,-501,7649,263,-95,152,-36,-176
2,4491974,-1697,4668,-497,7650,257,-99,153,-31,-183
2,4491986,-1697,4668,-497,7650,257,-99,153,-31,-183
2,4491998,-1698,4665,-505,7656,250,-103,153,-31,-183
2,4492012,-1702,4672,-508,7657,262,-107,153,-31,-183
2,4492025,-1702,4672,-508,7657,262,-107,153,-31,-183
2,4492039,-1697,4672,-503,7656,269,-107,153,-31,-183
2,4492053,-1697,4668,-508,7658,260,-109,153,-31,-183
2,4492066,-1697,4668,-508,7658,260,-109,153,-31,-183
2,4492080,-1696,4668,-515,7654,261,-104,153,-31,-183
2,4492091,-1697,4670,-500,7654,257,-113,176,-42,-182
2,4492105,-1697,4670,-500,7654,257,-113,176,-42,-182
2,4492121,-1696,4671,-502,7662,261,-106,176,-42,-182
2,4492134,-1697,4669,-514,7658,262,-99,176,-42,-182
2,4492148,-1697,4669,-514,7658,262,-99,176,-42,-182
2,4492164,-1695,4670,-513,7664,263,-101,176,-42,-182
2,4492180,-1696,4667,-509,7652,264,-100,176,-42,-182
2,4492195,-1698,4670,-506,7657,265,-107,176,-42,-182
2,4492209,-1698,4670,-506,7657,265,-107,176,-42,-182
2,4492222,-1693,4668,-510,7656,267,-108,186,-28,-176
2,4492236,-1699,4672,-506,7653,270,-107,186,-28,-176
2,4492248,-1699,4672,-506,7653,270,-107,186,-28,-176
2,4492263,-1695,4665,-506,7651,261,-98,186,-28,-176
2,4492276,-1697,4670,-504,7653,271,-104,186,-28,-176
2,4492290,-1697,4670,-504,7653,271,-104,186,-28,-176
2,4492303,-1696,4664,-497,7654,262,-110,186,-28,-176
2,4492317,-1696,4668,-506,7659,256,-106,186,-28,-176
2,4492326,-1696,4668,-506,7659,256,-106,186,-28,-176
2,4492339,-1695,4667,-502,7658,254,-105,195,-33,-175
2,4492351,-1695,4670,-502,7655,263,-109,195,-33,-175
2,4492365,-1695,4670,-502,7655,263,-109,195,-33,-175
2,4492381,-1694,4664,-505,7651,257,-102,195,-33,-175
2,4492395,-1695,4669,-516,7644,261,-102,195,-33,-175
2,4492404,-1695,4669,-516,7644,261,-102,195,-33,-175
2,4492416,-1699,4669,-537,7649,262,-103,195,-33,-175
2,4492430,-1696,4668,-530,7653,262,-106,195,-33,-175
2,4492444,-1696,4668,-530,7653,262,-106,195,-33,-175
2,4492456,-1694,4670,-528,7653,262,-111,203,-19,-165
2,4492470,-1698,4670,-520,7655,263,-104,203,-19,-165
2,4492482,-1698,4670,-520,7655,263,-104,203,-19,-165
2,4492495,-1699,4674,-532,7661,272,-105,203,-19,-165
2,4492509,-1699,4674,-532,7661,272,-105,203,-19,-165
2,4492522,-1694,4671,-516,7666,265,-101,203,-19,-165
2,4492536,-1695,4669,-502,7659,254,-105,203,-19,-165
2,4492549,-1695,4669,-502,7659,254,-105,203,-19,-165
2,4492563,-1694,4669,-498,7658,259,-97,203,-19,-165
2,4492576,-1693,4669,-508,7659,270,-104,203,-19,-165
2,4492591,-1694,4672,-502,7659,268,-110,223,-29,-155
2,4492606,-1694,4672,-502,7659,268,-110,223,-29,-155
2,4492620,-1699,4670,-502,7649,258,-106,223,-29,-155
2,4492635,-1696,4669,-499,7656,265,-106,223,-29,-155
2,4492649,-1696,4669,-499,7656,265,-106,223,-29,-155
2,4492663,-1697,4671,-505,7653,268,-104,223,-29,-155
2,4492678,-1696,4661,-507,7651,261,-104,223,-29,-155
2,4492691,-1695,4667,-508,7656,262,-105,223,-29,-155
2,4492704,-1695,4667,-508,7656,262,-105,223,-29,-155
2,4492718,-1695,4667,-505,7652,274,-99,211,-29,-145
2,4492732,-1695,4670,-509,7651,278,-107,211,-29,-145
2,4492744,-1695,4670,-509,7651,278,-107,211,-29,-145
2,4492759,-1694,4666,-509,7653,275,-109,211,-29,-145
2,4492772,-1698,4669,-511,7650,268,-106,211,-29,-145
2,4492786,-1698,4669,-511,7650,268,-106,211,-29,-145
2,4492795,-1698,4668,-502,7655,262,-94,211,-29,-145
2,4492810,-1698,4668,-502,7655,262,-94,211,-29,-145
2,4492823,-1696,4673,-515,7653,273,-105,211,-29,-145
2,4492836,-1699,4666,-503,7652,269,-106,211,-25,-143
2,4492852,-1699,4669,-503,7649,264,-106,211,-25,-143
2,4492867,-1699,4669,-503,7649,264,-106,211,-25,-143
2,4492882,-1696,4661,-504,7649,262,-108,211,-25,-143
2,4492896,-1694,4668,-502,7644,268,-106,211,-25,-143
2,4492909,-1694,4668,-502,7644,268,-106,211,-25,-143
2,4492923,-1698,4666,-509,7647,261,-104,211,-25,-143
2,4492935,-1700,4666,-505,7647,266,-100,211,-25,-143
2,4492947,-1700,4666,-505,7647,266,-100,211,-25,-143
2,4492960,-1698,4668,-505,7656,265,-105,219,-31,-125
2,4492975,-1695,4671,-512,7648,263,-99,219,-31,-125
2,4492988,-1695,4671,-512,7648,263,-99,219,-31,-125
2,4492999,-1695,4668,-526,7651,260,-108,219,-31,-125
2,4493012,-1696,4668,-537,7652,259,-110,219,-31,-125
2,4493026,-1696,4668,-537,7652,259,-110,219,-31,-125
2,4493039,-1696,4672,-521,7651,259,-106,219,-31,-125
2,4493053,-1697,4668,-523,7651,264,-98,219,-31,-125
2,4493069,-1697,4668,-523,7651,264,-98,219,-31,-125
2,4493080,-1699,4669,-539,7648,268,-107,211,-29,-131
2,4493093,-1696,4671,-513,7656,266,-108,211,-29,-131
2,4493109,-1696,4671,-513,7656,266,-108,211,-29,-131
2,4493122,-1695,4673,-514,7660,267,-105,211,-29,-131
2,4493136,-1702,4672,-502,7655,260,-103,211,-29,-131
2,4493151,-1695,4673,-501,7658,267,-99,211,-29,-131
2,4493165,-1695,4673,-501,7658,267,-99,211,-29,-131
2,4493179,-1697,4668,-503,7659,263,-95,211,-29,-131
2,4493193,-1695,4672,-505,7654,256,-101,211,-29,-131
2,4493206,-1695,4672,-505,7654,256,-101,211,-29,-131
2,4493220,-1698,4669,-500,7660,266,-101,212,-24,-116
2,4493233,-1696,4673,-506,7660,266,-103,212,-24,-116
2,4493246,-1696,4673,-506,7660,266,-103,212,-24,-116
2,4493259,-1698,4666,-509,7654,257,-112,212,-24,-116
2,4493273,-1698,4667,-519,7650,261,-112,212,-24,-116
2,4493288,-1698,4667,-519,7650,261,-112,212,-24,-116
2,4493302,-1696,4670,-517,7659,268,-104,212,-24,-116
2,4493317,-1698,4672,-520,7657,267,-106,212,-24,-116
2,4493330,-1698,4672,-520,7657,267,-106,212,-24,-116
2,4493344,-1699,4665,-506,7665,267,-114,214,-26,-116
2,4493360,-1693,4670,-507,7662,260,-112,214,-26,-116
2,4493374,-1697,4665,-517,7656,259,-106,214,-26,-116
2,4493385,-1697,4665,-517,7656,259,-106,214,-26,-116
2,4493399,-1696,4670,-512,7655,265,-107,214,-26,-116
2,4493413,-1697,4672,-506,7659,263,-100,214,-26,-116
2,4493426,-1697,4672,-506,7659,263,-100,214,-26,-116
2,4493441,-1696,4668,-503,7657,262,-112,214,-26,-116
2,4493452,-1695,4666,-506,7668,263,-110,211,-27,-109
2,4493464,-1695,4666,-506,7668,263,-110,211,-27,-109
2,4493477,-1693,4667,-495,7659,256,-103,211,-27,-109
2,4493492,-1696,4668,-509,7653,263,-105,211,-27,-109
2,4493506,-1696,4668,-509,7653,263,-105,211,-27,-109
2,4493518,-1695,4670,-503,7652,264,-102,211,-27,-109
2,4493529,-1695,4670,-503,7652,264,-102,211,-27,-109
2,4493542,-1696,4671,-506,7657,260,-104,211,-27,-109
2,4493557,-1697,4667,-504,7657,257,-105,211,-27,-109
2,4493573,-1696,4670,-509,7651,258,-107,202,-22,-108
2,4493588,-1696,4670,-509,7651,258,-107,202,-22,-108
2,4493602,-1694,4669,-518,7654,259,-109,202,-22,-108
2,4493617,-1697,4675,-533,7655,255,-103,202,-22,-108
2,4493630,-1697,4675,-533,7655,255,-103,202,-22,-108
2,4493643,-1695,4671,-535,7650,261,-106,202,-22,-108
2,4493658,-1694,4677,-517,7654,265,-104,202,-22,-108
2,4493672,-1695,4668,-534,7657,270,-97,202,-22,-108
2,4493683,-1695,4668,-534,7657,270,-97,202,-22,-108
2,4493694,-1700,4674,-514,7657,269,-99,198,-14,-94
2,4493709,-1700,4674,-514,7657,269,-99,198,-14,-94
2,4493722,-1697,4675,-514,7654,264,-107,198,-14,-94
2,4493737,-1701,4674,-497,7659,262,-111,198,-14,-94
2,4493752,-1693,4673,-504,7662,269,-107,198,-14,-94
2,4493765,-1693,4673,-504,7662,269,-107,198,-14,-94
2,4493778,-1695,4675,-506,7655,258,-106,198,-14,-94
2,4493792,-1694,4672,-502,7656,265,-110,198,-14,-94
2,4493804,-1694,4672,-502,7656,265,-110,198,-14,-94
2,4493818,-1697,4673,-501,7652,262,-107,198,-14,-94
2,4493832,-1697,4673,-501,7652,262,-107,198,-14,-94
2,4493845,-1693,4674,-498,7653,265,-105,192,-14,-106
2,4493858,-1692,4671,-504,7659,264,-105,192,-14,-106
2,4493871,-1692,4671,-504,7659,264,-105,192,-14,-106
2,4493884,-1694,4673,-515,7651,274,-104,192,-14,-106
2,4493899,-1697,4672,-503,7650,262,-108,192,-14,-106
2,4493913,-1697,4674,-499,7651,265,-97,192,-14,-106
2,4493927,-1697,4674,-499,7651,265,-97,192,-14,-106
2,4493940,-1695,4672,-511,7656,267,-95,192,-14,-106
2,4493955,-1695,4672,-511,7656,267,-95,197,-7,-95
2,4493968,-1695,4672,-511,7656,267,-95,197,-7,-95
2,4493983,-1696,4668,-500,7659,268,-108,197,-7,-95
2,4493998,-1693,4669,-502,7653,259,-103,197,-7,-95
2,4494013,-1695,4674,-503,7651,260,-102,197,-7,-95
2,4494024,-1695,4674,-503,7651,260,-102,197,-7,-95
2,4494038,-1699,4669,-509,7655,265,-106,197,-7,-95
2,4494051,-1699,4669,-509,7655,265,-106,197,-7,-95
2,4494064,-1696,4669,-505,7656,271,-101,197,-7,-95
2,4494077,-1700,4671,-498,7657,265,-105,185,-11,-87
2,4494093,-1698,4667,-499,7652,266,-102,185,-11,-87
2,4494105,-1698,4667,-499,7652,266,-102,185,-11,-87
2,4494118,-1699,4673,-502,7650,271,-98,185,-11,-87
2,4494132,-1697,4663,-505,7650,260,-105,185,-11,-87
2,4494145,-1697,4663,-505,7650,260,-105,185,-11,-87
2,4494159,-1698,4669,-508,7654,260,-97,185,-11,-87
2,4494172,-1698,4667,-509,7653,262,-103,185,-11,-87
2,4494186,-1698,4667,-509,7653,262,-103,185,-11,-87
2,4494200,-1694,4673,-506,7648,256,-107,181,-5,-83
2,4494216,-1698,4670,-537,7652,258,-105,181,-5,-83
2,4494229,-1698,4670,-537,7652,258,-105,181,-5,-83
2,4494243,-1694,4671,-537,7650,260,-108,181,-5,-83
2,4494258,-1694,4668,-524,7651,262,-108,181,-5,-83
2,4494273,-1697,4665,-532,7656,257,-106,181,-5,-83
2,4494286,-1697,4665,-532,7656,257,-106,181,-5,-83
2,4494300,-1695,4668,-526,7662,265,-108,181,-5,-83
2,4494313,-1691,4674,-518,7661,272,-110,178,-12,-78
2,4494325,-1691,4674,-518,7661,272,-110,178,-12,-78
2,4494340,-1697,4672,-508,7654,259,-108,178,-12,-78
2,4494353,-1695,4671,-498,7660,261,-102,178,-12,-78
2,4494366,-1695,4671,-498,7660,261,-102,178,-12,-78
2,4494380,-1694,4673,-512,7651,268,-102,178,-12,-78
2,4494395,-1693,4671,-498,7647,269,-105,178,-12,-78
2,4494406,-1693,4671,-498,7647,269,-105,178,-12,-78
2,4494420,-1698,4671,-511,7652,263,-100,178,-12,-78
2,4494436,-1694,4672,-495,7655,262,-101,178,-12,-78
2,4494450,-1694,4672,-495,7655,262,-101,178,-12,-78
2,4494466,-1693,4668,-516,7654,268,-98,157,-3,-77
2,4494480,-1695,4671,-529,7659,268,-104,157,-3,-77
2,4494491,-1695,4671,-529,7659,268,-104,157,-3,-77
2,4494505,-1696,4674,-526,7651,267,-105,157,-3,-77
2,4494519,-1696,4670,-515,7653,261,-103,157,-3,-77
2,4494532,-1694,4673,-519,7656,266,-103,157,-3,-77
2,4494546,-1694,4673,-519,7656,266,-103,157,-3,-77
2,4494561,-1700,4676,-515,7658,261,-101,157,-3,-77
2,4494573,-1697,4673,-511,7654,270,-103,164,-6,-80
2,4494587,-1697,4673,-511,7654,270,-103,164,-6,-80
2,4494601,-1700,4672,-499,7654,269,-106,164,-6,-80
2,4494613,-1696,4675,-506,7660,263,-103,164,-6,-80
2,4494628,-1696,4675,-506,7660,263,-103,164,-6,-80
2,4494644,-1698,4670,-497,7655,265,-104,164,-6,-80
2,4494657,-1697,4673,-506,7653,259,-102,164,-6,-80
2,4494670,-1697,4673,-506,7653,259,-102,164,-6,-80
2,4494685,-1696,4668,-496,7654,262,-107,164,-6,-80
2,4494699,-1694,4672,-494,7655,259,-107,154,-10,-74
2,4494711,-1694,4672,-494,7655,259,-107,154,-10,-74
2,4494725,-1697,4669,-499,7656,260,-109,154,-10,-74
2,4494738,-1697,4673,-502,7659,260,-108,154,-10,-74
2,4494751,-1697,4673,-502,7659,260,-108,154,-10,-74
2,4494766,-1697,4667,-498,7657,257,-105,154,-10,-74
2,4494780,-1695,4671,-501,7648,260,-106,154,-10,-74
2,4494795,-1696,4672,-511,7651,262,-109,154,-10,-74
2,4494808,-1696,4672,-511,7651,262,-109,154,-10,-74
2,4494822,-1695,4676,-517,7649,260,-104,137,-9,-77
2,4494835,-1696,4670,-536,7648,261,-110,137,-9,-77
2,4494849,-1696,4670,-536,7648,261,-110,137,-9,-77
2,4494863,-1696,4670,-513,7649,259,-103,137,-9,-77
2,4494877,-1693,4671,-529,7652,260,-100,137,-9,-77
2,4494889,-1693,4671,-529,7652,260,-100,137,-9,-77
2,4494904,-1698,4671,-523,7655,265,-94,137,-9,-77
2,4494919,-1694,4676,-516,7655,263,-101,137,-9,-77
2,4494932,-1694,4676,-516,7655,263,-101,137,-9,-77
2,4494945,-1694,4671,-501,7654,257,-108,132,-12,-80
2,4494959,-1697,4673,-498,7652,260,-108,132,-12,-80
2,4494973,-1696,4667,-506,7657,263,-110,132,-12,-80
2,4494987,-1696,4667,-506,7657,263,-110,132,-12,-80
2,4495000,-1695,4675,-497,7653,263,-112,132,-12,-80
2,4495014,-1695,4669,-505,7653,255,-104,132,-12,-80
2,4495027,-1695,4669,-505,7653,255,-104,132,-12,-80
2,4495035,-1696,4673,-505,7652,261,-98,132,-12,-80
2,4495049,-1696,4673,-505,7652,261,-98,132,-12,-80
2,4495062,-1694,4668,-505,7652,262,-107,132,-12,-80
2,4495074,-1697,4672,-506,7653,267,-106,126,-8,-88
2,4495089,-1697,4672,-506,7653,267,-106,126,-8,-88
2,4495105,-1694,4670,-514,7656,262,-112,126,-8,-88
2,4495120,-1697,4676,-509,7651,258,-106,126,-8,-88
2,4495132,-1697,4670,-509,7660,262,-96,126,-8,-88
2,4495147,-1697,4670,-509,7660,262,-96,126,-8,-88
2,4495162,-1694,4672,-518,7654,263,-104,126,-8,-88
2,4495176,-1694,4665,-510,7651,256,-105,126,-8,-88
2,4495191,-1694,4665,-510,7651,256,-105,126,-8,-88
2,4495204,-1695,4676,-496,7651,266,-111,107,-19,-93
2,4495215,-1697,4668,-501,7653,262,-111,107,-19,-93
2,4495229,-1697,4668,-501,7653,262,-111,107,-19,-93
2,4495246,-1696,4671,-506,7650,270,-112,107,-19,-93
2,4495258,-1699,4672,-504,7654,262,-104,107,-19,-93
2,4495271,-1699,4672,-504,7654,262,-104,107,-19,-93
2,4495285,-1696,4670,-504,7655,260,-112,107,-19,-93
2,4495299,-1696,4668,-505,7656,267,-109,107,-19,-93
2,4495311,-1696,4668,-505,7656,267,-109,107,-19,-93
2,4495325,-1697,4676,-499,7650,269,-104,104,-16,-104
2,4495340,-1695,4668,-500,7656,261,-103,104,-16,-104
2,4495355,-1696,4672,-503,7652,263,-98,104,-16,-104
2,4495370,-1696,4672,-503,7652,263,-98,104,-16,-104
2,4495382,-1695,4667,-515,7643,264,-105,104,-16,-104
2,4495397,-1692,4669,-519,7654,264,-98,104,-16,-104
2,4495412,-1692,4669,-519,7654,264,-98,104,-16,-104
2,4495426,-1696,4665,-543,7649,263,-105,104,-16,-104
2,4495437,-1695,4667,-526,7649,260,-103,100,-24,-104
2,4495449,-1695,4667,-526,7649,260,-103,100,-24,-104
2,4495464,-1689,4671,-527,7649,258,-103,100,-24,-104
2,4495478,-1701,4672,-533,7653,260,-104,100,-24,-104
2,4495492,-1701,4672,-533,7653,260,-104,100,-24,-104
2,4495507,-1698,4674,-535,7650,272,-103,100,-24,-104
2,4495521,-1696,4675,-516,7656,269,-102,100,-24,-104
2,4495536,-1695,4676,-510,7663,266,-98,100,-24,-104
2,4495550,-1695,4676,-510,7663,266,-98,100,-24,-104
2,4495564,-1694,4671,-492,7659,269,-107,88,-24,-112
2,4495577,-1693,4674,-506,7653,270,-108,88,-24,-112
2,4495592,-1693,4674,-506,7653,270,-108,88,-24,-112
2,4495606,-1694,4672,-499,7654,275,-99,88,-24,-112
2,4495621,-1696,4672,-510,7659,261,-103,88,-24,-112
2,4495633,-1696,4672,-502,7654,260,-102,88,-24,-112
2,4495648,-1696,4672,-502,7654,260,-102,88,-24,-112
2,4495663,-1693,4672,-519,7659,261,-106,88,-24,-112
2,4495677,-1697,4672,-517,7650,267,-104,82,-32,-122
2,4495690,-1697,4672,-517,7650,267,-104,82,-32,-122
2,4495704,-1695,4675,-523,7652,257,-100,82,-32,-122
2,4495718,-1696,4676,-508,7661,268,-107,82,-32,-122
2,4495733,-1696,4675,-518,7665,274,-102,82,-32,-122
2,4495746,-1696,4675,-518,7665,274,-102,82,-32,-122
2,4495759,-1694,4671,-507,7660,269,-106,82,-32,-122
2,4495772,-1694,4671,-507,7660,269,-106,82,-32,-122
2,4495787,-1693,4673,-514,7665,266,-114,82,-32,-122
2,4495802,-1697,4672,-506,7661,271,-107,82,-32,-122
2,4495814,-1693,4673,-509,7657,270,-110,79,-23,-123
2,4495827,-1693,4673,-509,7657,270,-110,79,-23,-123
2,4495843,-1694,4673,-502,7659,265,-111,79,-23,-123
2,4495857,-1695,4671,-504,7656,268,-111,79,-23,-123
2,4495867,-1695,4671,-504,7656,268,-111,79,-23,-123
2,4495883,-1696,4675,-496,7656,267,-112,79,-23,-123
2,4495897,-1694,4675,-503,7651,263,-107,79,-23,-123
2,4495911,-1694,4675,-503,7651,263,-107,79,-23,-123
2,4495924,-1693,4674,-504,7648,263,-104,79,-23,-123
2,4495937,-1694,4670,-506,7655,267,-106,77,-29,-131
2,4495948,-1694,4670,-506,7655,267,-106,77,-29,-131
2,4495962,-1692,4667,-509,7660,264,-106,77,-29,-131
2,4495975,-1691,4667,-505,7656,260,-106,77,-29,-131
2,4495989,-1691,4667,-505,7656,260,-106,77,-29,-131
2,4496003,-1693,4671,-511,7652,263,-99,77,-29,-131
2,4496015,-1695,4671,-527,7648,268,-104,77,-29,-131
2,4496026,-1695,4671,-527,7648,268,-104,77,-29,-131
2,4496038,-1698,4673,-532,7654,260,-103,77,-29,-131
2,4496053,-1698,4673,-532,7654,260,-103,77,-29,-131
2,4496068,-1692,4680,-521,7659,263,-103,79,-35,-133
2,4496080,-1695,4677,-525,7651,256,-104,79,-35,-133
2,4496095,-1699,4673,-521,7658,264,-108,79,-35,-133
2,4496110,-1699,4673,-521,7658,264,-108,79,-35,-133
2,4496125,-1695,4676,-514,7659,259,-111,79,-35,-133
2,4496141,-1692,4669,-509,7659,259,-104,79,-35,-133
2,4496155,-1698,4671,-496,7652,261,-99,79,-35,-133
2,4496166,-1698,4671,-496,7652,261,-99,79,-35,-133
2,4496181,-1696,4670,-505,7655,271,-104,67,-25,-145
2,4496194,-1691,4677,-501,7658,267,-101,67,-25,-145
2,4496207,-1691,4677,-501,7658,267,-101,67,-25,-145
2,4496221,-1696,4676,-507,7659,266,-102,67,-25,-145
2,4496235,-1695,4681,-498,7660,272,-101,67,-25,-145
2,4496246,-1695,4681,-498,7660,272,-101,67,-25,-145
2,4496262,-1692,4670,-515,7654,273,-104,67,-25,-145
2,4496272,-1692,4670,-515,7654,273,-104,67,-25,-145
2,4496287,-1694,4673,-513,7655,268,-101,67,-25,-145
2,4496300,-1696,4670,-521,7657,266,-104,74,-22,-144
2,4496313,-1696,4670,-521,7657,266,-104,74,-22,-144
2,4496327,-1696,4676,-498,7648,265,-105,74,-22,-144
2,4496342,-1693,4673,-510,7657,268,-103,74,-22,-144
2,4496354,-1697,4676,-514,7656,267,-103,74,-22,-144
2,4496367,-1697,4676,-514,7656,267,-103,74,-22,-144
2,4496380,-1693,4676,-510,7650,266,-106,74,-22,-144
2,4496394,-1693,4676,-510,7650,266,-106,74,-22,-144
2,4496407,-1698,4676,-507,7660,263,-107,74,-22,-144
2,4496421,-1696,4675,-512,7660,263,-109,74,-22,-144
2,4496436,-1691,4674,-503,7656,267,-110,81,-27,-143
2,4496448,-1691,4674,-503,7656,267,-110,81,-27,-143
2,4496463,-1691,4674,-505,7658,265,-105,81,-27,-143
2,4496477,-1697,4671,-508,7654,257,-108,81,-27,-143
2,4496490,-1697,4671,-508,7654,257,-108,81,-27,-143
2,4496505,-1694,4674,-508,7660,260,-102,81,-27,-143
2,4496517,-1694,4673,-506,7656,260,-102,81,-27,-143
2,4496529,-1694,4673,-506,7656,260,-102,81,-27,-143
2,4496544,-1697,4672,-513,7657,259,-105,81,-27,-143
2,4496560,-1697,4669,-505,7659,259,-104,76,-22,-152
2,4496571,-1697,4669,-505,7659,259,-104,76,-22,-152
2,4496584,-1696,4674,-525,7657,256,-104,76,-22,-152
2,4496598,-1696,4674,-533,7659,255,-105,76,-22,-152
2,4496611,-1696,4674,-533,7659,255,-105,76,-22,-152
2,4496624,-1696,4679,-519,7658,265,-99,76,-22,-152
2,4496640,-1696,4674,-523,7656,265,-109,76,-22,-152
2,4496652,-1696,4674,-523,7656,265,-109,76,-22,-152
2,4496665,-1697,4679,-522,7658,268,-107,76,-22,-152
2,4496678,-1694,4678,-526,7661,265,-105,71,-21,-165
2,4496692,-1694,4678,-526,7661,265,-105,71,-21,-165
2,4496706,-1690,4681,-502,7663,265,-109,71,-21,-165
2,4496718,-1692,4677,-500,7658,254,-110,71,-21,-165
2,4496733,-1692,4677,-500,7658,254,-110,71,-21,-165
2,4496747,-1695,4675,-504,7657,268,-105,71,-21,-165
2,4496761,-1696,4676,-503,7661,270,-104,71,-21,-165
2,4496775,-1695,4676,-503,7662,265,-101,71,-21,-165
2,4496787,-1695,4676,-503,7662,265,-101,71,-21,-165
2,4496801,-1694,4676,-482,7658,261,-102,87,-25,-163
2,4496815,-1697,4677,-503,7655,271,-104,87,-25,-163
2,4496829,-1697,4677,-503,7655,271,-104,87,-25,-163
2,4496842,-1693,4673,-500,7654,273,-107,87,-25,-163
2,4496857,-1693,4673,-500,7654,273,-107,87,-25,-163
2,4496870,-1693,4673,-500,7654,273,-107,87,-25,-163
2,4496883,-1699,4673,-501,7653,265,-111,87,-25,-163
2,4496897,-1695,4675,-505,7659,264,-106,87,-25,-163
2,4496910,-1695,4675,-505,7659,264,-106,87,-25,-163
2,4496925,-1693,4675,-502,7656,270,-108,90,-20,-164
2,4496936,-1695,4671,-510,7655,260,-104,90,-20,-164
2,4496947,-1695,4671,-510,7655,260,-104,90,-20,-164
2,4496960,-1696,4671,-504,7662,267,-101,90,-20,-164
2,4496975,-1696,4669,-502,7659,264,-113,90,-20,-164
2,4496990,-1696,4669,-502,7659,264,-113,90,-20,-164
2,4497005,-1696,4672,-502,7655,253,-106,90,-20,-164
2,4497019,-1697,4672,-509,7655,262,-97,90,-20,-164
2,4497033,-1697,4672,-509,7655,262,-97,90,-20,-164
2,4497047,-1695,4671,-500,7655,264,-103,90,-20,-164
2,4497060,-1696,4670,-497,7652,269,-102,104,-26,-174
2,4497074,-1696,4670,-497,7652,269,-102,104,-26,-174
2,4497088,-1692,4672,-494,7647,267,-106,104,-26,-174
2,4497101,-1694,4669,-501,7649,266,-101,104,-26,-174
2,4497115,-1690,4671,-505,7654,268,-99,104,-26,-174
2,4497129,-1690,4671,-505,7654,268,-99,104,-26,-174
2,4497142,-1695,4669,-498,7649,254,-100,104,-26,-174
2,4497157,-1692,4667,-501,7646,262,-105,104,-26,-174
2,4497169,-1692,4667,-501,7646,262,-105,104,-26,-174
2,4497184,-1692,4667,-501,7646,262,-105,103,-19,-169
2,4497198,-1692,4671,-526,7645,260,-107,103,-19,-169
2,4497212,-1692,4671,-526,7645,260,-107,103,-19,-169
2,4497224,-1699,4675,-536,7644,262,-106,103,-19,-169
2,4497240,-1692,4674,-529,7646,265,-111,103,-19,-169
2,4497254,-1692,4674,-529,7646,265,-111,103,-19,-169
2,4497267,-1694,4669,-524,7654,258,-107,103,-19,-169
2,4497281,-1696,4671,-542,7656,260,-101,103,-19,-169
2,4497295,-1693,4669,-515,7652,269,-101,103,-19,-169
2,4497310,-1693,4669,-515,7652,269,-101,116,-20,-174
2,4497323,-1694,4674,-507,7656,264,-106,116,-20,-174
2,4497335,-1697,4672,-507,7655,267,-113,116,-20,-174
2,4497351,-1697,4672,-507,7655,267,-113,116,-20,-174
2,4497364,-1695,4673,-501,7658,270,-115,116,-20,-174
2,4497380,-1696,4670,-512,7656,265,-107,116,-20,-174
2,4497394,-1696,4670,-512,7656,265,-107,116,-20,-174
2,4497409,-1693,4674,-505,7655,261,-99,116,-20,-174
2,4497424,-1695,4672,-506,7655,269,-99,130,-32,-170
2,4497438,-1695,4667,-510,7645,257,-104,130,-32,-170
2,4497452,-1695,4667,-510,7645,257,-104,130,-32,-170
2,4497467,-1690,4668,-527,7651,266,-106,130,-32,-170
2,4497482,-1695,4672,-514,7650,262,-99,130,-32,-170
2,4497496,-1696,4675,-518,7659,263,-102,130,-32,-170
2,4497507,-1696,4675,-518,7659,263,-102,130,-32,-170
2,4497521,-1694,4675,-510,7659,266,-98,130,-32,-170
2,4497534,-1694,4675,-510,7659,266,-98,130,-32,-170
2,4497548,-1695,4676,-519,7658,262,-104,132,-30,-180
2,4497562,-1695,4673,-501,7659,265,-112,132,-30,-180
2,4497572,-1695,4673,-501,7659,265,-112,132,-30,-180
2,4497586,-1695,4674,-509,7657,270,-107,132,-30,-180
2,4497599,-1694,4671,-498,7655,265,-112,132,-30,-180
2,4497613,-1694,4671,-498,7655,265,-112,132,-30,-180
2,4497628,-1694,4673,-513,7645,266,-104,132,-30,-180
2,4497643,-1694,4674,-500,7658,267,-96,132,-30,-180
2,4497656,-1696,4671,-506,7663,266,-102,132,-30,-180
2,4497670,-1696,4671,-506,7663,266,-102,132,-30,-180
2,4497685,-1696,4671,-495,7660,260,-104,138,-30,-184
2,4497700,-1693,4671,-499,7652,266,-101,138,-30,-184
2,4497713,-1693,4671,-499,7652,266,-101,138,-30,-184
2,4497726,-1694,4672,-497,7656,265,-110,138,-30,-184
2,4497741,-1693,4671,-503,7650,264,-104,138,-30,-184
2,4497755,-1693,4671,-503,7650,264,-104,138,-30,-184
2,4497768,-1695,4669,-507,7650,265,-104,138,-30,-184
2,4497781,-1694,4671,-505,7661,267,-107,138,-30,-184
2,4497797,-1696,4670,-521,7652,262,-102,150,-32,-178
2,4497808,-1696,4670,-521,7652,262,-102,150,-32,-178
2,4497821,-1695,4675,-530,7653,266,-100,150,-32,-178
2,4497835,-1698,4675,-523,7645,270,-101,150,-32,-178
2,4497849,-1698,4675,-523,7645,270,-101,150,-32,-178
2,4497863,-1695,4674,-520,7657,267,-101,150,-32,-178
2,4497874,-1695,4674,-520,7657,267,-101,150,-32,-178
2,4497889,-1699,4673,-530,7655,262,-106,150,-32,-178
2,4497904,-1695,4674,-520,7663,273,-105,150,-32,-178
2,4497920,-1697,4677,-502,7661,265,-105,154,-30,-176
2,4497935,-1697,4668,-500,7654,261,-106,154,-30,-176
2,4497950,-1697,4668,-500,7654,261,-106,154,-30,-176
2,4497963,-1699,4671,-496,7658,263,-112,154,-30,-176
2,4497976,-1696,4671,-505,7653,261,-106,154,-30,-176
2,4497990,-1696,4671,-505,7653,261,-106,154,-30,-176
2,4498003,-1698,4670,-500,7654,258,-110,154,-30,-176
2,4498017,-1701,4672,-500,7661,263,-103,154,-30,-176
2,4498030,-1701,4672,-500,7661,263,-103,154,-30,-176
2,4498043,-1693,4670,-496,7651,257,-104,157,-25,-175
2,4498056,-1691,4670,-511,7652,257,-105,157,-25,-175
2,4498069,-1691,4670,-511,7652,257,-105,157,-25,-175
2,4498083,-1693,4671,-517,7652,256,-106,157,-25,-175
2,4498098,-1697,4673,-510,7651,271,-108,157,-25,-175
2,4498112,-1697,4673,-510,7651,271,-108,157,-25,-175
2,4498124,-1694,4674,-511,7652,265,-105,157,-25,-175
2,4498139,-1695,4668,-520,7646,267,-103,157,-25,-175
2,4498154,-1695,4668,-520,7646,267,-103,157,-25,-175
2,4498168,-1695,4671,-508,7652,268,-107,175,-39,-181
2,4498182,-1697,4672,-512,7651,263,-108,175,-39,-181
2,4498196,-1697,4672,-504,7652,266,-115,175,-39,-181
2,4498211,-1697,4672,-504,7652,266,-115,175,-39,-181
2,4498225,-1695,4674,-503,7653,267,-102,175,-39,-181
2,4498237,-1695,4678,-507,7661,270,-102,175,-39,-181
2,4498252,-1695,4678,-507,7661,270,-102,175,-39,-181
2,4498265,-1695,4671,-498,7657,259,-97,175,-39,-181
2,4498278,-1696,4674,-505,7655,258,-105,175,-39,-181
2,4498291,-1696,4674,-505,7655,258,-105,175,-39,-181
2,4498299,-1692,4671,-498,7653,254,-108,185,-29,-179
2,4498314,-1692,4671,-498,7653,254,-108,185,-29,-179
2,4498328,-1693,4670,-502,7650,261,-105,185,-29,-179
2,4498341,-1697,4669,-502,7645,263,-102,185,-29,-179
2,4498356,-1693,4670,-511,7653,271,-104,185,-29,-179
2,4498369,-1693,4670,-511,7653,271,-104,185,-29,-179
2,4498383,-1693,4671,-509,7654,266,-103,185,-29,-179
2,4498397,-1694,4672,-544,7652,263,-101,185,-29,-179
2,4498409,-1694,4672,-544,7652,263,-101,185,-29,-179
2,4498423,-1696,4676,-515,7650,266,-109,203,-31,-167
2,4498439,-1697,4674,-522,7652,263,-104,203,-31,-167
2,4498450,-1697,4674,-522,7652,263,-104,203,-31,-167
2,4498462,-1698,4674,-516,7656,259,-111,203,-31,-167
2,4498478,-1693,4672,-536,7657,264,-108,203,-31,-167
2,4498492,-1693,4672,-536,7657,264,-108,203,-31,-167
2,4498505,-1694,4673,-507,7655,269,-102,203,-31,-167
2,4498519,-1693,4675,-506,7651,263,-111,203,-31,-167
2,4498533,-1693,4675,-506,7651,263,-111,203,-31,-167
2,4498546,-1701,4672,-493,7652,257,-115,212,-30,-164
2,4498558,-1691,4669,-502,7653,263,-105,212,-30,-164
2,4498573,-1691,4669,-502,7653,263,-105,212,-30,-164
2,4498586,-1697,4672,-506,7651,258,-105,212,-30,-164
2,4498600,-1698,4673,-495,7652,254,-103,212,-30,-164
2,4498613,-1698,4673,-495,7652,254,-103,212,-30,-164
2,4498625,-1695,4671,-501,7650,267,-104,212,-30,-164
2,4498640,-1695,4672,-500,7656,272,-105,212,-30,-164
2,4498656,-1694,4671,-510,7646,262,-110,204,-24,-158
2,4498671,-1694,4671,-510,7646,262,-110,204,-24,-158
2,4498683,-1698,4670,-508,7662,265,-99,204,-24,-158
2,4498697,-1697,4670,-504,7660,258,-94,204,-24,-158
2,4498710,-1697,4670,-504,7660,258,-94,204,-24,-158
2,4498723,-1692,4673,-505,7657,263,-101,204,-24,-158
2,4498737,-1697,4667,-511,7655,261,-105,204,-24,-158
2,4498751,-1697,4667,-511,7655,261,-105,204,-24,-158
2,4498765,-1698,4671,-501,7654,255,-112,204,-24,-158
2,4498778,-1698,4672,-505,7657,264,-111,211,-29,-149
2,4498792,-1698,4672,-505,7657,264,-111,211,-29,-149
2,4498805,-1693,4670,-502,7651,267,-108,211,-29,-149
2,4498819,-1695,4668,-505,7653,269,-104,211,-29,-149
2,4498834,-1695,4668,-505,7653,269,-104,211,-29,-149
2,4498849,-1698,4666,-502,7654,265,-109,211,-29,-149
2,4498864,-1699,4664,-507,7653,269,-108,211,-29,-149
2,4498878,-1696,4665,-504,7646,261,-106,211,-29,-149
2,4498891,-1696,4665,-504,7646,261,-106,211,-29,-149
2,4498906,-1696,4665,-504,7646,261,-106,217,-29,-133
2,4498918,-1698,4668,-506,7649,256,-107,217,-29,-133
2,4498932,-1698,4668,-506,7649,256,-107,217,-29,-133
2,4498948,-1697,4669,-506,7653,256,-103,217,-29,-133
2,4498961,-1695,4665,-509,7651,264,-108,217,-29,-133
2,4498975,-1695,4665,-509,7651,264,-108,217,-29,-133
2,4498989,-1698,4669,-528,7647,257,-107,217,-29,-133
2,4499003,-1694,4666,-538,7647,263,-107,217,-29,-133
2,4499015,-1694,4666,-538,7647,263,-107,217,-29,-133
2,4499030,-1695,4678,-516,7651,265,-99,217,-29,-133
2,4499044,-1693,4664,-531,7650,255,-99,212,-28,-130
2,4499059,-1697,4672,-534,7650,266,-104,212,-28,-130
2,4499074,-1697,4672,-534,7650,266,-104,212,-28,-130
2,4499086,-1694,4668,-528,7660,265,-105,212,-28,-130
2,4499100,-1695,4672,-510,7661,263,-105,212,-28,-130
2,4499115,-1695,4672,-510,7661,263,-105,212,-28,-130
2,4499129,-1697,4669,-518,7661,259,-106,212,-28,-130
2,4499142,-1699,4670,-511,7657,262,-104,212,-28,-130
2,4499155,-1699,4670,-511,7657,262,-104,212,-28,-130
2,4499169,-1694,4666,-495,7653,268,-110,216,-36,-122
2,4499183,-1700,4672,-505,7649,252,-111,216,-36,-122
2,4499196,-1697,4670,-502,7646,264,-109,216,-36,-122
2,4499212,-1697,4670,-502,7646,264,-109,216,-36,-122
2,4499225,-1693,4672,-504,7654,270,-104,216,-36,-122
2,4499239,-1695,4670,-509,7653,268,-102,216,-36,-122
2,4499254,-1695,4670,-509,7653,268,-102,216,-36,-122
2,4499269,-1698,4667,-522,7656,267,-105,216,-36,-122
2,4499282,-1698,4667,-522,7656,267,-105,214,-22,-116
2,4499296,-1698,4667,-522,7656,267,-105,214,-22,-116
2,4499311,-1694,4672,-518,7658,267,-110,214,-22,-116
2,4499326,-1695,4677,-506,7655,267,-110,214,-22,-116
2,4499341,-1698,4674,-515,7657,264,-111,214,-22,-116
2,4499352,-1698,4674,-515,7657,264,-111,214,-22,-116
2,4499365,-1699,4675,-506,7652,267,-109,214,-22,-116
2,4499380,-1697,4669,-512,7654,264,-104,214,-22,-116
2,4499393,-1697,4669,-512,7654,264,-104,214,-22,-116
2,4499406,-1699,4675,-512,7658,256,-99,206,-22,-110
2,4499421,-1693,4665,-507,7654,261,-108,206,-22,-110
2,4499433,-1693,4665,-507,7654,261,-108,206,-22,-110
2,4499446,-1693,4665,-507,7654,261,-108,206,-22,-110
2,4499462,-1697,4670,-504,7654,269,-103,206,-22,-110
2,4499475,-1697,4670,-504,7654,269,-103,206,-22,-110
2,4499489,-1697,4666,-510,7653,263,-99,206,-22,-110
2,4499502,-1695,4676,-497,7654,263,-97,206,-22,-110
2,4499516,-1695,4676,-497,7654,263,-97,206,-22,-110
2,4499529,-1699,4672,-511,7650,265,-99,209,-15,-101
2,4499545,-1697,4672,-503,7652,261,-101,209,-15,-101
2,4499560,-1701,4667,-509,7653,263,-106,209,-15,-101
2,4499573,-1701,4667,-509,7653,263,-106,209,-15,-101
2,4499587,-1695,4669,-503,7649,267,-105,209,-15,-101
2,4499600,-1695,4669,-520,7655,268,-107,209,-15,-101
2,4499613,-1695,4669,-520,7655,268,-107,209,-15,-101
2,4499628,-1693,4670,-520,7657,260,-102,209,-15,-101
2,4499641,-1696,4667,-542,7658,266,-100,209,-15,-101
2,4499653,-1696,4667,-542,7658,266,-100,209,-15,-101
2,4499665,-1696,4672,-512,7657,262,-109,204,-10,-104
2,4499679,-1696,4674,-524,7654,270,-103,204,-10,-104
2,4499692,-1696,4674,-524,7654,270,-103,204,-10,-104
2,4499706,-1699,4674,-520,7657,264,-101,204,-10,-104
2,4499718,-1696,4672,-508,7659,267,-101,204,-10,-104
2,4499732,-1696,4672,-508,7659,267,-101,204,-10,-104
2,4499746,-1699,4668,-503,7665,261,-102,204,-10,-104
2,4499761,-1699,4670,-506,7654,266,-99,204,-10,-104
2,4499774,-1699,4670,-506,7654,266,-99,204,-10,-104
2,4499786,-1693,4667,-504,7655,270,-106,198,-8,-96
2,4499800,-1697,4677,-503,7661,270,-108,198,-8,-96
2,4499815,-1697,4677,-503,7661,270,-108,198,-8,-96
2,4499828,-1699,4671,-502,7653,265,-103,198,-8,-96
2,4499843,-1694,4673,-508,7660,273,-104,198,-8,-96
2,4499855,-1694,4673,-508,7660,273,-104,198,-8,-96
2,4499867,-1693,4668,-500,7653,270,-101,198,-8,-96
2,4499881,-1698,4673,-516,7654,267,-99,198,-8,-96
2,4499895,-1698,4673,-516,7654,267,-99,198,-8,-96
2,4499909,-1698,4669,-502,7649,262,-106,192,-2,-94
2,4499923,-1699,4675,-509,7653,263,-104,192,-2,-94
2,4499939,-1698,4668,-508,7658,257,-106,192,-2,-94
2,4499955,-1698,4668,-508,7658,257,-106,192,-2,-94
2,4499965,-1696,4667,-511,7663,259,-112,192,-2,-94
2,4499980,-1696,4667,-506,7660,264,-102,192,-2,-94
2,4499995,-1696,4667,-506,7660,264,-102,192,-2,-94
2,4500007,-1693,4669,-509,7650,267,-99,192,-2,-94
2,4500020,-1696,4672,-503,7645,259,-100,187,-7,-91
2,4500034,-1696,4672,-503,7645,259,-100,187,-7,-91
2,4500045,-1696,4666,-504,7644,258,-107,187,-7,-91
2,4500060,-1697,4670,-498,7654,266,-109,187,-7,-91
2,4500071,-1697,4670,-498,7654,266,-109,187,-7,-91
2,4500080,-1695,4668,-502,7661,257,-108,187,-7,-91
2,4500094,-1695,4668,-502,7661,257,-108,187,-7,-91
2,4500107,-1697,4670,-493,7655,265,-110,187,-7,-91
2,4500119,-1695,4670,-502,7657,263,-114,187,-7,-91
2,4500133,-1695,4670,-502,7657,263,-114,187,-7,-91
2,4500149,-1698,4669,-505,7659,266,-104,180,-2,-90
2,4500164,-1696,4663,-504,7649,258,-106,180,-2,-90
2,4500174,-1696,4663,-504,7649,258,-106,180,-2,-90
2,4500191,-1696,4668,-505,7646,260,-108,180,-2,-90
2,4500206,-1696,4662,-518,7655,264,-102,180,-2,-90
2,4500221,-1697,4668,-537,7656,259,-105,180,-2,-90
2,4500237,-1697,4668,-537,7656,259,-105,180,-2,-90
2,4500250,-1697,4671,-530,7657,261,-111,180,-2,-90
2,4500263,-1695,4671,-522,7656,260,-104,180,-2,-90
2,4500277,-1699,4675,-528,7657,260,-103,180,-2,-90
2,4500291,-1699,4675,-528,7657,260,-103,179,-3,-77
2,4500306,-1696,4672,-529,7658,261,-107,179,-3,-77
2,4500319,-1700,4675,-504,7657,265,-111,179,-3,-77
2,4500332,-1700,4675,-504,7657,265,-111,179,-3,-77
2,4500345,-1697,4667,-509,7660,266,-107,179,-3,-77
2,4500360,-1699,4669,-495,7659,268,-105,179,-3,-77
2,4500375,-1699,4669,-495,7659,268,-105,179,-3,-77
2,4500387,-1697,4671,-513,7659,260,-99,179,-3,-77
2,4500401,-1695,4671,-502,7644,260,-111,170,-2,-80
2,4500416,-1695,4671,-502,7644,260,-111,170,-2,-80
2,4500426,-1697,4673,-503,7656,267,-109,170,-2,-80
2,4500442,-1695,4670,-502,7655,270,-108,170,-2,-80
2,4500457,-1692,4667,-518,7653,263,-107,170,-2,-80
2,4500472,-1692,4667,-518,7653,263,-107,170,-2,-80
2,4500487,-1697,4669,-526,7661,262,-106,170,-2,-80
2,4500500,-1695,4674,-522,7658,259,-104,170,-2,-80
2,4500513,-1695,4674,-522,7658,259,-104,170,-2,-80
2,4500529,-1696,4669,-507,7656,268,-108,165,-9,-75
2,4500542,-1696,4673,-514,7657,261,-106,165,-9,-75
2,4500554,-1696,4673,-514,7657,261,-106,165,-9,-75
2,4500569,-1700,4670,-516,7664,262,-106,165,-9,-75
2,4500582,-1695,4674,-508,7657,259,-109,165,-9,-75
2,4500595,-1695,4674,-508,7657,259,-109,165,-9,-75
2,4500611,-1699,4670,-505,7657,266,-109,165,-9,-75
2,4500626,-1695,4676,-501,7664,269,-99,165,-9,-75
2,4500640,-1695,4670,-506,7663,264,-101,152,-8,-78
2,4500654,-1695,4670,-506,7663,264,-101,152,-8,-78
2,4500668,-1694,4673,-499,7653,255,-109,152,-8,-78
2,4500684,-1698,4669,-500,7658,266,-107,152,-8,-78
2,4500696,-1698,4669,-500,7658,266,-107,152,-8,-78
2,4500706,-1697,4673,-493,7648,257,-110,152,-8,-78
2,4500720,-1695,4666,-505,7647,266,-106,152,-8,-78
2,4500733,-1695,4666,-505,7647,266,-106,152,-8,-78
2,4500748,-1697,4668,-500,7652,263,-108,152,-8,-78
2,4500759,-1696,4668,-509,7651,258,-104,141,-3,-79
2,4500773,-1696,4668,-509,7651,258,-104,141,-3,-79
2,4500788,-1697,4663,-502,7653,262,-113,141,-3,-79
2,4500802,-1696,4670,-519,7651,257,-112,141,-3,-79
2,4500815,-1696,4670,-519,7651,257,-112,141,-3,-79
2,4500830,-1693,4668,-531,7651,265,-104,141,-3,-79
2,4500842,-1697,4676,-529,7648,263,-109,141,-3,-79
2,4500854,-1697,4676,-529,7648,263,-109,141,-3,-79
2,4500870,-1695,4671,-523,7651,262,-104,141,-3,-79
2,4500885,-1698,4677,-522,7656,264,-109,141,-3,-79
2,4500899,-1694,4669,-525,7651,260,-105,130,-4,-80
2,4500913,-1694,4669,-525,7651,260,-105,130,-4,-80
2,4500927,-1695,4672,-503,7653,260,-100,130,-4,-80
2,4500942,-1696,4664,-509,7653,265,-104,130,-4,-80
2,4500956,-1696,4664,-509,7653,265,-104,130,-4,-80
2,4500970,-1695,4666,-498,7654,262,-110,130,-4,-80
2,4500983,-1693,4669,-507,7652,265,-105,130,-4,-80
2,4500995,-1693,4669,-507,7652,265,-105,130,-4,-80
2,4501009,-1696,4674,-507,7655,267,-109,130,-4,-80
2,4501023,-1694,4669,-500,7652,259,-104,123,-9,-85
2,4501037,-1694,4669,-500,7652,259,-104,123,-9,-85
2,4501050,-1694,4672,-504,7656,259,-107,123,-9,-85
2,4501058,-1694,4664,-505,7652,263,-105,123,-9,-85
2,4501068,-1694,4664,-505,7652,263,-105,123,-9,-85
2,4501082,-1694,4670,-520,7649,255,-99,123,-9,-85
2,4501097,-1694,4670,-520,7649,255,-99,123,-9,-85
2,4501110,-1698,4668,-514,7648,259,-103,123,-9,-85
2,4501123,-1695,4671,-509,7649,263,-107,123,-9,-85
2,4501138,-1695,4670,-512,7656,267,-108,123,-9,-85
2,4501153,-1695,4670,-512,7656,267,-108,106,-16,-100
2,4501172,-1697,4670,-512,7654,273,-103,106,-16,-100
2,4501186,-1697,4673,-506,7653,271,-110,106,-16,-100
2,4501201,-1697,4670,-503,7654,267,-107,106,-16,-100
2,4501213,-1697,4670,-503,7654,267,-107,106,-16,-100
2,4501227,-1698,4671,-506,7652,265,-107,106,-16,-100
2,4501241,-1697,4662,-509,7647,260,-106,106,-16,-100
2,4501256,-1697,4662,-509,7647,260,-106,106,-16,-100
2,4501270,-1698,4667,-500,7658,270,-101,103,-25,-103
2,4501283,-1697,4667,-499,7654,263,-104,103,-25,-103
2,4501297,-1697,4667,-499,7654,263,-104,103,-25,-103
2,4501308,-1697,4663,-501,7644,254,-99,103,-25,-103
2,4501322,-1693,4669,-508,7639,257,-98,103,-25,-103
2,4501336,-1693,4669,-508,7639,257,-98,103,-25,-103
2,4501351,-1696,4669,-504,7645,257,-101,103,-25,-103
2,4501365,-1694,4668,-511,7649,261,-102,103,-25,-103
2,4501381,-1695,4669,-507,7655,258,-109,94,-18,-102
2,4501395,-1695,4669,-507,7655,258,-109,94,-18,-102
2,4501409,-1696,4668,-516,7655,252,-104,94,-18,-102
2,4501423,-1696,4671,-535,7653,255,-108,94,-18,-102
2,4501437,-1696,4671,-535,7653,255,-108,94,-18,-102
2,4501450,-1700,4664,-524,7651,256,-106,94,-18,-102
2,4501462,-1696,4669,-526,7651,255,-102,94,-18,-102
2,4501476,-1696,4669,-526,7651,255,-102,94,-18,-102
2,4501489,-1697,4672,-528,7654,255,-112,94,-18,-102
2,4501502,-1697,4673,-532,7654,259,-114,94,-18,-102
2,4501517,-1697,4673,-532,7654,259,-114,94,-18,-102
2,4501528,-1694,4667,-496,7654,261,-113,90,-20,-108
2,4501540,-1695,4670,-512,7657,263,-110,90,-20,-108
2,4501554,-1695,4670,-512,7657,263,-110,90,-20,-108
2,4501568,-1695,4670,-512,7657,263,-110,90,-20,-108
2,4501582,-1697,4667,-517,7647,269,-107,90,-20,-108
2,4501596,-1697,4667,-517,7647,269,-107,90,-20,-108
2,4501608,-1698,4668,-508,7654,261,-107,90,-20,-108
2,4501623,-1693,4672,-505,7655,265,-108,90,-20,-108
