imu,time,ax,ay,az,gx,gy,gz,mx,my,mz
1,2765222,2474,895,3215,5882,178,-64,270,228,-142
1,2765236,2474,895,3215,5882,178,-64,270,228,-142
1,2765250,2475,886,3229,5879,176,-53,270,228,-142
1,2765261,2476,881,3228,5887,178,-53,270,228,-142
1,2765273,2476,881,3228,5887,178,-53,270,228,-142
1,2765287,2474,868,3224,5891,181,-60,270,228,-142
1,2765300,2481,878,3229,5894,183,-58,279,219,-149
1,2765315,2481,878,3229,5894,183,-58,279,219,-149
1,2765326,2471,862,3229,5889,177,-60,279,219,-149
1,2765337,2471,862,3229,5889,177,-60,279,219,-149
1,2765350,2478,874,3232,5893,180,-56,279,219,-149
1,2765365,2478,861,3226,5889,185,-56,279,219,-149
1,2765380,2475,878,3232,5889,181,-51,279,219,-149
1,2765395,2475,878,3232,5889,181,-51,279,219,-149
1,2765410,2475,867,3218,5887,179,-52,279,219,-149
1,2765424,2474,883,3230,5891,180,-51,279,219,-149
1,2765437,2474,883,3230,5891,180,-51,279,219,-149
1,2765452,2477,872,3231,5891,178,-57,283,215,-147
1,2765461,2475,868,3236,5891,177,-53,283,215,-147
1,2765469,2475,868,3236,5891,177,-53,283,215,-147
1,2765483,2480,882,3235,5896,184,-56,283,215,-147
1,2765495,2480,882,3235,5896,184,-56,283,215,-147
1,2765509,2474,877,3239,5893,189,-56,283,215,-147
1,2765522,2477,879,3233,5892,182,-58,283,215,-147
1,2765537,2477,879,3233,5892,182,-58,283,215,-147
1,2765550,2480,870,3236,5894,179,-59,283,215,-147
1,2765564,2478,877,3230,5889,181,-56,285,217,-143
1,2765576,2478,877,3230,5889,181,-56,285,217,-143
1,2765590,2481,867,3230,5884,180,-55,285,217,-143
1,2765605,2477,853,3228,5892,183,-55,285,217,-143
1,2765622,2482,863,3241,5897,180,-49,285,217,-143
1,2765637,2482,863,3241,5897,180,-49,285,217,-143
1,2765650,2476,860,3234,5896,176,-53,285,217,-143
1,2765663,2479,825,3236,5898,180,-52,285,217,-143
1,2765677,2479,825,3236,5898,180,-52,285,217,-143
1,2765690,2477,839,3231,5891,182,-62,297,221,-145
1,2765704,2481,845,3235,5890,184,-55,297,221,-145
1,2765719,2481,861,3237,5890,177,-51,297,221,-145
1,2765732,2481,861,3237,5890,177,-51,297,221,-145
1,2765745,2475,834,3231,5888,173,-62,297,221,-145
1,2765758,2483,852,3231,5889,181,-63,297,221,-145
1,2765766,2483,852,3231,5889,181,-63,297,221,-145
1,2765774,2483,852,3231,5889,181,-63,297,221,-145
1,2765783,2485,839,3227,5889,179,-47,297,221,-145
1,2765790,2485,839,3227,5889,179,-47,297,221,-145
1,2765798,2473,854,3230,5889,173,-51,306,222,-146
1,2765806,2473,854,3230,5889,173,-51,306,222,-146
1,2765813,2473,854,3230,5889,173,-51,306,222,-146
1,2765821,2480,843,3229,5886,176,-63,306,222,-146
1,2765830,2480,843,3229,5886,176,-63,306,222,-146
1,2765838,2478,851,3230,5882,187,-57,306,222,-146
1,2765846,2478,851,3230,5882,187,-57,306,222,-146
1,2765855,2478,851,3230,5882,187,-57,306,222,-146
1,2765862,2483,838,3228,5880,182,-53,306,222,-146
1,2765871,2483,838,3228,5880,182,-53,306,222,-146
1,2765880,2477,848,3216,5887,179,-56,306,222,-146
1,2765888,2477,848,3216,5887,179,-56,306,222,-146
1,2765896,2477,848,3216,5887,179,-56,306,222,-146
1,2765903,2479,850,3229,5888,178,-55,306,222,-146
1,2765913,2479,850,3229,5888,178,-55,306,222,-146
1,2765920,2481,851,3228,5884,181,-63,313,229,-149
1,2765930,2481,851,3228,5884,181,-63,313,229,-149
1,2765938,2481,851,3228,5884,181,-63,313,229,-149
1,2765946,2474,837,3230,5881,177,-60,313,229,-149
1,2765954,2474,837,3230,5881,177,-60,313,229,-149
1,2765963,2481,848,3217,5887,177,-62,313,229,-149
1,2765970,2481,848,3217,5887,177,-62,313,229,-149
1,2765979,2479,853,3223,5882,183,-55,313,229,-149
1,2765986,2479,853,3223,5882,183,-55,313,229,-149
1,2765996,2479,853,3223,5882,183,-55,313,229,-149
1,2766003,2481,847,3217,5877,175,-56,313,229,-149
1,2766012,2481,847,3217,5877,175,-56,313,229,-149
1,2766021,2475,849,3222,5875,177,-55,313,229,-149
1,2766031,2475,849,3222,5875,177,-55,313,229,-149
1,2766041,2478,849,3222,5873,179,-52,313,229,-149
1,2766050,2478,849,3222,5873,179,-52,313,229,-149
1,2766061,2478,854,3222,5879,173,-44,318,222,-152
1,2766075,2478,854,3222,5879,173,-44,318,222,-152
1,2766089,2480,847,3220,5874,174,-51,318,222,-152
1,2766103,2479,863,3220,5877,178,-51,318,222,-152
1,2766118,2479,863,3220,5877,178,-51,318,222,-152
1,2766127,2479,870,3217,5875,183,-50,318,222,-152
1,2766141,2475,922,3216,5876,183,-50,318,222,-152
1,2766154,2475,922,3216,5876,183,-50,318,222,-152
1,2766169,2471,907,3221,5870,182,-53,318,222,-152
1,2766178,2471,907,3221,5870,182,-53,318,222,-152
1,2766185,2477,919,3221,5875,177,-66,322,230,-150
1,2766195,2477,919,3221,5875,177,-66,322,230,-150
1,2766204,2475,879,3220,5886,179,-65,322,230,-150
1,2766213,2475,879,3220,5886,179,-65,322,230,-150
1,2766221,2477,927,3225,5892,183,-61,322,230,-150
1,2766232,2477,927,3225,5892,183,-61,322,230,-150
1,2766245,2476,871,3230,5890,180,-47,322,230,-150
1,2766260,2476,899,3234,5893,176,-59,322,230,-150
1,2766273,2476,899,3234,5893,176,-59,322,230,-150
1,2766287,2486,849,3231,5891,181,-59,322,230,-150
1,2766303,2474,886,3233,5891,178,-54,322,248,-148
1,2766317,2474,886,3233,5891,178,-54,322,248,-148
1,2766328,2478,859,3237,5889,172,-52,322,248,-148
1,2766342,2472,900,3225,5886,179,-56,322,248,-148
1,2766356,2472,900,3225,5886,179,-56,322,248,-148
1,2766369,2484,866,3233,5885,177,-57,322,248,-148
1,2766383,2478,891,3225,5889,177,-55,322,248,-148
1,2766393,2478,891,3225,5889,177,-55,322,248,-148
1,2766402,2481,875,3226,5889,178,-60,322,248,-148
1,2766417,2481,875,3226,5889,178,-60,322,248,-148
1,2766430,2477,898,3236,5887,178,-56,328,246,-138
1,2766444,2482,868,3233,5893,183,-51,328,246,-138
1,2766458,2478,880,3231,5896,185,-52,328,246,-138
1,2766473,2478,880,3231,5896,185,-52,328,246,-138
1,2766484,2481,858,3239,5890,182,-53,328,246,-138
1,2766492,2481,858,3239,5890,182,-53,328,246,-138
1,2766505,2476,887,3238,5899,180,-58,328,246,-138
1,2766519,2475,849,3230,5891,174,-53,328,246,-138
1,2766531,2475,849,3230,5891,174,-53,328,246,-138
1,2766544,2476,866,3234,5895,183,-53,328,246,-138
1,2766558,2479,845,3236,5894,182,-61,328,246,-138
1,2766571,2479,845,3236,5894,182,-61,329,247,-135
1,2766584,2475,866,3233,5886,179,-60,329,247,-135
1,2766597,2475,866,3233,5886,179,-60,329,247,-135
1,2766610,2482,813,3233,5888,174,-56,329,247,-135
1,2766623,2477,864,3230,5894,173,-60,329,247,-135
1,2766638,2477,864,3230,5894,173,-60,329,247,-135
1,2766652,2484,845,3240,5887,177,-56,329,247,-135
1,2766665,2475,851,3228,5882,167,-52,329,247,-135
1,2766679,2484,835,3237,5883,178,-68,329,245,-129
1,2766694,2484,835,3237,5883,178,-68,329,245,-129
1,2766709,2474,847,3231,5890,176,-62,329,245,-129
1,2766725,2484,851,3230,5879,174,-55,329,245,-129
1,2766737,2484,851,3230,5879,174,-55,329,245,-129
1,2766750,2476,840,3227,5882,181,-55,329,245,-129
1,2766764,2477,850,3218,5878,181,-61,329,245,-129
1,2766777,2477,850,3218,5878,181,-61,329,245,-129
1,2766791,2483,848,3233,5875,182,-56,329,245,-129
1,2766806,2476,851,3221,5884,182,-57,329,241,-121
1,2766817,2476,851,3221,5884,182,-57,329,241,-121
1,2766830,2477,848,3235,5882,185,-58,329,241,-121
1,2766843,2483,861,3220,5874,185,-62,329,241,-121
1,2766858,2483,861,3220,5874,185,-62,329,241,-121
1,2766872,2476,844,3230,5882,187,-58,329,241,-121
1,2766886,2480,853,3219,5882,174,-56,329,241,-121
1,2766900,2478,847,3229,5885,182,-51,329,241,-121
1,2766914,2478,847,3229,5885,182,-51,329,241,-121
1,2766928,2480,863,3220,5884,180,-58,329,253,-119
1,2766944,2481,845,3224,5877,178,-60,329,253,-119
1,2766958,2481,845,3224,5877,178,-60,329,253,-119
1,2766970,2478,859,3220,5876,182,-55,329,253,-119
1,2766984,2482,864,3220,5886,188,-54,329,253,-119
1,2766998,2482,864,3220,5886,188,-54,329,253,-119
1,2767012,2476,876,3223,5878,177,-49,329,253,-119
1,2767026,2475,906,3224,5876,178,-48,329,253,-119
1,2767039,2475,898,3225,5882,177,-55,329,253,-119
1,2767053,2475,898,3225,5882,177,-55,329,253,-119
1,2767066,2478,900,3226,5881,181,-57,324,242,-116
1,2767080,2479,882,3221,5888,183,-63,324,242,-116
1,2767093,2479,882,3221,5888,183,-63,324,242,-116
1,2767108,2475,905,3229,5888,178,-59,324,242,-116
1,2767120,2474,888,3227,5892,182,-54,324,242,-116
1,2767132,2474,888,3227,5892,182,-54,324,242,-116
1,2767147,2474,892,3229,5896,187,-57,324,242,-116
1,2767161,2479,871,3225,5891,183,-66,324,242,-116
1,2767176,2479,871,3225,5891,183,-66,324,242,-116
1,2767186,2472,881,3235,5891,183,-50,328,246,-110
1,2767201,2476,874,3232,5888,180,-53,328,246,-110
1,2767215,2476,874,3232,5888,180,-53,328,246,-110
1,2767228,2477,868,3232,5888,177,-57,328,246,-110
1,2767243,2485,863,3234,5882,181,-60,328,246,-110
1,2767257,2485,863,3234,5882,181,-60,328,246,-110
1,2767270,2478,864,3232,5886,182,-50,328,246,-110
1,2767284,2481,872,3237,5884,180,-50,328,246,-110
1,2767299,2481,868,3233,5883,183,-57,326,248,-94
1,2767314,2481,868,3233,5883,183,-57,326,248,-94
1,2767330,2479,875,3235,5886,173,-57,326,248,-94
1,2767343,2480,873,3224,5890,171,-58,326,248,-94
1,2767356,2480,873,3224,5890,171,-58,326,248,-94
1,2767371,2473,883,3231,5890,178,-53,326,248,-94
1,2767386,2483,880,3224,5891,177,-63,326,248,-94
1,2767400,2477,872,3235,5888,176,-63,326,248,-94
1,2767414,2477,872,3235,5888,176,-63,326,248,-94
1,2767427,2482,873,3227,5891,177,-54,322,236,-88
1,2767442,2475,887,3247,5892,176,-54,322,236,-88
1,2767458,2475,887,3247,5892,176,-54,322,236,-88
1,2767468,2479,878,3235,5889,177,-55,322,236,-88
1,2767477,2479,878,3235,5889,177,-55,322,236,-88
1,2767490,2476,867,3243,5888,173,-60,322,236,-88
1,2767503,2481,853,3229,5888,178,-53,322,236,-88
1,2767517,2481,853,3229,5888,178,-53,322,236,-88
1,2767533,2479,874,3235,5891,180,-50,322,236,-88
1,2767547,2475,861,3227,5882,181,-52,316,244,-80
1,2767559,2482,821,3236,5887,180,-52,316,244,-80
1,2767575,2482,821,3236,5887,180,-52,316,244,-80
1,2767590,2483,841,3226,5890,181,-58,316,244,-80
1,2767604,2478,841,3227,5891,188,-56,316,244,-80
1,2767619,2478,841,3227,5891,188,-56,316,244,-80
1,2767632,2479,861,3233,5889,179,-51,316,244,-80
1,2767646,2475,831,3226,5890,175,-63,316,244,-80
1,2767661,2484,847,3227,5891,180,-63,316,244,-80
1,2767672,2484,847,3227,5891,180,-63,316,244,-80
1,2767685,2490,844,3232,5887,180,-51,314,240,-72
1,2767698,2490,844,3232,5887,180,-51,314,240,-72
1,2767712,2468,854,3224,5878,179,-47,314,240,-72
1,2767726,2484,843,3223,5873,183,-52,314,240,-72
1,2767741,2484,843,3223,5873,183,-52,314,240,-72
1,2767753,2484,843,3223,5873,183,-52,314,240,-72
1,2767767,2483,840,3224,5887,180,-58,314,240,-72
1,2767776,2483,840,3224,5887,180,-58,314,240,-72
1,2767791,2477,851,3221,5889,176,-55,314,240,-72
1,2767804,2478,850,3233,5885,181,-63,301,233,-67
1,2767818,2478,850,3233,5885,181,-63,301,233,-67
1,2767832,2481,852,3223,5879,179,-54,301,233,-67
1,2767846,2482,841,3227,5875,176,-55,301,233,-67
1,2767861,2482,851,3218,5879,174,-51,301,233,-67
1,2767874,2482,851,3218,5879,174,-51,301,233,-67
1,2767887,2476,859,3225,5881,182,-56,301,233,-67
1,2767900,2482,844,3216,5874,178,-57,301,233,-67
1,2767913,2482,844,3216,5874,178,-57,301,233,-67
1,2767928,2478,844,3222,5883,175,-55,301,237,-65
1,2767942,2478,844,3222,5883,175,-55,301,237,-65
1,2767953,2478,844,3222,5883,175,-55,301,237,-65
1,2767969,2476,861,3221,5880,176,-61,301,237,-65
1,2767981,2480,860,3214,5874,184,-56,301,237,-65
1,2767995,2480,860,3214,5874,184,-56,301,237,-65
1,2768011,2479,870,3219,5875,177,-53,301,237,-65
1,2768025,2475,930,3220,5882,184,-53,301,237,-65
1,2768041,2473,913,3226,5876,189,-58,293,231,-53
1,2768055,2473,913,3226,5876,189,-58,293,231,-53
1,2768068,2477,915,3227,5877,186,-58,293,231,-53
1,2768082,2478,908,3217,5874,183,-58,293,231,-53
1,2768096,2478,908,3217,5874,183,-58,293,231,-53
1,2768111,2478,915,3219,5877,176,-56,293,231,-53
1,2768124,2478,903,3223,5887,169,-53,293,231,-53
1,2768137,2478,903,3223,5887,169,-53,293,231,-53
1,2768151,2472,879,3223,5898,177,-62,293,231,-53
1,2768165,2485,878,3232,5893,191,-67,293,231,-53
1,2768180,2477,871,3232,5898,188,-58,284,240,-50
1,2768192,2477,871,3232,5898,188,-58,284,240,-50
1,2768205,2474,872,3227,5894,175,-53,284,240,-50
1,2768217,2474,872,3227,5894,175,-53,284,240,-50
1,2768230,2479,875,3232,5892,177,-61,284,240,-50
1,2768245,2480,883,3231,5889,185,-63,284,240,-50
1,2768261,2480,879,3224,5887,183,-59,284,240,-50
1,2768276,2480,879,3224,5887,183,-59,284,240,-50
1,2768289,2475,881,3224,5893,181,-61,284,240,-50
1,2768304,2476,893,3237,5886,180,-66,280,230,-42
1,2768318,2476,893,3237,5886,180,-66,280,230,-42
1,2768331,2478,879,3226,5889,187,-60,280,230,-42
1,2768343,2474,869,3226,5898,178,-57,280,230,-42
1,2768357,2474,869,3226,5898,178,-57,280,230,-42
1,2768371,2476,876,3233,5896,181,-61,280,230,-42
1,2768385,2482,877,3230,5892,185,-60,280,230,-42
1,2768399,2482,877,3230,5892,185,-60,280,230,-42
1,2768410,2482,873,3237,5893,178,-67,280,230,-42
1,2768422,2479,854,3237,5886,179,-63,274,236,-42
1,2768437,2479,854,3237,5886,179,-63,274,236,-42
1,2768453,2482,870,3239,5888,175,-58,274,236,-42
1,2768468,2480,861,3234,5892,183,-56,274,236,-42
1,2768480,2475,865,3231,5896,179,-55,274,236,-42
1,2768494,2475,865,3231,5896,179,-55,274,236,-42
1,2768508,2478,835,3227,5890,184,-62,274,236,-42
1,2768522,2479,834,3226,5888,181,-55,274,236,-42
1,2768535,2479,834,3226,5888,181,-55,274,236,-42
1,2768549,2481,853,3223,5891,181,-53,266,230,-30
1,2768562,2477,862,3235,5891,174,-59,266,230,-30
1,2768574,2477,862,3235,5891,174,-59,266,230,-30
1,2768587,2477,829,3230,5889,174,-57,266,230,-30
1,2768601,2486,849,3234,5884,180,-67,266,230,-30
1,2768615,2486,849,3234,5884,180,-67,266,230,-30
1,2768627,2484,838,3228,5883,184,-54,266,230,-30
1,2768641,2476,865,3228,5883,181,-53,266,230,-30
1,2768656,2476,865,3228,5883,181,-53,266,230,-30
1,2768670,2477,842,3219,5880,177,-57,266,230,-30
1,2768685,2475,857,3226,5875,176,-54,263,231,-29
1,2768698,2475,857,3226,5875,176,-54,263,231,-29
1,2768711,2484,836,3216,5881,181,-57,263,231,-29
1,2768724,2474,860,3218,5883,177,-49,263,231,-29
1,2768739,2474,860,3218,5883,177,-49,263,231,-29
1,2768752,2479,847,3222,5884,178,-48,263,231,-29
1,2768766,2478,862,3228,5876,185,-55,263,231,-29
1,2768778,2478,862,3228,5876,185,-55,263,231,-29
1,2768791,2482,839,3220,5882,182,-56,263,231,-29
1,2768805,2477,869,3222,5887,180,-60,264,232,-22
1,2768819,2477,869,3222,5887,180,-60,264,232,-22
1,2768833,2482,865,3216,5888,176,-61,264,232,-22
1,2768849,2474,872,3220,5883,176,-64,264,232,-22
1,2768864,2478,856,3215,5883,178,-54,264,232,-22
1,2768879,2478,856,3215,5883,178,-54,264,232,-22
1,2768893,2478,856,3215,5883,178,-54,264,232,-22
1,2768908,2477,902,3219,5875,183,-55,264,232,-22
1,2768921,2474,902,3222,5874,178,-60,249,225,-17
1,2768932,2474,902,3222,5874,178,-60,249,225,-17
1,2768943,2478,889,3224,5879,184,-61,249,225,-17
1,2768956,2478,889,3224,5879,184,-61,249,225,-17
1,2768970,2480,904,3227,5888,185,-59,249,225,-17
1,2768982,2476,902,3225,5884,179,-57,249,225,-17
1,2768996,2476,902,3225,5884,179,-57,249,225,-17
1,2769009,2482,913,3225,5882,178,-68,249,225,-17
1,2769022,2477,883,3228,5893,182,-66,249,225,-17
1,2769037,2477,883,3228,5893,182,-66,249,225,-17
1,2769051,2482,896,3232,5887,185,-59,241,235,-23
1,2769061,2477,879,3227,5886,174,-58,241,235,-23
1,2769076,2477,879,3227,5886,174,-58,241,235,-23
1,2769091,2472,890,3220,5895,179,-57,241,235,-23
1,2769106,2480,863,3231,5890,182,-63,241,235,-23
1,2769122,2480,865,3228,5890,182,-61,241,235,-23
1,2769135,2480,865,3228,5890,182,-61,241,235,-23
1,2769148,2482,862,3232,5894,179,-52,241,235,-23
1,2769163,2474,873,3233,5889,174,-51,241,235,-23
1,2769176,2474,873,3233,5889,174,-51,241,235,-23
1,2769190,2480,869,3236,5890,183,-67,242,234,-32
1,2769205,2477,855,3234,5893,183,-57,242,234,-32
1,2769216,2477,855,3234,5893,183,-57,242,234,-32
1,2769228,2481,866,3220,5893,181,-52,242,234,-32
1,2769243,2479,872,3225,5886,177,-50,242,234,-32
1,2769256,2479,872,3225,5886,177,-50,242,234,-32
1,2769266,2476,877,3228,5892,181,-60,242,234,-32
1,2769278,2476,877,3228,5892,181,-60,242,234,-32
1,2769292,2474,872,3234,5883,182,-60,242,234,-32
1,2769302,2477,871,3225,5888,179,-57,246,240,-24
1,2769316,2477,871,3225,5888,179,-57,246,240,-24
1,2769329,2478,890,3237,5893,178,-61,246,240,-24
1,2769343,2474,878,3232,5888,173,-57,246,240,-24
1,2769358,2474,878,3232,5888,173,-57,246,240,-24
1,2769373,2476,881,3229,5894,180,-59,246,240,-24
1,2769385,2480,866,3233,5896,177,-61,246,240,-24
1,2769398,2480,866,3233,5896,177,-61,246,240,-24
1,2769412,2481,860,3224,5899,176,-53,246,240,-24
1,2769425,2479,865,3232,5895,177,-56,233,237,-33
1,2769438,2479,865,3232,5895,177,-56,233,237,-33
1,2769453,2475,855,3232,5891,178,-60,233,237,-33
1,2769465,2477,814,3235,5891,180,-59,233,237,-33
1,2769477,2477,814,3235,5891,180,-59,233,237,-33
1,2769494,2485,848,3225,5892,176,-62,233,237,-33
1,2769507,2474,849,3229,5887,181,-58,233,237,-33
1,2769520,2478,849,3223,5881,182,-55,233,237,-33
1,2769534,2478,849,3223,5881,182,-55,233,237,-33
1,2769545,2483,838,3224,5877,182,-58,229,241,-39
1,2769560,2482,848,3232,5879,187,-61,229,241,-39
1,2769575,2482,848,3232,5879,187,-61,229,241,-39
1,2769590,2485,858,3231,5887,179,-55,229,241,-39
1,2769600,2474,845,3231,5887,176,-51,229,241,-39
1,2769615,2474,845,3231,5887,176,-51,229,241,-39
1,2769629,2478,850,3221,5880,183,-65,229,241,-39
1,2769642,2481,838,3223,5887,184,-57,229,241,-39
1,2769656,2481,838,3223,5887,184,-57,229,241,-39
1,2769671,2474,850,3219,5885,185,-49,231,243,-37
1,2769684,2472,852,3221,5879,184,-56,231,243,-37
1,2769696,2472,852,3221,5879,184,-56,231,243,-37
1,2769710,2476,855,3223,5878,183,-57,231,243,-37
1,2769724,2482,842,3223,5882,177,-57,231,243,-37
1,2769738,2482,842,3223,5882,177,-57,231,243,-37
1,2769748,2480,849,3220,5881,182,-50,231,243,-37
1,2769761,2479,849,3224,5878,176,-58,231,243,-37
1,2769772,2479,849,3224,5878,176,-58,231,243,-37
1,2769787,2477,863,3223,5878,181,-64,231,243,-37
1,2769802,2478,841,3219,5873,173,-64,228,234,-44
1,2769815,2478,841,3219,5873,173,-64,228,234,-44
1,2769829,2477,853,3213,5875,171,-62,228,234,-44
1,2769845,2474,854,3210,5874,171,-69,228,234,-44
1,2769859,2474,867,3213,5873,174,-60,228,234,-44
1,2769872,2474,867,3213,5873,174,-60,228,234,-44
1,2769884,2478,864,3214,5873,171,-58,228,234,-44
1,2769898,2478,864,3214,5873,171,-58,228,234,-44
1,2769912,2476,913,3217,5871,174,-58,228,234,-44
1,2769926,2473,918,3221,5877,175,-60,225,245,-45
1,2769940,2473,919,3220,5882,181,-59,225,245,-45
1,2769953,2473,919,3220,5882,181,-59,225,245,-45
1,2769967,2477,893,3226,5882,180,-61,225,245,-45
1,2769981,2478,937,3226,5879,184,-63,225,245,-45
1,2769994,2478,937,3226,5879,184,-63,225,245,-45
1,2770009,2470,894,3221,5891,181,-54,225,245,-45
1,2770023,2474,912,3222,5893,180,-62,225,245,-45
1,2770037,2474,912,3222,5893,180,-62,225,245,-45
1,2770054,2480,860,3233,5892,176,-60,224,238,-48
1,2770068,2473,891,3228,5894,181,-53,224,238,-48
1,2770083,2482,866,3226,5896,171,-49,224,238,-48
1,2770097,2482,866,3226,5896,171,-49,224,238,-48
1,2770110,2469,885,3223,5891,175,-52,224,238,-48
1,2770120,2484,869,3230,5886,181,-66,224,238,-48
1,2770135,2484,869,3230,5886,181,-66,224,238,-48
1,2770148,2477,888,3227,5889,176,-57,224,238,-48
1,2770162,2480,876,3230,5888,176,-56,223,239,-51
1,2770176,2480,876,3230,5888,176,-56,223,239,-51
1,2770188,2475,892,3230,5884,176,-55,223,239,-51
1,2770201,2480,886,3224,5891,174,-55,223,239,-51
1,2770215,2480,886,3224,5891,174,-55,223,239,-51
1,2770229,2478,866,3231,5883,177,-60,223,239,-51
1,2770241,2476,872,3225,5883,178,-58,223,239,-51
1,2770256,2476,872,3225,5883,178,-58,223,239,-51
1,2770271,2480,882,3233,5892,179,-53,223,239,-51
1,2770283,2480,882,3233,5892,179,-53,223,239,-51
1,2770298,2480,882,3233,5892,179,-53,223,239,-51
1,2770313,2482,863,3242,5886,185,-57,223,235,-73
1,2770328,2482,863,3242,5886,185,-57,223,235,-73
1,2770341,2477,878,3236,5898,180,-45,223,235,-73
1,2770354,2477,878,3236,5898,180,-45,223,235,-73
1,2770368,2479,862,3226,5895,179,-55,223,235,-73
1,2770381,2477,845,3231,5886,175,-55,223,235,-73
1,2770396,2477,845,3231,5886,175,-55,223,235,-73
1,2770410,2480,822,3229,5893,174,-62,223,235,-73
1,2770424,2479,861,3227,5892,179,-54,223,231,-73
1,2770438,2479,861,3227,5892,179,-54,223,231,-73
1,2770450,2475,858,3234,5885,173,-57,223,231,-73
1,2770463,2475,838,3228,5888,174,-56,223,231,-73
1,2770478,2475,838,3228,5888,174,-56,223,231,-73
1,2770492,2487,840,3226,5887,182,-68,223,231,-73
1,2770507,2478,845,3224,5888,185,-56,223,231,-73
1,2770520,2478,870,3221,5885,175,-48,223,231,-73
1,2770534,2478,870,3221,5885,175,-48,223,231,-73
1,2770547,2476,849,3233,5882,176,-53,225,235,-81
1,2770563,2477,864,3215,5880,176,-62,225,235,-81
1,2770576,2477,864,3215,5880,176,-62,225,235,-81
1,2770588,2483,837,3233,5877,182,-58,225,235,-81
1,2770603,2473,861,3208,5881,177,-56,225,235,-81
1,2770616,2473,861,3208,5881,177,-56,225,235,-81
1,2770630,2474,847,3227,5878,176,-62,225,235,-81
1,2770643,2479,862,3211,5880,180,-60,225,235,-81
1,2770656,2479,862,3211,5880,180,-60,225,235,-81
1,2770666,2482,843,3224,5885,176,-54,226,226,-86
1,2770679,2474,864,3215,5880,174,-50,226,226,-86
1,2770694,2474,864,3215,5880,174,-50,226,226,-86
1,2770705,2479,868,3223,5888,180,-60,226,226,-86
1,2770718,2479,868,3223,5888,180,-60,226,226,-86
1,2770734,2473,867,3217,5882,180,-64,226,226,-86
1,2770749,2482,856,3221,5887,179,-64,226,226,-86
1,2770763,2475,865,3216,5882,180,-59,226,226,-86
1,2770777,2475,865,3216,5882,180,-59,226,226,-86
1,2770792,2476,882,3215,5881,182,-61,226,226,-86
1,2770807,2473,899,3217,5886,178,-59,219,219,-93
1,2770823,2478,895,3217,5891,178,-61,219,219,-93
1,2770837,2478,895,3217,5891,178,-61,219,219,-93
1,2770850,2474,886,3218,5887,183,-57,219,219,-93
1,2770865,2478,901,3222,5882,185,-50,219,219,-93
1,2770877,2478,901,3222,5882,185,-50,219,219,-93
1,2770888,2472,896,3223,5888,182,-50,219,219,-93
1,2770903,2479,897,3226,5886,175,-57,219,219,-93
1,2770917,2479,897,3226,5886,175,-57,219,219,-93
1,2770931,2474,880,3220,5886,178,-52,227,223,-99
1,2770945,2477,895,3233,5890,182,-48,227,223,-99
1,2770956,2477,895,3233,5890,182,-48,227,223,-99
1,2770969,2477,883,3221,5890,186,-53,227,223,-99
1,2770984,2472,883,3227,5887,184,-56,227,223,-99
1,2770995,2472,883,3227,5887,184,-56,227,223,-99
1,2771009,2483,866,3222,5888,187,-54,227,223,-99
1,2771024,2476,862,3231,5889,178,-58,227,223,-99
1,2771040,2476,862,3231,5889,178,-58,227,223,-99
1,2771053,2482,866,3231,5890,174,-59,231,231,-115
1,2771067,2479,868,3234,5893,183,-55,231,231,-115
1,2771081,2480,868,3238,5890,179,-61,231,231,-115
1,2771092,2480,868,3238,5890,179,-61,231,231,-115
1,2771106,2477,866,3227,5886,180,-60,231,231,-115
1,2771113,2477,866,3227,5886,180,-60,231,231,-115
1,2771125,2475,873,3234,5886,180,-54,231,231,-115
1,2771138,2475,873,3234,5886,180,-54,231,231,-115
1,2771152,2479,877,3225,5894,177,-56,231,231,-115
1,2771166,2473,882,3236,5897,183,-57,233,219,-129
1,2771180,2473,882,3236,5897,183,-57,233,219,-129
1,2771192,2482,880,3229,5892,184,-63,233,219,-129
1,2771208,2476,874,3237,5898,178,-56,233,219,-129
1,2771220,2480,880,3229,5889,171,-49,233,219,-129
1,2771235,2480,880,3229,5889,171,-49,233,219,-129
1,2771250,2477,877,3232,5898,176,-57,233,219,-129
1,2771263,2479,881,3227,5898,180,-59,233,219,-129
1,2771277,2479,881,3227,5898,180,-59,233,219,-129
1,2771292,2474,864,3230,5892,181,-59,251,231,-131
1,2771305,2476,860,3237,5891,182,-61,251,231,-131
1,2771318,2476,860,3237,5891,182,-61,251,231,-131
1,2771335,2482,870,3234,5889,176,-57,251,231,-131
1,2771348,2471,856,3231,5893,180,-51,251,231,-131
1,2771359,2471,856,3231,5893,180,-51,251,231,-131
1,2771374,2480,819,3230,5899,184,-60,251,231,-131
1,2771388,2483,849,3231,5896,182,-54,251,231,-131
1,2771401,2478,849,3227,5887,178,-50,251,231,-131
1,2771415,2478,849,3227,5887,178,-50,251,231,-131
1,2771430,2477,848,3233,5885,174,-56,266,220,-142
1,2771441,2480,842,3220,5889,174,-61,266,220,-142
1,2771454,2480,842,3220,5889,174,-61,266,220,-142
1,2771470,2476,850,3231,5890,180,-61,266,220,-142
1,2771485,2486,852,3227,5885,180,-53,266,220,-142
1,2771497,2486,852,3227,5885,180,-53,266,220,-142
1,2771512,2472,846,3228,5893,176,-52,266,220,-142
1,2771526,2481,855,3224,5886,179,-59,266,220,-142
1,2771540,2483,843,3233,5887,176,-60,275,217,-139
1,2771555,2483,843,3233,5887,176,-60,275,217,-139
1,2771568,2478,852,3218,5891,172,-56,275,217,-139
1,2771581,2476,845,3218,5883,174,-52,275,217,-139
1,2771597,2476,845,3218,5883,174,-52,275,217,-139
1,2771609,2475,853,3221,5887,179,-53,275,217,-139
1,2771622,2479,838,3220,5881,172,-54,275,217,-139
1,2771636,2479,838,3220,5881,172,-54,275,217,-139
1,2771650,2478,848,3219,5873,172,-48,275,217,-139
1,2771664,2477,846,3223,5880,176,-57,282,226,-142
1,2771676,2477,846,3223,5880,176,-57,282,226,-142
1,2771689,2474,858,3222,5879,177,-56,282,226,-142
1,2771702,2479,842,3221,5881,176,-58,282,226,-142
1,2771714,2479,842,3221,5881,176,-58,282,226,-142
1,2771728,2474,856,3214,5879,175,-54,282,226,-142
1,2771743,2478,846,3222,5878,180,-58,282,226,-142
1,2771757,2478,846,3222,5878,180,-58,282,226,-142
1,2771770,2478,859,3215,5883,180,-57,282,226,-142
1,2771784,2475,841,3216,5880,180,-57,283,209,-151
1,2771798,2475,841,3216,5880,180,-57,283,209,-151
1,2771812,2478,867,3219,5875,185,-59,283,209,-151
1,2771824,2474,867,3216,5869,177,-57,283,209,-151
1,2771837,2474,867,3216,5869,177,-57,283,209,-151
1,2771852,2472,912,3213,5875,176,-50,283,209,-151
1,2771865,2475,929,3219,5873,173,-62,283,209,-151
1,2771878,2475,929,3219,5873,173,-62,283,209,-151
1,2771891,2472,919,3223,5874,175,-55,283,209,-151
1,2771906,2473,894,3215,5877,181,-56,283,209,-151
1,2771921,2480,923,3227,5875,177,-62,291,217,-151
1,2771935,2480,923,3227,5875,177,-62,291,217,-151
1,2771948,2470,892,3224,5886,173,-58,291,217,-151
1,2771962,2477,899,3224,5895,177,-60,291,217,-151
1,2771977,2477,899,3224,5895,177,-60,291,217,-151
1,2771990,2478,860,3224,5896,181,-55,291,217,-151
1,2772003,2475,888,3225,5893,177,-58,291,217,-151
1,2772017,2475,888,3225,5893,177,-58,291,217,-151
1,2772028,2479,869,3228,5884,174,-46,291,217,-151
1,2772041,2466,893,3227,5887,179,-56,296,220,-154
1,2772056,2466,893,3227,5887,179,-56,296,220,-154
1,2772069,2483,880,3235,5885,182,-61,296,220,-154
1,2772080,2476,897,3232,5882,178,-53,296,220,-154
1,2772092,2476,897,3232,5882,178,-53,296,220,-154
1,2772106,2479,884,3235,5887,179,-59,296,220,-154
1,2772120,2479,884,3235,5887,179,-59,296,220,-154
1,2772134,2473,898,3234,5887,180,-59,296,220,-154
1,2772148,2476,881,3234,5883,175,-54,296,220,-154
1,2772159,2476,881,3234,5883,175,-54,296,220,-154
1,2772174,2472,887,3236,5887,180,-61,303,219,-149
1,2772190,2476,857,3233,5899,175,-53,303,219,-149
1,2772205,2470,885,3230,5898,184,-64,303,219,-149
1,2772216,2470,885,3230,5898,184,-64,303,219,-149
1,2772231,2473,859,3233,5899,182,-62,303,219,-149
1,2772247,2476,871,3237,5884,184,-52,303,219,-149
1,2772260,2482,848,3243,5895,181,-56,303,219,-149
1,2772274,2482,848,3243,5895,181,-56,303,219,-149
1,2772287,2474,882,3236,5892,177,-64,310,224,-154
1,2772296,2474,882,3236,5892,177,-64,310,224,-154
1,2772311,2482,824,3231,5890,181,-64,310,224,-154
1,2772324,2476,858,3225,5889,181,-58,310,224,-154
1,2772337,2476,858,3225,5889,181,-58,310,224,-154
1,2772350,2483,839,3225,5890,179,-61,310,224,-154
1,2772363,2476,867,3233,5886,180,-52,310,224,-154
1,2772376,2476,867,3233,5886,180,-52,310,224,-154
1,2772389,2479,824,3227,5891,182,-58,310,224,-154
1,2772403,2476,858,3228,5882,187,-61,310,224,-154
1,2772418,2476,858,3228,5882,187,-61,310,224,-154
1,2772432,2482,840,3237,5890,184,-55,317,229,-145
1,2772448,2472,861,3227,5884,180,-51,317,229,-145
1,2772461,2481,846,3225,5885,187,-61,317,229,-145
1,2772475,2481,846,3225,5885,187,-61,317,229,-145
1,2772490,2477,867,3229,5877,186,-58,317,229,-145
1,2772504,2479,843,3222,5887,182,-55,317,229,-145
1,2772515,2479,843,3222,5887,182,-55,317,229,-145
1,2772529,2474,856,3223,5885,179,-57,317,229,-145
1,2772542,2477,848,3226,5882,174,-65,326,232,-148
1,2772555,2477,848,3226,5882,174,-65,326,232,-148
1,2772570,2478,860,3225,5885,177,-61,326,232,-148
1,2772581,2477,842,3215,5881,177,-54,326,232,-148
1,2772594,2477,842,3215,5881,177,-54,326,232,-148
1,2772608,2474,846,3223,5885,184,-61,326,232,-148
1,2772622,2477,859,3216,5880,189,-59,326,232,-148
1,2772636,2477,859,3216,5880,189,-59,326,232,-148
1,2772646,2477,852,3226,5887,179,-59,326,232,-148
1,2772656,2477,852,3226,5887,179,-59,326,232,-148
1,2772670,2479,853,3221,5879,175,-58,322,232,-138
1,2772685,2479,855,3224,5880,184,-52,322,232,-138
1,2772701,2477,863,3224,5885,186,-59,322,232,-138
1,2772715,2477,863,3224,5885,186,-59,322,232,-138
1,2772728,2474,870,3218,5882,180,-57,322,232,-138
1,2772740,2474,870,3218,5882,180,-57,322,232,-138
1,2772752,2473,894,3214,5878,182,-54,322,232,-138
1,2772765,2475,906,3220,5876,175,-61,322,232,-138
1,2772780,2475,906,3220,5876,175,-61,322,232,-138
1,2772793,2472,889,3224,5880,180,-56,323,241,-135
1,2772806,2473,884,3223,5875,180,-59,323,241,-135
1,2772819,2473,884,3223,5875,180,-59,323,241,-135
1,2772834,2473,898,3227,5884,185,-61,323,241,-135
1,2772845,2470,893,3229,5885,172,-56,323,241,-135
1,2772858,2470,893,3229,5885,172,-56,323,241,-135
1,2772872,2476,889,3227,5885,172,-57,323,241,-135
1,2772887,2474,871,3232,5888,181,-54,323,241,-135
1,2772902,2476,886,3230,5884,174,-54,323,241,-135
1,2772916,2476,886,3230,5884,174,-54,323,241,-135
1,2772929,2474,856,3232,5883,172,-50,324,246,-130
1,2772943,2476,874,3225,5887,182,-58,324,246,-130
1,2772959,2476,874,3225,5887,182,-58,324,246,-130
1,2772971,2476,856,3231,5891,185,-57,324,246,-130
1,2772985,2478,883,3231,5880,179,-64,324,246,-130
1,2773001,2477,859,3236,5889,187,-56,324,246,-130
1,2773014,2477,859,3236,5889,187,-56,324,246,-130
1,2773027,2475,892,3229,5888,186,-62,324,246,-130
1,2773041,2480,882,3237,5889,182,-60,328,238,-128
1,2773055,2480,882,3237,5889,182,-60,328,238,-128
1,2773068,2475,882,3230,5895,180,-62,328,238,-128
1,2773081,2478,882,3232,5893,179,-62,328,238,-128
1,2773094,2478,882,3232,5893,179,-62,328,238,-128
1,2773104,2477,885,3226,5888,175,-63,328,238,-128
1,2773113,2477,885,3226,5888,175,-63,328,238,-128
1,2773128,2477,885,3226,5887,180,-55,328,238,-128
1,2773141,2472,876,3231,5889,175,-54,328,238,-128
1,2773156,2472,876,3231,5889,175,-54,328,238,-128
1,2773172,2475,876,3232,5889,182,-56,321,239,-125
1,2773186,2475,873,3241,5892,181,-56,321,239,-125
1,2773201,2475,856,3235,5895,178,-57,321,239,-125
1,2773215,2475,856,3235,5895,178,-57,321,239,-125
1,2773229,2478,863,3243,5884,182,-61,321,239,-125
1,2773243,2476,858,3236,5890,184,-57,321,239,-125
1,2773257,2476,858,3236,5890,184,-57,321,239,-125
1,2773271,2478,854,3238,5886,182,-59,321,239,-125
1,2773282,2476,818,3235,5896,181,-59,330,242,-116
1,2773299,2476,818,3235,5896,181,-59,330,242,-116
1,2773312,2477,858,3222,5891,187,-57,330,242,-116
1,2773326,2477,850,3236,5889,184,-58,330,242,-116
1,2773341,2477,850,3236,5889,184,-58,330,242,-116
1,2773354,2473,842,3223,5891,173,-53,330,242,-116
1,2773369,2486,838,3227,5880,180,-64,330,242,-116
1,2773383,2480,848,3230,5886,182,-59,330,242,-116
1,2773397,2480,848,3230,5886,182,-59,330,242,-116
1,2773411,2480,854,3233,5893,175,-54,323,249,-107
1,2773426,2479,851,3230,5882,181,-59,323,249,-107
1,2773438,2479,851,3230,5882,181,-59,323,249,-107
1,2773451,2479,858,3224,5891,182,-59,323,249,-107
1,2773465,2479,843,3228,5886,172,-56,323,249,-107
1,2773478,2479,843,3228,5886,172,-56,323,249,-107
1,2773492,2476,854,3217,5880,175,-50,323,249,-107
1,2773506,2472,845,3227,5886,178,-57,323,249,-107
1,2773518,2472,845,3227,5886,178,-57,323,249,-107
1,2773532,2477,854,3211,5879,181,-55,323,249,-107
1,2773548,2480,833,3230,5880,177,-51,332,246,-112
1,2773563,2477,849,3217,5875,181,-54,332,246,-112
1,2773577,2477,849,3217,5875,181,-54,332,246,-112
1,2773590,2479,850,3227,5880,179,-56,332,246,-112
1,2773605,2475,852,3220,5882,185,-56,332,246,-112
1,2773619,2475,852,3220,5882,185,-56,332,246,-112
1,2773634,2480,842,3219,5878,176,-50,332,246,-112
1,2773647,2482,856,3217,5875,179,-50,332,246,-112
1,2773660,2482,856,3217,5875,179,-50,332,246,-112
1,2773672,2480,854,3215,5875,182,-53,332,246,-104
1,2773686,2474,857,3214,5874,176,-53,332,246,-104
1,2773700,2474,857,3214,5874,176,-53,332,246,-104
1,2773713,2478,850,3208,5874,179,-58,332,246,-104
1,2773728,2474,874,3214,5876,179,-48,332,246,-104
1,2773741,2474,874,3214,5876,179,-48,332,246,-104
1,2773754,2474,899,3212,5872,179,-46,332,246,-104
1,2773768,2468,933,3217,5865,178,-45,332,246,-104
1,2773783,2474,901,3227,5871,177,-55,313,247,-83
1,2773798,2474,901,3227,5871,177,-55,313,247,-83
1,2773812,2477,896,3221,5875,176,-61,313,247,-83
1,2773826,2478,915,3233,5881,174,-54,313,247,-83
1,2773841,2468,895,3220,5886,179,-48,313,247,-83
1,2773857,2468,895,3220,5886,179,-48,313,247,-83
1,2773871,2476,889,3231,5889,176,-52,313,247,-83
1,2773885,2474,856,3218,5891,188,-63,313,247,-83
1,2773899,2474,856,3218,5891,188,-63,313,247,-83
1,2773914,2472,875,3231,5889,179,-52,312,242,-82
1,2773927,2477,867,3224,5890,175,-50,312,242,-82
1,2773939,2477,867,3224,5890,175,-50,312,242,-82
1,2773953,2467,884,3232,5887,176,-59,312,242,-82
1,2773966,2486,878,3235,5885,180,-69,312,242,-82
1,2773980,2486,878,3235,5885,180,-69,312,242,-82
1,2773993,2477,884,3231,5882,178,-59,312,242,-82
1,2774005,2477,887,3230,5898,176,-49,312,242,-82
1,2774019,2477,887,3230,5898,176,-49,312,242,-82
1,2774032,2473,892,3230,5892,182,-50,312,242,-82
1,2774046,2474,871,3236,5883,187,-54,309,229,-87
1,2774061,2474,871,3236,5883,187,-54,309,229,-87
1,2774076,2480,876,3229,5892,185,-62,309,229,-87
1,2774090,2473,856,3229,5896,181,-47,309,229,-87
1,2774104,2475,872,3236,5887,186,-54,309,229,-87
1,2774118,2475,872,3236,5887,186,-54,309,229,-87
1,2774134,2476,850,3233,5899,188,-57,309,229,-87
1,2774149,2476,862,3230,5895,184,-57,309,229,-87
1,2774162,2480,857,3240,5897,185,-61,306,240,-72
1,2774174,2480,857,3240,5897,185,-61,306,240,-72
1,2774189,2476,879,3237,5896,183,-60,306,240,-72
1,2774202,2479,818,3239,5888,181,-54,306,240,-72
1,2774217,2479,818,3239,5888,181,-54,306,240,-72
1,2774231,2482,858,3227,5889,182,-61,306,240,-72
1,2774246,2476,835,3230,5896,187,-58,306,240,-72
1,2774260,2476,835,3230,5896,187,-58,306,240,-72
1,2774273,2478,872,3228,5883,186,-60,306,240,-72
1,2774286,2479,823,3228,5887,177,-62,300,244,-58
1,2774297,2479,823,3228,5887,177,-62,300,244,-58
1,2774311,2476,856,3219,5885,181,-57,300,244,-58
1,2774324,2488,837,3234,5886,179,-51,300,244,-58
1,2774337,2488,837,3234,5886,179,-51,300,244,-58
1,2774352,2467,860,3228,5886,173,-49,300,244,-58
1,2774363,2485,841,3228,5881,180,-50,300,244,-58
1,2774379,2485,841,3228,5881,180,-50,300,244,-58
1,2774393,2481,858,3230,5885,180,-57,300,244,-58
1,2774409,2485,846,3230,5883,175,-59,285,239,-57
1,2774424,2473,856,3226,5884,183,-58,285,239,-57
1,2774437,2473,856,3226,5884,183,-58,285,239,-57
1,2774451,2479,857,3218,5885,178,-65,285,239,-57
1,2774465,2480,856,3224,5880,177,-61,285,239,-57
1,2774477,2480,856,3224,5880,177,-61,285,239,-57
1,2774491,2479,844,3210,5874,178,-57,285,239,-57
1,2774504,2478,850,3222,5876,181,-49,285,239,-57
1,2774518,2478,850,3222,5876,181,-49,285,239,-57
1,2774532,2480,858,3216,5882,185,-61,285,239,-57
1,2774546,2483,853,3231,5885,174,-62,290,236,-44
1,2774558,2483,853,3231,5885,174,-62,290,236,-44
1,2774572,2479,852,3230,5886,177,-62,290,236,-44
1,2774587,2480,869,3221,5872,175,-55,290,236,-44
1,2774603,2478,880,3218,5876,175,-51,290,236,-44
1,2774619,2478,880,3218,5876,175,-51,290,236,-44
1,2774633,2474,907,3215,5874,184,-54,290,236,-44
1,2774646,2468,898,3218,5875,184,-50,290,236,-44
1,2774662,2473,895,3229,5883,176,-56,290,236,-44
1,2774676,2473,895,3229,5883,176,-56,274,240,-46
1,2774690,2473,881,3224,5880,180,-56,274,240,-46
1,2774704,2477,901,3230,5882,185,-52,274,240,-46
1,2774717,2477,901,3230,5882,185,-52,274,240,-46
1,2774731,2474,884,3227,5890,180,-56,274,240,-46
1,2774743,2472,900,3235,5888,180,-62,274,240,-46
1,2774756,2472,900,3235,5888,180,-62,274,240,-46
1,2774769,2483,872,3226,5893,182,-58,274,240,-46
1,2774784,2474,887,3244,5887,182,-56,271,231,-35
1,2774795,2474,887,3244,5887,182,-56,271,231,-35
1,2774807,2479,870,3228,5900,179,-53,271,231,-35
1,2774822,2475,870,3233,5891,182,-51,271,231,-35
1,2774836,2475,870,3233,5891,182,-51,271,231,-35
1,2774851,2482,858,3227,5898,186,-67,271,231,-35
1,2774863,2476,859,3230,5891,183,-59,271,231,-35
1,2774878,2476,859,3230,5891,183,-59,271,231,-35
1,2774891,2478,873,3229,5885,174,-53,271,231,-35
1,2774904,2474,867,3236,5887,173,-59,265,231,-37
1,2774919,2474,867,3236,5887,173,-59,265,231,-37
1,2774931,2481,876,3236,5886,185,-64,265,231,-37
1,2774944,2476,878,3229,5885,180,-62,265,231,-37
1,2774958,2476,878,3229,5885,180,-62,265,231,-37
1,2774971,2474,883,3234,5886,184,-56,265,231,-37
1,2774984,2481,883,3233,5889,181,-56,265,231,-37
1,2774999,2481,883,3233,5889,181,-56,265,231,-37
1,2775013,2473,874,3228,5890,180,-55,265,231,-37
1,2775025,2478,880,3229,5894,178,-56,267,235,-35
1,2775040,2478,880,3229,5894,178,-56,267,235,-35
1,2775055,2473,873,3237,5892,181,-57,267,235,-35
1,2775070,2474,878,3229,5897,178,-61,267,235,-35
1,2775085,2476,863,3236,5896,179,-62,267,235,-35
1,2775097,2476,863,3236,5896,179,-62,267,235,-35
1,2775111,2476,848,3236,5896,175,-59,267,235,-35
1,2775126,2480,861,3242,5899,175,-57,267,235,-35
1,2775139,2480,861,3242,5899,175,-57,267,235,-35
1,2775153,2478,859,3233,5898,177,-60,267,235,-35
1,2775169,2475,851,3241,5901,181,-58,253,239,-27
1,2775178,2475,851,3241,5901,181,-58,253,239,-27
1,2775191,2481,819,3228,5892,177,-62,253,239,-27
1,2775204,2477,858,3226,5891,179,-56,253,239,-27
1,2775219,2477,858,3226,5891,179,-56,253,239,-27
1,2775231,2478,846,3230,5893,181,-51,253,239,-27
1,2775243,2470,838,3222,5884,184,-55,253,239,-27
1,2775258,2470,838,3222,5884,184,-55,253,239,-27
1,2775273,2483,838,3238,5877,183,-56,253,239,-27
1,2775286,2479,846,3230,5886,186,-57,251,231,-33
1,2775301,2479,846,3230,5886,186,-57,251,231,-33
1,2775316,2480,855,3232,5886,172,-57,251,231,-33
1,2775327,2477,848,3220,5881,175,-52,251,231,-33
1,2775341,2477,848,3220,5881,175,-52,251,231,-33
1,2775352,2476,852,3229,5885,186,-60,251,231,-33
1,2775365,2485,840,3228,5883,186,-55,251,231,-33
1,2775378,2485,840,3228,5883,186,-55,251,231,-33
1,2775393,2472,850,3221,5887,181,-49,251,231,-33
1,2775406,2476,848,3228,5888,178,-56,242,230,-32
1,2775419,2476,848,3228,5888,178,-56,242,230,-32
1,2775436,2476,848,3228,5888,178,-56,242,230,-32
1,2775445,2478,835,3222,5883,188,-61,242,230,-32
1,2775453,2478,835,3222,5883,188,-61,242,230,-32
1,2775468,2478,851,3219,5886,181,-64,242,230,-32
1,2775480,2478,851,3219,5886,181,-64,242,230,-32
1,2775493,2481,849,3221,5883,178,-65,242,230,-32
1,2775508,2474,857,3226,5881,180,-63,242,230,-32
1,2775524,2482,836,3224,5878,181,-53,236,242,-32
1,2775540,2482,836,3224,5878,181,-53,236,242,-32
1,2775555,2480,853,3223,5873,181,-51,236,242,-32
1,2775567,2478,861,3222,5885,180,-55,236,242,-32
1,2775580,2478,861,3222,5885,180,-55,236,242,-32
1,2775593,2474,878,3219,5886,180,-51,236,242,-32
1,2775607,2472,890,3217,5878,184,-58,236,242,-32
1,2775618,2472,890,3217,5878,184,-58,236,242,-32
1,2775633,2469,922,3214,5877,177,-54,236,242,-32
1,2775646,2471,896,3221,5879,184,-58,236,242,-32
1,2775660,2471,896,3221,5879,184,-58,236,242,-32
1,2775673,2469,901,3224,5879,181,-61,230,240,-30
1,2775687,2479,914,3235,5891,177,-55,230,240,-30
1,2775702,2470,897,3227,5895,180,-55,230,240,-30
1,2775716,2470,897,3227,5895,180,-55,230,240,-30
1,2775729,2476,895,3228,5892,179,-60,230,240,-30
1,2775744,2475,871,3228,5895,178,-59,230,240,-30
1,2775759,2475,871,3228,5895,178,-59,230,240,-30
1,2775775,2472,881,3231,5893,172,-53,230,240,-30
1,2775788,2477,856,3229,5890,178,-53,232,236,-34
1,2775800,2477,856,3229,5890,178,-53,232,236,-34
1,2775814,2467,865,3226,5895,177,-61,232,236,-34
1,2775827,2482,865,3231,5892,181,-61,232,236,-34
1,2775840,2482,865,3231,5892,181,-61,232,236,-34
1,2775855,2474,868,3232,5884,176,-57,232,236,-34
1,2775868,2480,875,3236,5891,178,-57,232,236,-34
1,2775879,2480,875,3236,5891,178,-57,232,236,-34
1,2775895,2474,875,3230,5886,180,-59,232,236,-34
1,2775908,2481,886,3236,5880,179,-51,230,232,-32
1,2775922,2476,860,3234,5892,174,-55,230,232,-32
1,2775938,2476,860,3234,5892,174,-55,230,232,-32
1,2775952,2476,870,3237,5891,180,-58,230,232,-32
1,2775967,2478,865,3227,5898,187,-51,230,232,-32
1,2775983,2474,860,3242,5890,182,-55,230,232,-32
1,2775996,2474,860,3242,5890,182,-55,230,232,-32
1,2776010,2478,849,3229,5894,182,-54,230,232,-32
1,2776025,2475,851,3232,5894,181,-54,222,240,-36
1,2776038,2475,851,3232,5894,181,-54,222,240,-36
1,2776050,2484,867,3231,5899,181,-55,222,240,-36
1,2776064,2475,857,3237,5894,175,-54,222,240,-36
1,2776078,2475,857,3237,5894,175,-54,222,240,-36
1,2776091,2479,864,3224,5895,182,-62,222,240,-36
1,2776105,2478,814,3235,5885,182,-53,222,240,-36
1,2776118,2478,814,3235,5885,182,-53,222,240,-36
1,2776130,2483,861,3219,5888,184,-59,222,240,-36
1,2776143,2478,835,3229,5890,172,-53,222,240,-36
1,2776157,2478,835,3229,5890,172,-53,222,240,-36
1,2776172,2475,858,3233,5893,176,-57,224,238,-42
1,2776187,2484,825,3230,5883,182,-55,224,238,-42
1,2776203,2478,853,3218,5884,178,-61,224,238,-42
1,2776216,2478,853,3218,5884,178,-61,224,238,-42
1,2776229,2485,840,3223,5883,182,-54,224,238,-42
1,2776245,2468,857,3224,5890,182,-47,224,238,-42
1,2776260,2468,857,3224,5890,182,-47,224,238,-42
1,2776273,2484,846,3222,5880,178,-54,224,238,-42
1,2776286,2479,847,3224,5884,183,-58,214,240,-48
1,2776300,2479,847,3224,5884,183,-58,214,240,-48
1,2776314,2479,846,3221,5881,177,-51,214,240,-48
1,2776328,2474,860,3225,5878,182,-50,214,240,-48
1,2776341,2474,860,3225,5878,182,-50,214,240,-48
1,2776354,2481,855,3223,5886,183,-60,214,240,-48
1,2776370,2479,848,3232,5884,175,-53,214,240,-48
1,2776384,2481,847,3220,5879,172,-50,214,240,-48
1,2776398,2481,847,3220,5879,172,-50,214,240,-48
1,2776412,2477,858,3226,5876,178,-53,225,239,-59
1,2776425,2472,862,3225,5877,183,-57,225,239,-59
1,2776438,2472,862,3225,5877,183,-57,225,239,-59
1,2776450,2480,861,3216,5876,182,-65,225,239,-59
1,2776464,2478,863,3217,5874,175,-62,225,239,-59
1,2776478,2478,863,3217,5874,175,-62,225,239,-59
1,2776489,2475,892,3222,5879,169,-56,225,239,-59
1,2776505,2474,905,3224,5880,175,-58,225,239,-59
1,2776519,2474,905,3224,5880,175,-58,225,239,-59
1,2776534,2474,891,3231,5881,175,-59,232,238,-60
1,2776548,2475,878,3225,5878,180,-61,232,238,-60
1,2776561,2475,878,3225,5878,180,-61,232,238,-60
1,2776573,2476,905,3227,5886,180,-61,232,238,-60
1,2776586,2467,896,3223,5890,173,-56,232,238,-60
1,2776600,2467,896,3223,5890,173,-56,232,238,-60
1,2776614,2471,897,3231,5883,173,-57,232,238,-60
1,2776628,2476,875,3224,5883,181,-59,232,238,-60
1,2776641,2476,875,3224,5883,181,-59,232,238,-60
1,2776654,2475,893,3233,5888,178,-63,232,238,-60
1,2776667,2479,879,3231,5889,180,-48,225,225,-61
1,2776680,2479,879,3231,5889,180,-48,225,225,-61
1,2776694,2469,880,3238,5894,176,-55,225,225,-61
1,2776708,2483,855,3232,5889,184,-57,225,225,-61
1,2776721,2483,855,3232,5889,184,-57,225,225,-61
1,2776734,2476,854,3238,5890,177,-57,225,225,-61
1,2776749,2477,860,3230,5890,171,-53,225,225,-61
1,2776764,2471,871,3233,5890,179,-54,225,225,-61
1,2776778,2471,871,3233,5890,179,-54,225,225,-61
1,2776792,2477,864,3233,5891,178,-63,224,228,-82
1,2776805,2477,851,3229,5893,182,-53,224,228,-82
1,2776819,2477,851,3229,5893,182,-53,224,228,-82
1,2776833,2477,863,3235,5897,183,-54,224,228,-82
1,2776846,2478,871,3232,5892,178,-54,224,228,-82
1,2776860,2478,871,3232,5892,178,-54,224,228,-82
1,2776873,2475,880,3238,5890,184,-52,224,228,-82
1,2776890,2481,872,3231,5897,181,-56,224,228,-82
1,2776902,2472,866,3240,5889,186,-59,222,226,-84
1,2776916,2472,866,3240,5889,186,-59,222,226,-84
1,2776930,2477,884,3231,5892,180,-58,222,226,-84
1,2776944,2472,879,3243,5893,184,-50,222,226,-84
1,2776958,2472,879,3243,5893,184,-50,222,226,-84
1,2776974,2473,876,3229,5898,184,-55,222,226,-84
1,2776985,2477,864,3235,5891,187,-56,222,226,-84
1,2777000,2477,864,3235,5891,187,-56,222,226,-84
1,2777018,2477,869,3230,5890,179,-54,222,226,-84
1,2777032,2476,872,3238,5891,173,-53,227,219,-95
1,2777046,2474,867,3237,5899,185,-54,227,219,-95
1,2777058,2474,867,3237,5899,185,-54,227,219,-95
1,2777072,2478,869,3239,5897,178,-61,227,219,-95
1,2777085,2477,882,3241,5902,177,-54,227,219,-95
1,2777099,2477,882,3241,5902,177,-54,227,219,-95
1,2777113,2473,909,3234,5898,184,-53,227,219,-95
1,2777125,2472,908,3247,5896,182,-54,227,219,-95
1,2777139,2472,908,3247,5896,182,-54,227,219,-95
1,2777153,2471,931,3235,5892,179,-62,228,214,-102
1,2777166,2470,939,3250,5898,176,-64,228,214,-102
1,2777180,2470,939,3250,5898,176,-64,228,214,-102
1,2777194,2470,950,3241,5904,173,-53,228,214,-102
1,2777209,2468,964,3248,5904,178,-55,228,214,-102
1,2777223,2468,975,3251,5904,181,-61,228,214,-102
1,2777236,2468,975,3251,5904,181,-61,228,214,-102
1,2777251,2466,980,3262,5909,185,-56,228,214,-102
1,2777263,2468,996,3265,5920,178,-41,228,214,-102
1,2777275,2468,996,3265,5920,178,-41,228,214,-102
1,2777290,2463,1000,3266,5925,177,-57,225,227,-107
1,2777304,2470,1013,3279,5928,180,-55,225,227,-107
1,2777318,2470,1013,3279,5928,180,-55,225,227,-107
1,2777332,2465,1003,3280,5933,188,-53,225,227,-107
1,2777346,2465,1025,3283,5938,181,-61,225,227,-107
1,2777361,2465,1025,3283,5938,181,-61,225,227,-107
1,2777373,2465,1025,3283,5938,181,-61,225,227,-107
1,2777387,2461,1047,3299,5954,182,-54,225,227,-107
1,2777401,2461,1047,3299,5954,182,-54,225,227,-107
1,2777414,2465,1045,3311,5961,189,-54,236,224,-120
1,2777428,2461,1075,3318,5959,189,-62,236,224,-120
1,2777443,2464,1085,3328,5972,191,-56,236,224,-120
1,2777454,2464,1085,3328,5972,191,-56,236,224,-120
1,2777469,2460,1103,3332,5979,184,-53,236,224,-120
1,2777483,2464,1109,3346,5987,186,-65,236,224,-120
1,2777495,2464,1109,3346,5987,186,-65,236,224,-120
1,2777509,2461,1130,3350,6000,182,-59,236,224,-120
1,2777525,2460,1125,3364,6013,185,-48,247,227,-125
1,2777538,2460,1125,3364,6013,185,-48,247,227,-125
1,2777551,2458,1139,3377,6029,184,-58,247,227,-125
1,2777566,2455,1143,3382,6036,188,-63,247,227,-125
1,2777577,2455,1143,3382,6036,188,-63,247,227,-125
1,2777592,2458,1160,3395,6046,190,-59,247,227,-125
1,2777606,2456,1141,3407,6060,188,-57,247,227,-125
1,2777619,2456,1141,3407,6060,188,-57,247,227,-125
1,2777632,2457,1160,3421,6075,188,-64,247,227,-125
1,2777647,2459,1147,3428,6079,188,-63,253,223,-139
1,2777659,2459,1147,3428,6079,188,-63,253,223,-139
1,2777672,2454,1152,3446,6093,196,-65,253,223,-139
1,2777687,2457,1142,3455,6107,201,-63,253,223,-139
1,2777702,2457,1142,3455,6107,201,-63,253,223,-139
1,2777713,2456,1142,3470,6113,203,-60,253,223,-139
1,2777729,2464,1141,3475,6128,198,-57,253,223,-139
1,2777744,2455,1140,3486,6139,195,-52,253,223,-139
1,2777758,2455,1140,3486,6139,195,-52,253,223,-139
1,2777772,2462,1142,3498,6142,196,-61,253,223,-139
1,2777786,2457,1137,3507,6161,193,-59,268,220,-146
1,2777799,2457,1137,3507,6161,193,-59,268,220,-146
1,2777811,2458,1130,3530,6170,196,-63,268,220,-146
1,2777825,2462,1116,3531,6184,203,-57,268,220,-146
1,2777839,2462,1116,3531,6184,203,-57,268,220,-146
1,2777852,2460,1110,3549,6186,206,-48,268,220,-146
1,2777866,2467,1096,3555,6202,197,-53,268,220,-146
1,2777880,2467,1096,3555,6202,197,-53,268,220,-146
1,2777894,2461,1085,3566,6208,198,-54,268,220,-146
1,2777907,2464,1071,3577,6227,198,-62,273,225,-141
1,2777914,2464,1071,3577,6227,198,-62,273,225,-141
1,2777929,2464,1066,3586,6234,203,-55,273,225,-141
1,2777946,2465,1033,3585,6237,205,-58,273,225,-141
1,2777960,2465,1033,3585,6237,205,-58,273,225,-141
1,2777974,2466,1030,3594,6243,204,-61,273,225,-141
1,2777988,2470,1003,3607,6250,203,-64,273,225,-141
1,2777998,2470,1003,3607,6250,203,-64,273,225,-141
1,2778010,2467,1006,3619,6260,204,-63,273,225,-141
1,2778024,2468,988,3621,6262,205,-59,278,220,-144
1,2778038,2468,988,3621,6262,205,-59,278,220,-144
1,2778052,2471,988,3626,6260,204,-57,278,220,-144
1,2778066,2473,981,3629,6260,204,-61,278,220,-144
1,2778078,2473,981,3629,6260,204,-61,278,220,-144
1,2778090,2470,981,3630,6263,206,-64,278,220,-144
1,2778103,2471,973,3635,6274,202,-63,278,220,-144
1,2778118,2471,973,3635,6274,202,-63,278,220,-144
1,2778132,2467,973,3634,6287,206,-67,278,220,-144
1,2778146,2465,947,3640,6292,213,-59,289,217,-151
1,2778159,2465,947,3640,6292,213,-59,289,217,-151
1,2778173,2470,953,3655,6293,205,-56,289,217,-151
1,2778188,2473,929,3656,6295,209,-59,289,217,-151
1,2778202,2473,929,3656,6295,209,-59,289,217,-151
1,2778215,2471,934,3658,6299,209,-59,289,217,-151
1,2778229,2474,909,3650,6293,207,-58,289,217,-151
1,2778245,2472,895,3662,6295,203,-57,289,217,-151
1,2778258,2472,895,3662,6295,203,-57,289,217,-151
1,2778272,2479,887,3658,6297,201,-55,289,217,-151
1,2778286,2473,875,3663,6303,204,-49,294,224,-146
1,2778298,2473,875,3663,6303,204,-49,294,224,-146
1,2778312,2478,865,3658,6305,208,-57,294,224,-146
1,2778327,2477,862,3658,6299,211,-60,294,224,-146
1,2778340,2477,862,3658,6299,211,-60,294,224,-146
1,2778354,2478,856,3655,6291,210,-54,294,224,-146
1,2778369,2479,861,3664,6299,210,-45,294,224,-146
1,2778381,2479,861,3664,6299,210,-45,294,224,-146
1,2778393,2475,860,3656,6298,210,-57,294,224,-146
1,2778407,2480,862,3665,6294,212,-58,297,213,-149
1,2778423,2485,821,3660,6298,199,-55,297,213,-149
1,2778438,2485,821,3660,6298,199,-55,297,213,-149
1,2778451,2481,855,3658,6299,198,-51,297,213,-149
1,2778465,2479,846,3650,6301,211,-49,297,213,-149
1,2778480,2479,846,3650,6301,211,-49,297,213,-149
1,2778493,2479,856,3660,6303,206,-55,297,213,-149
1,2778507,2478,815,3654,6290,213,-56,297,213,-149
1,2778520,2478,815,3654,6290,213,-56,297,213,-149
1,2778534,2478,839,3653,6295,206,-59,306,220,-146
1,2778550,2486,816,3648,6291,209,-50,306,220,-146
1,2778562,2476,812,3649,6299,218,-48,306,220,-146
1,2778576,2476,812,3649,6299,218,-48,306,220,-146
1,2778590,2487,802,3646,6293,207,-60,306,220,-146
1,2778603,2487,831,3653,6291,210,-54,306,220,-146
1,2778617,2487,831,3653,6291,210,-54,306,220,-146
1,2778631,2484,818,3641,6281,209,-58,306,220,-146
1,2778644,2481,838,3642,6283,203,-59,309,223,-151
1,2778659,2481,838,3642,6283,203,-59,309,223,-151
1,2778675,2486,843,3640,6283,214,-65,309,223,-151
1,2778689,2481,847,3639,6277,206,-58,309,223,-151
1,2778701,2481,847,3639,6277,206,-58,309,223,-151
1,2778716,2481,829,3630,6282,198,-58,309,223,-151
1,2778732,2472,883,3632,6268,200,-64,309,223,-151
1,2778747,2479,842,3643,6277,205,-54,309,223,-151
1,2778761,2479,842,3643,6277,205,-54,309,223,-151
1,2778774,2483,853,3638,6276,208,-57,309,223,-151
1,2778788,2476,842,3637,6278,209,-56,313,231,-145
1,2778801,2476,842,3637,6278,209,-56,313,231,-145
1,2778815,2476,878,3633,6271,209,-56,313,231,-145
1,2778828,2481,874,3639,6276,207,-62,313,231,-145
1,2778842,2481,874,3639,6276,207,-62,313,231,-145
1,2778855,2474,884,3631,6269,203,-64,313,231,-145
1,2778870,2484,905,3632,6262,205,-60,313,231,-145
1,2778883,2478,893,3639,6273,205,-50,313,231,-145
1,2778897,2478,893,3639,6273,205,-50,313,231,-145
1,2778911,2472,888,3633,6279,201,-56,320,240,-148
1,2778926,2483,898,3635,6276,203,-51,320,240,-148
1,2778938,2483,898,3635,6276,203,-51,320,240,-148
1,2778953,2473,904,3640,6278,206,-53,320,240,-148
1,2778969,2480,896,3645,6276,201,-51,320,240,-148
1,2778984,2477,901,3641,6280,201,-57,320,240,-148
1,2778999,2477,901,3641,6280,201,-57,320,240,-148
1,2779013,2478,905,3654,6286,204,-50,320,240,-148
1,2779026,2480,905,3641,6284,203,-47,321,243,-143
1,2779040,2480,905,3641,6284,203,-47,321,243,-143
1,2779054,2473,881,3650,6283,203,-57,321,243,-143
1,2779065,2482,905,3640,6284,212,-58,321,243,-143
1,2779079,2482,905,3640,6284,212,-58,321,243,-143
1,2779094,2477,885,3651,6279,214,-48,321,243,-143
1,2779107,2476,891,3640,6283,212,-46,321,243,-143
1,2779120,2476,891,3640,6283,212,-46,321,243,-143
1,2779131,2477,875,3650,6293,211,-55,321,243,-143
1,2779146,2480,884,3650,6295,210,-63,322,242,-132
1,2779159,2480,884,3650,6295,210,-63,322,242,-132
1,2779172,2483,858,3662,6292,210,-57,322,242,-132
1,2779188,2479,856,3646,6296,214,-53,322,242,-132
1,2779201,2479,856,3646,6296,214,-53,322,242,-132
1,2779213,2484,863,3649,6294,216,-51,322,242,-132
1,2779229,2481,868,3651,6287,204,-57,322,242,-132
1,2779244,2475,860,3644,6288,205,-54,322,242,-132
1,2779259,2475,860,3644,6288,205,-54,322,242,-132
1,2779273,2479,865,3648,6290,206,-60,325,243,-131
1,2779284,2480,865,3647,6286,208,-56,325,243,-131
1,2779298,2480,865,3647,6286,208,-56,325,243,-131
1,2779312,2479,865,3647,6282,207,-55,325,243,-131
1,2779326,2477,865,3649,6293,208,-52,325,243,-131
1,2779337,2477,865,3649,6293,208,-52,325,243,-131
1,2779352,2481,871,3649,6283,211,-63,325,243,-131
1,2779366,2482,879,3649,6280,205,-57,325,243,-131
1,2779379,2482,879,3649,6280,205,-57,325,243,-131
1,2779393,2478,872,3650,6283,200,-52,325,243,-131
1,2779407,2479,886,3651,6282,211,-50,333,245,-131
1,2779422,2479,886,3651,6282,211,-50,333,245,-131
1,2779435,2480,870,3654,6287,205,-52,333,245,-131
1,2779448,2478,859,3642,6292,203,-58,333,245,-131
1,2779462,2478,859,3642,6292,203,-58,333,245,-131
1,2779474,2480,860,3654,6297,205,-64,333,245,-131
1,2779487,2478,862,3645,6292,204,-58,333,245,-131
1,2779498,2478,862,3645,6292,204,-58,333,245,-131
1,2779512,2483,857,3651,6293,209,-54,333,245,-131
1,2779528,2478,846,3644,6289,204,-57,329,243,-119
1,2779541,2478,846,3644,6289,204,-57,329,243,-119
1,2779552,2479,853,3652,6281,209,-58,329,243,-119
1,2779566,2480,865,3649,6287,207,-63,329,243,-119
1,2779580,2480,865,3649,6287,207,-63,329,243,-119
1,2779593,2477,860,3652,6293,203,-60,329,243,-119
1,2779607,2484,860,3648,6286,200,-60,329,243,-119
1,2779621,2484,860,3648,6286,200,-60,329,243,-119
1,2779632,2480,859,3652,6288,206,-61,329,243,-119
1,2779645,2479,864,3644,6288,203,-54,329,237,-115
1,2779660,2479,864,3644,6288,203,-54,329,237,-115
1,2779674,2477,865,3646,6285,205,-54,329,237,-115
1,2779689,2480,868,3639,6285,200,-52,329,237,-115
1,2779705,2479,869,3648,6282,207,-54,329,237,-115
1,2779719,2479,869,3648,6282,207,-54,329,237,-115
1,2779732,2477,871,3642,6287,207,-64,329,237,-115
1,2779746,2480,868,3644,6289,207,-57,329,237,-115
1,2779760,2480,868,3644,6289,207,-57,329,237,-115
1,2779771,2480,862,3647,6292,206,-63,336,246,-118
1,2779785,2481,856,3646,6285,205,-65,336,246,-118
1,2779799,2481,856,3646,6285,205,-65,336,246,-118
1,2779813,2479,860,3649,6283,211,-67,336,246,-118
1,2779827,2475,860,3642,6286,202,-67,336,246,-118
1,2779839,2475,860,3642,6286,202,-67,336,246,-118
1,2779850,2478,854,3644,6292,201,-69,336,246,-118
1,2779864,2480,856,3645,6278,197,-56,336,246,-118
1,2779878,2480,856,3645,6278,197,-56,336,246,-118
1,2779892,2476,864,3641,6281,204,-61,336,246,-118
1,2779906,2478,892,3644,6282,203,-61,327,239,-97
1,2779920,2478,892,3644,6282,203,-61,327,239,-97
1,2779933,2475,887,3649,6282,204,-58,327,239,-97
1,2779948,2479,886,3644,6283,202,-60,327,239,-97
1,2779963,2477,892,3645,6277,202,-61,327,239,-97
1,2779976,2477,892,3645,6277,202,-61,327,239,-97
1,2779991,2477,891,3646,6286,209,-62,327,239,-97
1,2780006,2479,890,3644,6293,206,-63,327,239,-97
1,2780020,2479,890,3644,6293,206,-63,327,239,-97
1,2780035,2477,872,3657,6287,203,-65,319,241,-91
1,2780048,2479,865,3650,6290,206,-62,319,241,-91
1,2780062,2479,865,3650,6290,206,-62,319,241,-91
1,2780075,2479,869,3649,6290,200,-65,319,241,-91
1,2780089,2476,854,3642,6290,209,-60,319,241,-91
1,2780102,2476,854,3642,6290,209,-60,319,241,-91
1,2780115,2481,863,3653,6295,218,-60,319,241,-91
1,2780129,2480,852,3642,6282,206,-66,319,241,-91
1,2780143,2480,852,3642,6282,206,-66,319,241,-91
1,2780155,2481,856,3650,6294,201,-54,312,244,-90
1,2780168,2481,855,3650,6288,207,-70,312,244,-90
1,2780183,2479,870,3647,6286,210,-70,312,244,-90
1,2780198,2479,870,3647,6286,210,-70,312,244,-90
1,2780212,2483,861,3646,6281,200,-66,312,244,-90
1,2780225,2482,866,3645,6272,203,-67,312,244,-90
1,2780240,2482,866,3645,6272,203,-67,312,244,-90
1,2780256,2479,879,3641,6284,208,-68,312,244,-90
1,2780269,2480,874,3647,6288,208,-62,306,238,-72
1,2780282,2480,874,3647,6288,208,-62,306,238,-72
1,2780297,2484,864,3642,6285,206,-65,306,238,-72
1,2780309,2481,867,3647,6293,213,-60,306,238,-72
1,2780321,2481,867,3647,6293,213,-60,306,238,-72
1,2780336,2479,866,3644,6288,207,-59,306,238,-72
1,2780350,2479,866,3644,6288,207,-59,306,238,-72
1,2780363,2478,854,3645,6283,205,-68,306,238,-72
1,2780377,2478,854,3645,6283,205,-68,306,238,-72
1,2780389,2478,857,3645,6285,211,-66,306,238,-72
1,2780402,2478,857,3645,6285,211,-66,306,238,-72
1,2780417,2481,861,3647,6283,213,-62,306,236,-66
1,2780430,2479,860,3647,6291,210,-60,306,236,-66
1,2780444,2477,857,3639,6285,210,-57,306,236,-66
1,2780460,2477,857,3639,6285,210,-57,306,236,-66
1,2780471,2480,857,3646,6279,207,-56,306,236,-66
1,2780486,2477,862,3647,6281,207,-60,306,236,-66
1,2780500,2477,862,3647,6281,207,-60,306,236,-66
1,2780515,2481,877,3637,6279,203,-51,306,236,-66
1,2780526,2477,896,3643,6277,208,-55,300,236,-60
1,2780541,2477,896,3643,6277,208,-55,300,236,-60
1,2780557,2478,880,3650,6277,206,-58,300,236,-60
1,2780570,2478,888,3642,6284,206,-63,300,236,-60
1,2780583,2480,884,3643,6280,204,-64,300,236,-60
1,2780598,2480,884,3643,6280,204,-64,300,236,-60
1,2780612,2479,896,3648,6288,203,-66,300,236,-60
1,2780623,2478,871,3644,6296,211,-62,300,236,-60
1,2780637,2478,871,3644,6296,211,-62,300,236,-60
1,2780651,2479,863,3647,6292,206,-59,284,238,-50
1,2780664,2482,865,3647,6293,205,-58,284,238,-50
1,2780674,2482,865,3647,6293,205,-58,284,238,-50
1,2780683,2478,858,3647,6289,211,-57,284,238,-50
1,2780697,2478,858,3647,6289,211,-57,284,238,-50
1,2780713,2483,861,3643,6292,203,-58,284,238,-50
1,2780729,2476,856,3642,6283,205,-62,284,238,-50
1,2780743,2480,861,3648,6293,204,-60,284,238,-50
1,2780756,2480,861,3648,6293,204,-60,284,238,-50
1,2780770,2482,863,3649,6292,209,-56,284,232,-46
1,2780784,2480,871,3648,6288,206,-65,284,232,-46
1,2780798,2480,871,3648,6288,206,-65,284,232,-46
1,2780811,2482,870,3647,6286,206,-63,284,232,-46
1,2780824,2479,869,3644,6282,207,-61,284,232,-46
1,2780837,2479,869,3644,6282,207,-61,284,232,-46
1,2780851,2478,866,3641,6285,200,-61,284,232,-46
1,2780864,2475,877,3646,6290,202,-58,284,232,-46
1,2780877,2475,877,3646,6290,202,-58,284,232,-46
1,2780889,2483,868,3647,6284,206,-53,284,232,-46
1,2780903,2483,868,3647,6284,206,-53,284,232,-46
1,2780915,2477,867,3651,6287,203,-58,273,239,-37
1,2780930,2482,862,3644,6287,212,-64,273,239,-37
1,2780944,2480,867,3646,6286,207,-62,273,239,-37
1,2780956,2480,867,3646,6286,207,-62,273,239,-37
1,2780972,2482,865,3642,6288,211,-66,273,239,-37
1,2780986,2476,861,3645,6285,204,-60,273,239,-37
1,2781001,2476,861,3645,6285,204,-60,273,239,-37
1,2781012,2484,859,3646,6285,202,-60,273,239,-37
1,2781025,2479,859,3647,6285,209,-58,266,228,-36
1,2781038,2479,859,3647,6285,209,-58,266,228,-36
1,2781051,2480,862,3641,6283,205,-62,266,228,-36
1,2781066,2480,862,3641,6283,205,-62,266,228,-36
1,2781077,2480,862,3641,6283,205,-62,266,228,-36
1,2781089,2479,863,3644,6278,206,-60,266,228,-36
1,2781103,2479,863,3644,6278,206,-60,266,228,-36
1,2781115,2482,870,3638,6278,205,-55,266,228,-36
1,2781130,2477,892,3640,6278,211,-53,266,228,-36
1,2781146,2477,883,3648,6293,214,-61,262,234,-34
1,2781158,2477,883,3648,6293,214,-61,262,234,-34
1,2781171,2480,889,3653,6287,213,-62,262,234,-34
1,2781186,2481,882,3642,6290,204,-57,262,234,-34
1,2781198,2481,882,3642,6290,204,-57,262,234,-34
1,2781210,2477,895,3644,6290,204,-57,262,234,-34
1,2781224,2478,878,3644,6295,211,-51,262,234,-34
1,2781238,2478,878,3644,6295,211,-51,262,234,-34
1,2781252,2476,870,3645,6286,209,-62,262,234,-34
1,2781265,2478,867,3651,6289,207,-59,255,235,-23
1,2781279,2478,867,3651,6289,207,-59,255,235,-23
1,2781290,2476,856,3645,6283,200,-51,255,235,-23
1,2781298,2476,856,3645,6283,200,-51,255,235,-23
1,2781306,2478,866,3649,6287,204,-62,255,235,-23
1,2781321,2478,866,3649,6287,204,-62,255,235,-23
1,2781334,2479,855,3651,6286,203,-59,255,235,-23
1,2781349,2483,859,3649,6293,205,-65,255,235,-23
1,2781359,2483,859,3649,6293,205,-65,255,235,-23
1,2781373,2482,854,3649,6283,210,-50,255,235,-23
1,2781387,2477,875,3649,6288,213,-57,247,233,-27
1,2781403,2477,875,3649,6288,213,-57,247,233,-27
1,2781413,2481,868,3650,6284,207,-57,247,233,-27
1,2781428,2475,877,3644,6288,205,-55,247,233,-27
1,2781442,2475,877,3644,6288,205,-55,247,233,-27
1,2781455,2478,868,3645,6290,205,-59,247,233,-27
1,2781469,2476,883,3645,6288,201,-52,247,233,-27
1,2781484,2481,867,3649,6289,198,-61,247,233,-27
1,2781496,2481,867,3649,6289,198,-61,247,233,-27
1,2781508,2478,874,3645,6293,196,-59,247,233,-27
1,2781521,2478,874,3645,6293,196,-59,247,233,-27
1,2781536,2483,859,3652,6296,203,-60,247,227,-29
1,2781550,2483,873,3649,6297,206,-64,247,227,-29
1,2781564,2481,859,3652,6288,206,-59,247,227,-29
1,2781576,2481,859,3652,6288,206,-59,247,227,-29
1,2781591,2479,858,3646,6285,201,-58,247,227,-29
1,2781605,2484,857,3643,6286,202,-57,247,227,-29
1,2781618,2484,857,3643,6286,202,-57,247,227,-29
1,2781632,2477,851,3641,6294,207,-56,247,227,-29
1,2781646,2477,854,3647,6288,205,-59,245,237,-39
1,2781662,2477,854,3647,6288,205,-59,245,237,-39
1,2781675,2479,859,3644,6290,204,-59,245,237,-39
1,2781689,2479,865,3646,6281,203,-55,245,237,-39
1,2781703,2479,865,3646,6281,203,-55,245,237,-39
1,2781715,2480,866,3641,6289,203,-60,245,237,-39
1,2781730,2481,869,3645,6285,204,-61,245,237,-39
1,2781744,2481,869,3645,6285,204,-61,245,237,-39
1,2781758,2481,869,3645,6285,204,-61,245,237,-39
1,2781771,2478,892,3646,6283,201,-64,248,238,-28
1,2781786,2481,879,3644,6283,210,-61,248,238,-28
1,2781800,2481,879,3644,6283,210,-61,248,238,-28
1,2781811,2480,884,3638,6292,204,-63,248,238,-28
1,2781826,2479,870,3640,6286,205,-52,248,238,-28
1,2781842,2479,870,3640,6286,205,-52,248,238,-28
1,2781856,2476,871,3644,6287,208,-47,248,238,-28
1,2781869,2480,861,3646,6287,208,-55,248,238,-28
1,2781882,2480,861,3646,6287,208,-55,248,238,-28
1,2781897,2481,855,3650,6290,206,-62,232,240,-28
1,2781911,2486,857,3656,6292,203,-64,232,240,-28
1,2781924,2483,854,3649,6292,207,-59,232,240,-28
1,2781938,2483,854,3649,6292,207,-59,232,240,-28
1,2781953,2482,857,3650,6292,203,-57,232,240,-28
1,2781964,2482,858,3645,6287,205,-54,232,240,-28
1,2781978,2482,858,3645,6287,205,-54,232,240,-28
1,2781990,2477,861,3642,6288,204,-52,232,240,-28
1,2782004,2480,861,3636,6287,207,-63,232,240,-28
1,2782019,2480,861,3636,6287,207,-63,232,240,-28
1,2782032,2475,869,3645,6290,209,-61,229,243,-39
1,2782045,2478,864,3649,6290,210,-61,229,243,-39
1,2782060,2478,864,3649,6290,210,-61,229,243,-39
1,2782074,2480,869,3645,6288,202,-57,229,243,-39
1,2782090,2480,867,3648,6288,204,-56,229,243,-39
1,2782101,2480,867,3648,6288,204,-56,229,243,-39
1,2782115,2475,874,3652,6292,206,-58,229,243,-39
1,2782130,2479,866,3644,6292,207,-63,229,243,-39
1,2782143,2479,866,3644,6292,207,-63,229,243,-39
1,2782156,2482,869,3649,6283,208,-62,218,238,-42
1,2782171,2482,862,3649,6282,209,-61,218,238,-42
1,2782183,2482,862,3649,6282,209,-61,218,238,-42
1,2782192,2478,863,3641,6287,208,-54,218,238,-42
1,2782205,2482,855,3640,6282,199,-52,218,238,-42
1,2782218,2482,855,3640,6282,199,-52,218,238,-42
1,2782228,2477,857,3640,6286,209,-60,218,238,-42
1,2782241,2477,857,3640,6286,209,-60,218,238,-42
1,2782256,2480,855,3644,6287,204,-64,218,238,-42
1,2782270,2479,865,3640,6285,204,-60,219,241,-47
1,2782286,2481,862,3648,6283,202,-58,219,241,-47
1,2782302,2481,862,3648,6283,202,-58,219,241,-47
1,2782316,2483,868,3637,6274,199,-58,219,241,-47
1,2782329,2483,885,3646,6281,207,-54,219,241,-47
1,2782345,2481,884,3638,6282,205,-52,219,241,-47
1,2782356,2481,884,3638,6282,205,-52,219,241,-47
1,2782368,2479,887,3643,6281,203,-56,219,241,-47
1,2782383,2479,887,3643,6281,203,-56,219,241,-47
1,2782392,2479,880,3643,6285,203,-55,217,237,-47
1,2782402,2479,880,3643,6285,203,-55,217,237,-47
1,2782416,2481,891,3646,6281,206,-59,217,237,-47
1,2782430,2479,874,3643,6286,198,-52,217,237,-47
1,2782443,2479,874,3643,6286,198,-52,217,237,-47
1,2782458,2476,868,3643,6290,206,-52,217,237,-47
1,2782473,2483,867,3647,6290,208,-58,217,237,-47
1,2782487,2479,858,3647,6288,203,-52,217,237,-47
1,2782499,2479,858,3647,6288,203,-52,217,237,-47
1,2782514,2483,861,3645,6286,211,-53,217,237,-47
1,2782529,2477,859,3648,6281,212,-57,222,240,-66
1,2782545,2479,869,3647,6288,205,-54,222,240,-66
1,2782560,2479,869,3647,6288,205,-54,222,240,-66
1,2782573,2482,858,3648,6287,208,-57,222,240,-66
1,2782585,2477,872,3636,6286,204,-61,222,240,-66
1,2782601,2477,872,3636,6286,204,-61,222,240,-66
1,2782614,2481,884,3642,6282,210,-55,222,240,-66
1,2782627,2479,871,3641,6282,210,-56,222,240,-66
1,2782642,2479,871,3641,6282,210,-56,222,240,-66
1,2782658,2477,869,3649,6288,202,-56,223,235,-63
1,2782672,2483,874,3646,6291,206,-46,223,235,-63
1,2782686,2479,876,3647,6294,207,-43,223,235,-63
1,2782698,2479,876,3647,6294,207,-43,223,235,-63
1,2782712,2479,871,3650,6286,205,-56,223,235,-63
1,2782726,2479,859,3641,6282,205,-58,223,235,-63
1,2782740,2479,859,3641,6282,205,-58,223,235,-63
1,2782755,2481,864,3642,6287,204,-60,223,235,-63
1,2782770,2479,861,3649,6285,206,-60,224,220,-76
1,2782785,2475,861,3641,6288,211,-61,224,220,-76
1,2782798,2475,861,3641,6288,211,-61,224,220,-76
1,2782811,2481,854,3644,6286,214,-63,224,220,-76
1,2782824,2481,854,3644,6286,214,-63,224,220,-76
1,2782835,2477,855,3646,6277,210,-55,224,220,-76
1,2782850,2476,859,3650,6283,203,-58,224,220,-76
1,2782863,2476,859,3650,6283,203,-58,224,220,-76
1,2782874,2480,872,3647,6282,209,-61,224,220,-76
1,2782889,2482,868,3654,6289,208,-54,219,227,-73
1,2782903,2482,868,3654,6289,208,-54,219,227,-73
1,2782916,2478,866,3641,6277,207,-62,219,227,-73
1,2782929,2478,872,3646,6275,211,-58,219,227,-73
1,2782944,2478,872,3646,6275,211,-58,219,227,-73
1,2782957,2478,894,3641,6284,211,-55,219,227,-73
1,2782967,2477,884,3644,6288,207,-54,219,227,-73
1,2782982,2477,884,3644,6288,207,-54,219,227,-73
1,2782998,2480,871,3642,6287,204,-63,219,227,-73
1,2783013,2480,891,3649,6286,213,-65,233,229,-85
1,2783030,2476,880,3651,6286,210,-52,233,229,-85
1,2783043,2476,880,3651,6286,210,-52,233,229,-85
1,2783055,2482,879,3651,6291,207,-56,233,229,-85
1,2783069,2481,857,3647,6290,200,-56,233,229,-85
1,2783082,2481,857,3647,6290,200,-56,233,229,-85
1,2783096,2483,863,3649,6284,200,-51,233,229,-85
1,2783110,2483,861,3642,6291,205,-47,233,229,-85
1,2783122,2483,861,3642,6291,205,-47,233,229,-85
1,2783134,2472,866,3644,6296,205,-54,233,229,-85
1,2783148,2482,864,3643,6288,208,-64,219,221,-91
1,2783161,2482,864,3643,6288,208,-64,219,221,-91
1,2783175,2482,864,3643,6288,208,-64,219,221,-91
1,2783187,2474,861,3648,6288,206,-47,219,221,-91
1,2783201,2474,861,3648,6288,206,-47,219,221,-91
1,2783216,2483,868,3641,6285,209,-61,219,221,-91
1,2783228,2481,872,3639,6286,205,-62,219,221,-91
1,2783241,2481,872,3639,6286,205,-62,219,221,-91
1,2783256,2482,866,3646,6288,204,-57,219,221,-91
1,2783270,2479,864,3646,6290,200,-61,224,216,-108
1,2783284,2479,874,3649,6285,205,-62,224,216,-108
1,2783298,2479,874,3649,6285,205,-62,224,216,-108
1,2783311,2478,879,3649,6279,200,-62,224,216,-108
1,2783324,2478,879,3649,6279,200,-62,224,216,-108
1,2783337,2480,863,3646,6283,205,-57,224,216,-108
1,2783350,2477,867,3651,6287,209,-48,224,216,-108
1,2783365,2481,864,3644,6287,212,-53,224,216,-108
1,2783377,2481,864,3644,6287,212,-53,224,216,-108
1,2783390,2481,868,3652,6291,206,-57,228,220,-114
1,2783401,2481,868,3652,6291,206,-57,228,220,-114
1,2783415,2483,859,3647,6284,201,-56,228,220,-114
1,2783429,2484,859,3646,6281,200,-55,228,220,-114
1,2783443,2484,859,3646,6281,200,-55,228,220,-114
1,2783459,2485,860,3643,6282,197,-56,228,220,-114
1,2783472,2476,866,3646,6286,206,-58,228,220,-114
1,2783485,2480,863,3644,6285,210,-61,228,220,-114
1,2783501,2480,863,3644,6285,210,-61,228,220,-114
1,2783516,2482,863,3641,6282,206,-64,238,228,-114
1,2783532,2481,868,3650,6286,204,-58,238,228,-114
1,2783545,2478,872,3645,6286,210,-52,238,228,-114
1,2783557,2478,872,3645,6286,210,-52,238,228,-114
1,2783570,2479,892,3647,6279,212,-58,238,228,-114
1,2783585,2478,875,3649,6286,208,-58,238,228,-114
1,2783598,2478,875,3649,6286,208,-58,238,228,-114
1,2783612,2483,858,3648,6287,207,-60,238,228,-114
1,2783624,2484,875,3639,6289,209,-57,238,228,-114
1,2783636,2484,875,3639,6289,209,-57,238,228,-114
1,2783650,2476,879,3653,6286,209,-55,252,232,-124
1,2783664,2476,879,3653,6286,209,-55,252,232,-124
1,2783678,2478,859,3648,6288,205,-58,252,232,-124
1,2783693,2472,851,3640,6292,210,-65,252,232,-124
1,2783709,2481,867,3640,6286,204,-56,252,232,-124
1,2783723,2481,867,3640,6286,204,-56,252,232,-124
1,2783736,2476,864,3640,6283,208,-50,252,232,-124
1,2783751,2474,866,3637,6281,204,-58,252,232,-124
1,2783765,2479,865,3643,6284,210,-62,263,221,-133
1,2783776,2479,865,3643,6284,210,-62,263,221,-133
1,2783790,2480,869,3651,6287,208,-54,263,221,-133
1,2783803,2480,869,3651,6287,208,-54,263,221,-133
1,2783816,2480,868,3641,6288,203,-54,263,221,-133
1,2783831,2472,888,3646,6290,211,-56,263,221,-133
1,2783842,2472,888,3646,6290,211,-56,263,221,-133
1,2783854,2479,877,3643,6285,210,-57,263,221,-133
1,2783869,2482,881,3641,6280,202,-55,263,221,-133
1,2783883,2482,881,3641,6280,202,-55,263,221,-133
1,2783896,2476,868,3643,6282,204,-56,274,230,-142
1,2783911,2478,890,3645,6289,212,-54,274,230,-142
1,2783927,2478,868,3648,6288,211,-57,274,230,-142
1,2783941,2478,868,3648,6288,211,-57,274,230,-142
1,2783954,2480,867,3647,6290,210,-55,274,230,-142
1,2783969,2481,849,3647,6286,208,-53,274,230,-142
1,2783979,2481,849,3647,6286,208,-53,274,230,-142
1,2783992,2477,870,3648,6291,209,-53,274,230,-142
1,2784006,2480,861,3648,6291,207,-55,276,220,-144
1,2784019,2480,861,3648,6291,207,-55,276,220,-144
1,2784033,2477,867,3650,6288,208,-61,276,220,-144
1,2784047,2482,857,3642,6280,215,-58,276,220,-144
1,2784063,2482,857,3642,6280,215,-58,276,220,-144
1,2784075,2478,870,3648,6284,211,-55,276,220,-144
1,2784089,2479,866,3647,6290,212,-54,276,220,-144
1,2784102,2479,866,3647,6290,212,-54,276,220,-144
1,2784115,2477,870,3645,6290,210,-57,276,220,-144
1,2784130,2482,863,3639,6282,206,-56,276,220,-144
1,2784143,2482,863,3639,6282,206,-56,276,220,-144
1,2784156,2478,881,3646,6277,209,-49,285,213,-149
1,2784168,2476,894,3644,6288,205,-48,285,213,-149
1,2784182,2476,894,3644,6288,205,-48,285,213,-149
1,2784196,2477,888,3650,6283,208,-56,285,213,-149
1,2784211,2479,888,3639,6276,205,-64,285,213,-149
1,2784226,2482,875,3650,6285,208,-51,285,213,-149
1,2784240,2482,875,3650,6285,208,-51,285,213,-149
1,2784253,2480,881,3646,6289,203,-54,285,213,-149
1,2784268,2479,862,3653,6290,206,-54,294,220,-152
1,2784280,2479,862,3653,6290,206,-54,294,220,-152
1,2784291,2478,863,3648,6289,208,-52,294,220,-152
1,2784306,2482,859,3646,6289,206,-53,294,220,-152
1,2784319,2482,859,3646,6289,206,-53,294,220,-152
1,2784333,2474,861,3646,6285,212,-57,294,220,-152
1,2784345,2474,861,3646,6285,212,-57,294,220,-152
1,2784357,2474,861,3646,6285,212,-57,294,220,-152
1,2784371,2478,867,3645,6284,202,-56,294,220,-152
1,2784385,2482,868,3652,6282,207,-62,301,221,-153
1,2784399,2482,868,3652,6282,207,-62,301,221,-153
1,2784414,2482,868,3644,6287,202,-57,301,221,-153
1,2784430,2483,880,3651,6286,205,-55,301,221,-153
1,2784442,2483,880,3651,6286,205,-55,301,221,-153
1,2784452,2480,879,3652,6287,201,-56,301,221,-153
1,2784461,2480,879,3652,6287,201,-56,301,221,-153
1,2784470,2475,881,3641,6287,205,-55,301,221,-153
1,2784478,2475,881,3641,6287,205,-55,301,221,-153
1,2784491,2479,870,3639,6293,205,-54,301,221,-153
1,2784505,2479,874,3652,6291,209,-60,303,233,-143
1,2784520,2479,874,3652,6291,209,-60,303,233,-143
1,2784531,2484,867,3644,6288,208,-59,303,233,-143
1,2784543,2484,867,3644,6288,208,-59,303,233,-143
1,2784558,2481,876,3653,6286,211,-58,303,233,-143
1,2784571,2477,859,3643,6281,204,-54,303,233,-143
1,2784584,2477,859,3643,6281,204,-54,303,233,-143
1,2784596,2481,868,3646,6292,199,-53,303,233,-143
1,2784609,2481,868,3646,6292,199,-53,303,233,-143
1,2784623,2481,868,3646,6292,199,-53,303,233,-143
1,2784636,2475,874,3643,6292,203,-59,303,233,-143
1,2784651,2483,859,3651,6285,207,-56,310,210,-154
1,2784665,2481,866,3647,6285,203,-58,310,210,-154
1,2784679,2481,866,3647,6285,203,-58,310,210,-154
1,2784692,2481,863,3647,6286,206,-60,310,210,-154
1,2784707,2482,870,3642,6289,202,-58,310,210,-154
1,2784722,2482,870,3642,6289,202,-58,310,210,-154
1,2784738,2477,873,3642,6286,209,-56,310,210,-154
1,2784752,2481,893,3644,6280,210,-54,310,210,-154
1,2784764,2473,882,3653,6279,205,-58,310,210,-154
1,2784780,2473,882,3653,6279,205,-58,307,229,-147
1,2784793,2478,891,3650,6285,201,-61,307,229,-147
1,2784807,2480,896,3655,6285,205,-62,307,229,-147
1,2784821,2480,896,3655,6285,205,-62,307,229,-147
1,2784835,2478,878,3650,6289,203,-58,307,229,-147
1,2784849,2480,872,3648,6291,206,-56,307,229,-147
1,2784863,2480,872,3648,6291,206,-56,307,229,-147
1,2784876,2480,862,3650,6285,203,-60,307,229,-147
1,2784890,2480,868,3648,6291,205,-61,322,232,-146
1,2784904,2480,868,3648,6291,205,-61,322,232,-146
1,2784918,2479,856,3651,6285,202,-65,322,232,-146
1,2784932,2478,858,3643,6285,207,-58,322,232,-146
1,2784946,2483,854,3650,6286,207,-57,322,232,-146
1,2784960,2483,854,3650,6286,207,-57,322,232,-146
1,2784974,2478,865,3641,6291,202,-63,322,232,-146
1,2784989,2480,863,3644,6292,200,-60,322,232,-146
1,2785001,2480,863,3644,6292,200,-60,322,232,-146
1,2785015,2480,874,3644,6288,208,-64,322,238,-138
1,2785031,2481,866,3649,6288,211,-59,322,238,-138
1,2785044,2481,866,3649,6288,211,-59,322,238,-138
1,2785057,2482,871,3642,6289,206,-67,322,238,-138
1,2785072,2481,865,3648,6284,206,-65,322,238,-138
1,2785086,2479,871,3644,6292,205,-59,322,238,-138
1,2785095,2479,871,3644,6292,205,-59,322,238,-138
1,2785108,2481,863,3643,6284,203,-66,322,238,-138
1,2785123,2481,863,3643,6284,203,-66,322,238,-138
1,2785136,2480,868,3646,6293,212,-55,335,249,-141
1,2785148,2479,861,3656,6282,207,-62,335,249,-141
1,2785163,2479,861,3656,6282,207,-62,335,249,-141
1,2785177,2476,869,3643,6284,206,-55,335,249,-141
1,2785191,2476,864,3648,6283,212,-61,335,249,-141
1,2785206,2480,863,3647,6290,213,-59,335,249,-141
1,2785220,2480,863,3647,6290,213,-59,335,249,-141
1,2785233,2482,857,3648,6285,211,-64,335,249,-141
1,2785249,2481,862,3642,6290,208,-62,335,249,-141
1,2785262,2481,862,3642,6290,208,-62,335,249,-141
1,2785275,2482,860,3652,6294,205,-49,328,234,-130
1,2785290,2477,861,3640,6292,207,-55,328,234,-130
1,2785304,2477,861,3640,6292,207,-55,328,234,-130
1,2785317,2479,867,3640,6285,200,-57,328,234,-130
1,2785330,2479,868,3646,6289,206,-56,328,234,-130
1,2785343,2479,868,3646,6289,206,-56,328,234,-130
1,2785357,2477,883,3641,6284,208,-57,328,234,-130
1,2785371,2475,898,3645,6281,203,-58,328,234,-130
1,2785385,2477,885,3655,6283,210,-61,336,242,-128
1,2785396,2477,885,3655,6283,210,-61,336,242,-128
1,2785413,2480,890,3650,6282,201,-61,336,242,-128
1,2785425,2479,886,3644,6281,210,-59,336,242,-128
1,2785440,2479,886,3644,6281,210,-59,336,242,-128
1,2785453,2479,882,3646,6292,205,-56,336,242,-128
1,2785467,2481,866,3643,6298,205,-60,336,242,-128
1,2785481,2481,866,3643,6298,205,-60,336,242,-128
1,2785495,2478,861,3645,6292,208,-60,336,242,-128
1,2785508,2479,861,3652,6292,215,-61,327,241,-119
1,2785519,2479,861,3652,6292,215,-61,327,241,-119
1,2785533,2474,856,3646,6293,209,-59,327,241,-119
1,2785548,2478,871,3646,6291,210,-63,327,241,-119
1,2785561,2478,871,3646,6291,210,-63,327,241,-119
1,2785574,2477,860,3644,6283,211,-61,327,241,-119
1,2785589,2479,872,3654,6273,212,-58,327,241,-119
1,2785603,2479,872,3654,6273,212,-58,327,241,-119
1,2785614,2482,871,3646,6280,203,-57,327,241,-119
1,2785629,2478,889,3644,6286,209,-61,331,245,-113
1,2785641,2478,889,3644,6286,209,-61,331,245,-113
1,2785655,2480,871,3648,6285,203,-62,331,245,-113
1,2785667,2476,873,3644,6295,207,-61,331,245,-113
1,2785680,2476,873,3644,6295,207,-61,331,245,-113
1,2785694,2478,861,3646,6293,207,-55,331,245,-113
1,2785709,2474,880,3645,6291,212,-58,331,245,-113
1,2785723,2474,880,3645,6291,212,-58,331,245,-113
1,2785734,2476,859,3645,6286,209,-58,331,245,-113
1,2785748,2476,870,3649,6290,211,-60,331,245,-113
1,2785763,2476,870,3649,6290,211,-60,331,245,-113
1,2785776,2484,857,3652,6292,211,-60,321,247,-99
1,2785789,2477,875,3653,6291,208,-54,321,247,-99
1,2785802,2477,875,3653,6291,208,-54,321,247,-99
1,2785816,2481,857,3648,6282,203,-54,321,247,-99
1,2785830,2475,862,3651,6284,199,-57,321,247,-99
1,2785844,2475,862,3651,6284,199,-57,321,247,-99
1,2785857,2483,853,3642,6287,212,-56,321,247,-99
1,2785872,2476,866,3644,6288,206,-55,321,247,-99
1,2785884,2476,866,3644,6288,206,-55,321,247,-99
1,2785897,2476,866,3644,6288,206,-55,319,245,-99
1,2785912,2475,871,3648,6281,206,-58,319,245,-99
1,2785922,2475,871,3648,6281,206,-58,319,245,-99
1,2785937,2479,865,3645,6281,206,-61,319,245,-99
1,2785952,2479,886,3643,6282,210,-59,319,245,-99
1,2785966,2479,893,3646,6280,204,-56,319,245,-99
1,2785979,2479,893,3646,6280,204,-56,319,245,-99
1,2785992,2480,890,3650,6284,208,-62,319,245,-99
1,2786007,2479,881,3648,6280,204,-67,320,248,-84
1,2786021,2479,881,3648,6280,204,-67,320,248,-84
1,2786034,2480,881,3645,6283,204,-62,320,248,-84
1,2786048,2476,884,3643,6283,210,-61,320,248,-84
1,2786059,2476,884,3643,6283,210,-61,320,248,-84
1,2786071,2477,867,3642,6289,207,-58,320,248,-84
1,2786085,2481,860,3642,6290,215,-61,320,248,-84
1,2786099,2481,860,3642,6290,215,-61,320,248,-84
1,2786115,2481,854,3649,6295,207,-57,320,248,-84
1,2786131,2477,859,3650,6285,212,-49,312,238,-84
1,2786146,2479,867,3648,6284,209,-59,312,238,-84
1,2786160,2479,867,3648,6284,209,-59,312,238,-84
1,2786171,2479,864,3646,6288,207,-63,312,238,-84
1,2786185,2483,866,3647,6282,210,-55,312,238,-84
1,2786198,2483,866,3647,6282,210,-55,312,238,-84
1,2786212,2479,874,3639,6285,207,-62,312,238,-84
1,2786227,2476,878,3646,6285,209,-58,312,238,-84
1,2786238,2476,878,3646,6285,209,-58,312,238,-84
1,2786250,2477,871,3641,6289,211,-63,312,238,-84
1,2786264,2477,871,3641,6289,211,-63,312,238,-84
1,2786277,2478,868,3642,6285,205,-57,311,237,-79
1,2786292,2475,868,3641,6286,208,-51,311,237,-79
1,2786306,2476,872,3643,6288,205,-55,311,237,-79
1,2786318,2476,872,3643,6288,205,-55,311,237,-79
1,2786333,2479,868,3641,6288,205,-61,311,237,-79
1,2786349,2483,866,3645,6288,210,-64,311,237,-79
1,2786364,2483,866,3645,6288,210,-64,311,237,-79
1,2786377,2482,868,3645,6282,209,-61,311,237,-79
1,2786390,2480,873,3644,6289,206,-56,304,238,-60
1,2786403,2480,873,3644,6289,206,-56,304,238,-60
1,2786416,2479,865,3646,6292,206,-59,304,238,-60
1,2786430,2479,859,3642,6285,213,-56,304,238,-60
1,2786444,2479,859,3642,6285,213,-56,304,238,-60
1,2786456,2480,857,3644,6287,208,-59,304,238,-60
1,2786468,2479,866,3639,6290,206,-58,304,238,-60
1,2786477,2479,866,3639,6290,206,-58,304,238,-60
1,2786486,2478,870,3644,6289,203,-56,304,238,-60
1,2786499,2478,870,3644,6289,203,-56,304,238,-60
1,2786513,2480,865,3645,6282,197,-58,302,238,-64
1,2786525,2480,865,3645,6282,197,-58,302,238,-64
1,2786540,2483,874,3645,6278,205,-57,302,238,-64
1,2786552,2481,894,3646,6281,202,-58,302,238,-64
1,2786568,2477,896,3650,6284,208,-47,302,238,-64
1,2786582,2477,896,3650,6284,208,-47,302,238,-64
1,2786597,2481,885,3642,6281,212,-56,302,238,-64
1,2786610,2479,883,3647,6288,210,-59,302,238,-64
1,2786622,2479,883,3647,6288,210,-59,302,238,-64
1,2786635,2474,881,3648,6296,207,-52,295,235,-51
1,2786649,2474,880,3644,6293,205,-61,295,235,-51
1,2786663,2474,880,3644,6293,205,-61,295,235,-51
1,2786677,2479,863,3638,6295,206,-60,295,235,-51
1,2786691,2484,861,3644,6291,210,-54,295,235,-51
1,2786703,2484,861,3644,6291,210,-54,295,235,-51
1,2786716,2482,855,3649,6296,202,-53,295,235,-51
1,2786731,2476,864,3650,6287,200,-53,295,235,-51
1,2786745,2476,864,3650,6287,200,-53,295,235,-51
1,2786760,2482,867,3653,6281,207,-64,295,235,-51
1,2786776,2480,868,3651,6287,204,-63,280,238,-40
1,2786789,2478,870,3643,6282,199,-54,280,238,-40
1,2786803,2478,870,3643,6282,199,-54,280,238,-40
1,2786813,2478,874,3641,6281,205,-54,280,238,-40
1,2786826,2474,873,3642,6291,203,-60,280,238,-40
1,2786842,2474,873,3642,6291,203,-60,280,238,-40
1,2786856,2478,867,3641,6291,200,-61,280,238,-40
1,2786871,2479,865,3642,6299,200,-64,280,238,-40
1,2786884,2479,865,3642,6299,200,-64,280,238,-40
1,2786898,2479,872,3650,6290,203,-64,279,237,-37
1,2786913,2478,878,3648,6290,209,-64,279,237,-37
1,2786925,2480,869,3650,6284,205,-58,279,237,-37
1,2786938,2480,869,3650,6284,205,-58,279,237,-37
1,2786953,2479,869,3649,6284,207,-56,279,237,-37
1,2786966,2480,866,3644,6290,205,-61,279,237,-37
1,2786980,2480,866,3644,6290,205,-61,279,237,-37
1,2786996,2481,867,3646,6288,199,-55,279,237,-37
1,2787011,2481,867,3646,6288,199,-55,267,231,-39
1,2787026,2478,863,3643,6283,210,-57,267,231,-39
1,2787042,2478,863,3643,6283,210,-57,267,231,-39
1,2787055,2477,862,3646,6275,205,-56,267,231,-39
1,2787069,2479,867,3640,6279,208,-56,267,231,-39
1,2787084,2479,867,3640,6279,208,-56,267,231,-39
1,2787098,2480,867,3641,6292,213,-67,267,231,-39
1,2787109,2478,867,3645,6287,213,-61,267,231,-39
1,2787123,2478,867,3645,6287,213,-61,267,231,-39
1,2787137,2480,879,3646,6279,203,-61,258,230,-26
1,2787150,2478,896,3653,6282,205,-63,258,230,-26
1,2787165,2478,896,3653,6282,205,-63,258,230,-26
1,2787176,2479,885,3649,6282,205,-61,258,230,-26
1,2787188,2478,881,3646,6279,213,-59,258,230,-26
1,2787202,2478,881,3646,6279,213,-59,258,230,-26
1,2787216,2482,890,3646,6284,208,-62,258,230,-26
1,2787230,2476,879,3644,6288,208,-61,258,230,-26
1,2787246,2476,879,3644,6288,208,-61,258,230,-26
1,2787257,2480,881,3644,6290,204,-58,264,232,-28
1,2787272,2478,858,3646,6289,200,-63,264,232,-28
1,2787287,2483,866,3650,6286,203,-66,264,232,-28
1,2787301,2483,866,3650,6286,203,-66,264,232,-28
1,2787315,2483,855,3645,6285,207,-59,264,232,-28
1,2787328,2472,870,3643,6284,202,-54,264,232,-28
1,2787340,2472,870,3643,6284,202,-54,264,232,-28
1,2787353,2485,866,3649,6280,208,-61,264,232,-28
1,2787367,2474,867,3647,6280,205,-59,264,232,-28
1,2787380,2474,867,3647,6280,205,-59,264,232,-28
1,2787392,2484,867,3645,6285,202,-58,260,230,-34
1,2787405,2477,876,3650,6284,204,-58,260,230,-34
1,2787418,2477,876,3650,6284,204,-58,260,230,-34
1,2787432,2475,869,3643,6281,209,-55,260,230,-34
1,2787446,2481,869,3644,6277,210,-55,260,230,-34
1,2787458,2481,869,3644,6277,210,-55,260,230,-34
1,2787472,2479,878,3647,6292,208,-60,260,230,-34
1,2787486,2478,882,3648,6289,206,-62,260,230,-34
1,2787499,2478,882,3648,6289,206,-62,260,230,-34
1,2787512,2477,876,3655,6293,205,-60,248,238,-26
1,2787526,2478,870,3655,6294,209,-56,248,238,-26
1,2787539,2478,870,3655,6294,209,-56,248,238,-26
1,2787553,2481,872,3651,6295,209,-58,248,238,-26
1,2787567,2478,861,3646,6291,203,-59,248,238,-26
1,2787581,2478,861,3646,6291,203,-59,248,238,-26
1,2787594,2478,864,3644,6293,203,-54,248,238,-26
1,2787607,2481,858,3641,6296,203,-60,248,238,-26
1,2787621,2481,858,3641,6296,203,-60,248,238,-26
1,2787635,2480,856,3642,6293,200,-56,241,237,-27
1,2787649,2480,858,3642,6290,204,-63,241,237,-27
1,2787664,2480,858,3642,6290,204,-63,241,237,-27
1,2787680,2475,864,3646,6286,204,-70,241,237,-27
1,2787695,2481,864,3642,6288,202,-63,241,237,-27
1,2787708,2480,866,3645,6287,204,-62,241,237,-27
1,2787723,2480,866,3645,6287,204,-62,241,237,-27
1,2787737,2480,871,3644,6280,198,-59,241,237,-27
1,2787749,2480,888,3643,6281,203,-60,235,241,-35
1,2787762,2480,888,3643,6281,203,-60,235,241,-35
1,2787776,2479,893,3647,6283,206,-61,235,241,-35
1,2787789,2478,882,3647,6279,204,-58,235,241,-35
1,2787803,2478,882,3647,6279,204,-58,235,241,-35
1,2787816,2477,880,3642,6282,207,-68,235,241,-35
1,2787828,2477,880,3641,6287,210,-59,235,241,-35
1,2787842,2477,880,3641,6287,210,-59,235,241,-35
1,2787856,2477,876,3652,6293,210,-53,235,241,-35
1,2787869,2480,854,3649,6291,207,-66,235,241,-35
1,2787884,2480,854,3649,6291,207,-66,235,241,-35
1,2787895,2477,864,3651,6289,203,-68,228,238,-30
1,2787909,2479,861,3642,6290,200,-60,228,238,-30
1,2787924,2479,861,3642,6290,200,-60,228,238,-30
1,2787939,2475,865,3647,6290,203,-56,228,238,-30
1,2787954,2481,858,3645,6285,201,-58,228,238,-30
1,2787965,2481,858,3645,6285,201,-58,228,238,-30
1,2787979,2478,867,3645,6281,204,-60,228,238,-30
1,2787993,2483,860,3644,6285,207,-62,228,238,-30
1,2788006,2476,867,3649,6289,205,-65,233,245,-39
1,2788019,2476,867,3649,6289,205,-65,233,245,-39
1,2788034,2477,871,3641,6280,209,-55,233,245,-39
1,2788046,2479,874,3642,6284,206,-56,233,245,-39
1,2788060,2479,874,3642,6284,206,-56,233,245,-39
1,2788073,2476,869,3639,6282,201,-60,233,245,-39
1,2788086,2477,873,3646,6289,203,-58,233,245,-39
1,2788101,2477,873,3646,6289,203,-58,233,245,-39
1,2788116,2476,871,3645,6290,203,-57,233,245,-39
1,2788130,2480,868,3645,6282,204,-62,229,235,-37
1,2788144,2480,868,3645,6282,204,-62,229,235,-37
1,2788158,2480,869,3647,6279,207,-58,229,235,-37
1,2788172,2481,863,3648,6284,202,-60,229,235,-37
1,2788185,2481,863,3648,6284,202,-60,229,235,-37
1,2788195,2480,864,3642,6288,207,-68,229,235,-37
1,2788209,2478,859,3638,6292,208,-71,229,235,-37
1,2788222,2478,859,3638,6292,208,-71,229,235,-37
1,2788237,2477,859,3639,6294,210,-61,229,235,-37
1,2788248,2478,862,3644,6291,207,-62,230,244,-42
1,2788261,2478,862,3644,6291,207,-62,230,244,-42
1,2788275,2476,867,3646,6279,206,-56,230,244,-42
1,2788289,2480,861,3647,6289,207,-63,230,244,-42
1,2788304,2480,861,3647,6289,207,-63,230,244,-42
1,2788319,2484,868,3646,6296,208,-61,230,244,-42
1,2788334,2482,874,3643,6291,206,-67,230,244,-42
1,2788349,2477,897,3643,6282,204,-61,230,244,-42
1,2788363,2477,897,3643,6282,204,-61,230,244,-42
1,2788377,2473,885,3643,6288,204,-63,230,244,-42
1,2788391,2478,886,3640,6286,202,-61,230,240,-48
1,2788406,2477,887,3646,6284,199,-59,230,240,-48
1,2788417,2477,887,3646,6284,199,-59,230,240,-48
1,2788431,2474,884,3643,6280,206,-53,230,240,-48
1,2788445,2474,884,3643,6280,206,-53,230,240,-48
1,2788458,2476,875,3644,6291,205,-58,230,240,-48
1,2788473,2478,859,3648,6289,206,-56,230,240,-48
1,2788488,2482,865,3645,6292,207,-54,230,240,-48
1,2788500,2482,865,3645,6292,207,-54,230,240,-48
1,2788513,2476,858,3653,6294,201,-58,217,239,-55
1,2788527,2476,872,3646,6290,204,-62,217,239,-55
1,2788540,2476,872,3646,6290,204,-62,217,239,-55
1,2788554,2481,868,3647,6287,208,-65,217,239,-55
1,2788570,2473,863,3647,6288,211,-60,217,239,-55
1,2788584,2473,863,3647,6288,211,-60,217,239,-55
1,2788596,2483,858,3643,6284,205,-60,217,239,-55
1,2788611,2474,874,3645,6283,207,-60,217,239,-55
1,2788625,2474,874,3645,6283,207,-60,217,239,-55
1,2788638,2478,869,3648,6281,204,-66,221,235,-51
1,2788652,2481,872,3641,6283,210,-53,221,235,-51
1,2788666,2481,870,3647,6286,202,-59,221,235,-51
1,2788679,2481,870,3647,6286,202,-59,221,235,-51
1,2788692,2479,877,3644,6292,199,-58,221,235,-51
1,2788707,2480,870,3647,6299,203,-58,221,235,-51
1,2788720,2480,870,3647,6299,203,-58,221,235,-51
1,2788731,2478,867,3645,6289,207,-58,221,235,-51
1,2788745,2478,867,3645,6289,207,-58,221,235,-51
1,2788758,2484,863,3650,6282,205,-59,228,240,-72
1,2788772,2477,859,3642,6284,208,-67,228,240,-72
1,2788787,2476,861,3646,6291,205,-57,228,240,-72
1,2788798,2476,861,3646,6291,205,-57,228,240,-72
1,2788813,2479,860,3643,6290,202,-62,228,240,-72
1,2788829,2475,859,3644,6284,203,-58,228,240,-72
1,2788844,2475,859,3644,6284,203,-58,228,240,-72
1,2788857,2478,863,3637,6291,201,-61,228,240,-72
1,2788870,2475,868,3649,6283,205,-56,228,240,-72
1,2788886,2475,868,3649,6283,205,-56,228,240,-72
1,2788900,2477,865,3648,6279,199,-58,221,231,-79
1,2788915,2479,870,3646,6280,200,-64,221,231,-79
1,2788928,2479,878,3639,6285,206,-65,221,231,-79
1,2788941,2479,878,3639,6285,206,-65,221,231,-79
1,2788957,2474,901,3646,6288,210,-56,221,231,-79
1,2788970,2472,880,3641,6286,206,-55,221,231,-79
1,2788982,2472,880,3641,6286,206,-55,221,231,-79
1,2788996,2476,874,3641,6285,203,-56,221,231,-79
1,2789009,2479,897,3647,6289,205,-56,224,220,-90
1,2789023,2479,897,3647,6289,205,-56,224,220,-90
1,2789039,2474,877,3649,6291,209,-53,224,220,-90
1,2789053,2476,885,3649,6289,201,-52,224,220,-90
1,2789068,2482,858,3640,6289,211,-53,224,220,-90
1,2789082,2482,858,3640,6289,211,-53,224,220,-90
1,2789096,2482,876,3650,6291,207,-53,224,220,-90
1,2789107,2479,855,3648,6287,208,-53,224,220,-90
1,2789120,2479,855,3648,6287,208,-53,224,220,-90
1,2789134,2472,874,3649,6293,199,-66,231,219,-87
1,2789147,2485,860,3646,6294,206,-62,231,219,-87
1,2789161,2485,860,3646,6294,206,-62,231,219,-87
1,2789175,2476,872,3642,6286,209,-56,231,219,-87
1,2789189,2478,860,3646,6283,201,-63,231,219,-87
1,2789202,2478,860,3646,6283,201,-63,231,219,-87
1,2789218,2475,872,3636,6284,200,-67,231,219,-87
1,2789232,2481,870,3648,6283,203,-61,231,219,-87
1,2789246,2476,868,3649,6286,207,-55,226,222,-102
1,2789261,2476,868,3649,6286,207,-55,226,222,-102
1,2789275,2481,866,3650,6288,207,-59,226,222,-102
1,2789289,2480,881,3650,6282,208,-60,226,222,-102
1,2789304,2480,881,3650,6282,208,-60,226,222,-102
1,2789318,2479,871,3648,6289,205,-59,226,222,-102
1,2789332,2476,869,3646,6291,208,-54,226,222,-102
1,2789343,2476,869,3646,6291,208,-54,226,222,-102
1,2789355,2481,868,3648,6289,204,-53,226,222,-102
1,2789371,2476,865,3640,6286,208,-57,230,220,-108
1,2789387,2480,860,3648,6290,209,-58,230,220,-108
1,2789400,2480,860,3648,6290,209,-58,230,220,-108
1,2789413,2475,857,3643,6292,209,-56,230,220,-108
1,2789428,2480,860,3648,6290,206,-52,230,220,-108
1,2789441,2480,860,3648,6290,206,-52,230,220,-108
1,2789455,2482,861,3641,6282,207,-52,230,220,-108
1,2789469,2479,861,3649,6285,208,-53,230,220,-108
1,2789484,2479,861,3649,6285,208,-53,230,220,-108
1,2789497,2484,865,3642,6286,208,-62,230,220,-108
1,2789512,2476,867,3647,6287,211,-58,236,224,-122
1,2789526,2476,867,3647,6287,211,-58,236,224,-122
1,2789538,2479,869,3639,6283,204,-55,236,224,-122
1,2789552,2476,879,3642,6283,205,-55,236,224,-122
1,2789567,2478,889,3638,6277,209,-54,236,224,-122
1,2789581,2478,889,3638,6277,209,-54,236,224,-122
1,2789595,2474,881,3643,6286,207,-60,236,224,-122
1,2789607,2478,877,3648,6283,212,-61,236,224,-122
1,2789622,2478,877,3648,6283,212,-61,236,224,-122
1,2789636,2480,877,3653,6289,210,-60,248,226,-130
1,2789649,2479,880,3656,6287,209,-63,248,226,-130
1,2789663,2479,880,3656,6287,209,-63,248,226,-130
1,2789677,2479,864,3653,6295,206,-56,248,226,-130
1,2789691,2481,867,3651,6289,206,-58,248,226,-130
1,2789706,2481,867,3651,6289,206,-58,248,226,-130
1,2789720,2478,858,3644,6290,207,-53,248,226,-130
1,2789733,2474,865,3639,6284,210,-55,248,226,-130
1,2789747,2479,857,3641,6299,208,-57,260,226,-136
1,2789761,2479,857,3641,6299,208,-57,260,226,-136
1,2789776,2473,857,3642,6294,206,-56,260,226,-136
1,2789787,2479,859,3644,6292,204,-57,260,226,-136
1,2789801,2479,859,3644,6292,204,-57,260,226,-136
1,2789817,2476,862,3644,6294,204,-54,260,226,-136
1,2789831,2477,871,3654,6280,210,-53,260,226,-136
1,2789846,2477,871,3654,6280,210,-53,260,226,-136
1,2789859,2481,868,3646,6281,209,-60,260,226,-136
1,2789873,2481,866,3646,6286,213,-54,273,225,-145
1,2789886,2479,866,3644,6286,204,-56,273,225,-145
1,2789895,2479,866,3644,6286,204,-56,273,225,-145
1,2789903,2479,866,3644,6286,204,-56,273,225,-145
1,2789910,2478,869,3648,6286,205,-65,273,225,-145
1,2789922,2478,869,3648,6286,205,-65,273,225,-145
1,2789934,2479,866,3638,6292,208,-49,273,225,-145
1,2789947,2477,858,3643,6284,201,-55,273,225,-145
1,2789961,2477,858,3643,6284,201,-55,273,225,-145
1,2789976,2477,861,3639,6282,208,-58,273,225,-145
1,2789987,2479,859,3645,6279,209,-64,273,225,-145
1,2790000,2479,859,3645,6279,209,-64,273,225,-145
1,2790014,2479,860,3640,6289,211,-57,279,229,-149
1,2790029,2480,858,3647,6280,207,-61,279,229,-149
1,2790044,2480,858,3647,6280,207,-61,279,229,-149
1,2790060,2481,861,3641,6283,204,-57,279,229,-149
1,2790075,2480,862,3653,6285,207,-55,279,229,-149
1,2790088,2477,865,3642,6284,199,-65,279,229,-149
1,2790103,2477,865,3642,6284,199,-65,279,229,-149
1,2790117,2475,864,3640,6295,208,-70,279,229,-149
1,2790128,2476,866,3638,6288,204,-64,279,219,-147
1,2790142,2476,866,3638,6288,204,-64,279,219,-147
1,2790156,2477,889,3644,6279,205,-52,279,219,-147
1,2790170,2476,888,3641,6286,208,-52,279,219,-147
1,2790183,2476,888,3641,6286,208,-52,279,219,-147
1,2790198,2477,885,3644,6280,209,-51,279,219,-147
1,2790212,2476,876,3641,6278,205,-53,279,219,-147
1,2790223,2476,876,3641,6278,205,-53,279,219,-147
1,2790238,2480,890,3645,6285,209,-58,279,219,-147
1,2790251,2479,884,3650,6286,203,-51,279,211,-151
1,2790265,2479,884,3650,6286,203,-51,279,211,-151
1,2790280,2475,871,3654,6284,204,-48,279,211,-151
1,2790295,2478,865,3646,6291,207,-55,279,211,-151
1,2790310,2475,854,3644,6296,204,-49,279,211,-151
1,2790326,2475,854,3644,6296,204,-49,279,211,-151
1,2790339,2472,861,3641,6292,201,-59,279,211,-151
1,2790353,2474,862,3648,6287,208,-54,279,211,-151
1,2790367,2480,860,3640,6285,198,-65,299,211,-151
1,2790379,2480,860,3640,6285,198,-65,299,219,-147
1,2790393,2483,861,3652,6283,201,-55,299,219,-147
1,2790407,2476,874,3644,6283,210,-62,299,219,-147
1,2790421,2476,874,3644,6283,210,-62,299,219,-147
1,2790434,2475,884,3651,6286,208,-63,299,219,-147
1,2790448,2474,885,3651,6291,205,-61,299,219,-147
1,2790462,2474,885,3651,6291,205,-61,299,219,-147
1,2790474,2474,866,3644,6292,200,-54,299,219,-147
1,2790490,2476,873,3644,6293,195,-56,299,219,-147
1,2790504,2476,873,3644,6293,195,-56,299,219,-147
1,2790519,2474,867,3651,6292,198,-54,313,221,-153
1,2790533,2471,875,3642,6281,202,-60,313,221,-153
1,2790545,2471,875,3642,6281,202,-60,313,221,-153
1,2790560,2477,864,3646,6291,206,-55,313,221,-153
1,2790574,2478,860,3646,6293,208,-59,313,221,-153
1,2790587,2479,858,3653,6282,208,-62,313,221,-153
1,2790600,2479,858,3653,6282,208,-62,313,221,-153
1,2790611,2477,867,3645,6297,209,-64,313,221,-153
1,2790626,2477,867,3645,6297,209,-64,313,221,-153
1,2790639,2480,867,3652,6293,202,-54,307,221,-153
1,2790652,2477,867,3645,6289,203,-52,307,221,-153
1,2790667,2477,863,3649,6290,208,-54,307,221,-153
1,2790681,2477,863,3649,6290,208,-54,307,221,-153
1,2790692,2480,869,3634,6290,206,-59,307,221,-153
1,2790707,2476,867,3641,6290,207,-66,307,221,-153
1,2790721,2476,867,3641,6290,207,-66,307,221,-153
1,2790733,2479,866,3640,6287,206,-61,307,221,-153
1,2790749,2481,884,3653,6289,204,-58,316,228,-138
1,2790763,2481,884,3653,6289,204,-58,316,228,-138
1,2790778,2475,875,3651,6289,205,-55,316,228,-138
1,2790792,2478,886,3654,6286,200,-55,316,228,-138
1,2790806,2478,886,3654,6286,200,-55,316,228,-138
1,2790819,2479,873,3646,6288,210,-62,316,228,-138
1,2790832,2477,888,3651,6289,207,-58,316,228,-138
1,2790846,2477,888,3651,6289,207,-58,316,228,-138
1,2790859,2476,871,3647,6296,204,-53,316,228,-138
1,2790874,2473,863,3650,6294,211,-57,334,228,-146
1,2790887,2482,864,3644,6293,212,-58,334,228,-146
1,2790900,2482,864,3644,6293,212,-58,334,228,-146
1,2790915,2474,856,3647,6287,208,-61,334,228,-146
1,2790927,2474,856,3647,6287,208,-61,334,228,-146
1,2790941,2478,853,3647,6290,211,-58,334,228,-146
1,2790957,2476,857,3646,6282,210,-61,334,228,-146
1,2790971,2477,857,3651,6282,210,-55,334,228,-146
1,2790984,2477,857,3651,6282,210,-55,334,228,-146
1,2790996,2479,857,3649,6282,205,-58,334,228,-146
1,2791010,2474,869,3645,6283,206,-55,332,238,-136
1,2791024,2474,869,3645,6283,206,-55,332,238,-136
1,2791038,2478,871,3649,6282,210,-62,332,238,-136
1,2791052,2477,868,3647,6280,204,-52,332,238,-136
1,2791066,2477,868,3647,6280,204,-52,332,238,-136
1,2791080,2479,865,3641,6281,209,-55,332,238,-136
1,2791094,2481,868,3642,6285,200,-56,332,238,-136
1,2791108,2478,866,3642,6278,212,-53,332,238,-136
1,2791121,2478,866,3642,6278,212,-53,332,238,-136
1,2791135,2477,864,3652,6291,209,-57,328,236,-132
1,2791150,2480,870,3650,6287,206,-62,328,236,-132
1,2791164,2480,870,3650,6287,206,-62,328,236,-132
1,2791178,2479,865,3650,6281,203,-58,328,236,-132
1,2791192,2478,864,3649,6283,209,-55,328,236,-132
1,2791206,2479,863,3644,6289,207,-56,328,236,-132
1,2791223,2479,863,3644,6289,207,-56,328,236,-132
1,2791235,2480,859,3646,6294,212,-66,328,236,-132
1,2791247,2478,863,3646,6292,207,-59,323,241,-131
1,2791262,2478,863,3646,6292,207,-59,323,241,-131
1,2791276,2475,862,3641,6287,207,-53,323,241,-131
1,2791289,2479,864,3641,6281,199,-60,323,241,-131
1,2791303,2479,864,3641,6281,199,-60,323,241,-131
1,2791317,2480,866,3645,6293,207,-63,323,241,-131
1,2791329,2481,866,3647,6292,208,-65,323,241,-131
1,2791343,2481,866,3647,6292,208,-65,323,241,-131
1,2791353,2475,893,3650,6287,210,-56,323,241,-131
1,2791364,2475,893,3650,6287,210,-56,323,241,-131
1,2791377,2479,887,3649,6282,212,-55,322,238,-128
1,2791391,2478,888,3647,6281,203,-61,322,238,-128
1,2791405,2478,888,3647,6281,203,-61,322,238,-128
1,2791419,2482,875,3642,6295,202,-60,322,238,-128
1,2791435,2480,893,3643,6293,203,-63,322,238,-128
1,2791449,2474,882,3652,6293,202,-64,322,238,-128
1,2791464,2474,882,3652,6293,202,-64,322,238,-128
1,2791478,2476,865,3645,6289,204,-62,322,238,-128
1,2791492,2484,853,3643,6290,207,-66,334,242,-128
1,2791506,2484,853,3643,6290,207,-66,334,242,-128
1,2791520,2479,857,3648,6287,207,-62,334,242,-128
1,2791531,2476,863,3652,6290,211,-57,334,242,-128
1,2791545,2476,863,3652,6290,211,-57,334,242,-128
1,2791559,2477,863,3647,6290,214,-54,334,242,-128
1,2791573,2480,860,3650,6292,213,-58,334,242,-128
1,2791586,2480,860,3650,6292,213,-58,334,242,-128
1,2791600,2482,863,3642,6287,213,-51,334,242,-128
1,2791612,2475,871,3646,6288,208,-54,334,242,-128
1,2791625,2475,871,3646,6288,208,-54,334,242,-128
1,2791640,2478,874,3648,6291,212,-68,328,244,-122
1,2791654,2476,872,3652,6287,208,-59,328,244,-122
1,2791667,2478,864,3639,6293,208,-52,328,244,-122
1,2791683,2478,864,3639,6293,208,-52,328,244,-122
1,2791696,2477,871,3647,6290,208,-50,328,244,-122
1,2791710,2475,872,3644,6289,207,-58,328,244,-122
1,2791725,2475,872,3644,6289,207,-58,328,244,-122
1,2791739,2481,872,3654,6282,209,-56,328,244,-122
1,2791751,2478,859,3647,6288,204,-60,327,237,-105
1,2791766,2478,859,3647,6288,204,-60,327,237,-105
1,2791779,2479,861,3647,6289,205,-56,327,237,-105
1,2791792,2482,865,3645,6285,206,-58,327,237,-105
1,2791806,2482,865,3645,6285,206,-58,327,237,-105
1,2791821,2482,865,3645,6285,206,-58,327,237,-105
1,2791833,2476,855,3647,6284,208,-54,327,237,-105
1,2791847,2480,861,3643,6284,204,-55,327,237,-105
1,2791861,2480,861,3643,6284,204,-55,327,237,-105
1,2791874,2479,862,3647,6283,205,-55,331,243,-105
1,2791888,2477,862,3646,6286,203,-54,331,243,-105
1,2791904,2477,862,3646,6286,203,-54,331,243,-105
1,2791920,2480,860,3642,6287,206,-56,331,243,-105
1,2791928,2480,863,3643,6289,203,-55,331,243,-105
1,2791941,2480,863,3643,6289,203,-55,331,243,-105
1,2791953,2478,870,3641,6286,200,-51,331,243,-105
1,2791968,2478,879,3645,6291,209,-57,331,243,-105
1,2791982,2478,879,3645,6291,209,-57,331,243,-105
1,2791996,2478,887,3648,6279,208,-60,317,245,-95
1,2792010,2480,878,3646,6287,208,-56,317,245,-95
1,2792024,2480,878,3646,6287,208,-56,317,245,-95
1,2792036,2477,881,3647,6280,205,-57,317,245,-95
1,2792051,2475,885,3646,6290,202,-57,317,245,-95
1,2792066,2475,885,3646,6290,202,-57,317,245,-95
1,2792079,2477,863,3652,6292,201,-62,317,245,-95
1,2792092,2481,855,3648,6290,204,-59,317,245,-95
1,2792107,2481,855,3648,6290,204,-59,317,245,-95
1,2792121,2479,856,3642,6290,205,-55,317,245,-95
1,2792134,2476,859,3648,6284,207,-61,311,241,-79
1,2792148,2475,864,3643,6284,207,-65,311,241,-79
1,2792163,2475,864,3643,6284,207,-65,311,241,-79
1,2792178,2479,863,3644,6284,210,-63,311,241,-79
1,2792193,2481,864,3646,6286,210,-63,311,241,-79
1,2792205,2481,864,3646,6286,210,-63,311,241,-79
1,2792220,2480,869,3645,6286,204,-58,311,241,-79
1,2792235,2479,872,3641,6284,206,-47,311,241,-79
1,2792248,2477,875,3649,6281,212,-52,311,245,-77
1,2792261,2477,875,3649,6281,212,-52,311,245,-77
1,2792275,2479,864,3646,6288,208,-55,311,245,-77
1,2792288,2477,872,3647,6283,207,-54,311,245,-77
1,2792302,2477,872,3647,6283,207,-54,311,245,-77
1,2792315,2475,867,3641,6287,208,-60,311,245,-77
1,2792330,2478,875,3648,6280,211,-58,311,245,-77
1,2792343,2478,875,3648,6280,211,-58,311,245,-77
1,2792357,2479,863,3644,6282,213,-56,311,245,-77
1,2792370,2480,862,3650,6288,209,-60,308,240,-58
1,2792383,2480,862,3650,6288,209,-60,308,240,-58
1,2792397,2483,861,3644,6287,208,-64,308,240,-58
1,2792411,2476,864,3648,6288,209,-64,308,240,-58
1,2792425,2476,864,3648,6288,209,-64,308,240,-58
1,2792441,2480,856,3647,6278,203,-59,308,240,-58
1,2792457,2479,861,3641,6290,199,-64,308,240,-58
1,2792472,2479,861,3641,6290,199,-64,308,240,-58
1,2792486,2479,861,3641,6290,199,-64,308,240,-58
1,2792501,2478,864,3642,6284,207,-56,287,233,-55
1,2792514,2476,860,3644,6285,214,-54,287,233,-55
1,2792528,2481,869,3646,6289,207,-54,287,233,-55
1,2792542,2481,869,3646,6289,207,-54,287,233,-55
1,2792555,2479,878,3647,6284,201,-58,287,233,-55
1,2792570,2478,887,3644,6283,210,-62,287,233,-55
1,2792584,2478,887,3644,6283,210,-62,287,233,-55
1,2792597,2477,888,3646,6290,207,-56,287,233,-55
1,2792611,2477,882,3648,6286,203,-59,287,233,-55
1,2792626,2477,882,3648,6286,203,-59,287,233,-55
1,2792641,2479,888,3655,6284,200,-55,293,241,-57
1,2792655,2477,879,3643,6289,203,-56,293,241,-57
1,2792668,2478,868,3646,6289,208,-63,293,241,-57
1,2792683,2478,868,3646,6289,208,-63,293,241,-57
1,2792699,2483,863,3646,6287,206,-56,293,241,-57
1,2792714,2477,858,3649,6284,209,-53,293,241,-57
1,2792728,2481,867,3647,6291,208,-55,293,241,-57
1,2792739,2481,867,3647,6291,208,-55,293,241,-57
1,2792753,2478,862,3657,6291,207,-63,287,241,-47
1,2792767,2478,862,3657,6291,207,-63,287,241,-47
1,2792780,2484,862,3656,6286,208,-67,287,241,-47
1,2792795,2484,860,3646,6285,207,-54,287,241,-47
1,2792808,2478,867,3645,6285,202,-51,287,241,-47
1,2792819,2478,867,3645,6285,202,-51,287,241,-47
1,2792834,2477,871,3639,6287,204,-57,287,241,-47
1,2792847,2477,871,3639,6287,204,-57,287,241,-47
1,2792860,2476,871,3644,6286,209,-61,287,241,-47
1,2792876,2475,863,3650,6289,202,-57,277,237,-45
1,2792887,2475,863,3650,6289,202,-57,277,237,-45
1,2792902,2472,870,3647,6284,202,-53,277,237,-45
1,2792918,2479,866,3640,6294,208,-63,277,237,-45
1,2792933,2480,868,3654,6289,205,-57,277,237,-45
1,2792949,2483,863,3645,6287,208,-57,277,237,-45
1,2792965,2483,863,3645,6287,208,-57,277,237,-45
1,2792976,2477,866,3648,6290,204,-56,277,237,-45
1,2792989,2483,868,3648,6292,202,-59,267,237,-29
1,2793003,2483,868,3648,6292,202,-59,267,237,-29
1,2793016,2472,865,3647,6290,200,-47,267,237,-29
1,2793030,2481,861,3643,6291,208,-61,267,237,-29
1,2793044,2481,861,3643,6291,208,-61,267,237,-29
1,2793060,2477,862,3641,6288,209,-56,267,237,-29
1,2793072,2480,862,3643,6284,207,-46,267,237,-29
1,2793085,2480,862,3643,6284,207,-46,267,237,-29
1,2793100,2481,860,3644,6283,208,-57,267,237,-29
1,2793113,2481,863,3648,6289,202,-54,267,237,-29
1,2793128,2482,868,3650,6285,206,-53,266,236,-32
1,2793143,2482,868,3650,6285,206,-53,266,236,-32
1,2793157,2479,891,3641,6285,213,-54,266,236,-32
1,2793170,2476,885,3640,6283,201,-52,266,236,-32
1,2793185,2476,885,3640,6283,201,-52,266,236,-32
1,2793201,2476,888,3641,6286,203,-53,266,236,-32
1,2793217,2480,874,3642,6284,205,-51,266,236,-32
1,2793230,2480,896,3645,6277,204,-50,266,236,-32
1,2793242,2480,896,3645,6277,204,-50,266,236,-32
1,2793256,2476,879,3648,6293,213,-56,258,232,-30
1,2793271,2475,873,3646,6293,208,-60,258,232,-30
1,2793284,2475,873,3646,6293,208,-60,258,232,-30
1,2793297,2483,860,3647,6290,210,-56,258,232,-30
1,2793311,2474,861,3647,6287,212,-54,258,232,-30
1,2793322,2474,861,3647,6287,212,-54,258,232,-30
1,2793337,2479,864,3648,6294,208,-51,258,232,-30
1,2793351,2476,862,3648,6287,206,-50,258,232,-30
1,2793364,2476,862,3648,6287,206,-50,258,232,-30
1,2793379,2478,862,3652,6284,205,-56,250,226,-30
1,2793394,2481,856,3645,6294,209,-51,250,226,-30
1,2793409,2476,868,3645,6293,205,-56,250,226,-30
1,2793424,2476,868,3645,6293,205,-56,250,226,-30
1,2793436,2477,873,3646,6282,206,-57,250,226,-30
1,2793451,2477,877,3647,6287,201,-62,250,226,-30
1,2793464,2477,877,3647,6287,201,-62,250,226,-30
1,2793476,2478,868,3644,6291,201,-58,250,226,-30
1,2793489,2478,878,3646,6288,204,-57,252,236,-32
1,2793503,2478,878,3646,6288,204,-57,252,236,-32
1,2793517,2479,868,3650,6284,209,-55,252,236,-32
1,2793531,2480,873,3649,6287,210,-46,252,236,-32
1,2793543,2480,873,3649,6287,210,-46,252,236,-32
1,2793555,2484,862,3649,6290,209,-60,252,236,-32
1,2793570,2477,865,3645,6294,207,-55,252,236,-32
1,2793583,2477,865,3645,6294,207,-55,252,236,-32
1,2793597,2481,859,3644,6300,207,-52,252,236,-32
1,2793613,2477,862,3641,6294,207,-59,241,239,-35
1,2793628,2483,856,3650,6288,206,-62,241,239,-35
1,2793644,2483,856,3650,6288,206,-62,241,239,-35
1,2793657,2476,853,3649,6296,206,-60,241,239,-35
1,2793671,2481,859,3645,6295,200,-58,241,239,-35
1,2793686,2481,859,3645,6295,200,-58,241,239,-35
1,2793699,2479,861,3643,6287,200,-59,241,239,-35
1,2793711,2483,861,3647,6285,211,-58,241,239,-35
1,2793725,2483,861,3647,6285,211,-58,241,239,-35
1,2793734,2479,865,3640,6283,210,-56,241,239,-35
1,2793748,2478,871,3650,6288,204,-55,241,239,-35
1,2793758,2478,871,3650,6288,204,-55,247,233,-31
1,2793772,2479,887,3647,6286,209,-56,247,233,-31
1,2793784,2479,887,3647,6286,209,-56,247,233,-31
1,2793798,2477,895,3644,6287,205,-49,247,233,-31
1,2793812,2479,880,3642,6287,206,-60,247,233,-31
1,2793825,2479,880,3642,6287,206,-60,247,233,-31
1,2793840,2480,876,3649,6290,204,-62,247,233,-31
1,2793856,2476,880,3644,6289,202,-62,247,233,-31
1,2793873,2478,862,3655,6287,203,-52,235,239,-27
1,2793887,2478,862,3655,6287,203,-52,235,239,-27
1,2793902,2483,869,3642,6294,204,-47,235,239,-27
1,2793915,2477,857,3650,6301,204,-57,235,239,-27
1,2793928,2477,857,3650,6301,204,-57,235,239,-27
1,2793943,2477,857,3650,6301,204,-57,235,239,-27
1,2793956,2474,854,3645,6283,201,-59,235,239,-27
1,2793970,2475,862,3640,6282,202,-65,235,239,-27
1,2793985,2475,862,3640,6282,202,-65,235,239,-27
1,2793996,2480,860,3643,6293,208,-54,225,237,-33
1,2794008,2477,865,3642,6285,202,-48,225,237,-33
1,2794021,2477,865,3642,6285,202,-48,225,237,-33
1,2794036,2479,868,3643,6284,202,-52,225,237,-33
1,2794050,2480,875,3645,6285,203,-58,225,237,-33
1,2794065,2480,875,3645,6285,203,-58,225,237,-33
1,2794079,2478,871,3652,6284,205,-52,225,237,-33
1,2794092,2479,872,3648,6290,204,-54,225,237,-33
1,2794107,2481,870,3645,6287,205,-56,225,237,-33
1,2794123,2481,870,3645,6287,205,-56,224,238,-42
1,2794130,2477,868,3647,6286,203,-55,224,238,-42
1,2794143,2477,868,3647,6286,203,-55,224,238,-42
1,2794157,2479,869,3644,6285,204,-60,224,238,-42
1,2794172,2479,860,3643,6286,204,-56,224,238,-42
1,2794184,2479,860,3643,6286,204,-56,224,238,-42
1,2794196,2477,867,3643,6286,204,-57,224,238,-42
1,2794210,2477,858,3641,6287,206,-62,224,238,-42
1,2794224,2477,858,3641,6287,206,-62,224,238,-42
1,2794237,2480,858,3645,6288,211,-57,224,238,-42
1,2794252,2480,856,3647,6290,203,-55,218,240,-50
1,2794261,2480,856,3647,6290,203,-55,218,240,-50
1,2794275,2483,861,3652,6290,207,-61,218,240,-50
1,2794292,2483,863,3647,6286,209,-57,218,240,-50
1,2794306,2483,863,3647,6286,209,-57,218,240,-50
1,2794319,2478,869,3646,6286,204,-57,218,240,-50
1,2794335,2478,874,3641,6277,211,-57,218,240,-50
1,2794349,2477,889,3639,6283,200,-54,218,240,-50
1,2794364,2477,889,3639,6283,200,-54,218,240,-50
1,2794380,2475,877,3642,6282,204,-54,216,242,-58
1,2794393,2479,887,3645,6283,210,-66,216,242,-58
1,2794407,2479,887,3645,6283,210,-66,216,242,-58
1,2794422,2481,873,3649,6288,212,-61,216,242,-58
1,2794433,2481,892,3648,6291,208,-58,216,242,-58
1,2794446,2481,892,3648,6291,208,-58,216,242,-58
1,2794462,2482,867,3649,6287,204,-55,216,242,-58
1,2794476,2479,876,3640,6283,201,-54,216,242,-58
1,2794489,2485,865,3648,6293,201,-59,221,239,-59
1,2794504,2485,865,3648,6293,201,-59,221,239,-59
1,2794517,2475,861,3640,6285,206,-59,221,239,-59
1,2794528,2479,863,3642,6289,201,-62,221,239,-59
1,2794544,2479,863,3642,6289,201,-62,221,239,-59
1,2794559,2478,863,3636,6283,200,-55,221,239,-59
1,2794571,2477,860,3644,6282,204,-56,221,239,-59
1,2794586,2477,860,3644,6282,204,-56,221,239,-59
1,2794601,2479,859,3643,6281,200,-51,221,239,-59
1,2794615,2477,865,3644,6289,204,-54,224,234,-62
1,2794630,2480,874,3651,6281,202,-59,224,234,-62
1,2794643,2480,874,3651,6281,202,-59,224,234,-62
1,2794657,2481,876,3644,6280,203,-54,224,234,-62
1,2794671,2479,861,3648,6276,196,-51,224,234,-62
1,2794684,2479,861,3648,6276,196,-51,224,234,-62
1,2794698,2479,884,3641,6282,203,-53,224,234,-62
1,2794712,2479,865,3639,6290,205,-51,224,234,-62
1,2794725,2479,865,3639,6290,205,-51,224,234,-62
1,2794739,2477,879,3636,6280,200,-55,224,234,-62
1,2794754,2478,858,3638,6277,212,-61,227,233,-69
1,2794767,2478,858,3638,6277,212,-61,227,233,-69
1,2794780,2478,878,3639,6282,204,-52,227,233,-69
1,2794795,2483,859,3644,6291,207,-51,227,233,-69
1,2794810,2478,867,3643,6283,203,-54,227,233,-69
1,2794825,2478,867,3643,6283,203,-54,227,233,-69
1,2794839,2485,858,3650,6278,210,-54,227,233,-69
1,2794851,2479,869,3645,6293,202,-49,227,233,-69
1,2794866,2479,869,3645,6293,202,-49,227,233,-69
1,2794880,2476,862,3645,6291,202,-51,226,228,-76
1,2794894,2476,874,3639,6289,203,-54,226,228,-76
1,2794907,2476,874,3639,6289,203,-54,226,228,-76
1,2794921,2478,873,3642,6273,198,-56,226,228,-76
1,2794938,2480,893,3639,6282,201,-54,226,228,-76
1,2794947,2480,893,3639,6282,201,-54,226,228,-76
1,2794960,2478,886,3649,6281,210,-52,226,228,-76
1,2794975,2478,886,3649,6281,210,-52,226,228,-76
1,2794988,2482,893,3657,6284,213,-55,222,222,-84
1,2795001,2482,893,3657,6284,213,-55,222,222,-84
1,2795014,2477,885,3646,6282,207,-55,222,222,-84
1,2795029,2478,892,3650,6288,209,-66,222,222,-84
1,2795044,2478,892,3650,6288,209,-66,222,222,-84
1,2795060,2478,882,3646,6296,207,-59,222,222,-84
1,2795073,2477,873,3648,6297,206,-57,222,222,-84
1,2795085,2477,873,3648,6297,206,-57,222,222,-84
1,2795100,2477,856,3641,6293,206,-54,222,222,-84
1,2795113,2472,859,3646,6293,210,-58,229,229,-83
1,2795126,2472,859,3646,6293,210,-58,229,229,-83
1,2795141,2483,862,3644,6290,207,-61,229,229,-83
1,2795154,2473,855,3647,6290,209,-55,229,229,-83
1,2795166,2473,855,3647,6290,209,-55,229,229,-83
1,2795180,2482,854,3648,6290,204,-57,229,229,-83
1,2795193,2481,863,3645,6291,205,-62,229,229,-83
1,2795206,2481,863,3645,6291,205,-62,229,229,-83
1,2795220,2480,871,3649,6289,216,-47,229,229,-83
1,2795232,2479,860,3644,6284,208,-61,229,229,-83
1,2795247,2479,860,3644,6284,208,-61,229,229,-83
1,2795264,2482,864,3646,6280,208,-54,225,235,-101
1,2795273,2480,864,3643,6289,207,-49,225,235,-101
1,2795288,2479,869,3648,6283,206,-50,225,235,-101
1,2795303,2479,869,3648,6283,206,-50,225,235,-101
1,2795319,2474,865,3637,6284,208,-52,225,235,-101
1,2795332,2477,867,3642,6282,208,-52,225,235,-101
1,2795345,2477,867,3642,6282,208,-52,225,235,-101
1,2795360,2476,864,3640,6290,203,-51,225,235,-101
1,2795372,2476,862,3651,6280,197,-57,225,225,-111
1,2795386,2476,862,3651,6280,197,-57,225,225,-111
1,2795400,2479,865,3648,6290,200,-59,225,225,-111
1,2795413,2481,859,3648,6281,206,-55,225,225,-111
1,2795426,2481,859,3648,6281,206,-55,225,225,-111
1,2795441,2484,860,3648,6279,197,-49,225,225,-111
1,2795452,2480,861,3643,6284,200,-50,225,225,-111
1,2795465,2480,861,3643,6284,200,-50,225,225,-111
1,2795481,2476,868,3642,6289,207,-53,225,225,-111
1,2795496,2479,868,3646,6284,208,-53,239,221,-117
1,2795509,2478,867,3648,6289,201,-56,239,221,-117
1,2795525,2478,867,3648,6289,201,-56,239,221,-117
1,2795540,2481,874,3641,6288,207,-56,239,221,-117
1,2795554,2478,897,3642,6282,201,-56,239,221,-117
1,2795571,2479,887,3640,6276,204,-57,239,221,-117
1,2795584,2479,887,3640,6276,204,-57,239,221,-117
1,2795597,2480,888,3653,6281,201,-58,239,221,-117
1,2795612,2481,880,3649,6292,200,-56,242,222,-134
1,2795623,2481,880,3649,6292,200,-56,242,222,-134
1,2795638,2476,907,3652,6292,203,-63,242,222,-134
1,2795654,2478,879,3644,6291,204,-59,242,222,-134
1,2795668,2478,879,3644,6291,204,-59,242,222,-134
1,2795681,2472,872,3647,6291,206,-63,242,222,-134
1,2795695,2487,865,3648,6289,207,-64,242,222,-134
1,2795709,2475,861,3642,6286,201,-54,242,222,-134
1,2795721,2475,861,3642,6286,201,-54,242,222,-134
1,2795734,2481,867,3642,6287,202,-61,254,222,-130
1,2795749,2477,861,3644,6287,207,-64,254,222,-130
1,2795764,2477,861,3644,6287,207,-64,254,222,-130
1,2795780,2483,864,3652,6288,206,-63,254,222,-130
1,2795791,2484,863,3644,6290,205,-63,254,222,-130
1,2795805,2484,863,3644,6290,205,-63,254,222,-130
1,2795819,2474,876,3643,6289,208,-59,254,222,-130
1,2795832,2482,870,3641,6284,203,-58,254,222,-130
1,2795846,2482,870,3641,6284,203,-58,254,222,-130
1,2795859,2479,869,3642,6286,207,-58,254,222,-130
1,2795873,2478,865,3647,6288,207,-59,267,221,-139
1,2795885,2478,865,3647,6288,207,-59,267,221,-139
1,2795899,2477,874,3646,6290,210,-62,267,221,-139
1,2795911,2478,867,3643,6288,210,-52,267,221,-139
1,2795926,2478,867,3643,6288,210,-52,267,221,-139
1,2795940,2481,870,3649,6283,204,-56,267,221,-139
1,2795953,2480,864,3647,6283,205,-53,267,221,-139
1,2795967,2480,864,3647,6283,205,-53,267,221,-139
1,2795982,2480,869,3647,6287,203,-62,267,221,-139
1,2795997,2480,866,3646,6292,200,-58,271,221,-149
1,2796010,2480,866,3649,6284,204,-60,271,221,-149
1,2796023,2480,866,3649,6284,204,-60,271,221,-149
1,2796038,2479,858,3647,6286,201,-61,271,221,-149
1,2796051,2478,860,3642,6292,206,-55,271,221,-149
1,2796064,2478,860,3642,6292,206,-55,271,221,-149
1,2796076,2479,861,3646,6285,209,-57,271,221,-149
1,2796090,2477,865,3644,6285,210,-54,271,221,-149
1,2796104,2477,865,3644,6285,210,-54,271,221,-149
1,2796119,2479,862,3648,6285,208,-61,280,216,-148
1,2796132,2480,864,3645,6283,206,-56,280,216,-148
1,2796146,2480,864,3645,6283,206,-56,280,216,-148
1,2796158,2479,870,3645,6285,209,-55,280,216,-148
1,2796172,2479,883,3645,6285,201,-61,280,216,-148
1,2796185,2479,883,3645,6285,201,-61,280,216,-148
1,2796199,2478,899,3644,6280,200,-60,280,216,-148
1,2796214,2475,887,3646,6277,197,-63,280,216,-148
1,2796228,2475,887,3646,6277,197,-63,280,216,-148
1,2796242,2478,894,3643,6285,204,-58,286,232,-146
1,2796258,2479,878,3647,6291,212,-62,286,232,-146
1,2796271,2479,881,3649,6289,213,-61,286,232,-146
1,2796285,2479,881,3649,6289,213,-61,286,232,-146
1,2796300,2482,870,3646,6289,211,-57,286,232,-146
1,2796314,2479,863,3647,6285,210,-52,286,232,-146
1,2796325,2479,863,3647,6285,210,-52,286,232,-146
1,2796339,2487,867,3648,6288,208,-48,286,232,-146
1,2796351,2475,866,3645,6292,203,-55,286,232,-146
1,2796365,2475,866,3645,6292,203,-55,286,232,-146
1,2796379,2480,871,3651,6294,209,-57,296,224,-154
1,2796392,2480,865,3643,6283,211,-57,296,224,-154
1,2796404,2480,865,3643,6283,211,-57,296,224,-154
1,2796419,2480,870,3642,6281,206,-59,296,224,-154
1,2796432,2485,873,3648,6283,202,-54,296,224,-154
1,2796446,2485,873,3648,6283,202,-54,296,224,-154
1,2796454,2476,884,3648,6292,206,-50,296,224,-154
1,2796470,2482,873,3647,6291,210,-54,296,224,-154
1,2796479,2482,873,3647,6291,210,-54,296,224,-154
1,2796491,2480,878,3646,6287,206,-46,292,222,-156
1,2796506,2480,878,3646,6287,206,-46,292,222,-156
1,2796520,2478,866,3642,6289,210,-53,292,222,-156
1,2796533,2477,888,3648,6288,209,-58,292,222,-156
1,2796546,2477,888,3648,6288,209,-58,292,222,-156
1,2796557,2479,867,3645,6288,209,-57,292,222,-156
1,2796570,2480,870,3648,6285,206,-53,292,222,-156
1,2796584,2480,870,3648,6285,206,-53,292,222,-156
1,2796598,2486,858,3649,6292,210,-48,292,222,-156
1,2796610,2476,872,3651,6288,205,-50,314,216,-154
1,2796622,2476,872,3651,6288,205,-50,314,216,-154
1,2796638,2481,863,3647,6296,206,-49,314,216,-154
1,2796654,2475,867,3641,6297,207,-52,314,216,-154
1,2796664,2475,867,3641,6297,207,-52,314,216,-154
1,2796680,2482,858,3644,6288,206,-50,314,216,-154
1,2796695,2478,865,3646,6288,209,-55,314,216,-154
1,2796708,2478,865,3646,6288,209,-55,314,216,-154
1,2796722,2479,863,3639,6280,203,-53,314,216,-154
1,2796736,2479,870,3649,6290,209,-61,309,227,-147
1,2796749,2482,865,3653,6285,210,-59,309,227,-147
1,2796762,2482,865,3653,6285,210,-59,309,227,-147
1,2796776,2478,880,3648,6286,207,-53,309,227,-147
1,2796790,2473,895,3646,6285,203,-56,309,227,-147
1,2796805,2473,895,3646,6285,203,-56,309,227,-147
1,2796819,2479,884,3644,6288,208,-67,309,227,-147
1,2796832,2477,890,3644,6287,209,-61,309,227,-147
1,2796844,2477,890,3644,6287,209,-61,309,227,-147
1,2796857,2482,876,3646,6289,210,-59,309,227,-147
1,2796870,2482,876,3650,6288,208,-52,326,238,-146
1,2796882,2482,876,3650,6288,208,-52,326,238,-146
1,2796898,2482,866,3649,6294,210,-54,326,238,-146
1,2796912,2479,863,3649,6293,206,-54,326,238,-146
1,2796926,2479,863,3649,6293,206,-54,326,238,-146
1,2796940,2483,865,3647,6290,213,-61,326,238,-146
1,2796955,2477,858,3646,6293,205,-58,326,238,-146
1,2796971,2480,867,3650,6288,204,-55,326,238,-146
1,2796986,2480,867,3650,6288,204,-55,326,238,-146
1,2796997,2480,861,3653,6287,207,-58,316,242,-144
1,2797010,2482,864,3647,6284,204,-58,316,242,-144
1,2797024,2482,864,3647,6284,204,-58,316,242,-144
1,2797038,2483,865,3644,6286,204,-55,316,242,-144
1,2797051,2477,872,3644,6287,209,-60,316,242,-144
1,2797066,2477,872,3644,6287,209,-60,316,242,-144
1,2797077,2480,869,3644,6284,210,-55,316,242,-144
1,2797091,2479,873,3642,6287,205,-50,316,242,-144
1,2797105,2479,873,3642,6287,205,-50,316,242,-144
1,2797118,2482,867,3649,6285,205,-52,332,244,-142
1,2797128,2482,867,3649,6285,205,-52,332,244,-142
1,2797137,2475,876,3651,6280,205,-58,332,244,-142
1,2797152,2481,865,3647,6290,206,-54,332,244,-142
1,2797166,2481,865,3647,6290,206,-54,332,244,-142
1,2797181,2482,865,3650,6284,205,-62,332,244,-142
1,2797197,2482,862,3643,6281,209,-55,332,244,-142
1,2797212,2478,867,3644,6285,204,-59,332,244,-142
1,2797227,2478,867,3644,6285,204,-59,332,244,-142
1,2797240,2477,860,3643,6292,206,-56,338,236,-142
1,2797255,2476,862,3643,6285,207,-55,338,236,-142
1,2797267,2476,862,3643,6285,207,-55,338,236,-142
1,2797280,2482,855,3639,6284,204,-55,338,236,-142
1,2797293,2477,862,3642,6284,205,-58,338,236,-142
1,2797306,2477,862,3642,6284,205,-58,338,236,-142
1,2797321,2479,865,3649,6284,204,-58,338,236,-142
1,2797334,2481,867,3647,6285,208,-59,338,236,-142
1,2797345,2481,867,3647,6285,208,-59,338,236,-142
1,2797359,2481,867,3647,6285,208,-59,325,241,-127
1,2797373,2478,900,3644,6277,210,-51,325,241,-127
1,2797387,2478,900,3644,6277,210,-51,325,241,-127
1,2797402,2476,897,3652,6287,205,-55,325,241,-127
1,2797417,2481,888,3646,6276,203,-56,325,241,-127
1,2797431,2482,899,3648,6283,205,-50,325,241,-127
1,2797447,2482,899,3648,6283,205,-50,325,241,-127
1,2797460,2477,884,3641,6284,197,-59,325,241,-127
1,2797474,2479,880,3645,6292,203,-55,325,241,-127
1,2797488,2479,880,3645,6292,203,-55,325,241,-127
1,2797500,2478,863,3647,6290,213,-55,326,246,-120
1,2797515,2483,862,3649,6290,206,-60,326,246,-120
1,2797528,2483,862,3649,6290,206,-60,326,246,-120
1,2797541,2484,866,3649,6285,205,-54,326,246,-120
1,2797555,2477,867,3647,6290,202,-56,326,246,-120
1,2797570,2485,864,3647,6287,202,-55,326,246,-120
1,2797581,2485,864,3647,6287,202,-55,326,246,-120
1,2797594,2485,859,3646,6284,204,-56,326,246,-120
1,2797609,2478,868,3651,6279,201,-53,325,249,-113
1,2797625,2478,868,3651,6279,201,-53,325,249,-113
1,2797639,2480,882,3648,6285,205,-54,325,249,-113
1,2797650,2477,881,3642,6292,209,-56,325,249,-113
1,2797664,2477,881,3642,6292,209,-56,325,249,-113
1,2797677,2477,880,3641,6290,207,-60,325,249,-113
1,2797694,2477,877,3642,6281,208,-65,325,249,-113
1,2797708,2477,877,3642,6281,208,-65,325,249,-113
1,2797722,2476,879,3642,6290,204,-55,325,249,-113
1,2797735,2478,883,3654,6293,205,-56,329,239,-111
1,2797747,2478,883,3654,6293,205,-56,329,239,-111
1,2797761,2481,863,3651,6289,202,-53,329,239,-111
1,2797775,2485,866,3646,6286,204,-57,329,239,-111
1,2797790,2484,869,3643,6292,202,-58,329,239,-111
1,2797802,2484,869,3643,6292,202,-58,329,239,-111
1,2797817,2478,869,3643,6286,208,-55,329,239,-111
1,2797833,2480,858,3641,6292,208,-58,329,239,-111
1,2797847,2480,858,3641,6292,208,-58,329,239,-111
1,2797860,2479,852,3643,6287,206,-58,325,243,-97
1,2797875,2481,858,3646,6288,205,-60,325,243,-97
1,2797887,2481,858,3646,6288,205,-60,325,243,-97
1,2797900,2481,858,3646,6288,205,-60,325,243,-97
1,2797915,2479,863,3645,6284,210,-53,325,243,-97
1,2797929,2479,863,3645,6284,210,-53,325,243,-97
1,2797942,2484,864,3644,6280,206,-54,325,243,-97
1,2797957,2484,864,3644,6280,206,-54,325,243,-97
1,2797968,2484,864,3644,6280,206,-54,325,243,-97
1,2797980,2481,880,3645,6275,206,-55,325,243,-97
1,2797995,2477,900,3648,6281,200,-62,327,245,-87
1,2798009,2477,900,3648,6281,200,-62,327,245,-87
1,2798022,2480,883,3646,6282,202,-62,327,245,-87
1,2798038,2482,887,3644,6285,206,-67,327,245,-87
1,2798053,2483,872,3640,6282,206,-60,327,245,-87
1,2798066,2483,872,3640,6282,206,-60,327,245,-87
1,2798081,2478,882,3644,6289,202,-51,327,245,-87
