imu,time,ax,ay,az,gx,gy,gz,mx,my,mz
0,5504122,-2357,28,-2445,-1084,-629,-6431,250,276,-502
0,5504137,-2358,47,-2453,-1087,-634,-6438,250,276,-502
0,5504145,-2358,47,-2453,-1087,-634,-6438,250,276,-502
0,5504158,-2362,42,-2469,-1083,-630,-6434,250,276,-502
0,5504172,-2362,42,-2469,-1083,-630,-6434,250,276,-502
0,5504183,-2357,50,-2461,-1084,-626,-6436,250,276,-502
0,5504197,-2360,64,-2465,-1089,-627,-6436,250,276,-502
0,5504212,-2360,64,-2465,-1089,-627,-6436,250,276,-502
0,5504226,-2360,68,-2466,-1089,-634,-6438,250,276,-502
0,5504238,-2360,65,-2460,-1085,-631,-6436,246,266,-502
0,5504252,-2360,65,-2460,-1085,-631,-6436,246,266,-502
0,5504268,-2359,60,-2445,-1091,-629,-6438,246,266,-502
0,5504281,-2356,121,-2454,-1093,-637,-6440,246,266,-502
0,5504295,-2361,75,-2460,-1080,-640,-6438,246,266,-502
0,5504309,-2361,75,-2460,-1080,-640,-6438,246,266,-502
0,5504323,-2359,81,-2464,-1081,-628,-6437,246,266,-502
0,5504336,-2362,65,-2465,-1081,-624,-6436,246,266,-502
0,5504349,-2362,65,-2465,-1081,-624,-6436,246,266,-502
0,5504366,-2365,101,-2466,-1071,-631,-6433,239,267,-495
0,5504375,-2366,81,-2454,-1076,-625,-6430,239,267,-495
0,5504390,-2366,81,-2454,-1076,-625,-6430,239,267,-495
0,5504404,-2354,82,-2455,-1086,-625,-6430,239,267,-495
0,5504414,-2358,71,-2464,-1095,-633,-6428,239,267,-495
0,5504427,-2358,71,-2464,-1095,-633,-6428,239,267,-495
0,5504435,-2354,85,-2462,-1075,-628,-6426,239,267,-495
0,5504443,-2354,85,-2462,-1075,-628,-6426,239,267,-495
0,5504451,-2354,85,-2462,-1075,-628,-6426,239,267,-495
0,5504459,-2358,90,-2455,-1077,-627,-6426,239,267,-495
0,5504467,-2358,90,-2455,-1077,-627,-6426,239,267,-495
0,5504476,-2354,87,-2457,-1083,-619,-6424,239,267,-495
0,5504484,-2354,87,-2457,-1083,-619,-6424,239,267,-495
0,5504492,-2354,87,-2457,-1083,-619,-6424,239,267,-495
0,5504500,-2361,82,-2464,-1082,-630,-6425,245,257,-505
0,5504508,-2361,82,-2464,-1082,-630,-6425,245,257,-505
0,5504517,-2358,74,-2458,-1083,-631,-6425,245,257,-505
0,5504525,-2358,74,-2458,-1083,-631,-6425,245,257,-505
0,5504533,-2358,74,-2458,-1083,-631,-6425,245,257,-505
0,5504541,-2358,89,-2462,-1078,-625,-6427,245,257,-505
0,5504549,-2358,89,-2462,-1078,-625,-6427,245,257,-505
0,5504558,-2358,83,-2460,-1078,-630,-6425,245,257,-505
0,5504570,-2358,83,-2460,-1078,-630,-6425,245,257,-505
0,5504578,-2351,83,-2474,-1091,-634,-6424,245,257,-505
0,5504586,-2351,83,-2474,-1091,-634,-6424,245,257,-505
0,5504594,-2351,83,-2474,-1091,-634,-6424,245,257,-505
0,5504604,-2356,80,-2463,-1078,-624,-6421,245,257,-505
0,5504611,-2356,80,-2463,-1078,-624,-6421,245,257,-505
0,5504619,-2348,96,-2452,-1075,-619,-6420,245,255,-497
0,5504627,-2348,96,-2452,-1075,-619,-6420,245,255,-497
0,5504635,-2351,100,-2452,-1082,-623,-6423,245,255,-497
0,5504643,-2351,100,-2452,-1082,-623,-6423,245,255,-497
0,5504652,-2351,100,-2452,-1082,-623,-6423,245,255,-497
0,5504659,-2347,88,-2460,-1083,-626,-6414,245,255,-497
0,5504668,-2347,88,-2460,-1083,-626,-6414,245,255,-497
0,5504675,-2348,80,-2458,-1081,-622,-6410,245,255,-497
0,5504684,-2348,80,-2458,-1081,-622,-6410,245,255,-497
0,5504693,-2348,80,-2458,-1081,-622,-6410,245,255,-497
0,5504703,-2350,85,-2458,-1081,-629,-6419,245,255,-497
0,5504712,-2350,85,-2458,-1081,-629,-6419,245,255,-497
0,5504721,-2350,64,-2466,-1086,-632,-6415,245,255,-497
0,5504734,-2350,64,-2466,-1086,-632,-6415,245,255,-497
0,5504749,-2350,64,-2466,-1086,-632,-6415,245,255,-497
0,5504762,-2347,68,-2457,-1084,-635,-6419,237,247,-505
0,5504777,-2348,75,-2462,-1087,-625,-6420,237,247,-505
0,5504789,-2348,75,-2462,-1087,-625,-6420,237,247,-505
0,5504803,-2348,75,-2462,-1087,-625,-6420,237,247,-505
0,5504817,-2342,55,-2461,-1077,-626,-6416,237,247,-505
0,5504825,-2342,55,-2461,-1077,-626,-6416,237,247,-505
0,5504834,-2342,55,-2461,-1077,-626,-6416,237,247,-505
0,5504843,-2340,4,-2459,-1078,-618,-6416,237,247,-505
0,5504857,-2346,27,-2457,-1080,-625,-6413,237,247,-505
0,5504869,-2346,27,-2457,-1080,-625,-6413,237,247,-505
0,5504882,-2351,25,-2457,-1089,-626,-6419,248,248,-504
0,5504891,-2351,25,-2457,-1089,-626,-6419,248,248,-504
0,5504903,-2351,23,-2455,-1076,-628,-6420,248,248,-504
0,5504917,-2359,12,-2468,-1081,-627,-6417,248,248,-504
0,5504932,-2359,12,-2468,-1081,-627,-6417,248,248,-504
0,5504947,-2357,32,-2460,-1078,-626,-6423,248,248,-504
0,5504960,-2357,46,-2472,-1079,-621,-6431,248,248,-504
0,5504974,-2357,46,-2472,-1079,-621,-6431,248,248,-504
0,5504990,-2356,56,-2458,-1083,-621,-6429,248,248,-504
0,5505004,-2356,48,-2455,-1087,-628,-6440,245,233,-505
0,5505017,-2356,66,-2454,-1084,-631,-6438,245,233,-505
0,5505032,-2356,66,-2454,-1084,-631,-6438,245,233,-505
0,5505041,-2360,65,-2450,-1088,-625,-6435,245,233,-505
0,5505051,-2360,65,-2450,-1088,-625,-6435,245,233,-505
0,5505064,-2357,72,-2461,-1085,-620,-6437,245,233,-505
0,5505078,-2357,60,-2464,-1089,-629,-6433,245,233,-505
0,5505087,-2357,60,-2464,-1089,-629,-6433,245,233,-505
0,5505097,-2356,56,-2468,-1081,-631,-6428,245,233,-505
0,5505110,-2356,56,-2468,-1081,-631,-6428,245,233,-505
0,5505117,-2363,53,-2467,-1079,-626,-6424,245,233,-505
0,5505126,-2363,53,-2467,-1079,-626,-6424,245,233,-505
0,5505134,-2363,53,-2467,-1079,-626,-6424,245,233,-505
0,5505140,-2363,56,-2460,-1086,-623,-6425,244,222,-502
0,5505148,-2363,56,-2460,-1086,-623,-6425,244,222,-502
0,5505157,-2357,55,-2459,-1081,-635,-6427,244,222,-502
0,5505164,-2357,55,-2459,-1081,-635,-6427,244,222,-502
0,5505172,-2357,55,-2459,-1081,-635,-6427,244,222,-502
0,5505179,-2361,51,-2463,-1079,-632,-6424,244,222,-502
0,5505188,-2361,51,-2463,-1079,-632,-6424,244,222,-502
0,5505197,-2357,60,-2455,-1083,-623,-6433,244,222,-502
0,5505204,-2357,60,-2455,-1083,-623,-6433,244,222,-502
0,5505212,-2357,60,-2455,-1083,-623,-6433,244,222,-502
0,5505220,-2360,60,-2449,-1085,-633,-6434,244,222,-502
0,5505227,-2360,60,-2449,-1085,-633,-6434,244,222,-502
0,5505234,-2360,60,-2449,-1085,-633,-6434,244,222,-502
0,5505242,-2362,64,-2457,-1093,-644,-6433,244,222,-502
0,5505250,-2362,64,-2457,-1093,-644,-6433,244,222,-502
0,5505259,-2359,63,-2461,-1085,-640,-6437,245,209,-497
0,5505267,-2359,63,-2461,-1085,-640,-6437,245,209,-497
0,5505276,-2361,65,-2457,-1077,-630,-6436,245,209,-497
0,5505285,-2361,65,-2457,-1077,-630,-6436,245,209,-497
0,5505294,-2361,65,-2457,-1077,-630,-6436,245,209,-497
0,5505302,-2358,70,-2457,-1078,-627,-6435,245,209,-497
0,5505311,-2358,70,-2457,-1078,-627,-6435,245,209,-497
0,5505319,-2364,72,-2458,-1083,-630,-6448,245,209,-497
0,5505329,-2364,72,-2458,-1083,-630,-6448,245,209,-497
0,5505337,-2359,66,-2458,-1081,-625,-6435,245,209,-497
0,5505345,-2359,66,-2458,-1081,-625,-6435,245,209,-497
0,5505354,-2359,66,-2458,-1081,-625,-6435,245,209,-497
0,5505362,-2360,77,-2463,-1089,-628,-6440,245,209,-497
0,5505371,-2360,77,-2463,-1089,-628,-6440,245,209,-497
0,5505380,-2357,104,-2466,-1080,-621,-6436,245,209,-497
0,5505385,-2357,104,-2466,-1080,-621,-6436,245,209,-497
0,5505394,-2357,104,-2466,-1080,-621,-6436,245,209,-497
0,5505403,-2359,76,-2450,-1081,-630,-6432,237,209,-507
0,5505412,-2359,76,-2450,-1081,-630,-6432,237,209,-507
0,5505421,-2354,76,-2451,-1091,-636,-6427,237,209,-507
0,5505430,-2354,76,-2451,-1091,-636,-6427,237,209,-507
0,5505440,-2357,83,-2460,-1083,-626,-6430,237,209,-507
0,5505451,-2357,83,-2460,-1083,-626,-6430,237,209,-507
0,5505459,-2354,91,-2463,-1077,-624,-6429,237,209,-507
0,5505466,-2354,91,-2463,-1077,-624,-6429,237,209,-507
0,5505475,-2354,91,-2463,-1077,-624,-6429,237,209,-507
0,5505484,-2360,78,-2460,-1079,-625,-6425,237,209,-507
0,5505496,-2360,78,-2460,-1079,-625,-6425,237,209,-507
0,5505504,-2356,75,-2463,-1091,-625,-6428,237,209,-507
0,5505513,-2356,75,-2463,-1091,-625,-6428,237,209,-507
0,5505523,-2359,79,-2458,-1089,-623,-6419,226,208,-502
0,5505531,-2359,79,-2458,-1089,-623,-6419,226,208,-502
0,5505541,-2358,80,-2457,-1082,-630,-6424,226,208,-502
0,5505546,-2358,80,-2457,-1082,-630,-6424,226,208,-502
0,5505555,-2358,80,-2457,-1082,-630,-6424,226,208,-502
0,5505564,-2358,84,-2451,-1082,-631,-6423,226,208,-502
0,5505574,-2358,84,-2451,-1082,-631,-6423,226,208,-502
0,5505584,-2354,73,-2461,-1084,-641,-6420,226,208,-502
0,5505594,-2354,73,-2461,-1084,-641,-6420,226,208,-502
0,5505604,-2354,68,-2462,-1090,-640,-6426,226,208,-502
0,5505613,-2354,68,-2462,-1090,-640,-6426,226,208,-502
0,5505622,-2359,70,-2461,-1084,-626,-6426,226,208,-502
0,5505631,-2359,70,-2461,-1084,-626,-6426,226,208,-502
0,5505637,-2357,84,-2458,-1082,-624,-6422,226,208,-502
0,5505643,-2357,84,-2458,-1082,-624,-6422,226,208,-502
0,5505654,-2357,84,-2458,-1082,-624,-6422,226,208,-502
0,5505662,-2359,73,-2460,-1084,-633,-6420,212,194,-490
0,5505674,-2359,73,-2460,-1084,-633,-6420,212,194,-490
0,5505682,-2353,67,-2467,-1084,-635,-6416,212,194,-490
0,5505693,-2353,67,-2467,-1084,-635,-6416,212,194,-490
0,5505702,-2356,61,-2462,-1079,-622,-6421,212,194,-490
0,5505712,-2356,61,-2462,-1079,-622,-6421,212,194,-490
0,5505721,-2352,67,-2460,-1082,-628,-6419,212,194,-490
0,5505732,-2352,67,-2460,-1082,-628,-6419,212,194,-490
0,5505742,-2353,59,-2460,-1080,-623,-6422,212,194,-490
0,5505753,-2353,59,-2460,-1080,-623,-6422,212,194,-490
0,5505764,-2351,58,-2466,-1082,-626,-6424,212,194,-490
0,5505772,-2351,58,-2466,-1082,-626,-6424,212,194,-490
0,5505782,-2353,55,-2456,-1063,-620,-6419,202,198,-498
0,5505792,-2353,55,-2456,-1063,-620,-6419,202,198,-498
0,5505801,-2353,58,-2460,-1075,-627,-6422,202,198,-498
0,5505811,-2353,58,-2460,-1075,-627,-6422,202,198,-498
0,5505818,-2352,55,-2459,-1082,-626,-6422,202,198,-498
0,5505831,-2352,55,-2459,-1082,-626,-6422,202,198,-498
0,5505844,-2352,58,-2466,-1081,-629,-6424,202,198,-498
0,5505854,-2352,58,-2466,-1081,-629,-6424,202,198,-498
0,5505870,-2355,37,-2460,-1083,-629,-6416,202,198,-498
0,5505884,-2359,42,-2467,-1082,-627,-6419,202,198,-498
0,5505898,-2356,34,-2458,-1075,-619,-6410,193,193,-493
0,5505912,-2356,34,-2458,-1075,-619,-6410,193,193,-493
0,5505925,-2353,33,-2460,-1084,-630,-6423,193,193,-493
0,5505939,-2355,24,-2459,-1082,-630,-6426,193,193,-493
0,5505954,-2355,24,-2459,-1082,-630,-6426,193,193,-493
0,5505970,-2360,39,-2461,-1081,-631,-6428,193,193,-493
0,5505984,-2355,34,-2465,-1085,-628,-6428,193,193,-493
0,5505996,-2355,34,-2465,-1085,-628,-6428,193,193,-493
0,5506004,-2357,46,-2452,-1084,-626,-6430,193,193,-493
0,5506017,-2354,38,-2458,-1083,-637,-6430,193,193,-493
0,5506028,-2354,38,-2458,-1083,-637,-6430,193,193,-493
0,5506042,-2364,53,-2456,-1086,-630,-6439,189,187,-499
0,5506056,-2364,53,-2456,-1086,-630,-6439,189,187,-499
0,5506070,-2364,53,-2456,-1086,-630,-6439,189,187,-499
0,5506083,-2360,56,-2461,-1081,-627,-6435,189,187,-499
0,5506098,-2358,60,-2462,-1081,-627,-6425,189,187,-499
0,5506109,-2358,60,-2462,-1081,-627,-6425,189,187,-499
0,5506123,-2361,67,-2459,-1085,-623,-6425,189,187,-499
0,5506137,-2361,67,-2459,-1085,-623,-6425,189,187,-499
0,5506151,-2360,66,-2460,-1081,-628,-6430,189,187,-499
0,5506165,-2361,60,-2452,-1085,-623,-6429,188,186,-492
0,5506181,-2361,109,-2462,-1085,-626,-6431,188,186,-492
0,5506195,-2361,109,-2462,-1085,-626,-6431,188,186,-492
0,5506208,-2366,68,-2456,-1085,-627,-6433,188,186,-492
0,5506224,-2356,90,-2464,-1081,-623,-6435,188,186,-492
0,5506238,-2366,67,-2461,-1088,-628,-6432,188,186,-492
0,5506251,-2366,67,-2461,-1088,-628,-6432,188,186,-492
0,5506263,-2366,67,-2461,-1088,-628,-6432,188,186,-492
0,5506276,-2366,67,-2461,-1088,-628,-6432,188,186,-492
0,5506289,-2364,72,-2462,-1076,-619,-6434,188,186,-492
0,5506302,-2355,82,-2451,-1085,-623,-6429,178,184,-488
0,5506317,-2361,63,-2464,-1082,-640,-6426,178,184,-488
0,5506329,-2361,63,-2464,-1082,-640,-6426,178,184,-488
0,5506342,-2357,80,-2461,-1077,-630,-6422,178,184,-488
0,5506356,-2357,80,-2461,-1077,-630,-6422,178,184,-488
0,5506370,-2357,73,-2458,-1076,-618,-6425,178,184,-488
0,5506384,-2361,81,-2461,-1093,-633,-6421,178,184,-488
0,5506397,-2361,81,-2461,-1093,-633,-6421,178,184,-488
0,5506409,-2355,70,-2471,-1097,-643,-6417,178,184,-488
0,5506424,-2355,67,-2457,-1083,-635,-6413,179,183,-487
0,5506439,-2357,77,-2457,-1085,-631,-6417,179,183,-487
0,5506451,-2357,77,-2457,-1085,-631,-6417,179,183,-487
0,5506465,-2358,80,-2458,-1087,-633,-6424,179,183,-487
0,5506481,-2357,68,-2466,-1086,-627,-6425,179,183,-487
0,5506495,-2357,68,-2466,-1086,-627,-6425,179,183,-487
0,5506508,-2353,58,-2460,-1079,-624,-6423,179,183,-487
0,5506523,-2354,72,-2457,-1077,-625,-6422,179,183,-487
0,5506537,-2354,72,-2457,-1077,-625,-6422,179,183,-487
0,5506548,-2358,75,-2454,-1088,-630,-6421,170,180,-494
0,5506563,-2358,75,-2454,-1088,-630,-6421,170,180,-494
0,5506576,-2358,75,-2454,-1088,-630,-6421,170,180,-494
0,5506590,-2354,61,-2460,-1084,-629,-6417,170,180,-494
0,5506604,-2355,67,-2469,-1087,-629,-6422,170,180,-494
0,5506617,-2355,67,-2469,-1087,-629,-6422,170,180,-494
0,5506630,-2355,65,-2467,-1085,-631,-6423,170,180,-494
0,5506643,-2354,58,-2463,-1086,-628,-6424,170,180,-494
0,5506656,-2354,58,-2463,-1086,-628,-6424,170,180,-494
0,5506664,-2351,50,-2465,-1079,-621,-6418,170,180,-494
0,5506678,-2354,20,-2456,-1079,-624,-6414,167,183,-491
0,5506693,-2354,20,-2456,-1079,-624,-6414,167,183,-491
0,5506707,-2352,19,-2463,-1076,-618,-6414,167,183,-491
0,5506721,-2358,31,-2465,-1072,-622,-6421,167,183,-491
0,5506734,-2358,31,-2465,-1072,-622,-6421,167,183,-491
0,5506749,-2351,35,-2462,-1074,-627,-6421,167,183,-491
0,5506762,-2360,23,-2461,-1092,-628,-6422,167,183,-491
0,5506776,-2360,23,-2461,-1092,-628,-6422,167,183,-491
0,5506792,-2351,31,-2465,-1086,-627,-6423,167,183,-491
0,5506806,-2362,33,-2468,-1084,-633,-6432,157,189,-501
0,5506818,-2362,33,-2468,-1084,-633,-6432,157,189,-501
0,5506830,-2358,41,-2457,-1080,-623,-6434,157,189,-501
0,5506838,-2360,34,-2464,-1085,-626,-6438,157,189,-501
0,5506847,-2360,34,-2464,-1085,-626,-6438,157,189,-501
0,5506855,-2360,34,-2464,-1085,-626,-6438,157,189,-501
0,5506865,-2360,46,-2464,-1077,-626,-6436,157,189,-501
0,5506874,-2360,46,-2464,-1077,-626,-6436,157,189,-501
0,5506882,-2364,47,-2458,-1080,-635,-6433,157,189,-501
0,5506890,-2364,47,-2458,-1080,-635,-6433,157,189,-501
0,5506898,-2362,55,-2460,-1080,-631,-6430,157,189,-501
0,5506907,-2362,55,-2460,-1080,-631,-6430,157,189,-501
0,5506917,-2362,55,-2460,-1080,-631,-6430,157,189,-501
0,5506926,-2362,58,-2454,-1087,-629,-6429,157,189,-501
0,5506933,-2362,58,-2454,-1087,-629,-6429,157,189,-501
0,5506942,-2358,70,-2459,-1086,-630,-6435,160,188,-492
0,5506953,-2358,70,-2459,-1086,-630,-6435,160,188,-492
0,5506962,-2365,58,-2461,-1077,-627,-6432,160,188,-492
0,5506971,-2365,58,-2461,-1077,-627,-6432,160,188,-492
0,5506979,-2363,68,-2456,-1078,-620,-6436,160,188,-492
0,5506990,-2363,68,-2456,-1078,-620,-6436,160,188,-492
0,5506999,-2361,76,-2463,-1084,-629,-6429,160,188,-492
0,5507008,-2361,76,-2463,-1084,-629,-6429,160,188,-492
0,5507017,-2361,76,-2463,-1084,-629,-6429,160,188,-492
0,5507024,-2363,71,-2463,-1088,-631,-6435,160,188,-492
0,5507034,-2363,71,-2463,-1088,-631,-6435,160,188,-492
0,5507041,-2358,64,-2466,-1081,-623,-6435,160,188,-492
0,5507050,-2358,64,-2466,-1081,-623,-6435,160,188,-492
0,5507058,-2365,66,-2460,-1084,-620,-6434,156,188,-482
0,5507068,-2365,66,-2460,-1084,-620,-6434,156,188,-482
0,5507077,-2365,66,-2460,-1084,-620,-6434,156,188,-482
0,5507085,-2362,65,-2461,-1082,-629,-6436,156,188,-482
0,5507094,-2362,65,-2461,-1082,-629,-6436,156,188,-482
0,5507102,-2363,55,-2465,-1089,-628,-6428,156,188,-482
0,5507111,-2363,55,-2465,-1089,-628,-6428,156,188,-482
0,5507121,-2359,57,-2462,-1085,-625,-6425,156,188,-482
0,5507129,-2359,57,-2462,-1085,-625,-6425,156,188,-482
0,5507138,-2359,58,-2456,-1085,-629,-6433,156,188,-482
0,5507146,-2359,58,-2456,-1085,-629,-6433,156,188,-482
0,5507154,-2359,58,-2456,-1085,-629,-6433,156,188,-482
0,5507162,-2360,61,-2463,-1087,-632,-6438,156,188,-482
0,5507171,-2360,61,-2463,-1087,-632,-6438,156,188,-482
0,5507179,-2363,54,-2456,-1086,-631,-6427,156,188,-482
0,5507188,-2363,54,-2456,-1086,-631,-6427,156,188,-482
0,5507197,-2363,54,-2456,-1086,-631,-6427,156,188,-482
0,5507208,-2363,57,-2463,-1092,-630,-6427,159,193,-473
0,5507217,-2363,57,-2463,-1092,-630,-6427,159,193,-473
0,5507225,-2366,47,-2461,-1084,-635,-6432,159,193,-473
0,5507234,-2366,47,-2461,-1084,-635,-6432,159,193,-473
0,5507244,-2364,54,-2466,-1082,-634,-6430,159,193,-473
0,5507253,-2364,54,-2466,-1082,-634,-6430,159,193,-473
0,5507261,-2364,57,-2462,-1072,-632,-6425,159,193,-473
0,5507270,-2364,57,-2462,-1072,-632,-6425,159,193,-473
0,5507278,-2369,63,-2466,-1077,-635,-6421,159,193,-473
0,5507284,-2369,63,-2466,-1077,-635,-6421,159,193,-473
0,5507294,-2369,63,-2466,-1077,-635,-6421,159,193,-473
0,5507302,-2359,58,-2463,-1078,-637,-6433,159,193,-473
0,5507310,-2359,58,-2463,-1078,-637,-6433,159,193,-473
0,5507318,-2366,78,-2455,-1079,-637,-6429,155,197,-477
0,5507328,-2366,78,-2455,-1079,-637,-6429,155,197,-477
0,5507337,-2366,78,-2455,-1079,-637,-6429,155,197,-477
0,5507347,-2358,96,-2459,-1086,-632,-6428,155,197,-477
0,5507355,-2358,96,-2459,-1086,-632,-6428,155,197,-477
0,5507364,-2364,73,-2463,-1083,-628,-6432,155,197,-477
0,5507374,-2364,73,-2463,-1083,-628,-6432,155,197,-477
0,5507384,-2357,66,-2468,-1082,-632,-6430,155,197,-477
0,5507392,-2357,66,-2468,-1082,-632,-6430,155,197,-477
0,5507401,-2363,84,-2469,-1093,-628,-6432,155,197,-477
0,5507412,-2363,84,-2469,-1093,-628,-6432,155,197,-477
0,5507421,-2359,75,-2465,-1078,-625,-6423,155,197,-477
0,5507430,-2359,75,-2465,-1078,-625,-6423,155,197,-477
0,5507439,-2364,78,-2473,-1076,-622,-6426,142,196,-478
0,5507447,-2364,78,-2473,-1076,-622,-6426,142,196,-478
0,5507459,-2364,78,-2473,-1076,-622,-6426,142,196,-478
0,5507467,-2359,59,-2461,-1082,-625,-6437,142,196,-478
0,5507476,-2359,59,-2461,-1082,-625,-6437,142,196,-478
0,5507485,-2357,81,-2466,-1073,-625,-6431,142,196,-478
0,5507494,-2357,81,-2466,-1073,-625,-6431,142,196,-478
0,5507505,-2361,67,-2466,-1080,-636,-6428,142,196,-478
0,5507512,-2361,67,-2466,-1080,-636,-6428,142,196,-478
0,5507522,-2354,84,-2454,-1083,-632,-6432,142,196,-478
0,5507531,-2354,84,-2454,-1083,-632,-6432,142,196,-478
0,5507539,-2355,66,-2464,-1083,-635,-6429,142,196,-478
0,5507549,-2355,66,-2464,-1083,-635,-6429,142,196,-478
0,5507557,-2355,66,-2464,-1083,-635,-6429,142,196,-478
0,5507568,-2357,77,-2471,-1085,-633,-6423,142,196,-478
0,5507575,-2357,77,-2471,-1085,-633,-6423,142,196,-478
0,5507584,-2360,67,-2457,-1076,-623,-6424,148,208,-468
0,5507593,-2360,67,-2457,-1076,-623,-6424,148,208,-468
0,5507602,-2357,79,-2463,-1079,-619,-6427,148,208,-468
0,5507610,-2357,79,-2463,-1079,-619,-6427,148,208,-468
0,5507616,-2357,79,-2463,-1079,-619,-6427,148,208,-468
0,5507625,-2355,55,-2463,-1082,-627,-6417,148,208,-468
0,5507636,-2355,55,-2463,-1082,-627,-6417,148,208,-468
0,5507645,-2357,70,-2464,-1080,-628,-6416,148,208,-468
0,5507654,-2357,70,-2464,-1080,-628,-6416,148,208,-468
0,5507662,-2355,61,-2456,-1078,-625,-6412,148,208,-468
0,5507672,-2355,61,-2456,-1078,-625,-6412,148,208,-468
0,5507681,-2352,82,-2467,-1080,-633,-6413,148,208,-468
0,5507688,-2352,82,-2467,-1080,-633,-6413,148,208,-468
0,5507696,-2352,82,-2467,-1080,-633,-6413,148,208,-468
0,5507704,-2355,67,-2462,-1091,-636,-6426,142,212,-474
0,5507715,-2355,67,-2462,-1091,-636,-6426,142,212,-474
0,5507721,-2355,67,-2460,-1085,-626,-6418,142,212,-474
0,5507730,-2355,67,-2460,-1085,-626,-6418,142,212,-474
0,5507739,-2356,65,-2463,-1082,-623,-6420,142,212,-474
0,5507748,-2356,65,-2463,-1082,-623,-6420,142,212,-474
0,5507758,-2356,65,-2463,-1082,-623,-6420,142,212,-474
0,5507766,-2354,76,-2464,-1086,-629,-6410,142,212,-474
0,5507774,-2354,76,-2464,-1086,-629,-6410,142,212,-474
0,5507782,-2353,62,-2468,-1086,-631,-6421,142,212,-474
0,5507790,-2353,62,-2468,-1086,-631,-6421,142,212,-474
0,5507799,-2353,62,-2468,-1086,-631,-6421,142,212,-474
0,5507808,-2354,60,-2472,-1086,-630,-6427,142,212,-474
0,5507816,-2354,60,-2472,-1086,-630,-6427,142,212,-474
0,5507825,-2352,45,-2474,-1090,-630,-6424,142,212,-474
0,5507834,-2352,45,-2474,-1090,-630,-6424,142,212,-474
0,5507848,-2354,38,-2461,-1083,-626,-6423,143,207,-477
0,5507861,-2348,-4,-2460,-1077,-625,-6413,143,207,-477
0,5507874,-2348,-4,-2460,-1077,-625,-6413,143,207,-477
0,5507886,-2350,26,-2463,-1082,-632,-6410,143,207,-477
0,5507899,-2350,26,-2463,-1082,-632,-6410,143,207,-477
0,5507913,-2353,19,-2459,-1080,-633,-6415,143,207,-477
0,5507927,-2356,16,-2452,-1082,-627,-6420,143,207,-477
0,5507942,-2359,5,-2467,-1089,-623,-6426,143,207,-477
0,5507956,-2359,5,-2467,-1089,-623,-6426,143,207,-477
0,5507970,-2363,13,-2464,-1085,-630,-6426,140,208,-476
0,5507983,-2367,23,-2465,-1078,-626,-6428,140,208,-476
0,5507996,-2367,23,-2465,-1078,-626,-6428,140,208,-476
0,5508009,-2361,20,-2464,-1079,-618,-6427,140,208,-476
0,5508024,-2364,39,-2464,-1084,-624,-6434,140,208,-476
0,5508040,-2357,31,-2465,-1078,-635,-6436,140,208,-476
0,5508055,-2357,31,-2465,-1078,-635,-6436,140,208,-476
0,5508069,-2363,60,-2460,-1086,-629,-6433,140,208,-476
0,5508084,-2355,48,-2458,-1090,-622,-6434,140,208,-476
0,5508098,-2355,48,-2458,-1090,-622,-6434,140,208,-476
0,5508112,-2361,75,-2461,-1095,-634,-6438,141,221,-479
0,5508126,-2365,46,-2475,-1083,-631,-6431,141,221,-479
0,5508141,-2367,65,-2462,-1084,-632,-6435,141,221,-479
0,5508153,-2367,65,-2462,-1084,-632,-6435,141,221,-479
0,5508166,-2366,60,-2469,-1080,-631,-6431,141,221,-479
0,5508180,-2367,81,-2475,-1078,-636,-6428,141,221,-479
0,5508194,-2367,81,-2475,-1078,-636,-6428,141,221,-479
0,5508209,-2362,59,-2474,-1081,-634,-6425,141,221,-479
0,5508220,-2362,66,-2461,-1082,-630,-6431,146,222,-478
0,5508235,-2362,66,-2461,-1082,-630,-6431,146,222,-478
0,5508250,-2362,65,-2461,-1076,-636,-6426,146,222,-478
0,5508264,-2362,71,-2460,-1074,-635,-6426,146,222,-478
0,5508278,-2362,71,-2460,-1074,-635,-6426,146,222,-478
0,5508291,-2360,56,-2457,-1082,-632,-6428,146,222,-478
0,5508306,-2359,61,-2462,-1081,-630,-6428,146,222,-478
0,5508320,-2367,61,-2468,-1077,-634,-6427,146,222,-478
0,5508333,-2367,61,-2468,-1077,-634,-6427,146,222,-478
0,5508347,-2368,65,-2476,-1080,-636,-6432,139,233,-477
0,5508361,-2367,61,-2470,-1084,-624,-6428,139,233,-477
0,5508374,-2367,61,-2470,-1084,-624,-6428,139,233,-477
0,5508386,-2364,61,-2473,-1083,-625,-6431,139,233,-477
0,5508401,-2364,61,-2473,-1083,-625,-6431,139,233,-477
0,5508414,-2364,61,-2473,-1083,-625,-6431,139,233,-477
0,5508428,-2363,69,-2465,-1080,-635,-6431,139,233,-477
0,5508443,-2361,69,-2466,-1084,-629,-6423,139,233,-477
0,5508454,-2361,69,-2466,-1084,-629,-6423,139,233,-477
0,5508468,-2359,67,-2462,-1084,-628,-6426,139,233,-477
0,5508484,-2362,68,-2462,-1089,-626,-6432,144,230,-478
0,5508497,-2362,68,-2462,-1089,-626,-6432,144,230,-478
0,5508509,-2363,86,-2462,-1089,-626,-6428,144,230,-478
0,5508524,-2365,72,-2464,-1089,-632,-6426,144,230,-478
0,5508537,-2365,72,-2464,-1089,-632,-6426,144,230,-478
0,5508549,-2361,66,-2468,-1081,-630,-6422,144,230,-478
0,5508563,-2362,77,-2473,-1072,-625,-6426,144,230,-478
0,5508577,-2362,77,-2473,-1072,-625,-6426,144,230,-478
0,5508590,-2356,76,-2465,-1082,-635,-6420,144,230,-478
0,5508603,-2358,75,-2467,-1081,-621,-6427,146,248,-478
0,5508617,-2358,75,-2467,-1081,-621,-6427,146,248,-478
0,5508631,-2357,63,-2462,-1080,-633,-6426,146,248,-478
0,5508645,-2352,67,-2466,-1079,-627,-6414,146,248,-478
0,5508662,-2356,66,-2464,-1084,-620,-6419,146,248,-478
0,5508677,-2356,66,-2464,-1084,-620,-6419,146,248,-478
0,5508691,-2358,76,-2470,-1089,-627,-6422,146,248,-478
0,5508706,-2353,66,-2468,-1084,-632,-6422,146,248,-478
0,5508719,-2353,66,-2468,-1084,-632,-6422,146,248,-478
0,5508732,-2357,61,-2475,-1074,-622,-6421,146,248,-478
0,5508744,-2360,56,-2466,-1079,-628,-6424,151,251,-487
0,5508758,-2360,56,-2466,-1079,-628,-6424,151,251,-487
0,5508771,-2358,64,-2468,-1079,-627,-6424,151,251,-487
0,5508785,-2354,42,-2466,-1087,-625,-6416,151,251,-487
0,5508798,-2354,42,-2466,-1087,-625,-6416,151,251,-487
0,5508811,-2355,46,-2469,-1075,-628,-6412,151,251,-487
0,5508826,-2355,14,-2460,-1087,-626,-6419,151,251,-487
0,5508838,-2355,14,-2460,-1087,-626,-6419,151,251,-487
0,5508848,-2352,61,-2464,-1083,-628,-6419,151,251,-487
0,5508857,-2352,61,-2464,-1083,-628,-6419,151,251,-487
0,5508866,-2359,35,-2459,-1080,-625,-6412,147,259,-487
0,5508875,-2359,35,-2459,-1080,-625,-6412,147,259,-487
0,5508886,-2353,50,-2456,-1077,-628,-6420,147,259,-487
0,5508893,-2353,50,-2456,-1077,-628,-6420,147,259,-487
0,5508901,-2361,27,-2467,-1084,-629,-6417,147,259,-487
0,5508911,-2361,27,-2467,-1084,-629,-6417,147,259,-487
0,5508920,-2361,27,-2467,-1084,-629,-6417,147,259,-487
0,5508929,-2358,57,-2465,-1081,-625,-6423,147,259,-487
0,5508937,-2358,57,-2465,-1081,-625,-6423,147,259,-487
0,5508946,-2363,39,-2470,-1071,-630,-6428,147,259,-487
0,5508956,-2363,39,-2470,-1071,-630,-6428,147,259,-487
0,5508965,-2363,39,-2470,-1071,-630,-6428,147,259,-487
0,5508973,-2363,39,-2470,-1071,-630,-6428,147,259,-487
0,5508982,-2359,22,-2462,-1087,-622,-6425,147,259,-487
0,5508992,-2359,22,-2462,-1087,-622,-6425,147,259,-487
0,5509001,-2359,22,-2462,-1087,-622,-6425,147,259,-487
0,5509008,-2357,48,-2465,-1072,-626,-6426,162,258,-494
0,5509017,-2357,48,-2465,-1072,-626,-6426,162,258,-494
0,5509026,-2357,26,-2461,-1075,-628,-6424,162,258,-494
0,5509036,-2357,26,-2461,-1075,-628,-6424,162,258,-494
0,5509046,-2360,43,-2468,-1081,-627,-6427,162,258,-494
0,5509053,-2360,43,-2468,-1081,-627,-6427,162,258,-494
0,5509062,-2363,21,-2464,-1090,-629,-6435,162,258,-494
0,5509071,-2363,21,-2464,-1090,-629,-6435,162,258,-494
0,5509081,-2363,39,-2470,-1086,-634,-6431,162,258,-494
0,5509090,-2363,39,-2470,-1086,-634,-6431,162,258,-494
0,5509099,-2363,39,-2470,-1086,-634,-6431,162,258,-494
0,5509107,-2363,39,-2470,-1086,-634,-6431,162,258,-494
0,5509116,-2363,39,-2470,-1086,-634,-6431,162,258,-494
0,5509126,-2367,50,-2465,-1073,-620,-6433,171,271,-489
0,5509133,-2367,50,-2465,-1073,-620,-6433,171,271,-489
0,5509143,-2367,50,-2465,-1073,-620,-6433,171,271,-489
0,5509152,-2367,50,-2465,-1073,-620,-6433,171,271,-489
0,5509160,-2364,50,-2463,-1075,-627,-6430,171,271,-489
0,5509169,-2364,50,-2463,-1075,-627,-6430,171,271,-489
0,5509178,-2364,50,-2463,-1075,-627,-6430,171,271,-489
0,5509186,-2362,54,-2460,-1082,-624,-6433,171,271,-489
0,5509195,-2362,54,-2460,-1082,-624,-6433,171,271,-489
0,5509204,-2363,58,-2465,-1085,-633,-6437,171,271,-489
0,5509215,-2363,58,-2465,-1085,-633,-6437,171,271,-489
0,5509224,-2363,57,-2466,-1084,-637,-6434,171,271,-489
0,5509232,-2363,57,-2466,-1084,-637,-6434,171,271,-489
0,5509240,-2362,51,-2462,-1081,-625,-6435,171,277,-489
0,5509250,-2362,51,-2462,-1081,-625,-6435,171,277,-489
0,5509259,-2362,51,-2462,-1081,-625,-6435,171,277,-489
0,5509268,-2367,102,-2462,-1081,-616,-6430,171,277,-489
0,5509277,-2367,102,-2462,-1081,-616,-6430,171,277,-489
0,5509284,-2363,66,-2466,-1077,-625,-6428,171,277,-489
0,5509295,-2363,66,-2466,-1077,-625,-6428,171,277,-489
0,5509304,-2364,83,-2464,-1084,-623,-6428,171,277,-489
0,5509312,-2364,83,-2464,-1084,-623,-6428,171,277,-489
0,5509321,-2362,59,-2469,-1083,-626,-6431,171,277,-489
0,5509329,-2362,59,-2469,-1083,-626,-6431,171,277,-489
0,5509339,-2362,59,-2469,-1083,-626,-6431,171,277,-489
0,5509348,-2366,100,-2470,-1079,-622,-6437,171,277,-489
0,5509356,-2366,100,-2470,-1079,-622,-6437,171,277,-489
0,5509365,-2359,67,-2465,-1075,-627,-6427,171,277,-489
0,5509372,-2359,67,-2465,-1075,-627,-6427,171,277,-489
0,5509381,-2358,80,-2458,-1090,-625,-6426,171,277,-489
0,5509387,-2358,80,-2458,-1090,-625,-6426,173,277,-495
0,5509395,-2358,80,-2458,-1090,-625,-6426,173,277,-495
0,5509403,-2359,56,-2471,-1090,-630,-6428,173,277,-495
0,5509412,-2359,56,-2471,-1090,-630,-6428,173,277,-495
0,5509421,-2358,78,-2470,-1079,-633,-6428,173,277,-495
0,5509430,-2358,78,-2470,-1079,-633,-6428,173,277,-495
0,5509438,-2358,78,-2470,-1079,-633,-6428,173,277,-495
0,5509447,-2360,61,-2465,-1075,-621,-6425,173,277,-495
0,5509456,-2360,61,-2465,-1075,-621,-6425,173,277,-495
0,5509466,-2360,75,-2465,-1083,-631,-6420,173,277,-495
0,5509474,-2360,75,-2465,-1083,-631,-6420,173,277,-495
0,5509482,-2362,59,-2470,-1088,-637,-6424,173,277,-495
0,5509490,-2362,59,-2470,-1088,-637,-6424,173,277,-495
0,5509498,-2362,59,-2470,-1088,-637,-6424,173,277,-495
0,5509508,-2355,63,-2469,-1081,-634,-6420,180,288,-496
0,5509516,-2355,63,-2469,-1081,-634,-6420,180,288,-496
0,5509524,-2359,71,-2460,-1071,-619,-6421,180,288,-496
0,5509531,-2359,71,-2460,-1071,-619,-6421,180,288,-496
0,5509539,-2359,71,-2460,-1071,-619,-6421,180,288,-496
0,5509549,-2353,74,-2463,-1076,-629,-6418,180,288,-496
0,5509559,-2353,74,-2463,-1076,-629,-6418,180,288,-496
0,5509567,-2352,58,-2472,-1077,-628,-6421,180,288,-496
0,5509575,-2352,58,-2472,-1077,-628,-6421,180,288,-496
0,5509584,-2354,54,-2468,-1081,-619,-6420,180,288,-496
0,5509593,-2354,54,-2468,-1081,-619,-6420,180,288,-496
0,5509602,-2354,61,-2463,-1078,-623,-6419,180,288,-496
0,5509611,-2354,61,-2463,-1078,-623,-6419,180,288,-496
0,5509621,-2354,61,-2463,-1078,-623,-6419,180,288,-496
0,5509630,-2358,66,-2465,-1082,-629,-6423,180,288,-496
0,5509640,-2358,66,-2465,-1082,-629,-6423,180,288,-496
0,5509648,-2355,61,-2468,-1082,-632,-6420,190,294,-502
0,5509657,-2355,61,-2468,-1082,-632,-6420,190,294,-502
0,5509666,-2359,55,-2465,-1086,-629,-6416,190,294,-502
0,5509675,-2359,55,-2465,-1086,-629,-6416,190,294,-502
0,5509685,-2356,52,-2469,-1087,-630,-6422,190,294,-502
0,5509693,-2356,52,-2469,-1087,-630,-6422,190,294,-502
0,5509701,-2356,59,-2474,-1088,-630,-6423,190,294,-502
0,5509710,-2356,59,-2474,-1088,-630,-6423,190,294,-502
0,5509719,-2356,59,-2474,-1088,-630,-6423,190,294,-502
0,5509727,-2355,51,-2470,-1085,-629,-6418,190,294,-502
0,5509734,-2355,51,-2470,-1085,-629,-6418,190,294,-502
0,5509742,-2352,40,-2473,-1084,-625,-6418,190,294,-502
0,5509751,-2352,40,-2473,-1084,-625,-6418,190,294,-502
0,5509761,-2352,40,-2473,-1084,-625,-6418,190,294,-502
0,5509769,-2351,7,-2468,-1077,-620,-6418,192,302,-502
0,5509780,-2351,7,-2468,-1077,-620,-6418,192,302,-502
0,5509789,-2351,28,-2466,-1076,-625,-6425,192,302,-502
0,5509797,-2351,28,-2466,-1076,-625,-6425,192,302,-502
0,5509806,-2357,19,-2463,-1073,-625,-6419,192,302,-502
0,5509815,-2357,19,-2463,-1073,-625,-6419,192,302,-502
0,5509823,-2361,31,-2467,-1077,-628,-6419,192,302,-502
0,5509831,-2361,31,-2467,-1077,-628,-6419,192,302,-502
0,5509840,-2361,31,-2467,-1077,-628,-6419,192,302,-502
0,5509849,-2364,13,-2472,-1085,-628,-6421,192,302,-502
0,5509861,-2364,13,-2472,-1085,-628,-6421,192,302,-502
0,5509876,-2361,29,-2470,-1074,-620,-6421,192,302,-502
0,5509892,-2364,22,-2467,-1089,-626,-6429,199,307,-499
0,5509907,-2363,37,-2461,-1079,-620,-6435,199,307,-499
0,5509922,-2361,27,-2464,-1079,-625,-6430,199,307,-499
0,5509934,-2361,27,-2464,-1079,-625,-6430,199,307,-499
0,5509948,-2359,37,-2467,-1087,-617,-6432,199,307,-499
0,5509961,-2365,43,-2466,-1083,-628,-6427,199,307,-499
0,5509975,-2365,43,-2466,-1083,-628,-6427,199,307,-499
0,5509989,-2363,52,-2462,-1073,-623,-6436,199,307,-499
0,5510002,-2363,56,-2462,-1082,-626,-6434,199,307,-499
0,5510017,-2363,56,-2462,-1082,-626,-6434,199,307,-499
0,5510033,-2365,47,-2468,-1087,-630,-6429,203,305,-503
0,5510045,-2365,57,-2466,-1082,-618,-6433,203,305,-503
0,5510059,-2365,57,-2466,-1082,-618,-6433,203,305,-503
0,5510073,-2364,79,-2470,-1090,-626,-6430,203,305,-503
0,5510085,-2361,93,-2470,-1087,-619,-6436,203,305,-503
0,5510098,-2361,93,-2470,-1087,-619,-6436,203,305,-503
0,5510112,-2361,64,-2464,-1077,-629,-6435,203,305,-503
0,5510127,-2361,60,-2465,-1086,-625,-6429,203,305,-503
0,5510142,-2361,87,-2466,-1077,-626,-6427,210,310,-510
0,5510158,-2361,87,-2466,-1077,-626,-6427,210,310,-510
0,5510172,-2364,75,-2465,-1069,-627,-6429,210,310,-510
0,5510185,-2357,72,-2460,-1082,-630,-6430,210,310,-510
0,5510201,-2357,72,-2460,-1082,-630,-6430,210,310,-510
0,5510208,-2361,56,-2472,-1086,-630,-6435,210,310,-510
0,5510221,-2361,56,-2472,-1086,-630,-6435,210,310,-510
0,5510233,-2357,79,-2476,-1084,-635,-6434,210,310,-510
0,5510247,-2365,65,-2472,-1082,-632,-6425,210,310,-510
0,5510260,-2365,65,-2472,-1082,-632,-6425,210,310,-510
0,5510275,-2363,76,-2466,-1098,-623,-6418,210,310,-510
0,5510289,-2359,58,-2469,-1092,-632,-6424,208,298,-506
0,5510300,-2359,58,-2469,-1092,-632,-6424,208,298,-506
0,5510313,-2357,71,-2468,-1083,-629,-6421,208,298,-506
0,5510327,-2359,64,-2469,-1072,-623,-6425,208,298,-506
0,5510339,-2359,64,-2469,-1072,-623,-6425,208,298,-506
0,5510354,-2358,77,-2462,-1076,-626,-6430,208,298,-506
0,5510369,-2354,61,-2473,-1088,-633,-6426,208,298,-506
0,5510382,-2354,61,-2473,-1088,-633,-6426,208,298,-506
0,5510397,-2352,64,-2475,-1083,-626,-6423,208,298,-506
0,5510412,-2355,60,-2468,-1077,-624,-6430,218,306,-508
0,5510426,-2361,74,-2469,-1083,-631,-6432,218,306,-508
0,5510440,-2361,74,-2469,-1083,-631,-6432,218,306,-508
0,5510453,-2356,62,-2476,-1086,-631,-6418,218,306,-508
0,5510466,-2355,53,-2470,-1074,-626,-6423,218,306,-508
0,5510479,-2355,53,-2470,-1074,-626,-6423,218,306,-508
0,5510493,-2353,58,-2468,-1083,-623,-6420,218,306,-508
0,5510507,-2353,58,-2468,-1083,-623,-6420,218,306,-508
0,5510519,-2353,58,-2468,-1083,-623,-6420,218,306,-508
0,5510532,-2350,50,-2469,-1076,-634,-6419,218,306,-508
0,5510547,-2350,19,-2463,-1075,-634,-6423,215,299,-499
0,5510561,-2350,19,-2463,-1075,-634,-6423,215,299,-499
0,5510575,-2356,6,-2469,-1080,-631,-6425,215,299,-499
0,5510589,-2358,27,-2466,-1076,-628,-6422,215,299,-499
0,5510604,-2361,36,-2468,-1079,-632,-6417,215,299,-499
0,5510618,-2361,36,-2468,-1079,-632,-6417,215,299,-499
0,5510630,-2363,12,-2469,-1083,-632,-6427,215,299,-499
0,5510644,-2362,17,-2469,-1084,-628,-6425,215,299,-499
0,5510658,-2362,17,-2469,-1084,-628,-6425,215,299,-499
0,5510670,-2362,26,-2469,-1083,-629,-6433,236,310,-510
0,5510684,-2365,46,-2458,-1077,-626,-6439,236,310,-510
0,5510699,-2365,46,-2458,-1077,-626,-6439,236,310,-510
0,5510712,-2361,27,-2461,-1081,-625,-6436,236,310,-510
0,5510725,-2359,40,-2475,-1091,-632,-6442,236,310,-510
0,5510740,-2359,40,-2475,-1091,-632,-6442,236,310,-510
0,5510752,-2362,36,-2469,-1083,-629,-6441,236,310,-510
0,5510765,-2367,57,-2463,-1075,-625,-6433,236,310,-510
0,5510779,-2367,57,-2463,-1075,-625,-6433,236,310,-510
0,5510792,-2368,55,-2466,-1080,-634,-6424,235,303,-503
0,5510807,-2364,57,-2464,-1083,-637,-6439,235,303,-503
0,5510821,-2364,57,-2464,-1083,-637,-6439,235,303,-503
0,5510835,-2359,46,-2473,-1092,-638,-6439,235,303,-503
0,5510849,-2366,83,-2461,-1086,-624,-6442,235,303,-503
0,5510860,-2366,83,-2461,-1086,-624,-6442,235,303,-503
0,5510870,-2359,92,-2465,-1078,-627,-6438,235,303,-503
0,5510879,-2359,92,-2465,-1078,-627,-6438,235,303,-503
0,5510887,-2360,74,-2472,-1088,-629,-6429,235,303,-503
0,5510896,-2360,74,-2472,-1088,-629,-6429,235,303,-503
0,5510904,-2357,50,-2466,-1081,-622,-6426,235,303,-503
0,5510914,-2357,50,-2466,-1081,-622,-6426,235,303,-503
0,5510922,-2357,50,-2466,-1081,-622,-6426,235,303,-503
0,5510930,-2364,89,-2463,-1075,-627,-6430,231,305,-505
0,5510938,-2364,89,-2463,-1075,-627,-6430,231,305,-505
0,5510946,-2360,76,-2459,-1071,-633,-6427,231,305,-505
0,5510956,-2360,76,-2459,-1071,-633,-6427,231,305,-505
0,5510964,-2361,81,-2469,-1079,-633,-6422,231,305,-505
0,5510973,-2361,81,-2469,-1079,-633,-6422,231,305,-505
0,5510981,-2361,81,-2469,-1079,-633,-6422,231,305,-505
0,5510989,-2357,50,-2466,-1075,-627,-6430,231,305,-505
0,5510998,-2357,50,-2466,-1075,-627,-6430,231,305,-505
0,5511006,-2357,50,-2466,-1075,-627,-6430,231,305,-505
0,5511016,-2357,50,-2466,-1075,-627,-6430,231,305,-505
0,5511025,-2359,64,-2466,-1068,-623,-6425,231,305,-505
0,5511033,-2359,64,-2466,-1068,-623,-6425,231,305,-505
0,5511042,-2359,64,-2466,-1068,-623,-6425,231,305,-505
0,5511051,-2357,85,-2455,-1077,-616,-6427,236,302,-500
0,5511060,-2357,85,-2455,-1077,-616,-6427,236,302,-500
0,5511070,-2358,55,-2470,-1088,-625,-6424,236,302,-500
0,5511080,-2358,55,-2470,-1088,-625,-6424,236,302,-500
0,5511090,-2354,74,-2468,-1083,-630,-6423,236,302,-500
0,5511099,-2354,74,-2468,-1083,-630,-6423,236,302,-500
0,5511107,-2359,65,-2465,-1078,-627,-6421,236,302,-500
0,5511115,-2359,65,-2465,-1078,-627,-6421,236,302,-500
0,5511122,-2359,65,-2465,-1078,-627,-6421,236,302,-500
0,5511131,-2354,81,-2464,-1084,-625,-6428,236,302,-500
0,5511139,-2354,81,-2464,-1084,-625,-6428,236,302,-500
0,5511148,-2359,61,-2479,-1093,-630,-6420,236,302,-500
0,5511157,-2359,61,-2479,-1093,-630,-6420,236,302,-500
0,5511166,-2349,61,-2474,-1081,-631,-6415,236,302,-500
0,5511175,-2349,61,-2474,-1081,-631,-6415,236,302,-500
0,5511183,-2349,61,-2474,-1081,-631,-6415,236,302,-500
0,5511191,-2361,63,-2459,-1078,-629,-6426,237,303,-501
0,5511199,-2361,63,-2459,-1078,-629,-6426,237,303,-501
0,5511207,-2356,74,-2466,-1084,-633,-6436,237,303,-501
0,5511217,-2356,74,-2466,-1084,-633,-6436,237,303,-501
0,5511226,-2355,66,-2472,-1081,-631,-6430,237,303,-501
0,5511237,-2355,66,-2472,-1081,-631,-6430,237,303,-501
0,5511246,-2353,62,-2472,-1075,-630,-6416,237,303,-501
0,5511256,-2353,62,-2472,-1075,-630,-6416,237,303,-501
0,5511265,-2356,65,-2462,-1082,-618,-6414,237,303,-501
0,5511273,-2356,65,-2462,-1082,-618,-6414,237,303,-501
0,5511282,-2356,65,-2462,-1082,-618,-6414,237,303,-501
0,5511290,-2353,75,-2469,-1083,-616,-6426,237,303,-501
0,5511298,-2353,75,-2469,-1083,-616,-6426,237,303,-501
0,5511304,-2352,64,-2468,-1082,-621,-6424,245,297,-499
0,5511314,-2352,64,-2468,-1082,-621,-6424,245,297,-499
0,5511323,-2352,64,-2468,-1082,-621,-6424,245,297,-499
0,5511333,-2353,45,-2464,-1084,-626,-6417,245,297,-499
0,5511342,-2353,45,-2464,-1084,-626,-6417,245,297,-499
0,5511351,-2351,31,-2466,-1074,-625,-6414,245,297,-499
0,5511362,-2351,31,-2466,-1074,-625,-6414,245,297,-499
0,5511370,-2360,13,-2471,-1070,-624,-6414,245,297,-499
0,5511379,-2360,13,-2471,-1070,-624,-6414,245,297,-499
0,5511390,-2355,33,-2478,-1078,-622,-6412,245,297,-499
0,5511398,-2355,33,-2478,-1078,-622,-6412,245,297,-499
0,5511408,-2359,32,-2471,-1079,-621,-6421,245,297,-499
0,5511416,-2359,32,-2471,-1079,-621,-6421,245,297,-499
0,5511427,-2357,17,-2467,-1083,-626,-6425,245,297,-499
0,5511436,-2357,17,-2467,-1083,-626,-6425,245,297,-499
0,5511445,-2361,26,-2471,-1087,-635,-6423,245,297,-499
0,5511454,-2361,26,-2471,-1087,-635,-6423,245,297,-499
0,5511464,-2361,34,-2468,-1081,-630,-6423,245,297,-499
0,5511475,-2361,34,-2468,-1081,-630,-6423,245,297,-499
0,5511482,-2361,34,-2468,-1081,-630,-6423,245,297,-499
0,5511492,-2360,41,-2463,-1079,-628,-6434,245,297,-499
0,5511501,-2360,41,-2463,-1079,-628,-6434,245,297,-499
0,5511510,-2360,34,-2467,-1079,-627,-6437,245,297,-499
0,5511520,-2360,34,-2467,-1079,-627,-6437,245,297,-499
0,5511528,-2358,43,-2467,-1080,-631,-6438,245,297,-499
0,5511539,-2358,43,-2467,-1080,-631,-6438,245,297,-499
0,5511547,-2359,50,-2473,-1078,-625,-6431,245,297,-499
0,5511558,-2359,50,-2473,-1078,-625,-6431,245,297,-499
0,5511567,-2365,47,-2464,-1080,-625,-6431,243,283,-495
0,5511576,-2365,47,-2464,-1080,-625,-6431,243,283,-495
0,5511584,-2365,54,-2464,-1085,-632,-6428,243,283,-495
0,5511595,-2365,54,-2464,-1085,-632,-6428,243,283,-495
0,5511604,-2362,55,-2470,-1080,-627,-6432,243,283,-495
0,5511614,-2362,55,-2470,-1080,-627,-6432,243,283,-495
0,5511625,-2363,51,-2466,-1077,-625,-6430,243,283,-495
0,5511633,-2363,51,-2466,-1077,-625,-6430,243,283,-495
0,5511642,-2363,51,-2466,-1077,-625,-6430,243,283,-495
0,5511652,-2361,68,-2468,-1085,-630,-6431,243,283,-495
0,5511662,-2361,68,-2468,-1085,-630,-6431,243,283,-495
0,5511671,-2362,65,-2458,-1081,-630,-6433,243,283,-495
0,5511680,-2362,65,-2458,-1081,-630,-6433,243,283,-495
0,5511690,-2358,62,-2470,-1072,-628,-6435,245,275,-501
0,5511699,-2358,62,-2470,-1072,-628,-6435,245,275,-501
0,5511708,-2361,51,-2460,-1078,-624,-6434,245,275,-501
0,5511715,-2361,51,-2460,-1078,-624,-6434,245,275,-501
0,5511726,-2360,59,-2467,-1078,-625,-6431,245,275,-501
0,5511734,-2360,59,-2467,-1078,-625,-6431,245,275,-501
0,5511743,-2360,59,-2467,-1078,-625,-6431,245,275,-501
0,5511753,-2362,50,-2461,-1078,-634,-6427,245,275,-501
0,5511762,-2362,50,-2461,-1078,-634,-6427,245,275,-501
0,5511774,-2363,53,-2471,-1079,-627,-6434,245,275,-501
0,5511783,-2363,53,-2471,-1079,-627,-6434,245,275,-501
0,5511792,-2361,41,-2470,-1070,-622,-6427,245,275,-501
0,5511802,-2361,41,-2470,-1070,-622,-6427,245,275,-501
0,5511809,-2360,54,-2466,-1081,-624,-6432,245,275,-501
0,5511819,-2360,54,-2466,-1081,-624,-6432,245,275,-501
0,5511827,-2363,40,-2470,-1077,-630,-6425,237,277,-491
0,5511836,-2363,40,-2470,-1077,-630,-6425,237,277,-491
0,5511846,-2365,59,-2467,-1079,-628,-6432,237,277,-491
0,5511855,-2365,59,-2467,-1079,-628,-6432,237,277,-491
0,5511866,-2357,41,-2463,-1080,-624,-6437,237,277,-491
0,5511878,-2357,41,-2463,-1080,-624,-6437,237,277,-491
0,5511894,-2364,65,-2469,-1082,-635,-6429,237,277,-491
0,5511908,-2363,48,-2466,-1078,-637,-6428,237,277,-491
0,5511922,-2363,48,-2466,-1078,-637,-6428,237,277,-491
0,5511936,-2366,61,-2464,-1082,-626,-6436,237,277,-491
0,5511950,-2366,50,-2468,-1084,-624,-6443,248,274,-496
0,5511963,-2366,50,-2468,-1084,-624,-6443,248,274,-496
0,5511977,-2371,102,-2466,-1085,-627,-6444,248,274,-496
0,5511992,-2364,67,-2466,-1097,-632,-6436,248,274,-496
0,5512005,-2364,67,-2466,-1097,-632,-6436,248,274,-496
0,5512018,-2364,67,-2466,-1097,-632,-6436,248,274,-496
0,5512033,-2359,61,-2470,-1087,-628,-6432,248,274,-496
0,5512047,-2360,96,-2465,-1076,-626,-6440,248,274,-496
0,5512062,-2360,96,-2465,-1076,-626,-6440,248,274,-496
0,5512076,-2358,70,-2463,-1078,-624,-6428,248,274,-496
0,5512084,-2353,86,-2455,-1085,-630,-6428,248,274,-496
0,5512097,-2353,86,-2455,-1085,-630,-6428,246,272,-502
0,5512112,-2356,63,-2472,-1087,-633,-6426,246,272,-502
0,5512127,-2357,80,-2474,-1087,-632,-6423,246,272,-502
0,5512139,-2357,80,-2474,-1087,-632,-6423,246,272,-502
0,5512154,-2364,69,-2471,-1082,-618,-6428,246,272,-502
0,5512168,-2359,82,-2470,-1083,-626,-6427,246,272,-502
0,5512180,-2359,82,-2470,-1083,-626,-6427,246,272,-502
0,5512193,-2356,72,-2476,-1080,-624,-6420,246,272,-502
0,5512206,-2352,70,-2462,-1079,-623,-6430,241,261,-501
0,5512219,-2352,70,-2462,-1079,-623,-6430,241,261,-501
0,5512233,-2355,83,-2461,-1086,-621,-6426,241,261,-501
0,5512245,-2352,75,-2464,-1090,-633,-6431,241,261,-501
0,5512258,-2352,75,-2464,-1090,-633,-6431,241,261,-501
0,5512273,-2351,71,-2469,-1090,-638,-6430,241,261,-501
0,5512288,-2351,61,-2460,-1086,-626,-6425,241,261,-501
0,5512301,-2351,61,-2460,-1086,-626,-6425,241,261,-501
0,5512315,-2355,72,-2467,-1084,-618,-6424,241,261,-501
0,5512324,-2355,72,-2467,-1084,-618,-6424,241,261,-501
0,5512339,-2356,68,-2477,-1083,-627,-6422,241,261,-501
0,5512353,-2354,70,-2465,-1087,-633,-6420,253,253,-495
0,5512368,-2353,62,-2465,-1082,-630,-6418,253,253,-495
0,5512379,-2353,62,-2465,-1082,-630,-6418,253,253,-495
0,5512393,-2350,72,-2467,-1072,-626,-6412,253,253,-495
0,5512407,-2348,72,-2473,-1075,-624,-6410,253,253,-495
0,5512420,-2348,72,-2473,-1075,-624,-6410,253,253,-495
0,5512433,-2348,66,-2467,-1085,-626,-6422,253,253,-495
0,5512449,-2349,44,-2464,-1090,-633,-6426,253,253,-495
0,5512463,-2349,44,-2464,-1090,-633,-6426,253,253,-495
0,5512475,-2345,29,-2469,-1083,-629,-6423,242,246,-496
0,5512487,-2349,5,-2466,-1080,-626,-6418,242,246,-496
0,5512497,-2349,5,-2466,-1080,-626,-6418,242,246,-496
0,5512505,-2354,18,-2465,-1082,-630,-6424,242,246,-496
0,5512519,-2354,18,-2465,-1082,-630,-6424,242,246,-496
0,5512534,-2361,29,-2467,-1077,-634,-6425,242,246,-496
0,5512548,-2355,6,-2467,-1077,-633,-6428,242,246,-496
0,5512563,-2355,6,-2467,-1077,-633,-6428,242,246,-496
0,5512579,-2357,23,-2472,-1082,-619,-6426,242,246,-496
0,5512593,-2359,17,-2464,-1078,-629,-6436,241,237,-501
0,5512606,-2359,33,-2464,-1074,-628,-6436,241,237,-501
0,5512620,-2359,33,-2464,-1074,-628,-6436,241,237,-501
0,5512635,-2361,16,-2463,-1078,-627,-6437,241,237,-501
0,5512648,-2361,38,-2472,-1082,-623,-6433,241,237,-501
0,5512664,-2361,38,-2472,-1082,-623,-6433,241,237,-501
0,5512677,-2363,30,-2473,-1072,-628,-6439,241,237,-501
0,5512690,-2366,50,-2469,-1068,-619,-6439,241,237,-501
0,5512700,-2366,50,-2469,-1068,-619,-6439,241,237,-501
0,5512716,-2367,54,-2467,-1071,-625,-6440,241,237,-501
0,5512727,-2366,68,-2468,-1077,-634,-6436,246,230,-512
0,5512742,-2366,68,-2468,-1077,-634,-6436,246,230,-512
0,5512757,-2364,50,-2471,-1081,-626,-6435,246,230,-512
0,5512771,-2364,67,-2467,-1086,-615,-6437,246,230,-512
0,5512784,-2364,67,-2467,-1086,-615,-6437,246,230,-512
0,5512799,-2363,102,-2464,-1076,-623,-6431,246,230,-512
0,5512814,-2362,72,-2458,-1071,-622,-6438,246,230,-512
0,5512827,-2359,66,-2464,-1076,-620,-6440,246,230,-512
0,5512840,-2359,66,-2464,-1076,-620,-6440,246,230,-512
0,5512853,-2363,71,-2457,-1073,-628,-6436,240,222,-500
0,5512865,-2359,81,-2461,-1070,-623,-6432,240,222,-500
0,5512875,-2359,81,-2461,-1070,-623,-6432,240,222,-500
0,5512884,-2359,81,-2461,-1070,-623,-6432,240,222,-500
0,5512892,-2365,73,-2461,-1070,-621,-6424,240,222,-500
0,5512901,-2365,73,-2461,-1070,-621,-6424,240,222,-500
0,5512910,-2357,66,-2466,-1069,-622,-6429,240,222,-500
0,5512920,-2357,66,-2466,-1069,-622,-6429,240,222,-500
0,5512928,-2359,77,-2471,-1079,-622,-6428,240,222,-500
0,5512936,-2359,77,-2471,-1079,-622,-6428,240,222,-500
0,5512945,-2361,71,-2471,-1081,-623,-6429,240,222,-500
0,5512954,-2361,71,-2471,-1081,-623,-6429,240,222,-500
0,5512965,-2361,71,-2471,-1081,-623,-6429,240,222,-500
0,5512972,-2359,91,-2455,-1082,-627,-6435,240,222,-500
0,5512981,-2359,91,-2455,-1082,-627,-6435,240,222,-500
0,5512990,-2354,72,-2461,-1087,-624,-6422,243,211,-507
0,5512998,-2354,72,-2461,-1087,-624,-6422,243,211,-507
0,5513008,-2356,80,-2461,-1085,-624,-6429,243,211,-507
0,5513016,-2356,80,-2461,-1085,-624,-6429,243,211,-507
0,5513024,-2356,80,-2461,-1085,-624,-6429,243,211,-507
0,5513032,-2357,68,-2466,-1083,-626,-6426,243,211,-507
0,5513040,-2357,68,-2466,-1083,-626,-6426,243,211,-507
0,5513051,-2355,88,-2462,-1084,-626,-6415,243,211,-507
0,5513059,-2355,88,-2462,-1084,-626,-6415,243,211,-507
0,5513069,-2360,75,-2468,-1086,-629,-6426,243,211,-507
0,5513077,-2360,75,-2468,-1086,-629,-6426,243,211,-507
0,5513086,-2353,77,-2479,-1077,-627,-6425,243,211,-507
0,5513095,-2353,77,-2479,-1077,-627,-6425,243,211,-507
0,5513103,-2353,77,-2479,-1077,-627,-6425,243,211,-507
0,5513111,-2358,71,-2463,-1077,-622,-6426,237,211,-505
0,5513119,-2358,71,-2463,-1077,-622,-6426,237,211,-505
0,5513128,-2353,91,-2467,-1077,-627,-6420,237,211,-505
0,5513137,-2353,91,-2467,-1077,-627,-6420,237,211,-505
0,5513148,-2354,85,-2465,-1079,-631,-6416,237,211,-505
0,5513157,-2354,85,-2465,-1079,-631,-6416,237,211,-505
0,5513165,-2348,84,-2462,-1078,-626,-6423,237,211,-505
0,5513175,-2348,84,-2462,-1078,-626,-6423,237,211,-505
0,5513183,-2348,84,-2462,-1078,-626,-6423,237,211,-505
0,5513191,-2352,72,-2456,-1082,-621,-6419,237,211,-505
0,5513201,-2352,72,-2456,-1082,-621,-6419,237,211,-505
0,5513211,-2349,77,-2465,-1085,-633,-6425,237,211,-505
0,5513221,-2349,77,-2465,-1085,-633,-6425,237,211,-505
0,5513229,-2350,63,-2468,-1076,-631,-6423,226,196,-490
0,5513237,-2350,63,-2468,-1076,-631,-6423,226,196,-490
0,5513244,-2350,63,-2468,-1076,-631,-6423,226,196,-490
0,5513253,-2350,70,-2467,-1080,-625,-6419,226,196,-490
0,5513262,-2350,70,-2467,-1080,-625,-6419,226,196,-490
0,5513271,-2354,65,-2460,-1076,-623,-6413,226,196,-490
0,5513280,-2354,65,-2460,-1076,-623,-6413,226,196,-490
0,5513289,-2354,60,-2470,-1075,-623,-6420,226,196,-490
0,5513298,-2354,60,-2470,-1075,-623,-6420,226,196,-490
0,5513308,-2350,56,-2469,-1074,-623,-6419,226,196,-490
0,5513316,-2350,56,-2469,-1074,-623,-6419,226,196,-490
0,5513324,-2350,56,-2469,-1074,-623,-6419,226,196,-490
0,5513333,-2348,44,-2467,-1082,-623,-6414,226,196,-490
0,5513342,-2348,44,-2467,-1082,-623,-6414,226,196,-490
0,5513353,-2350,11,-2467,-1079,-627,-6423,226,196,-490
0,5513360,-2350,11,-2467,-1079,-627,-6423,226,196,-490
0,5513370,-2352,14,-2455,-1070,-623,-6420,212,190,-494
0,5513378,-2352,14,-2455,-1070,-623,-6420,212,190,-494
0,5513388,-2353,30,-2462,-1076,-628,-6421,212,190,-494
0,5513396,-2353,30,-2462,-1076,-628,-6421,212,190,-494
0,5513405,-2353,30,-2462,-1076,-628,-6421,212,190,-494
0,5513413,-2350,13,-2463,-1077,-629,-6423,212,190,-494
0,5513422,-2350,13,-2463,-1077,-629,-6423,212,190,-494
0,5513432,-2361,25,-2468,-1083,-621,-6424,212,190,-494
0,5513441,-2361,25,-2468,-1083,-621,-6424,212,190,-494
0,5513451,-2358,19,-2469,-1085,-629,-6433,212,190,-494
0,5513459,-2358,19,-2469,-1085,-629,-6433,212,190,-494
0,5513467,-2363,54,-2480,-1081,-625,-6431,212,190,-494
0,5513477,-2363,54,-2480,-1081,-625,-6431,212,190,-494
0,5513485,-2363,54,-2480,-1081,-625,-6431,212,190,-494
0,5513495,-2360,45,-2464,-1083,-626,-6432,205,193,-489
0,5513503,-2360,45,-2464,-1083,-626,-6432,205,193,-489
0,5513511,-2361,64,-2469,-1076,-629,-6435,205,193,-489
0,5513520,-2361,64,-2469,-1076,-629,-6435,205,193,-489
0,5513529,-2354,53,-2469,-1079,-634,-6447,205,193,-489
0,5513536,-2354,53,-2469,-1079,-634,-6447,205,193,-489
0,5513544,-2354,53,-2469,-1079,-634,-6447,205,193,-489
0,5513552,-2359,65,-2461,-1075,-628,-6442,205,193,-489
0,5513561,-2359,65,-2461,-1075,-628,-6442,205,193,-489
0,5513569,-2355,50,-2458,-1088,-631,-6436,205,193,-489
0,5513577,-2355,50,-2458,-1088,-631,-6436,205,193,-489
0,5513586,-2362,61,-2462,-1088,-633,-6428,205,193,-489
0,5513594,-2362,61,-2462,-1088,-633,-6428,205,193,-489
0,5513604,-2362,61,-2462,-1088,-633,-6428,205,193,-489
0,5513613,-2360,43,-2468,-1080,-631,-6427,205,193,-489
0,5513622,-2360,43,-2468,-1080,-631,-6427,205,193,-489
0,5513631,-2360,43,-2468,-1080,-631,-6427,198,194,-500
0,5513640,-2360,43,-2468,-1080,-631,-6427,198,194,-500
0,5513648,-2367,45,-2468,-1082,-628,-6428,198,194,-500
0,5513656,-2367,45,-2468,-1082,-628,-6428,198,194,-500
0,5513665,-2367,45,-2468,-1082,-628,-6428,198,194,-500
0,5513673,-2361,62,-2468,-1081,-631,-6432,198,194,-500
0,5513683,-2361,62,-2468,-1081,-631,-6432,198,194,-500
0,5513692,-2363,54,-2468,-1081,-621,-6432,198,194,-500
0,5513701,-2363,54,-2468,-1081,-621,-6432,198,194,-500
0,5513712,-2361,65,-2469,-1077,-619,-6424,198,194,-500
0,5513719,-2361,65,-2469,-1077,-619,-6424,198,194,-500
0,5513729,-2362,57,-2461,-1084,-621,-6426,198,194,-500
0,5513736,-2362,57,-2461,-1084,-621,-6426,198,194,-500
0,5513744,-2362,57,-2461,-1084,-621,-6426,198,194,-500
0,5513753,-2361,68,-2457,-1092,-630,-6431,189,193,-493
0,5513761,-2361,68,-2457,-1092,-630,-6431,189,193,-493
0,5513769,-2358,56,-2462,-1080,-634,-6432,189,193,-493
0,5513779,-2358,56,-2462,-1080,-634,-6432,189,193,-493
0,5513788,-2363,66,-2460,-1087,-631,-6438,189,193,-493
0,5513797,-2363,66,-2460,-1087,-631,-6438,189,193,-493
0,5513805,-2363,66,-2460,-1087,-631,-6438,189,193,-493
0,5513814,-2359,60,-2467,-1074,-633,-6431,189,193,-493
0,5513823,-2359,60,-2467,-1074,-633,-6431,189,193,-493
0,5513832,-2364,67,-2469,-1077,-629,-6432,189,193,-493
0,5513841,-2364,67,-2469,-1077,-629,-6432,189,193,-493
0,5513849,-2360,61,-2463,-1083,-631,-6433,189,193,-493
0,5513859,-2360,61,-2463,-1083,-631,-6433,189,193,-493
0,5513867,-2363,74,-2461,-1077,-623,-6440,189,193,-493
0,5513876,-2363,74,-2461,-1077,-623,-6440,189,193,-493
0,5513890,-2363,93,-2459,-1088,-625,-6431,189,187,-493
0,5513905,-2363,93,-2459,-1088,-625,-6431,189,187,-493
0,5513916,-2359,77,-2461,-1071,-626,-6432,189,187,-493
0,5513931,-2354,84,-2465,-1082,-627,-6438,189,187,-493
0,5513947,-2362,75,-2456,-1092,-633,-6424,189,187,-493
0,5513961,-2362,75,-2456,-1092,-633,-6424,189,187,-493
0,5513974,-2357,92,-2461,-1082,-625,-6433,189,187,-493
0,5513987,-2361,72,-2460,-1079,-621,-6433,189,187,-493
0,5514001,-2361,72,-2460,-1079,-621,-6433,189,187,-493
0,5514008,-2356,80,-2463,-1086,-630,-6431,183,185,-495
0,5514023,-2356,80,-2463,-1086,-630,-6431,183,185,-495
0,5514037,-2362,72,-2470,-1074,-629,-6421,183,185,-495
0,5514050,-2354,85,-2462,-1079,-625,-6426,183,185,-495
0,5514064,-2354,85,-2462,-1079,-625,-6426,183,185,-495
0,5514078,-2355,78,-2461,-1084,-631,-6432,183,185,-495
0,5514090,-2353,85,-2466,-1085,-637,-6428,183,185,-495
0,5514102,-2353,85,-2466,-1085,-637,-6428,183,185,-495
0,5514116,-2351,66,-2465,-1074,-627,-6425,183,185,-495
0,5514131,-2353,83,-2463,-1073,-625,-6425,183,183,-493
0,5514144,-2353,83,-2463,-1073,-625,-6425,183,183,-493
0,5514159,-2353,83,-2463,-1073,-625,-6425,183,183,-493
0,5514170,-2352,77,-2466,-1073,-628,-6419,183,183,-493
0,5514183,-2352,77,-2466,-1073,-628,-6419,183,183,-493
0,5514199,-2350,68,-2468,-1078,-629,-6426,183,183,-493
0,5514210,-2356,68,-2456,-1075,-625,-6426,183,183,-493
0,5514223,-2356,68,-2456,-1075,-625,-6426,183,183,-493
0,5514237,-2354,74,-2455,-1076,-625,-6420,183,183,-493
0,5514251,-2352,68,-2465,-1083,-631,-6418,183,183,-493
0,5514264,-2352,68,-2465,-1083,-631,-6418,183,183,-493
0,5514277,-2349,63,-2466,-1076,-623,-6421,172,184,-494
0,5514292,-2353,64,-2458,-1075,-627,-6417,172,184,-494
0,5514307,-2352,63,-2462,-1077,-629,-6419,172,184,-494
0,5514318,-2352,63,-2462,-1077,-629,-6419,172,184,-494
0,5514332,-2349,60,-2462,-1083,-639,-6423,172,184,-494
0,5514345,-2349,60,-2462,-1083,-639,-6423,172,184,-494
0,5514359,-2350,52,-2460,-1091,-632,-6423,172,184,-494
0,5514372,-2349,34,-2467,-1081,-625,-6418,172,184,-494
0,5514385,-2349,34,-2467,-1081,-625,-6418,172,184,-494
0,5514400,-2355,44,-2463,-1082,-626,-6422,166,186,-504
0,5514416,-2355,43,-2462,-1083,-629,-6419,166,186,-504
0,5514430,-2355,40,-2464,-1081,-625,-6420,166,186,-504
0,5514442,-2355,40,-2464,-1081,-625,-6420,166,186,-504
0,5514456,-2358,34,-2468,-1085,-627,-6427,166,186,-504
0,5514469,-2357,41,-2466,-1076,-623,-6424,166,186,-504
0,5514482,-2357,41,-2466,-1076,-623,-6424,166,186,-504
0,5514496,-2357,46,-2460,-1081,-624,-6425,166,186,-504
0,5514506,-2357,46,-2460,-1081,-624,-6425,166,186,-504
0,5514520,-2357,47,-2466,-1092,-628,-6427,166,186,-504
0,5514532,-2362,44,-2466,-1081,-627,-6435,164,180,-490
0,5514546,-2362,44,-2466,-1081,-627,-6435,164,180,-490
0,5514560,-2361,50,-2462,-1082,-626,-6431,164,180,-490
0,5514573,-2362,47,-2465,-1082,-628,-6435,164,180,-490
0,5514586,-2362,47,-2465,-1082,-628,-6435,164,180,-490
0,5514601,-2365,56,-2465,-1081,-624,-6427,164,180,-490
0,5514616,-2361,55,-2468,-1084,-622,-6437,164,180,-490
0,5514632,-2363,66,-2466,-1080,-625,-6433,164,180,-490
0,5514643,-2363,66,-2466,-1080,-625,-6433,164,180,-490
0,5514657,-2360,64,-2456,-1081,-629,-6436,162,188,-492
0,5514673,-2363,65,-2456,-1086,-633,-6429,162,188,-492
0,5514686,-2363,65,-2456,-1086,-633,-6429,162,188,-492
0,5514700,-2364,100,-2462,-1080,-626,-6433,162,188,-492
0,5514714,-2362,80,-2456,-1070,-627,-6428,162,188,-492
0,5514728,-2361,84,-2460,-1083,-631,-6435,162,188,-492
0,5514742,-2361,84,-2460,-1083,-631,-6435,162,188,-492
0,5514755,-2362,64,-2464,-1089,-633,-6438,162,188,-492
0,5514769,-2357,104,-2469,-1085,-634,-6437,162,188,-492
0,5514782,-2357,104,-2469,-1085,-634,-6437,162,188,-492
0,5514796,-2361,73,-2451,-1078,-629,-6429,155,189,-487
0,5514811,-2359,90,-2457,-1085,-627,-6431,155,189,-487
0,5514826,-2359,90,-2457,-1085,-627,-6431,155,189,-487
0,5514841,-2356,60,-2472,-1089,-634,-6434,155,189,-487
0,5514854,-2355,93,-2465,-1079,-628,-6428,155,189,-487
0,5514868,-2355,64,-2466,-1078,-628,-6426,155,189,-487
0,5514882,-2355,64,-2466,-1078,-628,-6426,155,189,-487
0,5514896,-2357,94,-2459,-1083,-631,-6421,155,189,-487
0,5514907,-2357,94,-2459,-1083,-631,-6421,155,189,-487
0,5514920,-2358,65,-2468,-1087,-644,-6429,155,189,-479
0,5514935,-2354,82,-2460,-1081,-631,-6425,155,189,-479
0,5514948,-2357,68,-2458,-1083,-631,-6420,155,189,-479
0,5514962,-2357,68,-2458,-1083,-631,-6420,155,189,-479
0,5514974,-2357,91,-2455,-1080,-633,-6422,155,189,-479
0,5514987,-2357,91,-2455,-1080,-633,-6422,155,189,-479
0,5515000,-2354,65,-2473,-1078,-633,-6423,155,189,-479
0,5515015,-2354,65,-2473,-1078,-633,-6423,155,189,-479
0,5515029,-2354,72,-2457,-1082,-616,-6424,150,194,-472
0,5515044,-2354,72,-2457,-1082,-616,-6424,150,194,-472
0,5515059,-2352,84,-2461,-1079,-634,-6415,150,194,-472
0,5515067,-2352,84,-2461,-1079,-634,-6415,150,194,-472
0,5515075,-2346,74,-2461,-1081,-629,-6420,150,194,-472
0,5515083,-2346,74,-2461,-1081,-629,-6420,150,194,-472
0,5515092,-2352,74,-2457,-1088,-619,-6421,150,194,-472
0,5515106,-2352,74,-2457,-1088,-619,-6421,150,194,-472
0,5515119,-2350,72,-2459,-1090,-633,-6417,150,194,-472
0,5515133,-2350,78,-2462,-1088,-633,-6418,150,194,-472
0,5515147,-2350,78,-2462,-1088,-633,-6418,150,194,-472
0,5515158,-2349,63,-2460,-1084,-626,-6426,150,194,-472
0,5515172,-2353,53,-2457,-1081,-629,-6424,149,205,-473
0,5515186,-2353,53,-2457,-1081,-629,-6424,149,205,-473
0,5515199,-2351,32,-2464,-1079,-626,-6421,149,205,-473
0,5515209,-2352,30,-2465,-1080,-630,-6420,149,205,-473
0,5515223,-2352,30,-2465,-1080,-630,-6420,149,205,-473
0,5515236,-2353,47,-2462,-1074,-626,-6418,149,205,-473
0,5515250,-2349,48,-2462,-1076,-628,-6429,149,205,-473
0,5515265,-2349,48,-2462,-1076,-628,-6429,149,205,-473
0,5515278,-2355,44,-2461,-1083,-632,-6430,149,205,-473
0,5515290,-2354,41,-2462,-1089,-619,-6430,145,205,-471
0,5515305,-2354,41,-2462,-1089,-619,-6430,145,205,-471
0,5515320,-2357,55,-2458,-1079,-625,-6432,145,205,-471
0,5515335,-2357,63,-2467,-1079,-628,-6432,145,205,-471
0,5515348,-2360,44,-2456,-1077,-625,-6426,145,205,-471
0,5515361,-2360,44,-2456,-1077,-625,-6426,145,205,-471
0,5515374,-2357,56,-2471,-1091,-619,-6428,145,205,-471
0,5515388,-2357,56,-2471,-1091,-619,-6428,145,205,-471
0,5515402,-2363,48,-2470,-1077,-626,-6433,145,205,-471
0,5515416,-2360,72,-2468,-1081,-630,-6437,145,205,-471
0,5515425,-2360,72,-2468,-1081,-630,-6437,145,205,-471
0,5515436,-2362,64,-2453,-1080,-633,-6429,142,208,-470
0,5515450,-2358,71,-2467,-1094,-629,-6434,142,208,-470
0,5515465,-2358,71,-2467,-1094,-629,-6434,142,208,-470
0,5515480,-2357,60,-2466,-1091,-629,-6428,142,208,-470
0,5515495,-2359,79,-2457,-1081,-629,-6431,142,208,-470
0,5515510,-2360,79,-2454,-1077,-638,-6440,142,208,-470
0,5515517,-2360,79,-2454,-1077,-638,-6440,142,208,-470
0,5515530,-2360,72,-2466,-1081,-630,-6433,142,208,-470
0,5515545,-2360,72,-2466,-1081,-630,-6433,142,208,-470
0,5515558,-2358,59,-2459,-1077,-629,-6429,147,211,-471
0,5515572,-2360,64,-2456,-1079,-622,-6431,147,211,-471
0,5515585,-2360,64,-2456,-1079,-622,-6431,147,211,-471
0,5515598,-2361,68,-2464,-1074,-627,-6430,147,211,-471
0,5515615,-2359,62,-2466,-1087,-625,-6435,147,211,-471
0,5515627,-2359,62,-2466,-1087,-625,-6435,147,211,-471
0,5515641,-2357,59,-2462,-1082,-622,-6431,147,211,-471
0,5515655,-2359,62,-2464,-1079,-620,-6429,147,211,-471
0,5515663,-2359,62,-2464,-1079,-620,-6429,147,211,-471
0,5515675,-2355,74,-2457,-1080,-634,-6433,147,211,-471
0,5515689,-2359,64,-2459,-1084,-625,-6428,132,220,-478
0,5515702,-2359,64,-2459,-1084,-625,-6428,132,220,-478
0,5515716,-2354,60,-2468,-1081,-629,-6426,132,220,-478
0,5515727,-2354,60,-2468,-1081,-629,-6426,132,220,-478
0,5515742,-2360,53,-2458,-1078,-636,-6430,132,220,-478
0,5515756,-2357,72,-2466,-1074,-626,-6429,132,220,-478
0,5515770,-2366,63,-2466,-1071,-628,-6432,132,220,-478
0,5515784,-2366,63,-2466,-1071,-628,-6432,132,220,-478
0,5515797,-2357,68,-2464,-1082,-625,-6436,132,220,-478
0,5515811,-2364,57,-2466,-1085,-623,-6436,131,219,-473
0,5515825,-2364,57,-2466,-1085,-623,-6436,131,219,-473
0,5515839,-2362,105,-2460,-1089,-626,-6434,131,219,-473
0,5515852,-2359,92,-2458,-1073,-627,-6438,131,219,-473
0,5515867,-2359,92,-2458,-1073,-627,-6438,131,219,-473
0,5515880,-2358,95,-2458,-1088,-630,-6426,131,219,-473
0,5515892,-2355,60,-2462,-1084,-625,-6437,131,219,-473
0,5515907,-2355,60,-2462,-1084,-625,-6437,131,219,-473
0,5515920,-2354,101,-2468,-1073,-615,-6431,131,219,-473
0,5515934,-2360,78,-2451,-1076,-623,-6426,134,226,-484
0,5515948,-2360,78,-2451,-1076,-623,-6426,134,226,-484
0,5515962,-2354,92,-2459,-1076,-623,-6424,134,226,-484
0,5515973,-2357,57,-2471,-1085,-632,-6425,134,226,-484
0,5515987,-2357,57,-2471,-1085,-632,-6425,134,226,-484
0,5516000,-2355,90,-2468,-1088,-636,-6424,134,226,-484
0,5516015,-2355,74,-2460,-1087,-635,-6423,134,226,-484
0,5516029,-2355,95,-2458,-1085,-626,-6425,134,226,-484
0,5516043,-2355,95,-2458,-1085,-626,-6425,134,226,-484
0,5516057,-2352,76,-2469,-1080,-626,-6427,134,226,-484
0,5516070,-2351,80,-2457,-1079,-625,-6429,146,228,-478
0,5516085,-2351,80,-2457,-1079,-625,-6429,146,228,-478
0,5516095,-2351,72,-2455,-1083,-620,-6425,146,228,-478
0,5516110,-2354,88,-2459,-1085,-632,-6423,146,228,-478
0,5516125,-2354,88,-2459,-1085,-632,-6423,146,228,-478
0,5516138,-2350,73,-2460,-1083,-635,-6429,146,228,-478
0,5516152,-2351,71,-2463,-1082,-634,-6425,146,228,-478
0,5516167,-2351,71,-2463,-1082,-634,-6425,146,228,-478
0,5516179,-2350,71,-2459,-1084,-630,-6417,146,228,-478
0,5516193,-2355,87,-2454,-1078,-626,-6422,148,234,-480
0,5516209,-2355,87,-2454,-1078,-626,-6422,148,234,-480
0,5516223,-2355,87,-2454,-1078,-626,-6422,148,234,-480
0,5516234,-2353,73,-2462,-1082,-625,-6423,148,234,-480
0,5516250,-2348,78,-2462,-1078,-619,-6420,148,234,-480
0,5516265,-2348,78,-2462,-1078,-619,-6420,148,234,-480
0,5516278,-2348,82,-2463,-1091,-626,-6410,148,234,-480
0,5516292,-2345,72,-2461,-1084,-625,-6421,148,234,-480
0,5516305,-2345,72,-2461,-1084,-625,-6421,148,234,-480
0,5516319,-2348,54,-2462,-1088,-622,-6420,148,234,-480
0,5516332,-2349,46,-2462,-1083,-631,-6422,140,242,-480
0,5516346,-2349,46,-2462,-1083,-631,-6422,140,242,-480
0,5516359,-2350,15,-2457,-1082,-634,-6417,140,242,-480
0,5516372,-2348,32,-2465,-1090,-626,-6418,140,242,-480
0,5516387,-2348,32,-2465,-1090,-626,-6418,140,242,-480
0,5516401,-2353,46,-2462,-1087,-635,-6422,140,242,-480
0,5516413,-2350,33,-2461,-1087,-633,-6412,140,242,-480
0,5516428,-2350,33,-2461,-1087,-633,-6412,140,242,-480
0,5516442,-2352,32,-2463,-1084,-636,-6420,140,242,-480
0,5516455,-2351,26,-2456,-1084,-634,-6426,150,254,-488
0,5516470,-2355,44,-2462,-1077,-624,-6426,150,254,-488
0,5516484,-2355,44,-2462,-1077,-624,-6426,150,254,-488
0,5516498,-2355,33,-2460,-1074,-624,-6437,150,254,-488
0,5516512,-2361,52,-2462,-1084,-630,-6441,150,254,-488
0,5516525,-2361,52,-2462,-1084,-630,-6441,150,254,-488
0,5516538,-2361,46,-2471,-1083,-626,-6437,150,254,-488
0,5516550,-2361,46,-2471,-1083,-626,-6437,150,254,-488
0,5516564,-2359,65,-2468,-1081,-628,-6440,150,254,-488
0,5516577,-2363,73,-2461,-1093,-625,-6438,157,249,-491
0,5516591,-2357,82,-2461,-1085,-631,-6430,157,249,-491
0,5516604,-2357,82,-2461,-1085,-631,-6430,157,249,-491
0,5516616,-2361,69,-2457,-1077,-630,-6426,157,249,-491
0,5516630,-2361,69,-2457,-1077,-630,-6426,157,249,-491
0,5516643,-2359,71,-2456,-1085,-618,-6430,157,249,-491
0,5516656,-2366,115,-2455,-1089,-626,-6435,157,249,-491
0,5516672,-2359,72,-2456,-1084,-626,-6431,157,249,-491
0,5516682,-2359,72,-2456,-1084,-626,-6431,157,249,-491
0,5516696,-2363,72,-2467,-1091,-630,-6431,157,249,-491
0,5516711,-2364,67,-2458,-1088,-625,-6434,159,265,-487
0,5516726,-2364,67,-2458,-1088,-625,-6434,159,265,-487
0,5516738,-2361,103,-2461,-1081,-629,-6430,159,265,-487
0,5516752,-2365,86,-2459,-1080,-633,-6434,159,265,-487
0,5516767,-2365,86,-2459,-1080,-633,-6434,159,265,-487
0,5516780,-2354,84,-2460,-1089,-632,-6432,159,265,-487
0,5516793,-2358,77,-2467,-1084,-637,-6430,159,265,-487
0,5516807,-2358,77,-2467,-1084,-637,-6430,159,265,-487
0,5516820,-2355,91,-2455,-1074,-632,-6428,159,265,-487
0,5516834,-2355,86,-2449,-1086,-627,-6433,165,269,-495
0,5516848,-2355,86,-2449,-1086,-627,-6433,165,269,-495
0,5516861,-2353,78,-2457,-1092,-626,-6428,165,269,-495
0,5516874,-2360,78,-2463,-1089,-632,-6424,165,269,-495
0,5516890,-2360,78,-2463,-1089,-632,-6424,165,269,-495
0,5516903,-2358,78,-2468,-1077,-629,-6426,165,269,-495
0,5516916,-2360,90,-2456,-1081,-629,-6422,165,269,-495
0,5516931,-2357,84,-2459,-1085,-629,-6433,165,269,-495
0,5516946,-2357,84,-2459,-1085,-629,-6433,165,269,-495
0,5516960,-2355,81,-2466,-1084,-626,-6427,165,269,-495
0,5516973,-2349,80,-2456,-1077,-622,-6419,168,282,-494
0,5516986,-2349,80,-2456,-1077,-622,-6419,168,282,-494
0,5516999,-2350,95,-2448,-1084,-623,-6417,168,282,-494
0,5517011,-2349,89,-2458,-1083,-627,-6421,168,282,-494
0,5517025,-2349,89,-2458,-1083,-627,-6421,168,282,-494
0,5517038,-2345,85,-2459,-1079,-634,-6425,168,282,-494
0,5517050,-2349,74,-2458,-1078,-631,-6425,168,282,-494
0,5517065,-2349,74,-2458,-1078,-631,-6425,168,282,-494
0,5517078,-2347,83,-2448,-1080,-634,-6420,168,282,-494
0,5517092,-2350,72,-2465,-1081,-638,-6421,174,280,-504
0,5517108,-2350,72,-2465,-1081,-638,-6421,174,280,-504
0,5517123,-2349,80,-2456,-1087,-629,-6414,174,280,-504
0,5517137,-2346,73,-2461,-1083,-629,-6419,174,280,-504
0,5517145,-2346,73,-2461,-1083,-629,-6419,174,280,-504
0,5517158,-2346,72,-2456,-1086,-630,-6418,174,280,-504
0,5517173,-2344,62,-2463,-1084,-631,-6420,174,280,-504
0,5517189,-2344,62,-2463,-1084,-631,-6420,174,280,-504
0,5517204,-2345,39,-2457,-1083,-624,-6421,174,280,-504
0,5517218,-2346,13,-2457,-1077,-628,-6407,174,280,-504
0,5517232,-2353,16,-2464,-1075,-630,-6410,182,288,-496
0,5517245,-2353,16,-2464,-1075,-630,-6410,182,288,-496
0,5517257,-2350,42,-2462,-1081,-618,-6420,182,288,-496
0,5517274,-2351,12,-2457,-1083,-616,-6417,182,288,-496
0,5517287,-2351,12,-2457,-1083,-616,-6417,182,288,-496
0,5517300,-2356,32,-2466,-1087,-634,-6428,182,288,-496
0,5517315,-2356,31,-2464,-1086,-635,-6430,182,288,-496
0,5517328,-2356,31,-2464,-1086,-635,-6430,182,288,-496
0,5517342,-2356,71,-2460,-1074,-628,-6439,182,288,-496
0,5517357,-2358,53,-2447,-1078,-627,-6442,192,290,-496
0,5517368,-2358,53,-2447,-1078,-627,-6442,192,290,-496
0,5517382,-2356,69,-2457,-1092,-630,-6442,192,290,-496
0,5517398,-2353,55,-2474,-1084,-631,-6429,192,290,-496
0,5517413,-2355,75,-2460,-1077,-624,-6428,192,290,-496
0,5517426,-2355,75,-2460,-1077,-624,-6428,192,290,-496
0,5517440,-2357,56,-2457,-1080,-629,-6424,192,290,-496
0,5517454,-2355,63,-2465,-1089,-632,-6426,192,290,-496
0,5517468,-2355,63,-2465,-1089,-632,-6426,192,290,-496
0,5517481,-2360,42,-2470,-1087,-631,-6432,186,290,-504
0,5517495,-2359,57,-2452,-1071,-622,-6436,186,290,-504
0,5517510,-2359,57,-2452,-1071,-622,-6436,186,290,-504
0,5517524,-2364,66,-2458,-1087,-616,-6434,186,290,-504
0,5517537,-2356,63,-2462,-1088,-623,-6433,186,290,-504
0,5517551,-2360,60,-2461,-1080,-630,-6433,186,290,-504
0,5517562,-2360,60,-2461,-1080,-630,-6433,186,290,-504
0,5517577,-2357,64,-2454,-1082,-635,-6436,186,290,-504
0,5517592,-2358,67,-2457,-1084,-626,-6430,186,290,-504
0,5517606,-2358,67,-2457,-1084,-626,-6430,186,290,-504
0,5517621,-2366,63,-2456,-1084,-630,-6436,198,298,-508
0,5517635,-2362,59,-2464,-1090,-623,-6437,198,298,-508
0,5517650,-2362,59,-2464,-1090,-623,-6437,198,298,-508
0,5517666,-2363,63,-2463,-1084,-624,-6437,198,298,-508
0,5517680,-2361,69,-2465,-1080,-626,-6437,198,298,-508
0,5517691,-2360,75,-2470,-1083,-630,-6439,198,298,-508
0,5517706,-2360,75,-2470,-1083,-630,-6439,198,298,-508
0,5517720,-2360,67,-2468,-1086,-632,-6439,198,298,-508
0,5517733,-2361,72,-2458,-1086,-635,-6433,205,301,-509
0,5517747,-2361,72,-2458,-1086,-635,-6433,205,301,-509
0,5517761,-2361,99,-2460,-1076,-632,-6434,205,301,-509
0,5517772,-2358,76,-2461,-1078,-626,-6430,205,301,-509
0,5517786,-2358,76,-2461,-1078,-626,-6430,205,301,-509
0,5517799,-2361,80,-2462,-1084,-629,-6430,205,301,-509
0,5517812,-2358,79,-2462,-1092,-623,-6424,205,301,-509
0,5517828,-2358,79,-2462,-1092,-623,-6424,205,301,-509
0,5517842,-2359,96,-2459,-1077,-633,-6432,205,301,-509
0,5517856,-2359,84,-2459,-1087,-630,-6425,205,301,-509
0,5517870,-2359,84,-2459,-1087,-630,-6425,205,301,-509
0,5517885,-2354,82,-2454,-1085,-633,-6419,204,298,-510
0,5517900,-2355,81,-2467,-1083,-627,-6423,204,298,-510
0,5517915,-2358,80,-2459,-1072,-620,-6421,204,298,-510
0,5517928,-2358,80,-2459,-1072,-620,-6421,204,298,-510
0,5517940,-2354,84,-2453,-1078,-633,-6427,204,298,-510
0,5517955,-2350,73,-2459,-1085,-625,-6432,204,298,-510
0,5517968,-2350,73,-2459,-1085,-625,-6432,204,298,-510
0,5517981,-2350,74,-2466,-1074,-627,-6427,204,298,-510
0,5517996,-2354,73,-2460,-1069,-624,-6429,206,308,-506
0,5518009,-2354,73,-2460,-1069,-624,-6429,206,308,-506
0,5518021,-2354,73,-2460,-1069,-624,-6429,206,308,-506
0,5518034,-2355,73,-2465,-1086,-634,-6423,206,308,-506
0,5518049,-2355,73,-2465,-1086,-634,-6423,206,308,-506
0,5518062,-2351,72,-2471,-1076,-628,-6429,206,308,-506
0,5518076,-2351,66,-2461,-1078,-623,-6418,206,308,-506
0,5518089,-2351,66,-2461,-1078,-623,-6418,206,308,-506
0,5518103,-2349,81,-2456,-1077,-625,-6420,206,308,-506
0,5518116,-2351,63,-2454,-1084,-636,-6420,206,308,-506
0,5518130,-2351,63,-2454,-1084,-636,-6420,206,308,-506
0,5518143,-2348,63,-2451,-1082,-629,-6419,221,305,-507
0,5518157,-2352,56,-2459,-1076,-622,-6420,221,305,-507
0,5518171,-2352,56,-2459,-1076,-622,-6420,221,305,-507
0,5518185,-2351,64,-2466,-1083,-629,-6423,221,305,-507
0,5518193,-2354,56,-2466,-1079,-627,-6427,221,305,-507
0,5518206,-2354,56,-2466,-1079,-627,-6427,221,305,-507
0,5518221,-2353,46,-2472,-1091,-625,-6418,221,305,-507
0,5518234,-2354,43,-2463,-1091,-621,-6422,221,305,-507
0,5518248,-2354,43,-2463,-1091,-621,-6422,221,305,-507
0,5518262,-2351,43,-2459,-1084,-627,-6420,220,310,-506
0,5518274,-2349,55,-2454,-1082,-628,-6420,220,310,-506
0,5518288,-2349,55,-2454,-1082,-628,-6420,220,310,-506
0,5518302,-2351,35,-2461,-1085,-625,-6421,220,310,-506
0,5518317,-2350,39,-2458,-1084,-629,-6429,220,310,-506
0,5518328,-2350,39,-2458,-1084,-629,-6429,220,310,-506
0,5518341,-2359,46,-2465,-1073,-620,-6435,220,310,-506
0,5518355,-2359,56,-2463,-1078,-620,-6435,220,310,-506
0,5518368,-2359,56,-2463,-1078,-620,-6435,220,310,-506
0,5518383,-2359,47,-2465,-1086,-621,-6435,225,303,-511
0,5518394,-2358,54,-2466,-1080,-635,-6432,225,303,-511
0,5518407,-2358,54,-2466,-1080,-635,-6432,225,303,-511
0,5518420,-2361,54,-2458,-1082,-631,-6439,225,303,-511
0,5518433,-2358,65,-2463,-1077,-627,-6436,225,303,-511
0,5518448,-2358,65,-2463,-1077,-627,-6436,225,303,-511
0,5518464,-2362,62,-2457,-1076,-628,-6435,225,303,-511
0,5518480,-2357,68,-2463,-1074,-623,-6426,225,303,-511
0,5518495,-2363,64,-2462,-1079,-620,-6431,225,303,-511
0,5518510,-2363,64,-2462,-1079,-620,-6431,225,303,-511
0,5518523,-2358,69,-2451,-1077,-625,-6439,232,302,-502
0,5518537,-2362,69,-2456,-1081,-624,-6431,232,302,-502
0,5518553,-2363,105,-2461,-1078,-627,-6435,232,302,-502
0,5518563,-2363,105,-2461,-1078,-627,-6435,232,302,-502
0,5518577,-2363,65,-2464,-1078,-629,-6429,232,302,-502
0,5518592,-2363,65,-2464,-1078,-629,-6429,232,302,-502
0,5518606,-2360,80,-2462,-1080,-623,-6433,232,302,-502
0,5518619,-2360,83,-2462,-1085,-624,-6433,232,302,-502
0,5518632,-2360,89,-2456,-1078,-627,-6435,228,304,-496
0,5518647,-2360,89,-2456,-1078,-627,-6435,228,304,-496
0,5518658,-2361,74,-2457,-1071,-621,-6429,228,304,-496
0,5518671,-2361,74,-2457,-1071,-621,-6429,228,304,-496
0,5518686,-2360,77,-2458,-1079,-626,-6436,228,304,-496
0,5518694,-2358,83,-2467,-1086,-633,-6432,228,304,-496
0,5518708,-2358,83,-2467,-1086,-633,-6432,228,304,-496
0,5518723,-2360,76,-2457,-1086,-628,-6432,228,304,-496
0,5518736,-2359,83,-2449,-1087,-623,-6427,228,304,-496
0,5518750,-2359,83,-2449,-1087,-623,-6427,228,304,-496
0,5518766,-2360,76,-2458,-1079,-632,-6429,228,304,-496
0,5518781,-2356,75,-2464,-1082,-637,-6427,241,307,-501
0,5518796,-2361,64,-2455,-1089,-628,-6414,241,307,-501
0,5518811,-2361,64,-2455,-1089,-628,-6414,241,307,-501
0,5518824,-2357,86,-2457,-1081,-624,-6428,241,307,-501
0,5518837,-2356,76,-2461,-1079,-633,-6427,241,307,-501
0,5518852,-2356,76,-2461,-1079,-633,-6427,241,307,-501
0,5518862,-2349,74,-2468,-1080,-625,-6426,241,307,-501
0,5518875,-2356,66,-2461,-1081,-626,-6424,241,307,-501
0,5518888,-2356,66,-2461,-1081,-626,-6424,241,307,-501
0,5518903,-2351,82,-2456,-1075,-628,-6431,240,296,-500
0,5518917,-2355,72,-2464,-1076,-617,-6424,240,296,-500
0,5518932,-2355,72,-2464,-1076,-617,-6424,240,296,-500
0,5518943,-2354,71,-2462,-1080,-625,-6426,240,296,-500
0,5518957,-2353,71,-2456,-1077,-628,-6425,240,296,-500
0,5518970,-2353,71,-2456,-1077,-628,-6425,240,296,-500
0,5518985,-2356,78,-2460,-1077,-631,-6427,240,296,-500
0,5519000,-2348,72,-2467,-1076,-632,-6425,240,296,-500
0,5519015,-2351,66,-2465,-1083,-632,-6421,240,296,-500
0,5519030,-2351,66,-2465,-1083,-632,-6421,240,296,-500
0,5519044,-2350,63,-2458,-1085,-629,-6418,242,296,-504
0,5519057,-2355,56,-2463,-1082,-619,-6417,242,296,-504
0,5519069,-2355,56,-2463,-1082,-619,-6417,242,296,-504
0,5519082,-2349,29,-2461,-1088,-623,-6414,242,296,-504
0,5519095,-2355,28,-2460,-1087,-628,-6420,242,296,-504
0,5519110,-2355,28,-2460,-1087,-628,-6420,242,296,-504
0,5519123,-2348,32,-2463,-1078,-633,-6422,242,296,-504
0,5519136,-2356,49,-2458,-1067,-634,-6422,242,296,-504
0,5519150,-2356,49,-2458,-1067,-634,-6422,242,296,-504
0,5519162,-2352,35,-2454,-1076,-623,-6430,248,294,-506
0,5519174,-2356,42,-2459,-1079,-628,-6425,248,294,-506
0,5519188,-2356,42,-2459,-1079,-628,-6425,248,294,-506
0,5519203,-2355,40,-2466,-1076,-633,-6429,248,294,-506
0,5519218,-2357,55,-2458,-1073,-614,-6435,248,294,-506
0,5519233,-2357,55,-2458,-1073,-614,-6435,248,294,-506
0,5519249,-2358,49,-2459,-1087,-622,-6432,248,294,-506
0,5519262,-2359,58,-2460,-1085,-632,-6440,248,294,-506
0,5519277,-2355,53,-2464,-1085,-633,-6437,247,287,-499
0,5519292,-2355,53,-2464,-1085,-633,-6437,247,287,-499
0,5519306,-2356,63,-2457,-1079,-622,-6434,247,287,-499
0,5519320,-2359,72,-2455,-1084,-623,-6438,247,287,-499
0,5519331,-2359,72,-2455,-1084,-623,-6438,247,287,-499
0,5519345,-2361,68,-2466,-1082,-636,-6424,247,287,-499
0,5519358,-2359,56,-2468,-1082,-631,-6429,247,287,-499
0,5519372,-2359,56,-2468,-1082,-631,-6429,247,287,-499
0,5519387,-2358,71,-2462,-1077,-625,-6433,247,287,-499
0,5519399,-2362,70,-2462,-1089,-624,-6437,247,287,-499
0,5519412,-2362,70,-2462,-1089,-624,-6437,247,287,-499
0,5519425,-2362,70,-2462,-1089,-624,-6437,262,288,-496
0,5519438,-2361,52,-2462,-1086,-631,-6433,262,288,-496
0,5519454,-2361,52,-2462,-1086,-631,-6433,262,288,-496
0,5519469,-2361,66,-2465,-1085,-633,-6433,262,288,-496
0,5519484,-2359,58,-2457,-1083,-627,-6428,262,288,-496
0,5519498,-2358,66,-2460,-1080,-634,-6432,262,288,-496
0,5519512,-2358,66,-2460,-1080,-634,-6432,262,288,-496
0,5519526,-2360,49,-2460,-1081,-632,-6429,262,288,-496
0,5519541,-2359,62,-2462,-1081,-632,-6430,248,284,-498
0,5519553,-2359,62,-2462,-1081,-632,-6430,248,284,-498
0,5519565,-2360,53,-2462,-1073,-636,-6428,248,284,-498
0,5519579,-2360,59,-2465,-1075,-627,-6430,248,284,-498
0,5519593,-2360,59,-2465,-1075,-627,-6430,248,284,-498
0,5519606,-2360,42,-2463,-1084,-620,-6433,248,284,-498
0,5519622,-2363,65,-2467,-1081,-628,-6433,248,284,-498
0,5519632,-2363,65,-2467,-1081,-628,-6433,248,284,-498
0,5519645,-2361,58,-2462,-1080,-625,-6434,248,284,-498
0,5519659,-2363,71,-2464,-1078,-623,-6439,248,284,-498
0,5519673,-2363,71,-2464,-1078,-623,-6439,248,284,-498
0,5519686,-2360,57,-2459,-1078,-619,-6430,247,271,-491
0,5519699,-2364,97,-2461,-1078,-626,-6434,247,271,-491
0,5519711,-2364,97,-2461,-1078,-626,-6434,247,271,-491
0,5519724,-2357,78,-2458,-1073,-625,-6437,247,271,-491
0,5519738,-2364,85,-2453,-1080,-629,-6433,247,271,-491
0,5519750,-2364,85,-2453,-1080,-629,-6433,247,271,-491
0,5519763,-2357,58,-2466,-1079,-624,-6437,247,271,-491
0,5519778,-2360,96,-2467,-1075,-630,-6430,247,271,-491
0,5519788,-2360,96,-2467,-1075,-630,-6430,247,271,-491
0,5519801,-2361,72,-2454,-1074,-631,-6428,251,267,-497
0,5519815,-2355,89,-2457,-1087,-631,-6425,251,267,-497
0,5519828,-2355,89,-2457,-1087,-631,-6425,251,267,-497
0,5519842,-2358,63,-2467,-1089,-630,-6423,251,267,-497
0,5519856,-2352,85,-2464,-1079,-625,-6423,251,267,-497
0,5519873,-2352,85,-2464,-1079,-625,-6423,251,267,-497
0,5519887,-2356,65,-2454,-1079,-624,-6424,251,267,-497
0,5519901,-2352,87,-2458,-1080,-623,-6427,251,267,-497
0,5519915,-2356,70,-2471,-1080,-626,-6422,244,266,-502
0,5519928,-2356,70,-2471,-1080,-626,-6422,244,266,-502
0,5519941,-2351,74,-2467,-1077,-622,-6424,244,266,-502
0,5519955,-2358,71,-2459,-1079,-628,-6434,244,266,-502
0,5519970,-2358,71,-2459,-1079,-628,-6434,244,266,-502
0,5519982,-2352,80,-2467,-1076,-630,-6425,244,266,-502
0,5519997,-2355,73,-2467,-1080,-630,-6425,244,266,-502
0,5520013,-2355,73,-2467,-1080,-630,-6425,244,266,-502
0,5520029,-2356,67,-2468,-1083,-623,-6411,244,266,-502
0,5520045,-2354,74,-2463,-1083,-618,-6415,244,266,-502
0,5520058,-2349,76,-2460,-1079,-628,-6428,238,256,-496
0,5520070,-2349,76,-2460,-1079,-628,-6428,238,256,-496
0,5520084,-2343,74,-2458,-1080,-622,-6424,238,256,-496
0,5520099,-2356,62,-2458,-1081,-623,-6415,238,256,-496
0,5520112,-2356,62,-2458,-1081,-623,-6415,238,256,-496
0,5520125,-2352,67,-2462,-1080,-622,-6424,238,256,-496
0,5520140,-2353,69,-2465,-1080,-626,-6416,238,256,-496
0,5520154,-2353,69,-2465,-1080,-626,-6416,238,256,-496
0,5520167,-2352,68,-2465,-1082,-628,-6412,238,256,-496
0,5520182,-2353,54,-2463,-1077,-626,-6418,246,256,-508
0,5520196,-2349,48,-2458,-1085,-633,-6419,246,256,-508
0,5520209,-2349,48,-2458,-1085,-633,-6419,246,256,-508
0,5520225,-2348,4,-2459,-1078,-622,-6415,246,256,-508
0,5520240,-2349,31,-2461,-1081,-624,-6419,246,256,-508
0,5520256,-2350,27,-2456,-1078,-622,-6417,246,256,-508
0,5520271,-2350,27,-2456,-1078,-622,-6417,246,256,-508
0,5520285,-2352,23,-2459,-1080,-629,-6416,246,256,-508
0,5520300,-2353,13,-2470,-1080,-630,-6423,246,256,-508
0,5520307,-2353,13,-2470,-1080,-630,-6423,246,256,-508
0,5520320,-2358,23,-2463,-1081,-633,-6436,237,239,-509
0,5520333,-2358,23,-2463,-1081,-633,-6436,237,239,-509
0,5520347,-2363,37,-2466,-1074,-630,-6435,237,239,-509
0,5520361,-2362,27,-2458,-1080,-627,-6434,237,239,-509
0,5520375,-2362,49,-2470,-1083,-627,-6429,237,239,-509
0,5520388,-2362,49,-2470,-1083,-627,-6429,237,239,-509
0,5520400,-2356,43,-2466,-1079,-632,-6438,237,239,-509
0,5520414,-2356,43,-2466,-1079,-632,-6438,237,239,-509
0,5520428,-2361,61,-2458,-1081,-621,-6437,237,239,-509
0,5520442,-2362,62,-2454,-1072,-621,-6438,241,233,-513
0,5520457,-2362,74,-2456,-1080,-628,-6437,241,233,-513
0,5520470,-2362,74,-2456,-1080,-628,-6437,241,233,-513
0,5520484,-2363,48,-2462,-1083,-630,-6435,241,233,-513
0,5520499,-2365,60,-2465,-1080,-625,-6440,241,233,-513
0,5520509,-2365,60,-2465,-1080,-625,-6440,241,233,-513
0,5520524,-2366,102,-2464,-1080,-623,-6437,241,233,-513
0,5520539,-2365,71,-2465,-1073,-618,-6428,241,233,-513
0,5520552,-2365,71,-2465,-1073,-618,-6428,241,233,-513
0,5520567,-2359,74,-2471,-1081,-624,-6429,241,233,-513
0,5520580,-2358,65,-2457,-1076,-620,-6431,248,228,-502
0,5520592,-2358,65,-2457,-1076,-620,-6431,248,228,-502
0,5520605,-2359,92,-2461,-1072,-621,-6434,248,228,-502
0,5520618,-2361,78,-2456,-1079,-626,-6431,248,228,-502
0,5520631,-2361,78,-2456,-1079,-626,-6431,248,228,-502
0,5520645,-2353,70,-2458,-1086,-629,-6427,248,228,-502
0,5520658,-2360,64,-2469,-1083,-633,-6428,248,228,-502
0,5520669,-2360,64,-2469,-1083,-633,-6428,248,228,-502
0,5520684,-2361,75,-2466,-1084,-631,-6422,248,228,-502
0,5520697,-2363,76,-2455,-1085,-629,-6428,247,209,-503
0,5520710,-2363,76,-2455,-1085,-629,-6428,247,209,-503
0,5520724,-2360,78,-2464,-1082,-626,-6428,247,209,-503
0,5520736,-2358,77,-2466,-1079,-630,-6432,247,209,-503
0,5520751,-2358,77,-2466,-1079,-630,-6432,247,209,-503
0,5520766,-2356,68,-2465,-1076,-625,-6423,247,209,-503
0,5520780,-2360,80,-2456,-1080,-622,-6423,247,209,-503
0,5520792,-2360,80,-2456,-1080,-622,-6423,247,209,-503
0,5520806,-2353,76,-2467,-1091,-631,-6425,247,209,-503
0,5520821,-2356,75,-2468,-1083,-632,-6424,253,213,-503
0,5520834,-2356,75,-2468,-1083,-632,-6424,253,213,-503
0,5520848,-2356,65,-2458,-1076,-622,-6424,253,213,-503
0,5520863,-2359,83,-2458,-1078,-629,-6409,253,213,-503
0,5520875,-2356,78,-2464,-1086,-636,-6427,253,213,-503
0,5520888,-2356,78,-2464,-1086,-636,-6427,253,213,-503
0,5520902,-2353,77,-2470,-1073,-630,-6422,253,213,-503
0,5520916,-2354,74,-2466,-1073,-626,-6420,253,213,-503
0,5520929,-2354,74,-2466,-1073,-626,-6420,253,213,-503
0,5520943,-2353,79,-2469,-1088,-628,-6417,253,213,-503
0,5520956,-2354,65,-2461,-1090,-625,-6426,235,205,-499
0,5520969,-2354,65,-2461,-1090,-625,-6426,235,205,-499
0,5520985,-2352,77,-2462,-1088,-630,-6423,235,205,-499
0,5521000,-2350,58,-2455,-1087,-629,-6421,235,205,-499
0,5521013,-2350,58,-2455,-1087,-629,-6421,235,205,-499
0,5521027,-2351,63,-2461,-1071,-625,-6417,235,205,-499
0,5521042,-2352,46,-2467,-1076,-620,-6407,235,205,-499
0,5521057,-2353,45,-2463,-1081,-630,-6410,235,205,-499
0,5521071,-2353,45,-2463,-1081,-630,-6410,235,205,-499
0,5521084,-2359,-4,-2461,-1078,-633,-6410,218,202,-498
0,5521098,-2355,12,-2465,-1089,-633,-6411,218,202,-498
0,5521112,-2355,12,-2465,-1089,-633,-6411,218,202,-498
0,5521126,-2358,24,-2465,-1087,-632,-6418,218,202,-498
0,5521138,-2353,24,-2459,-1077,-629,-6416,218,202,-498
0,5521152,-2353,24,-2459,-1077,-629,-6416,218,202,-498
0,5521165,-2358,22,-2461,-1085,-629,-6422,218,202,-498
0,5521179,-2358,20,-2465,-1093,-628,-6428,218,202,-498
0,5521193,-2358,20,-2465,-1093,-628,-6428,218,202,-498
0,5521206,-2363,47,-2471,-1089,-627,-6433,218,202,-498
0,5521216,-2358,40,-2454,-1082,-624,-6437,204,194,-500
0,5521228,-2358,40,-2454,-1082,-624,-6437,204,194,-500
0,5521243,-2358,40,-2454,-1082,-624,-6437,204,194,-500
0,5521258,-2363,51,-2469,-1086,-634,-6443,204,194,-500
0,5521271,-2363,51,-2469,-1086,-634,-6443,204,194,-500
0,5521285,-2362,71,-2463,-1087,-629,-6433,204,194,-500
0,5521298,-2360,52,-2463,-1084,-624,-6437,204,194,-500
0,5521310,-2360,52,-2463,-1084,-624,-6437,204,194,-500
0,5521326,-2356,70,-2470,-1086,-627,-6427,204,194,-500
0,5521341,-2364,44,-2462,-1078,-623,-6427,197,193,-495
0,5521355,-2364,44,-2462,-1078,-623,-6427,197,193,-495
0,5521369,-2358,53,-2460,-1080,-613,-6423,197,193,-495
0,5521382,-2361,39,-2457,-1080,-625,-6425,197,193,-495
0,5521397,-2360,55,-2466,-1083,-631,-6426,197,193,-495
0,5521410,-2360,55,-2466,-1083,-631,-6426,197,193,-495
0,5521422,-2362,54,-2465,-1078,-624,-6430,197,193,-495
0,5521437,-2365,54,-2458,-1087,-630,-6431,197,193,-495
0,5521451,-2365,54,-2458,-1087,-630,-6431,197,193,-495
0,5521464,-2364,51,-2461,-1089,-630,-6436,197,193,-495
0,5521479,-2363,61,-2465,-1093,-628,-6432,191,189,-493
0,5521494,-2363,61,-2465,-1093,-628,-6432,191,189,-493
0,5521509,-2360,59,-2460,-1086,-631,-6433,191,189,-493
0,5521522,-2364,58,-2460,-1085,-624,-6435,191,189,-493
0,5521536,-2364,58,-2460,-1085,-624,-6435,191,189,-493
0,5521550,-2363,51,-2463,-1087,-629,-6438,191,189,-493
0,5521564,-2361,57,-2466,-1086,-633,-6429,191,189,-493
0,5521579,-2358,59,-2461,-1080,-626,-6436,191,189,-493
0,5521590,-2358,59,-2461,-1080,-626,-6436,191,189,-493
0,5521603,-2368,70,-2458,-1082,-627,-6438,184,186,-492
0,5521617,-2363,85,-2471,-1086,-639,-6441,184,186,-492
0,5521632,-2363,85,-2471,-1086,-639,-6441,184,186,-492
0,5521647,-2365,65,-2469,-1081,-638,-6427,184,186,-492
0,5521662,-2362,70,-2476,-1078,-625,-6428,184,186,-492
0,5521679,-2364,80,-2462,-1080,-627,-6428,184,186,-492
0,5521693,-2364,80,-2462,-1080,-627,-6428,184,186,-492
0,5521707,-2357,87,-2463,-1076,-626,-6429,184,186,-492
0,5521721,-2359,72,-2459,-1076,-626,-6425,185,177,-493
0,5521732,-2359,72,-2459,-1076,-626,-6425,185,177,-493
0,5521745,-2357,67,-2459,-1077,-621,-6422,185,177,-493
0,5521760,-2363,75,-2459,-1081,-625,-6427,185,177,-493
0,5521773,-2363,75,-2459,-1081,-625,-6427,185,177,-493
0,5521786,-2360,70,-2460,-1078,-620,-6421,185,177,-493
0,5521801,-2361,75,-2463,-1090,-623,-6421,185,177,-493
0,5521813,-2361,75,-2463,-1090,-623,-6421,185,177,-493
0,5521825,-2357,63,-2475,-1077,-628,-6420,185,177,-493
0,5521839,-2361,62,-2471,-1072,-635,-6424,185,177,-493
0,5521852,-2361,62,-2471,-1072,-635,-6424,185,177,-493
0,5521866,-2359,74,-2460,-1081,-626,-6424,177,183,-503
0,5521881,-2358,75,-2458,-1089,-633,-6420,177,183,-503
0,5521893,-2358,75,-2458,-1089,-633,-6420,177,183,-503
0,5521907,-2357,55,-2465,-1096,-635,-6422,177,183,-503
0,5521923,-2350,60,-2466,-1094,-622,-6421,177,183,-503
0,5521938,-2355,59,-2463,-1097,-632,-6421,177,183,-503
0,5521953,-2355,59,-2463,-1097,-632,-6421,177,183,-503
0,5521967,-2354,59,-2468,-1096,-632,-6420,177,183,-503
0,5521979,-2356,44,-2465,-1086,-637,-6419,171,183,-495
0,5521993,-2356,44,-2465,-1086,-637,-6419,171,183,-495
0,5522007,-2356,54,-2470,-1079,-622,-6416,171,183,-495
0,5522020,-2362,50,-2467,-1072,-623,-6415,171,183,-495
0,5522034,-2362,50,-2467,-1072,-623,-6415,171,183,-495
0,5522045,-2352,58,-2464,-1073,-626,-6421,171,183,-495
0,5522059,-2357,47,-2466,-1076,-624,-6415,171,183,-495
0,5522074,-2357,47,-2466,-1076,-624,-6415,171,183,-495
0,5522089,-2352,34,-2462,-1079,-621,-6418,171,183,-495
0,5522103,-2354,27,-2460,-1075,-625,-6419,171,183,-495
0,5522111,-2354,27,-2460,-1075,-625,-6419,171,183,-495
0,5522119,-2358,26,-2459,-1072,-620,-6415,163,187,-497
0,5522134,-2358,26,-2459,-1072,-620,-6415,163,187,-497
0,5522149,-2359,26,-2460,-1077,-621,-6415,163,187,-497
0,5522163,-2359,21,-2465,-1077,-626,-6422,163,187,-497
0,5522177,-2359,21,-2465,-1077,-626,-6422,163,187,-497
0,5522187,-2359,20,-2471,-1081,-621,-6424,163,187,-497
0,5522199,-2366,36,-2461,-1080,-617,-6425,163,187,-497
0,5522210,-2366,36,-2461,-1080,-617,-6425,163,187,-497
0,5522224,-2361,50,-2471,-1079,-627,-6431,163,187,-497
0,5522238,-2361,31,-2463,-1074,-627,-6427,170,184,-482
0,5522251,-2361,31,-2463,-1074,-627,-6427,170,184,-482
0,5522267,-2361,40,-2468,-1082,-627,-6430,170,184,-482
0,5522280,-2366,38,-2458,-1073,-621,-6427,170,184,-482
0,5522293,-2366,38,-2458,-1073,-621,-6427,170,184,-482
0,5522307,-2363,52,-2463,-1075,-622,-6432,170,184,-482
0,5522320,-2360,40,-2461,-1077,-630,-6434,170,184,-482
0,5522335,-2360,40,-2461,-1077,-630,-6434,170,184,-482
0,5522349,-2364,47,-2465,-1092,-630,-6440,170,184,-482
0,5522361,-2367,51,-2468,-1076,-629,-6440,170,184,-482
0,5522376,-2367,51,-2468,-1076,-629,-6440,170,184,-482
0,5522391,-2365,61,-2461,-1069,-626,-6439,152,192,-490
0,5522406,-2365,49,-2465,-1081,-629,-6427,152,192,-490
0,5522417,-2366,99,-2468,-1077,-631,-6439,152,192,-490
0,5522430,-2366,99,-2468,-1077,-631,-6439,152,192,-490
0,5522445,-2365,59,-2467,-1078,-631,-6433,152,192,-490
0,5522458,-2363,84,-2465,-1080,-624,-6434,152,192,-490
0,5522471,-2363,84,-2465,-1080,-624,-6434,152,192,-490
0,5522485,-2359,54,-2465,-1081,-620,-6432,152,192,-490
0,5522499,-2361,95,-2468,-1079,-627,-6435,155,193,-483
0,5522511,-2361,95,-2468,-1079,-627,-6435,155,193,-483
0,5522526,-2364,55,-2461,-1070,-621,-6434,155,193,-483
0,5522539,-2357,78,-2459,-1082,-622,-6427,155,193,-483
0,5522553,-2357,78,-2459,-1082,-622,-6427,155,193,-483
0,5522567,-2361,58,-2471,-1078,-626,-6432,155,193,-483
0,5522581,-2360,83,-2473,-1077,-622,-6428,155,193,-483
0,5522594,-2360,83,-2473,-1077,-622,-6428,155,193,-483
0,5522610,-2361,58,-2470,-1082,-624,-6427,155,193,-483
0,5522625,-2360,80,-2461,-1085,-629,-6425,157,181,-491
0,5522640,-2362,65,-2461,-1091,-634,-6429,157,181,-491
0,5522652,-2362,65,-2461,-1091,-634,-6429,157,181,-491
0,5522666,-2357,61,-2462,-1077,-621,-6415,157,181,-491
0,5522679,-2359,64,-2464,-1075,-619,-6423,157,181,-491
0,5522693,-2359,64,-2464,-1075,-619,-6423,157,181,-491
0,5522706,-2360,75,-2463,-1083,-629,-6429,157,181,-491
0,5522720,-2356,61,-2472,-1078,-626,-6425,157,181,-491
0,5522732,-2356,61,-2472,-1078,-626,-6425,157,181,-491
0,5522745,-2359,55,-2465,-1076,-621,-6426,157,181,-491
0,5522759,-2356,69,-2463,-1084,-635,-6424,155,199,-473
0,5522772,-2356,69,-2463,-1084,-635,-6424,155,199,-473
0,5522788,-2361,70,-2471,-1083,-629,-6424,155,199,-473
0,5522802,-2357,66,-2471,-1082,-629,-6425,155,199,-473
0,5522813,-2357,66,-2471,-1082,-629,-6425,155,199,-473
0,5522829,-2356,63,-2463,-1088,-619,-6424,155,199,-473
0,5522844,-2358,64,-2466,-1090,-634,-6422,155,199,-473
0,5522859,-2360,67,-2470,-1077,-630,-6424,155,199,-473
0,5522870,-2360,67,-2470,-1077,-630,-6424,155,199,-473
0,5522884,-2358,58,-2461,-1084,-622,-6414,142,202,-474
0,5522897,-2358,58,-2461,-1084,-622,-6414,142,202,-474
0,5522911,-2351,54,-2466,-1088,-623,-6416,142,202,-474
0,5522925,-2354,48,-2462,-1086,-623,-6421,142,202,-474
0,5522939,-2353,31,-2464,-1088,-628,-6416,142,202,-474
0,5522952,-2353,31,-2464,-1088,-628,-6416,142,202,-474
0,5522961,-2360,20,-2466,-1080,-628,-6419,142,202,-474
0,5522975,-2360,20,-2466,-1080,-628,-6419,142,202,-474
0,5522990,-2352,24,-2472,-1079,-634,-6429,142,202,-474
0,5523002,-2366,40,-2470,-1076,-623,-6419,142,202,-474
0,5523016,-2366,40,-2470,-1076,-623,-6419,142,202,-474
0,5523031,-2356,19,-2455,-1086,-623,-6419,141,195,-475
0,5523046,-2369,28,-2466,-1089,-625,-6428,141,195,-475
0,5523060,-2359,21,-2463,-1078,-630,-6434,141,195,-475
0,5523073,-2359,21,-2463,-1078,-630,-6434,141,195,-475
0,5523086,-2361,43,-2468,-1080,-628,-6429,141,195,-475
0,5523100,-2365,40,-2458,-1083,-624,-6434,141,195,-475
0,5523113,-2365,40,-2458,-1083,-624,-6434,141,195,-475
0,5523122,-2365,51,-2466,-1084,-631,-6431,141,195,-475
0,5523135,-2365,51,-2466,-1084,-631,-6431,141,195,-475
0,5523148,-2361,45,-2469,-1082,-631,-6437,145,211,-477
0,5523163,-2360,55,-2465,-1078,-627,-6434,145,211,-477
0,5523176,-2360,55,-2465,-1078,-627,-6434,145,211,-477
0,5523190,-2358,56,-2463,-1078,-621,-6428,145,211,-477
0,5523202,-2363,63,-2473,-1076,-629,-6438,145,211,-477
0,5523215,-2363,63,-2473,-1076,-629,-6438,145,211,-477
0,5523230,-2365,53,-2473,-1081,-633,-6435,145,211,-477
0,5523243,-2359,62,-2462,-1084,-631,-6433,145,211,-477
0,5523256,-2359,62,-2462,-1084,-631,-6433,145,211,-477
0,5523271,-2365,56,-2468,-1089,-625,-6438,137,215,-473
0,5523287,-2361,65,-2463,-1087,-634,-6435,137,215,-473
0,5523300,-2360,44,-2467,-1088,-627,-6431,137,215,-473
0,5523314,-2360,44,-2467,-1088,-627,-6431,137,215,-473
0,5523329,-2360,44,-2467,-1088,-627,-6431,137,215,-473
0,5523342,-2366,52,-2471,-1077,-626,-6435,137,215,-473
0,5523353,-2366,52,-2471,-1077,-626,-6435,137,215,-473
0,5523366,-2359,62,-2475,-1077,-632,-6430,137,215,-473
0,5523380,-2362,40,-2467,-1073,-629,-6434,137,215,-473
0,5523394,-2362,40,-2467,-1073,-629,-6434,137,215,-473
0,5523407,-2363,51,-2464,-1087,-630,-6434,145,209,-477
0,5523420,-2367,32,-2467,-1086,-627,-6428,145,209,-477
0,5523433,-2367,32,-2467,-1086,-627,-6428,145,209,-477
0,5523448,-2364,49,-2465,-1077,-624,-6423,145,209,-477
0,5523464,-2366,32,-2461,-1077,-623,-6436,145,209,-477
0,5523474,-2366,32,-2461,-1077,-623,-6436,145,209,-477
0,5523489,-2361,63,-2471,-1075,-625,-6434,145,209,-477
0,5523505,-2367,46,-2464,-1073,-620,-6430,145,209,-477
0,5523519,-2365,66,-2463,-1078,-627,-6433,144,222,-474
0,5523532,-2365,66,-2463,-1078,-627,-6433,144,222,-474
0,5523546,-2363,43,-2464,-1082,-631,-6432,144,222,-474
0,5523555,-2363,43,-2464,-1082,-631,-6432,144,222,-474
0,5523563,-2364,108,-2471,-1076,-628,-6441,144,222,-474
0,5523574,-2364,108,-2471,-1076,-628,-6441,144,222,-474
0,5523591,-2366,53,-2456,-1072,-630,-6436,144,222,-474
0,5523603,-2362,87,-2467,-1089,-632,-6434,144,222,-474
0,5523616,-2362,87,-2467,-1089,-632,-6434,144,222,-474
0,5523631,-2362,49,-2470,-1080,-627,-6436,144,222,-474
0,5523644,-2359,95,-2466,-1083,-622,-6436,144,222,-474
0,5523659,-2367,62,-2453,-1079,-622,-6431,137,227,-474
0,5523675,-2367,62,-2453,-1079,-622,-6431,137,227,-471
0,5523690,-2354,80,-2459,-1079,-622,-6428,137,227,-471
0,5523698,-2354,80,-2459,-1079,-622,-6428,137,227,-471
0,5523706,-2360,59,-2470,-1079,-626,-6435,137,227,-471
0,5523722,-2357,82,-2467,-1072,-625,-6426,137,227,-471
0,5523735,-2357,82,-2467,-1072,-625,-6426,137,227,-471
0,5523748,-2364,68,-2468,-1081,-621,-6423,137,227,-471
0,5523763,-2359,75,-2463,-1083,-632,-6428,137,227,-471
0,5523775,-2359,75,-2463,-1083,-632,-6428,137,227,-471
0,5523787,-2363,67,-2467,-1078,-630,-6436,149,237,-469
0,5523801,-2354,69,-2466,-1072,-620,-6424,149,237,-469
0,5523815,-2354,69,-2466,-1072,-620,-6424,149,237,-469
0,5523828,-2362,77,-2459,-1082,-619,-6428,149,237,-469
0,5523842,-2350,74,-2458,-1078,-626,-6431,149,237,-469
0,5523850,-2350,74,-2458,-1078,-626,-6431,149,237,-469
0,5523858,-2350,74,-2458,-1078,-626,-6431,149,237,-469
0,5523866,-2349,70,-2464,-1068,-619,-6430,149,237,-469
0,5523880,-2355,60,-2465,-1069,-614,-6422,149,237,-469
0,5523895,-2355,60,-2465,-1069,-614,-6422,149,237,-469
0,5523910,-2352,75,-2466,-1073,-618,-6421,149,237,-469
0,5523924,-2358,67,-2462,-1083,-626,-6423,148,236,-486
0,5523939,-2358,67,-2462,-1083,-626,-6423,148,236,-486
0,5523952,-2354,64,-2464,-1080,-628,-6417,148,236,-486
0,5523966,-2356,58,-2467,-1078,-627,-6419,148,236,-486
0,5523980,-2356,65,-2471,-1079,-625,-6418,148,236,-486
0,5523993,-2356,65,-2471,-1079,-625,-6418,148,236,-486
0,5524006,-2359,65,-2465,-1080,-634,-6414,148,236,-486
0,5524020,-2349,61,-2472,-1074,-632,-6424,148,236,-486
0,5524033,-2349,61,-2472,-1074,-632,-6424,148,236,-486
0,5524046,-2350,46,-2463,-1088,-626,-6424,143,243,-485
0,5524061,-2351,31,-2463,-1085,-629,-6416,143,243,-485
0,5524073,-2351,31,-2463,-1085,-629,-6416,143,243,-485
0,5524086,-2352,0,-2465,-1089,-629,-6428,143,243,-485
0,5524100,-2357,26,-2472,-1080,-624,-6419,143,243,-485
0,5524112,-2357,26,-2472,-1080,-624,-6419,143,243,-485
0,5524127,-2359,18,-2473,-1072,-633,-6419,143,243,-485
0,5524143,-2360,12,-2467,-1076,-630,-6420,143,243,-485
0,5524158,-2360,12,-2467,-1076,-630,-6420,143,243,-485
0,5524172,-2361,12,-2470,-1079,-626,-6427,151,255,-493
0,5524187,-2363,15,-2468,-1080,-631,-6426,151,255,-493
0,5524201,-2362,23,-2469,-1077,-632,-6439,151,255,-493
0,5524215,-2362,23,-2469,-1077,-632,-6439,151,255,-493
0,5524231,-2362,23,-2469,-1077,-632,-6439,151,255,-493
0,5524240,-2363,35,-2470,-1086,-625,-6443,151,255,-493
0,5524253,-2363,35,-2470,-1086,-625,-6443,151,255,-493
0,5524267,-2364,26,-2468,-1077,-629,-6432,151,255,-493
0,5524281,-2366,39,-2468,-1069,-615,-6429,151,255,-493
0,5524294,-2366,39,-2468,-1069,-615,-6429,151,255,-493
0,5524305,-2371,51,-2462,-1077,-630,-6435,154,252,-484
0,5524321,-2367,62,-2471,-1074,-633,-6435,154,252,-484
0,5524336,-2367,62,-2471,-1074,-633,-6435,154,252,-484
0,5524352,-2369,52,-2473,-1072,-624,-6434,154,252,-484
0,5524367,-2367,58,-2468,-1088,-620,-6430,154,252,-484
0,5524379,-2367,58,-2468,-1088,-620,-6430,154,252,-484
0,5524392,-2365,103,-2467,-1088,-624,-6435,154,252,-484
0,5524407,-2362,67,-2472,-1081,-630,-6435,154,252,-484
0,5524420,-2361,69,-2464,-1083,-625,-6427,155,261,-497
0,5524434,-2361,69,-2464,-1083,-625,-6427,155,261,-497
0,5524448,-2359,60,-2460,-1088,-620,-6433,155,261,-497
0,5524463,-2360,90,-2468,-1087,-628,-6429,155,261,-497
0,5524476,-2360,90,-2468,-1087,-628,-6429,155,261,-497
0,5524490,-2363,71,-2471,-1077,-631,-6428,155,261,-497
0,5524503,-2363,71,-2471,-1077,-631,-6428,155,261,-497
0,5524516,-2363,71,-2471,-1077,-631,-6428,155,261,-497
0,5524530,-2366,63,-2472,-1080,-626,-6433,155,261,-497
0,5524544,-2360,76,-2475,-1078,-627,-6432,155,261,-497
0,5524556,-2360,76,-2475,-1078,-627,-6432,155,261,-497
0,5524572,-2366,73,-2459,-1078,-629,-6434,158,262,-494
0,5524586,-2358,69,-2463,-1080,-639,-6433,158,262,-494
0,5524600,-2362,73,-2471,-1084,-628,-6427,158,262,-494
0,5524615,-2362,73,-2471,-1084,-628,-6427,158,262,-494
0,5524626,-2354,69,-2467,-1080,-627,-6423,158,262,-494
0,5524640,-2358,79,-2464,-1080,-624,-6434,158,262,-494
0,5524654,-2358,79,-2464,-1080,-624,-6434,158,262,-494
0,5524667,-2356,72,-2473,-1077,-625,-6421,158,262,-494
0,5524681,-2356,73,-2471,-1077,-628,-6423,173,273,-499
0,5524696,-2356,73,-2471,-1077,-628,-6423,173,273,-499
0,5524708,-2361,63,-2472,-1083,-626,-6425,173,273,-499
0,5524721,-2358,79,-2458,-1081,-618,-6421,173,273,-499
0,5524733,-2358,79,-2458,-1081,-618,-6421,173,273,-499
0,5524748,-2359,78,-2472,-1084,-632,-6427,173,273,-499
0,5524760,-2352,74,-2475,-1089,-635,-6426,173,273,-499
0,5524773,-2352,74,-2475,-1089,-635,-6426,173,273,-499
0,5524789,-2353,69,-2465,-1083,-636,-6420,173,273,-499
0,5524802,-2351,77,-2464,-1084,-628,-6418,173,273,-499
0,5524815,-2351,77,-2464,-1084,-628,-6418,173,273,-499
0,5524831,-2349,61,-2464,-1081,-626,-6422,183,277,-487
0,5524845,-2352,69,-2465,-1089,-625,-6417,183,277,-487
0,5524860,-2355,60,-2466,-1081,-627,-6420,183,277,-487
0,5524875,-2355,60,-2466,-1081,-627,-6420,183,277,-487
0,5524888,-2351,61,-2463,-1080,-626,-6426,183,277,-487
0,5524902,-2354,50,-2469,-1082,-622,-6415,183,277,-487
0,5524915,-2354,50,-2469,-1082,-622,-6415,183,277,-487
0,5524928,-2352,39,-2463,-1085,-620,-6413,183,277,-487
0,5524941,-2351,-7,-2464,-1083,-630,-6417,183,287,-501
0,5524955,-2351,-7,-2464,-1083,-630,-6417,183,287,-501
0,5524969,-2352,9,-2465,-1088,-620,-6423,183,287,-501
0,5524977,-2352,9,-2465,-1088,-620,-6423,183,287,-501
0,5524990,-2358,19,-2466,-1085,-623,-6422,183,287,-501
0,5525004,-2352,3,-2455,-1085,-628,-6420,183,287,-501
0,5525018,-2352,3,-2455,-1085,-628,-6420,183,287,-501
0,5525032,-2356,9,-2463,-1087,-630,-6422,183,287,-501
0,5525045,-2361,13,-2468,-1089,-628,-6426,183,287,-501
0,5525058,-2361,13,-2468,-1089,-628,-6426,183,287,-501
0,5525072,-2363,43,-2468,-1084,-629,-6432,188,300,-502
0,5525088,-2363,41,-2459,-1080,-625,-6439,188,300,-502
0,5525101,-2367,50,-2468,-1089,-626,-6446,188,300,-502
0,5525114,-2367,50,-2468,-1089,-626,-6446,188,300,-502
0,5525130,-2363,49,-2469,-1085,-633,-6444,188,300,-502
0,5525143,-2361,63,-2465,-1069,-627,-6436,188,300,-502
0,5525156,-2361,63,-2465,-1069,-627,-6436,188,300,-502
0,5525171,-2361,56,-2462,-1084,-633,-6432,188,300,-502
0,5525182,-2358,53,-2466,-1096,-636,-6424,188,300,-502
0,5525197,-2358,53,-2466,-1096,-636,-6424,188,300,-502
0,5525211,-2362,33,-2468,-1086,-637,-6424,190,294,-496
0,5525225,-2359,36,-2467,-1086,-625,-6427,190,294,-496
0,5525238,-2359,36,-2467,-1086,-625,-6427,190,294,-496
0,5525254,-2366,42,-2463,-1078,-625,-6429,190,294,-496
0,5525262,-2366,45,-2468,-1079,-619,-6432,190,294,-496
0,5525275,-2366,45,-2468,-1079,-619,-6432,190,294,-496
0,5525288,-2366,51,-2476,-1079,-625,-6432,190,294,-496
0,5525297,-2366,51,-2476,-1079,-625,-6432,190,294,-496
0,5525305,-2365,50,-2468,-1084,-623,-6429,190,294,-496
0,5525318,-2365,50,-2468,-1084,-623,-6429,190,294,-496
0,5525334,-2364,62,-2467,-1079,-626,-6441,199,299,-497
0,5525349,-2363,56,-2466,-1080,-626,-6447,199,299,-497
0,5525364,-2362,57,-2464,-1076,-629,-6445,199,299,-497
0,5525380,-2362,57,-2464,-1076,-629,-6445,199,299,-497
0,5525393,-2362,51,-2463,-1081,-634,-6438,199,299,-497
0,5525406,-2360,62,-2466,-1071,-626,-6436,199,299,-497
0,5525420,-2360,62,-2466,-1071,-626,-6436,199,299,-497
0,5525431,-2368,63,-2471,-1088,-631,-6437,199,299,-497
0,5525445,-2364,56,-2475,-1082,-629,-6441,199,299,-497
0,5525458,-2364,56,-2475,-1082,-629,-6441,199,299,-497
0,5525472,-2366,64,-2464,-1078,-622,-6436,201,299,-511
0,5525486,-2368,84,-2464,-1081,-632,-6431,201,299,-511
0,5525497,-2368,84,-2464,-1081,-632,-6431,201,299,-511
0,5525511,-2361,81,-2463,-1084,-629,-6433,201,299,-511
0,5525525,-2357,72,-2466,-1083,-626,-6435,201,299,-511
0,5525538,-2357,72,-2466,-1083,-626,-6435,201,299,-511
0,5525553,-2357,72,-2466,-1083,-626,-6435,201,299,-511
0,5525568,-2360,86,-2472,-1084,-630,-6437,201,299,-511
0,5525583,-2363,73,-2465,-1076,-625,-6433,211,301,-501
0,5525598,-2363,73,-2465,-1076,-625,-6433,211,301,-501
0,5525612,-2358,73,-2468,-1086,-622,-6432,211,301,-501
0,5525625,-2358,63,-2474,-1086,-631,-6423,211,301,-501
0,5525639,-2358,63,-2474,-1086,-631,-6423,211,301,-501
0,5525654,-2358,63,-2474,-1086,-631,-6423,211,301,-501
0,5525665,-2360,74,-2469,-1078,-626,-6429,211,301,-501
0,5525679,-2360,74,-2469,-1078,-626,-6429,211,301,-501
0,5525693,-2359,77,-2462,-1081,-630,-6430,211,301,-501
0,5525706,-2355,61,-2469,-1073,-628,-6420,211,301,-501
0,5525721,-2355,61,-2469,-1073,-628,-6420,211,301,-501
0,5525734,-2353,74,-2463,-1078,-624,-6429,211,301,-501
0,5525746,-2353,72,-2466,-1081,-622,-6420,211,301,-501
0,5525756,-2353,72,-2466,-1081,-622,-6420,211,301,-501
0,5525769,-2356,75,-2460,-1082,-618,-6426,211,301,-501
0,5525784,-2353,60,-2466,-1089,-628,-6429,211,301,-501
0,5525798,-2353,60,-2466,-1089,-628,-6429,211,301,-501
0,5525812,-2352,57,-2476,-1074,-630,-6424,211,301,-501
0,5525826,-2357,60,-2465,-1071,-625,-6422,211,301,-501
0,5525839,-2357,60,-2465,-1071,-625,-6422,211,301,-501
0,5525854,-2356,58,-2467,-1081,-625,-6419,218,306,-508
0,5525869,-2353,54,-2468,-1072,-624,-6425,218,306,-508
0,5525881,-2353,54,-2468,-1072,-624,-6425,218,306,-508
0,5525894,-2354,50,-2467,-1072,-626,-6429,218,306,-508
0,5525902,-2350,54,-2465,-1080,-630,-6427,218,306,-508
0,5525913,-2350,54,-2465,-1080,-630,-6427,218,306,-508
0,5525928,-2354,59,-2466,-1080,-630,-6426,218,306,-508
0,5525944,-2347,41,-2471,-1085,-631,-6428,218,306,-508
0,5525957,-2347,41,-2471,-1085,-631,-6428,218,306,-508
0,5525970,-2352,32,-2464,-1081,-635,-6423,213,299,-507
0,5525986,-2352,25,-2461,-1076,-624,-6415,213,299,-507
0,5526001,-2352,25,-2461,-1076,-624,-6415,213,299,-507
0,5526017,-2360,32,-2469,-1079,-621,-6425,213,299,-507
0,5526030,-2358,21,-2472,-1072,-623,-6421,213,299,-507
0,5526043,-2362,24,-2468,-1084,-621,-6427,213,299,-507
0,5526056,-2362,24,-2468,-1084,-621,-6427,213,299,-507
0,5526068,-2362,25,-2468,-1084,-629,-6432,213,299,-507
0,5526081,-2362,25,-2468,-1084,-629,-6432,213,299,-507
0,5526094,-2361,45,-2467,-1078,-623,-6431,213,299,-507
0,5526108,-2364,44,-2460,-1086,-633,-6433,225,311,-507
0,5526122,-2364,44,-2460,-1086,-633,-6433,225,311,-507
0,5526133,-2357,36,-2464,-1086,-631,-6436,225,311,-507
0,5526147,-2362,42,-2464,-1086,-629,-6434,225,311,-507
0,5526163,-2362,47,-2467,-1085,-620,-6439,225,311,-507
0,5526177,-2362,47,-2467,-1085,-620,-6439,225,311,-507
0,5526191,-2366,50,-2467,-1083,-623,-6436,225,311,-507
0,5526205,-2364,46,-2471,-1081,-625,-6444,225,311,-507
0,5526219,-2364,46,-2471,-1081,-625,-6444,225,311,-507
0,5526235,-2368,54,-2463,-1086,-626,-6434,226,304,-504
0,5526249,-2363,56,-2464,-1078,-624,-6435,226,304,-504
0,5526262,-2368,61,-2458,-1085,-629,-6436,226,304,-504
0,5526273,-2368,61,-2458,-1085,-629,-6436,226,304,-504
0,5526287,-2363,102,-2469,-1095,-621,-6438,226,304,-504
0,5526301,-2363,102,-2469,-1095,-621,-6438,226,304,-504
0,5526315,-2362,65,-2466,-1085,-622,-6432,226,304,-504
0,5526329,-2362,83,-2465,-1078,-622,-6432,226,304,-504
0,5526342,-2359,66,-2467,-1076,-624,-6430,226,304,-504
0,5526358,-2359,66,-2467,-1076,-624,-6430,226,304,-504
0,5526372,-2360,100,-2471,-1075,-627,-6428,229,307,-493
0,5526387,-2364,65,-2461,-1077,-630,-6429,229,307,-493
0,5526400,-2364,65,-2461,-1077,-630,-6429,229,307,-493
0,5526413,-2363,78,-2468,-1080,-625,-6427,229,307,-493
0,5526427,-2357,66,-2476,-1076,-633,-6422,229,307,-493
0,5526440,-2357,66,-2476,-1076,-633,-6422,229,307,-493
0,5526454,-2362,87,-2474,-1082,-633,-6425,229,307,-493
0,5526466,-2357,72,-2457,-1077,-626,-6424,229,307,-493
0,5526481,-2357,72,-2457,-1077,-626,-6424,229,307,-493
0,5526497,-2358,81,-2461,-1085,-628,-6420,229,299,-495
0,5526512,-2358,64,-2471,-1086,-627,-6426,229,299,-495
0,5526524,-2356,76,-2465,-1080,-623,-6444,229,299,-495
0,5526537,-2356,76,-2465,-1080,-623,-6444,229,299,-495
0,5526545,-2357,72,-2461,-1082,-626,-6431,229,299,-495
0,5526553,-2357,72,-2461,-1082,-626,-6431,229,299,-495
0,5526566,-2358,82,-2467,-1077,-630,-6431,229,299,-495
0,5526580,-2358,82,-2467,-1077,-630,-6431,229,299,-495
0,5526593,-2354,64,-2473,-1083,-629,-6428,229,299,-495
0,5526607,-2354,69,-2465,-1088,-624,-6427,237,305,-497
0,5526620,-2354,69,-2465,-1088,-624,-6427,237,305,-497
0,5526632,-2356,77,-2462,-1077,-630,-6424,237,305,-497
0,5526645,-2356,77,-2463,-1074,-634,-6422,237,305,-497
0,5526660,-2356,77,-2463,-1074,-634,-6422,237,305,-497
0,5526674,-2353,64,-2470,-1084,-634,-6418,237,305,-497
0,5526689,-2352,68,-2462,-1074,-625,-6427,237,305,-497
0,5526697,-2352,68,-2462,-1074,-625,-6427,237,305,-497
0,5526713,-2354,73,-2463,-1080,-626,-6426,237,305,-497
0,5526724,-2355,73,-2467,-1078,-624,-6426,237,305,-497
0,5526739,-2355,73,-2467,-1078,-624,-6426,237,305,-497
0,5526754,-2353,64,-2458,-1073,-617,-6414,239,299,-497
0,5526767,-2350,46,-2458,-1081,-626,-6423,239,299,-497
0,5526781,-2350,46,-2458,-1081,-626,-6423,239,299,-497
0,5526795,-2353,51,-2463,-1080,-630,-6428,239,299,-497
0,5526806,-2352,8,-2466,-1081,-626,-6418,239,299,-497
0,5526820,-2352,8,-2466,-1081,-626,-6418,239,299,-497
0,5526834,-2355,45,-2468,-1079,-634,-6419,239,299,-497
0,5526847,-2354,24,-2463,-1076,-633,-6416,239,299,-497
0,5526860,-2354,24,-2463,-1076,-633,-6416,239,299,-497
0,5526873,-2358,41,-2467,-1082,-626,-6424,242,290,-500
0,5526885,-2359,20,-2462,-1083,-623,-6421,242,290,-500
0,5526899,-2359,20,-2462,-1083,-623,-6421,242,290,-500
0,5526913,-2355,39,-2468,-1084,-634,-6440,242,290,-500
0,5526927,-2360,35,-2470,-1082,-638,-6434,242,290,-500
0,5526937,-2360,35,-2470,-1082,-638,-6434,242,290,-500
0,5526951,-2359,50,-2461,-1080,-623,-6430,242,290,-500
0,5526965,-2359,42,-2467,-1086,-630,-6443,242,290,-500
0,5526980,-2359,42,-2467,-1086,-630,-6443,242,290,-500
0,5526991,-2357,44,-2473,-1088,-632,-6428,242,290,-500
0,5527007,-2362,52,-2469,-1082,-628,-6432,245,289,-495
0,5527021,-2362,52,-2469,-1082,-628,-6432,245,289,-495
0,5527034,-2362,61,-2465,-1083,-624,-6437,245,289,-495
0,5527049,-2362,64,-2460,-1086,-636,-6434,245,289,-495
0,5527062,-2362,64,-2460,-1086,-636,-6434,245,289,-495
0,5527074,-2361,51,-2466,-1086,-625,-6441,245,289,-495
0,5527089,-2360,61,-2460,-1075,-625,-6431,245,289,-495
0,5527102,-2360,61,-2460,-1075,-625,-6431,245,289,-495
0,5527115,-2359,69,-2462,-1079,-627,-6426,245,289,-495
0,5527130,-2359,75,-2461,-1090,-634,-6427,238,288,-494
0,5527143,-2362,63,-2466,-1084,-628,-6431,238,288,-494
0,5527154,-2362,63,-2466,-1084,-628,-6431,238,288,-494
0,5527168,-2355,55,-2466,-1080,-623,-6428,238,288,-494
0,5527183,-2355,55,-2466,-1080,-623,-6428,238,288,-494
0,5527196,-2360,63,-2463,-1078,-624,-6430,238,288,-494
0,5527211,-2361,63,-2469,-1074,-624,-6430,238,288,-494
0,5527225,-2358,59,-2464,-1073,-628,-6436,238,288,-494
0,5527239,-2358,59,-2464,-1073,-628,-6436,238,288,-494
0,5527254,-2360,58,-2467,-1074,-623,-6436,238,288,-494
0,5527267,-2359,61,-2463,-1076,-628,-6428,256,284,-502
0,5527275,-2359,61,-2463,-1076,-628,-6428,256,284,-502
0,5527283,-2358,65,-2464,-1086,-633,-6431,256,284,-502
0,5527298,-2358,65,-2464,-1086,-633,-6431,256,284,-502
0,5527310,-2352,55,-2465,-1084,-626,-6428,256,284,-502
0,5527322,-2352,55,-2465,-1084,-626,-6428,256,284,-502
0,5527336,-2359,42,-2467,-1086,-630,-6428,256,284,-502
0,5527352,-2357,58,-2464,-1079,-622,-6429,256,284,-502
0,5527366,-2367,61,-2464,-1074,-625,-6423,256,284,-502
0,5527379,-2367,61,-2464,-1074,-625,-6423,256,284,-502
0,5527394,-2363,66,-2469,-1079,-624,-6438,246,276,-502
0,5527408,-2366,54,-2471,-1091,-622,-6435,246,276,-502
0,5527422,-2366,54,-2471,-1091,-622,-6435,246,276,-502
0,5527436,-2362,98,-2468,-1086,-628,-6431,246,276,-502
0,5527449,-2363,82,-2463,-1070,-625,-6432,246,276,-502
0,5527461,-2363,82,-2463,-1070,-625,-6432,246,276,-502
0,5527476,-2359,90,-2463,-1084,-625,-6432,246,276,-502
0,5527492,-2356,58,-2467,-1081,-622,-6430,246,276,-502
0,5527505,-2355,101,-2471,-1081,-632,-6432,238,264,-508
0,5527519,-2355,101,-2471,-1081,-632,-6432,238,264,-508
0,5527532,-2358,73,-2453,-1082,-628,-6425,238,264,-508
0,5527546,-2354,87,-2458,-1076,-628,-6425,238,264,-508
0,5527558,-2354,87,-2458,-1076,-628,-6425,238,264,-508
0,5527571,-2361,61,-2477,-1083,-625,-6426,238,264,-508
0,5527585,-2353,83,-2469,-1083,-621,-6423,238,264,-508
0,5527601,-2353,83,-2469,-1083,-621,-6423,238,264,-508
0,5527614,-2357,70,-2464,-1072,-608,-6420,238,264,-508
0,5527628,-2356,92,-2461,-1077,-618,-6421,238,264,-508
0,5527643,-2356,92,-2461,-1077,-618,-6421,238,264,-508
0,5527658,-2353,80,-2463,-1081,-624,-6423,245,255,-497
0,5527671,-2348,76,-2468,-1079,-618,-6420,245,255,-497
0,5527686,-2350,77,-2452,-1080,-618,-6417,245,255,-497
0,5527699,-2350,77,-2452,-1080,-618,-6417,245,255,-497
0,5527714,-2353,82,-2459,-1080,-625,-6419,245,255,-497
0,5527727,-2349,74,-2465,-1083,-629,-6419,245,255,-497
0,5527740,-2349,74,-2465,-1083,-629,-6419,245,255,-497
0,5527754,-2352,62,-2466,-1077,-624,-6424,245,255,-497
0,5527769,-2351,73,-2465,-1081,-629,-6418,238,252,-498
0,5527781,-2351,73,-2465,-1081,-629,-6418,238,252,-498
0,5527796,-2351,80,-2464,-1081,-631,-6423,238,252,-498
0,5527810,-2351,79,-2468,-1086,-628,-6424,238,252,-498
0,5527823,-2351,79,-2468,-1086,-628,-6424,238,252,-498
0,5527837,-2349,69,-2465,-1086,-630,-6418,238,252,-498
0,5527853,-2352,73,-2464,-1074,-622,-6425,238,252,-498
0,5527867,-2350,75,-2460,-1074,-628,-6422,238,252,-498
0,5527878,-2350,75,-2460,-1074,-628,-6422,238,252,-498
0,5527892,-2349,66,-2465,-1077,-627,-6421,238,252,-498
0,5527906,-2349,49,-2461,-1082,-630,-6417,241,245,-505
0,5527919,-2349,49,-2461,-1082,-630,-6417,241,245,-505
0,5527933,-2349,26,-2459,-1089,-631,-6414,241,245,-505
0,5527947,-2350,13,-2462,-1085,-633,-6415,241,245,-505
0,5527958,-2350,13,-2462,-1085,-633,-6415,241,245,-505
0,5527969,-2356,25,-2466,-1080,-627,-6418,241,245,-505
0,5527985,-2355,45,-2473,-1083,-619,-6422,241,245,-505
0,5527999,-2355,45,-2473,-1083,-619,-6422,241,245,-505
0,5528010,-2354,14,-2460,-1084,-631,-6426,241,245,-505
0,5528019,-2354,14,-2460,-1084,-631,-6426,241,245,-505
0,5528033,-2355,28,-2461,-1081,-630,-6418,237,243,-501
0,5528047,-2358,19,-2453,-1077,-630,-6432,237,243,-501
0,5528062,-2358,19,-2453,-1077,-630,-6432,237,243,-501
0,5528077,-2358,40,-2454,-1079,-631,-6436,237,243,-501
0,5528090,-2357,18,-2459,-1080,-625,-6440,237,243,-501
0,5528104,-2359,45,-2468,-1091,-631,-6445,237,243,-501
0,5528119,-2359,45,-2468,-1091,-631,-6445,237,243,-501
0,5528132,-2363,31,-2464,-1083,-630,-6436,237,243,-501
0,5528145,-2366,57,-2463,-1077,-621,-6435,237,243,-501
0,5528159,-2366,57,-2463,-1077,-621,-6435,237,243,-501
0,5528173,-2369,55,-2459,-1081,-630,-6437,241,239,-505
0,5528186,-2359,69,-2466,-1080,-625,-6440,241,239,-505
0,5528200,-2359,69,-2466,-1080,-625,-6440,241,239,-505
0,5528212,-2364,53,-2459,-1077,-630,-6437,241,239,-505
0,5528225,-2359,75,-2459,-1079,-629,-6433,241,239,-505
0,5528240,-2359,75,-2459,-1079,-629,-6433,241,239,-505
0,5528254,-2364,103,-2463,-1078,-622,-6430,241,239,-505
0,5528267,-2360,66,-2465,-1078,-621,-6439,241,239,-505
0,5528282,-2360,66,-2465,-1078,-621,-6439,241,239,-505
0,5528297,-2363,65,-2465,-1081,-626,-6437,242,230,-506
0,5528312,-2362,72,-2461,-1085,-629,-6436,242,230,-506
0,5528326,-2363,87,-2463,-1081,-621,-6439,242,230,-506
0,5528340,-2363,87,-2463,-1081,-621,-6439,242,230,-506
0,5528353,-2363,79,-2465,-1077,-627,-6441,242,230,-506
0,5528366,-2356,78,-2465,-1086,-628,-6430,242,230,-506
0,5528380,-2356,78,-2465,-1086,-628,-6430,242,230,-506
0,5528393,-2357,81,-2469,-1091,-633,-6427,242,230,-506
0,5528407,-2356,82,-2464,-1082,-626,-6425,243,221,-499
0,5528420,-2356,82,-2464,-1082,-626,-6425,243,221,-499
0,5528434,-2362,92,-2451,-1078,-625,-6429,243,221,-499
0,5528445,-2355,74,-2459,-1085,-627,-6433,243,221,-499
0,5528457,-2355,74,-2459,-1085,-627,-6433,243,221,-499
0,5528470,-2360,83,-2467,-1085,-636,-6431,243,221,-499
0,5528485,-2353,71,-2460,-1074,-626,-6433,243,221,-499
0,5528501,-2353,71,-2460,-1074,-626,-6433,243,221,-499
0,5528516,-2357,91,-2454,-1080,-620,-6426,243,221,-499
0,5528530,-2353,81,-2473,-1089,-633,-6430,243,221,-499
0,5528545,-2352,88,-2467,-1082,-633,-6426,238,208,-498
0,5528559,-2352,88,-2467,-1082,-633,-6426,238,208,-498
0,5528572,-2356,81,-2461,-1078,-619,-6423,238,208,-498
0,5528587,-2352,99,-2462,-1085,-622,-6427,238,208,-498
0,5528598,-2352,99,-2462,-1085,-622,-6427,238,208,-498
0,5528612,-2351,87,-2463,-1087,-628,-6419,238,208,-498
0,5528626,-2349,84,-2460,-1083,-633,-6430,238,208,-498
0,5528639,-2349,84,-2460,-1083,-633,-6430,238,208,-498
0,5528653,-2351,79,-2455,-1077,-617,-6417,238,208,-498
0,5528667,-2347,83,-2455,-1085,-628,-6423,225,207,-495
0,5528679,-2347,83,-2455,-1085,-628,-6423,225,207,-495
0,5528693,-2353,62,-2460,-1078,-632,-6421,225,207,-495
0,5528709,-2352,80,-2459,-1084,-627,-6418,225,207,-495
0,5528722,-2352,80,-2459,-1084,-627,-6418,225,207,-495
0,5528735,-2352,78,-2463,-1073,-631,-6421,225,207,-495
0,5528751,-2350,71,-2469,-1078,-628,-6418,225,207,-495
0,5528766,-2347,66,-2470,-1078,-620,-6415,225,207,-495
0,5528780,-2347,66,-2470,-1078,-620,-6415,225,207,-495
0,5528795,-2344,55,-2460,-1078,-622,-6416,225,207,-495
0,5528804,-2344,55,-2460,-1078,-622,-6416,225,207,-495
0,5528816,-2347,15,-2460,-1085,-621,-6423,215,197,-497
0,5528829,-2352,12,-2459,-1085,-624,-6418,215,197,-497
0,5528843,-2352,12,-2459,-1085,-624,-6418,215,197,-497
0,5528856,-2350,26,-2457,-1083,-631,-6417,215,197,-497
0,5528870,-2358,20,-2460,-1069,-631,-6415,215,197,-497
0,5528881,-2358,20,-2460,-1069,-631,-6415,215,197,-497
0,5528895,-2357,27,-2459,-1083,-624,-6420,215,197,-497
0,5528909,-2358,25,-2466,-1089,-633,-6430,215,197,-497
0,5528923,-2358,25,-2466,-1089,-633,-6430,215,197,-497
0,5528937,-2362,55,-2466,-1084,-625,-6438,202,188,-500
0,5528952,-2356,55,-2459,-1077,-629,-6438,202,188,-500
0,5528968,-2356,55,-2459,-1077,-629,-6438,202,188,-500
0,5528981,-2356,55,-2459,-1077,-629,-6438,202,188,-500
0,5528995,-2357,60,-2465,-1082,-625,-6435,202,188,-500
0,5529011,-2357,68,-2464,-1073,-628,-6438,202,188,-500
0,5529025,-2357,68,-2464,-1073,-628,-6438,202,188,-500
0,5529038,-2358,52,-2459,-1080,-626,-6439,202,188,-500
0,5529049,-2364,63,-2467,-1090,-632,-6436,194,192,-488
0,5529062,-2364,63,-2467,-1090,-632,-6436,194,192,-488
0,5529075,-2361,50,-2465,-1087,-633,-6431,194,192,-488
0,5529089,-2360,53,-2461,-1082,-630,-6426,194,192,-488
0,5529103,-2360,53,-2461,-1082,-630,-6426,194,192,-488
0,5529115,-2359,49,-2462,-1090,-624,-6431,194,192,-488
0,5529129,-2356,58,-2461,-1090,-621,-6435,194,192,-488
0,5529145,-2356,58,-2461,-1090,-621,-6435,194,192,-488
0,5529160,-2359,68,-2462,-1080,-624,-6434,194,192,-488
0,5529177,-2358,62,-2461,-1085,-626,-6441,194,192,-488
0,5529191,-2361,62,-2457,-1082,-634,-6431,194,190,-496
0,5529203,-2361,62,-2457,-1082,-634,-6431,194,190,-496
0,5529217,-2360,58,-2464,-1081,-631,-6439,194,190,-496
0,5529231,-2363,64,-2465,-1088,-626,-6439,194,190,-496
0,5529244,-2363,64,-2465,-1088,-626,-6439,194,190,-496
0,5529257,-2364,60,-2469,-1085,-625,-6437,194,190,-496
0,5529272,-2364,67,-2468,-1081,-634,-6435,194,190,-496
0,5529287,-2360,69,-2472,-1083,-628,-6435,194,190,-496
0,5529299,-2360,69,-2472,-1083,-628,-6435,194,190,-496
0,5529314,-2363,74,-2460,-1080,-630,-6434,188,180,-486
0,5529327,-2358,92,-2452,-1078,-634,-6434,188,180,-486
0,5529341,-2358,92,-2452,-1078,-634,-6434,188,180,-486
0,5529355,-2359,90,-2459,-1078,-627,-6434,188,180,-486
0,5529370,-2359,83,-2464,-1080,-632,-6432,188,180,-486
0,5529384,-2359,83,-2464,-1080,-632,-6432,188,180,-486
0,5529399,-2357,74,-2459,-1082,-627,-6434,188,180,-486
0,5529413,-2359,95,-2462,-1077,-627,-6429,188,180,-486
0,5529428,-2357,80,-2461,-1070,-632,-6433,188,180,-486
0,5529441,-2357,80,-2461,-1070,-632,-6433,188,180,-486
0,5529449,-2359,85,-2461,-1078,-625,-6430,187,189,-499
0,5529462,-2359,85,-2461,-1078,-625,-6430,187,189,-499
0,5529477,-2358,70,-2468,-1085,-630,-6428,187,189,-499
0,5529488,-2355,97,-2463,-1083,-633,-6422,187,189,-499
0,5529500,-2355,97,-2463,-1083,-633,-6422,187,189,-499
0,5529513,-2353,81,-2458,-1079,-629,-6421,187,189,-499
0,5529527,-2352,93,-2462,-1082,-624,-6416,187,189,-499
0,5529541,-2352,93,-2462,-1082,-624,-6416,187,189,-499
0,5529554,-2352,80,-2467,-1082,-629,-6422,187,189,-499
0,5529569,-2348,70,-2455,-1073,-622,-6426,166,184,-500
0,5529582,-2348,70,-2455,-1073,-622,-6426,166,184,-500
0,5529595,-2355,83,-2457,-1076,-621,-6420,166,184,-500
0,5529610,-2353,81,-2464,-1079,-631,-6421,166,184,-500
0,5529624,-2353,81,-2464,-1079,-631,-6421,166,184,-500
0,5529639,-2357,72,-2466,-1083,-625,-6416,166,184,-500
0,5529654,-2354,69,-2468,-1089,-622,-6423,166,184,-500
0,5529668,-2353,76,-2461,-1087,-626,-6423,166,184,-500
0,5529682,-2353,76,-2461,-1087,-626,-6423,166,184,-500
0,5529698,-2350,75,-2455,-1075,-622,-6423,166,184,-500
0,5529706,-2350,64,-2454,-1081,-623,-6423,166,184,-500
0,5529720,-2350,64,-2454,-1081,-623,-6423,172,182,-504
0,5529734,-2350,62,-2458,-1089,-622,-6427,172,182,-504
0,5529746,-2350,62,-2458,-1089,-622,-6427,172,182,-504
0,5529759,-2351,61,-2458,-1074,-632,-6426,172,182,-504
0,5529775,-2351,65,-2461,-1078,-631,-6424,172,182,-504
0,5529788,-2352,55,-2459,-1082,-631,-6424,172,182,-504
0,5529802,-2352,55,-2459,-1082,-631,-6424,172,182,-504
0,5529817,-2352,51,-2465,-1079,-627,-6425,172,182,-504
0,5529830,-2352,35,-2462,-1072,-629,-6422,172,182,-498
0,5529843,-2352,35,-2462,-1072,-629,-6422,172,182,-498
0,5529859,-2351,42,-2454,-1079,-627,-6419,172,182,-498
0,5529874,-2351,42,-2454,-1079,-627,-6419,172,182,-498
0,5529889,-2350,40,-2461,-1077,-624,-6423,172,182,-498
0,5529904,-2350,40,-2461,-1077,-624,-6423,172,182,-498
0,5529917,-2355,34,-2463,-1085,-620,-6422,172,182,-498
0,5529931,-2353,44,-2464,-1088,-625,-6429,172,182,-498
0,5529946,-2353,44,-2464,-1088,-625,-6429,172,182,-498
0,5529958,-2360,43,-2463,-1084,-636,-6434,162,192,-500
0,5529971,-2356,46,-2458,-1086,-630,-6435,162,192,-500
0,5529985,-2356,46,-2458,-1086,-630,-6435,162,192,-500
0,5529998,-2360,41,-2469,-1071,-618,-6436,162,192,-500
0,5530012,-2357,55,-2461,-1078,-623,-6442,162,192,-500
0,5530025,-2357,55,-2461,-1078,-623,-6442,162,192,-500
0,5530038,-2361,53,-2458,-1084,-626,-6441,162,192,-500
0,5530051,-2358,65,-2461,-1087,-626,-6437,162,192,-500
0,5530064,-2358,65,-2461,-1087,-626,-6437,162,192,-500
0,5530079,-2358,59,-2463,-1077,-629,-6444,162,192,-500
0,5530093,-2357,68,-2453,-1072,-622,-6437,159,181,-487
0,5530107,-2360,61,-2453,-1075,-621,-6435,159,181,-487
0,5530120,-2360,61,-2453,-1075,-621,-6435,159,181,-487
0,5530135,-2363,63,-2461,-1080,-627,-6435,159,181,-487
0,5530146,-2363,63,-2461,-1080,-627,-6435,159,181,-487
0,5530160,-2364,104,-2460,-1089,-627,-6439,159,181,-487
0,5530174,-2359,76,-2464,-1075,-629,-6437,159,181,-487
0,5530187,-2365,86,-2465,-1078,-621,-6433,159,181,-487
0,5530201,-2365,86,-2465,-1078,-621,-6433,159,181,-487
0,5530214,-2357,65,-2462,-1076,-620,-6433,149,193,-493
0,5530226,-2357,65,-2462,-1076,-620,-6433,149,193,-493
0,5530242,-2356,105,-2466,-1072,-625,-6432,149,193,-493
0,5530255,-2359,75,-2455,-1071,-624,-6432,149,193,-493
0,5530268,-2356,95,-2459,-1076,-619,-6437,149,193,-493
0,5530281,-2356,95,-2459,-1076,-619,-6437,149,193,-493
0,5530296,-2357,62,-2466,-1084,-633,-6426,149,193,-493
0,5530310,-2357,92,-2465,-1070,-626,-6427,149,193,-493
0,5530319,-2357,92,-2465,-1070,-626,-6427,149,193,-493
0,5530335,-2360,70,-2458,-1082,-619,-6426,149,193,-493
0,5530349,-2355,87,-2455,-1084,-624,-6434,153,189,-481
0,5530361,-2355,87,-2455,-1084,-624,-6434,153,189,-481
0,5530376,-2356,72,-2470,-1084,-637,-6433,153,189,-481
0,5530391,-2355,83,-2462,-1083,-625,-6427,153,189,-481
0,5530406,-2355,83,-2462,-1083,-625,-6427,153,189,-481
0,5530420,-2353,85,-2458,-1078,-623,-6429,153,189,-481
0,5530433,-2357,95,-2464,-1078,-625,-6424,153,189,-481
0,5530447,-2347,72,-2470,-1078,-621,-6423,153,189,-481
0,5530461,-2347,72,-2470,-1078,-621,-6423,153,189,-481
0,5530475,-2353,77,-2455,-1079,-614,-6423,146,190,-476
0,5530487,-2350,76,-2451,-1084,-621,-6426,146,190,-476
0,5530502,-2350,76,-2451,-1084,-621,-6426,146,190,-476
0,5530513,-2357,83,-2459,-1087,-633,-6427,146,190,-476
0,5530526,-2357,83,-2459,-1087,-633,-6427,146,190,-476
0,5530541,-2349,71,-2469,-1084,-628,-6423,146,190,-476
0,5530554,-2352,75,-2459,-1081,-626,-6428,146,190,-476
0,5530568,-2354,78,-2463,-1077,-628,-6434,146,190,-476
0,5530583,-2354,78,-2463,-1077,-628,-6434,146,190,-476
0,5530596,-2352,84,-2465,-1075,-627,-6423,146,190,-476
0,5530610,-2352,79,-2454,-1070,-626,-6419,141,195,-469
0,5530626,-2352,79,-2454,-1070,-626,-6419,141,195,-469
0,5530640,-2347,56,-2452,-1078,-629,-6425,141,195,-469
0,5530653,-2352,60,-2465,-1080,-631,-6422,141,195,-469
0,5530667,-2352,60,-2465,-1080,-631,-6422,141,195,-469
0,5530677,-2348,14,-2462,-1083,-636,-6418,141,195,-469
0,5530692,-2352,41,-2459,-1086,-625,-6418,141,195,-469
0,5530706,-2352,41,-2459,-1086,-625,-6418,141,195,-469
0,5530720,-2351,29,-2466,-1080,-629,-6415,141,195,-469
0,5530733,-2358,53,-2460,-1084,-618,-6425,139,211,-471
0,5530747,-2359,28,-2459,-1087,-624,-6420,139,211,-471
0,5530757,-2359,28,-2459,-1087,-624,-6420,139,211,-471
0,5530771,-2357,51,-2461,-1090,-629,-6429,139,211,-471
0,5530782,-2357,51,-2461,-1090,-629,-6429,139,211,-471
0,5530797,-2358,41,-2466,-1079,-620,-6433,139,211,-471
0,5530807,-2358,41,-2466,-1079,-620,-6433,139,211,-471
0,5530821,-2357,62,-2458,-1080,-619,-6438,139,211,-471
0,5530835,-2361,48,-2460,-1091,-622,-6434,139,211,-471
0,5530850,-2356,61,-2466,-1084,-627,-6437,142,218,-468
0,5530864,-2356,61,-2466,-1084,-627,-6437,142,218,-468
0,5530877,-2359,59,-2460,-1078,-632,-6431,142,218,-468
0,5530892,-2358,70,-2452,-1078,-620,-6441,142,218,-468
0,5530905,-2358,70,-2452,-1078,-620,-6441,142,218,-468
0,5530918,-2362,64,-2464,-1081,-629,-6427,142,218,-468
0,5530932,-2362,69,-2466,-1093,-635,-6426,142,218,-468
0,5530947,-2362,69,-2466,-1093,-635,-6426,142,218,-468
