imu,time,ax,ay,az,gx,gy,gz,mx,my,mz
2,2353758,-1424,480,-153,2314,-72,-91,79,-35,-83
2,2353765,-1424,480,-153,2314,-72,-91,79,-35,-83
2,2353773,-1424,480,-153,2314,-72,-91,79,-35,-83
2,2353780,-1423,471,-154,2315,-75,-90,79,-35,-83
2,2353787,-1423,471,-154,2315,-75,-90,79,-35,-83
2,2353797,-1420,483,-155,2317,-68,-86,79,-35,-83
2,2353805,-1420,483,-155,2317,-68,-86,79,-35,-83
2,2353814,-1420,483,-155,2317,-68,-86,79,-35,-83
2,2353825,-1419,484,-155,2318,-77,-92,79,-35,-83
2,2353839,-1421,482,-150,2310,-75,-90,71,-41,-93
2,2353851,-1421,482,-150,2310,-75,-90,71,-41,-93
2,2353865,-1422,478,-153,2314,-75,-93,71,-41,-93
2,2353879,-1419,491,-156,2312,-73,-87,71,-41,-93
2,2353893,-1419,491,-156,2312,-73,-87,71,-41,-93
2,2353905,-1424,491,-151,2308,-68,-88,71,-41,-93
2,2353918,-1426,523,-160,2306,-69,-94,71,-41,-93
2,2353933,-1426,523,-160,2306,-69,-94,71,-41,-93
2,2353945,-1423,482,-156,2305,-67,-86,71,-41,-93
2,2353959,-1424,490,-154,2309,-70,-87,67,-37,-93
2,2353973,-1424,490,-154,2309,-70,-87,67,-37,-93
2,2353987,-1418,492,-161,2311,-73,-87,67,-37,-93
2,2354000,-1426,507,-157,2306,-66,-85,67,-37,-93
2,2354009,-1426,507,-157,2306,-66,-85,67,-37,-93
2,2354022,-1420,497,-160,2313,-62,-92,67,-37,-93
2,2354037,-1426,504,-158,2309,-69,-90,67,-37,-93
2,2354050,-1426,504,-158,2309,-69,-90,67,-37,-93
2,2354062,-1421,505,-159,2317,-77,-78,67,-37,-93
2,2354077,-1425,506,-155,2312,-78,-86,74,-36,-96
2,2354085,-1425,506,-155,2312,-78,-86,74,-36,-96
2,2354098,-1423,517,-149,2304,-78,-82,74,-36,-96
2,2354110,-1423,517,-149,2304,-78,-82,74,-36,-96
2,2354117,-1420,509,-153,2314,-73,-83,74,-36,-96
2,2354126,-1420,509,-153,2314,-73,-83,74,-36,-96
2,2354134,-1420,509,-153,2314,-73,-83,74,-36,-96
2,2354143,-1424,509,-157,2314,-71,-89,74,-36,-96
2,2354151,-1424,509,-157,2314,-71,-89,74,-36,-96
2,2354159,-1424,517,-158,2307,-76,-89,74,-36,-96
2,2354167,-1424,517,-158,2307,-76,-89,74,-36,-96
2,2354177,-1428,539,-162,2311,-69,-88,74,-36,-96
2,2354185,-1428,539,-162,2311,-69,-88,74,-36,-96
2,2354193,-1428,539,-162,2311,-69,-88,74,-36,-96
2,2354200,-1424,522,-158,2313,-66,-87,71,-37,-99
2,2354209,-1424,522,-158,2313,-66,-87,71,-37,-99
2,2354216,-1424,520,-157,2308,-70,-86,71,-37,-99
2,2354225,-1424,520,-157,2308,-70,-86,71,-37,-99
2,2354233,-1424,520,-157,2308,-70,-86,71,-37,-99
2,2354242,-1420,523,-156,2315,-59,-86,71,-37,-99
2,2354249,-1420,523,-156,2315,-59,-86,71,-37,-99
2,2354257,-1426,533,-158,2316,-65,-92,71,-37,-99
2,2354265,-1426,533,-158,2316,-65,-92,71,-37,-99
2,2354273,-1426,533,-158,2316,-65,-92,71,-37,-99
2,2354280,-1426,522,-157,2315,-73,-92,71,-37,-99
2,2354288,-1426,522,-157,2315,-73,-92,71,-37,-99
2,2354295,-1426,522,-157,2315,-73,-92,71,-37,-99
2,2354304,-1426,522,-157,2315,-73,-92,71,-37,-99
2,2354312,-1426,522,-157,2315,-73,-92,71,-37,-99
2,2354320,-1420,517,-156,2314,-75,-91,71,-37,-99
2,2354332,-1420,517,-156,2314,-75,-91,71,-37,-99
2,2354340,-1429,522,-147,2318,-77,-87,73,-31,-97
2,2354354,-1429,522,-147,2318,-77,-87,73,-31,-97
2,2354368,-1424,513,-156,2316,-68,-86,73,-31,-97
2,2354380,-1423,511,-151,2315,-67,-97,73,-31,-97
2,2354394,-1423,511,-151,2315,-67,-97,73,-31,-97
2,2354408,-1425,508,-155,2317,-69,-89,73,-31,-97
2,2354421,-1425,514,-154,2327,-70,-78,73,-31,-97
2,2354436,-1422,513,-157,2319,-68,-77,73,-31,-97
2,2354450,-1422,513,-157,2319,-68,-77,73,-31,-97
2,2354464,-1419,505,-153,2320,-69,-83,70,-28,-100
2,2354476,-1423,502,-154,2325,-69,-82,70,-28,-100
2,2354489,-1423,502,-154,2325,-69,-82,70,-28,-100
2,2354500,-1425,502,-153,2323,-74,-80,70,-28,-100
2,2354511,-1425,502,-153,2323,-74,-80,70,-28,-100
2,2354525,-1423,503,-149,2316,-67,-93,70,-28,-100
2,2354540,-1423,498,-149,2318,-68,-94,70,-28,-100
2,2354554,-1423,498,-149,2318,-68,-94,70,-28,-100
2,2354567,-1425,491,-149,2323,-78,-96,70,-28,-100
2,2354582,-1423,479,-151,2321,-67,-95,64,-28,-96
2,2354593,-1423,479,-151,2321,-67,-95,64,-28,-96
2,2354608,-1422,503,-158,2322,-71,-92,64,-28,-96
2,2354621,-1422,496,-156,2324,-70,-87,64,-28,-96
2,2354635,-1422,496,-156,2324,-70,-87,64,-28,-96
2,2354646,-1428,493,-150,2321,-72,-96,64,-28,-96
2,2354660,-1419,484,-153,2319,-75,-90,64,-28,-96
2,2354674,-1419,484,-153,2319,-75,-90,64,-28,-96
2,2354689,-1425,495,-150,2319,-70,-83,64,-28,-96
2,2354697,-1426,494,-151,2321,-77,-79,70,-24,-108
2,2354709,-1426,494,-151,2321,-77,-79,70,-24,-108
2,2354723,-1423,489,-152,2313,-75,-91,70,-24,-108
2,2354737,-1423,489,-152,2313,-75,-91,70,-24,-108
2,2354746,-1423,489,-152,2313,-75,-91,70,-24,-108
2,2354754,-1423,489,-152,2313,-75,-91,70,-24,-108
2,2354764,-1422,483,-157,2320,-72,-84,70,-24,-108
2,2354774,-1422,483,-157,2320,-72,-84,70,-24,-108
2,2354788,-1421,491,-158,2316,-62,-84,70,-24,-108
2,2354800,-1421,491,-158,2316,-62,-84,70,-24,-108
2,2354814,-1421,491,-158,2316,-62,-84,70,-24,-108
2,2354829,-1419,494,-157,2320,-76,-94,60,-26,-104
2,2354842,-1421,482,-151,2321,-68,-86,60,-26,-104
2,2354857,-1424,491,-156,2317,-78,-91,60,-26,-104
2,2354871,-1424,491,-156,2317,-78,-91,60,-26,-104
2,2354883,-1421,489,-155,2307,-74,-89,60,-26,-104
2,2354895,-1421,489,-155,2307,-74,-89,60,-26,-104
2,2354910,-1424,490,-165,2312,-71,-89,60,-26,-104
2,2354923,-1420,485,-161,2311,-69,-88,60,-26,-104
2,2354937,-1425,491,-154,2308,-72,-79,60,-26,-104
2,2354950,-1425,491,-154,2308,-72,-79,60,-26,-104
2,2354962,-1424,487,-153,2313,-79,-85,64,-22,-104
2,2354976,-1423,482,-156,2318,-74,-88,64,-22,-104
2,2354991,-1423,482,-156,2318,-74,-88,64,-22,-104
2,2355004,-1423,482,-156,2318,-74,-88,64,-22,-104
2,2355019,-1421,495,-155,2310,-71,-90,64,-22,-104
2,2355027,-1421,495,-155,2310,-71,-90,64,-22,-104
2,2355043,-1419,488,-155,2313,-71,-87,64,-22,-104
2,2355058,-1424,489,-158,2307,-72,-83,64,-22,-104
2,2355066,-1424,489,-158,2307,-72,-83,64,-22,-104
2,2355082,-1417,490,-157,2310,-72,-87,65,-25,-111
2,2355097,-1426,510,-159,2313,-64,-88,65,-25,-111
2,2355111,-1426,510,-159,2313,-64,-88,65,-25,-111
2,2355125,-1425,490,-152,2315,-71,-87,65,-25,-111
2,2355139,-1425,495,-157,2313,-64,-90,65,-25,-111
2,2355150,-1425,495,-157,2313,-64,-90,65,-25,-111
2,2355164,-1421,495,-157,2301,-72,-86,65,-25,-111
2,2355177,-1427,507,-159,2307,-73,-85,65,-25,-111
2,2355191,-1427,507,-159,2307,-73,-85,65,-25,-111
2,2355210,-1424,505,-156,2309,-78,-95,57,-23,-115
2,2355222,-1419,512,-159,2310,-73,-98,57,-23,-115
2,2355234,-1419,512,-159,2310,-73,-98,57,-23,-115
2,2355247,-1422,515,-160,2308,-79,-88,57,-23,-115
2,2355260,-1425,509,-159,2308,-67,-81,57,-23,-115
2,2355268,-1425,509,-159,2308,-67,-81,57,-23,-115
2,2355279,-1428,523,-158,2306,-65,-86,57,-23,-115
2,2355295,-1428,523,-158,2306,-65,-86,57,-23,-115
2,2355308,-1426,523,-156,2311,-79,-89,57,-23,-115
2,2355322,-1424,518,-153,2315,-70,-82,61,-23,-117
2,2355336,-1424,518,-153,2315,-70,-82,61,-23,-117
2,2355350,-1424,514,-153,2312,-64,-79,61,-23,-117
2,2355365,-1423,527,-159,2311,-72,-85,61,-23,-117
2,2355380,-1424,522,-159,2311,-70,-83,61,-23,-117
2,2355394,-1424,522,-159,2311,-70,-83,61,-23,-117
2,2355408,-1425,519,-159,2313,-70,-90,61,-23,-117
2,2355420,-1424,513,-158,2319,-74,-89,61,-23,-117
2,2355432,-1424,513,-158,2319,-74,-89,61,-23,-117
2,2355446,-1424,515,-157,2319,-70,-93,58,-24,-110
2,2355460,-1425,506,-155,2318,-66,-82,58,-24,-110
2,2355474,-1425,506,-155,2318,-66,-82,58,-24,-110
2,2355489,-1426,507,-156,2319,-75,-88,58,-24,-110
2,2355501,-1423,506,-158,2313,-72,-89,58,-24,-110
2,2355514,-1423,506,-158,2313,-72,-89,58,-24,-110
2,2355526,-1426,514,-159,2315,-69,-79,58,-24,-110
2,2355540,-1425,509,-158,2314,-78,-77,58,-24,-110
2,2355556,-1425,509,-158,2314,-78,-77,58,-24,-110
2,2355570,-1426,512,-158,2326,-74,-91,58,-24,-110
2,2355586,-1421,506,-154,2325,-64,-97,60,-18,-108
2,2355601,-1423,507,-151,2318,-77,-91,60,-18,-108
2,2355615,-1423,507,-151,2318,-77,-91,60,-18,-108
2,2355630,-1422,499,-158,2322,-74,-89,60,-18,-108
2,2355645,-1425,508,-155,2322,-66,-89,60,-18,-108
2,2355660,-1420,501,-157,2325,-71,-91,60,-18,-108
2,2355674,-1420,501,-157,2325,-71,-91,60,-18,-108
2,2355686,-1424,499,-154,2322,-77,-92,60,-18,-108
2,2355701,-1427,498,-155,2319,-67,-86,61,-27,-109
2,2355716,-1427,498,-155,2319,-67,-86,61,-27,-109
2,2355730,-1426,504,-154,2324,-55,-83,61,-27,-109
2,2355744,-1421,498,-151,2316,-69,-78,61,-27,-109
2,2355759,-1424,501,-152,2320,-78,-86,61,-27,-109
2,2355774,-1424,501,-152,2320,-78,-86,61,-27,-109
2,2355789,-1423,507,-160,2323,-74,-83,61,-27,-109
2,2355805,-1425,509,-157,2321,-65,-81,61,-27,-109
2,2355819,-1426,505,-150,2313,-68,-86,47,-21,-117
2,2355832,-1426,505,-150,2313,-68,-86,47,-21,-117
2,2355848,-1426,500,-154,2319,-63,-91,47,-21,-117
2,2355862,-1423,498,-153,2319,-70,-89,47,-21,-117
2,2355877,-1426,501,-152,2324,-72,-92,47,-21,-117
2,2355889,-1426,501,-152,2324,-72,-92,47,-21,-117
2,2355902,-1426,501,-152,2324,-72,-92,47,-21,-117
2,2355916,-1426,501,-152,2324,-72,-92,47,-21,-117
2,2355932,-1426,500,-155,2319,-75,-91,47,-21,-117
2,2355946,-1421,500,-151,2318,-72,-89,49,-23,-123
2,2355960,-1425,502,-151,2316,-78,-88,49,-23,-123
2,2355975,-1425,502,-151,2316,-78,-88,49,-23,-123
2,2355985,-1428,500,-151,2316,-78,-90,49,-23,-123
2,2355999,-1427,500,-151,2314,-72,-86,49,-23,-123
2,2356014,-1427,500,-151,2314,-72,-86,49,-23,-123
2,2356028,-1425,495,-153,2317,-68,-87,49,-23,-123
2,2356041,-1424,498,-158,2321,-71,-88,49,-23,-123
2,2356056,-1424,498,-158,2321,-71,-88,49,-23,-123
2,2356071,-1427,495,-152,2316,-73,-89,63,-29,-127
2,2356086,-1423,495,-155,2315,-64,-85,63,-29,-127
2,2356101,-1425,493,-158,2316,-73,-85,63,-29,-127
2,2356115,-1425,493,-158,2316,-73,-85,63,-29,-127
2,2356129,-1425,498,-152,2321,-78,-89,63,-29,-127
2,2356145,-1423,497,-152,2327,-78,-86,63,-29,-127
2,2356159,-1422,497,-158,2315,-76,-87,63,-29,-127
2,2356171,-1422,497,-158,2315,-76,-87,63,-29,-127
2,2356184,-1422,497,-155,2321,-76,-86,63,-29,-127
2,2356198,-1421,496,-152,2324,-72,-80,54,-12,-126
2,2356212,-1421,496,-152,2324,-72,-80,54,-12,-126
2,2356227,-1425,497,-156,2329,-77,-79,54,-12,-126
2,2356241,-1423,499,-158,2319,-71,-83,54,-12,-126
2,2356254,-1423,499,-158,2319,-71,-83,54,-12,-126
2,2356268,-1424,493,-157,2330,-64,-92,54,-12,-126
2,2356278,-1422,494,-156,2325,-71,-91,54,-12,-126
2,2356291,-1422,494,-156,2325,-71,-91,54,-12,-126
2,2356306,-1424,492,-158,2317,-75,-82,54,-12,-126
2,2356322,-1424,492,-158,2317,-75,-82,49,-17,-125
2,2356337,-1424,492,-158,2317,-75,-82,49,-17,-125
2,2356352,-1425,493,-154,2322,-72,-79,49,-17,-125
2,2356365,-1421,495,-154,2318,-66,-88,49,-17,-125
2,2356379,-1422,498,-160,2323,-70,-88,49,-17,-125
2,2356393,-1422,498,-160,2323,-70,-88,49,-17,-125
2,2356409,-1425,498,-160,2319,-69,-88,49,-17,-125
2,2356422,-1426,496,-163,2315,-76,-87,49,-17,-125
2,2356434,-1426,496,-163,2315,-76,-87,49,-17,-125
2,2356451,-1425,494,-153,2314,-72,-87,50,-22,-132
2,2356466,-1423,491,-149,2311,-68,-83,50,-22,-132
2,2356481,-1423,492,-151,2309,-75,-86,50,-22,-132
2,2356494,-1423,492,-151,2309,-75,-86,50,-22,-132
2,2356509,-1423,492,-151,2309,-75,-86,50,-22,-132
2,2356525,-1422,490,-151,2315,-81,-83,50,-22,-132
2,2356540,-1426,495,-155,2318,-72,-84,50,-22,-132
2,2356555,-1426,495,-155,2318,-72,-84,50,-22,-132
2,2356570,-1423,495,-149,2315,-75,-85,48,-20,-132
2,2356584,-1424,485,-153,2319,-63,-76,48,-20,-132
2,2356598,-1424,490,-158,2315,-77,-77,48,-20,-132
2,2356614,-1424,490,-158,2315,-77,-77,48,-20,-132
2,2356628,-1424,490,-155,2314,-80,-88,48,-20,-132
2,2356639,-1425,492,-157,2321,-68,-89,48,-20,-132
2,2356651,-1425,492,-157,2321,-68,-89,48,-20,-132
2,2356665,-1423,488,-161,2315,-70,-90,48,-20,-132
2,2356679,-1426,495,-158,2310,-73,-86,54,-22,-132
2,2356695,-1426,495,-158,2310,-73,-86,54,-22,-132
2,2356710,-1422,490,-156,2311,-73,-88,54,-22,-132
2,2356722,-1420,493,-157,2319,-68,-88,54,-22,-132
2,2356730,-1420,493,-157,2319,-68,-88,54,-22,-132
2,2356744,-1425,494,-157,2310,-71,-93,54,-22,-132
2,2356758,-1423,497,-158,2314,-77,-82,54,-22,-132
2,2356772,-1423,497,-158,2314,-77,-82,54,-22,-132
2,2356788,-1423,487,-161,2314,-73,-80,54,-22,-132
2,2356801,-1425,495,-162,2312,-72,-82,54,-22,-132
2,2356815,-1425,495,-162,2312,-72,-82,54,-22,-132
2,2356828,-1426,491,-156,2317,-73,-89,49,-21,-143
2,2356843,-1425,494,-162,2314,-76,-87,49,-21,-143
2,2356857,-1425,494,-162,2314,-76,-87,49,-21,-143
2,2356871,-1424,490,-159,2306,-76,-89,49,-21,-143
2,2356886,-1423,491,-158,2307,-77,-87,49,-21,-143
2,2356899,-1423,488,-159,2304,-78,-89,49,-21,-143
2,2356914,-1423,488,-159,2304,-78,-89,49,-21,-143
2,2356928,-1424,495,-158,2309,-73,-91,49,-21,-143
2,2356943,-1425,493,-158,2304,-73,-87,49,-15,-145
2,2356959,-1424,500,-163,2305,-68,-84,49,-15,-145
2,2356974,-1424,500,-163,2305,-68,-84,49,-15,-145
2,2356988,-1422,499,-162,2311,-70,-90,49,-15,-145
2,2357001,-1425,499,-159,2311,-79,-90,49,-15,-145
2,2357015,-1425,499,-159,2311,-79,-90,49,-15,-145
2,2357028,-1428,506,-166,2303,-74,-79,49,-15,-145
2,2357041,-1425,511,-158,2310,-80,-80,49,-15,-145
2,2357053,-1425,511,-158,2310,-80,-80,49,-15,-145
2,2357067,-1424,511,-157,2309,-73,-84,46,-20,-144
2,2357082,-1425,525,-157,2313,-76,-90,46,-20,-144
2,2357096,-1425,525,-157,2313,-76,-90,46,-20,-144
2,2357110,-1426,524,-157,2309,-69,-91,46,-20,-144
2,2357123,-1429,521,-158,2306,-80,-87,46,-20,-144
2,2357138,-1429,521,-158,2306,-80,-87,46,-20,-144
2,2357152,-1420,514,-159,2311,-75,-82,46,-20,-144
2,2357168,-1423,518,-156,2316,-75,-81,46,-20,-144
2,2357179,-1426,512,-151,2317,-71,-87,49,-29,-151
2,2357193,-1426,512,-151,2317,-71,-87,49,-29,-151
2,2357209,-1429,513,-153,2320,-72,-90,49,-29,-151
2,2357223,-1425,505,-153,2315,-69,-88,49,-29,-151
2,2357237,-1425,505,-153,2315,-69,-88,49,-29,-151
2,2357251,-1429,506,-150,2318,-77,-92,49,-29,-151
2,2357262,-1427,507,-152,2313,-68,-80,49,-29,-151
2,2357275,-1427,507,-152,2313,-68,-80,49,-29,-151
2,2357288,-1427,508,-162,2315,-70,-89,49,-29,-151
2,2357304,-1425,504,-152,2316,-68,-80,49,-21,-153
2,2357317,-1425,504,-152,2316,-68,-80,49,-21,-153
2,2357331,-1429,503,-154,2323,-69,-84,49,-21,-153
2,2357348,-1425,509,-151,2318,-76,-87,49,-21,-153
2,2357362,-1427,504,-156,2318,-64,-92,49,-21,-153
2,2357373,-1427,504,-156,2318,-64,-92,49,-21,-153
2,2357389,-1427,498,-157,2321,-67,-88,49,-21,-153
2,2357403,-1423,493,-158,2315,-66,-80,49,-21,-153
2,2357419,-1426,496,-158,2319,-62,-87,52,-21,-153
2,2357430,-1426,496,-158,2319,-62,-87,52,-18,-150
2,2357444,-1426,482,-153,2324,-64,-90,52,-18,-150
2,2357459,-1424,489,-151,2320,-70,-87,52,-18,-150
2,2357474,-1424,489,-151,2320,-70,-87,52,-18,-150
2,2357488,-1423,481,-152,2315,-66,-88,52,-18,-150
2,2357501,-1423,498,-152,2312,-70,-90,52,-18,-150
2,2357516,-1423,498,-152,2312,-70,-90,52,-18,-150
2,2357531,-1425,488,-159,2316,-75,-86,52,-18,-150
2,2357543,-1423,497,-157,2312,-68,-83,52,-18,-150
2,2357558,-1423,497,-157,2312,-68,-83,52,-18,-150
2,2357572,-1424,486,-155,2316,-70,-85,61,-15,-155
2,2357586,-1427,495,-154,2315,-76,-84,61,-15,-155
2,2357600,-1423,483,-153,2323,-67,-93,61,-15,-155
2,2357615,-1423,483,-153,2323,-67,-93,61,-15,-155
2,2357630,-1425,488,-157,2320,-62,-101,61,-15,-155
2,2357646,-1421,480,-155,2323,-73,-87,61,-15,-155
2,2357661,-1426,489,-156,2320,-78,-86,61,-15,-155
2,2357676,-1426,489,-156,2320,-78,-86,61,-15,-155
2,2357690,-1425,487,-158,2320,-75,-92,53,-27,-155
2,2357704,-1424,486,-154,2314,-74,-89,53,-27,-155
2,2357719,-1426,484,-156,2318,-77,-90,53,-27,-155
2,2357732,-1426,484,-156,2318,-77,-90,53,-27,-155
2,2357745,-1423,490,-152,2314,-77,-88,53,-27,-155
2,2357758,-1424,491,-157,2316,-72,-82,53,-27,-155
2,2357773,-1424,491,-157,2316,-72,-82,53,-27,-155
2,2357787,-1424,486,-159,2315,-74,-84,53,-27,-155
2,2357799,-1420,481,-149,2317,-68,-84,47,-19,-161
2,2357813,-1420,481,-149,2317,-68,-84,47,-19,-161
2,2357825,-1425,488,-154,2322,-67,-76,47,-19,-161
2,2357840,-1424,494,-157,2319,-69,-82,47,-19,-161
2,2357854,-1424,494,-157,2319,-69,-82,47,-19,-161
2,2357865,-1422,489,-159,2316,-81,-93,47,-19,-161
2,2357880,-1422,483,-160,2315,-79,-89,47,-19,-161
2,2357895,-1422,483,-160,2315,-79,-89,47,-19,-161
2,2357909,-1425,485,-166,2312,-72,-89,47,-19,-161
2,2357923,-1426,486,-155,2313,-77,-83,55,-19,-171
2,2357938,-1426,486,-155,2313,-77,-83,55,-19,-171
2,2357950,-1425,488,-154,2311,-78,-84,55,-19,-171
2,2357962,-1423,489,-162,2308,-77,-87,55,-19,-171
2,2357976,-1423,489,-162,2308,-77,-87,55,-19,-171
2,2357991,-1422,483,-157,2312,-78,-83,55,-19,-171
2,2358004,-1429,507,-159,2310,-73,-83,55,-19,-171
2,2358020,-1426,487,-159,2309,-67,-91,55,-19,-171
2,2358032,-1426,487,-159,2309,-67,-91,55,-19,-171
2,2358045,-1423,501,-158,2303,-69,-85,56,-18,-178
2,2358060,-1422,482,-155,2304,-74,-81,56,-18,-178
2,2358076,-1422,482,-155,2304,-74,-81,56,-18,-178
2,2358092,-1422,506,-160,2309,-75,-86,56,-18,-178
2,2358107,-1425,497,-158,2310,-71,-83,56,-18,-178
2,2358120,-1425,504,-160,2305,-75,-94,56,-18,-178
2,2358132,-1425,504,-160,2305,-75,-94,56,-18,-178
2,2358147,-1421,493,-163,2313,-74,-91,56,-18,-178
2,2358161,-1428,509,-156,2310,-72,-83,56,-18,-178
2,2358175,-1428,509,-156,2310,-72,-83,56,-18,-178
2,2358189,-1428,511,-153,2309,-73,-82,60,-30,-176
2,2358203,-1429,509,-157,2306,-79,-87,60,-30,-176
2,2358215,-1429,509,-157,2306,-79,-87,60,-30,-176
2,2358228,-1423,507,-159,2306,-73,-85,60,-30,-176
2,2358244,-1428,523,-158,2309,-67,-85,60,-30,-176
2,2358259,-1428,523,-158,2309,-67,-85,60,-30,-176
2,2358274,-1430,523,-158,2308,-71,-90,60,-30,-176
2,2358288,-1429,518,-155,2307,-70,-88,60,-30,-176
2,2358303,-1427,509,-154,2313,-73,-91,65,-23,-185
2,2358319,-1427,509,-154,2313,-73,-91,65,-23,-185
2,2358334,-1425,512,-154,2321,-72,-91,65,-23,-185
2,2358349,-1427,513,-158,2313,-71,-83,65,-23,-185
2,2358363,-1424,513,-155,2317,-73,-86,65,-23,-185
2,2358378,-1424,513,-155,2317,-73,-86,65,-23,-185
2,2358392,-1420,500,-159,2315,-70,-83,65,-23,-185
2,2358407,-1424,505,-159,2316,-71,-87,65,-23,-185
2,2358419,-1427,507,-152,2313,-72,-83,54,-24,-174
2,2358431,-1427,507,-152,2313,-72,-83,54,-24,-174
2,2358446,-1427,512,-159,2316,-76,-87,54,-24,-174
2,2358460,-1425,504,-155,2311,-71,-88,54,-24,-174
2,2358474,-1425,504,-155,2311,-71,-88,54,-24,-174
2,2358488,-1425,502,-151,2314,-65,-89,54,-24,-174
2,2358500,-1422,505,-155,2315,-73,-90,54,-24,-174
2,2358513,-1422,505,-155,2315,-73,-90,54,-24,-174
2,2358529,-1425,515,-153,2317,-73,-87,54,-24,-174
2,2358544,-1422,510,-153,2314,-72,-81,66,-34,-182
2,2358560,-1425,502,-150,2323,-68,-88,66,-34,-182
2,2358574,-1425,502,-150,2323,-68,-88,66,-34,-182
2,2358587,-1429,507,-151,2321,-78,-85,66,-34,-182
2,2358602,-1425,512,-156,2322,-67,-82,66,-34,-182
2,2358618,-1425,512,-156,2322,-67,-82,66,-34,-182
2,2358633,-1426,512,-150,2316,-74,-94,66,-34,-182
2,2358647,-1425,507,-156,2313,-71,-89,66,-34,-182
2,2358662,-1425,508,-152,2317,-69,-80,52,-14,-184
2,2358675,-1425,508,-152,2317,-69,-80,52,-14,-184
2,2358689,-1427,509,-147,2320,-72,-82,52,-14,-184
2,2358700,-1427,509,-156,2324,-75,-90,52,-14,-184
2,2358714,-1427,509,-156,2324,-75,-90,52,-14,-184
2,2358727,-1426,501,-158,2322,-75,-91,52,-14,-184
2,2358742,-1425,500,-153,2326,-76,-92,52,-14,-184
2,2358756,-1425,500,-153,2326,-76,-92,52,-14,-184
2,2358771,-1425,502,-150,2325,-78,-90,52,-14,-184
2,2358787,-1425,491,-150,2321,-64,-92,52,-14,-184
2,2358800,-1423,493,-155,2321,-73,-86,55,-31,-184
2,2358814,-1423,493,-155,2321,-73,-86,55,-31,-185
2,2358830,-1423,491,-151,2325,-72,-91,55,-31,-185
2,2358845,-1423,496,-150,2316,-74,-85,55,-31,-185
2,2358859,-1423,496,-150,2316,-74,-85,55,-31,-185
2,2358873,-1421,495,-154,2322,-67,-79,55,-31,-185
2,2358884,-1423,499,-158,2324,-70,-81,55,-31,-185
2,2358898,-1423,499,-158,2324,-70,-81,55,-31,-185
2,2358912,-1420,495,-155,2321,-70,-86,55,-31,-185
2,2358926,-1422,491,-154,2321,-74,-86,57,-35,-191
2,2358940,-1423,498,-154,2327,-71,-91,57,-35,-191
2,2358953,-1423,498,-154,2327,-71,-91,57,-35,-191
2,2358966,-1425,499,-153,2321,-80,-88,57,-35,-191
2,2358981,-1425,493,-152,2323,-77,-90,57,-35,-191
2,2358999,-1425,493,-152,2323,-77,-90,57,-35,-191
2,2359013,-1425,489,-155,2321,-69,-94,57,-35,-191
2,2359029,-1422,494,-155,2317,-71,-88,57,-35,-191
2,2359045,-1427,493,-151,2322,-77,-89,57,-29,-191
2,2359057,-1427,493,-151,2322,-77,-89,57,-29,-191
2,2359071,-1424,494,-151,2320,-71,-84,57,-29,-191
2,2359086,-1426,486,-156,2315,-72,-93,57,-29,-191
2,2359100,-1425,491,-156,2316,-77,-93,57,-29,-191
2,2359114,-1425,491,-156,2316,-77,-93,57,-29,-191
2,2359129,-1426,492,-158,2320,-66,-87,57,-29,-191
2,2359143,-1425,496,-157,2320,-70,-93,57,-29,-191
2,2359155,-1425,496,-157,2320,-70,-93,57,-29,-191
2,2359166,-1424,481,-153,2316,-64,-86,54,-34,-194
2,2359181,-1426,487,-151,2318,-67,-83,54,-34,-194
2,2359191,-1426,487,-151,2318,-67,-83,54,-34,-194
2,2359205,-1424,483,-153,2314,-82,-81,54,-34,-194
2,2359218,-1424,483,-153,2314,-82,-81,54,-34,-194
2,2359232,-1424,487,-152,2317,-73,-93,54,-34,-194
2,2359247,-1424,479,-158,2328,-77,-95,54,-34,-194
2,2359264,-1421,483,-152,2321,-74,-91,54,-34,-194
2,2359278,-1421,483,-152,2321,-74,-91,54,-34,-194
2,2359291,-1422,475,-152,2317,-75,-80,52,-26,-198
2,2359306,-1426,478,-151,2317,-67,-90,52,-26,-198
2,2359318,-1426,478,-151,2317,-67,-90,52,-26,-198
2,2359331,-1425,479,-157,2320,-69,-88,52,-26,-198
2,2359348,-1423,473,-159,2317,-68,-88,52,-26,-198
2,2359362,-1424,471,-157,2316,-71,-84,52,-26,-198
2,2359374,-1424,471,-157,2316,-71,-84,52,-26,-198
2,2359383,-1421,473,-157,2315,-66,-85,52,-26,-198
2,2359396,-1421,473,-157,2315,-66,-85,52,-26,-198
2,2359410,-1422,473,-158,2310,-72,-88,52,-26,-198
2,2359426,-1420,474,-151,2317,-72,-82,57,-27,-203
2,2359437,-1420,474,-151,2317,-72,-82,57,-27,-203
2,2359450,-1424,479,-156,2314,-71,-81,57,-27,-203
2,2359464,-1425,480,-158,2311,-69,-77,57,-27,-203
2,2359479,-1425,480,-158,2311,-69,-77,57,-27,-203
2,2359493,-1421,478,-159,2308,-74,-77,57,-27,-203
2,2359508,-1421,477,-154,2310,-73,-74,57,-27,-203
2,2359523,-1423,486,-160,2308,-69,-79,57,-27,-203
2,2359536,-1423,486,-160,2308,-69,-79,57,-27,-203
2,2359552,-1426,520,-157,2307,-72,-79,60,-28,-208
2,2359566,-1426,481,-155,2309,-76,-86,60,-28,-208
2,2359581,-1427,489,-153,2304,-78,-88,60,-28,-208
2,2359596,-1427,489,-153,2304,-78,-88,60,-28,-208
2,2359608,-1418,494,-161,2309,-72,-87,60,-28,-208
2,2359621,-1426,505,-160,2307,-68,-80,60,-28,-208
2,2359635,-1426,505,-160,2307,-68,-80,60,-28,-208
2,2359650,-1425,504,-164,2303,-69,-80,60,-28,-208
2,2359664,-1422,502,-154,2306,-74,-89,50,-24,-204
2,2359678,-1422,502,-154,2306,-74,-89,50,-24,-204
2,2359692,-1420,511,-157,2310,-72,-88,50,-24,-204
2,2359704,-1428,503,-153,2311,-72,-84,50,-24,-204
2,2359718,-1428,503,-153,2311,-72,-84,50,-24,-204
2,2359731,-1426,524,-154,2310,-78,-88,50,-24,-204
2,2359745,-1421,529,-155,2315,-72,-86,50,-24,-204
2,2359759,-1421,529,-155,2315,-72,-86,50,-24,-204
2,2359775,-1427,523,-159,2311,-68,-84,50,-24,-204
2,2359790,-1426,512,-153,2308,-70,-87,56,-26,-212
2,2359806,-1427,529,-152,2311,-75,-85,56,-26,-212
2,2359821,-1424,520,-156,2313,-77,-88,56,-26,-212
2,2359835,-1424,520,-156,2313,-77,-88,56,-26,-212
2,2359849,-1426,520,-155,2315,-71,-88,56,-26,-212
2,2359865,-1422,511,-154,2319,-66,-90,56,-26,-212
2,2359878,-1422,511,-154,2319,-66,-90,56,-26,-212
2,2359889,-1424,521,-162,2317,-66,-86,56,-26,-212
2,2359903,-1428,515,-154,2318,-74,-79,54,-26,-222
2,2359917,-1428,515,-154,2318,-74,-79,54,-26,-222
2,2359929,-1426,515,-155,2316,-74,-85,54,-26,-222
2,2359946,-1424,513,-156,2318,-72,-87,54,-26,-222
2,2359961,-1423,518,-158,2320,-67,-79,54,-26,-222
2,2359976,-1423,518,-158,2320,-67,-79,54,-26,-222
2,2359992,-1425,505,-153,2318,-77,-78,54,-26,-222
2,2360006,-1427,506,-155,2330,-70,-87,54,-26,-222
2,2360019,-1427,506,-155,2330,-70,-87,54,-26,-222
2,2360035,-1426,506,-154,2323,-70,-90,54,-26,-222
2,2360051,-1425,507,-152,2319,-78,-86,54,-26,-222
2,2360066,-1426,504,-151,2322,-70,-86,54,-26,-222
2,2360078,-1426,504,-151,2322,-70,-86,54,-26,-222
2,2360090,-1425,506,-162,2323,-71,-95,54,-26,-222
2,2360103,-1421,498,-158,2320,-68,-89,54,-26,-222
2,2360118,-1421,498,-158,2320,-68,-89,54,-26,-222
2,2360132,-1426,501,-155,2326,-70,-96,54,-26,-222
2,2360144,-1425,496,-151,2323,-73,-90,54,-26,-222
2,2360157,-1425,496,-151,2323,-73,-90,54,-26,-222
2,2360171,-1425,493,-149,2327,-73,-86,57,-25,-225
2,2360186,-1419,469,-146,2329,-72,-84,57,-25,-225
2,2360200,-1419,469,-146,2329,-72,-84,57,-25,-225
2,2360213,-1425,492,-158,2317,-72,-82,57,-25,-225
2,2360228,-1422,492,-154,2312,-70,-86,57,-25,-225
2,2360244,-1426,490,-153,2313,-71,-89,57,-25,-225
2,2360259,-1426,490,-153,2313,-71,-89,57,-25,-225
2,2360272,-1421,485,-148,2315,-66,-97,57,-25,-225
2,2360287,-1421,487,-153,2316,-70,-88,70,-22,-218
2,2360300,-1421,487,-153,2316,-70,-88,70,-22,-218
2,2360313,-1424,492,-154,2316,-69,-86,70,-22,-218
2,2360326,-1424,478,-151,2313,-66,-85,70,-22,-218
2,2360340,-1424,478,-151,2313,-66,-85,70,-22,-218
2,2360353,-1421,477,-148,2312,-74,-83,70,-22,-218
2,2360367,-1425,467,-157,2317,-72,-90,70,-22,-218
2,2360381,-1424,482,-157,2316,-74,-83,70,-22,-218
2,2360394,-1424,482,-157,2316,-74,-83,70,-22,-218
2,2360407,-1424,476,-152,2321,-76,-89,68,-14,-230
2,2360422,-1423,480,-152,2316,-73,-91,68,-14,-230
2,2360437,-1423,480,-152,2316,-73,-91,68,-14,-230
2,2360453,-1422,473,-154,2312,-64,-83,68,-14,-230
2,2360467,-1425,479,-151,2306,-75,-82,68,-14,-230
2,2360479,-1425,479,-151,2306,-75,-82,68,-14,-230
2,2360494,-1424,480,-154,2315,-67,-89,68,-14,-230
2,2360508,-1423,482,-153,2312,-72,-88,68,-14,-230
2,2360522,-1420,479,-155,2304,-75,-85,71,-13,-233
2,2360536,-1420,479,-155,2304,-75,-85,71,-13,-233
2,2360550,-1423,486,-154,2307,-68,-90,71,-13,-233
2,2360563,-1421,485,-159,2316,-70,-95,71,-13,-233
2,2360578,-1421,485,-159,2316,-70,-95,71,-13,-233
2,2360590,-1423,485,-151,2310,-73,-85,71,-13,-233
2,2360605,-1420,480,-155,2310,-71,-85,71,-13,-233
2,2360617,-1420,480,-155,2310,-71,-85,71,-13,-233
2,2360630,-1423,488,-157,2307,-70,-92,71,-13,-233
2,2360645,-1423,489,-155,2310,-73,-92,80,-8,-236
2,2360659,-1423,489,-155,2310,-73,-92,80,-8,-236
2,2360674,-1421,490,-155,2311,-73,-89,80,-8,-236
2,2360688,-1421,484,-154,2306,-77,-85,80,-8,-236
2,2360702,-1422,494,-158,2304,-77,-79,80,-8,-236
2,2360714,-1422,494,-158,2304,-77,-79,80,-8,-236
2,2360726,-1423,503,-155,2303,-81,-85,80,-8,-236
2,2360740,-1423,503,-155,2303,-81,-85,80,-8,-236
2,2360755,-1422,487,-156,2291,-68,-91,80,-8,-236
2,2360769,-1426,491,-163,2303,-68,-93,80,-8,-236
2,2360783,-1420,499,-155,2306,-72,-94,87,-15,-253
2,2360796,-1420,499,-155,2306,-72,-94,87,-15,-253
2,2360809,-1426,498,-162,2300,-70,-89,87,-15,-253
2,2360822,-1424,503,-156,2304,-67,-91,87,-15,-253
2,2360836,-1424,503,-156,2304,-67,-91,87,-15,-253
2,2360850,-1421,510,-156,2302,-71,-91,87,-15,-253
2,2360863,-1424,519,-157,2310,-74,-84,87,-15,-253
2,2360877,-1424,519,-157,2310,-74,-84,87,-15,-253
2,2360891,-1425,543,-157,2304,-76,-88,87,-15,-253
2,2360907,-1429,525,-151,2305,-76,-86,96,-10,-248
2,2360923,-1427,517,-153,2308,-70,-83,96,-10,-248
2,2360938,-1427,517,-153,2308,-70,-83,96,-10,-248
2,2360951,-1423,515,-149,2308,-71,-94,96,-10,-248
2,2360963,-1423,515,-149,2308,-71,-94,96,-10,-248
2,2360977,-1423,515,-149,2308,-71,-94,96,-10,-248
2,2360992,-1422,518,-150,2321,-73,-87,96,-10,-248
2,2361006,-1418,511,-152,2314,-74,-85,96,-10,-248
2,2361020,-1418,511,-152,2314,-74,-85,96,-10,-248
2,2361033,-1421,509,-155,2313,-79,-88,105,-15,-243
2,2361047,-1423,518,-148,2315,-71,-87,105,-15,-243
2,2361060,-1423,518,-148,2315,-71,-87,105,-15,-243
2,2361073,-1424,518,-157,2313,-68,-91,105,-15,-243
2,2361088,-1424,508,-151,2313,-72,-91,105,-15,-243
2,2361102,-1424,501,-151,2315,-66,-88,105,-15,-243
2,2361110,-1424,501,-151,2315,-66,-88,105,-15,-243
2,2361118,-1424,501,-151,2315,-66,-88,105,-15,-243
2,2361135,-1424,506,-154,2319,-66,-78,105,-15,-243
2,2361149,-1426,513,-155,2321,-81,-78,98,-10,-244
2,2361164,-1424,504,-151,2320,-77,-83,98,-10,-244
2,2361179,-1424,504,-151,2320,-77,-83,98,-10,-244
2,2361193,-1424,498,-149,2323,-74,-86,98,-10,-244
2,2361207,-1421,500,-153,2321,-78,-86,98,-10,-244
2,2361222,-1423,504,-153,2316,-75,-87,98,-10,-244
2,2361234,-1423,504,-153,2316,-75,-87,98,-10,-244
2,2361248,-1423,504,-153,2316,-75,-87,98,-10,-244
2,2361264,-1425,497,-149,2323,-75,-89,112,-16,-244
2,2361277,-1425,497,-149,2323,-75,-89,112,-16,-244
2,2361291,-1419,496,-155,2318,-70,-81,112,-16,-244
2,2361306,-1424,498,-157,2328,-65,-83,112,-16,-244
2,2361320,-1424,498,-157,2328,-65,-83,112,-16,-244
2,2361335,-1423,494,-153,2327,-77,-84,112,-16,-244
2,2361351,-1425,495,-154,2319,-72,-89,112,-16,-244
2,2361366,-1419,492,-150,2314,-70,-87,112,-16,-244
2,2361378,-1419,492,-150,2314,-70,-87,112,-16,-244
2,2361393,-1423,498,-150,2322,-66,-98,112,-16,-244
2,2361408,-1423,498,-151,2321,-75,-95,105,-21,-243
2,2361421,-1423,498,-151,2321,-75,-95,105,-21,-243
2,2361434,-1425,499,-154,2321,-69,-97,105,-21,-243
2,2361447,-1421,499,-151,2312,-70,-88,105,-21,-243
2,2361461,-1421,499,-151,2312,-70,-88,105,-21,-243
2,2361476,-1423,500,-155,2315,-68,-82,105,-21,-243
2,2361489,-1422,495,-151,2314,-67,-85,105,-21,-243
2,2361503,-1423,496,-151,2322,-79,-88,105,-21,-243
2,2361515,-1423,496,-151,2322,-79,-88,105,-21,-243
2,2361528,-1422,495,-149,2326,-76,-85,111,-15,-245
2,2361542,-1424,498,-147,2327,-74,-81,111,-15,-245
2,2361556,-1424,498,-147,2327,-74,-81,111,-15,-245
2,2361571,-1422,498,-151,2323,-77,-86,111,-15,-245
2,2361583,-1425,498,-150,2323,-74,-87,111,-15,-245
2,2361595,-1425,498,-150,2323,-74,-87,111,-15,-245
2,2361612,-1421,494,-149,2319,-81,-91,111,-15,-245
2,2361627,-1423,500,-154,2318,-78,-89,111,-15,-245
2,2361643,-1423,500,-149,2313,-71,-87,113,-17,-243
2,2361658,-1423,500,-149,2313,-71,-87,113,-17,-243
2,2361669,-1422,496,-150,2316,-73,-88,113,-17,-243
2,2361682,-1423,491,-152,2324,-73,-85,113,-17,-243
2,2361696,-1423,491,-152,2324,-73,-85,113,-17,-243
2,2361710,-1424,491,-151,2323,-75,-89,113,-17,-243
2,2361723,-1422,492,-152,2317,-78,-82,113,-17,-243
2,2361737,-1422,492,-152,2317,-78,-82,113,-17,-243
2,2361749,-1425,496,-153,2314,-73,-83,113,-17,-243
2,2361763,-1421,495,-151,2321,-75,-82,120,-26,-246
2,2361778,-1421,495,-151,2321,-75,-82,120,-26,-246
2,2361791,-1422,496,-152,2317,-80,-90,120,-26,-246
2,2361806,-1422,501,-158,2319,-71,-85,120,-26,-246
2,2361822,-1422,501,-158,2319,-71,-85,120,-26,-246
2,2361837,-1421,499,-158,2311,-75,-93,120,-26,-246
2,2361852,-1422,494,-153,2316,-68,-86,120,-26,-246
2,2361869,-1423,499,-153,2324,-67,-89,120,-26,-246
2,2361884,-1422,495,-154,2325,-74,-93,116,-26,-244
2,2361897,-1422,495,-154,2325,-74,-93,116,-26,-244
2,2361913,-1418,493,-155,2316,-63,-90,116,-26,-244
2,2361926,-1421,491,-150,2318,-74,-93,116,-26,-244
2,2361939,-1421,491,-150,2318,-74,-93,116,-26,-244
2,2361952,-1421,497,-153,2319,-70,-93,116,-26,-244
2,2361966,-1421,497,-149,2320,-75,-88,116,-26,-244
2,2361979,-1421,497,-149,2320,-75,-88,116,-26,-244
2,2361994,-1424,498,-151,2321,-72,-88,116,-26,-244
2,2362008,-1423,495,-155,2324,-73,-81,116,-26,-244
2,2362021,-1423,495,-155,2324,-73,-81,116,-26,-244
2,2362034,-1422,498,-154,2314,-76,-80,118,-26,-240
2,2362048,-1424,498,-151,2314,-74,-84,118,-26,-240
2,2362062,-1423,496,-157,2319,-71,-89,118,-26,-240
2,2362077,-1423,496,-157,2319,-71,-89,118,-26,-240
2,2362091,-1422,487,-155,2316,-72,-84,118,-26,-240
2,2362106,-1425,494,-152,2311,-69,-84,118,-26,-240
2,2362121,-1425,494,-152,2311,-69,-84,118,-26,-240
2,2362136,-1423,495,-153,2316,-74,-85,118,-26,-240
2,2362151,-1423,495,-153,2316,-74,-85,126,-10,-242
2,2362165,-1423,492,-150,2320,-79,-88,126,-10,-242
2,2362179,-1423,492,-150,2320,-79,-88,126,-10,-242
2,2362193,-1420,494,-150,2325,-73,-89,126,-10,-242
2,2362208,-1425,496,-153,2318,-69,-92,126,-10,-242
2,2362222,-1425,496,-153,2318,-69,-92,126,-10,-242
2,2362235,-1425,496,-153,2318,-69,-92,126,-10,-242
2,2362249,-1419,496,-154,2314,-71,-85,126,-10,-242
2,2362263,-1424,493,-155,2315,-67,-96,128,-22,-242
2,2362277,-1424,493,-155,2315,-67,-96,128,-22,-242
2,2362292,-1419,492,-152,2323,-62,-89,128,-22,-242
2,2362305,-1423,493,-150,2317,-70,-96,128,-22,-242
2,2362317,-1423,493,-150,2317,-70,-96,128,-22,-242
2,2362330,-1420,497,-154,2316,-73,-88,128,-22,-242
2,2362343,-1418,495,-152,2312,-77,-83,128,-22,-242
2,2362358,-1418,495,-152,2312,-77,-83,128,-22,-242
2,2362374,-1422,498,-157,2315,-70,-91,128,-22,-242
2,2362388,-1422,506,-150,2316,-72,-91,126,-22,-246
2,2362404,-1422,502,-148,2316,-71,-86,126,-22,-246
2,2362419,-1422,502,-148,2316,-71,-86,126,-22,-246
2,2362433,-1424,506,-153,2318,-73,-92,126,-22,-246
2,2362446,-1421,510,-152,2316,-76,-89,126,-22,-246
2,2362462,-1421,510,-152,2316,-76,-89,126,-22,-246
2,2362474,-1424,511,-150,2317,-69,-85,126,-22,-246
2,2362488,-1423,506,-154,2322,-78,-94,126,-22,-246
2,2362505,-1422,508,-153,2318,-76,-86,135,-19,-239
2,2362518,-1422,508,-153,2318,-76,-86,135,-19,-239
2,2362531,-1424,509,-153,2316,-71,-81,135,-19,-239
2,2362545,-1424,512,-154,2321,-75,-80,135,-19,-239
2,2362560,-1424,512,-154,2321,-75,-80,135,-19,-239
2,2362575,-1423,511,-151,2322,-71,-81,135,-19,-239
2,2362590,-1422,509,-154,2314,-69,-81,135,-19,-239
2,2362601,-1422,509,-154,2314,-69,-81,135,-19,-239
2,2362612,-1420,505,-156,2317,-67,-86,135,-19,-239
2,2362627,-1421,510,-154,2322,-69,-79,135,-19,-239
2,2362641,-1421,510,-154,2322,-69,-79,135,-19,-239
2,2362656,-1424,510,-152,2317,-67,-87,131,-25,-243
2,2362672,-1422,506,-146,2325,-68,-83,131,-25,-243
2,2362686,-1422,507,-148,2317,-74,-85,131,-25,-243
2,2362700,-1422,507,-148,2317,-74,-85,131,-25,-243
2,2362715,-1424,511,-151,2320,-80,-83,131,-25,-243
2,2362729,-1423,514,-153,2320,-80,-89,131,-25,-243
2,2362743,-1423,514,-158,2319,-69,-81,131,-25,-243
2,2362754,-1423,514,-158,2319,-69,-81,131,-25,-243
2,2362761,-1423,514,-158,2319,-69,-81,131,-25,-243
2,2362774,-1423,514,-147,2324,-68,-90,135,-23,-235
2,2362786,-1422,507,-150,2319,-65,-88,135,-23,-235
2,2362801,-1422,507,-150,2319,-65,-88,135,-23,-235
2,2362816,-1425,508,-151,2317,-73,-84,135,-23,-235
2,2362831,-1423,509,-147,2320,-69,-88,135,-23,-235
2,2362844,-1424,502,-155,2327,-65,-89,135,-23,-235
2,2362858,-1424,502,-155,2327,-65,-89,135,-23,-235
2,2362873,-1423,500,-152,2325,-69,-95,135,-23,-235
2,2362888,-1424,502,-149,2324,-62,-91,141,-25,-243
2,2362901,-1424,502,-149,2324,-62,-91,141,-25,-243
2,2362915,-1425,502,-148,2328,-69,-85,141,-25,-243
2,2362929,-1422,489,-148,2324,-77,-83,141,-25,-243
2,2362943,-1422,489,-148,2324,-77,-83,141,-25,-243
2,2362958,-1422,489,-152,2322,-77,-82,141,-25,-243
2,2362973,-1423,500,-147,2322,-69,-85,141,-25,-243
2,2362986,-1422,495,-146,2320,-73,-87,141,-25,-243
2,2363000,-1422,495,-146,2320,-73,-87,141,-25,-243
2,2363013,-1421,485,-151,2322,-68,-87,135,-17,-235
2,2363028,-1418,490,-149,2317,-69,-86,135,-17,-235
2,2363044,-1419,487,-154,2324,-70,-85,135,-17,-235
2,2363060,-1419,487,-154,2324,-70,-85,135,-17,-235
2,2363075,-1424,491,-152,2314,-69,-83,135,-17,-235
2,2363091,-1421,483,-149,2318,-73,-87,135,-17,-235
2,2363107,-1421,485,-150,2319,-75,-87,135,-17,-235
2,2363121,-1421,485,-150,2319,-75,-87,135,-17,-235
2,2363136,-1421,473,-152,2317,-64,-87,146,-22,-230
2,2363149,-1421,488,-149,2314,-69,-80,146,-22,-230
2,2363164,-1420,480,-154,2316,-68,-85,146,-22,-230
2,2363175,-1420,480,-154,2316,-68,-85,146,-22,-230
2,2363190,-1418,474,-155,2322,-71,-83,146,-22,-230
2,2363204,-1419,465,-154,2318,-70,-83,146,-22,-230
2,2363218,-1419,465,-154,2318,-70,-83,146,-22,-230
2,2363233,-1418,479,-151,2312,-67,-87,146,-22,-230
2,2363247,-1424,478,-157,2314,-69,-77,142,-22,-234
2,2363257,-1424,478,-157,2314,-69,-77,142,-22,-234
2,2363272,-1425,481,-147,2313,-72,-80,142,-22,-234
2,2363286,-1424,476,-153,2314,-71,-81,142,-22,-234
2,2363300,-1424,476,-153,2314,-71,-81,142,-22,-234
2,2363315,-1419,482,-152,2316,-68,-93,142,-22,-234
2,2363329,-1422,483,-152,2310,-66,-85,142,-22,-234
2,2363344,-1419,486,-153,2313,-63,-80,142,-22,-234
2,2363361,-1419,486,-153,2313,-63,-80,142,-22,-234
2,2363377,-1424,518,-155,2311,-62,-87,142,-22,-234
2,2363392,-1420,483,-148,2311,-68,-96,141,-19,-233
2,2363406,-1421,497,-156,2303,-71,-89,141,-19,-233
2,2363420,-1421,497,-156,2303,-71,-89,141,-19,-233
2,2363435,-1420,497,-152,2302,-73,-90,141,-19,-233
2,2363448,-1425,508,-156,2305,-72,-81,141,-19,-233
2,2363462,-1425,508,-156,2305,-72,-81,141,-19,-233
2,2363476,-1421,495,-155,2315,-73,-90,141,-19,-233
2,2363489,-1426,498,-156,2310,-78,-94,141,-19,-233
2,2363504,-1420,506,-154,2315,-75,-87,141,-25,-233
2,2363515,-1420,506,-154,2315,-75,-87,141,-25,-231
2,2363530,-1422,510,-154,2310,-63,-86,141,-25,-231
2,2363546,-1425,515,-154,2309,-74,-85,141,-25,-231
2,2363559,-1425,515,-154,2309,-74,-85,141,-25,-231
2,2363574,-1423,508,-159,2312,-70,-93,141,-25,-231
2,2363589,-1419,514,-151,2309,-66,-91,141,-25,-231
2,2363603,-1419,514,-151,2309,-66,-91,141,-25,-231
2,2363620,-1423,518,-152,2316,-66,-86,141,-25,-231
2,2363633,-1426,536,-152,2306,-65,-90,151,-17,-231
2,2363645,-1423,524,-157,2305,-72,-100,151,-17,-231
2,2363660,-1423,524,-157,2305,-72,-100,151,-17,-231
2,2363674,-1424,518,-154,2314,-77,-95,151,-17,-231
2,2363688,-1422,523,-153,2325,-74,-83,151,-17,-231
2,2363703,-1422,523,-153,2325,-74,-83,151,-17,-231
2,2363716,-1425,535,-155,2325,-65,-83,151,-17,-231
2,2363728,-1422,524,-156,2318,-73,-85,151,-17,-231
2,2363742,-1422,524,-156,2318,-73,-85,151,-17,-231
2,2363756,-1420,519,-148,2323,-76,-87,150,-22,-224
2,2363766,-1420,515,-149,2327,-77,-85,150,-22,-224
2,2363778,-1420,515,-149,2327,-77,-85,150,-22,-224
2,2363791,-1422,522,-153,2325,-70,-91,150,-22,-224
2,2363806,-1422,510,-148,2326,-75,-94,150,-22,-224
2,2363822,-1422,510,-148,2326,-75,-94,150,-22,-224
2,2363834,-1423,507,-151,2326,-71,-88,150,-22,-224
2,2363849,-1426,506,-151,2328,-71,-92,150,-22,-224
2,2363865,-1424,518,-150,2322,-67,-89,150,-12,-230
2,2363880,-1424,518,-150,2322,-67,-89,150,-12,-230
2,2363888,-1423,510,-147,2325,-66,-96,150,-12,-230
2,2363897,-1423,510,-147,2325,-66,-96,150,-12,-230
2,2363906,-1422,510,-150,2326,-68,-91,150,-12,-230
2,2363914,-1422,510,-150,2326,-68,-91,150,-12,-230
2,2363927,-1424,501,-149,2325,-65,-88,150,-12,-230
2,2363940,-1424,501,-149,2325,-65,-88,150,-12,-230
2,2363955,-1422,505,-149,2324,-66,-92,150,-12,-230
2,2363969,-1421,508,-156,2324,-74,-87,150,-12,-230
2,2363984,-1425,506,-151,2331,-73,-85,150,-12,-230
2,2363998,-1425,506,-151,2331,-73,-85,150,-12,-230
2,2364009,-1422,485,-150,2327,-73,-84,146,-18,-228
2,2364024,-1419,487,-151,2321,-69,-92,146,-18,-228
2,2364039,-1419,487,-151,2321,-69,-92,146,-18,-228
2,2364053,-1421,496,-147,2326,-70,-86,146,-18,-228
2,2364067,-1420,502,-152,2322,-75,-80,146,-18,-228
2,2364083,-1420,502,-152,2322,-75,-80,146,-18,-228
2,2364098,-1424,483,-152,2321,-77,-84,146,-18,-228
2,2364113,-1421,492,-150,2317,-73,-83,146,-18,-228
2,2364128,-1418,493,-146,2322,-70,-86,156,-16,-216
2,2364142,-1418,493,-146,2322,-70,-86,156,-16,-216
2,2364156,-1425,497,-149,2321,-69,-84,156,-16,-216
2,2364170,-1422,483,-150,2316,-75,-87,156,-16,-216
2,2364185,-1420,482,-153,2312,-76,-88,156,-16,-216
2,2364198,-1420,482,-153,2312,-76,-88,156,-16,-216
2,2364211,-1421,475,-155,2313,-73,-88,156,-16,-216
2,2364225,-1422,490,-155,2316,-68,-78,156,-16,-216
2,2364240,-1422,490,-155,2316,-68,-78,156,-16,-216
2,2364254,-1420,487,-151,2316,-73,-85,156,-20,-218
2,2364269,-1423,487,-152,2313,-74,-89,156,-20,-218
2,2364284,-1423,487,-152,2313,-74,-89,156,-20,-218
2,2364299,-1419,478,-151,2316,-67,-93,156,-20,-218
2,2364315,-1421,491,-157,2319,-68,-83,156,-20,-218
2,2364331,-1418,487,-157,2313,-66,-88,156,-20,-218
2,2364345,-1418,487,-157,2313,-66,-88,156,-20,-218
2,2364359,-1421,484,-156,2314,-73,-87,156,-20,-218
2,2364374,-1420,484,-155,2315,-68,-87,154,-12,-216
2,2364388,-1422,487,-150,2310,-66,-87,154,-12,-216
2,2364403,-1422,487,-150,2310,-66,-87,154,-12,-216
2,2364418,-1422,488,-154,2312,-67,-82,154,-12,-216
2,2364430,-1422,488,-158,2318,-69,-91,154,-12,-216
2,2364444,-1422,488,-158,2318,-69,-91,154,-12,-216
2,2364456,-1418,483,-155,2313,-65,-88,154,-12,-216
2,2364471,-1418,490,-152,2307,-71,-88,154,-12,-216
2,2364486,-1422,492,-153,2305,-74,-95,159,-5,-217
2,2364497,-1422,492,-153,2305,-74,-95,159,-5,-217
2,2364512,-1421,490,-154,2305,-71,-85,159,-5,-217
2,2364526,-1421,497,-160,2308,-71,-89,159,-5,-217
2,2364541,-1421,497,-160,2308,-71,-89,159,-5,-217
2,2364556,-1421,497,-160,2308,-71,-89,159,-5,-217
2,2364568,-1423,499,-160,2305,-71,-84,159,-5,-217
2,2364576,-1423,499,-160,2305,-71,-84,159,-5,-217
2,2364584,-1423,499,-160,2305,-71,-84,159,-5,-217
2,2364600,-1421,494,-153,2307,-71,-89,159,-5,-217
2,2364615,-1425,507,-155,2312,-70,-87,159,-5,-217
2,2364628,-1425,507,-155,2312,-70,-87,158,0,-212
2,2364642,-1425,507,-155,2312,-70,-87,158,0,-212
2,2364651,-1421,510,-156,2311,-68,-83,158,0,-212
2,2364665,-1419,511,-156,2302,-70,-91,158,0,-212
2,2364679,-1419,511,-156,2302,-70,-91,158,0,-212
2,2364692,-1423,525,-152,2306,-74,-91,158,0,-212
2,2364707,-1421,520,-159,2311,-65,-97,158,0,-212
2,2364722,-1421,520,-159,2311,-65,-97,158,0,-212
2,2364734,-1424,539,-158,2310,-71,-91,158,0,-212
2,2364746,-1423,528,-151,2302,-75,-94,158,-2,-218
2,2364762,-1423,528,-151,2302,-75,-94,158,-2,-218
2,2364779,-1423,523,-149,2311,-74,-86,158,-2,-218
2,2364793,-1421,518,-148,2314,-71,-92,158,-2,-218
2,2364809,-1427,524,-158,2318,-75,-85,158,-2,-218
2,2364821,-1427,524,-158,2318,-75,-85,158,-2,-218
2,2364835,-1422,517,-154,2316,-76,-80,158,-2,-218
2,2364850,-1421,515,-149,2315,-71,-78,158,-2,-218
2,2364864,-1421,515,-149,2315,-71,-78,158,-2,-218
2,2364878,-1421,516,-146,2315,-69,-87,166,-8,-208
2,2364892,-1425,521,-152,2315,-68,-80,166,-8,-208
2,2364906,-1422,513,-148,2313,-69,-88,166,-8,-208
2,2364918,-1422,513,-148,2313,-69,-88,166,-8,-208
2,2364931,-1422,510,-150,2312,-68,-87,166,-8,-208
2,2364946,-1423,509,-153,2321,-74,-89,166,-8,-208
2,2364959,-1423,509,-153,2321,-74,-89,166,-8,-208
2,2364974,-1421,508,-150,2319,-74,-86,166,-8,-208
2,2364988,-1426,513,-148,2311,-75,-83,161,-1,-201
2,2365003,-1426,513,-148,2311,-75,-83,161,-1,-201
2,2365019,-1423,512,-155,2319,-68,-87,161,-1,-201
2,2365035,-1421,510,-154,2320,-66,-90,161,-1,-201
2,2365050,-1420,503,-154,2313,-72,-87,161,-1,-201
2,2365065,-1420,503,-154,2313,-72,-87,161,-1,-201
2,2365078,-1422,503,-153,2321,-68,-80,161,-1,-201
2,2365092,-1419,504,-154,2325,-72,-84,161,-1,-201
2,2365107,-1419,501,-153,2321,-72,-87,159,5,-205
2,2365120,-1419,501,-153,2321,-72,-87,159,5,-205
2,2365132,-1419,501,-153,2321,-72,-87,159,5,-205
2,2365146,-1424,503,-158,2310,-79,-84,159,5,-205
2,2365158,-1424,503,-158,2310,-79,-84,159,5,-205
2,2365171,-1425,501,-157,2313,-68,-78,159,5,-205
2,2365182,-1425,501,-157,2313,-68,-78,159,5,-205
2,2365198,-1425,502,-148,2327,-63,-79,159,5,-205
2,2365212,-1421,500,-155,2326,-74,-80,159,5,-205
2,2365228,-1425,504,-152,2315,-74,-81,159,5,-205
2,2365241,-1425,504,-152,2315,-74,-81,159,5,-205
2,2365254,-1420,499,-144,2313,-65,-85,178,4,-200
2,2365270,-1425,509,-149,2315,-67,-88,178,4,-200
2,2365282,-1425,509,-149,2315,-67,-88,178,4,-200
2,2365296,-1422,507,-151,2318,-68,-85,178,4,-200
2,2365310,-1421,503,-152,2315,-68,-92,178,4,-200
2,2365322,-1421,503,-152,2315,-68,-92,178,4,-200
2,2365334,-1421,503,-152,2322,-69,-98,178,4,-200
2,2365348,-1422,505,-151,2323,-74,-94,178,4,-200
2,2365363,-1422,505,-151,2323,-74,-94,178,4,-200
2,2365378,-1422,501,-148,2318,-69,-101,168,4,-190
2,2365392,-1423,499,-155,2322,-75,-90,168,4,-190
2,2365407,-1423,501,-151,2317,-76,-90,168,4,-190
2,2365421,-1423,501,-151,2317,-76,-90,168,4,-190
2,2365433,-1423,498,-153,2322,-70,-87,168,4,-190
2,2365449,-1418,499,-156,2325,-69,-86,168,4,-190
2,2365463,-1418,499,-156,2325,-69,-86,168,4,-190
2,2365477,-1423,502,-151,2318,-73,-89,168,4,-190
2,2365491,-1421,502,-150,2322,-64,-81,169,-3,-195
2,2365503,-1421,502,-150,2322,-64,-81,169,-3,-195
2,2365517,-1426,501,-149,2320,-63,-83,169,-3,-195
2,2365531,-1421,502,-153,2316,-75,-88,169,-3,-195
2,2365545,-1421,502,-153,2316,-75,-88,169,-3,-195
2,2365559,-1419,496,-149,2321,-69,-77,169,-3,-195
2,2365575,-1423,498,-156,2320,-67,-88,169,-3,-195
2,2365586,-1422,501,-155,2325,-74,-91,169,-3,-195
2,2365599,-1422,501,-155,2325,-74,-91,169,-3,-195
2,2365614,-1419,499,-150,2319,-78,-77,157,1,-197
2,2365628,-1423,500,-150,2314,-65,-86,157,1,-197
2,2365642,-1423,500,-150,2314,-65,-86,157,1,-197
2,2365657,-1424,501,-151,2312,-66,-86,157,1,-197
2,2365670,-1425,498,-153,2307,-62,-79,157,1,-197
2,2365684,-1425,498,-153,2307,-62,-79,157,1,-197
2,2365696,-1419,498,-150,2315,-67,-84,157,1,-197
2,2365711,-1421,499,-153,2314,-73,-85,157,1,-197
2,2365723,-1421,499,-153,2314,-73,-85,157,1,-197
2,2365737,-1420,500,-153,2319,-68,-84,174,8,-194
2,2365753,-1425,497,-155,2318,-74,-80,174,8,-194
2,2365765,-1425,497,-155,2318,-74,-80,174,8,-194
2,2365779,-1423,499,-153,2311,-74,-83,174,8,-194
2,2365792,-1423,496,-154,2316,-75,-86,174,8,-194
2,2365805,-1423,496,-154,2316,-75,-86,174,8,-194
2,2365820,-1419,495,-154,2323,-69,-87,174,8,-194
2,2365834,-1420,493,-154,2318,-66,-78,174,8,-194
2,2365848,-1420,498,-149,2315,-71,-89,164,2,-192
2,2365862,-1420,498,-149,2315,-71,-89,164,2,-192
2,2365877,-1421,497,-153,2316,-77,-91,164,2,-192
2,2365891,-1420,498,-154,2323,-74,-89,164,2,-192
2,2365902,-1420,498,-154,2323,-74,-89,164,2,-192
2,2365918,-1423,497,-151,2319,-71,-89,164,2,-192
2,2365932,-1422,498,-149,2321,-65,-86,164,2,-192
2,2365947,-1424,494,-156,2309,-68,-87,164,2,-192
2,2365961,-1424,494,-156,2309,-68,-87,164,2,-192
2,2365973,-1424,494,-156,2309,-68,-87,164,2,-192
2,2365988,-1420,497,-148,2312,-75,-91,171,3,-187
2,2366002,-1420,497,-148,2312,-75,-91,171,3,-187
2,2366016,-1424,495,-151,2311,-72,-90,171,3,-187
2,2366030,-1422,496,-155,2313,-71,-87,171,3,-187
2,2366045,-1422,496,-155,2313,-71,-87,171,3,-187
2,2366056,-1424,496,-155,2312,-63,-87,171,3,-187
2,2366070,-1420,495,-155,2321,-71,-93,171,3,-187
2,2366085,-1420,495,-155,2321,-71,-93,171,3,-187
2,2366099,-1422,494,-151,2316,-71,-85,171,3,-187
2,2366113,-1425,496,-153,2310,-73,-85,171,-1,-187
2,2366128,-1420,497,-150,2312,-76,-88,171,-1,-187
2,2366140,-1420,497,-150,2312,-76,-88,171,-1,-187
2,2366153,-1426,496,-157,2319,-76,-88,171,-1,-187
2,2366169,-1423,503,-157,2313,-75,-91,171,-1,-187
2,2366183,-1423,503,-157,2313,-75,-91,171,-1,-187
2,2366196,-1424,501,-156,2313,-76,-87,171,-1,-187
2,2366209,-1421,497,-154,2311,-70,-89,171,-1,-187
2,2366223,-1421,497,-154,2311,-70,-89,171,-1,-187
2,2366236,-1421,502,-158,2315,-71,-92,177,13,-181
2,2366251,-1422,505,-154,2315,-73,-86,177,13,-181
2,2366265,-1422,505,-154,2315,-73,-86,177,13,-181
2,2366278,-1421,506,-160,2315,-76,-84,177,13,-181
2,2366290,-1421,511,-152,2317,-72,-91,177,13,-181
2,2366304,-1421,511,-152,2317,-72,-91,177,13,-181
2,2366317,-1424,509,-156,2314,-72,-89,177,13,-181
2,2366331,-1423,505,-155,2314,-74,-85,177,13,-181
2,2366347,-1426,506,-154,2314,-72,-82,177,13,-181
2,2366362,-1426,506,-154,2314,-72,-82,167,5,-173
2,2366377,-1422,507,-151,2315,-72,-84,167,5,-173
2,2366393,-1420,508,-150,2315,-77,-95,167,5,-173
2,2366407,-1421,507,-152,2314,-71,-87,167,5,-173
2,2366422,-1421,507,-152,2314,-71,-87,167,5,-173
2,2366436,-1423,507,-158,2317,-70,-87,167,5,-173
2,2366451,-1423,512,-156,2316,-82,-82,167,5,-173
2,2366466,-1423,512,-156,2316,-82,-82,167,5,-173
2,2366477,-1422,517,-153,2318,-78,-86,166,-10,-180
2,2366491,-1423,515,-152,2315,-69,-88,166,-10,-180
2,2366505,-1423,515,-152,2315,-69,-88,166,-10,-180
2,2366520,-1425,514,-153,2319,-73,-86,166,-10,-180
2,2366535,-1421,520,-153,2320,-75,-85,166,-10,-180
2,2366550,-1424,514,-156,2322,-73,-84,166,-10,-180
2,2366565,-1424,514,-156,2322,-73,-84,166,-10,-180
2,2366580,-1426,513,-154,2321,-75,-82,166,-10,-180
2,2366594,-1421,511,-154,2320,-78,-88,166,-10,-180
2,2366607,-1421,511,-154,2320,-78,-88,166,-10,-180
2,2366621,-1423,509,-151,2323,-73,-94,173,-7,-175
2,2366638,-1419,509,-152,2325,-72,-85,173,-7,-175
2,2366652,-1420,509,-151,2326,-79,-82,173,-7,-175
2,2366666,-1420,509,-151,2326,-79,-82,173,-7,-175
2,2366676,-1421,509,-153,2331,-77,-83,173,-7,-175
2,2366688,-1420,505,-156,2325,-68,-84,173,-7,-175
2,2366702,-1420,505,-156,2325,-68,-84,173,-7,-175
2,2366715,-1425,501,-152,2324,-67,-91,173,-7,-175
2,2366729,-1424,500,-146,2325,-67,-90,183,-3,-173
2,2366743,-1424,500,-146,2325,-67,-90,183,-3,-173
2,2366756,-1425,501,-149,2322,-66,-83,183,-3,-173
2,2366771,-1420,480,-153,2326,-72,-80,183,-3,-173
2,2366784,-1420,480,-153,2326,-72,-80,183,-3,-173
2,2366798,-1425,501,-155,2327,-67,-89,183,-3,-173
2,2366815,-1420,487,-152,2327,-71,-87,183,-3,-173
2,2366829,-1425,494,-148,2322,-76,-90,183,-3,-173
2,2366842,-1425,494,-148,2322,-76,-90,183,-3,-173
2,2366857,-1420,487,-150,2321,-66,-93,163,-3,-167
2,2366868,-1423,492,-152,2327,-69,-91,163,-3,-167
2,2366881,-1423,492,-152,2327,-69,-91,163,-3,-167
2,2366896,-1423,488,-152,2328,-75,-83,163,-3,-167
2,2366912,-1424,486,-158,2322,-73,-83,163,-3,-167
2,2366926,-1424,486,-158,2322,-73,-83,163,-3,-167
2,2366942,-1425,485,-155,2325,-74,-86,163,-3,-167
2,2366956,-1425,474,-152,2330,-78,-78,163,-3,-167
2,2366970,-1420,479,-155,2323,-79,-83,170,-8,-170
2,2366984,-1420,479,-155,2323,-79,-83,170,-8,-170
2,2366997,-1423,478,-153,2317,-75,-77,170,-8,-170
2,2367011,-1421,480,-150,2320,-78,-79,170,-8,-170
2,2367026,-1421,480,-150,2320,-78,-79,170,-8,-170
2,2367041,-1421,473,-157,2320,-75,-86,170,-8,-170
2,2367055,-1419,482,-156,2317,-66,-82,170,-8,-170
2,2367070,-1426,487,-156,2319,-69,-85,170,-8,-170
2,2367084,-1426,487,-156,2319,-69,-85,170,-8,-170
2,2367099,-1425,485,-153,2318,-66,-86,169,-11,-165
2,2367115,-1423,475,-152,2315,-71,-82,169,-11,-165
2,2367128,-1424,480,-153,2314,-69,-82,169,-11,-165
2,2367142,-1424,480,-153,2314,-69,-82,169,-11,-165
2,2367157,-1423,485,-162,2318,-62,-82,169,-11,-165
2,2367166,-1423,485,-162,2318,-62,-82,169,-11,-165
2,2367178,-1423,488,-154,2314,-69,-79,169,-11,-165
2,2367194,-1423,508,-161,2308,-73,-85,169,-11,-165
2,2367205,-1423,508,-161,2308,-73,-85,169,-11,-165
2,2367220,-1419,490,-157,2301,-72,-85,169,-11,-165
2,2367235,-1422,493,-155,2308,-69,-87,171,-1,-163
2,2367248,-1422,504,-157,2312,-72,-83,171,-1,-163
2,2367260,-1422,504,-157,2312,-72,-83,171,-1,-163
2,2367275,-1424,498,-160,2318,-70,-92,171,-1,-163
2,2367287,-1424,498,-160,2318,-70,-92,171,-1,-163
2,2367301,-1423,496,-159,2309,-69,-86,171,-1,-163
2,2367315,-1424,485,-161,2312,-71,-89,171,-1,-163
2,2367327,-1424,485,-161,2312,-71,-89,171,-1,-163
2,2367342,-1427,503,-160,2315,-69,-94,171,-1,-163
2,2367358,-1423,495,-154,2308,-76,-86,160,-4,-160
2,2367373,-1425,513,-155,2313,-77,-90,160,-4,-160
2,2367385,-1425,513,-155,2313,-77,-90,160,-4,-160
2,2367393,-1421,502,-161,2311,-77,-83,160,-4,-160
2,2367409,-1424,513,-155,2314,-74,-90,160,-4,-160
2,2367423,-1424,513,-155,2314,-74,-90,160,-4,-160
2,2367437,-1422,519,-155,2312,-75,-89,160,-4,-160
2,2367450,-1430,544,-161,2314,-76,-92,160,-4,-160
2,2367463,-1430,544,-161,2314,-76,-92,160,-4,-160
2,2367477,-1426,523,-155,2313,-69,-91,160,-6,-158
2,2367492,-1426,518,-154,2313,-65,-85,160,-6,-158
2,2367506,-1426,518,-154,2313,-65,-85,160,-6,-158
2,2367520,-1425,519,-156,2313,-74,-83,160,-6,-158
2,2367533,-1427,527,-161,2315,-78,-88,160,-6,-158
2,2367544,-1427,527,-161,2315,-78,-88,160,-6,-158
2,2367558,-1424,518,-158,2316,-73,-88,160,-6,-158
2,2367571,-1423,516,-160,2320,-77,-93,160,-6,-158
2,2367587,-1423,516,-160,2320,-77,-93,160,-6,-158
2,2367602,-1421,517,-153,2325,-73,-85,169,-1,-155
2,2367616,-1428,520,-153,2322,-78,-88,169,-1,-155
2,2367628,-1424,514,-158,2318,-78,-88,169,-1,-155
2,2367644,-1424,514,-158,2318,-78,-88,169,-1,-155
2,2367660,-1425,515,-154,2322,-78,-89,169,-1,-155
2,2367675,-1425,507,-156,2322,-67,-87,169,-1,-155
2,2367691,-1426,510,-154,2322,-67,-83,169,-1,-155
2,2367706,-1426,510,-154,2322,-67,-83,169,-1,-155
2,2367720,-1423,505,-156,2321,-72,-83,161,1,-145
2,2367732,-1423,503,-153,2322,-74,-85,161,1,-145
2,2367747,-1423,503,-153,2322,-74,-85,161,1,-145
2,2367762,-1421,497,-151,2322,-70,-83,161,1,-145
2,2367775,-1421,502,-152,2321,-80,-83,161,1,-145
2,2367790,-1422,506,-151,2316,-75,-82,161,1,-145
2,2367804,-1422,506,-151,2316,-75,-82,161,1,-145
2,2367817,-1425,501,-159,2313,-71,-85,161,1,-145
2,2367830,-1420,491,-154,2317,-76,-88,161,1,-145
2,2367845,-1420,491,-154,2317,-76,-88,161,1,-145
2,2367859,-1423,481,-150,2323,-78,-87,169,-7,-143
2,2367874,-1421,494,-155,2324,-80,-90,169,-7,-143
2,2367887,-1421,494,-155,2324,-80,-90,169,-7,-143
2,2367900,-1425,487,-155,2322,-78,-85,169,-7,-143
2,2367915,-1426,495,-154,2317,-69,-79,169,-7,-143
2,2367929,-1425,477,-156,2318,-71,-88,169,-7,-143
2,2367943,-1425,477,-156,2318,-71,-88,169,-7,-143
2,2367959,-1422,495,-156,2319,-77,-85,169,-7,-143
2,2367971,-1421,492,-152,2315,-83,-78,157,-7,-143
2,2367984,-1421,492,-152,2315,-83,-78,157,-7,-143
2,2368000,-1424,500,-157,2314,-79,-82,157,-7,-143
2,2368014,-1419,485,-153,2314,-71,-91,157,-7,-143
2,2368028,-1419,485,-153,2314,-71,-91,157,-7,-143
2,2368041,-1424,490,-159,2315,-75,-90,157,-7,-143
2,2368056,-1423,484,-159,2318,-75,-87,157,-7,-143
2,2368066,-1423,484,-159,2318,-75,-87,157,-7,-143
2,2368080,-1427,489,-152,2313,-74,-88,157,-7,-143
2,2368096,-1424,484,-149,2321,-76,-88,163,-11,-147
2,2368111,-1423,485,-153,2314,-70,-82,163,-11,-147
2,2368128,-1423,485,-153,2314,-70,-82,163,-11,-147
2,2368143,-1420,483,-162,2313,-76,-83,163,-11,-147
2,2368156,-1422,494,-158,2312,-80,-87,163,-11,-147
2,2368168,-1424,493,-156,2314,-80,-81,163,-11,-147
2,2368184,-1424,493,-156,2314,-80,-81,163,-11,-147
2,2368197,-1424,487,-155,2304,-72,-84,163,-11,-147
2,2368211,-1421,488,-155,2302,-75,-82,162,-12,-142
2,2368226,-1421,488,-155,2302,-75,-82,162,-12,-142
2,2368240,-1423,494,-159,2306,-68,-84,162,-12,-142
2,2368256,-1425,485,-164,2318,-76,-90,162,-12,-142
2,2368268,-1425,485,-164,2318,-76,-90,162,-12,-142
2,2368281,-1425,484,-153,2306,-82,-88,162,-12,-142
2,2368296,-1424,482,-159,2308,-83,-82,162,-12,-142
2,2368312,-1422,487,-159,2307,-82,-85,162,-12,-142
2,2368328,-1424,486,-152,2305,-70,-91,169,-12,-142
2,2368345,-1424,486,-152,2305,-70,-91,169,-15,-131
2,2368358,-1424,507,-159,2304,-75,-91,169,-15,-131
2,2368369,-1422,492,-159,2310,-69,-85,169,-15,-131
2,2368385,-1422,492,-159,2310,-69,-85,169,-15,-131
2,2368398,-1424,498,-160,2311,-75,-85,169,-15,-131
2,2368412,-1421,500,-156,2307,-74,-89,169,-15,-131
2,2368427,-1421,500,-156,2307,-74,-89,169,-15,-131
2,2368441,-1426,501,-154,2307,-76,-81,169,-15,-131
2,2368455,-1427,500,-156,2311,-73,-89,155,-15,-135
2,2368467,-1427,500,-156,2311,-73,-89,155,-15,-135
2,2368482,-1423,498,-160,2311,-79,-88,155,-15,-135
2,2368497,-1426,511,-161,2311,-78,-87,155,-15,-135
2,2368510,-1426,504,-159,2311,-73,-84,155,-15,-135
2,2368525,-1426,504,-159,2311,-73,-84,155,-15,-135
2,2368540,-1427,512,-156,2311,-80,-90,155,-15,-135
2,2368556,-1423,513,-159,2308,-77,-94,155,-15,-135
2,2368571,-1426,532,-159,2312,-72,-86,155,-15,-135
2,2368585,-1426,532,-159,2312,-72,-86,155,-15,-135
2,2368600,-1425,519,-154,2312,-70,-92,155,-9,-131
2,2368613,-1426,522,-161,2314,-65,-94,155,-9,-131
2,2368628,-1426,522,-161,2314,-65,-94,155,-9,-131
2,2368641,-1425,514,-157,2308,-74,-92,155,-9,-131
2,2368654,-1427,510,-159,2308,-77,-89,155,-9,-131
2,2368667,-1427,510,-159,2308,-77,-89,155,-9,-131
2,2368683,-1425,505,-161,2315,-74,-83,155,-9,-131
2,2368696,-1422,509,-155,2315,-66,-84,155,-9,-131
2,2368711,-1424,501,-151,2313,-68,-93,147,-13,-125
2,2368726,-1424,501,-151,2313,-68,-93,147,-13,-125
2,2368742,-1424,504,-155,2317,-70,-88,147,-13,-125
2,2368757,-1422,511,-160,2309,-74,-88,147,-13,-125
2,2368773,-1422,516,-160,2324,-69,-88,147,-13,-125
2,2368788,-1422,516,-160,2324,-69,-88,147,-13,-125
2,2368803,-1420,503,-158,2315,-72,-82,147,-13,-125
2,2368817,-1420,503,-158,2315,-72,-82,147,-13,-125
2,2368831,-1422,506,-153,2319,-74,-83,154,-18,-130
2,2368845,-1422,506,-153,2319,-74,-83,154,-18,-130
2,2368856,-1421,501,-149,2316,-75,-89,154,-18,-130
2,2368871,-1425,497,-156,2319,-76,-89,154,-18,-130
2,2368886,-1425,497,-156,2319,-76,-89,154,-18,-130
2,2368900,-1427,501,-157,2321,-71,-89,154,-18,-130
2,2368914,-1422,498,-155,2320,-73,-85,154,-18,-130
2,2368928,-1422,498,-155,2320,-73,-85,154,-18,-130
2,2368944,-1426,501,-153,2316,-79,-90,154,-18,-130
2,2368958,-1425,500,-148,2323,-72,-84,143,-11,-115
2,2368969,-1425,505,-155,2320,-72,-82,143,-11,-115
2,2368984,-1425,505,-155,2320,-72,-82,143,-11,-115
2,2369000,-1424,503,-159,2318,-71,-84,143,-11,-115
2,2369015,-1428,504,-156,2320,-72,-90,143,-11,-115
2,2369031,-1425,503,-160,2324,-65,-78,143,-11,-115
2,2369042,-1425,503,-160,2324,-65,-78,143,-11,-115
2,2369054,-1426,501,-149,2323,-73,-87,143,-11,-115
2,2369070,-1428,501,-158,2329,-64,-86,149,-25,-119
2,2369083,-1428,501,-158,2329,-64,-86,149,-25,-119
2,2369097,-1426,502,-151,2323,-71,-87,149,-25,-119
2,2369112,-1424,502,-155,2327,-66,-89,149,-25,-119
2,2369124,-1424,502,-155,2327,-66,-89,149,-25,-119
2,2369136,-1426,500,-155,2330,-69,-90,149,-25,-119
2,2369152,-1424,501,-151,2321,-71,-83,149,-25,-119
2,2369167,-1424,501,-151,2321,-71,-83,149,-25,-119
2,2369182,-1426,500,-150,2323,-65,-86,149,-25,-119
2,2369196,-1421,497,-158,2326,-68,-94,149,-25,-119
2,2369210,-1424,496,-150,2325,-70,-88,138,-8,-114
2,2369224,-1424,496,-150,2325,-70,-88,138,-8,-114
2,2369241,-1424,494,-149,2320,-75,-94,138,-8,-114
2,2369254,-1427,494,-150,2324,-73,-89,138,-8,-114
2,2369268,-1427,494,-150,2324,-73,-89,138,-8,-114
2,2369284,-1424,498,-157,2327,-68,-85,138,-8,-114
2,2369298,-1422,495,-156,2323,-75,-88,138,-8,-114
2,2369312,-1422,495,-151,2318,-82,-88,138,-8,-114
2,2369327,-1422,495,-151,2318,-82,-88,138,-8,-114
2,2369338,-1425,494,-152,2322,-79,-92,133,-19,-113
2,2369353,-1423,501,-153,2319,-75,-89,133,-19,-113
2,2369367,-1423,501,-153,2319,-75,-89,133,-19,-113
2,2369382,-1424,497,-155,2323,-68,-84,133,-19,-113
2,2369397,-1424,494,-156,2322,-70,-86,133,-19,-113
2,2369412,-1427,493,-161,2320,-66,-91,133,-19,-113
2,2369427,-1427,493,-161,2320,-66,-91,133,-19,-113
2,2369442,-1426,491,-153,2322,-64,-83,133,-19,-113
2,2369458,-1426,491,-149,2321,-66,-83,134,-22,-106
2,2369472,-1426,494,-156,2316,-62,-88,134,-22,-106
2,2369486,-1426,494,-156,2316,-62,-88,134,-22,-106
2,2369501,-1425,489,-152,2320,-69,-84,134,-22,-106
2,2369513,-1423,495,-151,2321,-72,-88,134,-22,-106
2,2369527,-1423,495,-151,2321,-72,-88,134,-22,-106
2,2369542,-1423,495,-159,2317,-70,-87,134,-22,-106
2,2369555,-1422,494,-158,2320,-66,-87,134,-22,-106
2,2369569,-1422,494,-158,2320,-66,-87,134,-22,-106
2,2369583,-1422,495,-151,2325,-64,-85,140,-26,-106
2,2369596,-1424,496,-148,2320,-67,-80,140,-26,-106
2,2369608,-1424,496,-148,2320,-67,-80,140,-26,-106
2,2369622,-1424,491,-154,2322,-69,-83,140,-26,-106
2,2369637,-1426,489,-159,2321,-67,-83,140,-26,-106
2,2369652,-1424,492,-155,2314,-73,-91,140,-26,-106
2,2369668,-1424,492,-155,2314,-73,-91,140,-26,-106
2,2369680,-1427,492,-157,2307,-73,-89,140,-26,-106
2,2369691,-1425,492,-154,2317,-69,-85,122,-28,-106
2,2369701,-1425,492,-154,2317,-69,-85,122,-28,-106
2,2369715,-1424,494,-153,2323,-68,-86,122,-28,-106
2,2369727,-1424,494,-153,2323,-68,-86,122,-28,-106
2,2369742,-1423,496,-149,2320,-64,-93,122,-28,-106
2,2369757,-1420,493,-159,2313,-74,-93,122,-28,-106
2,2369771,-1423,493,-161,2312,-74,-88,122,-28,-106
2,2369786,-1423,493,-161,2312,-74,-88,122,-28,-106
2,2369800,-1427,492,-154,2312,-75,-80,122,-28,-106
2,2369815,-1425,489,-150,2316,-67,-85,122,-28,-106
2,2369827,-1425,489,-150,2316,-67,-85,122,-28,-106
2,2369841,-1423,484,-154,2320,-70,-87,135,-25,-107
2,2369854,-1423,490,-155,2321,-71,-90,135,-25,-107
2,2369868,-1423,490,-155,2321,-71,-90,135,-25,-107
2,2369883,-1422,493,-160,2319,-64,-88,135,-25,-107
2,2369895,-1422,494,-156,2318,-71,-84,135,-25,-107
2,2369908,-1422,494,-156,2318,-71,-84,135,-25,-107
2,2369923,-1425,490,-164,2316,-77,-85,135,-25,-107
2,2369938,-1421,492,-161,2316,-67,-85,135,-25,-107
2,2369953,-1424,491,-153,2314,-67,-99,117,-23,-107
2,2369969,-1424,491,-153,2314,-67,-99,117,-23,-107
2,2369980,-1425,493,-155,2311,-65,-88,117,-23,-107
2,2369994,-1423,498,-154,2319,-68,-89,117,-23,-107
2,2370009,-1423,498,-154,2319,-68,-89,117,-23,-107
2,2370022,-1426,490,-155,2314,-66,-84,117,-23,-107
2,2370035,-1421,491,-156,2309,-60,-89,117,-23,-107
2,2370051,-1426,492,-159,2307,-78,-88,117,-23,-107
2,2370064,-1426,492,-159,2307,-78,-88,117,-23,-107
2,2370077,-1426,499,-153,2305,-75,-81,117,-27,-105
2,2370091,-1426,493,-158,2313,-67,-84,117,-27,-105
2,2370106,-1426,493,-158,2313,-67,-84,117,-27,-105
2,2370114,-1426,495,-159,2319,-64,-85,117,-27,-105
2,2370126,-1426,495,-159,2319,-64,-85,117,-27,-105
2,2370141,-1423,494,-155,2318,-68,-91,117,-27,-105
2,2370157,-1423,497,-157,2315,-71,-80,117,-27,-105
2,2370172,-1423,497,-155,2317,-77,-84,117,-27,-105
2,2370187,-1423,497,-155,2317,-77,-84,117,-27,-105
2,2370200,-1424,497,-158,2311,-71,-88,119,-37,-97
2,2370212,-1425,494,-158,2315,-75,-89,119,-37,-97
2,2370226,-1425,494,-158,2315,-75,-89,119,-37,-97
2,2370238,-1426,495,-154,2304,-74,-92,119,-37,-97
2,2370251,-1427,502,-159,2306,-79,-93,119,-37,-97
2,2370264,-1427,502,-159,2306,-79,-93,119,-37,-97
2,2370277,-1422,517,-159,2308,-68,-82,119,-37,-97
2,2370291,-1426,509,-156,2314,-80,-83,119,-37,-97
2,2370306,-1426,509,-156,2314,-80,-83,119,-37,-97
2,2370321,-1425,520,-153,2312,-73,-90,118,-32,-104
2,2370334,-1427,528,-153,2315,-72,-86,118,-32,-104
2,2370348,-1427,528,-153,2315,-72,-86,118,-32,-104
2,2370361,-1429,522,-155,2315,-66,-87,118,-32,-104
2,2370375,-1426,513,-159,2316,-63,-83,118,-32,-104
2,2370392,-1425,512,-153,2323,-60,-84,118,-32,-104
2,2370407,-1425,512,-153,2323,-60,-84,118,-32,-104
2,2370421,-1426,515,-159,2318,-72,-86,118,-32,-104
2,2370434,-1427,510,-152,2313,-70,-89,118,-32,-104
2,2370449,-1427,510,-152,2313,-70,-89,118,-32,-104
2,2370464,-1427,506,-147,2315,-70,-89,118,-34,-96
2,2370480,-1427,508,-153,2317,-63,-91,118,-34,-96
2,2370493,-1424,507,-156,2314,-70,-87,118,-34,-96
2,2370507,-1424,507,-156,2314,-70,-87,118,-34,-96
2,2370522,-1430,513,-152,2317,-76,-89,118,-34,-96
2,2370536,-1425,504,-147,2322,-75,-88,118,-34,-96
2,2370552,-1426,500,-153,2319,-72,-89,118,-34,-96
2,2370564,-1426,500,-153,2319,-72,-89,118,-34,-96
2,2370576,-1426,500,-153,2319,-72,-89,112,-28,-96
2,2370589,-1426,500,-153,2319,-72,-89,112,-28,-96
2,2370605,-1427,503,-151,2322,-67,-94,112,-28,-96
2,2370619,-1423,498,-152,2330,-72,-93,112,-28,-96
2,2370631,-1423,492,-163,2316,-70,-88,112,-28,-96
2,2370644,-1423,492,-163,2316,-70,-88,112,-28,-96
2,2370659,-1425,490,-159,2317,-68,-92,112,-28,-96
2,2370675,-1422,478,-156,2320,-72,-88,112,-28,-96
2,2370691,-1422,478,-156,2320,-72,-88,112,-28,-96
2,2370704,-1425,496,-148,2322,-71,-90,106,-20,-94
2,2370716,-1422,489,-151,2320,-74,-89,106,-20,-94
2,2370729,-1422,489,-151,2320,-74,-89,106,-20,-94
2,2370744,-1425,484,-153,2318,-72,-90,106,-20,-94
2,2370757,-1423,492,-155,2319,-65,-85,106,-20,-94
2,2370771,-1424,489,-154,2315,-66,-88,106,-20,-94
2,2370786,-1424,489,-154,2315,-66,-88,106,-20,-94
2,2370797,-1423,490,-155,2316,-70,-86,106,-20,-94
2,2370811,-1421,484,-157,2316,-66,-91,103,-29,-91
2,2370826,-1421,484,-157,2316,-66,-91,103,-29,-91
2,2370840,-1420,485,-158,2314,-65,-90,103,-29,-91
2,2370854,-1421,482,-157,2313,-66,-88,103,-29,-91
2,2370869,-1421,482,-157,2313,-66,-88,103,-29,-91
2,2370884,-1425,491,-151,2320,-66,-83,103,-29,-91
2,2370899,-1420,487,-155,2314,-64,-89,103,-29,-91
2,2370915,-1423,491,-153,2313,-74,-95,103,-29,-91
2,2370928,-1423,491,-153,2313,-74,-95,103,-29,-91
2,2370942,-1425,477,-151,2315,-79,-85,105,-35,-87
2,2370956,-1424,487,-153,2317,-83,-86,105,-35,-87
2,2370968,-1424,487,-153,2317,-83,-86,105,-35,-87
2,2370982,-1419,486,-155,2311,-77,-92,105,-35,-87
2,2370996,-1425,486,-156,2312,-73,-92,105,-35,-87
2,2371010,-1425,486,-156,2312,-73,-92,105,-35,-87
2,2371024,-1425,481,-156,2312,-66,-92,105,-35,-87
2,2371038,-1425,487,-158,2313,-81,-90,105,-35,-87
2,2371051,-1425,489,-158,2309,-79,-85,105,-35,-87
2,2371063,-1425,489,-158,2309,-79,-85,105,-35,-87
2,2371079,-1424,487,-147,2311,-70,-86,105,-35,-87
2,2371093,-1423,485,-153,2315,-63,-73,105,-35,-87
2,2371108,-1423,485,-153,2315,-63,-73,105,-35,-87
2,2371121,-1422,485,-155,2312,-73,-78,105,-35,-87
2,2371136,-1422,482,-158,2313,-69,-78,105,-35,-87
2,2371151,-1426,487,-160,2312,-73,-84,105,-35,-87
2,2371168,-1426,487,-160,2312,-73,-84,105,-35,-87
2,2371181,-1424,491,-158,2315,-70,-86,105,-35,-87
2,2371195,-1422,487,-152,2308,-70,-89,97,-29,-89
2,2371209,-1422,487,-152,2308,-70,-89,97,-29,-89
2,2371223,-1422,491,-156,2308,-77,-87,97,-29,-89
2,2371236,-1427,499,-160,2312,-73,-94,97,-29,-89
2,2371247,-1427,499,-160,2312,-73,-94,97,-29,-89
2,2371262,-1419,490,-156,2300,-66,-92,97,-29,-89
2,2371275,-1425,492,-160,2305,-78,-91,97,-29,-89
2,2371291,-1425,492,-160,2305,-78,-91,97,-29,-89
2,2371305,-1424,503,-154,2318,-72,-88,97,-29,-89
2,2371317,-1427,500,-151,2311,-75,-74,97,-33,-87
2,2371331,-1426,502,-155,2305,-76,-85,97,-33,-87
2,2371346,-1426,502,-155,2305,-76,-85,97,-33,-87
2,2371362,-1427,497,-161,2307,-68,-91,97,-33,-87
2,2371376,-1424,513,-156,2308,-74,-85,97,-33,-87
2,2371388,-1424,513,-156,2308,-74,-85,97,-33,-87
2,2371403,-1425,506,-159,2309,-75,-80,97,-33,-87
2,2371419,-1426,514,-161,2309,-67,-88,97,-33,-87
2,2371434,-1423,515,-158,2307,-60,-82,103,-37,-91
2,2371447,-1423,515,-158,2307,-60,-82,103,-37,-91
2,2371460,-1426,528,-156,2306,-68,-83,103,-37,-91
2,2371473,-1425,524,-151,2306,-68,-84,103,-37,-91
2,2371488,-1425,524,-151,2306,-68,-84,103,-37,-91
2,2371501,-1426,526,-157,2313,-71,-101,103,-37,-91
2,2371515,-1426,518,-155,2310,-72,-85,103,-37,-91
2,2371528,-1426,518,-155,2310,-72,-85,103,-37,-91
2,2371543,-1427,517,-154,2310,-68,-87,103,-37,-91
2,2371557,-1426,514,-154,2319,-71,-90,97,-37,-85
2,2371573,-1423,515,-152,2318,-70,-84,97,-37,-85
2,2371589,-1423,515,-152,2318,-70,-84,97,-37,-85
2,2371602,-1426,505,-154,2317,-71,-81,97,-37,-85
2,2371615,-1427,505,-153,2316,-74,-79,97,-37,-85
2,2371631,-1427,505,-153,2316,-74,-79,97,-37,-85
2,2371645,-1426,509,-153,2321,-68,-86,97,-37,-85
2,2371655,-1425,513,-154,2308,-68,-90,97,-37,-85
2,2371671,-1425,513,-154,2308,-68,-90,97,-37,-85
2,2371685,-1427,505,-157,2314,-67,-84,90,-34,-88
2,2371699,-1423,508,-150,2328,-72,-83,90,-34,-88
2,2371713,-1423,508,-154,2324,-72,-88,90,-34,-88
2,2371727,-1423,508,-154,2324,-72,-88,90,-34,-88
2,2371742,-1426,505,-153,2317,-70,-83,90,-34,-88
2,2371758,-1426,503,-156,2320,-73,-89,90,-34,-88
2,2371771,-1426,503,-156,2320,-73,-89,90,-34,-88
2,2371783,-1428,506,-154,2323,-76,-91,90,-34,-88
2,2371798,-1426,506,-155,2325,-69,-85,90,-34,-88
2,2371811,-1424,506,-149,2324,-69,-82,90,-34,-88
2,2371825,-1424,506,-149,2324,-69,-82,95,-31,-87
2,2371840,-1422,508,-151,2323,-80,-83,95,-31,-87
2,2371851,-1422,508,-151,2323,-80,-83,95,-31,-87
2,2371866,-1423,510,-155,2319,-79,-91,95,-31,-87
2,2371880,-1422,510,-155,2316,-71,-89,95,-31,-87
2,2371897,-1423,513,-156,2321,-70,-84,95,-31,-87
2,2371910,-1423,513,-156,2321,-70,-84,95,-31,-87
2,2371922,-1425,510,-156,2320,-66,-82,95,-31,-87
2,2371938,-1423,507,-149,2318,-71,-86,94,-42,-92
2,2371951,-1423,507,-149,2318,-71,-86,94,-42,-92
2,2371965,-1425,501,-156,2320,-67,-90,94,-42,-92
2,2371980,-1427,505,-153,2322,-60,-95,94,-42,-92
2,2371994,-1424,499,-153,2325,-71,-95,94,-42,-92
2,2372008,-1424,499,-153,2325,-71,-95,94,-42,-92
2,2372021,-1425,493,-157,2331,-66,-88,94,-42,-92
2,2372035,-1424,495,-156,2332,-71,-84,94,-42,-92
2,2372050,-1424,495,-156,2332,-71,-84,94,-42,-92
2,2372066,-1423,499,-149,2330,-73,-82,86,-30,-94
2,2372081,-1424,500,-154,2323,-65,-86,86,-30,-94
2,2372097,-1424,493,-154,2319,-65,-90,86,-30,-94
2,2372109,-1424,493,-154,2319,-65,-90,86,-30,-94
2,2372123,-1424,500,-157,2323,-66,-86,86,-30,-94
2,2372137,-1424,495,-152,2319,-74,-93,86,-30,-94
2,2372152,-1423,496,-155,2322,-79,-86,86,-30,-94
2,2372166,-1423,496,-155,2322,-79,-86,86,-30,-94
2,2372179,-1424,495,-154,2317,-77,-93,82,-40,-98
2,2372194,-1424,499,-153,2321,-70,-90,82,-40,-98
2,2372207,-1424,499,-153,2321,-70,-90,82,-40,-98
2,2372219,-1423,498,-150,2313,-69,-85,82,-40,-98
2,2372233,-1426,495,-149,2317,-67,-91,82,-40,-98
2,2372247,-1426,495,-149,2317,-67,-91,82,-40,-98
2,2372261,-1422,500,-153,2315,-65,-92,82,-40,-98
2,2372271,-1422,500,-153,2315,-65,-92,82,-40,-98
2,2372285,-1420,498,-151,2315,-78,-90,82,-40,-98
2,2372300,-1422,495,-148,2318,-79,-85,79,-37,-93
2,2372314,-1423,500,-153,2316,-76,-86,79,-37,-93
2,2372327,-1423,500,-153,2316,-76,-86,79,-37,-93
2,2372343,-1421,495,-156,2318,-67,-93,79,-37,-93
2,2372358,-1423,491,-152,2324,-74,-85,79,-37,-93
2,2372373,-1425,492,-151,2322,-76,-93,79,-37,-93
2,2372386,-1425,492,-151,2322,-76,-93,79,-37,-93
2,2372401,-1424,487,-156,2327,-72,-83,79,-37,-93
2,2372414,-1424,493,-152,2322,-69,-87,79,-37,-93
2,2372426,-1424,493,-152,2322,-69,-87,79,-37,-93
2,2372439,-1417,487,-152,2322,-74,-92,88,-34,-90
2,2372453,-1424,490,-152,2326,-71,-90,88,-34,-90
2,2372466,-1424,490,-152,2326,-71,-90,88,-34,-90
2,2372481,-1420,489,-151,2322,-64,-95,88,-34,-90
2,2372495,-1424,490,-156,2317,-84,-101,88,-34,-90
2,2372507,-1424,490,-156,2317,-84,-101,88,-34,-90
2,2372519,-1422,488,-157,2312,-80,-97,88,-34,-90
2,2372534,-1423,483,-161,2317,-74,-87,88,-34,-90
2,2372548,-1423,483,-161,2317,-74,-87,88,-34,-90
2,2372562,-1422,479,-156,2314,-76,-89,80,-42,-92
2,2372577,-1421,479,-156,2322,-70,-88,80,-42,-92
2,2372591,-1421,479,-156,2322,-70,-88,80,-42,-92
2,2372606,-1422,482,-146,2325,-67,-85,80,-42,-92
2,2372621,-1420,482,-158,2315,-75,-90,80,-42,-92
2,2372634,-1420,475,-154,2311,-76,-86,80,-42,-92
2,2372645,-1420,475,-154,2311,-76,-86,80,-42,-92
2,2372659,-1419,478,-154,2312,-72,-85,80,-42,-92
2,2372672,-1420,483,-147,2311,-74,-90,81,-43,-95
2,2372687,-1420,483,-147,2311,-74,-90,81,-43,-95
2,2372701,-1423,481,-158,2310,-75,-83,81,-43,-95
2,2372716,-1421,480,-157,2312,-74,-86,81,-43,-95
2,2372729,-1421,480,-157,2312,-74,-86,81,-43,-95
2,2372741,-1421,477,-158,2317,-82,-90,81,-43,-95
2,2372755,-1422,483,-157,2313,-68,-88,81,-43,-95
2,2372768,-1422,483,-157,2313,-68,-88,81,-43,-95
2,2372782,-1421,486,-158,2310,-62,-90,81,-43,-95
2,2372796,-1423,514,-156,2311,-73,-91,75,-35,-93
2,2372811,-1423,514,-156,2311,-73,-91,75,-35,-93
2,2372827,-1420,482,-154,2309,-71,-89,75,-35,-93
2,2372842,-1422,495,-155,2309,-82,-92,75,-35,-93
2,2372855,-1420,494,-154,2312,-77,-91,75,-35,-93
2,2372870,-1420,494,-154,2312,-77,-91,75,-35,-93
2,2372884,-1427,506,-156,2307,-70,-86,75,-35,-93
2,2372893,-1422,495,-158,2316,-75,-85,75,-35,-93
2,2372907,-1422,495,-158,2316,-75,-85,75,-35,-93
2,2372921,-1425,502,-158,2314,-73,-93,66,-38,-98
2,2372934,-1421,504,-153,2312,-71,-88,66,-38,-98
2,2372943,-1421,504,-153,2312,-71,-88,66,-38,-98
2,2372953,-1422,509,-153,2312,-65,-82,66,-38,-98
2,2372967,-1422,509,-153,2312,-65,-82,66,-38,-98
2,2372981,-1423,510,-151,2313,-69,-82,66,-38,-98
2,2372997,-1420,510,-153,2311,-69,-91,66,-38,-98
2,2373012,-1420,510,-153,2311,-69,-91,66,-38,-98
2,2373025,-1421,519,-156,2307,-72,-93,66,-38,-98
2,2373040,-1425,524,-158,2311,-73,-90,66,-38,-98
2,2373054,-1427,526,-151,2311,-73,-91,76,-36,-92
2,2373067,-1427,526,-151,2311,-73,-91,76,-36,-92
2,2373080,-1422,519,-154,2313,-74,-86,76,-36,-92
2,2373093,-1424,524,-158,2313,-78,-89,76,-36,-92
2,2373106,-1424,524,-158,2313,-78,-89,76,-36,-92
2,2373121,-1424,518,-151,2316,-77,-83,76,-36,-92
2,2373134,-1425,521,-151,2308,-77,-79,76,-36,-92
2,2373147,-1425,521,-151,2308,-77,-79,76,-36,-92
2,2373159,-1427,512,-153,2309,-69,-88,76,-36,-92
2,2373174,-1427,508,-148,2319,-69,-84,71,-39,-97
2,2373187,-1427,508,-148,2319,-69,-84,71,-39,-97
2,2373201,-1421,515,-152,2319,-67,-100,71,-39,-97
2,2373217,-1423,521,-150,2316,-70,-91,71,-39,-97
2,2373231,-1423,521,-150,2316,-70,-91,71,-39,-97
2,2373243,-1423,513,-153,2319,-71,-89,71,-39,-97
2,2373257,-1423,510,-153,2315,-71,-89,71,-39,-97
2,2373272,-1423,510,-153,2315,-71,-89,71,-39,-97
2,2373288,-1423,508,-154,2322,-66,-92,71,-39,-97
2,2373300,-1419,514,-154,2320,-73,-89,73,-33,-91
2,2373312,-1419,514,-154,2320,-73,-89,73,-33,-91
2,2373326,-1423,502,-148,2321,-64,-85,73,-33,-91
2,2373341,-1423,500,-153,2323,-69,-87,73,-33,-91
2,2373354,-1421,501,-155,2325,-79,-81,73,-33,-91
2,2373368,-1421,501,-155,2325,-79,-81,73,-33,-91
2,2373383,-1418,508,-155,2321,-71,-83,73,-33,-91
2,2373395,-1423,503,-154,2325,-73,-83,73,-33,-91
2,2373408,-1423,503,-154,2325,-73,-83,73,-33,-91
2,2373422,-1423,499,-151,2320,-71,-88,60,-26,-102
2,2373434,-1417,474,-150,2315,-65,-89,60,-26,-102
2,2373448,-1417,474,-150,2315,-65,-89,60,-26,-102
2,2373464,-1419,503,-151,2320,-72,-88,60,-26,-102
2,2373476,-1421,490,-153,2321,-69,-86,60,-26,-102
2,2373491,-1421,490,-153,2321,-69,-86,60,-26,-102
2,2373507,-1426,504,-153,2325,-74,-87,60,-26,-102
2,2373522,-1422,477,-154,2325,-72,-87,60,-26,-102
2,2373537,-1422,494,-150,2319,-75,-90,68,-24,-108
2,2373549,-1422,494,-150,2319,-75,-90,68,-24,-108
2,2373562,-1417,487,-154,2317,-76,-85,68,-24,-108
2,2373576,-1423,496,-153,2322,-69,-86,68,-24,-108
2,2373591,-1423,496,-153,2322,-69,-86,68,-24,-108
2,2373604,-1417,479,-150,2318,-67,-88,68,-24,-108
2,2373618,-1423,478,-151,2322,-67,-91,68,-24,-108
2,2373630,-1423,478,-151,2322,-67,-91,68,-24,-108
2,2373643,-1421,482,-147,2320,-72,-88,68,-24,-108
2,2373658,-1426,485,-153,2317,-77,-87,68,-24,-108
2,2373673,-1421,484,-153,2321,-83,-86,67,-23,-105
2,2373689,-1421,484,-153,2321,-83,-86,67,-23,-105
2,2373702,-1425,477,-152,2315,-72,-82,67,-23,-105
2,2373716,-1425,477,-152,2315,-72,-82,67,-23,-105
2,2373731,-1425,477,-152,2315,-72,-82,67,-23,-105
2,2373746,-1422,483,-158,2311,-76,-87,67,-23,-105
2,2373761,-1421,487,-151,2306,-71,-94,67,-23,-105
2,2373774,-1418,481,-159,2313,-74,-90,67,-23,-105
2,2373788,-1418,481,-159,2313,-74,-90,67,-23,-105
2,2373803,-1420,491,-152,2313,-74,-79,71,-27,-107
2,2373816,-1424,492,-154,2311,-69,-86,71,-27,-107
2,2373828,-1424,492,-154,2311,-69,-86,71,-27,-107
2,2373841,-1423,491,-152,2317,-67,-85,71,-27,-107
2,2373855,-1422,482,-161,2314,-71,-91,71,-27,-107
2,2373869,-1422,482,-161,2314,-71,-91,71,-27,-107
2,2373883,-1423,487,-158,2307,-72,-92,71,-27,-107
2,2373895,-1421,490,-154,2305,-77,-83,71,-27,-107
2,2373910,-1421,490,-154,2305,-77,-83,71,-27,-107
2,2373925,-1421,488,-152,2305,-76,-78,56,-22,-106
2,2373940,-1424,484,-153,2309,-77,-87,56,-22,-106
2,2373953,-1424,484,-153,2309,-77,-87,56,-22,-106
2,2373966,-1422,489,-156,2307,-77,-87,56,-22,-106
2,2373981,-1423,511,-158,2312,-77,-92,56,-22,-106
2,2373995,-1422,496,-159,2310,-77,-92,56,-22,-106
2,2374009,-1422,496,-159,2310,-77,-92,56,-22,-106
2,2374023,-1421,499,-158,2307,-71,-94,56,-22,-106
2,2374037,-1420,490,-153,2308,-76,-85,53,-21,-101
2,2374048,-1420,490,-153,2308,-76,-85,53,-21,-101
2,2374062,-1424,509,-156,2313,-72,-89,53,-21,-101
2,2374075,-1422,500,-158,2309,-69,-85,53,-21,-101
2,2374089,-1422,500,-158,2309,-69,-85,53,-21,-101
2,2374104,-1425,514,-159,2305,-70,-83,53,-21,-101
2,2374117,-1422,506,-157,2304,-73,-83,53,-21,-101
2,2374129,-1422,506,-157,2304,-73,-83,53,-21,-101
2,2374146,-1425,521,-160,2305,-72,-84,53,-21,-101
2,2374160,-1426,535,-153,2304,-74,-88,71,-23,-103
2,2374175,-1424,527,-154,2306,-75,-88,71,-23,-103
2,2374188,-1424,527,-154,2306,-75,-88,71,-23,-103
2,2374200,-1419,522,-151,2313,-69,-89,71,-23,-103
2,2374215,-1419,528,-157,2315,-71,-92,71,-23,-103
2,2374228,-1419,528,-157,2315,-71,-92,71,-23,-103
2,2374242,-1424,527,-154,2318,-68,-85,71,-23,-103
2,2374256,-1424,523,-155,2317,-76,-94,71,-23,-103
2,2374270,-1424,523,-155,2317,-76,-94,71,-23,-103
2,2374284,-1422,511,-153,2323,-66,-84,58,-18,-110
2,2374296,-1424,514,-150,2323,-72,-80,58,-18,-110
2,2374309,-1424,514,-150,2323,-72,-80,58,-18,-110
2,2374325,-1424,513,-153,2319,-69,-80,58,-18,-110
2,2374339,-1423,516,-154,2308,-69,-81,58,-18,-110
2,2374352,-1423,516,-154,2308,-69,-81,58,-18,-110
2,2374366,-1418,506,-152,2317,-72,-92,58,-18,-110
2,2374380,-1423,510,-148,2323,-72,-82,58,-18,-110
2,2374394,-1425,515,-154,2326,-76,-81,58,-18,-110
2,2374407,-1425,515,-154,2326,-76,-81,58,-18,-110
2,2374419,-1426,516,-148,2321,-68,-79,56,-26,-120
2,2374433,-1426,516,-148,2321,-68,-79,56,-26,-120
2,2374448,-1421,508,-148,2314,-75,-78,56,-26,-120
2,2374464,-1418,501,-148,2320,-71,-83,56,-26,-120
2,2374478,-1417,503,-156,2321,-70,-83,56,-26,-120
2,2374493,-1417,503,-156,2321,-70,-83,56,-26,-120
2,2374506,-1422,511,-154,2323,-72,-97,56,-26,-120
2,2374517,-1423,504,-152,2326,-70,-84,56,-26,-120
2,2374530,-1423,504,-152,2326,-70,-84,56,-26,-120
2,2374543,-1421,501,-146,2322,-76,-80,61,-21,-115
2,2374557,-1424,498,-152,2322,-69,-86,61,-21,-115
2,2374573,-1424,498,-152,2322,-69,-86,61,-21,-115
2,2374588,-1422,507,-152,2318,-71,-88,61,-21,-115
2,2374603,-1423,505,-148,2315,-73,-85,61,-21,-115
2,2374618,-1422,501,-154,2319,-72,-85,61,-21,-115
2,2374632,-1422,501,-154,2319,-72,-85,61,-21,-115
2,2374646,-1421,499,-152,2320,-75,-87,61,-21,-115
2,2374661,-1423,506,-149,2321,-67,-89,54,-24,-116
2,2374673,-1423,506,-149,2321,-67,-89,54,-24,-116
2,2374684,-1424,503,-149,2323,-72,-93,54,-24,-116
2,2374699,-1423,501,-153,2323,-71,-95,54,-24,-116
2,2374713,-1423,501,-153,2323,-71,-95,54,-24,-116
2,2374727,-1422,501,-152,2321,-72,-92,54,-24,-116
2,2374740,-1423,502,-147,2321,-74,-91,54,-24,-116
2,2374753,-1423,502,-147,2321,-74,-91,54,-24,-116
2,2374765,-1424,503,-151,2320,-73,-90,54,-24,-116
2,2374778,-1423,502,-145,2325,-64,-89,56,-18,-124
2,2374794,-1423,502,-145,2325,-64,-89,56,-18,-124
2,2374808,-1420,502,-148,2322,-67,-95,56,-18,-124
2,2374823,-1420,506,-153,2320,-75,-79,56,-18,-124
2,2374839,-1424,504,-149,2313,-70,-84,56,-18,-124
2,2374855,-1423,501,-155,2318,-75,-88,56,-18,-124
2,2374871,-1423,501,-155,2318,-75,-88,56,-18,-124
2,2374886,-1425,498,-152,2324,-79,-91,56,-18,-124
2,2374900,-1419,500,-152,2325,-70,-83,53,-21,-123
2,2374914,-1419,500,-152,2325,-70,-83,53,-21,-123
2,2374929,-1424,506,-149,2322,-68,-80,53,-21,-123
2,2374939,-1422,500,-156,2325,-76,-88,53,-21,-123
2,2374953,-1422,500,-156,2325,-76,-88,53,-21,-123
2,2374968,-1422,496,-155,2321,-74,-86,53,-21,-123
2,2374982,-1421,496,-154,2316,-83,-90,53,-21,-123
2,2374996,-1423,504,-150,2321,-82,-83,53,-21,-123
2,2375011,-1423,504,-150,2321,-82,-83,53,-21,-123
2,2375026,-1420,503,-150,2319,-64,-88,53,-21,-123
2,2375041,-1424,495,-145,2321,-72,-87,58,-20,-126
2,2375056,-1424,495,-145,2321,-72,-87,58,-20,-126
2,2375070,-1424,495,-145,2321,-72,-87,58,-20,-126
2,2375085,-1420,500,-147,2331,-72,-85,58,-20,-126
2,2375099,-1422,500,-152,2323,-73,-89,58,-20,-126
2,2375114,-1422,503,-153,2321,-66,-83,58,-20,-126
2,2375129,-1422,503,-153,2321,-66,-83,58,-20,-126
2,2375142,-1426,496,-154,2315,-65,-82,58,-20,-126
2,2375154,-1426,496,-154,2315,-65,-82,58,-20,-126
2,2375169,-1424,499,-154,2319,-74,-87,52,-22,-122
2,2375182,-1420,502,-154,2317,-77,-85,52,-22,-122
2,2375196,-1419,501,-153,2317,-75,-84,52,-22,-122
2,2375209,-1419,501,-153,2317,-75,-84,52,-22,-122
2,2375222,-1425,495,-153,2320,-75,-89,52,-22,-122
2,2375234,-1422,498,-150,2317,-77,-92,52,-22,-122
2,2375248,-1422,498,-150,2317,-77,-92,52,-22,-122
2,2375263,-1421,501,-150,2322,-73,-87,52,-22,-122
2,2375277,-1422,498,-149,2322,-67,-85,54,-20,-126
2,2375291,-1422,498,-149,2322,-67,-85,54,-20,-126
2,2375305,-1421,499,-147,2317,-73,-89,54,-20,-126
2,2375318,-1425,495,-152,2314,-81,-92,54,-20,-126
2,2375333,-1425,495,-152,2314,-81,-92,54,-20,-126
2,2375349,-1421,496,-153,2317,-83,-91,54,-20,-126
2,2375361,-1422,498,-160,2324,-77,-96,54,-20,-126
2,2375373,-1422,498,-160,2324,-77,-96,54,-20,-126
2,2375387,-1424,496,-153,2317,-71,-86,54,-20,-126
2,2375400,-1419,501,-150,2320,-72,-88,52,-24,-132
2,2375414,-1419,501,-150,2320,-72,-88,52,-24,-132
2,2375428,-1420,502,-152,2320,-70,-88,52,-24,-132
2,2375441,-1421,497,-154,2312,-71,-84,52,-24,-132
2,2375454,-1421,497,-154,2312,-71,-84,52,-24,-132
2,2375468,-1421,497,-150,2318,-74,-83,52,-24,-132
2,2375482,-1423,496,-158,2316,-71,-85,52,-24,-132
2,2375496,-1421,499,-152,2310,-75,-87,52,-24,-132
2,2375512,-1421,499,-152,2310,-75,-87,52,-24,-132
2,2375526,-1421,497,-151,2323,-74,-85,42,-22,-134
2,2375540,-1420,497,-155,2319,-70,-84,42,-22,-134
2,2375553,-1420,497,-155,2319,-70,-84,42,-22,-134
2,2375568,-1422,496,-155,2321,-66,-90,42,-22,-134
2,2375583,-1420,497,-154,2324,-74,-89,42,-22,-134
2,2375598,-1424,499,-156,2318,-71,-86,42,-22,-134
2,2375610,-1424,499,-156,2318,-71,-86,42,-22,-134
2,2375623,-1419,495,-153,2322,-75,-82,42,-22,-134
2,2375638,-1424,495,-154,2321,-74,-77,42,-22,-134
2,2375651,-1424,495,-154,2321,-74,-77,42,-22,-134
2,2375665,-1421,499,-153,2316,-76,-82,44,-18,-132
2,2375678,-1421,503,-155,2314,-79,-85,44,-18,-132
2,2375694,-1421,503,-155,2314,-79,-85,44,-18,-132
2,2375707,-1425,510,-155,2314,-76,-84,44,-18,-132
2,2375720,-1425,505,-155,2315,-69,-82,44,-18,-132
2,2375733,-1425,505,-155,2315,-69,-82,44,-18,-132
2,2375747,-1424,505,-158,2319,-70,-87,44,-18,-132
2,2375761,-1423,507,-157,2323,-69,-87,44,-18,-132
2,2375777,-1424,508,-156,2320,-76,-86,47,-21,-141
2,2375791,-1424,508,-156,2320,-76,-86,47,-21,-141
2,2375804,-1420,508,-153,2319,-72,-80,47,-21,-141
2,2375819,-1422,509,-150,2312,-71,-80,47,-21,-141
2,2375834,-1422,509,-150,2312,-71,-80,47,-21,-141
2,2375847,-1423,509,-158,2317,-66,-85,47,-21,-141
2,2375859,-1424,509,-155,2313,-70,-95,47,-21,-141
2,2375873,-1424,509,-155,2313,-70,-95,47,-21,-141
2,2375886,-1422,509,-156,2311,-73,-85,47,-21,-141
2,2375900,-1421,515,-155,2318,-70,-88,58,-16,-140
2,2375913,-1421,515,-155,2318,-70,-88,58,-16,-140
2,2375923,-1425,511,-148,2320,-61,-83,58,-16,-140
2,2375938,-1425,511,-153,2320,-67,-91,58,-16,-140
2,2375951,-1425,511,-153,2320,-67,-91,58,-16,-140
2,2375963,-1419,512,-152,2321,-74,-90,58,-16,-140
2,2375977,-1426,516,-154,2324,-74,-86,58,-16,-140
2,2375989,-1426,516,-154,2324,-74,-86,58,-16,-140
2,2376004,-1424,517,-153,2323,-74,-88,58,-16,-140
2,2376018,-1423,517,-154,2327,-79,-89,45,-23,-143
2,2376032,-1423,517,-154,2327,-79,-89,45,-23,-143
2,2376045,-1423,510,-153,2331,-71,-91,45,-23,-143
2,2376060,-1425,509,-156,2331,-68,-87,45,-23,-143
2,2376076,-1425,509,-155,2330,-68,-88,45,-23,-143
2,2376091,-1425,509,-155,2330,-68,-88,45,-23,-143
2,2376104,-1425,507,-151,2320,-75,-91,45,-23,-143
2,2376118,-1426,504,-154,2322,-69,-85,45,-23,-143
2,2376132,-1426,504,-154,2322,-69,-85,45,-23,-143
2,2376147,-1424,507,-149,2325,-74,-81,51,-17,-141
2,2376162,-1421,506,-147,2322,-72,-83,51,-17,-141
2,2376174,-1421,506,-147,2322,-72,-83,51,-17,-141
2,2376188,-1423,509,-153,2320,-72,-85,51,-17,-141
2,2376202,-1420,498,-153,2321,-74,-88,51,-17,-141
2,2376216,-1421,489,-150,2323,-61,-85,51,-17,-141
2,2376226,-1421,489,-150,2323,-61,-85,51,-17,-141
2,2376240,-1420,486,-155,2316,-77,-88,51,-17,-141
2,2376255,-1420,486,-155,2316,-77,-88,51,-17,-141
2,2376269,-1425,494,-153,2314,-73,-87,51,-17,-141
2,2376284,-1425,501,-152,2317,-70,-82,51,-25,-145
2,2376296,-1423,484,-152,2323,-65,-83,51,-25,-145
2,2376311,-1423,484,-152,2323,-65,-83,51,-25,-145
2,2376327,-1420,495,-146,2324,-67,-78,51,-25,-145
2,2376341,-1420,482,-149,2322,-69,-86,51,-25,-145
2,2376355,-1420,482,-149,2322,-69,-86,51,-25,-145
2,2376369,-1422,493,-154,2321,-71,-89,51,-25,-145
2,2376383,-1415,483,-156,2323,-66,-86,51,-25,-145
2,2376395,-1415,483,-156,2323,-66,-86,51,-25,-145
2,2376409,-1418,490,-151,2323,-68,-90,57,-23,-153
2,2376423,-1418,477,-158,2322,-67,-86,57,-23,-153
2,2376438,-1423,483,-157,2320,-70,-87,57,-23,-153
2,2376452,-1423,483,-157,2320,-70,-87,57,-23,-153
2,2376467,-1420,483,-156,2316,-75,-87,57,-23,-153
2,2376482,-1423,478,-162,2317,-74,-91,57,-23,-153
2,2376498,-1418,476,-153,2314,-70,-92,57,-23,-153
2,2376512,-1418,476,-153,2314,-70,-92,57,-23,-153
2,2376527,-1419,483,-150,2318,-69,-84,54,-28,-160
2,2376542,-1417,487,-151,2319,-74,-83,54,-28,-160
2,2376556,-1420,484,-153,2313,-70,-90,54,-28,-160
2,2376570,-1420,484,-153,2313,-70,-90,54,-28,-160
2,2376584,-1421,482,-159,2307,-76,-95,54,-28,-160
2,2376597,-1420,490,-154,2309,-82,-101,54,-28,-160
2,2376609,-1420,490,-154,2309,-82,-101,54,-28,-160
2,2376625,-1421,488,-156,2309,-70,-94,54,-28,-160
2,2376639,-1423,517,-154,2312,-69,-88,50,-22,-162
2,2376651,-1423,517,-154,2312,-69,-88,50,-22,-162
2,2376666,-1420,481,-157,2317,-70,-86,50,-22,-162
2,2376680,-1422,501,-159,2317,-73,-85,50,-22,-162
2,2376694,-1422,501,-159,2317,-73,-85,50,-22,-162
2,2376709,-1420,495,-159,2306,-74,-87,50,-22,-162
2,2376724,-1429,507,-154,2307,-71,-82,50,-22,-162
2,2376739,-1420,495,-158,2309,-68,-87,50,-22,-162
2,2376755,-1420,495,-158,2309,-68,-87,50,-22,-162
2,2376766,-1422,502,-156,2312,-78,-79,55,-19,-171
2,2376778,-1419,496,-157,2306,-76,-83,55,-19,-171
2,2376793,-1419,496,-157,2306,-76,-83,55,-19,-171
2,2376807,-1422,507,-161,2310,-76,-81,55,-19,-171
2,2376821,-1422,514,-156,2309,-72,-85,55,-19,-171
2,2376836,-1422,514,-156,2309,-72,-85,55,-19,-171
2,2376848,-1423,509,-158,2316,-71,-88,55,-19,-171
2,2376860,-1422,509,-158,2312,-68,-90,55,-19,-171
2,2376875,-1422,509,-158,2312,-68,-90,55,-19,-171
2,2376885,-1423,515,-158,2313,-66,-82,55,-19,-171
2,2376896,-1423,515,-158,2313,-66,-82,55,-19,-171
2,2376908,-1427,538,-150,2312,-70,-86,58,-26,-172
2,2376924,-1424,528,-156,2312,-63,-93,58,-26,-172
2,2376940,-1421,523,-156,2308,-69,-94,58,-26,-172
2,2376952,-1421,523,-156,2308,-69,-94,58,-26,-172
2,2376965,-1418,521,-152,2314,-78,-88,58,-26,-172
2,2376980,-1428,533,-159,2319,-75,-87,58,-26,-172
2,2376994,-1428,533,-159,2319,-75,-87,58,-26,-172
2,2377008,-1426,527,-157,2320,-75,-78,58,-26,-172
2,2377023,-1425,516,-156,2319,-76,-89,58,-30,-172
2,2377037,-1422,516,-151,2314,-76,-90,58,-30,-172
2,2377050,-1422,516,-151,2314,-76,-90,58,-30,-172
2,2377062,-1424,521,-151,2318,-77,-85,58,-30,-172
2,2377077,-1426,511,-152,2313,-76,-84,58,-30,-172
2,2377091,-1426,511,-152,2313,-76,-84,58,-30,-172
2,2377105,-1421,509,-155,2317,-79,-89,58,-30,-172
2,2377120,-1421,506,-157,2325,-72,-88,58,-30,-172
2,2377136,-1421,506,-157,2325,-72,-88,58,-30,-172
2,2377151,-1423,514,-150,2323,-72,-80,50,-30,-176
2,2377166,-1423,511,-160,2314,-69,-87,50,-30,-176
2,2377182,-1424,514,-154,2316,-77,-82,50,-30,-176
2,2377196,-1424,514,-154,2316,-77,-82,50,-30,-176
2,2377210,-1422,505,-158,2328,-77,-89,50,-30,-176
2,2377225,-1421,503,-154,2325,-66,-85,50,-30,-176
2,2377239,-1423,501,-157,2326,-70,-89,50,-30,-176
2,2377251,-1423,501,-157,2326,-70,-89,50,-30,-176
2,2377266,-1423,501,-152,2318,-68,-93,61,-19,-183
2,2377280,-1422,492,-150,2322,-76,-87,61,-19,-183
2,2377293,-1422,492,-150,2322,-76,-87,61,-19,-183
2,2377308,-1423,476,-152,2321,-76,-81,61,-19,-183
2,2377322,-1422,507,-159,2329,-72,-81,61,-19,-183
2,2377337,-1422,499,-150,2325,-73,-81,61,-19,-183
2,2377350,-1422,499,-150,2325,-73,-81,61,-19,-183
2,2377363,-1429,486,-154,2318,-71,-86,61,-19,-183
2,2377378,-1421,486,-155,2313,-74,-83,60,-26,-184
2,2377392,-1421,486,-155,2313,-74,-83,60,-26,-184
2,2377407,-1424,495,-152,2308,-82,-82,60,-26,-184
2,2377421,-1425,497,-152,2319,-81,-82,60,-26,-184
2,2377436,-1425,497,-152,2319,-81,-82,60,-26,-184
2,2377450,-1427,490,-153,2317,-74,-82,60,-26,-184
2,2377465,-1422,486,-155,2319,-67,-87,60,-26,-184
2,2377481,-1423,484,-154,2315,-69,-74,60,-26,-184
2,2377495,-1423,484,-154,2315,-69,-74,60,-26,-184
2,2377508,-1426,493,-154,2317,-79,-90,52,-36,-178
2,2377523,-1423,488,-151,2314,-78,-90,52,-36,-178
2,2377535,-1423,488,-151,2314,-78,-90,52,-36,-178
2,2377547,-1421,493,-152,2317,-71,-90,52,-36,-178
2,2377562,-1421,480,-152,2312,-72,-92,52,-36,-178
2,2377572,-1421,480,-152,2312,-72,-92,52,-36,-178
2,2377586,-1424,493,-149,2318,-77,-88,52,-36,-178
2,2377598,-1423,496,-159,2316,-69,-88,52,-36,-178
2,2377614,-1423,496,-159,2316,-69,-88,52,-36,-178
2,2377630,-1423,490,-161,2309,-78,-80,52,-36,-178
2,2377645,-1420,477,-152,2316,-72,-80,67,-23,-189
2,2377661,-1422,485,-150,2320,-71,-92,67,-23,-189
2,2377676,-1422,485,-150,2320,-71,-92,67,-23,-189
2,2377689,-1421,490,-156,2316,-73,-84,67,-23,-189
2,2377700,-1422,488,-155,2318,-70,-89,67,-23,-189
2,2377715,-1422,488,-155,2318,-70,-89,67,-23,-189
2,2377729,-1423,487,-157,2313,-73,-90,67,-23,-189
2,2377743,-1423,489,-161,2313,-68,-90,67,-23,-189
2,2377757,-1418,489,-155,2309,-78,-80,67,-23,-189
2,2377768,-1418,489,-155,2309,-78,-80,53,-35,-191
2,2377782,-1423,489,-158,2308,-70,-85,53,-35,-191
2,2377796,-1423,489,-158,2308,-70,-85,53,-35,-191
2,2377806,-1420,506,-161,2309,-65,-95,53,-35,-191
2,2377819,-1423,488,-162,2307,-73,-87,53,-35,-191
2,2377832,-1423,488,-162,2307,-73,-87,53,-35,-191
2,2377846,-1425,500,-159,2312,-74,-90,53,-35,-191
2,2377862,-1423,488,-154,2308,-77,-85,53,-35,-191
2,2377875,-1423,488,-154,2308,-77,-85,53,-35,-191
2,2377888,-1429,508,-152,2310,-81,-81,55,-31,-195
2,2377904,-1423,502,-158,2310,-82,-85,55,-31,-195
2,2377919,-1422,507,-156,2308,-73,-86,55,-31,-195
2,2377932,-1422,507,-156,2308,-73,-86,55,-31,-195
2,2377948,-1419,506,-155,2306,-72,-87,55,-31,-195
2,2377961,-1425,511,-157,2306,-67,-86,55,-31,-195
2,2377975,-1425,511,-157,2306,-67,-86,55,-31,-195
2,2377988,-1424,506,-159,2309,-69,-84,55,-31,-195
2,2378003,-1429,518,-154,2312,-75,-83,56,-36,-194
2,2378017,-1422,527,-155,2317,-73,-81,56,-36,-194
2,2378032,-1422,527,-155,2317,-73,-81,56,-36,-194
2,2378046,-1429,517,-153,2317,-74,-85,56,-36,-194
2,2378060,-1427,514,-159,2314,-75,-88,56,-36,-194
2,2378076,-1427,514,-159,2314,-75,-88,56,-36,-194
2,2378091,-1424,513,-160,2310,-73,-82,56,-36,-194
2,2378106,-1424,520,-156,2313,-75,-80,56,-36,-194
2,2378122,-1423,511,-159,2310,-76,-82,55,-27,-191
2,2378137,-1424,511,-156,2310,-65,-83,55,-27,-191
2,2378151,-1424,511,-156,2310,-65,-83,55,-27,-191
2,2378166,-1422,512,-159,2309,-72,-95,55,-27,-191
2,2378180,-1427,508,-159,2310,-73,-80,55,-27,-191
2,2378194,-1427,508,-159,2310,-73,-80,55,-27,-191
2,2378210,-1429,510,-156,2315,-74,-80,55,-27,-191
2,2378222,-1426,509,-156,2316,-72,-85,55,-27,-191
2,2378233,-1426,509,-156,2316,-72,-85,55,-27,-191
2,2378248,-1421,506,-150,2315,-68,-85,55,-27,-191
2,2378262,-1424,500,-152,2321,-75,-84,54,-24,-206
2,2378276,-1424,500,-152,2321,-75,-84,54,-24,-206
2,2378292,-1424,506,-157,2313,-69,-82,54,-24,-206
2,2378307,-1426,509,-155,2317,-70,-85,54,-24,-206
2,2378322,-1428,504,-154,2321,-76,-84,54,-24,-206
2,2378338,-1424,498,-152,2328,-75,-83,54,-24,-206
2,2378352,-1424,498,-152,2328,-75,-83,54,-24,-206
2,2378368,-1423,505,-159,2313,-74,-92,54,-24,-206
2,2378381,-1428,500,-154,2315,-70,-93,49,-27,-207
2,2378396,-1428,500,-154,2315,-70,-93,49,-27,-207
2,2378411,-1424,500,-154,2320,-73,-93,49,-27,-207
2,2378424,-1425,500,-155,2319,-74,-87,49,-27,-207
2,2378436,-1425,500,-155,2319,-74,-87,49,-27,-207
2,2378450,-1424,500,-156,2315,-75,-95,49,-27,-207
2,2378465,-1426,501,-157,2316,-75,-89,49,-27,-207
2,2378479,-1426,503,-153,2315,-67,-87,49,-27,-207
2,2378493,-1426,503,-153,2315,-67,-87,49,-27,-207
2,2378506,-1428,511,-154,2321,-77,-84,53,-25,-209
2,2378519,-1423,511,-157,2319,-71,-84,53,-25,-209
2,2378534,-1423,511,-157,2319,-71,-84,53,-25,-209
2,2378549,-1425,505,-156,2323,-73,-85,53,-25,-209
2,2378562,-1424,502,-155,2327,-76,-93,53,-25,-209
2,2378576,-1424,502,-155,2327,-76,-93,53,-25,-209
2,2378592,-1426,499,-153,2320,-78,-83,53,-25,-209
2,2378606,-1423,498,-159,2322,-68,-92,53,-25,-209
2,2378620,-1422,502,-153,2323,-69,-85,62,-28,-206
2,2378634,-1422,502,-153,2323,-69,-85,62,-28,-206
2,2378646,-1422,499,-158,2317,-76,-92,62,-28,-206
2,2378658,-1421,497,-155,2322,-78,-87,62,-28,-206
2,2378674,-1421,497,-155,2322,-78,-87,62,-28,-206
2,2378688,-1424,498,-155,2319,-75,-79,62,-28,-206
2,2378702,-1425,500,-155,2320,-83,-84,62,-28,-206
2,2378717,-1425,500,-155,2320,-83,-84,62,-28,-206
2,2378731,-1426,499,-160,2328,-83,-92,62,-28,-206
2,2378745,-1424,498,-156,2329,-78,-87,62,-20,-212
2,2378760,-1423,494,-149,2325,-72,-90,62,-20,-212
2,2378771,-1423,494,-149,2325,-72,-90,62,-20,-212
2,2378786,-1426,496,-155,2321,-70,-85,62,-20,-212
2,2378802,-1425,494,-158,2330,-71,-90,62,-20,-212
2,2378817,-1425,494,-158,2330,-71,-90,62,-20,-212
2,2378830,-1423,491,-158,2327,-65,-89,62,-20,-212
2,2378843,-1423,493,-153,2329,-72,-93,62,-20,-212
2,2378857,-1423,493,-153,2329,-72,-93,62,-20,-212
2,2378871,-1423,494,-156,2325,-76,-91,62,-20,-212
2,2378887,-1425,500,-149,2316,-78,-84,57,-19,-225
2,2378901,-1425,498,-157,2317,-69,-80,57,-19,-225
2,2378915,-1425,498,-157,2317,-69,-80,57,-19,-225
2,2378931,-1427,496,-149,2317,-71,-87,57,-19,-225
2,2378944,-1425,492,-160,2314,-67,-92,57,-19,-225
2,2378953,-1425,492,-160,2314,-67,-92,57,-19,-225
2,2378967,-1426,491,-156,2327,-79,-95,57,-19,-225
2,2378981,-1424,487,-157,2321,-81,-86,57,-19,-225
2,2378996,-1424,487,-157,2321,-81,-86,57,-19,-225
2,2379011,-1426,495,-149,2315,-80,-87,61,-25,-221
2,2379027,-1426,497,-153,2320,-73,-87,61,-25,-221
2,2379042,-1425,494,-153,2318,-72,-85,61,-25,-221
2,2379057,-1425,494,-153,2318,-72,-85,61,-25,-221
2,2379071,-1425,494,-151,2320,-74,-89,61,-25,-221
2,2379085,-1424,497,-154,2321,-80,-87,61,-25,-221
2,2379100,-1426,496,-158,2317,-69,-89,61,-25,-221
2,2379111,-1426,496,-158,2317,-69,-89,61,-25,-221
2,2379123,-1421,494,-153,2321,-71,-85,66,-20,-220
2,2379138,-1421,494,-153,2321,-71,-85,66,-20,-220
2,2379153,-1426,489,-148,2321,-76,-82,66,-20,-220
2,2379167,-1424,488,-154,2317,-75,-80,66,-20,-220
2,2379182,-1425,489,-156,2315,-83,-77,66,-20,-220
2,2379196,-1425,489,-156,2315,-83,-77,66,-20,-220
2,2379210,-1425,492,-162,2322,-68,-83,66,-20,-220
2,2379223,-1425,495,-153,2321,-72,-89,66,-20,-220
2,2379238,-1425,487,-155,2321,-77,-83,66,-20,-220
2,2379253,-1425,487,-155,2321,-77,-83,69,-19,-227
2,2379266,-1420,494,-155,2318,-78,-79,69,-19,-227
2,2379280,-1422,487,-156,2315,-72,-87,69,-19,-227
2,2379295,-1422,487,-156,2315,-72,-87,69,-19,-227
2,2379312,-1424,495,-158,2317,-73,-89,69,-19,-227
2,2379328,-1423,487,-155,2316,-74,-88,69,-19,-227
2,2379342,-1427,493,-159,2315,-72,-91,69,-19,-227
2,2379357,-1427,493,-159,2315,-72,-91,69,-19,-227
2,2379371,-1424,485,-157,2316,-75,-95,69,-17,-233
2,2379385,-1424,490,-155,2311,-76,-87,69,-17,-233
2,2379400,-1422,489,-155,2309,-79,-91,69,-17,-233
2,2379413,-1422,489,-155,2309,-79,-91,69,-17,-233
2,2379424,-1423,489,-161,2313,-81,-89,69,-17,-233
2,2379440,-1421,488,-156,2310,-77,-80,69,-17,-233
2,2379454,-1421,488,-156,2310,-77,-80,69,-17,-233
2,2379470,-1422,490,-162,2312,-73,-88,69,-17,-233
2,2379484,-1426,491,-162,2319,-73,-88,69,-17,-233
2,2379497,-1426,491,-162,2319,-73,-88,69,-17,-233
2,2379512,-1424,493,-156,2319,-80,-87,81,-19,-235
2,2379527,-1424,496,-157,2314,-83,-84,81,-19,-235
2,2379541,-1424,489,-156,2312,-78,-89,81,-19,-235
2,2379555,-1424,489,-156,2312,-78,-89,81,-19,-235
2,2379570,-1422,487,-157,2312,-78,-91,81,-19,-235
2,2379585,-1427,487,-164,2309,-79,-85,81,-19,-235
2,2379598,-1427,487,-164,2309,-79,-85,81,-19,-235
2,2379609,-1426,490,-160,2311,-79,-92,81,-19,-235
2,2379623,-1425,490,-155,2314,-72,-88,77,-15,-237
2,2379636,-1425,490,-155,2314,-72,-88,77,-15,-237
2,2379651,-1423,491,-157,2316,-81,-87,77,-15,-237
2,2379666,-1425,490,-159,2305,-72,-84,77,-15,-237
2,2379680,-1424,503,-159,2308,-82,-81,77,-15,-237
2,2379694,-1424,503,-159,2308,-82,-81,77,-15,-237
2,2379708,-1430,490,-160,2312,-80,-82,77,-15,-237
2,2379723,-1424,495,-156,2314,-83,-85,77,-15,-237
2,2379739,-1424,495,-156,2314,-83,-85,77,-15,-237
2,2379753,-1423,490,-153,2311,-80,-80,91,-23,-237
2,2379764,-1426,500,-159,2311,-72,-80,91,-23,-237
2,2379778,-1426,500,-159,2311,-72,-80,91,-23,-237
2,2379792,-1426,495,-161,2312,-71,-85,91,-23,-237
2,2379806,-1426,503,-158,2313,-75,-89,91,-23,-237
2,2379821,-1425,508,-159,2316,-76,-90,91,-23,-237
2,2379835,-1425,508,-159,2316,-76,-90,91,-23,-237
2,2379845,-1429,512,-159,2309,-78,-81,91,-23,-237
2,2379858,-1424,509,-161,2306,-79,-88,98,-23,-237
2,2379874,-1424,509,-161,2306,-79,-88,98,-18,-242
2,2379890,-1427,517,-160,2313,-73,-89,98,-18,-242
2,2379906,-1424,523,-158,2315,-79,-87,98,-18,-242
2,2379918,-1424,523,-158,2315,-79,-87,98,-18,-242
2,2379932,-1425,513,-152,2320,-78,-87,98,-18,-242
2,2379948,-1425,513,-154,2319,-77,-101,98,-18,-242
2,2379963,-1421,512,-156,2322,-73,-88,98,-18,-242
2,2379977,-1421,512,-156,2322,-73,-88,98,-18,-242
2,2379992,-1426,512,-160,2318,-71,-88,98,-18,-242
2,2380007,-1426,509,-157,2322,-70,-93,98,-18,-242
2,2380020,-1424,508,-156,2317,-75,-97,98,-18,-242
2,2380034,-1424,508,-156,2317,-75,-97,98,-18,-242
2,2380047,-1422,511,-153,2317,-84,-91,98,-18,-242
2,2380060,-1426,501,-158,2319,-83,-86,98,-18,-242
2,2380075,-1426,501,-158,2319,-83,-86,98,-18,-242
2,2380089,-1424,510,-154,2318,-77,-84,98,-18,-242
2,2380103,-1426,506,-156,2315,-72,-89,104,-22,-242
2,2380119,-1426,506,-156,2315,-72,-89,104,-22,-242
2,2380134,-1426,501,-153,2319,-70,-90,104,-22,-242
2,2380149,-1424,498,-148,2317,-71,-79,104,-22,-242
2,2380165,-1425,500,-150,2321,-76,-82,104,-22,-242
2,2380180,-1423,495,-156,2320,-72,-85,104,-22,-242
2,2380194,-1423,495,-156,2320,-72,-85,104,-22,-242
2,2380209,-1427,497,-158,2326,-69,-90,104,-22,-242
2,2380223,-1424,499,-157,2325,-78,-88,104,-22,-242
2,2380237,-1424,499,-157,2325,-78,-88,104,-22,-242
2,2380254,-1425,499,-149,2318,-72,-86,107,-15,-241
2,2380266,-1423,496,-153,2321,-69,-89,107,-15,-241
2,2380278,-1423,496,-153,2321,-69,-89,107,-15,-241
2,2380293,-1424,493,-151,2322,-69,-89,107,-15,-241
2,2380309,-1424,498,-158,2324,-73,-89,107,-15,-241
2,2380324,-1427,500,-157,2327,-73,-85,107,-15,-241
2,2380338,-1427,500,-157,2327,-73,-85,107,-15,-241
2,2380352,-1424,495,-156,2328,-71,-84,107,-15,-241
2,2380366,-1422,499,-150,2323,-74,-87,106,-12,-238
2,2380382,-1425,501,-150,2319,-78,-91,106,-12,-238
2,2380396,-1425,501,-150,2319,-78,-91,106,-12,-238
2,2380410,-1424,501,-153,2319,-77,-89,106,-12,-238
2,2380424,-1424,504,-152,2320,-80,-95,106,-12,-238
2,2380439,-1424,504,-152,2320,-80,-95,106,-12,-238
2,2380451,-1424,504,-155,2325,-79,-94,106,-12,-238
2,2380463,-1422,495,-158,2320,-77,-86,106,-12,-238
2,2380477,-1422,495,-158,2320,-77,-86,106,-12,-238
2,2380491,-1423,496,-148,2319,-78,-94,116,-16,-242
2,2380506,-1422,498,-152,2319,-78,-84,116,-16,-242
2,2380520,-1425,497,-153,2315,-81,-84,116,-16,-242
2,2380535,-1425,497,-153,2315,-81,-84,116,-16,-242
2,2380548,-1423,494,-158,2318,-75,-82,116,-16,-242
2,2380563,-1425,494,-161,2314,-70,-89,116,-16,-242
2,2380577,-1425,494,-161,2314,-70,-89,116,-16,-242
2,2380594,-1426,490,-155,2318,-78,-81,116,-16,-242
2,2380609,-1426,495,-151,2317,-77,-79,125,-21,-241
2,2380621,-1424,495,-153,2320,-80,-81,125,-21,-241
2,2380634,-1424,495,-153,2320,-80,-81,125,-21,-241
2,2380648,-1422,496,-153,2320,-78,-84,125,-21,-241
2,2380661,-1423,497,-159,2318,-74,-86,125,-21,-241
2,2380676,-1423,497,-159,2318,-74,-86,125,-21,-241
2,2380689,-1425,494,-153,2324,-68,-84,125,-21,-241
2,2380704,-1424,493,-154,2322,-71,-93,125,-21,-241
2,2380716,-1424,493,-154,2322,-71,-93,125,-21,-241
2,2380730,-1425,495,-160,2317,-74,-86,116,-20,-240
2,2380745,-1422,494,-152,2312,-79,-85,116,-20,-240
2,2380759,-1422,494,-152,2312,-79,-85,116,-20,-240
2,2380773,-1425,496,-154,2312,-76,-87,116,-20,-240
2,2380789,-1426,494,-157,2314,-73,-86,116,-20,-240
2,2380805,-1423,495,-155,2319,-76,-87,116,-20,-240
2,2380820,-1423,498,-158,2322,-72,-85,116,-20,-240
2,2380833,-1423,498,-158,2322,-72,-85,116,-20,-240
2,2380844,-1426,493,-154,2329,-74,-86,116,-20,-240
2,2380855,-1426,493,-154,2329,-74,-86,116,-20,-240
2,2380868,-1425,496,-149,2322,-75,-92,124,-16,-242
2,2380882,-1423,492,-151,2319,-67,-82,124,-16,-242
2,2380895,-1423,492,-151,2319,-67,-82,124,-16,-242
2,2380909,-1423,493,-158,2317,-72,-80,124,-16,-242
2,2380924,-1420,495,-154,2326,-69,-86,124,-16,-242
2,2380939,-1420,495,-154,2326,-69,-86,124,-16,-242
2,2380951,-1420,497,-158,2320,-70,-97,124,-16,-242
2,2380964,-1423,493,-156,2322,-71,-95,124,-16,-242
2,2380979,-1423,493,-156,2322,-71,-95,124,-16,-242
2,2380992,-1420,492,-146,2310,-75,-84,116,-16,-242
2,2381007,-1423,493,-149,2310,-66,-84,116,-16,-242
2,2381023,-1419,491,-155,2325,-68,-83,116,-16,-242
2,2381038,-1419,491,-155,2325,-68,-83,116,-16,-242
2,2381052,-1426,496,-152,2326,-71,-89,116,-16,-242
2,2381066,-1422,493,-153,2324,-72,-91,116,-16,-242
2,2381081,-1423,493,-159,2322,-62,-90,116,-16,-242
2,2381095,-1423,493,-159,2322,-62,-90,116,-16,-242
2,2381109,-1419,496,-150,2318,-67,-89,123,-21,-243
2,2381121,-1423,497,-149,2317,-64,-90,123,-21,-243
2,2381136,-1423,497,-149,2317,-64,-90,123,-21,-243
2,2381151,-1423,495,-154,2316,-73,-88,123,-21,-243
2,2381162,-1424,490,-158,2317,-79,-91,123,-21,-243
2,2381176,-1424,490,-158,2317,-79,-91,123,-21,-243
2,2381190,-1420,493,-159,2318,-67,-86,123,-21,-243
2,2381204,-1423,496,-153,2320,-64,-89,123,-21,-243
2,2381218,-1423,496,-153,2320,-64,-89,123,-21,-243
2,2381233,-1420,495,-152,2313,-68,-86,126,-20,-236
2,2381247,-1425,495,-151,2312,-64,-93,126,-20,-236
2,2381261,-1422,492,-152,2316,-74,-89,126,-20,-236
2,2381277,-1422,492,-152,2316,-74,-89,126,-20,-236
2,2381291,-1424,489,-148,2309,-73,-84,126,-20,-236
2,2381306,-1423,492,-158,2317,-77,-82,126,-20,-236
2,2381318,-1423,492,-158,2317,-77,-82,126,-20,-236
2,2381333,-1422,494,-154,2320,-73,-89,126,-20,-236
2,2381347,-1425,495,-154,2310,-70,-84,126,-18,-238
2,2381362,-1422,496,-152,2311,-79,-86,126,-18,-238
2,2381375,-1422,496,-152,2311,-79,-86,126,-18,-238
2,2381387,-1426,500,-152,2314,-73,-92,126,-18,-238
2,2381402,-1423,500,-151,2315,-71,-89,126,-18,-238
2,2381416,-1423,500,-151,2315,-71,-89,126,-18,-238
2,2381430,-1422,499,-155,2308,-74,-81,126,-18,-238
2,2381445,-1420,502,-148,2309,-70,-87,126,-18,-238
2,2381457,-1420,502,-148,2309,-70,-87,126,-18,-238
2,2381469,-1423,498,-157,2309,-77,-87,126,-18,-238
2,2381483,-1423,500,-147,2315,-71,-84,123,-21,-239
2,2381497,-1423,500,-147,2315,-71,-84,123,-21,-239
2,2381511,-1424,504,-152,2314,-79,-83,123,-21,-239
2,2381527,-1424,504,-157,2320,-79,-83,123,-21,-239
2,2381542,-1424,507,-154,2317,-72,-89,123,-21,-239
2,2381558,-1424,507,-154,2317,-72,-89,123,-21,-239
2,2381574,-1426,506,-159,2312,-69,-90,123,-21,-239
2,2381590,-1422,507,-155,2311,-73,-91,123,-21,-239
2,2381605,-1423,504,-155,2313,-71,-86,134,-18,-234
2,2381619,-1423,504,-155,2313,-71,-86,134,-18,-234
2,2381634,-1422,508,-153,2312,-69,-83,134,-18,-234
2,2381648,-1425,517,-156,2316,-78,-81,134,-18,-234
2,2381663,-1422,515,-156,2312,-81,-88,134,-18,-234
2,2381677,-1422,515,-156,2312,-81,-88,134,-18,-234
2,2381689,-1425,511,-155,2322,-82,-84,134,-18,-234
2,2381703,-1423,507,-154,2326,-72,-81,134,-18,-234
2,2381717,-1423,507,-154,2326,-72,-81,134,-18,-234
2,2381731,-1420,514,-148,2327,-67,-81,138,-22,-236
2,2381746,-1426,513,-157,2319,-72,-79,138,-22,-236
2,2381761,-1421,510,-151,2320,-76,-88,138,-22,-236
2,2381776,-1421,510,-151,2320,-76,-88,138,-22,-236
2,2381791,-1418,505,-147,2320,-70,-81,138,-22,-236
2,2381807,-1421,503,-154,2327,-69,-89,138,-22,-236
2,2381821,-1424,507,-154,2325,-65,-86,138,-22,-236
2,2381836,-1424,507,-154,2325,-65,-86,138,-22,-236
2,2381851,-1423,506,-153,2323,-67,-89,133,-21,-233
2,2381865,-1422,498,-156,2323,-66,-85,133,-21,-233
2,2381880,-1422,498,-156,2323,-66,-85,133,-21,-233
2,2381894,-1423,497,-148,2324,-73,-85,133,-21,-233
2,2381911,-1420,495,-155,2324,-73,-80,133,-21,-233
2,2381923,-1419,478,-152,2322,-70,-89,133,-21,-233
2,2381937,-1419,478,-152,2322,-70,-89,133,-21,-233
2,2381950,-1422,498,-151,2322,-73,-91,133,-21,-233
2,2381965,-1419,495,-150,2326,-70,-84,134,-24,-240
2,2381976,-1419,495,-150,2326,-70,-84,134,-24,-240
2,2381987,-1423,488,-156,2326,-70,-91,134,-24,-240
2,2382003,-1419,490,-153,2326,-70,-94,134,-24,-240
2,2382018,-1419,490,-153,2326,-70,-94,134,-24,-240
2,2382032,-1422,492,-155,2315,-74,-87,134,-24,-240
2,2382045,-1421,489,-149,2315,-70,-83,134,-24,-240
2,2382060,-1421,489,-149,2315,-70,-83,134,-24,-240
2,2382075,-1421,483,-151,2318,-72,-88,134,-24,-240
2,2382091,-1419,487,-153,2319,-69,-95,134,-24,-240
2,2382105,-1423,476,-150,2318,-67,-89,136,-24,-234
2,2382119,-1423,476,-150,2318,-67,-89,136,-24,-234
2,2382134,-1420,480,-153,2317,-75,-83,136,-24,-234
2,2382147,-1421,481,-157,2319,-69,-77,136,-24,-234
2,2382162,-1417,485,-154,2322,-71,-80,136,-24,-234
2,2382175,-1417,485,-154,2322,-71,-80,136,-24,-234
2,2382189,-1419,471,-154,2315,-73,-87,136,-24,-234
2,2382204,-1422,484,-147,2313,-67,-76,136,-24,-234
2,2382218,-1422,484,-147,2313,-67,-76,136,-24,-234
2,2382232,-1418,482,-155,2315,-74,-87,138,-26,-226
2,2382246,-1422,486,-153,2316,-76,-86,138,-26,-226
2,2382262,-1421,476,-151,2313,-82,-84,138,-26,-226
2,2382276,-1421,476,-151,2313,-82,-84,138,-26,-226
2,2382288,-1422,485,-156,2314,-78,-86,138,-26,-226
2,2382304,-1422,485,-156,2314,-78,-86,138,-26,-226
2,2382319,-1422,485,-156,2314,-78,-86,138,-26,-226
2,2382333,-1423,488,-155,2309,-76,-83,138,-26,-226
2,2382346,-1420,485,-153,2314,-80,-88,142,-14,-232
2,2382359,-1420,485,-153,2314,-80,-88,142,-14,-232
2,2382372,-1416,491,-155,2311,-76,-88,142,-14,-232
2,2382387,-1420,484,-154,2310,-73,-86,142,-14,-232
2,2382401,-1423,491,-153,2306,-75,-81,142,-14,-232
2,2382415,-1423,491,-153,2306,-75,-81,142,-14,-232
2,2382428,-1423,512,-156,2307,-66,-84,142,-14,-232
2,2382441,-1421,492,-158,2306,-73,-79,142,-14,-232
2,2382455,-1421,492,-158,2306,-73,-79,142,-14,-232
2,2382470,-1420,494,-152,2310,-70,-88,144,-28,-228
2,2382484,-1420,495,-155,2306,-65,-92,144,-28,-228
2,2382498,-1420,495,-155,2306,-65,-92,144,-28,-228
2,2382514,-1426,505,-149,2303,-69,-90,144,-28,-228
2,2382530,-1421,496,-160,2307,-74,-87,144,-28,-228
2,2382545,-1421,496,-160,2307,-74,-87,144,-28,-228
2,2382560,-1421,496,-160,2307,-74,-87,144,-28,-228
2,2382574,-1419,505,-156,2311,-75,-95,144,-28,-228
2,2382588,-1426,507,-155,2305,-76,-87,149,-23,-229
2,2382603,-1424,518,-157,2312,-63,-91,149,-23,-229
2,2382616,-1424,518,-157,2312,-63,-91,149,-23,-229
2,2382629,-1421,515,-155,2308,-66,-88,149,-23,-229
2,2382643,-1422,530,-160,2304,-74,-91,149,-23,-229
2,2382658,-1422,530,-160,2304,-74,-91,149,-23,-229
2,2382671,-1426,530,-154,2307,-76,-90,149,-23,-229
2,2382686,-1424,535,-153,2313,-72,-89,149,-23,-229
2,2382700,-1424,535,-153,2313,-72,-89,149,-23,-229
2,2382712,-1422,519,-157,2309,-69,-87,149,-17,-227
2,2382727,-1425,532,-155,2317,-67,-81,149,-17,-227
2,2382741,-1425,532,-155,2317,-67,-81,149,-17,-227
2,2382754,-1422,521,-157,2314,-75,-84,149,-17,-227
2,2382770,-1427,527,-156,2319,-80,-83,149,-17,-227
2,2382783,-1421,512,-153,2315,-77,-91,149,-17,-227
2,2382797,-1421,512,-153,2315,-77,-91,149,-17,-227
2,2382813,-1421,519,-157,2312,-73,-88,149,-17,-227
2,2382827,-1420,509,-152,2316,-76,-76,149,-17,-227
2,2382841,-1425,522,-148,2313,-78,-84,150,-20,-226
2,2382856,-1425,522,-148,2313,-78,-84,150,-20,-226
2,2382870,-1425,509,-150,2316,-75,-91,150,-20,-226
2,2382884,-1423,511,-150,2316,-67,-88,150,-20,-226
2,2382897,-1423,511,-150,2316,-67,-88,150,-20,-226
2,2382909,-1424,506,-153,2326,-68,-86,150,-20,-226
2,2382923,-1424,523,-151,2323,-67,-87,150,-20,-226
2,2382937,-1424,523,-151,2323,-67,-87,150,-20,-226
2,2382952,-1422,505,-156,2320,-74,-84,150,-20,-226
2,2382963,-1423,505,-149,2322,-75,-85,157,-19,-223
2,2382977,-1423,505,-149,2322,-75,-85,157,-19,-223
2,2382992,-1421,500,-149,2319,-64,-87,157,-19,-223
2,2383005,-1423,508,-146,2324,-68,-89,157,-19,-223
2,2383020,-1423,508,-146,2324,-68,-89,157,-19,-223
2,2383033,-1425,501,-150,2327,-68,-87,157,-19,-223
2,2383048,-1426,503,-152,2316,-70,-75,157,-19,-223
2,2383064,-1424,497,-154,2316,-70,-85,157,-19,-223
2,2383079,-1424,497,-154,2316,-70,-85,157,-19,-223
2,2383092,-1423,499,-148,2318,-72,-86,147,-13,-229
2,2383108,-1423,497,-152,2320,-75,-83,147,-13,-229
2,2383122,-1419,503,-151,2325,-71,-76,147,-13,-229
2,2383136,-1419,503,-151,2325,-71,-76,147,-13,-229
2,2383152,-1421,500,-148,2323,-71,-82,147,-13,-229
2,2383163,-1419,500,-151,2321,-66,-82,147,-13,-229
2,2383176,-1419,500,-151,2321,-66,-82,147,-13,-229
2,2383193,-1425,500,-152,2322,-68,-87,147,-13,-229
2,2383208,-1423,503,-148,2317,-78,-80,153,-17,-219
2,2383222,-1423,503,-147,2319,-82,-78,153,-17,-219
2,2383237,-1423,503,-147,2319,-82,-78,153,-17,-219
2,2383251,-1421,500,-154,2316,-77,-82,153,-17,-219
2,2383266,-1424,506,-149,2319,-79,-85,153,-17,-219
2,2383283,-1422,503,-149,2317,-73,-84,153,-17,-219
2,2383297,-1422,503,-149,2317,-73,-84,153,-17,-219
2,2383311,-1423,504,-153,2319,-75,-96,153,-17,-219
2,2383326,-1422,502,-150,2323,-70,-93,151,-15,-221
2,2383340,-1422,502,-150,2323,-70,-93,151,-15,-221
2,2383353,-1422,501,-151,2318,-73,-81,151,-15,-221
2,2383367,-1419,504,-149,2319,-65,-83,151,-15,-221
2,2383379,-1419,504,-149,2319,-65,-83,151,-15,-221
2,2383393,-1422,501,-152,2323,-69,-92,151,-15,-221
2,2383408,-1422,494,-158,2318,-77,-90,151,-15,-221
2,2383422,-1425,501,-154,2318,-79,-92,151,-15,-221
2,2383437,-1425,501,-154,2318,-79,-92,151,-15,-221
2,2383453,-1423,499,-154,2320,-77,-88,151,-15,-221
2,2383468,-1419,498,-148,2316,-75,-84,157,-11,-217
2,2383483,-1422,498,-150,2319,-73,-89,157,-11,-217
2,2383497,-1422,498,-150,2319,-73,-89,157,-11,-217
2,2383510,-1420,502,-158,2325,-71,-89,157,-11,-217
2,2383525,-1420,506,-154,2319,-66,-89,157,-11,-217
2,2383539,-1420,506,-154,2319,-66,-89,157,-11,-217
2,2383551,-1423,507,-151,2318,-67,-87,157,-11,-217
2,2383564,-1419,504,-148,2325,-71,-89,157,-11,-217
2,2383579,-1419,504,-148,2325,-71,-89,157,-11,-217
2,2383593,-1425,504,-145,2332,-70,-91,159,-3,-219
2,2383607,-1424,503,-150,2321,-77,-91,159,-3,-219
2,2383622,-1424,503,-150,2321,-77,-91,159,-3,-219
2,2383633,-1423,505,-152,2322,-75,-87,159,-3,-219
2,2383646,-1425,503,-145,2319,-78,-88,159,-3,-219
2,2383662,-1425,503,-145,2319,-78,-88,159,-3,-219
2,2383676,-1422,501,-151,2320,-70,-90,159,-3,-219
2,2383689,-1423,502,-148,2327,-69,-93,159,-3,-219
2,2383705,-1421,505,-151,2322,-70,-92,166,-6,-212
2,2383720,-1421,505,-151,2322,-70,-92,166,-6,-212
2,2383727,-1420,504,-150,2317,-73,-87,166,-6,-212
2,2383742,-1422,503,-150,2320,-67,-87,166,-6,-212
2,2383752,-1422,503,-150,2320,-67,-87,166,-6,-212
2,2383766,-1424,504,-151,2316,-75,-86,166,-6,-212
2,2383780,-1424,504,-151,2316,-75,-86,166,-6,-212
2,2383795,-1424,499,-151,2317,-63,-79,166,-6,-212
2,2383808,-1424,499,-151,2317,-63,-79,166,-6,-212
2,2383822,-1424,499,-151,2317,-63,-79,166,-6,-212
2,2383835,-1422,499,-148,2323,-66,-91,161,1,-219
2,2383847,-1423,488,-151,2323,-70,-89,161,1,-219
2,2383861,-1423,488,-151,2323,-70,-89,161,1,-219
2,2383875,-1423,498,-152,2314,-73,-88,161,1,-219
2,2383889,-1423,493,-154,2317,-70,-89,161,1,-219
2,2383905,-1424,499,-155,2321,-65,-81,161,1,-219
2,2383920,-1424,499,-155,2321,-65,-81,161,1,-219
2,2383935,-1421,493,-153,2313,-72,-82,161,1,-219
2,2383948,-1422,498,-150,2319,-74,-85,164,2,-216
2,2383962,-1422,498,-150,2319,-74,-85,164,2,-216
2,2383976,-1423,492,-153,2317,-80,-89,164,2,-216
2,2383987,-1426,491,-152,2312,-78,-91,164,2,-216
2,2384000,-1426,491,-152,2312,-78,-91,164,2,-216
2,2384015,-1421,490,-153,2319,-76,-86,164,2,-216
2,2384029,-1424,491,-151,2314,-67,-82,164,2,-216
2,2384044,-1423,491,-146,2311,-72,-84,164,2,-216
2,2384058,-1423,491,-146,2311,-72,-84,164,2,-216
2,2384072,-1421,491,-154,2315,-72,-84,164,2,-216
2,2384083,-1422,491,-153,2321,-77,-84,164,0,-198
2,2384098,-1422,491,-153,2321,-77,-84,164,0,-198
2,2384113,-1421,489,-156,2315,-66,-89,164,0,-198
2,2384128,-1422,495,-150,2310,-77,-87,164,0,-198
2,2384140,-1422,495,-150,2310,-77,-87,164,0,-198
2,2384155,-1424,494,-156,2314,-75,-85,164,0,-198
2,2384171,-1424,494,-156,2315,-66,-90,164,0,-198
2,2384186,-1423,486,-157,2319,-74,-84,164,0,-198
2,2384199,-1423,486,-157,2319,-74,-84,164,0,-198
2,2384214,-1422,494,-151,2312,-74,-92,164,-2,-208
2,2384226,-1423,496,-155,2312,-73,-87,164,-2,-208
2,2384241,-1423,496,-155,2312,-73,-87,164,-2,-208
2,2384254,-1422,491,-155,2310,-65,-86,164,-2,-208
2,2384268,-1417,489,-157,2311,-70,-87,164,-2,-208
2,2384282,-1417,489,-157,2311,-70,-87,164,-2,-208
2,2384295,-1421,494,-153,2315,-66,-91,164,-2,-208
2,2384310,-1420,496,-156,2315,-68,-84,164,-2,-208
2,2384321,-1420,496,-156,2315,-68,-84,164,-2,-208
2,2384333,-1421,494,-154,2314,-70,-88,159,-7,-203
2,2384349,-1420,495,-154,2312,-75,-87,159,-7,-203
2,2384364,-1424,491,-156,2303,-71,-87,159,-7,-203
2,2384379,-1424,491,-156,2303,-71,-87,159,-7,-203
2,2384392,-1422,492,-155,2313,-67,-86,159,-7,-203
2,2384406,-1423,492,-159,2312,-69,-87,159,-7,-203
2,2384420,-1423,492,-159,2312,-69,-87,159,-7,-203
2,2384435,-1421,511,-155,2305,-74,-89,159,-7,-203
2,2384448,-1422,495,-158,2302,-71,-84,169,-5,-195
2,2384463,-1424,498,-160,2302,-71,-88,169,-5,-195
2,2384478,-1424,498,-160,2302,-71,-88,169,-5,-195
2,2384492,-1422,500,-155,2307,-71,-84,169,-5,-195
2,2384503,-1424,508,-156,2309,-76,-88,169,-5,-195
2,2384517,-1424,508,-156,2309,-76,-88,169,-5,-195
2,2384533,-1420,502,-159,2312,-81,-83,169,-5,-195
2,2384548,-1422,506,-159,2318,-76,-90,169,-5,-195
2,2384564,-1427,511,-157,2309,-75,-88,167,1,-191
2,2384576,-1427,511,-157,2309,-75,-88,167,1,-191
2,2384590,-1427,513,-149,2309,-73,-88,167,1,-191
2,2384604,-1424,512,-153,2309,-64,-85,167,1,-191
2,2384617,-1424,512,-153,2309,-64,-85,167,1,-191
2,2384630,-1422,529,-162,2313,-70,-88,167,1,-191
2,2384645,-1423,532,-158,2307,-66,-85,167,1,-191
2,2384656,-1423,532,-158,2307,-66,-85,167,1,-191
2,2384669,-1423,528,-156,2314,-75,-87,167,1,-191
2,2384683,-1423,528,-156,2314,-75,-87,167,1,-191
2,2384697,-1425,525,-159,2309,-72,-82,167,1,-191
2,2384712,-1423,525,-152,2317,-64,-87,172,-6,-196
2,2384727,-1428,526,-154,2310,-65,-87,172,-6,-196
2,2384742,-1428,526,-154,2310,-65,-87,172,-6,-196
2,2384753,-1425,517,-153,2317,-69,-92,172,-6,-196
2,2384768,-1421,518,-157,2317,-72,-97,172,-6,-196
2,2384783,-1423,514,-150,2315,-68,-89,172,-6,-196
2,2384798,-1423,514,-150,2315,-68,-89,172,-6,-196
2,2384811,-1423,509,-154,2313,-74,-85,172,-6,-196
2,2384825,-1421,515,-149,2315,-72,-92,163,-3,-187
2,2384840,-1421,515,-149,2315,-72,-92,163,-3,-187
2,2384856,-1423,519,-157,2325,-72,-84,163,-3,-187
2,2384870,-1419,512,-153,2316,-69,-79,163,-3,-187
2,2384884,-1421,512,-155,2321,-68,-86,163,-3,-187
2,2384899,-1421,512,-155,2321,-68,-86,163,-3,-187
2,2384911,-1425,513,-152,2326,-68,-91,163,-3,-187
2,2384927,-1423,509,-154,2325,-72,-89,163,-3,-187
2,2384941,-1423,509,-154,2325,-72,-89,163,-3,-187
2,2384953,-1422,502,-148,2326,-78,-88,178,4,-190
2,2384967,-1424,504,-153,2327,-71,-83,178,4,-190
2,2384982,-1424,504,-153,2327,-71,-83,178,4,-190
2,2384996,-1421,501,-149,2323,-71,-90,178,4,-190
2,2385004,-1424,501,-159,2326,-66,-86,178,4,-190
2,2385019,-1424,501,-159,2326,-66,-86,178,4,-190
2,2385034,-1421,499,-157,2326,-70,-87,178,4,-190
2,2385049,-1425,510,-152,2322,-69,-89,178,4,-190
2,2385062,-1425,510,-152,2322,-69,-89,178,4,-190
2,2385078,-1423,513,-153,2321,-76,-89,165,-7,-191
2,2385093,-1423,511,-154,2315,-75,-85,165,-7,-191
2,2385108,-1422,510,-153,2323,-66,-91,165,-7,-191
2,2385124,-1422,508,-152,2319,-70,-92,165,-7,-191
2,2385138,-1422,508,-152,2319,-70,-92,165,-7,-191
2,2385153,-1423,505,-153,2318,-67,-88,165,-7,-191
2,2385168,-1423,505,-157,2322,-70,-85,165,-7,-191
2,2385182,-1423,505,-157,2322,-70,-85,165,-7,-191
2,2385197,-1423,505,-155,2321,-63,-83,177,5,-185
2,2385211,-1426,499,-151,2324,-73,-85,177,5,-185
2,2385223,-1423,504,-153,2319,-72,-83,177,5,-185
2,2385238,-1423,504,-153,2319,-72,-83,177,5,-185
2,2385253,-1422,507,-154,2326,-68,-86,177,5,-185
2,2385266,-1422,500,-154,2327,-69,-89,177,5,-185
2,2385281,-1422,500,-154,2327,-69,-89,177,5,-185
2,2385296,-1419,501,-153,2316,-70,-88,177,5,-185
2,2385312,-1424,500,-154,2317,-71,-93,177,-7,-183
2,2385327,-1424,502,-154,2323,-72,-85,177,-7,-183
2,2385342,-1424,502,-154,2323,-72,-85,177,-7,-183
2,2385356,-1423,498,-152,2323,-65,-88,177,-7,-183
2,2385371,-1425,496,-156,2318,-75,-81,177,-7,-183
2,2385385,-1422,498,-153,2322,-71,-89,177,-7,-183
2,2385399,-1422,498,-153,2322,-71,-89,177,-7,-183
2,2385414,-1424,502,-152,2319,-74,-85,177,-7,-183
2,2385425,-1423,501,-150,2321,-78,-81,177,-7,-183
2,2385439,-1423,501,-150,2321,-78,-81,177,-7,-183
2,2385454,-1422,508,-148,2329,-75,-88,166,-6,-184
2,2385468,-1423,503,-145,2324,-68,-90,166,-6,-184
2,2385482,-1423,503,-145,2324,-68,-90,166,-6,-184
2,2385497,-1422,498,-155,2318,-79,-87,166,-6,-184
2,2385512,-1424,498,-154,2314,-80,-82,166,-6,-184
2,2385528,-1423,496,-157,2322,-71,-89,166,-6,-184
2,2385544,-1423,496,-157,2322,-71,-89,166,-6,-184
2,2385557,-1425,494,-154,2315,-71,-88,166,-6,-184
2,2385571,-1423,496,-153,2318,-73,-87,166,-6,-170
2,2385586,-1423,497,-154,2329,-71,-79,166,-6,-170
2,2385600,-1423,497,-154,2329,-71,-79,166,-6,-170
2,2385614,-1424,497,-151,2327,-74,-83,166,-6,-170
2,2385628,-1423,500,-152,2314,-77,-90,166,-6,-170
2,2385640,-1423,500,-152,2314,-77,-90,166,-6,-170
2,2385655,-1419,500,-153,2314,-70,-92,166,-6,-170
2,2385672,-1424,498,-152,2316,-76,-88,166,-6,-170
2,2385687,-1423,495,-152,2319,-69,-83,166,-6,-168
2,2385702,-1423,495,-152,2319,-69,-83,166,-6,-168
2,2385715,-1423,492,-157,2321,-75,-88,166,-6,-168
2,2385729,-1424,493,-152,2317,-74,-87,166,-6,-168
2,2385744,-1424,497,-153,2317,-77,-88,166,-6,-168
2,2385759,-1424,497,-153,2317,-77,-88,166,-6,-168
2,2385773,-1424,485,-152,2324,-75,-89,166,-6,-168
2,2385787,-1423,488,-157,2315,-77,-97,166,-6,-168
2,2385801,-1423,488,-157,2315,-77,-97,166,-6,-168
2,2385816,-1424,490,-160,2324,-73,-90,170,0,-172
2,2385831,-1423,495,-156,2317,-70,-89,170,0,-172
2,2385846,-1421,491,-158,2316,-65,-95,170,0,-172
2,2385858,-1421,491,-158,2316,-65,-95,170,0,-172
2,2385872,-1421,488,-155,2321,-64,-88,170,0,-172
2,2385886,-1421,481,-156,2320,-69,-92,170,0,-172
2,2385898,-1421,481,-156,2320,-69,-92,170,0,-172
2,2385914,-1423,486,-158,2318,-79,-88,170,0,-172
2,2385928,-1427,483,-154,2316,-72,-90,180,-8,-168
2,2385942,-1427,483,-154,2316,-72,-90,180,-8,-168
2,2385957,-1421,484,-151,2319,-74,-83,180,-8,-168
2,2385973,-1421,480,-154,2315,-74,-87,180,-8,-168
2,2385987,-1422,485,-158,2318,-74,-89,180,-8,-168
2,2386000,-1422,485,-158,2318,-74,-89,180,-8,-168
2,2386014,-1420,488,-157,2314,-75,-83,180,-8,-168
2,2386029,-1420,489,-154,2316,-80,-77,180,-8,-168
2,2386044,-1422,486,-159,2319,-80,-84,180,-8,-168
2,2386059,-1422,486,-159,2319,-80,-84,180,-8,-168
2,2386073,-1427,515,-156,2313,-81,-91,169,-5,-157
2,2386086,-1423,488,-155,2313,-72,-87,169,-5,-157
2,2386102,-1423,488,-155,2313,-72,-87,169,-5,-157
2,2386117,-1424,491,-160,2310,-66,-91,169,-5,-157
2,2386129,-1419,495,-164,2313,-73,-90,169,-5,-157
2,2386143,-1419,495,-164,2313,-73,-90,169,-5,-157
2,2386159,-1426,501,-154,2317,-69,-82,169,-5,-157
2,2386176,-1426,493,-161,2311,-69,-86,169,-5,-157
2,2386184,-1426,493,-161,2311,-69,-86,169,-5,-157
2,2386198,-1426,496,-151,2311,-73,-88,165,-7,-157
2,2386212,-1421,497,-158,2312,-68,-89,165,-7,-157
2,2386227,-1424,504,-159,2308,-83,-81,165,-7,-157
2,2386242,-1424,504,-159,2308,-83,-81,165,-7,-157
2,2386254,-1424,508,-163,2312,-86,-84,165,-7,-157
2,2386267,-1426,509,-158,2315,-78,-91,165,-7,-157
2,2386280,-1426,509,-158,2315,-78,-91,165,-7,-157
2,2386294,-1424,507,-155,2314,-74,-93,165,-7,-157
2,2386309,-1424,507,-157,2314,-71,-91,165,-3,-151
2,2386322,-1424,507,-157,2314,-71,-91,165,-3,-151
2,2386337,-1428,517,-159,2315,-74,-83,165,-3,-151
2,2386351,-1424,521,-158,2311,-75,-83,165,-3,-151
2,2386363,-1424,521,-158,2311,-75,-83,165,-3,-151
2,2386377,-1426,518,-155,2311,-77,-84,165,-3,-151
2,2386393,-1421,517,-159,2310,-70,-86,165,-3,-151
2,2386408,-1422,521,-157,2311,-72,-84,165,-3,-151
2,2386423,-1422,521,-157,2311,-72,-84,165,-3,-151
2,2386439,-1423,528,-160,2310,-78,-90,176,-4,-148
2,2386452,-1424,521,-154,2313,-72,-88,176,-4,-148
2,2386467,-1424,517,-156,2320,-75,-92,176,-4,-148
2,2386483,-1424,517,-156,2320,-75,-92,176,-4,-148
2,2386497,-1424,512,-158,2327,-72,-91,176,-4,-148
2,2386511,-1425,507,-157,2321,-73,-86,176,-4,-148
2,2386522,-1425,507,-157,2321,-73,-86,176,-4,-148
2,2386534,-1427,507,-155,2321,-76,-88,176,-4,-148
2,2386547,-1425,510,-153,2321,-71,-85,172,-10,-150
2,2386562,-1425,510,-153,2321,-71,-85,172,-10,-150
2,2386576,-1424,508,-150,2322,-66,-94,172,-10,-150
2,2386589,-1425,506,-156,2319,-69,-81,172,-10,-150
2,2386603,-1425,506,-156,2319,-69,-81,172,-10,-150
2,2386614,-1424,509,-157,2326,-74,-86,172,-10,-150
2,2386628,-1424,503,-153,2323,-71,-83,172,-10,-150
2,2386643,-1424,503,-153,2323,-71,-83,172,-10,-150
2,2386657,-1424,502,-160,2322,-73,-85,172,-10,-150
2,2386671,-1425,499,-157,2320,-76,-93,172,-10,-150
2,2386686,-1426,497,-153,2321,-79,-89,164,-12,-152
2,2386701,-1426,497,-153,2321,-79,-89,164,-12,-152
2,2386716,-1424,489,-157,2326,-69,-81,164,-12,-152
2,2386732,-1426,494,-153,2325,-70,-89,164,-12,-152
2,2386746,-1425,475,-156,2320,-74,-79,164,-12,-152
2,2386760,-1425,475,-156,2320,-74,-79,164,-12,-152
2,2386776,-1423,499,-153,2321,-72,-90,164,-12,-152
2,2386790,-1423,488,-156,2317,-67,-89,164,-12,-152
2,2386802,-1423,488,-156,2317,-67,-89,164,-12,-152
2,2386818,-1426,486,-152,2317,-73,-83,169,5,-145
2,2386831,-1424,485,-158,2316,-74,-90,169,5,-145
2,2386844,-1424,485,-158,2316,-74,-90,169,5,-145
2,2386859,-1426,490,-155,2312,-70,-86,169,5,-145
2,2386873,-1427,489,-159,2316,-66,-80,169,5,-145
2,2386888,-1423,484,-151,2318,-71,-86,169,5,-145
2,2386902,-1423,484,-151,2318,-71,-86,169,5,-145
2,2386914,-1423,485,-159,2320,-69,-93,169,5,-145
2,2386929,-1419,481,-155,2315,-77,-88,160,-10,-146
2,2386946,-1424,487,-157,2316,-71,-91,160,-10,-146
2,2386958,-1424,487,-157,2316,-71,-91,160,-10,-146
2,2386971,-1425,489,-155,2314,-73,-90,160,-10,-146
2,2386987,-1422,489,-157,2320,-73,-86,160,-10,-146
