imu,time,ax,ay,az,gx,gy,gz,mx,my,mz
0,3292155,2206,383,-3694,5920,-107,-301,170,64,-164
0,3292169,2201,422,-3689,5923,-102,-310,170,64,-164
0,3292184,2209,381,-3693,5923,-105,-310,170,64,-164
0,3292194,2209,381,-3693,5923,-105,-310,170,64,-164
0,3292203,2199,431,-3693,5923,-107,-315,170,64,-164
0,3292211,2199,431,-3693,5923,-107,-315,170,64,-164
0,3292220,2199,431,-3693,5923,-107,-315,170,64,-164
0,3292232,2207,398,-3695,5930,-102,-318,163,61,-171
0,3292246,2201,428,-3693,5924,-104,-315,163,61,-171
0,3292261,2208,394,-3691,5925,-100,-307,163,61,-171
0,3292274,2208,394,-3691,5925,-100,-307,163,61,-171
0,3292288,2199,420,-3691,5936,-96,-307,163,61,-171
0,3292301,2203,402,-3697,5935,-103,-307,163,61,-171
0,3292314,2203,402,-3697,5935,-103,-307,163,61,-171
0,3292329,2200,422,-3696,5929,-105,-305,163,61,-171
0,3292343,2207,445,-3695,5926,-101,-312,163,61,-171
0,3292351,2207,445,-3695,5926,-101,-312,163,61,-171
0,3292359,2207,445,-3695,5926,-101,-312,163,61,-171
0,3292368,2200,423,-3692,5928,-102,-312,163,67,-173
0,3292383,2209,432,-3695,5926,-100,-318,163,67,-173
0,3292395,2209,432,-3695,5926,-100,-318,163,67,-173
0,3292408,2202,424,-3691,5927,-102,-308,163,67,-173
0,3292423,2202,438,-3687,5934,-92,-308,163,67,-173
0,3292437,2202,438,-3687,5934,-92,-308,163,67,-173
0,3292447,2207,422,-3686,5923,-90,-309,163,67,-173
0,3292459,2207,422,-3686,5923,-90,-309,163,67,-173
0,3292472,2204,423,-3681,5928,-93,-313,163,67,-173
0,3292485,2207,423,-3683,5917,-103,-315,155,79,-171
0,3292499,2207,423,-3683,5917,-103,-315,155,79,-171
0,3292513,2199,434,-3689,5916,-103,-308,155,79,-171
0,3292523,2200,422,-3690,5921,-100,-318,155,79,-171
0,3292537,2200,422,-3690,5921,-100,-318,155,79,-171
0,3292549,2204,422,-3686,5930,-101,-312,155,79,-171
0,3292563,2204,416,-3695,5923,-105,-305,155,79,-171
0,3292576,2204,416,-3695,5923,-105,-305,155,79,-171
0,3292585,2202,422,-3687,5913,-103,-305,155,79,-171
0,3292594,2202,422,-3687,5913,-103,-305,155,79,-171
0,3292602,2203,425,-3689,5919,-99,-309,157,75,-175
0,3292609,2203,425,-3689,5919,-99,-309,157,75,-175
0,3292618,2203,425,-3689,5919,-99,-309,157,75,-175
0,3292626,2202,419,-3687,5920,-102,-314,157,75,-175
0,3292635,2202,419,-3687,5920,-102,-314,157,75,-175
0,3292643,2206,414,-3682,5923,-102,-309,157,75,-175
0,3292651,2206,414,-3682,5923,-102,-309,157,75,-175
0,3292659,2206,414,-3682,5923,-102,-309,157,75,-175
0,3292666,2200,414,-3689,5918,-99,-309,157,75,-175
0,3292675,2200,414,-3689,5918,-99,-309,157,75,-175
0,3292683,2202,420,-3680,5911,-103,-304,157,75,-175
0,3292692,2202,420,-3680,5911,-103,-304,157,75,-175
0,3292699,2202,420,-3680,5911,-103,-304,157,75,-175
0,3292707,2205,413,-3693,5921,-105,-314,157,75,-175
0,3292716,2205,413,-3693,5921,-105,-314,157,75,-175
0,3292724,2207,403,-3685,5911,-109,-308,157,75,-175
0,3292732,2207,403,-3685,5911,-109,-308,157,75,-175
0,3292740,2207,403,-3685,5911,-109,-308,157,75,-175
0,3292749,2202,404,-3689,5913,-106,-308,157,85,-179
0,3292758,2202,404,-3689,5913,-106,-308,157,85,-179
0,3292765,2209,404,-3685,5918,-106,-311,157,85,-179
0,3292773,2209,404,-3685,5918,-106,-311,157,85,-179
0,3292781,2209,404,-3685,5918,-106,-311,157,85,-179
0,3292788,2202,369,-3692,5919,-103,-314,157,85,-179
0,3292796,2202,369,-3692,5919,-103,-314,157,85,-179
0,3292804,2211,377,-3682,5915,-101,-314,157,85,-179
0,3292812,2211,377,-3682,5915,-101,-314,157,85,-179
0,3292821,2202,385,-3691,5916,-100,-305,157,85,-179
0,3292835,2202,385,-3691,5916,-100,-305,157,85,-179
0,3292849,2204,384,-3683,5918,-105,-306,157,85,-179
0,3292863,2203,382,-3689,5929,-98,-302,146,82,-182
0,3292875,2203,382,-3689,5929,-98,-302,146,82,-182
0,3292890,2205,373,-3684,5922,-106,-307,146,82,-182
0,3292905,2205,390,-3687,5920,-108,-311,146,82,-182
0,3292918,2205,390,-3687,5920,-108,-311,146,82,-182
0,3292932,2202,385,-3693,5917,-106,-312,146,82,-182
0,3292947,2206,400,-3690,5926,-108,-315,146,82,-182
0,3292962,2207,386,-3701,5920,-105,-312,146,82,-182
0,3292977,2207,386,-3701,5920,-105,-312,146,82,-182
0,3292990,2207,413,-3693,5923,-108,-306,146,82,-182
0,3293004,2204,402,-3693,5923,-110,-308,140,84,-192
0,3293018,2204,402,-3693,5923,-110,-308,140,84,-192
0,3293028,2206,424,-3688,5924,-107,-306,140,84,-192
0,3293041,2206,424,-3688,5924,-107,-306,140,84,-192
0,3293054,2205,402,-3699,5922,-106,-310,140,84,-192
0,3293068,2209,410,-3683,5928,-99,-313,140,84,-192
0,3293077,2209,410,-3683,5928,-99,-313,140,84,-192
0,3293086,2205,410,-3693,5928,-95,-306,140,84,-192
0,3293096,2205,410,-3693,5928,-95,-306,140,84,-192
0,3293103,2203,420,-3688,5925,-99,-311,140,84,-192
0,3293112,2203,420,-3688,5925,-99,-311,140,84,-192
0,3293120,2203,420,-3688,5925,-99,-311,140,84,-192
0,3293128,2204,412,-3699,5942,-94,-316,133,87,-189
0,3293136,2204,412,-3699,5942,-94,-316,133,87,-189
0,3293145,2207,400,-3684,5932,-99,-317,133,87,-189
0,3293153,2207,400,-3684,5932,-99,-317,133,87,-189
0,3293162,2205,409,-3688,5925,-101,-308,133,87,-189
0,3293171,2205,409,-3688,5925,-101,-308,133,87,-189
0,3293179,2205,409,-3688,5925,-101,-308,133,87,-189
0,3293187,2207,409,-3694,5917,-94,-304,133,87,-189
0,3293196,2207,409,-3694,5917,-94,-304,133,87,-189
0,3293204,2207,405,-3699,5918,-101,-316,133,87,-189
0,3293212,2207,405,-3699,5918,-101,-316,133,87,-189
0,3293221,2207,405,-3699,5918,-101,-316,133,87,-189
0,3293230,2206,379,-3690,5922,-106,-316,133,87,-189
0,3293238,2206,379,-3690,5922,-106,-316,133,87,-189
0,3293247,2205,404,-3693,5930,-101,-309,133,87,-189
0,3293254,2205,404,-3693,5930,-101,-309,133,87,-189
0,3293264,2204,396,-3695,5929,-105,-301,133,85,-191
0,3293273,2204,396,-3695,5929,-105,-301,133,85,-191
0,3293282,2204,396,-3695,5929,-105,-301,133,85,-191
0,3293289,2204,396,-3695,5929,-105,-301,133,85,-191
0,3293297,2204,396,-3695,5929,-105,-301,133,85,-191
0,3293305,2202,403,-3695,5934,-100,-306,133,85,-191
0,3293314,2202,403,-3695,5934,-100,-306,133,85,-191
0,3293322,2202,403,-3695,5934,-100,-306,133,85,-191
0,3293330,2206,411,-3694,5927,-101,-309,133,85,-191
0,3293337,2206,411,-3694,5927,-101,-309,133,85,-191
0,3293346,2206,413,-3703,5926,-95,-313,133,85,-191
0,3293355,2206,413,-3703,5926,-95,-313,133,85,-191
0,3293364,2201,453,-3697,5933,-88,-313,133,85,-191
0,3293372,2201,453,-3697,5933,-88,-313,133,85,-191
0,3293380,2201,453,-3697,5933,-88,-313,133,85,-191
0,3293387,2201,432,-3688,5928,-98,-309,144,92,-198
0,3293393,2201,432,-3688,5928,-98,-309,144,92,-198
0,3293405,2204,421,-3687,5929,-102,-308,144,92,-198
0,3293413,2204,421,-3687,5929,-102,-308,144,92,-198
0,3293422,2204,421,-3687,5929,-102,-308,144,92,-198
0,3293430,2203,409,-3689,5927,-93,-302,144,92,-198
0,3293438,2203,409,-3689,5927,-93,-302,144,92,-198
0,3293448,2207,449,-3691,5929,-98,-300,144,92,-198
0,3293455,2207,449,-3691,5929,-98,-300,144,92,-198
0,3293464,2196,421,-3691,5926,-101,-302,144,92,-198
0,3293471,2196,421,-3691,5926,-101,-302,144,92,-198
0,3293480,2196,421,-3691,5926,-101,-302,144,92,-198
0,3293490,2205,425,-3686,5922,-101,-311,144,92,-198
0,3293499,2205,425,-3686,5922,-101,-311,144,92,-198
0,3293507,2207,405,-3692,5929,-106,-309,145,85,-203
0,3293517,2207,405,-3692,5929,-106,-309,145,85,-203
0,3293527,2199,435,-3684,5920,-98,-300,145,85,-203
0,3293535,2199,435,-3684,5920,-98,-300,145,85,-203
0,3293543,2201,422,-3687,5930,-96,-310,145,85,-203
0,3293552,2201,422,-3687,5930,-96,-310,145,85,-203
0,3293559,2201,422,-3687,5930,-96,-310,145,85,-203
0,3293568,2198,429,-3686,5932,-98,-315,145,85,-203
0,3293576,2198,429,-3686,5932,-98,-315,145,85,-203
0,3293585,2206,418,-3688,5929,-98,-312,145,85,-203
0,3293594,2206,418,-3688,5929,-98,-312,145,85,-203
0,3293602,2197,416,-3693,5928,-97,-301,145,85,-203
0,3293612,2197,416,-3693,5928,-97,-301,145,85,-203
0,3293618,2197,416,-3693,5928,-97,-301,145,85,-203
0,3293627,2205,430,-3691,5921,-100,-308,145,85,-203
0,3293634,2205,430,-3691,5921,-100,-308,145,85,-203
0,3293643,2201,435,-3679,5923,-105,-311,143,79,-213
0,3293652,2201,435,-3679,5923,-105,-311,143,79,-213
0,3293661,2201,435,-3679,5923,-105,-311,143,79,-213
0,3293670,2201,420,-3680,5921,-104,-317,143,79,-213
0,3293678,2201,420,-3680,5921,-104,-317,143,79,-213
0,3293685,2202,413,-3689,5920,-98,-310,143,79,-213
0,3293693,2202,413,-3689,5920,-98,-310,143,79,-213
0,3293702,2202,413,-3689,5920,-98,-310,143,79,-213
0,3293711,2200,428,-3680,5924,-104,-313,143,79,-213
0,3293719,2200,428,-3680,5924,-104,-313,143,79,-213
0,3293728,2205,428,-3690,5919,-106,-309,143,79,-213
0,3293737,2205,428,-3690,5919,-106,-309,143,79,-213
0,3293747,2204,417,-3678,5917,-97,-312,143,79,-213
0,3293756,2204,417,-3678,5917,-97,-312,143,79,-213
0,3293765,2203,411,-3689,5905,-98,-310,148,76,-218
0,3293774,2203,411,-3689,5905,-98,-310,148,76,-218
0,3293784,2202,412,-3677,5911,-95,-313,148,76,-218
0,3293792,2202,412,-3677,5911,-95,-313,148,76,-218
0,3293800,2202,412,-3677,5911,-95,-313,148,76,-218
0,3293808,2200,403,-3686,5912,-101,-310,148,76,-218
0,3293816,2200,403,-3686,5912,-101,-310,148,76,-218
0,3293826,2205,369,-3683,5905,-97,-306,148,76,-218
0,3293834,2205,369,-3683,5905,-97,-306,148,76,-218
0,3293842,2205,369,-3683,5905,-97,-306,148,76,-218
0,3293851,2207,354,-3684,5909,-101,-314,148,76,-218
0,3293859,2207,354,-3684,5909,-101,-314,148,76,-218
0,3293868,2205,368,-3685,5911,-105,-310,148,76,-218
0,3293876,2205,368,-3685,5911,-105,-310,148,76,-218
0,3293885,2203,382,-3693,5913,-108,-301,148,76,-218
0,3293894,2203,382,-3693,5913,-108,-301,148,76,-218
0,3293901,2203,382,-3693,5913,-108,-301,148,76,-218
0,3293912,2201,353,-3695,5907,-105,-302,147,87,-219
0,3293921,2201,353,-3695,5907,-105,-302,147,87,-219
0,3293929,2213,353,-3695,5917,-109,-305,147,87,-219
0,3293937,2213,353,-3695,5917,-109,-305,147,87,-219
0,3293944,2204,380,-3697,5921,-105,-302,147,87,-219
0,3293950,2204,380,-3697,5921,-105,-302,147,87,-219
0,3293957,2204,380,-3697,5921,-105,-302,147,87,-219
0,3293966,2201,390,-3696,5923,-102,-295,147,87,-219
0,3293974,2201,390,-3696,5923,-102,-295,147,87,-219
0,3293983,2203,397,-3695,5936,-96,-308,147,87,-219
0,3293992,2203,397,-3695,5936,-96,-308,147,87,-219
0,3294001,2203,397,-3695,5936,-96,-308,147,87,-219
0,3294010,2203,390,-3692,5934,-104,-309,147,87,-219
0,3294020,2203,390,-3692,5934,-104,-309,147,87,-219
0,3294026,2206,408,-3695,5925,-97,-307,156,74,-230
0,3294034,2206,408,-3695,5925,-97,-307,156,74,-230
0,3294042,2206,408,-3695,5925,-97,-307,156,74,-230
0,3294050,2200,404,-3690,5923,-102,-301,156,74,-230
0,3294059,2200,404,-3690,5923,-102,-301,156,74,-230
0,3294067,2199,422,-3694,5922,-104,-313,156,74,-230
0,3294076,2199,422,-3694,5922,-104,-313,156,74,-230
0,3294086,2210,396,-3690,5929,-107,-315,156,74,-230
0,3294094,2210,396,-3690,5929,-107,-315,156,74,-230
0,3294102,2210,396,-3690,5929,-107,-315,156,74,-230
0,3294115,2203,398,-3693,5918,-101,-306,156,74,-230
0,3294129,2207,398,-3697,5920,-105,-310,156,74,-230
0,3294143,2207,398,-3697,5920,-105,-310,156,74,-230
0,3294156,2198,406,-3697,5926,-103,-308,156,74,-230
0,3294170,2211,406,-3699,5923,-99,-306,157,73,-235
0,3294184,2204,398,-3697,5924,-100,-304,157,73,-235
0,3294197,2204,398,-3697,5924,-100,-304,157,73,-235
0,3294212,2202,412,-3696,5921,-98,-309,157,73,-235
0,3294226,2200,409,-3699,5912,-109,-298,157,73,-235
0,3294239,2200,409,-3699,5912,-109,-298,157,73,-235
0,3294254,2205,419,-3705,5922,-109,-302,157,73,-235
0,3294269,2203,397,-3700,5935,-107,-309,157,73,-235
0,3294284,2206,411,-3692,5934,-104,-309,163,71,-245
0,3294299,2206,411,-3692,5934,-104,-309,163,71,-245
0,3294312,2203,407,-3700,5929,-108,-304,163,71,-245
0,3294326,2205,420,-3698,5929,-108,-309,163,71,-245
0,3294338,2205,420,-3698,5929,-108,-309,163,71,-245
0,3294350,2204,416,-3695,5931,-99,-315,163,71,-245
0,3294363,2203,443,-3694,5927,-99,-300,163,71,-245
0,3294377,2203,443,-3694,5927,-99,-300,163,71,-245
0,3294391,2200,414,-3693,5931,-99,-306,163,71,-245
0,3294402,2200,414,-3693,5931,-99,-306,163,71,-245
0,3294414,2203,425,-3688,5930,-97,-311,173,65,-247
0,3294428,2202,424,-3689,5927,-103,-312,173,65,-247
0,3294442,2202,424,-3689,5927,-103,-312,173,65,-247
0,3294456,2199,426,-3693,5925,-100,-305,173,65,-247
0,3294472,2205,421,-3687,5920,-105,-315,173,65,-247
0,3294484,2201,419,-3694,5918,-106,-317,173,65,-247
0,3294498,2201,419,-3694,5918,-106,-317,173,65,-247
0,3294513,2207,425,-3691,5912,-111,-307,173,65,-247
0,3294527,2203,408,-3692,5912,-113,-308,173,65,-247
0,3294538,2203,408,-3692,5912,-113,-308,173,65,-247
0,3294553,2205,426,-3680,5920,-101,-314,185,59,-259
0,3294566,2200,418,-3686,5924,-109,-307,185,59,-259
0,3294579,2200,418,-3686,5924,-109,-307,185,59,-259
0,3294594,2202,422,-3685,5917,-101,-306,185,59,-259
0,3294607,2197,406,-3695,5909,-100,-309,185,59,-259
0,3294618,2197,406,-3695,5909,-100,-309,185,59,-259
0,3294632,2203,423,-3690,5924,-110,-311,185,59,-259
0,3294646,2201,404,-3695,5922,-106,-308,185,59,-259
0,3294660,2201,404,-3695,5922,-106,-308,185,59,-259
0,3294674,2204,411,-3679,5916,-102,-309,177,67,-261
0,3294690,2204,399,-3682,5926,-106,-311,177,67,-261
0,3294705,2201,410,-3690,5916,-105,-309,177,67,-261
0,3294720,2201,410,-3690,5916,-105,-309,177,67,-261
0,3294733,2203,403,-3691,5913,-99,-305,177,67,-261
0,3294747,2203,402,-3690,5920,-104,-313,177,67,-261
0,3294763,2203,402,-3690,5920,-104,-313,177,67,-261
0,3294776,2207,385,-3688,5919,-102,-311,177,67,-261
0,3294787,2205,368,-3685,5921,-97,-313,177,67,-261
0,3294801,2205,368,-3685,5921,-97,-313,177,67,-261
0,3294815,2205,378,-3678,5909,-102,-310,182,58,-266
0,3294828,2200,371,-3692,5922,-107,-308,182,58,-266
0,3294842,2200,371,-3692,5922,-107,-308,182,58,-266
0,3294854,2205,379,-3685,5933,-104,-303,182,58,-266
0,3294867,2203,372,-3693,5929,-102,-305,182,58,-266
0,3294880,2203,372,-3693,5929,-102,-305,182,58,-266
0,3294894,2207,381,-3697,5923,-93,-307,182,58,-266
0,3294909,2205,385,-3700,5926,-100,-307,182,58,-266
0,3294924,2204,386,-3692,5928,-102,-306,193,49,-261
0,3294940,2204,386,-3692,5928,-102,-306,193,49,-261
0,3294955,2203,388,-3694,5929,-97,-310,193,49,-261
0,3294967,2206,390,-3690,5929,-95,-309,193,49,-261
0,3294982,2206,390,-3690,5929,-95,-309,193,49,-261
0,3294993,2201,400,-3695,5936,-95,-309,193,49,-261
0,3295006,2204,398,-3699,5929,-102,-306,193,49,-261
0,3295020,2204,398,-3699,5929,-102,-306,193,49,-261
0,3295033,2200,412,-3694,5928,-99,-305,193,49,-261
0,3295047,2209,400,-3699,5930,-106,-305,190,48,-280
0,3295055,2209,400,-3699,5930,-106,-305,190,48,-280
0,3295066,2204,412,-3699,5924,-102,-306,190,48,-280
0,3295080,2204,412,-3699,5924,-102,-306,190,48,-280
0,3295094,2202,408,-3694,5927,-99,-314,190,48,-280
0,3295105,2202,415,-3698,5929,-100,-303,190,48,-280
0,3295117,2202,415,-3698,5929,-100,-303,190,48,-280
0,3295125,2202,396,-3698,5935,-103,-308,190,48,-280
0,3295134,2202,396,-3698,5935,-103,-308,190,48,-280
0,3295142,2202,396,-3698,5935,-103,-308,190,48,-280
0,3295150,2206,408,-3695,5929,-100,-312,190,48,-280
0,3295158,2206,408,-3695,5929,-100,-312,190,48,-280
0,3295166,2199,402,-3700,5929,-99,-312,190,48,-280
0,3295175,2199,402,-3700,5929,-99,-312,190,48,-280
0,3295183,2199,402,-3700,5929,-99,-312,190,48,-280
0,3295192,2204,404,-3693,5934,-92,-304,207,51,-279
0,3295199,2204,404,-3693,5934,-92,-304,207,51,-279
0,3295208,2201,389,-3702,5928,-101,-305,207,51,-279
0,3295216,2201,389,-3702,5928,-101,-305,207,51,-279
0,3295224,2201,389,-3702,5928,-101,-305,207,51,-279
0,3295233,2205,397,-3698,5927,-107,-303,207,51,-279
0,3295242,2205,397,-3698,5927,-107,-303,207,51,-279
0,3295250,2203,387,-3708,5928,-101,-307,207,51,-279
0,3295258,2203,387,-3708,5928,-101,-307,207,51,-279
0,3295267,2204,393,-3697,5928,-103,-300,207,51,-279
0,3295276,2204,393,-3697,5928,-103,-300,207,51,-279
0,3295284,2204,393,-3697,5928,-103,-300,207,51,-279
0,3295292,2206,398,-3700,5928,-105,-307,207,51,-279
0,3295301,2206,398,-3700,5928,-105,-307,207,51,-279
0,3295308,2203,402,-3698,5933,-102,-307,211,47,-281
0,3295316,2203,402,-3698,5933,-102,-307,211,47,-281
0,3295326,2201,411,-3698,5925,-104,-305,211,47,-281
0,3295334,2201,411,-3698,5925,-104,-305,211,47,-281
0,3295343,2201,411,-3698,5925,-104,-305,211,47,-281
0,3295352,2200,399,-3701,5929,-102,-307,211,47,-281
0,3295362,2200,399,-3701,5929,-102,-307,211,47,-281
0,3295370,2200,420,-3705,5924,-101,-312,211,47,-281
0,3295379,2200,420,-3705,5924,-101,-312,211,47,-281
0,3295388,2198,446,-3696,5924,-104,-311,211,47,-281
0,3295396,2198,446,-3696,5924,-104,-311,211,47,-281
0,3295406,2196,413,-3697,5926,-105,-309,211,47,-281
0,3295415,2196,413,-3697,5926,-105,-309,211,47,-281
0,3295424,2196,413,-3697,5926,-105,-309,211,47,-281
0,3295432,2203,413,-3691,5929,-97,-310,211,47,-281
0,3295440,2203,413,-3691,5929,-97,-310,211,47,-281
0,3295450,2203,427,-3693,5927,-105,-310,218,34,-280
0,3295458,2203,427,-3693,5927,-105,-310,218,34,-280
0,3295466,2198,420,-3690,5926,-103,-302,218,34,-280
0,3295475,2198,420,-3690,5926,-103,-302,218,34,-280
0,3295482,2198,420,-3690,5926,-103,-302,218,34,-280
0,3295491,2205,418,-3693,5919,-104,-304,218,34,-280
0,3295499,2205,418,-3693,5919,-104,-304,218,34,-280
0,3295507,2203,411,-3692,5915,-100,-313,218,34,-280
0,3295515,2203,411,-3692,5915,-100,-313,218,34,-280
0,3295525,2204,426,-3691,5911,-105,-308,218,34,-280
0,3295534,2204,426,-3691,5911,-105,-308,218,34,-280
0,3295542,2204,426,-3691,5911,-105,-308,218,34,-280
0,3295550,2197,410,-3689,5913,-100,-302,218,34,-280
0,3295559,2197,410,-3689,5913,-100,-302,218,34,-280
0,3295567,2199,428,-3688,5923,-98,-306,213,43,-289
0,3295576,2199,428,-3688,5923,-98,-306,213,43,-289
0,3295584,2199,428,-3688,5923,-98,-306,213,43,-289
0,3295592,2203,414,-3691,5919,-106,-309,213,43,-289
0,3295600,2203,414,-3691,5919,-106,-309,213,43,-289
0,3295608,2201,417,-3692,5915,-108,-304,213,43,-289
0,3295618,2201,417,-3692,5915,-108,-304,213,43,-289
0,3295625,2205,408,-3696,5916,-101,-301,213,43,-289
0,3295633,2205,408,-3696,5916,-101,-301,213,43,-289
0,3295641,2205,408,-3696,5916,-101,-301,213,43,-289
0,3295650,2201,430,-3689,5911,-106,-307,213,43,-289
0,3295659,2201,430,-3689,5911,-106,-307,213,43,-289
0,3295668,2204,412,-3692,5915,-106,-309,213,43,-289
0,3295676,2204,412,-3692,5915,-106,-309,213,43,-289
0,3295684,2204,412,-3692,5915,-106,-309,213,43,-289
0,3295693,2200,415,-3685,5920,-106,-308,213,43,-289
0,3295702,2200,415,-3685,5920,-106,-308,213,43,-289
0,3295712,2198,408,-3680,5916,-104,-311,221,49,-287
0,3295720,2198,408,-3680,5916,-104,-311,221,49,-287
0,3295727,2197,427,-3677,5913,-99,-311,221,49,-287
0,3295735,2197,427,-3677,5913,-99,-311,221,49,-287
0,3295744,2197,427,-3677,5913,-99,-311,221,49,-287
0,3295751,2201,414,-3687,5913,-104,-304,221,49,-287
0,3295760,2201,414,-3687,5913,-104,-304,221,49,-287
0,3295767,2201,411,-3688,5916,-103,-305,221,49,-287
0,3295776,2201,411,-3688,5916,-103,-305,221,49,-287
0,3295784,2201,411,-3688,5916,-103,-305,221,49,-287
0,3295794,2205,398,-3690,5920,-106,-307,221,49,-287
0,3295802,2205,398,-3690,5920,-106,-307,221,49,-287
0,3295810,2200,407,-3684,5913,-105,-307,221,49,-287
0,3295817,2200,407,-3684,5913,-105,-307,221,49,-287
0,3295826,2208,387,-3681,5909,-104,-310,230,54,-286
0,3295835,2208,387,-3681,5909,-104,-310,230,54,-286
0,3295843,2208,387,-3681,5909,-104,-310,230,54,-286
0,3295853,2206,349,-3684,5902,-109,-308,230,54,-286
0,3295861,2206,349,-3684,5902,-109,-308,230,54,-286
0,3295869,2210,359,-3693,5901,-102,-312,230,54,-286
0,3295879,2210,359,-3693,5901,-102,-312,230,54,-286
0,3295887,2200,374,-3698,5904,-107,-308,230,54,-286
0,3295895,2200,374,-3698,5904,-107,-308,230,54,-286
0,3295903,2200,374,-3698,5904,-107,-308,230,54,-286
0,3295911,2203,361,-3689,5907,-106,-309,230,54,-286
0,3295921,2203,361,-3689,5907,-106,-309,230,54,-286
0,3295930,2203,360,-3695,5923,-107,-306,230,54,-286
0,3295939,2203,360,-3695,5923,-107,-306,230,54,-286
0,3295947,2209,358,-3696,5929,-104,-311,235,47,-279
0,3295955,2209,358,-3696,5929,-104,-311,235,47,-279
0,3295965,2209,358,-3696,5929,-104,-311,235,47,-279
0,3295973,2207,394,-3698,5923,-99,-307,235,47,-279
0,3295982,2207,394,-3698,5923,-99,-307,235,47,-279
0,3295992,2200,386,-3700,5932,-102,-310,235,47,-279
0,3296001,2200,386,-3700,5932,-102,-310,235,47,-279
0,3296010,2206,402,-3698,5936,-108,-319,235,47,-279
0,3296018,2206,402,-3698,5936,-108,-319,235,47,-279
0,3296027,2211,394,-3702,5927,-106,-306,235,47,-279
0,3296035,2211,394,-3702,5927,-106,-306,235,47,-279
0,3296045,2211,394,-3702,5927,-106,-306,235,47,-279
0,3296052,2201,410,-3694,5929,-100,-305,235,47,-279
0,3296061,2201,410,-3694,5929,-100,-305,235,47,-279
0,3296070,2204,402,-3697,5930,-105,-305,235,47,-279
0,3296079,2204,402,-3697,5930,-105,-305,235,47,-279
0,3296088,2196,406,-3687,5933,-100,-316,239,57,-289
0,3296095,2196,406,-3687,5933,-100,-316,239,57,-289
0,3296103,2196,406,-3687,5933,-100,-316,239,57,-289
0,3296111,2209,399,-3695,5934,-106,-314,239,57,-289
0,3296121,2209,399,-3695,5934,-106,-314,239,57,-289
0,3296137,2197,393,-3687,5928,-108,-305,239,57,-289
0,3296149,2203,410,-3704,5913,-113,-308,239,57,-289
0,3296161,2203,410,-3704,5913,-113,-308,239,57,-289
0,3296175,2204,397,-3699,5915,-107,-314,239,57,-289
0,3296183,2204,397,-3699,5915,-107,-314,239,57,-289
0,3296194,2204,402,-3698,5911,-105,-315,239,57,-289
0,3296207,2207,390,-3696,5923,-95,-308,241,47,-277
0,3296221,2207,390,-3696,5923,-95,-308,241,47,-277
0,3296234,2200,417,-3700,5925,-109,-306,241,47,-277
0,3296246,2203,400,-3696,5916,-99,-312,241,47,-277
0,3296259,2203,400,-3696,5916,-99,-312,241,47,-277
0,3296272,2198,410,-3698,5924,-103,-313,241,47,-277
0,3296283,2198,410,-3698,5924,-103,-313,241,47,-277
0,3296295,2207,390,-3702,5912,-105,-308,241,47,-277
0,3296309,2197,416,-3707,5919,-112,-301,241,47,-277
0,3296322,2197,416,-3707,5919,-112,-301,241,47,-277
0,3296334,2203,407,-3699,5926,-108,-310,241,47,-277
0,3296349,2197,411,-3697,5924,-104,-307,241,45,-273
0,3296364,2197,411,-3697,5924,-104,-307,241,45,-273
0,3296379,2204,425,-3697,5922,-108,-310,241,45,-273
0,3296393,2199,428,-3698,5927,-108,-305,241,45,-273
0,3296408,2201,422,-3698,5930,-105,-311,241,45,-273
0,3296422,2201,422,-3698,5930,-105,-311,241,45,-273
0,3296437,2203,411,-3691,5925,-103,-307,241,45,-273
0,3296448,2206,431,-3689,5924,-103,-305,241,45,-273
0,3296462,2206,431,-3689,5924,-103,-305,241,45,-273
0,3296477,2196,415,-3690,5916,-102,-300,251,51,-277
0,3296490,2200,425,-3686,5912,-104,-311,251,51,-277
0,3296504,2200,425,-3686,5912,-104,-311,251,51,-277
0,3296519,2202,409,-3694,5923,-108,-313,251,51,-277
0,3296529,2202,423,-3689,5922,-103,-303,251,51,-277
0,3296542,2202,423,-3689,5922,-103,-303,251,51,-277
0,3296556,2205,407,-3691,5922,-102,-301,251,51,-277
0,3296568,2200,424,-3686,5912,-107,-300,251,51,-277
0,3296581,2200,424,-3686,5912,-107,-300,251,51,-277
0,3296592,2205,414,-3691,5922,-113,-301,251,51,-277
0,3296609,2199,411,-3685,5920,-107,-307,251,51,-261
0,3296624,2199,411,-3685,5920,-107,-307,251,51,-261
0,3296640,2202,410,-3686,5916,-100,-306,251,51,-261
0,3296653,2202,413,-3685,5920,-100,-305,251,51,-261
0,3296665,2202,413,-3685,5920,-100,-305,251,51,-261
0,3296679,2202,413,-3685,5920,-100,-305,251,51,-261
0,3296694,2203,397,-3685,5916,-98,-308,251,51,-261
0,3296707,2203,400,-3683,5912,-96,-313,251,51,-261
0,3296720,2203,400,-3683,5912,-96,-313,251,51,-261
0,3296735,2199,406,-3685,5910,-102,-312,238,58,-252
0,3296748,2201,404,-3684,5912,-98,-308,238,58,-252
0,3296760,2201,404,-3684,5912,-98,-308,238,58,-252
0,3296775,2198,380,-3688,5916,-93,-310,238,58,-252
0,3296789,2208,363,-3686,5918,-95,-308,238,58,-252
0,3296803,2208,363,-3686,5918,-95,-308,238,58,-252
0,3296815,2204,373,-3692,5922,-106,-306,238,58,-252
0,3296828,2207,374,-3684,5911,-106,-307,238,58,-252
0,3296842,2207,374,-3684,5911,-106,-307,238,58,-252
0,3296856,2199,371,-3687,5919,-103,-310,240,52,-250
0,3296868,2204,365,-3689,5918,-96,-315,240,52,-250
0,3296884,2204,365,-3689,5918,-96,-315,240,52,-250
0,3296900,2203,387,-3698,5913,-94,-308,240,52,-250
0,3296914,2201,370,-3699,5915,-98,-310,240,52,-250
0,3296927,2202,396,-3702,5911,-107,-306,240,52,-250
0,3296942,2202,396,-3702,5911,-107,-306,240,52,-250
0,3296955,2203,378,-3702,5932,-103,-309,240,52,-250
0,3296965,2203,378,-3702,5932,-103,-309,240,52,-250
0,3296976,2206,395,-3703,5925,-104,-311,240,52,-250
0,3296990,2207,384,-3697,5933,-97,-302,239,47,-255
0,3297004,2207,384,-3697,5933,-97,-302,239,47,-255
0,3297016,2201,409,-3693,5929,-105,-308,239,47,-255
0,3297030,2203,396,-3696,5928,-102,-311,239,47,-255
0,3297045,2203,396,-3696,5928,-102,-311,239,47,-255
0,3297060,2202,411,-3695,5935,-96,-303,239,47,-255
0,3297076,2198,398,-3699,5936,-93,-303,239,47,-255
0,3297090,2206,410,-3691,5927,-103,-307,239,47,-255
0,3297102,2206,410,-3691,5927,-103,-307,239,47,-255
0,3297117,2199,406,-3698,5924,-98,-312,243,53,-235
0,3297129,2202,406,-3691,5929,-103,-311,243,53,-235
0,3297136,2202,406,-3691,5929,-103,-311,243,53,-235
0,3297145,2202,406,-3691,5929,-103,-311,243,53,-235
0,3297154,2202,406,-3691,5929,-103,-311,243,53,-235
0,3297162,2202,406,-3691,5929,-103,-311,243,53,-235
0,3297170,2201,401,-3693,5918,-100,-302,243,53,-235
0,3297179,2201,401,-3693,5918,-100,-302,243,53,-235
0,3297187,2203,396,-3698,5916,-107,-302,243,53,-235
0,3297197,2203,396,-3698,5916,-107,-302,243,53,-235
0,3297205,2203,396,-3698,5916,-107,-302,243,53,-235
0,3297214,2203,383,-3695,5920,-105,-305,243,53,-235
0,3297222,2203,383,-3695,5920,-105,-305,243,53,-235
0,3297231,2202,391,-3693,5923,-105,-311,243,53,-235
0,3297240,2202,391,-3693,5923,-105,-311,243,53,-235
0,3297250,2203,384,-3690,5923,-97,-306,245,41,-233
0,3297259,2203,384,-3690,5923,-97,-306,245,41,-233
0,3297267,2200,401,-3695,5913,-102,-305,245,41,-233
0,3297275,2200,401,-3695,5913,-102,-305,245,41,-233
0,3297284,2200,401,-3695,5913,-102,-305,245,41,-233
0,3297293,2200,380,-3697,5918,-101,-307,245,41,-233
0,3297301,2200,380,-3697,5918,-101,-307,245,41,-233
0,3297308,2201,408,-3692,5927,-106,-305,245,41,-233
0,3297317,2201,408,-3692,5927,-106,-305,245,41,-233
0,3297326,2201,408,-3692,5927,-106,-305,245,41,-233
0,3297335,2201,396,-3694,5925,-100,-312,245,41,-233
0,3297343,2201,396,-3694,5925,-100,-312,245,41,-233
0,3297351,2201,415,-3693,5925,-96,-308,245,41,-233
0,3297359,2201,415,-3693,5925,-96,-308,245,41,-233
0,3297370,2201,394,-3698,5934,-103,-309,236,50,-222
0,3297378,2201,394,-3698,5934,-103,-309,236,50,-222
0,3297387,2201,394,-3698,5934,-103,-309,236,50,-222
0,3297394,2199,445,-3697,5935,-101,-308,236,50,-222
0,3297402,2199,445,-3697,5935,-101,-308,236,50,-222
0,3297412,2200,413,-3693,5925,-104,-311,236,50,-222
0,3297421,2200,413,-3693,5925,-104,-311,236,50,-222
0,3297429,2197,421,-3688,5931,-103,-309,236,50,-222
0,3297438,2197,421,-3688,5931,-103,-309,236,50,-222
0,3297447,2201,396,-3698,5928,-106,-309,236,50,-222
0,3297456,2201,396,-3698,5928,-106,-309,236,50,-222
0,3297465,2201,396,-3698,5928,-106,-309,236,50,-222
0,3297473,2204,442,-3691,5917,-101,-309,236,50,-222
0,3297482,2204,442,-3691,5917,-101,-309,236,50,-222
0,3297490,2197,403,-3695,5916,-106,-302,236,50,-222
0,3297501,2197,403,-3695,5916,-106,-302,236,50,-222
0,3297510,2200,425,-3680,5910,-105,-307,243,55,-225
0,3297518,2200,425,-3680,5910,-105,-307,243,55,-225
0,3297525,2200,425,-3680,5910,-105,-307,243,55,-225
0,3297534,2209,405,-3696,5914,-106,-314,243,55,-225
0,3297544,2209,405,-3696,5914,-106,-314,243,55,-225
0,3297552,2198,421,-3692,5921,-99,-311,243,55,-225
0,3297561,2198,421,-3692,5921,-99,-311,243,55,-225
0,3297569,2202,406,-3692,5924,-96,-311,243,55,-225
0,3297577,2202,406,-3692,5924,-96,-311,243,55,-225
0,3297586,2202,406,-3692,5924,-96,-311,243,55,-225
0,3297595,2198,428,-3683,5919,-107,-315,243,55,-225
0,3297604,2198,428,-3683,5919,-107,-315,243,55,-225
0,3297612,2205,413,-3694,5915,-114,-313,243,55,-225
0,3297622,2205,413,-3694,5915,-114,-313,243,55,-225
0,3297631,2197,417,-3677,5917,-105,-309,235,55,-213
0,3297639,2197,417,-3677,5917,-105,-309,235,55,-213
0,3297647,2197,417,-3677,5917,-105,-309,235,55,-213
0,3297654,2201,408,-3683,5916,-100,-308,235,55,-213
0,3297662,2201,408,-3683,5916,-100,-308,235,55,-213
0,3297671,2198,423,-3689,5918,-101,-315,235,55,-213
0,3297681,2198,423,-3689,5918,-101,-315,235,55,-213
0,3297689,2202,414,-3686,5922,-97,-306,235,55,-213
0,3297698,2202,414,-3686,5922,-97,-306,235,55,-213
0,3297708,2202,412,-3683,5919,-93,-310,235,55,-213
0,3297716,2202,412,-3683,5919,-93,-310,235,55,-213
0,3297724,2202,412,-3683,5919,-93,-310,235,55,-213
0,3297732,2202,413,-3681,5916,-105,-303,235,55,-213
0,3297741,2202,413,-3681,5916,-105,-303,235,55,-213
0,3297751,2202,418,-3685,5917,-110,-312,236,56,-204
0,3297760,2202,418,-3685,5917,-110,-312,236,56,-204
0,3297770,2205,412,-3677,5914,-99,-311,236,56,-204
0,3297777,2205,412,-3677,5914,-99,-311,236,56,-204
0,3297786,2205,412,-3677,5914,-99,-311,236,56,-204
0,3297794,2199,407,-3689,5912,-102,-306,236,56,-204
0,3297804,2199,407,-3689,5912,-102,-306,236,56,-204
0,3297812,2201,404,-3690,5912,-106,-318,236,56,-204
0,3297822,2201,404,-3690,5912,-106,-318,236,56,-204
0,3297830,2201,401,-3682,5912,-107,-306,236,56,-204
0,3297840,2201,401,-3682,5912,-107,-306,236,56,-204
0,3297848,2202,386,-3681,5906,-98,-303,236,56,-204
0,3297856,2202,386,-3681,5906,-98,-303,236,56,-204
0,3297864,2202,386,-3681,5906,-98,-303,236,56,-204
0,3297874,2208,339,-3687,5918,-99,-299,236,56,-204
0,3297883,2208,339,-3687,5918,-99,-299,236,56,-204
0,3297892,2207,364,-3684,5913,-101,-305,227,59,-191
0,3297900,2207,364,-3684,5913,-101,-305,227,59,-191
0,3297908,2207,364,-3684,5913,-101,-305,227,59,-191
0,3297920,2207,364,-3684,5913,-101,-305,227,59,-191
0,3297928,2204,365,-3689,5908,-96,-302,227,59,-191
0,3297935,2204,365,-3689,5908,-96,-302,227,59,-191
0,3297945,2204,365,-3689,5908,-96,-302,227,59,-191
0,3297954,2208,340,-3696,5902,-103,-311,227,59,-191
0,3297963,2208,340,-3696,5902,-103,-311,227,59,-191
0,3297971,2211,375,-3697,5912,-103,-307,227,59,-191
0,3297977,2211,375,-3697,5912,-103,-307,227,59,-191
0,3297987,2211,375,-3697,5912,-103,-307,227,59,-191
0,3297995,2204,370,-3700,5924,-111,-301,227,59,-191
0,3298004,2204,370,-3700,5924,-111,-301,227,59,-191
0,3298014,2196,397,-3695,5925,-104,-306,212,64,-188
0,3298022,2196,397,-3695,5925,-104,-306,212,64,-188
0,3298030,2200,382,-3696,5932,-107,-306,212,64,-188
0,3298039,2200,382,-3696,5932,-107,-306,212,64,-188
0,3298048,2206,408,-3695,5933,-101,-315,212,64,-188
0,3298057,2206,408,-3695,5933,-101,-315,212,64,-188
0,3298066,2206,408,-3695,5933,-101,-315,212,64,-188
0,3298072,2201,385,-3700,5925,-100,-299,212,64,-188
0,3298081,2201,385,-3700,5925,-100,-299,212,64,-188
0,3298092,2200,422,-3698,5935,-111,-308,212,64,-188
0,3298099,2200,422,-3698,5935,-111,-308,212,64,-188
0,3298105,2200,422,-3698,5935,-111,-308,212,64,-188
0,3298114,2201,392,-3694,5930,-105,-314,212,64,-188
0,3298123,2201,392,-3694,5930,-105,-314,212,64,-188
0,3298130,2205,403,-3699,5923,-107,-304,212,64,-188
0,3298145,2205,403,-3699,5923,-107,-304,212,64,-188
0,3298156,2205,381,-3692,5925,-102,-306,210,58,-186
0,3298165,2205,381,-3692,5925,-102,-306,210,58,-186
0,3298179,2197,408,-3696,5922,-99,-304,210,58,-186
0,3298193,2205,393,-3699,5917,-104,-307,210,58,-186
0,3298206,2205,393,-3699,5917,-104,-307,210,58,-186
0,3298219,2199,400,-3700,5924,-105,-313,210,58,-186
0,3298234,2202,386,-3701,5926,-96,-309,210,58,-186
0,3298248,2198,411,-3702,5919,-104,-302,210,58,-186
0,3298263,2198,411,-3702,5919,-104,-302,210,58,-186
0,3298276,2203,406,-3694,5925,-101,-310,192,68,-166
0,3298291,2200,402,-3698,5919,-96,-305,192,68,-166
0,3298306,2200,402,-3698,5919,-96,-305,192,68,-166
0,3298320,2203,400,-3696,5930,-101,-301,192,68,-166
0,3298333,2202,406,-3698,5930,-103,-306,192,68,-166
0,3298347,2202,406,-3698,5930,-103,-306,192,68,-166
0,3298361,2203,411,-3691,5929,-109,-305,192,68,-166
0,3298373,2203,411,-3691,5929,-109,-305,192,68,-166
0,3298386,2203,411,-3691,5929,-109,-305,192,68,-166
0,3298400,2201,426,-3696,5927,-106,-310,191,73,-175
0,3298410,2199,411,-3694,5936,-102,-301,191,73,-175
0,3298422,2199,411,-3694,5936,-102,-301,191,73,-175
0,3298437,2205,417,-3692,5931,-104,-304,191,73,-175
0,3298451,2204,424,-3696,5930,-97,-311,191,73,-175
0,3298465,2204,424,-3696,5930,-97,-311,191,73,-175
0,3298478,2195,422,-3694,5928,-92,-304,191,73,-175
0,3298493,2202,412,-3694,5932,-99,-310,191,73,-175
0,3298508,2202,412,-3694,5932,-99,-310,191,73,-175
0,3298523,2201,413,-3694,5925,-109,-307,191,73,-175
0,3298537,2202,419,-3692,5923,-107,-311,184,66,-166
0,3298550,2203,413,-3692,5925,-97,-304,184,66,-166
0,3298565,2203,413,-3692,5925,-97,-304,184,66,-166
0,3298576,2200,414,-3687,5920,-101,-310,184,66,-166
0,3298585,2200,414,-3687,5920,-101,-310,184,66,-166
0,3298599,2202,413,-3692,5921,-110,-307,184,66,-166
0,3298613,2201,413,-3689,5918,-103,-305,184,66,-166
0,3298624,2201,413,-3689,5918,-103,-305,184,66,-166
0,3298638,2198,409,-3692,5921,-100,-308,184,66,-166
0,3298653,2204,418,-3685,5919,-104,-316,171,65,-177
0,3298665,2204,418,-3685,5919,-104,-316,171,65,-177
0,3298679,2200,411,-3680,5914,-103,-311,171,65,-177
0,3298695,2204,406,-3683,5912,-97,-308,171,65,-177
0,3298710,2199,406,-3686,5913,-99,-302,171,65,-177
0,3298725,2199,406,-3686,5913,-99,-302,171,65,-177
0,3298739,2206,413,-3687,5915,-104,-304,171,65,-177
0,3298753,2202,399,-3692,5915,-99,-305,171,65,-177
0,3298765,2202,399,-3692,5915,-99,-305,171,65,-177
0,3298777,2206,397,-3688,5910,-101,-306,171,65,-177
0,3298791,2202,399,-3683,5913,-106,-308,172,64,-172
0,3298804,2202,399,-3683,5913,-106,-308,172,64,-172
0,3298818,2203,377,-3686,5920,-100,-302,172,64,-172
0,3298832,2208,362,-3690,5919,-99,-303,172,64,-172
0,3298847,2208,362,-3690,5919,-99,-303,172,64,-172
0,3298860,2209,361,-3686,5922,-101,-308,172,64,-172
0,3298872,2211,382,-3691,5915,-104,-302,172,64,-172
0,3298887,2211,382,-3691,5915,-104,-302,172,64,-172
0,3298903,2203,361,-3698,5922,-96,-306,172,64,-172
0,3298916,2206,379,-3691,5921,-93,-311,169,63,-175
0,3298929,2206,362,-3696,5922,-99,-314,169,63,-175
0,3298945,2206,362,-3696,5922,-99,-314,169,63,-175
0,3298959,2202,391,-3694,5925,-103,-302,169,63,-175
0,3298973,2203,379,-3699,5938,-97,-303,169,63,-175
0,3298987,2203,379,-3699,5938,-97,-303,169,63,-175
0,3299001,2201,396,-3693,5933,-95,-300,169,63,-175
0,3299013,2205,379,-3709,5924,-100,-308,169,63,-175
0,3299025,2205,379,-3709,5924,-100,-308,169,63,-175
0,3299039,2205,402,-3690,5922,-102,-299,169,63,-175
0,3299053,2197,400,-3697,5928,-104,-308,168,70,-172
0,3299066,2197,400,-3697,5928,-104,-308,168,70,-172
0,3299081,2204,410,-3691,5930,-105,-304,168,70,-172
0,3299093,2204,396,-3703,5923,-108,-313,168,70,-172
0,3299107,2204,396,-3703,5923,-108,-313,168,70,-172
0,3299121,2204,400,-3696,5929,-104,-309,168,70,-172
0,3299133,2202,408,-3698,5931,-103,-311,168,70,-172
0,3299144,2202,408,-3698,5931,-103,-311,168,70,-172
0,3299153,2203,404,-3701,5940,-96,-298,168,70,-172
0,3299162,2203,404,-3701,5940,-96,-298,168,70,-172
0,3299171,2205,400,-3693,5927,-100,-303,155,75,-173
0,3299180,2205,400,-3693,5927,-100,-303,155,75,-173
0,3299188,2205,400,-3693,5927,-100,-303,155,75,-173
0,3299196,2200,390,-3695,5921,-98,-312,155,75,-173
0,3299206,2200,390,-3695,5921,-98,-312,155,75,-173
0,3299214,2203,406,-3697,5923,-100,-309,155,75,-173
0,3299222,2203,406,-3697,5923,-100,-309,155,75,-173
0,3299231,2199,392,-3704,5921,-108,-307,155,75,-173
0,3299239,2199,392,-3704,5921,-108,-307,155,75,-173
0,3299249,2199,392,-3704,5921,-108,-307,155,75,-173
0,3299257,2201,400,-3692,5927,-107,-307,155,75,-173
0,3299265,2201,400,-3692,5927,-107,-307,155,75,-173
0,3299274,2208,381,-3699,5923,-112,-305,155,75,-173
0,3299282,2208,381,-3699,5923,-112,-305,155,75,-173
0,3299291,2206,402,-3698,5931,-105,-303,153,79,-173
0,3299299,2206,402,-3698,5931,-105,-303,153,79,-173
0,3299307,2206,402,-3698,5931,-105,-303,153,79,-173
0,3299316,2203,386,-3691,5934,-100,-309,153,79,-173
0,3299324,2203,386,-3691,5934,-100,-309,153,79,-173
0,3299334,2205,409,-3696,5931,-103,-308,153,79,-173
0,3299341,2205,409,-3696,5931,-103,-308,153,79,-173
0,3299349,2205,409,-3696,5931,-103,-308,153,79,-173
0,3299357,2205,400,-3695,5930,-104,-303,153,79,-173
0,3299366,2205,400,-3695,5930,-104,-303,153,79,-173
0,3299375,2200,405,-3695,5931,-100,-303,153,79,-173
0,3299384,2200,405,-3695,5931,-100,-303,153,79,-173
0,3299392,2204,422,-3698,5919,-107,-301,153,79,-173
0,3299400,2204,422,-3698,5919,-107,-301,153,79,-173
0,3299409,2204,422,-3698,5919,-107,-301,153,79,-173
0,3299419,2202,441,-3694,5920,-111,-299,153,79,-173
0,3299427,2202,441,-3694,5920,-111,-299,153,79,-173
0,3299435,2205,411,-3691,5928,-108,-310,152,86,-180
0,3299445,2205,411,-3691,5928,-108,-310,152,86,-180
0,3299454,2206,405,-3691,5938,-106,-314,152,86,-180
0,3299463,2206,405,-3691,5938,-106,-314,152,86,-180
0,3299471,2204,435,-3702,5933,-103,-302,152,86,-180
0,3299480,2204,435,-3702,5933,-103,-302,152,86,-180
0,3299488,2204,435,-3702,5933,-103,-302,152,86,-180
0,3299499,2199,419,-3693,5922,-106,-298,152,86,-180
0,3299507,2199,419,-3693,5922,-106,-298,152,86,-180
0,3299516,2205,420,-3685,5931,-100,-301,152,86,-180
0,3299524,2205,420,-3685,5931,-100,-301,152,86,-180
0,3299533,2204,402,-3689,5924,-98,-317,152,86,-180
0,3299542,2204,402,-3689,5924,-98,-317,152,86,-180
0,3299550,2201,424,-3690,5929,-101,-305,148,84,-180
0,3299559,2201,424,-3690,5929,-101,-305,148,84,-180
0,3299567,2201,424,-3690,5929,-101,-305,148,84,-180
0,3299575,2198,412,-3684,5925,-103,-300,148,84,-180
0,3299585,2198,412,-3684,5925,-103,-300,148,84,-180
0,3299593,2200,430,-3680,5918,-101,-309,148,84,-180
0,3299602,2200,430,-3680,5918,-101,-309,148,84,-180
0,3299611,2206,409,-3687,5920,-109,-314,148,84,-180
0,3299619,2206,409,-3687,5920,-109,-314,148,84,-180
0,3299629,2206,409,-3687,5920,-109,-314,148,84,-180
0,3299637,2205,426,-3689,5920,-106,-304,148,84,-180
0,3299646,2205,426,-3689,5920,-106,-304,148,84,-180
0,3299655,2202,403,-3689,5917,-105,-301,148,84,-180
0,3299663,2202,403,-3689,5917,-105,-301,148,84,-180
0,3299672,2202,430,-3682,5922,-105,-302,148,84,-180
0,3299680,2202,430,-3682,5922,-105,-302,148,84,-180
0,3299688,2202,430,-3682,5922,-105,-302,148,84,-180
0,3299696,2201,410,-3676,5926,-108,-312,145,89,-189
0,3299704,2201,410,-3676,5926,-108,-312,145,89,-189
0,3299714,2204,420,-3680,5922,-100,-304,145,89,-189
0,3299722,2204,420,-3680,5922,-100,-304,145,89,-189
0,3299730,2201,402,-3679,5913,-98,-302,145,89,-189
0,3299739,2201,402,-3679,5913,-98,-302,145,89,-189
0,3299748,2201,402,-3679,5913,-98,-302,145,89,-189
0,3299757,2206,429,-3681,5909,-101,-307,145,89,-189
0,3299766,2206,429,-3681,5909,-101,-307,145,89,-189
0,3299774,2206,411,-3681,5917,-106,-313,145,89,-189
0,3299783,2206,411,-3681,5917,-106,-313,145,89,-189
0,3299791,2198,412,-3680,5907,-97,-312,145,89,-189
0,3299800,2198,412,-3680,5907,-97,-312,145,89,-189
0,3299810,2198,412,-3680,5907,-97,-312,145,89,-189
0,3299817,2206,407,-3678,5917,-94,-306,146,88,-186
0,3299826,2206,407,-3678,5917,-94,-306,146,88,-186
0,3299834,2201,422,-3682,5921,-103,-310,146,88,-186
0,3299843,2201,422,-3682,5921,-103,-310,146,88,-186
0,3299851,2209,392,-3685,5915,-103,-310,146,88,-186
0,3299859,2209,392,-3685,5915,-103,-310,146,88,-186
0,3299867,2209,392,-3685,5915,-103,-310,146,88,-186
0,3299875,2206,365,-3688,5906,-103,-308,146,88,-186
0,3299884,2206,365,-3688,5906,-103,-308,146,88,-186
0,3299891,2210,344,-3681,5910,-106,-304,146,88,-186
0,3299899,2210,344,-3681,5910,-106,-304,146,88,-186
0,3299908,2210,344,-3681,5910,-106,-304,146,88,-186
0,3299915,2201,372,-3687,5912,-104,-304,146,88,-186
0,3299924,2201,372,-3687,5912,-104,-304,146,88,-186
0,3299933,2205,360,-3683,5916,-98,-304,146,88,-186
0,3299942,2205,360,-3683,5916,-98,-304,146,88,-186
0,3299948,2205,360,-3683,5916,-98,-304,146,88,-186
0,3299957,2199,358,-3681,5913,-103,-311,143,87,-199
0,3299966,2199,358,-3681,5913,-103,-311,143,87,-199
0,3299976,2213,348,-3688,5917,-98,-312,143,87,-199
0,3299984,2213,348,-3688,5917,-98,-312,143,87,-199
0,3299992,2204,382,-3696,5928,-96,-311,143,87,-199
0,3299998,2204,382,-3696,5928,-96,-311,143,87,-199
0,3300007,2204,382,-3696,5928,-96,-311,143,87,-199
0,3300017,2205,383,-3694,5933,-93,-305,143,87,-199
0,3300024,2205,383,-3694,5933,-93,-305,143,87,-199
0,3300033,2202,395,-3695,5931,-102,-308,143,87,-199
0,3300041,2202,395,-3695,5931,-102,-308,143,87,-199
0,3300050,2209,385,-3694,5929,-105,-316,143,87,-199
0,3300061,2209,385,-3694,5929,-105,-316,143,87,-199
0,3300069,2209,385,-3694,5929,-105,-316,143,87,-199
0,3300077,2208,403,-3689,5931,-101,-302,142,84,-194
0,3300086,2208,403,-3689,5931,-101,-302,142,84,-194
0,3300094,2199,402,-3691,5931,-96,-301,142,84,-194
0,3300101,2199,402,-3691,5931,-96,-301,142,84,-194
0,3300109,2199,402,-3691,5931,-96,-301,142,84,-194
0,3300118,2201,409,-3687,5923,-99,-314,142,84,-194
0,3300127,2201,409,-3687,5923,-99,-314,142,84,-194
0,3300135,2203,397,-3687,5921,-107,-310,142,84,-194
0,3300144,2203,397,-3687,5921,-107,-310,142,84,-194
0,3300152,2206,389,-3690,5921,-98,-307,142,84,-194
0,3300167,2206,389,-3690,5921,-98,-307,142,84,-194
0,3300182,2204,401,-3692,5922,-96,-302,142,84,-194
0,3300195,2204,397,-3689,5925,-97,-310,133,91,-205
0,3300209,2204,397,-3689,5925,-97,-310,133,91,-205
0,3300222,2206,407,-3697,5920,-105,-314,133,91,-205
0,3300237,2210,383,-3695,5925,-112,-304,133,91,-205
0,3300253,2202,407,-3705,5927,-102,-301,133,91,-205
0,3300267,2202,407,-3705,5927,-102,-301,133,91,-205
0,3300280,2205,398,-3697,5918,-102,-314,133,91,-205
0,3300293,2201,417,-3698,5922,-100,-309,133,91,-205
0,3300306,2201,417,-3698,5922,-100,-309,133,91,-205
0,3300321,2203,390,-3693,5930,-100,-304,133,91,-205
0,3300335,2197,414,-3691,5934,-98,-302,148,80,-208
0,3300347,2197,414,-3691,5934,-98,-302,148,80,-208
0,3300363,2200,404,-3693,5939,-94,-304,148,80,-208
0,3300378,2206,420,-3694,5933,-101,-301,148,80,-208
0,3300393,2209,414,-3696,5934,-104,-311,148,80,-208
0,3300409,2209,414,-3696,5934,-104,-311,148,80,-208
0,3300420,2199,436,-3697,5929,-114,-304,148,80,-208
0,3300434,2205,416,-3695,5924,-106,-304,148,80,-208
0,3300448,2205,416,-3695,5924,-106,-304,148,80,-208
0,3300462,2201,420,-3691,5924,-103,-307,145,81,-215
0,3300475,2211,430,-3685,5919,-104,-307,145,81,-215
0,3300489,2211,430,-3685,5919,-104,-307,145,81,-215
0,3300505,2197,422,-3684,5916,-101,-298,145,81,-215
0,3300516,2210,424,-3685,5925,-95,-302,145,81,-215
0,3300530,2210,424,-3685,5925,-95,-302,145,81,-215
0,3300544,2201,416,-3685,5917,-106,-310,145,81,-215
0,3300557,2205,428,-3691,5925,-99,-315,145,81,-215
0,3300573,2205,404,-3690,5915,-101,-304,145,81,-215
0,3300586,2205,404,-3690,5915,-101,-304,145,81,-215
0,3300598,2206,429,-3678,5916,-99,-314,146,78,-228
0,3300614,2209,417,-3687,5915,-101,-312,146,78,-228
0,3300629,2209,417,-3687,5915,-101,-312,146,78,-228
0,3300644,2203,417,-3686,5911,-108,-305,146,78,-228
0,3300658,2207,410,-3683,5916,-104,-305,146,78,-228
0,3300670,2207,410,-3683,5916,-104,-305,146,78,-228
0,3300685,2200,421,-3684,5915,-104,-303,146,78,-228
0,3300700,2205,408,-3683,5910,-111,-314,146,78,-228
0,3300712,2205,399,-3679,5911,-106,-316,153,73,-229
0,3300725,2205,399,-3679,5911,-106,-316,153,73,-229
0,3300741,2203,409,-3666,5910,-102,-315,153,73,-229
0,3300752,2199,407,-3685,5912,-110,-301,153,73,-229
0,3300765,2199,407,-3685,5912,-110,-301,153,73,-229
0,3300779,2206,408,-3677,5907,-105,-305,153,73,-229
0,3300793,2205,391,-3694,5908,-104,-300,153,73,-229
0,3300807,2205,391,-3694,5908,-104,-300,153,73,-229
0,3300820,2211,382,-3685,5911,-110,-308,153,73,-229
0,3300833,2206,378,-3693,5922,-107,-302,153,73,-229
0,3300848,2206,378,-3693,5922,-107,-302,153,73,-229
0,3300864,2209,377,-3676,5915,-98,-303,161,65,-239
0,3300878,2205,375,-3689,5921,-100,-311,161,65,-239
0,3300891,2205,375,-3689,5921,-100,-311,161,65,-239
0,3300903,2211,375,-3686,5931,-100,-307,161,65,-239
0,3300919,2206,382,-3697,5926,-99,-303,161,65,-239
0,3300933,2208,381,-3686,5925,-103,-310,161,65,-239
0,3300946,2208,381,-3686,5925,-103,-310,161,65,-239
0,3300961,2204,392,-3691,5928,-103,-312,161,65,-239
0,3300975,2208,383,-3694,5923,-107,-309,167,65,-239
0,3300987,2208,383,-3694,5923,-107,-309,167,65,-239
0,3301001,2211,396,-3695,5927,-101,-307,167,65,-239
0,3301014,2206,389,-3695,5927,-102,-306,167,65,-239
0,3301028,2206,389,-3695,5927,-102,-306,167,65,-239
0,3301042,2204,412,-3691,5934,-108,-303,167,65,-239
0,3301057,2203,398,-3695,5932,-103,-305,167,65,-239
0,3301072,2204,415,-3697,5922,-96,-308,167,65,-239
0,3301088,2204,415,-3697,5922,-96,-308,167,65,-239
0,3301101,2206,397,-3692,5932,-106,-313,167,69,-249
0,3301114,2205,418,-3684,5933,-101,-314,167,69,-249
0,3301130,2205,418,-3684,5933,-101,-314,167,69,-249
0,3301141,2202,404,-3690,5925,-100,-311,167,69,-249
0,3301153,2207,414,-3686,5928,-108,-307,167,69,-249
0,3301163,2207,414,-3686,5928,-108,-307,167,69,-249
0,3301171,2207,414,-3686,5928,-108,-307,167,69,-249
0,3301179,2206,400,-3699,5925,-107,-300,167,69,-249
0,3301187,2206,400,-3699,5925,-107,-300,167,69,-249
0,3301194,2206,411,-3687,5918,-105,-313,167,69,-249
0,3301203,2206,411,-3687,5918,-105,-313,167,69,-249
0,3301211,2206,411,-3687,5918,-105,-313,167,69,-249
0,3301221,2204,401,-3698,5918,-100,-308,167,69,-249
0,3301229,2204,401,-3698,5918,-100,-308,167,69,-249
0,3301238,2204,408,-3685,5925,-102,-301,174,68,-254
0,3301246,2204,408,-3685,5925,-102,-301,174,68,-254
0,3301256,2205,401,-3692,5919,-101,-302,174,68,-254
0,3301265,2205,401,-3692,5919,-101,-302,174,68,-254
0,3301273,2205,398,-3696,5925,-102,-304,174,68,-254
0,3301282,2205,398,-3696,5925,-102,-304,174,68,-254
0,3301289,2205,398,-3696,5925,-102,-304,174,68,-254
0,3301297,2204,387,-3695,5923,-104,-304,174,68,-254
0,3301305,2204,387,-3695,5923,-104,-304,174,68,-254
0,3301313,2207,387,-3690,5915,-115,-312,174,68,-254
0,3301322,2207,387,-3690,5915,-115,-312,174,68,-254
0,3301330,2207,387,-3690,5915,-115,-312,174,68,-254
0,3301339,2207,403,-3688,5926,-113,-304,174,68,-254
0,3301348,2207,403,-3688,5926,-113,-304,174,68,-254
0,3301357,2205,402,-3694,5921,-105,-304,180,56,-264
0,3301365,2205,402,-3694,5921,-105,-304,180,56,-264
0,3301374,2205,415,-3686,5918,-102,-307,180,56,-264
0,3301383,2205,415,-3686,5918,-102,-307,180,56,-264
0,3301391,2205,415,-3686,5918,-102,-307,180,56,-264
0,3301399,2205,399,-3702,5921,-107,-308,180,56,-264
0,3301407,2205,399,-3702,5921,-107,-308,180,56,-264
0,3301415,2204,450,-3687,5932,-103,-308,180,56,-264
0,3301425,2204,450,-3687,5932,-103,-308,180,56,-264
0,3301434,2200,418,-3701,5932,-103,-303,180,56,-264
0,3301442,2200,418,-3701,5932,-103,-303,180,56,-264
0,3301451,2200,418,-3701,5932,-103,-303,180,56,-264
0,3301460,2201,431,-3684,5929,-98,-312,180,56,-264
0,3301469,2201,431,-3684,5929,-98,-312,180,56,-264
0,3301478,2206,394,-3702,5922,-98,-317,180,56,-264
0,3301486,2206,394,-3702,5922,-98,-317,180,56,-264
0,3301494,2206,450,-3686,5926,-105,-313,183,57,-265
0,3301504,2206,450,-3686,5926,-105,-313,183,57,-265
0,3301512,2206,450,-3686,5926,-105,-313,183,57,-265
0,3301520,2201,410,-3692,5925,-108,-299,183,57,-265
0,3301528,2201,410,-3692,5925,-108,-299,183,57,-265
0,3301536,2205,428,-3686,5923,-108,-305,183,57,-265
0,3301545,2205,428,-3686,5923,-108,-305,183,57,-265
0,3301555,2207,403,-3695,5917,-111,-310,183,57,-265
0,3301563,2207,403,-3695,5917,-111,-310,183,57,-265
0,3301573,2204,430,-3688,5913,-107,-303,183,57,-265
0,3301580,2204,430,-3688,5913,-107,-303,183,57,-265
0,3301590,2204,430,-3688,5913,-107,-303,183,57,-265
0,3301599,2205,411,-3688,5917,-107,-301,183,57,-265
0,3301609,2205,411,-3688,5917,-107,-301,183,57,-265
0,3301617,2205,434,-3682,5921,-105,-305,191,55,-275
0,3301626,2205,434,-3682,5921,-105,-305,191,55,-275
0,3301634,2206,417,-3686,5922,-114,-310,191,55,-275
0,3301643,2206,417,-3686,5922,-114,-310,191,55,-275
0,3301651,2206,417,-3686,5922,-114,-310,191,55,-275
0,3301659,2202,417,-3680,5923,-98,-306,191,55,-275
0,3301667,2202,417,-3680,5923,-98,-306,191,55,-275
0,3301675,2207,417,-3683,5917,-96,-305,191,55,-275
0,3301683,2207,417,-3683,5917,-96,-305,191,55,-275
0,3301690,2207,417,-3683,5917,-96,-305,191,55,-275
0,3301698,2202,428,-3679,5912,-101,-309,191,55,-275
0,3301707,2202,428,-3679,5912,-101,-309,191,55,-275
0,3301714,2207,415,-3675,5910,-107,-305,191,55,-275
0,3301725,2207,415,-3675,5910,-107,-305,191,55,-275
0,3301733,2206,409,-3684,5914,-106,-308,197,51,-279
0,3301741,2206,409,-3684,5914,-106,-308,197,51,-279
0,3301751,2206,409,-3684,5914,-106,-308,197,51,-279
0,3301761,2208,419,-3672,5912,-107,-306,197,51,-279
0,3301769,2208,419,-3672,5912,-107,-306,197,51,-279
0,3301777,2204,422,-3682,5920,-109,-306,197,51,-279
0,3301786,2204,422,-3682,5920,-109,-306,197,51,-279
0,3301793,2206,419,-3677,5919,-100,-309,197,51,-279
0,3301801,2206,419,-3677,5919,-100,-309,197,51,-279
0,3301811,2206,419,-3677,5919,-100,-309,197,51,-279
0,3301819,2204,408,-3681,5911,-102,-308,197,51,-279
0,3301830,2204,408,-3681,5911,-102,-308,197,51,-279
0,3301837,2208,408,-3680,5912,-103,-302,197,51,-279
0,3301847,2208,408,-3680,5912,-103,-302,197,51,-279
0,3301856,2200,402,-3685,5913,-102,-307,197,51,-279
0,3301863,2200,402,-3685,5913,-102,-307,197,51,-279
0,3301871,2200,402,-3685,5913,-102,-307,197,51,-279
0,3301880,2212,362,-3673,5917,-91,-312,203,49,-281
0,3301889,2212,362,-3673,5917,-91,-312,203,49,-281
0,3301897,2211,362,-3684,5906,-102,-309,203,49,-281
0,3301905,2211,362,-3684,5906,-102,-309,203,49,-281
0,3301914,2208,358,-3683,5907,-105,-309,203,49,-281
0,3301924,2208,358,-3683,5907,-105,-309,203,49,-281
0,3301934,2202,386,-3686,5910,-103,-306,203,49,-281
0,3301943,2202,386,-3686,5910,-103,-306,203,49,-281
0,3301950,2202,386,-3686,5910,-103,-306,203,49,-281
0,3301958,2209,351,-3688,5910,-115,-313,203,49,-281
0,3301966,2209,351,-3688,5910,-115,-313,203,49,-281
0,3301976,2215,377,-3689,5908,-112,-315,203,49,-281
0,3301984,2215,377,-3689,5908,-112,-315,203,49,-281
0,3301993,2216,370,-3700,5922,-108,-314,203,49,-281
0,3302002,2216,370,-3700,5922,-108,-314,209,43,-285
0,3302010,2216,370,-3700,5922,-108,-314,209,43,-285
0,3302020,2203,397,-3688,5926,-104,-307,209,43,-285
0,3302028,2203,397,-3688,5926,-104,-307,209,43,-285
0,3302036,2207,389,-3697,5932,-102,-309,209,43,-285
0,3302045,2207,389,-3697,5932,-102,-309,209,43,-285
0,3302053,2204,399,-3686,5930,-106,-312,209,43,-285
0,3302063,2204,399,-3686,5930,-106,-312,209,43,-285
0,3302072,2204,399,-3686,5930,-106,-312,209,43,-285
0,3302081,2207,406,-3692,5930,-112,-308,209,43,-285
0,3302090,2207,406,-3692,5930,-112,-308,209,43,-285
0,3302099,2203,404,-3686,5935,-96,-303,209,43,-285
0,3302110,2203,404,-3686,5935,-96,-303,209,43,-285
0,3302118,2204,421,-3696,5933,-98,-309,209,43,-285
0,3302126,2204,421,-3696,5933,-98,-309,209,43,-285
0,3302135,2208,399,-3684,5937,-106,-312,217,39,-287
0,3302144,2208,399,-3684,5937,-106,-312,217,39,-287
0,3302151,2208,399,-3684,5937,-106,-312,217,39,-287
0,3302160,2208,400,-3689,5928,-102,-308,217,39,-287
0,3302173,2210,396,-3689,5925,-99,-312,217,39,-287
0,3302189,2210,396,-3689,5925,-99,-312,217,39,-287
0,3302202,2203,416,-3702,5919,-105,-307,217,39,-287
0,3302215,2208,394,-3700,5927,-107,-314,217,39,-287
0,3302230,2208,394,-3700,5927,-107,-314,217,39,-287
0,3302243,2202,404,-3697,5925,-106,-313,217,39,-287
0,3302257,2205,398,-3690,5930,-97,-308,215,51,-285
0,3302270,2205,398,-3690,5930,-97,-308,215,51,-285
0,3302286,2200,416,-3689,5935,-100,-305,215,51,-285
0,3302299,2203,403,-3689,5929,-103,-309,215,51,-285
0,3302313,2205,409,-3696,5929,-99,-306,215,51,-285
0,3302329,2205,409,-3696,5929,-99,-306,215,51,-285
0,3302344,2204,404,-3700,5930,-115,-316,215,51,-285
0,3302358,2204,418,-3698,5932,-105,-308,215,51,-285
0,3302371,2204,418,-3698,5932,-105,-308,215,51,-285
0,3302384,2208,419,-3697,5933,-97,-309,215,51,-285
0,3302398,2208,424,-3696,5934,-104,-314,221,47,-281
0,3302411,2208,424,-3696,5934,-104,-314,221,47,-281
0,3302424,2205,442,-3688,5932,-104,-311,221,47,-281
0,3302437,2198,420,-3693,5930,-105,-305,221,47,-281
0,3302452,2198,420,-3693,5930,-105,-305,221,47,-281
0,3302461,2204,422,-3687,5916,-102,-307,221,47,-281
0,3302469,2204,422,-3687,5916,-102,-307,221,47,-281
0,3302482,2207,428,-3694,5924,-98,-308,221,47,-281
0,3302495,2199,425,-3689,5920,-102,-302,221,47,-281
0,3302508,2199,425,-3689,5920,-102,-302,221,47,-281
0,3302523,2207,422,-3685,5927,-105,-311,221,49,-287
0,3302539,2203,425,-3688,5917,-110,-307,221,49,-287
0,3302554,2209,426,-3695,5922,-106,-307,221,49,-287
0,3302568,2209,426,-3695,5922,-106,-307,221,49,-287
0,3302581,2203,418,-3692,5921,-97,-302,221,49,-287
0,3302593,2203,418,-3692,5921,-97,-302,221,49,-287
0,3302606,2207,425,-3681,5924,-101,-306,221,49,-287
0,3302620,2205,428,-3684,5921,-105,-316,221,49,-287
0,3302634,2200,421,-3685,5922,-104,-307,230,40,-290
0,3302649,2200,421,-3685,5922,-104,-307,230,40,-290
0,3302661,2201,415,-3677,5919,-100,-307,230,40,-290
0,3302675,2207,429,-3680,5909,-108,-307,230,40,-290
0,3302688,2207,429,-3680,5909,-108,-307,230,40,-290
0,3302703,2205,419,-3683,5921,-112,-308,230,40,-290
0,3302717,2208,421,-3675,5921,-108,-307,230,40,-290
0,3302732,2208,421,-3675,5921,-108,-307,230,40,-290
0,3302748,2205,412,-3680,5917,-105,-306,230,40,-290
0,3302761,2210,421,-3684,5914,-105,-309,230,40,-290
0,3302775,2204,415,-3681,5919,-103,-307,237,45,-287
0,3302790,2204,415,-3681,5919,-103,-307,237,45,-287
0,3302805,2206,416,-3680,5917,-101,-307,237,45,-287
0,3302818,2207,404,-3681,5913,-108,-309,237,45,-287
0,3302831,2207,404,-3681,5913,-108,-309,237,45,-287
0,3302844,2207,408,-3681,5911,-106,-306,237,45,-287
0,3302857,2210,361,-3683,5913,-103,-314,237,45,-287
0,3302871,2210,361,-3683,5913,-103,-314,237,45,-287
0,3302885,2209,373,-3686,5914,-102,-308,237,45,-287
0,3302898,2210,385,-3692,5910,-111,-305,241,47,-285
0,3302910,2210,385,-3692,5910,-111,-305,241,47,-285
0,3302925,2204,384,-3691,5910,-108,-305,241,47,-285
0,3302938,2209,381,-3695,5914,-103,-301,241,47,-285
0,3302952,2209,381,-3695,5914,-103,-301,241,47,-285
0,3302966,2208,378,-3693,5910,-101,-312,241,47,-285
0,3302977,2213,405,-3695,5914,-106,-311,241,47,-285
0,3302992,2213,405,-3695,5914,-106,-311,241,47,-285
0,3303007,2196,385,-3696,5925,-107,-305,241,47,-285
0,3303020,2210,404,-3692,5920,-98,-318,241,47,-285
0,3303033,2210,404,-3692,5920,-98,-318,241,47,-285
0,3303049,2209,389,-3687,5930,-106,-316,243,51,-285
0,3303062,2203,416,-3686,5933,-97,-304,243,51,-285
0,3303075,2202,402,-3691,5931,-93,-307,243,51,-285
0,3303090,2202,402,-3691,5931,-93,-307,243,51,-285
0,3303103,2203,427,-3689,5927,-101,-300,243,51,-285
0,3303117,2210,403,-3687,5933,-104,-311,243,51,-285
0,3303132,2210,403,-3687,5933,-104,-311,243,51,-285
0,3303145,2206,412,-3689,5932,-93,-300,243,51,-285
0,3303159,2209,415,-3688,5934,-96,-304,245,49,-281
0,3303172,2209,415,-3688,5934,-96,-304,245,49,-281
0,3303181,2202,424,-3690,5926,-102,-306,245,49,-281
0,3303189,2202,424,-3690,5926,-102,-306,245,49,-281
0,3303198,2206,409,-3690,5922,-110,-313,245,49,-281
0,3303207,2206,409,-3690,5922,-110,-313,245,49,-281
0,3303217,2203,402,-3686,5916,-107,-308,245,49,-281
0,3303226,2203,402,-3686,5916,-107,-308,245,49,-281
0,3303234,2205,407,-3683,5926,-99,-306,245,49,-281
0,3303242,2205,407,-3683,5926,-99,-306,245,49,-281
0,3303250,2205,407,-3683,5926,-99,-306,245,49,-281
0,3303260,2204,405,-3692,5926,-109,-307,245,49,-281
0,3303268,2204,405,-3692,5926,-109,-307,245,49,-281
0,3303276,2204,402,-3688,5925,-99,-308,245,49,-281
0,3303285,2204,402,-3688,5925,-99,-308,245,49,-281
0,3303293,2204,402,-3688,5925,-99,-308,245,49,-281
0,3303304,2210,393,-3693,5920,-99,-305,246,58,-268
0,3303311,2210,393,-3693,5920,-99,-305,246,58,-268
0,3303319,2210,393,-3693,5920,-99,-305,246,58,-268
0,3303328,2210,393,-3693,5920,-99,-305,246,58,-268
0,3303336,2208,403,-3699,5925,-103,-310,246,58,-268
0,3303344,2208,403,-3699,5925,-103,-310,246,58,-268
0,3303351,2208,403,-3699,5925,-103,-310,246,58,-268
0,3303360,2205,414,-3691,5935,-94,-306,246,58,-268
0,3303368,2205,414,-3691,5935,-94,-306,246,58,-268
0,3303377,2205,408,-3693,5928,-107,-311,246,58,-268
0,3303386,2205,408,-3693,5928,-107,-311,246,58,-268
0,3303395,2201,409,-3693,5919,-107,-303,246,58,-268
0,3303403,2201,409,-3693,5919,-107,-303,246,58,-268
0,3303412,2201,409,-3693,5919,-107,-303,246,58,-268
0,3303420,2204,419,-3691,5933,-102,-308,240,56,-260
0,3303431,2204,419,-3691,5933,-102,-308,240,56,-260
0,3303438,2204,443,-3687,5933,-104,-309,240,56,-260
0,3303447,2204,443,-3687,5933,-104,-309,240,56,-260
0,3303454,2204,443,-3687,5933,-104,-309,240,56,-260
0,3303462,2201,436,-3690,5928,-106,-303,240,56,-260
0,3303471,2201,436,-3690,5928,-106,-303,240,56,-260
0,3303479,2209,420,-3687,5930,-103,-304,240,56,-260
0,3303487,2209,420,-3687,5930,-103,-304,240,56,-260
0,3303495,2207,416,-3692,5924,-103,-305,240,56,-260
0,3303501,2207,416,-3692,5924,-103,-305,240,56,-260
0,3303511,2207,416,-3692,5924,-103,-305,240,56,-260
0,3303519,2210,450,-3681,5922,-103,-296,240,56,-260
0,3303527,2210,450,-3681,5922,-103,-296,240,56,-260
0,3303536,2199,424,-3688,5920,-99,-297,239,51,-253
0,3303544,2199,424,-3688,5920,-99,-297,239,51,-253
0,3303554,2199,424,-3688,5920,-99,-297,239,51,-253
0,3303562,2205,428,-3682,5923,-98,-308,239,51,-253
0,3303568,2205,428,-3682,5923,-98,-308,239,51,-253
0,3303577,2206,413,-3686,5921,-105,-312,239,51,-253
0,3303586,2206,413,-3686,5921,-105,-312,239,51,-253
0,3303596,2198,436,-3687,5916,-104,-308,239,51,-253
0,3303603,2198,436,-3687,5916,-104,-308,239,51,-253
0,3303611,2198,436,-3687,5916,-104,-308,239,51,-253
0,3303619,2202,421,-3686,5910,-107,-309,239,51,-253
0,3303626,2202,421,-3686,5910,-107,-309,239,51,-253
0,3303635,2202,433,-3683,5913,-102,-307,239,51,-253
0,3303643,2202,433,-3683,5913,-102,-307,239,51,-253
0,3303652,2202,433,-3683,5913,-102,-307,239,51,-253
0,3303659,2210,417,-3692,5916,-108,-312,239,51,-253
0,3303668,2210,417,-3692,5916,-108,-312,239,51,-253
0,3303676,2202,426,-3680,5917,-99,-298,248,54,-244
0,3303685,2202,426,-3680,5917,-99,-298,248,54,-244
0,3303695,2202,426,-3680,5917,-99,-298,248,54,-244
0,3303703,2205,424,-3680,5912,-102,-304,248,54,-244
0,3303712,2205,424,-3680,5912,-102,-304,248,54,-244
0,3303720,2203,433,-3687,5920,-100,-310,248,54,-244
0,3303730,2203,433,-3687,5920,-100,-310,248,54,-244
0,3303738,2210,415,-3685,5915,-101,-316,248,54,-244
0,3303748,2210,415,-3685,5915,-101,-316,248,54,-244
0,3303757,2203,418,-3682,5914,-99,-308,248,54,-244
0,3303767,2203,418,-3682,5914,-99,-308,248,54,-244
0,3303776,2205,421,-3673,5911,-100,-309,248,54,-244
0,3303786,2205,421,-3673,5911,-100,-309,248,54,-244
0,3303794,2205,421,-3673,5911,-100,-309,248,54,-244
0,3303802,2198,427,-3683,5917,-108,-310,235,51,-239
0,3303812,2198,427,-3683,5917,-108,-310,235,51,-239
0,3303821,2207,421,-3679,5916,-108,-312,235,51,-239
0,3303829,2207,421,-3679,5916,-108,-312,235,51,-239
0,3303838,2205,413,-3683,5910,-102,-309,235,51,-239
0,3303846,2205,413,-3683,5910,-102,-309,235,51,-239
0,3303855,2205,413,-3683,5910,-102,-309,235,51,-239
0,3303863,2207,407,-3682,5916,-104,-306,235,51,-239
0,3303871,2207,407,-3682,5916,-104,-306,235,51,-239
0,3303879,2203,401,-3690,5907,-107,-305,235,51,-239
0,3303888,2203,401,-3690,5907,-107,-305,235,51,-239
0,3303897,2211,338,-3684,5906,-104,-306,235,51,-239
0,3303905,2211,338,-3684,5906,-104,-306,235,51,-239
0,3303915,2211,338,-3684,5906,-104,-306,235,51,-239
0,3303923,2212,367,-3683,5908,-104,-314,235,51,-239
0,3303932,2212,367,-3683,5908,-104,-314,235,51,-239
0,3303942,2204,367,-3686,5913,-106,-310,239,47,-239
0,3303952,2204,367,-3686,5913,-106,-310,239,47,-239
0,3303959,2206,377,-3688,5909,-102,-307,239,47,-239
0,3303968,2206,377,-3688,5909,-102,-307,239,47,-239
0,3303977,2211,357,-3691,5922,-104,-308,239,47,-239
0,3303987,2211,357,-3691,5922,-104,-308,239,47,-239
0,3303994,2211,357,-3691,5922,-104,-308,239,47,-239
0,3304003,2211,366,-3691,5925,-108,-312,239,47,-239
0,3304011,2211,366,-3691,5925,-108,-312,239,47,-239
0,3304020,2207,389,-3702,5929,-107,-301,239,47,-239
0,3304030,2207,389,-3702,5929,-107,-301,239,47,-239
0,3304040,2201,387,-3694,5928,-99,-303,239,47,-239
0,3304048,2201,387,-3694,5928,-99,-303,239,47,-239
0,3304054,2201,387,-3694,5928,-99,-303,239,47,-239
0,3304062,2207,410,-3696,5942,-109,-309,250,46,-230
0,3304071,2207,410,-3696,5942,-109,-309,250,46,-230
0,3304078,2211,389,-3690,5929,-98,-306,250,46,-230
0,3304086,2211,389,-3690,5929,-98,-306,250,46,-230
0,3304094,2211,389,-3690,5929,-98,-306,250,46,-230
0,3304102,2204,418,-3698,5930,-102,-303,250,46,-230
0,3304112,2204,418,-3698,5930,-102,-303,250,46,-230
0,3304120,2205,411,-3695,5930,-101,-294,250,46,-230
0,3304129,2205,411,-3695,5930,-101,-294,250,46,-230
0,3304137,2202,423,-3692,5926,-100,-305,250,46,-230
0,3304145,2202,423,-3692,5926,-100,-305,250,46,-230
0,3304154,2202,423,-3692,5926,-100,-305,250,46,-230
0,3304163,2210,398,-3691,5922,-105,-305,250,46,-230
0,3304171,2210,398,-3691,5922,-105,-305,250,46,-230
0,3304183,2201,403,-3692,5929,-105,-296,250,46,-230
0,3304199,2206,409,-3679,5924,-102,-302,244,50,-222
0,3304214,2206,409,-3679,5924,-102,-302,244,50,-222
0,3304227,2199,413,-3690,5927,-106,-307,244,50,-222
0,3304240,2204,406,-3694,5926,-106,-312,244,50,-222
0,3304255,2204,406,-3694,5926,-106,-312,244,50,-222
0,3304268,2205,397,-3703,5931,-105,-313,244,50,-222
0,3304282,2208,414,-3694,5923,-105,-310,244,50,-222
0,3304295,2208,414,-3694,5923,-105,-310,244,50,-222
0,3304306,2201,418,-3698,5923,-105,-314,244,50,-222
0,3304318,2205,419,-3688,5933,-97,-311,242,46,-222
0,3304332,2205,419,-3688,5933,-97,-311,242,46,-222
0,3304345,2206,403,-3689,5930,-97,-318,242,46,-222
0,3304359,2203,416,-3696,5929,-97,-305,242,46,-222
0,3304370,2203,416,-3696,5929,-97,-305,242,46,-222
0,3304385,2198,416,-3695,5924,-104,-303,242,46,-222
0,3304398,2201,427,-3692,5938,-103,-308,242,46,-222
0,3304412,2201,427,-3692,5938,-103,-308,242,46,-222
0,3304426,2204,426,-3696,5932,-105,-314,242,46,-222
0,3304441,2200,429,-3688,5931,-100,-303,240,52,-208
0,3304457,2204,429,-3685,5919,-108,-312,240,52,-208
0,3304472,2204,429,-3685,5919,-108,-312,240,52,-208
0,3304484,2205,423,-3688,5915,-109,-312,240,52,-208
0,3304500,2208,441,-3688,5923,-101,-308,240,52,-208
0,3304514,2208,441,-3688,5923,-101,-308,240,52,-208
0,3304524,2197,418,-3690,5922,-104,-305,240,52,-208
0,3304539,2205,431,-3688,5918,-110,-307,240,52,-208
0,3304552,2205,431,-3688,5918,-110,-307,240,52,-208
0,3304565,2205,420,-3694,5917,-114,-313,240,52,-208
0,3304579,2201,431,-3676,5916,-101,-310,228,56,-196
0,3304592,2201,431,-3676,5916,-101,-310,228,56,-196
0,3304604,2205,410,-3687,5921,-105,-308,228,56,-196
0,3304619,2204,425,-3688,5911,-108,-312,228,56,-196
0,3304633,2204,425,-3688,5911,-108,-312,228,56,-196
0,3304646,2202,415,-3695,5918,-111,-307,228,56,-196
0,3304660,2202,423,-3684,5915,-108,-302,228,56,-196
0,3304676,2202,423,-3684,5915,-108,-302,228,56,-196
0,3304691,2204,414,-3694,5913,-107,-309,228,56,-196
0,3304707,2204,422,-3679,5917,-105,-304,215,61,-191
0,3304720,2203,413,-3690,5913,-110,-303,215,61,-191
0,3304731,2203,413,-3690,5913,-110,-303,215,61,-191
0,3304742,2203,416,-3684,5912,-103,-310,215,61,-191
0,3304756,2204,410,-3688,5913,-103,-304,215,61,-191
0,3304769,2204,410,-3688,5913,-103,-304,215,61,-191
0,3304783,2204,410,-3688,5913,-103,-304,215,61,-191
0,3304798,2202,406,-3688,5907,-103,-306,215,61,-191
0,3304811,2202,406,-3688,5907,-103,-306,215,61,-191
0,3304822,2202,406,-3688,5907,-105,-309,215,61,-191
0,3304837,2202,402,-3681,5911,-105,-317,215,61,-191
0,3304850,2202,402,-3681,5911,-105,-317,206,66,-190
0,3304863,2204,366,-3692,5912,-103,-305,206,66,-190
0,3304879,2205,384,-3688,5904,-108,-302,206,66,-190
0,3304894,2205,384,-3688,5904,-108,-302,206,66,-190
0,3304909,2205,384,-3688,5904,-108,-302,206,66,-190
0,3304923,2207,395,-3690,5919,-100,-308,206,66,-190
0,3304937,2206,372,-3696,5911,-106,-308,206,66,-190
0,3304951,2206,372,-3696,5911,-106,-308,206,66,-190
0,3304967,2207,396,-3685,5925,-98,-305,195,67,-181
0,3304978,2202,384,-3695,5921,-107,-300,195,67,-181
0,3304991,2202,384,-3695,5921,-107,-300,195,67,-181
0,3305005,2208,399,-3686,5935,-97,-304,195,67,-181
0,3305018,2204,392,-3698,5932,-101,-311,195,67,-181
0,3305031,2204,392,-3698,5932,-101,-311,195,67,-181
0,3305044,2207,399,-3694,5928,-104,-311,195,67,-181
0,3305057,2206,400,-3693,5928,-113,-301,195,67,-181
0,3305070,2206,400,-3693,5928,-113,-301,195,67,-181
0,3305083,2207,413,-3698,5933,-105,-310,194,66,-172
0,3305097,2205,419,-3688,5934,-99,-309,194,66,-172
0,3305112,2205,419,-3688,5934,-99,-309,194,66,-172
0,3305127,2204,406,-3690,5933,-99,-309,194,66,-172
0,3305144,2206,413,-3687,5930,-93,-307,194,66,-172
0,3305158,2205,413,-3691,5927,-103,-311,194,66,-172
0,3305171,2205,413,-3691,5927,-103,-311,194,66,-172
0,3305185,2201,418,-3697,5934,-106,-303,194,66,-172
0,3305193,2201,418,-3697,5934,-106,-303,194,66,-172
0,3305202,2202,402,-3692,5929,-101,-307,194,66,-172
0,3305212,2202,402,-3692,5929,-101,-307,194,66,-172
0,3305222,2210,408,-3689,5922,-104,-308,197,65,-177
0,3305230,2210,408,-3689,5922,-104,-308,197,65,-177
0,3305237,2203,400,-3702,5919,-110,-297,197,65,-177
0,3305244,2203,400,-3702,5919,-110,-297,197,65,-177
0,3305252,2203,400,-3702,5919,-110,-297,197,65,-177
0,3305262,2206,406,-3693,5922,-101,-310,197,65,-177
0,3305270,2206,406,-3693,5922,-101,-310,197,65,-177
0,3305279,2204,407,-3697,5917,-95,-306,197,65,-177
0,3305286,2204,407,-3697,5917,-95,-306,197,65,-177
0,3305296,2204,407,-3697,5917,-95,-306,197,65,-177
0,3305306,2207,406,-3692,5925,-103,-308,197,65,-177
0,3305315,2207,406,-3692,5925,-103,-308,197,65,-177
0,3305323,2207,406,-3692,5925,-103,-308,197,65,-177
0,3305332,2207,406,-3692,5925,-103,-308,197,65,-177
0,3305342,2203,401,-3694,5920,-104,-301,181,73,-163
0,3305355,2203,401,-3694,5920,-104,-301,181,73,-163
0,3305363,2205,407,-3694,5931,-104,-306,181,73,-163
0,3305372,2205,407,-3694,5931,-104,-306,181,73,-163
0,3305381,2201,409,-3692,5927,-99,-306,181,73,-163
0,3305393,2201,409,-3692,5927,-99,-306,181,73,-163
0,3305403,2203,408,-3695,5925,-94,-301,181,73,-163
0,3305413,2203,408,-3695,5925,-94,-301,181,73,-163
0,3305419,2203,402,-3691,5926,-103,-311,181,73,-163
0,3305427,2203,402,-3691,5926,-103,-311,181,73,-163
0,3305438,2204,449,-3696,5933,-101,-308,181,73,-163
0,3305447,2204,449,-3696,5933,-101,-308,181,73,-163
0,3305455,2204,449,-3696,5933,-101,-308,181,73,-163
0,3305463,2200,426,-3700,5929,-103,-306,181,73,-163
0,3305473,2200,426,-3700,5929,-103,-306,181,73,-163
0,3305482,2205,435,-3689,5928,-96,-314,169,65,-183
0,3305491,2205,435,-3689,5928,-96,-314,169,65,-183
0,3305500,2202,400,-3690,5928,-106,-305,169,65,-183
0,3305508,2202,400,-3690,5928,-106,-305,169,65,-183
0,3305517,2202,400,-3690,5928,-106,-305,169,65,-183
0,3305525,2202,400,-3690,5928,-106,-305,169,65,-183
0,3305534,2202,400,-3690,5928,-106,-305,169,65,-183
0,3305545,2202,400,-3690,5928,-106,-305,169,65,-183
0,3305552,2202,400,-3690,5928,-106,-305,169,65,-183
0,3305562,2199,433,-3689,5915,-105,-303,169,65,-183
0,3305573,2199,433,-3689,5915,-105,-303,169,65,-183
0,3305580,2204,404,-3696,5917,-114,-309,169,65,-183
0,3305591,2204,404,-3696,5917,-114,-309,169,65,-183
0,3305602,2197,433,-3690,5919,-112,-308,164,64,-172
0,3305612,2197,433,-3690,5919,-112,-308,164,64,-172
0,3305620,2205,409,-3692,5924,-106,-306,164,64,-172
0,3305631,2205,409,-3692,5924,-106,-306,164,64,-172
0,3305638,2202,432,-3687,5921,-105,-304,164,64,-172
0,3305646,2202,432,-3687,5921,-105,-304,164,64,-172
0,3305655,2202,432,-3687,5921,-105,-304,164,64,-172
0,3305666,2206,415,-3698,5923,-111,-309,164,64,-172
0,3305674,2206,415,-3698,5923,-111,-309,164,64,-172
0,3305684,2203,421,-3686,5919,-103,-301,164,64,-172
0,3305693,2203,421,-3686,5919,-103,-301,164,64,-172
0,3305701,2203,419,-3689,5915,-102,-298,164,64,-172
0,3305710,2203,419,-3689,5915,-102,-298,164,64,-172
0,3305720,2201,433,-3689,5915,-101,-314,164,64,-172
0,3305731,2201,433,-3689,5915,-101,-314,164,64,-172
0,3305739,2200,414,-3682,5916,-106,-317,168,72,-174
0,3305749,2200,414,-3682,5916,-106,-317,168,72,-174
0,3305756,2200,414,-3682,5916,-106,-317,168,72,-174
0,3305766,2198,406,-3682,5921,-103,-310,168,72,-174
0,3305777,2198,406,-3682,5921,-103,-310,168,72,-174
0,3305786,2205,411,-3683,5914,-111,-306,168,72,-174
0,3305795,2205,411,-3683,5914,-111,-306,168,72,-174
0,3305805,2200,419,-3689,5915,-112,-311,168,72,-174
0,3305815,2200,419,-3689,5915,-112,-311,168,72,-174
0,3305823,2206,405,-3681,5919,-100,-315,168,72,-174
0,3305832,2206,405,-3681,5919,-100,-315,168,72,-174
0,3305841,2200,392,-3691,5914,-104,-310,168,72,-174
0,3305849,2200,392,-3691,5914,-104,-310,168,72,-174
0,3305859,2206,402,-3678,5917,-112,-308,160,76,-168
0,3305869,2206,402,-3678,5917,-112,-308,160,76,-168
0,3305876,2206,402,-3678,5917,-112,-308,160,76,-168
0,3305887,2206,402,-3678,5917,-112,-308,160,76,-168
0,3305897,2206,402,-3678,5917,-112,-308,160,76,-168
0,3305906,2211,373,-3684,5918,-102,-306,160,76,-168
0,3305915,2211,373,-3684,5918,-102,-306,160,76,-168
0,3305924,2204,371,-3695,5914,-106,-303,160,76,-168
0,3305934,2204,371,-3695,5914,-106,-303,160,76,-168
0,3305943,2200,367,-3693,5918,-104,-305,160,76,-168
0,3305953,2200,367,-3693,5918,-104,-305,160,76,-168
0,3305962,2206,370,-3697,5902,-97,-310,160,76,-168
0,3305970,2206,370,-3697,5902,-97,-310,160,76,-168
0,3305979,2205,368,-3698,5915,-104,-310,155,83,-177
0,3305990,2205,368,-3698,5915,-104,-310,155,83,-177
0,3305999,2209,386,-3697,5914,-104,-310,155,83,-177
0,3306008,2209,386,-3697,5914,-104,-310,155,83,-177
0,3306018,2207,374,-3703,5921,-104,-304,155,83,-177
0,3306027,2207,374,-3703,5921,-104,-304,155,83,-177
0,3306036,2207,374,-3703,5921,-104,-304,155,83,-177
0,3306043,2208,396,-3697,5913,-101,-306,155,83,-177
0,3306052,2208,396,-3697,5913,-101,-306,155,83,-177
0,3306060,2209,399,-3698,5932,-106,-304,155,83,-177
0,3306068,2209,399,-3698,5932,-106,-304,155,83,-177
0,3306077,2209,399,-3698,5932,-106,-304,155,83,-177
0,3306086,2201,406,-3699,5940,-104,-300,155,83,-177
0,3306096,2201,406,-3699,5940,-104,-300,155,83,-177
0,3306104,2205,409,-3710,5940,-93,-306,155,83,-177
0,3306114,2205,409,-3710,5940,-93,-306,155,83,-177
0,3306123,2201,411,-3689,5936,-104,-300,152,94,-178
0,3306131,2201,411,-3689,5936,-104,-300,152,94,-178
0,3306140,2206,408,-3693,5931,-105,-312,152,94,-178
0,3306147,2206,408,-3693,5931,-105,-312,152,94,-178
0,3306158,2206,408,-3693,5931,-105,-312,152,94,-178
0,3306169,2205,405,-3694,5934,-98,-312,152,94,-178
0,3306177,2205,405,-3694,5934,-98,-312,152,94,-178
0,3306187,2201,417,-3699,5932,-98,-313,152,94,-178
0,3306198,2204,405,-3692,5930,-108,-309,152,94,-178
0,3306211,2204,405,-3692,5930,-108,-309,152,94,-178
0,3306224,2201,411,-3703,5934,-98,-305,152,94,-178
0,3306238,2208,401,-3698,5921,-102,-308,147,89,-181
0,3306253,2208,401,-3698,5921,-102,-308,147,89,-181
0,3306265,2198,419,-3702,5925,-107,-311,147,89,-181
0,3306277,2198,419,-3702,5925,-107,-311,147,89,-181
0,3306291,2200,407,-3700,5927,-101,-313,147,89,-181
0,3306304,2198,416,-3700,5936,-102,-313,147,89,-181
0,3306319,2200,403,-3687,5928,-101,-309,147,89,-181
0,3306331,2200,403,-3687,5928,-101,-309,147,89,-181
0,3306345,2199,415,-3699,5924,-105,-307,147,89,-181
0,3306361,2204,412,-3698,5922,-106,-309,147,89,-181
0,3306375,2204,412,-3698,5922,-106,-309,147,89,-181
0,3306388,2201,418,-3689,5925,-95,-312,147,83,-181
0,3306401,2206,412,-3698,5917,-107,-309,147,83,-181
0,3306417,2206,412,-3698,5917,-107,-309,147,83,-181
0,3306430,2204,412,-3694,5918,-104,-301,147,83,-181
0,3306443,2203,436,-3695,5925,-102,-303,147,83,-181
0,3306457,2203,436,-3695,5925,-102,-303,147,83,-181
0,3306470,2200,414,-3694,5929,-104,-302,147,83,-181
0,3306486,2200,414,-3694,5929,-104,-302,147,83,-181
0,3306499,2198,416,-3682,5922,-98,-311,154,88,-184
0,3306513,2198,416,-3682,5922,-98,-311,154,88,-184
0,3306526,2199,428,-3684,5919,-97,-304,154,88,-184
0,3306540,2203,419,-3688,5918,-101,-299,154,88,-184
0,3306554,2203,419,-3688,5918,-101,-299,154,88,-184
0,3306568,2202,422,-3697,5917,-112,-304,154,88,-184
0,3306580,2206,414,-3695,5919,-102,-310,154,88,-184
0,3306595,2206,414,-3695,5919,-102,-310,154,88,-184
0,3306610,2203,414,-3701,5925,-100,-302,154,88,-184
0,3306626,2202,418,-3688,5923,-102,-305,154,88,-184
0,3306637,2202,418,-3688,5923,-102,-305,154,88,-184
0,3306650,2203,418,-3691,5925,-105,-313,147,91,-191
0,3306664,2200,416,-3684,5921,-107,-314,147,91,-191
0,3306678,2200,416,-3684,5921,-107,-314,147,91,-191
0,3306691,2197,406,-3691,5911,-110,-314,147,91,-191
0,3306704,2202,412,-3691,5915,-106,-309,147,91,-191
0,3306720,2201,400,-3689,5916,-102,-310,147,91,-191
0,3306732,2201,400,-3689,5916,-102,-310,147,91,-191
0,3306746,2201,400,-3690,5911,-101,-311,147,91,-191
0,3306760,2203,398,-3688,5905,-101,-312,133,81,-197
0,3306774,2203,398,-3688,5905,-101,-312,133,81,-197
0,3306786,2203,401,-3686,5916,-106,-308,133,81,-197
0,3306799,2203,387,-3692,5924,-107,-313,133,81,-197
0,3306814,2203,387,-3692,5924,-107,-313,133,81,-197
0,3306829,2207,396,-3685,5914,-104,-308,133,81,-197
0,3306842,2206,379,-3688,5920,-104,-310,133,81,-197
0,3306854,2206,379,-3688,5920,-104,-310,133,81,-197
0,3306867,2206,386,-3688,5912,-117,-308,133,81,-197
0,3306882,2203,373,-3693,5918,-104,-311,141,89,-205
0,3306895,2203,373,-3693,5918,-104,-311,141,89,-205
0,3306909,2204,372,-3685,5920,-100,-313,141,89,-205
0,3306920,2207,382,-3693,5919,-108,-312,141,89,-205
0,3306934,2207,382,-3693,5919,-108,-312,141,89,-205
0,3306948,2201,382,-3696,5918,-106,-309,141,89,-205
0,3306961,2206,391,-3701,5924,-107,-315,141,89,-205
0,3306975,2206,391,-3701,5924,-107,-315,141,89,-205
0,3306990,2205,379,-3700,5924,-108,-303,141,89,-205
0,3307001,2206,399,-3698,5932,-101,-305,141,89,-205
0,3307016,2206,399,-3698,5932,-101,-305,141,89,-205
0,3307031,2203,388,-3695,5933,-101,-305,137,85,-207
0,3307046,2202,404,-3692,5927,-108,-308,137,85,-207
0,3307061,2203,390,-3699,5942,-102,-304,137,85,-207
0,3307074,2203,390,-3699,5942,-102,-304,137,85,-207
0,3307084,2199,414,-3696,5924,-98,-312,137,85,-207
0,3307098,2199,414,-3696,5924,-98,-312,137,85,-207
0,3307113,2202,404,-3701,5932,-101,-310,137,85,-207
0,3307126,2200,414,-3703,5925,-103,-311,137,85,-207
0,3307140,2205,403,-3698,5927,-106,-307,142,72,-212
0,3307153,2205,403,-3698,5927,-106,-307,142,72,-212
0,3307167,2202,417,-3699,5931,-110,-305,142,72,-212
0,3307180,2202,409,-3697,5924,-110,-299,142,72,-212
0,3307193,2202,409,-3697,5924,-110,-299,142,72,-212
0,3307203,2202,414,-3697,5932,-105,-305,142,72,-212
0,3307212,2202,414,-3697,5932,-105,-305,142,72,-212
0,3307220,2206,409,-3700,5931,-102,-303,142,72,-212
0,3307230,2206,409,-3700,5931,-102,-303,142,72,-212
0,3307238,2206,409,-3700,5931,-102,-303,142,72,-212
0,3307246,2204,407,-3689,5919,-100,-303,142,72,-212
0,3307254,2204,407,-3689,5919,-100,-303,142,72,-212
0,3307262,2204,407,-3693,5926,-100,-300,142,72,-212
0,3307272,2204,407,-3693,5926,-100,-300,142,72,-212
0,3307281,2202,403,-3688,5921,-107,-309,154,92,-222
0,3307287,2202,403,-3688,5921,-107,-309,154,92,-222
0,3307296,2202,403,-3688,5921,-107,-309,154,92,-222
0,3307304,2204,404,-3692,5923,-106,-312,154,92,-222
0,3307313,2204,404,-3692,5923,-106,-312,154,92,-222
0,3307322,2203,394,-3701,5923,-107,-306,154,92,-222
0,3307330,2203,394,-3701,5923,-107,-306,154,92,-222
0,3307339,2203,394,-3701,5923,-107,-306,154,92,-222
0,3307347,2203,387,-3702,5926,-99,-305,154,92,-222
0,3307355,2203,387,-3702,5926,-99,-305,154,92,-222
0,3307362,2202,389,-3703,5931,-104,-308,154,92,-222
0,3307371,2202,389,-3703,5931,-104,-308,154,92,-222
0,3307379,2202,389,-3703,5931,-104,-308,154,92,-222
0,3307387,2202,406,-3702,5933,-102,-306,154,92,-222
0,3307397,2202,406,-3702,5933,-102,-306,154,92,-222
0,3307405,2201,404,-3699,5916,-103,-310,145,75,-229
0,3307414,2201,404,-3699,5916,-103,-310,145,75,-229
0,3307423,2202,409,-3686,5926,-109,-314,145,75,-229
0,3307431,2202,409,-3686,5926,-109,-314,145,75,-229
0,3307441,2202,410,-3693,5932,-104,-313,145,75,-229
0,3307449,2202,410,-3693,5932,-104,-313,145,75,-229
0,3307457,2202,410,-3693,5932,-104,-313,145,75,-229
0,3307466,2199,422,-3693,5921,-104,-309,145,75,-229
0,3307474,2199,422,-3693,5921,-104,-309,145,75,-229
0,3307483,2191,445,-3694,5923,-100,-309,145,75,-229
0,3307489,2191,445,-3694,5923,-100,-309,145,75,-229
0,3307497,2191,445,-3694,5923,-100,-309,145,75,-229
0,3307505,2200,410,-3698,5922,-103,-312,145,75,-229
0,3307513,2200,410,-3698,5922,-103,-312,145,75,-229
0,3307523,2206,413,-3692,5922,-107,-313,164,72,-240
0,3307532,2206,413,-3692,5922,-107,-313,164,72,-240
0,3307540,2205,426,-3694,5925,-106,-308,164,72,-240
0,3307549,2205,426,-3694,5925,-106,-308,164,72,-240
0,3307557,2205,426,-3694,5925,-106,-308,164,72,-240
0,3307566,2196,423,-3691,5922,-100,-295,164,72,-240
0,3307575,2196,423,-3691,5922,-100,-295,164,72,-240
0,3307582,2206,421,-3691,5919,-100,-308,164,72,-240
0,3307590,2206,421,-3691,5919,-100,-308,164,72,-240
0,3307598,2206,421,-3691,5919,-100,-308,164,72,-240
0,3307608,2201,411,-3690,5917,-103,-311,164,72,-240
0,3307617,2201,411,-3690,5917,-103,-311,164,72,-240
0,3307626,2203,425,-3699,5915,-101,-312,164,72,-240
0,3307634,2203,425,-3699,5915,-101,-312,164,72,-240
0,3307643,2203,425,-3699,5915,-101,-312,164,72,-240
0,3307652,2203,425,-3699,5915,-101,-312,164,72,-240
0,3307660,2198,429,-3690,5921,-99,-311,162,70,-240
0,3307668,2198,429,-3690,5921,-99,-311,162,70,-240
0,3307677,2198,429,-3690,5921,-99,-311,162,70,-240
0,3307685,2206,414,-3687,5915,-101,-312,162,70,-240
0,3307694,2206,414,-3687,5915,-101,-312,162,70,-240
0,3307701,2200,411,-3691,5922,-106,-314,162,70,-240
0,3307709,2200,411,-3691,5922,-106,-314,162,70,-240
0,3307717,2200,411,-3691,5922,-106,-314,162,70,-240
0,3307726,2204,412,-3683,5914,-103,-306,162,70,-240
0,3307736,2204,412,-3683,5914,-103,-306,162,70,-240
0,3307744,2201,424,-3691,5917,-106,-308,162,70,-240
0,3307753,2201,424,-3691,5917,-106,-308,162,70,-240
0,3307760,2203,410,-3685,5916,-105,-310,162,70,-240
0,3307768,2203,410,-3685,5916,-105,-310,162,70,-240
0,3307778,2203,410,-3685,5916,-105,-310,162,70,-240
0,3307786,2204,410,-3680,5914,-102,-308,168,64,-244
0,3307794,2204,410,-3680,5914,-102,-308,168,64,-244
0,3307803,2200,410,-3680,5912,-107,-306,168,64,-244
0,3307813,2200,410,-3680,5912,-107,-306,168,64,-244
0,3307823,2198,425,-3692,5912,-108,-309,168,64,-244
0,3307831,2198,425,-3692,5912,-108,-309,168,64,-244
0,3307840,2199,409,-3681,5918,-109,-310,168,64,-244
0,3307847,2199,409,-3681,5918,-109,-310,168,64,-244
0,3307856,2199,409,-3681,5918,-109,-310,168,64,-244
0,3307865,2202,402,-3685,5920,-100,-312,168,64,-244
0,3307874,2202,402,-3685,5920,-100,-312,168,64,-244
0,3307882,2205,388,-3686,5908,-103,-301,168,64,-244
0,3307891,2205,388,-3686,5908,-103,-301,168,64,-244
0,3307898,2205,388,-3686,5908,-103,-301,168,64,-244
0,3307908,2199,385,-3686,5914,-109,-305,168,64,-244
0,3307916,2199,385,-3686,5914,-109,-305,168,64,-244
0,3307925,2208,342,-3687,5911,-107,-311,164,66,-252
0,3307934,2208,342,-3687,5911,-107,-311,164,66,-252
0,3307941,2207,368,-3691,5906,-103,-308,164,66,-252
0,3307949,2207,368,-3691,5906,-103,-308,164,66,-252
0,3307958,2207,368,-3691,5906,-103,-308,164,66,-252
0,3307965,2203,364,-3701,5909,-104,-306,164,66,-252
0,3307974,2203,364,-3701,5909,-104,-306,164,66,-252
0,3307982,2201,355,-3693,5915,-96,-306,164,66,-252
0,3307992,2201,355,-3693,5915,-96,-306,164,66,-252
0,3308000,2201,355,-3693,5915,-96,-306,164,66,-252
0,3308008,2209,352,-3693,5920,-107,-309,164,66,-252
0,3308018,2209,352,-3693,5920,-107,-309,164,66,-252
0,3308026,2199,358,-3690,5920,-107,-309,164,66,-252
0,3308036,2199,358,-3690,5920,-107,-309,164,66,-252
0,3308044,2206,378,-3699,5930,-103,-311,180,56,-262
0,3308053,2206,378,-3699,5930,-103,-311,180,56,-262
0,3308061,2197,374,-3697,5929,-103,-306,180,56,-262
0,3308069,2197,374,-3697,5929,-103,-306,180,56,-262
0,3308076,2197,374,-3697,5929,-103,-306,180,56,-262
0,3308085,2203,405,-3699,5922,-97,-311,180,56,-262
0,3308093,2203,405,-3699,5922,-97,-311,180,56,-262
0,3308101,2203,405,-3699,5922,-97,-311,180,56,-262
0,3308108,2203,405,-3699,5922,-97,-311,180,56,-262
0,3308118,2203,405,-3699,5922,-97,-311,180,56,-262
0,3308129,2204,407,-3699,5927,-99,-307,180,56,-262
0,3308137,2204,407,-3699,5927,-99,-307,180,56,-262
0,3308145,2203,402,-3699,5926,-99,-299,180,56,-262
0,3308153,2203,402,-3699,5926,-99,-299,180,56,-262
0,3308161,2202,418,-3691,5928,-103,-313,180,56,-262
0,3308170,2202,418,-3691,5928,-103,-313,180,56,-262
0,3308178,2202,418,-3691,5928,-103,-313,180,56,-262
0,3308187,2209,387,-3696,5938,-101,-307,185,59,-269
0,3308195,2209,387,-3696,5938,-101,-307,185,59,-269
0,3308205,2205,399,-3693,5930,-95,-307,185,59,-269
0,3308218,2205,399,-3693,5930,-95,-307,185,59,-269
0,3308231,2202,395,-3700,5922,-100,-311,185,59,-269
0,3308244,2198,410,-3694,5925,-107,-304,185,59,-269
0,3308257,2198,410,-3694,5925,-107,-304,185,59,-269
0,3308271,2206,382,-3702,5922,-103,-308,185,59,-269
0,3308286,2204,405,-3701,5935,-104,-302,185,59,-269
0,3308302,2205,398,-3697,5925,-103,-302,183,55,-269
0,3308317,2205,398,-3697,5925,-103,-302,183,55,-269
0,3308328,2198,407,-3700,5929,-106,-309,183,55,-269
0,3308344,2207,395,-3694,5938,-105,-312,183,55,-269
0,3308358,2207,395,-3694,5938,-105,-312,183,55,-269
0,3308372,2203,405,-3696,5926,-103,-306,183,55,-269
0,3308386,2204,404,-3694,5926,-112,-305,183,55,-269
0,3308400,2204,404,-3694,5926,-112,-305,183,55,-269
0,3308413,2196,409,-3698,5922,-108,-307,183,55,-269
0,3308426,2205,405,-3695,5925,-106,-309,192,52,-280
0,3308440,2205,405,-3695,5925,-106,-309,192,52,-280
0,3308453,2202,409,-3700,5926,-102,-313,192,52,-280
0,3308467,2204,436,-3696,5932,-100,-308,192,52,-280
0,3308481,2196,409,-3696,5932,-104,-312,192,52,-280
0,3308493,2196,409,-3696,5932,-104,-312,192,52,-280
0,3308507,2204,420,-3692,5927,-106,-306,192,52,-280
0,3308522,2200,417,-3699,5926,-105,-309,192,52,-280
0,3308536,2200,417,-3699,5926,-105,-309,192,52,-280
0,3308550,2199,424,-3694,5930,-96,-302,192,52,-280
0,3308564,2202,415,-3688,5922,-97,-308,204,48,-280
0,3308579,2202,415,-3688,5922,-97,-308,204,48,-280
0,3308595,2200,412,-3682,5919,-107,-313,204,48,-280
0,3308608,2205,413,-3694,5913,-107,-309,204,48,-280
0,3308620,2205,413,-3694,5913,-107,-309,204,48,-280
0,3308636,2200,403,-3691,5921,-103,-304,204,48,-280
0,3308647,2201,421,-3690,5922,-102,-304,204,48,-280
0,3308659,2201,421,-3690,5922,-102,-304,204,48,-280
0,3308673,2204,413,-3688,5934,-107,-307,204,48,-280
0,3308687,2204,413,-3686,5938,-102,-304,205,51,-281
0,3308700,2204,413,-3686,5938,-102,-304,205,51,-281
0,3308712,2202,401,-3692,5922,-99,-305,205,51,-281
0,3308725,2202,418,-3673,5913,-95,-313,205,51,-281
0,3308740,2202,418,-3673,5913,-95,-313,205,51,-281
0,3308754,2203,408,-3685,5914,-102,-311,205,51,-281
0,3308770,2203,401,-3684,5912,-101,-310,205,51,-281
0,3308783,2201,388,-3695,5915,-104,-309,205,51,-281
0,3308797,2201,388,-3695,5915,-104,-309,205,51,-281
0,3308813,2199,405,-3688,5911,-111,-306,205,51,-281
0,3308828,2196,399,-3685,5922,-106,-305,216,46,-284
0,3308841,2206,379,-3682,5926,-105,-315,216,46,-284
0,3308855,2206,379,-3682,5926,-105,-315,216,46,-284
0,3308869,2205,366,-3692,5922,-98,-311,216,46,-284
0,3308882,2203,374,-3690,5919,-101,-311,216,46,-284
0,3308896,2203,374,-3690,5919,-101,-311,216,46,-284
0,3308908,2200,381,-3691,5916,-102,-307,216,46,-284
0,3308921,2206,361,-3689,5916,-105,-306,216,46,-284
0,3308936,2206,361,-3689,5916,-105,-306,216,46,-284
0,3308950,2205,378,-3692,5912,-105,-312,219,41,-293
0,3308965,2206,371,-3691,5916,-97,-306,219,41,-293
0,3308981,2206,371,-3691,5916,-97,-306,219,41,-293
0,3308994,2201,388,-3692,5922,-95,-305,219,41,-293
0,3309009,2204,373,-3700,5920,-97,-310,219,41,-293
0,3309024,2202,391,-3695,5912,-104,-316,219,41,-293
0,3309038,2202,391,-3695,5912,-104,-316,219,41,-293
0,3309049,2203,379,-3705,5924,-106,-311,219,41,-293
0,3309063,2202,387,-3699,5924,-105,-305,222,48,-286
0,3309076,2202,387,-3699,5924,-105,-305,222,48,-286
0,3309089,2205,391,-3701,5919,-105,-307,222,48,-286
0,3309104,2203,404,-3699,5932,-103,-310,222,48,-286
0,3309117,2203,404,-3699,5932,-103,-310,222,48,-286
0,3309132,2199,402,-3698,5931,-102,-309,222,48,-286
0,3309146,2205,405,-3689,5933,-99,-310,222,48,-286
0,3309160,2205,405,-3689,5933,-99,-310,222,48,-286
0,3309173,2201,412,-3697,5933,-99,-311,222,48,-286
0,3309187,2204,404,-3696,5936,-103,-310,222,48,-286
0,3309202,2202,405,-3693,5932,-98,-303,222,48,-286
0,3309214,2202,405,-3693,5932,-98,-303,232,48,-292
0,3309224,2201,403,-3690,5932,-108,-306,232,48,-292
0,3309234,2201,403,-3690,5932,-108,-306,232,48,-292
0,3309243,2201,411,-3697,5929,-114,-314,232,48,-292
0,3309252,2201,411,-3697,5929,-114,-314,232,48,-292
0,3309260,2201,411,-3697,5929,-114,-314,232,48,-292
0,3309271,2203,397,-3694,5921,-105,-313,232,48,-292
0,3309279,2203,397,-3694,5921,-105,-313,232,48,-292
0,3309287,2203,397,-3694,5921,-105,-313,232,48,-292
0,3309296,2203,397,-3694,5921,-105,-313,232,48,-292
0,3309304,2201,401,-3705,5917,-104,-301,232,48,-292
0,3309314,2201,401,-3705,5917,-104,-301,232,48,-292
0,3309323,2203,407,-3697,5924,-98,-309,224,48,-284
0,3309332,2203,407,-3697,5924,-98,-309,224,48,-284
0,3309340,2203,407,-3697,5924,-98,-309,224,48,-284
0,3309348,2203,397,-3693,5921,-98,-310,224,48,-284
0,3309359,2203,397,-3693,5921,-98,-310,224,48,-284
0,3309368,2200,398,-3692,5915,-102,-313,224,48,-284
0,3309375,2200,398,-3692,5915,-102,-313,224,48,-284
0,3309382,2200,395,-3695,5924,-109,-309,224,48,-284
0,3309390,2200,395,-3695,5924,-109,-309,224,48,-284
0,3309399,2200,395,-3695,5924,-109,-309,224,48,-284
0,3309407,2200,406,-3697,5929,-98,-308,224,48,-284
0,3309416,2200,406,-3697,5929,-98,-308,224,48,-284
0,3309425,2202,401,-3697,5928,-92,-313,224,48,-284
0,3309432,2202,401,-3697,5928,-92,-313,224,48,-284
0,3309442,2202,401,-3697,5928,-92,-313,224,48,-284
0,3309449,2204,400,-3698,5930,-105,-314,224,48,-284
0,3309458,2204,400,-3698,5930,-105,-314,224,48,-284
0,3309465,2200,445,-3695,5926,-110,-304,234,50,-282
0,3309474,2200,445,-3695,5926,-110,-304,234,50,-282
0,3309483,2203,410,-3696,5931,-99,-303,234,50,-282
0,3309491,2203,410,-3696,5931,-99,-303,234,50,-282
0,3309500,2203,410,-3696,5931,-99,-303,234,50,-282
0,3309509,2204,429,-3691,5927,-108,-315,234,50,-282
0,3309517,2204,429,-3691,5927,-108,-315,234,50,-282
0,3309523,2202,403,-3692,5930,-109,-316,234,50,-282
0,3309532,2202,403,-3692,5930,-109,-316,234,50,-282
0,3309541,2202,403,-3692,5930,-109,-316,234,50,-282
0,3309550,2204,442,-3691,5930,-110,-307,234,50,-282
0,3309558,2204,442,-3691,5930,-110,-307,234,50,-282
0,3309568,2201,406,-3689,5928,-101,-304,234,50,-282
0,3309577,2201,406,-3689,5928,-101,-304,234,50,-282
0,3309584,2197,423,-3673,5920,-100,-312,223,57,-285
0,3309593,2197,423,-3673,5920,-100,-312,223,57,-285
0,3309601,2197,423,-3673,5920,-100,-312,223,57,-285
0,3309611,2208,409,-3685,5912,-109,-312,223,57,-285
0,3309619,2208,409,-3685,5912,-109,-312,223,57,-285
0,3309628,2198,425,-3689,5919,-98,-308,223,57,-285
0,3309636,2198,425,-3689,5919,-98,-308,223,57,-285
0,3309645,2203,406,-3688,5915,-100,-307,223,57,-285
0,3309652,2203,406,-3688,5915,-100,-307,223,57,-285
0,3309661,2203,406,-3688,5915,-100,-307,223,57,-285
0,3309671,2202,422,-3692,5917,-114,-309,223,57,-285
0,3309679,2202,422,-3692,5917,-114,-309,223,57,-285
0,3309688,2206,412,-3694,5921,-108,-315,223,57,-285
0,3309697,2206,412,-3694,5921,-108,-315,223,57,-285
0,3309706,2202,414,-3687,5922,-107,-313,223,57,-285
0,3309715,2202,414,-3687,5922,-107,-313,223,57,-285
0,3309724,2202,414,-3685,5913,-100,-309,242,48,-282
0,3309733,2202,414,-3685,5913,-100,-309,242,48,-282
0,3309742,2202,414,-3685,5913,-100,-309,242,48,-282
0,3309751,2201,417,-3682,5906,-107,-308,242,48,-282
0,3309760,2201,417,-3682,5906,-107,-308,242,48,-282
0,3309768,2204,411,-3684,5906,-110,-306,242,48,-282
0,3309776,2204,411,-3684,5906,-110,-306,242,48,-282
0,3309786,2196,407,-3681,5913,-96,-302,242,48,-282
0,3309794,2196,407,-3681,5913,-96,-302,242,48,-282
0,3309804,2203,414,-3684,5914,-103,-297,242,48,-282
0,3309811,2203,414,-3684,5914,-103,-297,242,48,-282
0,3309819,2203,414,-3684,5914,-103,-297,242,48,-282
0,3309829,2201,413,-3684,5914,-103,-300,242,48,-282
0,3309837,2201,413,-3684,5914,-103,-300,242,48,-282
0,3309845,2207,414,-3680,5912,-103,-310,234,48,-268
0,3309855,2207,414,-3680,5912,-103,-310,234,48,-268
0,3309863,2205,400,-3682,5907,-104,-303,234,48,-268
0,3309873,2205,400,-3682,5907,-104,-303,234,48,-268
0,3309883,2209,401,-3683,5909,-107,-310,234,48,-268
0,3309891,2209,401,-3683,5909,-107,-310,234,48,-268
0,3309900,2209,401,-3683,5909,-107,-310,234,48,-268
0,3309907,2205,378,-3682,5911,-107,-304,234,48,-268
0,3309916,2205,378,-3682,5911,-107,-304,234,48,-268
0,3309923,2208,349,-3685,5908,-106,-308,234,48,-268
0,3309932,2208,349,-3685,5908,-106,-308,234,48,-268
0,3309940,2208,349,-3685,5908,-106,-308,234,48,-268
0,3309950,2205,367,-3689,5900,-114,-307,234,48,-268
0,3309958,2205,367,-3689,5900,-114,-307,234,48,-268
0,3309967,2207,366,-3689,5910,-109,-306,244,50,-268
0,3309975,2207,366,-3689,5910,-109,-306,244,50,-268
0,3309984,2200,366,-3685,5909,-107,-309,244,50,-268
0,3309993,2200,366,-3685,5909,-107,-309,244,50,-268
0,3310002,2200,366,-3685,5909,-107,-309,244,50,-268
0,3310010,2210,355,-3693,5911,-103,-315,244,50,-268
0,3310019,2210,355,-3693,5911,-103,-315,244,50,-268
0,3310028,2206,370,-3696,5918,-108,-311,244,50,-268
0,3310036,2206,370,-3696,5918,-108,-311,244,50,-268
0,3310046,2204,370,-3694,5922,-104,-304,244,50,-268
0,3310056,2204,370,-3694,5922,-104,-304,244,50,-268
0,3310064,2201,381,-3697,5926,-104,-317,244,50,-268
0,3310073,2201,381,-3697,5926,-104,-317,244,50,-268
0,3310083,2204,388,-3701,5932,-105,-307,244,50,-268
0,3310091,2204,388,-3701,5932,-105,-307,244,50,-268
0,3310101,2204,388,-3701,5932,-105,-307,244,50,-268
0,3310109,2204,392,-3696,5937,-100,-307,246,52,-266
0,3310117,2204,392,-3696,5937,-100,-307,246,52,-266
0,3310126,2203,394,-3697,5934,-97,-304,246,52,-266
0,3310133,2203,394,-3697,5934,-97,-304,246,52,-266
0,3310142,2203,394,-3697,5934,-97,-304,246,52,-266
0,3310152,2196,410,-3691,5935,-102,-301,246,52,-266
0,3310159,2196,410,-3691,5935,-102,-301,246,52,-266
0,3310169,2202,406,-3693,5930,-112,-308,246,52,-266
0,3310178,2202,406,-3693,5930,-112,-308,246,52,-266
0,3310186,2201,391,-3693,5933,-102,-309,246,52,-266
0,3310194,2201,391,-3693,5933,-102,-309,246,52,-266
0,3310203,2205,407,-3696,5927,-102,-309,246,52,-266
0,3310214,2205,407,-3696,5927,-102,-309,246,52,-266
0,3310224,2205,401,-3695,5932,-101,-304,244,46,-260
0,3310238,2205,401,-3695,5932,-101,-304,244,46,-260
0,3310249,2203,417,-3698,5927,-98,-305,244,46,-260
0,3310265,2206,390,-3691,5929,-97,-305,244,46,-260
0,3310276,2206,390,-3691,5929,-97,-305,244,46,-260
0,3310288,2203,404,-3694,5929,-106,-307,244,46,-260
0,3310304,2203,399,-3697,5935,-102,-299,244,46,-260
0,3310318,2203,399,-3697,5935,-102,-299,244,46,-260
0,3310332,2202,412,-3691,5921,-102,-305,244,46,-260
0,3310346,2204,395,-3693,5925,-96,-309,244,46,-260
0,3310359,2204,395,-3693,5925,-96,-309,244,46,-260
0,3310373,2200,409,-3688,5928,-105,-314,248,42,-250
0,3310389,2202,399,-3692,5924,-99,-312,248,42,-250
0,3310402,2202,399,-3692,5924,-99,-312,248,42,-250
0,3310416,2201,418,-3699,5924,-99,-306,248,42,-250
0,3310430,2207,403,-3696,5929,-107,-309,248,42,-250
0,3310444,2207,411,-3700,5930,-104,-310,248,42,-250
0,3310458,2207,411,-3700,5930,-104,-310,248,42,-250
0,3310474,2205,421,-3698,5926,-103,-308,248,42,-250
0,3310487,2202,440,-3682,5928,-101,-307,238,44,-244
0,3310500,2202,440,-3682,5928,-101,-307,238,44,-244
0,3310516,2202,413,-3688,5926,-109,-312,238,44,-244
0,3310532,2201,413,-3690,5921,-105,-308,238,44,-244
0,3310546,2204,427,-3686,5918,-100,-305,238,44,-244
0,3310557,2204,427,-3686,5918,-100,-305,238,44,-244
0,3310570,2200,423,-3685,5924,-100,-307,238,44,-244
0,3310583,2206,423,-3691,5927,-97,-314,238,44,-244
0,3310598,2206,423,-3691,5927,-97,-314,238,44,-244
0,3310611,2204,413,-3686,5926,-96,-317,238,44,-244
0,3310626,2205,416,-3683,5925,-106,-308,240,52,-236
0,3310639,2205,416,-3683,5925,-106,-308,240,52,-236
0,3310651,2204,415,-3681,5915,-103,-296,240,52,-236
0,3310665,2201,427,-3676,5921,-108,-306,240,52,-236
0,3310680,2201,427,-3676,5921,-108,-306,240,52,-236
0,3310692,2208,415,-3679,5918,-100,-314,240,52,-236
0,3310707,2202,409,-3683,5908,-103,-313,240,52,-236
0,3310720,2202,409,-3683,5908,-103,-313,240,52,-236
0,3310735,2202,406,-3684,5915,-101,-309,240,52,-236
0,3310750,2200,414,-3683,5907,-98,-300,244,50,-230
0,3310766,2204,398,-3680,5915,-108,-310,244,50,-230
0,3310781,2204,398,-3680,5915,-108,-310,244,50,-230
0,3310793,2206,397,-3685,5916,-107,-307,244,50,-230
0,3310806,2206,395,-3688,5919,-105,-308,244,50,-230
0,3310820,2206,395,-3688,5919,-105,-308,244,50,-230
0,3310833,2204,404,-3683,5918,-106,-308,244,50,-230
0,3310846,2206,394,-3685,5919,-102,-312,244,50,-230
0,3310861,2206,394,-3685,5919,-102,-312,244,50,-230
0,3310872,2201,379,-3682,5917,-104,-309,238,46,-224
0,3310885,2206,380,-3680,5910,-104,-303,238,46,-224
0,3310899,2206,380,-3680,5910,-104,-303,238,46,-224
0,3310913,2206,380,-3680,5910,-104,-303,238,46,-224
0,3310927,2205,370,-3682,5919,-103,-309,238,46,-224
0,3310941,2205,370,-3682,5919,-103,-309,238,46,-224
0,3310950,2205,369,-3690,5918,-103,-313,238,46,-224
0,3310963,2205,369,-3690,5918,-103,-313,238,46,-224
0,3310978,2207,373,-3690,5916,-105,-303,238,46,-224
0,3310993,2207,389,-3688,5919,-101,-302,238,46,-224
0,3311008,2205,377,-3690,5923,-98,-306,230,54,-220
0,3311024,2205,377,-3690,5923,-98,-306,230,54,-220
0,3311037,2208,396,-3690,5921,-104,-310,230,54,-220
0,3311051,2205,379,-3695,5928,-104,-302,230,54,-220
0,3311066,2201,400,-3681,5922,-102,-304,230,54,-220
0,3311078,2201,400,-3681,5922,-102,-304,230,54,-220
0,3311090,2203,391,-3694,5935,-95,-310,230,54,-220
0,3311104,2203,391,-3694,5935,-95,-310,230,54,-220
0,3311117,2199,414,-3691,5931,-97,-310,230,54,-220
0,3311131,2204,395,-3694,5932,-94,-309,239,55,-209
0,3311143,2204,395,-3694,5932,-94,-309,239,55,-209
0,3311155,2203,412,-3689,5933,-99,-307,239,55,-209
0,3311168,2204,403,-3697,5936,-109,-310,239,55,-209
0,3311177,2204,403,-3697,5936,-109,-310,239,55,-209
0,3311188,2206,421,-3686,5928,-100,-311,239,55,-209
0,3311203,2206,421,-3686,5928,-100,-311,239,55,-209
0,3311217,2204,411,-3700,5926,-99,-314,239,55,-209
0,3311229,2202,416,-3690,5932,-102,-313,239,55,-209
0,3311238,2202,416,-3690,5932,-102,-313,239,55,-209
0,3311248,2207,408,-3695,5925,-106,-315,239,55,-209
0,3311256,2207,408,-3695,5925,-106,-315,239,55,-209
0,3311265,2202,413,-3688,5930,-94,-306,224,56,-204
0,3311275,2202,413,-3688,5930,-94,-306,224,56,-204
0,3311284,2202,413,-3688,5930,-94,-306,224,56,-204
0,3311292,2203,405,-3692,5913,-96,-313,224,56,-204
0,3311301,2203,405,-3692,5913,-96,-313,224,56,-204
0,3311309,2207,407,-3693,5915,-104,-316,224,56,-204
0,3311316,2207,407,-3693,5915,-104,-316,224,56,-204
0,3311326,2205,403,-3696,5919,-105,-313,224,56,-204
0,3311334,2205,403,-3696,5919,-105,-313,224,56,-204
0,3311343,2205,403,-3696,5919,-105,-313,224,56,-204
0,3311351,2210,404,-3691,5922,-102,-309,224,56,-204
0,3311361,2210,404,-3691,5922,-102,-309,224,56,-204
0,3311368,2206,402,-3695,5931,-107,-311,224,56,-204
0,3311377,2206,402,-3695,5931,-107,-311,224,56,-204
0,3311386,2205,390,-3688,5925,-108,-303,222,64,-192
0,3311393,2205,390,-3688,5925,-108,-303,222,64,-192
0,3311400,2205,390,-3688,5925,-108,-303,222,64,-192
0,3311409,2207,395,-3685,5935,-104,-308,222,64,-192
0,3311418,2207,395,-3685,5935,-104,-308,222,64,-192
0,3311426,2205,402,-3689,5938,-103,-300,222,64,-192
0,3311435,2205,402,-3689,5938,-103,-300,222,64,-192
0,3311442,2205,402,-3689,5938,-103,-300,222,64,-192
0,3311452,2204,418,-3685,5927,-103,-311,222,64,-192
0,3311460,2204,418,-3685,5927,-103,-311,222,64,-192
0,3311469,2202,397,-3692,5924,-107,-310,222,64,-192
0,3311477,2202,397,-3692,5924,-107,-310,222,64,-192
0,3311486,2208,412,-3686,5921,-97,-304,222,64,-192
0,3311493,2208,412,-3686,5921,-97,-304,222,64,-192
0,3311502,2208,412,-3686,5921,-97,-304,222,64,-192
0,3311511,2205,422,-3686,5927,-99,-306,209,57,-183
0,3311518,2205,422,-3686,5927,-99,-306,209,57,-183
0,3311527,2201,455,-3685,5929,-103,-311,209,57,-183
0,3311536,2201,455,-3685,5929,-103,-311,209,57,-183
0,3311545,2204,414,-3685,5926,-109,-315,209,57,-183
0,3311554,2204,414,-3685,5926,-109,-315,209,57,-183
0,3311564,2204,414,-3685,5926,-109,-315,209,57,-183
0,3311572,2204,420,-3689,5929,-105,-313,209,57,-183
0,3311582,2204,420,-3689,5929,-105,-313,209,57,-183
0,3311590,2210,427,-3690,5925,-106,-310,209,57,-183
0,3311599,2210,427,-3690,5925,-106,-310,209,57,-183
0,3311608,2197,424,-3690,5920,-104,-305,209,57,-183
0,3311618,2197,424,-3690,5920,-104,-305,209,57,-183
0,3311627,2205,426,-3688,5917,-104,-312,209,57,-183
0,3311636,2205,426,-3688,5917,-104,-312,209,57,-183
0,3311644,2204,417,-3681,5920,-101,-315,209,57,-183
0,3311652,2204,417,-3681,5920,-101,-315,195,71,-173
0,3311661,2204,417,-3681,5920,-101,-315,195,71,-173
0,3311669,2206,422,-3683,5924,-104,-310,195,71,-173
0,3311677,2206,422,-3683,5924,-104,-310,195,71,-173
0,3311686,2204,406,-3679,5921,-100,-303,195,71,-173
0,3311694,2204,406,-3679,5921,-100,-303,195,71,-173
0,3311704,2204,406,-3679,5921,-100,-303,195,71,-173
0,3311711,2202,433,-3679,5924,-102,-302,195,71,-173
0,3311719,2202,433,-3679,5924,-102,-302,195,71,-173
0,3311728,2207,413,-3690,5926,-104,-312,195,71,-173
0,3311736,2207,413,-3690,5926,-104,-312,195,71,-173
0,3311745,2207,413,-3690,5926,-104,-312,195,71,-173
0,3311754,2207,413,-3690,5926,-104,-312,195,71,-173
0,3311762,2207,413,-3690,5926,-104,-312,195,71,-173
0,3311771,2204,410,-3689,5925,-104,-310,194,68,-174
0,3311778,2204,410,-3689,5925,-104,-310,194,68,-174
0,3311788,2204,435,-3681,5928,-102,-315,194,68,-174
0,3311797,2204,435,-3681,5928,-102,-315,194,68,-174
0,3311804,2204,435,-3681,5928,-102,-315,194,68,-174
0,3311811,2207,418,-3684,5922,-104,-309,194,68,-174
0,3311819,2207,418,-3684,5922,-104,-309,194,68,-174
0,3311827,2207,418,-3684,5922,-104,-309,194,68,-174
0,3311836,2207,418,-3684,5922,-104,-309,194,68,-174
0,3311846,2204,409,-3679,5911,-103,-314,194,68,-174
0,3311854,2204,409,-3679,5911,-103,-314,194,68,-174
0,3311863,2204,409,-3679,5911,-103,-314,194,68,-174
0,3311872,2200,427,-3677,5916,-103,-310,194,68,-174
0,3311879,2200,427,-3677,5916,-103,-310,194,68,-174
0,3311887,2204,410,-3680,5918,-100,-307,194,68,-174
0,3311895,2204,410,-3680,5918,-100,-307,194,68,-174
0,3311903,2204,410,-3680,5918,-100,-307,194,68,-174
0,3311912,2209,404,-3675,5912,-101,-309,185,63,-177
0,3311923,2209,404,-3675,5912,-101,-309,185,63,-177
0,3311931,2208,393,-3680,5915,-106,-314,185,63,-177
0,3311939,2208,393,-3680,5915,-106,-314,185,63,-177
0,3311946,2210,354,-3686,5914,-108,-306,185,63,-177
0,3311955,2210,354,-3686,5914,-108,-306,185,63,-177
0,3311964,2210,354,-3686,5914,-108,-306,185,63,-177
0,3311973,2212,377,-3679,5917,-105,-312,185,63,-177
0,3311981,2212,377,-3679,5917,-105,-312,185,63,-177
0,3311989,2204,363,-3688,5912,-107,-310,185,63,-177
0,3311997,2204,363,-3688,5912,-107,-310,185,63,-177
0,3312007,2205,375,-3684,5912,-113,-311,185,63,-177
0,3312015,2205,375,-3684,5912,-113,-311,185,63,-177
0,3312023,2205,375,-3684,5912,-113,-311,185,63,-177
0,3312035,2204,357,-3690,5921,-109,-312,179,67,-165
0,3312046,2206,369,-3679,5912,-107,-319,179,67,-165
0,3312055,2206,369,-3679,5912,-107,-319,179,67,-165
0,3312062,2206,369,-3679,5912,-107,-319,179,67,-165
0,3312071,2208,379,-3691,5914,-105,-314,179,67,-165
0,3312080,2208,379,-3691,5914,-105,-314,179,67,-165
0,3312088,2199,387,-3691,5926,-110,-304,179,67,-165
0,3312097,2199,387,-3691,5926,-110,-304,179,67,-165
0,3312104,2199,387,-3691,5926,-110,-304,179,67,-165
0,3312113,2210,398,-3698,5934,-108,-315,179,67,-165
0,3312121,2210,398,-3698,5934,-108,-315,179,67,-165
0,3312130,2206,397,-3691,5936,-109,-316,179,67,-165
0,3312138,2206,397,-3691,5936,-109,-316,179,67,-165
0,3312146,2206,402,-3693,5932,-101,-306,179,67,-165
0,3312155,2206,402,-3693,5932,-101,-306,179,67,-165
0,3312163,2206,402,-3693,5932,-101,-306,179,67,-165
0,3312174,2205,404,-3686,5926,-97,-311,175,69,-171
0,3312180,2205,404,-3686,5926,-97,-311,175,69,-171
0,3312189,2205,415,-3691,5926,-102,-309,175,69,-171
0,3312197,2205,415,-3691,5926,-102,-309,175,69,-171
0,3312205,2209,390,-3693,5930,-109,-313,175,69,-171
0,3312215,2209,390,-3693,5930,-109,-313,175,69,-171
0,3312223,2209,390,-3693,5930,-109,-313,175,69,-171
0,3312231,2202,410,-3683,5932,-106,-308,175,69,-171
0,3312245,2202,410,-3683,5932,-106,-308,175,69,-171
0,3312259,2204,391,-3696,5932,-109,-309,175,69,-171
0,3312273,2205,405,-3687,5924,-100,-309,175,69,-171
0,3312288,2207,382,-3696,5925,-104,-301,168,66,-164
0,3312300,2207,382,-3696,5925,-104,-301,168,66,-164
0,3312311,2206,409,-3685,5924,-103,-302,168,66,-164
0,3312325,2206,409,-3685,5924,-103,-302,168,66,-164
0,3312339,2202,403,-3702,5931,-106,-307,168,66,-164
0,3312352,2202,407,-3699,5928,-102,-307,168,66,-164
0,3312363,2202,407,-3699,5928,-102,-307,168,66,-164
0,3312377,2209,401,-3696,5925,-102,-306,168,66,-164
0,3312391,2208,411,-3685,5926,-105,-305,168,66,-164
0,3312403,2208,411,-3685,5926,-105,-305,168,66,-164
0,3312417,2202,412,-3690,5934,-104,-308,162,68,-174
0,3312431,2206,413,-3692,5929,-99,-310,162,68,-174
0,3312444,2206,413,-3692,5929,-99,-310,162,68,-174
0,3312458,2205,409,-3694,5927,-102,-315,162,68,-174
0,3312473,2203,410,-3697,5921,-102,-302,162,68,-174
0,3312485,2203,410,-3697,5921,-102,-302,162,68,-174
0,3312498,2201,450,-3697,5919,-104,-300,162,68,-174
0,3312513,2203,417,-3691,5930,-108,-300,162,68,-174
0,3312527,2204,428,-3690,5928,-102,-306,162,68,-174
0,3312540,2204,428,-3690,5928,-102,-306,162,68,-174
0,3312555,2207,410,-3695,5921,-103,-314,165,73,-175
0,3312570,2204,444,-3678,5926,-103,-305,165,73,-175
0,3312581,2204,444,-3678,5926,-103,-305,165,73,-175
0,3312594,2202,421,-3685,5926,-106,-298,165,73,-175
0,3312608,2205,431,-3676,5926,-112,-311,165,73,-175
0,3312621,2205,431,-3676,5926,-112,-311,165,73,-175
0,3312636,2210,413,-3691,5919,-111,-314,165,73,-175
0,3312651,2204,431,-3679,5912,-110,-299,165,73,-175
0,3312662,2204,431,-3679,5912,-110,-299,165,73,-175
0,3312677,2210,412,-3688,5923,-110,-301,154,78,-172
0,3312693,2202,429,-3681,5918,-113,-314,154,78,-172
0,3312708,2207,413,-3683,5922,-103,-306,154,78,-172
0,3312720,2207,413,-3683,5922,-103,-306,154,78,-172
0,3312733,2204,419,-3686,5927,-103,-310,154,78,-172
0,3312746,2204,419,-3686,5927,-103,-310,154,78,-172
0,3312759,2205,419,-3682,5918,-100,-311,154,78,-172
0,3312774,2205,423,-3684,5927,-102,-307,154,78,-172
0,3312786,2212,416,-3690,5922,-100,-305,154,78,-172
0,3312802,2212,416,-3690,5922,-100,-305,154,78,-172
0,3312814,2205,407,-3683,5918,-95,-307,150,84,-176
0,3312827,2202,417,-3683,5916,-104,-318,150,84,-176
0,3312840,2202,417,-3683,5916,-104,-318,150,84,-176
0,3312855,2202,404,-3675,5908,-104,-311,150,84,-176
0,3312869,2203,410,-3681,5915,-101,-305,150,84,-176
0,3312880,2203,410,-3681,5915,-101,-305,150,84,-176
0,3312896,2203,410,-3681,5915,-101,-305,150,84,-176
0,3312911,2206,396,-3685,5915,-103,-305,150,84,-176
0,3312925,2206,396,-3685,5915,-103,-305,150,84,-176
0,3312937,2208,372,-3684,5911,-104,-302,150,92,-174
0,3312952,2208,374,-3685,5910,-104,-310,150,92,-174
0,3312967,2208,387,-3686,5912,-106,-305,150,92,-174
0,3312980,2208,387,-3686,5912,-106,-305,150,92,-174
0,3312994,2204,378,-3688,5925,-99,-307,150,92,-174
0,3313007,2206,388,-3680,5927,-99,-314,150,92,-174
0,3313019,2206,388,-3680,5927,-99,-314,150,92,-174
0,3313036,2206,377,-3687,5923,-106,-312,150,92,-174
0,3313047,2204,400,-3687,5930,-106,-303,150,92,-174
0,3313061,2204,400,-3687,5930,-106,-303,150,92,-174
0,3313076,2201,382,-3685,5933,-102,-303,151,91,-187
0,3313089,2205,405,-3679,5934,-100,-309,151,91,-187
0,3313100,2205,405,-3679,5934,-100,-309,151,91,-187
0,3313115,2208,391,-3692,5938,-102,-309,151,91,-187
0,3313129,2201,413,-3687,5928,-103,-310,151,91,-187
0,3313144,2201,413,-3687,5928,-103,-310,151,91,-187
0,3313158,2207,412,-3697,5932,-98,-312,151,91,-187
0,3313169,2206,418,-3688,5931,-101,-306,151,91,-187
0,3313183,2206,418,-3688,5931,-101,-306,151,91,-187
0,3313198,2210,409,-3688,5929,-101,-310,148,88,-186
0,3313211,2203,410,-3689,5929,-96,-315,148,88,-186
0,3313225,2203,410,-3689,5929,-96,-315,148,88,-186
0,3313240,2204,415,-3692,5932,-101,-309,148,88,-186
0,3313249,2201,412,-3689,5932,-104,-311,148,88,-186
0,3313256,2201,412,-3689,5932,-104,-311,148,88,-186
0,3313265,2201,412,-3689,5932,-104,-311,148,88,-186
0,3313274,2207,405,-3693,5913,-107,-309,148,88,-186
0,3313282,2207,405,-3693,5913,-107,-309,148,88,-186
0,3313290,2204,403,-3693,5916,-110,-308,148,88,-186
0,3313298,2204,403,-3693,5916,-110,-308,148,88,-186
0,3313306,2204,403,-3693,5916,-110,-308,148,88,-186
0,3313314,2205,415,-3692,5925,-108,-306,139,89,-195
0,3313323,2205,415,-3692,5925,-108,-306,139,89,-195
0,3313332,2206,403,-3690,5926,-101,-306,139,89,-195
0,3313339,2206,403,-3690,5926,-101,-306,139,89,-195
0,3313348,2207,400,-3695,5923,-102,-306,139,89,-195
0,3313356,2207,400,-3695,5923,-102,-306,139,89,-195
0,3313364,2207,400,-3695,5923,-102,-306,139,89,-195
0,3313374,2205,387,-3690,5921,-106,-311,139,89,-195
0,3313383,2205,387,-3690,5921,-106,-311,139,89,-195
0,3313391,2205,400,-3700,5923,-102,-308,139,89,-195
0,3313399,2205,400,-3700,5923,-102,-308,139,89,-195
0,3313408,2203,394,-3691,5932,-105,-307,139,89,-195
0,3313416,2203,394,-3691,5932,-105,-307,139,89,-195
0,3313425,2203,394,-3691,5932,-105,-307,139,89,-195
0,3313433,2206,404,-3695,5930,-106,-306,139,89,-195
0,3313442,2206,404,-3695,5930,-106,-306,139,89,-195
0,3313451,2205,411,-3692,5933,-103,-312,138,82,-190
0,3313460,2205,411,-3692,5933,-103,-312,138,82,-190
0,3313470,2203,406,-3694,5926,-99,-310,138,82,-190
0,3313477,2203,406,-3694,5926,-99,-310,138,82,-190
0,3313486,2203,406,-3694,5926,-99,-310,138,82,-190
0,3313495,2205,413,-3690,5933,-102,-315,138,82,-190
0,3313504,2205,413,-3690,5933,-102,-315,138,82,-190
0,3313513,2207,410,-3689,5924,-104,-313,138,82,-190
0,3313521,2207,410,-3689,5924,-104,-313,138,82,-190
0,3313531,2203,461,-3698,5925,-109,-317,138,82,-190
0,3313540,2203,461,-3698,5925,-109,-317,138,82,-190
0,3313549,2203,412,-3699,5935,-108,-310,138,82,-190
0,3313558,2203,412,-3699,5935,-108,-310,138,82,-190
0,3313566,2203,412,-3699,5935,-108,-310,138,82,-190
0,3313574,2204,441,-3680,5925,-99,-309,135,93,-197
0,3313584,2204,441,-3680,5925,-99,-309,135,93,-197
0,3313593,2206,412,-3689,5928,-97,-309,135,93,-197
0,3313603,2206,412,-3689,5928,-97,-309,135,93,-197
0,3313611,2202,447,-3685,5926,-108,-300,135,93,-197
0,3313622,2202,447,-3685,5926,-108,-300,135,93,-197
0,3313630,2209,414,-3692,5922,-108,-309,135,93,-197
0,3313641,2209,414,-3692,5922,-108,-309,135,93,-197
0,3313649,2200,430,-3684,5922,-105,-313,135,93,-197
0,3313658,2200,430,-3684,5922,-105,-313,135,93,-197
0,3313667,2200,430,-3684,5922,-105,-313,135,93,-197
0,3313676,2208,417,-3692,5921,-104,-315,135,93,-197
0,3313684,2208,417,-3692,5921,-104,-315,135,93,-197
0,3313693,2202,431,-3687,5924,-102,-307,135,93,-197
0,3313703,2202,431,-3687,5924,-102,-307,135,93,-197
0,3313713,2204,423,-3687,5919,-102,-312,145,87,-207
0,3313722,2204,423,-3687,5919,-102,-312,145,87,-207
0,3313730,2203,432,-3679,5921,-109,-311,145,87,-207
0,3313739,2203,432,-3679,5921,-109,-311,145,87,-207
0,3313746,2203,432,-3679,5921,-109,-311,145,87,-207
0,3313756,2206,414,-3691,5922,-110,-305,145,87,-207
0,3313765,2206,414,-3691,5922,-110,-305,145,87,-207
0,3313774,2206,422,-3685,5915,-107,-307,145,87,-207
0,3313782,2206,422,-3685,5915,-107,-307,145,87,-207
0,3313788,2201,428,-3683,5921,-100,-308,145,87,-207
0,3313795,2201,428,-3683,5921,-100,-308,145,87,-207
0,3313801,2201,428,-3683,5921,-100,-308,145,87,-207
0,3313810,2202,428,-3684,5919,-99,-305,145,87,-207
0,3313820,2202,428,-3684,5919,-99,-305,145,87,-207
0,3313829,2205,417,-3679,5919,-99,-312,144,86,-208
0,3313839,2205,417,-3679,5919,-99,-312,144,86,-208
0,3313846,2205,417,-3679,5919,-99,-312,144,86,-208
0,3313855,2204,417,-3683,5915,-95,-310,144,86,-208
0,3313864,2204,417,-3683,5915,-95,-310,144,86,-208
0,3313872,2203,429,-3680,5920,-93,-307,144,86,-208
0,3313882,2203,429,-3680,5920,-93,-307,144,86,-208
0,3313892,2203,428,-3682,5922,-97,-304,144,86,-208
0,3313901,2203,428,-3682,5922,-97,-304,144,86,-208
0,3313909,2207,419,-3682,5912,-102,-303,144,86,-208
0,3313918,2207,419,-3682,5912,-102,-303,144,86,-208
0,3313926,2207,419,-3682,5912,-102,-303,144,86,-208
0,3313935,2206,412,-3682,5912,-108,-304,144,86,-208
0,3313943,2206,412,-3682,5912,-108,-304,144,86,-208
0,3313951,2205,406,-3683,5908,-107,-313,151,79,-211
0,3313959,2205,406,-3683,5908,-107,-313,151,79,-211
0,3313969,2202,395,-3678,5917,-102,-317,151,79,-211
0,3313978,2202,395,-3678,5917,-102,-317,151,79,-211
0,3313987,2202,395,-3678,5917,-102,-317,151,79,-211
0,3313996,2202,395,-3678,5917,-102,-317,151,79,-211
0,3314006,2202,395,-3678,5917,-102,-317,151,79,-211
0,3314014,2207,375,-3678,5905,-107,-309,151,79,-211
0,3314023,2207,375,-3678,5905,-107,-309,151,79,-211
0,3314033,2207,365,-3683,5909,-107,-302,151,79,-211
0,3314041,2207,365,-3683,5909,-107,-302,151,79,-211
0,3314051,2205,378,-3684,5912,-101,-300,151,79,-211
0,3314059,2205,378,-3684,5912,-101,-300,151,79,-211
0,3314067,2205,378,-3684,5912,-101,-300,151,79,-211
0,3314074,2211,342,-3693,5917,-106,-310,151,79,-211
0,3314083,2211,342,-3693,5917,-106,-310,151,79,-211
0,3314091,2207,387,-3688,5918,-103,-312,145,77,-229
0,3314099,2207,387,-3688,5918,-103,-312,145,77,-229
0,3314108,2206,383,-3697,5919,-96,-301,145,77,-229
0,3314118,2206,383,-3697,5919,-96,-301,145,77,-229
0,3314127,2206,383,-3697,5919,-96,-301,145,77,-229
0,3314136,2200,414,-3691,5937,-95,-298,145,77,-229
0,3314145,2200,414,-3691,5937,-95,-298,145,77,-229
0,3314154,2203,389,-3691,5937,-93,-308,145,77,-229
0,3314164,2203,389,-3691,5937,-93,-308,145,77,-229
0,3314173,2208,406,-3690,5940,-102,-315,145,77,-229
0,3314183,2208,406,-3690,5940,-102,-315,145,77,-229
0,3314192,2201,406,-3698,5934,-95,-304,145,77,-229
0,3314201,2201,406,-3698,5934,-95,-304,145,77,-229
0,3314210,2200,419,-3690,5929,-101,-301,151,75,-227
0,3314220,2200,419,-3690,5929,-101,-301,151,75,-227
0,3314229,2207,400,-3690,5934,-105,-310,151,75,-227
0,3314238,2207,400,-3690,5934,-105,-310,151,75,-227
0,3314246,2207,400,-3690,5934,-105,-310,151,75,-227
0,3314262,2211,398,-3687,5932,-105,-306,151,75,-227
0,3314276,2211,396,-3700,5921,-106,-301,151,75,-227
0,3314289,2208,396,-3693,5918,-98,-301,151,75,-227
0,3314304,2208,396,-3693,5918,-98,-301,151,75,-227
0,3314317,2207,413,-3694,5924,-102,-309,151,75,-227
0,3314330,2203,401,-3699,5924,-105,-309,151,75,-227
0,3314343,2203,401,-3699,5924,-105,-309,151,75,-227
0,3314358,2203,401,-3699,5924,-105,-309,166,78,-238
0,3314372,2200,402,-3695,5928,-98,-300,166,78,-238
0,3314385,2200,402,-3695,5928,-98,-300,166,78,-238
0,3314399,2202,425,-3688,5929,-107,-306,166,78,-238
0,3314410,2205,398,-3697,5932,-103,-310,166,78,-238
0,3314423,2205,398,-3697,5932,-103,-310,166,78,-238
0,3314438,2206,417,-3696,5924,-102,-307,166,78,-238
0,3314451,2209,408,-3702,5931,-103,-304,166,78,-238
0,3314464,2209,408,-3702,5931,-103,-304,166,78,-238
0,3314477,2206,429,-3692,5934,-99,-306,164,68,-246
0,3314488,2203,441,-3701,5944,-97,-308,164,68,-246
0,3314501,2203,441,-3701,5944,-97,-308,164,68,-246
0,3314515,2202,422,-3688,5934,-98,-302,164,68,-246
0,3314530,2202,427,-3690,5931,-106,-306,164,68,-246
0,3314544,2202,427,-3690,5931,-106,-306,164,68,-246
0,3314556,2202,422,-3682,5924,-103,-311,164,68,-246
0,3314571,2199,441,-3692,5922,-99,-302,164,68,-246
0,3314586,2199,441,-3692,5922,-99,-302,164,68,-246
0,3314596,2199,424,-3691,5925,-95,-308,164,68,-246
0,3314610,2204,428,-3689,5926,-98,-310,167,65,-245
0,3314624,2204,428,-3689,5926,-98,-310,167,65,-245
0,3314637,2209,421,-3693,5923,-109,-302,167,65,-245
0,3314651,2203,435,-3692,5923,-108,-300,167,65,-245
0,3314664,2203,435,-3692,5923,-108,-300,167,65,-245
0,3314677,2205,414,-3695,5925,-105,-310,167,65,-245
0,3314690,2204,424,-3689,5916,-108,-313,167,65,-245
0,3314703,2204,424,-3689,5916,-108,-313,167,65,-245
0,3314716,2202,414,-3688,5916,-100,-308,167,65,-245
0,3314731,2201,425,-3685,5921,-100,-304,173,63,-263
0,3314746,2201,425,-3685,5921,-100,-304,173,63,-263
0,3314758,2199,418,-3684,5919,-98,-313,173,63,-263
0,3314774,2204,422,-3680,5916,-103,-311,173,63,-263
0,3314788,2204,422,-3680,5916,-103,-311,173,63,-263
0,3314802,2206,409,-3686,5917,-106,-308,173,63,-263
0,3314816,2205,412,-3686,5921,-98,-311,173,63,-263
0,3314829,2202,412,-3689,5916,-105,-306,173,63,-263
0,3314844,2202,412,-3689,5916,-105,-306,173,63,-263
0,3314859,2203,414,-3687,5919,-105,-308,174,56,-266
0,3314872,2209,406,-3679,5921,-109,-298,174,56,-266
0,3314885,2209,406,-3679,5921,-109,-298,174,56,-266
0,3314896,2202,404,-3683,5930,-101,-297,174,56,-266
0,3314909,2204,390,-3679,5923,-102,-300,174,56,-266
0,3314922,2204,390,-3679,5923,-102,-300,174,56,-266
0,3314936,2208,367,-3683,5915,-96,-312,174,56,-266
0,3314950,2209,373,-3683,5913,-107,-310,174,56,-266
0,3314963,2209,373,-3683,5913,-107,-310,174,56,-266
0,3314976,2203,379,-3689,5911,-108,-317,174,56,-266
0,3314990,2206,382,-3679,5916,-108,-305,187,59,-269
0,3315003,2206,382,-3679,5916,-108,-305,187,59,-269
0,3315016,2207,382,-3691,5913,-104,-311,187,59,-269
0,3315032,2209,373,-3694,5921,-100,-312,187,59,-269
0,3315042,2209,373,-3694,5921,-100,-312,187,59,-269
0,3315057,2207,393,-3698,5922,-95,-300,187,59,-269
0,3315072,2207,393,-3698,5922,-95,-300,187,59,-269
0,3315083,2207,393,-3698,5922,-95,-300,187,59,-269
0,3315097,2209,397,-3693,5927,-104,-311,187,59,-269
0,3315109,2209,397,-3693,5927,-104,-311,196,48,-274
0,3315124,2209,397,-3693,5927,-104,-311,196,48,-274
0,3315137,2202,406,-3698,5932,-101,-312,196,48,-274
0,3315148,2202,406,-3698,5932,-101,-312,196,48,-274
0,3315161,2202,398,-3693,5926,-104,-305,196,48,-274
0,3315174,2206,427,-3697,5932,-105,-310,196,48,-274
0,3315187,2206,427,-3697,5932,-105,-310,196,48,-274
0,3315202,2208,400,-3700,5934,-103,-300,196,48,-274
0,3315215,2208,419,-3693,5930,-98,-303,196,48,-274
0,3315227,2208,419,-3693,5930,-98,-303,196,48,-274
0,3315240,2202,405,-3703,5936,-101,-304,196,48,-274
0,3315254,2204,423,-3698,5934,-105,-298,200,42,-280
0,3315263,2204,423,-3698,5934,-105,-298,200,42,-280
0,3315271,2207,395,-3698,5932,-101,-312,200,42,-280
0,3315279,2207,395,-3698,5932,-101,-312,200,42,-280
0,3315288,2207,395,-3698,5932,-101,-312,200,42,-280
0,3315297,2204,409,-3693,5930,-108,-308,200,42,-280
0,3315307,2204,409,-3693,5930,-108,-308,200,42,-280
0,3315314,2202,400,-3700,5927,-106,-307,200,42,-280
0,3315322,2202,400,-3700,5927,-106,-307,200,42,-280
0,3315331,2197,418,-3695,5925,-101,-308,200,42,-280
0,3315337,2197,418,-3695,5925,-101,-308,200,42,-280
0,3315347,2197,418,-3695,5925,-101,-308,200,42,-280
0,3315357,2202,389,-3697,5919,-97,-307,200,42,-280
0,3315366,2202,389,-3697,5919,-97,-307,200,42,-280
0,3315376,2205,390,-3695,5925,-105,-307,197,43,-289
0,3315385,2205,390,-3695,5925,-105,-307,197,43,-289
0,3315394,2205,396,-3697,5927,-104,-304,197,43,-289
0,3315402,2205,396,-3697,5927,-104,-304,197,43,-289
0,3315412,2208,396,-3702,5928,-96,-309,197,43,-289
0,3315423,2208,396,-3702,5928,-96,-309,197,43,-289
0,3315433,2205,410,-3695,5925,-105,-309,197,43,-289
0,3315441,2205,410,-3695,5925,-105,-309,197,43,-289
0,3315449,2204,400,-3701,5932,-105,-305,197,43,-289
0,3315460,2204,400,-3701,5932,-105,-305,197,43,-289
0,3315470,2201,412,-3696,5922,-97,-307,197,43,-289
0,3315479,2201,412,-3696,5922,-97,-307,197,43,-289
0,3315488,2201,412,-3696,5922,-97,-307,197,43,-289
0,3315497,2199,403,-3695,5924,-107,-314,197,43,-289
0,3315507,2199,403,-3695,5924,-107,-314,197,43,-289
0,3315516,2200,446,-3694,5933,-102,-310,197,43,-289
0,3315525,2200,446,-3694,5933,-102,-310,197,43,-289
0,3315533,2197,420,-3701,5921,-106,-312,197,43,-289
0,3315543,2197,420,-3701,5921,-106,-312,197,43,-289
0,3315552,2202,429,-3691,5933,-103,-312,197,43,-289
0,3315564,2202,429,-3691,5933,-103,-312,197,43,-289
0,3315574,2207,403,-3694,5934,-102,-310,197,43,-289
0,3315582,2207,403,-3694,5934,-102,-310,197,43,-289
0,3315593,2205,453,-3695,5933,-101,-305,197,43,-289
0,3315603,2205,453,-3695,5933,-101,-305,197,43,-289
0,3315610,2201,413,-3699,5931,-95,-304,197,43,-289
0,3315621,2201,413,-3699,5931,-95,-304,197,43,-289
0,3315629,2201,413,-3699,5931,-95,-304,197,43,-289
0,3315635,2205,429,-3681,5924,-110,-309,221,47,-285
0,3315643,2205,429,-3681,5924,-110,-309,221,47,-285
0,3315649,2205,429,-3681,5924,-110,-309,221,47,-285
0,3315658,2208,406,-3702,5921,-112,-314,221,47,-285
0,3315667,2208,406,-3702,5921,-112,-314,221,47,-285
0,3315677,2199,436,-3686,5923,-107,-303,221,47,-285
0,3315683,2199,436,-3686,5923,-107,-303,221,47,-285
0,3315693,2203,403,-3693,5935,-95,-306,221,47,-285
0,3315703,2203,403,-3693,5935,-95,-306,221,47,-285
0,3315715,2197,434,-3686,5929,-107,-308,221,47,-285
0,3315723,2197,434,-3686,5929,-107,-308,221,47,-285
0,3315733,2201,409,-3695,5925,-105,-305,221,47,-285
0,3315742,2201,409,-3695,5925,-105,-305,221,47,-285
0,3315750,2201,427,-3689,5924,-106,-304,220,46,-284
0,3315762,2201,427,-3689,5924,-106,-304,220,46,-284
0,3315771,2207,417,-3684,5926,-98,-304,220,46,-284
0,3315783,2207,417,-3684,5926,-98,-304,220,46,-284
0,3315792,2200,436,-3690,5926,-105,-310,220,46,-284
0,3315801,2200,436,-3690,5926,-105,-310,220,46,-284
0,3315810,2206,409,-3685,5924,-108,-314,220,46,-284
0,3315817,2206,409,-3685,5924,-108,-314,220,46,-284
0,3315825,2206,409,-3685,5924,-108,-314,220,46,-284
0,3315834,2207,415,-3689,5925,-102,-298,220,46,-284
0,3315845,2207,415,-3689,5925,-102,-298,220,46,-284
0,3315857,2206,415,-3688,5919,-103,-311,220,46,-284
0,3315866,2206,415,-3688,5919,-103,-311,220,46,-284
0,3315876,2196,429,-3691,5924,-100,-313,220,46,-284
0,3315887,2196,429,-3691,5924,-100,-313,220,46,-284
0,3315895,2203,416,-3677,5924,-101,-310,233,45,-287
0,3315906,2203,416,-3677,5924,-101,-310,233,45,-287
0,3315915,2199,413,-3684,5929,-103,-309,233,45,-287
0,3315924,2199,413,-3684,5929,-103,-309,233,45,-287
0,3315935,2207,410,-3683,5929,-106,-308,233,45,-287
0,3315945,2207,410,-3683,5929,-106,-308,233,45,-287
0,3315956,2199,405,-3684,5921,-111,-308,233,45,-287
0,3315969,2199,405,-3684,5921,-111,-308,233,45,-287
0,3315978,2208,365,-3687,5916,-105,-304,233,45,-287
0,3315988,2208,365,-3687,5916,-105,-304,233,45,-287
0,3315997,2204,357,-3684,5912,-102,-307,233,45,-287
0,3316007,2204,357,-3684,5912,-102,-307,233,45,-287
0,3316019,2209,367,-3691,5918,-102,-302,224,54,-286
0,3316028,2209,367,-3691,5918,-102,-302,224,54,-286
0,3316035,2201,383,-3691,5918,-100,-299,224,54,-286
0,3316046,2201,383,-3691,5918,-100,-299,224,54,-286
0,3316058,2200,348,-3693,5924,-103,-312,224,54,-286
0,3316066,2200,348,-3693,5924,-103,-312,224,54,-286
0,3316077,2209,367,-3694,5920,-109,-315,224,54,-286
0,3316086,2209,367,-3694,5920,-109,-315,224,54,-286
0,3316094,2203,364,-3707,5918,-102,-305,224,54,-286
0,3316103,2203,364,-3707,5918,-102,-305,224,54,-286
0,3316112,2198,391,-3694,5936,-98,-298,224,54,-286
0,3316124,2198,391,-3694,5936,-98,-298,224,54,-286
0,3316134,2206,391,-3700,5941,-99,-312,224,54,-286
0,3316144,2206,391,-3700,5941,-99,-312,224,54,-286
0,3316155,2205,397,-3693,5930,-111,-310,232,46,-286
0,3316163,2205,397,-3693,5930,-111,-310,232,46,-286
0,3316172,2209,399,-3704,5930,-109,-304,232,46,-286
0,3316184,2209,399,-3704,5930,-109,-304,232,46,-286
0,3316193,2203,406,-3698,5935,-93,-296,232,46,-286
0,3316204,2203,406,-3698,5935,-93,-296,232,46,-286
0,3316214,2203,423,-3698,5933,-100,-306,232,46,-286
0,3316222,2203,423,-3698,5933,-100,-306,232,46,-286
0,3316231,2202,401,-3695,5930,-104,-309,232,46,-286
0,3316242,2202,401,-3695,5930,-104,-309,232,46,-286
0,3316249,2202,401,-3695,5930,-104,-309,232,46,-286
0,3316260,2203,401,-3706,5931,-102,-306,232,46,-286
0,3316274,2201,398,-3696,5929,-99,-310,236,54,-282
0,3316288,2201,398,-3696,5929,-99,-310,236,54,-282
0,3316301,2200,418,-3693,5929,-107,-307,236,54,-282
0,3316315,2204,396,-3689,5928,-106,-314,236,54,-282
0,3316330,2204,396,-3689,5928,-106,-314,236,54,-282
0,3316345,2201,403,-3698,5925,-105,-313,236,54,-282
0,3316361,2209,395,-3701,5922,-107,-311,236,54,-282
0,3316374,2202,415,-3699,5937,-97,-304,236,54,-282
0,3316386,2202,415,-3699,5937,-97,-304,236,54,-282
0,3316402,2208,404,-3695,5928,-104,-311,232,44,-274
0,3316415,2201,404,-3696,5929,-99,-311,232,44,-274
0,3316428,2201,404,-3696,5929,-99,-311,232,44,-274
0,3316442,2201,394,-3691,5935,-104,-313,232,44,-274
0,3316457,2198,417,-3697,5931,-104,-303,232,44,-274
0,3316469,2198,417,-3697,5931,-104,-303,232,44,-274
0,3316483,2201,413,-3698,5928,-104,-311,232,44,-274
0,3316496,2196,415,-3701,5928,-104,-314,232,44,-274
0,3316509,2196,415,-3701,5928,-104,-314,232,44,-274
0,3316524,2201,432,-3691,5925,-103,-307,232,44,-274
0,3316539,2202,424,-3686,5933,-103,-301,249,53,-275
0,3316554,2203,430,-3688,5926,-104,-307,249,53,-275
0,3316569,2203,430,-3688,5926,-104,-307,249,53,-275
0,3316583,2204,410,-3689,5921,-104,-316,249,53,-275
0,3316592,2202,432,-3691,5918,-103,-304,249,53,-275
0,3316604,2202,432,-3691,5918,-103,-304,249,53,-275
0,3316620,2199,411,-3693,5925,-98,-301,249,53,-275
