imu,time,ax,ay,az,gx,gy,gz,mx,my,mz
2,3028252,-1437,517,-1403,3334,-24,-102,52,-2,-92
2,3028265,-1437,517,-1403,3334,-24,-102,52,-2,-92
2,3028280,-1436,518,-1399,3332,-15,-98,52,-2,-92
2,3028292,-1436,511,-1399,3331,-14,-92,52,-2,-92
2,3028307,-1436,511,-1399,3331,-14,-92,52,-2,-92
2,3028320,-1432,515,-1402,3331,-22,-83,52,-2,-92
2,3028334,-1436,520,-1405,3330,-18,-89,52,-2,-92
2,3028348,-1436,520,-1405,3330,-18,-89,52,-2,-92
2,3028364,-1429,512,-1405,3333,-17,-99,52,-2,-92
2,3028378,-1431,521,-1399,3335,-22,-103,53,-3,-93
2,3028392,-1433,512,-1400,3336,-17,-99,53,-3,-93
2,3028407,-1433,512,-1400,3336,-17,-99,53,-3,-93
2,3028421,-1434,512,-1402,3335,-17,-98,53,-3,-93
2,3028435,-1430,504,-1399,3332,-25,-100,53,-3,-93
2,3028445,-1430,504,-1399,3332,-25,-100,53,-3,-93
2,3028454,-1434,504,-1403,3328,-20,-90,53,-3,-93
2,3028467,-1434,504,-1403,3328,-20,-90,53,-3,-93
2,3028477,-1437,495,-1407,3331,-21,-92,53,-3,-93
2,3028485,-1437,495,-1407,3331,-21,-92,53,-3,-93
2,3028493,-1435,501,-1402,3334,-20,-89,51,-7,-105
2,3028500,-1435,501,-1402,3334,-20,-89,51,-7,-105
2,3028510,-1435,501,-1402,3334,-20,-89,51,-7,-105
2,3028517,-1434,501,-1403,3331,-16,-84,51,-7,-105
2,3028526,-1434,501,-1403,3331,-16,-84,51,-7,-105
2,3028534,-1431,501,-1403,3336,-16,-92,51,-7,-105
2,3028542,-1431,501,-1403,3336,-16,-92,51,-7,-105
2,3028550,-1431,501,-1403,3336,-16,-92,51,-7,-105
2,3028558,-1431,490,-1410,3331,-25,-92,51,-7,-105
2,3028566,-1431,490,-1410,3331,-25,-92,51,-7,-105
2,3028574,-1434,500,-1406,3328,-21,-94,51,-7,-105
2,3028582,-1434,500,-1406,3328,-21,-94,51,-7,-105
2,3028590,-1434,500,-1406,3328,-21,-94,51,-7,-105
2,3028598,-1436,500,-1405,3331,-16,-91,51,-7,-105
2,3028608,-1436,500,-1405,3331,-16,-91,51,-7,-105
2,3028615,-1433,495,-1405,3330,-12,-96,51,-1,-99
2,3028623,-1433,495,-1405,3330,-12,-96,51,-1,-99
2,3028630,-1433,495,-1405,3330,-12,-96,51,-1,-99
2,3028638,-1430,480,-1407,3335,-9,-87,51,-1,-99
2,3028646,-1430,480,-1407,3335,-9,-87,51,-1,-99
2,3028654,-1432,484,-1408,3328,-22,-92,51,-1,-99
2,3028662,-1432,484,-1408,3328,-22,-92,51,-1,-99
2,3028669,-1432,484,-1408,3328,-22,-92,51,-1,-99
2,3028677,-1432,489,-1407,3336,-22,-89,51,-1,-99
2,3028685,-1432,489,-1407,3336,-22,-89,51,-1,-99
2,3028692,-1432,484,-1413,3337,-17,-90,51,-1,-99
2,3028701,-1432,484,-1413,3337,-17,-90,51,-1,-99
2,3028709,-1432,484,-1413,3337,-17,-90,51,-1,-99
2,3028716,-1429,476,-1408,3341,-23,-95,51,-1,-99
2,3028724,-1429,476,-1408,3341,-23,-95,51,-1,-99
2,3028733,-1432,487,-1403,3341,-21,-94,57,1,-107
2,3028741,-1432,487,-1403,3341,-21,-94,57,1,-107
2,3028749,-1432,487,-1403,3341,-21,-94,57,1,-107
2,3028757,-1434,502,-1409,3338,-13,-96,57,1,-107
2,3028766,-1434,502,-1409,3338,-13,-96,57,1,-107
2,3028774,-1436,494,-1410,3337,-22,-103,57,1,-107
2,3028784,-1436,494,-1410,3337,-22,-103,57,1,-107
2,3028793,-1431,502,-1407,3340,-26,-96,57,1,-107
2,3028802,-1431,502,-1407,3340,-26,-96,57,1,-107
2,3028810,-1431,502,-1407,3340,-26,-96,57,1,-107
2,3028819,-1434,512,-1411,3342,-20,-103,57,1,-107
2,3028829,-1434,512,-1411,3342,-20,-103,57,1,-107
2,3028838,-1435,508,-1408,3346,-15,-86,57,1,-107
2,3028847,-1435,508,-1408,3346,-15,-86,57,1,-107
2,3028856,-1435,505,-1406,3345,-28,-99,58,0,-116
2,3028865,-1435,505,-1406,3345,-28,-99,58,0,-116
2,3028874,-1431,508,-1407,3341,-21,-104,58,0,-116
2,3028884,-1431,508,-1407,3341,-21,-104,58,0,-116
2,3028897,-1433,505,-1408,3345,-26,-97,58,0,-116
2,3028912,-1433,505,-1408,3345,-26,-97,58,0,-116
2,3028924,-1433,505,-1408,3345,-26,-97,58,0,-116
2,3028938,-1432,506,-1410,3347,-20,-97,58,0,-116
2,3028954,-1430,505,-1410,3350,-15,-92,58,0,-116
2,3028969,-1430,505,-1410,3350,-15,-92,58,0,-116
2,3028983,-1432,504,-1409,3354,-26,-98,58,0,-116
2,3028996,-1436,519,-1409,3353,-17,-97,65,-9,-111
2,3029011,-1436,519,-1409,3353,-17,-97,65,-9,-111
2,3029025,-1434,520,-1408,3351,-14,-96,65,-9,-111
2,3029040,-1437,538,-1403,3347,-15,-95,65,-9,-111
2,3029053,-1432,511,-1407,3349,-18,-95,65,-9,-111
2,3029066,-1432,511,-1407,3349,-18,-95,65,-9,-111
2,3029079,-1433,526,-1408,3347,-11,-103,65,-9,-111
2,3029091,-1433,526,-1408,3347,-11,-103,65,-9,-111
2,3029104,-1431,518,-1411,3349,-11,-98,65,-9,-111
2,3029115,-1434,539,-1406,3335,-18,-93,71,-15,-123
2,3029129,-1434,539,-1406,3335,-18,-93,71,-15,-123
2,3029137,-1432,521,-1408,3342,-13,-98,71,-15,-123
2,3029149,-1432,521,-1408,3342,-13,-98,71,-15,-123
2,3029164,-1433,537,-1409,3345,-23,-97,71,-15,-123
2,3029179,-1435,533,-1407,3347,-21,-94,71,-15,-123
2,3029187,-1435,533,-1407,3347,-21,-94,71,-15,-123
2,3029198,-1439,553,-1405,3337,-20,-91,71,-15,-123
2,3029207,-1439,553,-1405,3337,-20,-91,71,-15,-123
2,3029216,-1441,558,-1402,3338,-18,-94,71,-15,-123
2,3029226,-1441,558,-1402,3338,-18,-94,71,-15,-123
2,3029235,-1435,545,-1401,3348,-12,-95,69,-9,-125
2,3029242,-1435,545,-1401,3348,-12,-95,69,-9,-125
2,3029251,-1435,545,-1401,3348,-12,-95,69,-9,-125
2,3029259,-1433,541,-1397,3339,-10,-92,69,-9,-125
2,3029267,-1433,541,-1397,3339,-10,-92,69,-9,-125
2,3029277,-1435,550,-1402,3332,-15,-93,69,-9,-125
2,3029285,-1435,550,-1402,3332,-15,-93,69,-9,-125
2,3029295,-1437,537,-1407,3326,-22,-94,69,-9,-125
2,3029304,-1437,537,-1407,3326,-22,-94,69,-9,-125
2,3029312,-1434,535,-1404,3329,-15,-93,69,-9,-125
2,3029320,-1434,535,-1404,3329,-15,-93,69,-9,-125
2,3029328,-1434,535,-1404,3329,-15,-93,69,-9,-125
2,3029337,-1433,528,-1407,3333,-15,-100,69,-9,-125
2,3029345,-1433,528,-1407,3333,-15,-100,69,-9,-125
2,3029354,-1432,537,-1397,3332,-29,-95,70,-20,-124
2,3029362,-1432,537,-1397,3332,-29,-95,70,-20,-124
2,3029371,-1432,537,-1397,3332,-29,-95,70,-20,-124
2,3029380,-1440,485,-1397,3334,-17,-96,70,-20,-124
2,3029390,-1440,485,-1397,3334,-17,-96,70,-20,-124
2,3029398,-1435,534,-1402,3324,-12,-104,70,-20,-124
2,3029406,-1435,534,-1402,3324,-12,-104,70,-20,-124
2,3029415,-1435,505,-1405,3326,-25,-88,70,-20,-124
2,3029424,-1435,505,-1405,3326,-25,-88,70,-20,-124
2,3029433,-1440,535,-1403,3328,-20,-91,70,-20,-124
2,3029441,-1440,535,-1403,3328,-20,-91,70,-20,-124
2,3029449,-1440,535,-1403,3328,-20,-91,70,-20,-124
2,3029457,-1437,502,-1403,3328,-17,-98,70,-20,-124
2,3029466,-1437,502,-1403,3328,-17,-98,70,-20,-124
2,3029475,-1431,528,-1388,3325,-24,-91,76,-18,-124
2,3029484,-1431,528,-1388,3325,-24,-91,76,-18,-124
2,3029492,-1433,506,-1401,3338,-26,-86,76,-18,-124
2,3029500,-1433,506,-1401,3338,-26,-86,76,-18,-124
2,3029509,-1433,506,-1401,3338,-26,-86,76,-18,-124
2,3029517,-1437,511,-1398,3331,-19,-92,76,-18,-124
2,3029525,-1437,511,-1398,3331,-19,-92,76,-18,-124
2,3029533,-1433,487,-1405,3330,-23,-95,76,-18,-124
2,3029541,-1433,487,-1405,3330,-23,-95,76,-18,-124
2,3029550,-1433,487,-1405,3330,-23,-95,76,-18,-124
2,3029558,-1429,476,-1408,3328,-20,-97,76,-18,-124
2,3029567,-1429,476,-1408,3328,-20,-97,76,-18,-124
2,3029575,-1434,481,-1402,3332,-20,-94,76,-18,-124
2,3029583,-1434,481,-1402,3332,-20,-94,76,-18,-124
2,3029593,-1433,480,-1407,3332,-23,-92,72,-18,-134
2,3029601,-1433,480,-1407,3332,-23,-92,72,-18,-134
2,3029610,-1433,480,-1407,3332,-23,-92,72,-18,-134
2,3029618,-1432,488,-1399,3328,-27,-95,72,-18,-134
2,3029627,-1432,488,-1399,3328,-27,-95,72,-18,-134
2,3029635,-1430,485,-1404,3332,-18,-96,72,-18,-134
2,3029644,-1430,485,-1404,3332,-18,-96,72,-18,-134
2,3029652,-1433,483,-1406,3329,-23,-92,72,-18,-134
2,3029661,-1433,483,-1406,3329,-23,-92,72,-18,-134
2,3029670,-1433,483,-1406,3329,-23,-92,72,-18,-134
2,3029680,-1430,491,-1409,3329,-24,-88,72,-18,-134
2,3029689,-1430,491,-1409,3329,-24,-88,72,-18,-134
2,3029697,-1431,504,-1409,3335,-15,-91,72,-18,-134
2,3029704,-1431,504,-1409,3335,-15,-91,72,-18,-134
2,3029713,-1428,495,-1408,3341,-19,-97,72,-18,-134
2,3029722,-1428,495,-1408,3341,-19,-97,72,-18,-134
2,3029730,-1428,495,-1408,3341,-19,-97,72,-18,-134
2,3029739,-1431,496,-1403,3350,-22,-96,80,-18,-134
2,3029748,-1431,496,-1403,3350,-22,-96,80,-18,-134
2,3029756,-1435,503,-1409,3337,-28,-91,80,-18,-134
2,3029766,-1435,503,-1409,3337,-28,-91,80,-18,-134
2,3029775,-1433,507,-1404,3342,-26,-95,80,-18,-134
2,3029782,-1433,507,-1404,3342,-26,-95,80,-18,-134
2,3029791,-1433,507,-1404,3342,-26,-95,80,-18,-134
2,3029800,-1434,509,-1406,3345,-21,-96,80,-18,-134
2,3029810,-1434,509,-1406,3345,-21,-96,80,-18,-134
2,3029818,-1433,503,-1404,3335,-17,-100,80,-18,-134
2,3029827,-1433,503,-1404,3335,-17,-100,80,-18,-134
2,3029835,-1431,509,-1408,3339,-21,-91,80,-18,-134
2,3029843,-1431,509,-1408,3339,-21,-91,80,-18,-134
2,3029853,-1431,512,-1403,3342,-21,-96,78,-20,-136
2,3029862,-1431,512,-1403,3342,-21,-96,78,-20,-136
2,3029870,-1431,512,-1403,3342,-21,-96,78,-20,-136
2,3029879,-1436,553,-1409,3342,-24,-90,78,-20,-136
2,3029888,-1436,553,-1409,3342,-24,-90,78,-20,-136
2,3029897,-1433,513,-1407,3348,-31,-91,78,-20,-136
2,3029906,-1433,513,-1407,3348,-31,-91,78,-20,-136
2,3029914,-1433,524,-1400,3340,-27,-101,78,-20,-136
2,3029922,-1433,524,-1400,3340,-27,-101,78,-20,-136
2,3029929,-1433,524,-1400,3340,-27,-101,78,-20,-136
2,3029939,-1431,515,-1406,3338,-27,-90,78,-20,-136
2,3029947,-1431,515,-1406,3338,-27,-90,78,-20,-136
2,3029955,-1440,540,-1401,3341,-23,-84,78,-20,-136
2,3029964,-1440,540,-1401,3341,-23,-84,78,-20,-136
2,3029972,-1437,517,-1406,3339,-21,-99,85,-25,-133
2,3029982,-1437,517,-1406,3339,-21,-99,85,-25,-133
2,3029990,-1437,517,-1406,3339,-21,-99,85,-25,-133
2,3030000,-1433,520,-1404,3334,-19,-96,85,-25,-133
2,3030007,-1433,520,-1404,3334,-19,-96,85,-25,-133
2,3030018,-1432,520,-1407,3334,-9,-91,85,-25,-133
2,3030026,-1432,520,-1407,3334,-9,-91,85,-25,-133
2,3030033,-1435,527,-1395,3335,-20,-89,85,-25,-133
2,3030041,-1435,527,-1395,3335,-20,-89,85,-25,-133
2,3030049,-1435,527,-1395,3335,-20,-89,85,-25,-133
2,3030059,-1435,528,-1406,3339,-20,-96,85,-25,-133
2,3030068,-1435,528,-1406,3339,-20,-96,85,-25,-133
2,3030076,-1432,527,-1402,3339,-19,-96,85,-25,-133
2,3030084,-1432,527,-1402,3339,-19,-96,85,-25,-133
2,3030094,-1432,523,-1402,3335,-14,-90,88,-24,-156
2,3030102,-1432,523,-1402,3335,-14,-90,88,-24,-156
2,3030111,-1432,523,-1402,3335,-14,-90,88,-24,-156
2,3030119,-1438,522,-1400,3336,-26,-95,88,-24,-156
2,3030127,-1438,522,-1400,3336,-26,-95,88,-24,-156
2,3030136,-1435,526,-1406,3334,-22,-100,88,-24,-156
2,3030145,-1435,526,-1406,3334,-22,-100,88,-24,-156
2,3030154,-1435,526,-1405,3337,-12,-100,88,-24,-156
2,3030162,-1435,526,-1405,3337,-12,-100,88,-24,-156
2,3030171,-1435,526,-1405,3337,-12,-100,88,-24,-156
2,3030179,-1432,522,-1402,3343,-7,-94,88,-24,-156
2,3030189,-1432,522,-1402,3343,-7,-94,88,-24,-156
2,3030198,-1435,523,-1403,3343,-23,-93,88,-24,-156
2,3030206,-1435,523,-1403,3343,-23,-93,88,-24,-156
2,3030216,-1435,532,-1401,3336,-14,-87,94,-18,-148
2,3030223,-1435,532,-1401,3336,-14,-87,94,-18,-148
2,3030235,-1435,529,-1405,3337,-15,-101,94,-18,-148
2,3030250,-1435,529,-1405,3337,-15,-101,94,-18,-148
2,3030263,-1430,504,-1401,3331,-25,-95,94,-18,-148
2,3030272,-1430,504,-1401,3331,-25,-95,94,-18,-148
2,3030283,-1432,521,-1404,3332,-19,-103,94,-18,-148
2,3030296,-1435,525,-1404,3338,-20,-104,94,-18,-148
2,3030310,-1435,525,-1404,3338,-20,-104,94,-18,-148
2,3030324,-1438,525,-1403,3337,-24,-93,94,-18,-148
2,3030338,-1433,505,-1406,3338,-24,-94,94,-18,-148
2,3030351,-1433,505,-1406,3338,-24,-94,94,-18,-148
2,3030364,-1434,514,-1405,3335,-20,-100,97,-21,-155
2,3030377,-1433,515,-1405,3336,-20,-96,97,-21,-155
2,3030390,-1433,515,-1405,3336,-20,-96,97,-21,-155
2,3030406,-1437,519,-1403,3339,-21,-90,97,-21,-155
2,3030421,-1428,504,-1404,3340,-18,-92,97,-21,-155
2,3030435,-1433,500,-1406,3341,-15,-97,97,-21,-155
2,3030451,-1433,500,-1406,3341,-15,-97,97,-21,-155
2,3030464,-1434,512,-1408,3328,-20,-90,97,-21,-155
2,3030478,-1434,510,-1402,3333,-23,-93,100,-30,-146
2,3030493,-1437,506,-1404,3335,-19,-101,100,-30,-146
2,3030505,-1437,506,-1404,3335,-19,-101,100,-30,-146
2,3030522,-1434,499,-1397,3328,-17,-98,100,-30,-146
2,3030537,-1438,502,-1400,3335,-20,-92,100,-30,-146
2,3030551,-1438,502,-1400,3335,-20,-92,100,-30,-146
2,3030564,-1438,509,-1402,3341,-15,-86,100,-30,-146
2,3030578,-1435,510,-1405,3340,-14,-96,100,-30,-146
2,3030592,-1435,510,-1405,3340,-14,-96,100,-30,-146
2,3030606,-1432,505,-1397,3337,-18,-95,99,-27,-157
2,3030618,-1432,502,-1397,3341,-12,-92,99,-27,-157
2,3030632,-1432,502,-1397,3341,-12,-92,99,-27,-157
2,3030647,-1435,507,-1408,3337,-22,-91,99,-27,-157
2,3030662,-1433,502,-1403,3339,-26,-91,99,-27,-157
2,3030675,-1430,487,-1405,3344,-27,-96,99,-27,-157
2,3030689,-1430,487,-1405,3344,-27,-96,99,-27,-157
2,3030705,-1433,490,-1400,3337,-31,-93,99,-27,-157
2,3030720,-1433,491,-1403,3340,-20,-95,101,-39,-147
2,3030734,-1434,495,-1403,3340,-17,-96,101,-39,-147
2,3030748,-1434,495,-1403,3340,-17,-96,101,-39,-147
2,3030762,-1433,497,-1406,3337,-16,-94,101,-39,-147
2,3030776,-1431,504,-1408,3345,-15,-101,101,-39,-147
2,3030788,-1431,504,-1408,3345,-15,-101,101,-39,-147
2,3030801,-1435,507,-1406,3346,-22,-104,101,-39,-147
2,3030814,-1435,515,-1403,3342,-24,-97,101,-39,-147
2,3030828,-1435,515,-1403,3342,-24,-97,101,-39,-147
2,3030842,-1427,512,-1407,3345,-24,-103,105,-35,-155
2,3030856,-1433,499,-1407,3341,-22,-97,105,-35,-155
2,3030866,-1433,499,-1407,3341,-22,-97,105,-35,-155
2,3030881,-1433,508,-1410,3346,-17,-93,105,-35,-155
2,3030894,-1435,517,-1404,3351,-22,-91,105,-35,-155
2,3030907,-1435,517,-1404,3351,-22,-91,105,-35,-155
2,3030920,-1433,514,-1406,3343,-15,-87,105,-35,-155
2,3030933,-1433,514,-1406,3343,-15,-87,105,-35,-155
2,3030947,-1429,512,-1407,3352,-24,-95,105,-35,-155
2,3030963,-1433,513,-1412,3347,-24,-96,105,-35,-155
2,3030976,-1434,522,-1405,3347,-13,-91,113,-29,-157
2,3030988,-1434,522,-1405,3347,-13,-91,113,-29,-157
2,3031002,-1429,524,-1404,3348,-21,-87,113,-29,-157
2,3031016,-1433,517,-1410,3347,-18,-91,113,-29,-157
2,3031029,-1433,517,-1410,3347,-18,-91,113,-29,-157
2,3031044,-1434,521,-1412,3344,-17,-94,113,-29,-157
2,3031057,-1434,532,-1410,3346,-21,-87,113,-29,-157
2,3031067,-1434,532,-1410,3346,-21,-87,113,-29,-157
2,3031081,-1436,526,-1407,3346,-19,-96,113,-29,-157
2,3031095,-1431,520,-1401,3344,-25,-97,103,-37,-153
2,3031109,-1431,520,-1401,3344,-25,-97,103,-37,-153
2,3031122,-1433,528,-1405,3344,-16,-96,103,-37,-153
2,3031135,-1434,523,-1406,3337,-18,-94,103,-37,-153
2,3031150,-1434,523,-1406,3337,-18,-94,103,-37,-153
2,3031164,-1434,534,-1410,3342,-13,-96,103,-37,-153
2,3031180,-1433,527,-1410,3345,-22,-95,103,-37,-153
2,3031192,-1433,527,-1410,3345,-22,-95,103,-37,-153
2,3031207,-1431,543,-1411,3342,-21,-95,103,-37,-153
2,3031222,-1438,533,-1404,3343,-19,-91,112,-44,-166
2,3031236,-1433,550,-1399,3337,-20,-98,112,-44,-166
2,3031245,-1433,550,-1399,3337,-20,-98,112,-44,-166
2,3031254,-1435,556,-1401,3339,-21,-96,112,-44,-166
2,3031263,-1435,556,-1401,3339,-21,-96,112,-44,-166
2,3031271,-1435,556,-1401,3339,-21,-96,112,-44,-166
2,3031279,-1437,547,-1400,3336,-17,-87,112,-44,-166
2,3031288,-1437,547,-1400,3336,-17,-87,112,-44,-166
2,3031297,-1440,527,-1399,3332,-17,-92,112,-44,-166
2,3031305,-1440,527,-1399,3332,-17,-92,112,-44,-166
2,3031314,-1434,535,-1401,3329,-21,-92,112,-44,-166
2,3031322,-1434,535,-1401,3329,-21,-92,112,-44,-166
2,3031331,-1434,535,-1401,3329,-21,-92,112,-44,-166
2,3031340,-1433,534,-1400,3328,-17,-94,114,-32,-164
2,3031348,-1433,534,-1400,3328,-17,-94,114,-32,-164
2,3031357,-1431,540,-1399,3326,-19,-88,114,-32,-164
2,3031366,-1431,540,-1399,3326,-19,-88,114,-32,-164
2,3031375,-1435,479,-1396,3335,-23,-90,114,-32,-164
2,3031384,-1435,479,-1396,3335,-23,-90,114,-32,-164
2,3031391,-1435,479,-1396,3335,-23,-90,114,-32,-164
2,3031399,-1430,539,-1402,3332,-23,-99,114,-32,-164
2,3031408,-1430,539,-1402,3332,-23,-99,114,-32,-164
2,3031415,-1435,511,-1402,3329,-19,-90,114,-32,-164
2,3031425,-1435,511,-1402,3329,-19,-90,114,-32,-164
2,3031433,-1435,511,-1402,3329,-19,-90,114,-32,-164
2,3031442,-1436,536,-1401,3324,-14,-93,114,-32,-164
2,3031450,-1436,536,-1401,3324,-14,-93,114,-32,-164
2,3031458,-1434,498,-1403,3331,-18,-112,121,-41,-157
2,3031468,-1434,498,-1403,3331,-18,-112,121,-41,-157
2,3031475,-1430,527,-1393,3331,-16,-102,121,-41,-157
2,3031482,-1430,527,-1393,3331,-16,-102,121,-41,-157
2,3031491,-1430,527,-1393,3331,-16,-102,121,-41,-157
2,3031500,-1430,510,-1408,3330,-16,-90,121,-41,-157
2,3031508,-1430,510,-1408,3330,-16,-90,121,-41,-157
2,3031518,-1440,513,-1401,3328,-20,-84,121,-41,-157
2,3031524,-1440,513,-1401,3328,-20,-84,121,-41,-157
2,3031533,-1440,513,-1401,3328,-20,-84,121,-41,-157
2,3031541,-1432,495,-1404,3333,-23,-93,121,-41,-157
2,3031549,-1432,495,-1404,3333,-23,-93,121,-41,-157
2,3031558,-1427,482,-1402,3331,-18,-95,121,-41,-157
2,3031565,-1427,482,-1402,3331,-18,-95,121,-41,-157
2,3031573,-1427,482,-1402,3331,-18,-95,121,-41,-157
2,3031581,-1425,470,-1409,3332,-20,-87,121,-41,-157
2,3031590,-1425,470,-1409,3332,-20,-87,121,-41,-157
2,3031597,-1435,473,-1402,3329,-24,-86,130,-42,-162
2,3031605,-1435,473,-1402,3329,-24,-86,130,-42,-162
2,3031613,-1435,473,-1402,3329,-24,-86,130,-42,-162
2,3031620,-1431,486,-1405,3338,-24,-96,130,-42,-162
2,3031628,-1431,486,-1405,3338,-24,-96,130,-42,-162
2,3031635,-1431,471,-1402,3335,-17,-102,130,-42,-162
2,3031645,-1431,471,-1402,3335,-17,-102,130,-42,-162
2,3031653,-1431,471,-1402,3335,-17,-102,130,-42,-162
2,3031662,-1430,481,-1407,3342,-17,-106,130,-42,-162
2,3031670,-1430,481,-1407,3342,-17,-106,130,-42,-162
2,3031678,-1433,485,-1408,3340,-18,-100,130,-42,-162
2,3031687,-1433,485,-1408,3340,-18,-100,130,-42,-162
2,3031696,-1432,512,-1407,3340,-15,-91,130,-42,-162
2,3031702,-1432,512,-1407,3340,-15,-91,130,-42,-162
2,3031712,-1432,512,-1407,3340,-15,-91,130,-42,-162
2,3031719,-1432,512,-1407,3340,-15,-91,131,-39,-165
2,3031727,-1432,512,-1407,3340,-15,-91,131,-39,-165
2,3031736,-1433,505,-1404,3349,-16,-101,131,-39,-165
2,3031744,-1433,505,-1404,3349,-16,-101,131,-39,-165
2,3031753,-1433,505,-1404,3349,-16,-101,131,-39,-165
2,3031761,-1435,498,-1413,3346,-22,-97,131,-39,-165
2,3031771,-1435,498,-1413,3346,-22,-97,131,-39,-165
2,3031779,-1433,518,-1406,3348,-29,-94,131,-39,-165
2,3031787,-1433,518,-1406,3348,-29,-94,131,-39,-165
2,3031795,-1433,505,-1410,3347,-19,-98,131,-39,-165
2,3031804,-1433,505,-1410,3347,-19,-98,131,-39,-165
2,3031813,-1433,505,-1410,3347,-19,-98,131,-39,-165
2,3031822,-1429,509,-1405,3349,-13,-100,131,-39,-165
2,3031830,-1429,509,-1405,3349,-13,-100,131,-39,-165
2,3031839,-1435,508,-1402,3355,-24,-95,127,-35,-161
2,3031847,-1435,508,-1402,3355,-24,-95,127,-35,-161
2,3031857,-1434,542,-1403,3350,-17,-78,127,-35,-161
2,3031865,-1434,542,-1403,3350,-17,-78,127,-35,-161
2,3031875,-1441,526,-1403,3344,-20,-92,127,-35,-161
2,3031881,-1441,526,-1403,3344,-20,-92,127,-35,-161
2,3031890,-1441,526,-1403,3344,-20,-92,127,-35,-161
2,3031900,-1436,527,-1405,3345,-19,-103,127,-35,-161
2,3031909,-1436,527,-1405,3345,-19,-103,127,-35,-161
2,3031917,-1431,511,-1407,3341,-23,-102,127,-35,-161
2,3031925,-1431,511,-1407,3341,-23,-102,127,-35,-161
2,3031934,-1433,545,-1410,3341,-17,-92,127,-35,-161
2,3031943,-1433,545,-1410,3341,-17,-92,127,-35,-161
2,3031952,-1433,545,-1410,3341,-17,-92,127,-35,-161
2,3031960,-1439,519,-1405,3340,-29,-90,128,-40,-164
2,3031968,-1439,519,-1405,3340,-29,-90,128,-40,-164
2,3031976,-1439,519,-1405,3340,-29,-90,128,-40,-164
2,3031985,-1439,519,-1405,3340,-29,-90,128,-40,-164
2,3031995,-1430,511,-1405,3336,-13,-95,128,-40,-164
2,3032004,-1430,511,-1405,3336,-13,-95,128,-40,-164
2,3032011,-1430,511,-1405,3336,-13,-95,128,-40,-164
2,3032017,-1433,539,-1410,3341,-25,-95,128,-40,-164
2,3032026,-1433,539,-1410,3341,-25,-95,128,-40,-164
2,3032035,-1440,519,-1406,3332,-26,-90,128,-40,-164
2,3032043,-1440,519,-1406,3332,-26,-90,128,-40,-164
2,3032052,-1440,519,-1406,3332,-26,-90,128,-40,-164
2,3032059,-1438,539,-1406,3339,-19,-91,128,-40,-164
2,3032069,-1438,539,-1406,3339,-19,-91,128,-40,-164
2,3032077,-1432,518,-1403,3339,-23,-94,141,-41,-165
2,3032086,-1432,518,-1403,3339,-23,-94,141,-41,-165
2,3032093,-1432,518,-1403,3339,-23,-94,141,-41,-165
2,3032102,-1433,532,-1400,3335,-23,-87,141,-41,-165
2,3032111,-1433,532,-1400,3335,-23,-87,141,-41,-165
2,3032120,-1434,523,-1409,3343,-22,-93,141,-41,-165
2,3032127,-1434,523,-1409,3343,-22,-93,141,-41,-165
2,3032136,-1435,538,-1406,3334,-18,-100,141,-41,-165
2,3032143,-1435,538,-1406,3334,-18,-100,141,-41,-165
2,3032153,-1435,538,-1406,3334,-18,-100,141,-41,-165
2,3032161,-1432,525,-1406,3332,-21,-96,141,-41,-165
2,3032170,-1432,525,-1406,3332,-21,-96,141,-41,-165
2,3032178,-1434,524,-1399,3342,-10,-95,141,-41,-165
2,3032187,-1434,524,-1399,3342,-10,-95,141,-41,-165
2,3032196,-1440,529,-1409,3334,-8,-93,141,-41,-165
2,3032203,-1440,529,-1409,3334,-8,-93,141,-41,-165
2,3032213,-1440,529,-1409,3334,-8,-93,141,-41,-165
2,3032221,-1439,536,-1402,3334,-11,-95,137,-35,-151
2,3032229,-1439,536,-1402,3334,-11,-95,137,-35,-151
2,3032239,-1432,526,-1401,3343,-14,-98,137,-35,-151
2,3032251,-1432,526,-1401,3343,-14,-98,137,-35,-151
2,3032264,-1435,524,-1396,3341,-18,-92,137,-35,-151
2,3032279,-1434,528,-1405,3327,-25,-96,137,-35,-151
2,3032292,-1434,528,-1405,3327,-25,-96,137,-35,-151
2,3032305,-1434,511,-1406,3332,-15,-93,137,-35,-151
2,3032318,-1431,527,-1406,3330,-22,-93,137,-35,-151
2,3032333,-1431,527,-1406,3330,-22,-93,137,-35,-151
2,3032342,-1429,519,-1399,3327,-15,-91,129,-33,-157
2,3032356,-1437,522,-1402,3329,-21,-93,129,-33,-157
2,3032372,-1437,522,-1402,3329,-21,-93,129,-33,-157
2,3032384,-1435,518,-1402,3333,-18,-96,129,-33,-157
2,3032398,-1431,516,-1406,3330,-14,-93,129,-33,-157
2,3032413,-1431,516,-1406,3330,-14,-93,129,-33,-157
2,3032426,-1431,511,-1405,3329,-26,-99,129,-33,-157
2,3032439,-1435,513,-1402,3338,-23,-89,129,-33,-157
2,3032454,-1435,513,-1402,3338,-23,-89,129,-33,-157
2,3032467,-1431,509,-1400,3336,-14,-96,147,-39,-161
2,3032479,-1431,510,-1403,3332,-14,-99,147,-39,-161
2,3032493,-1431,510,-1403,3332,-14,-99,147,-39,-161
2,3032507,-1432,506,-1400,3336,-18,-91,147,-39,-161
2,3032520,-1429,501,-1404,3335,-18,-93,147,-39,-161
2,3032535,-1429,501,-1404,3335,-18,-93,147,-39,-161
2,3032548,-1431,498,-1407,3331,-20,-94,147,-39,-161
2,3032559,-1434,506,-1405,3331,-18,-87,147,-39,-161
2,3032574,-1434,506,-1405,3331,-18,-87,147,-39,-161
2,3032589,-1435,501,-1401,3335,-21,-92,142,-28,-158
2,3032604,-1431,502,-1404,3335,-23,-95,142,-28,-158
2,3032616,-1432,501,-1404,3333,-26,-94,142,-28,-158
2,3032631,-1432,501,-1404,3333,-26,-94,142,-28,-158
2,3032645,-1431,497,-1403,3332,-24,-91,142,-28,-158
2,3032659,-1435,487,-1408,3332,-15,-89,142,-28,-158
2,3032673,-1435,487,-1408,3332,-15,-89,142,-28,-158
2,3032686,-1430,489,-1409,3337,-18,-99,142,-28,-158
2,3032699,-1430,490,-1407,3343,-11,-103,147,-23,-155
2,3032712,-1430,490,-1407,3343,-11,-103,147,-23,-155
2,3032725,-1431,484,-1405,3344,-16,-99,147,-23,-155
2,3032738,-1433,484,-1407,3346,-9,-95,147,-23,-155
2,3032753,-1433,484,-1407,3346,-9,-95,147,-23,-155
2,3032767,-1434,496,-1408,3346,-29,-92,147,-23,-155
2,3032781,-1437,508,-1409,3342,-25,-91,147,-23,-155
2,3032794,-1437,508,-1409,3342,-25,-91,147,-23,-155
2,3032808,-1435,501,-1404,3340,-24,-95,147,-23,-155
2,3032823,-1436,511,-1409,3346,-15,-103,147,-23,-155
2,3032838,-1433,512,-1407,3342,-15,-92,139,-33,-153
2,3032849,-1433,512,-1407,3342,-15,-92,139,-33,-153
2,3032863,-1435,509,-1409,3343,-17,-95,139,-33,-153
2,3032877,-1432,506,-1406,3338,-13,-96,139,-33,-153
2,3032890,-1432,506,-1406,3338,-13,-96,139,-33,-153
2,3032904,-1433,514,-1408,3343,-19,-93,139,-33,-153
2,3032914,-1432,508,-1414,3348,-23,-98,139,-33,-153
2,3032928,-1432,508,-1414,3348,-23,-98,139,-33,-153
2,3032941,-1437,507,-1414,3344,-14,-91,139,-33,-153
2,3032954,-1437,507,-1414,3344,-14,-91,139,-33,-153
2,3032969,-1437,512,-1409,3340,-16,-94,154,-26,-146
2,3032980,-1438,514,-1407,3347,-16,-88,154,-26,-146
2,3032993,-1438,514,-1407,3347,-16,-88,154,-26,-146
2,3033007,-1434,512,-1407,3348,-23,-95,154,-26,-146
2,3033021,-1437,517,-1410,3342,-24,-99,154,-26,-146
2,3033035,-1434,532,-1409,3339,-24,-96,154,-26,-146
2,3033051,-1434,532,-1409,3339,-24,-96,154,-26,-146
2,3033066,-1434,525,-1409,3345,-23,-102,154,-26,-146
2,3033081,-1434,525,-1406,3352,-14,-92,149,-23,-151
2,3033095,-1434,525,-1406,3352,-14,-92,149,-23,-151
2,3033108,-1434,516,-1405,3352,-21,-94,149,-23,-151
2,3033123,-1434,535,-1406,3347,-12,-101,149,-23,-151
2,3033134,-1434,535,-1406,3347,-12,-101,149,-23,-151
2,3033148,-1435,525,-1411,3346,-11,-92,149,-23,-151
2,3033162,-1435,539,-1405,3347,-19,-89,149,-23,-151
2,3033176,-1437,534,-1404,3346,-22,-89,149,-23,-151
2,3033189,-1437,534,-1404,3346,-22,-89,149,-23,-151
2,3033203,-1436,545,-1404,3336,-23,-95,155,-19,-141
2,3033216,-1437,563,-1403,3343,-23,-94,155,-19,-141
2,3033229,-1437,563,-1403,3343,-23,-94,155,-19,-141
2,3033243,-1438,553,-1401,3344,-22,-90,155,-19,-141
2,3033253,-1438,553,-1401,3344,-22,-90,155,-19,-141
2,3033262,-1435,546,-1400,3335,-19,-98,155,-19,-141
2,3033270,-1435,546,-1400,3335,-19,-98,155,-19,-141
2,3033279,-1430,542,-1402,3335,-20,-95,155,-19,-141
2,3033288,-1430,542,-1402,3335,-20,-95,155,-19,-141
2,3033295,-1434,547,-1404,3331,-23,-95,155,-19,-141
2,3033305,-1434,547,-1404,3331,-23,-95,155,-19,-141
2,3033313,-1434,547,-1404,3331,-23,-95,155,-19,-141
2,3033321,-1438,538,-1404,3328,-17,-103,158,-30,-138
2,3033330,-1438,538,-1404,3328,-17,-103,158,-30,-138
2,3033339,-1437,529,-1399,3321,-22,-106,158,-30,-138
2,3033349,-1437,529,-1399,3321,-22,-106,158,-30,-138
2,3033358,-1433,532,-1398,3329,-21,-95,158,-30,-138
2,3033366,-1433,532,-1398,3329,-21,-95,158,-30,-138
2,3033374,-1433,532,-1398,3329,-21,-95,158,-30,-138
2,3033383,-1437,538,-1399,3333,-23,-88,158,-30,-138
2,3033392,-1437,538,-1399,3333,-23,-88,158,-30,-138
2,3033400,-1435,487,-1403,3331,-23,-95,158,-30,-138
2,3033409,-1435,487,-1403,3331,-23,-95,158,-30,-138
2,3033417,-1431,527,-1403,3334,-23,-99,158,-30,-138
2,3033425,-1431,527,-1403,3334,-23,-99,158,-30,-138
2,3033434,-1431,527,-1403,3334,-23,-99,158,-30,-138
2,3033442,-1431,512,-1405,3330,-27,-95,158,-30,-138
2,3033451,-1431,512,-1405,3330,-27,-95,158,-30,-138
2,3033461,-1439,530,-1402,3335,-18,-90,160,-38,-140
2,3033469,-1439,530,-1402,3335,-18,-90,160,-38,-140
2,3033478,-1433,502,-1405,3333,-22,-98,160,-38,-140
2,3033486,-1433,502,-1405,3333,-22,-98,160,-38,-140
2,3033494,-1433,502,-1405,3333,-22,-98,160,-38,-140
2,3033503,-1431,520,-1399,3328,-29,-101,160,-38,-140
2,3033511,-1431,520,-1399,3328,-29,-101,160,-38,-140
2,3033521,-1433,507,-1404,3323,-30,-98,160,-38,-140
2,3033528,-1433,507,-1404,3323,-30,-98,160,-38,-140
2,3033536,-1441,503,-1405,3328,-30,-88,160,-38,-140
2,3033544,-1441,503,-1405,3328,-30,-88,160,-38,-140
2,3033553,-1441,503,-1405,3328,-30,-88,160,-38,-140
2,3033562,-1434,496,-1408,3329,-24,-91,160,-38,-140
2,3033570,-1434,496,-1408,3329,-24,-91,160,-38,-140
2,3033579,-1429,477,-1397,3322,-23,-97,162,-18,-132
2,3033586,-1429,477,-1397,3322,-23,-97,162,-18,-132
2,3033595,-1429,477,-1397,3322,-23,-97,162,-18,-132
2,3033603,-1433,480,-1402,3325,-25,-86,162,-18,-132
2,3033611,-1433,480,-1402,3325,-25,-86,162,-18,-132
2,3033619,-1431,478,-1410,3326,-22,-94,162,-18,-132
2,3033627,-1431,478,-1410,3326,-22,-94,162,-18,-132
2,3033635,-1433,493,-1409,3328,-18,-92,162,-18,-132
2,3033645,-1433,493,-1409,3328,-18,-92,162,-18,-132
2,3033653,-1433,493,-1409,3328,-18,-92,162,-18,-132
2,3033662,-1431,487,-1407,3329,-23,-91,162,-18,-132
2,3033669,-1431,487,-1407,3329,-23,-91,162,-18,-132
2,3033678,-1435,480,-1406,3339,-28,-91,162,-18,-132
2,3033687,-1435,480,-1406,3339,-28,-91,162,-18,-132
2,3033696,-1435,480,-1406,3339,-28,-91,162,-18,-132
2,3033704,-1433,489,-1404,3332,-28,-94,164,-24,-132
2,3033713,-1433,489,-1404,3332,-28,-94,164,-24,-132
2,3033720,-1433,503,-1407,3333,-23,-97,164,-24,-132
2,3033728,-1433,503,-1407,3333,-23,-97,164,-24,-132
2,3033736,-1433,502,-1409,3344,-22,-96,164,-24,-132
2,3033744,-1433,502,-1409,3344,-22,-96,164,-24,-132
2,3033752,-1433,502,-1409,3344,-22,-96,164,-24,-132
2,3033760,-1433,492,-1405,3345,-20,-102,164,-24,-132
2,3033768,-1433,492,-1405,3345,-20,-102,164,-24,-132
2,3033778,-1434,500,-1407,3343,-26,-98,164,-24,-132
2,3033787,-1434,500,-1407,3343,-26,-98,164,-24,-132
2,3033795,-1434,500,-1407,3343,-26,-98,164,-24,-132
2,3033803,-1435,513,-1410,3344,-26,-97,164,-24,-132
2,3033811,-1435,513,-1410,3344,-26,-97,164,-24,-132
2,3033820,-1435,513,-1409,3342,-18,-90,163,-33,-137
2,3033828,-1435,513,-1409,3342,-18,-90,163,-33,-137
2,3033837,-1434,502,-1404,3345,-25,-106,163,-33,-137
2,3033844,-1434,502,-1404,3345,-25,-106,163,-33,-137
2,3033852,-1434,502,-1404,3345,-25,-106,163,-33,-137
2,3033862,-1436,509,-1405,3349,-14,-101,163,-33,-137
2,3033870,-1436,509,-1405,3349,-14,-101,163,-33,-137
2,3033878,-1436,532,-1413,3348,-17,-91,163,-33,-137
2,3033886,-1436,532,-1413,3348,-17,-91,163,-33,-137
2,3033894,-1436,532,-1413,3348,-17,-91,163,-33,-137
2,3033904,-1438,535,-1411,3343,-17,-92,163,-33,-137
2,3033910,-1438,535,-1411,3343,-17,-92,163,-33,-137
2,3033919,-1436,520,-1405,3342,-20,-97,163,-33,-137
2,3033928,-1436,520,-1405,3342,-20,-97,163,-33,-137
2,3033936,-1434,505,-1404,3349,-28,-98,162,-32,-134
2,3033946,-1434,505,-1404,3349,-28,-98,162,-32,-134
2,3033953,-1434,505,-1404,3349,-28,-98,162,-32,-134
2,3033962,-1436,546,-1404,3349,-18,-94,162,-32,-134
2,3033970,-1436,546,-1404,3349,-18,-94,162,-32,-134
2,3033978,-1435,521,-1402,3345,-23,-90,162,-32,-134
2,3033988,-1435,521,-1402,3345,-23,-90,162,-32,-134
2,3033996,-1435,524,-1409,3346,-16,-101,162,-32,-134
2,3034005,-1435,524,-1409,3346,-16,-101,162,-32,-134
2,3034013,-1435,524,-1409,3346,-16,-101,162,-32,-134
2,3034022,-1429,510,-1410,3332,-14,-105,162,-32,-134
2,3034032,-1429,510,-1410,3332,-14,-105,162,-32,-134
2,3034040,-1434,531,-1408,3334,-21,-92,162,-32,-134
2,3034047,-1434,531,-1408,3334,-21,-92,162,-32,-134
2,3034054,-1434,531,-1408,3334,-21,-92,162,-32,-134
2,3034062,-1438,521,-1405,3335,-30,-87,162,-32,-134
2,3034072,-1438,521,-1405,3335,-30,-87,162,-32,-134
2,3034079,-1438,535,-1409,3332,-18,-97,174,-30,-124
2,3034088,-1438,535,-1409,3332,-18,-97,174,-30,-124
2,3034096,-1438,518,-1406,3336,-18,-101,174,-30,-124
2,3034105,-1438,518,-1406,3336,-18,-101,174,-30,-124
2,3034116,-1438,518,-1406,3336,-18,-101,174,-30,-124
2,3034123,-1436,523,-1403,3334,-13,-88,174,-30,-124
2,3034132,-1436,523,-1403,3334,-13,-88,174,-30,-124
2,3034141,-1435,521,-1408,3333,-29,-91,174,-30,-124
2,3034149,-1435,521,-1408,3333,-29,-91,174,-30,-124
2,3034158,-1437,534,-1403,3329,-24,-90,174,-30,-124
2,3034166,-1437,534,-1403,3329,-24,-90,174,-30,-124
2,3034174,-1437,534,-1403,3329,-24,-90,174,-30,-124
2,3034182,-1432,524,-1408,3332,-20,-99,174,-30,-124
2,3034190,-1432,524,-1408,3332,-20,-99,174,-30,-124
2,3034199,-1432,520,-1400,3342,-21,-97,161,-23,-121
2,3034207,-1432,520,-1400,3342,-21,-97,161,-23,-121
2,3034215,-1432,520,-1400,3342,-21,-97,161,-23,-121
2,3034223,-1435,522,-1401,3332,-22,-92,161,-23,-121
2,3034231,-1435,522,-1401,3332,-22,-92,161,-23,-121
2,3034240,-1435,539,-1398,3328,-19,-95,161,-23,-121
2,3034247,-1435,539,-1398,3328,-19,-95,161,-23,-121
2,3034254,-1435,539,-1398,3328,-19,-95,161,-23,-121
2,3034268,-1435,514,-1401,3336,-25,-93,161,-23,-121
2,3034281,-1435,505,-1399,3334,-22,-94,161,-23,-121
2,3034295,-1435,505,-1399,3334,-22,-94,161,-23,-121
2,3034307,-1440,509,-1405,3329,-20,-95,161,-23,-121
2,3034322,-1435,529,-1403,3335,-15,-99,173,-17,-113
2,3034336,-1435,529,-1403,3335,-15,-99,173,-17,-113
2,3034349,-1432,509,-1401,3338,-15,-97,173,-17,-113
2,3034363,-1431,512,-1401,3335,-22,-98,173,-17,-113
2,3034377,-1431,503,-1407,3337,-19,-91,173,-17,-113
2,3034391,-1431,503,-1407,3337,-19,-91,173,-17,-113
2,3034405,-1433,517,-1404,3335,-23,-83,173,-17,-113
2,3034418,-1432,506,-1407,3328,-22,-96,173,-17,-113
2,3034432,-1432,506,-1407,3328,-22,-96,173,-17,-113
2,3034447,-1434,504,-1404,3334,-13,-96,173,-27,-111
2,3034460,-1432,497,-1404,3336,-21,-91,173,-27,-111
2,3034473,-1432,497,-1404,3336,-21,-91,173,-27,-111
2,3034487,-1437,512,-1406,3331,-32,-91,173,-27,-111
2,3034502,-1439,506,-1403,3333,-22,-97,173,-27,-111
2,3034515,-1439,506,-1403,3333,-22,-97,173,-27,-111
2,3034528,-1433,498,-1408,3337,-19,-105,173,-27,-111
2,3034541,-1432,499,-1405,3333,-21,-98,173,-27,-111
2,3034557,-1433,501,-1403,3331,-21,-93,164,-20,-110
2,3034569,-1433,501,-1403,3331,-21,-93,164,-20,-110
2,3034583,-1435,509,-1407,3329,-23,-95,164,-20,-110
2,3034597,-1432,502,-1409,3333,-18,-94,164,-20,-110
2,3034611,-1432,502,-1409,3333,-18,-94,164,-20,-110
2,3034626,-1435,499,-1411,3331,-14,-99,164,-20,-110
2,3034639,-1433,505,-1409,3333,-18,-96,164,-20,-110
2,3034652,-1433,505,-1409,3333,-18,-96,164,-20,-110
2,3034668,-1438,506,-1406,3333,-15,-98,164,-20,-110
2,3034682,-1434,494,-1404,3334,-20,-95,160,-22,-98
2,3034696,-1434,494,-1404,3334,-20,-95,160,-22,-98
2,3034708,-1434,485,-1404,3337,-15,-96,160,-22,-98
2,3034723,-1431,489,-1410,3337,-22,-100,160,-22,-98
2,3034736,-1431,489,-1410,3337,-22,-100,160,-22,-98
2,3034750,-1431,492,-1410,3339,-18,-94,160,-22,-98
2,3034764,-1434,495,-1412,3339,-14,-99,160,-22,-98
2,3034776,-1434,495,-1412,3339,-14,-99,160,-22,-98
2,3034789,-1431,494,-1410,3342,-20,-92,160,-22,-98
2,3034804,-1433,492,-1412,3346,-22,-86,160,-22,-98
2,3034817,-1432,511,-1403,3338,-14,-90,169,-37,-91
2,3034831,-1432,511,-1403,3338,-14,-90,169,-37,-91
2,3034845,-1435,512,-1407,3338,-13,-95,169,-37,-91
2,3034856,-1435,512,-1407,3338,-13,-95,169,-37,-91
2,3034870,-1439,507,-1405,3338,-20,-101,169,-37,-91
2,3034885,-1435,494,-1410,3350,-11,-95,169,-37,-91
2,3034897,-1435,508,-1413,3342,-24,-96,169,-37,-91
2,3034912,-1435,508,-1413,3342,-24,-96,169,-37,-91
2,3034928,-1435,518,-1412,3337,-21,-90,169,-37,-91
2,3034943,-1435,516,-1405,3348,-16,-93,150,-28,-88
2,3034958,-1438,510,-1410,3352,-16,-100,150,-28,-88
2,3034972,-1438,510,-1410,3352,-16,-100,150,-28,-88
2,3034986,-1435,514,-1408,3347,-21,-94,150,-28,-88
2,3035000,-1437,514,-1410,3345,-22,-92,150,-28,-88
2,3035013,-1437,514,-1410,3345,-22,-92,150,-28,-88
2,3035024,-1442,520,-1409,3349,-19,-96,150,-28,-88
2,3035038,-1433,516,-1411,3342,-25,-100,150,-28,-88
2,3035052,-1433,516,-1411,3342,-25,-100,150,-28,-88
2,3035066,-1439,526,-1408,3344,-28,-96,166,-28,-80
2,3035079,-1438,516,-1407,3352,-12,-93,166,-28,-80
2,3035089,-1438,516,-1407,3352,-12,-93,166,-28,-80
2,3035104,-1434,524,-1410,3340,-21,-94,166,-28,-80
2,3035117,-1433,522,-1410,3346,-19,-97,166,-28,-80
2,3035131,-1433,522,-1410,3346,-19,-97,166,-28,-80
2,3035146,-1433,527,-1405,3350,-16,-92,166,-28,-80
2,3035161,-1435,529,-1407,3342,-19,-84,166,-28,-80
2,3035174,-1435,529,-1407,3342,-19,-84,166,-28,-80
2,3035188,-1436,538,-1406,3343,-19,-90,162,-26,-88
2,3035202,-1435,535,-1412,3335,-24,-91,162,-26,-88
2,3035216,-1435,535,-1412,3335,-24,-91,162,-26,-88
2,3035228,-1438,537,-1409,3331,-22,-95,162,-26,-88
2,3035236,-1438,537,-1409,3331,-22,-95,162,-26,-88
2,3035244,-1440,558,-1409,3334,-13,-96,162,-26,-88
2,3035254,-1440,558,-1409,3334,-13,-96,162,-26,-88
2,3035267,-1441,545,-1403,3330,-14,-97,162,-26,-88
2,3035275,-1441,545,-1403,3330,-14,-97,162,-26,-88
2,3035283,-1434,538,-1401,3335,-14,-94,162,-26,-88
2,3035290,-1434,538,-1401,3335,-14,-94,162,-26,-88
2,3035299,-1434,533,-1404,3334,-20,-94,159,-37,-83
2,3035309,-1434,533,-1404,3334,-20,-94,159,-37,-83
2,3035318,-1434,533,-1403,3332,-25,-91,159,-37,-83
2,3035326,-1434,533,-1403,3332,-25,-91,159,-37,-83
2,3035334,-1434,533,-1403,3332,-25,-91,159,-37,-83
2,3035343,-1436,537,-1404,3328,-24,-91,159,-37,-83
2,3035352,-1436,537,-1404,3328,-24,-91,159,-37,-83
2,3035361,-1436,535,-1401,3329,-18,-98,159,-37,-83
2,3035369,-1436,535,-1401,3329,-18,-98,159,-37,-83
2,3035377,-1436,491,-1407,3333,-17,-103,159,-37,-83
2,3035386,-1436,491,-1407,3333,-17,-103,159,-37,-83
2,3035395,-1436,491,-1407,3333,-17,-103,159,-37,-83
2,3035404,-1436,514,-1402,3330,-20,-96,159,-37,-83
2,3035412,-1436,514,-1402,3330,-20,-96,159,-37,-83
2,3035420,-1437,514,-1403,3330,-24,-86,159,-37,-83
2,3035429,-1437,514,-1403,3330,-24,-86,159,-37,-83
2,3035438,-1442,534,-1403,3322,-20,-88,161,-31,-73
2,3035447,-1442,534,-1403,3322,-20,-88,161,-31,-73
2,3035455,-1442,534,-1403,3322,-20,-88,161,-31,-73
2,3035464,-1433,485,-1396,3326,-24,-105,161,-31,-73
2,3035473,-1433,485,-1396,3326,-24,-105,161,-31,-73
2,3035482,-1431,515,-1404,3332,-23,-101,161,-31,-73
2,3035490,-1431,515,-1404,3332,-23,-101,161,-31,-73
2,3035498,-1433,498,-1406,3331,-23,-97,161,-31,-73
2,3035506,-1433,498,-1406,3331,-23,-97,161,-31,-73
2,3035515,-1433,498,-1406,3331,-23,-97,161,-31,-73
2,3035524,-1438,517,-1402,3328,-15,-94,161,-31,-73
2,3035532,-1438,517,-1402,3328,-15,-94,161,-31,-73
2,3035541,-1435,488,-1406,3322,-23,-99,161,-31,-73
2,3035549,-1435,488,-1406,3322,-23,-99,161,-31,-73
2,3035558,-1428,464,-1402,3324,-18,-97,166,-40,-68
2,3035566,-1428,464,-1402,3324,-18,-97,166,-40,-68
2,3035575,-1428,464,-1402,3324,-18,-97,166,-40,-68
2,3035583,-1431,463,-1405,3329,-22,-89,166,-40,-68
2,3035593,-1431,463,-1405,3329,-22,-89,166,-40,-68
2,3035600,-1439,483,-1407,3334,-21,-87,166,-40,-68
2,3035610,-1439,483,-1407,3334,-21,-87,166,-40,-68
2,3035618,-1435,469,-1409,3335,-15,-92,166,-40,-68
2,3035629,-1435,469,-1409,3335,-15,-92,166,-40,-68
2,3035637,-1428,467,-1409,3333,-22,-101,166,-40,-68
2,3035645,-1428,467,-1409,3333,-22,-101,166,-40,-68
2,3035654,-1428,467,-1409,3333,-22,-101,166,-40,-68
2,3035662,-1430,477,-1411,3335,-22,-97,166,-40,-68
2,3035671,-1430,477,-1411,3335,-22,-97,166,-40,-68
2,3035679,-1434,498,-1406,3333,-28,-88,159,-37,-67
2,3035688,-1434,498,-1406,3333,-28,-88,159,-37,-67
2,3035698,-1434,491,-1406,3338,-19,-96,159,-37,-67
2,3035706,-1434,491,-1406,3338,-19,-96,159,-37,-67
2,3035714,-1434,491,-1406,3338,-19,-96,159,-37,-67
2,3035722,-1429,496,-1407,3341,-16,-98,159,-37,-67
2,3035730,-1429,496,-1407,3341,-16,-98,159,-37,-67
2,3035740,-1432,496,-1410,3340,-23,-97,159,-37,-67
2,3035748,-1432,496,-1410,3340,-23,-97,159,-37,-67
2,3035755,-1432,496,-1410,3340,-23,-97,159,-37,-67
2,3035763,-1442,506,-1412,3346,-25,-97,159,-37,-67
2,3035771,-1442,506,-1412,3346,-25,-97,159,-37,-67
2,3035780,-1439,504,-1411,3347,-19,-96,159,-37,-67
2,3035788,-1439,504,-1411,3347,-19,-96,159,-37,-67
2,3035796,-1439,504,-1411,3347,-19,-96,159,-37,-67
2,3035804,-1434,504,-1411,3344,-25,-100,166,-32,-60
2,3035812,-1434,504,-1411,3344,-25,-100,166,-32,-60
2,3035821,-1432,499,-1409,3344,-23,-92,166,-32,-60
2,3035830,-1432,499,-1409,3344,-23,-92,166,-32,-60
2,3035839,-1435,505,-1414,3351,-33,-93,166,-32,-60
2,3035846,-1435,505,-1414,3351,-33,-93,166,-32,-60
2,3035855,-1435,505,-1414,3351,-33,-93,166,-32,-60
2,3035864,-1435,535,-1411,3348,-20,-94,166,-32,-60
2,3035872,-1435,535,-1411,3348,-20,-94,166,-32,-60
2,3035881,-1435,527,-1411,3358,-12,-97,166,-32,-60
2,3035890,-1435,527,-1411,3358,-12,-97,166,-32,-60
2,3035898,-1435,513,-1414,3348,-16,-99,166,-32,-60
2,3035908,-1435,513,-1414,3348,-16,-99,166,-32,-60
2,3035916,-1435,513,-1414,3348,-16,-99,166,-32,-60
2,3035924,-1431,503,-1413,3341,-22,-94,155,-39,-53
2,3035932,-1431,503,-1413,3341,-22,-94,155,-39,-53
2,3035940,-1437,547,-1412,3337,-17,-96,155,-39,-53
2,3035949,-1437,547,-1412,3337,-17,-96,155,-39,-53
2,3035957,-1437,547,-1412,3337,-17,-96,155,-39,-53
2,3035966,-1438,528,-1410,3339,-22,-96,155,-39,-53
2,3035974,-1438,528,-1410,3339,-22,-96,155,-39,-53
2,3035984,-1436,524,-1403,3342,-14,-103,155,-39,-53
2,3035992,-1436,524,-1403,3342,-14,-103,155,-39,-53
2,3036000,-1436,509,-1407,3336,-21,-102,155,-39,-53
2,3036006,-1436,509,-1407,3336,-21,-102,155,-39,-53
2,3036015,-1436,509,-1407,3336,-21,-102,155,-39,-53
2,3036024,-1441,544,-1413,3338,-19,-90,155,-39,-53
2,3036034,-1441,544,-1413,3338,-19,-90,155,-39,-53
2,3036042,-1437,529,-1409,3334,-12,-87,155,-39,-53
2,3036050,-1437,529,-1409,3334,-12,-87,155,-39,-53
2,3036058,-1433,529,-1401,3342,-13,-103,165,-39,-53
2,3036067,-1433,529,-1401,3342,-13,-103,165,-39,-53
2,3036077,-1433,529,-1401,3342,-13,-103,165,-39,-53
2,3036085,-1431,519,-1407,3332,-24,-101,165,-39,-53
2,3036093,-1431,519,-1407,3332,-24,-101,165,-39,-53
2,3036102,-1436,531,-1408,3334,-23,-90,165,-39,-53
2,3036110,-1436,531,-1408,3334,-23,-90,165,-39,-53
2,3036119,-1442,527,-1408,3334,-17,-90,165,-39,-53
2,3036128,-1442,527,-1408,3334,-17,-90,165,-39,-53
2,3036136,-1442,527,-1408,3334,-17,-90,165,-39,-53
2,3036144,-1440,530,-1409,3330,-13,-99,165,-39,-53
2,3036152,-1440,530,-1409,3330,-13,-99,165,-39,-53
2,3036161,-1435,517,-1407,3337,-23,-96,165,-39,-53
2,3036171,-1435,517,-1407,3337,-23,-96,165,-39,-53
2,3036180,-1436,520,-1399,3329,-19,-97,162,-30,-52
2,3036188,-1436,520,-1399,3329,-19,-97,162,-30,-52
2,3036197,-1436,520,-1399,3329,-19,-97,162,-30,-52
2,3036207,-1441,528,-1401,3331,-21,-92,162,-30,-52
2,3036216,-1441,528,-1401,3331,-21,-92,162,-30,-52
2,3036224,-1434,532,-1408,3333,-21,-90,162,-30,-52
2,3036233,-1434,532,-1408,3333,-21,-90,162,-30,-52
2,3036241,-1432,521,-1404,3331,-20,-91,162,-30,-52
2,3036251,-1432,521,-1404,3331,-20,-91,162,-30,-52
2,3036259,-1434,518,-1402,3337,-23,-91,162,-30,-52
2,3036267,-1434,518,-1402,3337,-23,-91,162,-30,-52
2,3036279,-1435,522,-1406,3332,-25,-97,162,-30,-52
2,3036293,-1435,522,-1406,3332,-25,-97,162,-30,-52
2,3036306,-1434,506,-1404,3336,-20,-92,162,-26,-40
2,3036320,-1431,515,-1404,3331,-29,-100,162,-26,-40
2,3036333,-1431,515,-1404,3331,-29,-100,162,-26,-40
2,3036345,-1439,506,-1404,3338,-25,-98,162,-26,-40
2,3036358,-1438,523,-1405,3333,-13,-97,162,-26,-40
2,3036371,-1438,523,-1405,3333,-13,-97,162,-26,-40
2,3036386,-1438,503,-1402,3328,-23,-95,162,-26,-40
2,3036401,-1433,513,-1405,3330,-19,-96,162,-26,-40
2,3036416,-1433,513,-1405,3330,-19,-96,162,-26,-40
2,3036429,-1434,501,-1402,3336,-22,-91,152,-26,-40
2,3036443,-1434,511,-1406,3330,-26,-88,152,-26,-40
2,3036454,-1434,511,-1406,3330,-26,-88,152,-26,-40
2,3036467,-1428,498,-1412,3330,-20,-96,152,-26,-40
2,3036480,-1432,505,-1403,3334,-17,-101,152,-26,-40
2,3036492,-1432,505,-1403,3334,-17,-101,152,-26,-40
2,3036506,-1436,495,-1405,3325,-23,-95,152,-26,-40
2,3036519,-1437,486,-1405,3333,-26,-93,152,-26,-40
2,3036531,-1437,486,-1405,3333,-26,-93,152,-26,-40
2,3036545,-1437,490,-1406,3334,-23,-90,159,-31,-47
2,3036558,-1437,490,-1406,3334,-23,-90,159,-31,-47
2,3036571,-1434,498,-1401,3333,-21,-90,159,-31,-47
2,3036583,-1433,492,-1406,3335,-26,-94,159,-31,-47
2,3036597,-1433,492,-1406,3335,-26,-94,159,-31,-47
2,3036612,-1437,491,-1411,3338,-18,-92,159,-31,-47
2,3036627,-1432,498,-1407,3339,-13,-99,159,-31,-47
2,3036641,-1435,502,-1412,3336,-22,-92,159,-31,-47
2,3036653,-1435,502,-1412,3336,-22,-92,159,-31,-47
2,3036669,-1436,491,-1409,3340,-17,-84,159,-31,-47
2,3036685,-1432,484,-1405,3335,-13,-90,142,-28,-36
2,3036698,-1437,487,-1407,3338,-11,-94,142,-28,-36
2,3036711,-1437,487,-1407,3338,-11,-94,142,-28,-36
2,3036726,-1439,481,-1410,3341,-12,-94,142,-28,-36
2,3036739,-1438,477,-1419,3341,-11,-91,142,-28,-36
2,3036751,-1438,477,-1419,3341,-11,-91,142,-28,-36
2,3036766,-1435,488,-1413,3340,-18,-93,142,-28,-36
2,3036779,-1437,496,-1415,3334,-16,-93,142,-28,-36
2,3036792,-1437,496,-1415,3334,-16,-93,142,-28,-36
2,3036806,-1432,501,-1409,3339,-20,-94,138,-28,-34
2,3036818,-1432,501,-1409,3339,-20,-94,138,-28,-34
2,3036832,-1436,503,-1412,3345,-20,-97,138,-28,-34
2,3036847,-1435,513,-1413,3338,-23,-104,138,-28,-34
2,3036863,-1435,502,-1414,3345,-21,-97,138,-28,-34
2,3036878,-1435,502,-1414,3345,-21,-97,138,-28,-34
2,3036893,-1436,498,-1410,3350,-17,-97,138,-28,-34
2,3036905,-1434,506,-1417,3350,-18,-97,138,-28,-34
2,3036919,-1436,504,-1404,3345,-18,-89,126,-36,-26
2,3036936,-1436,504,-1404,3345,-18,-89,126,-36,-26
2,3036949,-1437,505,-1414,3350,-13,-92,126,-36,-26
2,3036962,-1435,499,-1415,3347,-22,-94,126,-36,-26
2,3036977,-1435,499,-1415,3347,-22,-94,126,-36,-26
2,3036990,-1434,511,-1412,3347,-17,-89,126,-36,-26
2,3037003,-1433,507,-1410,3352,-19,-92,126,-36,-26
2,3037017,-1433,507,-1410,3352,-19,-92,126,-36,-26
2,3037030,-1435,513,-1410,3349,-18,-93,126,-36,-26
2,3037044,-1436,515,-1409,3354,-21,-98,128,-22,-22
2,3037058,-1436,515,-1409,3354,-21,-98,128,-22,-22
2,3037073,-1438,531,-1415,3353,-17,-94,128,-22,-22
2,3037088,-1437,512,-1408,3342,-19,-96,128,-22,-22
2,3037100,-1440,521,-1406,3337,-23,-96,128,-22,-22
2,3037115,-1440,521,-1406,3337,-23,-96,128,-22,-22
2,3037130,-1439,523,-1408,3337,-26,-100,128,-22,-22
2,3037146,-1439,524,-1414,3337,-23,-101,128,-22,-22
2,3037160,-1440,529,-1408,3344,-19,-97,122,-26,-18
2,3037173,-1440,529,-1408,3344,-19,-97,122,-26,-18
2,3037186,-1433,536,-1407,3350,-17,-95,122,-26,-18
2,3037199,-1437,538,-1407,3343,-25,-94,122,-26,-18
2,3037213,-1437,538,-1407,3343,-25,-94,122,-26,-18
2,3037227,-1439,562,-1407,3338,-24,-94,122,-26,-18
2,3037241,-1438,553,-1406,3338,-21,-91,122,-26,-18
2,3037253,-1438,553,-1406,3338,-21,-91,122,-26,-18
2,3037266,-1438,546,-1405,3337,-18,-94,122,-26,-18
2,3037279,-1438,546,-1405,3337,-18,-94,122,-26,-18
2,3037288,-1438,538,-1406,3335,-17,-96,122,-26,-18
2,3037297,-1438,538,-1406,3335,-17,-96,122,-26,-18
2,3037304,-1439,550,-1405,3328,-24,-100,123,-25,-13
2,3037314,-1439,550,-1405,3328,-24,-100,123,-25,-13
2,3037321,-1439,537,-1406,3326,-17,-98,123,-25,-13
2,3037330,-1439,537,-1406,3326,-17,-98,123,-25,-13
2,3037337,-1439,537,-1406,3326,-17,-98,123,-25,-13
2,3037345,-1434,525,-1405,3331,-16,-99,123,-25,-13
2,3037355,-1434,525,-1405,3331,-16,-99,123,-25,-13
2,3037363,-1432,525,-1405,3329,-24,-99,123,-25,-13
2,3037372,-1432,525,-1405,3329,-24,-99,123,-25,-13
2,3037380,-1436,528,-1406,3322,-22,-86,123,-25,-13
2,3037390,-1436,528,-1406,3322,-22,-86,123,-25,-13
2,3037399,-1436,528,-1406,3322,-22,-86,123,-25,-13
2,3037407,-1437,521,-1404,3333,-25,-87,123,-25,-13
2,3037414,-1437,521,-1404,3333,-25,-87,123,-25,-13
2,3037423,-1433,493,-1401,3329,-12,-92,120,-16,-18
2,3037431,-1433,493,-1401,3329,-12,-92,120,-16,-18
2,3037440,-1437,519,-1402,3328,-14,-93,120,-16,-18
2,3037448,-1437,519,-1402,3328,-14,-93,120,-16,-18
2,3037456,-1437,519,-1402,3328,-14,-93,120,-16,-18
2,3037464,-1440,521,-1408,3326,-17,-92,120,-16,-18
2,3037473,-1440,521,-1408,3326,-17,-92,120,-16,-18
2,3037481,-1440,503,-1407,3324,-16,-97,120,-16,-18
2,3037491,-1440,503,-1407,3324,-16,-97,120,-16,-18
2,3037498,-1440,503,-1407,3324,-16,-97,120,-16,-18
2,3037505,-1432,507,-1407,3330,-19,-110,120,-16,-18
2,3037514,-1432,507,-1407,3330,-19,-110,120,-16,-18
2,3037522,-1436,504,-1404,3329,-20,-99,120,-16,-18
2,3037532,-1436,504,-1404,3329,-20,-99,120,-16,-18
2,3037539,-1436,503,-1409,3328,-25,-86,120,-16,-18
2,3037548,-1436,503,-1409,3328,-25,-86,114,-20,-16
2,3037556,-1436,503,-1409,3328,-25,-86,114,-20,-16
2,3037565,-1435,490,-1408,3322,-20,-96,114,-20,-16
2,3037574,-1435,490,-1408,3322,-20,-96,114,-20,-16
2,3037582,-1434,496,-1403,3333,-29,-100,114,-20,-16
2,3037591,-1434,496,-1403,3333,-29,-100,114,-20,-16
2,3037598,-1434,496,-1403,3333,-29,-100,114,-20,-16
2,3037607,-1428,467,-1404,3330,-22,-99,114,-20,-16
2,3037616,-1428,467,-1404,3330,-22,-99,114,-20,-16
2,3037623,-1437,475,-1407,3331,-17,-92,114,-20,-16
2,3037632,-1437,475,-1407,3331,-17,-92,114,-20,-16
2,3037640,-1436,477,-1414,3325,-26,-95,114,-20,-16
2,3037648,-1436,477,-1414,3325,-26,-95,114,-20,-16
2,3037658,-1436,477,-1414,3325,-26,-95,114,-20,-16
2,3037667,-1433,488,-1406,3329,-22,-103,106,-24,-10
2,3037674,-1433,488,-1406,3329,-22,-103,106,-24,-10
2,3037682,-1431,468,-1405,3340,-25,-103,106,-24,-10
2,3037690,-1431,468,-1405,3340,-25,-103,106,-24,-10
2,3037700,-1431,468,-1405,3340,-25,-103,106,-24,-10
2,3037707,-1432,486,-1417,3331,-17,-95,106,-24,-10
2,3037715,-1432,486,-1417,3331,-17,-95,106,-24,-10
2,3037724,-1434,496,-1414,3333,-17,-90,106,-24,-10
2,3037732,-1434,496,-1414,3333,-17,-90,106,-24,-10
2,3037742,-1430,501,-1411,3340,-21,-90,106,-24,-10
2,3037751,-1430,501,-1411,3340,-21,-90,106,-24,-10
2,3037759,-1430,501,-1411,3340,-21,-90,106,-24,-10
2,3037768,-1433,493,-1407,3345,-17,-91,106,-24,-10
2,3037774,-1433,493,-1407,3345,-17,-91,106,-24,-10
2,3037784,-1432,495,-1410,3343,-20,-95,103,-25,-19
2,3037792,-1432,495,-1410,3343,-20,-95,103,-25,-19
2,3037799,-1435,503,-1412,3349,-15,-102,103,-25,-19
2,3037807,-1435,503,-1412,3349,-15,-102,103,-25,-19
2,3037815,-1435,503,-1412,3349,-15,-102,103,-25,-19
2,3037824,-1436,510,-1410,3347,-28,-94,103,-25,-19
2,3037832,-1436,510,-1410,3347,-28,-94,103,-25,-19
2,3037840,-1434,499,-1406,3345,-26,-91,103,-25,-19
2,3037848,-1434,499,-1406,3345,-26,-91,103,-25,-19
2,3037856,-1434,499,-1406,3345,-26,-91,103,-25,-19
2,3037865,-1435,496,-1414,3345,-25,-95,103,-25,-19
2,3037875,-1435,496,-1414,3345,-25,-95,103,-25,-19
2,3037883,-1433,503,-1414,3345,-20,-96,103,-25,-19
2,3037892,-1433,503,-1414,3345,-20,-96,103,-25,-19
2,3037901,-1436,542,-1410,3346,-20,-101,103,-25,-19
2,3037908,-1436,542,-1410,3346,-20,-101,103,-25,-19
2,3037917,-1436,542,-1410,3346,-20,-101,103,-25,-19
2,3037926,-1434,518,-1413,3340,-22,-90,105,-21,-17
2,3037934,-1434,518,-1413,3340,-22,-90,105,-21,-17
2,3037943,-1435,522,-1414,3341,-15,-97,105,-21,-17
2,3037953,-1435,522,-1414,3341,-15,-97,105,-21,-17
2,3037961,-1431,501,-1412,3347,-12,-99,105,-21,-17
2,3037970,-1431,501,-1412,3347,-12,-99,105,-21,-17
2,3037979,-1431,501,-1412,3347,-12,-99,105,-21,-17
2,3037988,-1440,541,-1404,3348,-18,-90,105,-21,-17
2,3037997,-1440,541,-1404,3348,-18,-90,105,-21,-17
2,3038006,-1436,516,-1408,3342,-12,-91,105,-21,-17
2,3038014,-1436,516,-1408,3342,-12,-91,105,-21,-17
2,3038023,-1436,528,-1407,3338,-11,-100,105,-21,-17
2,3038032,-1436,528,-1407,3338,-11,-100,105,-21,-17
2,3038041,-1430,509,-1405,3342,-6,-95,101,-23,-13
2,3038050,-1430,509,-1405,3342,-6,-95,101,-23,-13
2,3038058,-1430,509,-1405,3342,-6,-95,101,-23,-13
2,3038067,-1438,531,-1406,3339,-7,-86,101,-23,-13
2,3038075,-1438,531,-1406,3339,-7,-86,101,-23,-13
2,3038084,-1434,517,-1414,3336,-13,-94,101,-23,-13
2,3038092,-1434,517,-1414,3336,-13,-94,101,-23,-13
2,3038099,-1434,517,-1414,3336,-13,-94,101,-23,-13
2,3038108,-1433,532,-1408,3342,-20,-102,101,-23,-13
2,3038116,-1433,532,-1408,3342,-20,-102,101,-23,-13
2,3038127,-1432,517,-1407,3337,-21,-97,101,-23,-13
2,3038135,-1432,517,-1407,3337,-21,-97,101,-23,-13
2,3038144,-1438,523,-1404,3340,-14,-89,101,-23,-13
2,3038152,-1438,523,-1404,3340,-14,-89,101,-23,-13
2,3038159,-1438,523,-1404,3340,-14,-89,101,-23,-13
2,3038168,-1434,524,-1406,3341,-7,-84,94,-22,-14
2,3038176,-1434,524,-1406,3341,-7,-84,94,-22,-14
2,3038185,-1434,531,-1405,3340,-8,-95,94,-22,-14
2,3038194,-1434,531,-1405,3340,-8,-95,94,-22,-14
2,3038202,-1430,517,-1408,3333,-18,-99,94,-22,-14
2,3038212,-1430,517,-1408,3333,-18,-99,94,-22,-14
2,3038221,-1436,521,-1406,3336,-27,-97,94,-22,-14
2,3038228,-1436,521,-1406,3336,-27,-97,94,-22,-14
2,3038237,-1436,521,-1406,3336,-27,-97,94,-22,-14
2,3038244,-1437,522,-1408,3334,-26,-99,94,-22,-14
2,3038253,-1437,522,-1408,3334,-26,-99,94,-22,-14
2,3038261,-1433,522,-1407,3335,-19,-97,94,-22,-14
2,3038269,-1433,522,-1407,3335,-19,-97,94,-22,-14
2,3038278,-1433,522,-1407,3335,-19,-97,94,-22,-14
2,3038286,-1434,520,-1402,3331,-19,-98,96,-32,-24
2,3038301,-1434,501,-1406,3331,-17,-95,96,-32,-24
2,3038316,-1434,501,-1406,3331,-17,-95,96,-32,-24
2,3038327,-1436,522,-1408,3330,-22,-89,96,-32,-24
2,3038342,-1436,516,-1412,3334,-23,-89,96,-32,-24
2,3038356,-1436,516,-1412,3334,-23,-89,96,-32,-24
2,3038369,-1436,513,-1404,3337,-24,-95,96,-32,-24
2,3038383,-1433,505,-1410,3335,-25,-107,96,-32,-24
2,3038397,-1433,505,-1410,3335,-25,-107,96,-32,-24
2,3038409,-1435,510,-1396,3336,-17,-98,95,-33,-17
2,3038422,-1437,510,-1403,3334,-20,-101,95,-33,-17
2,3038435,-1437,510,-1403,3334,-20,-101,95,-33,-17
2,3038449,-1434,508,-1403,3336,-23,-99,95,-33,-17
2,3038464,-1434,509,-1404,3335,-18,-98,95,-33,-17
2,3038479,-1434,509,-1404,3335,-18,-98,95,-33,-17
2,3038494,-1433,503,-1405,3333,-21,-92,95,-33,-17
2,3038507,-1433,501,-1406,3335,-16,-91,95,-33,-17
2,3038521,-1434,508,-1404,3337,-13,-92,95,-33,-17
2,3038535,-1434,508,-1404,3337,-13,-92,95,-33,-17
2,3038546,-1432,503,-1399,3334,-14,-97,86,-28,-18
2,3038560,-1432,503,-1399,3334,-14,-97,86,-28,-18
2,3038573,-1436,497,-1407,3334,-26,-97,86,-28,-18
2,3038586,-1439,502,-1401,3332,-21,-103,86,-28,-18
2,3038601,-1437,508,-1410,3338,-20,-93,86,-28,-18
2,3038615,-1437,508,-1410,3338,-20,-93,86,-28,-18
2,3038628,-1434,504,-1406,3337,-17,-87,86,-28,-18
2,3038642,-1433,500,-1404,3335,-23,-89,86,-28,-18
2,3038656,-1433,500,-1404,3335,-23,-89,86,-28,-18
2,3038670,-1433,499,-1402,3344,-24,-91,83,-15,-19
2,3038679,-1433,499,-1402,3344,-24,-91,83,-15,-19
2,3038690,-1432,495,-1405,3343,-16,-90,83,-15,-19
2,3038706,-1431,489,-1411,3340,-25,-95,83,-15,-19
2,3038720,-1431,489,-1411,3340,-25,-95,83,-15,-19
2,3038733,-1430,488,-1407,3329,-24,-95,83,-15,-19
2,3038747,-1433,485,-1408,3336,-16,-96,83,-15,-19
2,3038763,-1430,483,-1411,3335,-22,-96,83,-15,-19
2,3038776,-1430,483,-1411,3335,-22,-96,83,-15,-19
2,3038789,-1434,491,-1406,3338,-26,-95,79,-17,-15
2,3038803,-1434,499,-1407,3346,-19,-88,79,-17,-15
2,3038818,-1434,499,-1407,3346,-19,-88,79,-17,-15
2,3038830,-1436,495,-1410,3350,-23,-96,79,-17,-15
2,3038842,-1434,500,-1405,3349,-31,-104,79,-17,-15
2,3038857,-1434,500,-1405,3349,-31,-104,79,-17,-15
2,3038871,-1434,506,-1410,3345,-22,-100,79,-17,-15
2,3038884,-1437,505,-1410,3339,-23,-91,79,-17,-15
2,3038900,-1437,505,-1410,3339,-23,-91,79,-17,-15
2,3038914,-1435,503,-1408,3350,-13,-93,81,-9,-29
2,3038929,-1427,505,-1411,3344,-17,-87,81,-9,-29
2,3038945,-1433,507,-1409,3350,-15,-95,81,-9,-29
2,3038958,-1433,507,-1409,3350,-15,-95,81,-9,-29
2,3038972,-1436,510,-1409,3347,-11,-87,81,-9,-29
2,3038987,-1433,513,-1413,3350,-15,-93,81,-9,-29
2,3038999,-1433,513,-1413,3350,-15,-93,81,-9,-29
2,3039011,-1433,513,-1412,3345,-19,-95,81,-9,-29
2,3039025,-1434,513,-1405,3345,-9,-95,67,-27,-21
2,3039038,-1434,513,-1405,3345,-9,-95,67,-27,-21
2,3039052,-1436,518,-1407,3343,-16,-100,67,-27,-21
2,3039064,-1438,535,-1411,3344,-23,-100,67,-27,-21
2,3039077,-1438,535,-1411,3344,-23,-100,67,-27,-21
2,3039090,-1437,513,-1412,3343,-18,-94,67,-27,-21
2,3039104,-1433,519,-1407,3344,-19,-91,67,-27,-21
2,3039119,-1433,519,-1407,3344,-19,-91,67,-27,-21
2,3039133,-1431,515,-1408,3342,-25,-94,67,-27,-21
2,3039149,-1435,531,-1411,3341,-34,-93,73,-17,-29
2,3039164,-1432,518,-1411,3342,-18,-98,73,-17,-29
2,3039178,-1432,518,-1411,3342,-18,-98,73,-17,-29
2,3039193,-1437,531,-1406,3344,-16,-94,73,-17,-29
2,3039207,-1436,529,-1407,3343,-10,-98,73,-17,-29
2,3039219,-1436,529,-1407,3343,-10,-98,73,-17,-29
2,3039230,-1441,542,-1406,3344,-16,-94,73,-17,-29
2,3039244,-1436,535,-1409,3346,-21,-93,73,-17,-29
2,3039257,-1436,535,-1409,3346,-21,-93,73,-17,-29
2,3039271,-1436,560,-1406,3340,-18,-103,73,-17,-29
2,3039286,-1437,546,-1402,3338,-21,-92,69,-13,-31
2,3039297,-1437,546,-1402,3338,-21,-92,69,-13,-31
2,3039305,-1438,548,-1398,3332,-17,-92,69,-13,-31
2,3039314,-1438,548,-1398,3332,-17,-92,69,-13,-31
2,3039323,-1436,535,-1399,3325,-14,-90,69,-13,-31
2,3039331,-1436,535,-1399,3325,-14,-90,69,-13,-31
2,3039342,-1435,530,-1407,3332,-16,-98,69,-13,-31
2,3039349,-1435,530,-1407,3332,-16,-98,69,-13,-31
2,3039358,-1435,530,-1407,3332,-16,-98,69,-13,-31
2,3039366,-1433,529,-1405,3321,-15,-92,69,-13,-31
2,3039374,-1433,529,-1405,3321,-15,-92,69,-13,-31
2,3039382,-1437,534,-1406,3322,-24,-94,69,-13,-31
2,3039391,-1437,534,-1406,3322,-24,-94,69,-13,-31
2,3039399,-1437,534,-1406,3322,-24,-94,69,-13,-31
2,3039408,-1435,513,-1403,3331,-28,-92,71,-7,-31
2,3039417,-1435,513,-1403,3331,-28,-92,71,-7,-31
2,3039424,-1429,507,-1401,3333,-20,-96,71,-7,-31
2,3039433,-1429,507,-1401,3333,-20,-96,71,-7,-31
2,3039441,-1435,512,-1401,3339,-15,-93,71,-7,-31
2,3039451,-1435,512,-1401,3339,-15,-93,71,-7,-31
2,3039458,-1435,512,-1401,3339,-15,-93,71,-7,-31
2,3039467,-1434,532,-1404,3334,-22,-92,71,-7,-31
2,3039475,-1434,532,-1404,3334,-22,-92,71,-7,-31
2,3039482,-1432,501,-1406,3330,-19,-99,71,-7,-31
2,3039491,-1432,501,-1406,3330,-19,-99,71,-7,-31
2,3039500,-1432,501,-1406,3330,-19,-99,71,-7,-31
2,3039508,-1434,513,-1403,3328,-9,-99,71,-7,-31
2,3039516,-1434,513,-1403,3328,-9,-99,71,-7,-31
2,3039524,-1432,501,-1396,3333,-17,-90,68,-6,-30
2,3039534,-1432,501,-1396,3333,-17,-90,68,-6,-30
2,3039542,-1439,517,-1401,3337,-17,-90,68,-6,-30
2,3039550,-1439,517,-1401,3337,-17,-90,68,-6,-30
2,3039559,-1439,517,-1401,3337,-17,-90,68,-6,-30
2,3039568,-1437,494,-1404,3340,-17,-90,68,-6,-30
2,3039577,-1437,494,-1404,3340,-17,-90,68,-6,-30
2,3039585,-1434,491,-1404,3328,-20,-101,68,-6,-30
2,3039593,-1434,491,-1404,3328,-20,-101,68,-6,-30
2,3039602,-1428,456,-1406,3330,-20,-93,68,-6,-30
2,3039611,-1428,456,-1406,3330,-20,-93,68,-6,-30
2,3039621,-1428,456,-1406,3330,-20,-93,68,-6,-30
2,3039629,-1434,484,-1403,3326,-22,-86,68,-6,-30
2,3039637,-1434,484,-1403,3326,-22,-86,68,-6,-30
2,3039645,-1433,474,-1409,3330,-23,-89,64,-14,-36
2,3039653,-1433,474,-1409,3330,-23,-89,64,-14,-36
2,3039662,-1431,484,-1401,3336,-22,-96,64,-14,-36
2,3039671,-1431,484,-1401,3336,-22,-96,64,-14,-36
2,3039679,-1431,484,-1401,3336,-22,-96,64,-14,-36
2,3039687,-1430,477,-1406,3330,-21,-97,64,-14,-36
2,3039696,-1430,477,-1406,3330,-21,-97,64,-14,-36
2,3039705,-1432,489,-1408,3327,-19,-93,64,-14,-36
2,3039713,-1432,489,-1408,3327,-19,-93,64,-14,-36
2,3039722,-1433,496,-1411,3334,-7,-90,64,-14,-36
2,3039730,-1433,496,-1411,3334,-7,-90,64,-14,-36
2,3039739,-1433,496,-1411,3334,-7,-90,64,-14,-36
2,3039749,-1430,502,-1411,3343,-14,-100,64,-14,-36
2,3039757,-1430,502,-1411,3343,-14,-100,64,-14,-36
2,3039766,-1435,506,-1402,3345,-23,-93,62,4,-38
2,3039776,-1435,506,-1402,3345,-23,-93,62,4,-38
2,3039784,-1438,499,-1406,3348,-18,-89,62,4,-38
2,3039794,-1438,499,-1406,3348,-18,-89,62,4,-38
2,3039801,-1435,510,-1408,3346,-16,-96,62,4,-38
2,3039810,-1435,510,-1408,3346,-16,-96,62,4,-38
2,3039818,-1435,510,-1408,3346,-16,-96,62,4,-38
2,3039825,-1429,506,-1404,3352,-15,-92,62,4,-38
2,3039835,-1429,506,-1404,3352,-15,-92,62,4,-38
2,3039843,-1432,507,-1407,3347,-14,-98,62,4,-38
2,3039852,-1432,507,-1407,3347,-14,-98,62,4,-38
2,3039859,-1432,507,-1407,3347,-14,-98,62,4,-38
2,3039868,-1431,505,-1412,3350,-13,-104,62,4,-38
2,3039878,-1431,505,-1412,3350,-13,-104,62,4,-38
2,3039887,-1435,528,-1410,3349,-13,-97,62,4,-38
2,3039894,-1435,528,-1410,3349,-13,-97,62,4,-38
2,3039903,-1435,535,-1406,3342,-20,-92,62,0,-40
2,3039912,-1435,535,-1406,3342,-20,-92,62,0,-40
2,3039921,-1435,535,-1406,3342,-20,-92,62,0,-40
2,3039930,-1430,519,-1407,3351,-11,-96,62,0,-40
2,3039939,-1430,519,-1407,3351,-11,-96,62,0,-40
2,3039948,-1433,514,-1406,3347,-18,-98,62,0,-40
2,3039956,-1433,514,-1406,3347,-18,-98,62,0,-40
2,3039965,-1436,539,-1407,3346,-26,-91,62,0,-40
2,3039973,-1436,539,-1407,3346,-26,-91,62,0,-40
2,3039981,-1438,526,-1409,3332,-22,-88,62,0,-40
2,3039989,-1438,526,-1409,3332,-22,-88,62,0,-40
2,3039998,-1438,526,-1409,3332,-22,-88,62,0,-40
2,3040007,-1436,531,-1404,3339,-21,-100,62,0,-40
2,3040015,-1436,531,-1404,3339,-21,-100,62,0,-40
2,3040024,-1432,517,-1399,3341,-17,-97,51,1,-43
2,3040033,-1432,517,-1399,3341,-17,-97,51,1,-43
2,3040041,-1432,517,-1399,3341,-17,-97,51,1,-43
2,3040051,-1435,533,-1409,3346,-16,-92,51,1,-43
2,3040060,-1435,533,-1409,3346,-16,-92,51,1,-43
2,3040069,-1435,522,-1407,3338,-20,-87,51,1,-43
2,3040077,-1435,522,-1407,3338,-20,-87,51,1,-43
2,3040086,-1436,542,-1408,3336,-25,-92,51,1,-43
2,3040094,-1436,542,-1408,3336,-25,-92,51,1,-43
2,3040102,-1432,523,-1402,3342,-17,-98,51,1,-43
2,3040111,-1432,523,-1402,3342,-17,-98,51,1,-43
2,3040121,-1432,523,-1402,3342,-17,-98,51,1,-43
2,3040129,-1437,530,-1405,3337,-24,-93,51,1,-43
2,3040138,-1437,530,-1405,3337,-24,-93,51,1,-43
2,3040146,-1440,524,-1400,3335,-22,-98,49,9,-57
2,3040154,-1440,524,-1400,3335,-22,-98,49,9,-57
2,3040163,-1436,539,-1399,3333,-24,-99,49,9,-57
2,3040172,-1436,539,-1399,3333,-24,-99,49,9,-57
2,3040181,-1436,539,-1399,3333,-24,-99,49,9,-57
2,3040190,-1431,523,-1399,3335,-22,-95,49,9,-57
2,3040198,-1431,523,-1399,3335,-22,-95,49,9,-57
2,3040206,-1431,527,-1403,3328,-25,-98,49,9,-57
2,3040216,-1431,527,-1403,3328,-25,-98,49,9,-57
2,3040225,-1434,525,-1405,3335,-21,-96,49,9,-57
2,3040231,-1434,525,-1405,3335,-21,-96,49,9,-57
2,3040240,-1434,525,-1405,3335,-21,-96,49,9,-57
2,3040248,-1435,539,-1406,3335,-19,-91,49,9,-57
2,3040258,-1435,539,-1406,3335,-19,-91,49,9,-57
2,3040265,-1431,526,-1398,3333,-20,-96,55,9,-53
2,3040272,-1431,526,-1398,3333,-20,-96,55,9,-53
2,3040279,-1431,526,-1398,3333,-20,-96,55,9,-53
2,3040288,-1434,526,-1404,3332,-21,-106,55,9,-53
2,3040296,-1434,526,-1404,3332,-21,-106,55,9,-53
2,3040312,-1435,524,-1400,3329,-26,-100,55,9,-53
2,3040325,-1435,519,-1397,3329,-19,-97,55,9,-53
2,3040337,-1435,519,-1397,3329,-19,-97,55,9,-53
2,3040351,-1434,510,-1397,3330,-16,-91,55,9,-53
2,3040365,-1437,512,-1405,3336,-13,-86,55,9,-53
2,3040378,-1437,512,-1405,3336,-13,-86,55,9,-53
2,3040393,-1432,520,-1404,3329,-11,-95,54,16,-50
2,3040407,-1434,511,-1401,3332,-12,-99,54,16,-50
2,3040419,-1434,511,-1401,3332,-12,-99,54,16,-50
2,3040434,-1428,520,-1399,3331,-15,-91,54,16,-50
2,3040447,-1430,511,-1395,3336,-19,-95,54,16,-50
2,3040460,-1430,511,-1395,3336,-19,-95,54,16,-50
2,3040475,-1431,517,-1410,3335,-20,-90,54,16,-50
2,3040490,-1433,503,-1411,3335,-19,-94,54,16,-50
2,3040504,-1432,510,-1399,3326,-21,-91,54,16,-50
2,3040518,-1432,510,-1399,3326,-21,-91,54,16,-50
2,3040532,-1432,510,-1399,3326,-21,-91,56,8,-46
2,3040547,-1433,504,-1397,3335,-24,-93,56,8,-46
2,3040562,-1431,496,-1405,3341,-18,-93,56,8,-46
2,3040574,-1431,496,-1405,3341,-18,-93,56,8,-46
2,3040587,-1432,505,-1402,3332,-19,-94,56,8,-46
2,3040601,-1432,505,-1402,3332,-19,-94,56,8,-46
2,3040615,-1430,491,-1402,3329,-27,-88,56,8,-46
2,3040629,-1431,499,-1405,3334,-24,-91,56,8,-46
2,3040643,-1434,495,-1402,3337,-20,-98,60,4,-58
2,3040655,-1434,495,-1402,3337,-20,-98,60,4,-58
2,3040668,-1432,504,-1404,3338,-17,-99,60,4,-58
2,3040681,-1432,480,-1402,3339,-22,-98,60,4,-58
2,3040694,-1432,480,-1402,3339,-22,-98,60,4,-58
2,3040709,-1436,483,-1404,3338,-21,-92,60,4,-58
2,3040723,-1432,482,-1403,3339,-16,-91,60,4,-58
2,3040737,-1432,482,-1403,3339,-16,-91,60,4,-58
2,3040751,-1431,484,-1405,3331,-25,-90,60,4,-58
2,3040766,-1431,476,-1399,3334,-20,-92,61,5,-63
2,3040780,-1431,476,-1399,3334,-20,-92,61,5,-63
2,3040791,-1429,491,-1409,3343,-16,-91,61,5,-63
2,3040806,-1431,494,-1412,3341,-20,-92,61,5,-63
2,3040822,-1431,494,-1412,3341,-20,-92,61,5,-63
2,3040835,-1434,503,-1409,3341,-21,-93,61,5,-63
2,3040849,-1437,505,-1406,3344,-19,-101,61,5,-63
2,3040864,-1430,512,-1406,3343,-12,-93,61,5,-63
2,3040875,-1430,512,-1406,3343,-12,-93,61,5,-63
2,3040889,-1435,509,-1405,3348,-22,-91,57,11,-69
2,3040903,-1437,509,-1411,3348,-16,-92,57,11,-69
2,3040917,-1437,509,-1411,3348,-16,-92,57,11,-69
2,3040930,-1434,505,-1407,3348,-26,-96,57,11,-69
2,3040945,-1430,508,-1408,3344,-23,-97,57,11,-69
2,3040960,-1430,508,-1408,3344,-23,-97,57,11,-69
2,3040975,-1433,509,-1415,3353,-20,-93,57,11,-69
2,3040988,-1429,511,-1413,3358,-16,-95,57,11,-69
2,3040996,-1429,511,-1413,3358,-16,-95,57,11,-69
2,3041010,-1429,513,-1412,3347,-14,-96,49,3,-69
2,3041025,-1428,513,-1404,3349,-14,-95,49,3,-69
2,3041040,-1428,513,-1404,3349,-14,-95,49,3,-69
2,3041054,-1433,511,-1410,3359,-16,-94,49,3,-69
2,3041068,-1435,517,-1411,3360,-16,-92,49,3,-69
2,3041082,-1435,517,-1411,3360,-16,-92,49,3,-69
2,3041094,-1437,544,-1407,3349,-20,-99,49,3,-69
2,3041110,-1437,516,-1409,3348,-26,-90,49,3,-69
2,3041121,-1437,516,-1409,3348,-26,-90,49,3,-69
2,3041135,-1436,524,-1406,3341,-24,-90,49,3,-69
2,3041147,-1429,520,-1404,3343,-16,-96,50,2,-74
2,3041163,-1429,520,-1404,3343,-16,-96,50,2,-74
2,3041178,-1434,540,-1401,3339,-23,-97,50,2,-74
2,3041191,-1435,528,-1409,3342,-20,-91,50,2,-74
2,3041207,-1433,544,-1408,3344,-20,-94,50,2,-74
2,3041220,-1433,544,-1408,3344,-20,-94,50,2,-74
2,3041235,-1431,534,-1411,3344,-27,-93,50,2,-74
2,3041250,-1439,552,-1406,3341,-21,-95,50,2,-74
2,3041263,-1441,562,-1406,3343,-15,-97,46,4,-82
2,3041275,-1441,562,-1406,3343,-15,-97,46,4,-82
2,3041289,-1439,553,-1401,3340,-25,-99,46,4,-82
2,3041302,-1439,553,-1401,3340,-25,-99,46,4,-82
2,3041312,-1438,539,-1403,3339,-28,-94,46,4,-82
2,3041321,-1438,539,-1403,3339,-28,-94,46,4,-82
2,3041330,-1435,555,-1398,3334,-24,-88,46,4,-82
2,3041339,-1435,555,-1398,3334,-24,-88,46,4,-82
2,3041347,-1432,540,-1408,3329,-26,-94,46,4,-82
2,3041356,-1432,540,-1408,3329,-26,-94,46,4,-82
2,3041364,-1434,534,-1404,3329,-31,-96,46,4,-82
2,3041374,-1434,534,-1404,3329,-31,-96,46,4,-82
2,3041383,-1434,534,-1404,3329,-31,-96,50,4,-82
2,3041392,-1434,534,-1404,3329,-31,-96,50,6,-86
2,3041400,-1434,534,-1404,3329,-31,-96,50,6,-86
2,3041409,-1433,538,-1400,3326,-25,-95,50,6,-86
2,3041419,-1433,538,-1400,3326,-25,-95,50,6,-86
2,3041427,-1436,507,-1401,3332,-16,-94,50,6,-86
2,3041436,-1436,507,-1401,3332,-16,-94,50,6,-86
2,3041443,-1431,508,-1401,3328,-21,-99,50,6,-86
2,3041453,-1431,508,-1401,3328,-21,-99,50,6,-86
2,3041461,-1431,508,-1401,3328,-21,-99,50,6,-86
2,3041470,-1434,513,-1396,3333,-25,-94,50,6,-86
2,3041478,-1434,513,-1396,3333,-25,-94,50,6,-86
2,3041486,-1435,535,-1401,3333,-33,-85,50,6,-86
2,3041497,-1435,535,-1401,3333,-33,-85,50,6,-86
2,3041504,-1436,501,-1402,3332,-22,-85,55,-3,-89
2,3041512,-1436,501,-1402,3332,-22,-85,55,-3,-89
2,3041520,-1436,501,-1402,3332,-22,-85,55,-3,-89
2,3041528,-1430,520,-1405,3334,-16,-99,55,-3,-89
2,3041536,-1430,520,-1405,3334,-16,-99,55,-3,-89
2,3041544,-1432,504,-1402,3332,-22,-90,55,-3,-89
2,3041553,-1432,504,-1402,3332,-22,-90,55,-3,-89
2,3041560,-1432,504,-1402,3332,-22,-90,55,-3,-89
2,3041568,-1428,514,-1401,3322,-24,-86,55,-3,-89
2,3041576,-1428,514,-1401,3322,-24,-86,55,-3,-89
2,3041586,-1434,496,-1406,3323,-20,-93,55,-3,-89
2,3041594,-1434,496,-1406,3323,-20,-93,55,-3,-89
2,3041602,-1434,496,-1406,3323,-20,-93,55,-3,-89
2,3041610,-1432,502,-1399,3329,-26,-99,55,-3,-89
2,3041619,-1432,502,-1399,3329,-26,-99,55,-3,-89
2,3041628,-1430,470,-1402,3332,-27,-91,53,-3,-89
2,3041637,-1430,470,-1402,3332,-27,-91,53,-3,-89
2,3041644,-1435,488,-1399,3329,-31,-88,53,-3,-89
2,3041652,-1435,488,-1399,3329,-31,-88,53,-3,-89
2,3041660,-1435,488,-1399,3329,-31,-88,53,-3,-89
2,3041670,-1436,487,-1411,3326,-23,-100,53,-3,-89
2,3041679,-1436,487,-1411,3326,-23,-100,53,-3,-89
2,3041687,-1432,485,-1401,3334,-21,-98,53,-3,-89
2,3041696,-1432,485,-1401,3334,-21,-98,53,-3,-89
2,3041705,-1433,474,-1404,3334,-17,-92,53,-3,-89
2,3041714,-1433,474,-1404,3334,-17,-92,53,-3,-89
2,3041722,-1433,474,-1404,3334,-17,-92,53,-3,-89
2,3041731,-1434,485,-1407,3333,-25,-95,53,-3,-89
2,3041740,-1434,485,-1407,3333,-25,-95,53,-3,-89
2,3041748,-1435,497,-1410,3332,-25,-97,53,-3,-89
2,3041758,-1435,497,-1410,3332,-25,-97,53,-3,-89
2,3041766,-1432,504,-1404,3342,-30,-93,53,3,-93
2,3041774,-1432,504,-1404,3342,-30,-93,53,3,-93
2,3041782,-1432,504,-1404,3342,-30,-93,53,3,-93
2,3041790,-1434,497,-1402,3343,-29,-96,53,3,-93
2,3041800,-1434,497,-1402,3343,-29,-96,53,3,-93
2,3041807,-1431,493,-1410,3345,-20,-96,53,3,-93
2,3041816,-1431,493,-1410,3345,-20,-96,53,3,-93
2,3041824,-1435,504,-1407,3346,-20,-100,53,3,-93
2,3041833,-1435,504,-1407,3346,-20,-100,53,3,-93
2,3041843,-1435,504,-1407,3346,-20,-100,53,3,-93
2,3041852,-1434,518,-1407,3349,-27,-96,53,3,-93
2,3041861,-1434,518,-1407,3349,-27,-96,53,3,-93
2,3041869,-1435,505,-1408,3349,-21,-89,53,3,-93
2,3041878,-1435,505,-1408,3349,-21,-89,53,3,-93
2,3041887,-1433,505,-1401,3350,-20,-92,56,-4,-96
2,3041895,-1433,505,-1401,3350,-20,-92,56,-4,-96
2,3041904,-1433,505,-1401,3350,-20,-92,56,-4,-96
2,3041913,-1433,505,-1401,3350,-20,-92,56,-4,-96
2,3041922,-1433,505,-1401,3350,-20,-92,56,-4,-96
2,3041931,-1435,555,-1407,3346,-26,-98,56,-4,-96
2,3041939,-1435,555,-1407,3346,-26,-98,56,-4,-96
2,3041948,-1434,518,-1404,3345,-21,-94,56,-4,-96
2,3041955,-1434,518,-1404,3345,-21,-94,56,-4,-96
2,3041964,-1434,532,-1408,3349,-23,-104,56,-4,-96
2,3041973,-1434,532,-1408,3349,-23,-104,56,-4,-96
2,3041982,-1434,532,-1408,3349,-23,-104,56,-4,-96
2,3041990,-1430,508,-1404,3342,-21,-98,56,-4,-96
2,3041998,-1430,508,-1404,3342,-21,-98,56,-4,-96
2,3042007,-1436,550,-1399,3336,-25,-92,51,-5,-103
2,3042015,-1436,550,-1399,3336,-25,-92,51,-5,-103
2,3042024,-1436,523,-1403,3334,-23,-95,51,-5,-103
2,3042032,-1436,523,-1403,3334,-23,-95,51,-5,-103
2,3042041,-1436,523,-1403,3334,-23,-95,51,-5,-103
2,3042051,-1435,524,-1401,3335,-24,-93,51,-5,-103
2,3042059,-1435,524,-1401,3335,-24,-93,51,-5,-103
2,3042067,-1426,510,-1403,3342,-20,-92,51,-5,-103
2,3042075,-1426,510,-1403,3342,-20,-92,51,-5,-103
2,3042084,-1435,534,-1405,3337,-22,-91,51,-5,-103
2,3042092,-1435,534,-1405,3337,-22,-91,51,-5,-103
2,3042100,-1435,534,-1405,3337,-22,-91,51,-5,-103
2,3042109,-1435,525,-1407,3342,-14,-96,51,-5,-103
2,3042117,-1435,525,-1407,3342,-14,-96,51,-5,-103
2,3042125,-1431,528,-1397,3347,-16,-98,52,-10,-108
2,3042136,-1431,528,-1397,3347,-16,-98,52,-10,-108
2,3042144,-1429,524,-1401,3337,-18,-91,52,-10,-108
2,3042153,-1429,524,-1401,3337,-18,-91,52,-10,-108
2,3042162,-1429,524,-1401,3337,-18,-91,52,-10,-108
2,3042170,-1435,526,-1399,3333,-26,-90,52,-10,-108
2,3042180,-1435,526,-1399,3333,-26,-90,52,-10,-108
2,3042188,-1437,532,-1405,3335,-26,-99,52,-10,-108
2,3042196,-1437,532,-1405,3335,-26,-99,52,-10,-108
2,3042205,-1434,528,-1402,3340,-30,-93,52,-10,-108
2,3042213,-1434,528,-1402,3340,-30,-93,52,-10,-108
2,3042223,-1434,528,-1402,3340,-30,-93,52,-10,-108
2,3042231,-1435,520,-1402,3338,-28,-94,52,-10,-108
2,3042239,-1435,520,-1402,3338,-28,-94,52,-10,-108
2,3042247,-1436,520,-1401,3342,-25,-90,52,-12,-110
2,3042255,-1436,520,-1401,3342,-25,-90,52,-12,-110
2,3042265,-1438,530,-1400,3338,-30,-96,52,-12,-110
2,3042273,-1438,530,-1400,3338,-30,-96,52,-12,-110
2,3042282,-1438,530,-1400,3338,-30,-96,52,-12,-110
2,3042291,-1432,527,-1398,3333,-24,-93,52,-12,-110
2,3042298,-1432,527,-1398,3333,-24,-93,52,-12,-110
2,3042308,-1432,507,-1400,3332,-26,-102,52,-12,-110
2,3042316,-1432,507,-1400,3332,-26,-102,52,-12,-110
2,3042329,-1428,517,-1403,3327,-25,-91,52,-12,-110
2,3042343,-1428,517,-1403,3327,-25,-91,52,-12,-110
2,3042358,-1435,525,-1407,3334,-18,-91,52,-12,-110
2,3042373,-1437,530,-1405,3334,-23,-92,52,-12,-110
2,3042385,-1436,509,-1399,3335,-27,-100,61,-9,-113
2,3042399,-1436,509,-1399,3335,-27,-100,61,-9,-113
2,3042413,-1435,511,-1403,3334,-26,-104,61,-9,-113
2,3042427,-1433,517,-1402,3336,-22,-98,61,-9,-113
2,3042441,-1433,517,-1402,3336,-22,-98,61,-9,-113
2,3042449,-1434,513,-1405,3332,-25,-93,61,-9,-113
2,3042461,-1434,513,-1405,3332,-25,-93,61,-9,-113
2,3042476,-1431,502,-1407,3333,-23,-99,61,-9,-113
2,3042489,-1431,502,-1407,3333,-23,-99,61,-9,-113
2,3042502,-1431,502,-1407,3333,-23,-99,61,-9,-113
2,3042513,-1429,511,-1401,3334,-16,-82,63,-9,-119
2,3042527,-1436,511,-1401,3336,-19,-86,63,-9,-119
2,3042543,-1436,511,-1401,3336,-19,-86,63,-9,-119
2,3042556,-1437,510,-1407,3338,-18,-96,63,-9,-119
2,3042570,-1433,500,-1405,3331,-32,-99,63,-9,-119
2,3042585,-1433,500,-1405,3331,-32,-99,63,-9,-119
2,3042600,-1433,500,-1405,3331,-32,-99,63,-9,-119
2,3042615,-1436,507,-1401,3341,-23,-93,63,-9,-119
2,3042629,-1435,510,-1401,3336,-24,-95,73,-15,-127
2,3042642,-1435,510,-1401,3336,-24,-95,73,-15,-127
2,3042657,-1430,499,-1409,3338,-23,-102,73,-15,-127
2,3042668,-1432,505,-1408,3338,-21,-100,73,-15,-127
2,3042682,-1432,505,-1408,3338,-21,-100,73,-15,-127
2,3042696,-1432,508,-1408,3340,-29,-99,73,-15,-127
2,3042709,-1434,501,-1398,3341,-14,-101,73,-15,-127
2,3042723,-1434,501,-1398,3341,-14,-101,73,-15,-127
2,3042737,-1427,491,-1405,3341,-13,-98,73,-15,-127
2,3042748,-1433,493,-1404,3347,-22,-96,73,-15,-125
2,3042761,-1433,493,-1404,3347,-22,-96,73,-15,-125
2,3042776,-1432,488,-1402,3344,-20,-91,73,-15,-125
2,3042789,-1431,496,-1403,3340,-30,-91,73,-15,-125
2,3042804,-1432,490,-1409,3337,-23,-87,73,-15,-125
2,3042819,-1432,490,-1409,3337,-23,-87,73,-15,-125
2,3042829,-1432,497,-1405,3345,-26,-84,73,-15,-125
2,3042843,-1432,497,-1405,3345,-26,-84,73,-15,-125
2,3042859,-1435,501,-1411,3342,-27,-91,73,-15,-125
2,3042871,-1435,516,-1411,3346,-17,-93,66,-16,-126
2,3042885,-1434,508,-1407,3339,-19,-98,66,-16,-126
2,3042902,-1434,508,-1407,3339,-19,-98,66,-16,-126
2,3042917,-1434,504,-1404,3341,-16,-97,66,-16,-126
2,3042930,-1433,509,-1407,3339,-14,-91,66,-16,-126
2,3042944,-1433,509,-1407,3339,-14,-91,66,-16,-126
2,3042958,-1434,521,-1409,3345,-19,-99,66,-16,-126
2,3042967,-1436,517,-1415,3341,-21,-91,66,-16,-126
2,3042980,-1436,517,-1415,3341,-21,-91,66,-16,-126
2,3042994,-1433,512,-1413,3348,-21,-99,66,-16,-126
2,3043008,-1430,512,-1406,3348,-24,-101,87,-21,-131
2,3043022,-1430,512,-1406,3348,-24,-101,87,-21,-131
2,3043035,-1433,518,-1407,3351,-23,-93,87,-21,-131
2,3043047,-1435,518,-1411,3351,-24,-92,87,-21,-131
2,3043061,-1435,518,-1411,3351,-24,-92,87,-21,-131
2,3043075,-1433,515,-1408,3349,-24,-98,87,-21,-131
2,3043090,-1434,517,-1407,3347,-18,-97,87,-21,-131
2,3043104,-1435,534,-1404,3341,-15,-90,87,-21,-131
2,3043120,-1435,534,-1404,3341,-15,-90,87,-21,-131
2,3043135,-1436,522,-1403,3341,-27,-96,86,-20,-136
2,3043150,-1434,525,-1403,3333,-31,-106,86,-20,-136
2,3043164,-1434,525,-1403,3333,-31,-106,86,-20,-136
2,3043177,-1434,522,-1411,3331,-27,-99,86,-20,-136
2,3043190,-1438,531,-1407,3342,-15,-94,86,-20,-136
2,3043201,-1438,531,-1407,3342,-15,-94,86,-20,-136
2,3043215,-1436,530,-1404,3342,-15,-91,86,-20,-136
2,3043228,-1433,533,-1410,3344,-13,-98,86,-20,-136
2,3043244,-1433,533,-1410,3344,-13,-98,86,-20,-136
2,3043258,-1434,535,-1408,3338,-20,-94,85,-15,-141
2,3043271,-1436,537,-1401,3338,-17,-88,85,-15,-141
2,3043282,-1436,537,-1401,3338,-17,-88,85,-15,-141
2,3043296,-1435,549,-1403,3338,-23,-98,85,-15,-141
2,3043310,-1436,557,-1400,3332,-20,-93,85,-15,-141
2,3043323,-1436,557,-1400,3332,-20,-93,85,-15,-141
2,3043331,-1433,545,-1402,3344,-22,-94,85,-15,-141
2,3043339,-1433,545,-1402,3344,-22,-94,85,-15,-141
2,3043348,-1439,534,-1406,3332,-24,-92,85,-15,-141
2,3043356,-1439,534,-1406,3332,-24,-92,85,-15,-141
2,3043365,-1434,532,-1394,3331,-25,-95,91,-23,-133
2,3043375,-1434,532,-1394,3331,-25,-95,91,-23,-133
2,3043383,-1434,532,-1394,3331,-25,-95,91,-23,-133
2,3043391,-1432,536,-1401,3331,-22,-98,91,-23,-133
2,3043397,-1432,536,-1401,3331,-22,-98,91,-23,-133
2,3043406,-1438,532,-1405,3338,-30,-97,91,-23,-133
2,3043415,-1438,532,-1405,3338,-30,-97,91,-23,-133
2,3043423,-1438,532,-1405,3338,-30,-97,91,-23,-133
2,3043431,-1432,487,-1406,3341,-25,-96,91,-23,-133
2,3043438,-1432,487,-1406,3341,-25,-96,91,-23,-133
2,3043447,-1431,523,-1402,3336,-13,-106,91,-23,-133
2,3043456,-1431,523,-1402,3336,-13,-106,91,-23,-133
2,3043464,-1431,523,-1402,3336,-13,-106,91,-23,-133
2,3043471,-1439,514,-1404,3327,-23,-93,91,-23,-133
2,3043479,-1439,514,-1404,3327,-23,-93,91,-23,-133
2,3043488,-1440,538,-1403,3332,-25,-85,91,-21,-149
2,3043496,-1440,538,-1403,3332,-25,-85,91,-21,-149
2,3043506,-1432,495,-1403,3338,-23,-99,91,-21,-149
2,3043515,-1432,495,-1403,3338,-23,-99,91,-21,-149
2,3043522,-1432,495,-1403,3338,-23,-99,91,-21,-149
2,3043531,-1431,522,-1401,3332,-27,-96,91,-21,-149
2,3043538,-1431,522,-1401,3332,-27,-96,91,-21,-149
2,3043548,-1434,510,-1406,3330,-28,-90,91,-21,-149
2,3043556,-1434,510,-1406,3330,-28,-90,91,-21,-149
2,3043565,-1438,523,-1403,3328,-23,-101,91,-21,-149
2,3043572,-1438,523,-1403,3328,-23,-101,91,-21,-149
2,3043579,-1438,523,-1403,3328,-23,-101,91,-21,-149
2,3043588,-1430,491,-1398,3329,-28,-101,91,-21,-149
2,3043596,-1430,491,-1398,3329,-28,-101,91,-21,-149
2,3043604,-1430,491,-1398,3329,-28,-101,91,-21,-149
2,3043613,-1428,487,-1399,3334,-19,-94,98,-22,-156
2,3043622,-1428,487,-1399,3334,-19,-94,98,-22,-156
2,3043632,-1430,455,-1406,3333,-20,-85,98,-22,-156
2,3043642,-1430,455,-1406,3333,-20,-85,98,-22,-156
2,3043650,-1434,476,-1405,3328,-23,-91,98,-22,-156
2,3043657,-1434,476,-1405,3328,-23,-91,98,-22,-156
2,3043665,-1431,478,-1410,3331,-16,-97,98,-22,-156
2,3043674,-1431,478,-1410,3331,-16,-97,98,-22,-156
2,3043682,-1431,478,-1410,3331,-16,-97,98,-22,-156
2,3043689,-1432,472,-1406,3337,-22,-97,98,-22,-156
2,3043698,-1432,472,-1406,3337,-22,-97,98,-22,-156
2,3043705,-1433,476,-1409,3333,-25,-92,98,-22,-156
2,3043715,-1433,476,-1409,3333,-25,-92,98,-22,-156
2,3043722,-1433,476,-1409,3333,-25,-92,98,-22,-156
2,3043731,-1436,484,-1412,3331,-20,-90,98,-22,-156
2,3043739,-1436,484,-1412,3331,-20,-90,98,-22,-156
2,3043748,-1434,501,-1408,3339,-18,-93,86,-24,-146
2,3043757,-1434,501,-1408,3339,-18,-93,86,-24,-146
2,3043767,-1435,494,-1410,3339,-24,-101,86,-24,-146
2,3043773,-1435,494,-1410,3339,-24,-101,86,-24,-146
2,3043782,-1435,494,-1410,3339,-24,-101,86,-24,-146
2,3043791,-1434,499,-1407,3340,-21,-99,86,-24,-146
2,3043800,-1434,499,-1407,3340,-21,-99,86,-24,-146
2,3043807,-1435,495,-1411,3342,-27,-94,86,-24,-146
2,3043814,-1435,495,-1411,3342,-27,-94,86,-24,-146
2,3043823,-1435,495,-1411,3342,-27,-94,86,-24,-146
2,3043831,-1435,510,-1407,3352,-27,-97,86,-24,-146
2,3043841,-1435,510,-1407,3352,-27,-97,86,-24,-146
2,3043849,-1436,508,-1413,3345,-18,-89,86,-24,-146
2,3043857,-1436,508,-1413,3345,-18,-89,86,-24,-146
2,3043865,-1436,508,-1413,3345,-18,-89,86,-24,-146
2,3043874,-1431,508,-1402,3346,-25,-92,97,-25,-151
2,3043881,-1431,508,-1402,3346,-25,-92,97,-25,-151
2,3043891,-1436,502,-1411,3342,-24,-91,97,-25,-151
2,3043899,-1436,502,-1411,3342,-24,-91,97,-25,-151
2,3043907,-1435,545,-1405,3348,-25,-96,97,-25,-151
2,3043916,-1435,545,-1405,3348,-25,-96,97,-25,-151
2,3043924,-1435,545,-1405,3348,-25,-96,97,-25,-151
2,3043934,-1441,523,-1412,3352,-24,-92,97,-25,-151
2,3043941,-1441,523,-1412,3352,-24,-92,97,-25,-151
2,3043949,-1436,527,-1403,3351,-22,-96,97,-25,-151
2,3043957,-1436,527,-1403,3351,-22,-96,97,-25,-151
2,3043965,-1434,507,-1407,3346,-17,-96,97,-25,-151
2,3043974,-1434,507,-1407,3346,-17,-96,97,-25,-151
2,3043982,-1434,507,-1407,3346,-17,-96,97,-25,-151
2,3043990,-1436,550,-1409,3340,-19,-93,107,-37,-151
2,3043999,-1436,550,-1409,3340,-19,-93,107,-37,-151
2,3044006,-1443,524,-1408,3340,-15,-86,107,-37,-151
2,3044015,-1443,524,-1408,3340,-15,-86,107,-37,-151
2,3044024,-1443,524,-1408,3340,-15,-86,107,-37,-151
2,3044033,-1436,534,-1411,3336,-16,-95,107,-37,-151
2,3044040,-1436,534,-1411,3336,-16,-95,107,-37,-151
2,3044049,-1433,514,-1407,3333,-22,-95,107,-37,-151
2,3044058,-1433,514,-1407,3333,-22,-95,107,-37,-151
2,3044066,-1435,542,-1407,3342,-20,-91,107,-37,-151
2,3044074,-1435,542,-1407,3342,-20,-91,107,-37,-151
2,3044082,-1435,542,-1407,3342,-20,-91,107,-37,-151
2,3044090,-1435,523,-1404,3338,-30,-87,107,-37,-151
2,3044099,-1435,523,-1404,3338,-30,-87,107,-37,-151
2,3044107,-1438,537,-1410,3337,-22,-93,97,-35,-159
2,3044114,-1438,537,-1410,3337,-22,-93,97,-35,-159
2,3044123,-1438,537,-1410,3337,-22,-93,97,-35,-159
2,3044131,-1430,516,-1402,3341,-25,-104,97,-35,-159
2,3044141,-1430,516,-1402,3341,-25,-104,97,-35,-159
2,3044149,-1433,531,-1405,3337,-23,-100,97,-35,-159
2,3044158,-1433,531,-1405,3337,-23,-100,97,-35,-159
2,3044167,-1439,529,-1407,3332,-21,-100,97,-35,-159
2,3044175,-1439,529,-1407,3332,-21,-100,97,-35,-159
2,3044185,-1439,529,-1407,3332,-21,-100,97,-35,-159
2,3044193,-1434,539,-1402,3335,-22,-94,97,-35,-159
2,3044200,-1434,539,-1402,3335,-22,-94,97,-35,-159
2,3044209,-1432,522,-1405,3334,-25,-96,97,-35,-159
2,3044217,-1432,522,-1405,3334,-25,-96,97,-35,-159
2,3044226,-1433,524,-1406,3337,-32,-88,97,-35,-159
2,3044234,-1433,524,-1406,3337,-32,-88,108,-26,-160
2,3044243,-1433,524,-1406,3337,-32,-88,108,-26,-160
2,3044252,-1438,526,-1404,3334,-32,-86,108,-26,-160
2,3044260,-1438,526,-1404,3334,-32,-86,108,-26,-160
2,3044269,-1434,534,-1405,3336,-26,-93,108,-26,-160
2,3044276,-1434,534,-1405,3336,-26,-93,108,-26,-160
2,3044284,-1434,534,-1405,3336,-26,-93,108,-26,-160
2,3044292,-1435,527,-1400,3335,-22,-101,108,-26,-160
2,3044300,-1435,527,-1400,3335,-22,-101,108,-26,-160
2,3044308,-1433,519,-1404,3334,-21,-97,108,-26,-160
2,3044317,-1433,519,-1404,3334,-21,-97,108,-26,-160
2,3044325,-1433,519,-1404,3334,-21,-97,108,-26,-160
2,3044338,-1438,522,-1401,3336,-23,-93,108,-26,-160
2,3044352,-1434,506,-1410,3330,-25,-91,108,-26,-160
2,3044366,-1433,524,-1397,3322,-26,-94,109,-29,-155
2,3044377,-1433,524,-1397,3322,-26,-94,109,-29,-155
2,3044391,-1433,514,-1401,3331,-25,-99,109,-29,-155
2,3044406,-1434,515,-1399,3325,-32,-100,109,-29,-155
2,3044419,-1434,515,-1399,3325,-32,-100,109,-29,-155
2,3044432,-1435,510,-1408,3329,-26,-98,109,-29,-155
2,3044447,-1433,515,-1406,3322,-32,-96,109,-29,-155
2,3044461,-1433,515,-1406,3322,-32,-96,109,-29,-155
2,3044472,-1435,511,-1405,3338,-21,-89,109,-29,-155
2,3044484,-1435,511,-1405,3338,-21,-89,109,-29,-155
2,3044497,-1434,504,-1400,3333,-25,-95,110,-40,-154
2,3044512,-1433,506,-1399,3325,-21,-97,110,-40,-154
2,3044528,-1431,500,-1399,3327,-15,-88,110,-40,-154
2,3044543,-1431,500,-1399,3327,-15,-88,110,-40,-154
2,3044556,-1435,496,-1408,3329,-21,-89,110,-40,-154
2,3044571,-1436,483,-1408,3326,-17,-95,110,-40,-154
2,3044584,-1436,483,-1408,3326,-17,-95,110,-40,-154
2,3044595,-1435,502,-1404,3333,-18,-97,110,-40,-154
2,3044609,-1434,498,-1400,3334,-11,-91,119,-33,-163
2,3044622,-1434,498,-1400,3334,-11,-91,119,-33,-163
2,3044636,-1433,498,-1404,3333,-18,-90,119,-33,-163
2,3044649,-1434,495,-1409,3336,-21,-100,119,-33,-163
2,3044663,-1434,495,-1409,3336,-21,-100,119,-33,-163
2,3044674,-1434,495,-1409,3336,-21,-100,119,-33,-163
2,3044688,-1435,489,-1410,3339,-26,-92,119,-33,-163
2,3044702,-1435,489,-1410,3339,-26,-92,119,-33,-163
2,3044716,-1433,481,-1406,3338,-27,-87,119,-33,-163
2,3044731,-1434,482,-1409,3335,-28,-96,116,-42,-166
2,3044746,-1432,487,-1410,3333,-25,-94,116,-42,-166
2,3044761,-1432,487,-1410,3333,-25,-94,116,-42,-166
2,3044775,-1440,480,-1415,3334,-22,-96,116,-42,-166
2,3044789,-1436,483,-1412,3339,-22,-100,116,-42,-166
2,3044803,-1436,483,-1412,3339,-22,-100,116,-42,-166
2,3044818,-1433,492,-1409,3338,-20,-95,116,-42,-166
2,3044830,-1437,497,-1412,3336,-24,-94,116,-42,-166
2,3044843,-1437,497,-1412,3336,-24,-94,116,-42,-166
2,3044856,-1434,493,-1411,3342,-18,-92,120,-34,-164
2,3044870,-1434,493,-1411,3342,-18,-92,120,-34,-164
2,3044884,-1434,493,-1411,3342,-18,-92,120,-34,-164
2,3044896,-1434,508,-1404,3338,-17,-91,120,-34,-164
2,3044907,-1438,504,-1411,3347,-17,-87,120,-34,-164
2,3044921,-1438,504,-1411,3347,-17,-87,120,-34,-164
2,3044935,-1435,507,-1416,3356,-14,-99,120,-34,-164
2,3044948,-1434,517,-1416,3352,-20,-91,120,-34,-164
2,3044961,-1434,517,-1416,3352,-20,-91,120,-34,-164
2,3044974,-1434,506,-1413,3340,-21,-95,120,-34,-164
2,3044988,-1436,502,-1414,3342,-21,-94,116,-38,-160
2,3045005,-1436,502,-1414,3342,-21,-94,116,-38,-160
2,3045020,-1433,504,-1406,3352,-19,-95,116,-38,-160
2,3045031,-1434,510,-1410,3348,-30,-99,116,-38,-160
2,3045046,-1434,510,-1410,3348,-30,-99,116,-38,-160
2,3045060,-1436,513,-1410,3350,-24,-96,116,-38,-160
2,3045073,-1441,515,-1410,3348,-25,-99,116,-38,-160
2,3045088,-1434,517,-1411,3344,-25,-94,116,-38,-160
2,3045100,-1434,517,-1411,3344,-25,-94,116,-38,-160
2,3045112,-1439,538,-1410,3341,-23,-90,117,-41,-161
2,3045126,-1439,538,-1410,3341,-23,-90,117,-41,-161
2,3045139,-1438,513,-1412,3345,-18,-86,117,-41,-161
2,3045152,-1437,523,-1408,3347,-23,-92,117,-41,-161
2,3045167,-1435,524,-1416,3343,-27,-102,117,-41,-161
2,3045178,-1435,524,-1416,3343,-27,-102,117,-41,-161
2,3045191,-1439,532,-1410,3339,-30,-91,117,-41,-161
2,3045204,-1439,532,-1410,3339,-30,-91,117,-41,-161
2,3045218,-1435,521,-1413,3344,-27,-93,117,-41,-161
2,3045231,-1438,535,-1405,3338,-20,-98,132,-44,-162
2,3045245,-1438,535,-1405,3338,-20,-98,132,-44,-162
2,3045259,-1436,534,-1402,3344,-22,-92,132,-44,-162
2,3045272,-1438,546,-1407,3340,-25,-90,132,-44,-162
2,3045286,-1440,561,-1408,3331,-19,-87,132,-44,-162
2,3045299,-1440,561,-1408,3331,-19,-87,132,-44,-162
2,3045314,-1436,546,-1404,3339,-27,-88,132,-44,-162
2,3045329,-1435,544,-1409,3340,-32,-96,132,-44,-162
2,3045343,-1435,544,-1409,3340,-32,-96,132,-44,-162
2,3045356,-1438,536,-1403,3333,-24,-90,129,-39,-167
2,3045370,-1436,540,-1404,3329,-21,-99,129,-39,-167
2,3045384,-1436,540,-1404,3329,-21,-99,129,-39,-167
2,3045398,-1437,530,-1407,3335,-19,-92,129,-39,-167
2,3045409,-1433,527,-1404,3336,-26,-95,129,-39,-167
2,3045423,-1433,527,-1404,3336,-26,-95,129,-39,-167
2,3045437,-1436,529,-1405,3327,-32,-94,129,-39,-167
2,3045451,-1433,483,-1406,3324,-26,-95,129,-39,-167
2,3045463,-1433,483,-1406,3324,-26,-95,129,-39,-167
2,3045477,-1437,534,-1401,3318,-16,-97,132,-44,-162
2,3045491,-1436,510,-1401,3329,-15,-91,132,-44,-162
2,3045506,-1436,510,-1401,3329,-15,-91,132,-44,-162
2,3045519,-1440,520,-1401,3328,-23,-98,132,-44,-162
2,3045532,-1434,498,-1405,3331,-17,-95,132,-44,-162
2,3045540,-1434,498,-1405,3331,-17,-95,132,-44,-162
2,3045552,-1431,522,-1404,3325,-27,-92,132,-44,-162
2,3045565,-1431,522,-1404,3325,-27,-92,132,-44,-162
2,3045578,-1433,502,-1409,3325,-24,-87,132,-44,-162
2,3045594,-1435,500,-1402,3330,-25,-96,132,-44,-162
2,3045607,-1428,493,-1404,3329,-20,-94,140,-34,-158
2,3045620,-1428,493,-1404,3329,-20,-94,140,-34,-158
2,3045635,-1431,469,-1402,3334,-26,-91,140,-34,-158
2,3045646,-1431,469,-1402,3334,-26,-91,140,-34,-158
2,3045660,-1432,481,-1408,3330,-20,-95,140,-34,-158
2,3045673,-1434,470,-1410,3332,-25,-95,140,-34,-158
2,3045687,-1432,484,-1414,3330,-24,-99,140,-34,-158
2,3045702,-1432,484,-1414,3330,-24,-99,140,-34,-158
2,3045718,-1432,471,-1409,3335,-25,-95,140,-34,-158
2,3045733,-1435,481,-1405,3340,-18,-95,134,-30,-160
2,3045746,-1435,481,-1405,3340,-18,-95,134,-30,-160
2,3045761,-1435,480,-1411,3333,-23,-100,134,-30,-160
2,3045775,-1434,496,-1407,3335,-14,-103,134,-30,-160
2,3045789,-1436,488,-1414,3343,-22,-94,134,-30,-160
2,3045801,-1436,488,-1414,3343,-22,-94,134,-30,-160
2,3045816,-1434,492,-1401,3342,-27,-90,134,-30,-160
2,3045829,-1436,495,-1412,3339,-28,-102,134,-30,-160
2,3045842,-1436,495,-1412,3339,-28,-102,134,-30,-160
2,3045856,-1433,506,-1406,3342,-25,-97,140,-36,-162
2,3045870,-1437,502,-1412,3345,-21,-92,140,-36,-162
2,3045882,-1437,502,-1412,3345,-21,-92,140,-36,-162
2,3045896,-1433,501,-1410,3347,-27,-100,140,-36,-162
2,3045909,-1439,502,-1413,3348,-17,-96,140,-36,-162
2,3045923,-1439,502,-1413,3348,-17,-96,140,-36,-162
2,3045939,-1438,521,-1408,3352,-22,-103,140,-36,-162
2,3045954,-1439,544,-1412,3352,-19,-95,140,-36,-162
2,3045969,-1436,509,-1406,3354,-17,-100,141,-37,-157
2,3045983,-1436,509,-1406,3354,-17,-100,141,-37,-157
2,3045992,-1437,512,-1405,3349,-18,-96,141,-37,-157
2,3046004,-1437,512,-1405,3349,-18,-96,141,-37,-157
2,3046020,-1438,528,-1406,3346,-28,-97,141,-37,-157
2,3046035,-1438,528,-1408,3342,-26,-91,141,-37,-157
2,3046049,-1438,520,-1411,3335,-21,-96,141,-37,-157
2,3046063,-1438,520,-1411,3335,-21,-96,141,-37,-157
2,3046077,-1438,512,-1408,3342,-26,-100,141,-37,-157
2,3046090,-1436,521,-1411,3337,-24,-96,153,-33,-159
2,3046104,-1436,521,-1411,3337,-24,-96,153,-33,-159
2,3046119,-1435,513,-1408,3341,-19,-95,153,-33,-159
2,3046133,-1440,526,-1405,3336,-25,-98,153,-33,-159
2,3046148,-1433,516,-1404,3342,-23,-96,153,-33,-159
2,3046161,-1433,516,-1404,3342,-23,-96,153,-33,-159
2,3046174,-1435,524,-1414,3344,-19,-93,153,-33,-159
2,3046189,-1438,515,-1410,3340,-21,-98,153,-33,-159
2,3046204,-1438,515,-1410,3340,-21,-98,153,-33,-159
2,3046215,-1437,529,-1402,3339,-20,-97,153,-33,-159
2,3046231,-1436,520,-1402,3338,-17,-97,149,-29,-159
2,3046245,-1436,520,-1402,3338,-17,-97,149,-29,-159
2,3046260,-1433,515,-1400,3336,-23,-100,149,-29,-159
2,3046273,-1435,518,-1406,3333,-20,-97,149,-29,-159
2,3046287,-1435,518,-1406,3333,-20,-97,149,-29,-159
2,3046302,-1438,530,-1409,3334,-28,-101,149,-29,-159
2,3046316,-1438,523,-1413,3335,-29,-97,149,-29,-159
2,3046329,-1436,503,-1403,3337,-25,-91,149,-29,-159
2,3046342,-1436,503,-1403,3337,-25,-91,149,-29,-159
2,3046353,-1437,514,-1403,3333,-15,-99,152,-32,-156
2,3046369,-1436,517,-1403,3329,-20,-99,152,-32,-156
2,3046382,-1436,517,-1403,3329,-20,-99,152,-32,-156
2,3046395,-1434,521,-1409,3334,-27,-90,152,-32,-156
2,3046409,-1431,502,-1409,3342,-18,-97,152,-32,-156
2,3046423,-1431,502,-1409,3342,-18,-97,152,-32,-156
2,3046435,-1431,517,-1407,3338,-23,-95,152,-32,-156
2,3046449,-1436,509,-1407,3332,-20,-89,152,-32,-156
2,3046464,-1436,509,-1407,3332,-20,-89,152,-32,-156
2,3046479,-1442,514,-1401,3330,-15,-100,154,-22,-148
2,3046495,-1431,502,-1407,3326,-18,-108,154,-22,-148
2,3046508,-1434,504,-1403,3327,-17,-103,154,-22,-148
2,3046521,-1434,504,-1403,3327,-17,-103,154,-22,-148
2,3046537,-1436,502,-1403,3336,-20,-99,154,-22,-148
2,3046550,-1436,507,-1407,3333,-25,-99,154,-22,-148
2,3046563,-1436,507,-1407,3333,-25,-99,154,-22,-148
2,3046578,-1434,503,-1407,3334,-22,-102,154,-22,-148
2,3046592,-1432,501,-1403,3334,-20,-98,151,-25,-153
2,3046605,-1432,501,-1403,3334,-20,-98,151,-25,-153
2,3046618,-1435,500,-1410,3332,-31,-97,151,-25,-153
2,3046633,-1437,507,-1408,3336,-24,-93,151,-25,-153
2,3046647,-1437,507,-1408,3336,-24,-93,151,-25,-153
2,3046658,-1437,507,-1408,3336,-24,-93,151,-25,-153
2,3046674,-1437,507,-1408,3336,-24,-93,151,-25,-153
2,3046689,-1434,495,-1406,3337,-16,-97,151,-25,-153
2,3046705,-1434,495,-1406,3337,-16,-97,151,-25,-153
2,3046720,-1436,502,-1407,3330,-19,-93,158,-26,-128
2,3046733,-1437,495,-1404,3326,-21,-94,158,-26,-128
2,3046748,-1431,482,-1408,3338,-23,-95,158,-26,-128
2,3046762,-1431,482,-1408,3338,-23,-95,158,-26,-128
2,3046773,-1432,479,-1407,3344,-28,-92,158,-26,-128
2,3046786,-1432,479,-1407,3344,-28,-92,158,-26,-128
2,3046800,-1432,483,-1406,3340,-16,-94,158,-26,-128
2,3046813,-1433,489,-1409,3341,-17,-98,158,-26,-128
2,3046828,-1433,489,-1409,3341,-17,-98,158,-26,-128
2,3046840,-1434,490,-1414,3341,-22,-94,158,-26,-128
2,3046852,-1432,491,-1409,3341,-22,-99,158,-28,-136
2,3046867,-1432,491,-1409,3341,-22,-99,158,-28,-136
2,3046883,-1436,495,-1414,3340,-22,-95,158,-28,-136
2,3046897,-1436,506,-1412,3339,-11,-92,158,-28,-136
2,3046912,-1438,511,-1414,3345,-8,-101,158,-28,-136
2,3046925,-1438,511,-1414,3345,-8,-101,158,-28,-136
2,3046939,-1433,503,-1410,3344,-23,-98,158,-28,-136
2,3046956,-1435,504,-1413,3345,-19,-97,158,-28,-136
2,3046969,-1436,512,-1409,3350,-18,-97,154,-22,-134
2,3046981,-1436,512,-1409,3350,-18,-97,154,-22,-134
2,3046996,-1432,512,-1411,3350,-17,-100,154,-22,-134
2,3047009,-1436,505,-1413,3349,-15,-95,154,-22,-134
2,3047023,-1436,505,-1413,3349,-15,-95,154,-22,-134
2,3047038,-1434,509,-1411,3349,-18,-97,154,-22,-134
2,3047052,-1437,510,-1412,3349,-20,-98,154,-22,-134
2,3047066,-1437,510,-1412,3349,-20,-98,154,-22,-134
2,3047079,-1439,516,-1410,3349,-22,-94,154,-22,-134
2,3047093,-1435,513,-1412,3354,-25,-96,155,-31,-137
2,3047101,-1435,513,-1412,3354,-25,-96,155,-31,-137
2,3047114,-1435,531,-1409,3347,-17,-98,155,-31,-137
2,3047130,-1437,514,-1412,3348,-20,-95,155,-31,-137
2,3047145,-1437,514,-1412,3348,-20,-95,155,-31,-137
2,3047159,-1439,523,-1408,3351,-21,-94,155,-31,-137
2,3047175,-1434,518,-1411,3349,-26,-92,155,-31,-137
2,3047190,-1438,525,-1413,3345,-19,-92,155,-31,-137
2,3047203,-1438,525,-1413,3345,-19,-92,155,-31,-137
2,3047218,-1434,517,-1414,3339,-19,-96,157,-31,-131
2,3047228,-1439,532,-1403,3337,-17,-93,157,-31,-131
2,3047239,-1439,532,-1403,3337,-17,-93,157,-31,-131
2,3047252,-1435,532,-1405,3343,-18,-95,157,-31,-131
2,3047266,-1435,532,-1405,3343,-18,-95,157,-31,-131
2,3047280,-1436,536,-1402,3339,-21,-95,157,-31,-131
2,3047292,-1438,543,-1410,3344,-19,-97,157,-31,-131
2,3047308,-1441,558,-1406,3338,-17,-91,157,-31,-131
2,3047321,-1441,558,-1406,3338,-17,-91,157,-31,-131
2,3047334,-1441,558,-1406,3338,-17,-91,164,-26,-118
2,3047348,-1441,558,-1406,3338,-17,-91,164,-26,-118
2,3047362,-1437,540,-1403,3332,-20,-103,164,-26,-118
2,3047375,-1436,530,-1400,3331,-15,-93,164,-26,-118
2,3047388,-1436,530,-1400,3331,-15,-93,164,-26,-118
2,3047403,-1435,531,-1407,3334,-24,-97,164,-26,-118
2,3047418,-1436,531,-1406,3330,-21,-103,164,-26,-118
2,3047434,-1436,532,-1405,3327,-22,-97,164,-26,-118
2,3047448,-1437,482,-1407,3328,-14,-99,164,-26,-118
2,3047460,-1437,482,-1407,3328,-14,-99,164,-26,-118
2,3047474,-1435,530,-1399,3330,-15,-91,175,-19,-119
2,3047487,-1435,530,-1399,3330,-15,-91,175,-19,-119
2,3047501,-1437,509,-1407,3324,-31,-98,175,-19,-119
2,3047513,-1439,525,-1408,3322,-14,-91,175,-19,-119
2,3047526,-1439,525,-1408,3322,-14,-91,175,-19,-119
2,3047538,-1434,497,-1406,3332,-11,-100,175,-19,-119
2,3047552,-1434,512,-1402,3327,-18,-97,175,-19,-119
2,3047566,-1434,512,-1402,3327,-18,-97,175,-19,-119
2,3047580,-1428,507,-1410,3327,-24,-89,175,-19,-119
2,3047592,-1436,506,-1405,3334,-25,-96,172,-28,-114
2,3047605,-1436,506,-1405,3334,-25,-96,172,-28,-114
2,3047620,-1430,495,-1408,3335,-23,-110,172,-28,-114
2,3047635,-1432,459,-1400,3330,-13,-101,172,-28,-114
2,3047650,-1431,477,-1407,3336,-22,-89,172,-28,-114
2,3047662,-1431,477,-1407,3336,-22,-89,172,-28,-114
2,3047676,-1433,464,-1405,3338,-13,-91,172,-28,-114
2,3047691,-1430,480,-1413,3330,-12,-98,172,-28,-114
2,3047704,-1430,480,-1413,3330,-12,-98,172,-28,-114
2,3047718,-1428,461,-1410,3327,-25,-99,168,-18,-110
2,3047732,-1437,481,-1412,3331,-16,-91,168,-18,-110
2,3047746,-1437,481,-1412,3331,-16,-91,168,-18,-110
2,3047758,-1434,481,-1412,3335,-9,-90,168,-18,-110
2,3047773,-1434,501,-1406,3344,-22,-92,168,-18,-110
2,3047787,-1434,501,-1406,3344,-22,-92,168,-18,-110
2,3047799,-1428,490,-1414,3354,-20,-104,168,-18,-110
2,3047814,-1433,498,-1410,3353,-24,-96,168,-18,-110
2,3047829,-1432,499,-1411,3342,-22,-103,170,-28,-116
2,3047844,-1432,499,-1411,3342,-22,-103,170,-28,-116
2,3047861,-1437,509,-1409,3342,-19,-101,170,-28,-116
2,3047875,-1433,499,-1408,3352,-13,-94,170,-28,-116
2,3047889,-1435,497,-1408,3346,-17,-96,170,-28,-116
2,3047904,-1435,497,-1408,3346,-17,-96,170,-28,-116
2,3047918,-1436,501,-1411,3347,-21,-91,170,-28,-116
2,3047930,-1438,550,-1409,3337,-24,-89,170,-28,-116
2,3047943,-1438,550,-1409,3337,-24,-89,170,-28,-116
2,3047957,-1435,510,-1409,3338,-18,-85,166,-24,-96
2,3047970,-1434,523,-1405,3344,-23,-100,166,-24,-96
2,3047984,-1434,523,-1405,3344,-23,-100,166,-24,-96
2,3047998,-1430,503,-1404,3341,-28,-98,166,-24,-96
2,3048012,-1439,543,-1406,3334,-23,-98,166,-24,-96
2,3048025,-1439,543,-1406,3334,-23,-98,166,-24,-96
2,3048038,-1438,517,-1409,3332,-21,-92,166,-24,-96
2,3048053,-1437,527,-1396,3331,-19,-101,166,-24,-96
2,3048068,-1437,527,-1396,3331,-19,-101,166,-24,-96
2,3048082,-1431,511,-1403,3339,-23,-101,166,-28,-100
2,3048098,-1441,531,-1404,3345,-29,-89,166,-28,-100
2,3048114,-1435,524,-1408,3349,-24,-94,166,-28,-100
2,3048128,-1435,524,-1408,3349,-24,-94,166,-28,-100
2,3048142,-1435,527,-1407,3347,-26,-96,166,-28,-100
2,3048156,-1431,517,-1407,3343,-25,-100,166,-28,-100
2,3048170,-1437,523,-1401,3336,-20,-93,166,-28,-100
2,3048182,-1437,523,-1401,3336,-20,-93,166,-28,-100
2,3048196,-1437,528,-1406,3337,-15,-92,166,-28,-100
2,3048210,-1439,530,-1400,3331,-18,-95,165,-33,-103
2,3048223,-1439,530,-1400,3331,-18,-95,165,-33,-103
2,3048237,-1433,525,-1402,3336,-25,-100,165,-33,-103
2,3048251,-1435,517,-1404,3330,-31,-100,165,-33,-103
2,3048263,-1435,517,-1404,3330,-31,-100,165,-33,-103
2,3048275,-1437,528,-1406,3335,-24,-101,165,-33,-103
2,3048291,-1432,532,-1403,3337,-22,-97,165,-33,-103
2,3048305,-1432,532,-1403,3337,-22,-97,165,-33,-103
2,3048318,-1433,520,-1402,3335,-18,-96,165,-33,-103
2,3048333,-1434,521,-1398,3336,-22,-99,157,-31,-81
2,3048348,-1434,521,-1398,3336,-22,-99,157,-31,-81
2,3048363,-1434,529,-1405,3330,-26,-96,157,-31,-81
2,3048377,-1434,502,-1406,3332,-24,-103,157,-31,-81
2,3048390,-1434,521,-1401,3332,-20,-99,157,-31,-81
2,3048404,-1434,521,-1401,3332,-20,-99,157,-31,-81
2,3048419,-1436,509,-1402,3326,-27,-87,157,-31,-81
2,3048433,-1437,524,-1404,3333,-29,-87,157,-31,-81
2,3048445,-1437,524,-1404,3333,-29,-87,157,-31,-81
2,3048459,-1440,510,-1400,3338,-25,-97,160,-40,-80
2,3048472,-1432,510,-1401,3336,-28,-98,160,-40,-80
2,3048486,-1432,510,-1401,3336,-28,-98,160,-40,-80
2,3048501,-1433,505,-1403,3330,-27,-87,160,-40,-80
2,3048516,-1433,512,-1406,3337,-21,-93,160,-40,-80
2,3048529,-1435,506,-1403,3333,-14,-96,160,-40,-80
2,3048543,-1435,506,-1403,3333,-14,-96,160,-40,-80
2,3048559,-1432,503,-1404,3333,-21,-96,160,-40,-80
2,3048574,-1436,497,-1402,3331,-21,-91,164,-30,-86
2,3048585,-1436,497,-1402,3331,-21,-91,164,-30,-86
2,3048598,-1432,482,-1405,3333,-25,-88,164,-30,-86
2,3048612,-1431,473,-1405,3336,-20,-102,164,-30,-86
2,3048626,-1431,473,-1405,3336,-20,-102,164,-30,-86
2,3048640,-1433,472,-1403,3329,-20,-103,164,-30,-86
2,3048653,-1430,456,-1407,3336,-18,-93,164,-30,-86
2,3048669,-1430,456,-1407,3336,-18,-93,164,-30,-86
2,3048683,-1429,439,-1407,3338,-13,-91,164,-30,-86
2,3048694,-1430,436,-1409,3340,-22,-97,163,-27,-83
2,3048710,-1425,409,-1415,3338,-21,-93,163,-27,-83
2,3048722,-1425,409,-1415,3338,-21,-93,163,-27,-83
2,3048736,-1428,393,-1417,3336,-19,-96,163,-27,-83
2,3048749,-1428,393,-1417,3336,-19,-96,163,-27,-83
2,3048762,-1425,373,-1420,3348,-24,-93,163,-27,-83
2,3048777,-1428,351,-1422,3355,-19,-88,163,-27,-83
2,3048792,-1426,321,-1423,3360,-16,-93,163,-27,-83
2,3048807,-1426,321,-1423,3360,-16,-93,163,-27,-83
2,3048817,-1427,309,-1427,3376,-23,-100,163,-27,-83
2,3048825,-1427,309,-1427,3376,-23,-100,163,-27,-83
2,3048834,-1419,303,-1429,3376,-21,-100,161,-29,-75
2,3048845,-1419,303,-1429,3376,-21,-100,161,-29,-75
2,3048859,-1424,287,-1433,3389,-16,-101,161,-29,-75
2,3048872,-1416,267,-1441,3398,-12,-94,161,-29,-75
2,3048885,-1416,267,-1441,3398,-12,-94,161,-29,-75
2,3048899,-1417,255,-1445,3404,-16,-97,161,-29,-75
2,3048913,-1415,243,-1456,3415,-15,-103,161,-29,-75
2,3048927,-1415,243,-1456,3415,-15,-103,161,-29,-75
2,3048940,-1419,216,-1461,3428,-6,-99,161,-29,-75
2,3048954,-1415,188,-1459,3442,-12,-96,154,-36,-64
2,3048967,-1415,188,-1459,3442,-12,-96,154,-36,-64
2,3048979,-1414,168,-1462,3454,-7,-90,154,-36,-64
2,3048992,-1412,150,-1481,3462,-7,-85,154,-36,-64
2,3049006,-1412,150,-1481,3462,-7,-85,154,-36,-64
2,3049021,-1414,122,-1484,3472,-3,-87,154,-36,-64
2,3049032,-1408,111,-1492,3494,-6,-102,154,-36,-64
2,3049046,-1408,111,-1492,3494,-6,-102,154,-36,-64
2,3049061,-1407,103,-1499,3514,-9,-98,154,-36,-64
2,3049076,-1407,81,-1507,3522,-8,-98,151,-35,-67
2,3049092,-1405,64,-1520,3543,-4,-97,151,-35,-67
2,3049105,-1405,64,-1520,3543,-4,-97,151,-35,-67
2,3049117,-1402,64,-1526,3562,-5,-101,151,-35,-67
2,3049132,-1405,47,-1540,3581,-5,-89,151,-35,-67
2,3049146,-1405,47,-1540,3581,-5,-89,151,-35,-67
2,3049159,-1407,24,-1554,3598,-3,-94,151,-35,-67
2,3049172,-1405,12,-1558,3622,-3,-100,151,-35,-67
2,3049187,-1405,12,-1558,3622,-3,-100,151,-35,-67
2,3049199,-1402,8,-1568,3647,0,-100,156,-36,-62
2,3049213,-1406,-14,-1579,3663,4,-95,156,-36,-62
2,3049227,-1406,-14,-1579,3663,4,-95,156,-36,-62
2,3049241,-1401,-30,-1596,3682,3,-92,156,-36,-62
2,3049255,-1399,-26,-1604,3704,13,-98,156,-36,-62
2,3049271,-1400,-34,-1616,3728,5,-90,156,-36,-62
2,3049286,-1400,-34,-1616,3728,5,-90,156,-36,-62
2,3049302,-1402,-48,-1629,3749,11,-93,156,-36,-62
2,3049315,-1401,-43,-1645,3778,18,-96,164,-44,-62
2,3049328,-1401,-43,-1645,3778,18,-96,164,-44,-62
2,3049342,-1399,-34,-1647,3791,16,-89,164,-44,-62
2,3049355,-1406,-38,-1658,3820,13,-93,164,-44,-62
2,3049366,-1406,-38,-1658,3820,13,-93,164,-44,-62
2,3049380,-1406,-36,-1675,3838,12,-92,164,-44,-62
2,3049394,-1401,-20,-1687,3867,11,-100,164,-44,-62
2,3049407,-1401,-20,-1687,3867,11,-100,164,-44,-62
2,3049421,-1406,-8,-1697,3891,10,-97,164,-44,-62
2,3049433,-1409,4,-1701,3909,19,-94,164,-44,-62
2,3049447,-1409,4,-1701,3909,19,-94,164,-44,-62
2,3049462,-1406,36,-1695,3935,16,-95,162,-34,-60
2,3049476,-1407,59,-1725,3948,8,-96,162,-34,-60
2,3049490,-1407,59,-1725,3948,8,-96,162,-34,-60
2,3049505,-1409,73,-1746,3970,14,-89,162,-34,-60
2,3049521,-1408,110,-1751,3993,21,-97,162,-34,-60
2,3049536,-1415,142,-1752,4008,24,-96,162,-34,-60
2,3049551,-1421,154,-1765,4020,26,-92,162,-34,-60
2,3049565,-1421,154,-1765,4020,26,-92,162,-34,-60
2,3049578,-1417,179,-1771,4036,27,-92,157,-35,-49
2,3049592,-1418,214,-1776,4047,22,-91,157,-35,-49
2,3049604,-1418,214,-1776,4047,22,-91,157,-35,-49
2,3049619,-1419,235,-1784,4063,25,-95,157,-35,-49
2,3049634,-1422,250,-1793,4070,26,-93,157,-35,-49
2,3049650,-1422,250,-1793,4070,26,-93,157,-35,-49
2,3049663,-1421,282,-1800,4078,26,-100,157,-35,-49
2,3049676,-1421,305,-1803,4093,19,-92,157,-35,-49
2,3049691,-1423,318,-1800,4101,20,-94,160,-28,-44
2,3049705,-1423,318,-1800,4101,20,-94,160,-28,-44
2,3049717,-1427,352,-1810,4110,29,-97,160,-28,-44
2,3049732,-1429,370,-1813,4119,27,-98,160,-28,-44
2,3049747,-1429,370,-1813,4119,27,-98,160,-28,-44
2,3049761,-1430,386,-1817,4116,27,-93,160,-28,-44
2,3049775,-1432,409,-1814,4124,26,-96,160,-28,-44
2,3049787,-1432,409,-1814,4124,26,-96,160,-28,-44
2,3049801,-1429,435,-1819,4127,28,-98,160,-28,-44
2,3049815,-1429,442,-1823,4130,30,-95,153,-27,-41
2,3049828,-1429,442,-1823,4130,30,-95,153,-27,-41
2,3049842,-1431,461,-1825,4136,23,-92,153,-27,-41
2,3049856,-1434,478,-1831,4143,33,-96,153,-27,-41
2,3049868,-1434,478,-1831,4143,33,-96,153,-27,-41
2,3049882,-1435,484,-1824,4141,33,-99,153,-27,-41
2,3049897,-1436,494,-1827,4140,31,-95,153,-27,-41
2,3049911,-1438,494,-1832,4140,28,-92,153,-27,-41
2,3049925,-1438,494,-1832,4140,28,-92,153,-27,-41
2,3049939,-1441,503,-1826,4148,32,-101,139,-27,-47
2,3049955,-1438,511,-1829,4151,30,-94,139,-27,-47
2,3049970,-1438,511,-1829,4151,30,-94,139,-27,-47
2,3049984,-1438,518,-1829,4146,37,-94,139,-27,-47
2,3049998,-1438,527,-1829,4142,31,-97,139,-27,-47
2,3050013,-1437,540,-1831,4142,25,-99,139,-27,-47
2,3050024,-1437,540,-1831,4142,25,-99,139,-27,-47
2,3050037,-1439,555,-1828,4147,22,-94,139,-27,-47
2,3050050,-1439,555,-1828,4147,22,-94,139,-27,-47
2,3050063,-1440,538,-1831,4146,33,-98,139,-27,-47
2,3050078,-1435,538,-1828,4146,30,-100,140,-22,-32
2,3050089,-1435,538,-1828,4146,30,-100,140,-22,-32
2,3050102,-1438,573,-1822,4148,29,-91,140,-22,-32
2,3050116,-1449,623,-1820,4145,27,-89,140,-22,-32
2,3050129,-1449,623,-1820,4145,27,-89,140,-22,-32
2,3050143,-1446,587,-1829,4146,28,-94,140,-22,-32
2,3050158,-1435,568,-1812,4152,27,-105,140,-22,-32
2,3050173,-1435,568,-1812,4152,27,-105,140,-22,-32
2,3050185,-1435,568,-1812,4152,27,-105,140,-22,-32
2,3050201,-1443,595,-1818,4132,30,-93,130,-20,-26
2,3050216,-1443,585,-1819,4121,31,-91,130,-20,-26
2,3050228,-1443,585,-1819,4121,31,-91,130,-20,-26
2,3050241,-1439,560,-1813,4123,27,-97,130,-20,-26
2,3050256,-1437,576,-1812,4116,26,-96,130,-20,-26
2,3050269,-1437,576,-1812,4116,26,-96,130,-20,-26
2,3050284,-1440,577,-1816,4114,35,-92,130,-20,-26
2,3050297,-1445,574,-1815,4116,34,-97,130,-20,-26
2,3050309,-1445,574,-1815,4116,34,-97,130,-20,-26
2,3050323,-1441,567,-1803,4116,33,-105,127,-19,-25
2,3050338,-1436,570,-1807,4121,28,-106,127,-19,-25
2,3050351,-1445,546,-1809,4120,20,-96,127,-19,-25
2,3050365,-1445,546,-1809,4120,20,-96,127,-19,-25
2,3050379,-1441,568,-1807,4114,28,-88,127,-19,-25
2,3050394,-1439,556,-1810,4105,26,-98,127,-19,-25
2,3050409,-1439,556,-1810,4105,26,-98,127,-19,-25
2,3050425,-1435,550,-1806,4104,21,-97,127,-19,-25
2,3050438,-1440,530,-1809,4104,24,-90,120,-36,-14
2,3050452,-1438,555,-1801,4098,32,-100,120,-36,-14
2,3050467,-1438,555,-1801,4098,32,-100,120,-36,-14
2,3050482,-1441,510,-1802,4105,32,-91,120,-36,-14
2,3050496,-1438,531,-1807,4110,31,-98,120,-36,-14
2,3050508,-1438,531,-1807,4110,31,-98,120,-36,-14
2,3050523,-1438,511,-1801,4103,24,-92,120,-36,-14
2,3050539,-1441,547,-1809,4107,25,-85,120,-36,-14
2,3050552,-1438,491,-1806,4114,32,-93,119,-17,-17
2,3050565,-1438,491,-1806,4114,32,-93,119,-17,-17
2,3050579,-1429,490,-1803,4111,29,-97,119,-17,-17
2,3050592,-1426,434,-1816,4111,24,-93,119,-17,-17
2,3050605,-1426,434,-1816,4111,24,-93,119,-17,-17
2,3050620,-1439,505,-1807,4104,22,-92,119,-17,-17
2,3050635,-1433,482,-1812,4112,24,-93,119,-17,-17
2,3050649,-1433,482,-1812,4112,24,-93,119,-17,-17
2,3050662,-1435,474,-1801,4113,24,-98,119,-17,-17
2,3050678,-1431,462,-1815,4110,17,-104,119,-17,-17
2,3050693,-1437,501,-1810,4113,30,-99,118,-22,-16
2,3050708,-1437,501,-1810,4113,30,-99,118,-22,-16
2,3050722,-1443,494,-1821,4120,38,-93,118,-22,-16
2,3050734,-1431,497,-1815,4131,31,-96,118,-22,-16
2,3050747,-1431,497,-1815,4131,31,-96,118,-22,-16
2,3050761,-1435,491,-1819,4127,24,-100,118,-22,-16
2,3050775,-1436,494,-1819,4124,25,-94,118,-22,-16
2,3050788,-1436,494,-1819,4124,25,-94,118,-22,-16
2,3050802,-1440,501,-1829,4126,31,-93,118,-22,-16
2,3050816,-1438,517,-1816,4125,36,-95,99,-23,-15
2,3050830,-1438,517,-1816,4125,36,-95,99,-23,-15
2,3050844,-1435,512,-1817,4127,28,-99,99,-23,-15
2,3050856,-1440,512,-1823,4128,25,-96,99,-23,-15
2,3050871,-1440,512,-1823,4128,25,-96,99,-23,-15
2,3050887,-1440,525,-1819,4121,28,-92,99,-23,-15
2,3050901,-1438,527,-1820,4127,30,-93,99,-23,-15
2,3050914,-1435,537,-1819,4126,24,-99,99,-23,-15
2,3050928,-1435,537,-1819,4126,24,-99,99,-23,-15
2,3050942,-1440,560,-1813,4131,24,-97,107,-21,-9
2,3050955,-1440,525,-1815,4128,25,-100,107,-21,-9
2,3050970,-1440,525,-1815,4128,25,-100,107,-21,-9
2,3050983,-1437,537,-1817,4133,36,-105,107,-21,-9
2,3050998,-1435,552,-1814,4127,25,-104,107,-21,-9
2,3051010,-1435,552,-1814,4127,25,-104,107,-21,-9
2,3051023,-1443,540,-1819,4127,13,-97,107,-21,-9
2,3051036,-1442,535,-1818,4127,28,-100,107,-21,-9
2,3051049,-1442,535,-1818,4127,28,-100,107,-21,-9
2,3051065,-1435,537,-1812,4128,27,-104,95,-17,-23
2,3051079,-1437,548,-1810,4118,20,-98,95,-17,-23
2,3051091,-1440,535,-1814,4128,24,-94,95,-17,-23
2,3051107,-1440,535,-1814,4128,24,-94,95,-17,-23
2,3051121,-1439,558,-1815,4120,29,-98,95,-17,-23
2,3051136,-1435,537,-1819,4124,32,-98,95,-17,-23
2,3051149,-1435,537,-1819,4124,32,-98,95,-17,-23
2,3051162,-1435,550,-1814,4129,29,-97,95,-17,-23
2,3051176,-1436,538,-1818,4122,29,-90,98,-22,-12
2,3051190,-1436,538,-1818,4122,29,-90,98,-22,-12
2,3051198,-1440,553,-1813,4114,28,-92,98,-22,-12
2,3051212,-1436,538,-1811,4118,24,-96,98,-22,-12
2,3051228,-1436,538,-1811,4118,24,-96,98,-22,-12
2,3051241,-1438,538,-1810,4119,22,-105,98,-22,-12
2,3051254,-1436,515,-1817,4117,19,-102,98,-22,-12
2,3051268,-1436,515,-1817,4117,19,-102,98,-22,-12
2,3051281,-1439,542,-1808,4111,28,-102,98,-22,-12
2,3051292,-1438,528,-1813,4113,24,-92,98,-22,-12
2,3051308,-1438,528,-1813,4113,24,-92,98,-22,-12
2,3051322,-1435,542,-1809,4111,25,-96,89,-21,-13
2,3051336,-1437,517,-1810,4111,16,-92,89,-21,-13
2,3051350,-1437,517,-1810,4111,16,-92,89,-21,-13
2,3051366,-1431,542,-1812,4111,19,-96,89,-21,-13
2,3051382,-1437,521,-1814,4113,23,-89,89,-21,-13
2,3051398,-1438,535,-1807,4121,31,-91,89,-21,-13
2,3051412,-1435,518,-1817,4116,24,-92,89,-21,-13
2,3051425,-1435,518,-1817,4116,24,-92,89,-21,-13
2,3051440,-1440,536,-1808,4114,23,-96,82,-26,-16
2,3051453,-1443,512,-1814,4115,21,-90,82,-26,-16
2,3051466,-1443,512,-1814,4115,21,-90,82,-26,-16
2,3051482,-1437,529,-1805,4119,29,-95,82,-26,-16
2,3051496,-1432,517,-1815,4122,25,-96,82,-26,-16
2,3051508,-1432,517,-1815,4122,25,-96,82,-26,-16
2,3051523,-1436,524,-1813,4117,36,-88,82,-26,-16
2,3051536,-1435,511,-1815,4119,27,-90,82,-26,-16
2,3051550,-1435,511,-1815,4119,27,-90,82,-26,-16
2,3051565,-1434,520,-1806,4120,23,-90,86,-18,-18
2,3051576,-1434,494,-1816,4124,23,-88,86,-18,-18
2,3051590,-1434,494,-1816,4124,23,-88,86,-18,-18
2,3051606,-1434,505,-1816,4121,22,-90,86,-18,-18
2,3051618,-1439,491,-1815,4116,27,-88,86,-18,-18
2,3051634,-1436,501,-1810,4121,26,-92,86,-18,-18
2,3051648,-1436,501,-1810,4121,26,-92,86,-18,-18
2,3051662,-1435,490,-1812,4115,27,-95,86,-18,-18
2,3051675,-1432,499,-1812,4122,25,-98,80,-24,-22
2,3051688,-1432,499,-1812,4122,25,-98,80,-24,-22
2,3051703,-1437,505,-1820,4123,21,-102,80,-24,-22
2,3051715,-1437,505,-1820,4123,21,-102,80,-24,-22
2,3051727,-1437,505,-1820,4123,21,-102,80,-24,-22
2,3051741,-1437,514,-1824,4128,28,-89,80,-24,-22
2,3051754,-1436,516,-1824,4121,28,-91,80,-24,-22
2,3051768,-1436,516,-1824,4121,28,-91,80,-24,-22
2,3051781,-1436,522,-1822,4126,32,-94,80,-24,-22
2,3051794,-1441,527,-1816,4134,30,-91,74,-26,-18
2,3051808,-1441,527,-1816,4134,30,-91,74,-26,-18
2,3051825,-1441,517,-1814,4139,31,-99,74,-26,-18
2,3051840,-1435,519,-1821,4130,26,-101,74,-26,-18
2,3051852,-1437,523,-1826,4138,28,-94,74,-26,-18
2,3051866,-1437,523,-1826,4138,28,-94,74,-26,-18
2,3051878,-1438,525,-1824,4133,31,-93,74,-26,-18
2,3051892,-1438,525,-1824,4133,31,-93,74,-26,-18
2,3051907,-1435,528,-1816,4131,37,-91,74,-26,-18
2,3051921,-1437,525,-1817,4134,26,-90,74,-24,-34
2,3051932,-1437,525,-1817,4134,26,-90,74,-24,-34
2,3051947,-1436,557,-1817,4136,27,-100,74,-24,-34
2,3051960,-1440,531,-1821,4133,34,-95,74,-24,-34
2,3051973,-1441,546,-1819,4129,33,-105,74,-24,-34
2,3051987,-1441,546,-1819,4129,33,-105,74,-24,-34
2,3051999,-1438,527,-1816,4137,34,-102,74,-24,-34
2,3052012,-1438,527,-1816,4137,34,-102,74,-24,-34
2,3052025,-1438,553,-1817,4131,35,-91,74,-24,-34
2,3052040,-1439,539,-1820,4130,33,-89,74,-24,-34
2,3052053,-1438,558,-1813,4127,28,-94,70,-10,-34
2,3052063,-1438,558,-1813,4127,28,-94,70,-10,-34
2,3052078,-1437,543,-1812,4118,30,-93,70,-10,-34
2,3052093,-1441,573,-1813,4126,27,-91,70,-10,-34
2,3052107,-1441,573,-1813,4126,27,-91,70,-10,-34
2,3052120,-1438,547,-1819,4109,26,-97,70,-10,-34
2,3052132,-1438,547,-1819,4109,26,-97,70,-10,-34
2,3052146,-1437,554,-1807,4117,23,-103,70,-10,-34
2,3052160,-1437,538,-1819,4121,22,-103,70,-10,-34
2,3052173,-1442,556,-1807,4120,26,-90,68,-10,-34
2,3052188,-1442,556,-1807,4120,26,-90,68,-10,-34
2,3052199,-1444,540,-1816,4118,24,-84,68,-10,-34
2,3052213,-1437,545,-1812,4121,34,-99,68,-10,-34
2,3052226,-1437,545,-1812,4121,34,-99,68,-10,-34
2,3052239,-1432,496,-1816,4118,25,-100,68,-10,-34
2,3052254,-1437,546,-1805,4115,24,-100,68,-10,-34
2,3052263,-1437,546,-1805,4115,24,-100,68,-10,-34
2,3052277,-1440,537,-1811,4119,27,-94,68,-10,-34
2,3052292,-1440,537,-1811,4119,27,-94,68,-10,-34
2,3052305,-1440,538,-1806,4109,26,-100,71,-7,-29
2,3052319,-1432,519,-1812,4114,19,-97,71,-7,-29
2,3052335,-1437,529,-1811,4120,17,-100,71,-7,-29
2,3052348,-1437,529,-1811,4120,17,-100,71,-7,-29
2,3052361,-1439,527,-1811,4118,24,-97,71,-7,-29
2,3052376,-1439,513,-1807,4122,29,-95,71,-7,-29
2,3052387,-1439,513,-1807,4122,29,-95,71,-7,-29
2,3052401,-1434,508,-1811,4125,27,-100,71,-7,-29
2,3052417,-1431,463,-1815,4128,25,-101,65,7,-39
2,3052431,-1431,463,-1815,4128,25,-101,65,7,-39
2,3052444,-1441,507,-1809,4111,33,-87,65,7,-39
2,3052457,-1436,508,-1815,4115,31,-95,65,7,-39
2,3052472,-1436,508,-1815,4115,31,-95,65,7,-39
2,3052487,-1437,504,-1816,4120,30,-94,65,7,-39
2,3052503,-1431,486,-1821,4115,22,-110,65,7,-39
2,3052515,-1437,524,-1815,4122,33,-101,65,7,-39
2,3052529,-1437,524,-1815,4122,33,-101,65,7,-39
2,3052545,-1440,520,-1819,4125,31,-91,60,0,-30
2,3052560,-1434,526,-1812,4126,28,-90,60,0,-30
2,3052573,-1434,526,-1812,4126,28,-90,60,0,-30
2,3052584,-1435,516,-1816,4123,25,-96,60,0,-30
2,3052598,-1434,523,-1814,4125,30,-94,60,0,-30
2,3052611,-1434,523,-1814,4125,30,-94,60,0,-30
2,3052625,-1441,517,-1817,4125,21,-85,60,0,-30
2,3052640,-1436,534,-1816,4129,29,-99,60,0,-30
2,3052653,-1436,534,-1816,4129,29,-99,60,0,-30
2,3052665,-1436,516,-1816,4130,28,-96,60,0,-30
2,3052679,-1435,516,-1819,4130,18,-93,62,8,-36
2,3052693,-1435,516,-1819,4130,18,-93,62,8,-36
2,3052707,-1439,513,-1812,4133,22,-87,62,8,-36
2,3052722,-1440,530,-1821,4126,31,-95,62,8,-36
2,3052737,-1436,516,-1816,4122,24,-96,62,8,-36
2,3052750,-1436,516,-1816,4122,24,-96,62,8,-36
2,3052765,-1439,512,-1819,4124,27,-95,62,8,-36
2,3052779,-1440,507,-1820,4124,26,-94,62,8,-36
2,3052794,-1438,528,-1817,4119,38,-94,62,4,-46
2,3052808,-1438,528,-1817,4119,38,-94,62,4,-46
2,3052819,-1437,523,-1818,4126,24,-99,62,4,-46
2,3052833,-1442,514,-1814,4130,26,-97,62,4,-46
2,3052847,-1442,514,-1814,4130,26,-97,62,4,-46
2,3052855,-1436,513,-1824,4131,21,-98,62,4,-46
2,3052863,-1436,513,-1824,4131,21,-98,62,4,-46
2,3052870,-1436,513,-1824,4131,21,-98,62,4,-46
2,3052882,-1437,529,-1819,4134,29,-96,62,4,-46
2,3052896,-1438,533,-1821,4124,33,-88,62,4,-46
2,3052909,-1438,533,-1821,4124,33,-88,62,4,-46
2,3052923,-1440,527,-1815,4127,24,-96,61,3,-53
2,3052935,-1436,525,-1818,4129,30,-105,61,3,-53
2,3052947,-1436,525,-1818,4129,30,-105,61,3,-53
2,3052955,-1438,530,-1819,4131,26,-98,61,3,-53
2,3052963,-1438,530,-1819,4131,26,-98,61,3,-53
2,3052978,-1439,535,-1826,4129,28,-86,61,3,-53
2,3052991,-1439,535,-1826,4129,28,-86,61,3,-53
2,3053007,-1438,531,-1816,4124,31,-92,61,3,-53
2,3053023,-1438,536,-1825,4125,26,-97,61,3,-53
2,3053037,-1436,534,-1817,4125,27,-95,58,0,-50
2,3053051,-1436,534,-1817,4125,27,-95,58,0,-50
2,3053065,-1441,536,-1821,4125,32,-89,58,0,-50
2,3053079,-1439,534,-1819,4122,28,-93,58,0,-50
2,3053092,-1439,534,-1819,4122,28,-93,58,0,-50
2,3053107,-1441,547,-1820,4124,32,-88,58,0,-50
2,3053121,-1441,547,-1820,4124,32,-88,58,0,-50
2,3053133,-1442,552,-1815,4116,28,-92,58,0,-50
2,3053148,-1442,552,-1815,4116,28,-92,58,0,-50
2,3053161,-1440,552,-1818,4121,25,-93,65,9,-45
2,3053175,-1438,551,-1814,4123,20,-89,65,9,-45
2,3053191,-1438,551,-1814,4123,20,-89,65,9,-45
2,3053205,-1439,543,-1813,4120,26,-89,65,9,-45
2,3053218,-1440,554,-1813,4114,20,-100,65,9,-45
2,3053233,-1440,554,-1813,4114,20,-100,65,9,-45
2,3053245,-1440,547,-1815,4116,31,-100,65,9,-45
2,3053257,-1441,545,-1812,4121,26,-99,65,9,-45
2,3053272,-1441,545,-1812,4121,26,-99,65,9,-45
2,3053286,-1435,507,-1814,4120,29,-93,65,9,-45
2,3053299,-1433,541,-1810,4113,30,-93,59,1,-59
2,3053315,-1438,525,-1811,4111,31,-89,59,1,-59
2,3053328,-1438,525,-1811,4111,31,-89,59,1,-59
2,3053341,-1441,546,-1810,4116,25,-99,59,1,-59
2,3053353,-1436,507,-1811,4117,28,-101,59,1,-59
2,3053367,-1436,507,-1811,4117,28,-101,59,1,-59
2,3053380,-1436,541,-1812,4107,34,-101,59,1,-59
2,3053394,-1438,520,-1813,4114,30,-87,59,1,-59
2,3053404,-1438,520,-1813,4114,30,-87,59,1,-59
2,3053418,-1444,543,-1808,4114,25,-96,53,-7,-63
2,3053433,-1444,543,-1808,4114,25,-96,53,-7,-63
2,3053450,-1435,503,-1817,4118,26,-105,53,-7,-63
2,3053465,-1435,519,-1814,4120,25,-106,53,-7,-63
2,3053478,-1434,461,-1820,4119,23,-94,53,-7,-63
2,3053491,-1434,461,-1820,4119,23,-94,53,-7,-63
2,3053505,-1437,504,-1813,4117,22,-99,53,-7,-63
2,3053519,-1435,486,-1820,4117,31,-105,53,-7,-63
2,3053534,-1435,486,-1820,4117,31,-105,53,-7,-63
2,3053547,-1438,512,-1813,4118,24,-104,58,0,-62
2,3053562,-1438,483,-1819,4123,26,-100,58,0,-62
2,3053572,-1438,483,-1819,4123,26,-100,58,0,-62
2,3053586,-1438,513,-1818,4123,30,-96,58,0,-62
2,3053598,-1438,522,-1819,4120,24,-96,58,0,-62
2,3053613,-1438,522,-1819,4120,24,-96,58,0,-62
2,3053628,-1439,533,-1817,4127,30,-96,58,0,-62
2,3053641,-1438,506,-1823,4131,31,-97,58,0,-62
2,3053656,-1435,528,-1820,4125,31,-94,49,1,-75
2,3053670,-1435,528,-1820,4125,31,-94,49,1,-75
2,3053684,-1439,524,-1820,4122,35,-95,49,1,-75
2,3053701,-1440,526,-1814,4126,35,-95,49,1,-75
2,3053715,-1439,521,-1820,4126,38,-105,49,1,-75
2,3053726,-1439,521,-1820,4126,38,-105,49,1,-75
2,3053740,-1438,525,-1814,4124,34,-101,49,1,-75
2,3053753,-1438,525,-1814,4124,34,-101,49,1,-75
2,3053767,-1439,521,-1819,4124,33,-88,49,1,-75
2,3053780,-1441,521,-1817,4134,26,-90,52,8,-80
2,3053794,-1441,521,-1817,4134,26,-90,52,8,-80
2,3053806,-1438,524,-1814,4132,28,-101,52,8,-80
2,3053820,-1437,515,-1822,4126,26,-97,52,8,-80
2,3053835,-1438,512,-1820,4134,33,-92,52,8,-80
2,3053848,-1438,512,-1820,4134,33,-92,52,8,-80
2,3053855,-1439,526,-1822,4130,27,-97,52,8,-80
2,3053871,-1439,526,-1822,4130,27,-97,52,8,-80
2,3053886,-1438,522,-1820,4128,29,-97,52,8,-80
2,3053901,-1439,516,-1821,4121,34,-99,52,8,-80
2,3053916,-1439,518,-1817,4120,34,-96,51,5,-87
2,3053928,-1439,518,-1817,4120,34,-96,51,5,-87
2,3053943,-1441,521,-1819,4130,36,-99,51,5,-87
2,3053958,-1442,527,-1819,4130,30,-88,51,5,-87
2,3053972,-1442,527,-1819,4130,30,-88,51,5,-87
2,3053985,-1437,519,-1819,4127,28,-96,51,5,-87
2,3053999,-1435,525,-1817,4126,26,-100,51,5,-87
2,3054012,-1435,525,-1817,4126,26,-100,51,5,-87
2,3054025,-1439,525,-1820,4130,30,-100,51,5,-87
2,3054039,-1441,534,-1819,4133,37,-97,56,4,-84
2,3054053,-1441,534,-1819,4133,37,-97,56,4,-84
2,3054066,-1440,525,-1821,4132,35,-95,56,4,-84
2,3054081,-1439,525,-1826,4131,32,-100,56,4,-84
2,3054093,-1439,525,-1826,4131,32,-100,56,4,-84
2,3054106,-1440,529,-1817,4132,31,-101,56,4,-84
2,3054120,-1440,531,-1819,4124,25,-93,56,4,-84
2,3054136,-1437,530,-1819,4126,30,-94,56,4,-84
2,3054148,-1437,530,-1819,4126,30,-94,56,4,-84
2,3054161,-1442,544,-1817,4124,21,-95,53,-9,-95
2,3054177,-1441,531,-1817,4125,30,-102,53,-9,-95
2,3054191,-1441,531,-1817,4125,30,-102,53,-9,-95
2,3054204,-1439,535,-1814,4130,27,-98,53,-9,-95
2,3054218,-1442,540,-1825,4127,21,-97,53,-9,-95
2,3054230,-1442,540,-1825,4127,21,-97,53,-9,-95
2,3054244,-1440,539,-1824,4125,28,-89,53,-9,-95
2,3054258,-1439,535,-1820,4123,26,-91,53,-9,-95
2,3054271,-1439,535,-1820,4123,26,-91,53,-9,-95
2,3054285,-1442,540,-1815,4117,18,-95,53,-5,-89
2,3054299,-1442,544,-1813,4120,17,-85,53,-5,-89
2,3054310,-1442,544,-1813,4120,17,-85,53,-5,-89
2,3054323,-1442,544,-1813,4120,17,-85,53,-5,-89
2,3054337,-1440,541,-1821,4117,33,-100,53,-5,-89
2,3054351,-1440,541,-1821,4117,33,-100,53,-5,-89
2,3054369,-1437,525,-1811,4123,27,-89,53,-5,-89
2,3054385,-1439,525,-1821,4124,30,-90,53,-5,-89
2,3054397,-1442,530,-1814,4119,31,-92,55,-5,-107
2,3054411,-1442,530,-1814,4119,31,-92,55,-5,-107
2,3054426,-1440,538,-1818,4119,28,-93,55,-5,-107
2,3054439,-1438,522,-1813,4117,31,-96,55,-5,-107
2,3054452,-1438,522,-1813,4117,31,-96,55,-5,-107
2,3054467,-1438,530,-1814,4119,30,-96,55,-5,-107
2,3054480,-1439,531,-1816,4122,34,-93,55,-5,-107
2,3054493,-1439,531,-1816,4122,34,-93,55,-5,-107
2,3054508,-1444,531,-1817,4117,32,-98,55,-5,-107
2,3054521,-1439,515,-1817,4116,26,-102,55,-5,-107
2,3054534,-1439,515,-1817,4116,26,-102,55,-5,-107
2,3054550,-1440,508,-1810,4115,24,-98,65,-5,-111
2,3054564,-1439,487,-1816,4114,28,-95,65,-5,-111
2,3054576,-1438,486,-1820,4113,29,-99,65,-5,-111
2,3054592,-1438,486,-1820,4113,29,-99,65,-5,-111
2,3054607,-1436,493,-1820,4115,28,-106,65,-5,-111
2,3054621,-1440,507,-1817,4117,21,-102,65,-5,-111
2,3054633,-1440,507,-1817,4117,21,-102,65,-5,-111
2,3054646,-1438,494,-1817,4116,27,-102,65,-5,-111
2,3054659,-1440,507,-1818,4119,28,-102,65,-11,-107
2,3054673,-1440,507,-1818,4119,28,-102,65,-11,-107
2,3054687,-1437,504,-1824,4122,30,-97,65,-11,-107
2,3054701,-1443,524,-1814,4121,18,-90,65,-11,-107
2,3054713,-1443,524,-1814,4121,18,-90,65,-11,-107
2,3054725,-1443,512,-1824,4126,27,-95,65,-11,-107
2,3054738,-1438,521,-1818,4124,29,-90,65,-11,-107
2,3054749,-1438,521,-1818,4124,29,-90,65,-11,-107
2,3054760,-1438,515,-1820,4125,24,-95,65,-11,-107
2,3054775,-1438,526,-1821,4124,29,-91,72,-14,-107
2,3054790,-1438,526,-1821,4124,29,-91,72,-14,-110
2,3054804,-1440,513,-1821,4126,27,-102,72,-14,-110
2,3054817,-1435,528,-1817,4122,30,-100,72,-14,-110
2,3054832,-1435,528,-1817,4122,30,-100,72,-14,-110
2,3054848,-1439,512,-1820,4130,26,-96,72,-14,-110
2,3054862,-1439,525,-1817,4130,22,-96,72,-14,-110
2,3054875,-1443,519,-1819,4124,22,-98,72,-14,-110
2,3054888,-1443,519,-1819,4124,22,-98,72,-14,-110
2,3054899,-1440,526,-1810,4122,18,-106,74,-10,-126
2,3054915,-1440,526,-1810,4122,18,-106,74,-10,-126
2,3054929,-1443,511,-1823,4131,29,-99,74,-10,-126
2,3054943,-1436,520,-1821,4123,33,-97,74,-10,-126
2,3054956,-1439,520,-1824,4122,28,-95,74,-10,-126
2,3054970,-1439,520,-1824,4122,28,-95,74,-10,-126
2,3054986,-1440,520,-1819,4124,26,-92,74,-10,-126
2,3054997,-1439,514,-1823,4126,23,-96,74,-10,-126
2,3055005,-1439,514,-1823,4126,23,-96,74,-10,-126
2,3055020,-1437,518,-1817,4127,26,-87,70,-12,-132
2,3055035,-1442,518,-1815,4127,29,-91,70,-12,-132
2,3055051,-1442,518,-1815,4127,29,-91,70,-12,-132
2,3055067,-1441,526,-1817,4121,22,-93,70,-12,-132
2,3055082,-1442,521,-1820,4126,18,-89,70,-12,-132
2,3055094,-1442,521,-1820,4126,18,-89,70,-12,-132
2,3055109,-1441,525,-1818,4121,25,-93,70,-12,-132
2,3055123,-1438,523,-1819,4129,25,-91,70,-12,-132
2,3055137,-1438,525,-1822,4128,21,-86,70,-12,-132
2,3055150,-1438,525,-1822,4128,21,-86,70,-12,-132
2,3055162,-1441,524,-1816,4132,27,-103,80,-18,-128
2,3055175,-1440,520,-1824,4128,24,-86,80,-18,-128
2,3055190,-1440,520,-1824,4128,24,-86,80,-18,-128
2,3055203,-1440,527,-1821,4128,33,-89,80,-18,-128
2,3055215,-1440,527,-1821,4128,33,-89,80,-18,-128
2,3055228,-1439,524,-1826,4127,26,-92,80,-18,-128
2,3055242,-1441,533,-1822,4125,26,-92,80,-18,-128
2,3055254,-1441,533,-1822,4125,26,-92,80,-18,-128
2,3055268,-1440,540,-1823,4122,27,-94,80,-18,-128
2,3055282,-1440,525,-1813,4122,25,-98,84,-20,-128
2,3055295,-1440,525,-1813,4122,25,-98,84,-20,-128
2,3055311,-1436,530,-1824,4122,28,-94,84,-20,-128
2,3055327,-1440,538,-1817,4112,19,-94,84,-20,-128
2,3055343,-1442,532,-1820,4119,33,-97,84,-20,-128
2,3055357,-1437,537,-1820,4120,41,-102,84,-20,-128
2,3055371,-1437,537,-1820,4120,41,-102,84,-20,-128
2,3055383,-1438,533,-1818,4118,32,-99,84,-20,-128
2,3055396,-1440,545,-1814,4119,29,-92,87,-13,-133
2,3055410,-1440,545,-1814,4119,29,-92,87,-13,-133
2,3055424,-1445,526,-1812,4116,29,-95,87,-13,-133
2,3055437,-1438,543,-1810,4115,29,-97,87,-13,-133
2,3055451,-1438,543,-1810,4115,29,-97,87,-13,-133
2,3055463,-1440,517,-1817,4112,34,-95,87,-13,-133
