imu,time,ax,ay,az,gx,gy,gz,mx,my,mz
2,5105767,575,623,-2646,-227,-281,-7959,189,269,-347
2,5105781,577,624,-2650,-229,-274,-7959,189,269,-347
2,5105796,569,625,-2648,-229,-273,-7964,189,269,-347
2,5105809,569,625,-2648,-229,-273,-7964,189,269,-347
2,5105819,575,633,-2642,-229,-266,-7961,189,269,-347
2,5105832,575,633,-2642,-229,-266,-7961,189,269,-347
2,5105847,573,648,-2646,-232,-267,-7963,177,259,-347
2,5105856,571,644,-2642,-228,-262,-7965,177,259,-347
2,5105870,571,644,-2642,-228,-262,-7965,177,259,-347
2,5105887,574,640,-2649,-228,-268,-7963,177,259,-347
2,5105900,571,639,-2650,-228,-276,-7961,177,259,-347
2,5105913,575,647,-2648,-234,-271,-7968,177,259,-347
2,5105928,575,647,-2648,-234,-271,-7968,177,259,-347
2,5105942,573,621,-2649,-231,-270,-7966,177,259,-347
2,5105952,573,621,-2649,-231,-270,-7966,177,259,-347
2,5105961,579,621,-2653,-224,-260,-7970,177,259,-347
2,5105976,573,617,-2646,-230,-272,-7975,175,257,-345
2,5105989,573,617,-2646,-230,-272,-7975,175,257,-345
2,5106001,577,627,-2642,-229,-275,-7970,175,257,-345
2,5106014,572,621,-2647,-228,-273,-7970,175,257,-345
2,5106027,572,621,-2647,-228,-273,-7970,175,257,-345
2,5106036,571,623,-2645,-230,-278,-7963,175,257,-345
2,5106045,571,623,-2645,-230,-278,-7963,175,257,-345
2,5106056,572,626,-2650,-231,-274,-7961,175,257,-345
2,5106071,572,626,-2650,-231,-274,-7961,175,257,-345
2,5106084,574,631,-2645,-230,-272,-7964,175,257,-345
2,5106098,571,642,-2644,-225,-270,-7969,161,247,-353
2,5106111,571,642,-2644,-225,-270,-7969,161,247,-353
2,5106124,575,635,-2644,-230,-267,-7951,161,247,-353
2,5106138,571,628,-2649,-234,-272,-7952,161,247,-353
2,5106151,571,628,-2649,-234,-272,-7952,161,247,-353
2,5106164,575,626,-2646,-223,-267,-7958,161,247,-353
2,5106179,572,632,-2651,-227,-275,-7965,161,247,-353
2,5106190,572,632,-2651,-227,-275,-7965,161,247,-353
2,5106202,573,624,-2647,-226,-279,-7970,161,247,-353
2,5106215,572,619,-2650,-222,-270,-7961,164,240,-356
2,5106228,572,619,-2650,-222,-270,-7961,164,240,-356
2,5106243,571,621,-2648,-227,-281,-7967,164,240,-356
2,5106256,570,627,-2646,-232,-279,-7958,164,240,-356
2,5106272,570,627,-2646,-232,-279,-7958,164,240,-356
2,5106285,573,616,-2651,-230,-268,-7956,164,240,-356
2,5106300,573,619,-2648,-226,-273,-7960,164,240,-356
2,5106311,573,619,-2648,-226,-273,-7960,164,240,-356
2,5106319,575,624,-2649,-228,-267,-7954,164,240,-356
2,5106328,575,624,-2649,-228,-267,-7954,164,240,-356
2,5106336,571,630,-2642,-231,-270,-7963,160,242,-358
2,5106343,571,630,-2642,-231,-270,-7963,160,242,-358
2,5106352,571,630,-2642,-231,-270,-7963,160,242,-358
2,5106361,572,629,-2645,-226,-271,-7956,160,242,-358
2,5106369,572,629,-2645,-226,-271,-7956,160,242,-358
2,5106376,569,629,-2650,-238,-264,-7967,160,242,-358
2,5106384,569,629,-2650,-238,-264,-7967,160,242,-358
2,5106391,569,629,-2650,-238,-264,-7967,160,242,-358
2,5106397,568,642,-2646,-234,-265,-7963,160,242,-358
2,5106404,568,642,-2646,-234,-265,-7963,160,242,-358
2,5106409,568,642,-2646,-234,-265,-7963,160,242,-358
2,5106415,568,656,-2648,-223,-275,-7961,160,242,-358
2,5106421,568,656,-2648,-223,-275,-7961,160,242,-358
2,5106427,568,656,-2648,-223,-275,-7961,160,242,-358
2,5106434,572,643,-2648,-228,-272,-7964,160,242,-358
2,5106440,572,643,-2648,-228,-272,-7964,160,242,-358
2,5106446,572,643,-2648,-228,-272,-7964,160,242,-358
2,5106452,572,643,-2648,-228,-272,-7964,160,242,-358
2,5106458,570,645,-2653,-229,-274,-7962,148,220,-362
2,5106464,570,645,-2653,-229,-274,-7962,148,220,-362
2,5106470,570,645,-2653,-229,-274,-7962,148,220,-362
2,5106477,576,652,-2647,-231,-271,-7966,148,220,-362
2,5106484,576,652,-2647,-231,-271,-7966,148,220,-362
2,5106492,576,652,-2647,-231,-271,-7966,148,220,-362
2,5106500,572,645,-2644,-224,-281,-7965,148,220,-362
2,5106510,572,645,-2644,-224,-281,-7965,148,220,-362
2,5106521,579,641,-2654,-226,-274,-7974,148,220,-362
2,5106532,579,641,-2654,-226,-274,-7974,148,220,-362
2,5106542,576,615,-2644,-227,-270,-7965,148,220,-362
2,5106554,573,622,-2652,-235,-267,-7965,148,220,-362
2,5106569,573,622,-2652,-235,-267,-7965,148,220,-362
2,5106586,573,622,-2652,-235,-267,-7965,148,220,-362
2,5106600,569,630,-2646,-230,-266,-7966,148,220,-362
2,5106616,580,615,-2650,-231,-273,-7958,148,220,-362
2,5106629,580,615,-2650,-231,-273,-7958,148,220,-362
2,5106640,569,622,-2646,-230,-275,-7961,148,220,-362
2,5106655,578,627,-2651,-232,-266,-7970,148,220,-362
2,5106668,578,627,-2651,-232,-266,-7970,148,220,-362
2,5106682,572,640,-2655,-229,-267,-7976,148,220,-362
2,5106691,572,640,-2655,-229,-267,-7976,148,220,-362
2,5106702,580,630,-2651,-229,-268,-7976,148,220,-362
2,5106716,576,627,-2648,-228,-278,-7968,127,213,-363
2,5106729,576,627,-2648,-228,-278,-7968,127,213,-363
2,5106739,573,630,-2647,-232,-273,-7969,127,213,-363
2,5106747,573,630,-2647,-232,-273,-7969,127,213,-363
2,5106755,573,633,-2651,-229,-276,-7975,127,213,-363
2,5106765,573,633,-2651,-229,-276,-7975,127,213,-363
2,5106779,574,632,-2650,-235,-271,-7971,127,213,-363
2,5106791,574,632,-2650,-235,-271,-7971,127,213,-363
2,5106804,573,623,-2650,-232,-271,-7967,127,213,-363
2,5106816,574,628,-2649,-230,-269,-7967,127,213,-363
2,5106827,574,628,-2649,-230,-269,-7967,127,213,-363
2,5106842,572,622,-2645,-230,-279,-7968,132,210,-364
2,5106855,576,636,-2650,-235,-274,-7960,132,210,-364
2,5106869,576,636,-2650,-235,-274,-7960,132,210,-364
2,5106883,574,622,-2655,-233,-269,-7965,132,210,-364
2,5106896,577,627,-2649,-232,-263,-7968,132,210,-364
2,5106911,577,627,-2649,-232,-263,-7968,132,210,-364
2,5106922,574,622,-2648,-237,-266,-7969,132,210,-364
2,5106936,574,628,-2644,-233,-271,-7965,132,210,-364
2,5106950,574,628,-2644,-233,-271,-7965,132,210,-364
2,5106963,570,628,-2646,-231,-271,-7958,112,208,-372
2,5106975,573,633,-2646,-222,-261,-7965,112,208,-372
2,5106989,573,633,-2646,-222,-261,-7965,112,208,-372
2,5107001,570,644,-2649,-224,-262,-7965,112,208,-372
2,5107014,572,658,-2646,-224,-276,-7965,112,208,-372
2,5107028,572,658,-2646,-224,-276,-7965,112,208,-372
2,5107044,576,644,-2648,-236,-271,-7963,112,208,-372
2,5107059,573,642,-2653,-234,-272,-7965,112,208,-372
2,5107067,573,642,-2653,-234,-272,-7965,112,208,-372
2,5107076,577,654,-2645,-232,-269,-7966,109,201,-373
2,5107090,577,654,-2645,-232,-269,-7966,109,201,-373
2,5107103,575,645,-2646,-223,-273,-7963,109,201,-373
2,5107118,578,640,-2649,-223,-271,-7970,109,201,-373
2,5107130,578,640,-2649,-223,-271,-7970,109,201,-373
2,5107142,576,612,-2643,-227,-274,-7971,109,201,-373
2,5107156,576,626,-2645,-223,-272,-7981,109,201,-373
2,5107170,576,626,-2645,-223,-272,-7981,109,201,-373
2,5107184,579,621,-2649,-228,-277,-7975,109,201,-373
2,5107197,573,632,-2640,-228,-268,-7973,109,191,-371
2,5107209,573,632,-2640,-228,-268,-7973,109,191,-371
2,5107223,583,619,-2651,-230,-274,-7965,109,191,-371
2,5107238,575,621,-2650,-233,-271,-7970,109,191,-371
2,5107253,575,621,-2650,-233,-271,-7970,109,191,-371
2,5107267,579,627,-2651,-229,-275,-7970,109,191,-371
2,5107281,571,642,-2651,-235,-274,-7963,109,191,-371
2,5107297,579,624,-2650,-228,-267,-7970,109,191,-371
2,5107312,579,624,-2650,-228,-267,-7970,109,191,-371
2,5107328,575,623,-2650,-229,-278,-7971,109,191,-371
2,5107341,578,626,-2646,-222,-279,-7963,94,192,-380
2,5107355,573,637,-2648,-226,-285,-7967,94,192,-380
2,5107368,573,637,-2648,-226,-285,-7967,94,192,-380
2,5107381,577,630,-2644,-228,-276,-7964,94,192,-380
2,5107393,577,630,-2644,-228,-276,-7964,94,192,-380
2,5107407,575,626,-2651,-226,-277,-7962,94,192,-380
2,5107422,580,631,-2650,-238,-274,-7965,94,192,-380
2,5107437,572,627,-2650,-231,-272,-7965,94,192,-380
2,5107450,572,627,-2650,-231,-272,-7965,94,192,-380
2,5107467,579,631,-2642,-231,-282,-7958,93,199,-373
2,5107481,572,619,-2643,-232,-270,-7963,93,199,-373
2,5107493,572,619,-2643,-232,-270,-7963,93,199,-373
2,5107508,577,619,-2648,-231,-267,-7967,93,199,-373
2,5107523,573,619,-2648,-232,-273,-7962,93,199,-373
2,5107537,573,624,-2651,-233,-274,-7968,93,199,-373
2,5107551,573,624,-2651,-233,-274,-7968,93,199,-373
2,5107564,572,619,-2652,-227,-271,-7967,93,199,-373
2,5107579,571,626,-2641,-226,-268,-7954,85,193,-371
2,5107595,572,630,-2650,-220,-273,-7960,85,193,-371
2,5107608,572,630,-2650,-220,-273,-7960,85,193,-371
2,5107622,574,641,-2646,-228,-279,-7962,85,193,-371
2,5107637,574,659,-2647,-230,-265,-7968,85,193,-371
2,5107650,574,659,-2647,-230,-265,-7968,85,193,-371
2,5107665,578,649,-2649,-227,-270,-7966,85,193,-371
2,5107678,574,645,-2645,-231,-274,-7967,85,193,-371
2,5107691,574,645,-2645,-231,-274,-7967,85,193,-371
2,5107705,572,635,-2646,-235,-269,-7963,89,191,-369
2,5107719,575,640,-2646,-231,-270,-7969,89,191,-369
2,5107734,575,640,-2646,-231,-270,-7969,89,191,-369
2,5107748,578,618,-2650,-231,-273,-7966,89,191,-369
2,5107760,575,622,-2649,-234,-275,-7969,89,191,-369
2,5107774,575,622,-2649,-234,-275,-7969,89,191,-369
2,5107789,579,621,-2651,-227,-272,-7961,89,191,-369
2,5107803,580,625,-2645,-225,-273,-7967,89,191,-369
2,5107817,579,622,-2645,-233,-270,-7964,79,205,-371
2,5107830,579,622,-2645,-233,-270,-7964,79,205,-371
2,5107843,574,628,-2644,-234,-277,-7963,79,205,-371
2,5107857,574,630,-2648,-231,-281,-7969,79,205,-371
2,5107870,574,630,-2648,-231,-281,-7969,79,205,-371
2,5107885,574,631,-2650,-227,-273,-7963,79,205,-371
2,5107900,569,632,-2649,-237,-266,-7965,79,205,-371
2,5107913,569,632,-2649,-237,-266,-7965,79,205,-371
2,5107927,574,627,-2656,-232,-269,-7960,79,205,-371
2,5107941,573,629,-2651,-229,-282,-7967,79,205,-371
2,5107954,573,629,-2651,-229,-282,-7967,79,205,-371
2,5107969,576,626,-2647,-233,-282,-7970,74,202,-370
2,5107981,572,631,-2647,-230,-274,-7971,74,202,-370
2,5107994,572,631,-2647,-230,-274,-7971,74,202,-370
2,5108009,573,628,-2649,-229,-278,-7971,74,202,-370
2,5108025,574,627,-2652,-234,-274,-7971,74,202,-370
2,5108039,569,623,-2651,-228,-279,-7970,74,202,-370
2,5108051,569,623,-2651,-228,-279,-7970,74,202,-370
2,5108067,573,632,-2649,-229,-268,-7965,74,202,-370
2,5108083,572,620,-2639,-235,-273,-7966,70,208,-366
2,5108098,573,619,-2644,-233,-271,-7963,70,208,-366
2,5108112,573,619,-2644,-233,-271,-7963,70,208,-366
2,5108125,571,620,-2650,-235,-274,-7971,70,208,-366
2,5108139,575,623,-2645,-231,-281,-7963,70,208,-366
2,5108150,575,623,-2645,-231,-281,-7963,70,208,-366
2,5108164,574,628,-2654,-235,-274,-7963,70,208,-366
2,5108178,570,630,-2651,-240,-269,-7964,70,208,-366
2,5108193,570,630,-2651,-240,-269,-7964,70,208,-366
2,5108206,571,642,-2650,-231,-274,-7965,71,211,-369
2,5108219,571,657,-2647,-230,-274,-7963,71,211,-369
2,5108232,571,657,-2647,-230,-274,-7963,71,211,-369
2,5108245,573,637,-2644,-229,-275,-7960,71,211,-369
2,5108259,571,639,-2651,-235,-270,-7960,71,211,-369
2,5108276,572,647,-2649,-225,-263,-7965,71,211,-369
2,5108291,572,647,-2649,-225,-263,-7965,71,211,-369
2,5108303,573,629,-2646,-228,-279,-7973,71,211,-369
2,5108318,572,634,-2653,-234,-280,-7971,71,213,-365
2,5108333,572,634,-2653,-234,-280,-7971,71,213,-365
2,5108346,578,618,-2646,-239,-281,-7972,71,213,-365
2,5108361,570,624,-2649,-235,-283,-7974,71,213,-365
2,5108375,570,624,-2649,-235,-283,-7974,71,213,-365
2,5108388,577,626,-2651,-225,-275,-7968,71,213,-365
2,5108401,572,626,-2643,-227,-276,-7967,71,213,-365
2,5108416,576,627,-2649,-237,-279,-7966,71,213,-365
2,5108430,576,627,-2649,-237,-279,-7966,71,213,-365
2,5108444,571,617,-2644,-232,-270,-7970,68,216,-360
2,5108457,577,631,-2647,-231,-274,-7969,68,216,-360
2,5108469,577,631,-2647,-231,-274,-7969,68,216,-360
2,5108482,572,632,-2647,-228,-274,-7960,68,216,-360
2,5108496,573,638,-2649,-230,-273,-7969,68,216,-360
2,5108511,573,638,-2649,-230,-273,-7969,68,216,-360
2,5108526,577,630,-2652,-223,-271,-7967,68,216,-360
2,5108539,574,630,-2653,-226,-277,-7963,68,216,-360
2,5108553,574,630,-2653,-226,-277,-7963,68,216,-360
2,5108568,578,632,-2646,-227,-275,-7967,68,216,-360
2,5108582,574,635,-2647,-234,-271,-7970,78,230,-374
2,5108595,574,635,-2647,-234,-271,-7970,78,230,-374
2,5108609,576,621,-2647,-222,-274,-7969,78,230,-374
2,5108623,575,633,-2649,-228,-279,-7965,78,230,-374
2,5108636,573,623,-2650,-227,-270,-7964,78,230,-374
2,5108648,573,623,-2650,-227,-270,-7964,78,230,-374
2,5108662,573,628,-2660,-234,-273,-7969,78,230,-374
2,5108675,572,616,-2653,-237,-271,-7962,78,230,-374
2,5108689,572,616,-2653,-237,-271,-7962,78,230,-374
2,5108702,575,618,-2636,-224,-270,-7967,68,236,-376
2,5108715,575,618,-2636,-224,-270,-7967,68,236,-376
2,5108729,574,616,-2647,-227,-274,-7955,68,236,-376
2,5108743,573,630,-2645,-228,-274,-7967,68,236,-376
2,5108756,574,631,-2649,-228,-274,-7966,68,236,-376
2,5108771,574,631,-2649,-228,-274,-7966,68,236,-376
2,5108788,573,633,-2647,-226,-270,-7964,68,236,-376
2,5108803,574,635,-2650,-228,-283,-7964,68,236,-376
2,5108816,569,659,-2645,-226,-270,-7961,68,234,-376
2,5108831,569,659,-2645,-226,-270,-7961,68,234,-376
2,5108844,575,646,-2638,-223,-273,-7961,68,234,-376
2,5108852,575,646,-2638,-223,-273,-7961,68,234,-376
2,5108867,568,639,-2646,-227,-273,-7968,68,234,-376
2,5108880,577,645,-2648,-228,-265,-7961,68,234,-376
2,5108893,577,645,-2648,-228,-265,-7961,68,234,-376
2,5108908,571,640,-2644,-225,-269,-7968,68,234,-376
2,5108918,578,639,-2646,-226,-273,-7966,68,234,-376
2,5108932,578,639,-2646,-226,-273,-7966,68,234,-376
2,5108945,571,625,-2642,-233,-274,-7975,80,248,-370
2,5108960,573,617,-2643,-226,-269,-7970,80,248,-370
2,5108974,573,617,-2643,-226,-269,-7970,80,248,-370
2,5108989,579,628,-2650,-233,-273,-7964,80,248,-370
2,5109004,577,628,-2643,-228,-272,-7966,80,248,-370
2,5109018,580,626,-2647,-235,-275,-7964,80,248,-370
2,5109032,580,626,-2647,-235,-275,-7964,80,248,-370
2,5109047,574,618,-2645,-237,-275,-7961,80,248,-370
2,5109062,574,630,-2648,-237,-270,-7969,67,265,-371
2,5109073,574,630,-2648,-237,-270,-7969,67,265,-371
2,5109086,573,632,-2649,-228,-267,-7970,67,265,-371
2,5109099,576,630,-2651,-226,-272,-7968,67,265,-371
2,5109113,576,630,-2651,-226,-272,-7968,67,265,-371
2,5109127,575,627,-2653,-235,-269,-7969,67,265,-371
2,5109140,575,630,-2650,-237,-266,-7968,67,265,-371
2,5109152,575,630,-2650,-237,-266,-7968,67,265,-371
2,5109167,576,631,-2649,-234,-277,-7965,67,265,-371
2,5109181,575,633,-2647,-238,-279,-7966,67,265,-371
2,5109196,576,621,-2648,-225,-266,-7967,84,264,-372
2,5109211,576,621,-2648,-225,-266,-7967,84,264,-372
2,5109224,576,623,-2651,-226,-270,-7968,84,264,-372
2,5109239,571,625,-2648,-226,-273,-7961,84,264,-372
2,5109255,571,625,-2648,-226,-273,-7961,84,264,-372
2,5109268,573,628,-2649,-234,-275,-7960,84,264,-372
2,5109282,573,622,-2651,-230,-272,-7962,84,264,-372
2,5109296,573,622,-2651,-230,-272,-7962,84,264,-372
2,5109308,573,620,-2645,-228,-273,-7957,84,264,-372
2,5109321,573,624,-2643,-226,-279,-7961,84,270,-370
2,5109336,573,624,-2643,-226,-279,-7961,84,270,-370
2,5109349,573,627,-2643,-231,-281,-7959,84,270,-370
2,5109363,573,628,-2648,-234,-274,-7965,84,270,-370
2,5109377,570,634,-2647,-232,-276,-7964,84,270,-370
2,5109390,570,634,-2647,-232,-276,-7964,84,270,-370
2,5109402,572,646,-2658,-227,-276,-7970,84,270,-370
2,5109416,569,652,-2649,-234,-274,-7967,84,270,-370
2,5109430,569,652,-2649,-234,-274,-7967,84,270,-370
2,5109444,570,644,-2643,-233,-274,-7965,104,280,-360
2,5109459,569,636,-2651,-234,-269,-7961,104,280,-360
2,5109475,569,636,-2651,-234,-269,-7961,104,280,-360
2,5109489,572,658,-2649,-230,-271,-7963,104,280,-360
2,5109502,567,639,-2648,-225,-271,-7968,104,280,-360
2,5109516,567,639,-2648,-225,-271,-7968,104,280,-360
2,5109530,577,644,-2649,-236,-270,-7962,104,280,-360
2,5109542,575,616,-2651,-242,-274,-7965,104,280,-360
2,5109556,575,629,-2648,-232,-275,-7971,104,280,-360
2,5109570,575,629,-2648,-232,-275,-7971,108,290,-364
2,5109583,576,622,-2650,-232,-264,-7975,108,290,-364
2,5109597,573,626,-2644,-235,-266,-7971,108,290,-364
2,5109611,573,626,-2644,-235,-266,-7971,108,290,-364
2,5109624,578,619,-2650,-229,-271,-7971,108,290,-364
2,5109637,573,624,-2646,-227,-272,-7968,108,290,-364
2,5109652,573,624,-2646,-227,-272,-7968,108,290,-364
2,5109666,572,627,-2645,-223,-268,-7956,108,290,-364
2,5109681,572,638,-2648,-227,-275,-7957,119,307,-361
2,5109692,572,638,-2648,-227,-275,-7957,119,307,-361
2,5109706,575,629,-2647,-230,-277,-7965,119,307,-361
2,5109721,576,627,-2649,-240,-278,-7969,119,307,-361
2,5109734,576,627,-2649,-240,-278,-7969,119,307,-361
2,5109747,572,624,-2651,-234,-278,-7968,119,307,-361
2,5109762,576,629,-2651,-230,-270,-7963,119,307,-361
2,5109776,576,629,-2651,-230,-270,-7963,119,307,-361
2,5109788,573,626,-2647,-239,-278,-7967,119,307,-361
2,5109801,571,621,-2650,-235,-274,-7968,119,307,-361
2,5109816,571,621,-2650,-235,-274,-7968,119,307,-361
2,5109829,573,628,-2643,-238,-276,-7965,136,298,-362
2,5109844,570,625,-2647,-232,-269,-7966,136,298,-362
2,5109859,570,625,-2647,-232,-269,-7966,136,298,-362
2,5109873,570,625,-2647,-232,-269,-7966,136,298,-362
2,5109886,575,621,-2652,-229,-273,-7964,136,298,-362
2,5109901,580,619,-2650,-221,-275,-7970,136,298,-362
2,5109916,580,619,-2650,-221,-275,-7970,136,298,-362
2,5109931,572,623,-2647,-230,-272,-7971,136,298,-362
2,5109943,574,626,-2649,-227,-265,-7954,136,306,-360
2,5109957,574,629,-2645,-230,-271,-7965,136,306,-360
2,5109970,574,629,-2645,-230,-271,-7965,136,306,-360
2,5109985,570,629,-2647,-227,-282,-7961,136,306,-360
2,5109998,572,634,-2650,-229,-274,-7962,136,306,-360
2,5110012,572,634,-2650,-229,-274,-7962,136,306,-360
2,5110025,567,659,-2649,-236,-271,-7965,136,306,-360
2,5110037,580,648,-2648,-235,-274,-7966,136,306,-360
2,5110051,580,648,-2648,-235,-274,-7966,136,306,-360
2,5110066,569,641,-2643,-239,-272,-7968,151,313,-355
2,5110081,576,655,-2652,-236,-280,-7970,151,313,-355
2,5110095,576,655,-2652,-236,-280,-7970,151,313,-355
2,5110111,573,638,-2644,-232,-280,-7967,151,313,-355
2,5110126,574,631,-2649,-230,-278,-7960,151,313,-355
2,5110140,574,624,-2653,-233,-274,-7968,151,313,-355
2,5110155,574,624,-2653,-233,-274,-7968,151,313,-355
2,5110168,574,618,-2649,-232,-280,-7973,151,313,-355
2,5110180,573,623,-2652,-232,-271,-7973,143,315,-365
2,5110194,573,623,-2652,-232,-271,-7973,143,315,-365
2,5110208,571,623,-2641,-228,-279,-7977,143,315,-365
2,5110221,574,628,-2653,-232,-274,-7962,143,315,-365
2,5110236,574,628,-2653,-232,-274,-7962,143,315,-365
2,5110252,574,619,-2649,-226,-271,-7972,143,315,-365
2,5110265,578,636,-2648,-223,-266,-7970,143,315,-365
2,5110281,575,635,-2651,-227,-264,-7963,143,315,-365
2,5110296,575,635,-2651,-227,-264,-7963,143,315,-365
2,5110307,573,646,-2644,-229,-271,-7967,153,313,-357
2,5110322,577,637,-2648,-224,-272,-7964,153,313,-357
2,5110336,577,637,-2648,-224,-272,-7964,153,313,-357
2,5110350,570,635,-2652,-226,-270,-7962,153,313,-357
2,5110363,573,629,-2650,-227,-263,-7968,153,313,-357
2,5110376,573,629,-2650,-227,-263,-7968,153,313,-357
2,5110389,575,643,-2651,-232,-270,-7974,153,313,-357
2,5110403,573,623,-2644,-229,-268,-7960,153,313,-357
2,5110417,573,623,-2644,-229,-268,-7960,153,313,-357
2,5110430,577,631,-2648,-231,-268,-7963,153,313,-357
2,5110441,575,621,-2650,-233,-276,-7963,154,306,-366
2,5110456,575,621,-2650,-233,-276,-7963,154,306,-366
2,5110466,580,630,-2645,-229,-276,-7969,154,306,-366
2,5110478,578,623,-2649,-231,-270,-7968,154,306,-366
2,5110491,578,623,-2649,-231,-270,-7968,154,306,-366
2,5110505,575,623,-2646,-234,-275,-7965,154,306,-366
2,5110518,574,621,-2653,-232,-275,-7960,154,306,-366
2,5110533,574,621,-2653,-232,-275,-7960,154,306,-366
2,5110544,571,620,-2646,-226,-268,-7966,154,306,-366
2,5110554,571,620,-2646,-226,-268,-7966,154,306,-366
2,5110567,571,629,-2641,-235,-271,-7965,166,304,-356
2,5110582,570,630,-2644,-236,-268,-7967,166,304,-356
2,5110597,570,630,-2644,-236,-268,-7967,166,304,-356
2,5110611,572,633,-2650,-230,-268,-7960,166,304,-356
2,5110626,574,642,-2647,-228,-274,-7961,166,304,-356
2,5110633,574,642,-2647,-228,-274,-7961,166,304,-356
2,5110646,573,651,-2651,-227,-274,-7963,166,304,-356
2,5110660,576,643,-2652,-226,-273,-7955,166,304,-356
2,5110674,576,643,-2652,-226,-273,-7955,166,304,-356
2,5110687,578,641,-2651,-225,-273,-7956,167,307,-343
2,5110702,570,633,-2644,-224,-267,-7963,167,307,-343
2,5110716,570,633,-2644,-224,-267,-7963,167,307,-343
2,5110727,573,630,-2650,-233,-274,-7969,167,307,-343
2,5110742,574,616,-2642,-233,-273,-7965,167,307,-343
2,5110755,574,616,-2642,-233,-273,-7965,167,307,-343
2,5110769,572,620,-2644,-230,-272,-7968,167,307,-343
2,5110785,578,618,-2651,-233,-272,-7968,167,307,-343
2,5110800,576,626,-2648,-224,-272,-7962,171,301,-345
2,5110813,576,626,-2648,-224,-272,-7962,171,301,-345
2,5110829,575,626,-2651,-225,-272,-7967,171,301,-345
2,5110842,579,625,-2648,-224,-277,-7966,171,301,-345
2,5110855,579,625,-2648,-224,-277,-7966,171,301,-345
2,5110868,580,626,-2650,-226,-277,-7960,171,301,-345
2,5110879,578,628,-2655,-217,-264,-7956,171,301,-345
2,5110892,578,628,-2655,-217,-264,-7956,171,301,-345
2,5110906,573,633,-2654,-228,-266,-7965,171,301,-345
2,5110920,572,632,-2647,-232,-269,-7968,185,305,-349
2,5110934,572,632,-2647,-232,-269,-7968,185,305,-349
2,5110945,569,629,-2650,-234,-269,-7961,185,305,-349
2,5110959,572,629,-2644,-225,-265,-7968,185,305,-349
2,5110972,572,629,-2644,-225,-265,-7968,185,305,-349
2,5110986,573,635,-2652,-226,-273,-7968,185,305,-349
2,5111001,576,630,-2652,-228,-272,-7966,185,305,-349
2,5111016,576,630,-2652,-228,-272,-7966,185,305,-349
2,5111028,575,627,-2657,-224,-265,-7964,185,305,-349
2,5111043,578,625,-2656,-234,-277,-7960,180,298,-340
2,5111057,578,625,-2656,-234,-277,-7960,180,298,-340
2,5111072,575,623,-2650,-233,-277,-7968,180,298,-340
2,5111084,574,624,-2645,-231,-267,-7968,180,298,-340
2,5111098,570,626,-2651,-231,-271,-7966,180,298,-340
2,5111111,570,626,-2651,-231,-271,-7966,180,298,-340
2,5111124,572,629,-2650,-233,-270,-7963,180,298,-340
2,5111139,573,627,-2651,-234,-270,-7957,180,298,-340
2,5111150,573,627,-2651,-234,-270,-7957,180,298,-340
2,5111166,571,629,-2648,-228,-277,-7962,180,298,-340
2,5111180,572,640,-2647,-233,-278,-7961,180,292,-336
2,5111194,572,640,-2647,-233,-278,-7961,180,292,-336
2,5111207,573,654,-2649,-227,-272,-7961,180,292,-336
2,5111222,576,642,-2655,-235,-270,-7968,180,292,-336
2,5111233,576,642,-2655,-235,-270,-7968,180,292,-336
2,5111245,572,653,-2653,-233,-270,-7963,180,292,-336
2,5111260,574,648,-2651,-227,-274,-7965,180,292,-336
2,5111274,574,648,-2651,-227,-274,-7965,180,292,-336
2,5111288,570,656,-2646,-224,-278,-7969,180,292,-336
2,5111301,576,638,-2645,-225,-274,-7965,191,291,-335
2,5111316,576,638,-2645,-225,-274,-7965,191,291,-335
2,5111329,573,628,-2645,-232,-265,-7976,191,291,-335
2,5111343,580,628,-2656,-231,-273,-7980,191,291,-335
2,5111356,580,628,-2656,-231,-273,-7980,191,291,-335
2,5111366,572,619,-2646,-220,-264,-7971,191,291,-335
2,5111380,579,634,-2654,-232,-273,-7971,191,291,-335
2,5111394,579,634,-2654,-232,-273,-7971,191,291,-335
2,5111407,579,621,-2646,-228,-274,-7965,191,291,-335
2,5111421,579,632,-2647,-227,-273,-7958,180,288,-342
2,5111431,579,632,-2647,-227,-273,-7958,180,288,-342
2,5111438,575,621,-2652,-230,-271,-7960,180,288,-342
2,5111446,575,621,-2652,-230,-271,-7960,180,288,-342
2,5111453,575,621,-2652,-230,-271,-7960,180,288,-342
2,5111463,575,637,-2647,-229,-268,-7968,180,288,-342
2,5111473,575,637,-2647,-229,-268,-7968,180,288,-342
2,5111482,575,627,-2648,-234,-276,-7962,180,288,-342
2,5111490,575,627,-2648,-234,-276,-7962,180,288,-342
2,5111499,574,635,-2644,-235,-271,-7960,180,288,-342
2,5111511,574,635,-2644,-235,-271,-7960,180,288,-342
2,5111527,577,632,-2647,-231,-270,-7974,180,288,-342
2,5111540,577,647,-2650,-228,-274,-7970,188,276,-342
2,5111553,577,647,-2650,-228,-274,-7970,188,276,-342
2,5111567,579,624,-2650,-234,-274,-7966,188,276,-342
2,5111582,580,628,-2649,-230,-275,-7964,188,276,-342
2,5111597,580,628,-2649,-230,-275,-7964,188,276,-342
2,5111610,576,623,-2655,-236,-277,-7972,188,276,-342
2,5111623,578,635,-2651,-224,-273,-7963,188,276,-342
2,5111638,578,635,-2651,-224,-273,-7963,188,276,-342
2,5111653,574,624,-2652,-230,-261,-7967,188,276,-342
2,5111665,571,620,-2649,-232,-273,-7967,187,269,-345
2,5111678,572,621,-2647,-239,-272,-7966,187,269,-345
2,5111692,572,621,-2647,-239,-272,-7966,187,269,-345
2,5111706,575,620,-2645,-229,-274,-7969,187,269,-345
2,5111721,576,622,-2648,-231,-264,-7970,187,269,-345
2,5111737,576,622,-2648,-231,-264,-7970,187,269,-345
2,5111752,574,625,-2651,-229,-268,-7964,187,269,-345
2,5111767,576,629,-2652,-229,-276,-7960,187,269,-345
2,5111780,575,632,-2650,-232,-275,-7959,187,269,-345
2,5111794,575,632,-2650,-232,-275,-7959,187,269,-345
2,5111808,577,640,-2651,-233,-273,-7963,184,262,-342
2,5111819,576,657,-2655,-236,-274,-7963,184,262,-342
2,5111833,576,657,-2655,-236,-274,-7963,184,262,-342
2,5111846,569,647,-2649,-231,-269,-7951,184,262,-342
2,5111860,571,645,-2649,-236,-269,-7960,184,262,-342
2,5111874,571,645,-2649,-236,-269,-7960,184,262,-342
2,5111887,568,642,-2647,-231,-272,-7966,184,262,-342
2,5111899,568,642,-2647,-231,-272,-7966,184,262,-342
2,5111910,575,638,-2652,-229,-274,-7968,184,262,-342
2,5111923,576,627,-2647,-226,-274,-7965,179,257,-347
2,5111938,576,627,-2647,-226,-274,-7965,179,257,-347
2,5111952,579,631,-2650,-232,-269,-7963,179,257,-347
2,5111965,576,623,-2649,-231,-269,-7955,179,257,-347
2,5111979,580,631,-2645,-226,-272,-7968,179,257,-347
2,5111994,580,631,-2645,-226,-272,-7968,179,257,-347
2,5112008,573,614,-2644,-231,-272,-7967,179,257,-347
2,5112019,575,629,-2641,-229,-275,-7960,179,257,-347
2,5112034,575,629,-2641,-229,-275,-7960,179,257,-347
2,5112047,572,623,-2645,-232,-276,-7957,166,248,-348
2,5112060,572,634,-2642,-226,-272,-7959,166,248,-348
2,5112075,572,634,-2642,-226,-272,-7959,166,248,-348
2,5112089,571,631,-2651,-237,-268,-7958,166,248,-348
2,5112103,574,634,-2645,-235,-264,-7958,166,248,-348
2,5112117,574,634,-2645,-235,-264,-7958,166,248,-348
2,5112132,570,626,-2652,-225,-275,-7961,166,248,-348
2,5112147,575,631,-2649,-232,-268,-7967,166,248,-348
2,5112160,574,629,-2648,-231,-270,-7962,165,245,-345
2,5112170,574,629,-2648,-231,-270,-7962,165,245,-345
2,5112183,579,633,-2653,-235,-273,-7957,165,245,-345
2,5112198,579,633,-2653,-235,-273,-7957,165,245,-345
2,5112208,574,625,-2654,-228,-276,-7960,165,245,-345
2,5112221,573,628,-2650,-235,-275,-7969,165,245,-345
2,5112237,573,628,-2650,-235,-275,-7969,165,245,-345
2,5112250,572,631,-2650,-234,-276,-7967,165,245,-345
2,5112263,570,624,-2650,-227,-265,-7965,165,245,-345
2,5112276,570,624,-2650,-227,-265,-7965,165,245,-345
2,5112289,576,625,-2645,-234,-280,-7966,158,232,-352
2,5112301,571,623,-2645,-226,-270,-7964,158,232,-352
2,5112314,571,623,-2645,-226,-270,-7964,158,232,-352
2,5112328,573,629,-2647,-227,-273,-7959,158,232,-352
2,5112341,575,627,-2652,-231,-284,-7963,158,232,-352
2,5112355,575,627,-2652,-231,-284,-7963,158,232,-352
2,5112367,575,631,-2648,-236,-280,-7972,158,232,-352
2,5112381,572,636,-2652,-235,-282,-7963,158,232,-352
2,5112394,572,636,-2652,-235,-282,-7963,158,232,-352
2,5112409,573,659,-2653,-230,-281,-7964,158,232,-352
2,5112424,573,659,-2653,-230,-281,-7964,153,231,-359
2,5112438,573,659,-2653,-230,-281,-7964,153,231,-359
2,5112452,571,652,-2651,-234,-272,-7962,153,231,-359
2,5112466,574,639,-2648,-228,-279,-7974,153,231,-359
2,5112480,574,655,-2647,-230,-273,-7964,153,231,-359
2,5112496,574,655,-2647,-230,-273,-7964,153,231,-359
2,5112508,578,640,-2650,-232,-268,-7961,153,231,-359
2,5112521,574,635,-2651,-233,-275,-7965,153,231,-359
2,5112535,574,635,-2651,-233,-275,-7965,153,231,-359
2,5112549,578,620,-2653,-225,-276,-7968,146,220,-358
2,5112562,575,625,-2646,-221,-276,-7968,146,220,-358
2,5112577,575,625,-2646,-221,-276,-7968,146,220,-358
2,5112592,578,633,-2648,-221,-267,-7968,146,220,-358
2,5112603,576,624,-2650,-234,-273,-7965,146,220,-358
2,5112616,576,624,-2650,-234,-273,-7965,146,220,-358
2,5112630,578,625,-2647,-236,-275,-7959,146,220,-358
2,5112644,572,624,-2649,-233,-273,-7971,146,220,-358
2,5112656,572,624,-2649,-233,-273,-7971,146,220,-358
2,5112670,573,638,-2647,-232,-275,-7965,131,223,-363
2,5112685,573,640,-2646,-233,-276,-7968,131,223,-363
2,5112700,576,632,-2649,-232,-276,-7970,131,223,-363
2,5112716,576,632,-2649,-232,-276,-7970,131,223,-363
2,5112729,576,626,-2654,-231,-271,-7969,131,223,-363
2,5112741,577,642,-2653,-222,-271,-7962,131,223,-363
2,5112757,577,642,-2653,-222,-271,-7962,131,223,-363
2,5112770,576,631,-2648,-229,-267,-7963,131,223,-363
2,5112783,571,634,-2646,-228,-272,-7968,130,202,-370
2,5112797,571,634,-2646,-228,-272,-7968,130,202,-370
2,5112811,573,626,-2653,-227,-277,-7962,130,202,-370
2,5112824,573,634,-2645,-233,-277,-7958,130,202,-370
2,5112837,573,634,-2645,-233,-277,-7958,130,202,-370
2,5112850,571,629,-2654,-226,-275,-7963,130,202,-370
2,5112863,576,623,-2647,-224,-270,-7966,130,202,-370
2,5112879,576,623,-2647,-224,-270,-7966,130,202,-370
2,5112894,577,623,-2649,-229,-272,-7970,130,202,-370
2,5112908,572,622,-2645,-232,-277,-7971,113,203,-373
2,5112923,580,630,-2648,-226,-277,-7972,113,203,-373
2,5112937,580,630,-2648,-226,-277,-7972,113,203,-373
2,5112952,574,630,-2649,-226,-274,-7965,113,203,-373
2,5112967,575,631,-2649,-233,-277,-7956,113,203,-373
2,5112981,571,633,-2651,-231,-278,-7955,113,203,-373
2,5112993,571,633,-2651,-231,-278,-7955,113,203,-373
2,5113007,574,650,-2654,-236,-278,-7961,113,203,-373
2,5113021,570,649,-2650,-229,-280,-7970,113,203,-373
2,5113034,570,649,-2650,-229,-280,-7970,113,203,-373
2,5113049,578,648,-2645,-234,-281,-7968,107,193,-373
2,5113062,571,640,-2650,-230,-269,-7967,107,193,-373
2,5113073,571,640,-2650,-230,-269,-7967,107,193,-373
2,5113088,577,656,-2651,-227,-270,-7966,107,193,-373
2,5113101,578,645,-2654,-225,-279,-7962,107,193,-373
2,5113114,578,645,-2654,-225,-279,-7962,107,193,-373
2,5113129,575,633,-2648,-228,-281,-7974,107,193,-373
2,5113145,578,624,-2658,-227,-273,-7978,107,193,-373
2,5113159,578,622,-2641,-224,-274,-7977,107,193,-373
2,5113172,578,622,-2641,-224,-274,-7977,102,202,-382
2,5113186,579,626,-2650,-228,-268,-7974,102,202,-382
2,5113201,573,621,-2648,-234,-277,-7962,102,202,-382
2,5113216,573,621,-2648,-234,-277,-7962,102,202,-382
2,5113227,576,624,-2650,-232,-273,-7968,102,202,-382
2,5113240,577,628,-2657,-227,-269,-7965,102,202,-382
2,5113253,577,628,-2657,-227,-269,-7965,102,202,-382
2,5113267,575,634,-2654,-231,-271,-7970,102,202,-382
2,5113281,576,641,-2646,-229,-267,-7967,97,193,-371
2,5113294,576,641,-2646,-229,-267,-7967,97,193,-371
2,5113307,573,638,-2653,-228,-275,-7972,97,193,-371
2,5113321,578,633,-2656,-227,-277,-7969,97,193,-371
2,5113331,578,633,-2656,-227,-277,-7969,97,193,-371
2,5113345,579,642,-2650,-222,-270,-7960,97,193,-371
2,5113357,579,642,-2650,-222,-270,-7960,97,193,-371
2,5113372,573,632,-2650,-228,-274,-7960,97,193,-371
2,5113388,576,629,-2654,-230,-272,-7966,97,193,-371
2,5113403,572,624,-2651,-233,-276,-7967,90,194,-374
2,5113418,572,624,-2651,-233,-276,-7967,90,194,-374
2,5113431,577,626,-2647,-236,-275,-7969,90,194,-374
2,5113444,577,626,-2647,-236,-275,-7969,90,194,-374
2,5113458,577,626,-2647,-236,-275,-7969,90,194,-374
2,5113472,576,618,-2644,-232,-270,-7971,90,194,-374
2,5113485,580,619,-2651,-225,-278,-7970,90,194,-374
2,5113499,580,619,-2651,-225,-278,-7970,90,194,-374
2,5113513,574,618,-2645,-227,-266,-7971,90,194,-374
2,5113527,579,628,-2648,-232,-270,-7967,93,193,-375
2,5113540,576,625,-2649,-233,-276,-7968,93,193,-375
2,5113553,576,625,-2649,-233,-276,-7968,93,193,-375
2,5113568,575,633,-2646,-231,-274,-7965,93,193,-375
2,5113582,574,628,-2647,-234,-276,-7966,93,193,-375
2,5113596,574,628,-2647,-234,-276,-7966,93,193,-375
2,5113613,573,642,-2648,-235,-271,-7961,93,193,-375
2,5113627,573,642,-2648,-235,-271,-7961,93,193,-375
2,5113641,577,649,-2647,-226,-271,-7966,93,193,-375
2,5113655,577,649,-2647,-226,-271,-7966,93,193,-375
2,5113668,572,640,-2650,-229,-269,-7966,81,197,-361
2,5113680,576,650,-2652,-226,-269,-7962,81,197,-361
2,5113694,576,650,-2652,-226,-269,-7962,81,197,-361
2,5113707,576,641,-2646,-227,-274,-7960,81,197,-361
2,5113721,575,620,-2651,-225,-280,-7970,81,197,-361
2,5113735,575,620,-2651,-225,-280,-7970,81,197,-361
2,5113748,574,624,-2657,-236,-271,-7971,81,197,-361
2,5113760,576,618,-2646,-225,-265,-7971,81,197,-361
2,5113775,576,618,-2646,-225,-265,-7971,81,197,-361
2,5113789,572,629,-2649,-232,-276,-7969,87,197,-365
2,5113802,575,624,-2645,-234,-269,-7967,87,197,-365
2,5113816,575,624,-2645,-234,-269,-7967,87,197,-365
2,5113831,570,623,-2648,-238,-267,-7961,87,197,-365
2,5113846,575,623,-2654,-228,-263,-7959,87,197,-365
2,5113861,573,630,-2652,-227,-264,-7970,87,197,-365
2,5113875,573,630,-2652,-227,-264,-7970,87,197,-365
2,5113888,576,636,-2654,-230,-269,-7964,87,197,-365
2,5113897,576,636,-2654,-230,-269,-7964,87,197,-365
2,5113910,573,631,-2652,-229,-274,-7962,77,205,-371
2,5113923,576,631,-2646,-233,-268,-7958,77,205,-371
2,5113936,576,631,-2646,-233,-268,-7958,77,205,-371
2,5113950,571,643,-2652,-232,-262,-7971,77,205,-371
2,5113965,567,634,-2647,-231,-270,-7968,77,205,-371
2,5113980,571,631,-2649,-230,-277,-7960,77,205,-371
2,5113993,571,631,-2649,-230,-277,-7960,77,205,-371
2,5114009,570,625,-2651,-234,-270,-7965,77,205,-371
2,5114022,575,626,-2652,-227,-261,-7964,63,203,-359
2,5114036,575,626,-2652,-227,-261,-7964,63,203,-359
2,5114051,576,628,-2651,-237,-267,-7962,63,203,-359
2,5114063,575,624,-2654,-229,-268,-7966,63,203,-359
2,5114077,575,624,-2654,-229,-268,-7966,63,203,-359
2,5114091,579,621,-2652,-228,-274,-7964,63,203,-359
2,5114106,573,620,-2652,-231,-278,-7966,63,203,-359
2,5114120,573,620,-2652,-231,-278,-7966,63,203,-359
2,5114134,572,631,-2650,-228,-276,-7959,63,203,-359
2,5114148,572,627,-2648,-226,-280,-7956,65,213,-369
2,5114164,570,627,-2646,-227,-272,-7958,65,213,-369
2,5114177,570,627,-2646,-227,-272,-7958,65,213,-369
2,5114190,572,631,-2647,-229,-273,-7962,65,213,-369
2,5114204,574,660,-2651,-232,-273,-7965,65,213,-369
2,5114218,574,660,-2651,-232,-273,-7965,65,213,-369
2,5114230,570,649,-2650,-233,-276,-7964,65,213,-369
2,5114244,575,652,-2648,-236,-276,-7959,65,213,-369
2,5114257,575,652,-2648,-236,-276,-7959,65,213,-369
2,5114270,575,644,-2652,-234,-274,-7967,65,213,-369
2,5114286,572,660,-2646,-226,-266,-7967,72,214,-364
2,5114299,572,660,-2646,-226,-266,-7967,72,214,-364
2,5114312,576,636,-2648,-229,-270,-7968,72,214,-364
2,5114327,575,622,-2645,-231,-265,-7970,72,214,-364
2,5114342,574,616,-2649,-236,-266,-7975,72,214,-364
2,5114357,574,616,-2649,-236,-266,-7975,72,214,-364
2,5114371,576,620,-2647,-232,-277,-7970,72,214,-364
2,5114384,576,630,-2654,-228,-273,-7966,72,214,-364
2,5114399,576,630,-2654,-228,-273,-7966,72,214,-364
2,5114414,576,623,-2648,-237,-269,-7967,78,220,-370
2,5114428,577,624,-2653,-240,-271,-7959,78,220,-370
2,5114441,579,626,-2658,-232,-276,-7962,78,220,-370
2,5114456,579,626,-2658,-232,-276,-7962,78,220,-370
2,5114468,577,636,-2649,-232,-263,-7969,78,220,-370
2,5114482,578,631,-2655,-234,-265,-7961,78,220,-370
2,5114496,578,631,-2655,-234,-265,-7961,78,220,-370
2,5114509,570,628,-2656,-232,-276,-7961,78,220,-370
2,5114523,573,628,-2642,-232,-272,-7967,73,225,-373
2,5114537,573,628,-2642,-232,-272,-7967,73,225,-373
2,5114551,569,638,-2650,-229,-269,-7966,73,225,-373
2,5114563,573,640,-2646,-233,-278,-7960,73,225,-373
2,5114578,573,640,-2646,-233,-278,-7960,73,225,-373
2,5114593,573,634,-2650,-233,-280,-7961,73,225,-373
2,5114607,576,621,-2650,-227,-263,-7954,73,225,-373
2,5114619,576,621,-2650,-227,-263,-7954,73,225,-373
2,5114634,578,623,-2654,-232,-267,-7964,73,225,-373
2,5114649,579,632,-2649,-228,-276,-7963,74,226,-370
2,5114662,577,624,-2654,-229,-272,-7957,74,226,-370
2,5114677,577,624,-2654,-229,-272,-7957,74,226,-370
2,5114690,575,623,-2648,-233,-273,-7960,74,226,-370
2,5114704,570,623,-2650,-228,-272,-7966,74,226,-370
2,5114720,570,623,-2650,-228,-272,-7966,74,226,-370
2,5114732,570,630,-2643,-223,-278,-7968,74,226,-370
2,5114745,570,631,-2649,-229,-267,-7963,74,226,-370
2,5114760,570,631,-2649,-229,-267,-7963,74,226,-370
2,5114773,581,628,-2648,-228,-273,-7966,82,238,-372
2,5114788,575,648,-2646,-227,-270,-7969,82,238,-372
2,5114804,578,657,-2647,-229,-274,-7971,82,238,-372
2,5114818,578,657,-2647,-229,-274,-7971,82,238,-372
2,5114831,574,646,-2651,-231,-272,-7963,82,238,-372
2,5114846,573,636,-2650,-237,-275,-7955,82,238,-372
2,5114861,573,636,-2650,-237,-275,-7955,82,238,-372
2,5114875,569,661,-2657,-231,-274,-7960,82,238,-372
2,5114886,572,642,-2644,-220,-264,-7964,82,238,-372
2,5114899,572,642,-2644,-220,-264,-7964,82,238,-372
2,5114912,574,645,-2649,-226,-262,-7966,82,238,-372
2,5114927,576,612,-2647,-234,-272,-7968,82,238,-372
2,5114941,576,612,-2647,-234,-272,-7968,82,238,-372
2,5114954,576,631,-2654,-225,-273,-7975,82,238,-372
2,5114968,578,615,-2652,-220,-278,-7966,82,238,-372
2,5114981,578,615,-2652,-220,-278,-7966,82,238,-372
2,5114994,578,640,-2648,-232,-275,-7970,82,238,-372
2,5115006,580,620,-2654,-229,-267,-7971,82,238,-372
2,5115022,573,627,-2645,-234,-273,-7964,72,250,-376
2,5115037,573,627,-2645,-234,-273,-7964,72,250,-376
2,5115051,578,625,-2654,-226,-269,-7970,72,250,-376
2,5115064,571,635,-2635,-232,-277,-7967,72,250,-376
2,5115079,571,635,-2635,-232,-277,-7967,72,250,-376
2,5115095,575,627,-2651,-232,-275,-7964,72,250,-376
2,5115109,571,624,-2646,-225,-270,-7958,72,250,-376
2,5115121,575,628,-2648,-232,-276,-7968,72,250,-376
2,5115137,575,628,-2648,-232,-276,-7968,72,250,-376
2,5115150,573,640,-2646,-228,-278,-7968,77,261,-381
2,5115161,573,640,-2646,-228,-278,-7968,77,261,-381
2,5115173,576,629,-2647,-224,-280,-7962,77,261,-381
2,5115189,576,629,-2651,-229,-277,-7966,77,261,-381
2,5115202,578,631,-2652,-230,-277,-7967,77,261,-381
2,5115216,578,631,-2652,-230,-277,-7967,77,261,-381
2,5115230,579,630,-2652,-229,-274,-7960,77,261,-381
2,5115244,578,632,-2653,-222,-277,-7959,77,261,-381
2,5115258,578,632,-2653,-222,-277,-7959,77,261,-381
2,5115272,572,621,-2648,-228,-267,-7964,81,271,-369
2,5115284,572,629,-2649,-224,-277,-7962,81,271,-369
2,5115298,572,629,-2649,-224,-277,-7962,81,271,-369
2,5115314,568,622,-2643,-225,-281,-7971,81,271,-369
2,5115329,577,627,-2647,-231,-271,-7957,81,271,-369
2,5115341,575,629,-2656,-236,-280,-7962,81,271,-369
2,5115355,575,629,-2656,-236,-280,-7962,81,271,-369
2,5115368,575,629,-2656,-236,-280,-7962,81,271,-369
2,5115382,576,634,-2646,-227,-280,-7956,93,277,-373
2,5115396,576,634,-2646,-227,-280,-7956,93,277,-373
2,5115410,570,660,-2647,-230,-277,-7963,93,277,-373
2,5115425,575,652,-2649,-232,-273,-7963,93,277,-373
2,5115439,575,652,-2649,-232,-273,-7963,93,277,-373
2,5115450,573,652,-2650,-236,-281,-7963,93,277,-373
2,5115463,574,642,-2647,-234,-281,-7962,93,277,-373
2,5115478,574,642,-2647,-234,-281,-7962,93,277,-373
2,5115492,571,651,-2649,-227,-278,-7964,93,277,-373
2,5115506,577,638,-2649,-222,-281,-7971,117,291,-365
2,5115518,577,638,-2649,-222,-281,-7971,117,291,-365
2,5115534,572,619,-2643,-235,-271,-7977,117,291,-365
2,5115549,579,622,-2652,-229,-272,-7966,117,291,-365
2,5115564,576,629,-2649,-221,-272,-7968,117,291,-365
2,5115577,576,629,-2649,-221,-272,-7968,117,291,-365
2,5115590,578,625,-2650,-225,-279,-7970,117,291,-365
2,5115604,582,623,-2655,-228,-274,-7962,117,291,-365
2,5115618,582,623,-2655,-228,-274,-7962,117,291,-365
2,5115631,577,619,-2646,-225,-276,-7961,117,291,-365
2,5115645,573,627,-2644,-224,-274,-7964,115,291,-359
2,5115657,573,627,-2644,-224,-274,-7964,115,291,-359
2,5115670,573,631,-2646,-225,-270,-7963,115,291,-359
2,5115683,576,630,-2644,-229,-264,-7963,115,291,-359
2,5115697,576,630,-2644,-229,-264,-7963,115,291,-359
2,5115711,570,633,-2647,-231,-274,-7963,115,291,-359
2,5115723,575,628,-2651,-228,-278,-7965,115,291,-359
2,5115736,575,628,-2651,-228,-278,-7965,115,291,-359
2,5115751,577,636,-2655,-228,-275,-7955,115,291,-359
2,5115764,575,636,-2651,-225,-283,-7970,121,301,-357
2,5115778,575,636,-2651,-225,-283,-7970,121,301,-357
2,5115793,579,631,-2645,-229,-270,-7966,121,301,-357
2,5115808,573,626,-2646,-228,-273,-7965,121,301,-357
2,5115823,569,630,-2648,-227,-271,-7954,121,301,-357
2,5115836,569,630,-2648,-227,-271,-7954,121,301,-357
2,5115850,571,633,-2650,-231,-274,-7960,121,301,-357
2,5115863,570,628,-2649,-230,-278,-7959,121,301,-357
2,5115875,570,628,-2649,-230,-278,-7959,121,301,-357
2,5115888,575,627,-2642,-233,-274,-7964,135,305,-367
2,5115902,574,628,-2643,-230,-272,-7964,135,305,-367
2,5115916,574,628,-2643,-230,-272,-7964,135,305,-367
2,5115928,574,626,-2645,-231,-266,-7967,135,305,-367
2,5115943,574,634,-2652,-221,-267,-7973,135,305,-367
2,5115955,574,634,-2652,-221,-267,-7973,135,305,-367
2,5115969,576,633,-2648,-226,-266,-7961,135,305,-367
2,5115982,569,639,-2645,-223,-268,-7964,135,305,-367
2,5115997,569,639,-2645,-223,-268,-7964,135,305,-367
2,5116011,571,659,-2647,-231,-274,-7964,148,302,-362
2,5116026,571,648,-2640,-232,-272,-7966,148,302,-362
2,5116042,571,648,-2640,-232,-272,-7966,148,302,-362
2,5116056,570,652,-2646,-238,-270,-7965,148,302,-362
2,5116069,573,647,-2651,-231,-269,-7960,148,302,-362
2,5116085,574,648,-2646,-228,-267,-7962,148,302,-362
2,5116095,574,648,-2646,-228,-267,-7962,148,302,-362
2,5116107,577,643,-2646,-234,-275,-7967,148,302,-362
2,5116122,577,643,-2646,-234,-275,-7967,148,302,-362
2,5116135,576,627,-2647,-230,-276,-7972,151,305,-365
2,5116148,580,627,-2645,-234,-272,-7973,151,305,-365
2,5116163,573,626,-2645,-227,-273,-7967,151,305,-365
2,5116175,573,626,-2645,-227,-273,-7967,151,305,-365
2,5116187,576,633,-2646,-227,-276,-7971,151,305,-365
2,5116200,576,633,-2646,-227,-276,-7971,151,305,-365
2,5116215,574,624,-2652,-232,-263,-7964,151,305,-365
2,5116229,577,624,-2645,-225,-271,-7959,151,305,-365
2,5116240,577,624,-2645,-225,-271,-7959,151,305,-365
2,5116254,574,630,-2654,-229,-271,-7967,151,305,-365
2,5116269,576,635,-2648,-230,-273,-7969,154,310,-360
2,5116284,575,643,-2648,-234,-274,-7961,154,310,-360
2,5116297,575,643,-2648,-234,-274,-7961,154,310,-360
2,5116309,578,635,-2650,-222,-278,-7972,154,310,-360
2,5116322,578,635,-2650,-222,-278,-7972,154,310,-360
2,5116335,572,635,-2646,-223,-271,-7973,154,310,-360
2,5116348,579,642,-2650,-226,-270,-7969,154,310,-360
2,5116360,579,642,-2650,-226,-270,-7969,154,310,-360
2,5116374,576,637,-2647,-230,-277,-7967,154,310,-360
2,5116388,577,633,-2649,-231,-269,-7969,163,309,-359
2,5116401,577,633,-2649,-231,-269,-7969,163,309,-359
2,5116414,571,627,-2647,-233,-267,-7966,163,309,-359
2,5116427,574,623,-2654,-231,-266,-7962,163,309,-359
2,5116439,574,623,-2654,-231,-266,-7962,163,309,-359
2,5116447,577,627,-2648,-231,-272,-7959,163,309,-359
2,5116462,577,627,-2648,-231,-272,-7959,163,309,-359
2,5116475,573,623,-2648,-234,-273,-7967,163,309,-359
2,5116489,579,625,-2650,-232,-274,-7966,163,309,-359
2,5116498,579,625,-2650,-232,-274,-7966,163,309,-359
2,5116507,579,621,-2646,-227,-275,-7967,173,317,-353
2,5116521,579,621,-2646,-227,-275,-7967,173,317,-353
2,5116535,578,628,-2643,-233,-277,-7967,173,317,-353
2,5116548,574,634,-2651,-231,-277,-7966,173,317,-353
2,5116560,574,634,-2651,-231,-277,-7966,173,317,-353
2,5116573,570,635,-2648,-230,-270,-7967,173,317,-353
2,5116587,574,633,-2645,-237,-278,-7962,173,317,-353
2,5116600,574,633,-2645,-237,-278,-7962,173,317,-353
2,5116613,572,636,-2648,-225,-276,-7962,173,317,-353
2,5116624,574,652,-2645,-227,-274,-7961,162,304,-346
2,5116639,574,652,-2645,-227,-274,-7961,162,304,-346
2,5116652,575,645,-2641,-236,-267,-7961,162,304,-346
2,5116665,581,651,-2653,-234,-268,-7966,162,304,-346
2,5116676,581,651,-2653,-234,-268,-7966,162,304,-346
2,5116689,574,637,-2648,-225,-270,-7966,162,304,-346
2,5116704,578,650,-2655,-225,-277,-7970,162,304,-346
2,5116719,578,650,-2655,-225,-277,-7970,162,304,-346
2,5116731,578,650,-2655,-225,-277,-7970,162,304,-346
2,5116745,577,627,-2649,-229,-272,-7969,174,304,-354
2,5116760,577,627,-2649,-229,-272,-7969,174,304,-354
2,5116775,577,618,-2647,-236,-279,-7967,174,304,-354
2,5116788,575,628,-2644,-230,-270,-7966,174,304,-354
2,5116802,575,628,-2644,-230,-270,-7966,174,304,-354
2,5116816,576,620,-2649,-230,-274,-7965,174,304,-354
2,5116826,580,627,-2650,-231,-275,-7967,174,304,-354
2,5116839,580,627,-2650,-231,-275,-7967,174,304,-354
2,5116852,576,630,-2656,-234,-270,-7963,174,304,-354
2,5116866,576,636,-2652,-223,-277,-7962,174,304,-354
2,5116877,576,636,-2652,-223,-277,-7962,174,304,-354
2,5116891,574,637,-2647,-228,-265,-7961,184,294,-338
2,5116906,578,632,-2648,-231,-272,-7963,184,294,-338
2,5116919,578,632,-2648,-231,-272,-7963,184,294,-338
2,5116933,573,626,-2653,-234,-275,-7968,184,294,-338
2,5116947,579,632,-2645,-234,-283,-7965,184,294,-338
2,5116960,579,632,-2645,-234,-283,-7965,184,294,-338
2,5116975,571,633,-2649,-232,-270,-7972,184,294,-338
2,5116988,575,630,-2648,-230,-269,-7966,184,294,-338
2,5117002,575,630,-2648,-230,-269,-7966,184,294,-338
2,5117012,573,623,-2643,-240,-275,-7966,187,301,-333
2,5117026,574,625,-2652,-232,-274,-7972,187,301,-333
2,5117040,574,625,-2652,-232,-274,-7972,187,301,-333
2,5117053,572,629,-2648,-233,-278,-7965,187,301,-333
2,5117067,574,627,-2644,-225,-267,-7961,187,301,-333
2,5117079,574,627,-2644,-225,-267,-7961,187,301,-333
2,5117092,580,625,-2649,-226,-266,-7962,187,301,-333
2,5117108,575,630,-2654,-225,-263,-7964,187,301,-333
2,5117122,575,630,-2654,-225,-263,-7964,187,301,-333
2,5117135,574,630,-2649,-224,-270,-7963,181,289,-341
2,5117151,575,635,-2650,-230,-272,-7963,181,289,-341
2,5117166,573,633,-2655,-234,-270,-7957,181,289,-341
2,5117181,573,633,-2655,-234,-270,-7957,181,289,-341
2,5117196,573,639,-2650,-222,-267,-7962,181,289,-341
2,5117210,568,662,-2646,-230,-274,-7963,181,289,-341
2,5117223,568,662,-2646,-230,-274,-7963,181,289,-341
2,5117237,576,650,-2648,-228,-272,-7966,181,289,-341
2,5117251,573,646,-2651,-239,-270,-7961,183,293,-349
2,5117266,576,655,-2647,-228,-266,-7962,183,293,-349
2,5117278,576,655,-2647,-228,-266,-7962,183,293,-349
2,5117291,571,648,-2650,-225,-277,-7963,183,293,-349
2,5117304,579,644,-2656,-233,-273,-7967,183,293,-349
2,5117319,579,644,-2656,-233,-273,-7967,183,293,-349
2,5117334,575,619,-2647,-232,-267,-7969,183,293,-349
2,5117348,574,624,-2643,-233,-266,-7968,183,293,-349
2,5117361,574,624,-2643,-233,-266,-7968,183,293,-349
2,5117375,579,622,-2648,-227,-271,-7976,188,282,-342
2,5117389,576,628,-2642,-228,-268,-7975,188,282,-342
2,5117404,580,626,-2656,-237,-273,-7973,188,282,-342
2,5117416,580,626,-2656,-237,-273,-7973,188,282,-342
2,5117430,574,622,-2651,-231,-275,-7964,188,282,-342
2,5117444,580,637,-2645,-225,-275,-7966,188,282,-342
2,5117458,580,637,-2645,-225,-275,-7966,188,282,-342
2,5117471,573,636,-2649,-232,-271,-7963,188,282,-342
2,5117486,579,636,-2649,-226,-272,-7967,188,282,-342
2,5117501,579,636,-2649,-226,-272,-7967,188,282,-342
2,5117513,577,626,-2651,-227,-272,-7965,191,281,-337
2,5117527,576,633,-2650,-228,-276,-7970,191,281,-337
2,5117541,576,633,-2650,-228,-276,-7970,191,281,-337
2,5117554,573,637,-2646,-232,-269,-7966,191,281,-337
2,5117569,576,632,-2648,-229,-263,-7973,191,281,-337
2,5117580,576,632,-2648,-229,-263,-7973,191,281,-337
2,5117594,573,629,-2650,-230,-268,-7963,191,281,-337
2,5117609,577,630,-2650,-232,-270,-7963,191,281,-337
2,5117625,572,624,-2651,-227,-274,-7968,187,271,-351
2,5117639,572,624,-2651,-227,-274,-7968,187,271,-351
2,5117651,579,632,-2648,-235,-274,-7963,187,271,-351
2,5117666,576,618,-2646,-242,-273,-7963,187,271,-351
2,5117680,576,618,-2646,-242,-273,-7963,187,271,-351
2,5117693,578,619,-2647,-234,-276,-7971,187,271,-351
2,5117708,572,626,-2650,-231,-269,-7963,187,271,-351
2,5117721,572,626,-2650,-231,-269,-7963,187,271,-351
2,5117736,573,631,-2640,-228,-269,-7964,187,271,-351
2,5117749,575,623,-2640,-223,-272,-7967,189,267,-349
2,5117762,575,623,-2640,-223,-272,-7967,189,267,-349
2,5117776,574,626,-2642,-228,-274,-7971,189,267,-349
2,5117792,575,628,-2650,-228,-276,-7967,189,267,-349
2,5117805,570,648,-2651,-234,-266,-7966,189,267,-349
2,5117820,570,648,-2651,-234,-266,-7966,189,267,-349
2,5117835,573,650,-2648,-229,-277,-7968,189,267,-349
2,5117849,575,651,-2647,-228,-273,-7961,189,267,-349
2,5117862,575,651,-2647,-228,-273,-7961,189,267,-349
2,5117878,577,645,-2644,-235,-274,-7963,179,257,-345
2,5117893,573,642,-2649,-232,-276,-7969,179,257,-345
2,5117906,574,640,-2648,-228,-275,-7968,179,257,-345
2,5117918,574,640,-2648,-228,-275,-7968,179,257,-345
2,5117932,573,622,-2648,-230,-275,-7971,179,257,-345
2,5117945,576,616,-2647,-236,-270,-7966,179,257,-345
2,5117959,576,616,-2647,-236,-270,-7966,179,257,-345
2,5117973,574,625,-2647,-231,-276,-7976,179,257,-345
2,5117984,574,629,-2643,-232,-280,-7972,176,246,-350
2,5117998,574,629,-2643,-232,-280,-7972,176,246,-350
2,5118011,574,628,-2646,-220,-278,-7963,176,246,-350
2,5118023,574,628,-2646,-220,-278,-7963,176,246,-350
2,5118038,575,628,-2648,-229,-273,-7964,176,246,-350
2,5118053,577,633,-2656,-226,-267,-7967,176,246,-350
2,5118066,576,641,-2645,-225,-272,-7962,176,246,-350
2,5118081,576,641,-2645,-225,-272,-7962,176,246,-350
2,5118095,572,647,-2652,-230,-267,-7967,176,246,-350
2,5118110,572,627,-2647,-232,-274,-7967,176,246,-350
2,5118123,572,627,-2647,-232,-274,-7967,176,246,-350
2,5118135,571,635,-2646,-234,-271,-7969,173,251,-347
2,5118148,574,628,-2647,-227,-277,-7972,173,251,-347
2,5118162,574,628,-2647,-227,-277,-7972,173,251,-347
2,5118176,570,648,-2647,-224,-267,-7976,173,251,-347
2,5118189,575,625,-2644,-229,-271,-7974,173,251,-347
2,5118200,575,625,-2644,-229,-271,-7974,173,251,-347
2,5118215,579,634,-2650,-229,-270,-7964,173,251,-347
2,5118228,572,620,-2653,-227,-265,-7969,173,251,-347
2,5118241,572,620,-2653,-227,-265,-7969,173,251,-347
2,5118257,572,639,-2647,-230,-266,-7966,161,235,-359
2,5118272,572,625,-2641,-226,-275,-7970,161,235,-359
2,5118283,572,625,-2641,-226,-275,-7970,161,235,-359
2,5118299,572,625,-2642,-224,-274,-7964,161,235,-359
2,5118313,568,625,-2654,-230,-267,-7960,161,235,-359
2,5118325,569,632,-2644,-217,-274,-7961,161,235,-359
2,5118339,569,632,-2644,-217,-274,-7961,161,235,-359
2,5118354,569,633,-2652,-227,-271,-7976,161,235,-359
2,5118368,574,633,-2644,-231,-274,-7961,147,237,-359
2,5118382,574,633,-2644,-231,-274,-7961,147,237,-359
2,5118396,572,646,-2654,-218,-271,-7962,147,237,-359
2,5118409,573,663,-2653,-225,-271,-7959,147,237,-359
2,5118423,573,663,-2653,-225,-271,-7959,147,237,-359
2,5118436,575,650,-2648,-221,-277,-7966,147,237,-359
2,5118449,574,649,-2652,-225,-276,-7963,147,237,-359
2,5118464,574,649,-2652,-225,-276,-7963,147,237,-359
2,5118477,575,654,-2652,-228,-272,-7967,147,237,-359
2,5118491,572,648,-2645,-223,-273,-7971,145,229,-363
2,5118505,576,638,-2649,-229,-271,-7983,145,229,-363
2,5118517,576,638,-2649,-229,-271,-7983,145,229,-363
2,5118532,574,621,-2650,-235,-269,-7980,145,229,-363
2,5118546,575,628,-2647,-231,-277,-7983,145,229,-363
2,5118560,575,628,-2647,-231,-277,-7983,145,229,-363
2,5118573,577,629,-2654,-223,-274,-7969,145,229,-363
2,5118588,576,636,-2648,-222,-281,-7969,145,229,-363
2,5118603,576,636,-2648,-222,-281,-7969,145,229,-363
2,5118616,577,629,-2651,-222,-275,-7965,141,219,-367
2,5118630,575,626,-2649,-225,-269,-7964,141,219,-367
2,5118644,575,626,-2649,-225,-269,-7964,141,219,-367
2,5118657,580,634,-2655,-234,-277,-7959,141,219,-367
2,5118670,573,640,-2651,-230,-275,-7957,141,219,-367
2,5118685,572,635,-2644,-238,-270,-7963,141,219,-367
2,5118698,572,635,-2644,-238,-270,-7963,141,219,-367
2,5118712,573,630,-2646,-233,-273,-7975,141,219,-367
2,5118727,575,632,-2649,-233,-268,-7961,141,219,-367
2,5118738,575,632,-2649,-233,-268,-7961,141,219,-367
2,5118745,574,639,-2643,-234,-270,-7968,127,211,-363
2,5118758,574,639,-2643,-234,-270,-7968,127,211,-363
2,5118773,578,634,-2651,-232,-272,-7973,127,211,-363
2,5118782,578,634,-2651,-232,-272,-7973,127,211,-363
2,5118796,578,628,-2650,-227,-263,-7965,127,211,-363
2,5118809,584,627,-2650,-220,-270,-7970,127,211,-363
2,5118824,584,627,-2650,-220,-270,-7970,127,211,-363
2,5118839,575,632,-2651,-228,-271,-7972,127,211,-363
2,5118853,577,631,-2648,-231,-275,-7971,127,211,-363
2,5118867,571,626,-2645,-230,-271,-7965,116,206,-378
2,5118880,571,626,-2645,-230,-271,-7965,116,206,-378
2,5118892,574,619,-2644,-231,-270,-7967,116,206,-378
2,5118905,569,627,-2652,-225,-276,-7969,116,206,-378
2,5118919,569,627,-2652,-225,-276,-7969,116,206,-378
2,5118932,572,629,-2650,-226,-278,-7969,116,206,-378
2,5118947,578,629,-2649,-226,-270,-7969,116,206,-378
2,5118961,578,629,-2649,-226,-270,-7969,116,206,-378
2,5118976,580,631,-2651,-226,-269,-7970,116,206,-378
2,5118987,574,635,-2640,-227,-280,-7960,118,202,-370
2,5119002,574,635,-2640,-227,-280,-7960,118,202,-370
2,5119016,575,653,-2649,-226,-276,-7962,118,202,-370
2,5119031,572,660,-2643,-226,-272,-7959,118,202,-370
2,5119044,572,660,-2643,-226,-272,-7959,118,202,-370
2,5119059,574,649,-2647,-229,-276,-7960,118,202,-370
2,5119074,572,649,-2647,-229,-276,-7964,118,202,-370
2,5119088,572,646,-2651,-231,-267,-7973,118,202,-370
2,5119100,572,646,-2651,-231,-267,-7973,118,202,-370
2,5119115,577,645,-2640,-224,-268,-7972,114,192,-368
2,5119127,579,629,-2646,-230,-281,-7971,114,192,-368
2,5119139,579,629,-2646,-230,-281,-7971,114,192,-368
2,5119154,578,622,-2652,-236,-276,-7975,114,192,-368
2,5119167,580,634,-2656,-229,-277,-7975,114,192,-368
2,5119180,580,634,-2656,-229,-277,-7975,114,192,-368
2,5119193,576,631,-2644,-235,-276,-7967,114,192,-368
2,5119204,576,631,-2644,-235,-276,-7967,114,192,-368
2,5119217,580,631,-2655,-237,-273,-7965,114,192,-368
2,5119232,574,622,-2646,-232,-273,-7968,103,187,-371
2,5119246,577,636,-2637,-224,-273,-7963,103,187,-371
2,5119255,577,636,-2637,-224,-273,-7963,103,187,-371
2,5119264,577,636,-2637,-224,-273,-7963,103,187,-371
2,5119279,572,631,-2646,-227,-265,-7963,103,187,-371
2,5119291,571,643,-2644,-229,-270,-7961,103,187,-371
2,5119304,571,643,-2644,-229,-270,-7961,103,187,-371
2,5119319,577,637,-2652,-233,-275,-7969,103,187,-371
2,5119331,576,645,-2651,-236,-272,-7970,103,187,-371
2,5119342,576,645,-2651,-236,-272,-7970,103,187,-371
2,5119357,580,634,-2645,-236,-263,-7971,100,192,-380
2,5119371,576,645,-2646,-234,-270,-7969,100,192,-380
2,5119384,576,645,-2646,-234,-270,-7969,100,192,-380
2,5119398,578,627,-2649,-235,-266,-7978,100,192,-380
2,5119412,577,631,-2649,-233,-271,-7973,100,192,-380
2,5119424,577,631,-2649,-233,-271,-7973,100,192,-380
2,5119438,576,623,-2646,-230,-274,-7973,100,192,-380
2,5119452,574,634,-2646,-233,-273,-7972,100,192,-380
2,5119465,577,622,-2649,-231,-276,-7968,100,192,-380
2,5119477,577,622,-2649,-231,-276,-7968,100,192,-380
2,5119491,577,623,-2647,-232,-277,-7971,85,195,-371
2,5119505,577,623,-2647,-232,-277,-7971,85,195,-371
2,5119519,576,620,-2649,-229,-274,-7968,85,195,-371
2,5119535,576,630,-2644,-223,-276,-7967,85,195,-371
2,5119547,578,628,-2652,-221,-270,-7970,85,195,-371
2,5119560,578,628,-2652,-221,-270,-7970,85,195,-371
2,5119574,577,633,-2653,-233,-271,-7962,85,195,-371
2,5119587,574,631,-2648,-232,-273,-7966,85,195,-371
2,5119601,574,631,-2648,-232,-273,-7966,85,195,-371
2,5119616,572,639,-2644,-232,-272,-7966,86,190,-370
2,5119628,571,656,-2649,-227,-282,-7970,86,190,-370
2,5119639,571,656,-2649,-227,-282,-7970,86,190,-370
2,5119653,572,643,-2650,-224,-272,-7973,86,190,-370
2,5119667,578,647,-2654,-236,-271,-7975,86,190,-370
2,5119681,578,647,-2654,-236,-271,-7975,86,190,-370
2,5119696,573,630,-2650,-228,-280,-7967,86,190,-370
2,5119708,576,643,-2647,-226,-278,-7968,86,190,-370
2,5119722,576,643,-2647,-226,-278,-7968,86,190,-370
2,5119737,578,626,-2645,-230,-278,-7965,82,194,-370
2,5119752,577,631,-2648,-228,-269,-7971,82,194,-370
2,5119765,577,631,-2648,-228,-269,-7971,82,194,-370
2,5119779,579,625,-2645,-226,-271,-7977,82,194,-370
2,5119795,575,628,-2641,-230,-274,-7973,82,194,-370
2,5119809,576,626,-2653,-232,-274,-7963,82,194,-370
2,5119822,576,626,-2653,-232,-274,-7963,82,194,-370
2,5119837,572,626,-2647,-230,-268,-7967,82,194,-370
2,5119850,574,629,-2647,-227,-274,-7968,76,198,-366
2,5119861,574,629,-2647,-227,-274,-7968,76,198,-366
2,5119876,569,636,-2648,-220,-275,-7965,76,198,-366
2,5119889,574,633,-2643,-224,-276,-7966,76,198,-366
2,5119902,574,633,-2643,-224,-276,-7966,76,198,-366
2,5119917,577,640,-2646,-224,-266,-7963,76,198,-366
2,5119928,578,639,-2647,-226,-271,-7962,76,198,-366
2,5119941,578,639,-2647,-226,-271,-7962,76,198,-366
2,5119954,573,634,-2648,-221,-277,-7967,76,198,-366
2,5119969,576,638,-2646,-227,-272,-7968,76,204,-372
2,5119983,576,638,-2646,-227,-272,-7968,76,204,-372
2,5119997,571,633,-2649,-233,-273,-7962,76,204,-372
2,5120013,573,629,-2646,-233,-268,-7964,76,204,-372
2,5120026,573,629,-2646,-233,-268,-7964,76,204,-372
2,5120039,573,626,-2649,-231,-268,-7968,76,204,-372
2,5120055,574,629,-2646,-232,-274,-7970,76,204,-372
2,5120068,573,625,-2647,-227,-268,-7960,76,204,-372
2,5120079,573,625,-2647,-227,-268,-7960,76,204,-372
2,5120095,573,622,-2650,-228,-275,-7961,76,204,-372
2,5120108,575,628,-2647,-226,-276,-7961,74,210,-368
2,5120121,575,628,-2647,-226,-276,-7961,74,210,-368
2,5120136,572,629,-2655,-231,-279,-7955,74,210,-368
2,5120151,573,634,-2650,-231,-284,-7960,74,210,-368
2,5120161,573,634,-2650,-231,-284,-7960,74,210,-368
2,5120176,570,636,-2650,-228,-279,-7963,74,210,-368
2,5120190,573,650,-2646,-228,-274,-7960,74,210,-368
2,5120204,573,650,-2646,-228,-274,-7960,74,210,-368
2,5120218,570,647,-2644,-231,-277,-7958,74,210,-368
2,5120233,574,649,-2641,-230,-274,-7956,72,214,-370
2,5120248,573,636,-2648,-229,-279,-7964,72,214,-370
2,5120264,573,636,-2648,-229,-279,-7964,72,214,-370
2,5120278,576,656,-2651,-229,-275,-7972,72,214,-370
2,5120291,576,643,-2643,-225,-277,-7973,72,214,-370
2,5120302,576,643,-2643,-225,-277,-7973,72,214,-370
2,5120312,574,646,-2645,-225,-273,-7969,72,214,-370
2,5120326,574,646,-2645,-225,-273,-7969,72,214,-370
2,5120339,574,621,-2647,-229,-273,-7960,72,214,-370
2,5120354,574,629,-2643,-223,-276,-7966,70,220,-374
2,5120368,575,627,-2652,-227,-271,-7969,70,220,-374
2,5120379,575,627,-2652,-227,-271,-7969,70,220,-374
2,5120393,573,630,-2641,-230,-276,-7961,70,220,-374
2,5120406,578,619,-2650,-229,-271,-7968,70,220,-374
2,5120420,578,619,-2650,-229,-271,-7968,70,220,-374
2,5120435,571,624,-2647,-228,-280,-7966,70,220,-374
2,5120450,575,634,-2654,-221,-273,-7971,70,220,-374
2,5120464,575,634,-2654,-221,-273,-7971,70,220,-374
2,5120478,573,644,-2650,-225,-272,-7963,66,222,-366
2,5120492,575,637,-2645,-228,-268,-7965,66,222,-366
2,5120505,575,637,-2645,-228,-268,-7965,66,222,-366
2,5120517,572,634,-2651,-228,-274,-7966,66,222,-366
2,5120532,574,636,-2646,-226,-276,-7965,66,222,-366
2,5120547,575,639,-2650,-231,-277,-7966,66,222,-366
2,5120562,575,639,-2650,-231,-277,-7966,66,222,-366
2,5120575,575,634,-2646,-229,-282,-7966,66,222,-366
2,5120588,572,625,-2644,-228,-279,-7967,70,232,-372
2,5120603,572,625,-2644,-228,-279,-7967,70,232,-372
2,5120614,574,631,-2644,-230,-275,-7968,70,232,-372
2,5120628,570,627,-2649,-226,-282,-7960,70,232,-372
2,5120642,570,627,-2649,-226,-282,-7960,70,232,-372
2,5120654,570,627,-2649,-226,-282,-7960,70,232,-372
2,5120669,574,623,-2648,-231,-268,-7964,70,232,-372
2,5120677,574,623,-2648,-231,-268,-7964,70,232,-372
2,5120691,574,623,-2645,-229,-273,-7963,70,232,-372
2,5120705,574,623,-2645,-229,-273,-7963,70,232,-372
2,5120718,578,630,-2652,-218,-268,-7967,70,232,-372
2,5120734,571,639,-2641,-227,-289,-7962,64,242,-376
2,5120748,574,635,-2649,-228,-275,-7965,64,242,-376
2,5120761,574,635,-2649,-228,-275,-7965,64,242,-376
2,5120775,568,638,-2650,-232,-275,-7962,64,242,-376
2,5120789,571,652,-2649,-232,-277,-7960,64,242,-376
2,5120798,571,652,-2649,-232,-277,-7960,64,242,-376
2,5120813,571,649,-2642,-227,-275,-7958,64,242,-376
2,5120826,571,649,-2642,-227,-275,-7958,64,242,-376
2,5120840,573,647,-2649,-232,-270,-7965,64,242,-376
2,5120854,573,641,-2645,-236,-272,-7962,70,240,-372
2,5120866,573,641,-2645,-236,-272,-7962,70,240,-372
2,5120879,575,665,-2643,-232,-274,-7965,70,240,-372
2,5120893,572,648,-2645,-220,-275,-7970,70,240,-372
2,5120908,577,638,-2645,-224,-276,-7974,70,240,-372
2,5120921,577,638,-2645,-224,-276,-7974,70,240,-372
2,5120932,579,619,-2658,-231,-272,-7970,70,240,-372
2,5120946,579,619,-2658,-231,-272,-7970,70,240,-372
2,5120961,576,624,-2647,-219,-270,-7977,70,240,-372
2,5120975,581,632,-2654,-220,-272,-7978,77,257,-373
2,5120988,575,620,-2642,-227,-270,-7972,77,257,-373
2,5121000,575,620,-2642,-227,-270,-7972,77,257,-373
2,5121013,575,621,-2651,-236,-263,-7961,77,257,-373
2,5121028,575,620,-2647,-230,-270,-7963,77,257,-373
2,5121041,575,620,-2647,-230,-270,-7963,77,257,-373
2,5121055,571,642,-2647,-229,-273,-7963,77,257,-373
2,5121067,575,638,-2651,-231,-274,-7968,77,257,-373
2,5121080,575,638,-2651,-231,-274,-7968,77,257,-373
2,5121093,578,631,-2647,-225,-271,-7969,74,256,-374
2,5121107,579,622,-2648,-231,-276,-7969,74,256,-374
2,5121122,579,622,-2648,-231,-276,-7969,74,256,-374
2,5121136,575,637,-2647,-222,-269,-7967,74,256,-374
2,5121148,576,637,-2651,-229,-268,-7964,74,256,-374
2,5121164,576,637,-2651,-229,-268,-7964,74,256,-374
2,5121179,576,635,-2648,-228,-265,-7968,74,256,-374
2,5121195,570,624,-2651,-232,-273,-7972,74,256,-374
2,5121210,575,634,-2645,-233,-274,-7972,78,266,-374
2,5121223,575,634,-2645,-233,-274,-7972,78,266,-374
2,5121235,572,632,-2637,-233,-271,-7964,78,266,-374
2,5121250,578,628,-2644,-231,-269,-7963,78,266,-374
2,5121261,578,628,-2644,-231,-269,-7963,78,266,-374
2,5121274,578,620,-2651,-229,-272,-7966,78,266,-374
2,5121287,578,620,-2651,-229,-272,-7966,78,266,-374
2,5121300,576,624,-2650,-226,-273,-7967,78,266,-374
2,5121313,576,630,-2652,-234,-274,-7965,78,266,-374
2,5121327,572,632,-2648,-236,-278,-7958,78,266,-374
2,5121341,572,632,-2648,-236,-278,-7958,78,266,-374
2,5121355,572,628,-2645,-233,-275,-7962,93,277,-357
2,5121369,567,630,-2645,-237,-279,-7964,93,277,-357
2,5121382,567,630,-2645,-237,-279,-7964,93,277,-357
2,5121395,575,637,-2647,-232,-279,-7967,93,277,-357
2,5121409,570,659,-2649,-234,-280,-7969,93,277,-357
2,5121423,570,659,-2649,-234,-280,-7969,93,277,-357
2,5121438,574,653,-2644,-231,-273,-7960,93,277,-357
2,5121454,571,648,-2650,-233,-274,-7963,93,277,-357
2,5121467,575,656,-2646,-226,-279,-7966,102,288,-366
2,5121481,575,656,-2646,-226,-279,-7966,102,288,-366
2,5121496,579,653,-2645,-222,-277,-7966,102,288,-366
2,5121508,576,632,-2648,-228,-275,-7962,102,288,-366
2,5121520,576,632,-2648,-228,-275,-7962,102,288,-366
2,5121533,576,618,-2647,-236,-271,-7969,102,288,-366
2,5121550,574,622,-2645,-234,-272,-7969,102,288,-366
2,5121563,574,622,-2645,-234,-272,-7969,102,288,-366
2,5121576,574,628,-2643,-228,-274,-7966,102,288,-366
2,5121590,573,625,-2635,-226,-283,-7967,116,292,-362
2,5121603,573,625,-2635,-226,-283,-7967,116,292,-362
2,5121616,575,629,-2646,-233,-280,-7967,116,292,-362
2,5121632,575,626,-2648,-231,-275,-7966,116,292,-362
2,5121647,571,633,-2643,-229,-272,-7967,116,292,-362
2,5121662,571,633,-2643,-229,-272,-7967,116,292,-362
2,5121677,573,636,-2653,-236,-270,-7961,116,292,-362
2,5121690,574,629,-2642,-231,-269,-7962,116,292,-362
2,5121704,574,629,-2642,-231,-269,-7962,116,292,-362
2,5121720,578,627,-2649,-228,-277,-7964,126,300,-356
2,5121733,571,630,-2645,-228,-275,-7971,126,300,-356
2,5121746,571,630,-2645,-228,-275,-7971,126,300,-356
2,5121761,573,634,-2646,-233,-275,-7967,126,300,-356
2,5121775,569,639,-2642,-229,-271,-7960,126,300,-356
2,5121786,569,639,-2642,-229,-271,-7960,126,300,-356
2,5121801,576,628,-2649,-231,-265,-7962,126,300,-356
2,5121814,573,626,-2645,-231,-270,-7955,126,300,-356
2,5121827,574,630,-2646,-232,-271,-7964,129,303,-363
2,5121843,574,630,-2646,-232,-271,-7964,129,303,-363
2,5121857,576,631,-2648,-234,-271,-7963,129,303,-363
2,5121871,575,626,-2650,-232,-279,-7964,129,303,-363
2,5121885,575,626,-2650,-232,-279,-7964,129,303,-363
2,5121900,571,620,-2651,-228,-276,-7967,129,303,-363
2,5121915,569,629,-2650,-226,-278,-7969,129,303,-363
2,5121931,566,632,-2645,-229,-272,-7966,129,303,-363
2,5121943,566,632,-2645,-229,-272,-7966,129,303,-363
2,5121955,569,630,-2644,-232,-274,-7967,129,303,-363
2,5121969,569,633,-2642,-231,-262,-7966,149,307,-365
2,5121983,569,633,-2642,-231,-262,-7966,149,307,-365
2,5121996,572,655,-2647,-230,-267,-7958,149,307,-365
2,5122009,564,654,-2646,-224,-271,-7968,149,307,-365
2,5122020,564,654,-2646,-224,-271,-7968,149,307,-365
2,5122034,577,654,-2654,-231,-271,-7965,149,307,-365
2,5122048,577,654,-2654,-231,-271,-7965,149,307,-365
2,5122061,572,649,-2651,-238,-274,-7956,149,307,-365
2,5122071,578,659,-2651,-234,-278,-7958,149,307,-365
2,5122079,578,659,-2651,-234,-278,-7958,149,307,-365
2,5122088,573,641,-2642,-230,-280,-7973,146,306,-362
2,5122102,573,641,-2642,-230,-280,-7973,146,306,-362
2,5122117,574,640,-2646,-227,-276,-7973,146,306,-362
2,5122131,578,628,-2649,-228,-275,-7968,146,306,-362
2,5122146,578,628,-2649,-228,-275,-7968,146,306,-362
2,5122158,570,624,-2644,-229,-270,-7964,146,306,-362
2,5122173,574,629,-2646,-231,-275,-7966,146,306,-362
2,5122187,574,629,-2646,-231,-275,-7966,146,306,-362
2,5122200,573,633,-2646,-233,-272,-7967,146,306,-362
2,5122213,577,631,-2647,-231,-269,-7969,152,314,-364
2,5122227,577,631,-2647,-231,-269,-7969,152,314,-364
2,5122241,575,629,-2651,-222,-268,-7967,152,314,-364
2,5122255,575,640,-2642,-231,-266,-7955,152,314,-364
2,5122270,578,640,-2649,-235,-271,-7964,152,314,-364
2,5122283,578,640,-2649,-235,-271,-7964,152,314,-364
2,5122297,571,645,-2647,-234,-275,-7959,152,314,-364
2,5122311,572,634,-2644,-225,-270,-7971,152,314,-364
2,5122326,572,634,-2644,-225,-270,-7971,152,314,-364
2,5122334,570,639,-2646,-228,-270,-7968,156,312,-356
2,5122342,570,639,-2646,-228,-270,-7968,156,312,-356
2,5122354,570,636,-2640,-232,-280,-7974,156,312,-356
2,5122369,577,642,-2642,-225,-267,-7973,156,312,-356
2,5122384,577,642,-2642,-225,-267,-7973,156,312,-356
2,5122400,576,628,-2640,-222,-270,-7964,156,312,-356
2,5122413,577,634,-2652,-227,-271,-7973,156,312,-356
2,5122425,577,634,-2652,-227,-271,-7973,156,312,-356
2,5122441,576,628,-2645,-229,-277,-7968,156,312,-356
2,5122454,572,637,-2646,-229,-276,-7963,171,317,-363
2,5122470,572,637,-2646,-229,-276,-7963,171,317,-363
2,5122484,572,637,-2646,-229,-276,-7963,171,317,-363
2,5122498,568,625,-2648,-235,-274,-7967,171,317,-363
2,5122510,577,622,-2644,-226,-277,-7969,171,317,-363
2,5122522,577,622,-2644,-226,-277,-7969,171,317,-363
2,5122536,570,630,-2642,-222,-273,-7968,171,317,-363
2,5122549,576,637,-2647,-222,-266,-7964,171,317,-363
2,5122564,576,637,-2647,-222,-266,-7964,171,317,-363
2,5122576,574,632,-2649,-226,-262,-7964,171,317,-363
2,5122587,574,632,-2649,-226,-262,-7964,171,317,-363
2,5122604,572,640,-2647,-228,-273,-7964,165,311,-359
2,5122618,574,651,-2650,-229,-273,-7967,165,311,-359
2,5122630,574,655,-2648,-226,-274,-7963,165,311,-359
2,5122643,574,655,-2648,-226,-274,-7963,165,311,-359
2,5122659,572,640,-2646,-231,-273,-7962,165,311,-359
2,5122673,572,645,-2647,-229,-261,-7967,165,311,-359
2,5122686,572,645,-2647,-229,-261,-7967,165,311,-359
2,5122700,575,638,-2644,-224,-267,-7971,165,311,-359
2,5122713,575,628,-2644,-234,-276,-7971,183,303,-351
2,5122726,575,628,-2644,-234,-276,-7971,183,303,-351
2,5122739,578,628,-2646,-238,-267,-7971,183,303,-351
2,5122754,574,628,-2647,-226,-267,-7975,183,303,-351
2,5122766,574,628,-2647,-226,-267,-7975,183,303,-351
2,5122781,581,624,-2649,-223,-263,-7977,183,303,-351
2,5122797,574,623,-2647,-222,-266,-7963,183,303,-351
2,5122811,580,621,-2650,-233,-273,-7968,183,303,-351
2,5122827,580,621,-2650,-233,-273,-7968,183,303,-351
2,5122840,573,624,-2649,-233,-265,-7957,174,302,-348
2,5122853,574,626,-2640,-228,-271,-7962,174,302,-348
2,5122869,571,633,-2649,-232,-274,-7968,174,302,-348
2,5122882,571,633,-2649,-232,-274,-7968,174,302,-348
2,5122893,571,629,-2645,-226,-271,-7973,174,302,-348
2,5122907,571,629,-2645,-226,-271,-7973,174,302,-348
2,5122921,573,626,-2642,-224,-272,-7963,174,302,-348
2,5122934,575,633,-2650,-229,-266,-7959,174,302,-348
2,5122949,573,639,-2649,-229,-273,-7967,184,298,-342
2,5122961,573,639,-2649,-229,-273,-7967,184,298,-342
2,5122974,580,636,-2648,-230,-268,-7967,184,298,-342
2,5122988,580,636,-2648,-230,-268,-7967,184,298,-342
2,5122999,575,634,-2643,-232,-267,-7972,184,298,-342
2,5123013,573,632,-2649,-228,-270,-7964,184,298,-342
2,5123025,573,632,-2649,-228,-270,-7964,184,298,-342
2,5123040,571,632,-2651,-226,-264,-7965,184,298,-342
2,5123055,573,627,-2650,-218,-272,-7968,184,298,-342
2,5123069,573,627,-2645,-227,-267,-7966,185,295,-339
2,5123081,573,627,-2645,-227,-267,-7966,185,295,-339
2,5123095,572,621,-2640,-228,-274,-7967,185,295,-339
2,5123108,573,625,-2648,-232,-273,-7966,185,295,-339
2,5123123,573,625,-2648,-232,-273,-7966,185,295,-339
2,5123136,575,630,-2650,-232,-270,-7963,185,295,-339
2,5123148,575,630,-2650,-232,-270,-7963,185,295,-339
2,5123163,571,629,-2650,-227,-266,-7963,185,295,-339
2,5123175,571,634,-2654,-229,-279,-7960,185,295,-339
2,5123189,571,646,-2648,-236,-271,-7963,187,285,-335
2,5123203,571,646,-2648,-236,-271,-7963,187,285,-335
2,5123217,568,662,-2644,-231,-268,-7959,187,285,-335
2,5123231,575,657,-2644,-229,-276,-7956,187,285,-335
2,5123244,575,657,-2644,-229,-276,-7956,187,285,-335
2,5123258,575,646,-2650,-232,-278,-7962,187,285,-335
2,5123273,577,654,-2646,-230,-269,-7967,187,285,-335
2,5123288,577,654,-2646,-230,-269,-7967,187,285,-335
2,5123302,577,648,-2649,-222,-264,-7967,187,285,-335
2,5123314,573,633,-2644,-227,-273,-7968,187,285,-335
2,5123330,575,634,-2653,-221,-267,-7965,181,285,-339
2,5123343,575,634,-2653,-221,-267,-7965,181,285,-339
2,5123356,576,621,-2639,-223,-266,-7968,181,285,-339
2,5123371,577,637,-2642,-233,-277,-7970,181,285,-339
2,5123385,577,637,-2642,-233,-277,-7970,181,285,-339
2,5123398,575,626,-2645,-237,-267,-7963,181,285,-339
2,5123414,576,629,-2648,-228,-266,-7961,181,285,-339
2,5123427,576,629,-2648,-228,-266,-7961,181,285,-339
2,5123440,577,624,-2650,-228,-268,-7962,181,285,-339
2,5123453,573,636,-2638,-229,-268,-7965,183,279,-339
2,5123465,573,636,-2638,-229,-268,-7965,183,279,-339
2,5123477,573,637,-2640,-226,-271,-7964,183,279,-339
2,5123492,571,641,-2646,-231,-270,-7967,183,279,-339
2,5123506,571,641,-2646,-231,-270,-7967,183,279,-339
2,5123519,576,634,-2650,-227,-273,-7970,183,279,-339
2,5123532,573,639,-2648,-229,-275,-7971,183,279,-339
2,5123548,573,639,-2648,-229,-275,-7971,183,279,-339
2,5123562,576,633,-2645,-232,-278,-7963,183,279,-339
2,5123575,581,647,-2642,-226,-274,-7964,188,282,-340
2,5123590,579,632,-2643,-235,-269,-7977,188,282,-340
2,5123604,579,632,-2643,-235,-269,-7977,188,282,-340
2,5123618,577,634,-2645,-229,-267,-7978,188,282,-340
2,5123634,576,630,-2648,-232,-271,-7972,188,282,-340
2,5123645,576,630,-2648,-232,-271,-7972,188,282,-340
2,5123658,573,630,-2645,-226,-275,-7970,188,282,-340
2,5123668,573,630,-2645,-226,-275,-7970,188,282,-340
2,5123681,574,620,-2647,-222,-278,-7968,188,282,-340
2,5123694,574,617,-2645,-225,-274,-7970,184,264,-348
2,5123709,572,624,-2643,-227,-274,-7969,184,264,-348
2,5123725,572,624,-2643,-227,-274,-7969,184,264,-348
2,5123739,572,628,-2643,-232,-273,-7973,184,264,-348
2,5123752,571,635,-2649,-225,-275,-7963,184,264,-348
2,5123767,571,635,-2649,-225,-275,-7963,184,264,-348
2,5123782,574,634,-2646,-228,-272,-7961,184,264,-348
2,5123798,571,640,-2646,-230,-271,-7961,184,264,-348
2,5123811,575,642,-2645,-231,-271,-7966,181,259,-343
2,5123825,575,642,-2645,-231,-271,-7966,181,259,-343
2,5123838,573,656,-2645,-226,-268,-7964,181,259,-343
2,5123851,578,637,-2646,-227,-279,-7968,181,259,-343
2,5123864,578,637,-2646,-227,-279,-7968,181,259,-343
2,5123877,573,642,-2645,-235,-278,-7972,181,259,-343
2,5123891,575,642,-2644,-238,-274,-7970,181,259,-343
2,5123904,575,642,-2644,-238,-274,-7970,181,259,-343
2,5123919,573,630,-2641,-225,-265,-7969,181,259,-343
2,5123934,577,633,-2650,-226,-266,-7968,181,259,-343
2,5123946,577,633,-2650,-226,-266,-7968,181,259,-343
2,5123959,573,625,-2634,-232,-278,-7968,172,268,-344
2,5123974,575,628,-2648,-227,-280,-7970,172,268,-344
2,5123987,575,628,-2648,-227,-280,-7970,172,268,-344
2,5124000,574,620,-2644,-229,-277,-7964,172,268,-344
2,5124009,574,620,-2644,-229,-277,-7964,172,268,-344
2,5124023,576,631,-2647,-233,-274,-7964,172,268,-344
2,5124037,577,626,-2648,-232,-270,-7964,172,268,-344
2,5124052,571,628,-2652,-227,-274,-7965,172,268,-344
2,5124068,571,628,-2652,-227,-274,-7965,172,268,-344
2,5124076,573,631,-2644,-236,-269,-7965,165,247,-353
2,5124084,573,631,-2644,-236,-269,-7965,165,247,-353
2,5124097,570,636,-2641,-228,-271,-7966,165,247,-353
2,5124111,572,632,-2651,-223,-277,-7964,165,247,-353
2,5124126,572,632,-2651,-223,-277,-7964,165,247,-353
2,5124141,576,638,-2647,-223,-276,-7966,165,247,-353
2,5124151,572,633,-2647,-226,-276,-7963,165,247,-353
2,5124164,572,633,-2647,-226,-276,-7963,165,247,-353
2,5124177,577,638,-2640,-227,-270,-7967,165,247,-353
2,5124191,571,634,-2642,-222,-274,-7973,158,242,-350
2,5124204,571,634,-2642,-222,-274,-7973,158,242,-350
2,5124215,568,632,-2642,-223,-267,-7962,158,242,-350
2,5124230,571,628,-2652,-226,-267,-7957,158,242,-350
2,5124244,571,628,-2652,-226,-267,-7957,158,242,-350
2,5124257,571,625,-2641,-229,-268,-7956,158,242,-350
2,5124272,571,624,-2644,-227,-275,-7959,158,242,-350
2,5124288,571,624,-2644,-227,-275,-7959,158,242,-350
2,5124302,575,624,-2646,-226,-265,-7962,158,242,-350
2,5124318,573,632,-2643,-230,-278,-7962,151,233,-351
2,5124331,567,635,-2647,-225,-274,-7963,151,233,-351
2,5124345,567,635,-2647,-225,-274,-7963,151,233,-351
2,5124357,571,634,-2647,-229,-271,-7968,151,233,-351
2,5124367,571,634,-2647,-229,-271,-7968,151,233,-351
2,5124378,569,645,-2649,-232,-274,-7965,151,233,-351
2,5124392,571,658,-2647,-232,-274,-7962,151,233,-351
2,5124406,571,658,-2647,-232,-274,-7962,151,233,-351
2,5124418,576,642,-2644,-232,-276,-7958,151,233,-351
2,5124432,569,644,-2649,-232,-278,-7975,148,228,-360
2,5124446,569,644,-2649,-232,-278,-7975,148,228,-360
2,5124459,572,646,-2644,-232,-266,-7962,148,228,-360
2,5124472,571,654,-2640,-227,-273,-7975,148,228,-360
2,5124485,571,654,-2640,-227,-273,-7975,148,228,-360
2,5124497,574,642,-2645,-225,-273,-7972,148,228,-360
2,5124510,572,631,-2648,-233,-269,-7966,148,228,-360
2,5124524,572,631,-2648,-233,-269,-7966,148,228,-360
2,5124535,577,631,-2649,-228,-269,-7965,148,228,-360
2,5124549,577,631,-2649,-228,-269,-7965,148,228,-360
2,5124563,574,620,-2643,-220,-278,-7970,148,228,-360
2,5124579,575,634,-2643,-222,-275,-7971,144,212,-360
2,5124593,573,621,-2644,-230,-272,-7965,144,212,-360
2,5124604,573,621,-2644,-230,-272,-7965,144,212,-360
2,5124620,568,621,-2642,-232,-277,-7966,144,212,-360
2,5124633,573,624,-2647,-229,-273,-7962,144,212,-360
2,5124646,573,624,-2647,-229,-273,-7962,144,212,-360
2,5124660,565,640,-2641,-228,-272,-7961,144,212,-360
2,5124674,573,633,-2646,-237,-275,-7969,144,212,-360
2,5124688,573,633,-2646,-237,-275,-7969,144,212,-360
2,5124702,573,629,-2638,-235,-280,-7966,132,212,-366
2,5124715,576,629,-2646,-227,-274,-7961,132,212,-366
2,5124730,577,648,-2646,-230,-270,-7969,132,212,-366
2,5124744,577,648,-2646,-230,-270,-7969,132,212,-366
2,5124758,571,639,-2650,-228,-273,-7962,132,212,-366
2,5124772,573,635,-2648,-226,-271,-7972,132,212,-366
2,5124785,573,635,-2648,-226,-271,-7972,132,212,-366
2,5124799,570,633,-2649,-229,-263,-7968,132,212,-366
2,5124814,571,633,-2639,-221,-268,-7969,124,202,-372
2,5124830,571,633,-2639,-221,-268,-7969,124,202,-372
2,5124841,572,635,-2641,-235,-275,-7965,124,202,-372
2,5124849,572,635,-2641,-235,-275,-7965,124,202,-372
2,5124858,572,624,-2640,-225,-276,-7964,124,202,-372
2,5124872,576,631,-2645,-230,-279,-7966,124,202,-372
2,5124887,576,631,-2645,-230,-279,-7966,124,202,-372
2,5124900,571,626,-2651,-232,-283,-7960,124,202,-372
2,5124914,571,633,-2645,-231,-275,-7968,124,202,-372
2,5124928,571,633,-2645,-231,-275,-7968,124,202,-372
2,5124940,567,631,-2653,-230,-276,-7968,114,208,-372
2,5124956,573,638,-2643,-224,-283,-7964,114,208,-372
2,5124969,573,638,-2643,-224,-283,-7964,114,208,-372
2,5124982,565,648,-2644,-226,-275,-7964,114,208,-372
2,5124996,573,654,-2644,-228,-272,-7966,114,208,-372
2,5125010,573,654,-2644,-228,-272,-7966,114,208,-372
2,5125022,569,638,-2645,-233,-280,-7968,114,208,-372
2,5125035,577,648,-2647,-229,-266,-7962,114,208,-372
2,5125050,577,648,-2647,-229,-266,-7962,114,208,-372
2,5125065,573,652,-2644,-225,-275,-7963,115,193,-373
2,5125081,575,653,-2639,-224,-272,-7967,115,193,-373
2,5125093,575,643,-2648,-234,-275,-7963,115,193,-373
2,5125106,575,643,-2648,-234,-275,-7963,115,193,-373
2,5125121,574,627,-2640,-230,-276,-7966,115,193,-373
2,5125134,578,629,-2647,-234,-277,-7972,115,193,-373
2,5125147,578,629,-2647,-234,-277,-7972,115,193,-373
2,5125160,577,624,-2647,-226,-266,-7969,115,193,-373
2,5125177,571,628,-2644,-234,-274,-7967,115,193,-373
2,5125189,571,628,-2644,-234,-274,-7967,115,193,-373
2,5125202,573,621,-2643,-228,-270,-7964,101,199,-373
2,5125217,571,624,-2640,-230,-274,-7966,101,199,-373
2,5125230,575,632,-2645,-232,-273,-7963,101,199,-373
2,5125243,575,632,-2645,-232,-273,-7963,101,199,-373
2,5125258,575,640,-2646,-231,-270,-7966,101,199,-373
2,5125274,575,634,-2649,-234,-280,-7966,101,199,-373
2,5125288,575,634,-2649,-234,-280,-7966,101,199,-373
2,5125302,574,635,-2649,-232,-269,-7967,101,199,-373
2,5125314,575,636,-2644,-234,-270,-7960,94,194,-370
2,5125325,575,636,-2644,-234,-270,-7960,94,194,-370
2,5125339,575,646,-2645,-230,-273,-7960,94,194,-370
2,5125353,574,627,-2644,-225,-279,-7959,94,194,-370
2,5125366,574,627,-2644,-225,-279,-7959,94,194,-370
2,5125381,574,635,-2644,-228,-272,-7967,94,194,-370
2,5125395,576,632,-2647,-226,-272,-7957,94,194,-370
2,5125406,576,632,-2647,-226,-272,-7957,94,194,-370
2,5125421,575,636,-2649,-227,-280,-7960,94,194,-370
2,5125436,582,627,-2645,-228,-273,-7955,87,191,-375
2,5125449,582,627,-2645,-228,-273,-7955,87,191,-375
2,5125464,571,623,-2644,-229,-267,-7963,87,191,-375
2,5125478,578,630,-2649,-228,-261,-7965,87,191,-375
2,5125493,573,628,-2644,-225,-268,-7967,87,191,-375
2,5125508,573,628,-2644,-225,-268,-7967,87,191,-375
2,5125522,577,631,-2646,-225,-278,-7960,87,191,-375
2,5125535,570,627,-2650,-232,-275,-7966,87,191,-375
2,5125550,570,627,-2650,-232,-275,-7966,87,191,-375
2,5125562,574,630,-2642,-231,-278,-7971,86,192,-378
2,5125573,570,633,-2636,-234,-274,-7968,86,192,-378
2,5125586,570,633,-2636,-234,-274,-7968,86,192,-378
2,5125601,571,646,-2643,-236,-276,-7965,86,192,-378
2,5125614,571,646,-2643,-236,-276,-7965,86,192,-378
2,5125625,571,646,-2643,-236,-276,-7965,86,192,-378
2,5125639,573,645,-2648,-230,-270,-7975,86,192,-378
2,5125653,573,645,-2650,-233,-268,-7972,86,192,-378
2,5125664,573,645,-2650,-233,-268,-7972,86,192,-378
2,5125680,579,650,-2650,-236,-272,-7970,87,201,-369
2,5125695,580,639,-2645,-225,-267,-7967,87,201,-369
2,5125708,580,639,-2645,-225,-267,-7967,87,201,-369
2,5125722,577,622,-2643,-231,-265,-7969,87,201,-369
2,5125736,573,628,-2649,-229,-271,-7975,87,201,-369
2,5125751,575,628,-2648,-227,-271,-7968,87,201,-369
2,5125766,575,628,-2648,-227,-271,-7968,87,201,-369
2,5125777,572,621,-2645,-229,-262,-7973,87,201,-369
2,5125791,575,620,-2651,-233,-264,-7963,87,201,-369
2,5125805,575,620,-2651,-233,-264,-7963,87,201,-369
2,5125819,573,625,-2642,-229,-279,-7966,69,201,-375
2,5125832,575,630,-2643,-225,-277,-7970,69,201,-375
2,5125847,575,630,-2643,-225,-277,-7970,69,201,-375
2,5125859,573,629,-2650,-231,-282,-7970,69,201,-375
2,5125872,576,636,-2648,-230,-274,-7968,69,201,-375
2,5125885,576,636,-2648,-230,-274,-7968,69,201,-375
2,5125900,578,627,-2648,-233,-273,-7958,69,201,-375
2,5125914,570,635,-2643,-232,-269,-7961,69,201,-375
2,5125928,570,635,-2643,-232,-269,-7961,69,201,-375
2,5125943,575,636,-2641,-233,-266,-7965,80,202,-374
2,5125956,568,633,-2641,-228,-265,-7969,80,202,-374
2,5125970,568,633,-2641,-228,-265,-7969,80,202,-374
2,5125985,574,624,-2642,-230,-272,-7968,80,202,-374
2,5125996,569,625,-2641,-228,-274,-7965,80,202,-374
2,5126010,569,625,-2641,-228,-274,-7965,80,202,-374
2,5126026,578,626,-2643,-228,-282,-7966,80,202,-374
2,5126039,575,629,-2650,-232,-279,-7963,80,202,-374
2,5126053,572,625,-2646,-228,-275,-7967,73,211,-365
2,5126067,572,625,-2646,-228,-275,-7967,73,211,-365
2,5126081,573,628,-2645,-231,-272,-7967,73,211,-365
2,5126093,568,629,-2649,-232,-273,-7963,73,211,-365
2,5126107,568,629,-2649,-232,-273,-7963,73,211,-365
2,5126120,569,629,-2639,-223,-277,-7963,73,211,-365
2,5126134,570,628,-2646,-228,-269,-7968,73,211,-365
2,5126149,570,628,-2646,-228,-269,-7968,73,211,-365
2,5126162,569,626,-2645,-232,-269,-7961,73,211,-365
2,5126174,566,642,-2645,-231,-274,-7961,76,212,-362
2,5126190,566,642,-2645,-231,-274,-7961,76,212,-362
2,5126204,571,660,-2647,-224,-278,-7966,76,212,-362
2,5126216,572,648,-2647,-220,-267,-7964,76,212,-362
2,5126231,572,648,-2647,-220,-267,-7964,76,212,-362
2,5126246,573,649,-2652,-234,-273,-7969,76,212,-362
2,5126260,570,660,-2646,-225,-268,-7968,76,212,-362
2,5126274,574,645,-2642,-220,-269,-7970,76,212,-362
2,5126288,574,645,-2642,-220,-269,-7970,76,212,-362
2,5126301,575,645,-2647,-227,-276,-7971,80,216,-374
2,5126316,574,622,-2644,-231,-270,-7968,80,216,-374
2,5126329,574,622,-2644,-231,-270,-7968,80,216,-374
2,5126342,571,629,-2641,-230,-269,-7971,80,216,-374
2,5126355,577,620,-2648,-224,-276,-7974,80,216,-374
2,5126369,577,620,-2648,-224,-276,-7974,80,216,-374
2,5126383,570,633,-2644,-226,-275,-7971,80,216,-374
2,5126395,576,625,-2645,-230,-262,-7959,80,216,-374
2,5126409,576,625,-2645,-230,-262,-7959,80,216,-374
2,5126423,571,625,-2642,-227,-269,-7966,80,216,-374
2,5126438,578,631,-2640,-224,-268,-7969,73,223,-373
2,5126452,570,634,-2641,-230,-267,-7964,73,223,-373
2,5126467,570,634,-2641,-230,-267,-7964,73,223,-373
2,5126482,573,631,-2642,-229,-277,-7966,73,223,-373
2,5126497,569,626,-2648,-236,-273,-7967,73,223,-373
2,5126512,570,633,-2645,-232,-274,-7967,73,223,-373
2,5126525,570,633,-2645,-232,-274,-7967,73,223,-373
2,5126540,573,637,-2642,-228,-270,-7969,73,223,-373
2,5126553,572,632,-2643,-237,-275,-7963,80,222,-372
2,5126564,572,632,-2643,-237,-275,-7963,80,222,-372
2,5126578,573,626,-2646,-232,-276,-7967,80,222,-372
2,5126592,573,626,-2646,-232,-276,-7967,80,222,-372
2,5126605,576,634,-2643,-225,-274,-7965,80,222,-372
2,5126619,574,633,-2644,-226,-272,-7964,80,222,-372
2,5126630,574,633,-2644,-226,-272,-7964,80,222,-372
2,5126643,576,637,-2644,-235,-274,-7970,80,222,-372
2,5126657,573,624,-2649,-227,-272,-7971,80,222,-372
2,5126668,573,624,-2649,-227,-272,-7971,80,222,-372
2,5126682,574,627,-2641,-225,-271,-7971,74,238,-368
2,5126695,571,623,-2647,-221,-268,-7969,74,238,-368
2,5126705,571,623,-2647,-221,-268,-7969,74,238,-368
2,5126713,572,622,-2642,-230,-277,-7960,74,238,-368
2,5126721,572,622,-2642,-230,-277,-7960,74,238,-368
2,5126733,571,626,-2646,-233,-279,-7956,74,238,-368
2,5126749,571,626,-2646,-233,-279,-7956,74,238,-368
2,5126764,570,629,-2645,-222,-276,-7960,74,238,-368
2,5126777,569,633,-2646,-221,-280,-7968,74,238,-368
2,5126791,569,633,-2646,-221,-280,-7968,74,238,-368
2,5126803,567,660,-2641,-223,-276,-7964,79,241,-371
2,5126814,574,652,-2644,-231,-273,-7956,79,241,-371
2,5126821,574,652,-2644,-231,-273,-7956,79,241,-371
2,5126831,574,652,-2644,-231,-273,-7956,79,241,-371
2,5126839,570,652,-2640,-231,-271,-7960,79,241,-371
2,5126847,570,652,-2640,-231,-271,-7960,79,241,-371
2,5126853,575,643,-2641,-229,-272,-7966,79,241,-371
2,5126859,575,643,-2641,-229,-272,-7966,79,241,-371
2,5126864,575,643,-2641,-229,-272,-7966,79,241,-371
2,5126871,575,643,-2641,-229,-272,-7966,79,241,-371
2,5126878,572,650,-2641,-229,-265,-7972,79,241,-371
2,5126883,572,650,-2641,-229,-265,-7972,79,241,-371
2,5126889,572,650,-2641,-229,-265,-7972,79,241,-371
2,5126895,581,639,-2645,-228,-265,-7968,79,241,-371
2,5126901,581,639,-2645,-228,-265,-7968,79,241,-371
2,5126907,581,639,-2645,-228,-265,-7968,79,241,-371
2,5126914,573,624,-2643,-231,-261,-7971,75,257,-369
2,5126920,573,624,-2643,-231,-261,-7971,75,257,-369
2,5126926,573,624,-2643,-231,-261,-7971,75,257,-369
2,5126932,573,624,-2643,-231,-261,-7971,75,257,-369
2,5126937,578,627,-2639,-225,-266,-7974,75,257,-369
2,5126943,578,627,-2639,-225,-266,-7974,75,257,-369
2,5126949,578,627,-2639,-225,-266,-7974,75,257,-369
2,5126956,573,627,-2649,-237,-273,-7972,75,257,-369
2,5126963,573,627,-2649,-237,-273,-7972,75,257,-369
2,5126970,573,627,-2649,-237,-273,-7972,75,257,-369
2,5126976,573,632,-2642,-227,-274,-7971,75,257,-369
2,5126984,573,632,-2642,-227,-274,-7971,75,257,-369
2,5126991,573,632,-2642,-227,-274,-7971,75,257,-369
2,5126999,575,628,-2656,-233,-271,-7972,75,257,-369
2,5127008,575,628,-2656,-233,-271,-7972,75,257,-369
2,5127016,577,621,-2645,-229,-271,-7964,75,257,-369
2,5127025,577,621,-2645,-229,-271,-7964,75,257,-369
2,5127034,576,627,-2648,-231,-276,-7965,75,257,-369
2,5127043,576,627,-2648,-231,-276,-7965,75,257,-369
2,5127052,576,627,-2648,-231,-276,-7965,75,257,-369
2,5127060,571,633,-2641,-228,-280,-7959,70,258,-380
2,5127068,571,633,-2641,-228,-280,-7959,70,258,-380
2,5127076,573,634,-2642,-227,-273,-7964,70,258,-380
2,5127085,573,634,-2642,-227,-273,-7964,70,258,-380
2,5127094,572,625,-2642,-225,-274,-7959,70,258,-380
2,5127102,572,625,-2642,-225,-274,-7959,70,258,-380
2,5127110,572,625,-2642,-225,-274,-7959,70,258,-380
2,5127119,573,629,-2641,-224,-281,-7964,70,258,-380
2,5127129,573,629,-2641,-224,-281,-7964,70,258,-380
2,5127142,576,634,-2647,-226,-281,-7967,70,258,-380
2,5127156,573,632,-2645,-227,-279,-7966,70,258,-380
2,5127169,573,632,-2645,-227,-279,-7966,70,258,-380
2,5127180,576,625,-2641,-227,-272,-7969,79,265,-377
2,5127195,574,631,-2645,-225,-279,-7968,79,265,-377
2,5127211,574,631,-2645,-225,-279,-7968,79,265,-377
2,5127226,571,627,-2645,-227,-272,-7967,79,265,-377
2,5127238,569,632,-2640,-232,-273,-7962,79,265,-377
2,5127252,569,632,-2640,-232,-273,-7962,79,265,-377
2,5127267,571,624,-2650,-232,-270,-7961,79,265,-377
2,5127280,574,618,-2639,-223,-279,-7955,79,265,-377
2,5127294,572,617,-2637,-225,-268,-7970,88,280,-368
2,5127309,572,617,-2637,-225,-268,-7970,88,280,-368
2,5127321,572,623,-2641,-225,-271,-7965,88,280,-368
2,5127335,573,627,-2648,-228,-276,-7961,88,280,-368
2,5127349,573,627,-2648,-228,-276,-7961,88,280,-368
2,5127363,571,628,-2647,-230,-275,-7964,88,280,-368
2,5127376,569,644,-2649,-232,-265,-7965,88,280,-368
2,5127390,569,644,-2649,-232,-265,-7965,88,280,-368
2,5127405,569,665,-2647,-225,-271,-7959,88,280,-368
2,5127419,571,651,-2640,-226,-271,-7961,98,286,-376
2,5127432,571,651,-2640,-226,-271,-7961,98,286,-376
2,5127446,570,641,-2647,-232,-281,-7964,98,286,-376
2,5127461,573,650,-2644,-230,-279,-7972,98,286,-376
2,5127477,570,637,-2641,-224,-278,-7976,98,286,-376
2,5127488,570,637,-2641,-224,-278,-7976,98,286,-376
2,5127503,577,642,-2648,-230,-277,-7975,98,286,-376
2,5127518,575,621,-2642,-228,-268,-7971,98,286,-376
2,5127532,575,621,-2642,-228,-268,-7971,98,286,-376
2,5127545,574,629,-2640,-217,-266,-7967,111,287,-355
2,5127559,573,628,-2638,-222,-266,-7963,111,287,-355
2,5127572,573,628,-2638,-222,-266,-7963,111,287,-355
2,5127587,575,632,-2639,-229,-271,-7961,111,287,-355
2,5127601,574,625,-2646,-235,-266,-7967,111,287,-355
2,5127614,574,623,-2640,-230,-270,-7967,111,287,-355
2,5127628,574,623,-2640,-230,-270,-7967,111,287,-355
2,5127642,572,626,-2644,-227,-278,-7961,111,287,-355
2,5127657,571,635,-2642,-230,-277,-7962,111,287,-355
2,5127671,571,635,-2642,-230,-277,-7962,111,287,-355
2,5127686,573,631,-2642,-233,-280,-7971,111,287,-355
2,5127699,573,628,-2646,-239,-278,-7969,111,287,-355
2,5127714,568,629,-2638,-230,-269,-7968,111,287,-355
2,5127729,568,629,-2638,-230,-269,-7968,111,287,-355
2,5127743,570,635,-2644,-226,-265,-7966,111,287,-355
2,5127754,574,636,-2645,-229,-272,-7968,111,287,-355
2,5127770,574,636,-2645,-229,-272,-7968,111,287,-355
2,5127783,577,628,-2642,-220,-270,-7962,111,287,-355
2,5127797,575,632,-2642,-220,-267,-7971,138,306,-364
2,5127812,575,632,-2642,-220,-267,-7971,138,306,-364
2,5127826,569,630,-2648,-234,-275,-7970,138,306,-364
2,5127837,575,636,-2641,-225,-272,-7974,138,306,-364
2,5127849,575,636,-2641,-225,-272,-7974,138,306,-364
2,5127863,572,620,-2645,-229,-276,-7958,138,306,-364
2,5127871,572,620,-2645,-229,-276,-7958,138,306,-364
2,5127885,573,617,-2642,-228,-278,-7971,138,306,-364
2,5127899,571,623,-2645,-232,-277,-7963,138,306,-364
2,5127914,574,627,-2639,-231,-268,-7960,135,305,-361
2,5127929,574,627,-2639,-231,-268,-7960,135,305,-361
2,5127943,570,630,-2639,-232,-277,-7962,135,305,-361
2,5127955,570,631,-2641,-232,-275,-7958,135,305,-361
2,5127970,570,631,-2641,-232,-275,-7958,135,305,-361
2,5127985,573,631,-2644,-231,-269,-7963,135,305,-361
2,5127997,570,651,-2645,-230,-270,-7962,135,305,-361
2,5128010,570,651,-2645,-230,-270,-7962,135,305,-361
2,5128026,573,653,-2643,-228,-272,-7955,135,305,-361
2,5128037,570,648,-2648,-235,-270,-7960,143,313,-361
2,5128050,570,648,-2648,-235,-270,-7960,143,313,-361
2,5128064,573,646,-2643,-225,-274,-7963,143,313,-361
2,5128078,566,644,-2643,-225,-284,-7975,143,313,-361
2,5128092,566,644,-2643,-225,-284,-7975,143,313,-361
2,5128108,576,643,-2638,-223,-272,-7971,143,313,-361
2,5128123,573,632,-2645,-226,-273,-7967,143,313,-361
2,5128136,576,630,-2642,-227,-274,-7966,143,313,-361
2,5128145,576,630,-2642,-227,-274,-7966,143,313,-361
2,5128155,575,630,-2646,-232,-278,-7968,154,314,-354
2,5128163,575,630,-2646,-232,-278,-7968,154,314,-354
2,5128172,575,630,-2646,-232,-278,-7968,154,314,-354
2,5128180,574,626,-2646,-232,-277,-7975,154,314,-354
2,5128190,574,626,-2646,-232,-277,-7975,154,314,-354
2,5128199,574,634,-2645,-232,-265,-7968,154,314,-354
2,5128208,574,634,-2645,-232,-265,-7968,154,314,-354
2,5128216,572,627,-2646,-232,-268,-7965,154,314,-354
2,5128225,572,627,-2646,-232,-268,-7965,154,314,-354
2,5128233,571,630,-2646,-223,-274,-7968,154,314,-354
2,5128242,571,630,-2646,-223,-274,-7968,154,314,-354
2,5128251,571,630,-2646,-223,-274,-7968,154,314,-354
2,5128260,567,632,-2643,-232,-280,-7966,154,314,-354
2,5128270,567,632,-2643,-232,-280,-7966,154,314,-354
2,5128279,570,636,-2636,-234,-269,-7958,162,306,-360
2,5128289,570,636,-2636,-234,-269,-7958,162,306,-360
2,5128297,572,636,-2642,-230,-271,-7964,162,306,-360
2,5128305,572,636,-2642,-230,-271,-7964,162,306,-360
2,5128315,575,636,-2644,-229,-269,-7967,162,306,-360
2,5128323,575,636,-2644,-229,-269,-7967,162,306,-360
2,5128332,575,636,-2644,-229,-269,-7967,162,306,-360
2,5128341,576,638,-2647,-229,-274,-7973,162,306,-360
2,5128349,576,638,-2647,-229,-274,-7973,162,306,-360
2,5128358,578,645,-2651,-223,-277,-7976,162,306,-360
2,5128367,578,645,-2651,-223,-277,-7976,162,306,-360
2,5128375,575,637,-2644,-230,-267,-7970,162,306,-360
2,5128384,575,637,-2644,-230,-267,-7970,162,306,-360
2,5128391,575,637,-2644,-230,-267,-7970,162,306,-360
2,5128399,575,633,-2648,-229,-264,-7966,162,306,-360
2,5128410,575,633,-2648,-229,-264,-7966,162,306,-360
2,5128418,576,625,-2639,-232,-267,-7969,159,305,-369
2,5128426,576,625,-2639,-232,-267,-7969,159,305,-369
2,5128434,572,632,-2640,-225,-269,-7975,159,305,-369
2,5128442,572,632,-2640,-225,-269,-7975,159,305,-369
2,5128452,572,632,-2640,-225,-269,-7975,159,305,-369
2,5128460,578,623,-2644,-229,-272,-7966,159,305,-369
2,5128469,578,623,-2644,-229,-272,-7966,159,305,-369
2,5128478,573,627,-2639,-229,-270,-7963,159,305,-369
2,5128487,573,627,-2639,-229,-270,-7963,159,305,-369
2,5128496,573,622,-2648,-231,-276,-7971,159,305,-369
2,5128505,573,622,-2648,-231,-276,-7971,159,305,-369
2,5128515,573,627,-2642,-229,-277,-7968,159,305,-369
2,5128523,573,627,-2642,-229,-277,-7968,159,305,-369
2,5128534,573,627,-2642,-229,-277,-7968,159,305,-369
2,5128541,577,631,-2644,-235,-277,-7968,172,310,-344
2,5128550,577,631,-2644,-235,-277,-7968,172,310,-344
2,5128558,572,636,-2647,-232,-276,-7962,172,310,-344
2,5128565,572,636,-2647,-232,-276,-7962,172,310,-344
2,5128574,579,633,-2647,-226,-273,-7961,172,310,-344
2,5128583,579,633,-2647,-226,-273,-7961,172,310,-344
2,5128592,579,633,-2647,-226,-273,-7961,172,310,-344
2,5128601,573,646,-2646,-230,-271,-7961,172,310,-344
2,5128611,573,646,-2646,-230,-271,-7961,172,310,-344
2,5128620,574,642,-2643,-225,-268,-7962,172,310,-344
2,5128629,574,642,-2643,-225,-268,-7962,172,310,-344
2,5128637,575,640,-2643,-228,-272,-7964,172,310,-344
2,5128646,575,640,-2643,-228,-272,-7964,172,310,-344
2,5128655,574,647,-2642,-234,-270,-7969,169,307,-353
2,5128664,574,647,-2642,-234,-270,-7969,169,307,-353
2,5128672,574,647,-2642,-234,-270,-7969,169,307,-353
2,5128681,574,636,-2646,-225,-265,-7970,169,307,-353
2,5128688,574,636,-2646,-225,-265,-7970,169,307,-353
2,5128697,577,639,-2644,-230,-269,-7972,169,307,-353
2,5128708,577,639,-2644,-230,-269,-7972,169,307,-353
2,5128716,578,629,-2647,-230,-273,-7978,169,307,-353
2,5128725,578,629,-2647,-230,-273,-7978,169,307,-353
2,5128733,578,629,-2647,-230,-273,-7978,169,307,-353
2,5128741,578,629,-2650,-234,-275,-7973,169,307,-353
2,5128751,578,629,-2650,-234,-275,-7973,169,307,-353
2,5128759,581,622,-2645,-232,-270,-7968,169,307,-353
2,5128768,581,622,-2645,-232,-270,-7968,169,307,-353
2,5128775,578,620,-2637,-231,-268,-7966,176,312,-346
2,5128785,578,620,-2637,-231,-268,-7966,176,312,-346
2,5128794,578,620,-2637,-231,-268,-7966,176,312,-346
2,5128802,576,620,-2646,-231,-267,-7970,176,312,-346
2,5128811,576,620,-2646,-231,-267,-7970,176,312,-346
2,5128819,570,618,-2641,-225,-265,-7965,176,312,-346
2,5128827,570,618,-2641,-225,-265,-7965,176,312,-346
2,5128837,572,624,-2645,-225,-266,-7967,176,312,-346
2,5128845,572,624,-2645,-225,-266,-7967,176,312,-346
2,5128853,572,624,-2645,-225,-266,-7967,176,312,-346
2,5128864,572,630,-2645,-230,-272,-7966,176,312,-346
2,5128872,572,630,-2645,-230,-272,-7966,176,312,-346
2,5128881,577,626,-2648,-232,-273,-7964,176,312,-346
2,5128891,577,626,-2648,-232,-273,-7964,176,312,-346
2,5128898,575,627,-2642,-224,-267,-7966,171,301,-335
2,5128906,575,627,-2642,-224,-267,-7966,171,301,-335
2,5128914,574,627,-2643,-227,-277,-7969,171,301,-335
2,5128924,574,627,-2643,-227,-277,-7969,171,301,-335
2,5128933,574,627,-2643,-227,-277,-7969,171,301,-335
2,5128942,575,633,-2644,-229,-269,-7972,171,301,-335
2,5128950,575,633,-2644,-229,-269,-7972,171,301,-335
2,5128960,574,632,-2646,-228,-273,-7967,171,301,-335
2,5128968,574,632,-2646,-228,-273,-7967,171,301,-335
2,5128974,572,624,-2646,-224,-266,-7965,171,301,-335
2,5128980,572,624,-2646,-224,-266,-7965,171,301,-335
2,5128989,572,624,-2646,-224,-266,-7965,171,301,-335
2,5128997,571,624,-2641,-226,-272,-7967,171,301,-335
2,5129006,571,624,-2641,-226,-272,-7967,171,301,-335
2,5129015,570,622,-2645,-231,-262,-7966,171,301,-335
2,5129025,570,622,-2645,-231,-262,-7966,171,301,-335
2,5129033,570,622,-2645,-231,-262,-7966,171,301,-335
2,5129042,571,622,-2642,-231,-277,-7965,180,308,-344
2,5129052,571,622,-2642,-231,-277,-7965,180,308,-344
2,5129060,574,621,-2642,-235,-272,-7971,180,308,-344
2,5129067,574,621,-2642,-235,-272,-7971,180,308,-344
2,5129076,575,620,-2644,-231,-264,-7965,180,308,-344
2,5129084,575,620,-2644,-231,-264,-7965,180,308,-344
2,5129094,575,620,-2644,-231,-264,-7965,180,308,-344
2,5129103,572,628,-2648,-237,-272,-7964,180,308,-344
2,5129112,572,628,-2648,-237,-272,-7964,180,308,-344
2,5129120,571,626,-2643,-236,-279,-7965,180,308,-344
2,5129128,571,626,-2643,-236,-279,-7965,180,308,-344
2,5129137,571,631,-2646,-229,-272,-7965,180,308,-344
2,5129147,571,631,-2646,-229,-272,-7965,180,308,-344
2,5129162,571,629,-2643,-231,-274,-7966,171,289,-337
2,5129175,567,640,-2640,-234,-276,-7959,171,289,-337
2,5129188,567,640,-2640,-234,-276,-7959,171,289,-337
2,5129201,566,658,-2646,-228,-279,-7958,171,289,-337
2,5129216,572,654,-2644,-228,-270,-7955,171,289,-337
2,5129229,572,654,-2644,-228,-270,-7955,171,289,-337
2,5129241,565,642,-2651,-231,-270,-7967,171,289,-337
2,5129255,576,656,-2648,-228,-273,-7964,171,289,-337
2,5129268,576,656,-2648,-228,-273,-7964,171,289,-337
2,5129281,575,650,-2638,-233,-279,-7970,185,285,-339
2,5129296,579,642,-2642,-237,-275,-7971,185,285,-339
2,5129312,579,642,-2642,-237,-275,-7971,185,285,-339
2,5129325,577,624,-2644,-235,-274,-7975,185,285,-339
2,5129339,575,628,-2646,-230,-276,-7969,185,285,-339
2,5129353,575,628,-2646,-230,-276,-7969,185,285,-339
2,5129365,577,626,-2648,-229,-270,-7975,185,285,-339
2,5129380,570,630,-2643,-238,-276,-7975,185,285,-339
2,5129392,570,630,-2643,-238,-276,-7975,185,285,-339
2,5129406,576,622,-2646,-233,-274,-7967,183,283,-337
2,5129419,567,618,-2645,-228,-270,-7965,183,283,-337
2,5129433,567,618,-2645,-228,-270,-7965,183,283,-337
2,5129444,576,626,-2642,-226,-263,-7964,183,283,-337
2,5129457,571,636,-2649,-224,-269,-7962,183,283,-337
2,5129472,571,636,-2649,-224,-269,-7962,183,283,-337
2,5129486,576,639,-2646,-219,-266,-7967,183,283,-337
2,5129498,575,629,-2648,-229,-272,-7967,183,283,-337
2,5129513,575,629,-2648,-229,-272,-7967,183,283,-337
2,5129529,575,640,-2645,-225,-271,-7972,185,273,-347
2,5129544,573,631,-2644,-228,-269,-7971,185,273,-347
2,5129558,570,637,-2642,-228,-276,-7967,185,273,-347
2,5129572,570,637,-2642,-228,-276,-7967,185,273,-347
2,5129586,577,619,-2642,-228,-272,-7967,185,273,-347
2,5129598,574,632,-2643,-220,-266,-7966,185,273,-347
2,5129613,574,632,-2643,-220,-266,-7966,185,273,-347
2,5129626,575,622,-2645,-226,-273,-7974,185,273,-347
2,5129634,575,622,-2645,-226,-273,-7974,185,273,-347
2,5129645,576,628,-2646,-231,-265,-7971,185,273,-347
2,5129659,579,622,-2642,-234,-270,-7969,190,262,-346
2,5129674,579,622,-2642,-234,-270,-7969,190,262,-346
2,5129687,571,622,-2644,-225,-271,-7976,190,262,-346
2,5129701,571,625,-2647,-226,-271,-7970,190,262,-346
2,5129716,573,623,-2639,-222,-274,-7960,190,262,-346
2,5129732,573,623,-2639,-222,-274,-7960,190,262,-346
2,5129747,572,626,-2641,-224,-273,-7970,190,262,-346
2,5129760,573,623,-2649,-230,-273,-7970,190,262,-346
2,5129774,573,623,-2649,-230,-273,-7970,190,262,-346
2,5129787,571,631,-2645,-231,-268,-7963,188,262,-338
2,5129798,569,654,-2647,-230,-266,-7964,188,262,-338
2,5129811,569,654,-2647,-230,-266,-7964,188,262,-338
2,5129825,570,647,-2641,-226,-269,-7960,188,262,-338
2,5129840,572,644,-2652,-232,-277,-7961,188,262,-338
2,5129853,572,644,-2652,-232,-277,-7961,188,262,-338
2,5129867,572,647,-2654,-229,-273,-7961,188,262,-338
2,5129878,578,639,-2647,-232,-267,-7961,188,262,-338
2,5129892,578,639,-2647,-232,-267,-7961,188,262,-338
2,5129906,575,634,-2636,-233,-272,-7962,178,256,-342
2,5129919,574,621,-2639,-227,-272,-7965,178,256,-342
2,5129935,572,621,-2641,-222,-267,-7974,178,256,-342
2,5129951,572,621,-2641,-222,-267,-7974,178,256,-342
2,5129966,573,627,-2646,-232,-272,-7969,178,256,-342
2,5129984,569,624,-2640,-231,-273,-7965,178,256,-342
2,5129998,576,626,-2648,-233,-276,-7967,178,256,-342
2,5130011,576,626,-2648,-233,-276,-7967,178,256,-342
2,5130025,571,620,-2642,-238,-275,-7966,173,251,-355
2,5130039,575,632,-2639,-228,-277,-7965,173,251,-355
2,5130050,575,632,-2639,-228,-277,-7965,173,251,-355
2,5130063,569,634,-2641,-229,-271,-7968,173,251,-355
2,5130078,577,635,-2642,-233,-270,-7971,173,251,-355
2,5130092,577,635,-2642,-233,-270,-7971,173,251,-355
2,5130105,572,626,-2643,-234,-264,-7968,173,251,-355
2,5130120,576,628,-2648,-225,-271,-7968,173,251,-355
2,5130131,576,628,-2648,-225,-271,-7968,173,251,-355
2,5130145,570,629,-2648,-230,-270,-7964,165,239,-353
2,5130157,574,631,-2646,-231,-266,-7971,165,239,-353
2,5130166,574,631,-2646,-231,-266,-7971,165,239,-353
2,5130175,574,631,-2646,-231,-266,-7971,165,239,-353
2,5130183,570,619,-2648,-229,-270,-7958,165,239,-353
2,5130191,570,619,-2648,-229,-270,-7958,165,239,-353
2,5130201,577,631,-2648,-230,-262,-7972,165,239,-353
2,5130209,577,631,-2648,-230,-262,-7972,165,239,-353
2,5130217,572,628,-2651,-228,-271,-7964,165,239,-353
2,5130226,572,628,-2651,-228,-271,-7964,165,239,-353
2,5130236,573,629,-2642,-229,-275,-7965,165,239,-353
2,5130246,573,629,-2642,-229,-275,-7965,165,239,-353
2,5130254,573,629,-2642,-229,-275,-7965,165,239,-353
2,5130262,569,626,-2644,-229,-275,-7959,165,239,-353
2,5130270,569,626,-2644,-229,-275,-7959,165,239,-353
2,5130278,573,623,-2644,-225,-274,-7963,155,229,-355
2,5130287,573,623,-2644,-225,-274,-7963,155,229,-355
2,5130296,570,629,-2645,-232,-275,-7961,155,229,-355
2,5130305,570,629,-2645,-232,-275,-7961,155,229,-355
2,5130315,570,629,-2645,-232,-275,-7961,155,229,-355
2,5130323,570,622,-2640,-227,-272,-7954,155,229,-355
2,5130333,570,622,-2640,-227,-272,-7954,155,229,-355
2,5130341,572,624,-2639,-222,-279,-7962,155,229,-355
2,5130350,572,624,-2639,-222,-279,-7962,155,229,-355
2,5130359,571,631,-2645,-231,-267,-7960,155,229,-355
2,5130369,571,631,-2645,-231,-267,-7960,155,229,-355
2,5130377,567,653,-2647,-233,-270,-7954,155,229,-355
2,5130384,567,653,-2647,-233,-270,-7954,155,229,-355
2,5130394,567,653,-2647,-233,-270,-7954,155,229,-355
2,5130403,570,646,-2646,-227,-270,-7961,152,228,-356
2,5130413,570,646,-2646,-227,-270,-7961,152,228,-356
2,5130421,569,650,-2644,-231,-273,-7965,152,228,-356
2,5130430,569,650,-2644,-231,-273,-7965,152,228,-356
2,5130439,571,636,-2641,-227,-272,-7968,152,228,-356
2,5130449,571,636,-2641,-227,-272,-7968,152,228,-356
2,5130458,574,657,-2640,-229,-271,-7971,152,228,-356
2,5130467,574,657,-2640,-229,-271,-7971,152,228,-356
2,5130475,575,635,-2643,-221,-271,-7965,152,228,-356
2,5130484,575,635,-2643,-221,-271,-7965,152,228,-356
2,5130492,575,635,-2643,-221,-271,-7965,152,228,-356
2,5130502,575,632,-2647,-232,-269,-7970,152,228,-356
2,5130511,575,632,-2647,-232,-269,-7970,152,228,-356
2,5130520,578,617,-2644,-228,-271,-7969,137,225,-361
2,5130527,578,617,-2644,-228,-271,-7969,137,225,-361
2,5130535,567,624,-2637,-229,-275,-7967,137,225,-361
2,5130544,567,624,-2637,-229,-275,-7967,137,225,-361
2,5130553,567,624,-2637,-229,-275,-7967,137,225,-361
2,5130563,574,631,-2650,-234,-277,-7964,137,225,-361
2,5130570,574,631,-2650,-234,-277,-7964,137,225,-361
2,5130579,570,627,-2639,-226,-279,-7958,137,225,-361
2,5130588,570,627,-2639,-226,-279,-7958,137,225,-361
2,5130595,570,627,-2639,-226,-279,-7958,137,225,-361
2,5130601,579,620,-2649,-233,-270,-7965,137,225,-361
2,5130610,579,620,-2649,-233,-270,-7965,137,225,-361
2,5130618,573,619,-2648,-230,-275,-7960,137,225,-361
2,5130628,573,619,-2648,-230,-275,-7960,137,225,-361
2,5130636,570,636,-2642,-225,-275,-7973,137,225,-361
2,5130644,570,636,-2642,-225,-275,-7973,140,218,-362
2,5130652,570,636,-2642,-225,-275,-7973,140,218,-362
2,5130660,570,634,-2648,-228,-268,-7969,140,218,-362
2,5130669,570,634,-2648,-228,-268,-7969,140,218,-362
2,5130678,569,632,-2644,-226,-265,-7968,140,218,-362
2,5130686,569,632,-2644,-226,-265,-7968,140,218,-362
2,5130695,569,632,-2644,-226,-265,-7968,140,218,-362
2,5130704,572,626,-2642,-221,-270,-7967,140,218,-362
2,5130714,572,626,-2642,-221,-270,-7967,140,218,-362
2,5130722,568,638,-2643,-232,-275,-7971,140,218,-362
2,5130730,568,638,-2643,-232,-275,-7971,140,218,-362
2,5130739,574,633,-2643,-226,-271,-7968,140,218,-362
2,5130748,574,633,-2643,-226,-271,-7968,140,218,-362
2,5130757,579,629,-2648,-232,-274,-7961,127,203,-377
2,5130766,579,629,-2648,-232,-274,-7961,127,203,-377
2,5130774,579,629,-2648,-232,-274,-7961,127,203,-377
2,5130783,573,620,-2641,-234,-277,-7978,127,203,-377
2,5130792,573,620,-2641,-234,-277,-7978,127,203,-377
2,5130802,576,637,-2645,-226,-270,-7966,127,203,-377
2,5130812,576,637,-2645,-226,-270,-7966,127,203,-377
2,5130819,571,630,-2647,-226,-268,-7969,127,203,-377
2,5130828,571,630,-2647,-226,-268,-7969,127,203,-377
2,5130838,572,630,-2642,-230,-271,-7964,127,203,-377
2,5130846,572,630,-2642,-230,-271,-7964,127,203,-377
2,5130855,572,630,-2642,-230,-271,-7964,127,203,-377
2,5130864,570,621,-2650,-230,-276,-7967,127,203,-377
2,5130873,570,621,-2650,-230,-276,-7967,127,203,-377
2,5130882,573,619,-2640,-226,-277,-7967,127,203,-377
2,5130892,573,619,-2640,-226,-277,-7967,127,203,-377
2,5130901,573,623,-2645,-231,-275,-7963,124,200,-370
2,5130909,573,623,-2645,-231,-275,-7963,124,200,-370
2,5130919,568,621,-2645,-231,-278,-7966,124,200,-370
2,5130928,568,621,-2645,-231,-278,-7966,124,200,-370
2,5130937,574,626,-2648,-230,-284,-7964,124,200,-370
2,5130945,574,626,-2648,-230,-284,-7964,124,200,-370
2,5130953,574,626,-2648,-230,-284,-7964,124,200,-370
2,5130962,568,627,-2650,-233,-277,-7964,124,200,-370
2,5130972,568,627,-2650,-233,-277,-7964,124,200,-370
2,5130981,568,627,-2650,-233,-277,-7964,124,200,-370
2,5130990,568,627,-2650,-233,-277,-7964,124,200,-370
2,5130999,568,656,-2648,-230,-275,-7960,124,200,-370
2,5131008,568,656,-2648,-230,-275,-7960,124,200,-370
2,5131017,575,652,-2642,-234,-274,-7964,124,198,-374
2,5131025,575,652,-2642,-234,-274,-7964,124,198,-374
2,5131033,575,652,-2642,-234,-274,-7964,124,198,-374
2,5131042,570,631,-2646,-231,-277,-7955,124,198,-374
2,5131052,570,631,-2646,-231,-277,-7955,124,198,-374
2,5131060,576,659,-2642,-233,-272,-7963,124,198,-374
2,5131070,576,659,-2642,-233,-272,-7963,124,198,-374
2,5131080,573,634,-2641,-223,-270,-7967,124,198,-374
2,5131088,573,634,-2641,-223,-270,-7967,124,198,-374
2,5131098,574,631,-2648,-230,-270,-7969,124,198,-374
2,5131107,574,631,-2648,-230,-270,-7969,124,198,-374
2,5131115,574,631,-2648,-230,-270,-7969,124,198,-374
2,5131125,574,623,-2650,-235,-268,-7969,124,198,-374
2,5131133,574,623,-2650,-235,-268,-7969,124,198,-374
2,5131143,571,626,-2637,-232,-280,-7970,103,195,-381
2,5131152,571,626,-2637,-232,-280,-7970,103,195,-381
2,5131162,578,629,-2649,-219,-272,-7970,103,195,-381
2,5131174,578,629,-2649,-219,-272,-7970,103,195,-381
2,5131187,571,630,-2639,-232,-276,-7966,103,195,-381
2,5131200,578,628,-2651,-236,-271,-7966,103,195,-381
2,5131213,578,628,-2651,-236,-271,-7966,103,195,-381
2,5131228,573,623,-2643,-228,-264,-7967,103,195,-381
2,5131241,575,632,-2644,-223,-275,-7968,103,195,-381
2,5131255,575,632,-2644,-223,-275,-7968,103,195,-381
2,5131268,568,632,-2647,-234,-271,-7961,102,198,-374
2,5131282,573,629,-2641,-233,-268,-7964,102,198,-374
2,5131295,573,629,-2641,-233,-268,-7964,102,198,-374
2,5131311,572,621,-2641,-223,-272,-7965,102,198,-374
2,5131325,577,632,-2643,-230,-279,-7961,102,198,-374
2,5131340,572,634,-2646,-227,-288,-7964,102,198,-374
2,5131356,572,634,-2646,-227,-288,-7964,102,198,-374
2,5131370,575,642,-2649,-232,-279,-7960,102,198,-374
2,5131383,574,624,-2642,-234,-271,-7960,93,189,-377
2,5131397,577,635,-2643,-231,-271,-7969,93,189,-377
2,5131410,577,635,-2643,-231,-271,-7969,93,189,-377
2,5131426,571,627,-2645,-230,-277,-7971,93,189,-377
2,5131440,574,627,-2649,-230,-274,-7972,93,189,-377
2,5131452,574,627,-2649,-230,-274,-7972,93,189,-377
2,5131465,574,619,-2645,-238,-272,-7971,93,189,-377
2,5131478,574,621,-2645,-230,-266,-7967,93,189,-377
2,5131493,574,621,-2645,-230,-266,-7967,93,189,-377
2,5131508,570,622,-2641,-227,-271,-7970,93,189,-377
2,5131523,571,625,-2638,-230,-271,-7969,88,196,-374
2,5131536,571,625,-2638,-230,-271,-7969,88,196,-374
2,5131550,569,626,-2640,-229,-279,-7963,88,196,-374
2,5131559,571,635,-2646,-231,-279,-7962,88,196,-374
2,5131574,571,635,-2646,-231,-279,-7962,88,196,-374
2,5131589,572,644,-2646,-227,-271,-7961,88,196,-374
2,5131602,572,653,-2641,-231,-268,-7963,88,196,-374
2,5131616,572,653,-2641,-231,-268,-7963,88,196,-374
2,5131630,574,640,-2651,-221,-272,-7963,88,196,-374
2,5131641,574,632,-2643,-225,-282,-7965,78,204,-364
2,5131656,574,632,-2643,-225,-282,-7965,78,204,-364
2,5131669,572,639,-2641,-222,-267,-7971,78,204,-364
2,5131682,574,638,-2637,-224,-274,-7966,78,204,-364
2,5131697,574,638,-2637,-224,-274,-7966,78,204,-364
2,5131710,571,625,-2643,-225,-278,-7966,78,204,-364
2,5131724,573,619,-2642,-230,-269,-7969,78,204,-364
2,5131737,575,625,-2645,-223,-267,-7969,78,204,-364
2,5131752,575,625,-2645,-223,-267,-7969,78,204,-364
2,5131767,576,625,-2640,-227,-266,-7969,87,203,-375
2,5131783,575,619,-2646,-231,-270,-7961,87,203,-375
2,5131795,575,619,-2646,-231,-270,-7961,87,203,-375
2,5131810,574,621,-2647,-225,-264,-7963,87,203,-375
2,5131826,577,626,-2644,-225,-271,-7963,87,203,-375
2,5131840,568,625,-2640,-230,-282,-7956,87,203,-375
2,5131854,568,625,-2640,-230,-282,-7956,87,203,-375
2,5131868,573,627,-2646,-226,-281,-7966,87,203,-375
2,5131882,568,627,-2636,-230,-274,-7959,75,201,-363
2,5131894,568,627,-2636,-230,-274,-7959,75,201,-363
2,5131909,575,625,-2641,-227,-272,-7967,75,201,-363
2,5131922,571,634,-2639,-232,-273,-7962,75,201,-363
2,5131935,571,634,-2639,-232,-273,-7962,75,201,-363
2,5131949,573,633,-2644,-230,-273,-7964,75,201,-363
2,5131963,571,628,-2648,-227,-269,-7963,75,201,-363
2,5131978,576,623,-2649,-227,-270,-7968,75,201,-363
2,5131991,576,623,-2649,-227,-270,-7968,75,201,-363
2,5132005,569,632,-2639,-230,-271,-7965,70,204,-364
2,5132020,574,582,-2644,-231,-279,-7965,70,204,-364
2,5132036,574,582,-2644,-231,-279,-7965,70,204,-364
2,5132049,570,619,-2645,-234,-277,-7970,70,204,-364
2,5132057,575,595,-2643,-223,-273,-7965,70,204,-364
2,5132070,575,595,-2643,-223,-273,-7965,70,204,-364
2,5132086,565,608,-2643,-235,-284,-7961,70,204,-364
2,5132101,575,580,-2645,-237,-271,-7960,70,204,-364
2,5132113,575,580,-2645,-237,-271,-7960,70,204,-364
2,5132126,563,555,-2644,-230,-268,-7954,70,204,-364
2,5132140,571,547,-2647,-225,-268,-7951,70,212,-370
2,5132153,571,547,-2647,-225,-268,-7951,70,212,-370
2,5132167,557,547,-2638,-228,-270,-7956,70,212,-370
2,5132175,557,547,-2638,-228,-270,-7956,70,212,-370
2,5132183,567,551,-2651,-231,-280,-7953,70,212,-370
2,5132191,567,551,-2651,-231,-280,-7953,70,212,-370
2,5132200,551,507,-2639,-233,-272,-7942,70,212,-370
2,5132210,551,507,-2639,-233,-272,-7942,70,212,-370
2,5132219,555,517,-2650,-230,-266,-7948,70,212,-370
2,5132227,555,517,-2650,-230,-266,-7948,70,212,-370
2,5132236,555,517,-2650,-230,-266,-7948,70,212,-370
2,5132244,545,497,-2648,-223,-263,-7950,70,212,-370
2,5132254,545,497,-2648,-223,-263,-7950,70,212,-370
2,5132263,540,521,-2643,-224,-274,-7940,76,220,-370
2,5132272,540,521,-2643,-224,-274,-7940,76,220,-370
2,5132279,541,469,-2646,-228,-270,-7930,76,220,-370
2,5132295,541,469,-2646,-228,-270,-7930,76,220,-370
2,5132309,530,470,-2639,-229,-266,-7928,76,220,-370
2,5132322,532,451,-2648,-220,-283,-7911,76,220,-370
2,5132337,532,451,-2648,-220,-283,-7911,76,220,-370
2,5132350,518,455,-2642,-227,-278,-7903,76,220,-370
2,5132362,518,455,-2642,-227,-278,-7903,76,220,-370
2,5132376,518,455,-2642,-227,-278,-7903,76,220,-370
2,5132389,508,423,-2642,-233,-270,-7889,70,214,-362
2,5132403,492,416,-2647,-224,-272,-7883,70,214,-362
2,5132417,492,416,-2647,-224,-272,-7883,70,214,-362
2,5132427,490,424,-2646,-229,-264,-7880,70,214,-362
2,5132440,475,417,-2644,-227,-268,-7865,70,214,-362
2,5132454,475,417,-2644,-227,-268,-7865,70,214,-362
2,5132468,475,411,-2643,-227,-276,-7865,70,214,-362
2,5132482,457,393,-2647,-227,-265,-7852,70,214,-362
2,5132497,457,400,-2639,-223,-269,-7835,74,226,-374
2,5132510,457,400,-2639,-223,-269,-7835,74,226,-374
2,5132524,449,399,-2647,-230,-273,-7832,74,226,-374
2,5132538,435,370,-2642,-231,-279,-7817,74,226,-374
2,5132553,435,370,-2642,-231,-279,-7817,74,226,-374
2,5132566,429,365,-2646,-229,-275,-7813,74,226,-374
2,5132578,414,358,-2644,-228,-269,-7801,74,226,-374
2,5132592,414,358,-2644,-228,-269,-7801,74,226,-374
2,5132606,408,353,-2641,-232,-270,-7795,74,226,-374
2,5132619,393,331,-2648,-225,-272,-7782,82,224,-374
2,5132633,393,331,-2648,-225,-272,-7782,82,224,-374
2,5132647,384,311,-2636,-228,-280,-7770,82,224,-374
2,5132664,372,317,-2646,-229,-275,-7761,82,224,-374
2,5132680,362,315,-2637,-226,-271,-7755,82,224,-374
2,5132692,362,315,-2637,-226,-271,-7755,82,224,-374
2,5132705,352,316,-2650,-234,-280,-7733,82,224,-374
2,5132720,336,301,-2647,-233,-272,-7718,82,224,-374
2,5132734,336,301,-2647,-233,-272,-7718,82,224,-374
2,5132747,324,293,-2641,-230,-263,-7708,77,239,-383
2,5132761,310,293,-2641,-220,-269,-7690,77,239,-383
2,5132775,310,293,-2641,-220,-269,-7690,77,239,-383
2,5132790,300,289,-2636,-226,-275,-7681,77,239,-383
2,5132806,283,265,-2646,-227,-269,-7672,77,239,-383
2,5132818,276,260,-2639,-227,-272,-7664,77,239,-383
2,5132827,276,260,-2639,-227,-272,-7664,77,239,-383
2,5132840,252,248,-2649,-223,-276,-7637,77,239,-383
2,5132855,252,248,-2649,-223,-276,-7637,77,239,-383
2,5132867,248,262,-2647,-223,-275,-7628,77,239,-383
2,5132880,232,219,-2643,-226,-275,-7608,74,250,-378
2,5132894,232,219,-2643,-226,-275,-7608,74,250,-378
2,5132908,216,218,-2639,-224,-268,-7600,74,250,-378
2,5132922,205,194,-2647,-228,-269,-7582,74,250,-378
2,5132937,205,194,-2647,-228,-269,-7582,74,250,-378
2,5132951,190,201,-2641,-223,-273,-7571,74,250,-378
2,5132963,171,171,-2643,-225,-272,-7550,74,250,-378
2,5132977,171,171,-2643,-225,-272,-7550,74,250,-378
2,5132992,151,163,-2642,-232,-276,-7530,74,250,-378
2,5133006,135,158,-2637,-228,-269,-7514,72,252,-378
2,5133021,119,170,-2637,-223,-281,-7493,72,252,-378
2,5133033,119,170,-2637,-223,-281,-7493,72,252,-378
2,5133048,107,160,-2642,-227,-274,-7477,72,252,-378
2,5133064,87,157,-2646,-227,-268,-7463,72,252,-378
2,5133077,87,157,-2646,-227,-268,-7463,72,252,-378
2,5133091,69,161,-2647,-219,-267,-7441,72,252,-378
2,5133105,58,167,-2646,-219,-267,-7424,72,252,-378
2,5133120,32,161,-2642,-227,-269,-7405,72,262,-376
2,5133135,32,161,-2642,-227,-269,-7405,72,262,-376
2,5133148,18,159,-2642,-226,-270,-7391,72,262,-376
2,5133162,-2,144,-2637,-221,-269,-7365,72,262,-376
2,5133177,-2,144,-2637,-221,-269,-7365,72,262,-376
2,5133192,-19,158,-2642,-215,-260,-7347,72,262,-376
2,5133205,-32,140,-2636,-224,-268,-7338,72,262,-376
2,5133219,-52,155,-2641,-226,-264,-7315,72,262,-376
2,5133234,-52,155,-2641,-226,-264,-7315,72,262,-376
2,5133250,-61,128,-2639,-223,-271,-7288,79,271,-377
2,5133266,-85,147,-2635,-223,-270,-7277,79,271,-377
2,5133281,-94,139,-2644,-219,-266,-7260,79,271,-377
2,5133294,-94,139,-2644,-219,-266,-7260,79,271,-377
2,5133307,-116,149,-2642,-224,-264,-7238,79,271,-377
2,5133320,-132,146,-2640,-228,-272,-7224,79,271,-377
2,5133331,-132,146,-2640,-228,-272,-7224,79,271,-377
2,5133344,-154,148,-2641,-224,-265,-7202,79,271,-377
2,5133359,-170,162,-2645,-226,-266,-7193,97,275,-379
2,5133372,-170,162,-2645,-226,-266,-7193,97,275,-379
2,5133384,-184,146,-2637,-223,-261,-7175,97,275,-379
2,5133396,-184,146,-2637,-223,-261,-7175,97,275,-379
2,5133410,-202,165,-2641,-218,-260,-7155,97,275,-379
2,5133421,-210,153,-2639,-220,-260,-7138,97,275,-379
2,5133435,-210,153,-2639,-220,-260,-7138,97,275,-379
2,5133448,-234,166,-2640,-223,-269,-7127,97,275,-379
2,5133462,-241,153,-2638,-221,-260,-7103,97,275,-379
2,5133475,-241,153,-2638,-221,-260,-7103,97,275,-379
2,5133488,-267,161,-2637,-226,-263,-7087,97,275,-379
2,5133502,-275,151,-2638,-229,-266,-7073,104,296,-370
2,5133517,-275,151,-2638,-229,-266,-7073,104,296,-370
2,5133532,-297,146,-2636,-217,-273,-7059,104,296,-370
2,5133545,-311,137,-2638,-224,-270,-7038,104,296,-370
2,5133559,-328,121,-2636,-220,-266,-7021,104,296,-370
2,5133574,-328,121,-2636,-220,-266,-7021,104,296,-370
2,5133585,-342,130,-2643,-225,-260,-7004,104,296,-370
2,5133598,-354,104,-2639,-222,-264,-6985,104,296,-370
2,5133613,-354,104,-2639,-222,-264,-6985,104,296,-370
2,5133626,-375,119,-2636,-220,-270,-6969,115,297,-363
2,5133640,-388,96,-2637,-222,-267,-6943,115,297,-363
2,5133652,-388,96,-2637,-222,-267,-6943,115,297,-363
2,5133665,-406,132,-2641,-222,-275,-6929,115,297,-363
2,5133680,-420,102,-2638,-220,-274,-6911,115,297,-363
2,5133694,-420,102,-2638,-220,-274,-6911,115,297,-363
2,5133710,-442,131,-2641,-216,-265,-6884,115,297,-363
2,5133723,-457,108,-2643,-216,-262,-6873,115,297,-363
2,5133736,-457,108,-2643,-216,-262,-6873,115,297,-363
2,5133752,-474,126,-2631,-223,-265,-6856,120,304,-368
2,5133766,-486,99,-2644,-221,-274,-6835,120,304,-368
2,5133779,-502,114,-2635,-221,-275,-6818,120,304,-368
2,5133793,-502,114,-2635,-221,-275,-6818,120,304,-368
2,5133807,-516,93,-2646,-215,-264,-6808,120,304,-368
2,5133819,-533,105,-2631,-219,-260,-6783,120,304,-368
2,5133828,-533,105,-2631,-219,-260,-6783,120,304,-368
2,5133841,-549,95,-2639,-216,-270,-6767,120,304,-368
2,5133853,-549,95,-2639,-216,-270,-6767,120,304,-368
2,5133867,-571,103,-2635,-223,-269,-6744,136,312,-368
2,5133881,-579,87,-2638,-222,-264,-6734,136,312,-368
2,5133896,-579,87,-2638,-222,-264,-6734,136,312,-368
2,5133908,-604,87,-2633,-216,-267,-6707,136,312,-368
2,5133923,-617,87,-2637,-218,-264,-6684,136,312,-368
2,5133936,-617,87,-2637,-218,-264,-6684,136,312,-368
2,5133949,-636,73,-2635,-225,-261,-6677,136,312,-368
2,5133964,-646,70,-2639,-217,-265,-6651,136,312,-368
2,5133978,-646,70,-2639,-217,-265,-6651,136,312,-368
2,5133992,-665,66,-2643,-217,-271,-6628,135,311,-367
2,5134003,-679,79,-2641,-217,-267,-6615,135,311,-367
2,5134016,-679,79,-2641,-217,-267,-6615,135,311,-367
2,5134030,-699,71,-2639,-215,-272,-6592,135,311,-367
2,5134044,-714,83,-2643,-223,-279,-6566,135,311,-367
2,5134057,-714,83,-2643,-223,-279,-6566,135,311,-367
2,5134071,-733,72,-2643,-216,-276,-6551,135,311,-367
2,5134086,-749,97,-2637,-221,-265,-6542,135,311,-367
2,5134099,-765,70,-2635,-218,-262,-6514,135,311,-367
2,5134114,-765,70,-2635,-218,-262,-6514,135,311,-367
2,5134130,-782,89,-2634,-220,-266,-6500,143,313,-365
2,5134142,-792,66,-2636,-216,-265,-6473,143,313,-365
2,5134155,-792,66,-2636,-216,-265,-6473,143,313,-365
2,5134171,-810,85,-2635,-218,-267,-6449,143,313,-365
2,5134184,-821,59,-2635,-220,-267,-6429,143,313,-365
2,5134197,-821,59,-2635,-220,-267,-6429,143,313,-365
2,5134212,-836,84,-2638,-216,-259,-6423,143,313,-365
2,5134224,-853,51,-2637,-219,-266,-6402,143,313,-365
2,5134236,-853,51,-2637,-219,-266,-6402,143,313,-365
2,5134251,-870,64,-2634,-216,-270,-6382,157,313,-361
2,5134265,-885,35,-2635,-213,-266,-6366,157,313,-361
2,5134278,-885,35,-2635,-213,-266,-6366,157,313,-361
2,5134291,-908,46,-2635,-213,-265,-6344,157,313,-361
2,5134304,-920,25,-2635,-213,-256,-6326,157,313,-361
2,5134317,-920,25,-2635,-213,-256,-6326,157,313,-361
2,5134331,-938,35,-2632,-223,-259,-6307,157,313,-361
2,5134344,-950,10,-2639,-219,-264,-6279,157,313,-361
2,5134359,-967,26,-2635,-219,-266,-6259,157,313,-361
2,5134374,-967,26,-2635,-219,-266,-6259,152,318,-366
2,5134390,-982,20,-2641,-210,-256,-6234,152,318,-366
2,5134405,-1002,37,-2637,-214,-264,-6216,152,318,-366
2,5134420,-1019,25,-2639,-220,-274,-6202,152,318,-366
2,5134435,-1019,25,-2639,-220,-274,-6202,152,318,-366
2,5134449,-1038,31,-2637,-218,-263,-6181,152,318,-366
2,5134462,-1052,30,-2638,-218,-264,-6160,152,318,-366
2,5134477,-1052,30,-2638,-218,-264,-6160,152,318,-366
2,5134490,-1068,19,-2633,-214,-272,-6138,164,308,-360
2,5134502,-1085,17,-2637,-216,-271,-6120,164,308,-360
2,5134516,-1085,17,-2637,-216,-271,-6120,164,308,-360
2,5134528,-1096,3,-2634,-216,-262,-6105,164,308,-360
2,5134542,-1113,15,-2633,-217,-264,-6082,164,308,-360
2,5134558,-1113,15,-2633,-217,-264,-6082,164,308,-360
2,5134572,-1130,3,-2636,-211,-258,-6057,164,308,-360
2,5134585,-1147,6,-2640,-210,-255,-6042,164,308,-360
2,5134600,-1164,-3,-2637,-219,-265,-6015,160,310,-360
2,5134610,-1164,-3,-2637,-219,-265,-6015,160,310,-360
2,5134623,-1178,-4,-2633,-215,-268,-5999,160,310,-360
2,5134638,-1178,-4,-2633,-215,-268,-5999,160,310,-360
2,5134652,-1196,-2,-2637,-216,-263,-5976,160,310,-360
2,5134665,-1206,-17,-2639,-214,-266,-5955,160,310,-360
2,5134679,-1206,-17,-2639,-214,-266,-5955,160,310,-360
2,5134693,-1228,-22,-2633,-212,-263,-5938,160,310,-360
2,5134705,-1240,-35,-2631,-214,-257,-5909,160,310,-360
2,5134720,-1240,-35,-2631,-214,-257,-5909,160,310,-360
2,5134733,-1240,-35,-2631,-214,-257,-5909,160,310,-360
2,5134744,-1272,-40,-2635,-209,-267,-5868,172,314,-356
2,5134759,-1294,-28,-2636,-207,-265,-5850,172,314,-356
2,5134776,-1294,-28,-2636,-207,-265,-5850,172,314,-356
2,5134791,-1307,-26,-2642,-205,-257,-5828,172,314,-356
2,5134806,-1324,-23,-2638,-209,-267,-5806,172,314,-356
2,5134819,-1324,-23,-2638,-209,-267,-5806,172,314,-356
2,5134833,-1340,-20,-2632,-214,-256,-5780,172,314,-356
2,5134845,-1358,-25,-2634,-213,-258,-5756,172,314,-356
2,5134855,-1358,-25,-2634,-213,-258,-5756,172,314,-356
2,5134868,-1372,-26,-2636,-213,-259,-5741,169,311,-355
2,5134881,-1387,-36,-2631,-218,-266,-5719,169,311,-355
2,5134895,-1387,-36,-2631,-218,-266,-5719,169,311,-355
2,5134907,-1403,-32,-2634,-212,-263,-5696,169,311,-355
2,5134920,-1417,-38,-2632,-214,-257,-5676,169,311,-355
2,5134934,-1417,-38,-2632,-214,-257,-5676,169,311,-355
2,5134948,-1435,-38,-2637,-209,-260,-5652,169,311,-355
2,5134962,-1453,-36,-2637,-214,-268,-5628,169,311,-355
2,5134972,-1453,-36,-2637,-214,-268,-5628,169,311,-355
2,5134987,-1466,-45,-2633,-216,-266,-5608,179,311,-349
2,5135003,-1484,-47,-2631,-214,-263,-5586,179,311,-349
2,5135017,-1484,-47,-2631,-214,-263,-5586,179,311,-349
2,5135033,-1495,-63,-2638,-216,-260,-5567,179,311,-349
2,5135044,-1520,-68,-2636,-213,-259,-5545,179,311,-349
2,5135059,-1520,-68,-2636,-213,-259,-5545,179,311,-349
