imu,time,ax,ay,az,gx,gy,gz,mx,my,mz
2,3157255,-1450,560,-2628,5361,105,-102,139,-29,-45
2,3157269,-1450,554,-2636,5364,103,-98,139,-29,-45
2,3157282,-1450,554,-2636,5364,103,-98,139,-29,-45
2,3157297,-1446,543,-2635,5355,106,-92,139,-29,-45
2,3157308,-1446,543,-2635,5355,106,-92,139,-29,-45
2,3157320,-1448,550,-2626,5354,103,-98,127,-29,-37
2,3157334,-1441,556,-2635,5359,102,-99,127,-29,-37
2,3157348,-1441,556,-2635,5359,102,-99,127,-29,-37
2,3157362,-1448,552,-2633,5360,96,-90,127,-29,-37
2,3157373,-1450,546,-2629,5356,111,-87,127,-29,-37
2,3157388,-1450,546,-2629,5356,111,-87,127,-29,-37
2,3157403,-1448,554,-2630,5356,116,-87,127,-29,-37
2,3157417,-1449,551,-2637,5350,107,-86,127,-29,-37
2,3157433,-1446,555,-2624,5356,99,-100,119,-23,-33
2,3157444,-1446,555,-2624,5356,99,-100,119,-23,-33
2,3157457,-1447,546,-2625,5354,106,-99,119,-23,-33
2,3157472,-1446,544,-2629,5353,103,-94,119,-23,-33
2,3157485,-1446,544,-2629,5353,103,-94,119,-23,-33
2,3157493,-1448,532,-2635,5361,105,-91,119,-23,-33
2,3157502,-1448,532,-2635,5361,105,-91,119,-23,-33
2,3157516,-1443,530,-2639,5361,100,-96,119,-23,-33
2,3157530,-1441,503,-2642,5354,105,-100,119,-23,-33
2,3157539,-1441,503,-2642,5354,105,-100,119,-23,-33
2,3157553,-1444,507,-2637,5365,107,-91,119,-23,-33
2,3157566,-1444,507,-2637,5365,107,-91,119,-23,-33
2,3157580,-1447,523,-2637,5357,109,-95,118,-22,-26
2,3157596,-1450,526,-2636,5354,103,-94,118,-22,-26
2,3157610,-1443,517,-2641,5361,105,-104,118,-22,-26
2,3157623,-1443,517,-2641,5361,105,-104,118,-22,-26
2,3157638,-1445,526,-2639,5362,105,-105,118,-22,-26
2,3157652,-1445,527,-2641,5361,104,-100,118,-22,-26
2,3157665,-1445,527,-2641,5361,104,-100,118,-22,-26
2,3157677,-1442,540,-2642,5373,114,-95,118,-22,-26
2,3157691,-1442,531,-2638,5374,112,-101,103,-31,-29
2,3157704,-1442,531,-2638,5374,112,-101,103,-31,-29
2,3157718,-1444,530,-2643,5366,106,-96,103,-31,-29
2,3157731,-1446,537,-2642,5363,106,-99,103,-31,-29
2,3157741,-1446,537,-2642,5363,106,-99,103,-31,-29
2,3157748,-1446,537,-2642,5363,106,-99,103,-31,-29
2,3157757,-1448,541,-2642,5378,115,-92,103,-31,-29
2,3157766,-1448,541,-2642,5378,115,-92,103,-31,-29
2,3157775,-1446,553,-2649,5372,110,-100,103,-31,-29
2,3157782,-1446,553,-2649,5372,110,-100,103,-31,-29
2,3157790,-1446,536,-2646,5373,100,-100,103,-31,-29
2,3157798,-1446,536,-2646,5373,100,-100,103,-31,-29
2,3157807,-1446,536,-2646,5373,100,-100,103,-31,-29
2,3157815,-1446,551,-2642,5372,101,-99,103,-19,-23
2,3157823,-1446,551,-2642,5372,101,-99,103,-19,-23
2,3157830,-1446,581,-2638,5375,110,-88,103,-19,-23
2,3157838,-1446,581,-2638,5375,110,-88,103,-19,-23
2,3157846,-1446,581,-2638,5375,110,-88,103,-19,-23
2,3157854,-1451,549,-2639,5370,111,-97,103,-19,-23
2,3157862,-1451,549,-2639,5370,111,-97,103,-19,-23
2,3157869,-1441,552,-2638,5370,100,-97,103,-19,-23
2,3157878,-1441,552,-2638,5370,100,-97,103,-19,-23
2,3157886,-1441,552,-2638,5370,100,-97,103,-19,-23
2,3157894,-1446,562,-2645,5365,106,-97,103,-19,-23
2,3157902,-1446,562,-2645,5365,106,-97,103,-19,-23
2,3157910,-1450,561,-2639,5365,106,-97,103,-19,-23
2,3157918,-1450,561,-2639,5365,106,-97,103,-19,-23
2,3157926,-1450,561,-2639,5365,106,-97,103,-19,-23
2,3157934,-1444,554,-2638,5363,103,-95,99,-19,-21
2,3157942,-1444,554,-2638,5363,103,-95,99,-19,-21
2,3157950,-1448,554,-2637,5363,114,-96,99,-19,-21
2,3157958,-1448,554,-2637,5363,114,-96,99,-19,-21
2,3157965,-1448,554,-2637,5363,114,-96,99,-19,-21
2,3157974,-1448,562,-2641,5361,104,-96,99,-19,-21
2,3157982,-1448,562,-2641,5361,104,-96,99,-19,-21
2,3157989,-1449,551,-2640,5358,106,-90,99,-19,-21
2,3157999,-1449,551,-2640,5358,106,-90,99,-19,-21
2,3158005,-1449,551,-2640,5358,106,-90,99,-19,-21
2,3158014,-1451,565,-2637,5366,109,-96,99,-19,-21
2,3158025,-1451,565,-2637,5366,109,-96,99,-19,-21
2,3158034,-1446,548,-2638,5364,102,-95,99,-19,-21
2,3158044,-1446,548,-2638,5364,102,-95,99,-19,-21
2,3158053,-1448,564,-2635,5362,104,-96,89,-25,-15
2,3158064,-1448,564,-2635,5362,104,-96,89,-25,-15
2,3158074,-1449,541,-2641,5363,112,-96,89,-25,-15
2,3158088,-1449,541,-2641,5363,112,-96,89,-25,-15
2,3158102,-1445,560,-2635,5355,111,-99,89,-25,-15
2,3158117,-1440,553,-2637,5363,103,-99,89,-25,-15
2,3158132,-1451,554,-2638,5360,103,-94,89,-25,-15
2,3158141,-1451,554,-2638,5360,103,-94,89,-25,-15
2,3158150,-1447,539,-2635,5356,106,-94,89,-25,-15
2,3158158,-1447,539,-2635,5356,106,-94,89,-25,-15
2,3158167,-1447,539,-2635,5356,106,-94,89,-25,-15
2,3158176,-1448,559,-2631,5353,105,-92,89,-25,-15
2,3158185,-1448,559,-2631,5353,105,-92,89,-25,-15
2,3158197,-1445,545,-2634,5352,105,-96,89,-21,-21
2,3158211,-1448,552,-2633,5346,107,-91,89,-21,-21
2,3158224,-1448,552,-2633,5346,107,-91,89,-21,-21
2,3158234,-1448,547,-2636,5357,111,-93,89,-21,-21
2,3158244,-1448,547,-2636,5357,111,-93,89,-21,-21
2,3158252,-1443,563,-2631,5352,109,-94,89,-21,-21
2,3158260,-1443,563,-2631,5352,109,-94,89,-21,-21
2,3158268,-1443,563,-2631,5352,109,-94,89,-21,-21
2,3158278,-1447,542,-2635,5356,107,-94,89,-21,-21
2,3158286,-1447,542,-2635,5356,107,-94,89,-21,-21
2,3158294,-1446,553,-2636,5356,110,-88,89,-21,-21
2,3158302,-1446,553,-2636,5356,110,-88,89,-21,-21
2,3158310,-1445,542,-2629,5361,103,-98,91,-27,-21
2,3158320,-1445,542,-2629,5361,103,-98,91,-27,-21
2,3158327,-1445,542,-2629,5361,103,-98,91,-27,-21
2,3158336,-1447,535,-2630,5357,95,-93,91,-27,-21
2,3158343,-1447,535,-2630,5357,95,-93,91,-27,-21
2,3158352,-1448,529,-2633,5354,101,-96,91,-27,-21
2,3158362,-1448,529,-2633,5354,101,-96,91,-27,-21
2,3158370,-1448,529,-2633,5354,101,-96,91,-27,-21
2,3158379,-1447,496,-2632,5356,107,-102,91,-27,-21
2,3158387,-1447,496,-2632,5356,107,-102,91,-27,-21
2,3158396,-1445,509,-2633,5350,111,-103,91,-27,-21
2,3158405,-1445,509,-2633,5350,111,-103,91,-27,-21
2,3158414,-1445,512,-2642,5349,108,-98,91,-27,-21
2,3158423,-1445,512,-2642,5349,108,-98,91,-27,-21
2,3158431,-1443,524,-2630,5356,114,-98,81,-21,-19
2,3158438,-1443,524,-2630,5356,114,-98,81,-21,-19
2,3158448,-1443,524,-2630,5356,114,-98,81,-21,-19
2,3158457,-1441,511,-2644,5363,112,-99,81,-21,-19
2,3158464,-1441,511,-2644,5363,112,-99,81,-21,-19
2,3158473,-1446,527,-2641,5359,104,-99,81,-21,-19
2,3158481,-1446,527,-2641,5359,104,-99,81,-21,-19
2,3158491,-1445,525,-2651,5358,107,-94,81,-21,-19
2,3158501,-1445,525,-2651,5358,107,-94,81,-21,-19
2,3158509,-1445,525,-2651,5358,107,-94,81,-21,-19
2,3158515,-1449,528,-2642,5367,102,-87,81,-21,-19
2,3158524,-1449,528,-2642,5367,102,-87,81,-21,-19
2,3158533,-1447,529,-2640,5370,106,-98,81,-21,-19
2,3158541,-1447,529,-2640,5370,106,-98,81,-21,-19
2,3158549,-1447,529,-2640,5370,106,-98,81,-21,-19
2,3158556,-1448,528,-2638,5369,100,-98,77,-17,-17
2,3158565,-1448,528,-2638,5369,100,-98,77,-17,-17
2,3158574,-1449,529,-2640,5368,108,-102,77,-17,-17
2,3158583,-1449,529,-2640,5368,108,-102,77,-17,-17
2,3158590,-1446,540,-2642,5366,108,-100,77,-17,-17
2,3158599,-1446,540,-2642,5366,108,-100,77,-17,-17
2,3158607,-1446,540,-2642,5366,108,-100,77,-17,-17
2,3158616,-1443,545,-2646,5365,98,-91,77,-17,-17
2,3158626,-1443,545,-2646,5365,98,-91,77,-17,-17
2,3158634,-1446,542,-2643,5372,99,-101,77,-17,-17
2,3158642,-1446,542,-2643,5372,99,-101,77,-17,-17
2,3158649,-1446,542,-2643,5372,99,-101,77,-17,-17
2,3158658,-1445,540,-2641,5369,112,-96,77,-17,-17
2,3158667,-1445,540,-2641,5369,112,-96,77,-17,-17
2,3158675,-1447,582,-2641,5365,106,-96,71,-15,-21
2,3158684,-1447,582,-2641,5365,106,-96,71,-15,-21
2,3158692,-1448,554,-2639,5365,107,-100,71,-15,-21
2,3158700,-1448,554,-2639,5365,107,-100,71,-15,-21
2,3158709,-1448,554,-2639,5365,107,-100,71,-15,-21
2,3158716,-1454,559,-2642,5368,99,-102,71,-15,-21
2,3158724,-1454,559,-2642,5368,99,-102,71,-15,-21
2,3158734,-1446,543,-2636,5370,110,-102,71,-15,-21
2,3158743,-1446,543,-2636,5370,110,-102,71,-15,-21
2,3158751,-1450,574,-2642,5366,107,-92,71,-15,-21
2,3158760,-1450,574,-2642,5366,107,-92,71,-15,-21
2,3158766,-1450,574,-2642,5366,107,-92,71,-15,-21
2,3158774,-1453,550,-2641,5364,101,-94,71,-15,-21
2,3158784,-1453,550,-2641,5364,101,-94,71,-15,-21
2,3158792,-1452,559,-2638,5362,106,-96,71,-15,-21
2,3158800,-1452,559,-2638,5362,106,-96,71,-15,-21
2,3158809,-1452,559,-2638,5362,106,-96,71,-15,-21
2,3158817,-1443,545,-2644,5364,105,-100,74,-6,-34
2,3158827,-1443,545,-2644,5364,105,-100,74,-6,-34
2,3158835,-1448,571,-2639,5360,102,-97,74,-6,-34
2,3158844,-1448,571,-2639,5360,102,-97,74,-6,-34
2,3158853,-1448,553,-2646,5355,114,-95,74,-6,-34
2,3158861,-1448,553,-2646,5355,114,-95,74,-6,-34
2,3158870,-1448,553,-2646,5355,114,-95,74,-6,-34
2,3158878,-1446,563,-2629,5361,111,-97,74,-6,-34
2,3158884,-1446,563,-2629,5361,111,-97,74,-6,-34
2,3158892,-1444,552,-2643,5358,105,-93,74,-6,-34
2,3158899,-1444,552,-2643,5358,105,-93,74,-6,-34
2,3158907,-1444,552,-2643,5358,105,-93,74,-6,-34
2,3158917,-1449,550,-2636,5361,100,-93,74,-6,-34
2,3158926,-1449,550,-2636,5361,100,-93,74,-6,-34
2,3158934,-1448,547,-2635,5361,110,-102,63,-11,-31
2,3158943,-1448,547,-2635,5361,110,-102,63,-11,-31
2,3158951,-1450,561,-2632,5368,110,-103,63,-11,-31
2,3158960,-1450,561,-2632,5368,110,-103,63,-11,-31
2,3158967,-1450,561,-2632,5368,110,-103,63,-11,-31
2,3158976,-1446,556,-2638,5365,102,-99,63,-11,-31
2,3158985,-1446,556,-2638,5365,102,-99,63,-11,-31
2,3158994,-1450,545,-2636,5359,103,-95,63,-11,-31
2,3159004,-1450,545,-2636,5359,103,-95,63,-11,-31
2,3159011,-1448,550,-2640,5367,109,-106,63,-11,-31
2,3159019,-1448,550,-2640,5367,109,-106,63,-11,-31
2,3159028,-1448,550,-2640,5367,109,-106,63,-11,-31
2,3159036,-1445,559,-2639,5355,104,-94,63,-11,-31
2,3159045,-1445,559,-2639,5355,104,-94,63,-11,-31
2,3159054,-1445,559,-2639,5355,104,-94,61,-5,-35
2,3159062,-1445,559,-2639,5355,104,-94,61,-5,-35
2,3159070,-1448,548,-2634,5357,104,-95,61,-5,-35
2,3159076,-1448,548,-2634,5357,104,-95,61,-5,-35
2,3159086,-1448,548,-2634,5357,104,-95,61,-5,-35
2,3159094,-1452,550,-2634,5354,100,-97,61,-5,-35
2,3159103,-1452,550,-2634,5354,100,-97,61,-5,-35
2,3159112,-1450,548,-2632,5357,102,-97,61,-5,-35
2,3159121,-1450,548,-2632,5357,102,-97,61,-5,-35
2,3159130,-1450,548,-2632,5357,102,-97,61,-5,-35
2,3159139,-1450,550,-2635,5357,106,-99,61,-5,-35
2,3159149,-1450,550,-2635,5357,106,-99,61,-5,-35
2,3159163,-1452,541,-2632,5357,102,-102,61,-5,-35
2,3159176,-1446,546,-2629,5363,109,-100,58,6,-36
2,3159188,-1446,546,-2629,5363,109,-100,58,6,-36
2,3159201,-1445,523,-2640,5360,100,-98,58,6,-36
2,3159215,-1445,530,-2635,5361,107,-102,58,6,-36
2,3159228,-1445,530,-2635,5361,107,-102,58,6,-36
2,3159242,-1445,498,-2639,5357,102,-99,58,6,-36
2,3159257,-1443,510,-2637,5356,103,-91,58,6,-36
2,3159269,-1443,510,-2637,5356,103,-91,58,6,-36
2,3159281,-1443,518,-2646,5356,100,-95,58,6,-36
2,3159294,-1449,518,-2635,5358,104,-93,60,-2,-48
2,3159308,-1449,518,-2635,5358,104,-93,60,-2,-48
2,3159323,-1443,514,-2637,5361,111,-96,60,-2,-48
2,3159337,-1448,519,-2640,5364,107,-99,60,-2,-48
2,3159352,-1448,524,-2643,5358,108,-97,60,-2,-48
2,3159365,-1448,524,-2643,5358,108,-97,60,-2,-48
2,3159379,-1448,536,-2643,5364,107,-97,60,-2,-48
2,3159395,-1444,527,-2644,5359,107,-94,60,-2,-48
2,3159405,-1444,527,-2644,5359,107,-94,60,-2,-48
2,3159418,-1441,539,-2642,5366,101,-100,60,-2,-48
2,3159432,-1447,531,-2642,5369,103,-88,57,3,-51
2,3159446,-1447,531,-2642,5369,103,-88,57,3,-51
2,3159459,-1445,543,-2642,5371,112,-94,57,3,-51
2,3159474,-1444,539,-2644,5368,101,-95,57,3,-51
2,3159489,-1444,539,-2644,5368,101,-95,57,3,-51
2,3159500,-1445,533,-2642,5369,105,-98,57,3,-51
2,3159515,-1448,559,-2645,5362,109,-91,57,3,-51
2,3159529,-1448,559,-2645,5362,109,-91,57,3,-51
2,3159542,-1451,573,-2636,5369,115,-97,57,3,-51
2,3159558,-1450,562,-2641,5366,97,-99,60,6,-62
2,3159572,-1446,541,-2639,5371,92,-96,60,6,-62
2,3159585,-1446,541,-2639,5371,92,-96,60,6,-62
2,3159599,-1442,567,-2645,5369,104,-93,60,6,-62
2,3159614,-1449,558,-2639,5367,100,-88,60,6,-62
2,3159628,-1449,558,-2639,5367,100,-88,60,6,-62
2,3159641,-1449,562,-2643,5357,93,-90,60,6,-62
2,3159655,-1445,541,-2644,5362,92,-101,60,6,-62
2,3159669,-1445,541,-2644,5362,92,-101,60,6,-62
2,3159684,-1447,559,-2632,5353,104,-92,55,1,-53
2,3159697,-1446,548,-2637,5357,104,-88,55,1,-53
2,3159710,-1446,548,-2637,5357,104,-88,55,1,-53
2,3159726,-1454,569,-2631,5364,99,-99,55,1,-53
2,3159738,-1445,548,-2637,5363,99,-96,55,1,-53
2,3159750,-1445,548,-2637,5363,99,-96,55,1,-53
2,3159763,-1449,559,-2638,5360,99,-95,55,1,-53
2,3159778,-1445,537,-2646,5361,98,-90,55,1,-53
2,3159792,-1446,568,-2628,5356,95,-99,46,4,-70
2,3159808,-1446,568,-2628,5356,95,-99,46,4,-70
2,3159823,-1443,547,-2631,5358,94,-103,46,4,-70
2,3159836,-1450,552,-2630,5354,96,-97,46,4,-70
2,3159851,-1450,552,-2630,5354,96,-97,46,4,-70
2,3159866,-1449,537,-2640,5357,106,-97,46,4,-70
2,3159880,-1450,556,-2632,5352,98,-91,46,4,-70
2,3159894,-1451,547,-2642,5353,100,-98,46,4,-70
2,3159907,-1451,547,-2642,5353,100,-98,46,4,-70
2,3159921,-1451,543,-2630,5355,106,-102,55,-1,-73
2,3159934,-1449,544,-2634,5351,96,-99,55,-1,-73
2,3159949,-1449,544,-2634,5351,96,-99,55,-1,-73
2,3159962,-1447,557,-2636,5362,100,-101,55,-1,-73
2,3159976,-1448,544,-2638,5357,105,-100,55,-1,-73
2,3159991,-1448,544,-2638,5357,105,-100,55,-1,-73
2,3160002,-1445,542,-2628,5359,102,-98,55,-1,-73
2,3160017,-1445,533,-2635,5357,100,-100,55,-1,-73
2,3160031,-1445,541,-2642,5363,95,-93,45,-1,-73
2,3160046,-1445,541,-2642,5363,95,-93,45,-7,-63
2,3160060,-1449,504,-2635,5352,105,-98,45,-7,-63
2,3160076,-1444,510,-2632,5354,105,-100,45,-7,-63
2,3160091,-1444,510,-2632,5354,105,-100,45,-7,-63
2,3160105,-1443,503,-2638,5353,98,-100,45,-7,-63
2,3160120,-1449,527,-2638,5352,100,-96,45,-7,-63
2,3160134,-1444,515,-2643,5353,105,-93,45,-7,-63
2,3160148,-1444,515,-2643,5353,105,-93,45,-7,-63
2,3160159,-1443,525,-2640,5354,104,-99,45,-7,-63
2,3160167,-1443,525,-2640,5354,104,-99,45,-7,-63
2,3160176,-1443,516,-2643,5362,101,-97,47,-5,-83
2,3160184,-1443,516,-2643,5362,101,-97,47,-5,-83
2,3160194,-1446,534,-2637,5370,102,-91,47,-5,-83
2,3160202,-1446,534,-2637,5370,102,-91,47,-5,-83
2,3160211,-1446,534,-2637,5370,102,-91,47,-5,-83
2,3160220,-1448,525,-2641,5363,106,-101,47,-5,-83
2,3160228,-1448,525,-2641,5363,106,-101,47,-5,-83
2,3160237,-1444,537,-2642,5364,100,-102,47,-5,-83
2,3160246,-1444,537,-2642,5364,100,-102,47,-5,-83
2,3160254,-1448,512,-2647,5364,105,-99,47,-5,-83
2,3160263,-1448,512,-2647,5364,105,-99,47,-5,-83
2,3160272,-1444,541,-2647,5366,112,-109,47,-5,-83
2,3160281,-1444,541,-2647,5366,112,-109,47,-5,-83
2,3160290,-1444,541,-2647,5366,112,-109,47,-5,-83
2,3160298,-1447,541,-2643,5368,108,-101,47,-7,-85
2,3160307,-1447,541,-2643,5368,108,-101,47,-7,-85
2,3160316,-1446,551,-2641,5373,100,-97,47,-7,-85
2,3160325,-1446,551,-2641,5373,100,-97,47,-7,-85
2,3160334,-1445,532,-2644,5375,98,-98,47,-7,-85
2,3160342,-1445,532,-2644,5375,98,-98,47,-7,-85
2,3160351,-1446,544,-2641,5366,106,-95,47,-7,-85
2,3160359,-1446,544,-2641,5366,106,-95,47,-7,-85
2,3160369,-1446,544,-2641,5366,106,-95,47,-7,-85
2,3160376,-1450,587,-2641,5371,100,-95,47,-7,-85
2,3160385,-1450,587,-2641,5371,100,-95,47,-7,-85
2,3160394,-1452,544,-2648,5367,99,-99,47,-7,-85
2,3160403,-1452,544,-2648,5367,99,-99,47,-7,-85
2,3160413,-1446,552,-2636,5367,106,-102,55,-11,-91
2,3160421,-1446,552,-2636,5367,106,-102,55,-11,-91
2,3160429,-1446,552,-2636,5367,106,-102,55,-11,-91
2,3160437,-1449,557,-2637,5370,105,-96,55,-11,-91
2,3160445,-1449,557,-2637,5370,105,-96,55,-11,-91
2,3160454,-1453,563,-2634,5367,98,-96,55,-11,-91
2,3160463,-1453,563,-2634,5367,98,-96,55,-11,-91
2,3160472,-1449,554,-2640,5364,100,-97,55,-11,-91
2,3160480,-1449,554,-2640,5364,100,-97,55,-11,-91
2,3160489,-1449,554,-2640,5364,100,-97,55,-11,-91
2,3160499,-1445,545,-2634,5352,106,-104,55,-11,-91
2,3160508,-1445,545,-2634,5352,106,-104,55,-11,-91
2,3160517,-1443,556,-2638,5362,105,-96,55,-11,-91
2,3160525,-1443,556,-2638,5362,105,-96,55,-11,-91
2,3160535,-1450,557,-2634,5360,105,-93,55,-11,-85
2,3160542,-1450,557,-2634,5360,105,-93,55,-11,-85
2,3160549,-1450,557,-2634,5360,105,-93,55,-11,-85
2,3160558,-1450,560,-2636,5368,113,-93,55,-11,-85
2,3160566,-1450,560,-2636,5368,113,-93,55,-11,-85
2,3160576,-1442,552,-2633,5361,102,-100,55,-11,-85
2,3160584,-1442,552,-2633,5361,102,-100,55,-11,-85
2,3160593,-1446,554,-2638,5361,104,-97,55,-11,-85
2,3160601,-1446,554,-2638,5361,104,-97,55,-11,-85
2,3160610,-1446,554,-2638,5361,104,-97,55,-11,-85
2,3160619,-1447,543,-2635,5351,95,-91,55,-11,-85
2,3160628,-1447,543,-2635,5351,95,-91,55,-11,-85
2,3160636,-1450,561,-2638,5355,105,-90,55,-11,-85
2,3160643,-1450,561,-2638,5355,105,-90,55,-11,-85
2,3160651,-1446,549,-2633,5361,103,-97,55,-11,-85
2,3160660,-1446,549,-2633,5361,103,-97,69,-11,-101
2,3160670,-1446,549,-2633,5361,103,-97,69,-11,-101
2,3160678,-1449,551,-2634,5362,104,-97,69,-11,-101
2,3160686,-1449,551,-2634,5362,104,-97,69,-11,-101
2,3160695,-1447,537,-2637,5364,100,-103,69,-11,-101
2,3160704,-1447,537,-2637,5364,100,-103,69,-11,-101
2,3160713,-1449,561,-2634,5359,107,-90,69,-11,-101
2,3160722,-1449,561,-2634,5359,107,-90,69,-11,-101
2,3160730,-1449,561,-2634,5359,107,-90,69,-11,-101
2,3160738,-1446,549,-2637,5362,106,-98,69,-11,-101
2,3160747,-1446,549,-2637,5362,106,-98,69,-11,-101
2,3160755,-1447,543,-2635,5354,108,-103,69,-11,-101
2,3160764,-1447,543,-2635,5354,108,-103,69,-11,-101
2,3160772,-1445,537,-2637,5356,108,-105,69,-11,-101
2,3160780,-1445,537,-2637,5356,108,-105,69,-11,-101
2,3160790,-1445,537,-2637,5356,108,-105,69,-11,-101
2,3160798,-1445,550,-2633,5353,108,-93,69,-11,-103
2,3160807,-1445,550,-2633,5353,108,-93,69,-11,-103
2,3160816,-1448,546,-2636,5354,106,-93,69,-11,-103
2,3160823,-1448,546,-2636,5354,106,-93,69,-11,-103
2,3160833,-1448,540,-2629,5358,106,-99,69,-11,-103
2,3160843,-1448,540,-2629,5358,106,-99,69,-11,-103
2,3160851,-1448,540,-2629,5358,106,-99,69,-11,-103
2,3160860,-1442,534,-2631,5354,102,-99,69,-11,-103
2,3160869,-1442,534,-2631,5354,102,-99,69,-11,-103
2,3160879,-1445,538,-2635,5352,104,-93,69,-11,-103
2,3160887,-1445,538,-2635,5352,104,-93,69,-11,-103
2,3160897,-1446,515,-2640,5353,104,-96,69,-11,-103
2,3160905,-1446,515,-2640,5353,104,-96,69,-11,-103
2,3160913,-1440,507,-2635,5354,101,-100,69,-11,-109
2,3160920,-1440,507,-2635,5354,101,-100,69,-11,-109
2,3160929,-1440,507,-2635,5354,101,-100,69,-11,-109
2,3160938,-1442,505,-2635,5356,103,-95,69,-11,-109
2,3160946,-1442,505,-2635,5356,103,-95,69,-11,-109
2,3160954,-1445,515,-2644,5353,101,-96,69,-11,-109
2,3160963,-1445,515,-2644,5353,101,-96,69,-11,-109
2,3160970,-1445,515,-2644,5353,101,-96,69,-11,-109
2,3160979,-1447,512,-2643,5347,103,-101,69,-11,-109
2,3160987,-1447,512,-2643,5347,103,-101,69,-11,-109
2,3160996,-1447,516,-2638,5361,106,-108,69,-11,-109
2,3161006,-1447,516,-2638,5361,106,-108,69,-11,-109
2,3161012,-1442,524,-2645,5357,103,-104,69,-11,-109
2,3161022,-1442,524,-2645,5357,103,-104,69,-11,-109
2,3161029,-1442,524,-2645,5357,103,-104,69,-11,-109
2,3161038,-1447,531,-2641,5353,102,-95,76,-14,-114
2,3161047,-1447,531,-2641,5353,102,-95,76,-14,-114
2,3161054,-1448,530,-2639,5360,107,-96,76,-14,-114
2,3161061,-1448,530,-2639,5360,107,-96,76,-14,-114
2,3161070,-1448,530,-2639,5360,107,-96,76,-14,-114
2,3161078,-1447,536,-2639,5363,103,-100,76,-14,-114
2,3161088,-1447,536,-2639,5363,103,-100,76,-14,-114
2,3161097,-1445,521,-2641,5364,107,-100,76,-14,-114
2,3161105,-1445,521,-2641,5364,107,-100,76,-14,-114
2,3161113,-1446,536,-2650,5367,108,-94,76,-14,-114
2,3161121,-1446,536,-2650,5367,108,-94,76,-14,-114
2,3161131,-1446,536,-2650,5367,108,-94,76,-14,-114
2,3161138,-1444,533,-2643,5368,114,-99,76,-14,-114
2,3161148,-1444,533,-2643,5368,114,-99,76,-14,-114
2,3161157,-1443,550,-2639,5368,101,-106,80,-16,-126
2,3161170,-1443,550,-2639,5368,101,-106,80,-16,-126
2,3161186,-1446,529,-2648,5369,103,-107,80,-16,-126
2,3161200,-1444,543,-2641,5366,112,-103,80,-16,-126
2,3161212,-1450,582,-2643,5364,113,-94,80,-16,-126
2,3161225,-1450,582,-2643,5364,113,-94,80,-16,-126
2,3161239,-1449,557,-2636,5366,103,-93,80,-16,-126
2,3161253,-1446,557,-2638,5366,107,-100,80,-16,-126
2,3161266,-1446,557,-2638,5366,107,-100,80,-16,-126
2,3161281,-1446,539,-2640,5361,107,-94,73,-23,-129
2,3161295,-1446,577,-2639,5361,107,-90,73,-23,-129
2,3161309,-1446,577,-2639,5361,107,-90,73,-23,-129
2,3161323,-1450,555,-2646,5367,103,-102,73,-23,-129
2,3161338,-1448,550,-2634,5364,108,-106,73,-23,-129
2,3161351,-1448,550,-2634,5364,108,-106,73,-23,-129
2,3161365,-1441,547,-2643,5363,103,-100,73,-23,-129
2,3161379,-1450,560,-2635,5363,103,-92,73,-23,-129
2,3161394,-1452,560,-2637,5367,111,-96,73,-23,-129
2,3161407,-1452,560,-2637,5367,111,-96,73,-23,-129
2,3161420,-1447,558,-2632,5358,106,-103,81,-21,-129
2,3161435,-1446,555,-2643,5352,90,-103,81,-21,-129
2,3161448,-1446,555,-2643,5352,90,-103,81,-21,-129
2,3161460,-1447,543,-2635,5358,93,-91,81,-21,-129
2,3161474,-1452,548,-2642,5358,100,-99,81,-21,-129
2,3161487,-1452,548,-2642,5358,100,-99,81,-21,-129
2,3161501,-1447,561,-2631,5355,100,-97,81,-21,-129
2,3161518,-1450,549,-2636,5355,90,-96,81,-21,-129
2,3161531,-1450,549,-2636,5355,90,-96,81,-21,-129
2,3161545,-1446,540,-2637,5352,97,-97,96,-20,-136
2,3161560,-1450,548,-2637,5359,102,-89,96,-20,-136
2,3161574,-1448,555,-2640,5353,105,-96,96,-20,-136
2,3161588,-1448,555,-2640,5353,105,-96,96,-20,-136
2,3161601,-1446,548,-2640,5354,101,-100,96,-20,-136
2,3161614,-1446,538,-2641,5358,100,-97,96,-20,-136
2,3161628,-1446,538,-2641,5358,100,-97,96,-20,-136
2,3161643,-1444,552,-2632,5360,107,-97,96,-20,-136
2,3161656,-1447,541,-2633,5367,103,-93,92,-26,-140
2,3161669,-1447,541,-2633,5367,103,-93,92,-26,-140
2,3161682,-1447,545,-2633,5356,108,-97,92,-26,-140
2,3161696,-1446,532,-2635,5354,108,-96,92,-26,-140
2,3161709,-1446,532,-2635,5354,108,-96,92,-26,-140
2,3161722,-1447,535,-2630,5351,101,-99,92,-26,-140
2,3161737,-1445,534,-2644,5352,104,-96,92,-26,-140
2,3161749,-1445,534,-2644,5352,104,-96,92,-26,-140
2,3161763,-1445,498,-2640,5351,98,-98,92,-26,-140
2,3161777,-1444,512,-2629,5348,104,-99,98,-34,-146
2,3161792,-1444,512,-2629,5348,104,-99,98,-34,-146
2,3161807,-1445,498,-2633,5351,97,-94,98,-34,-146
2,3161822,-1449,527,-2637,5357,111,-92,98,-34,-146
2,3161833,-1447,503,-2648,5355,106,-97,98,-34,-146
2,3161847,-1447,503,-2648,5355,106,-97,98,-34,-146
2,3161862,-1444,517,-2637,5358,108,-98,98,-34,-146
2,3161875,-1444,520,-2645,5365,107,-101,98,-34,-146
2,3161889,-1444,520,-2645,5365,107,-101,98,-34,-146
2,3161904,-1446,529,-2640,5363,108,-93,109,-31,-147
2,3161915,-1448,525,-2640,5361,101,-96,109,-31,-147
2,3161928,-1448,525,-2640,5361,101,-96,109,-31,-147
2,3161942,-1442,529,-2639,5371,95,-105,109,-31,-147
2,3161955,-1446,522,-2644,5378,96,-94,109,-31,-147
2,3161970,-1446,522,-2644,5378,96,-94,109,-31,-147
2,3161986,-1446,537,-2645,5366,104,-91,109,-31,-147
2,3162000,-1450,540,-2647,5371,105,-94,109,-31,-147
2,3162014,-1449,539,-2643,5377,97,-107,109,-31,-147
2,3162029,-1449,539,-2643,5377,97,-107,109,-31,-147
2,3162043,-1445,526,-2638,5369,103,-91,117,-33,-143
2,3162055,-1449,575,-2642,5372,113,-96,117,-33,-143
2,3162066,-1449,575,-2642,5372,113,-96,117,-33,-143
2,3162081,-1450,556,-2643,5372,108,-92,117,-33,-143
2,3162094,-1449,558,-2641,5369,102,-104,117,-33,-143
2,3162108,-1449,558,-2641,5369,102,-104,117,-33,-143
2,3162122,-1443,536,-2640,5364,97,-104,117,-33,-143
2,3162133,-1446,577,-2642,5356,105,-95,117,-33,-143
2,3162146,-1446,577,-2642,5356,105,-95,117,-33,-143
2,3162160,-1452,552,-2641,5361,109,-93,114,-34,-154
2,3162171,-1452,552,-2641,5361,109,-93,114,-34,-154
2,3162178,-1449,561,-2632,5358,105,-101,114,-34,-154
2,3162187,-1449,561,-2632,5358,105,-101,114,-34,-154
2,3162195,-1440,536,-2641,5352,99,-96,114,-34,-154
2,3162204,-1440,536,-2641,5352,99,-96,114,-34,-154
2,3162212,-1440,536,-2641,5352,99,-96,114,-34,-154
2,3162221,-1447,563,-2633,5357,100,-90,114,-34,-154
2,3162230,-1447,563,-2633,5357,100,-90,114,-34,-154
2,3162245,-1449,547,-2644,5368,106,-88,114,-34,-154
2,3162259,-1449,566,-2639,5361,103,-104,114,-34,-154
2,3162271,-1449,566,-2639,5361,103,-104,114,-34,-154
2,3162286,-1445,552,-2637,5360,94,-104,117,-37,-155
2,3162301,-1446,554,-2636,5365,107,-89,117,-37,-155
2,3162315,-1445,549,-2635,5360,103,-94,117,-37,-155
2,3162329,-1445,549,-2635,5360,103,-94,117,-37,-155
2,3162342,-1451,557,-2631,5363,109,-96,117,-37,-155
2,3162356,-1442,548,-2635,5353,96,-97,117,-37,-155
2,3162369,-1442,548,-2635,5353,96,-97,117,-37,-155
2,3162381,-1445,544,-2640,5352,96,-96,117,-37,-155
2,3162396,-1448,543,-2640,5349,105,-95,128,-40,-160
2,3162408,-1448,543,-2640,5349,105,-95,128,-40,-160
2,3162423,-1449,557,-2629,5354,113,-105,128,-40,-160
2,3162433,-1451,540,-2638,5363,104,-100,128,-40,-160
2,3162447,-1451,540,-2638,5363,104,-100,128,-40,-160
2,3162463,-1448,545,-2632,5362,106,-102,128,-40,-160
2,3162474,-1445,542,-2636,5359,106,-95,128,-40,-160
2,3162487,-1445,542,-2636,5359,106,-95,128,-40,-160
2,3162502,-1444,552,-2636,5353,105,-99,128,-40,-160
2,3162515,-1446,546,-2642,5351,105,-103,127,-41,-153
2,3162528,-1446,546,-2642,5351,105,-103,127,-41,-153
2,3162543,-1447,538,-2627,5350,109,-92,127,-41,-153
2,3162557,-1442,536,-2634,5347,105,-91,127,-41,-153
2,3162571,-1442,536,-2634,5347,105,-91,127,-41,-153
2,3162587,-1451,537,-2634,5360,106,-98,127,-41,-153
2,3162599,-1445,510,-2633,5358,108,-94,127,-41,-153
2,3162612,-1445,510,-2633,5358,108,-94,127,-41,-153
2,3162627,-1444,496,-2635,5357,109,-98,127,-41,-153
2,3162641,-1445,505,-2639,5355,102,-100,127,-41,-153
2,3162656,-1440,522,-2637,5354,105,-98,130,-32,-156
2,3162671,-1440,522,-2637,5354,105,-98,130,-32,-156
2,3162685,-1446,507,-2642,5351,105,-94,130,-32,-156
2,3162699,-1440,517,-2637,5353,106,-104,130,-32,-156
2,3162715,-1443,520,-2647,5360,99,-93,130,-32,-156
2,3162729,-1443,520,-2647,5360,99,-93,130,-32,-156
2,3162742,-1447,525,-2641,5363,105,-93,130,-32,-156
2,3162755,-1447,522,-2645,5363,107,-92,130,-32,-156
2,3162770,-1447,522,-2645,5363,107,-92,130,-32,-156
2,3162783,-1444,529,-2635,5374,102,-99,137,-39,-159
2,3162797,-1443,520,-2641,5372,98,-100,137,-39,-159
2,3162811,-1443,520,-2641,5372,98,-100,137,-39,-159
2,3162825,-1447,529,-2643,5371,103,-94,137,-39,-159
2,3162840,-1447,538,-2643,5372,105,-96,137,-39,-159
2,3162849,-1447,538,-2643,5372,105,-96,137,-39,-159
2,3162864,-1447,538,-2643,5372,105,-96,137,-39,-159
2,3162877,-1444,531,-2645,5381,104,-99,137,-39,-159
2,3162891,-1444,531,-2645,5381,104,-99,137,-39,-159
2,3162904,-1443,559,-2645,5372,113,-95,142,-38,-162
2,3162918,-1448,578,-2639,5366,103,-101,142,-38,-162
2,3162932,-1448,578,-2639,5366,103,-101,142,-38,-162
2,3162946,-1446,552,-2647,5367,97,-101,142,-38,-162
2,3162959,-1446,539,-2639,5368,103,-105,142,-38,-162
2,3162972,-1446,539,-2639,5368,103,-105,142,-38,-162
2,3162987,-1448,565,-2638,5366,107,-95,142,-38,-162
2,3163000,-1450,560,-2640,5361,110,-88,142,-38,-162
2,3163014,-1447,556,-2637,5364,105,-100,142,-38,-162
2,3163028,-1447,556,-2637,5364,105,-100,145,-33,-159
2,3163041,-1443,548,-2637,5359,103,-98,145,-33,-159
2,3163053,-1443,548,-2637,5359,103,-98,145,-33,-159
2,3163067,-1444,561,-2638,5357,104,-97,145,-33,-159
2,3163080,-1445,553,-2638,5362,109,-93,145,-33,-159
2,3163095,-1451,568,-2637,5360,104,-96,145,-33,-159
2,3163110,-1451,568,-2637,5360,104,-96,145,-33,-159
2,3163125,-1446,551,-2635,5360,109,-97,145,-33,-159
2,3163141,-1447,560,-2626,5357,105,-96,152,-32,-154
2,3163156,-1448,544,-2632,5361,114,-89,152,-32,-154
2,3163169,-1448,544,-2632,5361,114,-89,152,-32,-154
2,3163184,-1452,551,-2631,5357,109,-96,152,-32,-154
2,3163197,-1441,552,-2642,5358,103,-99,152,-32,-154
2,3163209,-1441,552,-2642,5358,103,-99,152,-32,-154
2,3163225,-1450,548,-2634,5360,105,-94,152,-32,-154
2,3163237,-1445,544,-2642,5360,106,-89,152,-32,-154
2,3163252,-1445,544,-2642,5360,106,-89,152,-32,-154
2,3163266,-1445,556,-2632,5359,103,-92,152,-32,-154
2,3163279,-1446,558,-2630,5353,109,-98,148,-36,-150
2,3163288,-1446,558,-2630,5353,109,-98,148,-36,-150
2,3163301,-1445,547,-2634,5358,105,-97,148,-36,-150
2,3163319,-1448,544,-2635,5356,108,-93,148,-36,-150
2,3163333,-1448,544,-2635,5356,108,-93,148,-36,-150
2,3163346,-1446,558,-2630,5351,103,-94,148,-36,-150
2,3163361,-1448,549,-2632,5353,98,-98,148,-36,-150
2,3163376,-1445,547,-2630,5352,98,-95,148,-36,-150
2,3163392,-1445,547,-2630,5352,98,-95,148,-36,-150
2,3163406,-1446,539,-2631,5354,96,-97,151,-31,-151
2,3163419,-1446,545,-2634,5352,104,-92,151,-31,-151
2,3163433,-1446,545,-2634,5352,104,-92,151,-31,-151
2,3163449,-1442,526,-2638,5356,109,-92,151,-31,-151
2,3163463,-1445,517,-2630,5348,102,-103,151,-31,-151
2,3163473,-1445,517,-2630,5348,102,-103,151,-31,-151
2,3163488,-1439,494,-2635,5353,100,-103,151,-31,-151
2,3163501,-1447,506,-2636,5357,106,-93,151,-31,-151
2,3163514,-1443,521,-2633,5355,106,-93,151,-31,-151
2,3163528,-1443,521,-2633,5355,106,-93,162,-32,-150
2,3163539,-1449,506,-2631,5359,103,-94,162,-32,-150
2,3163553,-1449,506,-2631,5359,103,-94,162,-32,-150
2,3163569,-1442,514,-2637,5355,100,-94,162,-32,-150
2,3163582,-1444,519,-2644,5352,94,-93,162,-32,-150
2,3163596,-1449,532,-2642,5359,104,-85,162,-32,-150
2,3163612,-1449,532,-2642,5359,104,-85,162,-32,-150
2,3163627,-1445,531,-2639,5361,106,-90,162,-32,-150
2,3163641,-1443,523,-2644,5366,102,-104,162,-30,-140
2,3163656,-1440,525,-2639,5366,103,-98,162,-30,-140
2,3163669,-1440,525,-2639,5366,103,-98,162,-30,-140
2,3163681,-1448,535,-2639,5363,101,-89,162,-30,-140
2,3163694,-1448,535,-2639,5363,101,-89,162,-30,-140
2,3163706,-1446,539,-2641,5372,105,-94,162,-30,-140
2,3163719,-1449,543,-2647,5369,98,-95,162,-30,-140
2,3163734,-1449,543,-2647,5369,98,-95,162,-30,-140
2,3163747,-1444,532,-2646,5364,102,-96,162,-30,-140
2,3163758,-1448,563,-2643,5369,110,-86,166,-28,-132
2,3163771,-1448,563,-2643,5369,110,-86,166,-28,-132
2,3163786,-1450,572,-2642,5372,110,-92,166,-28,-132
2,3163799,-1447,556,-2641,5363,100,-95,166,-28,-132
2,3163813,-1447,556,-2641,5363,100,-95,166,-28,-132
2,3163829,-1441,539,-2639,5364,104,-98,166,-28,-132
2,3163843,-1443,571,-2639,5371,110,-94,166,-28,-132
2,3163858,-1452,558,-2639,5362,111,-88,166,-28,-132
2,3163872,-1452,558,-2639,5362,111,-88,166,-28,-132
2,3163884,-1444,561,-2635,5363,106,-94,164,-28,-136
2,3163898,-1444,540,-2637,5352,97,-100,164,-28,-136
2,3163914,-1444,540,-2637,5352,97,-100,164,-28,-136
2,3163930,-1448,559,-2635,5357,97,-96,164,-28,-136
2,3163940,-1450,548,-2634,5360,103,-96,164,-28,-136
2,3163955,-1449,571,-2626,5358,107,-95,164,-28,-136
2,3163968,-1449,571,-2626,5358,107,-95,164,-28,-136
2,3163983,-1442,549,-2637,5362,99,-101,164,-28,-136
2,3163998,-1445,558,-2635,5351,90,-97,164,-28,-136
2,3164011,-1445,558,-2635,5351,90,-97,164,-28,-136
2,3164023,-1441,539,-2633,5361,101,-95,159,-29,-133
2,3164038,-1443,565,-2628,5361,108,-95,159,-29,-133
2,3164053,-1443,565,-2628,5361,108,-95,159,-29,-133
2,3164067,-1444,548,-2638,5361,99,-92,159,-29,-133
2,3164080,-1448,547,-2630,5359,101,-84,159,-29,-133
2,3164093,-1448,547,-2630,5359,101,-84,159,-29,-133
2,3164107,-1445,539,-2637,5353,108,-91,159,-29,-133
2,3164121,-1450,557,-2633,5355,103,-92,159,-29,-133
2,3164134,-1450,557,-2633,5355,103,-92,159,-29,-133
2,3164149,-1446,551,-2632,5354,102,-92,165,-29,-119
2,3164163,-1443,545,-2632,5353,104,-97,165,-29,-119
2,3164174,-1443,545,-2632,5353,104,-97,165,-29,-119
2,3164188,-1446,546,-2636,5356,106,-93,165,-29,-119
2,3164201,-1441,554,-2636,5357,102,-91,165,-29,-119
2,3164216,-1445,545,-2643,5354,100,-85,165,-29,-119
2,3164228,-1445,545,-2643,5354,100,-85,165,-29,-119
2,3164235,-1445,541,-2631,5356,108,-98,165,-29,-119
2,3164250,-1445,541,-2631,5356,108,-98,165,-29,-119
2,3164265,-1441,529,-2631,5351,113,-103,164,-30,-112
2,3164280,-1445,534,-2633,5350,103,-93,164,-30,-112
2,3164296,-1444,514,-2630,5356,104,-88,164,-30,-112
2,3164312,-1444,514,-2630,5356,104,-88,164,-30,-112
2,3164325,-1445,501,-2638,5350,105,-99,164,-30,-112
2,3164339,-1441,495,-2637,5353,108,-97,164,-30,-112
2,3164351,-1441,495,-2637,5353,108,-97,164,-30,-112
2,3164360,-1446,527,-2639,5355,105,-100,164,-30,-112
2,3164377,-1446,513,-2641,5352,102,-91,161,-33,-115
2,3164391,-1446,513,-2641,5352,102,-91,161,-33,-115
2,3164404,-1440,519,-2631,5356,106,-99,161,-33,-115
2,3164418,-1442,516,-2639,5363,102,-104,161,-33,-115
2,3164431,-1442,516,-2639,5363,102,-104,161,-33,-115
2,3164440,-1445,532,-2642,5359,105,-95,161,-33,-115
2,3164454,-1445,532,-2642,5359,105,-95,161,-33,-115
2,3164468,-1446,527,-2643,5359,114,-96,161,-33,-115
2,3164479,-1444,538,-2641,5366,105,-104,161,-33,-115
2,3164493,-1444,538,-2641,5366,105,-104,161,-33,-115
2,3164508,-1444,520,-2644,5368,99,-103,153,-33,-115
2,3164521,-1444,530,-2633,5363,101,-94,153,-33,-115
2,3164534,-1444,530,-2633,5363,101,-94,153,-33,-115
2,3164551,-1449,537,-2642,5360,105,-100,153,-33,-115
2,3164566,-1448,550,-2641,5360,111,-102,153,-33,-115
2,3164581,-1446,535,-2645,5370,104,-100,153,-33,-115
2,3164596,-1443,556,-2639,5371,104,-91,153,-33,-115
2,3164609,-1443,556,-2639,5371,104,-91,153,-33,-115
2,3164622,-1445,576,-2641,5369,105,-96,153,-33,-115
2,3164636,-1446,559,-2637,5369,103,-101,153,-33,-115
2,3164647,-1446,559,-2637,5369,103,-101,166,-22,-88
2,3164660,-1445,536,-2638,5369,102,-101,166,-22,-88
2,3164674,-1445,536,-2638,5369,102,-101,166,-22,-88
2,3164688,-1441,570,-2639,5362,107,-97,166,-22,-88
2,3164701,-1453,555,-2639,5363,107,-86,166,-22,-88
2,3164712,-1453,555,-2639,5363,107,-86,166,-22,-88
2,3164726,-1448,562,-2632,5359,103,-97,166,-22,-88
2,3164739,-1443,543,-2636,5363,104,-99,166,-22,-88
2,3164753,-1443,543,-2636,5363,104,-99,166,-22,-88
2,3164768,-1444,561,-2629,5364,109,-98,161,-37,-83
2,3164783,-1442,552,-2637,5361,110,-94,161,-37,-83
2,3164796,-1451,571,-2634,5363,114,-97,161,-37,-83
2,3164810,-1451,571,-2634,5363,114,-97,161,-37,-83
2,3164825,-1441,551,-2631,5361,107,-95,161,-37,-83
2,3164839,-1447,556,-2633,5361,108,-99,161,-37,-83
2,3164851,-1447,556,-2633,5361,108,-99,161,-37,-83
2,3164865,-1447,542,-2634,5361,110,-105,161,-37,-83
2,3164879,-1448,562,-2635,5355,114,-104,159,-37,-81
2,3164893,-1448,562,-2635,5355,114,-104,159,-37,-81
2,3164906,-1447,550,-2627,5363,103,-100,159,-37,-81
2,3164920,-1445,551,-2633,5353,111,-92,159,-37,-81
2,3164936,-1445,539,-2638,5360,104,-95,159,-37,-81
2,3164948,-1445,539,-2638,5360,104,-95,159,-37,-81
2,3164961,-1445,559,-2627,5361,111,-102,159,-37,-81
2,3164975,-1445,559,-2627,5361,111,-102,159,-37,-81
2,3164988,-1444,551,-2630,5357,110,-97,159,-37,-81
2,3165003,-1448,545,-2632,5360,105,-100,160,-34,-92
2,3165018,-1445,542,-2632,5356,105,-103,160,-34,-92
2,3165029,-1445,542,-2632,5356,105,-103,160,-34,-92
2,3165044,-1445,554,-2630,5356,109,-94,160,-34,-92
2,3165060,-1445,549,-2634,5358,105,-96,160,-34,-92
2,3165075,-1445,549,-2634,5358,105,-96,160,-34,-92
2,3165089,-1444,546,-2628,5354,104,-96,160,-34,-92
2,3165102,-1442,534,-2635,5359,106,-95,160,-34,-92
2,3165116,-1442,534,-2635,5359,106,-95,160,-34,-92
2,3165129,-1445,539,-2633,5350,109,-94,165,-37,-69
2,3165144,-1446,528,-2631,5346,107,-89,165,-37,-69
2,3165157,-1440,503,-2638,5349,109,-94,165,-37,-69
2,3165170,-1440,503,-2638,5349,109,-94,165,-37,-69
2,3165186,-1441,506,-2633,5353,103,-94,165,-37,-69
2,3165199,-1444,518,-2639,5348,101,-88,165,-37,-69
2,3165212,-1444,518,-2639,5348,101,-88,165,-37,-69
2,3165227,-1446,529,-2636,5358,106,-95,165,-37,-69
2,3165240,-1446,510,-2642,5362,106,-95,165,-37,-69
2,3165254,-1446,510,-2642,5362,106,-95,165,-37,-69
2,3165270,-1443,524,-2636,5358,106,-99,159,-29,-65
2,3165285,-1443,521,-2639,5366,106,-93,159,-29,-65
2,3165300,-1447,529,-2637,5372,115,-98,159,-29,-65
2,3165315,-1447,529,-2637,5372,115,-98,159,-29,-65
2,3165328,-1446,531,-2641,5367,108,-103,159,-29,-65
2,3165343,-1448,527,-2645,5368,102,-97,159,-29,-65
2,3165358,-1442,533,-2642,5367,104,-99,159,-29,-65
2,3165370,-1442,533,-2642,5367,104,-99,159,-29,-65
2,3165382,-1448,538,-2640,5370,99,-97,155,-25,-59
2,3165395,-1448,538,-2640,5370,99,-97,155,-25,-59
2,3165409,-1440,549,-2636,5367,103,-92,155,-25,-59
2,3165423,-1448,536,-2637,5364,99,-100,155,-25,-59
2,3165434,-1448,536,-2637,5364,99,-100,155,-25,-59
2,3165447,-1445,539,-2638,5366,104,-93,155,-25,-59
2,3165460,-1454,586,-2641,5370,111,-89,155,-25,-59
2,3165474,-1454,586,-2641,5370,111,-89,155,-25,-59
2,3165489,-1449,546,-2634,5374,103,-94,155,-25,-59
2,3165504,-1443,559,-2632,5371,99,-106,158,-26,-52
2,3165519,-1447,549,-2634,5362,109,-101,158,-26,-52
2,3165533,-1447,549,-2634,5362,109,-101,158,-26,-52
2,3165547,-1448,573,-2629,5366,109,-95,158,-26,-52
2,3165561,-1448,560,-2642,5363,101,-90,158,-26,-52
2,3165575,-1448,560,-2642,5363,101,-90,158,-26,-52
2,3165586,-1446,556,-2635,5363,101,-105,158,-26,-52
2,3165600,-1442,548,-2637,5362,105,-98,158,-26,-52
2,3165614,-1442,548,-2637,5362,105,-98,158,-26,-52
2,3165622,-1449,556,-2628,5359,116,-89,137,-23,-47
2,3165633,-1449,556,-2628,5359,116,-89,137,-23,-47
2,3165646,-1450,565,-2635,5353,103,-99,137,-23,-47
2,3165660,-1444,559,-2628,5362,109,-97,137,-23,-47
2,3165673,-1444,559,-2628,5362,109,-97,137,-23,-47
2,3165685,-1448,556,-2632,5365,106,-98,137,-23,-47
2,3165699,-1446,553,-2633,5362,110,-94,137,-23,-47
2,3165712,-1446,553,-2633,5362,110,-94,137,-23,-47
2,3165726,-1449,554,-2637,5363,117,-94,137,-23,-47
2,3165740,-1445,561,-2631,5366,104,-99,129,-27,-41
2,3165754,-1445,561,-2631,5366,104,-99,129,-27,-41
2,3165768,-1444,556,-2629,5360,100,-95,129,-27,-41
2,3165782,-1442,549,-2636,5359,108,-88,129,-27,-41
2,3165797,-1444,554,-2631,5359,107,-88,129,-27,-41
2,3165811,-1444,554,-2631,5359,107,-88,129,-27,-41
2,3165824,-1448,554,-2633,5364,91,-88,129,-27,-41
2,3165839,-1443,554,-2634,5352,101,-100,129,-27,-41
2,3165852,-1443,554,-2634,5352,101,-100,129,-27,-41
2,3165865,-1444,544,-2630,5355,111,-96,129,-27,-41
2,3165879,-1442,557,-2628,5355,104,-102,130,-26,-34
2,3165893,-1442,557,-2628,5355,104,-102,130,-26,-34
2,3165908,-1450,547,-2630,5354,101,-106,130,-26,-34
2,3165923,-1446,552,-2631,5354,108,-105,130,-26,-34
2,3165935,-1446,552,-2631,5354,108,-105,130,-26,-34
2,3165949,-1444,543,-2629,5358,108,-98,130,-26,-34
2,3165964,-1445,547,-2632,5354,107,-102,130,-26,-34
2,3165978,-1442,532,-2635,5360,103,-101,130,-26,-34
2,3165991,-1442,532,-2635,5360,103,-101,130,-26,-34
2,3166006,-1444,532,-2632,5358,112,-105,119,-23,-23
2,3166020,-1442,503,-2628,5354,113,-100,119,-23,-23
2,3166034,-1442,503,-2628,5354,113,-100,119,-23,-23
2,3166048,-1447,511,-2635,5353,104,-87,119,-23,-23
2,3166062,-1442,519,-2632,5355,104,-94,119,-23,-23
2,3166074,-1442,519,-2632,5355,104,-94,119,-23,-23
2,3166089,-1446,529,-2631,5359,106,-92,119,-23,-23
2,3166101,-1441,513,-2638,5364,103,-101,119,-23,-23
2,3166114,-1441,513,-2638,5364,103,-101,119,-23,-23
2,3166129,-1442,528,-2632,5352,100,-96,115,-13,-25
2,3166142,-1445,520,-2634,5359,106,-94,115,-13,-25
2,3166154,-1445,520,-2634,5359,106,-94,115,-13,-25
2,3166167,-1445,534,-2635,5360,107,-94,115,-13,-25
2,3166180,-1443,524,-2632,5364,109,-94,115,-13,-25
2,3166193,-1443,524,-2632,5364,109,-94,115,-13,-25
2,3166210,-1443,530,-2633,5369,99,-102,115,-13,-25
2,3166226,-1445,534,-2636,5373,106,-96,115,-13,-25
2,3166240,-1447,537,-2636,5371,105,-96,113,-25,-23
2,3166256,-1447,537,-2636,5371,105,-96,113,-25,-23
2,3166269,-1445,545,-2632,5370,106,-102,113,-25,-23
2,3166282,-1444,541,-2641,5368,101,-102,113,-25,-23
2,3166297,-1442,545,-2643,5366,105,-87,113,-25,-23
2,3166310,-1442,545,-2643,5366,105,-87,113,-25,-23
2,3166321,-1445,588,-2634,5367,112,-91,113,-25,-23
2,3166334,-1445,588,-2634,5367,112,-91,113,-25,-23
2,3166348,-1445,588,-2634,5367,112,-91,113,-25,-23
2,3166361,-1439,557,-2635,5375,112,-102,102,-20,-28
2,3166374,-1439,557,-2635,5375,112,-102,102,-20,-28
2,3166387,-1442,561,-2637,5369,109,-98,102,-20,-28
2,3166402,-1449,563,-2629,5367,95,-95,102,-20,-28
2,3166416,-1449,563,-2629,5367,95,-95,102,-20,-28
2,3166428,-1440,556,-2638,5360,97,-94,102,-20,-28
2,3166443,-1444,548,-2631,5364,102,-101,102,-20,-28
2,3166458,-1443,560,-2636,5363,96,-95,102,-20,-28
2,3166474,-1443,560,-2636,5363,96,-95,102,-20,-28
2,3166489,-1445,553,-2634,5361,98,-90,102,-20,-28
2,3166502,-1447,567,-2635,5354,104,-95,102,-24,-16
2,3166517,-1447,567,-2635,5354,104,-95,102,-24,-16
2,3166531,-1441,554,-2635,5351,92,-99,102,-24,-16
2,3166544,-1447,565,-2630,5354,99,-93,102,-24,-16
2,3166556,-1447,565,-2630,5354,99,-93,102,-24,-16
2,3166570,-1442,550,-2635,5363,106,-93,102,-24,-16
2,3166584,-1446,562,-2628,5364,105,-97,102,-24,-16
2,3166600,-1443,551,-2638,5358,108,-95,102,-24,-16
2,3166614,-1443,551,-2638,5358,108,-95,102,-24,-16
2,3166627,-1451,554,-2623,5351,98,-97,93,-25,-17
2,3166640,-1449,544,-2632,5354,108,-98,93,-25,-17
2,3166653,-1449,544,-2632,5354,108,-98,93,-25,-17
2,3166667,-1444,563,-2628,5360,106,-103,93,-25,-17
2,3166680,-1449,552,-2638,5356,91,-99,93,-25,-17
2,3166695,-1449,552,-2638,5356,91,-99,93,-25,-17
2,3166710,-1445,562,-2628,5351,104,-97,93,-25,-17
2,3166724,-1445,548,-2636,5357,104,-98,93,-25,-17
2,3166738,-1446,563,-2621,5351,105,-99,93,-19,-23
2,3166752,-1446,563,-2621,5351,105,-99,93,-19,-23
2,3166767,-1442,548,-2632,5356,107,-101,93,-19,-23
2,3166780,-1443,554,-2630,5356,110,-97,93,-19,-23
2,3166791,-1443,554,-2630,5356,110,-97,93,-19,-23
2,3166804,-1446,545,-2629,5350,107,-96,93,-19,-23
2,3166819,-1451,541,-2633,5352,107,-95,93,-19,-23
2,3166832,-1451,541,-2633,5352,107,-95,93,-19,-23
2,3166846,-1443,532,-2630,5350,104,-91,93,-19,-23
2,3166860,-1443,504,-2628,5351,101,-92,84,-18,-14
2,3166873,-1443,504,-2628,5351,101,-92,84,-18,-14
2,3166886,-1441,502,-2632,5359,107,-98,84,-18,-14
2,3166901,-1444,512,-2634,5352,106,-97,84,-18,-14
2,3166914,-1444,512,-2634,5352,106,-97,84,-18,-14
2,3166928,-1444,528,-2639,5354,104,-99,84,-18,-14
2,3166945,-1444,512,-2636,5358,111,-95,84,-18,-14
2,3166954,-1444,512,-2636,5358,111,-95,84,-18,-14
2,3166969,-1442,521,-2635,5354,100,-92,84,-18,-14
2,3166985,-1448,523,-2638,5361,101,-94,82,-26,-26
2,3166998,-1450,533,-2635,5367,108,-86,82,-26,-26
2,3167010,-1450,533,-2635,5367,108,-86,82,-26,-26
2,3167026,-1444,525,-2630,5367,107,-98,82,-26,-26
2,3167039,-1442,531,-2636,5372,107,-92,82,-26,-26
2,3167052,-1442,531,-2636,5372,107,-92,82,-26,-26
2,3167067,-1444,529,-2634,5372,111,-94,82,-26,-26
2,3167081,-1445,535,-2639,5367,105,-103,82,-26,-26
2,3167094,-1445,535,-2639,5367,105,-103,82,-26,-26
2,3167107,-1440,548,-2643,5374,104,-103,82,-26,-26
2,3167121,-1446,543,-2637,5368,95,-95,76,-24,-28
2,3167134,-1446,543,-2637,5368,95,-95,76,-24,-28
2,3167150,-1442,541,-2640,5368,107,-94,76,-24,-28
2,3167164,-1448,586,-2634,5369,113,-103,76,-24,-28
2,3167179,-1448,586,-2634,5369,113,-103,76,-24,-28
2,3167196,-1448,586,-2634,5369,113,-103,76,-24,-28
2,3167208,-1445,565,-2639,5376,98,-107,76,-24,-28
2,3167222,-1443,550,-2636,5367,111,-97,76,-24,-28
2,3167237,-1443,550,-2636,5367,111,-97,76,-24,-28
2,3167251,-1444,573,-2634,5365,109,-88,74,-20,-28
2,3167265,-1446,559,-2636,5363,104,-94,74,-20,-28
2,3167278,-1446,559,-2636,5363,104,-94,74,-20,-28
2,3167288,-1445,564,-2632,5358,95,-95,74,-20,-28
2,3167301,-1442,551,-2642,5364,102,-97,74,-20,-28
2,3167314,-1442,551,-2642,5364,102,-97,74,-20,-28
2,3167329,-1447,561,-2639,5357,98,-105,74,-20,-28
2,3167341,-1447,561,-2639,5357,98,-105,74,-20,-28
2,3167355,-1447,561,-2639,5357,98,-105,74,-20,-28
2,3167369,-1447,564,-2624,5363,103,-96,71,-7,-23
2,3167383,-1445,554,-2631,5365,103,-100,71,-7,-23
2,3167398,-1448,549,-2632,5357,111,-100,71,-7,-23
2,3167413,-1448,549,-2632,5357,111,-100,71,-7,-23
2,3167428,-1445,555,-2626,5353,107,-93,71,-7,-23
2,3167442,-1444,558,-2634,5360,103,-98,71,-7,-23
2,3167457,-1444,558,-2634,5360,103,-98,71,-7,-23
2,3167472,-1444,560,-2633,5363,111,-101,71,-7,-23
2,3167488,-1442,545,-2634,5356,111,-100,61,3,-37
2,3167501,-1444,557,-2630,5356,109,-105,61,3,-37
2,3167514,-1444,557,-2630,5356,109,-105,61,3,-37
2,3167527,-1441,555,-2627,5354,105,-98,61,3,-37
2,3167541,-1448,555,-2629,5354,106,-92,61,3,-37
2,3167555,-1448,555,-2629,5354,106,-92,61,3,-37
2,3167568,-1445,547,-2629,5359,107,-94,61,3,-37
2,3167583,-1448,558,-2628,5363,110,-94,61,3,-37
2,3167595,-1448,558,-2628,5363,110,-94,61,3,-37
2,3167608,-1446,548,-2631,5358,101,-95,57,-3,-41
2,3167622,-1445,556,-2630,5358,102,-93,57,-3,-41
2,3167636,-1445,556,-2630,5358,102,-93,57,-3,-41
2,3167650,-1444,545,-2628,5346,98,-99,57,-3,-41
2,3167666,-1446,550,-2632,5351,99,-92,57,-3,-41
2,3167681,-1441,530,-2636,5355,99,-92,57,-3,-41
2,3167696,-1441,530,-2636,5355,99,-92,57,-3,-41
2,3167711,-1443,534,-2635,5355,110,-97,57,-3,-41
2,3167725,-1441,498,-2636,5361,111,-103,56,0,-48
2,3167739,-1444,513,-2627,5359,104,-106,56,0,-48
2,3167752,-1444,513,-2627,5359,104,-106,56,0,-48
2,3167763,-1445,523,-2632,5359,108,-98,56,0,-48
2,3167776,-1445,523,-2632,5359,108,-98,56,0,-48
2,3167790,-1449,522,-2636,5357,103,-95,56,0,-48
2,3167804,-1439,517,-2631,5361,107,-105,56,0,-48
2,3167815,-1439,517,-2631,5361,107,-105,56,0,-48
2,3167827,-1442,522,-2636,5362,103,-98,56,0,-48
2,3167841,-1443,525,-2641,5367,102,-93,56,0,-48
2,3167854,-1443,525,-2641,5367,102,-93,56,0,-48
2,3167868,-1441,539,-2631,5367,106,-93,50,2,-52
2,3167881,-1444,530,-2635,5369,103,-102,50,2,-52
2,3167894,-1444,530,-2635,5369,103,-102,50,2,-52
2,3167908,-1440,539,-2633,5370,104,-99,50,2,-52
2,3167924,-1445,533,-2643,5364,108,-94,50,2,-52
2,3167937,-1445,533,-2643,5364,108,-94,50,2,-52
2,3167950,-1450,547,-2635,5369,107,-98,50,2,-52
2,3167966,-1445,543,-2638,5371,101,-103,50,2,-52
2,3167981,-1444,539,-2631,5379,97,-98,53,1,-57
2,3167994,-1444,539,-2631,5379,97,-98,53,1,-57
2,3168008,-1452,581,-2637,5376,108,-96,53,1,-57
2,3168022,-1446,560,-2642,5371,110,-91,53,1,-57
2,3168036,-1446,560,-2642,5371,110,-91,53,1,-57
2,3168051,-1446,570,-2639,5368,104,-96,53,1,-57
2,3168063,-1440,541,-2631,5370,105,-104,53,1,-57
2,3168077,-1440,541,-2631,5370,105,-104,53,1,-57
2,3168092,-1443,576,-2635,5364,99,-103,53,1,-57
2,3168105,-1444,554,-2632,5367,109,-92,51,5,-49
2,3168119,-1448,563,-2629,5358,102,-101,51,5,-49
2,3168134,-1448,563,-2629,5358,102,-101,51,5,-49
2,3168148,-1444,547,-2639,5367,93,-102,51,5,-49
2,3168161,-1447,566,-2635,5363,102,-96,51,5,-49
2,3168177,-1447,566,-2635,5363,102,-96,51,5,-49
2,3168192,-1446,552,-2639,5362,110,-100,51,5,-49
2,3168205,-1444,572,-2632,5356,114,-100,51,5,-49
2,3168219,-1444,572,-2632,5356,114,-100,51,5,-49
2,3168231,-1443,557,-2635,5354,101,-93,49,-3,-67
2,3168245,-1445,559,-2632,5362,110,-89,49,-3,-67
2,3168259,-1446,543,-2631,5357,103,-90,49,-3,-67
2,3168272,-1446,543,-2631,5357,103,-90,49,-3,-67
2,3168285,-1447,566,-2633,5355,103,-92,49,-3,-67
2,3168297,-1447,566,-2633,5355,103,-92,49,-3,-67
2,3168313,-1443,553,-2634,5360,103,-101,49,-3,-67
2,3168326,-1448,550,-2630,5367,112,-94,49,-3,-67
2,3168339,-1447,551,-2634,5355,107,-106,50,4,-64
2,3168354,-1447,551,-2634,5355,107,-106,50,4,-64
2,3168369,-1446,558,-2628,5353,104,-99,50,4,-64
2,3168381,-1446,554,-2632,5357,105,-98,50,4,-64
2,3168397,-1446,554,-2632,5357,105,-98,50,4,-64
2,3168411,-1443,549,-2631,5357,113,-91,50,4,-64
2,3168425,-1446,554,-2633,5360,104,-100,50,4,-64
2,3168440,-1447,555,-2632,5359,94,-97,50,4,-64
2,3168452,-1447,555,-2632,5359,94,-97,50,4,-64
2,3168465,-1447,549,-2630,5358,103,-94,50,4,-64
2,3168479,-1441,546,-2635,5355,102,-94,50,4,-64
2,3168492,-1441,546,-2635,5355,102,-94,51,-3,-61
2,3168506,-1445,536,-2633,5358,102,-97,51,-3,-61
2,3168520,-1448,540,-2632,5353,93,-98,51,-3,-61
2,3168531,-1448,540,-2632,5353,93,-98,51,-3,-61
2,3168546,-1445,507,-2629,5355,108,-95,51,-3,-61
2,3168560,-1440,511,-2632,5356,100,-98,51,-3,-61
2,3168573,-1440,511,-2632,5356,100,-98,51,-3,-61
2,3168582,-1444,504,-2640,5353,102,-97,51,-3,-61
2,3168596,-1444,504,-2640,5353,102,-97,51,-3,-61
2,3168611,-1443,530,-2628,5354,98,-96,62,0,-76
2,3168625,-1447,511,-2641,5362,106,-98,62,0,-76
2,3168636,-1447,511,-2641,5362,106,-98,62,0,-76
2,3168653,-1442,521,-2637,5361,102,-101,62,0,-76
2,3168668,-1445,520,-2639,5359,99,-96,62,0,-76
2,3168681,-1446,534,-2639,5359,103,-95,62,0,-76
2,3168694,-1446,534,-2639,5359,103,-95,62,0,-76
2,3168708,-1449,530,-2638,5369,114,-94,62,0,-76
2,3168720,-1442,535,-2632,5372,108,-103,51,-3,-79
2,3168731,-1442,535,-2632,5372,108,-103,51,-3,-79
2,3168745,-1446,526,-2639,5372,99,-94,51,-3,-79
2,3168759,-1446,526,-2639,5372,99,-94,51,-3,-79
2,3168774,-1449,541,-2644,5368,109,-94,51,-3,-79
2,3168788,-1447,545,-2641,5376,112,-90,51,-3,-79
2,3168800,-1447,548,-2640,5375,97,-96,51,-3,-79
2,3168815,-1447,548,-2640,5375,97,-96,51,-3,-79
2,3168827,-1446,537,-2645,5371,111,-102,51,-3,-79
2,3168840,-1444,573,-2640,5373,115,-99,56,-2,-86
2,3168856,-1444,573,-2640,5373,115,-99,56,-2,-86
2,3168869,-1447,569,-2635,5373,102,-95,56,-2,-86
2,3168882,-1447,566,-2640,5369,100,-94,56,-2,-86
2,3168896,-1447,566,-2640,5369,100,-94,56,-2,-86
2,3168910,-1445,540,-2636,5364,100,-96,56,-2,-86
2,3168925,-1440,583,-2647,5363,99,-91,56,-2,-86
2,3168937,-1440,583,-2647,5363,99,-91,56,-2,-86
2,3168950,-1450,559,-2641,5364,101,-88,56,-2,-86
2,3168964,-1449,569,-2638,5364,105,-100,56,-2,-98
2,3168977,-1449,569,-2638,5364,105,-100,56,-2,-98
2,3168992,-1440,542,-2635,5356,101,-100,56,-2,-98
2,3169007,-1444,569,-2636,5352,102,-90,56,-2,-98
2,3169022,-1444,555,-2640,5356,104,-89,56,-2,-98
2,3169038,-1444,555,-2640,5356,104,-89,56,-2,-98
2,3169050,-1450,569,-2637,5358,107,-97,56,-2,-98
2,3169064,-1442,555,-2633,5357,98,-103,56,-2,-98
2,3169080,-1447,558,-2632,5362,101,-98,56,-2,-98
2,3169092,-1447,558,-2632,5362,101,-98,56,-2,-98
2,3169103,-1444,548,-2636,5363,106,-87,57,-7,-89
2,3169117,-1444,548,-2636,5363,106,-87,57,-7,-89
2,3169130,-1449,566,-2629,5354,106,-90,57,-7,-89
2,3169143,-1445,550,-2633,5353,104,-103,57,-7,-89
2,3169157,-1445,550,-2633,5353,104,-103,57,-7,-89
2,3169171,-1445,553,-2634,5356,102,-91,57,-7,-89
2,3169184,-1449,546,-2637,5358,110,-101,57,-7,-89
2,3169199,-1449,546,-2637,5358,110,-101,57,-7,-89
2,3169212,-1444,562,-2626,5352,108,-93,57,-7,-89
2,3169226,-1447,549,-2633,5356,98,-95,62,-10,-102
2,3169235,-1447,549,-2633,5356,98,-95,62,-10,-102
2,3169250,-1444,543,-2629,5357,99,-102,62,-10,-102
2,3169265,-1444,547,-2630,5354,106,-101,62,-10,-102
2,3169281,-1448,553,-2629,5362,103,-93,62,-10,-102
2,3169295,-1448,553,-2629,5362,103,-93,62,-10,-102
2,3169307,-1446,551,-2636,5355,99,-93,62,-10,-102
2,3169320,-1445,542,-2633,5354,103,-100,62,-10,-102
2,3169334,-1445,542,-2633,5354,103,-100,62,-10,-102
2,3169348,-1444,541,-2627,5348,110,-97,74,-18,-106
2,3169361,-1444,541,-2628,5351,103,-90,74,-18,-106
2,3169376,-1444,541,-2628,5351,103,-90,74,-18,-106
2,3169388,-1446,502,-2633,5343,102,-86,74,-18,-106
2,3169401,-1440,506,-2637,5351,106,-97,74,-18,-106
2,3169415,-1440,506,-2637,5351,106,-97,74,-18,-106
2,3169427,-1443,504,-2639,5353,103,-102,74,-18,-106
2,3169442,-1446,523,-2638,5355,104,-94,74,-18,-106
2,3169456,-1446,523,-2638,5355,104,-94,74,-18,-106
2,3169469,-1449,510,-2636,5359,113,-101,77,-15,-117
2,3169484,-1441,518,-2637,5362,98,-107,77,-15,-117
2,3169500,-1441,518,-2637,5362,98,-107,77,-15,-117
2,3169515,-1445,522,-2640,5362,99,-100,77,-15,-117
2,3169529,-1443,531,-2639,5364,107,-93,77,-15,-117
2,3169541,-1446,526,-2637,5364,104,-101,77,-15,-117
2,3169554,-1446,526,-2637,5364,104,-101,77,-15,-117
2,3169567,-1442,535,-2638,5363,107,-100,77,-15,-117
2,3169582,-1444,524,-2641,5370,96,-94,75,-19,-127
2,3169595,-1444,524,-2641,5370,96,-94,75,-19,-127
2,3169606,-1446,541,-2634,5375,105,-96,75,-19,-127
2,3169619,-1446,541,-2634,5375,105,-96,75,-19,-127
2,3169633,-1447,545,-2639,5371,111,-100,75,-19,-127
2,3169647,-1446,546,-2637,5371,110,-106,75,-19,-127
2,3169661,-1446,535,-2645,5367,95,-103,75,-19,-127
2,3169677,-1446,535,-2645,5367,95,-103,75,-19,-127
2,3169692,-1447,553,-2637,5365,110,-101,75,-19,-127
2,3169708,-1446,590,-2643,5374,105,-99,75,-19,-127
2,3169722,-1451,549,-2633,5364,99,-99,81,-11,-123
2,3169735,-1451,549,-2633,5364,99,-99,81,-11,-123
2,3169748,-1441,554,-2633,5367,112,-98,81,-11,-123
2,3169762,-1445,558,-2640,5366,105,-105,81,-11,-123
2,3169774,-1445,558,-2640,5366,105,-105,81,-11,-123
2,3169788,-1449,568,-2642,5363,104,-99,81,-11,-123
2,3169802,-1444,563,-2641,5360,105,-98,81,-11,-123
2,3169815,-1444,563,-2641,5360,105,-98,81,-11,-123
2,3169829,-1444,547,-2635,5363,96,-102,81,-11,-123
2,3169841,-1444,559,-2633,5359,98,-93,81,-23,-131
2,3169854,-1444,559,-2633,5359,98,-93,81,-23,-131
2,3169867,-1451,557,-2638,5362,106,-86,81,-23,-131
2,3169882,-1449,565,-2634,5359,97,-99,81,-23,-131
2,3169895,-1449,565,-2634,5359,97,-99,81,-23,-131
2,3169911,-1447,552,-2635,5358,102,-104,81,-23,-131
2,3169928,-1448,557,-2638,5355,96,-100,81,-23,-131
2,3169943,-1444,547,-2637,5353,102,-93,81,-23,-131
2,3169958,-1444,547,-2637,5353,102,-93,81,-23,-131
2,3169972,-1445,552,-2634,5350,105,-97,95,-31,-131
2,3169981,-1441,554,-2635,5351,97,-100,95,-31,-131
2,3169993,-1441,554,-2635,5351,97,-100,95,-31,-131
2,3170009,-1447,552,-2634,5363,96,-94,95,-31,-131
2,3170023,-1446,542,-2642,5361,106,-92,95,-31,-131
2,3170036,-1446,542,-2642,5361,106,-92,95,-31,-131
2,3170050,-1447,555,-2633,5353,99,-98,95,-31,-131
2,3170064,-1448,548,-2638,5355,103,-99,95,-31,-131
2,3170076,-1448,548,-2638,5355,103,-99,95,-31,-131
2,3170091,-1444,550,-2627,5364,98,-97,94,-20,-142
2,3170104,-1447,543,-2632,5360,103,-93,94,-20,-142
2,3170118,-1447,543,-2632,5360,103,-93,94,-20,-142
2,3170132,-1446,559,-2632,5359,102,-93,94,-20,-142
2,3170147,-1445,541,-2633,5361,96,-92,94,-20,-142
2,3170161,-1446,551,-2634,5362,107,-97,94,-20,-142
2,3170176,-1446,551,-2634,5362,107,-97,94,-20,-142
2,3170189,-1444,539,-2636,5353,106,-94,94,-20,-142
2,3170203,-1445,543,-2627,5354,97,-97,93,-25,-139
2,3170219,-1445,543,-2627,5354,97,-97,93,-25,-139
2,3170232,-1446,535,-2637,5352,99,-94,93,-25,-139
2,3170243,-1446,497,-2634,5354,104,-97,93,-25,-139
2,3170257,-1446,497,-2634,5354,104,-97,93,-25,-139
2,3170271,-1441,513,-2637,5358,102,-92,93,-25,-139
2,3170286,-1446,497,-2644,5359,98,-96,93,-25,-139
2,3170299,-1446,497,-2644,5359,98,-96,93,-25,-139
2,3170313,-1448,531,-2642,5365,103,-103,93,-25,-139
2,3170324,-1445,505,-2643,5361,109,-99,93,-25,-139
2,3170337,-1445,505,-2643,5361,109,-99,93,-25,-139
2,3170351,-1441,520,-2636,5361,106,-97,110,-34,-148
2,3170365,-1443,517,-2647,5361,102,-99,110,-34,-148
2,3170380,-1443,517,-2647,5361,102,-99,110,-34,-148
2,3170396,-1445,536,-2640,5359,105,-94,110,-34,-148
2,3170411,-1447,529,-2641,5367,103,-103,110,-34,-148
2,3170424,-1445,533,-2638,5366,106,-93,110,-34,-148
2,3170438,-1445,533,-2638,5366,106,-93,110,-34,-148
2,3170452,-1448,520,-2642,5368,98,-93,110,-34,-148
2,3170463,-1449,544,-2640,5365,103,-94,111,-33,-151
2,3170477,-1449,544,-2640,5365,103,-94,111,-33,-151
2,3170490,-1447,542,-2646,5367,107,-100,111,-33,-151
2,3170503,-1447,545,-2638,5371,97,-96,111,-33,-151
2,3170518,-1447,545,-2638,5371,97,-96,111,-33,-151
2,3170531,-1443,529,-2642,5371,104,-94,111,-33,-151
2,3170542,-1446,567,-2645,5377,104,-95,111,-33,-151
2,3170555,-1446,567,-2645,5377,104,-95,111,-33,-151
2,3170570,-1449,570,-2642,5376,103,-97,111,-33,-151
2,3170584,-1450,554,-2637,5369,101,-96,112,-32,-152
2,3170599,-1450,554,-2637,5369,101,-96,112,-32,-152
2,3170615,-1439,542,-2638,5368,103,-100,112,-32,-152
2,3170629,-1445,580,-2639,5369,107,-91,112,-32,-152
2,3170642,-1451,559,-2641,5368,105,-91,112,-32,-152
2,3170657,-1451,559,-2641,5368,105,-91,112,-32,-152
2,3170672,-1445,561,-2639,5369,103,-95,112,-32,-152
2,3170686,-1444,536,-2642,5365,98,-104,112,-32,-152
2,3170699,-1444,536,-2642,5365,98,-104,112,-32,-152
2,3170710,-1447,566,-2634,5362,104,-99,113,-25,-145
2,3170724,-1448,548,-2644,5354,106,-94,113,-25,-145
2,3170738,-1448,548,-2644,5354,106,-94,113,-25,-145
2,3170752,-1448,568,-2637,5360,95,-96,113,-25,-145
2,3170764,-1442,553,-2646,5360,100,-102,113,-25,-145
2,3170776,-1442,553,-2646,5360,100,-102,113,-25,-145
2,3170789,-1444,559,-2638,5358,102,-97,113,-25,-145
2,3170803,-1448,544,-2640,5367,105,-93,113,-25,-145
2,3170818,-1448,544,-2640,5367,105,-93,113,-25,-145
2,3170832,-1450,563,-2631,5366,98,-94,127,-31,-153
2,3170844,-1446,547,-2638,5371,101,-102,127,-31,-153
2,3170860,-1446,547,-2638,5371,101,-102,127,-31,-153
2,3170875,-1448,547,-2635,5360,99,-103,127,-31,-153
2,3170890,-1447,539,-2635,5356,107,-94,127,-31,-153
2,3170905,-1449,560,-2632,5349,99,-99,127,-31,-153
2,3170917,-1449,560,-2632,5349,99,-99,127,-31,-153
2,3170928,-1448,546,-2640,5354,99,-89,127,-31,-153
2,3170942,-1445,544,-2639,5355,109,-94,127,-31,-153
2,3170956,-1445,544,-2639,5355,109,-94,127,-31,-153
2,3170969,-1445,544,-2636,5352,109,-89,121,-41,-159
2,3170982,-1445,556,-2632,5361,102,-94,121,-41,-159
2,3170996,-1445,556,-2632,5361,102,-94,121,-41,-159
2,3171010,-1450,550,-2641,5359,100,-93,121,-41,-159
2,3171023,-1448,542,-2631,5354,109,-95,121,-41,-159
2,3171038,-1448,542,-2631,5354,109,-95,121,-41,-159
2,3171050,-1444,532,-2634,5357,101,-94,121,-41,-159
2,3171065,-1450,531,-2637,5355,104,-94,121,-41,-159
2,3171080,-1450,531,-2637,5355,104,-94,121,-41,-159
2,3171093,-1446,522,-2631,5366,96,-100,134,-28,-158
2,3171107,-1440,496,-2639,5355,99,-92,134,-28,-158
2,3171124,-1443,506,-2638,5354,95,-92,134,-28,-158
2,3171136,-1443,506,-2638,5354,95,-92,134,-28,-158
2,3171148,-1442,520,-2644,5358,100,-86,134,-28,-158
2,3171163,-1445,519,-2641,5353,99,-87,134,-28,-158
2,3171176,-1445,519,-2641,5353,99,-87,134,-28,-158
2,3171189,-1444,512,-2639,5354,97,-96,134,-28,-158
2,3171204,-1448,518,-2637,5358,95,-97,129,-43,-159
2,3171216,-1448,518,-2637,5358,95,-97,129,-43,-159
2,3171229,-1448,520,-2641,5368,91,-97,129,-43,-159
2,3171243,-1449,529,-2641,5368,102,-95,129,-43,-159
2,3171256,-1449,529,-2641,5368,102,-95,129,-43,-159
2,3171270,-1443,527,-2647,5367,96,-105,129,-43,-159
2,3171286,-1443,522,-2650,5366,98,-102,129,-43,-159
2,3171299,-1443,522,-2650,5366,98,-102,129,-43,-159
2,3171309,-1445,531,-2649,5370,102,-94,129,-43,-159
2,3171324,-1443,535,-2642,5363,98,-86,142,-36,-160
2,3171338,-1443,535,-2642,5363,98,-86,142,-36,-160
2,3171350,-1445,544,-2637,5372,103,-93,142,-36,-160
2,3171364,-1445,528,-2645,5372,102,-96,142,-36,-160
2,3171378,-1445,528,-2645,5372,102,-96,142,-36,-160
2,3171392,-1449,552,-2646,5369,106,-98,142,-36,-160
2,3171405,-1451,578,-2641,5370,103,-94,142,-36,-160
2,3171420,-1451,578,-2641,5370,103,-94,142,-36,-160
2,3171431,-1454,554,-2640,5366,96,-107,142,-36,-160
2,3171445,-1445,543,-2640,5367,100,-102,149,-43,-153
2,3171459,-1445,543,-2640,5367,100,-102,149,-43,-153
2,3171472,-1440,568,-2640,5370,107,-95,149,-43,-153
2,3171487,-1449,557,-2644,5367,106,-91,149,-43,-153
2,3171496,-1449,557,-2644,5367,106,-91,149,-43,-153
2,3171512,-1446,558,-2643,5362,105,-97,149,-43,-153
2,3171523,-1444,547,-2639,5363,97,-101,149,-43,-153
2,3171536,-1444,547,-2639,5363,97,-101,149,-43,-153
2,3171552,-1443,560,-2637,5356,95,-93,149,-43,-153
2,3171567,-1443,560,-2637,5356,95,-93,149,-43,-153
2,3171582,-1452,564,-2636,5360,110,-93,139,-27,-163
2,3171596,-1452,564,-2636,5360,110,-93,139,-27,-163
2,3171609,-1449,544,-2638,5365,102,-97,139,-27,-163
2,3171622,-1446,554,-2640,5364,105,-94,139,-27,-163
2,3171635,-1446,554,-2640,5364,105,-94,139,-27,-163
2,3171648,-1448,544,-2639,5367,106,-93,139,-27,-163
2,3171662,-1450,555,-2635,5365,103,-91,139,-27,-163
2,3171676,-1450,555,-2635,5365,103,-91,139,-27,-163
2,3171689,-1443,556,-2638,5357,105,-96,139,-27,-163
2,3171703,-1444,548,-2636,5360,100,-95,143,-25,-153
2,3171715,-1444,548,-2636,5360,100,-95,143,-25,-153
2,3171728,-1446,543,-2639,5355,105,-93,143,-25,-153
2,3171741,-1446,543,-2639,5355,105,-93,143,-25,-153
2,3171756,-1450,552,-2631,5365,112,-101,143,-25,-153
2,3171771,-1447,556,-2636,5367,97,-106,143,-25,-153
2,3171786,-1451,544,-2637,5361,100,-98,143,-25,-153
2,3171802,-1449,549,-2634,5361,106,-93,143,-25,-153
2,3171816,-1449,549,-2634,5361,106,-93,143,-25,-153
2,3171825,-1447,556,-2629,5358,102,-98,147,-41,-151
2,3171832,-1447,556,-2629,5358,102,-98,147,-41,-151
2,3171841,-1447,556,-2629,5358,102,-98,147,-41,-151
2,3171849,-1447,553,-2635,5354,97,-94,147,-41,-151
2,3171862,-1447,550,-2638,5357,100,-95,147,-41,-151
2,3171875,-1447,550,-2638,5357,100,-95,147,-41,-151
2,3171890,-1445,545,-2636,5359,104,-94,147,-41,-151
2,3171902,-1444,550,-2633,5351,105,-85,147,-41,-151
2,3171914,-1444,550,-2633,5351,105,-85,147,-41,-151
2,3171929,-1445,541,-2639,5352,105,-93,147,-41,-151
2,3171942,-1445,541,-2639,5352,105,-93,147,-41,-151
2,3171956,-1448,526,-2626,5349,103,-98,145,-29,-149
2,3171972,-1444,520,-2631,5349,100,-103,145,-29,-149
2,3171986,-1446,489,-2634,5354,99,-95,145,-29,-149
2,3171999,-1446,489,-2634,5354,99,-95,145,-29,-149
2,3172014,-1445,524,-2628,5362,105,-96,145,-29,-149
2,3172029,-1447,513,-2635,5357,101,-93,145,-29,-149
2,3172044,-1444,518,-2639,5354,99,-91,145,-29,-149
2,3172057,-1444,518,-2639,5354,99,-91,145,-29,-149
2,3172068,-1438,510,-2643,5361,100,-97,155,-31,-143
2,3172083,-1448,525,-2639,5359,101,-98,155,-31,-143
2,3172097,-1448,525,-2639,5359,101,-98,155,-31,-143
2,3172110,-1446,527,-2647,5361,97,-93,155,-31,-143
2,3172122,-1446,527,-2647,5361,97,-93,155,-31,-143
2,3172133,-1446,519,-2644,5360,96,-98,155,-31,-143
2,3172148,-1443,522,-2644,5369,96,-95,155,-31,-143
2,3172162,-1443,522,-2644,5369,96,-95,155,-31,-143
2,3172175,-1446,533,-2637,5369,101,-91,155,-31,-143
2,3172191,-1448,539,-2636,5366,107,-90,169,-23,-129
2,3172206,-1446,541,-2640,5370,105,-94,169,-23,-129
2,3172218,-1446,541,-2640,5370,105,-94,169,-23,-129
2,3172233,-1444,536,-2645,5367,106,-100,169,-23,-129
2,3172246,-1443,535,-2646,5367,99,-95,169,-23,-129
2,3172262,-1443,535,-2646,5367,99,-95,169,-23,-129
2,3172275,-1450,589,-2641,5371,113,-97,169,-23,-129
2,3172288,-1450,551,-2645,5367,104,-90,169,-23,-129
2,3172301,-1450,551,-2645,5367,104,-90,169,-23,-129
2,3172316,-1442,566,-2638,5361,103,-95,169,-23,-129
2,3172329,-1447,533,-2634,5363,103,-98,159,-29,-127
2,3172340,-1447,533,-2634,5363,103,-98,159,-29,-127
2,3172354,-1450,571,-2634,5362,106,-92,159,-29,-127
2,3172368,-1450,546,-2642,5362,101,-89,159,-29,-127
2,3172382,-1450,546,-2642,5362,101,-89,159,-29,-127
2,3172396,-1452,554,-2633,5363,96,-93,159,-29,-127
2,3172409,-1443,542,-2646,5352,106,-96,159,-29,-127
2,3172422,-1443,542,-2646,5352,106,-96,159,-29,-127
2,3172434,-1446,561,-2634,5359,113,-98,159,-29,-127
2,3172449,-1447,555,-2639,5356,113,-92,161,-21,-125
2,3172463,-1448,558,-2638,5349,109,-94,161,-21,-125
2,3172476,-1448,558,-2638,5349,109,-94,161,-21,-125
2,3172492,-1445,552,-2645,5358,111,-97,161,-21,-125
2,3172506,-1447,542,-2637,5362,104,-88,161,-21,-125
2,3172523,-1447,542,-2637,5362,104,-88,161,-21,-125
2,3172536,-1449,557,-2632,5358,106,-91,161,-21,-125
2,3172549,-1449,561,-2632,5359,105,-96,161,-21,-125
2,3172563,-1448,544,-2625,5361,100,-98,157,-29,-119
2,3172576,-1448,544,-2625,5361,100,-98,157,-29,-119
2,3172588,-1444,541,-2634,5357,100,-92,157,-29,-119
2,3172601,-1444,541,-2634,5357,100,-92,157,-29,-119
2,3172616,-1445,549,-2637,5357,97,-92,157,-29,-119
2,3172629,-1445,556,-2636,5358,104,-93,157,-29,-119
2,3172643,-1447,542,-2635,5360,99,-87,157,-29,-119
2,3172658,-1447,542,-2635,5360,99,-87,157,-29,-119
2,3172670,-1446,540,-2636,5355,101,-100,157,-29,-119
2,3172685,-1445,547,-2630,5350,106,-91,168,-28,-112
2,3172700,-1445,547,-2630,5350,106,-91,168,-28,-112
2,3172715,-1450,548,-2633,5351,104,-95,168,-28,-112
2,3172727,-1446,543,-2628,5355,103,-97,168,-28,-112
2,3172742,-1446,543,-2628,5355,103,-97,168,-28,-112
2,3172753,-1444,532,-2629,5359,106,-94,168,-28,-112
2,3172767,-1444,531,-2639,5360,100,-93,168,-28,-112
2,3172782,-1444,531,-2639,5360,100,-93,168,-28,-112
2,3172796,-1446,521,-2636,5357,100,-86,168,-28,-112
2,3172807,-1443,501,-2639,5348,107,-100,162,-32,-108
2,3172820,-1443,501,-2639,5348,107,-100,162,-32,-108
2,3172834,-1437,500,-2634,5351,109,-103,162,-32,-108
2,3172847,-1445,521,-2641,5354,103,-100,162,-32,-108
2,3172860,-1445,521,-2641,5354,103,-100,162,-32,-108
2,3172873,-1443,512,-2636,5355,109,-91,162,-32,-108
2,3172886,-1447,517,-2640,5357,107,-93,162,-32,-108
2,3172901,-1447,517,-2640,5357,107,-93,162,-32,-108
2,3172917,-1446,508,-2636,5364,103,-92,162,-32,-108
2,3172931,-1447,528,-2643,5353,93,-90,162,-32,-108
2,3172943,-1446,526,-2638,5362,96,-93,158,-28,-102
2,3172959,-1446,526,-2638,5362,96,-93,158,-28,-102
2,3172973,-1445,534,-2637,5369,104,-102,158,-28,-102
2,3172986,-1440,525,-2643,5372,94,-100,158,-28,-102
2,3173000,-1440,525,-2643,5372,94,-100,158,-28,-102
2,3173009,-1443,533,-2645,5375,104,-94,158,-28,-102
2,3173022,-1443,533,-2645,5375,104,-94,158,-28,-102
2,3173036,-1444,535,-2646,5372,107,-100,158,-28,-102
2,3173050,-1447,549,-2643,5367,103,-97,158,-28,-102
2,3173063,-1444,538,-2639,5369,95,-99,164,-32,-92
2,3173078,-1444,538,-2639,5369,95,-99,164,-32,-92
2,3173089,-1448,546,-2639,5366,100,-96,164,-32,-92
2,3173102,-1448,546,-2639,5366,100,-96,164,-32,-92
2,3173115,-1449,577,-2637,5368,106,-95,164,-32,-92
2,3173130,-1449,560,-2638,5364,104,-93,164,-32,-92
2,3173144,-1447,541,-2640,5376,100,-100,164,-32,-92
2,3173155,-1447,541,-2640,5376,100,-100,164,-32,-92
2,3173171,-1442,563,-2641,5371,101,-101,164,-32,-92
2,3173186,-1454,554,-2634,5361,105,-81,169,-33,-93
2,3173200,-1454,554,-2634,5361,105,-81,169,-33,-93
2,3173212,-1444,559,-2637,5358,106,-94,169,-33,-93
2,3173227,-1449,543,-2642,5360,112,-99,169,-33,-93
2,3173241,-1449,543,-2642,5360,112,-99,169,-33,-93
2,3173255,-1446,558,-2641,5362,106,-101,169,-33,-93
2,3173268,-1447,545,-2640,5360,111,-98,169,-33,-93
2,3173282,-1447,545,-2640,5360,111,-98,169,-33,-93
2,3173296,-1450,565,-2638,5365,113,-95,169,-33,-93
2,3173311,-1446,547,-2632,5358,104,-93,159,-37,-87
2,3173323,-1446,547,-2632,5358,104,-93,159,-37,-87
2,3173337,-1451,552,-2632,5361,101,-97,159,-37,-87
2,3173350,-1447,533,-2638,5361,108,-89,159,-37,-87
2,3173364,-1450,568,-2638,5353,106,-94,159,-37,-87
2,3173378,-1450,568,-2638,5353,106,-94,159,-37,-87
2,3173390,-1444,549,-2642,5353,108,-99,159,-37,-87
2,3173404,-1444,548,-2630,5354,107,-96,159,-37,-87
2,3173420,-1444,548,-2630,5354,107,-96,159,-37,-87
2,3173433,-1446,537,-2635,5351,102,-98,166,-26,-84
2,3173446,-1445,556,-2632,5353,102,-90,166,-26,-84
2,3173460,-1445,556,-2632,5353,102,-90,166,-26,-84
2,3173476,-1450,552,-2638,5359,110,-98,166,-26,-84
2,3173489,-1448,544,-2632,5354,110,-98,166,-26,-84
2,3173502,-1448,544,-2632,5354,110,-98,166,-26,-84
2,3173516,-1448,540,-2637,5366,115,-92,166,-26,-84
2,3173527,-1444,549,-2628,5361,110,-101,166,-26,-84
2,3173540,-1444,549,-2628,5361,110,-101,166,-26,-84
2,3173555,-1446,549,-2634,5361,104,-89,166,-26,-84
2,3173568,-1445,543,-2628,5362,104,-95,161,-37,-73
2,3173580,-1445,543,-2628,5362,104,-95,161,-37,-73
2,3173595,-1440,529,-2634,5357,112,-102,161,-37,-73
2,3173609,-1446,535,-2631,5353,105,-90,161,-37,-73
2,3173623,-1446,535,-2631,5353,105,-90,161,-37,-73
2,3173637,-1446,516,-2631,5352,105,-94,161,-37,-73
2,3173651,-1442,502,-2630,5357,101,-105,161,-37,-73
2,3173665,-1438,501,-2636,5359,104,-98,161,-37,-73
2,3173680,-1438,501,-2636,5359,104,-98,161,-37,-73
2,3173693,-1448,519,-2634,5355,108,-101,158,-40,-64
2,3173707,-1446,517,-2636,5357,113,-94,158,-40,-64
2,3173723,-1446,517,-2636,5357,113,-94,158,-40,-64
2,3173737,-1446,517,-2641,5354,114,-99,158,-40,-64
2,3173750,-1440,521,-2639,5360,102,-99,158,-40,-64
2,3173763,-1440,521,-2639,5360,102,-99,158,-40,-64
2,3173776,-1445,530,-2640,5362,102,-97,158,-40,-64
2,3173789,-1443,527,-2639,5364,109,-101,158,-40,-64
2,3173804,-1443,527,-2639,5364,109,-101,158,-40,-64
2,3173817,-1443,534,-2639,5369,107,-103,156,-32,-58
2,3173829,-1443,519,-2645,5370,105,-97,156,-32,-58
2,3173841,-1443,519,-2645,5370,105,-97,156,-32,-58
2,3173857,-1448,538,-2635,5370,115,-91,156,-32,-58
2,3173869,-1448,530,-2643,5368,109,-95,156,-32,-58
2,3173883,-1448,530,-2643,5368,109,-95,156,-32,-58
2,3173899,-1448,547,-2640,5372,107,-99,156,-32,-58
2,3173914,-1448,533,-2648,5364,99,-97,156,-32,-58
2,3173929,-1441,543,-2636,5372,102,-97,153,-27,-57
2,3173943,-1441,543,-2636,5372,102,-97,153,-27,-57
2,3173956,-1451,582,-2636,5376,113,-95,153,-27,-57
2,3173965,-1449,553,-2639,5375,112,-89,153,-27,-57
2,3173978,-1449,553,-2639,5375,112,-89,153,-27,-57
2,3173991,-1442,545,-2644,5370,103,-107,153,-27,-57
2,3174004,-1442,554,-2640,5373,101,-103,153,-27,-57
2,3174019,-1442,554,-2640,5373,101,-103,153,-27,-57
2,3174031,-1450,558,-2643,5366,105,-87,153,-27,-57
2,3174044,-1450,558,-2643,5366,105,-87,153,-27,-57
2,3174056,-1445,557,-2641,5364,102,-96,149,-27,-43
2,3174070,-1445,548,-2630,5369,98,-104,149,-27,-43
2,3174084,-1442,559,-2636,5363,103,-99,149,-27,-43
2,3174098,-1442,559,-2636,5363,103,-99,149,-27,-43
2,3174113,-1446,553,-2637,5361,109,-90,149,-27,-43
2,3174126,-1450,566,-2640,5354,105,-90,149,-27,-43
2,3174140,-1450,566,-2640,5354,105,-90,149,-27,-43
2,3174155,-1443,552,-2638,5363,94,-94,149,-27,-43
2,3174167,-1446,555,-2634,5361,98,-95,149,-27,-43
2,3174182,-1446,555,-2634,5361,98,-95,149,-27,-43
2,3174198,-1444,544,-2634,5362,108,-95,137,-35,-37
2,3174212,-1447,555,-2635,5366,105,-104,137,-35,-37
2,3174225,-1442,552,-2634,5361,100,-101,137,-35,-37
2,3174240,-1442,552,-2634,5361,100,-101,137,-35,-37
2,3174253,-1448,551,-2630,5356,96,-103,137,-35,-37
2,3174265,-1450,541,-2634,5358,105,-101,137,-35,-37
2,3174279,-1450,541,-2634,5358,105,-101,137,-35,-37
2,3174292,-1445,557,-2635,5353,93,-100,137,-35,-37
2,3174305,-1446,547,-2632,5356,100,-95,128,-28,-34
2,3174319,-1446,547,-2632,5356,100,-95,128,-28,-34
2,3174330,-1448,551,-2635,5361,105,-92,128,-28,-34
2,3174343,-1448,551,-2635,5361,105,-92,128,-28,-34
2,3174358,-1445,540,-2635,5353,102,-97,128,-28,-34
2,3174371,-1444,556,-2632,5354,104,-100,128,-28,-34
2,3174386,-1446,544,-2631,5355,96,-93,128,-28,-34
2,3174397,-1446,544,-2631,5355,96,-93,128,-28,-34
2,3174412,-1445,549,-2634,5356,96,-89,128,-28,-34
2,3174427,-1443,545,-2628,5351,110,-94,121,-17,-31
2,3174440,-1443,545,-2628,5351,110,-94,121,-17,-31
2,3174454,-1448,546,-2634,5351,105,-93,121,-17,-31
2,3174468,-1442,529,-2634,5355,104,-91,121,-17,-31
2,3174482,-1442,529,-2634,5355,104,-91,121,-17,-31
2,3174497,-1444,532,-2636,5351,110,-95,121,-17,-31
2,3174510,-1440,496,-2634,5354,102,-94,121,-17,-31
2,3174519,-1440,496,-2634,5354,102,-94,121,-17,-31
2,3174533,-1442,510,-2633,5355,98,-91,121,-17,-31
2,3174546,-1443,521,-2636,5357,101,-98,116,-24,-36
2,3174560,-1443,521,-2636,5357,101,-98,116,-24,-36
2,3174574,-1445,523,-2627,5362,105,-93,116,-24,-36
2,3174587,-1443,521,-2633,5356,103,-104,116,-24,-36
2,3174599,-1443,521,-2633,5356,103,-104,116,-24,-36
2,3174612,-1439,520,-2641,5358,103,-92,116,-24,-36
2,3174628,-1440,525,-2641,5358,101,-91,116,-24,-36
2,3174644,-1440,525,-2641,5358,101,-91,116,-24,-36
2,3174659,-1443,532,-2638,5357,104,-94,116,-24,-36
2,3174672,-1444,526,-2639,5363,105,-99,114,-30,-24
2,3174686,-1443,525,-2631,5364,103,-96,114,-30,-24
2,3174702,-1443,525,-2631,5364,103,-96,114,-30,-24
2,3174716,-1444,533,-2636,5369,110,-91,114,-30,-24
2,3174730,-1446,540,-2641,5368,107,-94,114,-30,-24
2,3174738,-1446,540,-2641,5368,107,-94,114,-30,-24
2,3174750,-1450,543,-2643,5364,105,-99,114,-30,-24
2,3174764,-1450,543,-2643,5364,105,-99,114,-30,-24
2,3174777,-1443,542,-2648,5360,103,-95,114,-30,-24
2,3174791,-1447,559,-2642,5366,106,-98,114,-30,-24
2,3174803,-1447,559,-2642,5366,106,-98,114,-30,-24
2,3174815,-1443,573,-2635,5373,104,-98,98,-24,-22
2,3174829,-1449,560,-2637,5369,107,-95,98,-24,-22
2,3174840,-1449,560,-2637,5369,107,-95,98,-24,-22
2,3174853,-1445,547,-2637,5366,105,-94,98,-24,-22
2,3174865,-1444,573,-2638,5356,96,-98,98,-24,-22
2,3174880,-1444,573,-2638,5356,96,-98,98,-24,-22
2,3174894,-1450,552,-2636,5358,108,-93,98,-24,-22
2,3174906,-1444,560,-2637,5356,105,-96,98,-24,-22
2,3174922,-1444,560,-2637,5356,105,-96,98,-24,-22
2,3174937,-1443,546,-2629,5361,103,-101,94,-24,-28
2,3174951,-1443,563,-2632,5364,106,-96,94,-24,-28
2,3174967,-1443,551,-2646,5355,111,-96,94,-24,-28
2,3174980,-1443,551,-2646,5355,111,-96,94,-24,-28
2,3174994,-1447,565,-2632,5357,106,-102,94,-24,-28
2,3175008,-1445,555,-2637,5357,106,-94,94,-24,-28
2,3175019,-1445,555,-2637,5357,106,-94,94,-24,-28
2,3175033,-1444,559,-2638,5367,106,-97,94,-24,-28
2,3175048,-1448,542,-2632,5359,102,-104,96,-16,-18
2,3175061,-1448,542,-2632,5359,102,-104,96,-16,-18
2,3175074,-1447,561,-2628,5364,97,-99,96,-16,-18
2,3175088,-1443,546,-2631,5360,98,-92,96,-16,-18
2,3175100,-1443,546,-2631,5360,98,-92,96,-16,-18
2,3175114,-1443,546,-2631,5360,98,-92,96,-16,-18
2,3175130,-1446,539,-2638,5356,106,-91,96,-16,-18
2,3175145,-1441,562,-2632,5356,106,-92,96,-16,-18
2,3175159,-1441,562,-2632,5356,106,-92,96,-16,-18
2,3175173,-1446,549,-2634,5352,107,-95,88,-26,-24
2,3175188,-1443,554,-2633,5361,109,-97,88,-26,-24
2,3175202,-1443,554,-2633,5361,109,-97,88,-26,-24
2,3175216,-1442,548,-2629,5354,113,-98,88,-26,-24
2,3175229,-1447,554,-2630,5354,100,-90,88,-26,-24
2,3175243,-1447,554,-2630,5354,100,-90,88,-26,-24
2,3175255,-1446,545,-2636,5357,107,-88,88,-26,-24
2,3175269,-1445,542,-2629,5360,113,-96,88,-26,-24
2,3175283,-1445,542,-2629,5360,113,-96,88,-26,-24
2,3175297,-1444,542,-2626,5357,102,-94,94,-24,-22
2,3175310,-1443,537,-2635,5354,105,-99,94,-24,-22
2,3175324,-1443,537,-2635,5354,105,-99,94,-24,-22
2,3175340,-1443,532,-2632,5353,106,-98,94,-24,-22
2,3175354,-1439,502,-2631,5355,105,-96,94,-24,-22
2,3175367,-1439,509,-2633,5356,103,-101,94,-24,-22
2,3175382,-1439,509,-2633,5356,103,-101,94,-24,-22
2,3175397,-1444,515,-2635,5352,107,-94,94,-24,-22
2,3175411,-1448,522,-2637,5354,108,-88,94,-24,-22
2,3175424,-1448,522,-2637,5354,108,-88,94,-24,-22
2,3175438,-1446,512,-2629,5355,109,-96,81,-21,-23
2,3175451,-1442,529,-2635,5362,101,-92,81,-21,-23
2,3175464,-1442,529,-2635,5362,101,-92,81,-21,-23
2,3175479,-1444,522,-2639,5364,108,-95,81,-21,-23
2,3175492,-1444,538,-2640,5359,106,-96,81,-21,-23
2,3175507,-1443,529,-2649,5365,105,-94,81,-21,-23
2,3175521,-1443,529,-2649,5365,105,-94,81,-21,-23
2,3175534,-1439,530,-2643,5369,102,-98,81,-21,-23
2,3175547,-1442,536,-2639,5372,104,-98,74,-20,-22
2,3175564,-1442,536,-2639,5372,104,-98,74,-20,-22
2,3175578,-1442,539,-2642,5371,117,-87,74,-20,-22
2,3175592,-1439,552,-2640,5364,107,-102,74,-20,-22
2,3175608,-1446,539,-2643,5367,94,-101,74,-20,-22
2,3175622,-1446,539,-2643,5367,94,-101,74,-20,-22
2,3175635,-1446,552,-2639,5374,98,-99,74,-20,-22
2,3175650,-1448,585,-2632,5370,107,-91,74,-20,-22
2,3175663,-1448,585,-2632,5370,107,-91,74,-20,-22
2,3175674,-1448,585,-2632,5370,107,-91,72,-18,-32
2,3175688,-1446,551,-2639,5370,97,-100,72,-18,-32
2,3175701,-1446,551,-2639,5370,97,-100,72,-18,-32
2,3175714,-1444,562,-2641,5371,102,-92,72,-18,-32
2,3175728,-1449,566,-2633,5370,103,-88,72,-18,-32
2,3175740,-1449,566,-2633,5370,103,-88,72,-18,-32
2,3175752,-1442,557,-2644,5367,102,-93,72,-18,-32
2,3175768,-1448,553,-2636,5367,99,-101,72,-18,-32
2,3175781,-1448,553,-2636,5367,99,-101,72,-18,-32
2,3175793,-1445,562,-2630,5361,109,-101,77,-17,-33
2,3175809,-1449,552,-2633,5362,111,-98,77,-17,-33
2,3175824,-1449,552,-2633,5362,111,-98,77,-17,-33
2,3175838,-1448,565,-2633,5365,108,-100,77,-17,-33
2,3175852,-1446,553,-2638,5369,114,-103,77,-17,-33
2,3175866,-1442,568,-2633,5364,110,-101,77,-17,-33
2,3175879,-1442,568,-2633,5364,110,-101,77,-17,-33
2,3175890,-1443,550,-2639,5357,105,-100,77,-17,-33
2,3175904,-1443,550,-2639,5357,105,-100,77,-17,-33
2,3175918,-1443,565,-2629,5352,108,-98,71,-7,-37
2,3175931,-1441,562,-2634,5355,92,-91,71,-7,-37
2,3175945,-1441,562,-2634,5355,92,-91,71,-7,-37
2,3175957,-1447,558,-2633,5353,99,-94,71,-7,-37
2,3175970,-1447,546,-2634,5363,110,-94,71,-7,-37
2,3175984,-1447,546,-2634,5363,110,-94,71,-7,-37
2,3175997,-1447,559,-2633,5362,102,-103,71,-7,-37
2,3176011,-1445,551,-2629,5358,100,-96,71,-7,-37
2,3176026,-1449,560,-2629,5359,103,-97,59,-7,-37
2,3176035,-1449,560,-2629,5359,103,-97,59,1,-39
2,3176050,-1443,543,-2624,5367,107,-104,59,1,-39
2,3176066,-1443,543,-2624,5367,107,-104,59,1,-39
2,3176078,-1445,564,-2630,5356,99,-93,59,1,-39
2,3176091,-1445,548,-2636,5366,96,-92,59,1,-39
2,3176104,-1445,548,-2636,5366,96,-92,59,1,-39
2,3176118,-1445,556,-2634,5358,98,-91,59,1,-39
2,3176131,-1443,548,-2627,5348,105,-95,59,1,-39
2,3176142,-1443,548,-2627,5348,105,-95,59,1,-39
2,3176159,-1443,545,-2630,5350,96,-94,59,1,-39
2,3176171,-1446,531,-2634,5356,97,-98,58,-6,-50
2,3176185,-1446,531,-2634,5356,97,-98,58,-6,-50
2,3176199,-1444,524,-2625,5358,108,-101,58,-6,-50
2,3176212,-1444,498,-2633,5354,106,-102,58,-6,-50
2,3176226,-1443,514,-2633,5350,100,-96,58,-6,-50
2,3176239,-1443,514,-2633,5350,100,-96,58,-6,-50
2,3176254,-1441,525,-2638,5353,100,-90,58,-6,-50
2,3176268,-1440,519,-2640,5358,103,-97,58,-6,-50
2,3176285,-1440,519,-2640,5358,103,-97,58,-6,-50
2,3176298,-1441,521,-2636,5351,102,-102,55,3,-45
2,3176310,-1443,527,-2639,5363,105,-100,55,3,-45
2,3176325,-1443,527,-2639,5363,105,-100,55,3,-45
2,3176338,-1444,534,-2642,5361,101,-95,55,3,-45
2,3176351,-1444,536,-2637,5369,100,-94,55,3,-45
2,3176365,-1444,536,-2637,5369,100,-94,55,3,-45
2,3176379,-1444,536,-2636,5372,97,-100,55,3,-45
2,3176391,-1442,534,-2634,5374,101,-99,55,3,-45
2,3176406,-1442,534,-2634,5374,101,-99,55,3,-45
2,3176419,-1449,540,-2633,5370,104,-88,60,10,-42
2,3176432,-1443,545,-2634,5367,101,-93,60,10,-42
2,3176448,-1442,545,-2643,5369,99,-94,60,10,-42
2,3176462,-1442,545,-2643,5369,99,-94,60,10,-42
2,3176477,-1442,539,-2644,5373,101,-89,60,10,-42
2,3176491,-1445,569,-2645,5369,103,-91,60,10,-42
2,3176505,-1445,569,-2645,5369,103,-91,60,10,-42
2,3176515,-1444,577,-2640,5372,97,-88,60,10,-42
2,3176528,-1447,565,-2641,5368,100,-96,55,3,-57
2,3176543,-1447,565,-2641,5368,100,-96,55,3,-57
2,3176556,-1443,547,-2628,5369,99,-93,55,3,-57
2,3176569,-1446,572,-2635,5368,99,-95,55,3,-57
2,3176584,-1446,572,-2635,5368,99,-95,55,3,-57
2,3176593,-1446,572,-2635,5368,99,-95,55,3,-57
2,3176607,-1449,569,-2640,5363,107,-92,55,3,-57
2,3176621,-1449,569,-2640,5363,107,-92,55,3,-57
2,3176634,-1441,542,-2639,5359,103,-98,55,3,-57
2,3176648,-1442,568,-2635,5355,99,-96,50,6,-50
2,3176662,-1442,568,-2635,5355,99,-96,50,6,-50
2,3176676,-1442,568,-2635,5355,99,-96,50,6,-50
2,3176689,-1449,576,-2632,5359,106,-103,50,6,-50
2,3176706,-1449,576,-2632,5359,106,-103,50,6,-50
2,3176720,-1441,556,-2634,5362,105,-99,50,6,-50
2,3176735,-1448,559,-2632,5362,104,-90,50,6,-50
2,3176748,-1446,541,-2637,5364,106,-86,50,6,-50
2,3176762,-1446,541,-2637,5364,106,-86,50,6,-50
2,3176777,-1445,570,-2633,5363,105,-93,50,6,-50
2,3176792,-1447,555,-2630,5363,102,-96,55,-1,-55
2,3176805,-1447,555,-2630,5363,102,-96,55,-1,-55
2,3176819,-1442,549,-2627,5362,104,-85,55,-1,-55
2,3176834,-1446,543,-2639,5363,109,-91,55,-1,-55
2,3176847,-1444,563,-2629,5360,106,-98,55,-1,-55
2,3176858,-1444,563,-2629,5360,106,-98,55,-1,-55
2,3176872,-1448,551,-2633,5356,100,-101,55,-1,-55
2,3176886,-1448,551,-2633,5356,100,-101,55,-1,-55
2,3176900,-1442,552,-2635,5361,103,-92,55,-1,-55
2,3176915,-1445,550,-2628,5355,109,-92,58,-4,-62
2,3176931,-1445,556,-2630,5359,100,-95,58,-4,-62
2,3176946,-1445,552,-2634,5353,101,-96,58,-4,-62
2,3176962,-1445,552,-2634,5353,101,-96,58,-4,-62
2,3176975,-1444,541,-2632,5349,104,-100,58,-4,-62
2,3176988,-1440,538,-2628,5350,102,-96,58,-4,-62
2,3177003,-1440,538,-2628,5350,102,-96,58,-4,-62
2,3177014,-1446,536,-2632,5346,107,-83,58,-4,-62
2,3177028,-1441,497,-2630,5349,101,-90,54,-2,-64
2,3177041,-1441,497,-2630,5349,101,-90,54,-2,-64
2,3177056,-1438,520,-2630,5351,105,-101,54,-2,-64
2,3177069,-1440,504,-2638,5356,99,-100,54,-2,-64
2,3177082,-1440,504,-2638,5356,99,-100,54,-2,-64
2,3177097,-1445,535,-2637,5360,102,-88,54,-2,-64
2,3177111,-1443,513,-2639,5362,103,-94,54,-2,-64
2,3177125,-1443,513,-2639,5362,103,-94,54,-2,-64
2,3177140,-1439,534,-2636,5354,103,-97,54,-2,-64
2,3177153,-1445,527,-2634,5369,94,-97,54,-2,-76
2,3177167,-1446,534,-2634,5371,104,-93,54,-2,-76
2,3177183,-1446,534,-2634,5371,104,-93,54,-2,-76
2,3177197,-1444,537,-2642,5369,107,-102,54,-2,-76
2,3177212,-1443,533,-2634,5369,97,-100,54,-2,-76
2,3177226,-1443,533,-2634,5369,97,-100,54,-2,-76
2,3177239,-1446,534,-2648,5369,105,-96,54,-2,-76
2,3177251,-1441,540,-2643,5367,109,-92,54,-2,-76
2,3177264,-1441,540,-2643,5367,109,-92,54,-2,-76
2,3177277,-1444,554,-2637,5367,102,-92,51,3,-83
2,3177290,-1445,545,-2634,5371,98,-89,51,3,-83
2,3177304,-1445,545,-2634,5371,98,-89,51,3,-83
2,3177319,-1449,541,-2637,5368,99,-85,51,3,-83
2,3177330,-1449,578,-2642,5374,104,-102,51,3,-83
2,3177345,-1449,578,-2642,5374,104,-102,51,3,-83
2,3177359,-1451,569,-2640,5369,103,-94,51,3,-83
2,3177373,-1444,563,-2641,5371,99,-93,51,3,-83
2,3177388,-1447,540,-2633,5370,105,-92,51,3,-83
2,3177401,-1447,540,-2633,5370,105,-92,51,3,-83
2,3177416,-1441,581,-2642,5368,107,-89,53,-5,-87
2,3177431,-1449,564,-2634,5366,103,-93,53,-5,-87
2,3177445,-1449,564,-2634,5366,103,-93,53,-5,-87
2,3177458,-1445,562,-2636,5363,108,-95,53,-5,-87
2,3177472,-1440,555,-2638,5362,104,-102,53,-5,-87
2,3177487,-1440,555,-2638,5362,104,-102,53,-5,-87
2,3177499,-1448,568,-2640,5359,106,-91,53,-5,-87
2,3177512,-1450,557,-2635,5369,112,-94,53,-5,-87
2,3177527,-1443,568,-2629,5370,109,-103,53,-5,-87
2,3177540,-1443,568,-2629,5370,109,-103,59,-7,-93
2,3177553,-1443,555,-2633,5362,101,-99,59,-7,-93
2,3177568,-1442,558,-2637,5371,106,-87,59,-7,-93
2,3177583,-1442,558,-2637,5371,106,-87,59,-7,-93
2,3177598,-1443,544,-2637,5363,99,-93,59,-7,-93
2,3177612,-1443,568,-2629,5359,102,-96,59,-7,-93
2,3177624,-1443,568,-2629,5359,102,-96,59,-7,-93
2,3177637,-1443,552,-2639,5354,96,-100,59,-7,-93
2,3177653,-1445,549,-2631,5357,99,-95,63,-15,-99
2,3177666,-1445,549,-2631,5357,99,-95,63,-15,-99
2,3177679,-1446,554,-2632,5359,104,-105,63,-15,-99
2,3177693,-1445,559,-2626,5357,100,-102,63,-15,-99
2,3177706,-1445,559,-2626,5357,100,-102,63,-15,-99
2,3177720,-1444,553,-2632,5360,99,-100,63,-15,-99
2,3177733,-1445,546,-2634,5363,108,-92,63,-15,-99
2,3177746,-1445,546,-2634,5363,108,-92,63,-15,-99
2,3177761,-1442,555,-2635,5361,108,-93,63,-15,-99
2,3177777,-1448,554,-2628,5360,111,-88,72,-12,-102
2,3177791,-1447,550,-2630,5363,107,-84,72,-12,-102
2,3177804,-1447,550,-2630,5363,107,-84,72,-12,-102
2,3177820,-1442,544,-2628,5357,109,-94,72,-12,-102
2,3177835,-1442,539,-2622,5355,110,-92,72,-12,-102
2,3177849,-1445,546,-2636,5361,100,-93,72,-12,-102
2,3177864,-1445,546,-2636,5361,100,-93,72,-12,-102
2,3177877,-1444,514,-2630,5363,96,-103,72,-12,-102
2,3177891,-1442,509,-2630,5354,99,-99,74,-10,-112
2,3177905,-1442,509,-2630,5354,99,-99,74,-10,-112
2,3177917,-1441,510,-2630,5357,100,-96,74,-10,-112
2,3177930,-1446,528,-2641,5360,108,-95,74,-10,-112
2,3177944,-1446,528,-2641,5360,108,-95,74,-10,-112
2,3177957,-1446,519,-2637,5360,107,-92,74,-10,-112
2,3177971,-1440,522,-2634,5366,110,-108,74,-10,-112
2,3177987,-1440,522,-2634,5366,110,-108,74,-10,-112
2,3177999,-1444,524,-2643,5365,98,-107,74,-10,-112
2,3178013,-1442,534,-2641,5365,107,-94,74,-10,-112
2,3178028,-1445,534,-2634,5369,110,-93,76,-8,-112
2,3178043,-1445,534,-2634,5369,110,-93,76,-8,-118
2,3178057,-1444,541,-2634,5370,110,-102,76,-8,-118
2,3178070,-1443,529,-2641,5364,106,-95,76,-8,-118
2,3178084,-1443,529,-2641,5364,106,-95,76,-8,-118
2,3178097,-1445,542,-2636,5365,107,-90,76,-8,-118
2,3178110,-1446,543,-2641,5372,105,-99,76,-8,-118
2,3178124,-1446,543,-2641,5372,105,-99,76,-8,-118
2,3178136,-1443,544,-2638,5372,100,-96,76,-8,-118
2,3178146,-1443,544,-2638,5372,100,-96,76,-8,-118
2,3178161,-1442,538,-2638,5370,105,-96,78,-16,-126
2,3178174,-1447,555,-2636,5368,105,-93,78,-16,-126
2,3178186,-1447,555,-2636,5368,105,-93,78,-16,-126
2,3178199,-1446,589,-2635,5373,118,-91,78,-16,-126
2,3178213,-1446,589,-2635,5373,118,-91,78,-16,-126
2,3178226,-1446,589,-2635,5373,118,-91,78,-16,-126
2,3178241,-1441,549,-2641,5370,94,-100,78,-16,-126
2,3178252,-1440,569,-2642,5373,99,-96,78,-16,-126
2,3178265,-1440,569,-2642,5373,99,-96,78,-16,-126
2,3178278,-1453,564,-2628,5371,98,-89,84,-20,-120
2,3178294,-1445,559,-2637,5361,101,-87,84,-20,-120
2,3178305,-1445,559,-2637,5361,101,-87,84,-20,-120
2,3178320,-1446,549,-2636,5362,104,-94,84,-20,-120
2,3178335,-1446,564,-2636,5355,104,-90,84,-20,-120
2,3178349,-1447,556,-2634,5354,110,-89,84,-20,-120
2,3178362,-1447,556,-2634,5354,110,-89,84,-20,-120
2,3178376,-1454,568,-2636,5354,109,-95,84,-20,-120
2,3178387,-1454,568,-2636,5354,109,-95,84,-20,-120
2,3178401,-1442,554,-2631,5359,99,-97,77,-21,-131
2,3178416,-1444,558,-2634,5364,98,-97,77,-21,-131
2,3178429,-1443,553,-2637,5364,111,-95,77,-21,-131
2,3178443,-1443,553,-2637,5364,111,-95,77,-21,-131
2,3178459,-1448,561,-2632,5356,108,-94,77,-21,-131
2,3178472,-1443,558,-2635,5356,108,-99,77,-21,-131
2,3178483,-1443,558,-2635,5356,108,-99,77,-21,-131
2,3178499,-1443,557,-2636,5357,98,-97,77,-21,-131
2,3178514,-1443,540,-2633,5357,102,-97,92,-24,-142
2,3178529,-1447,560,-2631,5358,113,-98,92,-24,-142
2,3178543,-1447,560,-2631,5358,113,-98,92,-24,-142
2,3178555,-1448,554,-2633,5355,102,-94,92,-24,-142
2,3178569,-1446,551,-2631,5361,104,-97,92,-24,-142
2,3178583,-1446,551,-2631,5361,104,-97,92,-24,-142
2,3178596,-1445,542,-2639,5358,100,-96,92,-24,-142
2,3178610,-1443,563,-2629,5348,100,-103,92,-24,-142
2,3178625,-1443,563,-2629,5348,100,-103,92,-24,-142
2,3178639,-1444,554,-2636,5353,98,-100,92,-24,-142
2,3178651,-1443,550,-2633,5352,107,-97,95,-25,-143
2,3178664,-1443,550,-2633,5352,107,-97,95,-25,-143
2,3178679,-1443,544,-2631,5358,112,-93,95,-25,-143
2,3178693,-1446,540,-2633,5358,105,-95,95,-25,-143
2,3178707,-1446,540,-2633,5358,105,-95,95,-25,-143
2,3178722,-1446,534,-2633,5354,91,-98,95,-25,-143
2,3178734,-1445,484,-2635,5353,107,-100,95,-25,-143
2,3178749,-1433,496,-2633,5355,113,-101,95,-25,-143
2,3178764,-1433,496,-2633,5355,113,-101,95,-25,-143
2,3178778,-1442,485,-2637,5353,103,-88,96,-28,-144
2,3178791,-1444,498,-2636,5358,106,-90,96,-28,-144
2,3178804,-1444,498,-2636,5358,106,-90,96,-28,-144
2,3178818,-1442,468,-2640,5359,109,-94,96,-28,-144
2,3178831,-1436,478,-2645,5358,109,-97,96,-28,-144
2,3178846,-1436,478,-2645,5358,109,-97,96,-28,-144
2,3178859,-1443,464,-2650,5367,100,-94,96,-28,-144
2,3178870,-1446,465,-2647,5374,109,-90,96,-28,-144
2,3178885,-1446,465,-2647,5374,109,-90,96,-28,-144
2,3178898,-1438,438,-2648,5378,114,-98,103,-29,-145
2,3178911,-1436,426,-2656,5387,106,-97,103,-29,-145
2,3178927,-1436,426,-2656,5387,106,-97,103,-29,-145
2,3178941,-1435,418,-2663,5401,106,-95,103,-29,-145
2,3178955,-1435,414,-2666,5397,106,-87,103,-29,-145
2,3178969,-1433,412,-2668,5394,106,-95,103,-29,-145
2,3178984,-1433,412,-2668,5394,106,-95,103,-29,-145
2,3178999,-1437,395,-2679,5405,101,-99,103,-29,-145
2,3179014,-1432,385,-2676,5406,104,-93,110,-36,-158
2,3179025,-1432,385,-2676,5406,104,-93,110,-36,-158
2,3179039,-1434,384,-2685,5412,119,-90,110,-36,-158
2,3179054,-1434,367,-2685,5428,108,-100,110,-36,-158
2,3179062,-1434,367,-2685,5428,108,-100,110,-36,-158
2,3179075,-1431,358,-2690,5435,101,-100,110,-36,-158
2,3179088,-1431,358,-2690,5435,101,-100,110,-36,-158
2,3179103,-1432,321,-2701,5429,105,-92,110,-36,-158
2,3179116,-1428,316,-2709,5441,108,-93,110,-36,-158
2,3179130,-1430,295,-2716,5455,104,-94,114,-30,-158
2,3179139,-1430,295,-2716,5455,104,-94,114,-30,-158
2,3179148,-1430,295,-2716,5455,104,-94,114,-30,-158
2,3179162,-1431,281,-2724,5461,106,-100,114,-30,-158
2,3179177,-1426,270,-2739,5479,114,-100,114,-30,-158
2,3179193,-1426,261,-2745,5487,119,-95,114,-30,-158
2,3179207,-1426,261,-2745,5487,119,-95,114,-30,-158
2,3179220,-1424,260,-2752,5500,115,-104,114,-30,-158
2,3179235,-1428,231,-2759,5508,111,-96,114,-30,-158
2,3179245,-1428,231,-2759,5508,111,-96,114,-30,-158
2,3179258,-1427,230,-2767,5523,113,-98,114,-30,-158
2,3179273,-1424,215,-2778,5534,112,-99,116,-32,-152
2,3179286,-1424,215,-2778,5534,112,-99,116,-32,-152
2,3179300,-1425,204,-2793,5547,118,-98,116,-32,-152
2,3179314,-1426,200,-2805,5566,116,-96,116,-32,-152
2,3179326,-1426,200,-2805,5566,116,-96,116,-32,-152
2,3179338,-1424,185,-2816,5578,115,-97,116,-32,-152
2,3179353,-1422,191,-2823,5596,121,-98,116,-32,-152
2,3179367,-1422,191,-2823,5596,121,-98,116,-32,-152
2,3179380,-1425,175,-2836,5608,115,-103,116,-32,-152
2,3179395,-1424,194,-2844,5619,118,-100,127,-41,-157
2,3179409,-1422,185,-2859,5634,116,-97,127,-41,-157
2,3179421,-1422,185,-2859,5634,116,-97,127,-41,-157
2,3179437,-1423,190,-2875,5647,122,-94,127,-41,-157
2,3179452,-1428,200,-2880,5663,120,-96,127,-41,-157
2,3179467,-1428,200,-2880,5663,120,-96,127,-41,-157
2,3179480,-1424,203,-2892,5679,125,-93,127,-41,-157
2,3179493,-1429,196,-2906,5698,122,-98,127,-41,-157
2,3179506,-1429,196,-2906,5698,122,-98,127,-41,-157
2,3179521,-1425,199,-2915,5707,122,-94,126,-36,-152
2,3179534,-1427,202,-2924,5723,121,-91,126,-36,-152
2,3179548,-1427,202,-2924,5723,121,-91,126,-36,-152
2,3179559,-1427,214,-2939,5737,121,-89,126,-36,-152
2,3179573,-1426,221,-2950,5754,126,-104,126,-36,-152
2,3179586,-1426,221,-2950,5754,126,-104,126,-36,-152
2,3179600,-1424,229,-2964,5769,127,-93,126,-36,-152
2,3179614,-1424,229,-2964,5769,127,-93,126,-36,-152
2,3179628,-1424,229,-2964,5769,127,-93,126,-36,-152
2,3179639,-1431,262,-2973,5799,134,-96,124,-36,-156
2,3179655,-1435,287,-2984,5807,134,-97,124,-36,-156
2,3179670,-1434,299,-2992,5815,127,-98,124,-36,-156
2,3179685,-1434,299,-2992,5815,127,-98,124,-36,-156
2,3179698,-1429,313,-2997,5826,131,-99,124,-36,-156
2,3179711,-1433,333,-3013,5835,136,-102,124,-36,-156
2,3179725,-1433,333,-3013,5835,136,-102,124,-36,-156
2,3179739,-1434,349,-3017,5847,135,-99,124,-36,-156
2,3179753,-1434,370,-3021,5857,138,-101,140,-40,-156
2,3179766,-1434,370,-3021,5857,138,-101,140,-40,-156
2,3179781,-1437,377,-3025,5863,130,-97,140,-40,-156
2,3179795,-1436,410,-3030,5869,131,-94,140,-40,-156
2,3179809,-1436,410,-3030,5869,131,-94,140,-40,-156
2,3179824,-1445,419,-3039,5870,131,-93,140,-40,-156
2,3179838,-1442,447,-3038,5875,132,-105,140,-40,-156
2,3179851,-1445,451,-3044,5884,143,-102,140,-40,-156
2,3179866,-1445,451,-3044,5884,143,-102,140,-40,-156
2,3179879,-1444,469,-3047,5888,139,-95,140,-36,-160
2,3179888,-1444,469,-3047,5888,139,-95,140,-36,-160
2,3179902,-1442,472,-3044,5887,137,-94,140,-36,-160
2,3179916,-1442,480,-3052,5889,130,-102,140,-36,-160
2,3179930,-1446,477,-3054,5894,130,-97,140,-36,-160
2,3179945,-1446,477,-3054,5894,130,-97,140,-36,-160
2,3179961,-1439,490,-3058,5892,143,-93,140,-36,-160
2,3179974,-1447,494,-3055,5897,139,-92,140,-36,-160
2,3179987,-1447,494,-3055,5897,139,-92,140,-36,-160
2,3180002,-1447,506,-3060,5905,134,-102,140,-36,-160
2,3180014,-1452,515,-3053,5905,139,-99,145,-35,-151
2,3180027,-1452,515,-3053,5905,139,-99,145,-35,-151
2,3180041,-1453,521,-3059,5910,137,-94,145,-35,-151
2,3180056,-1451,535,-3062,5914,143,-94,145,-35,-151
2,3180069,-1451,535,-3062,5914,143,-94,145,-35,-151
2,3180084,-1453,533,-3068,5916,140,-101,145,-35,-151
2,3180096,-1450,546,-3066,5918,135,-96,145,-35,-151
2,3180109,-1450,546,-3066,5918,135,-96,145,-35,-151
2,3180125,-1451,550,-3068,5917,141,-94,145,-35,-151
2,3180140,-1452,563,-3061,5912,135,-92,142,-36,-148
2,3180155,-1453,588,-3062,5908,133,-94,142,-36,-148
2,3180169,-1453,588,-3062,5908,133,-94,142,-36,-148
2,3180181,-1451,567,-3061,5910,130,-95,142,-36,-148
2,3180196,-1453,579,-3067,5918,136,-94,142,-36,-148
2,3180212,-1453,579,-3067,5918,136,-94,142,-36,-148
2,3180225,-1453,579,-3067,5918,136,-94,142,-36,-148
2,3180238,-1454,662,-3049,5915,136,-95,142,-36,-148
2,3180252,-1466,637,-3058,5907,132,-90,146,-22,-152
2,3180265,-1466,637,-3058,5907,132,-90,146,-22,-152
2,3180280,-1455,637,-3052,5903,132,-99,146,-22,-152
2,3180295,-1448,580,-3045,5896,146,-103,146,-22,-152
2,3180309,-1448,580,-3045,5896,146,-103,146,-22,-152
2,3180321,-1449,644,-3050,5884,146,-100,146,-22,-152
2,3180335,-1455,600,-3053,5874,139,-91,146,-22,-152
2,3180344,-1455,600,-3053,5874,139,-91,146,-22,-152
2,3180359,-1459,602,-3046,5871,135,-101,146,-22,-152
2,3180374,-1446,559,-3044,5873,139,-101,151,-23,-149
2,3180389,-1446,559,-3044,5873,139,-101,151,-23,-149
2,3180401,-1456,604,-3041,5877,130,-91,151,-23,-149
2,3180416,-1454,581,-3045,5877,132,-87,151,-23,-149
2,3180432,-1454,590,-3037,5874,136,-96,151,-23,-149
2,3180447,-1454,590,-3037,5874,136,-96,151,-23,-149
2,3180461,-1449,565,-3049,5884,136,-104,151,-23,-149
2,3180474,-1450,591,-3040,5890,128,-99,151,-23,-149
2,3180487,-1450,591,-3040,5890,128,-99,151,-23,-149
2,3180502,-1457,575,-3042,5882,140,-91,159,-29,-133
2,3180515,-1451,549,-3033,5878,143,-97,159,-29,-133
2,3180527,-1451,549,-3033,5878,143,-97,159,-29,-133
2,3180540,-1447,567,-3039,5883,135,-95,159,-29,-133
2,3180555,-1450,561,-3034,5875,126,-89,159,-29,-133
2,3180569,-1450,561,-3034,5875,126,-89,159,-29,-133
2,3180578,-1452,571,-3034,5882,140,-92,159,-29,-133
2,3180593,-1455,547,-3037,5873,141,-99,159,-29,-133
2,3180608,-1455,547,-3037,5873,141,-99,159,-29,-133
2,3180622,-1451,561,-3032,5871,130,-105,159,-29,-133
2,3180635,-1453,552,-3040,5867,129,-95,154,-26,-140
2,3180649,-1453,552,-3040,5867,129,-95,154,-26,-140
2,3180664,-1452,548,-3035,5865,134,-90,154,-26,-140
2,3180679,-1447,539,-3041,5869,137,-87,154,-26,-140
2,3180692,-1447,499,-3044,5872,126,-96,154,-26,-140
2,3180706,-1447,499,-3044,5872,126,-96,154,-26,-140
2,3180720,-1440,506,-3044,5876,138,-98,154,-26,-140
2,3180734,-1448,497,-3040,5872,153,-100,154,-26,-140
2,3180746,-1448,497,-3040,5872,153,-100,154,-26,-140
2,3180760,-1447,522,-3037,5868,138,-93,161,-33,-125
2,3180774,-1449,501,-3045,5874,130,-94,161,-33,-125
2,3180787,-1449,501,-3045,5874,130,-94,161,-33,-125
2,3180797,-1451,504,-3046,5878,143,-101,161,-33,-125
2,3180812,-1448,506,-3052,5878,144,-108,161,-33,-125
2,3180827,-1448,506,-3052,5878,144,-108,161,-33,-125
2,3180840,-1451,531,-3051,5881,129,-103,161,-33,-125
2,3180854,-1445,519,-3062,5886,131,-101,161,-33,-125
2,3180867,-1445,519,-3062,5886,131,-101,161,-33,-125
2,3180878,-1443,514,-3043,5894,136,-101,159,-29,-133
2,3180892,-1443,516,-3054,5895,137,-102,159,-29,-133
2,3180904,-1443,516,-3054,5895,137,-102,159,-29,-133
2,3180917,-1448,543,-3060,5896,133,-94,159,-29,-133
2,3180932,-1453,538,-3059,5901,139,-100,159,-29,-133
2,3180945,-1453,538,-3059,5901,139,-100,159,-29,-133
2,3180958,-1447,546,-3053,5901,144,-96,159,-29,-133
2,3180973,-1450,538,-3058,5895,141,-90,159,-29,-133
2,3180986,-1450,538,-3058,5895,141,-90,159,-29,-133
2,3181000,-1452,559,-3053,5893,134,-87,156,-30,-116
2,3181014,-1449,553,-3055,5900,142,-96,156,-30,-116
2,3181026,-1449,553,-3055,5900,142,-96,156,-30,-116
2,3181040,-1454,601,-3049,5891,143,-106,156,-30,-116
2,3181054,-1451,553,-3058,5893,133,-97,156,-30,-116
2,3181070,-1451,553,-3058,5893,133,-97,156,-30,-116
2,3181085,-1451,575,-3056,5893,127,-96,156,-30,-116
2,3181099,-1447,557,-3051,5887,139,-94,156,-30,-116
2,3181112,-1452,583,-3043,5889,141,-99,160,-34,-112
2,3181126,-1452,583,-3043,5889,141,-99,160,-34,-112
2,3181139,-1453,549,-3051,5888,139,-95,160,-34,-112
2,3181151,-1454,564,-3047,5884,140,-98,160,-34,-112
2,3181165,-1454,564,-3047,5884,140,-98,160,-34,-112
2,3181179,-1447,566,-3050,5885,142,-99,160,-34,-112
2,3181194,-1454,577,-3047,5893,135,-91,160,-34,-112
2,3181208,-1454,577,-3047,5893,135,-91,160,-34,-112
2,3181221,-1453,566,-3054,5883,141,-96,160,-34,-112
2,3181234,-1449,574,-3044,5886,146,-100,160,-34,-112
2,3181247,-1449,574,-3044,5886,146,-100,160,-34,-112
2,3181261,-1449,575,-3045,5892,140,-93,161,-33,-113
2,3181276,-1451,568,-3039,5890,137,-86,161,-33,-113
2,3181289,-1451,568,-3039,5890,137,-86,161,-33,-113
2,3181304,-1448,572,-3044,5882,143,-94,161,-33,-113
2,3181320,-1451,569,-3046,5883,144,-100,161,-33,-113
2,3181334,-1452,571,-3041,5878,134,-88,161,-33,-113
2,3181347,-1452,571,-3041,5878,134,-88,161,-33,-113
2,3181361,-1453,568,-3041,5881,137,-97,161,-33,-113
2,3181374,-1454,575,-3041,5877,134,-105,159,-29,-93
2,3181386,-1454,575,-3041,5877,134,-105,159,-29,-93
2,3181400,-1450,571,-3040,5874,129,-98,159,-29,-93
2,3181413,-1450,569,-3044,5877,132,-99,159,-29,-93
2,3181426,-1450,569,-3044,5877,132,-99,159,-29,-93
2,3181440,-1449,572,-3040,5880,136,-95,159,-29,-93
2,3181451,-1452,573,-3046,5881,130,-98,159,-29,-93
2,3181465,-1452,573,-3046,5881,130,-98,159,-29,-93
2,3181478,-1450,545,-3046,5881,129,-97,159,-29,-93
2,3181493,-1447,569,-3032,5873,138,-102,158,-42,-90
2,3181507,-1447,569,-3032,5873,138,-102,158,-42,-90
2,3181522,-1455,559,-3030,5873,135,-95,158,-42,-90
2,3181537,-1454,558,-3037,5877,132,-96,158,-42,-90
2,3181551,-1454,558,-3037,5877,132,-96,158,-42,-90
2,3181565,-1454,558,-3037,5877,132,-96,158,-42,-90
2,3181581,-1451,537,-3038,5873,140,-101,158,-42,-90
2,3181594,-1448,482,-3041,5877,135,-99,158,-42,-90
2,3181608,-1448,482,-3041,5877,135,-99,158,-42,-90
2,3181620,-1447,515,-3044,5876,134,-99,154,-34,-88
2,3181634,-1443,505,-3047,5875,137,-103,154,-34,-88
2,3181647,-1443,505,-3047,5875,137,-103,154,-34,-88
2,3181661,-1449,515,-3046,5872,139,-96,154,-34,-88
2,3181675,-1445,497,-3051,5874,137,-94,154,-34,-88
2,3181687,-1445,497,-3051,5874,137,-94,154,-34,-88
2,3181700,-1448,527,-3049,5880,135,-92,154,-34,-88
2,3181713,-1450,532,-3053,5887,134,-93,154,-34,-88
2,3181727,-1450,532,-3053,5887,134,-93,154,-34,-88
2,3181735,-1455,542,-3048,5891,139,-95,161,-39,-75
2,3181750,-1455,542,-3048,5891,139,-95,161,-39,-75
2,3181765,-1449,537,-3046,5896,142,-105,161,-39,-75
2,3181780,-1447,566,-3047,5896,137,-96,161,-39,-75
2,3181793,-1449,554,-3054,5894,144,-96,161,-39,-75
2,3181807,-1449,554,-3054,5894,144,-96,161,-39,-75
2,3181822,-1450,554,-3048,5894,137,-100,161,-39,-75
2,3181838,-1448,550,-3052,5889,128,-105,161,-39,-75
2,3181851,-1448,550,-3052,5889,128,-105,161,-39,-75
2,3181864,-1450,549,-3052,5889,124,-103,161,-39,-75
2,3181878,-1453,541,-3048,5893,133,-96,162,-24,-72
2,3181891,-1449,536,-3049,5885,143,-99,162,-24,-72
2,3181904,-1449,536,-3049,5885,143,-99,162,-24,-72
2,3181918,-1446,535,-3047,5891,135,-98,162,-24,-72
2,3181931,-1446,535,-3047,5891,135,-98,162,-24,-72
2,3181944,-1452,540,-3055,5885,132,-89,162,-24,-72
2,3181960,-1453,548,-3052,5880,129,-90,162,-24,-72
2,3181973,-1447,553,-3050,5886,139,-98,162,-24,-72
2,3181985,-1447,553,-3050,5886,139,-98,162,-24,-72
2,3181999,-1452,554,-3046,5886,131,-101,155,-33,-65
2,3182014,-1450,548,-3056,5892,137,-96,155,-33,-65
2,3182026,-1450,548,-3056,5892,137,-96,155,-33,-65
2,3182041,-1450,551,-3050,5892,142,-95,155,-33,-65
2,3182055,-1446,556,-3051,5895,140,-98,155,-33,-65
2,3182069,-1446,556,-3051,5895,140,-98,155,-33,-65
2,3182083,-1452,554,-3053,5905,138,-94,155,-33,-65
2,3182092,-1451,543,-3052,5894,134,-93,155,-33,-65
2,3182103,-1451,543,-3052,5894,134,-93,155,-33,-65
2,3182117,-1452,558,-3043,5896,135,-92,151,-39,-65
2,3182131,-1452,558,-3043,5896,135,-92,151,-39,-65
2,3182144,-1450,567,-3050,5895,147,-96,151,-39,-65
2,3182156,-1454,582,-3047,5898,138,-98,151,-39,-65
2,3182170,-1454,582,-3047,5898,138,-98,151,-39,-65
2,3182183,-1451,554,-3050,5886,145,-103,151,-39,-65
2,3182195,-1452,565,-3046,5889,143,-100,151,-39,-65
2,3182211,-1452,565,-3046,5889,143,-100,151,-39,-65
2,3182226,-1448,574,-3054,5893,136,-93,151,-39,-65
2,3182241,-1456,570,-3045,5893,133,-95,152,-34,-56
2,3182255,-1444,565,-3042,5883,138,-97,152,-34,-56
2,3182269,-1444,565,-3042,5883,138,-97,152,-34,-56
2,3182283,-1452,559,-3043,5879,133,-98,152,-34,-56
2,3182299,-1451,571,-3044,5878,128,-98,152,-34,-56
2,3182313,-1453,568,-3047,5879,137,-94,152,-34,-56
2,3182324,-1453,568,-3047,5879,137,-94,152,-34,-56
2,3182338,-1451,572,-3047,5880,139,-101,152,-34,-56
2,3182351,-1451,572,-3047,5880,139,-101,152,-34,-56
2,3182365,-1449,551,-3043,5881,128,-94,138,-24,-42
2,3182379,-1450,564,-3039,5884,133,-93,138,-24,-42
2,3182391,-1450,564,-3039,5884,133,-93,138,-24,-42
2,3182404,-1451,554,-3040,5885,147,-99,138,-24,-42
2,3182416,-1450,574,-3047,5889,140,-97,138,-24,-42
2,3182431,-1450,574,-3047,5889,140,-97,138,-24,-42
2,3182445,-1450,551,-3045,5889,132,-96,138,-24,-42
2,3182460,-1452,552,-3046,5886,134,-91,138,-24,-42
2,3182476,-1451,547,-3042,5883,141,-96,138,-24,-42
2,3182490,-1451,547,-3042,5883,141,-96,138,-24,-42
2,3182504,-1451,555,-3047,5883,133,-98,125,-21,-43
2,3182518,-1448,543,-3042,5876,139,-104,125,-21,-43
2,3182532,-1449,542,-3048,5873,140,-95,125,-21,-43
2,3182548,-1449,542,-3048,5873,140,-95,125,-21,-43
2,3182560,-1449,543,-3044,5883,145,-100,125,-21,-43
2,3182573,-1448,548,-3044,5882,131,-94,125,-21,-43
2,3182586,-1448,548,-3044,5882,131,-94,125,-21,-43
2,3182600,-1447,548,-3037,5881,133,-97,125,-21,-43
2,3182613,-1451,539,-3042,5883,144,-100,122,-26,-36
2,3182625,-1451,539,-3042,5883,144,-100,122,-26,-36
2,3182638,-1448,529,-3040,5886,138,-107,122,-26,-36
2,3182652,-1448,529,-3040,5886,138,-107,122,-26,-36
2,3182665,-1450,522,-3049,5885,142,-96,122,-26,-36
2,3182680,-1448,532,-3041,5885,137,-96,122,-26,-36
2,3182695,-1452,520,-3051,5887,145,-92,122,-26,-36
2,3182709,-1452,520,-3051,5887,145,-92,122,-26,-36
2,3182722,-1450,535,-3050,5886,143,-99,122,-26,-36
2,3182736,-1451,528,-3047,5885,139,-91,117,-21,-37
2,3182751,-1451,528,-3047,5885,139,-91,117,-21,-37
2,3182766,-1447,544,-3051,5888,142,-100,117,-21,-37
2,3182777,-1452,547,-3049,5885,141,-98,117,-21,-37
2,3182791,-1452,547,-3049,5885,141,-98,117,-21,-37
2,3182806,-1445,543,-3046,5895,142,-95,117,-21,-37
2,3182819,-1449,537,-3050,5894,131,-98,117,-21,-37
2,3182831,-1449,537,-3050,5894,131,-98,117,-21,-37
2,3182846,-1448,543,-3053,5892,141,-90,117,-21,-37
2,3182858,-1453,545,-3051,5897,146,-98,106,-24,-36
2,3182872,-1453,545,-3051,5897,146,-98,106,-24,-36
2,3182886,-1449,540,-3049,5895,142,-99,106,-24,-36
2,3182900,-1447,548,-3053,5896,138,-90,106,-24,-36
2,3182913,-1454,551,-3051,5893,140,-92,106,-24,-36
2,3182924,-1454,551,-3051,5893,140,-92,106,-24,-36
2,3182940,-1449,561,-3041,5897,140,-94,106,-24,-36
2,3182954,-1452,552,-3050,5897,137,-95,106,-24,-36
2,3182968,-1452,552,-3050,5897,137,-95,106,-24,-36
2,3182983,-1450,596,-3048,5900,143,-95,99,-25,-29
2,3182997,-1451,553,-3047,5893,138,-90,99,-25,-29
2,3183011,-1451,553,-3047,5893,138,-90,99,-25,-29
2,3183027,-1453,572,-3045,5897,140,-92,99,-25,-29
2,3183040,-1452,558,-3046,5891,150,-93,99,-25,-29
2,3183053,-1452,558,-3046,5891,150,-93,99,-25,-29
2,3183068,-1452,558,-3046,5891,150,-93,99,-25,-29
2,3183081,-1450,552,-3053,5887,139,-95,99,-25,-29
2,3183094,-1452,569,-3044,5889,139,-109,99,-25,-29
2,3183108,-1452,569,-3044,5889,139,-109,99,-25,-29
2,3183121,-1450,562,-3041,5884,136,-98,102,-22,-26
2,3183135,-1457,570,-3048,5887,140,-98,102,-22,-26
2,3183150,-1457,570,-3048,5887,140,-98,102,-22,-26
2,3183164,-1451,563,-3045,5884,140,-95,102,-22,-26
2,3183175,-1447,559,-3044,5891,137,-101,102,-22,-26
2,3183190,-1447,559,-3044,5891,137,-101,102,-22,-26
2,3183204,-1448,564,-3048,5885,130,-98,102,-22,-26
2,3183219,-1453,562,-3048,5882,138,-91,102,-22,-26
2,3183232,-1453,562,-3048,5882,138,-91,102,-22,-26
2,3183245,-1450,567,-3035,5890,142,-92,93,-19,-29
2,3183258,-1455,562,-3035,5882,133,-102,93,-19,-29
2,3183271,-1455,562,-3035,5882,133,-102,93,-19,-29
2,3183286,-1451,562,-3037,5884,133,-95,93,-19,-29
2,3183298,-1455,555,-3041,5883,132,-97,93,-19,-29
2,3183309,-1455,555,-3041,5883,132,-97,93,-19,-29
2,3183325,-1451,571,-3033,5877,143,-90,93,-19,-29
2,3183339,-1451,561,-3041,5878,138,-101,93,-19,-29
2,3183353,-1452,562,-3043,5881,143,-94,95,-29,-25
2,3183367,-1452,562,-3043,5881,143,-94,95,-29,-25
2,3183382,-1448,552,-3041,5883,139,-91,95,-29,-25
2,3183397,-1450,563,-3036,5883,138,-97,95,-29,-25
2,3183413,-1451,546,-3043,5880,137,-94,95,-29,-25
2,3183426,-1451,546,-3043,5880,137,-94,95,-29,-25
2,3183439,-1445,541,-3040,5878,139,-94,95,-29,-25
2,3183454,-1449,507,-3041,5882,137,-101,95,-29,-25
2,3183469,-1449,507,-3041,5882,137,-101,95,-29,-25
2,3183483,-1445,517,-3042,5876,139,-99,84,-24,-32
2,3183497,-1453,525,-3037,5877,141,-92,84,-24,-32
2,3183509,-1453,525,-3037,5877,141,-92,84,-24,-32
2,3183523,-1449,527,-3042,5884,137,-95,84,-24,-32
2,3183537,-1450,520,-3045,5881,137,-97,84,-24,-32
2,3183551,-1450,520,-3045,5881,137,-97,84,-24,-32
2,3183564,-1447,530,-3049,5878,138,-104,84,-24,-32
2,3183574,-1450,531,-3051,5885,137,-88,84,-24,-32
2,3183587,-1450,531,-3051,5885,137,-88,84,-24,-32
2,3183600,-1449,542,-3051,5887,140,-96,83,-21,-21
2,3183614,-1448,531,-3046,5893,136,-95,83,-21,-21
2,3183628,-1448,531,-3046,5893,136,-95,83,-21,-21
2,3183641,-1452,540,-3050,5896,129,-90,83,-21,-21
2,3183655,-1450,531,-3047,5903,135,-85,83,-21,-21
2,3183666,-1450,531,-3047,5903,135,-85,83,-21,-21
2,3183680,-1452,556,-3049,5896,136,-84,83,-21,-21
2,3183693,-1452,548,-3046,5892,139,-97,83,-21,-21
2,3183707,-1452,548,-3046,5892,139,-97,83,-21,-21
2,3183721,-1450,561,-3050,5894,135,-105,68,-18,-30
2,3183735,-1449,545,-3042,5893,144,-101,68,-18,-30
2,3183750,-1449,545,-3042,5893,144,-101,68,-18,-30
2,3183763,-1446,563,-3051,5892,142,-98,68,-18,-30
2,3183777,-1447,562,-3050,5892,130,-99,68,-18,-30
2,3183793,-1447,562,-3050,5892,130,-99,68,-18,-30
2,3183808,-1454,561,-3049,5892,137,-99,68,-18,-30
2,3183821,-1448,545,-3050,5890,140,-106,68,-18,-30
2,3183833,-1448,545,-3050,5890,140,-106,68,-18,-30
2,3183847,-1451,551,-3047,5886,133,-99,68,-18,-30
2,3183860,-1452,552,-3050,5893,138,-101,66,-16,-36
2,3183874,-1452,554,-3041,5893,134,-93,66,-16,-36
2,3183888,-1452,554,-3041,5893,134,-93,66,-16,-36
2,3183900,-1447,550,-3046,5890,133,-97,66,-16,-36
2,3183912,-1447,550,-3046,5890,133,-97,66,-16,-36
2,3183925,-1446,550,-3049,5886,134,-93,66,-16,-36
2,3183939,-1448,548,-3053,5892,139,-92,66,-16,-36
2,3183953,-1444,549,-3048,5894,136,-100,66,-16,-36
2,3183968,-1444,549,-3048,5894,136,-100,66,-16,-36
2,3183980,-1445,546,-3047,5890,138,-96,62,-10,-38
2,3183994,-1448,537,-3054,5895,132,-96,62,-10,-38
2,3184010,-1448,537,-3054,5895,132,-96,62,-10,-38
2,3184018,-1451,557,-3051,5899,132,-94,62,-10,-38
2,3184029,-1451,557,-3051,5899,132,-94,62,-10,-38
2,3184045,-1451,551,-3046,5895,139,-99,62,-10,-38
2,3184057,-1452,557,-3047,5898,141,-101,62,-10,-38
2,3184068,-1452,557,-3047,5898,141,-101,62,-10,-38
2,3184082,-1452,544,-3054,5898,149,-100,62,-10,-38
2,3184096,-1452,603,-3040,5896,138,-100,65,-7,-39
2,3184109,-1452,603,-3040,5896,138,-100,65,-7,-39
2,3184121,-1453,562,-3048,5900,139,-90,65,-7,-39
2,3184136,-1450,580,-3047,5891,132,-97,65,-7,-39
2,3184149,-1450,580,-3047,5891,132,-97,65,-7,-39
2,3184163,-1447,549,-3046,5892,133,-95,65,-7,-39
2,3184177,-1449,591,-3043,5896,139,-88,65,-7,-39
2,3184189,-1449,591,-3043,5896,139,-88,65,-7,-39
2,3184204,-1452,561,-3045,5894,137,-90,65,-7,-39
2,3184219,-1453,575,-3038,5889,134,-97,66,-2,-34
2,3184231,-1453,575,-3038,5889,134,-97,66,-2,-34
2,3184245,-1441,553,-3044,5886,136,-103,66,-2,-34
2,3184261,-1455,572,-3043,5876,139,-104,66,-2,-34
2,3184276,-1451,563,-3041,5883,137,-94,66,-2,-34
2,3184289,-1451,563,-3041,5883,137,-94,66,-2,-34
2,3184302,-1454,581,-3039,5882,133,-98,66,-2,-34
2,3184315,-1446,567,-3042,5888,134,-99,66,-2,-34
2,3184328,-1446,567,-3042,5888,134,-99,66,-2,-34
2,3184342,-1450,566,-3046,5876,135,-94,55,-1,-45
2,3184356,-1449,566,-3043,5889,137,-94,55,-1,-45
2,3184370,-1449,566,-3043,5889,137,-94,55,-1,-45
2,3184384,-1451,578,-3039,5888,136,-95,55,-1,-45
2,3184397,-1447,557,-3044,5879,138,-95,55,-1,-45
2,3184410,-1447,557,-3044,5879,138,-95,55,-1,-45
2,3184424,-1451,558,-3034,5877,135,-98,55,-1,-45
2,3184439,-1451,565,-3037,5881,139,-94,55,-1,-45
2,3184452,-1451,565,-3037,5881,139,-94,55,-1,-45
2,3184466,-1454,575,-3035,5887,136,-96,55,-1,-45
2,3184481,-1449,567,-3034,5877,130,-92,59,5,-47
2,3184496,-1449,560,-3034,5881,133,-95,59,5,-47
2,3184513,-1449,560,-3034,5881,133,-95,59,5,-47
2,3184527,-1446,565,-3041,5882,130,-94,59,5,-47
2,3184540,-1449,571,-3040,5872,121,-91,59,5,-47
2,3184552,-1449,571,-3040,5872,121,-91,59,5,-47
2,3184567,-1452,565,-3038,5878,130,-96,59,5,-47
2,3184580,-1448,555,-3035,5883,137,-101,59,5,-47
2,3184593,-1450,546,-3037,5876,132,-99,59,5,-47
2,3184607,-1450,546,-3037,5876,132,-99,59,9,-53
2,3184618,-1449,537,-3037,5875,142,-94,59,9,-53
2,3184632,-1449,537,-3037,5875,142,-94,59,9,-53
2,3184646,-1445,497,-3046,5880,138,-97,59,9,-53
2,3184658,-1445,523,-3038,5877,142,-93,59,9,-53
2,3184673,-1445,523,-3038,5877,142,-93,59,9,-53
2,3184688,-1448,516,-3047,5881,135,-91,59,9,-53
2,3184700,-1447,525,-3043,5892,131,-95,59,9,-53
2,3184715,-1447,525,-3043,5892,131,-95,48,2,-60
2,3184731,-1447,525,-3043,5892,131,-95,48,2,-60
2,3184742,-1447,523,-3045,5884,130,-98,48,2,-60
2,3184755,-1445,518,-3052,5890,129,-95,48,2,-60
2,3184769,-1445,518,-3052,5890,129,-95,48,2,-60
2,3184783,-1453,534,-3045,5893,140,-92,48,2,-60
2,3184796,-1453,533,-3048,5896,141,-92,48,2,-60
2,3184809,-1453,533,-3048,5896,141,-92,48,2,-60
2,3184822,-1447,541,-3046,5895,130,-96,48,2,-60
2,3184834,-1451,545,-3048,5892,140,-96,52,2,-68
2,3184848,-1451,545,-3048,5892,140,-96,52,2,-68
2,3184862,-1446,559,-3048,5894,136,-92,52,2,-68
2,3184876,-1449,567,-3047,5896,133,-97,52,2,-68
2,3184888,-1449,567,-3047,5896,133,-97,52,2,-68
2,3184901,-1446,556,-3051,5899,132,-95,52,2,-68
2,3184915,-1446,554,-3048,5900,139,-91,52,2,-68
2,3184930,-1446,554,-3048,5900,139,-91,52,2,-68
2,3184943,-1451,563,-3046,5893,141,-97,52,2,-68
2,3184957,-1452,568,-3050,5891,138,-101,50,-2,-76
2,3184972,-1452,568,-3050,5891,138,-101,50,-2,-76
2,3184988,-1448,552,-3047,5896,130,-97,50,-2,-76
2,3185002,-1450,551,-3041,5894,136,-98,50,-2,-76
2,3185015,-1450,561,-3041,5896,142,-91,50,-2,-76
2,3185029,-1450,561,-3041,5896,142,-91,50,-2,-76
2,3185043,-1449,559,-3050,5895,139,-98,50,-2,-76
2,3185055,-1449,557,-3053,5893,135,-93,50,-2,-76
2,3185069,-1449,557,-3053,5893,135,-93,50,-2,-76
2,3185083,-1447,557,-3045,5892,128,-91,50,-2,-76
2,3185096,-1448,561,-3052,5893,137,-90,49,-3,-75
2,3185111,-1448,561,-3052,5893,137,-90,49,-3,-75
2,3185122,-1446,566,-3049,5894,142,-95,49,-3,-75
2,3185135,-1446,563,-3044,5890,125,-98,49,-3,-75
2,3185149,-1446,563,-3044,5890,125,-98,49,-3,-75
2,3185165,-1448,563,-3046,5894,127,-100,49,-3,-75
2,3185179,-1449,562,-3041,5889,138,-94,49,-3,-75
2,3185191,-1449,562,-3041,5889,138,-94,49,-3,-75
2,3185205,-1455,568,-3049,5888,133,-89,49,-3,-75
2,3185218,-1451,565,-3042,5889,139,-90,63,3,-79
2,3185231,-1451,565,-3042,5889,139,-90,63,3,-79
2,3185245,-1450,560,-3044,5890,139,-100,63,3,-79
2,3185257,-1447,584,-3042,5886,136,-100,63,3,-79
2,3185268,-1447,584,-3042,5886,136,-100,63,3,-79
2,3185283,-1446,570,-3049,5887,130,-97,63,3,-79
2,3185298,-1446,579,-3042,5892,135,-97,63,3,-79
2,3185311,-1446,579,-3042,5892,135,-97,63,3,-79
2,3185321,-1447,562,-3041,5888,139,-88,63,3,-79
2,3185336,-1449,580,-3035,5881,140,-96,58,-2,-86
2,3185350,-1449,580,-3035,5881,140,-96,58,-2,-86
2,3185366,-1453,566,-3038,5877,133,-95,58,-2,-86
2,3185381,-1451,582,-3038,5883,137,-91,58,-2,-86
2,3185394,-1451,582,-3038,5883,137,-91,58,-2,-86
2,3185405,-1448,564,-3037,5884,130,-104,58,-2,-86
2,3185420,-1451,565,-3035,5883,137,-99,58,-2,-86
2,3185433,-1451,565,-3035,5883,137,-99,58,-2,-86
2,3185446,-1445,567,-3039,5878,134,-91,58,-2,-86
2,3185459,-1448,579,-3035,5888,135,-103,66,-16,-94
2,3185471,-1448,579,-3035,5888,135,-103,66,-16,-94
2,3185486,-1450,565,-3035,5886,131,-93,66,-16,-94
2,3185502,-1447,567,-3036,5879,137,-94,66,-16,-94
2,3185515,-1449,562,-3036,5880,137,-94,66,-16,-94
2,3185529,-1449,562,-3036,5880,137,-94,66,-16,-94
2,3185544,-1449,562,-3036,5880,137,-94,66,-16,-94
2,3185559,-1446,542,-3038,5875,132,-102,66,-16,-94
2,3185574,-1446,542,-3038,5875,132,-102,66,-16,-94
2,3185588,-1448,520,-3036,5878,137,-97,60,-12,-104
2,3185602,-1449,536,-3037,5877,140,-94,60,-12,-104
2,3185616,-1450,548,-3035,5879,141,-87,60,-12,-104
2,3185628,-1450,548,-3035,5879,141,-87,60,-12,-104
2,3185640,-1448,551,-3044,5878,131,-94,60,-12,-104
2,3185653,-1448,551,-3044,5878,131,-94,60,-12,-104
2,3185667,-1448,536,-3048,5877,138,-95,60,-12,-104
2,3185681,-1447,545,-3039,5874,132,-99,60,-12,-104
2,3185693,-1447,545,-3039,5874,132,-99,60,-12,-104
2,3185704,-1449,554,-3045,5880,134,-93,60,-12,-104
2,3185718,-1450,540,-3038,5884,131,-96,78,-14,-104
2,3185732,-1450,540,-3038,5884,131,-96,78,-14,-104
2,3185746,-1447,537,-3039,5876,132,-100,78,-14,-104
2,3185762,-1446,526,-3044,5879,128,-99,78,-14,-104
2,3185776,-1451,535,-3040,5887,128,-97,78,-14,-104
2,3185790,-1451,535,-3040,5887,128,-97,78,-14,-104
2,3185805,-1447,526,-3045,5890,135,-94,78,-14,-104
2,3185819,-1446,534,-3041,5891,139,-91,78,-14,-104
2,3185832,-1446,534,-3041,5891,139,-91,78,-14,-104
2,3185845,-1445,531,-3042,5884,136,-93,69,-15,-111
2,3185858,-1449,542,-3045,5886,139,-91,69,-15,-111
2,3185871,-1449,542,-3045,5886,139,-91,69,-15,-111
2,3185886,-1446,544,-3046,5892,146,-96,69,-15,-111
2,3185899,-1445,553,-3043,5895,133,-98,69,-15,-111
2,3185915,-1446,543,-3047,5887,133,-97,69,-15,-111
2,3185929,-1446,543,-3047,5887,133,-97,69,-15,-111
2,3185941,-1448,544,-3044,5890,129,-91,69,-15,-111
2,3185955,-1452,560,-3045,5897,134,-101,80,-14,-114
2,3185972,-1452,560,-3045,5897,134,-101,80,-14,-114
2,3185987,-1448,555,-3043,5896,139,-93,80,-14,-114
2,3186002,-1450,552,-3047,5899,137,-101,80,-14,-114
2,3186017,-1448,551,-3046,5892,141,-95,80,-14,-114
2,3186029,-1448,551,-3046,5892,141,-95,80,-14,-114
2,3186043,-1451,611,-3054,5887,137,-96,80,-14,-114
2,3186057,-1454,557,-3052,5897,132,-101,80,-14,-114
2,3186070,-1454,557,-3052,5897,132,-101,80,-14,-114
2,3186083,-1449,583,-3044,5896,136,-97,79,-15,-121
2,3186097,-1446,552,-3047,5884,136,-97,79,-15,-121
2,3186109,-1446,552,-3047,5884,136,-97,79,-15,-121
2,3186123,-1454,595,-3043,5885,137,-86,79,-15,-121
2,3186137,-1452,563,-3045,5887,142,-89,79,-15,-121
2,3186150,-1452,563,-3045,5887,142,-89,79,-15,-121
2,3186165,-1455,574,-3033,5884,143,-95,79,-15,-121
2,3186180,-1442,558,-3043,5884,134,-96,79,-15,-121
2,3186191,-1442,558,-3043,5884,134,-96,79,-15,-121
2,3186205,-1452,579,-3039,5883,129,-84,87,-25,-125
2,3186221,-1449,571,-3045,5880,138,-94,87,-25,-125
2,3186234,-1449,571,-3045,5880,138,-94,87,-25,-125
2,3186246,-1450,576,-3037,5885,138,-102,87,-25,-125
2,3186262,-1444,567,-3044,5884,132,-98,87,-25,-125
2,3186275,-1444,567,-3044,5884,132,-98,87,-25,-125
2,3186288,-1447,565,-3043,5884,134,-96,87,-25,-125
2,3186302,-1450,568,-3044,5883,139,-90,87,-25,-125
2,3186315,-1450,568,-3044,5883,139,-90,87,-25,-125
2,3186327,-1449,575,-3040,5882,138,-91,87,-25,-125
2,3186336,-1450,561,-3038,5880,131,-97,91,-23,-135
2,3186344,-1450,561,-3038,5880,131,-97,91,-23,-135
2,3186353,-1450,561,-3038,5880,131,-97,91,-23,-135
2,3186367,-1447,559,-3040,5883,146,-96,91,-23,-135
2,3186380,-1449,565,-3042,5876,141,-87,91,-23,-135
2,3186393,-1449,565,-3042,5876,141,-87,91,-23,-135
2,3186406,-1449,567,-3039,5880,133,-94,91,-23,-135
2,3186419,-1449,567,-3039,5880,133,-94,91,-23,-135
2,3186434,-1449,567,-3039,5880,133,-94,91,-23,-135
2,3186447,-1446,554,-3038,5887,139,-93,91,-23,-135
2,3186459,-1447,559,-3032,5887,126,-91,101,-31,-137
2,3186475,-1447,559,-3032,5887,126,-91,101,-31,-137
2,3186490,-1448,563,-3034,5884,129,-89,101,-31,-137
2,3186505,-1445,553,-3039,5885,129,-99,101,-31,-137
2,3186519,-1446,529,-3032,5884,135,-98,101,-31,-137
2,3186530,-1446,529,-3032,5884,135,-98,101,-31,-137
2,3186545,-1447,514,-3040,5883,134,-96,101,-31,-137
2,3186558,-1448,534,-3037,5877,140,-96,101,-31,-137
2,3186572,-1448,534,-3037,5877,140,-96,101,-31,-137
2,3186585,-1449,527,-3041,5882,137,-94,100,-30,-138
2,3186598,-1451,526,-3041,5889,137,-93,100,-30,-138
2,3186612,-1451,526,-3041,5889,137,-93,100,-30,-138
2,3186624,-1446,523,-3052,5886,135,-98,100,-30,-138
2,3186637,-1448,536,-3041,5888,133,-103,100,-30,-138
2,3186652,-1448,536,-3041,5888,133,-103,100,-30,-138
2,3186667,-1447,545,-3049,5891,137,-99,100,-30,-138
2,3186681,-1452,536,-3045,5886,145,-98,100,-30,-138
2,3186697,-1444,539,-3050,5888,137,-98,113,-25,-149
2,3186710,-1444,539,-3050,5888,137,-98,113,-25,-149
2,3186724,-1447,537,-3041,5891,138,-97,113,-25,-149
2,3186737,-1450,550,-3043,5891,141,-92,113,-25,-149
2,3186747,-1450,550,-3043,5891,141,-92,113,-25,-149
2,3186761,-1448,554,-3045,5892,143,-97,113,-25,-149
2,3186775,-1448,554,-3045,5892,143,-97,113,-25,-149
2,3186789,-1448,557,-3050,5895,131,-99,113,-25,-149
2,3186802,-1442,551,-3045,5892,137,-102,113,-25,-149
2,3186814,-1442,551,-3045,5892,137,-102,113,-25,-149
2,3186829,-1447,565,-3045,5897,141,-103,114,-30,-154
2,3186843,-1448,567,-3041,5891,140,-105,114,-30,-154
2,3186856,-1452,604,-3044,5900,145,-97,114,-30,-154
2,3186871,-1452,604,-3044,5900,145,-97,114,-30,-154
2,3186885,-1451,552,-3049,5892,141,-95,114,-30,-154
2,3186900,-1445,583,-3042,5895,141,-102,114,-30,-154
2,3186917,-1447,563,-3046,5893,137,-98,114,-30,-154
2,3186931,-1447,563,-3046,5893,137,-98,114,-30,-154
2,3186945,-1453,585,-3042,5887,143,-98,114,-30,-154
2,3186959,-1451,556,-3042,5879,136,-99,118,-36,-150
2,3186974,-1451,556,-3042,5879,136,-99,118,-36,-150
2,3186987,-1447,572,-3037,5883,138,-97,118,-36,-150
2,3186998,-1447,565,-3045,5884,134,-96,118,-36,-150
2,3187012,-1447,565,-3045,5884,134,-96,118,-36,-150
2,3187025,-1456,577,-3040,5885,134,-93,118,-36,-150
2,3187040,-1449,568,-3046,5884,143,-106,118,-36,-150
2,3187054,-1449,568,-3046,5884,143,-106,118,-36,-150
2,3187065,-1447,573,-3041,5888,140,-100,118,-36,-150
2,3187079,-1449,566,-3041,5889,140,-100,116,-38,-154
2,3187092,-1449,566,-3041,5889,140,-100,116,-38,-154
2,3187105,-1450,572,-3042,5878,138,-98,116,-38,-154
2,3187121,-1451,566,-3037,5880,137,-102,116,-38,-154
2,3187136,-1449,569,-3042,5877,133,-103,116,-38,-154
2,3187151,-1449,569,-3042,5877,133,-103,116,-38,-154
2,3187167,-1452,560,-3037,5877,134,-96,116,-38,-154
2,3187180,-1451,562,-3043,5875,133,-95,116,-38,-154
2,3187194,-1451,562,-3043,5875,133,-95,116,-38,-154
2,3187209,-1447,570,-3034,5878,132,-93,123,-37,-159
2,3187220,-1452,561,-3044,5881,133,-96,123,-37,-159
2,3187232,-1452,561,-3044,5881,133,-96,123,-37,-159
2,3187248,-1448,561,-3039,5882,132,-93,123,-37,-159
2,3187261,-1448,553,-3040,5884,134,-95,123,-37,-159
2,3187275,-1448,553,-3040,5884,134,-95,123,-37,-159
2,3187289,-1443,557,-3040,5882,138,-96,123,-37,-159
2,3187304,-1449,545,-3049,5878,130,-100,123,-37,-159
2,3187317,-1444,508,-3035,5878,132,-100,133,-39,-157
2,3187331,-1444,508,-3035,5878,132,-100,133,-39,-157
2,3187345,-1445,523,-3038,5879,132,-98,133,-39,-157
2,3187358,-1447,524,-3044,5884,134,-90,133,-39,-157
2,3187373,-1447,524,-3044,5884,134,-90,133,-39,-157
2,3187387,-1449,531,-3049,5876,138,-86,133,-39,-157
2,3187402,-1446,517,-3045,5882,149,-98,133,-39,-157
2,3187418,-1445,531,-3050,5884,128,-99,133,-39,-157
2,3187432,-1445,531,-3050,5884,128,-99,133,-39,-157
2,3187445,-1446,535,-3052,5883,132,-92,132,-40,-168
2,3187460,-1451,544,-3043,5891,137,-98,132,-40,-168
2,3187471,-1451,544,-3043,5891,137,-98,132,-40,-168
2,3187483,-1449,538,-3045,5893,134,-101,132,-40,-168
2,3187497,-1444,541,-3045,5891,135,-102,132,-40,-168
2,3187512,-1444,541,-3045,5891,135,-102,132,-40,-168
2,3187525,-1452,545,-3051,5888,132,-95,132,-40,-168
2,3187537,-1451,555,-3048,5894,139,-96,132,-40,-168
2,3187550,-1451,555,-3048,5894,139,-96,132,-40,-168
2,3187564,-1453,559,-3052,5902,132,-99,136,-38,-158
2,3187577,-1446,551,-3053,5901,138,-103,136,-38,-158
2,3187591,-1446,551,-3053,5901,138,-103,136,-38,-158
2,3187606,-1451,550,-3055,5887,132,-94,136,-38,-158
2,3187621,-1447,606,-3053,5888,143,-101,136,-38,-158
2,3187637,-1454,569,-3054,5891,131,-99,136,-38,-158
2,3187653,-1454,569,-3054,5891,131,-99,136,-38,-158
2,3187668,-1447,573,-3049,5893,135,-107,136,-38,-158
2,3187682,-1446,555,-3043,5892,138,-100,136,-38,-158
2,3187695,-1446,555,-3043,5892,138,-100,136,-38,-158
2,3187710,-1452,589,-3045,5888,131,-94,136,-40,-152
2,3187723,-1453,571,-3042,5879,132,-91,136,-40,-152
2,3187735,-1453,571,-3042,5879,132,-91,136,-40,-152
2,3187748,-1453,571,-3042,5880,143,-107,136,-40,-152
2,3187764,-1441,555,-3048,5885,138,-104,136,-40,-152
2,3187778,-1452,577,-3051,5889,133,-96,136,-40,-152
2,3187791,-1452,577,-3051,5889,133,-96,136,-40,-152
2,3187804,-1452,570,-3053,5887,141,-100,136,-40,-152
2,3187816,-1452,570,-3053,5887,141,-100,136,-40,-152
2,3187832,-1447,575,-3039,5887,139,-99,151,-37,-149
2,3187848,-1444,565,-3040,5886,136,-98,151,-37,-149
2,3187861,-1449,565,-3042,5886,132,-93,151,-37,-149
2,3187874,-1449,565,-3042,5886,132,-93,151,-37,-149
2,3187890,-1453,569,-3046,5889,136,-94,151,-37,-149
2,3187905,-1452,570,-3035,5887,130,-102,151,-37,-149
2,3187919,-1448,565,-3040,5885,133,-102,151,-37,-149
2,3187932,-1448,565,-3040,5885,133,-102,151,-37,-149
2,3187940,-1454,558,-3039,5884,139,-92,155,-33,-139
2,3187953,-1454,558,-3039,5884,139,-92,155,-33,-139
2,3187966,-1451,574,-3041,5884,145,-95,155,-33,-139
2,3187980,-1449,572,-3044,5882,142,-96,155,-33,-139
2,3187994,-1449,572,-3044,5882,142,-96,155,-33,-139
2,3188002,-1446,568,-3045,5884,144,-99,155,-33,-139
2,3188016,-1446,568,-3045,5884,144,-99,155,-33,-139
2,3188030,-1447,561,-3042,5883,138,-91,155,-33,-139
2,3188043,-1455,570,-3044,5877,135,-90,155,-33,-139
2,3188059,-1450,571,-3038,5882,137,-102,161,-23,-151
2,3188073,-1450,571,-3038,5882,137,-102,161,-23,-151
2,3188087,-1452,561,-3036,5881,139,-102,161,-23,-151
2,3188101,-1449,541,-3035,5880,138,-98,161,-23,-151
2,3188116,-1449,541,-3035,5880,138,-98,161,-23,-151
2,3188130,-1448,541,-3042,5883,142,-98,161,-23,-151
