imu,time,ax,ay,az,gx,gy,gz,mx,my,mz
2,953082,-1426,491,-573,-158,-227,-103,92,38,-284
2,953090,-1426,491,-573,-158,-227,-103,92,38,-284
2,953095,-1426,491,-573,-158,-227,-103,92,38,-284
2,953102,-1426,495,-578,-161,-231,-92,92,38,-284
2,953108,-1426,495,-578,-161,-231,-92,92,38,-284
2,953114,-1426,495,-578,-161,-231,-92,92,38,-284
2,953119,-1425,494,-576,-156,-227,-86,92,38,-284
2,953125,-1425,494,-576,-156,-227,-86,92,38,-284
2,953133,-1425,494,-576,-156,-227,-86,92,38,-284
2,953140,-1430,491,-581,-157,-228,-93,92,38,-284
2,953146,-1430,491,-581,-157,-228,-93,92,38,-284
2,953152,-1430,491,-581,-157,-228,-93,92,38,-284
2,953158,-1428,495,-573,-159,-216,-89,92,38,-284
2,953165,-1428,495,-573,-159,-216,-89,92,38,-284
2,953170,-1428,495,-573,-159,-216,-89,92,38,-284
2,953178,-1428,495,-573,-159,-216,-89,92,38,-284
2,953185,-1425,492,-575,-157,-222,-86,92,38,-284
2,953193,-1425,492,-575,-157,-222,-86,92,38,-284
2,953198,-1427,494,-574,-163,-227,-86,90,34,-292
2,953203,-1427,494,-574,-163,-227,-86,90,34,-292
2,953210,-1427,494,-574,-163,-227,-86,90,34,-292
2,953217,-1427,494,-574,-163,-227,-86,90,34,-292
2,953225,-1428,494,-576,-157,-218,-91,90,34,-292
2,953230,-1428,494,-576,-157,-218,-91,90,34,-292
2,953237,-1428,494,-576,-157,-218,-91,90,34,-292
2,953243,-1424,493,-577,-158,-217,-96,90,34,-292
2,953249,-1424,493,-577,-158,-217,-96,90,34,-292
2,953257,-1425,493,-578,-163,-218,-92,90,34,-292
2,953264,-1425,493,-578,-163,-218,-92,90,34,-292
2,953271,-1425,493,-578,-163,-218,-92,90,34,-292
2,953277,-1425,493,-578,-163,-218,-92,90,34,-292
2,953282,-1429,495,-578,-164,-220,-86,90,34,-292
2,953289,-1429,495,-578,-164,-220,-86,90,34,-292
2,953295,-1429,495,-578,-164,-220,-86,90,34,-292
2,953304,-1427,492,-574,-152,-220,-91,90,34,-292
2,953310,-1427,492,-574,-152,-220,-91,90,34,-292
2,953315,-1427,492,-574,-152,-220,-91,90,34,-292
2,953321,-1429,495,-571,-159,-221,-93,90,38,-292
2,953327,-1429,495,-571,-159,-221,-93,90,38,-292
2,953336,-1429,495,-571,-159,-221,-93,90,38,-292
2,953342,-1422,494,-576,-156,-224,-97,90,38,-292
2,953349,-1422,494,-576,-156,-224,-97,90,38,-292
2,953354,-1422,494,-576,-156,-224,-97,90,38,-292
2,953360,-1427,491,-576,-160,-231,-92,90,38,-292
2,953366,-1427,491,-576,-160,-231,-92,90,38,-292
2,953371,-1427,491,-576,-160,-231,-92,90,38,-292
2,953378,-1425,492,-574,-160,-226,-101,90,38,-292
2,953384,-1425,492,-574,-160,-226,-101,90,38,-292
2,953392,-1425,492,-574,-160,-226,-101,90,38,-292
2,953398,-1428,493,-578,-151,-226,-90,90,38,-292
2,953404,-1428,493,-578,-151,-226,-90,90,38,-292
2,953411,-1428,493,-578,-151,-226,-90,90,38,-292
2,953417,-1428,493,-578,-151,-226,-90,90,38,-292
2,953424,-1427,493,-575,-164,-223,-84,90,38,-292
2,953431,-1427,493,-575,-164,-223,-84,90,38,-292
2,953437,-1427,493,-575,-164,-223,-84,90,38,-292
2,953443,-1425,494,-568,-167,-222,-99,92,40,-294
2,953449,-1425,494,-568,-167,-222,-99,92,40,-294
2,953454,-1425,494,-568,-167,-222,-99,92,40,-294
2,953460,-1426,493,-577,-165,-223,-91,92,40,-294
2,953466,-1426,493,-577,-165,-223,-91,92,40,-294
2,953472,-1426,493,-577,-165,-223,-91,92,40,-294
2,953478,-1426,493,-577,-165,-223,-91,92,40,-294
2,953484,-1427,495,-575,-162,-225,-92,92,40,-294
2,953489,-1427,495,-575,-162,-225,-92,92,40,-294
2,953495,-1427,495,-575,-162,-225,-92,92,40,-294
2,953500,-1424,493,-576,-157,-236,-92,92,40,-294
2,953505,-1424,493,-576,-157,-236,-92,92,40,-294
2,953510,-1424,493,-576,-157,-236,-92,92,40,-294
2,953516,-1424,493,-576,-157,-236,-92,92,40,-294
2,953521,-1428,494,-578,-159,-224,-91,92,40,-294
2,953526,-1428,494,-578,-159,-224,-91,92,40,-294
2,953531,-1428,494,-578,-159,-224,-91,92,40,-294
2,953536,-1428,494,-578,-159,-224,-91,92,40,-294
2,953541,-1426,496,-570,-160,-215,-92,92,40,-294
2,953546,-1426,496,-570,-160,-215,-92,92,40,-294
2,953551,-1426,496,-570,-160,-215,-92,92,40,-294
2,953556,-1426,496,-570,-160,-215,-92,92,40,-294
2,953561,-1425,496,-570,-156,-217,-93,89,37,-293
2,953567,-1425,496,-570,-156,-217,-93,89,37,-293
2,953571,-1425,496,-570,-156,-217,-93,89,37,-293
2,953576,-1425,496,-570,-156,-217,-93,89,37,-293
2,953582,-1426,493,-575,-162,-223,-82,89,37,-293
2,953586,-1426,493,-575,-162,-223,-82,89,37,-293
2,953592,-1426,493,-575,-162,-223,-82,89,37,-293
2,953600,-1426,492,-577,-164,-227,-91,89,37,-293
2,953607,-1426,492,-577,-164,-227,-91,89,37,-293
2,953614,-1426,492,-577,-164,-227,-91,89,37,-293
2,953621,-1424,490,-575,-160,-219,-92,89,37,-293
2,953627,-1424,490,-575,-160,-219,-92,89,37,-293
2,953633,-1424,490,-575,-160,-219,-92,89,37,-293
2,953638,-1424,492,-581,-163,-215,-92,89,37,-293
2,953647,-1424,492,-581,-163,-215,-92,89,37,-293
2,953653,-1424,492,-581,-163,-215,-92,89,37,-293
2,953659,-1425,491,-574,-163,-225,-90,89,37,-293
2,953665,-1425,491,-574,-163,-225,-90,89,37,-293
2,953672,-1425,491,-574,-163,-225,-90,89,37,-293
2,953678,-1426,495,-576,-161,-225,-91,88,38,-298
2,953684,-1426,495,-576,-161,-225,-91,88,38,-298
2,953690,-1426,495,-576,-161,-225,-91,88,38,-298
2,953697,-1426,495,-576,-161,-225,-91,88,38,-298
2,953703,-1427,494,-574,-154,-223,-90,88,38,-298
2,953710,-1427,494,-574,-154,-223,-90,88,38,-298
2,953716,-1427,494,-574,-154,-223,-90,88,38,-298
2,953721,-1423,494,-574,-159,-223,-92,88,38,-298
2,953729,-1423,494,-574,-159,-223,-92,88,38,-298
2,953736,-1423,494,-574,-159,-223,-92,88,38,-298
2,953743,-1423,492,-571,-167,-225,-96,88,38,-298
2,953748,-1423,492,-571,-167,-225,-96,88,38,-298
2,953754,-1423,492,-571,-167,-225,-96,88,38,-298
2,953761,-1423,494,-577,-162,-226,-88,88,38,-298
2,953766,-1423,494,-577,-162,-226,-88,88,38,-298
2,953774,-1423,494,-577,-162,-226,-88,88,38,-298
2,953780,-1427,492,-576,-156,-224,-96,88,38,-298
2,953787,-1427,492,-576,-156,-224,-96,88,38,-298
2,953793,-1427,492,-576,-156,-224,-96,88,38,-298
2,953798,-1426,490,-573,-155,-224,-93,88,38,-298
2,953806,-1426,490,-573,-155,-224,-93,88,38,-298
2,953811,-1426,490,-573,-155,-224,-93,88,38,-298
2,953820,-1425,494,-569,-164,-224,-94,88,38,-298
2,953826,-1425,494,-569,-164,-224,-94,88,38,-298
2,953832,-1425,494,-569,-164,-224,-94,88,38,-298
2,953839,-1426,492,-574,-163,-218,-90,88,38,-298
2,953845,-1426,492,-574,-163,-218,-90,88,38,-298
2,953852,-1426,492,-574,-163,-218,-90,88,38,-298
2,953859,-1424,491,-581,-170,-220,-84,88,38,-298
2,953866,-1424,491,-581,-170,-220,-84,88,38,-298
2,953873,-1424,491,-581,-170,-220,-84,88,38,-298
2,953880,-1426,494,-576,-166,-219,-93,88,38,-298
2,953887,-1426,494,-576,-166,-219,-93,88,38,-298
2,953893,-1426,494,-576,-166,-219,-93,88,38,-298
2,953900,-1427,495,-578,-158,-227,-95,88,38,-298
2,953907,-1427,495,-578,-158,-227,-95,88,38,-298
2,953912,-1427,495,-578,-158,-227,-95,88,38,-298
2,953919,-1423,497,-578,-155,-226,-93,88,38,-298
2,953924,-1423,497,-578,-155,-226,-93,88,38,-298
2,953931,-1423,497,-578,-155,-226,-93,88,38,-298
2,953938,-1425,492,-571,-161,-223,-99,93,35,-295
2,953947,-1425,492,-571,-161,-223,-99,93,35,-295
2,953952,-1425,492,-571,-161,-223,-99,93,35,-295
2,953958,-1425,492,-571,-161,-223,-99,93,35,-295
2,953964,-1423,493,-572,-169,-227,-96,93,35,-295
2,953970,-1423,493,-572,-169,-227,-96,93,35,-295
2,953978,-1424,493,-574,-162,-223,-96,93,35,-295
2,953985,-1424,493,-574,-162,-223,-96,93,35,-295
2,953993,-1424,493,-574,-162,-223,-96,93,35,-295
2,953999,-1424,491,-574,-163,-226,-95,93,35,-295
2,954005,-1424,491,-574,-163,-226,-95,93,35,-295
2,954013,-1424,491,-574,-163,-226,-95,93,35,-295
2,954019,-1427,491,-574,-164,-222,-88,93,35,-295
2,954028,-1427,491,-574,-164,-222,-88,93,35,-295
2,954035,-1427,491,-574,-164,-222,-88,93,35,-295
2,954042,-1427,490,-579,-166,-232,-95,93,35,-295
2,954048,-1427,490,-579,-166,-232,-95,93,35,-295
2,954053,-1427,490,-579,-166,-232,-95,93,35,-295
2,954059,-1426,490,-569,-160,-228,-88,100,38,-292
2,954063,-1426,490,-569,-160,-228,-88,100,38,-292
2,954071,-1426,490,-569,-160,-228,-88,100,38,-292
2,954078,-1426,490,-569,-160,-228,-88,100,38,-292
2,954084,-1427,492,-568,-165,-223,-88,100,38,-292
2,954092,-1427,492,-568,-165,-223,-88,100,38,-292
2,954100,-1424,493,-577,-167,-224,-95,100,38,-292
2,954109,-1424,493,-577,-167,-224,-95,100,38,-292
2,954116,-1424,493,-577,-167,-224,-95,100,38,-292
2,954124,-1427,493,-574,-170,-233,-91,100,38,-292
2,954131,-1427,493,-574,-170,-233,-91,100,38,-292
2,954138,-1427,493,-574,-170,-233,-91,100,38,-292
2,954145,-1427,493,-577,-170,-229,-88,100,38,-292
2,954152,-1427,493,-577,-170,-229,-88,100,38,-292
2,954160,-1422,493,-572,-169,-234,-90,100,38,-292
2,954166,-1422,493,-572,-169,-234,-90,100,38,-292
2,954174,-1422,493,-572,-169,-234,-90,100,38,-292
2,954180,-1424,493,-571,-166,-225,-90,91,37,-293
2,954186,-1424,493,-571,-166,-225,-90,91,37,-293
2,954191,-1424,493,-571,-166,-225,-90,91,37,-293
2,954199,-1424,494,-573,-164,-225,-97,91,37,-293
2,954205,-1424,494,-573,-164,-225,-97,91,37,-293
2,954213,-1424,494,-573,-164,-225,-97,91,37,-293
2,954219,-1423,493,-575,-170,-217,-100,91,37,-293
2,954224,-1423,493,-575,-170,-217,-100,91,37,-293
2,954231,-1423,493,-575,-170,-217,-100,91,37,-293
2,954238,-1424,492,-576,-161,-219,-94,91,37,-293
2,954246,-1424,492,-576,-161,-219,-94,91,37,-293
2,954253,-1424,492,-576,-161,-219,-94,91,37,-293
2,954260,-1425,492,-579,-156,-223,-90,91,37,-293
2,954267,-1425,492,-579,-156,-223,-90,91,37,-293
2,954275,-1425,492,-579,-156,-223,-90,91,37,-293
2,954281,-1426,491,-578,-156,-217,-95,91,37,-293
2,954289,-1426,491,-578,-156,-217,-95,91,37,-293
2,954296,-1426,491,-578,-156,-217,-95,91,37,-293
2,954303,-1426,492,-576,-159,-219,-92,89,35,-291
2,954310,-1426,492,-576,-159,-219,-92,89,35,-291
2,954316,-1426,492,-576,-159,-219,-92,89,35,-291
2,954323,-1427,495,-572,-163,-222,-87,89,35,-291
2,954329,-1427,495,-572,-163,-222,-87,89,35,-291
2,954335,-1427,495,-572,-163,-222,-87,89,35,-291
2,954343,-1428,494,-576,-163,-227,-90,89,35,-291
2,954349,-1428,494,-576,-163,-227,-90,89,35,-291
2,954355,-1428,494,-576,-163,-227,-90,89,35,-291
2,954361,-1428,494,-576,-163,-227,-90,89,35,-291
2,954369,-1428,494,-576,-163,-227,-90,89,35,-291
2,954377,-1428,494,-576,-163,-227,-90,89,35,-291
2,954384,-1424,493,-574,-163,-234,-96,89,35,-291
2,954393,-1424,493,-574,-163,-234,-96,89,35,-291
2,954400,-1424,492,-577,-156,-225,-93,89,35,-291
2,954407,-1424,492,-577,-156,-225,-93,89,35,-291
2,954415,-1424,492,-577,-156,-225,-93,89,35,-291
2,954421,-1426,493,-573,-158,-229,-91,86,38,-294
2,954427,-1426,493,-573,-158,-229,-91,86,38,-294
2,954433,-1426,493,-573,-158,-229,-91,86,38,-294
2,954439,-1425,491,-574,-162,-227,-94,86,38,-294
2,954446,-1425,491,-574,-162,-227,-94,86,38,-294
2,954455,-1425,491,-574,-162,-227,-94,86,38,-294
2,954460,-1427,492,-576,-164,-232,-98,86,38,-294
2,954467,-1427,492,-576,-164,-232,-98,86,38,-294
2,954474,-1427,492,-576,-164,-232,-98,86,38,-294
2,954481,-1425,493,-575,-164,-231,-95,86,38,-294
2,954487,-1425,493,-575,-164,-231,-95,86,38,-294
2,954493,-1425,493,-575,-164,-231,-95,86,38,-294
2,954500,-1425,493,-578,-167,-223,-97,86,38,-294
2,954510,-1425,493,-578,-167,-223,-97,86,38,-294
2,954517,-1425,493,-578,-167,-223,-97,86,38,-294
2,954524,-1427,494,-573,-164,-227,-89,86,38,-294
2,954531,-1427,494,-573,-164,-227,-89,86,38,-294
2,954540,-1427,491,-573,-164,-227,-94,86,38,-294
2,954547,-1427,491,-573,-164,-227,-94,86,38,-294
2,954553,-1427,491,-573,-164,-227,-94,86,38,-294
2,954560,-1426,494,-571,-158,-226,-92,88,40,-296
2,954567,-1426,494,-571,-158,-226,-92,88,40,-296
2,954577,-1426,494,-571,-158,-226,-92,88,40,-296
2,954584,-1425,495,-575,-157,-223,-98,88,40,-296
2,954591,-1425,495,-575,-157,-223,-98,88,40,-296
2,954598,-1425,495,-575,-157,-223,-98,88,40,-296
2,954605,-1421,493,-575,-159,-216,-83,88,40,-296
2,954610,-1421,493,-575,-159,-216,-83,88,40,-296
2,954618,-1421,493,-575,-159,-216,-83,88,40,-296
2,954628,-1426,493,-570,-164,-217,-88,88,40,-296
2,954634,-1426,493,-570,-164,-217,-88,88,40,-296
2,954643,-1429,494,-576,-156,-224,-89,88,40,-296
2,954650,-1429,494,-576,-156,-224,-89,88,40,-296
2,954656,-1429,494,-576,-156,-224,-89,88,40,-296
2,954663,-1427,492,-569,-157,-222,-91,88,40,-296
2,954671,-1427,492,-569,-157,-222,-91,88,40,-296
2,954679,-1427,492,-569,-157,-222,-91,88,40,-296
2,954686,-1425,493,-572,-158,-219,-92,86,34,-292
2,954694,-1425,493,-572,-158,-219,-92,86,34,-292
2,954701,-1425,495,-574,-166,-227,-99,86,34,-292
2,954707,-1425,495,-574,-166,-227,-99,86,34,-292
2,954715,-1425,495,-574,-166,-227,-99,86,34,-292
2,954721,-1427,492,-573,-162,-221,-91,86,34,-292
2,954729,-1427,492,-573,-162,-221,-91,86,34,-292
2,954736,-1427,492,-573,-162,-221,-91,86,34,-292
2,954744,-1426,493,-576,-155,-217,-91,86,34,-292
2,954752,-1426,493,-576,-155,-217,-91,86,34,-292
2,954757,-1426,493,-576,-155,-217,-91,86,34,-292
2,954762,-1425,493,-575,-156,-225,-91,86,34,-292
2,954767,-1425,493,-575,-156,-225,-91,86,34,-292
2,954772,-1425,493,-575,-156,-225,-91,86,34,-292
2,954777,-1425,493,-575,-156,-225,-91,86,34,-292
2,954782,-1426,494,-579,-164,-228,-89,86,34,-292
2,954787,-1426,494,-579,-164,-228,-89,86,34,-292
2,954793,-1426,494,-579,-164,-228,-89,86,34,-292
2,954799,-1428,491,-573,-165,-225,-87,85,37,-291
2,954805,-1428,491,-573,-165,-225,-87,85,37,-291
2,954810,-1428,491,-573,-165,-225,-87,85,37,-291
2,954816,-1428,491,-573,-165,-225,-87,85,37,-291
2,954822,-1426,490,-574,-161,-226,-94,85,37,-291
2,954827,-1426,490,-574,-161,-226,-94,85,37,-291
2,954832,-1426,490,-574,-161,-226,-94,85,37,-291
2,954838,-1426,490,-574,-161,-226,-94,85,37,-291
2,954844,-1426,492,-573,-159,-222,-89,85,37,-291
2,954850,-1426,492,-573,-159,-222,-89,85,37,-291
2,954855,-1426,492,-573,-159,-222,-89,85,37,-291
2,954861,-1425,493,-574,-156,-223,-92,85,37,-291
2,954866,-1425,493,-574,-156,-223,-92,85,37,-291
2,954872,-1425,493,-574,-156,-223,-92,85,37,-291
2,954877,-1425,493,-574,-156,-223,-92,85,37,-291
2,954884,-1425,494,-576,-158,-224,-94,85,37,-291
2,954889,-1425,494,-576,-158,-224,-94,85,37,-291
2,954895,-1425,494,-576,-158,-224,-94,85,37,-291
2,954900,-1426,492,-575,-167,-222,-93,85,37,-291
2,954906,-1426,492,-575,-167,-222,-93,85,37,-291
2,954911,-1426,492,-575,-167,-222,-93,85,37,-291
2,954917,-1426,492,-575,-167,-222,-93,85,37,-291
2,954923,-1429,494,-571,-163,-224,-93,91,37,-295
2,954929,-1429,494,-571,-163,-224,-93,91,37,-295
2,954934,-1429,494,-571,-163,-224,-93,91,37,-295
2,954939,-1429,494,-571,-163,-224,-93,91,37,-295
2,954944,-1428,494,-575,-156,-226,-93,91,37,-295
2,954950,-1428,494,-575,-156,-226,-93,91,37,-295
2,954955,-1428,494,-575,-156,-226,-93,91,37,-295
2,954961,-1428,492,-575,-161,-221,-94,91,37,-295
2,954968,-1428,492,-575,-161,-221,-94,91,37,-295
2,954973,-1428,492,-575,-161,-221,-94,91,37,-295
2,954979,-1428,492,-575,-161,-221,-94,91,37,-295
2,954985,-1430,495,-576,-158,-227,-91,91,37,-295
2,954991,-1430,495,-576,-158,-227,-91,91,37,-295
2,954997,-1430,495,-576,-158,-227,-91,91,37,-295
2,955003,-1429,492,-580,-154,-222,-91,91,37,-295
2,955010,-1429,492,-580,-154,-222,-91,91,37,-295
2,955016,-1429,492,-580,-154,-222,-91,91,37,-295
2,955022,-1426,493,-572,-162,-221,-89,91,37,-295
2,955028,-1426,493,-572,-162,-221,-89,91,37,-295
2,955033,-1426,493,-572,-162,-221,-89,91,37,-295
2,955038,-1426,493,-572,-162,-221,-89,91,37,-295
2,955044,-1429,492,-574,-158,-227,-88,90,38,-298
2,955051,-1429,492,-574,-158,-227,-88,90,38,-298
2,955057,-1429,492,-574,-158,-227,-88,90,38,-298
2,955062,-1429,489,-575,-162,-222,-90,90,38,-298
2,955068,-1429,489,-575,-162,-222,-90,90,38,-298
2,955074,-1429,489,-575,-162,-222,-90,90,38,-298
2,955079,-1429,491,-577,-169,-218,-95,90,38,-298
2,955087,-1429,491,-577,-169,-218,-95,90,38,-298
2,955096,-1429,491,-577,-169,-218,-95,90,38,-298
2,955104,-1428,493,-574,-158,-217,-94,90,38,-298
2,955112,-1428,493,-574,-158,-217,-94,90,38,-298
2,955118,-1428,493,-574,-158,-217,-94,90,38,-298
2,955124,-1426,492,-576,-161,-223,-93,90,38,-298
2,955130,-1426,492,-576,-161,-223,-93,90,38,-298
2,955138,-1426,492,-576,-161,-223,-93,90,38,-298
2,955146,-1426,489,-578,-162,-227,-94,90,38,-298
2,955153,-1426,489,-578,-162,-227,-94,90,38,-298
2,955159,-1426,489,-578,-162,-227,-94,90,38,-298
2,955166,-1423,491,-577,-160,-218,-93,90,38,-298
2,955172,-1423,491,-577,-160,-218,-93,90,38,-298
2,955181,-1426,493,-571,-162,-220,-95,90,44,-294
2,955187,-1426,493,-571,-162,-220,-95,90,44,-294
2,955194,-1426,493,-571,-162,-220,-95,90,44,-294
2,955201,-1427,494,-578,-163,-225,-85,90,44,-294
2,955209,-1427,494,-578,-163,-225,-85,90,44,-294
2,955214,-1427,494,-578,-163,-225,-85,90,44,-294
2,955220,-1425,496,-577,-164,-230,-89,90,44,-294
2,955227,-1425,496,-577,-164,-230,-89,90,44,-294
2,955234,-1425,496,-577,-164,-230,-89,90,44,-294
2,955240,-1426,492,-576,-164,-230,-94,90,44,-294
2,955248,-1426,492,-576,-164,-230,-94,90,44,-294
2,955255,-1426,492,-576,-164,-230,-94,90,44,-294
2,955261,-1428,496,-578,-163,-230,-92,90,44,-294
2,955269,-1428,496,-578,-163,-230,-92,90,44,-294
2,955276,-1428,496,-578,-163,-230,-92,90,44,-294
2,955281,-1427,494,-577,-164,-230,-97,90,44,-294
2,955289,-1427,494,-577,-164,-230,-97,90,44,-294
2,955297,-1427,494,-577,-164,-230,-97,90,44,-294
2,955304,-1428,493,-572,-157,-224,-91,91,41,-293
2,955312,-1428,493,-572,-157,-224,-91,91,41,-293
2,955319,-1428,493,-572,-157,-224,-91,91,41,-293
2,955325,-1426,493,-575,-158,-228,-89,91,41,-293
2,955332,-1426,493,-575,-158,-228,-89,91,41,-293
2,955339,-1428,493,-571,-156,-222,-84,91,41,-293
2,955347,-1428,493,-571,-156,-222,-84,91,41,-293
2,955355,-1428,493,-571,-156,-222,-84,91,41,-293
2,955362,-1427,493,-574,-158,-225,-87,91,41,-293
2,955369,-1427,493,-574,-158,-225,-87,91,41,-293
2,955375,-1427,493,-574,-158,-225,-87,91,41,-293
2,955380,-1423,493,-577,-162,-227,-99,91,41,-293
2,955388,-1423,493,-577,-162,-227,-99,91,41,-293
2,955395,-1423,493,-577,-162,-227,-99,91,41,-293
2,955402,-1425,492,-575,-159,-220,-93,91,41,-293
2,955409,-1425,492,-575,-159,-220,-93,91,41,-293
2,955414,-1425,492,-575,-159,-220,-93,91,41,-293
2,955421,-1428,492,-576,-161,-226,-90,94,38,-284
2,955427,-1428,492,-576,-161,-226,-90,94,38,-284
2,955435,-1428,492,-576,-161,-226,-90,94,38,-284
2,955442,-1425,491,-578,-162,-218,-87,94,38,-284
2,955450,-1425,491,-578,-162,-218,-87,94,38,-284
2,955458,-1425,491,-578,-162,-218,-87,94,38,-284
2,955466,-1426,491,-580,-163,-213,-89,94,38,-284
2,955471,-1426,491,-580,-163,-213,-89,94,38,-284
2,955479,-1426,491,-580,-163,-213,-89,94,38,-284
2,955486,-1424,492,-575,-155,-216,-96,94,38,-284
2,955492,-1424,492,-575,-155,-216,-96,94,38,-284
2,955499,-1424,492,-575,-155,-216,-96,94,38,-284
2,955505,-1425,492,-574,-166,-220,-94,94,38,-284
2,955512,-1425,492,-574,-166,-220,-94,94,38,-284
2,955520,-1424,492,-576,-160,-225,-91,94,38,-284
2,955525,-1424,492,-576,-160,-225,-91,94,38,-284
2,955532,-1424,492,-576,-160,-225,-91,94,38,-284
2,955538,-1424,492,-576,-160,-225,-91,94,38,-284
2,955543,-1424,495,-574,-165,-225,-88,86,44,-292
2,955549,-1424,495,-574,-165,-225,-88,86,44,-292
2,955557,-1424,495,-574,-165,-225,-88,86,44,-292
2,955566,-1426,491,-571,-161,-230,-92,86,44,-292
2,955572,-1426,491,-571,-161,-230,-92,86,44,-292
2,955579,-1426,491,-571,-161,-230,-92,86,44,-292
2,955586,-1425,492,-574,-165,-224,-91,86,44,-292
2,955592,-1425,492,-574,-165,-224,-91,86,44,-292
2,955598,-1425,492,-574,-165,-224,-91,86,44,-292
2,955604,-1425,491,-573,-161,-221,-94,86,44,-292
2,955613,-1425,491,-573,-161,-221,-94,86,44,-292
2,955620,-1425,494,-578,-162,-218,-88,86,44,-292
2,955627,-1425,494,-578,-162,-218,-88,86,44,-292
2,955632,-1425,494,-578,-162,-218,-88,86,44,-292
2,955639,-1425,494,-577,-161,-223,-89,86,44,-292
2,955646,-1425,494,-577,-161,-223,-89,86,44,-292
2,955655,-1425,494,-577,-161,-223,-89,86,44,-292
2,955662,-1423,492,-572,-159,-221,-92,83,37,-295
2,955667,-1423,492,-572,-159,-221,-92,83,37,-295
2,955674,-1423,492,-572,-159,-221,-92,83,37,-295
2,955682,-1424,494,-571,-163,-221,-85,83,37,-295
2,955689,-1424,494,-571,-163,-221,-85,83,37,-295
2,955696,-1424,494,-571,-163,-221,-85,83,37,-295
2,955703,-1426,495,-572,-158,-219,-81,83,37,-295
2,955710,-1426,495,-572,-158,-219,-81,83,37,-295
2,955717,-1426,495,-572,-158,-219,-81,83,37,-295
2,955724,-1426,497,-574,-158,-226,-77,83,37,-295
2,955734,-1426,497,-574,-158,-226,-77,83,37,-295
2,955740,-1426,497,-574,-158,-226,-77,83,37,-295
2,955747,-1427,494,-580,-158,-221,-85,83,37,-295
2,955754,-1427,494,-580,-158,-221,-85,83,37,-295
2,955760,-1429,493,-578,-153,-220,-92,83,37,-295
2,955765,-1429,493,-578,-153,-220,-92,83,37,-295
2,955772,-1429,493,-578,-153,-220,-92,83,37,-295
2,955779,-1429,493,-578,-153,-220,-92,83,37,-295
2,955784,-1426,492,-575,-162,-212,-94,83,37,-295
2,955793,-1426,492,-575,-162,-212,-94,83,37,-295
2,955801,-1426,491,-567,-168,-220,-89,84,42,-294
2,955808,-1426,491,-567,-168,-220,-89,84,42,-294
2,955814,-1426,491,-567,-168,-220,-89,84,42,-294
2,955823,-1425,493,-579,-161,-221,-92,84,42,-294
2,955829,-1425,493,-579,-161,-221,-92,84,42,-294
2,955837,-1425,493,-579,-161,-221,-92,84,42,-294
2,955844,-1425,493,-574,-163,-223,-90,84,42,-294
2,955850,-1425,493,-574,-163,-223,-90,84,42,-294
2,955857,-1425,493,-574,-163,-223,-90,84,42,-294
2,955865,-1429,495,-574,-156,-227,-89,84,42,-294
2,955872,-1429,495,-574,-156,-227,-89,84,42,-294
2,955879,-1429,495,-574,-156,-227,-89,84,42,-294
2,955884,-1422,492,-579,-155,-221,-86,84,42,-294
2,955890,-1422,492,-579,-155,-221,-86,84,42,-294
2,955896,-1422,492,-579,-155,-221,-86,84,42,-294
2,955904,-1425,493,-580,-155,-219,-81,84,42,-294
2,955911,-1425,493,-580,-155,-219,-81,84,42,-294
2,955918,-1425,493,-580,-155,-219,-81,84,42,-294
2,955925,-1424,497,-572,-163,-231,-89,93,43,-289
2,955934,-1424,497,-572,-163,-231,-89,93,43,-289
2,955940,-1427,491,-572,-160,-224,-87,93,43,-289
2,955947,-1427,491,-572,-160,-224,-87,93,43,-289
2,955954,-1427,491,-572,-160,-224,-87,93,43,-289
2,955960,-1425,492,-574,-156,-220,-91,93,43,-289
2,955968,-1425,492,-574,-156,-220,-91,93,43,-289
2,955976,-1425,492,-574,-156,-220,-91,93,43,-289
2,955985,-1425,493,-569,-159,-220,-88,93,43,-289
2,955994,-1425,493,-569,-159,-220,-88,93,43,-289
2,956002,-1429,490,-575,-155,-219,-94,93,43,-289
2,956008,-1429,490,-575,-155,-219,-94,93,43,-289
2,956015,-1429,490,-575,-155,-219,-94,93,43,-289
2,956022,-1427,496,-577,-163,-225,-89,93,43,-289
2,956029,-1427,496,-577,-163,-225,-89,93,43,-289
2,956035,-1427,496,-577,-163,-225,-89,93,43,-289
2,956042,-1425,492,-565,-167,-221,-90,87,39,-289
2,956051,-1425,492,-565,-167,-221,-90,87,39,-289
2,956057,-1425,492,-565,-167,-221,-90,87,39,-289
2,956064,-1423,493,-570,-164,-225,-84,87,39,-289
2,956072,-1423,493,-570,-164,-225,-84,87,39,-289
2,956080,-1423,493,-570,-164,-225,-84,87,39,-289
2,956087,-1425,494,-575,-155,-233,-88,87,39,-289
2,956093,-1425,494,-575,-155,-233,-88,87,39,-289
2,956099,-1425,494,-575,-155,-233,-88,87,39,-289
2,956107,-1428,493,-574,-158,-225,-88,87,39,-289
2,956113,-1428,493,-574,-158,-225,-88,87,39,-289
2,956121,-1428,495,-577,-167,-224,-90,87,39,-289
2,956126,-1428,495,-577,-167,-224,-90,87,39,-289
2,956133,-1428,495,-577,-167,-224,-90,87,39,-289
2,956139,-1428,495,-577,-167,-224,-90,87,39,-289
2,956145,-1425,492,-579,-158,-222,-93,87,39,-289
2,956150,-1425,492,-579,-158,-222,-93,87,39,-289
2,956157,-1425,492,-579,-158,-222,-93,87,39,-289
2,956165,-1426,492,-570,-160,-228,-91,99,33,-291
2,956172,-1426,492,-570,-160,-228,-91,99,33,-291
2,956181,-1423,493,-577,-163,-226,-91,99,33,-291
2,956186,-1423,493,-577,-163,-226,-91,99,33,-291
2,956192,-1423,493,-577,-163,-226,-91,99,33,-291
2,956199,-1423,493,-577,-163,-226,-91,99,33,-291
2,956206,-1426,492,-572,-164,-222,-89,99,33,-291
2,956213,-1426,492,-572,-164,-222,-89,99,33,-291
2,956219,-1426,492,-572,-164,-222,-89,99,33,-291
2,956226,-1423,494,-575,-160,-220,-89,99,33,-291
2,956232,-1423,494,-575,-160,-220,-89,99,33,-291
2,956239,-1423,494,-575,-160,-220,-89,99,33,-291
2,956246,-1426,492,-574,-155,-228,-91,99,33,-291
2,956253,-1426,492,-574,-155,-228,-91,99,33,-291
2,956259,-1426,492,-574,-155,-228,-91,99,33,-291
2,956265,-1427,495,-576,-160,-223,-88,99,33,-291
2,956271,-1427,495,-576,-160,-223,-88,99,33,-291
2,956276,-1427,495,-576,-160,-223,-88,99,33,-291
2,956283,-1426,490,-575,-157,-228,-92,84,42,-294
2,956290,-1426,490,-575,-157,-228,-92,84,42,-294
2,956296,-1426,490,-575,-157,-228,-92,84,42,-294
2,956304,-1426,494,-572,-160,-218,-94,84,42,-294
2,956309,-1426,494,-572,-160,-218,-94,84,42,-294
2,956315,-1426,494,-572,-160,-218,-94,84,42,-294
2,956320,-1428,494,-564,-166,-225,-94,84,42,-294
2,956326,-1428,494,-564,-166,-225,-94,84,42,-294
2,956334,-1428,494,-564,-166,-225,-94,84,42,-294
2,956340,-1428,494,-564,-166,-225,-94,84,42,-294
2,956346,-1422,493,-576,-166,-221,-94,84,42,-294
2,956353,-1422,493,-576,-166,-221,-94,84,42,-294
2,956359,-1422,493,-576,-166,-221,-94,84,42,-294
2,956366,-1424,491,-572,-158,-223,-96,84,42,-294
2,956374,-1424,491,-572,-158,-223,-96,84,42,-294
2,956380,-1424,491,-572,-158,-223,-96,84,42,-294
2,956386,-1426,492,-576,-162,-225,-91,84,42,-294
2,956392,-1426,492,-576,-162,-225,-91,84,42,-294
2,956399,-1426,492,-576,-162,-225,-91,84,42,-294
2,956406,-1426,492,-576,-164,-231,-81,84,42,-294
2,956413,-1426,492,-576,-164,-231,-81,84,42,-294
2,956420,-1426,492,-576,-164,-231,-81,84,42,-294
2,956426,-1425,493,-571,-159,-229,-95,91,47,-293
2,956434,-1425,493,-571,-159,-229,-95,91,47,-293
2,956441,-1426,492,-578,-167,-230,-104,91,47,-293
2,956448,-1426,492,-578,-167,-230,-104,91,47,-293
2,956455,-1426,492,-578,-167,-230,-104,91,47,-293
2,956463,-1421,493,-576,-159,-232,-96,91,47,-293
2,956470,-1421,493,-576,-159,-232,-96,91,47,-293
2,956477,-1421,493,-576,-159,-232,-96,91,47,-293
2,956484,-1425,493,-573,-165,-225,-87,91,47,-293
2,956490,-1425,493,-573,-165,-225,-87,91,47,-293
2,956497,-1425,493,-573,-165,-225,-87,91,47,-293
2,956504,-1426,495,-576,-160,-233,-91,91,47,-293
2,956510,-1426,495,-576,-160,-233,-91,91,47,-293
2,956516,-1426,495,-576,-160,-233,-91,91,47,-293
2,956524,-1426,495,-575,-161,-228,-87,91,47,-293
2,956530,-1426,495,-575,-161,-228,-87,91,47,-293
2,956537,-1426,495,-575,-161,-228,-87,91,47,-293
2,956542,-1425,490,-575,-159,-230,-94,83,39,-293
2,956549,-1425,490,-575,-159,-230,-94,83,39,-293
2,956556,-1425,490,-575,-159,-230,-94,83,39,-293
2,956562,-1424,493,-577,-158,-226,-96,83,39,-293
2,956569,-1424,493,-577,-158,-226,-96,83,39,-293
2,956576,-1424,493,-577,-158,-226,-96,83,39,-293
2,956582,-1424,495,-569,-169,-232,-85,83,39,-293
2,956589,-1424,495,-569,-169,-232,-85,83,39,-293
2,956595,-1424,495,-569,-169,-232,-85,83,39,-293
2,956600,-1424,495,-569,-169,-232,-85,83,39,-293
2,956606,-1422,496,-579,-167,-233,-84,83,39,-293
2,956612,-1422,496,-579,-167,-233,-84,83,39,-293
2,956619,-1422,496,-579,-167,-233,-84,83,39,-293
2,956625,-1424,493,-578,-162,-223,-85,83,39,-293
2,956633,-1424,493,-578,-162,-223,-85,83,39,-293
2,956639,-1424,493,-578,-162,-223,-85,83,39,-293
2,956645,-1424,496,-581,-163,-222,-91,83,39,-293
2,956651,-1424,496,-581,-163,-222,-91,83,39,-293
2,956658,-1424,496,-581,-163,-222,-91,83,39,-293
2,956664,-1425,492,-573,-163,-228,-92,83,37,-293
2,956672,-1425,492,-573,-163,-228,-92,83,37,-293
2,956678,-1425,492,-573,-163,-228,-92,83,37,-293
2,956684,-1426,494,-571,-171,-226,-92,83,37,-293
2,956691,-1426,494,-571,-171,-226,-92,83,37,-293
2,956698,-1426,494,-571,-171,-226,-92,83,37,-293
2,956704,-1423,491,-575,-161,-230,-93,83,37,-293
2,956710,-1423,491,-575,-161,-230,-93,83,37,-293
2,956717,-1423,491,-575,-161,-230,-93,83,37,-293
2,956722,-1423,494,-578,-157,-236,-96,83,37,-293
2,956729,-1423,494,-578,-157,-236,-96,83,37,-293
2,956734,-1423,494,-578,-157,-236,-96,83,37,-293
2,956741,-1426,493,-574,-153,-226,-89,83,37,-293
2,956747,-1426,493,-574,-153,-226,-89,83,37,-293
2,956754,-1426,493,-574,-153,-226,-89,83,37,-293
2,956762,-1424,495,-576,-162,-228,-87,83,37,-293
2,956768,-1424,495,-576,-162,-228,-87,83,37,-293
2,956774,-1424,495,-576,-162,-228,-87,83,37,-293
2,956780,-1424,495,-576,-162,-228,-87,83,37,-293
2,956787,-1428,492,-570,-161,-233,-89,83,43,-291
2,956794,-1428,492,-570,-161,-233,-89,83,43,-291
2,956801,-1428,492,-570,-161,-233,-89,83,43,-291
2,956807,-1428,490,-571,-157,-223,-92,83,43,-291
2,956813,-1428,490,-571,-157,-223,-92,83,43,-291
2,956819,-1428,490,-571,-157,-223,-92,83,43,-291
2,956826,-1426,493,-574,-155,-223,-90,83,43,-291
2,956831,-1426,493,-574,-155,-223,-90,83,43,-291
2,956836,-1426,493,-574,-155,-223,-90,83,43,-291
2,956844,-1422,493,-573,-160,-222,-86,83,43,-291
2,956851,-1422,493,-573,-160,-222,-86,83,43,-291
2,956857,-1422,493,-573,-160,-222,-86,83,43,-291
2,956863,-1425,491,-572,-157,-219,-96,83,43,-291
2,956869,-1425,491,-572,-157,-219,-96,83,43,-291
2,956876,-1425,491,-572,-157,-219,-96,83,43,-291
2,956883,-1428,496,-574,-162,-225,-95,83,43,-291
2,956890,-1428,496,-574,-162,-225,-95,83,43,-291
2,956896,-1428,496,-574,-162,-225,-95,83,43,-291
2,956902,-1425,491,-575,-159,-224,-96,84,38,-302
2,956907,-1425,491,-575,-159,-224,-96,84,38,-302
2,956913,-1425,491,-575,-159,-224,-96,84,38,-302
2,956919,-1425,491,-575,-159,-224,-96,84,38,-302
2,956925,-1428,492,-562,-161,-232,-90,84,38,-302
2,956932,-1428,492,-562,-161,-232,-90,84,38,-302
2,956939,-1428,492,-562,-161,-232,-90,84,38,-302
2,956946,-1426,493,-578,-169,-232,-87,84,38,-302
2,956952,-1426,493,-578,-169,-232,-87,84,38,-302
2,956959,-1426,493,-578,-169,-232,-87,84,38,-302
2,956965,-1428,493,-580,-160,-230,-86,84,38,-302
2,956973,-1428,493,-580,-160,-230,-86,84,38,-302
2,956979,-1428,493,-580,-160,-230,-86,84,38,-302
2,956985,-1427,492,-580,-160,-224,-85,84,38,-302
2,956992,-1427,492,-580,-160,-224,-85,84,38,-302
2,956999,-1427,492,-580,-160,-224,-85,84,38,-302
2,957005,-1427,492,-578,-163,-225,-88,84,38,-302
2,957012,-1427,492,-578,-163,-225,-88,84,38,-302
2,957019,-1427,492,-578,-163,-225,-88,84,38,-302
2,957024,-1426,492,-577,-161,-226,-88,84,38,-302
2,957030,-1426,492,-577,-161,-226,-88,84,38,-302
2,957039,-1426,492,-577,-161,-226,-88,84,38,-302
2,957045,-1426,491,-574,-163,-229,-87,86,44,-292
2,957050,-1426,491,-574,-163,-229,-87,86,44,-292
2,957057,-1426,491,-574,-163,-229,-87,86,44,-292
2,957063,-1424,494,-577,-158,-226,-89,86,44,-292
2,957070,-1424,494,-577,-158,-226,-89,86,44,-292
2,957076,-1424,494,-577,-158,-226,-89,86,44,-292
2,957082,-1425,492,-571,-157,-230,-90,86,44,-292
2,957090,-1425,492,-571,-157,-230,-90,86,44,-292
2,957095,-1425,492,-571,-157,-230,-90,86,44,-292
2,957102,-1422,492,-570,-161,-224,-96,86,44,-292
2,957108,-1422,492,-570,-161,-224,-96,86,44,-292
2,957115,-1422,492,-570,-161,-224,-96,86,44,-292
2,957121,-1422,492,-570,-161,-224,-96,86,44,-292
2,957127,-1426,493,-577,-162,-223,-93,86,44,-292
2,957133,-1426,493,-577,-162,-223,-93,86,44,-292
2,957140,-1426,493,-577,-162,-223,-93,86,44,-292
2,957148,-1426,490,-576,-156,-223,-97,86,44,-292
2,957156,-1426,490,-576,-156,-223,-97,86,44,-292
2,957163,-1425,491,-574,-157,-229,-91,93,39,-291
2,957169,-1425,491,-574,-157,-229,-91,93,39,-291
2,957176,-1425,491,-574,-157,-229,-91,93,39,-291
2,957182,-1426,493,-575,-158,-227,-94,93,39,-291
2,957190,-1426,493,-575,-158,-227,-94,93,39,-291
2,957196,-1426,493,-575,-158,-227,-94,93,39,-291
2,957202,-1425,492,-570,-163,-222,-90,93,39,-291
2,957207,-1425,492,-570,-163,-222,-90,93,39,-291
2,957213,-1425,492,-570,-163,-222,-90,93,39,-291
2,957219,-1425,492,-570,-163,-222,-90,93,39,-291
2,957227,-1425,495,-575,-168,-227,-91,93,39,-291
2,957233,-1425,495,-575,-168,-227,-91,93,39,-291
2,957240,-1425,495,-575,-168,-227,-91,93,39,-291
2,957246,-1423,488,-576,-158,-229,-90,93,39,-291
2,957252,-1423,488,-576,-158,-229,-90,93,39,-291
2,957259,-1423,488,-576,-158,-229,-90,93,39,-291
2,957265,-1425,492,-579,-156,-227,-85,93,39,-291
2,957273,-1425,492,-579,-156,-227,-85,93,39,-291
2,957280,-1425,492,-579,-156,-227,-85,93,39,-291
2,957287,-1426,492,-569,-161,-231,-92,88,38,-294
2,957293,-1426,492,-569,-161,-231,-92,88,38,-294
2,957299,-1426,492,-569,-161,-231,-92,88,38,-294
2,957307,-1424,490,-569,-164,-229,-97,88,38,-294
2,957314,-1424,490,-569,-164,-229,-97,88,38,-294
2,957321,-1424,490,-569,-164,-229,-97,88,38,-294
2,957325,-1427,493,-576,-160,-227,-89,88,38,-294
2,957331,-1427,493,-576,-160,-227,-89,88,38,-294
2,957338,-1427,493,-576,-160,-227,-89,88,38,-294
2,957344,-1427,492,-571,-161,-227,-93,88,38,-294
2,957351,-1427,492,-571,-161,-227,-93,88,38,-294
2,957358,-1427,492,-571,-161,-227,-93,88,38,-294
2,957364,-1426,492,-576,-160,-216,-93,88,38,-294
2,957370,-1426,492,-576,-160,-216,-93,88,38,-294
2,957375,-1426,492,-576,-160,-216,-93,88,38,-294
2,957382,-1426,494,-577,-155,-226,-89,88,38,-294
2,957389,-1426,494,-577,-155,-226,-89,88,38,-294
2,957394,-1426,494,-577,-155,-226,-89,88,38,-294
2,957402,-1424,494,-577,-162,-225,-91,88,38,-294
2,957408,-1424,494,-577,-162,-225,-91,88,44,-292
2,957415,-1424,494,-577,-162,-225,-91,88,44,-292
2,957421,-1424,491,-574,-160,-231,-90,88,44,-292
2,957428,-1424,491,-574,-160,-231,-90,88,44,-292
2,957435,-1424,491,-574,-160,-231,-90,88,44,-292
2,957443,-1424,494,-574,-163,-230,-94,88,44,-292
2,957449,-1424,494,-574,-163,-230,-94,88,44,-292
2,957454,-1424,494,-574,-163,-230,-94,88,44,-292
2,957459,-1424,494,-574,-163,-230,-94,88,44,-292
2,957465,-1426,493,-576,-158,-229,-88,88,44,-292
2,957471,-1426,493,-576,-158,-229,-88,88,44,-292
2,957477,-1426,493,-576,-158,-229,-88,88,44,-292
2,957484,-1425,491,-574,-160,-230,-99,88,44,-292
2,957492,-1425,491,-574,-160,-230,-99,88,44,-292
2,957498,-1425,491,-574,-160,-230,-99,88,44,-292
2,957504,-1424,490,-573,-164,-226,-93,88,44,-292
2,957509,-1424,490,-573,-164,-226,-93,88,44,-292
2,957515,-1424,490,-573,-164,-226,-93,88,44,-292
2,957521,-1425,492,-577,-152,-227,-96,92,34,-292
2,957529,-1425,492,-577,-152,-227,-96,92,34,-294
2,957535,-1425,492,-577,-152,-227,-96,92,34,-294
2,957542,-1426,493,-570,-160,-222,-92,92,34,-294
2,957548,-1426,493,-570,-160,-222,-92,92,34,-294
2,957555,-1426,493,-570,-160,-222,-92,92,34,-294
2,957561,-1425,492,-570,-167,-222,-87,92,34,-294
2,957569,-1425,492,-570,-167,-222,-87,92,34,-294
2,957576,-1425,492,-570,-167,-222,-87,92,34,-294
2,957583,-1427,489,-573,-165,-230,-90,92,34,-294
2,957589,-1427,489,-573,-165,-230,-90,92,34,-294
2,957596,-1427,489,-573,-165,-230,-90,92,34,-294
2,957602,-1428,492,-577,-165,-233,-88,92,34,-294
2,957609,-1428,492,-577,-165,-233,-88,92,34,-294
2,957615,-1428,492,-577,-165,-233,-88,92,34,-294
2,957622,-1427,493,-571,-164,-223,-89,92,34,-294
2,957627,-1427,493,-571,-164,-223,-89,92,34,-294
2,957634,-1427,493,-571,-164,-223,-89,92,34,-294
2,957640,-1427,493,-571,-164,-223,-89,92,34,-294
2,957646,-1426,493,-574,-155,-224,-94,92,34,-294
2,957652,-1426,493,-574,-155,-224,-94,92,34,-294
2,957660,-1426,493,-574,-155,-224,-94,92,34,-294
2,957666,-1428,494,-573,-155,-224,-91,87,41,-289
2,957673,-1428,494,-573,-155,-224,-91,87,41,-289
2,957680,-1428,494,-573,-155,-224,-91,87,41,-289
2,957686,-1426,495,-570,-154,-227,-95,87,41,-289
2,957693,-1426,495,-570,-154,-227,-95,87,41,-289
2,957699,-1426,495,-570,-154,-227,-95,87,41,-289
2,957705,-1427,491,-577,-161,-223,-98,87,41,-289
2,957712,-1427,491,-577,-161,-223,-98,87,41,-289
2,957718,-1427,491,-577,-161,-223,-98,87,41,-289
2,957725,-1423,491,-577,-159,-224,-91,87,41,-289
2,957730,-1423,491,-577,-159,-224,-91,87,41,-289
2,957737,-1423,491,-577,-159,-224,-91,87,41,-289
2,957744,-1423,494,-578,-157,-231,-94,87,41,-289
2,957752,-1423,494,-578,-157,-231,-94,87,41,-289
2,957759,-1423,494,-578,-157,-231,-94,87,41,-289
2,957766,-1427,493,-579,-163,-228,-90,87,41,-289
2,957772,-1427,493,-579,-163,-228,-90,87,41,-289
2,957779,-1427,493,-579,-163,-228,-90,87,41,-289
2,957787,-1425,491,-566,-164,-227,-88,85,37,-291
2,957794,-1425,491,-566,-164,-227,-88,85,37,-291
2,957800,-1425,491,-566,-164,-227,-88,85,37,-291
2,957807,-1423,494,-570,-162,-224,-89,85,37,-291
2,957814,-1423,494,-570,-162,-224,-89,85,37,-291
2,957820,-1423,494,-570,-162,-224,-89,85,37,-291
2,957827,-1423,490,-576,-163,-234,-87,85,37,-291
2,957833,-1423,490,-576,-163,-234,-87,85,37,-291
2,957839,-1423,490,-576,-163,-234,-87,85,37,-291
2,957846,-1424,493,-569,-160,-232,-91,85,37,-291
2,957853,-1424,493,-569,-160,-232,-91,85,37,-291
2,957861,-1424,493,-569,-160,-232,-91,85,37,-291
2,957869,-1424,490,-575,-163,-233,-92,85,37,-291
2,957875,-1424,490,-575,-163,-233,-92,85,37,-291
2,957881,-1424,490,-575,-163,-233,-92,85,37,-291
2,957887,-1426,492,-579,-160,-231,-92,85,37,-291
2,957894,-1426,492,-579,-160,-231,-92,85,37,-291
2,957901,-1426,492,-579,-160,-231,-92,85,37,-291
2,957907,-1425,494,-572,-158,-226,-89,84,42,-292
2,957913,-1425,494,-572,-158,-226,-89,84,42,-292
2,957920,-1425,494,-572,-158,-226,-89,84,42,-292
2,957926,-1428,490,-573,-163,-230,-84,84,42,-292
2,957933,-1428,490,-573,-163,-230,-84,84,42,-292
2,957939,-1428,490,-573,-163,-230,-84,84,42,-292
2,957944,-1427,494,-574,-161,-221,-87,84,42,-292
2,957950,-1427,494,-574,-161,-221,-87,84,42,-292
2,957957,-1427,494,-574,-161,-221,-87,84,42,-292
2,957964,-1428,493,-576,-160,-226,-87,84,42,-292
2,957970,-1428,493,-576,-160,-226,-87,84,42,-292
2,957976,-1428,493,-576,-160,-226,-87,84,42,-292
2,957983,-1428,495,-576,-163,-225,-90,84,42,-292
2,957989,-1428,495,-576,-163,-225,-90,84,42,-292
2,957996,-1428,495,-576,-163,-225,-90,84,42,-292
2,958002,-1428,495,-576,-163,-225,-90,84,42,-292
2,958008,-1426,491,-573,-152,-226,-87,84,42,-292
2,958013,-1426,491,-573,-152,-226,-87,84,42,-292
2,958019,-1426,491,-573,-152,-226,-87,84,42,-292
2,958025,-1426,495,-573,-162,-230,-87,92,42,-296
2,958031,-1426,495,-573,-162,-230,-87,92,42,-296
2,958038,-1426,495,-573,-162,-230,-87,92,42,-296
2,958045,-1427,490,-573,-162,-222,-87,92,42,-296
2,958051,-1427,490,-573,-162,-222,-87,92,42,-296
2,958058,-1427,490,-573,-162,-222,-87,92,42,-296
2,958063,-1423,493,-571,-159,-228,-87,92,42,-296
2,958070,-1423,493,-571,-159,-228,-87,92,42,-296
2,958078,-1423,493,-571,-159,-228,-87,92,42,-296
2,958087,-1423,493,-579,-160,-222,-91,92,42,-296
2,958093,-1423,493,-579,-160,-222,-91,92,42,-296
2,958098,-1423,493,-579,-160,-222,-91,92,42,-296
2,958104,-1426,496,-576,-160,-222,-86,92,42,-296
2,958112,-1426,496,-576,-160,-222,-86,92,42,-296
2,958118,-1426,496,-576,-160,-222,-86,92,42,-296
2,958125,-1423,491,-576,-159,-231,-90,92,42,-296
2,958130,-1423,491,-576,-159,-231,-90,92,42,-296
2,958136,-1423,491,-576,-159,-231,-90,92,42,-296
2,958143,-1427,493,-567,-164,-230,-91,87,37,-293
2,958149,-1427,493,-567,-164,-230,-91,87,37,-293
2,958155,-1427,493,-567,-164,-230,-91,87,37,-293
2,958162,-1424,492,-575,-163,-222,-88,87,37,-293
2,958169,-1424,492,-575,-163,-222,-88,87,37,-293
2,958175,-1424,492,-575,-163,-222,-88,87,37,-293
2,958183,-1424,495,-572,-161,-223,-91,87,37,-293
2,958190,-1424,495,-572,-161,-223,-91,87,37,-293
2,958196,-1424,495,-572,-161,-223,-91,87,37,-293
2,958202,-1424,495,-572,-161,-223,-91,87,37,-293
2,958210,-1424,495,-572,-161,-223,-91,87,37,-293
2,958217,-1424,495,-572,-161,-223,-91,87,37,-293
2,958223,-1426,494,-577,-164,-232,-95,87,37,-293
2,958230,-1426,494,-577,-164,-232,-95,87,37,-293
2,958236,-1426,494,-577,-164,-232,-95,87,37,-293
2,958242,-1425,490,-574,-166,-228,-95,87,37,-293
2,958251,-1425,490,-574,-166,-228,-95,87,37,-293
2,958258,-1425,490,-574,-166,-228,-95,87,37,-293
2,958263,-1426,492,-575,-159,-224,-93,83,37,-291
2,958269,-1426,492,-575,-159,-224,-93,83,37,-291
2,958275,-1426,492,-575,-159,-224,-93,83,37,-291
2,958280,-1426,492,-575,-159,-224,-93,83,37,-291
2,958287,-1425,490,-575,-162,-227,-96,83,37,-291
2,958295,-1425,490,-575,-162,-227,-96,83,37,-291
2,958301,-1425,490,-575,-162,-227,-96,83,37,-291
2,958308,-1426,492,-573,-162,-227,-95,83,37,-291
2,958315,-1426,492,-573,-162,-227,-95,83,37,-291
2,958322,-1427,489,-576,-162,-220,-97,83,37,-291
2,958329,-1427,489,-576,-162,-220,-97,83,37,-291
2,958338,-1427,489,-576,-162,-220,-97,83,37,-291
2,958345,-1424,493,-577,-166,-224,-98,83,37,-291
2,958352,-1424,493,-577,-166,-224,-98,83,37,-291
2,958358,-1424,493,-577,-166,-224,-98,83,37,-291
2,958363,-1423,492,-573,-162,-226,-92,83,37,-291
2,958370,-1423,492,-573,-162,-226,-92,83,37,-291
2,958376,-1423,492,-573,-162,-226,-92,83,37,-291
2,958384,-1427,496,-574,-157,-221,-82,83,37,-291
2,958390,-1427,496,-574,-157,-221,-82,83,37,-291
2,958397,-1427,496,-574,-157,-221,-82,83,37,-291
2,958403,-1423,493,-572,-161,-220,-91,95,39,-293
2,958410,-1423,493,-572,-161,-220,-91,95,39,-293
2,958416,-1423,493,-572,-161,-220,-91,95,39,-293
2,958422,-1423,493,-572,-161,-220,-91,95,39,-293
2,958428,-1425,493,-570,-161,-226,-97,95,39,-293
2,958435,-1425,493,-570,-161,-226,-97,95,39,-293
2,958440,-1425,493,-570,-161,-226,-97,95,39,-293
2,958447,-1424,492,-573,-163,-228,-96,95,39,-293
2,958452,-1424,492,-573,-163,-228,-96,95,39,-293
2,958459,-1424,492,-573,-163,-228,-96,95,39,-293
2,958467,-1427,492,-574,-161,-228,-96,95,39,-293
2,958473,-1427,492,-574,-161,-228,-96,95,39,-293
2,958480,-1427,492,-574,-161,-228,-96,95,39,-293
2,958486,-1424,492,-579,-163,-222,-97,95,39,-293
2,958493,-1424,492,-579,-163,-222,-97,95,39,-293
2,958498,-1424,492,-579,-163,-222,-97,95,39,-293
2,958507,-1428,494,-575,-158,-227,-91,95,39,-293
2,958514,-1428,494,-575,-158,-227,-91,95,39,-293
2,958521,-1428,494,-575,-158,-227,-91,95,39,-293
2,958527,-1426,494,-574,-160,-229,-99,92,36,-296
2,958534,-1426,494,-574,-160,-229,-99,92,36,-296
2,958540,-1426,494,-574,-160,-229,-99,92,36,-296
2,958547,-1425,492,-572,-162,-222,-100,92,36,-296
2,958555,-1425,492,-572,-162,-222,-100,92,36,-296
2,958561,-1425,492,-572,-162,-222,-100,92,36,-296
2,958567,-1428,490,-577,-168,-229,-94,92,36,-296
2,958573,-1428,490,-577,-168,-229,-94,92,36,-296
2,958580,-1428,490,-577,-168,-229,-94,92,36,-296
2,958586,-1427,491,-574,-165,-227,-88,92,36,-296
2,958593,-1427,491,-574,-165,-227,-88,92,36,-296
2,958599,-1427,491,-574,-165,-227,-88,92,36,-296
2,958605,-1428,491,-577,-164,-221,-93,92,36,-296
2,958611,-1428,491,-577,-164,-221,-93,92,36,-296
2,958617,-1428,491,-577,-164,-221,-93,92,36,-296
2,958623,-1428,493,-574,-157,-219,-91,92,36,-296
2,958630,-1428,493,-574,-157,-219,-91,92,36,-296
2,958638,-1428,493,-574,-157,-219,-91,92,36,-296
2,958644,-1427,491,-576,-156,-217,-93,82,38,-290
2,958651,-1427,491,-576,-156,-217,-93,82,38,-290
2,958657,-1427,491,-576,-156,-217,-93,82,38,-290
2,958664,-1427,490,-574,-160,-226,-89,82,38,-290
2,958670,-1427,490,-574,-160,-226,-89,82,38,-290
2,958676,-1427,490,-574,-160,-226,-89,82,38,-290
2,958683,-1428,492,-575,-164,-221,-94,82,38,-290
2,958691,-1428,492,-575,-164,-221,-94,82,38,-290
2,958698,-1428,492,-575,-164,-221,-94,82,38,-290
2,958705,-1426,493,-576,-162,-235,-91,82,38,-290
2,958711,-1426,493,-576,-162,-235,-91,82,38,-290
2,958716,-1426,493,-576,-162,-235,-91,82,38,-290
2,958723,-1426,490,-574,-154,-231,-89,82,38,-290
2,958729,-1426,490,-574,-154,-231,-89,82,38,-290
2,958736,-1426,490,-574,-154,-231,-89,82,38,-290
2,958742,-1425,490,-574,-161,-228,-96,82,38,-290
2,958749,-1425,490,-574,-161,-228,-96,82,38,-290
2,958756,-1425,490,-574,-161,-228,-96,82,38,-290
2,958765,-1428,492,-575,-165,-225,-92,89,41,-299
2,958771,-1428,492,-575,-165,-225,-92,89,41,-299
2,958777,-1428,492,-575,-165,-225,-92,89,41,-299
2,958782,-1428,492,-575,-165,-225,-92,89,41,-299
2,958789,-1429,492,-572,-164,-228,-87,89,41,-299
2,958795,-1429,492,-572,-164,-228,-87,89,41,-299
2,958802,-1424,493,-575,-164,-222,-92,89,41,-299
2,958810,-1424,493,-575,-164,-222,-92,89,41,-299
2,958816,-1424,493,-575,-164,-222,-92,89,41,-299
2,958823,-1425,493,-574,-168,-220,-85,89,41,-299
2,958829,-1425,493,-574,-168,-220,-85,89,41,-299
2,958836,-1425,493,-574,-168,-220,-85,89,41,-299
2,958842,-1425,493,-574,-168,-220,-85,89,41,-299
2,958849,-1425,491,-574,-160,-227,-87,89,41,-299
2,958855,-1425,491,-574,-160,-227,-87,89,41,-299
2,958862,-1425,491,-574,-160,-227,-87,89,41,-299
2,958867,-1424,494,-573,-160,-230,-93,89,41,-299
2,958873,-1424,494,-573,-160,-230,-93,89,41,-299
2,958880,-1424,494,-573,-160,-230,-93,89,41,-299
2,958886,-1426,492,-574,-167,-228,-91,87,39,-299
2,958893,-1426,492,-574,-167,-228,-91,87,39,-299
2,958900,-1426,492,-574,-167,-228,-91,87,39,-299
2,958907,-1427,493,-571,-164,-227,-83,87,39,-299
2,958915,-1427,493,-571,-164,-227,-83,87,39,-299
2,958921,-1427,493,-571,-164,-227,-83,87,39,-299
2,958927,-1428,490,-573,-161,-234,-93,87,39,-299
2,958934,-1428,490,-573,-161,-234,-93,87,39,-299
2,958940,-1428,490,-573,-161,-234,-93,87,39,-299
2,958946,-1426,492,-575,-161,-223,-95,87,39,-299
2,958952,-1426,492,-575,-161,-223,-95,87,39,-299
2,958959,-1426,492,-575,-161,-223,-95,87,39,-299
2,958966,-1424,493,-576,-159,-223,-94,87,39,-299
2,958972,-1424,493,-576,-159,-223,-94,87,39,-299
2,958980,-1424,493,-576,-159,-223,-94,87,39,-299
2,958987,-1424,491,-578,-166,-216,-95,87,39,-299
2,958993,-1424,491,-578,-166,-216,-95,87,39,-299
2,959000,-1424,491,-578,-166,-216,-95,87,39,-299
2,959006,-1425,491,-574,-162,-223,-93,87,39,-299
2,959013,-1425,491,-574,-162,-223,-93,87,39,-299
2,959021,-1425,491,-574,-162,-223,-93,87,39,-299
2,959027,-1426,493,-577,-163,-224,-90,86,40,-290
2,959035,-1426,493,-577,-163,-224,-90,86,40,-290
2,959041,-1426,493,-577,-163,-224,-90,86,40,-290
2,959047,-1426,494,-574,-156,-232,-91,86,40,-290
2,959054,-1426,494,-574,-156,-232,-91,86,40,-290
2,959060,-1426,494,-574,-156,-232,-91,86,40,-290
2,959067,-1428,495,-574,-155,-229,-92,86,40,-290
2,959074,-1428,495,-574,-155,-229,-92,86,40,-290
2,959080,-1428,495,-574,-155,-229,-92,86,40,-290
2,959087,-1428,491,-576,-165,-230,-87,86,40,-290
2,959094,-1428,491,-576,-165,-230,-87,86,40,-290
2,959100,-1428,491,-576,-165,-230,-87,86,40,-290
2,959107,-1425,493,-574,-163,-224,-86,86,40,-290
2,959115,-1425,493,-574,-163,-224,-86,86,40,-290
2,959121,-1425,493,-574,-163,-224,-86,86,40,-290
2,959128,-1425,492,-576,-161,-219,-93,86,40,-290
2,959134,-1425,492,-576,-161,-219,-93,86,40,-290
2,959141,-1425,492,-576,-161,-219,-93,86,40,-290
2,959147,-1427,493,-568,-155,-221,-93,91,41,-287
2,959154,-1427,493,-568,-155,-221,-93,91,41,-287
2,959160,-1427,493,-568,-155,-221,-93,91,41,-287
2,959168,-1422,493,-571,-161,-227,-95,91,41,-287
2,959175,-1422,493,-571,-161,-227,-95,91,41,-287
2,959181,-1422,493,-571,-161,-227,-95,91,41,-287
2,959187,-1426,495,-574,-154,-226,-88,91,41,-287
2,959194,-1426,495,-574,-154,-226,-88,91,41,-287
2,959201,-1426,495,-574,-154,-226,-88,91,41,-287
2,959209,-1426,493,-579,-161,-224,-90,91,41,-287
2,959214,-1426,493,-579,-161,-224,-90,91,41,-287
2,959219,-1426,493,-579,-161,-224,-90,91,41,-287
2,959224,-1426,493,-578,-161,-229,-95,91,41,-287
2,959230,-1426,493,-578,-161,-229,-95,91,41,-287
2,959236,-1426,493,-578,-161,-229,-95,91,41,-287
2,959241,-1426,493,-578,-161,-229,-95,91,41,-287
2,959246,-1427,493,-576,-163,-235,-96,91,41,-287
2,959251,-1427,493,-576,-163,-235,-96,91,41,-287
2,959256,-1427,493,-576,-163,-235,-96,91,41,-287
2,959260,-1427,493,-576,-163,-235,-96,91,41,-287
2,959265,-1427,492,-571,-165,-228,-99,91,31,-291
2,959270,-1427,492,-571,-165,-228,-99,91,31,-291
2,959276,-1427,492,-571,-165,-228,-99,91,31,-291
2,959281,-1427,492,-571,-165,-228,-99,91,31,-291
2,959286,-1424,491,-575,-162,-224,-101,91,31,-291
2,959291,-1424,491,-575,-162,-224,-101,91,31,-291
2,959296,-1424,491,-575,-162,-224,-101,91,31,-291
2,959301,-1424,491,-575,-162,-224,-101,91,31,-291
2,959306,-1429,490,-577,-161,-223,-93,91,31,-291
2,959311,-1429,490,-577,-161,-223,-93,91,31,-291
2,959316,-1429,490,-577,-161,-223,-93,91,31,-291
2,959322,-1429,490,-577,-161,-223,-93,91,31,-291
2,959328,-1428,489,-575,-160,-231,-91,91,31,-291
2,959333,-1428,489,-575,-160,-231,-91,91,31,-291
2,959337,-1428,489,-575,-160,-231,-91,91,31,-291
2,959343,-1424,492,-573,-164,-228,-86,91,31,-291
2,959348,-1424,492,-573,-164,-228,-86,91,31,-291
2,959353,-1424,492,-573,-164,-228,-86,91,31,-291
2,959358,-1424,492,-573,-164,-228,-86,91,31,-291
2,959365,-1424,492,-573,-164,-228,-86,91,31,-291
2,959371,-1424,492,-573,-164,-228,-86,91,31,-291
2,959376,-1424,492,-573,-164,-228,-86,91,31,-291
2,959381,-1424,492,-573,-164,-228,-86,91,31,-291
2,959386,-1425,493,-571,-156,-227,-96,89,39,-291
2,959391,-1425,493,-571,-156,-227,-96,89,39,-291
2,959396,-1425,493,-571,-156,-227,-96,89,39,-291
2,959401,-1425,493,-571,-156,-227,-96,89,39,-291
2,959407,-1426,495,-574,-167,-233,-91,89,39,-291
2,959412,-1426,495,-574,-167,-233,-91,89,39,-291
2,959418,-1426,495,-574,-167,-233,-91,89,39,-291
2,959422,-1426,495,-574,-167,-233,-91,89,39,-291
2,959427,-1425,492,-572,-160,-228,-86,89,39,-291
2,959433,-1425,492,-572,-160,-228,-86,89,39,-291
2,959438,-1425,492,-572,-160,-228,-86,89,39,-291
2,959443,-1427,493,-570,-165,-228,-90,89,39,-291
2,959449,-1427,493,-570,-165,-228,-90,89,39,-291
2,959454,-1427,493,-570,-165,-228,-90,89,39,-291
2,959459,-1427,493,-570,-165,-228,-90,89,39,-291
2,959464,-1424,494,-571,-162,-231,-87,89,39,-291
2,959469,-1424,494,-571,-162,-231,-87,89,39,-291
2,959474,-1424,494,-571,-162,-231,-87,89,39,-291
2,959479,-1424,494,-571,-162,-231,-87,89,39,-291
2,959484,-1425,493,-572,-159,-229,-88,89,39,-291
2,959490,-1425,493,-572,-159,-229,-88,89,39,-291
2,959495,-1425,493,-572,-159,-229,-88,89,39,-291
2,959500,-1425,493,-572,-159,-229,-88,89,39,-291
2,959506,-1426,492,-566,-158,-227,-87,85,37,-291
2,959510,-1426,492,-566,-158,-227,-87,85,37,-291
2,959515,-1426,492,-566,-158,-227,-87,85,37,-291
2,959520,-1426,492,-566,-158,-227,-87,85,37,-291
2,959525,-1426,492,-570,-155,-225,-88,85,37,-291
2,959531,-1426,492,-570,-155,-225,-88,85,37,-291
2,959536,-1426,492,-570,-155,-225,-88,85,37,-291
2,959541,-1426,492,-570,-155,-225,-88,85,37,-291
2,959546,-1427,498,-572,-164,-229,-90,85,37,-291
2,959551,-1427,498,-572,-164,-229,-90,85,37,-291
2,959556,-1427,498,-572,-164,-229,-90,85,37,-291
2,959560,-1427,498,-572,-164,-229,-90,85,37,-291
2,959565,-1428,498,-571,-162,-228,-95,85,37,-291
2,959570,-1428,498,-571,-162,-228,-95,85,37,-291
2,959576,-1428,498,-571,-162,-228,-95,85,37,-291
2,959581,-1428,498,-571,-162,-228,-95,85,37,-291
2,959586,-1426,495,-576,-161,-226,-88,85,37,-291
2,959591,-1426,495,-576,-161,-226,-88,85,37,-291
2,959596,-1426,495,-576,-161,-226,-88,85,37,-291
2,959601,-1426,495,-576,-161,-226,-88,85,37,-291
2,959606,-1425,491,-580,-164,-221,-91,85,37,-291
2,959611,-1425,491,-580,-164,-221,-91,85,37,-291
2,959618,-1425,491,-580,-164,-221,-91,85,37,-291
2,959622,-1425,491,-580,-164,-221,-91,85,37,-291
2,959627,-1423,492,-573,-159,-223,-88,85,37,-291
2,959632,-1423,492,-573,-159,-223,-88,85,37,-291
2,959637,-1423,492,-573,-159,-223,-88,85,37,-291
2,959642,-1423,492,-573,-159,-223,-88,85,37,-291
2,959647,-1423,495,-571,-155,-224,-91,97,45,-295
2,959652,-1423,495,-571,-155,-224,-91,97,45,-295
2,959657,-1423,495,-571,-155,-224,-91,97,45,-295
2,959664,-1423,495,-571,-155,-224,-91,97,45,-295
2,959669,-1426,491,-578,-162,-226,-82,97,45,-295
2,959674,-1426,491,-578,-162,-226,-82,97,45,-295
2,959679,-1426,491,-578,-162,-226,-82,97,45,-295
2,959684,-1426,491,-578,-165,-228,-89,97,45,-295
2,959689,-1426,491,-578,-165,-228,-89,97,45,-295
2,959693,-1426,491,-578,-165,-228,-89,97,45,-295
2,959698,-1426,491,-578,-165,-228,-89,97,45,-295
2,959704,-1426,494,-576,-166,-231,-84,97,45,-295
2,959709,-1426,494,-576,-166,-231,-84,97,45,-295
2,959714,-1426,494,-576,-166,-231,-84,97,45,-295
2,959719,-1426,494,-576,-166,-231,-84,97,45,-295
2,959724,-1423,492,-576,-164,-230,-85,97,45,-295
2,959729,-1423,492,-576,-164,-230,-85,97,45,-295
2,959734,-1423,492,-576,-164,-230,-85,97,45,-295
2,959740,-1423,492,-576,-164,-230,-85,97,45,-295
2,959746,-1425,493,-577,-163,-223,-94,97,45,-295
2,959752,-1425,493,-577,-163,-223,-94,97,45,-295
2,959758,-1425,493,-577,-163,-223,-94,97,45,-295
2,959764,-1430,495,-573,-166,-233,-90,99,39,-295
2,959770,-1430,495,-573,-166,-233,-90,99,39,-295
2,959775,-1430,495,-573,-166,-233,-90,99,39,-295
2,959782,-1430,495,-573,-166,-233,-90,99,39,-295
2,959789,-1422,498,-574,-171,-225,-91,99,39,-295
2,959795,-1422,498,-574,-171,-225,-91,99,39,-295
2,959802,-1422,498,-574,-171,-225,-91,99,39,-295
2,959808,-1426,498,-575,-163,-225,-88,99,39,-295
2,959814,-1426,498,-575,-163,-225,-88,99,39,-295
2,959821,-1426,498,-575,-163,-225,-88,99,39,-295
2,959827,-1427,492,-574,-156,-221,-91,99,39,-295
2,959834,-1427,492,-574,-156,-221,-91,99,39,-295
2,959839,-1427,492,-574,-156,-221,-91,99,39,-295
2,959846,-1424,496,-573,-157,-228,-95,99,39,-295
2,959852,-1424,496,-573,-157,-228,-95,99,39,-295
2,959858,-1424,496,-573,-157,-228,-95,99,39,-295
2,959864,-1423,494,-573,-158,-224,-91,99,39,-295
2,959872,-1423,494,-573,-158,-224,-91,99,39,-295
2,959878,-1423,494,-573,-158,-224,-91,99,39,-295
2,959884,-1424,492,-572,-161,-217,-84,91,35,-293
2,959889,-1424,492,-572,-161,-217,-84,91,35,-293
2,959896,-1424,492,-572,-161,-217,-84,91,35,-293
2,959902,-1424,492,-572,-161,-217,-84,91,35,-293
2,959907,-1425,492,-573,-164,-221,-91,91,35,-293
2,959913,-1425,492,-573,-164,-221,-91,91,35,-293
2,959921,-1425,492,-573,-164,-221,-91,91,35,-293
2,959927,-1427,495,-571,-164,-227,-97,91,35,-293
2,959934,-1427,495,-571,-164,-227,-97,91,35,-293
2,959939,-1427,495,-571,-164,-227,-97,91,35,-293
2,959946,-1424,491,-577,-166,-233,-95,91,35,-293
2,959952,-1424,491,-577,-166,-233,-95,91,35,-293
2,959960,-1424,491,-577,-166,-233,-95,91,35,-293
2,959966,-1424,491,-574,-163,-223,-96,91,35,-293
2,959972,-1424,491,-574,-163,-223,-96,91,35,-293
2,959978,-1424,491,-574,-163,-223,-96,91,35,-293
2,959986,-1423,492,-574,-164,-231,-83,91,35,-293
2,959992,-1423,492,-574,-164,-231,-83,91,35,-293
2,959998,-1423,492,-574,-164,-231,-83,91,35,-293
2,960006,-1425,493,-573,-160,-230,-86,88,48,-288
2,960012,-1425,493,-573,-160,-230,-86,88,48,-288
2,960018,-1425,493,-573,-160,-230,-86,88,48,-288
2,960023,-1425,493,-573,-160,-230,-86,88,48,-288
2,960029,-1425,494,-575,-157,-220,-88,88,48,-288
2,960035,-1425,494,-575,-157,-220,-88,88,48,-288
2,960043,-1425,494,-575,-157,-220,-88,88,48,-288
2,960049,-1425,492,-573,-158,-220,-91,88,48,-288
2,960056,-1425,492,-573,-158,-220,-91,88,48,-288
2,960062,-1425,492,-573,-158,-220,-91,88,48,-288
2,960068,-1425,493,-571,-163,-228,-94,88,48,-288
2,960073,-1425,493,-571,-163,-228,-94,88,48,-288
2,960080,-1425,493,-571,-163,-228,-94,88,48,-288
2,960087,-1427,491,-575,-167,-223,-95,88,48,-288
2,960093,-1427,491,-575,-167,-223,-95,88,48,-288
2,960099,-1427,491,-575,-167,-223,-95,88,48,-288
2,960106,-1427,492,-575,-170,-230,-96,88,48,-288
2,960112,-1427,492,-575,-170,-230,-96,88,48,-288
2,960118,-1427,492,-575,-170,-230,-96,88,48,-288
2,960123,-1424,492,-574,-164,-226,-98,88,48,-288
2,960130,-1424,492,-574,-164,-226,-98,86,34,-290
2,960136,-1424,492,-574,-164,-226,-98,86,34,-290
2,960143,-1424,492,-574,-164,-226,-98,86,34,-290
2,960149,-1426,494,-574,-161,-228,-96,86,34,-290
2,960156,-1426,494,-574,-161,-228,-96,86,34,-290
2,960163,-1426,494,-574,-161,-228,-96,86,34,-290
2,960168,-1425,494,-575,-165,-229,-88,86,34,-290
2,960174,-1425,494,-575,-165,-229,-88,86,34,-290
2,960180,-1425,494,-575,-165,-229,-88,86,34,-290
2,960186,-1427,494,-574,-166,-230,-85,86,34,-290
2,960192,-1427,494,-574,-166,-230,-85,86,34,-290
2,960198,-1427,494,-574,-166,-230,-85,86,34,-290
2,960205,-1423,494,-578,-165,-229,-92,86,34,-290
2,960212,-1423,494,-578,-165,-229,-92,86,34,-290
2,960218,-1423,494,-578,-165,-229,-92,86,34,-290
2,960224,-1428,493,-578,-162,-226,-90,86,34,-290
2,960230,-1428,493,-578,-162,-226,-90,86,34,-290
2,960237,-1428,493,-578,-162,-226,-90,86,34,-290
2,960243,-1428,493,-578,-162,-226,-90,86,34,-290
2,960249,-1425,492,-576,-159,-225,-87,86,34,-290
2,960257,-1425,492,-576,-159,-225,-87,86,34,-290
2,960263,-1425,492,-576,-159,-225,-87,86,34,-290
2,960268,-1427,494,-567,-160,-230,-91,88,46,-294
2,960275,-1427,494,-567,-160,-230,-91,88,46,-294
2,960281,-1427,494,-567,-160,-230,-91,88,46,-294
2,960287,-1426,490,-572,-164,-231,-90,88,46,-294
2,960293,-1426,490,-572,-164,-231,-90,88,46,-294
2,960301,-1426,490,-572,-164,-231,-90,88,46,-294
2,960308,-1425,492,-574,-166,-234,-94,88,46,-294
2,960314,-1425,492,-574,-166,-234,-94,88,46,-294
2,960321,-1425,492,-574,-166,-234,-94,88,46,-294
2,960327,-1427,492,-574,-163,-224,-91,88,46,-294
2,960333,-1427,492,-574,-163,-224,-91,88,46,-294
2,960340,-1427,492,-574,-163,-224,-91,88,46,-294
2,960347,-1429,494,-576,-158,-221,-82,88,46,-294
2,960353,-1429,494,-576,-158,-221,-82,88,46,-294
2,960359,-1429,494,-576,-158,-221,-82,88,46,-294
2,960365,-1425,491,-578,-160,-225,-88,88,46,-294
2,960371,-1425,491,-578,-160,-225,-88,88,46,-294
2,960377,-1425,491,-578,-160,-225,-88,88,46,-294
2,960385,-1428,494,-572,-169,-226,-89,94,40,-294
2,960392,-1428,494,-572,-169,-226,-89,94,40,-294
2,960399,-1428,494,-572,-169,-226,-89,94,40,-294
2,960405,-1427,495,-578,-168,-221,-96,94,40,-294
2,960412,-1427,495,-578,-168,-221,-96,94,40,-294
2,960418,-1427,495,-578,-168,-221,-96,94,40,-294
2,960425,-1423,492,-573,-159,-224,-94,94,40,-294
2,960433,-1423,492,-573,-159,-224,-94,94,40,-294
2,960439,-1423,492,-573,-159,-224,-94,94,40,-294
2,960447,-1426,493,-571,-162,-227,-96,94,40,-294
2,960455,-1426,493,-571,-162,-227,-96,94,40,-294
2,960462,-1426,493,-571,-162,-227,-96,94,40,-294
2,960471,-1424,493,-576,-162,-219,-89,94,40,-294
2,960476,-1424,493,-576,-162,-219,-89,94,40,-294
2,960483,-1424,493,-576,-162,-219,-89,94,40,-294
2,960489,-1425,495,-579,-162,-225,-89,94,40,-294
2,960495,-1425,495,-579,-162,-225,-89,94,40,-294
2,960500,-1425,495,-579,-162,-225,-89,94,40,-294
2,960506,-1424,494,-571,-158,-223,-92,97,41,-297
2,960513,-1424,494,-571,-158,-223,-92,97,41,-297
2,960519,-1424,494,-571,-158,-223,-92,97,41,-297
2,960525,-1424,492,-570,-157,-224,-87,97,41,-297
2,960531,-1424,492,-570,-157,-224,-87,97,41,-297
2,960537,-1424,492,-570,-157,-224,-87,97,41,-297
2,960543,-1424,492,-570,-157,-224,-87,97,41,-297
2,960549,-1426,493,-575,-163,-232,-91,97,41,-297
2,960556,-1426,493,-575,-163,-232,-91,97,41,-297
2,960562,-1426,493,-575,-163,-232,-91,97,41,-297
2,960568,-1426,493,-574,-159,-222,-93,97,41,-297
2,960575,-1426,493,-574,-159,-222,-93,97,41,-297
2,960581,-1426,493,-574,-159,-222,-93,97,41,-297
2,960587,-1430,493,-574,-162,-224,-89,97,41,-297
2,960594,-1430,493,-574,-162,-224,-89,97,41,-297
2,960602,-1430,493,-574,-162,-224,-89,97,41,-297
2,960608,-1429,491,-575,-163,-225,-86,97,41,-297
2,960615,-1429,491,-575,-163,-225,-86,97,41,-297
2,960621,-1429,491,-575,-163,-225,-86,97,41,-297
2,960626,-1425,495,-574,-163,-224,-93,88,46,-292
2,960632,-1425,495,-574,-163,-224,-93,88,46,-292
2,960638,-1425,495,-574,-163,-224,-93,88,46,-292
2,960646,-1425,495,-570,-157,-221,-97,88,46,-292
2,960651,-1425,495,-570,-157,-221,-97,88,46,-292
2,960658,-1425,495,-570,-157,-221,-97,88,46,-292
2,960664,-1426,492,-571,-158,-220,-92,88,46,-292
2,960671,-1426,492,-571,-158,-220,-92,88,46,-292
2,960676,-1426,492,-571,-158,-220,-92,88,46,-292
2,960684,-1426,492,-571,-158,-220,-92,88,46,-292
2,960690,-1426,492,-576,-162,-222,-90,88,46,-292
2,960696,-1426,492,-576,-162,-222,-90,88,46,-292
2,960702,-1426,492,-576,-162,-222,-90,88,46,-292
2,960709,-1425,492,-575,-160,-229,-91,88,46,-292
2,960715,-1425,492,-575,-160,-229,-91,88,46,-292
2,960721,-1425,492,-575,-160,-229,-91,88,46,-292
2,960729,-1424,491,-581,-161,-221,-86,88,46,-292
2,960737,-1424,491,-581,-161,-221,-86,88,46,-292
2,960743,-1424,491,-581,-161,-221,-86,88,46,-292
2,960750,-1427,498,-577,-161,-221,-85,87,33,-289
2,960756,-1427,498,-577,-161,-221,-85,87,33,-289
2,960763,-1427,498,-577,-161,-221,-85,87,33,-289
2,960770,-1428,492,-572,-161,-221,-100,87,33,-289
2,960777,-1428,492,-572,-161,-221,-100,87,33,-289
2,960783,-1428,492,-572,-161,-221,-100,87,33,-289
2,960789,-1425,496,-580,-158,-228,-94,87,33,-289
2,960796,-1425,496,-580,-158,-228,-94,87,33,-289
2,960802,-1425,496,-580,-158,-228,-94,87,33,-289
2,960811,-1425,493,-576,-157,-232,-90,87,33,-289
2,960817,-1425,493,-576,-157,-232,-90,87,33,-289
2,960823,-1425,493,-576,-157,-232,-90,87,33,-289
2,960830,-1428,493,-572,-155,-225,-88,87,33,-289
2,960836,-1428,493,-572,-155,-225,-88,87,33,-289
2,960842,-1428,493,-572,-155,-225,-88,87,33,-289
2,960849,-1426,493,-572,-160,-225,-94,87,33,-289
2,960857,-1426,493,-572,-160,-225,-94,87,33,-289
2,960863,-1426,493,-572,-160,-225,-94,87,33,-289
2,960870,-1425,493,-571,-166,-220,-93,87,33,-289
2,960876,-1425,493,-571,-166,-220,-93,87,33,-289
2,960882,-1425,493,-571,-166,-220,-93,87,33,-289
2,960888,-1427,489,-568,-161,-224,-90,90,34,-290
2,960893,-1427,489,-568,-161,-224,-90,90,34,-290
2,960900,-1427,489,-568,-161,-224,-90,90,34,-290
2,960908,-1428,494,-570,-158,-220,-95,90,34,-290
2,960915,-1428,494,-570,-158,-220,-95,90,34,-290
2,960921,-1428,494,-570,-158,-220,-95,90,34,-290
2,960927,-1426,493,-574,-163,-226,-90,90,34,-290
2,960933,-1426,493,-574,-163,-226,-90,90,34,-290
2,960940,-1426,493,-574,-163,-226,-90,90,34,-290
2,960946,-1426,494,-573,-160,-229,-89,90,34,-290
2,960953,-1426,494,-573,-160,-229,-89,90,34,-290
2,960959,-1426,494,-573,-160,-229,-89,90,34,-290
2,960966,-1424,491,-575,-169,-228,-93,90,34,-290
2,960972,-1424,491,-575,-169,-228,-93,90,34,-290
2,960978,-1424,491,-575,-169,-228,-93,90,34,-290
2,960985,-1424,491,-575,-169,-228,-93,90,34,-290
2,960990,-1423,495,-573,-163,-222,-90,90,34,-290
2,960996,-1423,495,-573,-163,-222,-90,90,34,-290
2,961002,-1423,495,-573,-163,-222,-90,90,34,-290
2,961008,-1425,493,-573,-166,-219,-84,90,34,-292
2,961015,-1425,493,-573,-166,-219,-84,90,34,-292
2,961020,-1425,493,-573,-166,-219,-84,90,34,-292
2,961028,-1425,491,-572,-159,-223,-92,90,34,-292
2,961035,-1425,491,-572,-159,-223,-92,90,34,-292
2,961041,-1425,491,-572,-159,-223,-92,90,34,-292
2,961048,-1426,495,-577,-158,-223,-90,90,34,-292
2,961054,-1426,495,-577,-158,-223,-90,90,34,-292
2,961061,-1426,495,-577,-158,-223,-90,90,34,-292
2,961069,-1425,494,-578,-161,-223,-89,90,34,-292
2,961075,-1425,494,-578,-161,-223,-89,90,34,-292
2,961081,-1425,494,-578,-161,-223,-89,90,34,-292
2,961087,-1429,494,-574,-160,-224,-95,90,34,-292
2,961094,-1429,494,-574,-160,-224,-95,90,34,-292
2,961100,-1429,494,-574,-160,-224,-95,90,34,-292
2,961106,-1424,493,-575,-162,-230,-88,90,34,-292
2,961113,-1424,493,-575,-162,-230,-88,90,34,-292
2,961119,-1424,493,-575,-162,-230,-88,90,34,-292
2,961126,-1425,493,-575,-172,-225,-88,87,39,-287
2,961132,-1425,493,-575,-172,-225,-88,87,39,-287
2,961138,-1425,493,-575,-172,-225,-88,87,39,-287
2,961145,-1424,496,-572,-167,-231,-94,87,39,-287
2,961152,-1424,496,-572,-167,-231,-94,87,39,-287
2,961157,-1424,496,-572,-167,-231,-94,87,39,-287
2,961163,-1424,496,-572,-167,-231,-94,87,39,-287
2,961169,-1426,491,-574,-169,-230,-90,87,39,-287
2,961176,-1426,491,-574,-169,-230,-90,87,39,-287
2,961182,-1426,491,-574,-169,-230,-90,87,39,-287
2,961187,-1430,494,-579,-164,-228,-87,87,39,-287
2,961196,-1430,494,-579,-164,-228,-87,87,39,-287
2,961201,-1430,494,-579,-164,-228,-87,87,39,-287
2,961207,-1427,495,-577,-167,-226,-91,87,39,-287
2,961213,-1427,495,-577,-167,-226,-91,87,39,-287
2,961219,-1427,495,-577,-167,-226,-91,87,39,-287
2,961224,-1427,495,-577,-167,-226,-91,87,39,-287
2,961230,-1428,495,-578,-163,-219,-87,87,39,-287
2,961236,-1428,495,-578,-163,-219,-87,87,39,-287
2,961243,-1428,495,-578,-163,-219,-87,87,39,-287
2,961250,-1428,491,-570,-165,-224,-90,87,41,-285
2,961255,-1428,491,-570,-165,-224,-90,87,41,-285
2,961263,-1428,491,-570,-165,-224,-90,87,41,-285
2,961269,-1430,491,-573,-166,-224,-89,87,41,-285
2,961275,-1430,491,-573,-166,-224,-89,87,41,-285
2,961283,-1430,491,-573,-166,-224,-89,87,41,-285
2,961289,-1428,492,-572,-162,-226,-89,87,41,-285
2,961295,-1428,492,-572,-162,-226,-89,87,41,-285
2,961301,-1428,492,-572,-162,-226,-89,87,41,-285
2,961307,-1424,494,-575,-159,-224,-88,87,41,-285
2,961313,-1424,494,-575,-159,-224,-88,87,41,-285
2,961320,-1424,494,-575,-159,-224,-88,87,41,-285
2,961328,-1426,491,-576,-159,-219,-88,87,41,-285
2,961335,-1426,491,-576,-159,-219,-88,87,41,-285
2,961341,-1426,491,-576,-159,-219,-88,87,41,-285
2,961347,-1427,491,-577,-159,-222,-93,87,41,-285
2,961353,-1427,491,-577,-159,-222,-93,87,41,-285
2,961359,-1427,491,-577,-159,-222,-93,87,41,-285
2,961366,-1427,493,-576,-161,-220,-90,98,40,-300
2,961372,-1427,493,-576,-161,-220,-90,98,40,-300
2,961379,-1427,493,-576,-161,-220,-90,98,40,-300
2,961385,-1427,493,-576,-161,-220,-90,98,40,-300
2,961391,-1424,491,-572,-159,-227,-88,98,40,-300
2,961396,-1424,491,-572,-159,-227,-88,98,40,-300
2,961401,-1424,491,-572,-159,-227,-88,98,40,-300
2,961408,-1428,492,-570,-161,-224,-82,98,40,-300
2,961414,-1428,492,-570,-161,-224,-82,98,40,-300
2,961422,-1428,492,-570,-161,-224,-82,98,40,-300
2,961429,-1425,494,-571,-166,-223,-92,98,40,-300
2,961435,-1425,494,-571,-166,-223,-92,98,40,-300
2,961441,-1425,494,-571,-166,-223,-92,98,40,-300
2,961448,-1427,491,-576,-159,-221,-91,98,40,-300
2,961455,-1427,491,-576,-159,-221,-91,98,40,-300
2,961463,-1427,491,-576,-159,-221,-91,98,40,-300
2,961469,-1426,493,-579,-160,-231,-88,98,40,-300
2,961476,-1426,493,-579,-160,-231,-88,98,40,-300
2,961481,-1426,493,-579,-160,-231,-88,98,40,-300
2,961487,-1428,491,-572,-160,-226,-92,98,40,-300
2,961494,-1428,491,-572,-160,-226,-92,98,40,-300
2,961502,-1428,491,-572,-160,-226,-92,98,40,-300
2,961508,-1428,493,-572,-166,-227,-92,83,37,-297
2,961513,-1428,493,-572,-166,-227,-92,83,37,-297
2,961520,-1428,493,-572,-166,-227,-92,83,37,-297
2,961526,-1428,493,-572,-166,-227,-92,83,37,-297
2,961531,-1428,493,-572,-166,-227,-92,83,37,-297
2,961538,-1428,493,-572,-166,-227,-92,83,37,-297
2,961544,-1428,493,-572,-166,-227,-92,83,37,-297
2,961550,-1426,494,-576,-163,-228,-99,83,37,-297
2,961557,-1426,494,-576,-163,-228,-99,83,37,-297
2,961564,-1426,494,-576,-163,-228,-99,83,37,-297
2,961571,-1426,495,-578,-161,-223,-92,83,37,-297
2,961577,-1426,495,-578,-161,-223,-92,83,37,-297
2,961585,-1426,495,-578,-161,-223,-92,83,37,-297
2,961592,-1427,491,-575,-162,-218,-88,83,37,-297
2,961598,-1427,491,-575,-162,-218,-88,83,37,-297
2,961604,-1427,491,-575,-162,-218,-88,83,37,-297
2,961611,-1427,492,-576,-161,-223,-94,83,37,-297
2,961617,-1427,492,-576,-161,-223,-94,83,37,-297
2,961624,-1427,492,-576,-161,-223,-94,83,37,-297
2,961631,-1426,496,-575,-160,-214,-95,87,37,-285
2,961637,-1426,496,-575,-160,-214,-95,87,37,-285
2,961643,-1426,496,-575,-160,-214,-95,87,37,-285
2,961648,-1422,494,-575,-160,-227,-96,87,37,-285
2,961654,-1422,494,-575,-160,-227,-96,87,37,-285
2,961661,-1422,494,-575,-160,-227,-96,87,37,-285
2,961669,-1426,493,-575,-156,-214,-90,87,37,-285
2,961675,-1426,493,-575,-156,-214,-90,87,37,-285
2,961682,-1426,493,-575,-156,-214,-90,87,37,-285
2,961689,-1429,495,-575,-163,-217,-88,87,37,-285
2,961696,-1429,495,-575,-163,-217,-88,87,37,-285
2,961702,-1429,495,-575,-163,-217,-88,87,37,-285
2,961708,-1426,495,-577,-167,-221,-88,87,37,-285
2,961715,-1426,495,-577,-167,-221,-88,87,37,-285
2,961722,-1426,495,-577,-167,-221,-88,87,37,-285
2,961728,-1426,496,-572,-164,-228,-89,87,37,-285
2,961734,-1426,496,-572,-164,-228,-89,87,37,-285
2,961741,-1426,496,-572,-164,-228,-89,87,37,-285
2,961748,-1428,493,-570,-157,-223,-86,92,36,-296
2,961756,-1428,493,-570,-157,-223,-86,92,36,-296
2,961762,-1428,493,-570,-157,-223,-86,92,36,-296
2,961768,-1426,493,-575,-158,-224,-88,92,36,-296
2,961774,-1426,493,-575,-158,-224,-88,92,36,-296
2,961780,-1426,493,-575,-158,-224,-88,92,36,-296
2,961787,-1425,495,-581,-170,-219,-88,92,36,-296
2,961794,-1425,495,-581,-170,-219,-88,92,36,-296
2,961800,-1425,495,-581,-170,-219,-88,92,36,-296
2,961806,-1424,495,-572,-162,-219,-94,92,36,-296
2,961813,-1424,495,-572,-162,-219,-94,92,36,-296
2,961819,-1424,495,-572,-162,-219,-94,92,36,-296
2,961826,-1427,494,-580,-161,-226,-90,92,36,-296
2,961832,-1427,494,-580,-161,-226,-90,92,36,-296
2,961839,-1427,494,-580,-161,-226,-90,92,36,-296
2,961845,-1427,494,-580,-161,-226,-90,92,36,-296
2,961850,-1425,495,-579,-158,-231,-85,92,36,-296
2,961856,-1425,495,-579,-158,-231,-85,92,36,-296
2,961863,-1425,495,-579,-158,-231,-85,92,36,-296
2,961869,-1426,494,-573,-159,-225,-86,88,34,-296
2,961878,-1426,494,-573,-159,-225,-86,88,34,-296
2,961885,-1426,494,-573,-159,-225,-86,88,34,-296
2,961892,-1425,497,-573,-168,-226,-92,88,34,-296
2,961899,-1425,497,-573,-168,-226,-92,88,34,-296
2,961905,-1425,494,-577,-166,-224,-92,88,34,-296
2,961912,-1425,494,-577,-166,-224,-92,88,34,-296
2,961918,-1425,494,-577,-166,-224,-92,88,34,-296
2,961926,-1425,494,-577,-166,-224,-92,88,34,-296
2,961933,-1424,491,-578,-158,-213,-90,88,34,-296
2,961939,-1424,491,-578,-158,-213,-90,88,34,-296
2,961945,-1424,491,-578,-158,-213,-90,88,34,-296
2,961950,-1425,493,-580,-156,-221,-92,88,34,-296
2,961957,-1425,493,-580,-156,-221,-92,88,34,-296
2,961966,-1425,492,-580,-157,-223,-84,88,34,-296
2,961973,-1425,492,-580,-157,-223,-84,88,34,-296
2,961979,-1425,492,-580,-157,-223,-84,88,34,-296
2,961986,-1426,496,-575,-158,-214,-91,86,38,-296
2,961992,-1426,496,-575,-158,-214,-91,86,38,-296
2,961999,-1426,496,-575,-158,-214,-91,86,38,-296
2,962007,-1429,495,-571,-160,-223,-99,86,38,-296
2,962013,-1429,495,-571,-160,-223,-99,86,38,-296
2,962021,-1429,495,-571,-160,-223,-99,86,38,-296
2,962027,-1425,494,-575,-168,-225,-99,86,38,-296
2,962033,-1425,494,-575,-168,-225,-99,86,38,-296
2,962039,-1425,494,-575,-168,-225,-99,86,38,-296
2,962046,-1426,491,-577,-170,-227,-89,86,38,-296
2,962054,-1426,491,-577,-170,-227,-89,86,38,-296
2,962060,-1426,491,-577,-170,-227,-89,86,38,-296
2,962068,-1426,494,-580,-166,-219,-89,86,38,-296
2,962074,-1426,494,-580,-166,-219,-89,86,38,-296
2,962081,-1426,494,-580,-166,-219,-89,86,38,-296
2,962088,-1426,496,-573,-161,-221,-89,86,38,-296
2,962096,-1426,496,-573,-161,-221,-89,86,38,-296
2,962102,-1426,496,-573,-161,-221,-89,86,38,-296
2,962107,-1425,496,-576,-165,-224,-91,86,38,-296
2,962113,-1425,496,-576,-165,-224,-91,86,38,-296
2,962119,-1425,496,-576,-165,-224,-91,86,38,-296
2,962126,-1425,494,-574,-165,-224,-95,86,40,-290
2,962132,-1425,494,-574,-165,-224,-95,86,40,-290
2,962139,-1425,494,-574,-165,-224,-95,86,40,-290
2,962146,-1425,492,-575,-166,-223,-92,86,40,-290
2,962153,-1425,492,-575,-166,-223,-92,86,40,-290
2,962159,-1425,492,-575,-166,-223,-92,86,40,-290
2,962167,-1422,494,-573,-158,-230,-95,86,40,-290
2,962173,-1422,494,-573,-158,-230,-95,86,40,-290
2,962181,-1422,494,-573,-158,-230,-95,86,40,-290
2,962188,-1426,493,-574,-164,-219,-99,86,40,-290
2,962194,-1426,493,-574,-164,-219,-99,86,40,-290
2,962201,-1426,493,-574,-164,-219,-99,86,40,-290
2,962209,-1428,492,-573,-167,-224,-100,86,40,-290
2,962216,-1428,492,-573,-167,-224,-100,86,40,-290
2,962225,-1428,492,-573,-167,-224,-100,86,40,-290
2,962230,-1424,492,-574,-167,-227,-93,86,40,-290
2,962237,-1424,492,-574,-167,-227,-93,86,40,-290
2,962243,-1424,492,-574,-167,-227,-93,86,40,-290
2,962251,-1425,494,-568,-162,-225,-96,98,36,-296
2,962256,-1425,494,-568,-162,-225,-96,98,36,-296
2,962263,-1425,494,-568,-162,-225,-96,98,36,-296
2,962271,-1426,496,-576,-159,-226,-86,98,36,-296
2,962276,-1426,496,-576,-159,-226,-86,98,36,-296
2,962283,-1426,496,-576,-159,-226,-86,98,36,-296
2,962290,-1426,494,-576,-163,-222,-94,98,36,-296
2,962296,-1426,494,-576,-163,-222,-94,98,36,-296
2,962301,-1426,494,-576,-163,-222,-94,98,36,-296
2,962309,-1426,492,-574,-165,-221,-103,98,36,-296
2,962316,-1426,492,-574,-165,-221,-103,98,36,-296
2,962321,-1426,492,-574,-165,-221,-103,98,36,-296
2,962328,-1426,493,-574,-159,-225,-95,98,36,-296
2,962334,-1426,493,-574,-159,-225,-95,98,36,-296
2,962341,-1426,493,-574,-159,-225,-95,98,36,-296
2,962349,-1426,493,-573,-157,-218,-93,98,36,-296
2,962355,-1426,493,-573,-157,-218,-93,98,36,-296
2,962362,-1426,493,-573,-157,-218,-93,98,36,-296
2,962368,-1428,497,-573,-157,-222,-92,95,39,-289
2,962374,-1428,497,-573,-157,-222,-92,95,39,-289
2,962381,-1428,497,-573,-157,-222,-92,95,39,-289
2,962388,-1424,493,-573,-156,-219,-97,95,39,-289
2,962395,-1424,493,-573,-156,-219,-97,95,39,-289
2,962402,-1424,493,-573,-156,-219,-97,95,39,-289
2,962407,-1428,491,-576,-161,-222,-91,95,39,-289
2,962414,-1428,491,-576,-161,-222,-91,95,39,-289
2,962419,-1428,491,-576,-161,-222,-91,95,39,-289
2,962426,-1425,493,-578,-155,-227,-89,95,39,-289
2,962435,-1425,493,-578,-155,-227,-89,95,39,-289
2,962443,-1425,493,-578,-155,-227,-89,95,39,-289
2,962449,-1427,491,-576,-164,-224,-89,95,39,-289
2,962456,-1427,491,-576,-164,-224,-89,95,39,-289
2,962462,-1427,491,-576,-164,-224,-89,95,39,-289
2,962469,-1425,496,-576,-162,-226,-89,95,39,-289
2,962476,-1425,496,-576,-162,-226,-89,95,39,-289
2,962482,-1425,496,-576,-162,-226,-89,95,39,-289
2,962490,-1425,492,-570,-154,-222,-96,93,35,-289
2,962496,-1425,492,-570,-154,-222,-96,93,35,-289
2,962502,-1425,492,-570,-154,-222,-96,93,35,-289
2,962508,-1429,495,-575,-159,-222,-97,93,35,-289
2,962514,-1429,495,-575,-159,-222,-97,93,35,-289
2,962521,-1429,495,-575,-159,-222,-97,93,35,-289
2,962527,-1424,496,-570,-159,-221,-95,93,35,-289
2,962534,-1424,496,-570,-159,-221,-95,93,35,-289
2,962541,-1424,496,-570,-159,-221,-95,93,35,-289
2,962548,-1423,495,-570,-160,-225,-89,93,35,-289
2,962555,-1423,495,-570,-160,-225,-89,93,35,-289
2,962562,-1423,495,-570,-160,-225,-89,93,35,-289
2,962570,-1423,495,-570,-160,-225,-89,93,35,-289
2,962576,-1423,495,-570,-160,-225,-89,93,35,-289
2,962582,-1423,495,-570,-160,-225,-89,93,35,-289
2,962589,-1428,492,-573,-160,-223,-97,93,35,-289
2,962596,-1428,492,-573,-160,-223,-97,93,35,-289
2,962604,-1428,492,-573,-160,-223,-97,93,35,-289
2,962610,-1428,493,-576,-162,-224,-88,90,38,-300
2,962616,-1428,493,-576,-162,-224,-88,90,38,-300
2,962624,-1428,493,-576,-162,-224,-88,90,38,-300
2,962629,-1425,494,-577,-171,-214,-93,90,38,-300
2,962636,-1425,494,-577,-171,-214,-93,90,38,-300
2,962641,-1425,494,-577,-171,-214,-93,90,38,-300
2,962649,-1424,498,-572,-168,-220,-90,90,38,-300
2,962655,-1424,498,-572,-168,-220,-90,90,38,-300
2,962662,-1424,498,-572,-168,-220,-90,90,38,-300
2,962670,-1428,492,-574,-167,-223,-92,90,38,-300
2,962677,-1428,492,-574,-167,-223,-92,90,38,-300
2,962685,-1428,492,-574,-167,-223,-92,90,38,-300
2,962693,-1428,494,-581,-160,-224,-89,90,38,-300
2,962699,-1428,494,-581,-160,-224,-89,90,38,-300
2,962706,-1428,494,-581,-160,-224,-89,90,38,-300
2,962713,-1426,494,-575,-163,-231,-93,90,38,-300
2,962720,-1426,494,-575,-163,-231,-93,90,38,-300
2,962727,-1426,492,-572,-163,-223,-91,90,38,-300
2,962733,-1426,492,-572,-163,-223,-91,90,38,-300
2,962741,-1426,492,-572,-163,-223,-91,90,38,-300
2,962747,-1426,494,-572,-170,-224,-84,88,44,-292
2,962754,-1426,494,-572,-170,-224,-84,88,44,-292
2,962760,-1426,494,-572,-170,-224,-84,88,44,-292
2,962766,-1428,491,-575,-170,-238,-90,88,44,-292
2,962775,-1428,491,-575,-170,-238,-90,88,44,-292
2,962781,-1428,491,-575,-170,-238,-90,88,44,-292
2,962788,-1424,491,-572,-169,-226,-96,88,44,-292
2,962794,-1424,491,-572,-169,-226,-96,88,44,-292
2,962800,-1424,491,-572,-169,-226,-96,88,44,-292
2,962806,-1424,491,-572,-169,-226,-96,88,44,-292
2,962812,-1427,494,-572,-169,-223,-91,88,44,-292
2,962821,-1427,494,-572,-169,-223,-91,88,44,-292
2,962827,-1427,496,-580,-166,-212,-92,88,44,-292
2,962835,-1427,496,-580,-166,-212,-92,88,44,-292
2,962842,-1427,496,-580,-166,-212,-92,88,44,-292
2,962849,-1428,493,-577,-161,-211,-89,88,44,-292
2,962857,-1428,493,-577,-161,-211,-89,88,44,-292
2,962866,-1428,493,-577,-161,-211,-89,88,44,-292
2,962873,-1426,494,-574,-165,-222,-89,90,36,-290
2,962881,-1426,494,-574,-165,-222,-89,90,36,-290
2,962887,-1427,493,-569,-162,-219,-94,90,36,-290
2,962894,-1427,493,-569,-162,-219,-94,90,36,-290
2,962900,-1427,493,-569,-162,-219,-94,90,36,-290
2,962908,-1427,491,-571,-162,-221,-97,90,36,-290
2,962914,-1427,491,-571,-162,-221,-97,90,36,-290
2,962921,-1427,491,-571,-162,-221,-97,90,36,-290
2,962928,-1427,493,-573,-165,-226,-91,90,36,-290
2,962935,-1427,493,-573,-165,-226,-91,90,36,-290
2,962942,-1427,493,-573,-165,-226,-91,90,36,-290
2,962949,-1423,494,-580,-170,-227,-92,90,36,-290
2,962955,-1423,494,-580,-170,-227,-92,90,36,-290
2,962961,-1423,494,-580,-170,-227,-92,90,36,-290
2,962967,-1423,496,-578,-161,-214,-95,90,36,-290
2,962973,-1423,496,-578,-161,-214,-95,90,36,-290
2,962980,-1423,496,-578,-161,-214,-95,90,36,-290
2,962989,-1425,492,-572,-161,-219,-88,85,41,-297
2,962996,-1425,492,-572,-161,-219,-88,85,41,-297
2,963001,-1425,492,-572,-161,-219,-88,85,41,-297
2,963008,-1425,495,-575,-161,-223,-93,85,41,-297
2,963014,-1425,495,-575,-161,-223,-93,85,41,-297
2,963021,-1425,495,-575,-161,-223,-93,85,41,-297
2,963027,-1423,493,-570,-161,-229,-95,85,41,-297
2,963033,-1423,493,-570,-161,-229,-95,85,41,-297
2,963040,-1423,493,-570,-161,-229,-95,85,41,-297
2,963047,-1425,494,-575,-161,-225,-99,85,41,-297
2,963055,-1425,494,-575,-161,-225,-99,85,41,-297
2,963061,-1425,494,-575,-161,-225,-99,85,41,-297
2,963068,-1429,494,-578,-163,-220,-91,85,41,-297
2,963076,-1429,494,-578,-163,-220,-91,85,41,-297
2,963083,-1429,494,-578,-163,-220,-91,85,41,-297
2,963089,-1429,494,-578,-163,-220,-91,85,41,-297
2,963095,-1429,494,-578,-163,-220,-91,85,41,-297
2,963101,-1429,494,-578,-163,-220,-91,85,41,-297
2,963106,-1423,491,-574,-168,-225,-95,85,41,-297
2,963113,-1423,491,-574,-168,-225,-95,92,40,-300
2,963120,-1423,491,-574,-168,-225,-95,92,40,-300
2,963126,-1423,491,-574,-168,-225,-95,92,40,-300
2,963133,-1427,493,-574,-164,-224,-91,92,40,-300
2,963138,-1427,493,-574,-164,-224,-91,92,40,-300
2,963146,-1427,493,-574,-164,-224,-91,92,40,-300
2,963154,-1426,494,-573,-164,-230,-82,92,40,-300
2,963161,-1426,494,-573,-164,-230,-82,92,40,-300
2,963167,-1424,494,-577,-160,-219,-85,92,40,-300
2,963174,-1424,494,-577,-160,-219,-85,92,40,-300
2,963180,-1424,494,-577,-160,-219,-85,92,40,-300
2,963188,-1428,494,-575,-160,-225,-97,92,40,-300
2,963194,-1428,494,-575,-160,-225,-97,92,40,-300
2,963201,-1428,494,-575,-160,-225,-97,92,40,-300
2,963206,-1428,494,-575,-160,-225,-97,92,40,-300
2,963213,-1424,491,-571,-166,-232,-95,92,40,-300
2,963220,-1424,491,-571,-166,-232,-95,92,40,-300
2,963227,-1423,492,-573,-170,-233,-92,84,44,-294
2,963233,-1423,492,-573,-170,-233,-92,84,44,-294
2,963241,-1423,492,-573,-170,-233,-92,84,44,-294
2,963248,-1424,493,-577,-170,-233,-94,84,44,-294
2,963254,-1424,493,-577,-170,-233,-94,84,44,-294
2,963260,-1424,493,-577,-170,-233,-94,84,44,-294
2,963266,-1424,493,-577,-170,-233,-94,84,44,-294
2,963273,-1424,490,-574,-159,-233,-94,84,44,-294
2,963279,-1424,490,-574,-159,-233,-94,84,44,-294
2,963287,-1425,491,-570,-169,-238,-90,84,44,-294
2,963294,-1425,491,-570,-169,-238,-90,84,44,-294
2,963300,-1425,491,-570,-169,-238,-90,84,44,-294
2,963306,-1425,491,-570,-169,-238,-90,84,44,-294
2,963312,-1424,490,-575,-169,-227,-89,84,44,-294
2,963318,-1424,490,-575,-169,-227,-89,84,44,-294
2,963324,-1424,490,-575,-169,-227,-89,84,44,-294
2,963334,-1425,494,-578,-164,-224,-96,84,44,-294
2,963339,-1425,494,-578,-164,-224,-96,84,44,-294
2,963344,-1425,494,-578,-164,-224,-96,84,44,-294
2,963351,-1426,494,-574,-162,-219,-102,84,44,-294
2,963357,-1426,494,-574,-162,-219,-102,84,44,-294
2,963364,-1426,494,-574,-162,-219,-102,84,44,-294
2,963373,-1423,493,-577,-163,-221,-92,90,52,-288
2,963380,-1423,493,-577,-163,-221,-92,90,52,-288
2,963386,-1423,493,-577,-163,-221,-92,90,52,-288
2,963391,-1426,491,-571,-165,-226,-90,90,52,-288
2,963397,-1426,491,-571,-165,-226,-90,90,52,-288
2,963404,-1426,491,-571,-165,-226,-90,90,52,-288
2,963411,-1427,494,-574,-161,-224,-85,90,52,-288
2,963418,-1427,494,-574,-161,-224,-85,90,52,-288
2,963423,-1427,494,-574,-161,-224,-85,90,52,-288
2,963430,-1426,492,-580,-159,-226,-79,90,52,-288
2,963436,-1426,492,-580,-159,-226,-79,90,52,-288
2,963441,-1426,492,-580,-159,-226,-79,90,52,-288
2,963447,-1427,493,-575,-168,-231,-87,90,52,-288
2,963454,-1427,493,-575,-168,-231,-87,90,52,-288
2,963462,-1427,493,-575,-168,-231,-87,90,52,-288
2,963468,-1426,491,-575,-169,-221,-89,90,52,-288
2,963474,-1426,491,-575,-169,-221,-89,90,52,-288
2,963481,-1426,491,-575,-169,-221,-89,90,52,-288
2,963488,-1428,493,-571,-162,-220,-90,88,34,-294
2,963495,-1428,493,-571,-162,-220,-90,88,34,-294
2,963504,-1428,493,-571,-162,-220,-90,88,34,-294
2,963510,-1428,496,-577,-163,-223,-90,88,34,-294
2,963517,-1428,496,-577,-163,-223,-90,88,34,-294
2,963525,-1428,496,-577,-163,-223,-90,88,34,-294
2,963534,-1427,493,-574,-166,-221,-89,88,34,-294
2,963543,-1427,493,-574,-166,-221,-89,88,34,-294
2,963550,-1428,493,-571,-167,-217,-83,88,34,-294
2,963558,-1428,493,-571,-167,-217,-83,88,34,-294
2,963565,-1428,493,-571,-167,-217,-83,88,34,-294
2,963570,-1424,495,-574,-161,-224,-91,88,34,-294
2,963577,-1424,495,-574,-161,-224,-91,88,34,-294
2,963585,-1424,495,-574,-161,-224,-91,88,34,-294
2,963591,-1424,496,-572,-165,-225,-89,88,34,-294
2,963598,-1424,496,-572,-165,-225,-89,88,34,-294
2,963604,-1424,496,-572,-165,-225,-89,88,34,-294
2,963609,-1428,494,-572,-167,-223,-84,91,37,-289
2,963616,-1428,494,-572,-167,-223,-84,91,37,-289
2,963624,-1428,494,-572,-167,-223,-84,91,37,-289
2,963632,-1423,497,-574,-160,-227,-86,91,37,-289
2,963639,-1423,497,-574,-160,-227,-86,91,37,-289
2,963646,-1423,497,-574,-160,-227,-86,91,37,-289
2,963652,-1427,496,-575,-157,-222,-89,91,37,-289
2,963660,-1427,496,-575,-157,-222,-89,91,37,-289
2,963666,-1427,496,-575,-157,-222,-89,91,37,-289
2,963673,-1425,494,-574,-165,-227,-86,91,37,-289
2,963679,-1425,494,-574,-165,-227,-86,91,37,-289
2,963685,-1425,494,-574,-165,-227,-86,91,37,-289
2,963693,-1426,494,-582,-165,-234,-92,91,37,-289
2,963700,-1426,494,-582,-165,-234,-92,91,37,-289
2,963707,-1427,495,-574,-167,-226,-84,91,37,-289
2,963715,-1427,495,-574,-167,-226,-84,91,37,-289
2,963721,-1427,495,-574,-167,-226,-84,91,37,-289
2,963726,-1427,495,-574,-167,-226,-84,91,37,-289
2,963733,-1427,496,-571,-164,-220,-96,87,33,-291
2,963739,-1427,496,-571,-164,-220,-96,87,33,-291
2,963746,-1427,496,-571,-164,-220,-96,87,33,-291
2,963753,-1426,495,-574,-164,-226,-93,87,33,-291
2,963761,-1426,495,-574,-164,-226,-93,87,33,-291
2,963767,-1424,493,-573,-161,-228,-91,87,33,-291
2,963775,-1424,493,-573,-161,-228,-91,87,33,-291
2,963781,-1424,493,-573,-161,-228,-91,87,33,-291
2,963787,-1424,493,-576,-158,-222,-93,87,33,-291
2,963794,-1424,493,-576,-158,-222,-93,87,33,-291
2,963802,-1424,493,-576,-158,-222,-93,87,33,-291
2,963810,-1423,496,-578,-160,-228,-95,87,33,-291
2,963816,-1423,496,-578,-160,-228,-95,87,33,-291
2,963823,-1423,496,-578,-160,-228,-95,87,33,-291
2,963829,-1425,496,-576,-162,-235,-88,87,33,-291
2,963836,-1425,496,-576,-162,-235,-88,87,33,-291
2,963844,-1425,496,-576,-162,-235,-88,87,33,-291
2,963850,-1426,492,-575,-162,-228,-89,81,45,-287
2,963858,-1426,492,-575,-162,-228,-89,81,45,-287
2,963865,-1426,492,-575,-162,-228,-89,81,45,-287
2,963871,-1425,491,-576,-163,-228,-89,81,45,-287
2,963877,-1425,491,-576,-163,-228,-89,81,45,-287
2,963884,-1425,491,-576,-163,-228,-89,81,45,-287
2,963889,-1428,494,-575,-166,-226,-95,81,45,-287
2,963897,-1428,494,-575,-166,-226,-95,81,45,-287
2,963904,-1428,494,-575,-166,-226,-95,81,45,-287
2,963911,-1424,497,-579,-159,-221,-98,81,45,-287
2,963917,-1424,497,-579,-159,-221,-98,81,45,-287
2,963926,-1424,497,-579,-159,-221,-98,81,45,-287
2,963933,-1423,493,-581,-160,-223,-102,81,45,-287
2,963939,-1423,493,-581,-160,-223,-102,81,45,-287
2,963946,-1423,493,-581,-160,-223,-102,81,45,-287
2,963953,-1426,496,-577,-164,-232,-97,81,45,-287
2,963959,-1426,496,-577,-164,-232,-97,81,45,-287
2,963966,-1426,496,-577,-164,-232,-97,81,45,-287
2,963973,-1426,496,-575,-162,-224,-95,90,32,-292
2,963979,-1426,496,-575,-162,-224,-95,90,32,-292
2,963985,-1426,496,-575,-162,-224,-95,90,32,-292
2,963994,-1425,493,-569,-168,-215,-86,90,32,-292
2,964000,-1425,493,-569,-168,-215,-86,90,32,-292
2,964007,-1426,495,-572,-168,-218,-90,90,32,-292
2,964015,-1426,495,-572,-168,-218,-90,90,32,-292
2,964022,-1426,495,-572,-168,-218,-90,90,32,-292
2,964027,-1426,495,-572,-168,-218,-90,90,32,-292
2,964033,-1426,498,-571,-161,-217,-90,90,32,-292
2,964040,-1426,498,-571,-161,-217,-90,90,32,-292
2,964047,-1424,494,-575,-163,-225,-87,90,32,-292
2,964054,-1424,494,-575,-163,-225,-87,90,32,-292
2,964061,-1424,494,-575,-163,-225,-87,90,32,-292
2,964068,-1424,493,-575,-164,-211,-90,90,32,-292
2,964076,-1424,493,-575,-164,-211,-90,90,32,-292
2,964084,-1424,493,-575,-164,-211,-90,90,32,-292
2,964090,-1424,495,-577,-166,-218,-94,90,32,-292
2,964099,-1424,495,-577,-166,-218,-94,90,32,-292
2,964106,-1424,495,-577,-166,-218,-94,90,32,-292
2,964111,-1427,497,-574,-165,-228,-97,93,41,-297
2,964117,-1427,497,-574,-165,-228,-97,93,41,-297
2,964124,-1427,497,-574,-165,-228,-97,93,41,-297
2,964131,-1427,492,-580,-160,-224,-92,93,41,-297
2,964137,-1427,492,-580,-160,-224,-92,93,41,-297
2,964146,-1427,492,-580,-160,-224,-92,93,41,-297
2,964152,-1424,491,-574,-164,-215,-90,93,41,-297
2,964159,-1424,491,-574,-164,-215,-90,93,41,-297
2,964166,-1424,491,-574,-164,-215,-90,93,41,-297
2,964172,-1425,491,-573,-164,-224,-94,93,41,-297
2,964179,-1425,491,-573,-164,-224,-94,93,41,-297
2,964186,-1425,491,-573,-164,-224,-94,93,41,-297
2,964193,-1423,495,-574,-163,-218,-89,93,41,-297
2,964200,-1423,495,-574,-163,-218,-89,93,41,-297
2,964206,-1423,495,-574,-163,-218,-89,93,41,-297
2,964211,-1425,494,-577,-166,-227,-96,93,41,-297
2,964218,-1425,494,-577,-166,-227,-96,93,41,-297
2,964225,-1425,494,-577,-166,-227,-96,93,41,-297
2,964233,-1426,493,-571,-163,-219,-95,89,35,-291
2,964240,-1426,493,-571,-163,-219,-95,89,35,-291
2,964245,-1426,493,-571,-163,-219,-95,89,35,-291
2,964252,-1424,493,-576,-157,-221,-97,89,35,-291
2,964258,-1424,493,-576,-157,-221,-97,89,35,-291
2,964264,-1424,493,-576,-157,-221,-97,89,35,-291
2,964272,-1428,492,-572,-160,-221,-91,89,35,-291
2,964279,-1428,492,-572,-160,-221,-91,89,35,-291
2,964287,-1428,492,-572,-160,-221,-91,89,35,-291
2,964295,-1427,495,-570,-159,-225,-93,89,35,-291
2,964302,-1427,495,-570,-159,-225,-93,89,35,-291
2,964308,-1426,494,-578,-154,-224,-89,89,35,-291
2,964317,-1426,494,-578,-154,-224,-89,89,35,-291
2,964324,-1426,494,-578,-154,-224,-89,89,35,-291
2,964332,-1423,494,-578,-158,-226,-83,89,35,-291
2,964338,-1423,494,-578,-158,-226,-83,89,35,-291
2,964345,-1423,494,-578,-158,-226,-83,89,35,-291
2,964353,-1425,495,-574,-162,-224,-93,91,37,-299
2,964359,-1425,495,-574,-162,-224,-93,91,37,-299
2,964366,-1425,495,-574,-162,-224,-93,91,37,-299
2,964373,-1426,492,-578,-168,-223,-89,91,37,-299
2,964380,-1426,492,-578,-168,-223,-89,91,37,-299
2,964386,-1426,492,-578,-168,-223,-89,91,37,-299
2,964393,-1428,496,-573,-159,-222,-94,91,37,-299
2,964401,-1428,496,-573,-159,-222,-94,91,37,-299
2,964407,-1428,496,-573,-159,-222,-94,91,37,-299
2,964413,-1425,493,-572,-151,-221,-96,91,37,-299
2,964419,-1425,493,-572,-151,-221,-96,91,37,-299
2,964426,-1425,493,-572,-151,-221,-96,91,37,-299
2,964432,-1426,494,-575,-165,-231,-87,91,37,-299
2,964439,-1426,494,-575,-165,-231,-87,91,37,-299
2,964447,-1426,494,-575,-165,-231,-87,91,37,-299
2,964454,-1426,492,-577,-162,-230,-88,91,37,-299
2,964461,-1426,492,-577,-162,-230,-88,91,37,-299
2,964468,-1424,497,-573,-161,-227,-92,89,41,-291
2,964474,-1424,497,-573,-161,-227,-92,89,41,-291
2,964480,-1424,497,-573,-161,-227,-92,89,41,-291
2,964486,-1424,497,-573,-161,-227,-92,89,41,-291
2,964494,-1426,493,-577,-168,-223,-91,89,41,-291
2,964500,-1426,493,-577,-168,-223,-91,89,41,-291
2,964507,-1426,493,-577,-168,-223,-91,89,41,-291
2,964512,-1424,494,-574,-164,-225,-93,89,41,-291
2,964520,-1424,494,-574,-164,-225,-93,89,41,-291
2,964529,-1423,492,-575,-159,-228,-88,89,41,-291
2,964536,-1423,492,-575,-159,-228,-88,89,41,-291
2,964542,-1423,492,-575,-159,-228,-88,89,41,-291
2,964549,-1425,493,-574,-163,-231,-84,89,41,-291
2,964556,-1425,493,-574,-163,-231,-84,89,41,-291
2,964563,-1425,493,-574,-163,-231,-84,89,41,-291
2,964571,-1424,493,-577,-160,-232,-85,89,41,-291
2,964577,-1424,493,-577,-160,-232,-85,89,41,-291
2,964584,-1424,493,-577,-160,-232,-85,89,41,-291
2,964591,-1425,494,-572,-167,-230,-86,91,41,-287
2,964598,-1425,494,-572,-167,-230,-86,91,41,-287
2,964604,-1425,494,-572,-167,-230,-86,91,41,-287
2,964612,-1426,495,-572,-165,-232,-83,91,41,-287
2,964619,-1426,495,-572,-165,-232,-83,91,41,-287
2,964626,-1426,495,-572,-165,-232,-83,91,41,-287
2,964633,-1425,491,-577,-164,-232,-88,91,41,-287
2,964639,-1425,491,-577,-164,-232,-88,91,41,-287
2,964647,-1425,491,-577,-164,-232,-88,91,41,-287
2,964654,-1425,494,-575,-164,-233,-85,91,41,-287
2,964661,-1425,494,-575,-164,-233,-85,91,41,-287
2,964668,-1425,494,-575,-164,-233,-85,91,41,-287
2,964674,-1426,493,-571,-167,-236,-94,91,41,-287
2,964681,-1426,493,-571,-167,-236,-94,91,41,-287
2,964687,-1426,493,-571,-167,-236,-94,91,41,-287
2,964694,-1427,493,-573,-164,-225,-92,91,41,-287
2,964701,-1427,493,-573,-164,-225,-92,91,41,-287
2,964708,-1426,494,-576,-168,-223,-87,91,41,-287
2,964715,-1426,494,-576,-168,-223,-87,91,41,-287
2,964723,-1426,494,-576,-168,-223,-87,91,41,-287
2,964731,-1425,492,-568,-163,-220,-87,86,44,-288
2,964738,-1425,492,-568,-163,-220,-87,86,44,-288
2,964745,-1425,492,-568,-163,-220,-87,86,44,-288
2,964751,-1423,495,-576,-173,-234,-94,86,44,-288
2,964758,-1423,495,-576,-173,-234,-94,86,44,-288
2,964763,-1423,495,-576,-173,-234,-94,86,44,-288
2,964769,-1428,493,-575,-167,-231,-102,86,44,-288
2,964775,-1428,493,-575,-167,-231,-102,86,44,-288
2,964781,-1428,493,-575,-167,-231,-102,86,44,-288
2,964787,-1428,493,-575,-167,-231,-102,86,44,-288
2,964794,-1425,492,-572,-165,-224,-100,86,44,-288
2,964800,-1425,492,-572,-165,-224,-100,86,44,-288
2,964807,-1425,492,-572,-165,-224,-100,86,44,-288
2,964814,-1425,492,-574,-161,-231,-99,86,44,-288
2,964822,-1425,492,-574,-161,-231,-99,86,44,-288
2,964831,-1426,491,-576,-157,-232,-99,86,44,-288
2,964838,-1426,491,-576,-157,-232,-99,86,44,-288
2,964843,-1426,491,-576,-157,-232,-99,86,44,-288
2,964850,-1426,493,-567,-160,-231,-90,91,49,-289
2,964857,-1426,493,-567,-160,-231,-90,91,49,-289
2,964866,-1426,493,-567,-160,-231,-90,91,49,-289
2,964871,-1427,492,-569,-161,-226,-91,91,49,-289
2,964877,-1427,492,-569,-161,-226,-91,91,49,-289
2,964885,-1427,492,-569,-161,-226,-91,91,49,-289
2,964892,-1429,496,-575,-159,-228,-96,91,49,-289
2,964898,-1429,496,-575,-159,-228,-96,91,49,-289
2,964903,-1429,496,-575,-159,-228,-96,91,49,-289
2,964911,-1428,493,-575,-169,-228,-92,91,49,-289
2,964919,-1428,493,-575,-169,-228,-92,91,49,-289
2,964924,-1428,493,-575,-169,-228,-92,91,49,-289
2,964932,-1426,493,-576,-170,-232,-88,91,49,-289
2,964940,-1426,493,-576,-170,-232,-88,91,49,-289
2,964948,-1426,493,-576,-170,-232,-88,91,49,-289
2,964956,-1426,493,-576,-170,-232,-88,91,49,-289
2,964962,-1426,493,-576,-170,-232,-88,91,49,-289
2,964970,-1427,493,-577,-162,-223,-86,85,39,-295
2,964976,-1427,493,-577,-162,-223,-86,85,39,-295
2,964981,-1427,493,-577,-162,-223,-86,85,39,-295
2,964988,-1427,493,-577,-162,-223,-86,85,39,-295
2,964994,-1424,492,-576,-160,-219,-91,85,39,-295
2,965002,-1424,492,-576,-160,-219,-91,85,39,-295
2,965008,-1424,492,-576,-160,-219,-91,85,39,-295
2,965014,-1429,493,-571,-159,-218,-93,85,39,-295
2,965021,-1429,493,-571,-159,-218,-93,85,39,-295
2,965027,-1429,493,-571,-159,-218,-93,85,39,-295
2,965032,-1425,493,-574,-159,-232,-90,85,39,-295
2,965040,-1425,493,-574,-159,-232,-90,85,39,-295
2,965046,-1425,493,-574,-159,-232,-90,85,39,-295
2,965054,-1423,497,-573,-158,-233,-90,85,39,-295
2,965060,-1423,497,-573,-158,-233,-90,85,39,-295
2,965067,-1423,497,-573,-158,-233,-90,85,39,-295
2,965074,-1425,494,-577,-160,-224,-88,85,39,-295
2,965081,-1425,494,-577,-160,-224,-88,85,39,-295
2,965088,-1425,494,-577,-160,-224,-88,85,39,-295
2,965096,-1426,492,-572,-166,-225,-85,89,39,-301
2,965103,-1426,492,-572,-166,-225,-85,89,39,-301
2,965111,-1425,494,-569,-157,-219,-92,89,39,-301
2,965117,-1425,494,-569,-157,-219,-92,89,39,-301
2,965123,-1425,494,-569,-157,-219,-92,89,39,-301
2,965132,-1426,492,-574,-161,-222,-91,89,39,-301
2,965138,-1426,492,-574,-161,-222,-91,89,39,-301
2,965145,-1426,492,-574,-161,-222,-91,89,39,-301
2,965152,-1426,494,-574,-158,-233,-92,89,39,-301
2,965158,-1426,494,-574,-158,-233,-92,89,39,-301
2,965167,-1426,494,-574,-158,-233,-92,89,39,-301
2,965174,-1424,493,-573,-164,-237,-99,89,39,-301
2,965181,-1424,493,-573,-164,-237,-99,89,39,-301
2,965189,-1424,492,-575,-166,-231,-90,89,39,-301
2,965195,-1424,492,-575,-166,-231,-90,89,39,-301
2,965202,-1424,492,-575,-166,-231,-90,89,39,-301
2,965210,-1425,491,-572,-164,-227,-84,88,36,-290
2,965217,-1425,491,-572,-164,-227,-84,88,36,-290
2,965223,-1425,491,-572,-164,-227,-84,88,36,-290
2,965230,-1424,494,-575,-164,-226,-86,88,36,-290
2,965238,-1424,494,-575,-164,-226,-86,88,36,-290
2,965244,-1424,494,-575,-164,-226,-86,88,36,-290
2,965251,-1427,493,-575,-159,-233,-89,88,36,-290
2,965257,-1427,493,-575,-159,-233,-89,88,36,-290
2,965265,-1427,493,-575,-159,-233,-89,88,36,-290
2,965272,-1426,497,-573,-160,-231,-96,88,36,-290
2,965279,-1426,497,-573,-160,-231,-96,88,36,-290
2,965284,-1426,497,-573,-160,-231,-96,88,36,-290
2,965291,-1426,497,-573,-159,-230,-94,88,36,-290
2,965298,-1426,497,-573,-159,-230,-94,88,36,-290
2,965306,-1426,497,-573,-159,-230,-94,88,36,-290
2,965313,-1426,495,-579,-163,-226,-90,88,36,-290
2,965318,-1426,495,-579,-163,-226,-90,88,36,-290
2,965324,-1426,495,-579,-163,-226,-90,88,36,-290
2,965330,-1426,492,-574,-158,-221,-92,88,36,-290
2,965339,-1426,492,-574,-158,-221,-92,88,36,-290
2,965345,-1426,492,-574,-158,-221,-92,88,36,-290
2,965351,-1426,494,-570,-157,-224,-93,102,32,-294
2,965357,-1426,494,-570,-157,-224,-93,102,32,-294
2,965363,-1426,494,-570,-157,-224,-93,102,32,-294
2,965369,-1427,493,-573,-161,-219,-87,102,32,-294
2,965379,-1427,493,-573,-161,-219,-87,102,32,-294
2,965384,-1427,493,-573,-161,-219,-87,102,32,-294
2,965390,-1425,494,-569,-168,-222,-90,102,32,-294
2,965397,-1425,494,-569,-168,-222,-90,102,32,-294
2,965403,-1425,494,-569,-168,-222,-90,102,32,-294
2,965410,-1424,492,-573,-162,-229,-95,102,32,-294
2,965419,-1424,492,-573,-162,-229,-95,102,32,-294
2,965425,-1424,492,-573,-162,-229,-95,102,32,-294
2,965432,-1427,493,-570,-157,-223,-94,102,32,-294
2,965439,-1427,493,-570,-157,-223,-94,102,32,-294
2,965447,-1427,493,-570,-157,-223,-94,102,32,-294
2,965454,-1427,493,-573,-166,-222,-88,102,32,-294
2,965460,-1427,493,-573,-166,-222,-88,102,32,-294
2,965468,-1427,493,-573,-166,-222,-88,102,32,-294
2,965476,-1425,494,-574,-169,-227,-88,91,41,-297
2,965483,-1425,494,-574,-169,-227,-88,91,41,-297
2,965491,-1427,494,-571,-160,-224,-94,91,41,-297
2,965497,-1427,494,-571,-160,-224,-94,91,41,-297
2,965505,-1427,494,-571,-160,-224,-94,91,41,-297
2,965511,-1426,494,-575,-166,-225,-87,91,41,-297
2,965519,-1426,494,-575,-166,-225,-87,91,41,-297
2,965525,-1426,494,-575,-166,-225,-87,91,41,-297
2,965531,-1425,492,-579,-169,-232,-98,91,41,-297
2,965538,-1425,492,-579,-169,-232,-98,91,41,-297
2,965545,-1425,492,-579,-169,-232,-98,91,41,-297
2,965553,-1424,492,-577,-166,-231,-96,91,41,-297
2,965560,-1424,492,-577,-166,-231,-96,91,41,-297
2,965568,-1424,492,-577,-166,-231,-96,91,41,-297
2,965574,-1425,495,-582,-160,-224,-91,91,41,-297
2,965580,-1425,495,-582,-160,-224,-91,91,41,-297
2,965587,-1425,495,-582,-160,-224,-91,91,41,-297
2,965596,-1426,494,-568,-155,-221,-90,91,37,-299
2,965601,-1426,494,-568,-155,-221,-90,91,37,-299
2,965607,-1426,494,-568,-155,-221,-90,91,37,-299
2,965614,-1426,491,-577,-165,-230,-90,91,37,-299
2,965620,-1426,491,-577,-165,-230,-90,91,37,-299
2,965627,-1426,491,-577,-165,-230,-90,91,37,-299
2,965636,-1425,493,-574,-164,-230,-94,91,37,-299
2,965643,-1425,493,-574,-164,-230,-94,91,37,-299
2,965649,-1427,493,-570,-165,-228,-90,91,37,-299
2,965657,-1427,493,-570,-165,-228,-90,91,37,-299
2,965664,-1427,493,-570,-165,-228,-90,91,37,-299
2,965669,-1424,495,-577,-164,-230,-96,91,37,-299
2,965677,-1424,495,-577,-164,-230,-96,91,37,-299
2,965682,-1424,495,-577,-164,-230,-96,91,37,-299
2,965690,-1428,494,-578,-163,-229,-97,91,37,-299
2,965696,-1428,494,-578,-163,-229,-97,91,37,-299
2,965704,-1428,494,-578,-163,-229,-97,91,37,-299
2,965711,-1428,495,-573,-157,-224,-93,96,38,-292
2,965718,-1428,495,-573,-157,-224,-93,96,38,-292
2,965725,-1428,495,-573,-157,-224,-93,96,38,-292
2,965732,-1425,494,-572,-153,-221,-91,96,38,-292
2,965739,-1425,494,-572,-153,-221,-91,96,38,-292
2,965745,-1425,494,-572,-153,-221,-91,96,38,-292
2,965753,-1430,495,-577,-157,-226,-87,96,38,-292
2,965760,-1430,495,-577,-157,-226,-87,96,38,-292
2,965767,-1430,495,-577,-157,-226,-87,96,38,-292
2,965774,-1427,494,-573,-170,-226,-89,96,38,-292
2,965783,-1427,494,-573,-170,-226,-89,96,38,-292
2,965789,-1424,494,-576,-164,-225,-91,96,38,-292
2,965795,-1424,494,-576,-164,-225,-91,96,38,-292
2,965804,-1424,494,-576,-164,-225,-91,96,38,-292
2,965811,-1426,494,-578,-163,-230,-93,96,38,-292
2,965818,-1426,494,-578,-163,-230,-93,96,38,-292
2,965824,-1426,494,-578,-163,-230,-93,96,38,-292
2,965831,-1426,494,-578,-161,-233,-95,89,39,-291
2,965836,-1426,494,-578,-161,-233,-95,89,39,-291
2,965844,-1426,494,-578,-161,-233,-95,89,39,-291
2,965852,-1425,491,-576,-161,-224,-100,89,39,-291
2,965858,-1425,491,-576,-161,-224,-100,89,39,-291
2,965866,-1425,491,-576,-161,-224,-100,89,39,-291
2,965871,-1428,495,-577,-167,-220,-91,89,39,-291
2,965878,-1428,495,-577,-167,-220,-91,89,39,-291
2,965888,-1428,495,-577,-167,-220,-91,89,39,-291
2,965894,-1423,493,-576,-155,-224,-88,89,39,-291
2,965900,-1423,493,-576,-155,-224,-88,89,39,-291
2,965906,-1423,493,-576,-155,-224,-88,89,39,-291
2,965913,-1425,496,-574,-162,-224,-91,89,39,-291
2,965921,-1425,496,-574,-162,-224,-91,89,39,-291
2,965928,-1425,496,-574,-162,-224,-91,89,39,-291
2,965935,-1424,495,-576,-165,-223,-100,89,39,-291
2,965942,-1424,495,-576,-165,-223,-100,89,39,-291
2,965949,-1424,495,-576,-165,-223,-100,89,39,-291
2,965956,-1424,492,-574,-164,-229,-98,89,39,-291
2,965963,-1424,492,-574,-164,-229,-98,89,39,-291
2,965971,-1425,495,-573,-163,-220,-100,87,39,-295
2,965978,-1425,495,-573,-163,-220,-100,87,39,-295
2,965985,-1425,495,-573,-163,-220,-100,87,39,-295
2,965992,-1427,492,-576,-163,-228,-92,87,39,-295
2,965998,-1427,492,-576,-163,-228,-92,87,39,-295
2,966005,-1427,492,-576,-163,-228,-92,87,39,-295
2,966012,-1425,492,-576,-164,-228,-95,87,39,-295
2,966019,-1425,492,-576,-164,-228,-95,87,39,-295
2,966027,-1425,492,-576,-164,-228,-95,87,39,-295
2,966034,-1424,493,-579,-163,-225,-90,87,39,-295
2,966041,-1424,493,-579,-163,-225,-90,87,39,-295
2,966047,-1424,493,-579,-163,-225,-90,87,39,-295
2,966055,-1424,492,-578,-163,-229,-88,87,39,-295
2,966063,-1424,492,-578,-163,-229,-88,87,39,-295
2,966069,-1424,492,-578,-163,-229,-88,87,39,-295
2,966075,-1424,496,-578,-159,-232,-84,87,39,-295
2,966082,-1424,496,-578,-159,-232,-84,87,39,-295
2,966087,-1424,496,-578,-159,-232,-84,87,39,-295
2,966094,-1425,494,-568,-158,-228,-95,93,37,-295
2,966104,-1425,494,-568,-158,-228,-95,93,37,-295
2,966109,-1425,494,-568,-158,-228,-95,93,37,-295
2,966115,-1425,495,-574,-161,-225,-97,93,37,-295
2,966122,-1425,495,-574,-161,-225,-97,93,37,-295
2,966128,-1425,495,-574,-161,-225,-97,93,37,-295
2,966134,-1428,494,-569,-155,-229,-93,93,37,-295
2,966139,-1428,494,-569,-155,-229,-93,93,37,-295
2,966147,-1428,494,-569,-155,-229,-93,93,37,-295
2,966154,-1424,494,-571,-162,-229,-90,93,37,-295
2,966159,-1424,494,-571,-162,-229,-90,93,37,-295
2,966166,-1424,494,-571,-162,-229,-90,93,37,-295
2,966171,-1427,495,-575,-160,-222,-89,93,37,-295
2,966177,-1427,495,-575,-160,-222,-89,93,37,-295
2,966184,-1427,495,-575,-160,-222,-89,93,37,-295
2,966190,-1424,492,-575,-160,-214,-87,93,37,-295
2,966195,-1424,492,-575,-160,-214,-87,93,37,-295
2,966200,-1424,492,-575,-160,-214,-87,93,37,-295
2,966207,-1424,492,-575,-160,-214,-87,93,37,-295
2,966213,-1426,494,-575,-163,-219,-88,95,45,-289
2,966219,-1426,494,-575,-163,-219,-88,95,45,-289
2,966226,-1426,494,-575,-163,-219,-88,95,45,-289
2,966232,-1424,494,-574,-167,-223,-97,95,45,-289
2,966239,-1424,494,-574,-167,-223,-97,95,45,-289
2,966245,-1424,494,-574,-167,-223,-97,95,45,-289
2,966252,-1426,492,-577,-167,-230,-90,95,45,-289
2,966259,-1426,492,-577,-167,-230,-90,95,45,-289
2,966265,-1426,492,-577,-167,-230,-90,95,45,-289
2,966273,-1425,495,-575,-169,-228,-93,95,45,-289
2,966279,-1425,495,-575,-169,-228,-93,95,45,-289
2,966285,-1425,495,-575,-169,-228,-93,95,45,-289
2,966290,-1426,499,-575,-168,-228,-87,95,45,-289
2,966296,-1426,499,-575,-168,-228,-87,95,45,-289
2,966303,-1426,499,-575,-168,-228,-87,95,45,-289
2,966309,-1426,493,-580,-159,-218,-96,95,45,-289
2,966316,-1426,493,-580,-159,-218,-96,95,45,-289
2,966323,-1426,493,-580,-159,-218,-96,95,45,-289
2,966329,-1426,493,-580,-159,-218,-96,95,45,-289
2,966335,-1426,492,-573,-159,-222,-86,92,42,-302
2,966342,-1426,492,-573,-159,-222,-86,92,42,-302
2,966349,-1426,492,-573,-159,-222,-86,92,42,-302
2,966355,-1427,494,-571,-158,-229,-92,92,42,-302
2,966362,-1427,494,-571,-158,-229,-92,92,42,-302
2,966367,-1427,494,-571,-158,-229,-92,92,42,-302
2,966373,-1425,493,-576,-162,-231,-92,92,42,-302
2,966379,-1425,493,-576,-162,-231,-92,92,42,-302
2,966385,-1425,493,-576,-162,-231,-92,92,42,-302
2,966390,-1426,493,-576,-160,-223,-96,92,42,-302
2,966397,-1426,493,-576,-160,-223,-96,92,42,-302
2,966403,-1426,493,-576,-160,-223,-96,92,42,-302
2,966410,-1427,493,-578,-163,-225,-89,92,42,-302
2,966416,-1427,493,-578,-163,-225,-89,92,42,-302
2,966422,-1427,493,-578,-163,-225,-89,92,42,-302
2,966429,-1427,493,-578,-163,-225,-89,92,42,-302
2,966435,-1426,494,-581,-162,-221,-94,92,42,-302
2,966441,-1426,494,-581,-162,-221,-94,92,42,-302
2,966448,-1426,494,-581,-162,-221,-94,92,42,-302
2,966456,-1426,494,-579,-162,-224,-95,82,44,-298
2,966463,-1426,494,-579,-162,-224,-95,82,44,-298
2,966470,-1424,494,-580,-160,-219,-96,82,44,-298
2,966476,-1424,494,-580,-160,-219,-96,82,44,-298
2,966482,-1424,494,-580,-160,-219,-96,82,44,-298
2,966490,-1427,491,-575,-161,-224,-89,82,44,-298
2,966496,-1427,491,-575,-161,-224,-89,82,44,-298
2,966501,-1427,491,-575,-161,-224,-89,82,44,-298
2,966508,-1427,491,-575,-161,-224,-89,82,44,-298
2,966515,-1426,496,-575,-164,-219,-87,82,44,-298
2,966521,-1426,496,-575,-164,-219,-87,82,44,-298
2,966528,-1426,496,-575,-164,-219,-87,82,44,-298
2,966535,-1427,492,-575,-165,-219,-93,82,44,-298
2,966540,-1427,492,-575,-165,-219,-93,82,44,-298
2,966546,-1427,492,-575,-165,-219,-93,82,44,-298
2,966552,-1426,494,-574,-162,-229,-90,82,44,-298
2,966558,-1426,494,-574,-162,-229,-90,82,44,-298
2,966564,-1426,494,-574,-162,-229,-90,82,44,-298
2,966573,-1426,493,-576,-163,-218,-98,82,44,-298
2,966580,-1426,493,-576,-163,-218,-98,82,44,-298
2,966586,-1426,493,-576,-163,-218,-98,82,44,-298
2,966592,-1427,496,-570,-160,-221,-91,93,43,-301
2,966599,-1427,496,-570,-160,-221,-91,93,43,-301
2,966607,-1427,496,-570,-160,-221,-91,93,43,-301
2,966612,-1424,497,-573,-158,-218,-86,93,43,-301
2,966620,-1424,497,-573,-158,-218,-86,93,43,-301
2,966627,-1424,497,-573,-158,-218,-86,93,43,-301
2,966633,-1425,493,-577,-160,-222,-98,93,43,-301
2,966640,-1425,493,-577,-160,-222,-98,93,43,-301
2,966646,-1425,493,-577,-160,-222,-98,93,43,-301
2,966652,-1426,495,-574,-159,-218,-91,93,43,-301
2,966659,-1426,495,-574,-159,-218,-91,93,43,-301
2,966665,-1426,495,-574,-159,-218,-91,93,43,-301
2,966672,-1425,493,-578,-163,-224,-86,93,43,-301
2,966679,-1425,493,-578,-163,-224,-86,93,43,-301
2,966685,-1425,493,-578,-163,-224,-86,93,43,-301
2,966690,-1428,493,-573,-164,-229,-82,93,43,-301
2,966696,-1428,493,-573,-164,-229,-82,93,43,-301
2,966704,-1428,493,-573,-164,-229,-82,93,43,-301
2,966711,-1426,493,-574,-164,-224,-92,89,35,-291
2,966717,-1426,493,-574,-164,-224,-92,89,35,-291
2,966723,-1426,493,-574,-164,-224,-92,89,35,-291
2,966729,-1426,493,-574,-164,-224,-92,89,35,-291
2,966736,-1426,494,-572,-164,-230,-91,89,35,-291
2,966742,-1426,494,-572,-164,-230,-91,89,35,-291
2,966748,-1426,494,-572,-164,-230,-91,89,35,-291
2,966754,-1426,495,-574,-170,-229,-88,89,35,-291
2,966761,-1426,495,-574,-170,-229,-88,89,35,-291
2,966768,-1426,495,-574,-170,-229,-88,89,35,-291
2,966775,-1428,493,-577,-162,-223,-95,89,35,-291
2,966782,-1428,493,-577,-162,-223,-95,89,35,-291
2,966789,-1428,493,-577,-162,-223,-95,89,35,-291
2,966796,-1428,491,-572,-165,-220,-86,89,35,-291
2,966802,-1428,491,-572,-165,-220,-86,89,35,-291
2,966808,-1428,491,-572,-165,-220,-86,89,35,-291
2,966814,-1429,492,-580,-161,-225,-96,89,35,-291
2,966820,-1429,492,-580,-161,-225,-96,89,35,-291
2,966825,-1429,492,-580,-161,-225,-96,89,35,-291
2,966832,-1428,492,-572,-160,-231,-92,88,34,-290
2,966838,-1428,492,-572,-160,-231,-92,88,34,-290
2,966843,-1428,492,-572,-160,-231,-92,88,34,-290
2,966850,-1427,497,-571,-169,-227,-89,88,34,-290
2,966857,-1427,497,-571,-169,-227,-89,88,34,-290
2,966863,-1427,497,-571,-169,-227,-89,88,34,-290
2,966870,-1427,497,-571,-169,-227,-89,88,34,-290
2,966875,-1426,492,-572,-169,-224,-84,88,34,-290
2,966882,-1426,492,-572,-169,-224,-84,88,34,-290
2,966888,-1426,492,-572,-169,-224,-84,88,34,-290
2,966894,-1427,492,-570,-163,-230,-86,88,34,-290
2,966900,-1427,492,-570,-163,-230,-86,88,34,-290
2,966907,-1427,492,-570,-163,-230,-86,88,34,-290
2,966914,-1427,492,-574,-164,-227,-88,88,34,-290
2,966920,-1427,492,-574,-164,-227,-88,88,34,-290
2,966927,-1427,492,-574,-164,-227,-88,88,34,-290
2,966933,-1426,490,-580,-163,-227,-88,88,34,-290
2,966940,-1426,490,-580,-163,-227,-88,88,34,-290
2,966946,-1426,490,-580,-163,-227,-88,88,34,-290
2,966952,-1427,491,-574,-172,-230,-91,93,37,-295
2,966960,-1427,491,-574,-172,-230,-91,93,37,-295
2,966966,-1427,491,-574,-172,-230,-91,93,37,-295
2,966971,-1427,493,-571,-175,-228,-94,93,37,-295
2,966978,-1427,493,-571,-175,-228,-94,93,37,-295
2,966984,-1427,493,-571,-175,-228,-94,93,37,-295
2,966991,-1430,495,-577,-164,-227,-90,93,37,-295
2,966998,-1430,495,-577,-164,-227,-90,93,37,-295
2,967005,-1430,495,-577,-164,-227,-90,93,37,-295
2,967010,-1430,495,-577,-164,-227,-90,93,37,-295
2,967017,-1429,493,-578,-165,-227,-89,93,37,-295
2,967023,-1429,493,-578,-165,-227,-89,93,37,-295
2,967030,-1428,495,-575,-168,-228,-90,93,37,-295
2,967036,-1428,495,-575,-168,-228,-90,93,37,-295
2,967043,-1428,495,-575,-168,-228,-90,93,37,-295
2,967048,-1428,495,-575,-168,-228,-90,93,37,-295
2,967054,-1428,494,-574,-163,-228,-88,93,37,-295
2,967061,-1428,494,-574,-163,-228,-88,93,37,-295
2,967067,-1428,494,-574,-163,-228,-88,93,37,-295
2,967073,-1426,492,-575,-163,-226,-84,87,45,-289
2,967080,-1426,492,-575,-163,-226,-84,87,45,-289
2,967088,-1426,492,-575,-163,-226,-84,87,45,-289
2,967095,-1424,494,-574,-166,-224,-85,87,45,-289
2,967101,-1424,494,-574,-166,-224,-85,87,45,-289
2,967107,-1424,494,-574,-166,-224,-85,87,45,-289
2,967113,-1425,495,-576,-166,-225,-91,87,45,-289
2,967119,-1425,495,-576,-166,-225,-91,87,45,-289
2,967128,-1425,495,-576,-166,-225,-91,87,45,-289
2,967133,-1427,494,-573,-166,-223,-88,87,45,-289
2,967140,-1427,494,-573,-166,-223,-88,87,45,-289
2,967146,-1427,494,-573,-166,-223,-88,87,45,-289
2,967152,-1425,495,-577,-163,-227,-88,87,45,-289
2,967159,-1425,495,-577,-163,-227,-88,87,45,-289
2,967165,-1425,495,-577,-163,-227,-88,87,45,-289
2,967172,-1426,494,-570,-168,-226,-90,87,45,-289
2,967179,-1426,494,-570,-168,-226,-90,87,45,-289
2,967185,-1426,494,-570,-168,-226,-90,87,45,-289
2,967192,-1423,497,-575,-160,-224,-95,87,45,-289
2,967199,-1423,497,-575,-160,-224,-95,87,45,-289
2,967204,-1423,497,-575,-160,-224,-95,87,45,-289
2,967212,-1423,491,-568,-158,-225,-92,87,45,-287
2,967218,-1423,491,-568,-158,-225,-92,87,45,-287
2,967225,-1423,491,-568,-158,-225,-92,87,45,-287
2,967230,-1422,494,-574,-161,-225,-89,87,45,-287
2,967236,-1422,494,-574,-161,-225,-89,87,45,-287
2,967243,-1422,494,-574,-161,-225,-89,87,45,-287
2,967249,-1422,494,-574,-161,-225,-89,87,45,-287
2,967256,-1427,494,-578,-166,-224,-87,87,45,-287
2,967262,-1427,494,-578,-166,-224,-87,87,45,-287
2,967267,-1427,494,-578,-166,-224,-87,87,45,-287
2,967273,-1423,493,-572,-159,-227,-89,87,45,-287
2,967278,-1423,493,-572,-159,-227,-89,87,45,-287
2,967285,-1423,493,-572,-159,-227,-89,87,45,-287
2,967291,-1424,493,-575,-161,-226,-82,87,45,-287
2,967299,-1424,493,-575,-161,-226,-82,87,45,-287
2,967305,-1424,493,-575,-161,-226,-82,87,45,-287
2,967311,-1426,495,-580,-164,-226,-90,87,45,-287
2,967317,-1426,495,-580,-164,-226,-90,87,45,-287
2,967323,-1426,495,-580,-164,-226,-90,87,45,-287
2,967329,-1426,495,-580,-164,-226,-90,87,45,-287
2,967334,-1427,495,-571,-158,-220,-90,91,45,-289
2,967342,-1427,495,-571,-158,-220,-90,91,45,-289
2,967348,-1427,495,-571,-158,-220,-90,91,45,-289
2,967353,-1427,494,-573,-166,-223,-96,91,45,-289
2,967360,-1427,494,-573,-166,-223,-96,91,45,-289
2,967367,-1427,494,-573,-166,-223,-96,91,45,-289
2,967372,-1426,496,-574,-159,-228,-98,91,45,-289
2,967380,-1426,496,-574,-159,-228,-98,91,45,-289
2,967387,-1426,496,-574,-159,-228,-98,91,45,-289
2,967394,-1426,492,-574,-163,-226,-98,91,45,-289
2,967401,-1426,492,-574,-163,-226,-98,91,45,-289
2,967407,-1426,492,-574,-163,-226,-98,91,45,-289
2,967412,-1423,493,-572,-162,-229,-97,91,45,-289
2,967418,-1423,493,-572,-162,-229,-97,91,45,-289
2,967425,-1423,493,-572,-162,-229,-97,91,45,-289
2,967431,-1428,493,-569,-160,-228,-99,91,45,-289
2,967438,-1428,493,-569,-160,-228,-99,91,45,-289
2,967445,-1428,493,-569,-160,-228,-99,91,45,-289
2,967451,-1426,495,-575,-164,-220,-93,95,41,-301
2,967457,-1426,495,-575,-164,-220,-93,95,41,-301
2,967462,-1426,495,-575,-164,-220,-93,95,41,-301
2,967469,-1426,495,-575,-164,-220,-93,95,41,-301
2,967475,-1423,491,-576,-164,-214,-89,95,41,-301
2,967482,-1423,491,-576,-164,-214,-89,95,41,-301
2,967488,-1423,491,-576,-164,-214,-89,95,41,-301
2,967495,-1426,491,-576,-165,-217,-79,95,41,-301
2,967501,-1426,491,-576,-165,-217,-79,95,41,-301
2,967508,-1426,491,-576,-165,-217,-79,95,41,-301
2,967514,-1425,494,-580,-162,-224,-87,95,41,-301
2,967520,-1425,494,-580,-162,-224,-87,95,41,-301
2,967526,-1425,494,-580,-162,-224,-87,95,41,-301
2,967534,-1423,495,-579,-167,-228,-89,95,41,-301
2,967539,-1423,495,-579,-167,-228,-89,95,41,-301
2,967546,-1423,495,-579,-167,-228,-89,95,41,-301
2,967554,-1426,495,-572,-167,-225,-89,95,41,-301
2,967560,-1426,495,-572,-167,-225,-89,95,41,-301
2,967566,-1426,495,-572,-167,-225,-89,95,41,-301
2,967572,-1424,493,-576,-160,-227,-89,81,43,-287
2,967579,-1424,493,-576,-160,-227,-89,81,43,-287
2,967585,-1424,493,-576,-160,-227,-89,81,43,-287
2,967591,-1426,492,-574,-158,-227,-95,81,43,-287
2,967599,-1426,492,-574,-158,-227,-95,81,43,-287
2,967605,-1426,492,-574,-158,-227,-95,81,43,-287
2,967611,-1426,493,-574,-164,-227,-87,81,43,-287
2,967618,-1426,493,-574,-164,-227,-87,81,43,-287
2,967624,-1426,493,-574,-164,-227,-87,81,43,-287
2,967631,-1426,494,-575,-158,-227,-89,81,43,-287
2,967639,-1426,494,-575,-158,-227,-89,81,43,-287
2,967648,-1426,494,-575,-158,-227,-89,81,43,-287
2,967654,-1426,492,-580,-164,-229,-85,81,43,-287
2,967663,-1426,492,-580,-164,-229,-85,81,43,-287
2,967669,-1426,492,-580,-164,-229,-85,81,43,-287
2,967676,-1427,497,-572,-161,-225,-89,81,43,-287
2,967684,-1427,497,-572,-161,-225,-89,81,43,-287
2,967689,-1427,497,-572,-161,-225,-89,81,43,-287
2,967696,-1424,496,-575,-163,-227,-92,89,37,-295
2,967702,-1424,496,-575,-163,-227,-92,89,37,-295
2,967708,-1424,496,-575,-163,-227,-92,89,37,-295
2,967715,-1427,492,-572,-160,-224,-88,89,37,-295
2,967720,-1427,492,-572,-160,-224,-88,89,37,-295
2,967727,-1427,492,-572,-160,-224,-88,89,37,-295
2,967734,-1426,494,-575,-165,-236,-84,89,37,-295
2,967741,-1426,494,-575,-165,-236,-84,89,37,-295
2,967746,-1426,494,-575,-165,-236,-84,89,37,-295
2,967751,-1426,493,-572,-164,-230,-85,89,37,-295
2,967758,-1426,493,-572,-164,-230,-85,89,37,-295
2,967763,-1426,493,-572,-164,-230,-85,89,37,-295
2,967769,-1426,493,-572,-164,-230,-85,89,37,-295
2,967774,-1428,494,-575,-160,-227,-94,89,37,-295
2,967780,-1428,494,-575,-160,-227,-94,89,37,-295
2,967786,-1428,494,-575,-160,-227,-94,89,37,-295
2,967792,-1425,491,-575,-166,-228,-91,89,37,-295
2,967798,-1425,491,-575,-166,-228,-91,89,37,-295
2,967804,-1425,491,-575,-166,-228,-91,89,37,-295
2,967810,-1425,491,-575,-166,-228,-91,89,37,-295
2,967817,-1425,495,-574,-160,-218,-88,89,37,-295
2,967824,-1425,495,-574,-160,-218,-88,89,37,-295
2,967830,-1425,495,-574,-160,-218,-88,89,37,-295
2,967836,-1429,493,-570,-155,-215,-99,94,38,-288
2,967842,-1429,493,-570,-155,-215,-99,94,38,-288
2,967848,-1429,493,-570,-155,-215,-99,94,38,-288
2,967855,-1428,493,-576,-156,-224,-97,94,38,-288
2,967861,-1428,493,-576,-156,-224,-97,94,38,-288
2,967868,-1428,493,-576,-156,-224,-97,94,38,-288
2,967874,-1428,493,-578,-161,-223,-96,94,38,-288
2,967880,-1428,493,-578,-161,-223,-96,94,38,-288
2,967886,-1428,493,-578,-161,-223,-96,94,38,-288
2,967894,-1426,490,-581,-163,-218,-92,94,38,-288
2,967901,-1426,490,-581,-163,-218,-92,94,38,-288
2,967908,-1426,490,-581,-163,-218,-92,94,38,-288
2,967914,-1425,494,-578,-156,-215,-93,94,38,-288
2,967920,-1425,494,-578,-156,-215,-93,94,38,-288
2,967926,-1425,494,-578,-156,-215,-93,94,38,-288
2,967931,-1428,492,-572,-152,-219,-79,94,38,-288
2,967938,-1428,492,-572,-152,-219,-79,94,38,-288
2,967944,-1428,492,-572,-152,-219,-79,94,38,-288
2,967951,-1428,492,-572,-152,-219,-79,94,38,-288
2,967958,-1425,495,-570,-156,-218,-85,84,40,-296
2,967964,-1425,495,-570,-156,-218,-85,84,40,-296
2,967971,-1427,495,-577,-164,-226,-95,84,40,-296
2,967977,-1427,495,-577,-164,-226,-95,84,40,-296
2,967985,-1427,495,-577,-164,-226,-95,84,40,-296
2,967992,-1427,495,-576,-161,-231,-86,84,40,-296
2,967998,-1427,495,-576,-161,-231,-86,84,40,-296
2,968006,-1427,495,-576,-161,-231,-86,84,40,-296
2,968014,-1428,492,-576,-168,-228,-87,84,40,-296
2,968022,-1428,492,-576,-168,-228,-87,84,40,-296
2,968028,-1428,492,-576,-168,-228,-87,84,40,-296
2,968034,-1424,493,-578,-160,-225,-92,84,40,-296
2,968040,-1424,493,-578,-160,-225,-92,84,40,-296
2,968047,-1424,493,-578,-160,-225,-92,84,40,-296
2,968053,-1426,495,-572,-163,-228,-94,84,40,-296
2,968059,-1426,495,-572,-163,-228,-94,84,40,-296
2,968065,-1426,495,-572,-163,-228,-94,84,40,-296
2,968072,-1425,491,-569,-158,-224,-91,87,35,-296
2,968078,-1425,491,-569,-158,-224,-91,87,35,-289
2,968085,-1425,491,-569,-158,-224,-91,87,35,-289
2,968092,-1427,492,-575,-160,-223,-90,87,35,-289
2,968098,-1427,492,-575,-160,-223,-90,87,35,-289
2,968105,-1427,492,-575,-160,-223,-90,87,35,-289
2,968111,-1427,492,-575,-160,-223,-90,87,35,-289
2,968117,-1430,491,-575,-161,-219,-91,87,35,-289
2,968123,-1430,491,-575,-161,-219,-91,87,35,-289
2,968129,-1430,491,-575,-161,-219,-91,87,35,-289
2,968137,-1429,495,-573,-166,-220,-96,87,35,-289
2,968143,-1429,495,-573,-166,-220,-96,87,35,-289
2,968150,-1429,495,-573,-166,-220,-96,87,35,-289
2,968157,-1427,491,-573,-167,-227,-93,87,35,-289
2,968163,-1427,491,-573,-167,-227,-93,87,35,-289
2,968169,-1427,491,-573,-167,-227,-93,87,35,-289
2,968176,-1426,492,-576,-163,-220,-95,87,35,-289
2,968182,-1426,492,-576,-163,-220,-95,87,35,-289
2,968188,-1426,492,-576,-163,-220,-95,87,35,-289
2,968195,-1427,492,-571,-163,-219,-95,93,41,-295
2,968201,-1427,492,-571,-163,-219,-95,93,41,-295
2,968209,-1427,492,-571,-163,-219,-95,93,41,-295
2,968215,-1427,492,-576,-159,-220,-90,93,41,-295
2,968221,-1427,492,-576,-159,-220,-90,93,41,-295
2,968227,-1427,492,-576,-159,-220,-90,93,41,-295
2,968232,-1424,492,-570,-163,-222,-89,93,41,-295
2,968239,-1424,492,-570,-163,-222,-89,93,41,-295
2,968245,-1424,492,-570,-163,-222,-89,93,41,-295
2,968251,-1424,492,-570,-163,-222,-89,93,41,-295
2,968257,-1428,497,-577,-160,-233,-88,93,41,-295
2,968263,-1428,497,-577,-160,-233,-88,93,41,-295
2,968271,-1428,497,-577,-160,-233,-88,93,41,-295
2,968278,-1424,494,-573,-162,-225,-87,93,41,-295
2,968283,-1424,494,-573,-162,-225,-87,93,41,-295
2,968290,-1424,494,-573,-162,-225,-87,93,41,-295
2,968296,-1425,494,-580,-162,-225,-89,93,41,-295
2,968303,-1425,494,-580,-162,-225,-89,93,41,-295
2,968309,-1425,494,-580,-162,-225,-89,93,41,-295
2,968316,-1425,494,-572,-153,-225,-93,93,39,-289
2,968323,-1425,494,-572,-153,-225,-93,93,39,-289
2,968329,-1425,494,-572,-153,-225,-93,93,39,-289
2,968334,-1426,495,-568,-159,-223,-85,93,39,-289
2,968341,-1426,495,-568,-159,-223,-85,93,39,-289
2,968349,-1426,495,-568,-159,-223,-85,93,39,-289
2,968355,-1425,493,-575,-165,-229,-94,93,39,-289
2,968361,-1425,493,-575,-165,-229,-94,93,39,-289
2,968369,-1425,493,-575,-165,-229,-94,93,39,-289
2,968374,-1425,495,-577,-166,-230,-92,93,39,-289
2,968381,-1425,495,-577,-166,-230,-92,93,39,-289
2,968388,-1425,495,-577,-166,-230,-92,93,39,-289
2,968394,-1425,494,-570,-170,-229,-92,93,39,-289
2,968399,-1425,494,-570,-170,-229,-92,93,39,-289
2,968407,-1425,494,-570,-170,-229,-92,93,39,-289
2,968414,-1425,495,-577,-161,-222,-84,93,39,-289
2,968421,-1425,495,-577,-161,-222,-84,93,39,-289
2,968428,-1425,495,-577,-161,-222,-84,93,39,-289
2,968434,-1423,492,-569,-157,-226,-89,93,39,-289
2,968442,-1423,492,-569,-157,-226,-89,93,39,-289
2,968450,-1423,492,-569,-157,-226,-89,93,39,-289
2,968457,-1426,496,-570,-161,-220,-85,93,39,-289
2,968463,-1426,496,-570,-161,-220,-85,93,39,-289
2,968468,-1426,496,-570,-161,-220,-85,93,39,-289
2,968474,-1427,492,-572,-159,-223,-86,93,39,-289
2,968480,-1427,492,-572,-159,-223,-86,93,39,-289
2,968488,-1427,492,-572,-159,-223,-86,93,39,-289
2,968494,-1425,494,-574,-166,-225,-93,93,39,-289
2,968501,-1425,494,-574,-166,-225,-93,93,39,-289
2,968508,-1425,494,-574,-166,-225,-93,93,39,-289
2,968514,-1423,495,-576,-164,-211,-90,93,39,-289
2,968521,-1423,495,-576,-164,-211,-90,93,39,-289
2,968527,-1423,495,-576,-164,-211,-90,93,39,-289
2,968535,-1427,491,-576,-169,-219,-91,93,39,-289
2,968541,-1427,491,-576,-169,-219,-91,93,39,-289
2,968547,-1427,491,-576,-169,-219,-91,93,39,-289
2,968552,-1422,493,-572,-163,-213,-94,93,39,-289
2,968558,-1422,493,-572,-163,-213,-94,93,39,-289
2,968565,-1422,493,-572,-163,-213,-94,93,39,-289
2,968571,-1423,498,-571,-162,-222,-97,90,36,-288
2,968578,-1423,498,-571,-162,-222,-97,90,36,-288
2,968584,-1423,498,-571,-162,-222,-97,90,36,-288
2,968591,-1423,498,-571,-162,-222,-97,90,36,-288
2,968597,-1427,491,-573,-170,-229,-94,90,36,-288
2,968602,-1427,491,-573,-170,-229,-94,90,36,-288
2,968608,-1427,491,-573,-170,-229,-94,90,36,-288
2,968614,-1424,493,-577,-159,-226,-90,90,36,-288
2,968622,-1424,493,-577,-159,-226,-90,90,36,-288
2,968629,-1424,493,-577,-159,-226,-90,90,36,-288
2,968635,-1423,494,-576,-158,-232,-90,90,36,-288
2,968642,-1423,494,-576,-158,-232,-90,90,36,-288
2,968648,-1423,494,-576,-158,-232,-90,90,36,-288
2,968654,-1427,492,-571,-164,-229,-90,90,36,-288
2,968663,-1427,492,-571,-164,-229,-90,90,36,-288
2,968669,-1427,492,-571,-164,-229,-90,90,36,-288
2,968677,-1425,494,-570,-165,-222,-92,90,36,-288
2,968684,-1425,494,-570,-165,-222,-92,90,36,-288
2,968691,-1427,493,-567,-168,-230,-90,85,39,-288
2,968697,-1427,493,-567,-168,-230,-90,85,39,-293
2,968705,-1427,493,-567,-168,-230,-90,85,39,-293
2,968711,-1427,493,-567,-168,-230,-90,85,39,-293
2,968718,-1425,493,-572,-168,-234,-86,85,39,-293
2,968724,-1425,493,-572,-168,-234,-86,85,39,-293
2,968731,-1425,493,-572,-168,-234,-86,85,39,-293
2,968738,-1426,493,-576,-159,-233,-90,85,39,-293
2,968744,-1426,493,-576,-159,-233,-90,85,39,-293
2,968753,-1427,492,-579,-157,-230,-87,85,39,-293
2,968760,-1427,492,-579,-157,-230,-87,85,39,-293
2,968766,-1427,492,-579,-157,-230,-87,85,39,-293
2,968772,-1423,494,-577,-164,-227,-83,85,39,-293
2,968778,-1423,494,-577,-164,-227,-83,85,39,-293
2,968785,-1423,494,-577,-164,-227,-83,85,39,-293
2,968792,-1426,493,-577,-164,-227,-88,85,39,-293
2,968799,-1426,493,-577,-164,-227,-88,85,39,-293
2,968806,-1426,493,-577,-164,-227,-88,85,39,-293
2,968812,-1424,495,-567,-162,-229,-91,92,34,-286
2,968819,-1424,495,-567,-162,-229,-91,92,34,-286
2,968825,-1424,495,-567,-162,-229,-91,92,34,-286
2,968833,-1424,491,-573,-160,-231,-91,92,34,-286
2,968840,-1424,491,-573,-160,-231,-91,92,34,-286
2,968846,-1424,491,-573,-160,-231,-91,92,34,-286
2,968854,-1425,491,-576,-161,-234,-86,92,34,-286
2,968860,-1425,491,-576,-161,-234,-86,92,34,-286
2,968867,-1425,491,-576,-161,-234,-86,92,34,-286
2,968873,-1426,493,-578,-166,-236,-88,92,34,-286
2,968880,-1426,493,-578,-166,-236,-88,92,34,-286
2,968886,-1426,493,-578,-166,-236,-88,92,34,-286
2,968893,-1427,496,-576,-169,-227,-93,92,34,-286
2,968899,-1427,496,-576,-169,-227,-93,92,34,-286
2,968906,-1427,496,-576,-169,-227,-93,92,34,-286
2,968913,-1424,498,-578,-165,-225,-83,92,34,-286
2,968920,-1424,498,-578,-165,-225,-83,92,34,-286
2,968927,-1424,498,-578,-165,-225,-83,92,34,-286
2,968934,-1425,491,-574,-159,-215,-86,90,38,-292
2,968942,-1425,491,-574,-159,-215,-86,90,38,-292
2,968948,-1425,491,-574,-159,-215,-86,90,38,-292
2,968954,-1423,495,-569,-163,-220,-93,90,38,-292
2,968962,-1423,495,-569,-163,-220,-93,90,38,-292
2,968968,-1423,495,-569,-163,-220,-93,90,38,-292
2,968973,-1424,497,-577,-157,-227,-95,90,38,-292
2,968980,-1424,497,-577,-157,-227,-95,90,38,-292
2,968987,-1424,497,-577,-157,-227,-95,90,38,-292
2,968993,-1425,494,-579,-163,-224,-97,90,38,-292
2,968999,-1425,494,-579,-163,-224,-97,90,38,-292
2,969007,-1425,494,-579,-163,-224,-97,90,38,-292
2,969013,-1425,494,-571,-170,-234,-91,90,38,-292
2,969019,-1425,494,-571,-170,-234,-91,90,38,-292
2,969026,-1425,494,-571,-170,-234,-91,90,38,-292
2,969031,-1425,494,-571,-170,-234,-91,90,38,-292
2,969037,-1422,495,-574,-170,-227,-96,90,38,-292
2,969043,-1422,495,-574,-170,-227,-96,90,38,-292
2,969051,-1422,495,-574,-170,-227,-96,90,38,-292
2,969058,-1423,495,-574,-167,-225,-94,86,36,-290
2,969063,-1423,495,-574,-167,-225,-94,86,36,-290
