imu,time,ax,ay,az,gx,gy,gz,mx,my,mz
2,3688290,-1321,-1141,-590,4779,78,-83,95,-19,-81
2,3688297,-1323,-1139,-577,4773,76,-87,95,-19,-81
2,3688303,-1323,-1139,-577,4773,76,-87,95,-19,-81
2,3688309,-1323,-1139,-577,4773,76,-87,95,-19,-81
2,3688316,-1322,-1142,-553,4776,66,-84,88,-24,-84
2,3688323,-1322,-1142,-553,4776,66,-84,88,-24,-84
2,3688329,-1322,-1142,-553,4776,66,-84,88,-24,-84
2,3688334,-1329,-1140,-588,4780,62,-79,88,-24,-84
2,3688341,-1329,-1140,-588,4780,62,-79,88,-24,-84
2,3688348,-1329,-1140,-588,4780,62,-79,88,-24,-84
2,3688354,-1319,-1137,-581,4772,67,-80,88,-24,-84
2,3688360,-1319,-1137,-581,4772,67,-80,88,-24,-84
2,3688368,-1319,-1137,-581,4772,67,-80,88,-24,-84
2,3688377,-1322,-1136,-576,4782,78,-87,88,-24,-84
2,3688386,-1322,-1136,-576,4782,78,-87,88,-24,-84
2,3688399,-1322,-1139,-555,4778,68,-80,88,-24,-84
2,3688411,-1322,-1139,-555,4778,68,-80,88,-24,-84
2,3688424,-1325,-1134,-575,4773,64,-85,88,-24,-84
2,3688437,-1328,-1134,-561,4779,76,-84,88,-24,-84
2,3688451,-1328,-1134,-561,4779,76,-84,88,-24,-84
2,3688466,-1320,-1140,-572,4776,68,-79,81,-21,-79
2,3688473,-1320,-1140,-572,4776,68,-79,81,-21,-79
2,3688485,-1322,-1141,-512,4780,64,-71,81,-21,-79
2,3688495,-1320,-1146,-568,4778,61,-73,81,-21,-79
2,3688508,-1320,-1146,-568,4778,61,-73,81,-21,-79
2,3688522,-1328,-1139,-545,4774,72,-80,81,-21,-79
2,3688531,-1328,-1139,-545,4774,72,-80,81,-21,-79
2,3688544,-1320,-1144,-570,4777,72,-75,81,-21,-79
2,3688558,-1321,-1127,-538,4781,67,-79,81,-21,-79
2,3688571,-1321,-1127,-538,4781,67,-79,81,-21,-79
2,3688586,-1323,-1152,-554,4787,53,-77,86,-28,-74
2,3688599,-1328,-1134,-559,4794,60,-82,86,-28,-74
2,3688610,-1328,-1134,-559,4794,60,-82,86,-28,-74
2,3688625,-1318,-1153,-550,4787,74,-89,86,-28,-74
2,3688640,-1318,-1138,-540,4783,75,-82,86,-28,-74
2,3688654,-1318,-1138,-540,4783,75,-82,86,-28,-74
2,3688668,-1319,-1150,-550,4787,58,-84,86,-28,-74
2,3688683,-1327,-1143,-537,4788,68,-88,86,-28,-74
2,3688698,-1319,-1150,-555,4790,67,-84,76,-18,-84
2,3688712,-1319,-1150,-555,4790,67,-84,76,-18,-84
2,3688725,-1321,-1141,-533,4788,69,-84,76,-18,-84
2,3688739,-1320,-1151,-548,4788,58,-75,76,-18,-84
2,3688753,-1320,-1151,-548,4788,58,-75,76,-18,-84
2,3688764,-1325,-1137,-564,4792,51,-84,76,-18,-84
2,3688777,-1320,-1155,-562,4787,73,-83,76,-18,-84
2,3688791,-1320,-1155,-562,4787,73,-83,76,-18,-84
2,3688804,-1320,-1141,-566,4793,74,-76,76,-18,-84
2,3688818,-1323,-1153,-561,4795,65,-76,63,-33,-85
2,3688829,-1323,-1153,-561,4795,65,-76,63,-33,-85
2,3688843,-1322,-1141,-560,4794,67,-82,63,-33,-85
2,3688858,-1323,-1149,-569,4792,69,-84,63,-33,-85
2,3688873,-1323,-1149,-569,4792,69,-84,63,-33,-85
2,3688888,-1320,-1147,-567,4795,71,-89,63,-33,-85
2,3688901,-1321,-1147,-564,4795,68,-88,63,-33,-85
2,3688916,-1322,-1149,-569,4796,69,-86,63,-33,-85
2,3688932,-1322,-1149,-569,4796,69,-86,63,-33,-85
2,3688947,-1321,-1148,-571,4796,72,-81,67,-25,-89
2,3688955,-1318,-1146,-599,4792,73,-89,67,-25,-89
2,3688965,-1318,-1146,-599,4792,73,-89,67,-25,-89
2,3688972,-1318,-1146,-599,4792,73,-89,67,-25,-89
2,3688981,-1322,-1145,-586,4784,76,-86,67,-25,-89
2,3688989,-1322,-1145,-586,4784,76,-86,67,-25,-89
2,3688997,-1325,-1146,-577,4789,66,-81,67,-25,-89
2,3689006,-1325,-1146,-577,4789,66,-81,67,-25,-89
2,3689014,-1325,-1146,-577,4789,66,-81,67,-25,-89
2,3689021,-1327,-1143,-591,4786,61,-71,67,-25,-89
2,3689030,-1327,-1143,-591,4786,61,-71,67,-25,-89
2,3689038,-1325,-1140,-600,4792,68,-87,67,-25,-89
2,3689046,-1325,-1140,-600,4792,68,-87,67,-25,-89
2,3689054,-1325,-1140,-600,4792,68,-87,67,-25,-89
2,3689063,-1322,-1146,-603,4787,74,-87,67,-25,-89
2,3689070,-1322,-1146,-603,4787,74,-87,67,-25,-89
2,3689078,-1318,-1141,-593,4786,65,-85,56,-26,-88
2,3689086,-1318,-1141,-593,4786,65,-85,56,-26,-88
2,3689095,-1318,-1141,-593,4786,65,-85,56,-26,-88
2,3689103,-1320,-1146,-580,4788,59,-83,56,-26,-88
2,3689111,-1320,-1146,-580,4788,59,-83,56,-26,-88
2,3689119,-1326,-1135,-608,4781,65,-81,56,-26,-88
2,3689127,-1326,-1135,-608,4781,65,-81,56,-26,-88
2,3689136,-1324,-1140,-596,4784,69,-83,56,-26,-88
2,3689144,-1324,-1140,-596,4784,69,-83,56,-26,-88
2,3689152,-1324,-1140,-596,4784,69,-83,56,-26,-88
2,3689160,-1326,-1140,-588,4778,66,-75,56,-26,-88
2,3689168,-1326,-1140,-588,4778,66,-75,56,-26,-88
2,3689177,-1325,-1135,-586,4776,70,-82,56,-26,-88
2,3689185,-1325,-1135,-586,4776,70,-82,56,-26,-88
2,3689193,-1325,-1135,-586,4776,70,-82,56,-26,-88
2,3689200,-1322,-1131,-585,4779,66,-81,52,-40,-90
2,3689209,-1322,-1131,-585,4779,66,-81,52,-40,-90
2,3689219,-1327,-1140,-584,4780,65,-76,52,-40,-90
2,3689228,-1327,-1140,-584,4780,65,-76,52,-40,-90
2,3689237,-1319,-1134,-579,4784,68,-83,52,-40,-90
2,3689245,-1319,-1134,-579,4784,68,-83,52,-40,-90
2,3689253,-1319,-1134,-579,4784,68,-83,52,-40,-90
2,3689261,-1324,-1143,-549,4785,67,-82,52,-40,-90
2,3689269,-1324,-1143,-549,4785,67,-82,52,-40,-90
2,3689277,-1325,-1136,-602,4781,64,-85,52,-40,-90
2,3689285,-1325,-1136,-602,4781,64,-85,52,-40,-90
2,3689292,-1325,-1136,-602,4781,64,-85,52,-40,-90
2,3689300,-1326,-1136,-577,4778,72,-71,52,-40,-90
2,3689310,-1326,-1136,-577,4778,72,-71,52,-40,-90
2,3689318,-1320,-1138,-580,4782,76,-76,40,-34,-92
2,3689328,-1320,-1138,-580,4782,76,-76,40,-34,-92
2,3689338,-1326,-1139,-549,4773,57,-81,40,-34,-92
2,3689348,-1326,-1139,-549,4773,57,-81,40,-34,-92
2,3689356,-1325,-1142,-576,4781,60,-90,40,-34,-92
2,3689366,-1325,-1142,-576,4781,60,-90,40,-34,-92
2,3689379,-1324,-1133,-556,4773,69,-82,40,-34,-92
2,3689393,-1324,-1133,-556,4773,69,-82,40,-34,-92
2,3689406,-1323,-1142,-567,4772,76,-86,40,-34,-92
2,3689420,-1319,-1134,-513,4781,64,-83,40,-34,-92
2,3689433,-1319,-1134,-513,4781,64,-83,40,-34,-92
2,3689446,-1323,-1146,-568,4778,58,-91,37,-33,-85
2,3689460,-1328,-1135,-550,4777,65,-92,37,-33,-85
2,3689476,-1317,-1145,-560,4781,69,-87,37,-33,-85
2,3689489,-1317,-1145,-560,4781,69,-87,37,-33,-85
2,3689501,-1322,-1134,-550,4785,65,-86,37,-33,-85
2,3689509,-1322,-1134,-550,4785,65,-86,37,-33,-85
2,3689524,-1321,-1148,-558,4784,57,-83,37,-33,-85
2,3689535,-1321,-1148,-558,4784,57,-83,37,-33,-85
2,3689547,-1327,-1136,-566,4786,67,-83,37,-33,-85
2,3689562,-1318,-1145,-553,4788,74,-79,26,-32,-94
2,3689575,-1318,-1145,-553,4788,74,-79,26,-32,-94
2,3689588,-1321,-1133,-538,4786,64,-76,26,-32,-94
2,3689601,-1322,-1151,-550,4791,63,-77,26,-32,-94
2,3689615,-1322,-1151,-550,4791,63,-77,26,-32,-94
2,3689628,-1325,-1133,-536,4778,67,-86,26,-32,-94
2,3689641,-1320,-1155,-556,4785,73,-86,26,-32,-94
2,3689656,-1321,-1135,-543,4792,78,-80,26,-32,-94
2,3689667,-1321,-1135,-543,4792,78,-80,26,-32,-94
2,3689681,-1320,-1151,-550,4798,71,-87,26,-32,-94
2,3689696,-1320,-1151,-550,4798,71,-87,26,-32,-94
2,3689711,-1324,-1135,-559,4792,69,-84,26,-32,-86
2,3689726,-1319,-1147,-558,4786,71,-81,26,-32,-86
2,3689740,-1323,-1142,-565,4790,67,-75,26,-32,-86
2,3689751,-1323,-1142,-565,4790,67,-75,26,-32,-86
2,3689765,-1321,-1143,-564,4791,66,-79,26,-32,-86
2,3689779,-1326,-1149,-570,4789,61,-85,26,-32,-86
2,3689792,-1326,-1149,-570,4789,61,-85,26,-32,-86
2,3689807,-1321,-1148,-569,4791,65,-81,26,-32,-86
2,3689820,-1323,-1142,-565,4785,63,-86,23,-33,-95
2,3689833,-1323,-1142,-565,4785,63,-86,23,-33,-95
2,3689847,-1325,-1153,-567,4786,56,-84,23,-33,-95
2,3689862,-1321,-1140,-566,4788,68,-84,23,-33,-95
2,3689875,-1321,-1140,-566,4788,68,-84,23,-33,-95
2,3689890,-1325,-1147,-572,4794,71,-83,23,-33,-95
2,3689906,-1322,-1143,-602,4794,64,-88,23,-33,-95
2,3689919,-1320,-1143,-585,4790,64,-85,23,-33,-95
2,3689927,-1320,-1143,-585,4790,64,-85,23,-33,-95
2,3689935,-1320,-1143,-585,4790,64,-85,23,-33,-95
2,3689942,-1325,-1143,-569,4786,67,-81,9,-27,-93
2,3689951,-1325,-1143,-569,4786,67,-81,9,-27,-93
2,3689960,-1319,-1140,-594,4785,60,-84,9,-27,-93
2,3689969,-1319,-1140,-594,4785,60,-84,9,-27,-93
2,3689978,-1326,-1151,-596,4783,74,-79,9,-27,-93
2,3689989,-1326,-1151,-596,4783,74,-79,9,-27,-93
2,3689997,-1319,-1139,-605,4780,77,-82,9,-27,-93
2,3690005,-1319,-1139,-605,4780,77,-82,9,-27,-93
2,3690013,-1319,-1139,-605,4780,77,-82,9,-27,-93
2,3690021,-1322,-1146,-591,4783,69,-86,9,-27,-93
2,3690031,-1322,-1146,-591,4783,69,-86,9,-27,-93
2,3690039,-1324,-1141,-586,4788,66,-88,9,-27,-93
2,3690048,-1324,-1141,-586,4788,66,-88,9,-27,-93
2,3690056,-1323,-1140,-597,4791,66,-85,7,-15,-91
2,3690065,-1323,-1140,-597,4791,66,-85,7,-15,-91
2,3690075,-1323,-1140,-597,4791,66,-85,7,-15,-91
2,3690083,-1323,-1140,-596,4788,70,-84,7,-15,-91
2,3690092,-1323,-1140,-596,4788,70,-84,7,-15,-91
2,3690100,-1319,-1138,-593,4787,74,-87,7,-15,-91
2,3690108,-1319,-1138,-593,4787,74,-87,7,-15,-91
2,3690119,-1328,-1139,-580,4786,66,-81,7,-15,-91
2,3690128,-1328,-1139,-580,4786,66,-81,7,-15,-91
2,3690137,-1319,-1138,-596,4776,72,-83,7,-15,-91
2,3690145,-1319,-1138,-596,4776,72,-83,7,-15,-91
2,3690155,-1319,-1138,-596,4776,72,-83,7,-15,-91
2,3690163,-1325,-1135,-580,4774,80,-82,7,-15,-91
2,3690172,-1325,-1135,-580,4774,80,-82,7,-15,-91
2,3690180,-1320,-1141,-586,4775,67,-84,5,-17,-95
2,3690189,-1320,-1141,-586,4775,67,-84,5,-17,-95
2,3690198,-1319,-1130,-564,4783,69,-87,5,-17,-95
2,3690207,-1319,-1130,-564,4783,69,-87,5,-17,-95
2,3690215,-1319,-1130,-564,4783,69,-87,5,-17,-95
2,3690223,-1326,-1145,-567,4779,63,-88,5,-17,-95
2,3690231,-1326,-1145,-567,4779,63,-88,5,-17,-95
2,3690240,-1318,-1128,-597,4775,64,-82,5,-17,-95
2,3690248,-1318,-1128,-597,4775,64,-82,5,-17,-95
2,3690256,-1323,-1143,-568,4776,69,-84,5,-17,-95
2,3690265,-1323,-1143,-568,4776,69,-84,5,-17,-95
2,3690273,-1323,-1143,-568,4776,69,-84,5,-17,-95
2,3690283,-1320,-1128,-580,4780,67,-85,5,-17,-95
2,3690291,-1320,-1128,-580,4780,67,-85,5,-17,-95
2,3690301,-1326,-1137,-554,4787,60,-79,-13,-17,-111
2,3690308,-1326,-1137,-554,4787,60,-79,-13,-17,-111
2,3690316,-1328,-1136,-565,4781,59,-84,-13,-17,-111
2,3690326,-1328,-1136,-565,4781,59,-84,-13,-17,-111
2,3690334,-1328,-1136,-565,4781,59,-84,-13,-17,-111
2,3690343,-1321,-1137,-560,4776,77,-87,-13,-17,-111
2,3690351,-1321,-1137,-560,4776,77,-87,-13,-17,-111
2,3690359,-1321,-1140,-550,4782,72,-86,-13,-17,-111
2,3690368,-1321,-1140,-550,4782,72,-86,-13,-17,-111
2,3690377,-1323,-1145,-538,4787,64,-80,-13,-17,-111
2,3690385,-1323,-1145,-538,4787,64,-80,-13,-17,-111
2,3690395,-1323,-1145,-538,4787,64,-80,-13,-17,-111
2,3690404,-1322,-1138,-570,4781,68,-78,-13,-17,-111
2,3690414,-1322,-1138,-570,4781,68,-78,-13,-17,-111
2,3690422,-1327,-1144,-542,4781,75,-84,-13,-17,-111
2,3690431,-1327,-1144,-542,4781,75,-84,-13,-17,-111
2,3690439,-1319,-1132,-571,4786,74,-86,-11,-13,-105
2,3690447,-1319,-1132,-571,4786,74,-86,-11,-13,-105
2,3690457,-1323,-1147,-550,4785,61,-77,-11,-13,-105
2,3690464,-1323,-1147,-550,4785,61,-77,-11,-13,-105
2,3690474,-1323,-1147,-550,4785,61,-77,-11,-13,-105
2,3690482,-1323,-1147,-550,4785,61,-77,-11,-13,-105
2,3690490,-1323,-1147,-550,4785,61,-77,-11,-13,-105
2,3690499,-1324,-1137,-556,4790,69,-83,-11,-13,-105
2,3690507,-1324,-1137,-556,4790,69,-83,-11,-13,-105
2,3690514,-1324,-1137,-556,4790,69,-83,-11,-13,-105
2,3690523,-1320,-1138,-547,4784,68,-75,-11,-13,-105
2,3690530,-1320,-1138,-547,4784,68,-75,-11,-13,-105
2,3690540,-1320,-1141,-554,4777,58,-79,-11,-13,-105
2,3690548,-1320,-1141,-554,4777,58,-79,-11,-13,-105
2,3690556,-1326,-1140,-535,4781,67,-79,-11,-13,-105
2,3690564,-1326,-1140,-535,4781,67,-79,-9,-13,-117
2,3690572,-1326,-1140,-535,4781,67,-79,-9,-13,-117
2,3690582,-1320,-1143,-545,4777,70,-81,-9,-13,-117
2,3690590,-1320,-1143,-545,4777,70,-81,-9,-13,-117
2,3690599,-1324,-1141,-549,4781,70,-77,-9,-13,-117
2,3690607,-1324,-1141,-549,4781,70,-77,-9,-13,-117
2,3690616,-1324,-1141,-549,4781,70,-77,-9,-13,-117
2,3690625,-1320,-1145,-549,4791,73,-79,-9,-13,-117
2,3690633,-1320,-1145,-549,4791,73,-79,-9,-13,-117
2,3690642,-1322,-1138,-558,4789,74,-83,-9,-13,-117
2,3690650,-1322,-1138,-558,4789,74,-83,-9,-13,-117
2,3690657,-1319,-1152,-563,4794,81,-82,-9,-13,-117
2,3690665,-1319,-1152,-563,4794,81,-82,-9,-13,-117
2,3690675,-1319,-1152,-563,4794,81,-82,-9,-13,-117
2,3690683,-1319,-1135,-558,4794,76,-79,-12,-12,-120
2,3690692,-1319,-1135,-558,4794,76,-79,-12,-12,-120
2,3690700,-1321,-1149,-571,4793,66,-75,-12,-12,-120
2,3690708,-1321,-1149,-571,4793,66,-75,-12,-12,-120
2,3690717,-1321,-1149,-571,4793,66,-75,-12,-12,-120
2,3690725,-1325,-1137,-564,4789,73,-79,-12,-12,-120
2,3690734,-1325,-1137,-564,4789,73,-79,-12,-12,-120
2,3690742,-1323,-1143,-569,4791,73,-82,-12,-12,-120
2,3690752,-1323,-1143,-569,4791,73,-82,-12,-12,-120
2,3690761,-1322,-1144,-560,4793,66,-77,-12,-12,-120
2,3690768,-1322,-1144,-560,4793,66,-77,-12,-12,-120
2,3690777,-1320,-1145,-567,4798,66,-80,-12,-12,-120
2,3690785,-1320,-1145,-567,4798,66,-80,-12,-12,-120
2,3690793,-1320,-1145,-567,4798,66,-80,-12,-12,-120
2,3690801,-1323,-1147,-565,4791,75,-80,-9,-19,-119
2,3690810,-1323,-1147,-565,4791,75,-80,-9,-19,-119
2,3690818,-1319,-1143,-577,4793,67,-80,-9,-19,-119
2,3690826,-1319,-1143,-577,4793,67,-80,-9,-19,-119
2,3690835,-1319,-1143,-577,4793,67,-80,-9,-19,-119
2,3690844,-1324,-1148,-578,4792,65,-78,-9,-19,-119
2,3690851,-1324,-1148,-578,4792,65,-78,-9,-19,-119
2,3690859,-1324,-1145,-605,4789,66,-80,-9,-19,-119
2,3690868,-1324,-1145,-605,4789,66,-80,-9,-19,-119
2,3690877,-1322,-1142,-573,4789,72,-74,-9,-19,-119
2,3690888,-1322,-1142,-573,4789,72,-74,-9,-19,-119
2,3690895,-1322,-1142,-573,4789,72,-74,-9,-19,-119
2,3690905,-1325,-1146,-582,4787,57,-66,-9,-19,-119
2,3690913,-1325,-1146,-582,4787,57,-66,-9,-19,-119
2,3690923,-1324,-1133,-586,4782,58,-77,-6,-8,-134
2,3690937,-1324,-1133,-586,4782,58,-77,-6,-8,-134
2,3690950,-1322,-1144,-596,4782,71,-81,-6,-8,-134
2,3690964,-1323,-1134,-595,4784,73,-80,-6,-8,-134
2,3690980,-1322,-1145,-595,4786,62,-84,-6,-8,-134
2,3690995,-1322,-1145,-595,4786,62,-84,-6,-8,-134
2,3691006,-1327,-1138,-579,4782,61,-87,-6,-8,-134
2,3691021,-1319,-1143,-607,4786,59,-81,-6,-8,-134
2,3691034,-1319,-1143,-607,4786,59,-81,-6,-8,-134
2,3691047,-1328,-1138,-590,4780,73,-83,-6,-8,-134
2,3691063,-1320,-1141,-596,4780,71,-77,-16,-14,-136
2,3691076,-1320,-1141,-596,4780,71,-77,-16,-14,-136
2,3691088,-1331,-1135,-585,4780,56,-83,-16,-14,-136
2,3691104,-1322,-1142,-590,4774,66,-84,-16,-14,-136
2,3691119,-1322,-1131,-584,4776,69,-82,-16,-14,-136
2,3691134,-1322,-1131,-584,4776,69,-82,-16,-14,-136
2,3691150,-1322,-1143,-585,4778,62,-81,-16,-14,-136
2,3691162,-1320,-1128,-557,4779,64,-77,-16,-14,-136
2,3691176,-1320,-1128,-557,4779,64,-77,-16,-14,-136
2,3691191,-1326,-1146,-585,4778,63,-79,-12,-16,-142
2,3691204,-1322,-1127,-585,4778,67,-81,-12,-16,-142
2,3691217,-1317,-1141,-578,4777,73,-83,-12,-16,-142
2,3691232,-1317,-1141,-578,4777,73,-83,-12,-16,-142
2,3691246,-1325,-1131,-566,4775,62,-80,-12,-16,-142
2,3691258,-1324,-1139,-573,4773,55,-84,-12,-16,-142
2,3691272,-1324,-1139,-573,4773,55,-84,-12,-16,-142
2,3691287,-1332,-1130,-566,4776,62,-79,-12,-16,-142
2,3691300,-1318,-1141,-563,4774,69,-81,-13,-13,-149
2,3691315,-1318,-1141,-563,4774,69,-81,-13,-13,-149
2,3691329,-1325,-1131,-543,4779,63,-81,-13,-13,-149
2,3691344,-1324,-1145,-542,4785,64,-79,-13,-13,-149
2,3691360,-1325,-1130,-554,4780,72,-83,-13,-13,-149
2,3691373,-1325,-1130,-554,4780,72,-83,-13,-13,-149
2,3691381,-1322,-1150,-561,4777,77,-82,-13,-13,-149
2,3691395,-1322,-1150,-561,4777,77,-82,-13,-13,-149
2,3691409,-1319,-1123,-562,4786,71,-85,-13,-13,-149
2,3691423,-1322,-1151,-547,4784,62,-88,-7,-11,-143
2,3691437,-1322,-1151,-547,4784,62,-88,-7,-11,-143
2,3691451,-1329,-1130,-563,4779,59,-84,-7,-11,-143
2,3691465,-1323,-1147,-548,4783,64,-87,-7,-11,-143
2,3691480,-1323,-1131,-549,4779,73,-88,-7,-11,-143
2,3691492,-1323,-1131,-549,4779,73,-88,-7,-11,-143
2,3691506,-1319,-1143,-543,4786,72,-89,-7,-11,-143
2,3691520,-1330,-1142,-533,4782,58,-87,-7,-11,-143
2,3691533,-1330,-1142,-533,4782,58,-87,-7,-11,-143
2,3691548,-1319,-1141,-552,4787,63,-81,0,-12,-154
2,3691564,-1324,-1137,-533,4789,67,-78,0,-12,-154
2,3691579,-1325,-1150,-554,4789,58,-72,0,-12,-154
2,3691593,-1325,-1150,-554,4789,58,-72,0,-12,-154
2,3691608,-1326,-1133,-552,4793,67,-80,0,-12,-154
2,3691621,-1326,-1155,-564,4793,62,-84,0,-12,-154
2,3691635,-1326,-1155,-564,4793,62,-84,0,-12,-154
2,3691649,-1319,-1135,-567,4789,69,-77,0,-12,-154
2,3691662,-1323,-1154,-572,4798,70,-72,0,-12,-154
2,3691675,-1323,-1154,-572,4798,70,-72,0,-12,-154
2,3691688,-1321,-1136,-566,4791,65,-77,-6,-20,-154
2,3691703,-1320,-1150,-562,4797,68,-81,-6,-20,-154
2,3691716,-1320,-1150,-562,4797,68,-81,-6,-20,-154
2,3691729,-1323,-1142,-570,4793,68,-77,-6,-20,-154
2,3691742,-1317,-1145,-575,4789,69,-72,-6,-20,-154
2,3691757,-1317,-1145,-575,4789,69,-72,-6,-20,-154
2,3691772,-1327,-1146,-575,4791,62,-79,-6,-20,-154
2,3691787,-1321,-1151,-569,4797,66,-77,-6,-20,-154
2,3691798,-1326,-1143,-600,4798,67,-75,-6,-20,-154
2,3691812,-1326,-1143,-600,4798,67,-75,-2,-8,-158
2,3691826,-1327,-1147,-585,4785,72,-83,-2,-8,-158
2,3691839,-1321,-1136,-585,4793,62,-80,-2,-8,-158
2,3691853,-1321,-1136,-585,4793,62,-80,-2,-8,-158
2,3691868,-1326,-1146,-592,4784,64,-76,-2,-8,-158
2,3691882,-1322,-1134,-590,4790,66,-80,-2,-8,-158
2,3691893,-1322,-1134,-590,4790,66,-80,-2,-8,-158
2,3691908,-1323,-1147,-599,4791,73,-80,-2,-8,-158
2,3691922,-1320,-1137,-594,4789,66,-80,2,-8,-168
2,3691933,-1320,-1137,-594,4789,66,-80,2,-8,-168
2,3691941,-1322,-1148,-580,4788,75,-82,2,-8,-168
2,3691951,-1322,-1148,-580,4788,75,-82,2,-8,-168
2,3691959,-1329,-1137,-602,4780,65,-76,2,-8,-168
2,3691967,-1329,-1137,-602,4780,65,-76,2,-8,-168
2,3691974,-1329,-1137,-602,4780,65,-76,2,-8,-168
2,3691983,-1324,-1140,-597,4785,76,-79,2,-8,-168
2,3691992,-1324,-1140,-597,4785,76,-79,2,-8,-168
2,3692001,-1323,-1144,-599,4790,67,-84,2,-8,-168
2,3692010,-1323,-1144,-599,4790,67,-84,2,-8,-168
2,3692018,-1325,-1137,-581,4783,65,-81,2,-8,-168
2,3692027,-1325,-1137,-581,4783,65,-81,2,-8,-168
2,3692036,-1325,-1137,-581,4783,65,-81,2,-8,-168
2,3692043,-1326,-1140,-595,4784,63,-82,5,-5,-163
2,3692052,-1326,-1140,-595,4784,63,-82,5,-5,-163
2,3692060,-1329,-1137,-583,4783,70,-74,5,-5,-163
2,3692068,-1329,-1137,-583,4783,70,-74,5,-5,-163
2,3692078,-1329,-1137,-583,4783,70,-74,5,-5,-163
2,3692086,-1320,-1137,-596,4788,77,-80,5,-5,-163
2,3692095,-1320,-1137,-596,4788,77,-80,5,-5,-163
2,3692102,-1324,-1144,-560,4780,79,-76,5,-5,-163
2,3692111,-1324,-1144,-560,4780,79,-76,5,-5,-163
2,3692120,-1326,-1141,-570,4776,65,-84,5,-5,-163
2,3692129,-1326,-1141,-570,4776,65,-84,5,-5,-163
2,3692137,-1326,-1141,-570,4776,65,-84,5,-5,-163
2,3692146,-1324,-1138,-599,4782,67,-83,5,-5,-163
2,3692153,-1324,-1138,-599,4782,67,-83,5,-5,-163
2,3692163,-1324,-1136,-573,4779,80,-82,14,-6,-172
2,3692172,-1324,-1136,-573,4779,80,-82,14,-6,-172
2,3692181,-1318,-1133,-575,4775,75,-88,14,-6,-172
2,3692189,-1318,-1133,-575,4775,75,-88,14,-6,-172
2,3692198,-1328,-1139,-560,4779,63,-89,14,-6,-172
2,3692206,-1328,-1139,-560,4779,63,-89,14,-6,-172
2,3692214,-1328,-1139,-560,4779,63,-89,14,-6,-172
2,3692223,-1319,-1135,-579,4779,67,-81,14,-6,-172
2,3692231,-1319,-1135,-579,4779,67,-81,14,-6,-172
2,3692239,-1324,-1143,-564,4783,78,-84,14,-6,-172
2,3692249,-1324,-1143,-564,4783,78,-84,14,-6,-172
2,3692256,-1324,-1143,-564,4783,78,-84,14,-6,-172
2,3692265,-1317,-1138,-559,4783,78,-86,14,-6,-172
2,3692273,-1317,-1138,-559,4783,78,-86,14,-6,-172
2,3692281,-1327,-1142,-556,4781,63,-79,14,-6,-172
2,3692290,-1327,-1142,-556,4781,63,-79,14,-6,-172
2,3692299,-1327,-1140,-544,4779,69,-77,12,6,-172
2,3692307,-1327,-1140,-544,4779,69,-77,12,6,-172
2,3692317,-1327,-1140,-544,4779,69,-77,12,6,-172
2,3692324,-1324,-1138,-564,4779,78,-80,12,6,-172
2,3692334,-1324,-1138,-564,4779,78,-80,12,6,-172
2,3692343,-1326,-1140,-559,4787,75,-79,12,6,-172
2,3692350,-1326,-1140,-559,4787,75,-79,12,6,-172
2,3692358,-1319,-1137,-559,4780,72,-84,12,6,-172
2,3692367,-1319,-1137,-559,4780,72,-84,12,6,-172
2,3692376,-1319,-1137,-559,4780,72,-84,12,6,-172
2,3692384,-1328,-1145,-559,4784,54,-85,12,6,-172
2,3692392,-1328,-1145,-559,4784,54,-85,12,6,-172
2,3692401,-1325,-1140,-553,4784,68,-78,12,6,-172
2,3692410,-1325,-1140,-553,4784,68,-78,12,6,-172
2,3692420,-1322,-1140,-539,4779,78,-83,22,-2,-170
2,3692429,-1322,-1140,-539,4779,78,-83,22,-2,-170
2,3692438,-1325,-1145,-552,4788,69,-81,22,-2,-170
2,3692447,-1325,-1145,-552,4788,69,-81,22,-2,-170
2,3692455,-1325,-1145,-552,4788,69,-81,22,-2,-170
2,3692467,-1324,-1134,-526,4791,64,-85,22,-2,-170
2,3692475,-1324,-1134,-526,4791,64,-85,22,-2,-170
2,3692483,-1326,-1148,-552,4785,72,-79,22,-2,-170
2,3692492,-1326,-1148,-552,4785,72,-79,22,-2,-170
2,3692500,-1321,-1140,-544,4787,73,-83,22,-2,-170
2,3692509,-1321,-1140,-544,4787,73,-83,22,-2,-170
2,3692517,-1321,-1140,-544,4787,73,-83,22,-2,-170
2,3692525,-1322,-1147,-551,4788,62,-81,22,-2,-170
2,3692534,-1322,-1147,-551,4788,62,-81,22,-2,-170
2,3692542,-1327,-1141,-556,4799,67,-82,22,2,-172
2,3692551,-1327,-1141,-556,4799,67,-82,22,2,-172
2,3692560,-1321,-1146,-565,4798,64,-88,22,2,-172
2,3692567,-1321,-1146,-565,4798,64,-88,22,2,-172
2,3692575,-1321,-1146,-565,4798,64,-88,22,2,-172
2,3692583,-1327,-1142,-562,4797,78,-84,22,2,-172
2,3692592,-1327,-1142,-562,4797,78,-84,22,2,-172
2,3692600,-1322,-1145,-571,4794,73,-88,22,2,-172
2,3692609,-1322,-1145,-571,4794,73,-88,22,2,-172
2,3692617,-1322,-1145,-571,4794,73,-88,22,2,-172
2,3692626,-1325,-1144,-563,4793,71,-88,22,2,-172
2,3692635,-1325,-1144,-563,4793,71,-88,22,2,-172
2,3692645,-1326,-1143,-561,4793,68,-86,22,2,-172
2,3692653,-1326,-1143,-561,4793,68,-86,22,2,-172
2,3692661,-1321,-1144,-560,4792,69,-85,24,8,-180
2,3692670,-1321,-1144,-560,4792,69,-85,24,8,-180
2,3692679,-1323,-1151,-569,4786,67,-84,24,8,-180
2,3692688,-1323,-1151,-569,4786,67,-84,24,8,-180
2,3692696,-1323,-1151,-569,4786,67,-84,24,8,-180
2,3692705,-1320,-1143,-569,4794,67,-89,24,8,-180
2,3692713,-1320,-1143,-569,4794,67,-89,24,8,-180
2,3692723,-1326,-1151,-574,4798,65,-79,24,8,-180
2,3692732,-1326,-1151,-574,4798,65,-79,24,8,-180
2,3692740,-1326,-1143,-606,4794,68,-79,24,8,-180
2,3692750,-1326,-1143,-606,4794,68,-79,24,8,-180
2,3692759,-1321,-1142,-582,4792,69,-80,24,8,-180
2,3692767,-1321,-1142,-582,4792,69,-80,24,8,-180
2,3692776,-1321,-1142,-582,4792,69,-80,24,8,-180
2,3692782,-1326,-1149,-588,4786,65,-87,34,10,-182
2,3692791,-1326,-1149,-588,4786,65,-87,34,10,-182
2,3692801,-1322,-1137,-587,4788,55,-83,34,10,-182
2,3692810,-1322,-1137,-587,4788,55,-83,34,10,-182
2,3692818,-1322,-1137,-587,4788,55,-83,34,10,-182
2,3692826,-1326,-1151,-595,4784,68,-86,34,10,-182
2,3692835,-1326,-1151,-595,4784,68,-86,34,10,-182
2,3692844,-1322,-1136,-597,4787,74,-78,34,10,-182
2,3692853,-1322,-1136,-597,4787,74,-78,34,10,-182
2,3692863,-1321,-1145,-597,4789,67,-76,34,10,-182
2,3692872,-1321,-1145,-597,4789,67,-76,34,10,-182
2,3692881,-1327,-1140,-591,4789,67,-79,34,10,-182
2,3692891,-1327,-1140,-591,4789,67,-79,34,10,-182
2,3692901,-1326,-1141,-608,4781,70,-94,34,10,-182
2,3692909,-1326,-1141,-608,4781,70,-94,34,10,-182
2,3692918,-1326,-1141,-608,4781,70,-94,34,10,-182
2,3692926,-1330,-1140,-587,4784,70,-88,37,11,-181
2,3692935,-1330,-1140,-587,4784,70,-88,37,11,-181
2,3692948,-1320,-1138,-590,4785,75,-88,37,11,-181
2,3692962,-1325,-1140,-581,4792,62,-88,37,11,-181
2,3692977,-1325,-1140,-581,4792,62,-88,37,11,-181
2,3692990,-1322,-1141,-595,4787,63,-74,37,11,-181
2,3693001,-1325,-1136,-593,4776,66,-79,37,11,-181
2,3693016,-1325,-1136,-593,4776,66,-79,37,11,-181
2,3693030,-1321,-1142,-585,4780,64,-81,37,11,-181
2,3693044,-1321,-1132,-565,4782,68,-87,35,5,-191
2,3693058,-1321,-1132,-565,4782,68,-87,35,5,-191
2,3693072,-1329,-1148,-561,4784,62,-79,35,5,-191
2,3693086,-1322,-1136,-603,4782,64,-78,35,5,-191
2,3693099,-1324,-1146,-568,4783,78,-76,35,5,-191
2,3693114,-1324,-1146,-568,4783,78,-76,35,5,-191
2,3693125,-1319,-1136,-582,4781,71,-87,35,5,-191
2,3693138,-1319,-1136,-582,4781,71,-87,35,5,-191
2,3693154,-1328,-1138,-555,4783,65,-82,35,5,-191
2,3693167,-1328,-1142,-574,4772,64,-79,47,11,-185
2,3693181,-1322,-1133,-561,4773,73,-86,47,11,-185
2,3693195,-1322,-1133,-561,4773,73,-86,47,11,-185
2,3693206,-1319,-1146,-516,4780,72,-85,47,11,-185
2,3693220,-1330,-1139,-556,4776,64,-81,47,11,-185
2,3693234,-1330,-1139,-556,4776,64,-81,47,11,-185
2,3693247,-1323,-1139,-576,4781,78,-80,47,11,-185
2,3693261,-1330,-1144,-555,4786,83,-82,47,11,-185
2,3693275,-1330,-1144,-555,4786,83,-82,47,11,-185
2,3693285,-1317,-1132,-549,4785,73,-89,56,6,-186
2,3693299,-1327,-1148,-546,4784,63,-90,56,6,-186
2,3693315,-1327,-1148,-546,4784,63,-90,56,6,-186
2,3693330,-1324,-1138,-568,4784,59,-85,56,6,-186
2,3693343,-1324,-1140,-569,4786,68,-79,56,6,-186
2,3693358,-1324,-1140,-569,4786,68,-79,56,6,-186
2,3693372,-1322,-1142,-529,4781,72,-82,56,6,-186
2,3693387,-1318,-1149,-556,4785,62,-87,56,6,-186
2,3693402,-1327,-1143,-530,4788,66,-77,58,0,-194
2,3693413,-1327,-1143,-530,4788,66,-77,58,0,-194
2,3693427,-1315,-1151,-556,4787,71,-88,58,0,-194
2,3693437,-1315,-1151,-556,4787,71,-88,58,0,-194
2,3693452,-1327,-1139,-531,4790,72,-81,58,0,-194
2,3693466,-1318,-1152,-549,4789,63,-78,58,0,-194
2,3693479,-1328,-1133,-564,4803,68,-75,58,0,-194
2,3693493,-1328,-1133,-564,4803,68,-75,58,0,-194
2,3693506,-1327,-1152,-570,4799,77,-84,58,0,-194
2,3693518,-1327,-1152,-570,4799,77,-84,58,0,-194
2,3693534,-1322,-1133,-560,4791,71,-85,58,0,-194
2,3693549,-1327,-1153,-568,4789,66,-83,61,-1,-189
2,3693563,-1323,-1140,-564,4794,66,-87,61,-1,-189
2,3693577,-1323,-1140,-564,4794,66,-87,61,-1,-189
2,3693591,-1320,-1152,-577,4788,76,-97,61,-1,-189
2,3693606,-1325,-1142,-562,4789,73,-83,61,-1,-189
2,3693622,-1322,-1147,-570,4792,70,-79,61,-1,-189
2,3693636,-1322,-1147,-570,4792,70,-79,61,-1,-189
2,3693648,-1330,-1152,-566,4789,64,-80,61,-1,-189
2,3693663,-1323,-1146,-579,4791,77,-94,70,-4,-182
2,3693674,-1323,-1146,-579,4791,77,-94,70,-4,-182
2,3693687,-1323,-1151,-575,4794,80,-87,70,-4,-182
2,3693702,-1325,-1146,-607,4791,66,-82,70,-4,-182
2,3693715,-1325,-1146,-607,4791,66,-82,70,-4,-182
2,3693729,-1320,-1145,-570,4795,76,-81,70,-4,-182
2,3693743,-1326,-1149,-587,4790,73,-80,70,-4,-182
2,3693754,-1326,-1149,-587,4790,73,-80,70,-4,-182
2,3693768,-1325,-1140,-590,4791,73,-89,70,-4,-182
2,3693783,-1329,-1144,-597,4787,71,-82,67,1,-191
2,3693797,-1329,-1144,-597,4787,71,-82,67,1,-191
2,3693810,-1326,-1146,-595,4792,71,-85,67,1,-191
2,3693826,-1324,-1148,-594,4783,65,-88,67,1,-191
2,3693841,-1328,-1144,-587,4780,64,-85,67,1,-191
2,3693853,-1328,-1144,-587,4780,64,-85,67,1,-191
2,3693867,-1320,-1141,-604,4777,69,-79,67,1,-191
2,3693881,-1327,-1139,-590,4783,72,-80,67,1,-191
2,3693893,-1327,-1139,-590,4783,72,-80,67,1,-191
2,3693905,-1321,-1142,-595,4782,62,-82,83,-1,-181
2,3693919,-1321,-1142,-595,4782,62,-82,83,-1,-181
2,3693932,-1331,-1138,-583,4778,65,-85,83,-1,-181
2,3693946,-1323,-1145,-590,4783,59,-82,83,-1,-181
2,3693955,-1323,-1145,-590,4783,59,-82,83,-1,-181
2,3693964,-1323,-1131,-590,4780,80,-84,83,-1,-181
2,3693973,-1323,-1131,-590,4780,80,-84,83,-1,-181
2,3693981,-1322,-1150,-581,4779,68,-72,83,-1,-181
2,3693990,-1322,-1150,-581,4779,68,-72,83,-1,-181
2,3693998,-1322,-1150,-581,4779,68,-72,83,-1,-181
2,3694007,-1326,-1136,-553,4777,63,-69,83,-1,-181
2,3694016,-1326,-1136,-553,4777,63,-69,83,-1,-181
2,3694025,-1326,-1143,-601,4778,65,-70,78,-6,-184
2,3694032,-1326,-1143,-601,4778,65,-70,78,-6,-184
2,3694042,-1329,-1131,-567,4778,80,-78,78,-6,-184
2,3694050,-1329,-1131,-567,4778,80,-78,78,-6,-184
2,3694058,-1329,-1131,-567,4778,80,-78,78,-6,-184
2,3694067,-1320,-1142,-580,4777,74,-82,78,-6,-184
2,3694074,-1320,-1142,-580,4777,74,-82,78,-6,-184
2,3694084,-1331,-1136,-560,4779,64,-82,78,-6,-184
2,3694093,-1331,-1136,-560,4779,64,-82,78,-6,-184
2,3694101,-1322,-1143,-580,4775,64,-86,78,-6,-184
2,3694111,-1322,-1143,-580,4775,64,-86,78,-6,-184
2,3694120,-1327,-1139,-560,4776,78,-86,78,-6,-184
2,3694128,-1327,-1139,-560,4776,78,-86,78,-6,-184
2,3694136,-1327,-1139,-560,4776,78,-86,78,-6,-184
2,3694143,-1317,-1141,-563,4775,72,-78,90,-12,-176
2,3694151,-1317,-1141,-563,4775,72,-78,90,-12,-176
2,3694159,-1317,-1141,-563,4775,72,-78,90,-12,-176
2,3694169,-1326,-1141,-523,4786,59,-78,90,-12,-176
2,3694176,-1326,-1141,-523,4786,59,-78,90,-12,-176
2,3694184,-1329,-1144,-567,4782,63,-85,90,-12,-176
2,3694192,-1329,-1144,-567,4782,63,-85,90,-12,-176
2,3694199,-1326,-1139,-553,4782,72,-83,90,-12,-176
2,3694209,-1326,-1139,-553,4782,72,-83,90,-12,-176
2,3694217,-1326,-1139,-553,4782,72,-83,90,-12,-176
2,3694225,-1320,-1149,-574,4780,66,-87,90,-12,-176
2,3694233,-1320,-1149,-574,4780,66,-87,90,-12,-176
2,3694241,-1323,-1138,-544,4784,65,-82,90,-12,-176
2,3694249,-1323,-1138,-544,4784,65,-82,90,-12,-176
2,3694259,-1323,-1138,-544,4784,65,-82,90,-12,-176
2,3694268,-1330,-1148,-565,4781,62,-77,90,-12,-176
2,3694276,-1330,-1148,-565,4781,62,-77,90,-12,-176
2,3694285,-1329,-1139,-564,4789,76,-73,100,-12,-178
2,3694294,-1329,-1139,-564,4789,76,-73,100,-12,-178
2,3694303,-1319,-1143,-553,4790,73,-77,100,-12,-178
2,3694311,-1319,-1143,-553,4790,73,-77,100,-12,-178
2,3694319,-1319,-1143,-553,4790,73,-77,100,-12,-178
2,3694327,-1324,-1144,-546,4784,67,-85,100,-12,-178
2,3694334,-1324,-1144,-546,4784,67,-85,100,-12,-178
2,3694344,-1323,-1143,-547,4788,58,-82,100,-12,-178
2,3694351,-1323,-1143,-547,4788,58,-82,100,-12,-178
2,3694361,-1330,-1145,-540,4786,68,-85,100,-12,-178
2,3694368,-1330,-1145,-540,4786,68,-85,100,-12,-178
2,3694379,-1330,-1145,-540,4786,68,-85,100,-12,-178
2,3694387,-1322,-1145,-558,4784,72,-87,100,-12,-178
2,3694394,-1322,-1145,-558,4784,72,-87,100,-12,-178
2,3694403,-1322,-1147,-532,4787,72,-82,99,-21,-173
2,3694410,-1322,-1147,-532,4787,72,-82,99,-21,-173
2,3694418,-1322,-1147,-532,4787,72,-82,99,-21,-173
2,3694427,-1327,-1153,-557,4791,63,-81,99,-21,-173
2,3694434,-1327,-1153,-557,4791,63,-81,99,-21,-173
2,3694443,-1324,-1145,-565,4793,72,-78,99,-21,-173
2,3694451,-1324,-1145,-565,4793,72,-78,99,-21,-173
2,3694459,-1324,-1145,-565,4793,72,-78,99,-21,-173
2,3694468,-1325,-1152,-558,4797,84,-83,99,-21,-173
2,3694476,-1325,-1152,-558,4797,84,-83,99,-21,-173
2,3694484,-1323,-1138,-567,4785,71,-85,99,-21,-173
2,3694491,-1323,-1138,-567,4785,71,-85,99,-21,-173
2,3694499,-1323,-1138,-567,4785,71,-85,99,-21,-173
2,3694508,-1323,-1150,-566,4790,62,-90,99,-21,-173
2,3694515,-1323,-1150,-566,4790,62,-90,99,-21,-173
2,3694524,-1326,-1143,-565,4788,66,-76,103,-17,-165
2,3694534,-1326,-1143,-565,4788,66,-76,103,-17,-165
2,3694543,-1322,-1147,-563,4787,75,-72,103,-17,-165
2,3694552,-1322,-1147,-563,4787,75,-72,103,-17,-165
2,3694560,-1324,-1150,-568,4790,73,-71,103,-17,-165
2,3694566,-1324,-1150,-568,4790,73,-71,103,-17,-165
2,3694572,-1324,-1150,-568,4790,73,-71,103,-17,-165
2,3694579,-1324,-1150,-568,4790,73,-71,103,-17,-165
2,3694587,-1324,-1149,-566,4790,69,-74,103,-17,-165
2,3694596,-1324,-1149,-566,4790,69,-74,103,-17,-165
2,3694606,-1330,-1147,-574,4792,72,-70,103,-17,-165
2,3694616,-1330,-1147,-574,4792,72,-70,103,-17,-165
2,3694626,-1322,-1149,-578,4789,71,-81,103,-17,-165
2,3694635,-1322,-1149,-578,4789,71,-81,103,-17,-165
2,3694643,-1323,-1145,-602,4789,74,-79,116,-16,-164
2,3694653,-1323,-1145,-602,4789,74,-79,116,-16,-164
2,3694661,-1322,-1151,-577,4791,66,-73,116,-16,-164
2,3694668,-1322,-1151,-577,4791,66,-73,116,-16,-164
2,3694678,-1322,-1151,-577,4791,66,-73,116,-16,-164
2,3694687,-1323,-1147,-586,4797,61,-81,116,-16,-164
2,3694695,-1323,-1147,-586,4797,61,-81,116,-16,-164
2,3694704,-1324,-1149,-596,4797,70,-85,116,-16,-164
2,3694713,-1324,-1149,-596,4797,70,-85,116,-16,-164
2,3694724,-1320,-1146,-603,4786,76,-77,116,-16,-164
2,3694732,-1320,-1146,-603,4786,76,-77,116,-16,-164
2,3694741,-1325,-1147,-597,4783,80,-80,116,-16,-164
2,3694749,-1325,-1147,-597,4783,80,-80,116,-16,-164
2,3694757,-1325,-1147,-597,4783,80,-80,116,-16,-164
2,3694766,-1322,-1143,-592,4788,73,-80,114,-22,-158
2,3694774,-1322,-1143,-592,4788,73,-80,114,-22,-158
2,3694783,-1327,-1144,-583,4786,68,-88,114,-22,-158
2,3694793,-1327,-1144,-583,4786,68,-88,114,-22,-158
2,3694802,-1325,-1145,-608,4781,63,-81,114,-22,-158
2,3694813,-1325,-1145,-608,4781,63,-81,114,-22,-158
2,3694821,-1326,-1139,-588,4780,77,-77,114,-22,-158
2,3694829,-1326,-1139,-588,4780,77,-77,114,-22,-158
2,3694838,-1326,-1139,-588,4780,77,-77,114,-22,-158
2,3694846,-1323,-1146,-597,4786,71,-81,114,-22,-158
2,3694856,-1323,-1146,-597,4786,71,-81,114,-22,-158
2,3694866,-1326,-1142,-581,4777,71,-80,114,-22,-158
2,3694874,-1326,-1142,-581,4777,71,-80,114,-22,-158
2,3694883,-1322,-1144,-599,4781,74,-77,114,-22,-158
2,3694894,-1322,-1144,-599,4781,74,-77,114,-22,-158
2,3694902,-1330,-1136,-578,4777,78,-78,121,-27,-153
2,3694911,-1330,-1136,-578,4777,78,-78,121,-27,-153
2,3694919,-1330,-1136,-578,4777,78,-78,121,-27,-153
2,3694928,-1321,-1145,-592,4774,68,-88,121,-27,-153
2,3694938,-1321,-1145,-592,4774,68,-88,121,-27,-153
2,3694946,-1328,-1142,-553,4782,65,-83,121,-27,-153
2,3694957,-1328,-1142,-553,4782,65,-83,121,-27,-153
2,3694970,-1328,-1142,-553,4782,65,-83,121,-27,-153
2,3694984,-1329,-1135,-591,4781,75,-76,121,-27,-153
2,3694997,-1329,-1135,-591,4781,75,-76,121,-27,-153
2,3695010,-1322,-1145,-572,4775,71,-75,121,-27,-153
2,3695025,-1325,-1133,-562,4775,62,-76,124,-28,-154
2,3695039,-1325,-1133,-562,4775,62,-76,124,-28,-154
2,3695054,-1327,-1146,-570,4780,65,-75,124,-28,-154
2,3695067,-1324,-1134,-566,4770,70,-74,124,-28,-154
2,3695080,-1324,-1134,-566,4770,70,-74,124,-28,-154
2,3695094,-1323,-1144,-569,4771,76,-79,124,-28,-154
2,3695108,-1319,-1136,-527,4772,68,-80,124,-28,-154
2,3695121,-1324,-1151,-562,4776,65,-73,124,-28,-154
2,3695133,-1324,-1151,-562,4776,65,-73,124,-28,-154
2,3695149,-1330,-1138,-565,4776,72,-77,124,-28,-148
2,3695162,-1321,-1144,-564,4782,85,-78,124,-28,-148
2,3695176,-1321,-1144,-564,4782,85,-78,124,-28,-148
2,3695190,-1326,-1134,-553,4784,76,-79,124,-28,-148
2,3695203,-1324,-1146,-548,4787,61,-79,124,-28,-148
2,3695218,-1324,-1146,-548,4787,61,-79,124,-28,-148
2,3695234,-1330,-1139,-572,4780,61,-81,124,-28,-148
2,3695248,-1323,-1150,-556,4787,74,-84,124,-28,-148
2,3695260,-1323,-1150,-556,4787,74,-84,124,-28,-148
2,3695276,-1323,-1138,-536,4782,71,-78,127,-33,-155
2,3695290,-1323,-1151,-548,4790,57,-80,127,-33,-155
2,3695305,-1325,-1141,-538,4790,62,-76,127,-33,-155
2,3695316,-1325,-1141,-538,4790,62,-76,127,-33,-155
2,3695330,-1321,-1150,-566,4789,71,-81,127,-33,-155
2,3695344,-1326,-1137,-538,4786,72,-80,127,-33,-155
2,3695358,-1326,-1137,-538,4786,72,-80,127,-33,-155
2,3695372,-1324,-1155,-552,4782,60,-87,127,-33,-155
2,3695385,-1324,-1155,-552,4782,60,-87,134,-36,-136
2,3695396,-1324,-1155,-552,4782,60,-87,134,-36,-136
2,3695411,-1320,-1155,-561,4791,74,-80,134,-36,-136
2,3695425,-1322,-1140,-555,4794,64,-79,134,-36,-136
2,3695438,-1322,-1140,-555,4794,64,-79,134,-36,-136
2,3695453,-1320,-1155,-576,4794,64,-81,134,-36,-136
2,3695468,-1327,-1139,-563,4790,65,-84,134,-36,-136
2,3695483,-1324,-1154,-567,4788,75,-86,134,-36,-136
2,3695499,-1324,-1154,-567,4788,75,-86,134,-36,-136
2,3695514,-1322,-1144,-566,4793,72,-81,134,-36,-136
2,3695527,-1322,-1155,-565,4790,69,-79,138,-38,-140
2,3695541,-1324,-1140,-575,4791,72,-80,138,-38,-140
2,3695554,-1324,-1140,-575,4791,72,-80,138,-38,-140
2,3695566,-1323,-1154,-572,4801,73,-87,138,-38,-140
2,3695577,-1323,-1154,-572,4801,73,-87,138,-38,-140
2,3695590,-1323,-1142,-593,4798,70,-80,138,-38,-140
2,3695600,-1323,-1142,-593,4798,70,-80,138,-38,-140
2,3695612,-1323,-1152,-610,4791,62,-82,138,-38,-140
2,3695627,-1326,-1150,-562,4789,63,-78,138,-38,-140
2,3695640,-1326,-1150,-562,4789,63,-78,138,-38,-140
2,3695654,-1322,-1148,-595,4784,62,-84,141,-41,-131
2,3695669,-1326,-1153,-592,4791,71,-77,141,-41,-131
2,3695681,-1326,-1153,-592,4791,71,-77,141,-41,-131
2,3695694,-1318,-1147,-601,4790,83,-76,141,-41,-131
2,3695710,-1327,-1144,-589,4794,68,-83,141,-41,-131
2,3695724,-1325,-1150,-584,4782,60,-85,141,-41,-131
2,3695735,-1325,-1150,-584,4782,60,-85,141,-41,-131
2,3695750,-1326,-1141,-595,4786,67,-86,141,-41,-131
2,3695764,-1325,-1150,-602,4784,71,-85,125,-39,-123
2,3695775,-1325,-1150,-602,4784,71,-85,125,-39,-123
2,3695789,-1321,-1141,-580,4776,74,-84,125,-39,-123
2,3695800,-1321,-1141,-580,4776,74,-84,125,-39,-123
2,3695813,-1326,-1149,-582,4772,64,-84,125,-39,-123
2,3695826,-1328,-1138,-596,4783,68,-73,125,-39,-123
2,3695840,-1328,-1138,-596,4783,68,-73,125,-39,-123
2,3695853,-1327,-1149,-589,4777,70,-74,125,-39,-123
2,3695865,-1323,-1143,-584,4784,77,-83,125,-39,-123
2,3695879,-1323,-1143,-584,4784,77,-83,125,-39,-123
2,3695892,-1325,-1139,-572,4789,66,-81,142,-32,-130
2,3695905,-1328,-1143,-562,4774,65,-84,142,-32,-130
2,3695921,-1328,-1143,-562,4774,65,-84,142,-32,-130
2,3695936,-1325,-1142,-594,4786,68,-80,142,-32,-130
2,3695949,-1324,-1143,-568,4786,82,-76,142,-32,-130
2,3695962,-1320,-1144,-576,4783,77,-80,142,-32,-130
2,3695969,-1320,-1144,-576,4783,77,-80,142,-32,-130
2,3695977,-1320,-1144,-576,4783,77,-80,142,-32,-130
2,3695984,-1321,-1143,-554,4777,70,-80,142,-32,-130
2,3695993,-1321,-1143,-554,4777,70,-80,142,-32,-130
2,3696002,-1327,-1143,-577,4779,72,-80,140,-44,-120
2,3696011,-1327,-1143,-577,4779,72,-80,140,-44,-120
2,3696021,-1327,-1143,-577,4779,72,-80,140,-44,-120
2,3696030,-1325,-1140,-558,4784,78,-81,140,-44,-120
2,3696038,-1325,-1140,-558,4784,78,-81,140,-44,-120
2,3696047,-1324,-1143,-563,4786,73,-79,140,-44,-120
2,3696056,-1324,-1143,-563,4786,73,-79,140,-44,-120
2,3696063,-1327,-1143,-527,4777,64,-84,140,-44,-120
2,3696072,-1327,-1143,-527,4777,64,-84,140,-44,-120
2,3696081,-1329,-1145,-569,4776,64,-85,140,-44,-120
2,3696091,-1329,-1145,-569,4776,64,-85,140,-44,-120
2,3696098,-1329,-1145,-569,4776,64,-85,140,-44,-120
2,3696106,-1326,-1144,-551,4780,80,-82,140,-44,-120
2,3696113,-1326,-1144,-551,4780,80,-82,140,-44,-120
2,3696122,-1318,-1142,-576,4777,75,-83,140,-44,-120
2,3696131,-1318,-1142,-576,4777,75,-83,140,-44,-120
2,3696140,-1318,-1142,-576,4777,75,-83,140,-44,-120
2,3696148,-1326,-1143,-530,4780,66,-89,141,-33,-127
2,3696158,-1326,-1143,-530,4780,66,-89,141,-33,-127
2,3696169,-1324,-1148,-566,4789,63,-76,141,-33,-127
2,3696179,-1324,-1148,-566,4789,63,-76,141,-33,-127
2,3696188,-1330,-1146,-561,4781,66,-77,141,-33,-127
2,3696197,-1330,-1146,-561,4781,66,-77,141,-33,-127
2,3696209,-1324,-1148,-553,4781,75,-83,141,-33,-127
2,3696219,-1324,-1148,-553,4781,75,-83,141,-33,-127
2,3696227,-1319,-1138,-546,4786,68,-85,141,-33,-127
2,3696237,-1319,-1138,-546,4786,68,-85,141,-33,-127
2,3696244,-1324,-1148,-535,4794,59,-81,141,-33,-127
2,3696253,-1324,-1148,-535,4794,59,-81,141,-33,-127
2,3696261,-1324,-1148,-535,4794,59,-81,141,-33,-127
2,3696271,-1326,-1143,-546,4787,74,-82,142,-32,-114
2,3696279,-1326,-1143,-546,4787,74,-82,142,-32,-114
2,3696290,-1322,-1148,-544,4782,73,-82,142,-32,-114
2,3696297,-1322,-1148,-544,4782,73,-82,142,-32,-114
2,3696306,-1322,-1146,-534,4789,71,-87,142,-32,-114
2,3696315,-1322,-1146,-534,4789,71,-87,142,-32,-114
2,3696323,-1325,-1150,-557,4789,64,-75,142,-32,-114
2,3696334,-1325,-1150,-557,4789,64,-75,142,-32,-114
2,3696345,-1328,-1152,-557,4788,73,-82,142,-32,-114
2,3696356,-1328,-1152,-557,4788,73,-82,142,-32,-114
2,3696366,-1321,-1149,-555,4784,79,-83,142,-32,-114
2,3696375,-1321,-1149,-555,4784,79,-83,142,-32,-114
2,3696382,-1321,-1152,-557,4788,72,-76,134,-34,-106
2,3696392,-1321,-1152,-557,4788,72,-76,134,-34,-106
2,3696404,-1324,-1151,-543,4795,65,-76,134,-34,-106
2,3696414,-1324,-1151,-543,4795,65,-76,134,-34,-106
2,3696422,-1325,-1156,-543,4795,75,-84,134,-34,-106
2,3696431,-1325,-1156,-543,4795,75,-84,134,-34,-106
2,3696440,-1325,-1156,-543,4795,75,-84,134,-34,-106
2,3696448,-1322,-1150,-535,4790,81,-90,134,-34,-106
2,3696457,-1322,-1150,-535,4790,81,-90,134,-34,-106
2,3696466,-1319,-1153,-517,4791,68,-80,134,-34,-106
2,3696474,-1319,-1153,-517,4791,68,-80,134,-34,-106
2,3696487,-1325,-1154,-516,4796,69,-78,134,-34,-106
2,3696495,-1325,-1154,-516,4796,69,-78,134,-34,-106
2,3696504,-1322,-1154,-503,4793,70,-76,128,-36,-112
2,3696515,-1322,-1154,-503,4793,70,-76,128,-36,-112
2,3696526,-1325,-1158,-494,4797,71,-84,128,-36,-112
2,3696535,-1325,-1158,-494,4797,71,-84,128,-36,-112
2,3696543,-1320,-1159,-495,4804,67,-78,128,-36,-112
2,3696552,-1320,-1159,-495,4804,67,-78,128,-36,-112
2,3696562,-1321,-1163,-473,4809,67,-74,128,-36,-112
2,3696572,-1321,-1163,-473,4809,67,-74,128,-36,-112
2,3696580,-1321,-1163,-473,4809,67,-74,128,-36,-112
2,3696591,-1323,-1163,-469,4810,64,-81,128,-36,-112
2,3696601,-1323,-1163,-469,4810,64,-81,128,-36,-112
2,3696610,-1320,-1169,-453,4819,67,-82,128,-36,-112
2,3696618,-1320,-1169,-453,4819,67,-82,128,-36,-112
2,3696628,-1323,-1170,-427,4821,70,-80,131,-33,-101
2,3696640,-1323,-1170,-427,4821,70,-80,131,-33,-101
2,3696648,-1319,-1173,-421,4827,73,-79,131,-33,-101
2,3696657,-1319,-1173,-421,4827,73,-79,131,-33,-101
2,3696667,-1318,-1176,-386,4832,71,-77,131,-33,-101
2,3696675,-1318,-1176,-386,4832,71,-77,131,-33,-101
2,3696686,-1321,-1188,-367,4831,64,-80,131,-33,-101
2,3696694,-1321,-1188,-367,4831,64,-80,131,-33,-101
2,3696704,-1320,-1190,-352,4837,71,-84,131,-33,-101
2,3696711,-1320,-1190,-352,4837,71,-84,131,-33,-101
2,3696721,-1320,-1190,-352,4837,71,-84,131,-33,-101
2,3696730,-1318,-1199,-321,4848,74,-77,131,-33,-101
2,3696739,-1318,-1199,-321,4848,74,-77,131,-33,-101
2,3696747,-1317,-1204,-320,4858,62,-80,131,-33,-101
2,3696757,-1317,-1204,-320,4858,62,-80,131,-33,-101
2,3696765,-1317,-1211,-299,4875,65,-84,135,-35,-85
2,3696774,-1317,-1211,-299,4875,65,-84,135,-35,-85
2,3696784,-1317,-1215,-291,4891,71,-80,135,-35,-85
2,3696793,-1317,-1215,-291,4891,71,-80,135,-35,-85
2,3696801,-1317,-1215,-291,4891,71,-80,135,-35,-85
2,3696811,-1317,-1222,-275,4900,76,-80,135,-35,-85
2,3696819,-1317,-1222,-275,4900,76,-80,135,-35,-85
2,3696828,-1320,-1234,-251,4900,73,-77,135,-35,-85
2,3696838,-1320,-1234,-251,4900,73,-77,135,-35,-85
2,3696845,-1314,-1243,-254,4916,71,-83,135,-35,-85
2,3696856,-1314,-1243,-254,4916,71,-83,135,-35,-85
2,3696865,-1315,-1250,-236,4936,75,-82,135,-35,-85
2,3696874,-1315,-1250,-236,4936,75,-82,135,-35,-85
2,3696882,-1312,-1258,-210,4946,72,-83,135,-35,-85
2,3696890,-1312,-1258,-210,4946,72,-83,128,-32,-92
2,3696899,-1312,-1258,-210,4946,72,-83,128,-32,-92
2,3696907,-1312,-1258,-210,4946,72,-83,128,-32,-92
2,3696914,-1312,-1258,-210,4946,72,-83,128,-32,-92
2,3696923,-1315,-1282,-188,4974,80,-81,128,-32,-92
2,3696932,-1315,-1282,-188,4974,80,-81,128,-32,-92
2,3696941,-1315,-1282,-188,4974,80,-81,128,-32,-92
2,3696949,-1309,-1293,-203,4992,85,-81,128,-32,-92
2,3696958,-1309,-1293,-203,4992,85,-81,128,-32,-92
2,3696966,-1312,-1297,-192,5009,81,-76,128,-32,-92
2,3696980,-1312,-1297,-192,5009,81,-76,128,-32,-92
2,3696992,-1311,-1313,-174,5021,82,-79,128,-32,-92
2,3697005,-1309,-1320,-183,5043,68,-79,123,-27,-91
2,3697019,-1309,-1320,-183,5043,68,-79,123,-27,-91
2,3697033,-1309,-1338,-162,5054,86,-79,123,-27,-91
2,3697046,-1307,-1342,-172,5068,90,-84,123,-27,-91
2,3697060,-1307,-1342,-172,5068,90,-84,123,-27,-91
2,3697072,-1309,-1358,-168,5091,89,-78,123,-27,-91
2,3697086,-1305,-1364,-161,5108,91,-84,123,-27,-91
2,3697101,-1305,-1364,-161,5108,91,-84,123,-27,-91
2,3697115,-1307,-1382,-166,5126,87,-80,123,-27,-91
2,3697129,-1303,-1394,-154,5134,95,-83,121,-27,-91
2,3697143,-1307,-1400,-168,5148,89,-83,121,-27,-91
2,3697159,-1307,-1400,-168,5148,89,-83,121,-27,-91
2,3697173,-1306,-1416,-160,5171,90,-84,121,-27,-91
2,3697186,-1303,-1424,-173,5190,87,-76,121,-27,-91
2,3697202,-1303,-1424,-173,5190,87,-76,121,-27,-91
2,3697216,-1306,-1436,-189,5199,98,-74,121,-27,-91
2,3697230,-1299,-1447,-191,5218,100,-84,121,-27,-91
2,3697241,-1299,-1447,-191,5218,100,-84,121,-27,-91
2,3697255,-1304,-1457,-220,5232,96,-76,111,-25,-83
2,3697268,-1300,-1469,-228,5249,96,-84,111,-25,-83
2,3697282,-1300,-1469,-228,5249,96,-84,111,-25,-83
2,3697296,-1299,-1472,-249,5262,96,-91,111,-25,-83
2,3697310,-1302,-1489,-270,5273,98,-85,111,-25,-83
2,3697323,-1302,-1489,-270,5273,98,-85,111,-25,-83
2,3697336,-1299,-1494,-282,5282,95,-87,111,-25,-83
2,3697350,-1300,-1501,-308,5286,102,-80,111,-25,-83
2,3697363,-1299,-1506,-322,5306,100,-78,111,-25,-83
2,3697379,-1299,-1506,-322,5306,100,-78,111,-25,-83
2,3697394,-1296,-1513,-339,5317,93,-84,106,-34,-92
2,3697409,-1299,-1519,-361,5323,97,-82,106,-34,-92
2,3697422,-1299,-1519,-361,5323,97,-82,106,-34,-92
2,3697436,-1298,-1528,-375,5333,112,-81,106,-34,-92
2,3697451,-1297,-1537,-411,5345,110,-84,106,-34,-92
2,3697462,-1297,-1537,-411,5345,110,-84,106,-34,-92
2,3697475,-1299,-1539,-413,5352,104,-86,106,-34,-92
2,3697488,-1297,-1543,-444,5351,99,-82,106,-34,-92
2,3697503,-1297,-1543,-444,5351,99,-82,106,-34,-92
2,3697516,-1297,-1548,-453,5355,101,-79,102,-28,-84
2,3697530,-1297,-1548,-463,5366,90,-87,102,-28,-84
2,3697542,-1297,-1548,-463,5366,90,-87,102,-28,-84
2,3697555,-1297,-1550,-481,5366,96,-82,102,-28,-84
2,3697568,-1295,-1552,-466,5365,104,-85,102,-28,-84
2,3697584,-1301,-1554,-500,5372,109,-89,102,-28,-84
2,3697599,-1301,-1554,-500,5372,109,-89,102,-28,-84
2,3697614,-1299,-1562,-479,5376,109,-86,102,-28,-84
2,3697629,-1299,-1562,-479,5376,109,-86,99,-21,-75
2,3697644,-1298,-1561,-512,5381,116,-77,99,-21,-75
2,3697658,-1298,-1561,-512,5381,116,-77,99,-21,-75
2,3697672,-1297,-1566,-519,5380,113,-75,99,-21,-75
2,3697685,-1300,-1566,-549,5390,110,-83,99,-21,-75
2,3697699,-1300,-1566,-549,5390,110,-83,99,-21,-75
2,3697714,-1297,-1570,-533,5392,109,-85,99,-21,-75
2,3697728,-1297,-1564,-566,5383,104,-85,99,-21,-75
2,3697740,-1297,-1564,-566,5383,104,-85,99,-21,-75
2,3697754,-1301,-1568,-545,5389,107,-84,96,-22,-86
2,3697768,-1297,-1563,-569,5388,105,-85,96,-22,-86
2,3697782,-1297,-1563,-569,5388,105,-85,96,-22,-86
2,3697797,-1300,-1569,-577,5386,110,-80,96,-22,-86
2,3697813,-1294,-1568,-570,5391,108,-83,96,-22,-86
2,3697828,-1299,-1567,-623,5385,103,-76,96,-22,-86
2,3697843,-1299,-1567,-623,5385,103,-76,96,-22,-86
2,3697857,-1295,-1567,-573,5390,112,-79,96,-22,-86
2,3697870,-1298,-1566,-607,5386,100,-82,78,-26,-82
2,3697884,-1300,-1564,-613,5390,97,-76,78,-26,-82
2,3697895,-1300,-1564,-613,5390,97,-76,78,-26,-82
2,3697909,-1294,-1558,-679,5386,107,-84,78,-26,-82
2,3697923,-1294,-1558,-679,5386,107,-84,78,-26,-82
2,3697936,-1299,-1556,-702,5375,120,-78,78,-26,-82
2,3697950,-1292,-1553,-600,5380,119,-76,78,-26,-82
2,3697961,-1292,-1553,-600,5380,119,-76,78,-26,-82
2,3697974,-1304,-1557,-627,5373,101,-74,78,-26,-82
2,3697983,-1304,-1557,-627,5373,101,-74,78,-26,-82
2,3697990,-1300,-1558,-672,5369,100,-75,79,-23,-83
2,3697998,-1300,-1558,-672,5369,100,-75,79,-23,-83
2,3698004,-1295,-1543,-637,5368,110,-81,79,-23,-83
2,3698014,-1295,-1543,-637,5368,110,-81,79,-23,-83
2,3698023,-1295,-1543,-637,5368,110,-81,79,-23,-83
2,3698031,-1305,-1558,-597,5360,108,-81,79,-23,-83
2,3698039,-1305,-1558,-597,5360,108,-81,79,-23,-83
2,3698048,-1296,-1539,-567,5362,98,-82,79,-23,-83
2,3698056,-1296,-1539,-567,5362,98,-82,79,-23,-83
2,3698065,-1306,-1552,-614,5358,100,-85,79,-23,-83
2,3698074,-1306,-1552,-614,5358,100,-85,79,-23,-83
2,3698083,-1300,-1533,-607,5355,111,-85,79,-23,-83
2,3698093,-1300,-1533,-607,5355,111,-85,79,-23,-83
2,3698101,-1300,-1533,-607,5355,111,-85,79,-23,-83
2,3698111,-1290,-1544,-595,5353,110,-83,79,-23,-83
2,3698119,-1290,-1544,-595,5353,110,-83,79,-23,-83
2,3698127,-1302,-1542,-567,5359,98,-83,77,-25,-79
2,3698137,-1302,-1542,-567,5359,98,-83,77,-25,-79
2,3698145,-1295,-1546,-604,5356,94,-82,77,-25,-79
2,3698153,-1295,-1546,-604,5356,94,-82,77,-25,-79
2,3698162,-1295,-1546,-604,5356,94,-82,77,-25,-79
2,3698170,-1303,-1535,-610,5353,103,-75,77,-25,-79
2,3698180,-1303,-1535,-610,5353,103,-75,77,-25,-79
2,3698188,-1292,-1547,-562,5353,110,-83,77,-25,-79
2,3698197,-1292,-1547,-562,5353,110,-83,77,-25,-79
2,3698204,-1300,-1535,-572,5360,88,-84,77,-25,-79
2,3698213,-1300,-1535,-572,5360,88,-84,77,-25,-79
2,3698222,-1300,-1535,-572,5360,88,-84,77,-25,-79
2,3698231,-1301,-1544,-602,5354,89,-77,77,-25,-79
2,3698241,-1301,-1544,-602,5354,89,-77,77,-25,-79
2,3698250,-1299,-1534,-571,5357,105,-76,56,-24,-86
2,3698258,-1299,-1534,-571,5357,105,-76,56,-24,-86
2,3698268,-1295,-1547,-571,5349,116,-81,56,-24,-86
2,3698276,-1295,-1547,-571,5349,116,-81,56,-24,-86
2,3698284,-1298,-1535,-553,5354,102,-77,56,-24,-86
2,3698293,-1298,-1535,-553,5354,102,-77,56,-24,-86
2,3698302,-1298,-1535,-553,5354,102,-77,56,-24,-86
2,3698313,-1302,-1551,-563,5352,88,-81,56,-24,-86
2,3698320,-1302,-1551,-563,5352,88,-81,56,-24,-86
2,3698330,-1301,-1541,-569,5346,107,-87,56,-24,-86
2,3698339,-1301,-1541,-569,5346,107,-87,56,-24,-86
2,3698349,-1294,-1545,-511,5346,103,-79,56,-24,-86
2,3698358,-1294,-1545,-511,5346,103,-79,56,-24,-86
2,3698366,-1301,-1544,-557,5350,97,-78,58,-28,-96
2,3698375,-1301,-1544,-557,5350,97,-78,58,-28,-96
2,3698382,-1301,-1544,-557,5350,97,-78,58,-28,-96
2,3698393,-1299,-1551,-524,5355,96,-83,58,-28,-96
2,3698401,-1299,-1551,-524,5355,96,-83,58,-28,-96
2,3698410,-1295,-1547,-558,5355,106,-83,58,-28,-96
2,3698419,-1295,-1547,-558,5355,106,-83,58,-28,-96
2,3698429,-1298,-1551,-493,5360,102,-85,58,-28,-96
2,3698437,-1298,-1551,-493,5360,102,-85,58,-28,-96
2,3698445,-1295,-1549,-552,5360,90,-93,58,-28,-96
2,3698453,-1295,-1549,-552,5360,90,-93,58,-28,-96
2,3698463,-1295,-1549,-552,5360,90,-93,58,-28,-96
2,3698471,-1306,-1554,-502,5367,106,-84,58,-28,-96
2,3698481,-1306,-1554,-502,5367,106,-84,58,-28,-96
2,3698491,-1293,-1550,-562,5367,108,-82,57,-35,-89
2,3698499,-1293,-1550,-562,5367,108,-82,57,-35,-89
2,3698508,-1298,-1553,-495,5363,116,-85,57,-35,-89
2,3698515,-1298,-1553,-495,5363,116,-85,57,-35,-89
2,3698525,-1296,-1554,-566,5366,108,-90,57,-35,-89
2,3698533,-1296,-1554,-566,5366,108,-90,57,-35,-89
2,3698541,-1296,-1554,-566,5366,108,-90,57,-35,-89
2,3698550,-1300,-1551,-509,5369,115,-76,57,-35,-89
2,3698560,-1300,-1551,-509,5369,115,-76,57,-35,-89
2,3698567,-1295,-1564,-555,5362,109,-81,57,-35,-89
2,3698576,-1295,-1564,-555,5362,109,-81,57,-35,-89
2,3698583,-1295,-1564,-555,5362,109,-81,57,-35,-89
2,3698591,-1301,-1549,-530,5365,103,-83,57,-35,-89
2,3698603,-1301,-1549,-530,5365,103,-83,57,-35,-89
2,3698610,-1299,-1565,-549,5373,94,-84,51,-35,-85
2,3698619,-1299,-1565,-549,5373,94,-84,51,-35,-85
2,3698627,-1298,-1548,-550,5376,105,-86,51,-35,-85
2,3698636,-1298,-1548,-550,5376,105,-86,51,-35,-85
2,3698646,-1296,-1562,-543,5371,96,-79,51,-35,-85
2,3698654,-1296,-1562,-543,5371,96,-79,51,-35,-85
2,3698664,-1303,-1555,-579,5377,95,-79,51,-35,-85
2,3698674,-1303,-1555,-579,5377,95,-79,51,-35,-85
2,3698682,-1303,-1555,-579,5377,95,-79,51,-35,-85
2,3698692,-1292,-1557,-575,5374,108,-79,51,-35,-85
2,3698700,-1292,-1557,-575,5374,108,-79,51,-35,-85
2,3698708,-1294,-1559,-571,5376,107,-80,51,-35,-85
2,3698719,-1294,-1559,-571,5376,107,-80,51,-35,-85
2,3698729,-1295,-1557,-576,5383,95,-80,51,-35,-85
2,3698741,-1295,-1557,-576,5383,95,-80,51,-35,-85
2,3698749,-1296,-1555,-623,5373,108,-84,41,-35,-83
2,3698759,-1296,-1555,-623,5373,108,-84,41,-35,-83
2,3698766,-1300,-1550,-560,5380,117,-81,41,-35,-83
2,3698775,-1300,-1550,-560,5380,117,-81,41,-35,-83
2,3698784,-1300,-1550,-560,5380,117,-81,41,-35,-83
2,3698792,-1296,-1556,-595,5368,100,-78,41,-35,-83
2,3698800,-1296,-1556,-595,5368,100,-78,41,-35,-83
2,3698808,-1302,-1557,-581,5375,99,-79,41,-35,-83
2,3698817,-1302,-1557,-581,5375,99,-79,41,-35,-83
2,3698825,-1295,-1552,-627,5369,111,-82,41,-35,-83
2,3698834,-1295,-1552,-627,5369,111,-82,41,-35,-83
2,3698841,-1295,-1552,-627,5369,111,-82,41,-35,-83
2,3698850,-1296,-1550,-589,5369,122,-83,41,-35,-83
2,3698859,-1296,-1550,-589,5369,122,-83,41,-35,-83
2,3698869,-1293,-1552,-583,5366,107,-83,40,-40,-80
2,3698877,-1293,-1552,-583,5366,107,-83,40,-40,-80
2,3698886,-1303,-1549,-586,5367,104,-81,40,-40,-80
2,3698894,-1303,-1549,-586,5367,104,-81,40,-40,-80
2,3698904,-1303,-1549,-586,5367,104,-81,40,-40,-80
2,3698912,-1298,-1553,-613,5366,105,-86,40,-40,-80
2,3698920,-1298,-1553,-613,5366,105,-86,40,-40,-80
2,3698928,-1296,-1544,-599,5362,113,-75,40,-40,-80
2,3698937,-1296,-1544,-599,5362,113,-75,40,-40,-80
2,3698946,-1298,-1552,-584,5365,104,-90,40,-40,-80
2,3698955,-1298,-1552,-584,5365,104,-90,40,-40,-80
2,3698963,-1298,-1552,-584,5365,104,-90,40,-40,-80
2,3698973,-1304,-1545,-592,5368,102,-89,40,-40,-80
2,3698984,-1297,-1550,-602,5363,107,-79,25,-35,-80
2,3698997,-1297,-1550,-602,5363,107,-79,25,-35,-81
2,3699012,-1294,-1547,-596,5368,116,-82,25,-35,-81
2,3699022,-1294,-1547,-596,5368,116,-82,25,-35,-81
2,3699038,-1297,-1542,-580,5360,103,-78,25,-35,-81
2,3699052,-1296,-1554,-595,5358,107,-83,25,-35,-81
2,3699067,-1301,-1539,-595,5352,105,-81,25,-35,-81
2,3699081,-1301,-1539,-595,5352,105,-81,25,-35,-81
2,3699094,-1299,-1546,-569,5357,104,-80,25,-35,-81
2,3699105,-1299,-1546,-569,5357,104,-80,19,-27,-85
2,3699118,-1299,-1546,-569,5357,104,-80,19,-27,-85
2,3699131,-1300,-1545,-601,5356,101,-76,19,-27,-85
2,3699145,-1299,-1540,-571,5351,108,-77,19,-27,-85
2,3699159,-1299,-1540,-571,5351,108,-77,19,-27,-85
2,3699172,-1290,-1542,-585,5354,110,-75,19,-27,-85
2,3699183,-1290,-1542,-585,5354,110,-75,19,-27,-85
2,3699196,-1305,-1542,-564,5364,107,-75,19,-27,-85
2,3699211,-1298,-1547,-593,5366,112,-76,19,-27,-85
2,3699224,-1298,-1547,-593,5366,112,-76,19,-27,-85
2,3699238,-1300,-1539,-574,5354,107,-69,12,-24,-94
2,3699251,-1294,-1544,-572,5353,103,-82,12,-24,-94
2,3699264,-1296,-1537,-560,5356,92,-85,12,-24,-94
2,3699278,-1296,-1537,-560,5356,92,-85,12,-24,-94
2,3699292,-1300,-1547,-551,5350,104,-81,12,-24,-94
2,3699306,-1292,-1543,-500,5356,112,-80,12,-24,-94
2,3699321,-1292,-1543,-500,5356,112,-80,12,-24,-94
2,3699337,-1299,-1544,-519,5359,97,-82,12,-24,-94
2,3699351,-1298,-1547,-539,5351,97,-85,12,-24,-94
2,3699365,-1301,-1541,-532,5352,114,-85,-4,-18,-96
2,3699379,-1301,-1541,-532,5352,114,-85,-4,-18,-96
2,3699393,-1290,-1556,-522,5367,108,-89,-4,-18,-96
2,3699404,-1290,-1556,-522,5367,108,-89,-4,-18,-96
2,3699418,-1300,-1540,-515,5365,99,-80,-4,-18,-96
2,3699431,-1301,-1561,-559,5363,110,-81,-4,-18,-96
2,3699444,-1296,-1546,-518,5369,121,-84,-4,-18,-96
2,3699459,-1296,-1546,-518,5369,121,-84,-4,-18,-96
2,3699470,-1291,-1561,-550,5369,115,-77,-4,-18,-96
2,3699483,-1291,-1561,-550,5369,115,-77,-4,-18,-96
2,3699496,-1303,-1551,-524,5366,103,-80,-6,-12,-98
2,3699510,-1299,-1554,-553,5368,103,-78,-6,-12,-98
2,3699525,-1296,-1553,-567,5376,110,-80,-6,-12,-98
2,3699538,-1296,-1553,-567,5376,110,-80,-6,-12,-98
2,3699551,-1292,-1554,-549,5378,112,-83,-6,-12,-98
2,3699566,-1296,-1555,-588,5375,104,-69,-6,-12,-98
2,3699577,-1296,-1555,-588,5375,104,-69,-6,-12,-98
2,3699591,-1298,-1557,-547,5372,108,-80,-6,-12,-98
2,3699606,-1295,-1561,-596,5372,107,-78,-6,-12,-108
2,3699621,-1295,-1561,-596,5372,107,-78,-6,-12,-108
2,3699636,-1301,-1552,-612,5366,107,-80,-6,-12,-108
2,3699649,-1297,-1557,-562,5381,109,-85,-6,-12,-108
2,3699661,-1297,-1557,-562,5381,109,-85,-6,-12,-108
2,3699674,-1297,-1557,-562,5381,109,-85,-6,-12,-108
2,3699687,-1305,-1562,-573,5383,99,-77,-6,-12,-108
2,3699700,-1305,-1562,-573,5383,99,-77,-6,-12,-108
2,3699714,-1297,-1541,-617,5373,103,-82,-6,-12,-108
2,3699728,-1296,-1559,-566,5375,108,-77,-9,-15,-103
2,3699741,-1296,-1559,-566,5375,108,-77,-9,-15,-103
2,3699752,-1293,-1537,-585,5371,94,-78,-9,-15,-103
2,3699767,-1298,-1558,-574,5373,96,-77,-9,-15,-103
2,3699782,-1298,-1558,-574,5373,96,-77,-9,-15,-103
2,3699799,-1300,-1544,-602,5370,111,-78,-9,-15,-103
2,3699811,-1295,-1551,-596,5375,114,-76,-9,-15,-103
2,3699824,-1295,-1551,-596,5375,114,-76,-9,-15,-103
2,3699840,-1300,-1544,-577,5363,103,-79,-9,-15,-103
2,3699855,-1302,-1547,-595,5364,103,-78,-13,-13,-121
2,3699868,-1298,-1550,-592,5364,109,-80,-13,-13,-121
2,3699883,-1298,-1550,-592,5364,109,-80,-13,-13,-121
2,3699896,-1295,-1541,-600,5363,120,-87,-13,-13,-121
2,3699910,-1298,-1547,-583,5360,107,-81,-13,-13,-121
2,3699924,-1298,-1542,-586,5354,93,-87,-13,-13,-121
2,3699940,-1298,-1542,-586,5354,93,-87,-13,-13,-121
2,3699952,-1300,-1546,-579,5355,104,-84,-13,-13,-121
2,3699966,-1295,-1545,-594,5353,112,-82,-13,-13,-121
2,3699980,-1295,-1545,-594,5353,112,-82,-13,-13,-121
2,3699991,-1297,-1543,-582,5354,106,-79,-12,-16,-134
2,3700000,-1297,-1543,-582,5354,106,-79,-12,-16,-134
2,3700007,-1301,-1547,-587,5354,105,-78,-12,-16,-134
2,3700016,-1301,-1547,-587,5354,105,-78,-12,-16,-134
2,3700025,-1301,-1547,-587,5354,105,-78,-12,-16,-134
2,3700033,-1299,-1539,-585,5357,113,-79,-12,-16,-134
2,3700042,-1299,-1539,-585,5357,113,-79,-12,-16,-134
2,3700050,-1301,-1541,-590,5361,113,-80,-12,-16,-134
2,3700059,-1301,-1541,-590,5361,113,-80,-12,-16,-134
2,3700068,-1299,-1536,-586,5366,105,-87,-12,-16,-134
2,3700076,-1299,-1536,-586,5366,105,-87,-12,-16,-134
2,3700084,-1299,-1536,-586,5366,105,-87,-12,-16,-134
2,3700094,-1298,-1537,-592,5354,101,-79,-12,-16,-134
2,3700102,-1298,-1537,-592,5354,101,-79,-12,-16,-134
2,3700111,-1296,-1535,-556,5351,104,-80,-6,-16,-130
2,3700119,-1296,-1535,-556,5351,104,-80,-6,-16,-130
2,3700127,-1297,-1538,-588,5356,101,-84,-6,-16,-130
2,3700136,-1297,-1538,-588,5356,101,-84,-6,-16,-130
2,3700145,-1297,-1538,-588,5356,101,-84,-6,-16,-130
2,3700152,-1299,-1539,-587,5353,111,-81,-6,-16,-130
2,3700161,-1299,-1539,-587,5353,111,-81,-6,-16,-130
2,3700170,-1296,-1544,-572,5356,105,-86,-6,-16,-130
2,3700178,-1296,-1544,-572,5356,105,-86,-6,-16,-130
2,3700187,-1300,-1539,-542,5361,102,-80,-6,-16,-130
2,3700195,-1300,-1539,-542,5361,102,-80,-6,-16,-130
2,3700204,-1300,-1539,-542,5361,102,-80,-6,-16,-130
2,3700211,-1300,-1542,-539,5363,101,-80,-6,-16,-130
2,3700220,-1300,-1542,-539,5363,101,-80,-6,-16,-130
2,3700228,-1299,-1534,-500,5353,115,-81,-11,-17,-135
2,3700237,-1299,-1534,-500,5353,115,-81,-11,-17,-135
2,3700245,-1299,-1548,-555,5354,106,-83,-11,-17,-135
2,3700252,-1299,-1548,-555,5354,106,-83,-11,-17,-135
2,3700260,-1299,-1548,-555,5354,106,-83,-11,-17,-135
2,3700270,-1301,-1538,-510,5363,108,-86,-11,-17,-135
2,3700278,-1301,-1538,-510,5363,108,-86,-11,-17,-135
2,3700286,-1293,-1547,-540,5357,91,-83,-11,-17,-135
2,3700295,-1293,-1547,-540,5357,91,-83,-11,-17,-135
2,3700301,-1293,-1547,-540,5357,91,-83,-11,-17,-135
2,3700311,-1299,-1547,-493,5369,100,-79,-11,-17,-135
2,3700319,-1299,-1547,-493,5369,100,-79,-11,-17,-135
2,3700327,-1295,-1552,-568,5369,95,-81,-11,-17,-135
2,3700335,-1295,-1552,-568,5369,95,-81,-11,-17,-135
2,3700345,-1301,-1547,-506,5368,115,-79,-11,-17,-135
2,3700354,-1301,-1547,-506,5368,115,-79,-9,-15,-139
2,3700363,-1301,-1547,-506,5368,115,-79,-9,-15,-139
2,3700371,-1287,-1559,-565,5369,99,-83,-9,-15,-139
2,3700379,-1287,-1559,-565,5369,99,-83,-9,-15,-139
2,3700387,-1303,-1546,-517,5370,96,-81,-9,-15,-139
2,3700395,-1303,-1546,-517,5370,96,-81,-9,-15,-139
2,3700404,-1303,-1546,-517,5370,96,-81,-9,-15,-139
2,3700410,-1299,-1560,-582,5368,90,-84,-9,-15,-139
2,3700417,-1299,-1560,-582,5368,90,-84,-9,-15,-139
2,3700426,-1298,-1539,-561,5373,110,-87,-9,-15,-139
2,3700434,-1298,-1539,-561,5373,110,-87,-9,-15,-139
2,3700442,-1298,-1539,-561,5373,110,-87,-9,-15,-139
2,3700450,-1293,-1559,-568,5374,113,-81,-9,-15,-139
2,3700459,-1293,-1559,-568,5374,113,-81,-9,-15,-139
2,3700467,-1297,-1537,-568,5371,104,-84,-11,-21,-139
2,3700477,-1297,-1537,-568,5371,104,-84,-11,-21,-139
2,3700487,-1299,-1562,-555,5375,101,-78,-11,-21,-139
2,3700498,-1299,-1562,-555,5375,101,-78,-11,-21,-139
2,3700507,-1297,-1540,-587,5375,108,-80,-11,-21,-139
2,3700516,-1297,-1540,-587,5375,108,-80,-11,-21,-139
2,3700526,-1297,-1540,-587,5375,108,-80,-11,-21,-139
2,3700533,-1297,-1559,-562,5373,100,-79,-11,-21,-139
2,3700542,-1297,-1559,-562,5373,100,-79,-11,-21,-139
2,3700551,-1301,-1548,-580,5371,95,-76,-11,-21,-139
2,3700559,-1301,-1548,-580,5371,95,-76,-11,-21,-139
2,3700569,-1297,-1557,-561,5373,98,-83,-11,-21,-139
2,3700577,-1297,-1557,-561,5373,98,-83,-11,-21,-139
2,3700585,-1297,-1557,-561,5373,98,-83,-11,-21,-139
2,3700594,-1299,-1553,-579,5366,110,-80,-11,-21,-139
2,3700603,-1299,-1553,-579,5366,110,-80,-11,-21,-139
2,3700612,-1297,-1550,-558,5372,102,-81,0,-14,-150
2,3700621,-1297,-1550,-558,5372,102,-81,0,-14,-150
2,3700629,-1297,-1550,-575,5372,98,-76,0,-14,-150
2,3700638,-1297,-1550,-575,5372,98,-76,0,-14,-150
2,3700649,-1300,-1548,-570,5368,93,-75,0,-14,-150
2,3700659,-1300,-1548,-570,5368,93,-75,0,-14,-150
2,3700667,-1295,-1550,-567,5368,104,-76,0,-14,-150
2,3700676,-1295,-1550,-567,5368,104,-76,0,-14,-150
2,3700684,-1295,-1550,-567,5368,104,-76,0,-14,-150
2,3700694,-1294,-1554,-574,5368,105,-79,0,-14,-150
2,3700704,-1294,-1554,-574,5368,105,-79,0,-14,-150
2,3700711,-1295,-1548,-579,5372,110,-86,0,-14,-150
2,3700720,-1295,-1548,-579,5372,110,-86,0,-14,-150
2,3700726,-1299,-1553,-569,5375,102,-82,-3,-11,-153
2,3700736,-1299,-1553,-569,5375,102,-82,-3,-11,-153
2,3700744,-1299,-1553,-569,5375,102,-82,-3,-11,-153
2,3700753,-1294,-1552,-569,5377,101,-86,-3,-11,-153
2,3700762,-1294,-1552,-569,5377,101,-86,-3,-11,-153
2,3700770,-1295,-1551,-579,5373,105,-83,-3,-11,-153
2,3700777,-1295,-1551,-579,5373,105,-83,-3,-11,-153
2,3700786,-1297,-1548,-574,5373,104,-85,-3,-11,-153
2,3700796,-1297,-1548,-574,5373,104,-85,-3,-11,-153
2,3700804,-1297,-1548,-574,5373,104,-85,-3,-11,-153
2,3700813,-1299,-1549,-576,5366,109,-82,-3,-11,-153
2,3700823,-1299,-1549,-576,5366,109,-82,-3,-11,-153
2,3700831,-1298,-1546,-573,5364,106,-82,-3,-11,-153
2,3700840,-1298,-1546,-573,5364,106,-82,-3,-11,-153
2,3700848,-1296,-1553,-592,5368,107,-82,3,-13,-155
2,3700858,-1296,-1553,-592,5368,107,-82,3,-13,-155
2,3700867,-1297,-1544,-585,5369,108,-83,3,-13,-155
2,3700876,-1297,-1544,-585,5369,108,-83,3,-13,-155
2,3700885,-1297,-1544,-585,5369,108,-83,3,-13,-155
2,3700893,-1295,-1557,-578,5368,99,-79,3,-13,-155
2,3700902,-1295,-1557,-578,5368,99,-79,3,-13,-155
2,3700912,-1298,-1543,-586,5364,104,-83,3,-13,-155
2,3700922,-1298,-1543,-586,5364,104,-83,3,-13,-155
2,3700931,-1297,-1556,-584,5369,109,-78,3,-13,-155
2,3700939,-1297,-1556,-584,5369,109,-78,3,-13,-155
2,3700948,-1296,-1539,-596,5362,102,-84,3,-13,-155
2,3700957,-1296,-1539,-596,5362,102,-84,3,-13,-155
2,3700966,-1296,-1539,-596,5362,102,-84,3,-13,-155
2,3700975,-1299,-1551,-580,5374,105,-82,6,-12,-168
2,3700984,-1299,-1551,-580,5374,105,-82,6,-12,-168
2,3700994,-1299,-1546,-580,5368,99,-86,6,-12,-168
2,3701007,-1299,-1548,-586,5364,106,-82,6,-12,-168
2,3701016,-1299,-1548,-586,5364,106,-82,6,-12,-168
2,3701028,-1297,-1546,-584,5360,107,-78,6,-12,-168
2,3701044,-1297,-1546,-584,5360,107,-78,6,-12,-168
2,3701058,-1293,-1546,-573,5366,104,-81,6,-12,-168
2,3701072,-1300,-1545,-583,5368,98,-86,6,-12,-168
2,3701086,-1300,-1545,-583,5368,98,-86,6,-12,-168
2,3701100,-1295,-1545,-576,5362,111,-77,9,-1,-163
2,3701113,-1295,-1542,-580,5358,104,-82,9,-1,-163
2,3701125,-1295,-1542,-580,5358,104,-82,9,-1,-163
2,3701139,-1297,-1547,-570,5366,106,-84,9,-1,-163
2,3701151,-1300,-1544,-578,5366,95,-81,9,-1,-163
2,3701167,-1299,-1547,-560,5357,102,-72,9,-1,-163
2,3701182,-1299,-1547,-560,5357,102,-72,9,-1,-163
2,3701197,-1294,-1539,-557,5359,117,-83,9,-1,-163
2,3701213,-1301,-1542,-559,5354,103,-81,6,-8,-174
2,3701227,-1296,-1544,-551,5364,105,-81,6,-8,-174
2,3701241,-1296,-1544,-551,5364,105,-81,6,-8,-174
2,3701254,-1299,-1545,-540,5362,109,-83,6,-8,-174
2,3701265,-1299,-1545,-540,5362,109,-83,6,-8,-174
2,3701278,-1295,-1547,-575,5359,106,-86,6,-8,-174
2,3701292,-1298,-1549,-551,5364,106,-87,6,-8,-174
2,3701306,-1298,-1549,-551,5364,106,-87,6,-8,-174
2,3701319,-1294,-1547,-582,5364,97,-85,6,-8,-174
2,3701332,-1301,-1548,-550,5363,103,-78,6,-8,-174
2,3701345,-1301,-1548,-550,5363,103,-78,6,-8,-174
2,3701359,-1297,-1547,-585,5362,102,-87,12,-2,-170
2,3701374,-1299,-1547,-555,5358,109,-79,12,-2,-170
2,3701388,-1295,-1543,-565,5364,107,-78,12,-2,-170
2,3701402,-1295,-1543,-565,5364,107,-78,12,-2,-170
2,3701417,-1299,-1547,-537,5364,95,-84,12,-2,-170
2,3701432,-1293,-1550,-547,5365,110,-88,12,-2,-170
2,3701447,-1295,-1553,-550,5364,113,-80,12,-2,-170
2,3701460,-1295,-1553,-550,5364,113,-80,12,-2,-170
2,3701474,-1294,-1550,-533,5362,113,-84,22,6,-172
2,3701488,-1294,-1553,-556,5374,102,-85,22,6,-172
2,3701499,-1294,-1553,-556,5374,102,-85,22,6,-172
2,3701513,-1302,-1550,-551,5368,106,-78,22,6,-172
2,3701526,-1302,-1550,-551,5368,106,-78,22,6,-172
2,3701539,-1294,-1554,-562,5372,103,-85,22,6,-172
2,3701553,-1299,-1547,-567,5380,101,-83,22,6,-172
2,3701567,-1298,-1555,-570,5377,104,-90,22,6,-172
2,3701580,-1298,-1555,-570,5377,104,-90,22,6,-172
2,3701594,-1298,-1543,-567,5366,106,-79,25,7,-185
2,3701608,-1293,-1558,-564,5369,102,-81,25,7,-185
2,3701623,-1293,-1558,-564,5369,102,-81,25,7,-185
2,3701638,-1298,-1548,-566,5373,101,-78,25,7,-185
2,3701650,-1295,-1559,-572,5375,103,-76,25,7,-185
2,3701665,-1295,-1559,-572,5375,103,-76,25,7,-185
2,3701680,-1299,-1544,-566,5371,99,-81,25,7,-185
2,3701694,-1294,-1556,-584,5371,112,-83,25,7,-185
2,3701707,-1299,-1550,-621,5371,106,-82,30,0,-180
2,3701722,-1299,-1550,-621,5371,106,-82,30,0,-180
2,3701734,-1294,-1554,-554,5371,102,-78,30,0,-180
2,3701747,-1298,-1550,-599,5373,100,-83,30,0,-180
2,3701762,-1298,-1550,-599,5373,100,-83,30,0,-180
2,3701775,-1301,-1547,-579,5368,106,-79,30,0,-180
2,3701789,-1296,-1548,-615,5362,116,-85,30,0,-180
2,3701800,-1296,-1548,-615,5362,116,-85,30,0,-180
2,3701812,-1297,-1549,-573,5367,114,-75,30,0,-180
2,3701827,-1297,-1549,-597,5364,98,-81,37,7,-181
2,3701840,-1297,-1549,-597,5364,98,-81,37,7,-181
2,3701855,-1305,-1548,-578,5358,102,-71,37,7,-181
2,3701867,-1297,-1547,-607,5359,108,-79,37,7,-181
2,3701880,-1297,-1547,-607,5359,108,-79,37,7,-181
2,3701895,-1299,-1541,-584,5366,114,-80,37,7,-181
2,3701910,-1297,-1549,-591,5363,101,-79,37,7,-181
2,3701925,-1297,-1549,-591,5363,101,-79,37,7,-181
2,3701941,-1304,-1542,-589,5364,104,-75,37,7,-181
2,3701952,-1301,-1553,-594,5368,112,-75,37,7,-181
2,3701965,-1301,-1553,-594,5368,112,-75,37,7,-181
2,3701979,-1297,-1537,-571,5361,109,-78,43,3,-187
2,3701992,-1299,-1553,-572,5365,102,-73,43,3,-187
2,3702004,-1299,-1553,-572,5365,102,-73,43,3,-187
2,3702012,-1300,-1541,-592,5363,103,-78,43,3,-187
2,3702022,-1300,-1541,-592,5363,103,-78,43,3,-187
2,3702030,-1301,-1552,-575,5361,110,-80,43,3,-187
2,3702039,-1301,-1552,-575,5361,110,-80,43,3,-187
2,3702046,-1301,-1552,-575,5361,110,-80,43,3,-187
2,3702055,-1294,-1544,-576,5362,108,-78,43,3,-187
2,3702064,-1294,-1544,-576,5362,108,-78,43,3,-187
2,3702073,-1298,-1540,-569,5359,96,-84,43,3,-187
2,3702082,-1298,-1540,-569,5359,96,-84,43,3,-187
2,3702089,-1300,-1544,-574,5359,101,-81,35,1,-181
2,3702097,-1300,-1544,-574,5359,101,-81,35,1,-181
2,3702106,-1300,-1544,-574,5359,101,-81,35,1,-181
2,3702115,-1298,-1543,-563,5356,106,-79,35,1,-181
2,3702123,-1298,-1543,-563,5356,106,-79,35,1,-181
2,3702133,-1297,-1546,-566,5357,113,-81,35,1,-181
2,3702141,-1297,-1546,-566,5357,113,-81,35,1,-181
2,3702151,-1302,-1541,-560,5359,102,-82,35,1,-181
2,3702159,-1302,-1541,-560,5359,102,-82,35,1,-181
2,3702168,-1295,-1545,-568,5364,102,-86,35,1,-181
2,3702177,-1295,-1545,-568,5364,102,-86,35,1,-181
2,3702185,-1295,-1545,-568,5364,102,-86,35,1,-181
2,3702195,-1299,-1546,-564,5364,107,-82,35,1,-181
2,3702203,-1299,-1546,-564,5364,107,-82,35,1,-181
2,3702209,-1296,-1545,-558,5365,107,-81,50,-2,-180
2,3702218,-1296,-1545,-558,5365,107,-81,50,-2,-180
2,3702227,-1297,-1546,-539,5363,98,-70,50,-2,-180
2,3702238,-1297,-1546,-539,5363,98,-70,50,-2,-180
2,3702246,-1297,-1546,-539,5363,98,-70,50,-2,-180
2,3702254,-1300,-1546,-545,5365,96,-84,50,-2,-180
2,3702261,-1300,-1546,-545,5365,96,-84,50,-2,-180
2,3702270,-1301,-1546,-528,5366,103,-88,50,-2,-180
2,3702279,-1301,-1546,-528,5366,103,-88,50,-2,-180
2,3702287,-1301,-1546,-528,5366,103,-88,50,-2,-180
2,3702295,-1297,-1548,-548,5359,104,-81,50,-2,-180
2,3702304,-1297,-1548,-548,5359,104,-81,50,-2,-180
2,3702313,-1296,-1551,-538,5369,104,-86,50,-2,-180
2,3702323,-1296,-1551,-538,5369,104,-86,50,-2,-180
2,3702331,-1298,-1546,-545,5371,106,-79,56,0,-178
2,3702340,-1298,-1546,-545,5371,106,-79,56,0,-178
2,3702347,-1298,-1546,-545,5371,106,-79,56,0,-178
2,3702355,-1298,-1555,-555,5370,99,-72,56,0,-178
2,3702365,-1298,-1555,-555,5370,99,-72,56,0,-178
2,3702372,-1299,-1548,-551,5372,106,-72,56,0,-178
2,3702381,-1299,-1548,-551,5372,106,-72,56,0,-178
2,3702389,-1298,-1556,-565,5373,103,-78,56,0,-178
2,3702397,-1298,-1556,-565,5373,103,-78,56,0,-178
2,3702407,-1298,-1556,-565,5373,103,-78,56,0,-178
2,3702413,-1300,-1546,-554,5376,103,-80,56,0,-178
2,3702421,-1300,-1546,-554,5376,103,-80,56,0,-178
2,3702429,-1298,-1562,-562,5378,104,-83,56,0,-178
2,3702439,-1298,-1562,-562,5378,104,-83,56,0,-178
2,3702448,-1300,-1548,-568,5372,101,-80,61,-9,-191
2,3702455,-1300,-1548,-568,5372,101,-80,61,-9,-191
2,3702460,-1300,-1548,-568,5372,101,-80,61,-9,-191
2,3702469,-1297,-1560,-560,5370,95,-79,61,-9,-191
2,3702478,-1297,-1560,-560,5370,95,-79,61,-9,-191
2,3702488,-1297,-1560,-560,5370,95,-79,61,-9,-191
2,3702495,-1298,-1550,-577,5372,91,-77,61,-9,-191
2,3702504,-1298,-1550,-577,5372,91,-77,61,-9,-191
2,3702512,-1299,-1556,-564,5375,95,-85,61,-9,-191
2,3702520,-1299,-1556,-564,5375,95,-85,61,-9,-191
2,3702530,-1301,-1554,-582,5370,98,-82,61,-9,-191
2,3702538,-1301,-1554,-582,5370,98,-82,61,-9,-191
2,3702546,-1301,-1554,-582,5370,98,-82,61,-9,-191
2,3702555,-1300,-1548,-562,5378,95,-85,61,-9,-191
2,3702564,-1300,-1548,-562,5378,95,-85,61,-9,-191
2,3702573,-1299,-1556,-609,5372,91,-82,61,-9,-191
2,3702582,-1299,-1556,-609,5372,91,-82,61,-9,-191
2,3702590,-1297,-1550,-604,5374,95,-78,60,12,-188
2,3702599,-1297,-1550,-604,5374,95,-78,60,12,-188
2,3702608,-1298,-1561,-558,5376,99,-76,60,12,-188
2,3702618,-1298,-1561,-558,5376,99,-76,60,12,-188
2,3702627,-1298,-1561,-558,5376,99,-76,60,12,-188
2,3702636,-1299,-1546,-605,5371,96,-78,60,12,-188
2,3702646,-1299,-1546,-605,5371,96,-78,60,12,-188
2,3702656,-1300,-1558,-592,5368,108,-80,60,12,-188
2,3702664,-1300,-1558,-592,5368,108,-80,60,12,-188
2,3702673,-1298,-1542,-604,5364,112,-82,60,12,-188
2,3702681,-1298,-1542,-604,5364,112,-82,60,12,-188
2,3702689,-1294,-1551,-569,5367,105,-86,60,12,-188
2,3702699,-1294,-1551,-569,5367,105,-86,60,12,-188
2,3702708,-1303,-1548,-583,5370,93,-83,60,12,-188
2,3702716,-1303,-1548,-583,5370,93,-83,68,-2,-188
2,3702724,-1303,-1548,-583,5370,93,-83,68,-2,-188
2,3702732,-1294,-1550,-600,5365,92,-78,68,-2,-188
2,3702740,-1294,-1550,-600,5365,92,-78,68,-2,-188
2,3702749,-1296,-1543,-583,5366,107,-82,68,-2,-188
2,3702759,-1296,-1543,-583,5366,107,-82,68,-2,-188
2,3702769,-1295,-1550,-595,5363,105,-82,68,-2,-188
2,3702778,-1295,-1550,-595,5363,105,-82,68,-2,-188
2,3702788,-1295,-1550,-595,5363,105,-82,68,-2,-188
2,3702796,-1301,-1537,-572,5360,96,-75,68,-2,-188
2,3702804,-1301,-1537,-572,5360,96,-75,68,-2,-188
2,3702812,-1300,-1557,-603,5365,100,-67,68,-2,-188
2,3702820,-1300,-1557,-603,5365,100,-67,68,-2,-188
2,3702829,-1297,-1538,-559,5357,107,-78,86,-10,-180
2,3702838,-1297,-1538,-559,5357,107,-78,86,-10,-180
2,3702848,-1298,-1551,-596,5357,99,-86,86,-10,-180
2,3702855,-1298,-1551,-596,5357,99,-86,86,-10,-180
2,3702864,-1298,-1551,-596,5357,99,-86,86,-10,-180
2,3702873,-1304,-1543,-570,5363,99,-79,86,-10,-180
2,3702882,-1304,-1543,-570,5363,99,-79,86,-10,-180
2,3702891,-1295,-1550,-596,5363,88,-82,86,-10,-180
2,3702900,-1295,-1550,-596,5363,88,-82,86,-10,-180
2,3702909,-1301,-1544,-565,5357,92,-84,86,-10,-180
2,3702919,-1301,-1544,-565,5357,92,-84,86,-10,-180
2,3702928,-1296,-1549,-589,5353,98,-83,86,-10,-180
2,3702938,-1296,-1549,-589,5353,98,-83,86,-10,-180
2,3702946,-1296,-1549,-589,5353,98,-83,86,-10,-180
2,3702955,-1305,-1541,-566,5355,103,-77,87,-9,-185
2,3702964,-1305,-1541,-566,5355,103,-77,87,-9,-185
2,3702974,-1297,-1553,-578,5355,105,-83,87,-9,-185
2,3702982,-1297,-1553,-578,5355,105,-83,87,-9,-185
2,3702990,-1300,-1537,-560,5360,107,-84,87,-9,-185
2,3703000,-1300,-1537,-560,5360,107,-84,87,-9,-185
2,3703007,-1300,-1537,-560,5360,107,-84,87,-9,-185
2,3703023,-1300,-1552,-577,5356,93,-80,87,-9,-185
2,3703036,-1299,-1535,-565,5358,106,-78,87,-9,-185
2,3703051,-1299,-1548,-568,5356,102,-78,87,-9,-185
2,3703063,-1299,-1548,-568,5356,102,-78,87,-9,-185
2,3703077,-1303,-1543,-557,5358,110,-78,99,-9,-181
2,3703091,-1303,-1543,-557,5358,110,-78,99,-9,-181
2,3703103,-1303,-1543,-557,5358,110,-78,99,-9,-181
2,3703118,-1304,-1549,-541,5365,114,-81,99,-9,-181
2,3703134,-1298,-1550,-538,5365,110,-77,99,-9,-181
2,3703149,-1303,-1548,-550,5362,112,-90,99,-9,-181
2,3703164,-1303,-1548,-550,5362,112,-90,99,-9,-181
2,3703177,-1296,-1555,-523,5373,99,-86,99,-9,-181
2,3703191,-1300,-1547,-565,5373,88,-76,99,-9,-181
2,3703204,-1300,-1547,-565,5373,88,-76,99,-9,-181
2,3703218,-1300,-1558,-531,5377,98,-87,99,-15,-177
2,3703231,-1297,-1544,-568,5369,99,-91,99,-15,-177
2,3703245,-1297,-1544,-568,5369,99,-91,99,-15,-177
2,3703259,-1300,-1558,-535,5375,93,-84,99,-15,-177
2,3703271,-1303,-1548,-567,5365,96,-78,99,-15,-177
2,3703285,-1303,-1548,-567,5365,96,-78,99,-15,-177
2,3703300,-1301,-1562,-554,5370,101,-82,99,-15,-177
2,3703313,-1298,-1549,-565,5360,106,-79,99,-15,-177
2,3703327,-1298,-1549,-565,5360,106,-79,99,-15,-177
2,3703343,-1298,-1556,-556,5365,95,-76,101,-17,-167
2,3703358,-1301,-1549,-564,5365,94,-85,101,-17,-167
2,3703373,-1294,-1556,-564,5366,108,-82,101,-17,-167
2,3703388,-1294,-1556,-564,5366,108,-82,101,-17,-167
2,3703401,-1294,-1551,-570,5365,106,-81,101,-17,-167
2,3703415,-1294,-1558,-572,5372,100,-78,101,-17,-167
2,3703429,-1303,-1547,-629,5367,99,-82,101,-17,-167
2,3703444,-1303,-1547,-629,5367,99,-82,101,-17,-167
2,3703458,-1297,-1559,-554,5368,103,-82,113,-13,-165
2,3703473,-1297,-1549,-595,5370,86,-86,113,-13,-165
2,3703487,-1297,-1549,-595,5370,86,-86,113,-13,-165
2,3703499,-1303,-1558,-581,5370,98,-76,113,-13,-165
2,3703514,-1298,-1549,-611,5363,104,-84,113,-13,-165
2,3703528,-1298,-1548,-566,5369,108,-88,113,-13,-165
2,3703540,-1298,-1548,-566,5369,108,-88,113,-13,-165
2,3703555,-1298,-1550,-591,5367,90,-89,113,-13,-165
2,3703569,-1305,-1548,-573,5367,92,-83,121,-17,-157
2,3703584,-1305,-1548,-573,5367,92,-83,121,-17,-157
2,3703600,-1302,-1555,-596,5367,106,-85,121,-17,-157
2,3703613,-1298,-1540,-577,5363,102,-86,121,-17,-157
2,3703627,-1298,-1540,-577,5363,102,-86,121,-17,-157
2,3703642,-1301,-1555,-584,5362,94,-77,121,-17,-157
2,3703656,-1304,-1545,-587,5367,89,-81,121,-17,-157
2,3703669,-1300,-1551,-596,5365,108,-77,121,-17,-157
2,3703684,-1300,-1551,-596,5365,108,-77,121,-17,-157
2,3703696,-1300,-1549,-560,5367,113,-77,124,-18,-152
2,3703710,-1298,-1547,-583,5360,101,-83,124,-18,-152
2,3703723,-1298,-1547,-583,5360,101,-83,124,-18,-152
2,3703736,-1302,-1543,-578,5356,101,-79,124,-18,-152
2,3703749,-1298,-1549,-586,5357,108,-80,124,-18,-152
2,3703763,-1298,-1549,-586,5357,108,-80,124,-18,-152
2,3703775,-1298,-1541,-566,5362,98,-86,124,-18,-152
2,3703788,-1298,-1541,-566,5362,98,-86,124,-18,-152
2,3703802,-1298,-1541,-566,5362,98,-86,124,-18,-152
2,3703816,-1300,-1541,-575,5362,102,-76,124,-18,-152
2,3703830,-1295,-1552,-581,5363,104,-77,130,-26,-152
2,3703841,-1295,-1552,-581,5363,104,-77,130,-26,-152
2,3703852,-1299,-1539,-570,5364,101,-84,130,-26,-152
2,3703865,-1299,-1539,-570,5364,101,-84,130,-26,-152
2,3703880,-1303,-1550,-578,5367,101,-80,130,-26,-152
2,3703896,-1299,-1542,-570,5360,112,-80,130,-26,-152
2,3703910,-1297,-1549,-567,5366,104,-73,130,-26,-152
2,3703924,-1297,-1549,-567,5366,104,-73,130,-26,-152
2,3703938,-1301,-1549,-564,5364,96,-79,130,-26,-152
2,3703951,-1297,-1546,-553,5360,97,-86,124,-36,-142
2,3703963,-1297,-1546,-553,5360,97,-86,124,-36,-142
2,3703976,-1297,-1553,-506,5363,110,-86,124,-36,-142
2,3703990,-1299,-1549,-556,5364,99,-81,124,-36,-142
2,3704003,-1299,-1549,-556,5364,99,-81,124,-36,-142
2,3704016,-1299,-1550,-525,5366,106,-84,124,-36,-142
2,3704032,-1296,-1552,-563,5366,109,-87,124,-36,-142
2,3704041,-1296,-1552,-563,5366,109,-87,124,-36,-142
2,3704054,-1298,-1550,-525,5372,98,-76,124,-36,-142
2,3704068,-1298,-1550,-525,5372,98,-76,124,-36,-142
2,3704082,-1306,-1559,-556,5367,89,-81,128,-36,-144
2,3704094,-1299,-1549,-552,5376,112,-85,128,-36,-144
2,3704103,-1299,-1549,-552,5376,112,-85,128,-36,-144
2,3704118,-1297,-1557,-560,5375,117,-81,128,-36,-144
2,3704131,-1301,-1551,-551,5373,106,-78,128,-36,-144
2,3704146,-1301,-1551,-551,5373,106,-78,128,-36,-144
2,3704162,-1296,-1554,-556,5378,100,-87,128,-36,-144
2,3704176,-1301,-1557,-557,5379,101,-78,128,-36,-144
2,3704189,-1292,-1557,-571,5375,106,-84,134,-34,-138
2,3704203,-1292,-1557,-571,5375,106,-84,134,-34,-138
2,3704217,-1300,-1558,-563,5373,101,-77,134,-34,-138
2,3704231,-1297,-1556,-572,5377,105,-79,134,-34,-138
2,3704244,-1297,-1556,-572,5377,105,-79,134,-34,-138
2,3704258,-1301,-1556,-562,5378,105,-70,134,-34,-138
2,3704271,-1298,-1556,-608,5374,100,-83,134,-34,-138
2,3704286,-1298,-1556,-608,5374,100,-83,134,-34,-138
2,3704300,-1295,-1551,-612,5370,106,-83,134,-34,-138
2,3704314,-1300,-1559,-551,5375,105,-80,136,-42,-132
2,3704330,-1297,-1548,-593,5365,100,-78,136,-42,-132
2,3704345,-1297,-1548,-593,5365,100,-78,136,-42,-132
2,3704359,-1303,-1561,-583,5361,106,-79,136,-42,-132
2,3704373,-1299,-1549,-603,5363,115,-77,136,-42,-132
2,3704388,-1299,-1549,-603,5363,115,-77,136,-42,-132
2,3704401,-1295,-1552,-566,5362,108,-81,136,-42,-132
2,3704414,-1302,-1555,-577,5368,96,-86,136,-42,-132
2,3704428,-1302,-1555,-577,5368,96,-86,136,-42,-132
2,3704441,-1302,-1551,-595,5363,96,-81,136,-42,-132
2,3704456,-1300,-1551,-589,5365,111,-81,130,-28,-128
2,3704469,-1300,-1551,-589,5365,111,-81,130,-28,-128
2,3704483,-1297,-1550,-584,5362,109,-76,130,-28,-128
2,3704496,-1298,-1545,-565,5364,104,-77,130,-28,-128
2,3704509,-1298,-1545,-565,5364,104,-77,130,-28,-128
2,3704522,-1301,-1553,-598,5370,93,-80,130,-28,-128
2,3704537,-1301,-1545,-568,5370,110,-78,130,-28,-128
2,3704551,-1298,-1555,-595,5363,109,-85,130,-28,-128
2,3704566,-1298,-1555,-595,5363,109,-85,130,-28,-128
2,3704582,-1294,-1546,-563,5364,96,-86,133,-39,-121
2,3704596,-1300,-1556,-593,5363,94,-82,133,-39,-121
2,3704610,-1299,-1548,-567,5364,106,-82,133,-39,-121
2,3704624,-1299,-1548,-567,5364,106,-82,133,-39,-121
2,3704638,-1296,-1550,-588,5361,106,-78,133,-39,-121
2,3704649,-1300,-1545,-573,5362,101,-78,133,-39,-121
2,3704663,-1300,-1545,-573,5362,101,-78,133,-39,-121
2,3704677,-1298,-1550,-583,5365,99,-80,133,-39,-121
2,3704690,-1300,-1544,-570,5367,108,-83,135,-47,-115
2,3704705,-1300,-1544,-570,5367,108,-83,135,-47,-115
2,3704716,-1298,-1554,-576,5364,101,-77,135,-47,-115
2,3704729,-1298,-1554,-576,5364,101,-77,135,-47,-115
2,3704743,-1300,-1541,-563,5368,104,-76,135,-47,-115
2,3704757,-1300,-1558,-568,5365,103,-77,135,-47,-115
2,3704770,-1300,-1541,-562,5366,108,-83,135,-47,-115
2,3704785,-1300,-1541,-562,5366,108,-83,135,-47,-115
2,3704800,-1298,-1555,-560,5362,105,-78,135,-47,-115
2,3704815,-1301,-1548,-509,5368,106,-78,132,-46,-116
2,3704828,-1301,-1548,-509,5368,106,-78,132,-46,-116
2,3704843,-1306,-1549,-546,5365,100,-80,132,-46,-116
2,3704858,-1302,-1553,-533,5366,109,-82,132,-46,-116
2,3704866,-1302,-1553,-533,5366,109,-82,132,-46,-116
2,3704882,-1295,-1547,-549,5364,114,-86,132,-46,-116
2,3704896,-1298,-1550,-533,5369,108,-79,132,-46,-116
2,3704909,-1298,-1550,-533,5369,108,-79,132,-46,-116
2,3704923,-1298,-1559,-553,5372,101,-81,132,-46,-116
2,3704937,-1300,-1555,-552,5376,109,-81,135,-35,-123
2,3704949,-1300,-1555,-552,5376,109,-81,135,-35,-123
2,3704962,-1296,-1561,-553,5377,117,-83,135,-35,-123
2,3704975,-1295,-1549,-551,5377,95,-83,135,-35,-123
2,3704989,-1295,-1549,-551,5377,95,-83,135,-35,-123
2,3705004,-1301,-1562,-555,5385,104,-81,135,-35,-123
2,3705017,-1301,-1549,-556,5379,110,-86,135,-35,-123
2,3705028,-1301,-1549,-556,5379,110,-86,135,-35,-123
2,3705040,-1294,-1566,-570,5370,118,-83,135,-35,-123
2,3705054,-1297,-1548,-557,5370,104,-77,136,-34,-108
2,3705069,-1297,-1548,-557,5370,104,-77,136,-34,-108
2,3705083,-1300,-1565,-571,5376,100,-79,136,-34,-108
2,3705099,-1299,-1556,-564,5374,103,-78,136,-34,-108
2,3705112,-1296,-1563,-583,5380,118,-83,136,-34,-108
2,3705126,-1296,-1563,-583,5380,118,-83,136,-34,-108
2,3705141,-1302,-1549,-625,5378,103,-86,136,-34,-108
2,3705152,-1294,-1560,-565,5374,100,-82,136,-34,-108
2,3705164,-1294,-1560,-565,5374,100,-82,136,-34,-108
2,3705179,-1302,-1552,-600,5374,91,-81,136,-34,-108
2,3705192,-1301,-1560,-579,5375,103,-78,129,-35,-105
2,3705206,-1301,-1560,-579,5375,103,-78,129,-35,-105
2,3705219,-1296,-1548,-610,5365,120,-82,129,-35,-105
2,3705231,-1299,-1557,-565,5369,107,-77,129,-35,-105
2,3705245,-1299,-1557,-565,5369,107,-77,129,-35,-105
2,3705260,-1298,-1542,-589,5370,93,-87,129,-35,-105
2,3705271,-1304,-1558,-583,5372,95,-87,129,-35,-105
2,3705284,-1304,-1558,-583,5372,95,-87,129,-35,-105
2,3705298,-1300,-1551,-602,5362,106,-79,129,-35,-105
2,3705314,-1296,-1551,-581,5363,115,-78,127,-35,-101
2,3705328,-1296,-1551,-581,5363,115,-78,127,-35,-101
2,3705344,-1295,-1555,-577,5367,106,-85,127,-35,-101
2,3705357,-1303,-1548,-586,5360,97,-84,127,-35,-101
2,3705367,-1303,-1548,-586,5360,97,-84,127,-35,-101
2,3705380,-1298,-1559,-600,5367,105,-81,127,-35,-101
2,3705388,-1298,-1559,-600,5367,105,-81,127,-35,-101
2,3705398,-1298,-1546,-569,5370,105,-74,127,-35,-101
2,3705412,-1303,-1549,-592,5365,107,-82,127,-35,-101
2,3705425,-1303,-1549,-592,5365,107,-82,127,-35,-101
2,3705434,-1304,-1548,-571,5366,105,-85,123,-27,-97
2,3705442,-1304,-1548,-571,5366,105,-85,123,-27,-97
2,3705450,-1296,-1549,-587,5364,108,-80,123,-27,-97
2,3705464,-1296,-1549,-587,5364,108,-80,123,-27,-97
2,3705478,-1297,-1555,-567,5358,100,-84,123,-27,-97
2,3705491,-1295,-1549,-586,5364,101,-86,123,-27,-97
2,3705506,-1295,-1549,-586,5364,101,-86,123,-27,-97
2,3705521,-1301,-1548,-578,5359,110,-85,123,-27,-97
2,3705532,-1300,-1549,-579,5359,117,-81,123,-27,-97
2,3705543,-1300,-1549,-579,5359,117,-81,123,-27,-97
2,3705556,-1301,-1543,-571,5366,111,-81,124,-26,-90
2,3705571,-1302,-1552,-575,5363,105,-82,124,-26,-90
2,3705586,-1302,-1552,-575,5363,105,-82,124,-26,-90
2,3705601,-1299,-1537,-576,5365,110,-85,124,-26,-90
2,3705614,-1299,-1550,-565,5358,100,-80,124,-26,-90
2,3705628,-1299,-1550,-565,5358,100,-80,124,-26,-90
2,3705640,-1297,-1546,-565,5358,101,-81,124,-26,-90
2,3705653,-1300,-1548,-554,5355,106,-81,124,-26,-90
2,3705666,-1300,-1548,-554,5355,106,-81,124,-26,-90
2,3705679,-1297,-1550,-535,5361,111,-77,110,-30,-90
2,3705693,-1295,-1550,-511,5355,103,-86,110,-30,-90
2,3705706,-1295,-1550,-511,5355,103,-86,110,-30,-90
2,3705718,-1301,-1549,-547,5370,100,-79,110,-30,-90
2,3705732,-1298,-1552,-545,5374,111,-76,110,-30,-90
2,3705747,-1298,-1552,-545,5374,111,-76,110,-30,-90
2,3705762,-1293,-1552,-545,5370,107,-86,110,-30,-90
2,3705774,-1302,-1558,-530,5372,98,-84,110,-30,-90
2,3705788,-1302,-1558,-530,5372,98,-84,110,-30,-90
2,3705802,-1304,-1549,-568,5372,105,-81,110,-30,-90
2,3705817,-1301,-1561,-541,5373,109,-78,119,-25,-91
2,3705830,-1301,-1561,-541,5373,109,-78,119,-25,-91
2,3705839,-1295,-1551,-561,5369,117,-71,119,-25,-91
2,3705848,-1295,-1551,-561,5369,117,-71,119,-25,-91
2,3705862,-1300,-1561,-537,5374,99,-81,119,-25,-91
2,3705873,-1302,-1556,-566,5373,102,-81,119,-25,-91
2,3705889,-1302,-1556,-566,5373,102,-81,119,-25,-91
2,3705903,-1296,-1556,-570,5371,109,-86,119,-25,-91
2,3705917,-1297,-1559,-568,5375,108,-85,119,-25,-91
2,3705930,-1297,-1559,-568,5375,108,-85,119,-25,-91
2,3705944,-1298,-1556,-561,5376,99,-84,103,-27,-85
2,3705957,-1301,-1559,-562,5372,102,-82,103,-27,-85
2,3705970,-1301,-1551,-610,5370,108,-85,103,-27,-85
2,3705984,-1301,-1551,-610,5370,108,-85,103,-27,-85
2,3705998,-1300,-1551,-604,5367,118,-79,103,-27,-85
2,3706011,-1295,-1555,-566,5377,111,-82,103,-27,-85
2,3706019,-1295,-1555,-566,5377,111,-82,103,-27,-85
2,3706028,-1295,-1555,-566,5377,111,-82,103,-27,-85
2,3706037,-1295,-1547,-599,5373,96,-77,103,-27,-85
2,3706045,-1295,-1547,-599,5373,96,-77,103,-27,-85
2,3706053,-1306,-1564,-587,5372,108,-80,97,-23,-93
2,3706061,-1306,-1564,-587,5372,108,-80,97,-23,-93
2,3706070,-1306,-1564,-587,5372,108,-80,97,-23,-93
2,3706078,-1295,-1548,-604,5367,120,-76,97,-23,-93
2,3706086,-1295,-1548,-604,5367,120,-76,97,-23,-93
2,3706094,-1297,-1557,-564,5372,106,-76,97,-23,-93
2,3706103,-1297,-1557,-564,5372,106,-76,97,-23,-93
2,3706110,-1298,-1551,-581,5362,95,-90,97,-23,-93
2,3706120,-1298,-1551,-581,5362,95,-90,97,-23,-93
2,3706129,-1298,-1551,-581,5362,95,-90,97,-23,-93
2,3706137,-1298,-1551,-581,5362,95,-90,97,-23,-93
2,3706145,-1298,-1551,-581,5362,95,-90,97,-23,-93
2,3706153,-1302,-1552,-592,5366,116,-81,97,-23,-93
2,3706162,-1302,-1552,-592,5366,116,-81,97,-23,-93
2,3706168,-1302,-1552,-592,5366,116,-81,97,-23,-93
2,3706174,-1296,-1543,-585,5372,109,-81,96,-16,-84
2,3706180,-1296,-1543,-585,5372,109,-81,96,-16,-84
2,3706186,-1296,-1543,-585,5372,109,-81,96,-16,-84
2,3706192,-1299,-1556,-569,5368,102,-83,96,-16,-84
2,3706199,-1299,-1556,-569,5368,102,-83,96,-16,-84
2,3706205,-1299,-1556,-569,5368,102,-83,96,-16,-84
2,3706211,-1296,-1551,-602,5365,105,-85,96,-16,-84
2,3706218,-1296,-1551,-602,5365,105,-85,96,-16,-84
2,3706224,-1296,-1551,-602,5365,105,-85,96,-16,-84
2,3706230,-1296,-1551,-602,5365,105,-85,96,-16,-84
2,3706236,-1297,-1552,-561,5364,116,-83,96,-16,-84
2,3706243,-1297,-1552,-561,5364,116,-83,96,-16,-84
2,3706249,-1297,-1552,-561,5364,116,-83,96,-16,-84
2,3706255,-1299,-1553,-594,5363,111,-77,96,-16,-84
2,3706261,-1299,-1553,-594,5363,111,-77,96,-16,-84
2,3706267,-1299,-1553,-594,5363,111,-77,96,-16,-84
2,3706273,-1299,-1543,-568,5364,110,-81,96,-16,-84
2,3706279,-1299,-1543,-568,5364,110,-81,96,-16,-84
2,3706287,-1299,-1543,-568,5364,110,-81,96,-16,-84
2,3706293,-1305,-1554,-589,5365,107,-82,91,-25,-77
2,3706299,-1305,-1554,-589,5365,107,-82,91,-25,-77
2,3706305,-1305,-1554,-589,5365,107,-82,91,-25,-77
2,3706311,-1299,-1547,-564,5359,114,-83,91,-25,-77
2,3706317,-1299,-1547,-564,5359,114,-83,91,-25,-77
2,3706323,-1299,-1547,-564,5359,114,-83,91,-25,-77
2,3706330,-1299,-1547,-564,5359,114,-83,91,-25,-77
2,3706336,-1300,-1551,-587,5361,112,-79,91,-25,-77
2,3706343,-1300,-1551,-587,5361,112,-79,91,-25,-77
2,3706349,-1300,-1551,-587,5361,112,-79,91,-25,-77
2,3706355,-1301,-1549,-574,5365,102,-83,91,-25,-77
2,3706361,-1301,-1549,-574,5365,102,-83,91,-25,-77
2,3706368,-1301,-1549,-574,5365,102,-83,91,-25,-77
2,3706374,-1298,-1547,-579,5364,102,-84,91,-25,-77
2,3706380,-1298,-1547,-579,5364,102,-84,91,-25,-77
2,3706386,-1298,-1547,-579,5364,102,-84,91,-25,-77
2,3706393,-1299,-1548,-575,5362,102,-77,91,-25,-77
2,3706399,-1299,-1548,-575,5362,102,-77,91,-25,-77
2,3706405,-1299,-1548,-575,5362,102,-77,91,-25,-77
2,3706411,-1298,-1550,-580,5359,105,-81,91,-25,-77
2,3706418,-1298,-1550,-580,5359,105,-81,91,-25,-77
2,3706424,-1298,-1550,-580,5359,105,-81,91,-25,-77
2,3706430,-1298,-1550,-580,5359,105,-81,91,-25,-77
2,3706436,-1303,-1543,-572,5359,110,-80,82,-20,-86
2,3706442,-1303,-1543,-572,5359,110,-80,82,-20,-86
2,3706448,-1303,-1543,-572,5359,110,-80,82,-20,-86
2,3706455,-1295,-1554,-569,5355,101,-84,82,-20,-86
2,3706461,-1295,-1554,-569,5355,101,-84,82,-20,-86
2,3706468,-1295,-1554,-569,5355,101,-84,82,-20,-86
2,3706474,-1301,-1542,-555,5357,102,-80,82,-20,-86
2,3706480,-1301,-1542,-555,5357,102,-80,82,-20,-86
2,3706486,-1301,-1542,-555,5357,102,-80,82,-20,-86
2,3706492,-1296,-1556,-570,5359,115,-78,82,-20,-86
2,3706499,-1296,-1556,-570,5359,115,-78,82,-20,-86
2,3706505,-1296,-1556,-570,5359,115,-78,82,-20,-86
2,3706511,-1296,-1556,-570,5359,115,-78,82,-20,-86
2,3706517,-1295,-1541,-519,5361,117,-79,82,-20,-86
2,3706523,-1295,-1541,-519,5361,117,-79,82,-20,-86
2,3706529,-1295,-1541,-519,5361,117,-79,82,-20,-86
2,3706535,-1300,-1556,-541,5358,107,-79,82,-20,-86
2,3706542,-1300,-1556,-541,5358,107,-79,82,-20,-86
2,3706548,-1300,-1556,-541,5358,107,-79,82,-20,-86
2,3706555,-1301,-1543,-529,5357,104,-77,84,-22,-84
2,3706561,-1301,-1543,-529,5357,104,-77,84,-22,-84
2,3706568,-1301,-1543,-529,5357,104,-77,84,-22,-84
2,3706574,-1302,-1558,-556,5362,111,-86,84,-22,-84
2,3706580,-1302,-1558,-556,5362,111,-86,84,-22,-84
2,3706587,-1302,-1558,-556,5362,111,-86,84,-22,-84
2,3706593,-1296,-1544,-542,5367,114,-80,84,-22,-84
2,3706599,-1296,-1544,-542,5367,114,-80,84,-22,-84
2,3706605,-1296,-1544,-542,5367,114,-80,84,-22,-84
2,3706611,-1297,-1558,-535,5373,93,-77,84,-22,-84
2,3706617,-1297,-1558,-535,5373,93,-77,84,-22,-84
2,3706624,-1297,-1558,-535,5373,93,-77,84,-22,-84
2,3706630,-1297,-1558,-535,5373,93,-77,84,-22,-84
2,3706636,-1305,-1551,-564,5374,104,-83,84,-22,-84
2,3706642,-1305,-1551,-564,5374,104,-83,84,-22,-84
2,3706648,-1305,-1551,-564,5374,104,-83,84,-22,-84
2,3706654,-1305,-1551,-564,5374,104,-83,84,-22,-84
2,3706660,-1305,-1551,-564,5374,104,-83,84,-22,-84
2,3706667,-1305,-1551,-564,5374,104,-83,84,-22,-84
2,3706673,-1297,-1553,-558,5372,112,-81,72,-28,-90
2,3706679,-1297,-1553,-558,5372,112,-81,72,-28,-90
2,3706685,-1297,-1553,-558,5372,112,-81,72,-28,-90
2,3706691,-1297,-1553,-558,5372,112,-81,72,-28,-90
2,3706696,-1297,-1560,-538,5377,98,-78,72,-28,-90
2,3706702,-1297,-1560,-538,5377,98,-78,72,-28,-90
2,3706708,-1297,-1560,-538,5377,98,-78,72,-28,-90
2,3706715,-1305,-1549,-557,5375,102,-79,72,-28,-90
2,3706721,-1305,-1549,-557,5375,102,-79,72,-28,-90
2,3706727,-1305,-1549,-557,5375,102,-79,72,-28,-90
2,3706733,-1295,-1564,-567,5373,114,-76,72,-28,-90
2,3706739,-1295,-1564,-567,5373,114,-76,72,-28,-90
2,3706744,-1295,-1564,-567,5373,114,-76,72,-28,-90
2,3706750,-1295,-1564,-567,5373,114,-76,72,-28,-90
2,3706757,-1295,-1544,-566,5370,113,-78,72,-28,-90
2,3706763,-1295,-1544,-566,5370,113,-78,72,-28,-90
2,3706769,-1295,-1544,-566,5370,113,-78,72,-28,-90
2,3706775,-1297,-1563,-570,5375,103,-85,72,-28,-90
2,3706781,-1297,-1563,-570,5375,103,-85,72,-28,-90
2,3706787,-1297,-1563,-570,5375,103,-85,72,-28,-90
2,3706793,-1301,-1548,-552,5373,100,-84,60,-30,-84
2,3706800,-1301,-1548,-552,5373,100,-84,60,-30,-84
2,3706806,-1301,-1548,-552,5373,100,-84,60,-30,-84
2,3706812,-1300,-1569,-590,5377,105,-74,60,-30,-84
2,3706817,-1300,-1569,-590,5377,105,-74,60,-30,-84
2,3706823,-1300,-1569,-590,5377,105,-74,60,-30,-84
2,3706829,-1300,-1569,-590,5377,105,-74,60,-30,-84
2,3706835,-1303,-1551,-614,5370,111,-82,60,-30,-84
2,3706842,-1303,-1551,-614,5370,111,-82,60,-30,-84
2,3706848,-1303,-1551,-614,5370,111,-82,60,-30,-84
2,3706854,-1294,-1562,-552,5382,110,-78,60,-30,-84
2,3706859,-1294,-1562,-552,5382,110,-78,60,-30,-84
2,3706865,-1294,-1562,-552,5382,110,-78,60,-30,-84
2,3706871,-1301,-1555,-590,5369,98,-82,60,-30,-84
2,3706877,-1301,-1555,-590,5369,98,-82,60,-30,-84
2,3706884,-1301,-1555,-590,5369,98,-82,60,-30,-84
2,3706890,-1301,-1555,-590,5369,98,-82,60,-30,-84
2,3706896,-1303,-1560,-578,5367,98,-87,60,-30,-84
2,3706902,-1303,-1560,-578,5367,98,-87,60,-30,-84
2,3706907,-1303,-1560,-578,5367,98,-87,60,-30,-84
2,3706913,-1297,-1549,-612,5360,112,-83,60,-28,-92
2,3706919,-1297,-1549,-612,5360,112,-83,60,-28,-92
2,3706926,-1297,-1549,-612,5360,112,-83,60,-28,-92
2,3706932,-1294,-1557,-561,5364,109,-85,60,-28,-92
2,3706938,-1294,-1557,-561,5364,109,-85,60,-28,-92
2,3706944,-1294,-1557,-561,5364,109,-85,60,-28,-92
2,3706950,-1294,-1557,-561,5364,109,-85,60,-28,-92
2,3706958,-1296,-1547,-582,5366,97,-80,60,-28,-92
2,3706966,-1296,-1547,-582,5366,97,-80,60,-28,-92
2,3706976,-1302,-1556,-574,5366,96,-77,60,-28,-92
2,3706984,-1302,-1556,-574,5366,96,-77,60,-28,-92
2,3706992,-1301,-1547,-599,5362,106,-87,60,-28,-92
2,3707000,-1301,-1547,-599,5362,106,-87,60,-28,-92
2,3707009,-1301,-1547,-599,5362,106,-87,60,-28,-92
2,3707017,-1296,-1551,-577,5362,109,-85,60,-28,-92
2,3707026,-1296,-1551,-577,5362,109,-85,60,-28,-92
2,3707035,-1296,-1551,-568,5363,87,-86,60,-28,-92
2,3707047,-1296,-1551,-568,5363,87,-86,60,-28,-92
2,3707060,-1305,-1552,-582,5363,92,-76,54,-24,-86
2,3707073,-1302,-1555,-572,5365,111,-79,54,-24,-86
2,3707087,-1302,-1555,-572,5365,111,-79,54,-24,-86
2,3707102,-1295,-1549,-592,5362,114,-78,54,-24,-86
2,3707115,-1298,-1552,-564,5363,103,-71,54,-24,-86
2,3707125,-1298,-1552,-564,5363,103,-71,54,-24,-86
2,3707139,-1298,-1546,-588,5355,100,-78,54,-24,-86
2,3707153,-1302,-1548,-571,5357,106,-78,54,-24,-86
2,3707166,-1302,-1548,-571,5357,106,-78,54,-24,-86
2,3707182,-1293,-1549,-582,5360,113,-83,42,-26,-88
2,3707197,-1298,-1546,-571,5363,108,-85,42,-26,-88
2,3707211,-1298,-1546,-571,5363,108,-85,42,-26,-88
2,3707225,-1300,-1554,-586,5360,103,-86,42,-26,-88
2,3707239,-1297,-1542,-565,5365,110,-85,42,-26,-88
2,3707249,-1297,-1542,-565,5365,110,-85,42,-26,-88
2,3707262,-1299,-1555,-578,5359,103,-77,42,-26,-88
2,3707277,-1300,-1538,-572,5359,103,-81,42,-26,-88
2,3707291,-1300,-1538,-572,5359,103,-81,42,-26,-88
2,3707304,-1295,-1551,-565,5362,108,-80,43,-31,-91
2,3707318,-1302,-1547,-554,5356,95,-87,43,-31,-91
2,3707329,-1302,-1547,-554,5356,95,-87,43,-31,-91
2,3707342,-1297,-1547,-573,5355,98,-80,43,-31,-91
2,3707357,-1301,-1545,-544,5358,107,-78,43,-31,-91
2,3707370,-1301,-1545,-544,5358,107,-78,43,-31,-91
2,3707383,-1297,-1554,-514,5361,95,-78,43,-31,-91
2,3707398,-1299,-1547,-548,5357,94,-83,43,-31,-91
2,3707409,-1299,-1547,-548,5357,94,-83,43,-31,-91
2,3707422,-1299,-1560,-527,5364,107,-75,26,-38,-82
2,3707436,-1292,-1548,-566,5368,109,-73,26,-38,-82
2,3707450,-1292,-1548,-566,5368,109,-73,26,-38,-82
2,3707458,-1298,-1560,-516,5371,103,-86,26,-38,-82
2,3707473,-1297,-1549,-569,5370,97,-83,26,-38,-82
2,3707488,-1297,-1549,-569,5370,97,-83,26,-38,-82
2,3707501,-1302,-1559,-532,5371,102,-79,26,-38,-82
2,3707515,-1294,-1550,-570,5366,107,-75,26,-38,-82
2,3707530,-1294,-1550,-570,5366,107,-75,26,-38,-82
2,3707544,-1297,-1551,-546,5373,109,-75,19,-35,-89
2,3707557,-1303,-1556,-548,5375,106,-77,19,-35,-89
2,3707571,-1303,-1556,-548,5375,106,-77,19,-35,-89
2,3707584,-1299,-1551,-573,5376,106,-78,19,-35,-89
2,3707598,-1299,-1559,-562,5375,116,-74,19,-35,-89
2,3707612,-1295,-1557,-579,5377,100,-81,19,-35,-89
2,3707625,-1295,-1557,-579,5377,100,-81,19,-35,-89
2,3707638,-1302,-1558,-561,5373,97,-79,19,-35,-89
2,3707652,-1297,-1567,-585,5373,100,-86,19,-35,-89
2,3707667,-1297,-1567,-585,5373,100,-86,19,-35,-89
2,3707682,-1295,-1550,-618,5361,115,-91,17,-25,-89
2,3707697,-1298,-1560,-549,5374,117,-82,17,-25,-89
2,3707710,-1298,-1560,-549,5374,117,-82,17,-25,-89
2,3707724,-1296,-1547,-597,5372,89,-89,17,-25,-89
2,3707739,-1306,-1561,-570,5374,97,-86,17,-25,-89
2,3707752,-1306,-1561,-570,5374,97,-86,17,-25,-89
2,3707764,-1298,-1546,-609,5371,115,-79,17,-25,-89
2,3707780,-1296,-1557,-570,5371,109,-79,17,-25,-89
2,3707793,-1297,-1552,-587,5365,91,-71,0,-18,-86
2,3707807,-1297,-1552,-587,5365,91,-71,0,-18,-86
2,3707821,-1304,-1552,-576,5366,100,-80,0,-18,-86
2,3707835,-1303,-1557,-600,5373,111,-80,0,-18,-86
2,3707849,-1303,-1557,-600,5373,111,-80,0,-18,-86
2,3707860,-1297,-1546,-581,5371,112,-81,0,-18,-86
2,3707876,-1299,-1553,-582,5368,103,-84,0,-18,-86
2,3707890,-1299,-1553,-582,5368,103,-84,0,-18,-86
2,3707904,-1304,-1550,-591,5367,104,-83,0,-18,-86
2,3707919,-1300,-1549,-578,5361,104,-84,-4,-14,-92
2,3707933,-1295,-1557,-579,5361,108,-76,-4,-14,-92
2,3707949,-1295,-1557,-579,5361,108,-76,-4,-14,-92
2,3707964,-1292,-1548,-581,5364,111,-80,-4,-14,-92
2,3707977,-1301,-1552,-587,5361,105,-76,-4,-14,-92
2,3707991,-1301,-1552,-587,5361,105,-76,-4,-14,-92
2,3708005,-1300,-1548,-574,5356,102,-74,-4,-14,-92
2,3708017,-1297,-1549,-576,5352,98,-73,-4,-14,-92
2,3708033,-1299,-1547,-571,5362,108,-75,-4,-18,-108
2,3708047,-1299,-1547,-571,5362,108,-75,-4,-18,-108
2,3708055,-1299,-1545,-582,5361,99,-73,-4,-18,-108
2,3708064,-1299,-1545,-582,5361,99,-73,-4,-18,-108
2,3708072,-1301,-1548,-566,5362,106,-74,-4,-18,-108
2,3708082,-1301,-1548,-566,5362,106,-74,-4,-18,-108
2,3708090,-1301,-1548,-566,5362,106,-74,-4,-18,-108
2,3708099,-1300,-1549,-580,5361,106,-79,-4,-18,-108
2,3708106,-1300,-1549,-580,5361,106,-79,-4,-18,-108
2,3708115,-1302,-1547,-570,5358,96,-88,-4,-18,-108
2,3708125,-1302,-1547,-570,5358,96,-88,-4,-18,-108
2,3708133,-1297,-1549,-577,5353,108,-77,-4,-18,-108
2,3708142,-1297,-1549,-577,5353,108,-77,-4,-18,-108
2,3708150,-1297,-1549,-577,5353,108,-77,-4,-18,-108
2,3708158,-1299,-1544,-559,5361,105,-77,-2,-18,-112
2,3708168,-1299,-1544,-559,5361,105,-77,-2,-18,-112
2,3708176,-1300,-1552,-564,5363,99,-83,-2,-18,-112
2,3708185,-1300,-1552,-564,5363,99,-83,-2,-18,-112
2,3708193,-1298,-1544,-551,5362,104,-80,-2,-18,-112
2,3708200,-1298,-1544,-551,5362,104,-80,-2,-18,-112
2,3708209,-1298,-1544,-551,5362,104,-80,-2,-18,-112
2,3708219,-1294,-1557,-511,5358,109,-74,-2,-18,-112
2,3708228,-1294,-1557,-511,5358,109,-74,-2,-18,-112
2,3708236,-1301,-1543,-559,5361,104,-84,-2,-18,-112
2,3708244,-1301,-1543,-559,5361,104,-84,-2,-18,-112
2,3708254,-1298,-1550,-522,5364,106,-75,-2,-18,-112
2,3708262,-1298,-1550,-522,5364,106,-75,-2,-18,-112
2,3708270,-1298,-1550,-522,5364,106,-75,-2,-18,-112
2,3708279,-1296,-1545,-571,5357,98,-82,-2,-18,-112
2,3708288,-1296,-1545,-571,5357,98,-82,-2,-18,-112
2,3708297,-1296,-1547,-515,5374,108,-83,-2,-18,-112
2,3708306,-1296,-1547,-515,5374,108,-83,-2,-18,-112
2,3708314,-1301,-1553,-573,5370,102,-87,-2,-18,-112
2,3708323,-1301,-1553,-573,5370,102,-87,-2,-18,-112
2,3708333,-1301,-1553,-573,5370,102,-87,-2,-18,-112
2,3708341,-1302,-1551,-536,5362,106,-80,-2,-18,-112
2,3708350,-1302,-1551,-536,5362,106,-80,-2,-18,-112
2,3708360,-1293,-1556,-566,5371,109,-75,-2,-18,-112
2,3708369,-1293,-1556,-566,5371,109,-75,-2,-18,-112
2,3708379,-1298,-1555,-543,5370,102,-82,-2,-18,-112
2,3708386,-1298,-1555,-543,5370,102,-82,-2,-18,-112
2,3708394,-1299,-1554,-563,5372,96,-80,-2,-18,-112
2,3708402,-1299,-1554,-563,5372,96,-80,-2,-18,-112
2,3708409,-1299,-1554,-563,5372,96,-80,-2,-18,-112
2,3708418,-1300,-1556,-556,5372,109,-85,-10,-16,-122
2,3708427,-1300,-1556,-556,5372,109,-85,-10,-16,-122
2,3708435,-1300,-1550,-564,5363,101,-83,-10,-16,-122
2,3708444,-1300,-1550,-564,5363,101,-83,-10,-16,-122
2,3708453,-1299,-1552,-563,5371,96,-78,-10,-16,-122
2,3708462,-1299,-1552,-563,5371,96,-78,-10,-16,-122
2,3708469,-1299,-1552,-563,5371,96,-78,-10,-16,-122
2,3708477,-1300,-1549,-578,5370,98,-82,-10,-16,-122
2,3708486,-1300,-1549,-578,5370,98,-82,-10,-16,-122
2,3708494,-1296,-1555,-562,5376,107,-80,-10,-16,-122
2,3708504,-1296,-1555,-562,5376,107,-80,-10,-16,-122
2,3708513,-1296,-1555,-562,5376,107,-80,-10,-16,-122
2,3708521,-1299,-1557,-609,5375,108,-73,-10,-16,-122
2,3708530,-1299,-1557,-609,5375,108,-73,-10,-16,-122
2,3708538,-1290,-1552,-594,5376,108,-83,-11,-7,-125
2,3708548,-1290,-1552,-594,5376,108,-83,-11,-7,-125
2,3708556,-1299,-1554,-566,5377,99,-80,-11,-7,-125
2,3708564,-1299,-1554,-566,5377,99,-80,-11,-7,-125
2,3708573,-1298,-1546,-596,5366,103,-78,-11,-7,-125
2,3708581,-1298,-1546,-596,5366,103,-78,-11,-7,-125
2,3708591,-1298,-1546,-596,5366,103,-78,-11,-7,-125
2,3708600,-1303,-1549,-592,5373,113,-80,-11,-7,-125
2,3708610,-1303,-1549,-592,5373,113,-80,-11,-7,-125
2,3708619,-1295,-1548,-598,5365,114,-84,-11,-7,-125
2,3708628,-1295,-1548,-598,5365,114,-84,-11,-7,-125
2,3708637,-1294,-1544,-571,5372,100,-82,-11,-7,-125
2,3708645,-1294,-1544,-571,5372,100,-82,-11,-7,-125
2,3708654,-1299,-1552,-579,5371,91,-87,-10,-12,-132
2,3708661,-1299,-1552,-579,5371,91,-87,-10,-12,-132
2,3708668,-1299,-1552,-579,5371,91,-87,-10,-12,-132
2,3708678,-1301,-1550,-583,5368,108,-79,-10,-12,-132
2,3708688,-1301,-1550,-583,5368,108,-79,-10,-12,-132
2,3708697,-1295,-1550,-585,5372,118,-75,-10,-12,-132
2,3708705,-1295,-1550,-585,5372,118,-75,-10,-12,-132
2,3708715,-1295,-1546,-583,5372,103,-81,-10,-12,-132
2,3708723,-1295,-1546,-583,5372,103,-81,-10,-12,-132
2,3708732,-1295,-1546,-583,5372,103,-81,-10,-12,-132
2,3708740,-1298,-1546,-582,5361,92,-84,-10,-12,-132
2,3708750,-1298,-1546,-582,5361,92,-84,-10,-12,-132
2,3708760,-1301,-1548,-595,5357,114,-79,-10,-12,-132
2,3708770,-1301,-1548,-595,5357,114,-79,-10,-12,-132
2,3708779,-1296,-1542,-560,5369,117,-86,-9,-13,-135
2,3708787,-1296,-1542,-560,5369,117,-86,-9,-13,-135
2,3708796,-1299,-1554,-595,5366,106,-88,-9,-13,-135
2,3708806,-1299,-1554,-595,5366,106,-88,-9,-13,-135
2,3708815,-1302,-1544,-567,5361,103,-76,-9,-13,-135
2,3708824,-1302,-1544,-567,5361,103,-76,-9,-13,-135
2,3708832,-1302,-1544,-567,5361,103,-76,-9,-13,-135
2,3708841,-1299,-1551,-592,5362,106,-73,-9,-13,-135
2,3708852,-1299,-1551,-592,5362,106,-73,-9,-13,-135
2,3708861,-1301,-1544,-556,5361,104,-82,-9,-13,-135
2,3708869,-1301,-1544,-556,5361,104,-82,-9,-13,-135
2,3708878,-1296,-1548,-592,5355,107,-75,-9,-13,-135
2,3708887,-1296,-1548,-592,5355,107,-75,-9,-13,-135
2,3708895,-1302,-1542,-572,5359,105,-79,-11,-17,-149
2,3708903,-1302,-1542,-572,5359,105,-79,-11,-17,-149
2,3708912,-1302,-1542,-572,5359,105,-79,-11,-17,-149
2,3708920,-1297,-1552,-581,5355,107,-82,-11,-17,-149
2,3708929,-1297,-1552,-581,5355,107,-82,-11,-17,-149
2,3708938,-1300,-1542,-571,5367,101,-80,-11,-17,-149
2,3708945,-1300,-1542,-571,5367,101,-80,-11,-17,-149
2,3708955,-1295,-1556,-574,5357,99,-83,-11,-17,-149
2,3708963,-1295,-1556,-574,5357,99,-83,-11,-17,-149
2,3708973,-1295,-1556,-574,5357,99,-83,-11,-17,-149
2,3708981,-1299,-1541,-569,5360,105,-84,-11,-17,-149
2,3708990,-1299,-1541,-569,5360,105,-84,-11,-17,-149
2,3708998,-1300,-1550,-564,5362,104,-91,-11,-17,-149
2,3709007,-1300,-1550,-564,5362,104,-91,-11,-17,-149
2,3709017,-1301,-1538,-562,5361,104,-84,-11,-17,-149
2,3709024,-1301,-1538,-562,5361,104,-84,-11,-17,-149
2,3709033,-1301,-1538,-562,5361,104,-84,-11,-17,-149
2,3709042,-1301,-1542,-545,5358,109,-74,-3,-9,-151
2,3709050,-1301,-1542,-545,5358,109,-74,-3,-9,-151
2,3709066,-1298,-1543,-501,5356,99,-84,-3,-9,-151
2,3709080,-1298,-1547,-550,5361,99,-77,-3,-9,-151
2,3709090,-1298,-1547,-550,5361,99,-77,-3,-9,-151
2,3709106,-1298,-1547,-550,5361,99,-77,-3,-9,-151
2,3709119,-1296,-1547,-551,5367,108,-79,-3,-9,-151
2,3709133,-1296,-1547,-551,5367,108,-79,-3,-9,-151
2,3709148,-1300,-1554,-533,5377,96,-90,-3,-9,-151
2,3709163,-1299,-1549,-548,5370,97,-85,-4,-12,-154
2,3709175,-1298,-1550,-555,5372,110,-80,-4,-12,-154
2,3709187,-1298,-1550,-555,5372,110,-80,-4,-12,-154
2,3709201,-1293,-1551,-543,5370,103,-80,-4,-12,-154
2,3709209,-1293,-1551,-543,5370,103,-80,-4,-12,-154
2,3709218,-1295,-1548,-549,5364,97,-77,-4,-12,-154
2,3709232,-1295,-1548,-549,5364,97,-77,-4,-12,-154
2,3709240,-1302,-1555,-558,5365,105,-80,-4,-12,-154
2,3709250,-1302,-1555,-558,5365,105,-80,-4,-12,-154
2,3709263,-1294,-1550,-552,5363,107,-77,-4,-12,-154
2,3709278,-1296,-1559,-570,5358,99,-80,1,-11,-159
2,3709292,-1296,-1559,-570,5358,99,-80,1,-11,-159
2,3709307,-1296,-1551,-552,5367,97,-77,1,-11,-159
2,3709322,-1296,-1558,-586,5374,99,-79,1,-11,-159
2,3709331,-1296,-1558,-586,5374,99,-79,1,-11,-159
2,3709339,-1302,-1551,-552,5376,104,-85,1,-11,-159
2,3709347,-1302,-1551,-552,5376,104,-85,1,-11,-159
2,3709360,-1296,-1558,-599,5373,100,-75,1,-11,-159
2,3709375,-1303,-1549,-621,5375,110,-78,1,-11,-159
2,3709391,-1303,-1549,-621,5375,110,-78,1,-11,-159
2,3709407,-1294,-1557,-548,5378,116,-74,-1,1,-167
2,3709421,-1301,-1542,-598,5365,100,-76,-1,1,-167
2,3709435,-1304,-1558,-577,5368,100,-73,-1,1,-167
2,3709448,-1304,-1558,-577,5368,100,-73,-1,1,-167
2,3709462,-1293,-1539,-609,5369,109,-76,-1,1,-167
2,3709474,-1297,-1560,-559,5369,106,-78,-1,1,-167
2,3709487,-1297,-1560,-559,5369,106,-78,-1,1,-167
2,3709500,-1297,-1545,-590,5370,95,-81,-1,1,-167
2,3709514,-1300,-1558,-575,5368,106,-86,8,-8,-156
2,3709529,-1300,-1558,-575,5368,106,-86,8,-8,-156
2,3709542,-1297,-1543,-591,5365,106,-79,8,-8,-156
2,3709555,-1292,-1545,-588,5360,110,-79,8,-8,-156
2,3709570,-1292,-1545,-588,5360,110,-79,8,-8,-156
2,3709585,-1300,-1549,-579,5358,98,-78,8,-8,-156
2,3709595,-1304,-1546,-589,5366,98,-71,8,-8,-156
2,3709608,-1304,-1546,-589,5366,98,-71,8,-8,-156
2,3709623,-1296,-1546,-574,5361,107,-78,8,-8,-156
2,3709636,-1297,-1543,-581,5361,102,-78,8,-8,-156
2,3709649,-1297,-1543,-581,5361,102,-78,8,-8,-156
2,3709664,-1299,-1546,-579,5367,98,-86,5,-5,-167
2,3709676,-1300,-1551,-578,5364,105,-79,5,-5,-167
2,3709689,-1300,-1551,-578,5364,105,-79,5,-5,-167
2,3709703,-1296,-1547,-576,5369,105,-84,5,-5,-167
2,3709716,-1299,-1548,-577,5372,107,-82,5,-5,-167
2,3709730,-1299,-1548,-577,5372,107,-82,5,-5,-167
2,3709745,-1300,-1543,-580,5362,102,-88,5,-5,-167
2,3709758,-1301,-1544,-578,5353,106,-83,5,-5,-167
2,3709771,-1301,-1544,-578,5353,106,-83,5,-5,-167
2,3709787,-1298,-1542,-565,5357,98,-82,12,2,-164
2,3709802,-1298,-1541,-580,5361,99,-88,12,2,-164
2,3709817,-1297,-1541,-575,5358,103,-82,12,2,-164
2,3709832,-1297,-1541,-575,5358,103,-82,12,2,-164
2,3709843,-1295,-1541,-579,5352,110,-91,12,2,-164
2,3709857,-1299,-1544,-559,5358,105,-87,12,2,-164
2,3709871,-1299,-1544,-559,5358,105,-87,12,2,-164
2,3709885,-1296,-1545,-562,5363,98,-83,12,2,-164
2,3709899,-1300,-1540,-559,5354,101,-85,20,6,-180
2,3709914,-1300,-1540,-559,5354,101,-85,20,6,-180
2,3709926,-1294,-1545,-515,5355,103,-81,20,6,-180
2,3709938,-1297,-1542,-545,5363,92,-76,20,6,-180
2,3709952,-1297,-1542,-545,5363,92,-76,20,6,-180
2,3709965,-1302,-1551,-533,5361,100,-78,20,6,-180
2,3709980,-1296,-1544,-574,5364,112,-81,20,6,-180
2,3709995,-1294,-1550,-510,5366,103,-83,20,6,-180
2,3710008,-1294,-1550,-510,5366,103,-83,20,6,-180
2,3710022,-1299,-1546,-568,5367,96,-79,21,9,-183
2,3710036,-1299,-1549,-530,5358,103,-76,21,9,-183
2,3710046,-1299,-1549,-530,5358,103,-76,21,9,-183
2,3710060,-1296,-1550,-571,5363,116,-75,21,9,-183
2,3710068,-1296,-1550,-571,5363,116,-75,21,9,-183
2,3710078,-1294,-1549,-537,5369,114,-72,21,9,-183
2,3710086,-1294,-1549,-537,5369,114,-72,21,9,-183
2,3710093,-1294,-1549,-537,5369,114,-72,21,9,-183
2,3710101,-1296,-1554,-562,5372,99,-79,21,9,-183
2,3710110,-1296,-1554,-562,5372,99,-79,21,9,-183
2,3710118,-1299,-1555,-554,5371,104,-85,21,9,-183
2,3710127,-1299,-1555,-554,5371,104,-85,21,9,-183
2,3710135,-1296,-1552,-572,5368,115,-86,27,9,-183
2,3710143,-1296,-1552,-572,5368,115,-86,27,5,-177
2,3710151,-1296,-1552,-572,5368,115,-86,27,5,-177
2,3710159,-1299,-1553,-554,5371,104,-78,27,5,-177
2,3710167,-1299,-1553,-554,5371,104,-78,27,5,-177
2,3710177,-1298,-1551,-568,5379,98,-82,27,5,-177
2,3710185,-1298,-1551,-568,5379,98,-82,27,5,-177
2,3710194,-1298,-1551,-568,5379,98,-82,27,5,-177
2,3710204,-1302,-1555,-561,5369,104,-87,27,5,-177
2,3710213,-1302,-1555,-561,5369,104,-87,27,5,-177
2,3710221,-1298,-1555,-623,5371,104,-75,27,5,-177
2,3710228,-1298,-1555,-623,5371,104,-75,27,5,-177
2,3710236,-1290,-1547,-573,5373,112,-83,27,5,-177
2,3710244,-1290,-1547,-573,5373,112,-83,27,5,-177
2,3710253,-1290,-1547,-573,5373,112,-83,27,5,-177
2,3710263,-1299,-1553,-585,5372,94,-84,27,5,-177
2,3710272,-1299,-1553,-585,5372,94,-84,27,5,-177
2,3710281,-1303,-1546,-580,5368,92,-80,31,5,-187
2,3710290,-1303,-1546,-580,5368,92,-80,31,5,-187
2,3710303,-1303,-1557,-603,5361,105,-82,31,5,-187
2,3710312,-1303,-1557,-603,5361,105,-82,31,5,-187
2,3710320,-1296,-1539,-581,5364,125,-88,31,5,-187
2,3710327,-1296,-1539,-581,5364,125,-88,31,5,-187
2,3710337,-1294,-1550,-572,5369,111,-85,31,5,-187
2,3710346,-1294,-1550,-572,5369,111,-85,31,5,-187
2,3710354,-1294,-1550,-572,5369,111,-85,31,5,-187
2,3710363,-1299,-1540,-574,5371,101,-86,31,5,-187
2,3710371,-1299,-1540,-574,5371,101,-86,31,5,-187
2,3710381,-1301,-1549,-598,5356,103,-84,31,5,-187
2,3710391,-1301,-1549,-598,5356,103,-84,31,5,-187
2,3710399,-1295,-1542,-584,5363,112,-80,44,4,-188
2,3710407,-1295,-1542,-584,5363,112,-80,44,4,-188
2,3710416,-1295,-1548,-580,5367,110,-83,44,4,-188
2,3710427,-1295,-1548,-580,5367,110,-83,44,4,-188
2,3710435,-1305,-1543,-573,5367,100,-74,44,4,-188
2,3710444,-1305,-1543,-573,5367,100,-74,44,4,-188
2,3710453,-1305,-1543,-573,5367,100,-74,44,4,-188
2,3710461,-1303,-1551,-594,5363,94,-85,44,4,-188
2,3710472,-1303,-1551,-594,5363,94,-85,44,4,-188
2,3710480,-1298,-1541,-568,5364,103,-79,44,4,-188
2,3710488,-1298,-1541,-568,5364,103,-79,44,4,-188
2,3710497,-1295,-1551,-590,5366,96,-81,44,4,-188
2,3710505,-1295,-1551,-590,5366,96,-81,44,4,-188
2,3710514,-1295,-1551,-590,5366,96,-81,44,4,-188
2,3710522,-1299,-1537,-567,5364,97,-86,40,0,-184
2,3710529,-1299,-1537,-567,5364,97,-86,40,0,-184
2,3710538,-1299,-1537,-567,5364,97,-86,40,0,-184
2,3710547,-1299,-1537,-567,5364,97,-86,40,0,-184
2,3710557,-1298,-1540,-563,5362,111,-83,40,0,-184
2,3710565,-1298,-1540,-563,5362,111,-83,40,0,-184
2,3710573,-1298,-1540,-563,5362,111,-83,40,0,-184
2,3710581,-1295,-1548,-591,5364,105,-85,40,0,-184
2,3710589,-1295,-1548,-591,5364,105,-85,40,0,-184
2,3710598,-1302,-1535,-576,5367,99,-83,40,0,-184
2,3710607,-1302,-1535,-576,5367,99,-83,40,0,-184
2,3710615,-1296,-1550,-585,5361,113,-78,40,0,-184
2,3710624,-1296,-1550,-585,5361,113,-78,40,0,-184
2,3710633,-1296,-1550,-585,5361,113,-78,40,0,-184
2,3710644,-1302,-1539,-567,5363,110,-82,48,-2,-190
2,3710653,-1302,-1539,-567,5363,110,-82,48,-2,-190
2,3710662,-1297,-1553,-581,5364,99,-87,48,-2,-190
2,3710672,-1297,-1553,-581,5364,99,-87,48,-2,-190
2,3710682,-1298,-1536,-579,5366,103,-75,48,-2,-190
2,3710692,-1298,-1536,-579,5366,103,-75,48,-2,-190
2,3710700,-1300,-1552,-564,5361,97,-80,48,-2,-190
2,3710710,-1300,-1552,-564,5361,97,-80,48,-2,-190
2,3710718,-1300,-1538,-559,5358,107,-82,48,-2,-190
2,3710729,-1300,-1538,-559,5358,107,-82,48,-2,-190
2,3710738,-1302,-1551,-561,5358,109,-74,48,-2,-190
2,3710747,-1302,-1551,-561,5358,109,-74,48,-2,-190
2,3710755,-1297,-1537,-523,5357,109,-81,54,-2,-190
2,3710764,-1297,-1537,-523,5357,109,-81,54,-2,-190
2,3710773,-1297,-1537,-523,5357,109,-81,54,-2,-190
2,3710783,-1301,-1553,-530,5361,89,-85,54,-2,-190
2,3710791,-1301,-1553,-530,5361,89,-85,54,-2,-190
2,3710800,-1300,-1541,-531,5358,103,-81,54,-2,-190
2,3710811,-1300,-1541,-531,5358,103,-81,54,-2,-190
2,3710821,-1296,-1550,-556,5363,113,-79,54,-2,-190
2,3710830,-1296,-1550,-556,5363,113,-79,54,-2,-190
2,3710839,-1293,-1539,-536,5370,105,-85,54,-2,-190
2,3710849,-1293,-1539,-536,5370,105,-85,54,-2,-190
2,3710859,-1295,-1555,-539,5372,96,-79,54,-2,-190
2,3710868,-1295,-1555,-539,5372,96,-79,54,-2,-190
2,3710879,-1304,-1548,-562,5369,102,-80,54,-2,-190
2,3710888,-1304,-1548,-562,5369,102,-80,54,-2,-190
2,3710898,-1299,-1553,-546,5365,105,-73,59,-5,-187
2,3710909,-1299,-1553,-546,5365,105,-73,59,-5,-187
2,3710917,-1295,-1541,-565,5372,109,-75,59,-5,-187
2,3710926,-1295,-1541,-565,5372,109,-75,59,-5,-187
2,3710937,-1300,-1558,-542,5378,99,-77,59,-5,-187
2,3710947,-1300,-1558,-542,5378,99,-77,59,-5,-187
2,3710957,-1303,-1543,-563,5371,101,-89,59,-5,-187
2,3710965,-1303,-1543,-563,5371,101,-89,59,-5,-187
2,3710974,-1303,-1543,-563,5371,101,-89,59,-5,-187
2,3710984,-1295,-1556,-575,5370,108,-86,59,-5,-187
2,3710992,-1295,-1556,-575,5370,108,-86,59,-5,-187
2,3711002,-1297,-1542,-565,5370,106,-85,59,-5,-187
2,3711010,-1297,-1542,-565,5370,106,-85,59,-5,-187
2,3711020,-1296,-1554,-572,5383,109,-89,65,1,-191
2,3711031,-1296,-1554,-572,5383,109,-89,65,1,-191
2,3711040,-1302,-1547,-559,5377,101,-82,65,1,-191
2,3711050,-1302,-1547,-559,5377,101,-82,65,1,-191
2,3711058,-1300,-1551,-621,5368,103,-79,65,1,-191
2,3711068,-1300,-1551,-621,5368,103,-79,65,1,-191
2,3711081,-1296,-1543,-592,5375,106,-76,65,1,-191
2,3711094,-1296,-1543,-592,5375,106,-76,65,1,-191
2,3711108,-1294,-1558,-581,5373,97,-78,65,1,-191
2,3711115,-1294,-1558,-581,5373,97,-78,65,1,-191
2,3711123,-1297,-1544,-584,5370,96,-85,65,1,-191
2,3711131,-1297,-1544,-584,5370,96,-85,65,1,-191
2,3711139,-1299,-1552,-592,5366,106,-88,81,1,-183
2,3711148,-1299,-1552,-592,5366,106,-88,81,1,-183
2,3711162,-1297,-1539,-603,5364,112,-88,81,1,-183
2,3711176,-1291,-1555,-574,5362,106,-87,81,1,-183
2,3711191,-1291,-1555,-574,5362,106,-87,81,1,-183
2,3711204,-1303,-1539,-576,5365,92,-89,81,1,-183
2,3711217,-1300,-1558,-595,5362,100,-87,81,1,-183
2,3711233,-1300,-1558,-595,5362,100,-87,81,1,-183
2,3711241,-1300,-1543,-592,5370,115,-79,81,1,-183
2,3711255,-1300,-1543,-592,5370,115,-79,81,1,-183
2,3711267,-1294,-1555,-582,5367,105,-86,79,-5,-187
2,3711281,-1301,-1543,-569,5361,99,-86,79,-5,-187
2,3711295,-1301,-1543,-569,5361,99,-86,79,-5,-187
2,3711308,-1300,-1553,-596,5365,101,-75,79,-5,-187
2,3711322,-1303,-1544,-566,5356,109,-78,79,-5,-187
2,3711334,-1303,-1544,-566,5356,109,-78,79,-5,-187
2,3711346,-1296,-1546,-592,5356,101,-75,79,-5,-187
2,3711360,-1303,-1543,-572,5358,106,-82,79,-5,-187
2,3711372,-1303,-1543,-572,5358,106,-82,79,-5,-187
2,3711383,-1296,-1551,-591,5365,102,-80,88,2,-186
2,3711397,-1298,-1541,-564,5365,109,-84,88,2,-186
2,3711412,-1298,-1541,-564,5365,109,-84,88,2,-186
2,3711427,-1297,-1550,-584,5367,104,-89,88,2,-186
2,3711439,-1302,-1540,-570,5359,104,-86,88,2,-186
2,3711454,-1302,-1540,-570,5359,104,-86,88,2,-186
2,3711469,-1299,-1552,-576,5363,108,-84,88,2,-186
2,3711484,-1304,-1537,-569,5365,106,-93,88,2,-186
2,3711500,-1298,-1552,-572,5358,102,-81,88,2,-186
2,3711513,-1298,-1552,-572,5358,102,-81,88,2,-186
2,3711526,-1305,-1542,-567,5358,103,-89,99,-13,-183
2,3711540,-1298,-1552,-563,5357,112,-84,99,-13,-183
2,3711553,-1298,-1552,-563,5357,112,-84,99,-13,-183
2,3711566,-1303,-1540,-563,5358,106,-82,99,-13,-183
2,3711580,-1296,-1546,-555,5361,108,-77,99,-13,-183
2,3711594,-1296,-1546,-555,5361,108,-77,99,-13,-183
2,3711604,-1301,-1541,-514,5360,100,-78,99,-13,-183
2,3711616,-1298,-1552,-550,5362,97,-75,99,-13,-183
2,3711630,-1298,-1552,-550,5362,97,-75,99,-13,-183
2,3711644,-1300,-1541,-535,5367,110,-82,104,-22,-178
2,3711657,-1295,-1554,-549,5363,113,-81,104,-22,-178
2,3711672,-1295,-1554,-549,5363,113,-81,104,-22,-178
2,3711683,-1298,-1540,-540,5369,103,-79,104,-22,-178
2,3711697,-1302,-1557,-544,5369,96,-84,104,-22,-178
2,3711714,-1302,-1557,-544,5369,96,-84,104,-22,-178
2,3711729,-1300,-1544,-569,5371,112,-83,104,-22,-178
2,3711740,-1295,-1557,-553,5369,113,-82,104,-22,-178
2,3711753,-1295,-1557,-553,5369,113,-82,104,-22,-178
2,3711768,-1298,-1543,-549,5363,99,-74,104,-24,-172
2,3711781,-1303,-1556,-558,5367,101,-85,104,-24,-172
2,3711795,-1303,-1556,-558,5367,101,-85,104,-24,-172
2,3711809,-1303,-1550,-557,5363,110,-83,104,-24,-172
2,3711822,-1293,-1557,-574,5362,102,-80,104,-24,-172
2,3711836,-1293,-1557,-574,5362,102,-80,104,-24,-172
2,3711849,-1295,-1547,-556,5365,101,-76,104,-24,-172
2,3711862,-1296,-1556,-581,5369,93,-83,104,-24,-172
2,3711876,-1296,-1556,-581,5369,93,-83,104,-24,-172
2,3711890,-1298,-1544,-560,5371,100,-85,110,-14,-170
2,3711904,-1297,-1558,-584,5372,98,-77,110,-14,-170
2,3711917,-1300,-1541,-625,5368,107,-75,110,-14,-170
2,3711931,-1300,-1541,-625,5368,107,-75,110,-14,-170
2,3711946,-1297,-1557,-554,5369,109,-74,110,-14,-170
2,3711960,-1300,-1550,-599,5365,98,-76,110,-14,-170
2,3711971,-1300,-1550,-599,5365,98,-76,110,-14,-170
2,3711984,-1303,-1553,-575,5365,100,-75,110,-14,-170
2,3711998,-1295,-1548,-605,5362,110,-77,108,-24,-164
2,3712012,-1295,-1548,-605,5362,110,-77,108,-24,-164
2,3712025,-1297,-1547,-562,5371,109,-79,108,-24,-164
2,3712038,-1300,-1551,-587,5371,95,-81,108,-24,-164
2,3712052,-1300,-1551,-587,5371,95,-81,108,-24,-164
2,3712065,-1305,-1548,-577,5373,99,-81,108,-24,-164
2,3712077,-1301,-1549,-595,5360,113,-80,108,-24,-164
2,3712086,-1301,-1549,-595,5360,113,-80,108,-24,-164
2,3712096,-1301,-1549,-595,5360,113,-80,108,-24,-164
2,3712104,-1296,-1546,-585,5361,113,-83,108,-24,-164
2,3712114,-1296,-1546,-585,5361,113,-83,108,-24,-164
2,3712120,-1295,-1551,-575,5364,100,-77,121,-23,-157
2,3712129,-1295,-1551,-575,5364,100,-77,121,-23,-157
2,3712138,-1301,-1550,-586,5359,98,-85,121,-23,-157
2,3712148,-1301,-1550,-586,5359,98,-85,121,-23,-157
2,3712158,-1297,-1550,-580,5357,107,-83,121,-23,-157
2,3712171,-1297,-1550,-580,5357,107,-83,121,-23,-157
2,3712177,-1299,-1547,-576,5364,107,-84,121,-23,-157
2,3712187,-1299,-1547,-576,5364,107,-84,121,-23,-157
2,3712195,-1299,-1547,-576,5364,107,-84,121,-23,-157
2,3712203,-1298,-1547,-581,5373,105,-76,121,-23,-157
2,3712214,-1298,-1547,-581,5373,105,-76,121,-23,-157
2,3712225,-1301,-1544,-585,5365,105,-80,121,-23,-157
2,3712234,-1301,-1544,-585,5365,105,-80,121,-23,-157
2,3712244,-1298,-1551,-575,5360,106,-81,121,-23,-157
2,3712253,-1298,-1551,-575,5360,106,-81,121,-23,-157
2,3712262,-1297,-1542,-578,5363,106,-79,121,-25,-147
2,3712271,-1297,-1542,-578,5363,106,-79,121,-25,-147
2,3712280,-1298,-1549,-573,5363,105,-80,121,-25,-147
2,3712289,-1298,-1549,-573,5363,105,-80,121,-25,-147
2,3712297,-1300,-1544,-586,5366,102,-80,121,-25,-147
2,3712304,-1300,-1544,-586,5366,102,-80,121,-25,-147
2,3712316,-1300,-1544,-586,5366,102,-80,121,-25,-147
2,3712326,-1298,-1544,-570,5361,115,-79,121,-25,-147
2,3712334,-1298,-1544,-570,5361,115,-79,121,-25,-147
2,3712345,-1295,-1550,-581,5357,104,-79,121,-25,-147
2,3712356,-1295,-1550,-581,5357,104,-79,121,-25,-147
2,3712367,-1302,-1539,-569,5359,100,-84,121,-25,-147
2,3712378,-1299,-1551,-576,5356,102,-85,129,-29,-155
2,3712390,-1299,-1551,-576,5356,102,-85,129,-29,-155
2,3712400,-1299,-1540,-560,5353,103,-79,129,-29,-155
2,3712412,-1299,-1540,-560,5353,103,-79,129,-29,-155
2,3712421,-1297,-1553,-563,5359,101,-82,129,-29,-155
2,3712432,-1297,-1553,-563,5359,101,-82,129,-29,-155
2,3712444,-1301,-1542,-555,5360,100,-87,129,-29,-155
2,3712452,-1301,-1542,-555,5360,100,-87,129,-29,-155
2,3712464,-1298,-1553,-507,5364,100,-85,129,-29,-155
2,3712474,-1298,-1553,-507,5364,100,-85,129,-29,-155
2,3712483,-1304,-1542,-564,5362,101,-76,129,-29,-155
2,3712493,-1304,-1542,-564,5362,101,-76,129,-29,-155
2,3712502,-1299,-1553,-512,5366,101,-79,127,-25,-143
2,3712514,-1299,-1553,-512,5366,101,-79,127,-25,-143
2,3712524,-1296,-1548,-572,5369,108,-79,127,-25,-143
2,3712535,-1296,-1548,-572,5369,108,-79,127,-25,-143
2,3712544,-1298,-1552,-508,5371,108,-82,127,-25,-143
2,3712556,-1298,-1552,-508,5371,108,-82,127,-25,-143
2,3712567,-1299,-1552,-569,5376,98,-82,127,-25,-143
2,3712576,-1299,-1552,-569,5376,98,-82,127,-25,-143
2,3712585,-1305,-1556,-544,5373,103,-80,127,-25,-143
2,3712598,-1294,-1553,-570,5370,105,-80,127,-25,-143
2,3712606,-1294,-1553,-570,5370,105,-80,127,-25,-143
2,3712615,-1294,-1553,-570,5370,105,-80,127,-25,-143
2,3712627,-1302,-1549,-539,5368,97,-86,135,-29,-145
2,3712636,-1302,-1549,-539,5368,97,-86,135,-29,-145
2,3712647,-1301,-1561,-557,5373,96,-80,135,-29,-145
2,3712656,-1301,-1561,-557,5373,96,-80,135,-29,-145
2,3712668,-1302,-1551,-565,5371,107,-87,135,-29,-145
2,3712677,-1294,-1555,-568,5382,115,-76,135,-29,-145
2,3712688,-1294,-1555,-568,5382,115,-76,135,-29,-145
2,3712698,-1297,-1547,-569,5378,109,-84,135,-29,-145
2,3712708,-1297,-1547,-569,5378,109,-84,135,-29,-145
2,3712716,-1300,-1557,-567,5376,103,-77,135,-29,-145
2,3712727,-1300,-1557,-567,5376,103,-77,135,-29,-145
2,3712736,-1300,-1557,-567,5376,103,-77,135,-29,-145
2,3712747,-1301,-1554,-569,5371,109,-78,136,-40,-132
2,3712759,-1303,-1557,-620,5367,113,-78,136,-40,-132
2,3712769,-1303,-1557,-620,5367,113,-78,136,-40,-132
2,3712778,-1297,-1552,-568,5378,118,-80,136,-40,-132
2,3712789,-1297,-1552,-568,5378,118,-80,136,-40,-132
2,3712801,-1299,-1555,-584,5378,100,-82,136,-40,-132
2,3712809,-1299,-1555,-584,5378,100,-82,136,-40,-132
2,3712820,-1302,-1554,-579,5375,100,-86,136,-40,-132
2,3712831,-1302,-1554,-579,5375,100,-86,136,-40,-132
2,3712842,-1298,-1553,-611,5372,109,-86,136,-40,-132
2,3712851,-1298,-1553,-611,5372,109,-86,136,-40,-132
2,3712862,-1298,-1554,-581,5370,121,-84,136,-40,-132
2,3712874,-1298,-1554,-581,5370,121,-84,136,-40,-132
2,3712882,-1295,-1553,-568,5373,104,-83,125,-35,-139
2,3712893,-1295,-1553,-568,5373,104,-83,125,-35,-139
2,3712905,-1301,-1548,-567,5367,93,-88,125,-35,-139
2,3712911,-1301,-1548,-567,5367,93,-88,125,-35,-139
2,3712920,-1305,-1551,-598,5370,109,-84,125,-35,-139
2,3712928,-1305,-1551,-598,5370,109,-84,125,-35,-139
2,3712937,-1295,-1548,-587,5366,108,-89,125,-35,-139
2,3712946,-1295,-1548,-587,5366,108,-89,125,-35,-139
2,3712954,-1295,-1548,-587,5366,108,-89,125,-35,-139
2,3712962,-1299,-1554,-582,5366,108,-91,125,-35,-139
2,3712972,-1299,-1554,-582,5366,108,-91,125,-35,-139
2,3712980,-1301,-1550,-573,5365,102,-84,125,-35,-139
2,3712990,-1301,-1550,-573,5365,102,-84,125,-35,-139
2,3712999,-1302,-1555,-596,5366,110,-83,137,-33,-127
2,3713008,-1302,-1555,-596,5366,110,-83,137,-33,-127
2,3713015,-1302,-1555,-596,5366,110,-83,137,-33,-127
2,3713026,-1301,-1545,-569,5370,106,-82,137,-33,-127
2,3713034,-1301,-1545,-569,5370,106,-82,137,-33,-127
2,3713042,-1295,-1553,-588,5372,101,-88,137,-33,-127
2,3713052,-1295,-1553,-588,5372,101,-88,137,-33,-127
2,3713060,-1301,-1552,-571,5363,103,-88,137,-33,-127
2,3713070,-1301,-1552,-571,5363,103,-88,137,-33,-127
2,3713078,-1297,-1549,-591,5366,107,-86,137,-33,-127
2,3713092,-1297,-1549,-591,5366,107,-86,137,-33,-127
2,3713106,-1299,-1548,-576,5359,105,-81,137,-33,-127
2,3713115,-1299,-1548,-576,5359,105,-81,137,-33,-127
2,3713128,-1294,-1554,-585,5356,102,-79,136,-30,-122
2,3713143,-1300,-1547,-577,5359,102,-72,136,-30,-122
2,3713159,-1299,-1554,-577,5360,102,-71,136,-30,-122
2,3713172,-1299,-1554,-577,5360,102,-71,136,-30,-122
2,3713186,-1295,-1542,-575,5362,105,-79,136,-30,-122
2,3713201,-1298,-1552,-574,5353,100,-82,136,-30,-122
2,3713212,-1298,-1552,-574,5353,100,-82,136,-30,-122
2,3713225,-1301,-1543,-567,5358,103,-82,136,-30,-122
2,3713239,-1297,-1548,-556,5360,106,-87,137,-39,-117
2,3713253,-1297,-1548,-556,5360,106,-87,137,-39,-117
2,3713266,-1297,-1548,-567,5362,110,-80,137,-39,-117
