imu,time,ax,ay,az,gx,gy,gz,mx,my,mz
1,741106,2463,839,-529,-1474,-300,-35,200,284,-230
1,741116,2463,839,-529,-1474,-300,-35,200,284,-230
1,741132,2464,838,-526,-1476,-298,-44,200,284,-230
1,741142,2464,838,-526,-1476,-298,-44,200,284,-230
1,741157,2464,838,-528,-1483,-308,-40,200,284,-230
1,741173,2463,838,-531,-1481,-307,-42,204,288,-224
1,741188,2465,836,-525,-1477,-307,-43,204,288,-224
1,741203,2464,839,-532,-1475,-307,-49,204,288,-224
1,741217,2464,839,-532,-1475,-307,-49,204,288,-224
1,741231,2464,836,-533,-1483,-305,-45,204,288,-224
1,741241,2464,836,-533,-1483,-305,-45,204,288,-224
1,741251,2466,837,-534,-1478,-301,-39,204,288,-224
1,741264,2466,837,-531,-1476,-297,-43,204,288,-224
1,741279,2466,837,-531,-1476,-297,-43,204,288,-224
1,741288,2465,838,-525,-1480,-306,-40,204,288,-224
1,741297,2465,838,-525,-1480,-306,-40,204,288,-224
1,741305,2467,838,-524,-1470,-304,-44,199,273,-235
1,741314,2467,838,-524,-1470,-304,-44,199,273,-235
1,741322,2467,838,-524,-1470,-304,-44,199,273,-235
1,741337,2464,835,-534,-1477,-302,-40,199,273,-235
1,741347,2465,835,-529,-1485,-298,-40,199,273,-235
1,741356,2465,835,-529,-1485,-298,-40,199,273,-235
1,741363,2465,835,-529,-1485,-298,-40,199,273,-235
1,741369,2464,836,-530,-1478,-303,-37,199,273,-235
1,741376,2464,836,-530,-1478,-303,-37,199,273,-235
1,741382,2464,836,-530,-1478,-303,-37,199,273,-235
1,741388,2462,838,-534,-1475,-309,-42,199,273,-235
1,741394,2462,838,-534,-1475,-309,-42,199,273,-235
1,741400,2462,838,-534,-1475,-309,-42,199,273,-235
1,741406,2468,839,-532,-1473,-311,-44,199,273,-235
1,741412,2468,839,-532,-1473,-311,-44,199,273,-235
1,741419,2468,839,-532,-1473,-311,-44,199,273,-235
1,741426,2466,838,-523,-1481,-308,-45,195,275,-223
1,741432,2466,838,-523,-1481,-308,-45,195,275,-223
1,741438,2466,838,-523,-1481,-308,-45,195,275,-223
1,741444,2465,838,-529,-1484,-307,-42,195,275,-223
1,741453,2465,838,-529,-1484,-307,-42,195,275,-223
1,741463,2464,838,-530,-1478,-302,-35,195,275,-223
1,741473,2464,838,-530,-1478,-302,-35,195,275,-223
1,741481,2464,838,-530,-1478,-302,-35,195,275,-223
1,741491,2467,837,-535,-1478,-300,-38,195,275,-223
1,741497,2467,837,-535,-1478,-300,-38,195,275,-223
1,741508,2464,837,-532,-1478,-313,-35,195,275,-223
1,741516,2464,837,-532,-1478,-313,-35,195,275,-223
1,741525,2465,838,-531,-1483,-310,-35,195,275,-223
1,741533,2465,838,-531,-1483,-310,-35,195,275,-223
1,741541,2465,838,-531,-1483,-310,-35,195,275,-223
1,741551,2464,838,-527,-1482,-304,-39,198,282,-240
1,741560,2464,838,-527,-1482,-304,-39,198,282,-240
1,741569,2462,839,-525,-1467,-305,-38,198,282,-240
1,741581,2462,839,-525,-1467,-305,-38,198,282,-240
1,741597,2463,838,-533,-1476,-308,-39,198,282,-240
1,741612,2463,836,-530,-1483,-302,-39,198,282,-240
1,741625,2464,837,-531,-1474,-311,-41,198,282,-240
1,741633,2464,837,-531,-1474,-311,-41,198,282,-240
1,741645,2465,837,-528,-1479,-304,-39,198,282,-240
1,741661,2465,837,-528,-1479,-304,-39,198,282,-240
1,741676,2468,834,-531,-1478,-303,-37,200,286,-236
1,741689,2465,839,-526,-1479,-300,-41,200,286,-236
1,741703,2464,836,-531,-1473,-298,-37,200,286,-236
1,741720,2464,836,-531,-1473,-298,-37,200,286,-236
1,741733,2464,836,-534,-1476,-310,-39,200,286,-236
1,741744,2465,836,-530,-1477,-307,-39,200,286,-236
1,741760,2465,836,-530,-1477,-307,-39,200,286,-236
1,741774,2464,835,-524,-1477,-304,-34,200,286,-236
1,741788,2464,837,-535,-1475,-308,-42,200,286,-236
1,741797,2464,837,-535,-1475,-308,-42,200,286,-236
1,741806,2464,839,-527,-1474,-317,-42,192,274,-226
1,741817,2464,839,-527,-1474,-317,-42,192,274,-226
1,741831,2465,836,-532,-1471,-306,-41,192,274,-226
1,741847,2464,835,-529,-1475,-303,-44,192,274,-226
1,741861,2464,835,-529,-1475,-303,-44,192,274,-226
1,741876,2464,835,-530,-1480,-304,-40,192,274,-226
1,741890,2467,839,-529,-1480,-302,-38,192,274,-226
1,741901,2467,839,-529,-1480,-302,-38,192,274,-226
1,741913,2464,837,-530,-1475,-308,-42,192,274,-226
1,741926,2463,834,-531,-1474,-306,-43,201,281,-225
1,741942,2463,834,-531,-1474,-306,-43,201,281,-225
1,741957,2464,834,-534,-1479,-308,-40,201,281,-225
1,741970,2464,835,-528,-1482,-305,-31,201,281,-225
1,741983,2464,835,-528,-1482,-305,-31,201,281,-225
1,741995,2463,834,-532,-1480,-305,-42,201,281,-225
1,742010,2465,836,-531,-1481,-303,-44,201,281,-225
1,742023,2465,836,-531,-1481,-303,-44,201,281,-225
1,742037,2463,836,-534,-1484,-301,-46,201,281,-225
1,742051,2464,837,-527,-1475,-303,-47,195,277,-229
1,742067,2463,837,-526,-1479,-302,-43,195,277,-229
1,742082,2463,837,-526,-1479,-302,-43,195,277,-229
1,742095,2464,837,-532,-1482,-301,-44,195,277,-229
1,742110,2466,835,-532,-1481,-315,-44,195,277,-229
1,742124,2462,835,-530,-1473,-305,-37,195,277,-229
1,742137,2462,835,-530,-1473,-305,-37,195,277,-229
1,742154,2464,835,-532,-1480,-304,-38,195,277,-229
1,742167,2465,837,-531,-1482,-311,-32,194,282,-230
1,742179,2465,837,-531,-1482,-311,-32,194,282,-230
1,742195,2464,836,-529,-1477,-306,-41,194,282,-230
1,742202,2464,836,-529,-1477,-306,-41,194,282,-230
1,742210,2462,839,-529,-1478,-302,-37,194,282,-230
1,742224,2463,836,-529,-1479,-295,-33,194,282,-230
1,742238,2463,836,-529,-1479,-295,-33,194,282,-230
1,742251,2464,834,-531,-1482,-305,-36,194,282,-230
1,742263,2464,834,-530,-1478,-306,-33,194,282,-230
1,742278,2464,834,-530,-1478,-306,-33,194,282,-230
1,742292,2463,835,-531,-1480,-309,-37,194,282,-230
1,742304,2462,834,-526,-1476,-310,-39,197,283,-233
1,742319,2462,834,-526,-1476,-310,-39,197,283,-233
1,742334,2464,838,-533,-1468,-306,-42,197,283,-233
1,742347,2463,837,-531,-1476,-309,-40,197,283,-233
1,742362,2463,837,-531,-1476,-309,-40,197,283,-233
1,742376,2461,837,-528,-1479,-303,-41,197,283,-233
1,742389,2465,835,-529,-1473,-308,-38,197,283,-233
1,742402,2465,835,-529,-1473,-308,-38,197,283,-233
1,742415,2468,837,-530,-1475,-302,-36,197,283,-233
1,742428,2466,836,-527,-1471,-300,-39,205,279,-235
1,742443,2466,836,-527,-1471,-300,-39,205,279,-235
1,742457,2466,838,-527,-1474,-308,-38,205,279,-235
1,742472,2466,836,-532,-1480,-303,-41,205,279,-235
1,742488,2464,838,-533,-1474,-301,-35,205,279,-235
1,742502,2464,838,-533,-1474,-301,-35,205,279,-235
1,742516,2464,838,-532,-1477,-304,-41,205,279,-235
1,742531,2464,838,-529,-1479,-303,-49,205,279,-235
1,742546,2465,838,-531,-1483,-308,-44,200,282,-236
1,742558,2465,838,-531,-1483,-308,-44,200,282,-236
1,742571,2466,837,-525,-1473,-312,-41,200,282,-236
1,742586,2463,833,-530,-1480,-300,-38,200,282,-236
1,742601,2463,833,-530,-1480,-300,-38,200,282,-236
1,742615,2464,839,-523,-1484,-300,-42,200,282,-236
1,742629,2463,835,-527,-1474,-305,-37,200,282,-236
1,742642,2463,835,-527,-1474,-305,-37,200,282,-236
1,742656,2462,838,-532,-1474,-310,-36,200,282,-236
1,742670,2461,838,-527,-1476,-309,-37,201,283,-229
1,742683,2461,838,-527,-1476,-309,-37,201,283,-229
1,742697,2463,838,-530,-1468,-304,-43,201,283,-229
1,742712,2467,835,-528,-1471,-303,-38,201,283,-229
1,742726,2466,838,-531,-1476,-305,-38,201,283,-229
1,742742,2466,838,-531,-1476,-305,-38,201,283,-229
1,742753,2464,836,-528,-1476,-306,-40,201,283,-229
1,742766,2461,837,-535,-1477,-308,-46,201,283,-229
1,742781,2461,837,-535,-1477,-308,-46,201,283,-229
1,742797,2464,837,-526,-1476,-302,-40,201,283,-229
1,742813,2466,835,-527,-1474,-309,-41,202,276,-230
1,742824,2463,838,-531,-1475,-302,-43,202,276,-230
1,742838,2463,838,-531,-1475,-302,-43,202,276,-230
1,742852,2465,837,-531,-1477,-301,-39,202,276,-230
1,742866,2461,838,-534,-1477,-311,-45,202,276,-230
1,742881,2461,838,-534,-1477,-311,-45,202,276,-230
1,742895,2466,838,-529,-1472,-305,-47,202,276,-230
1,742909,2466,836,-532,-1482,-311,-41,202,276,-230
1,742923,2466,836,-532,-1482,-311,-41,202,276,-230
1,742935,2466,836,-532,-1482,-311,-41,200,288,-230
1,742950,2464,837,-527,-1471,-309,-41,200,288,-230
1,742964,2463,835,-531,-1481,-306,-40,200,288,-230
1,742978,2463,835,-531,-1481,-306,-40,200,288,-230
1,742992,2464,832,-530,-1480,-304,-43,200,288,-230
1,743008,2463,836,-531,-1476,-303,-42,200,288,-230
1,743024,2466,839,-534,-1480,-302,-32,200,288,-230
1,743040,2466,839,-534,-1480,-302,-32,200,288,-230
1,743055,2467,837,-528,-1479,-309,-39,201,293,-225
1,743070,2467,837,-531,-1483,-304,-47,201,293,-225
1,743084,2467,837,-531,-1483,-304,-47,201,293,-225
1,743098,2467,837,-531,-1471,-303,-47,201,293,-225
1,743112,2466,833,-531,-1468,-304,-48,201,293,-225
1,743128,2463,837,-535,-1470,-307,-34,201,293,-225
1,743140,2463,837,-535,-1470,-307,-34,201,293,-225
1,743152,2463,837,-535,-1470,-307,-34,201,293,-225
1,743166,2466,836,-522,-1486,-303,-45,196,284,-228
1,743180,2466,836,-522,-1486,-303,-45,196,284,-228
1,743194,2465,835,-529,-1479,-307,-36,196,284,-228
1,743207,2466,837,-532,-1471,-311,-42,196,284,-228
1,743222,2466,837,-532,-1471,-311,-42,196,284,-228
1,743235,2464,836,-530,-1477,-307,-42,196,284,-228
1,743249,2464,838,-531,-1484,-310,-40,196,284,-228
1,743266,2462,837,-525,-1481,-306,-35,196,284,-228
1,743280,2462,837,-525,-1481,-306,-35,196,284,-228
1,743292,2465,839,-532,-1483,-305,-41,197,275,-225
1,743308,2467,837,-528,-1476,-306,-37,197,275,-225
1,743322,2467,837,-528,-1476,-306,-37,197,275,-225
1,743336,2464,836,-531,-1479,-303,-41,197,275,-225
1,743350,2466,834,-530,-1479,-304,-37,197,275,-225
1,743364,2466,834,-530,-1479,-304,-37,197,275,-225
1,743376,2466,834,-530,-1479,-304,-37,197,275,-225
1,743392,2463,837,-527,-1466,-301,-45,197,275,-225
1,743404,2461,838,-532,-1469,-299,-43,197,275,-225
1,743418,2461,838,-532,-1469,-299,-43,197,275,-225
1,743429,2464,836,-529,-1477,-308,-46,191,279,-235
1,743444,2464,836,-529,-1477,-308,-46,191,279,-235
1,743457,2460,837,-530,-1477,-305,-45,191,279,-235
1,743471,2466,837,-529,-1481,-311,-40,191,279,-235
1,743486,2463,836,-526,-1475,-309,-45,191,279,-235
1,743500,2463,836,-526,-1475,-309,-45,191,279,-235
1,743512,2464,839,-535,-1473,-307,-43,191,279,-235
1,743524,2464,839,-535,-1473,-307,-43,191,279,-235
1,743537,2464,839,-531,-1476,-300,-43,191,279,-235
1,743552,2462,838,-525,-1477,-307,-44,195,287,-221
1,743566,2464,836,-529,-1476,-309,-48,195,287,-221
1,743576,2464,836,-529,-1476,-309,-48,195,287,-221
1,743589,2466,838,-533,-1472,-308,-48,195,287,-221
1,743603,2466,838,-533,-1472,-308,-48,195,287,-221
1,743616,2462,835,-531,-1480,-300,-50,195,287,-221
1,743629,2462,836,-532,-1479,-301,-49,195,287,-221
1,743638,2462,836,-532,-1479,-301,-49,195,287,-221
1,743651,2464,839,-535,-1477,-307,-44,195,287,-221
1,743665,2466,838,-529,-1476,-305,-38,198,286,-236
1,743680,2466,838,-529,-1476,-305,-38,198,286,-236
1,743695,2462,837,-527,-1479,-297,-39,198,286,-236
1,743707,2463,838,-524,-1476,-299,-39,198,286,-236
1,743716,2463,838,-524,-1476,-299,-39,198,286,-236
1,743729,2466,840,-529,-1472,-299,-41,198,286,-236
1,743743,2466,840,-529,-1472,-299,-41,198,286,-236
1,743759,2463,837,-532,-1487,-307,-40,198,286,-236
1,743774,2464,837,-533,-1472,-303,-38,198,286,-236
1,743787,2468,838,-532,-1476,-304,-41,200,282,-234
1,743800,2468,838,-532,-1476,-304,-41,200,282,-234
1,743812,2465,836,-524,-1477,-303,-40,200,282,-234
1,743824,2465,836,-524,-1477,-303,-40,200,282,-234
1,743837,2463,835,-530,-1479,-301,-43,200,282,-234
1,743852,2467,836,-533,-1477,-301,-46,200,282,-234
1,743866,2465,836,-530,-1472,-301,-44,200,282,-234
1,743879,2465,836,-530,-1472,-301,-44,200,282,-234
1,743889,2465,835,-532,-1472,-307,-37,200,282,-234
1,743905,2463,835,-529,-1484,-308,-38,200,282,-234
1,743918,2463,835,-529,-1484,-308,-38,200,282,-234
1,743931,2464,838,-528,-1478,-309,-39,197,285,-223
1,743947,2464,838,-525,-1473,-302,-40,197,285,-223
1,743962,2464,838,-525,-1473,-302,-40,197,285,-223
1,743975,2465,834,-531,-1477,-304,-41,197,285,-223
1,743985,2465,836,-529,-1482,-312,-37,197,285,-223
1,743993,2465,836,-529,-1482,-312,-37,197,285,-223
1,744001,2465,836,-529,-1482,-312,-37,197,285,-223
1,744012,2464,838,-535,-1485,-308,-37,197,285,-223
1,744028,2463,836,-530,-1478,-306,-38,197,285,-223
1,744043,2463,836,-530,-1478,-306,-38,197,285,-223
1,744056,2466,835,-525,-1479,-303,-41,202,282,-226
1,744071,2465,835,-528,-1479,-304,-44,202,282,-226
1,744084,2464,836,-526,-1480,-306,-28,202,282,-226
1,744098,2464,836,-526,-1480,-306,-28,202,282,-226
1,744112,2465,838,-529,-1477,-305,-32,202,282,-226
1,744124,2465,837,-533,-1484,-303,-43,202,282,-226
1,744137,2465,837,-533,-1484,-303,-43,202,282,-226
1,744152,2464,835,-531,-1476,-303,-45,202,282,-226
1,744166,2466,838,-526,-1471,-301,-39,200,284,-228
1,744181,2466,838,-526,-1471,-301,-39,200,284,-228
1,744196,2468,837,-530,-1478,-301,-51,200,284,-228
1,744207,2465,841,-528,-1476,-306,-49,200,284,-228
1,744222,2465,841,-528,-1476,-306,-49,200,284,-228
1,744233,2468,837,-533,-1473,-303,-37,200,284,-228
1,744245,2465,836,-532,-1474,-309,-36,200,284,-228
1,744258,2465,836,-532,-1474,-309,-36,200,284,-228
1,744272,2464,835,-532,-1483,-306,-40,200,284,-228
1,744284,2462,837,-526,-1476,-301,-46,200,284,-228
1,744296,2462,837,-526,-1476,-301,-46,196,286,-222
1,744304,2465,836,-523,-1474,-298,-43,196,286,-222
1,744312,2465,836,-523,-1474,-298,-43,196,286,-222
1,744322,2465,836,-523,-1474,-298,-43,196,286,-222
1,744336,2461,836,-530,-1475,-301,-39,196,286,-222
1,744349,2463,836,-532,-1474,-304,-41,196,286,-222
1,744364,2463,836,-532,-1474,-304,-41,196,286,-222
1,744376,2463,839,-533,-1486,-305,-40,196,286,-222
1,744389,2464,837,-533,-1479,-302,-43,196,286,-222
1,744397,2464,837,-533,-1479,-302,-43,196,286,-222
1,744409,2461,837,-532,-1480,-300,-40,196,286,-222
1,744423,2461,837,-532,-1480,-300,-40,196,286,-222
1,744433,2465,837,-525,-1475,-312,-41,197,273,-227
1,744446,2463,839,-529,-1482,-306,-41,197,273,-227
1,744462,2463,839,-529,-1482,-306,-41,197,273,-227
1,744475,2462,839,-528,-1483,-303,-38,197,273,-227
1,744489,2465,836,-530,-1483,-303,-35,197,273,-227
1,744505,2465,837,-537,-1482,-309,-44,197,273,-227
1,744519,2465,837,-537,-1482,-309,-44,197,273,-227
1,744529,2463,836,-531,-1478,-301,-38,197,273,-227
1,744538,2463,836,-531,-1478,-301,-38,197,273,-227
1,744552,2463,838,-523,-1476,-301,-42,205,287,-233
1,744563,2463,838,-523,-1476,-301,-42,205,287,-233
1,744577,2464,836,-527,-1479,-309,-42,205,287,-233
1,744591,2465,836,-530,-1476,-306,-36,205,287,-233
1,744605,2465,837,-527,-1475,-304,-44,205,287,-233
1,744620,2465,837,-527,-1475,-304,-44,205,287,-233
1,744635,2464,837,-531,-1480,-302,-38,205,287,-233
1,744648,2464,837,-527,-1483,-307,-36,205,287,-233
1,744660,2464,837,-527,-1483,-307,-36,205,287,-233
1,744676,2465,836,-525,-1486,-306,-42,208,278,-230
1,744687,2464,835,-529,-1480,-294,-37,208,278,-230
1,744701,2464,835,-529,-1480,-294,-37,208,278,-230
1,744716,2465,834,-529,-1477,-305,-43,208,278,-230
1,744729,2464,836,-531,-1479,-301,-45,208,278,-230
1,744743,2464,836,-531,-1479,-301,-45,208,278,-230
1,744757,2465,836,-522,-1475,-298,-46,208,278,-230
1,744771,2462,835,-532,-1486,-307,-46,208,278,-230
1,744783,2462,835,-532,-1486,-307,-46,208,278,-230
1,744798,2464,835,-530,-1487,-309,-40,199,283,-219
1,744812,2463,837,-530,-1481,-305,-38,199,283,-219
1,744826,2466,835,-528,-1482,-309,-32,199,283,-219
1,744840,2466,835,-528,-1482,-309,-32,199,283,-219
1,744854,2467,839,-528,-1476,-309,-38,199,283,-219
1,744869,2467,839,-528,-1476,-309,-38,199,283,-219
1,744884,2467,839,-528,-1476,-309,-38,199,283,-219
1,744898,2466,834,-530,-1476,-302,-39,199,283,-219
1,744911,2467,833,-531,-1469,-304,-31,199,283,-219
1,744927,2465,836,-530,-1480,-308,-33,198,282,-228
1,744942,2465,836,-530,-1480,-308,-33,198,282,-228
1,744956,2463,836,-529,-1480,-304,-38,198,282,-228
1,744969,2466,835,-530,-1480,-298,-36,198,282,-228
1,744982,2466,835,-530,-1480,-298,-36,198,282,-228
1,744995,2465,835,-530,-1478,-300,-38,198,282,-228
1,745010,2463,835,-531,-1478,-297,-31,198,282,-228
1,745023,2463,835,-531,-1478,-297,-31,198,282,-228
1,745036,2463,836,-531,-1478,-305,-34,198,282,-228
1,745051,2465,836,-522,-1475,-305,-40,200,288,-234
1,745063,2465,836,-522,-1475,-305,-40,200,288,-234
1,745078,2464,834,-532,-1474,-303,-40,200,288,-234
1,745092,2461,835,-534,-1480,-308,-33,200,288,-234
1,745105,2465,837,-533,-1473,-310,-35,200,288,-234
1,745120,2465,837,-533,-1473,-310,-35,200,288,-234
1,745136,2467,839,-531,-1483,-300,-33,200,288,-234
1,745151,2466,839,-528,-1479,-304,-31,200,288,-234
1,745166,2465,836,-523,-1483,-302,-37,201,283,-235
1,745180,2465,836,-523,-1483,-302,-37,201,283,-235
1,745194,2467,838,-524,-1479,-307,-35,201,283,-235
1,745208,2464,836,-530,-1481,-309,-36,201,283,-235
1,745224,2464,836,-530,-1481,-309,-36,201,283,-235
1,745233,2464,836,-531,-1476,-302,-41,201,283,-235
1,745247,2462,838,-531,-1474,-301,-41,201,283,-235
1,745262,2462,838,-531,-1474,-301,-41,201,283,-235
1,745274,2465,838,-533,-1483,-300,-39,201,283,-235
1,745287,2465,834,-521,-1484,-303,-38,194,280,-228
1,745299,2465,834,-521,-1484,-303,-38,194,280,-228
1,745314,2464,836,-525,-1485,-309,-44,194,280,-228
1,745324,2464,836,-525,-1485,-309,-44,194,280,-228
1,745338,2463,840,-534,-1476,-303,-42,194,280,-228
1,745354,2462,838,-527,-1479,-306,-44,194,280,-228
1,745368,2465,837,-530,-1478,-304,-43,194,280,-228
1,745383,2465,837,-530,-1478,-304,-43,194,280,-228
1,745397,2467,836,-532,-1475,-299,-41,194,280,-228
1,745410,2466,837,-529,-1477,-303,-36,201,287,-221
1,745425,2464,837,-528,-1484,-305,-43,201,287,-221
1,745439,2464,837,-528,-1484,-305,-43,201,287,-221
1,745454,2465,836,-529,-1484,-311,-38,201,287,-221
1,745469,2462,834,-531,-1484,-308,-39,201,287,-221
1,745485,2465,835,-529,-1482,-310,-35,201,287,-221
1,745498,2465,835,-529,-1482,-310,-35,201,287,-221
1,745511,2462,836,-532,-1479,-305,-29,201,287,-221
1,745525,2462,837,-533,-1486,-311,-37,201,287,-221
1,745539,2462,837,-533,-1486,-311,-37,201,287,-221
1,745551,2465,838,-526,-1484,-303,-45,197,281,-235
1,745565,2465,838,-526,-1484,-303,-45,197,281,-235
1,745579,2465,839,-525,-1479,-305,-41,197,281,-235
1,745595,2466,835,-532,-1482,-307,-38,197,281,-235
1,745611,2464,839,-528,-1478,-311,-41,197,281,-235
1,745624,2464,839,-528,-1478,-311,-41,197,281,-235
1,745635,2463,837,-531,-1472,-312,-43,197,281,-235
1,745649,2465,837,-526,-1476,-306,-43,197,281,-235
1,745663,2465,837,-526,-1476,-306,-43,197,281,-235
1,745676,2465,836,-529,-1476,-304,-40,191,277,-227
1,745690,2461,836,-531,-1476,-306,-41,191,277,-227
1,745700,2461,836,-531,-1476,-306,-41,191,277,-227
1,745714,2464,836,-530,-1472,-302,-46,191,277,-227
1,745729,2464,837,-532,-1480,-304,-38,191,277,-227
1,745740,2464,837,-532,-1480,-304,-38,191,277,-227
1,745753,2464,835,-527,-1483,-307,-37,191,277,-227
1,745766,2460,837,-526,-1474,-308,-33,191,277,-227
1,745781,2460,837,-526,-1474,-308,-33,191,277,-227
1,745796,2461,838,-528,-1475,-309,-40,203,287,-227
1,745811,2465,836,-529,-1477,-307,-39,203,287,-227
1,745825,2465,836,-529,-1477,-307,-39,203,287,-227
1,745836,2463,836,-530,-1475,-307,-40,203,287,-227
1,745849,2462,835,-532,-1480,-305,-37,203,287,-227
1,745864,2462,835,-532,-1480,-305,-37,203,287,-227
1,745877,2465,838,-530,-1477,-311,-38,203,287,-227
1,745891,2466,837,-529,-1477,-307,-36,203,287,-227
1,745907,2464,837,-531,-1476,-297,-35,200,288,-220
1,745920,2464,837,-531,-1476,-297,-35,200,288,-220
1,745933,2462,839,-530,-1484,-301,-39,200,288,-220
1,745947,2462,836,-525,-1481,-303,-37,200,288,-220
1,745960,2462,836,-525,-1481,-303,-37,200,288,-220
1,745974,2464,836,-535,-1478,-309,-39,200,288,-220
1,745990,2464,837,-531,-1474,-308,-42,200,288,-220
1,746003,2464,837,-531,-1474,-308,-42,200,288,-220
1,746013,2466,835,-528,-1473,-297,-34,200,288,-220
1,746021,2466,835,-528,-1473,-297,-34,200,288,-220
1,746035,2463,838,-534,-1474,-301,-38,200,288,-220
1,746049,2462,835,-529,-1475,-309,-36,194,282,-234
1,746063,2462,835,-529,-1475,-309,-36,194,282,-234
1,746077,2467,838,-527,-1475,-307,-36,194,282,-234
1,746089,2463,837,-529,-1477,-301,-36,194,282,-234
1,746102,2463,837,-529,-1477,-301,-36,194,282,-234
1,746116,2461,835,-526,-1476,-304,-46,194,282,-234
1,746129,2465,835,-531,-1473,-307,-42,194,282,-234
1,746143,2465,835,-531,-1473,-307,-42,194,282,-234
1,746157,2461,834,-532,-1473,-304,-41,194,282,-234
1,746168,2460,836,-526,-1475,-305,-43,206,274,-232
1,746183,2460,836,-526,-1475,-305,-43,206,274,-232
1,746199,2464,838,-527,-1476,-308,-32,206,274,-232
1,746217,2464,838,-529,-1475,-308,-35,206,274,-232
1,746232,2462,836,-531,-1475,-305,-38,206,274,-232
1,746248,2462,834,-531,-1474,-303,-40,206,274,-232
1,746262,2462,834,-531,-1474,-303,-40,206,274,-232
1,746274,2466,835,-531,-1473,-306,-36,206,274,-232
1,746289,2465,837,-529,-1479,-305,-41,204,284,-234
1,746305,2464,839,-529,-1476,-305,-38,204,284,-234
1,746319,2464,839,-529,-1476,-305,-38,204,284,-234
1,746333,2463,840,-530,-1477,-310,-36,204,284,-234
1,746347,2465,837,-531,-1480,-307,-40,204,284,-234
1,746361,2465,837,-531,-1480,-307,-40,204,284,-234
1,746375,2464,837,-527,-1476,-303,-40,204,284,-234
1,746389,2466,836,-529,-1481,-309,-35,204,284,-234
1,746402,2466,836,-529,-1481,-309,-35,204,284,-234
1,746417,2462,838,-530,-1477,-309,-40,198,286,-228
1,746428,2462,838,-530,-1477,-309,-40,198,286,-228
1,746444,2462,838,-530,-1477,-309,-40,198,286,-228
1,746460,2461,838,-533,-1476,-308,-38,198,286,-228
1,746473,2461,840,-532,-1476,-310,-36,198,286,-228
1,746487,2464,838,-532,-1483,-314,-38,198,286,-228
1,746503,2464,838,-532,-1483,-314,-38,198,286,-228
1,746517,2460,837,-529,-1480,-311,-35,198,286,-228
1,746533,2465,835,-530,-1475,-301,-38,198,286,-228
1,746547,2465,837,-529,-1476,-303,-39,197,283,-221
1,746558,2465,837,-529,-1476,-303,-39,197,283,-221
1,746572,2465,836,-530,-1484,-301,-40,197,283,-221
1,746586,2464,835,-532,-1481,-310,-43,197,283,-221
1,746600,2464,835,-532,-1481,-310,-43,197,283,-221
1,746614,2466,837,-533,-1481,-305,-42,197,283,-221
1,746629,2465,838,-534,-1477,-302,-37,197,283,-221
1,746644,2465,838,-534,-1477,-302,-37,197,283,-221
1,746657,2464,836,-530,-1479,-304,-40,197,283,-221
1,746671,2464,838,-524,-1474,-302,-35,203,277,-229
1,746685,2464,837,-525,-1477,-305,-41,203,277,-229
1,746696,2464,837,-525,-1477,-305,-41,203,277,-229
1,746710,2464,836,-531,-1484,-306,-35,203,277,-229
1,746721,2464,836,-531,-1484,-306,-35,203,277,-229
1,746736,2463,837,-532,-1479,-302,-38,203,277,-229
1,746748,2463,837,-527,-1478,-298,-39,203,277,-229
1,746763,2463,837,-527,-1478,-298,-39,203,277,-229
1,746778,2467,839,-530,-1485,-307,-39,203,277,-229
1,746792,2463,835,-533,-1478,-304,-41,203,279,-225
1,746808,2464,834,-527,-1479,-306,-36,203,279,-225
1,746822,2464,834,-527,-1479,-306,-36,203,279,-225
1,746835,2465,838,-529,-1476,-307,-43,203,279,-225
1,746851,2465,836,-529,-1481,-306,-31,203,279,-225
1,746865,2465,836,-529,-1481,-306,-31,203,279,-225
1,746876,2466,836,-528,-1475,-308,-35,203,279,-225
1,746893,2459,837,-532,-1478,-305,-38,203,279,-225
1,746906,2464,836,-528,-1471,-294,-34,194,280,-234
1,746919,2464,836,-528,-1471,-294,-34,194,280,-234
1,746933,2464,838,-530,-1477,-295,-35,194,280,-234
1,746947,2463,836,-531,-1487,-308,-40,194,280,-234
1,746955,2463,836,-531,-1487,-308,-40,194,280,-234
1,746970,2464,838,-534,-1484,-305,-38,194,280,-234
1,746983,2464,838,-534,-1484,-305,-38,194,280,-234
1,746997,2466,836,-531,-1485,-300,-37,194,280,-234
1,747013,2464,838,-528,-1488,-304,-37,194,280,-234
1,747027,2462,838,-531,-1478,-298,-39,194,280,-234
1,747042,2462,838,-531,-1478,-298,-39,194,280,-234
1,747057,2466,835,-530,-1480,-298,-43,206,272,-224
1,747069,2461,835,-530,-1477,-301,-34,206,272,-224
1,747084,2461,835,-530,-1477,-301,-34,206,272,-224
1,747099,2465,839,-530,-1473,-300,-28,206,272,-224
1,747110,2464,839,-528,-1479,-301,-40,206,272,-224
1,747124,2464,839,-528,-1479,-301,-40,206,272,-224
1,747139,2464,836,-532,-1478,-308,-44,206,272,-224
1,747153,2464,836,-528,-1475,-311,-38,206,272,-224
1,747161,2464,836,-528,-1475,-311,-38,206,272,-224
1,747172,2465,839,-525,-1475,-303,-43,200,278,-220
1,747186,2464,838,-528,-1475,-307,-39,200,278,-220
1,747200,2464,838,-528,-1475,-307,-39,200,278,-220
1,747214,2464,837,-528,-1483,-312,-34,200,278,-220
1,747230,2463,836,-532,-1482,-308,-33,200,278,-220
1,747244,2463,836,-532,-1482,-308,-33,200,278,-220
1,747257,2463,834,-534,-1478,-308,-37,200,278,-220
1,747272,2464,835,-537,-1475,-310,-40,200,278,-220
1,747280,2464,835,-537,-1475,-310,-40,200,278,-220
1,747295,2463,838,-528,-1478,-310,-36,205,283,-221
1,747311,2465,837,-531,-1476,-308,-39,205,283,-221
1,747325,2465,837,-531,-1476,-308,-39,205,283,-221
1,747338,2465,837,-531,-1476,-308,-39,205,283,-221
1,747353,2466,838,-531,-1481,-303,-43,205,283,-221
1,747366,2467,836,-529,-1474,-305,-40,205,283,-221
1,747379,2467,836,-529,-1474,-305,-40,205,283,-221
1,747392,2465,837,-525,-1477,-306,-44,205,283,-221
1,747405,2464,837,-528,-1474,-302,-43,205,283,-221
1,747415,2464,837,-528,-1474,-302,-43,206,286,-228
1,747427,2463,835,-532,-1478,-308,-42,206,286,-228
1,747441,2463,835,-532,-1478,-308,-42,206,286,-228
1,747456,2462,838,-535,-1475,-305,-38,206,286,-228
1,747470,2465,834,-536,-1478,-308,-39,206,286,-228
1,747484,2465,834,-536,-1478,-308,-39,206,286,-228
1,747498,2463,836,-536,-1476,-306,-37,206,286,-228
1,747513,2463,839,-526,-1482,-311,-38,206,286,-228
1,747529,2463,836,-534,-1475,-311,-35,201,285,-233
1,747542,2463,836,-534,-1475,-311,-35,201,285,-233
1,747556,2464,834,-528,-1476,-307,-33,201,285,-233
1,747571,2464,837,-531,-1474,-307,-32,201,285,-233
1,747584,2464,837,-531,-1474,-307,-32,201,285,-233
1,747595,2467,836,-530,-1474,-303,-37,201,285,-233
1,747610,2466,836,-527,-1468,-311,-36,201,285,-233
1,747623,2466,836,-527,-1468,-311,-36,201,285,-233
1,747637,2463,837,-530,-1475,-312,-41,201,285,-233
1,747652,2466,838,-533,-1482,-307,-39,201,285,-233
1,747663,2466,838,-533,-1482,-307,-39,201,285,-233
1,747675,2464,838,-531,-1479,-306,-40,196,276,-234
1,747689,2463,835,-530,-1474,-304,-43,196,276,-234
1,747705,2463,835,-530,-1474,-304,-43,196,276,-234
1,747719,2462,835,-532,-1475,-303,-37,196,276,-234
1,747735,2464,836,-532,-1472,-301,-41,196,276,-234
1,747750,2463,837,-527,-1487,-306,-39,196,276,-234
1,747764,2463,837,-527,-1487,-306,-39,196,276,-234
1,747780,2463,838,-533,-1475,-302,-38,196,276,-234
1,747794,2464,838,-531,-1479,-301,-39,202,284,-224
1,747807,2466,838,-526,-1479,-301,-40,202,284,-224
1,747822,2466,838,-526,-1479,-301,-40,202,284,-224
1,747836,2462,835,-533,-1486,-302,-41,202,284,-224
1,747850,2464,837,-534,-1477,-300,-38,202,284,-224
1,747865,2464,837,-534,-1477,-300,-38,202,284,-224
1,747877,2465,836,-531,-1470,-303,-37,202,284,-224
1,747890,2464,836,-530,-1479,-307,-41,202,284,-224
1,747905,2464,836,-530,-1479,-307,-41,202,284,-224
1,747919,2465,840,-523,-1477,-306,-35,197,291,-225
1,747934,2464,836,-526,-1480,-304,-43,197,291,-225
1,747947,2466,838,-530,-1486,-303,-35,197,291,-225
1,747960,2466,838,-530,-1486,-303,-35,197,291,-225
1,747975,2465,834,-531,-1476,-303,-41,197,291,-225
1,747991,2466,837,-525,-1483,-306,-39,197,291,-225
1,748006,2463,836,-533,-1482,-300,-39,197,291,-225
1,748018,2463,836,-533,-1482,-300,-39,197,291,-225
1,748032,2463,836,-530,-1479,-300,-39,196,284,-228
1,748045,2463,836,-530,-1479,-300,-39,196,284,-228
1,748057,2464,838,-524,-1481,-311,-37,196,284,-228
1,748071,2467,837,-533,-1474,-305,-36,196,284,-228
1,748086,2467,837,-533,-1474,-305,-36,196,284,-228
1,748099,2464,836,-531,-1475,-302,-37,196,284,-228
1,748111,2465,838,-533,-1479,-310,-41,196,284,-228
1,748125,2465,838,-533,-1479,-310,-41,196,284,-228
1,748139,2463,839,-531,-1480,-309,-38,196,284,-228
1,748153,2463,837,-527,-1478,-309,-41,196,284,-228
1,748168,2463,839,-530,-1476,-303,-42,194,282,-234
1,748182,2463,839,-530,-1476,-303,-42,194,282,-234
1,748195,2464,835,-534,-1472,-303,-36,194,282,-234
1,748211,2464,836,-533,-1477,-299,-38,194,282,-234
1,748226,2466,838,-531,-1480,-308,-44,194,282,-234
1,748240,2466,838,-531,-1480,-308,-44,194,282,-234
1,748253,2465,838,-534,-1477,-309,-40,194,282,-234
1,748265,2465,838,-534,-1477,-309,-40,194,282,-234
1,748279,2463,833,-529,-1482,-305,-38,194,282,-234
1,748293,2464,837,-531,-1477,-309,-32,197,285,-233
1,748307,2464,838,-532,-1482,-303,-41,197,285,-233
1,748320,2464,838,-532,-1482,-303,-41,197,285,-233
1,748335,2467,835,-528,-1481,-304,-43,197,285,-233
1,748346,2461,836,-532,-1479,-311,-38,197,285,-233
1,748360,2461,836,-532,-1479,-311,-38,197,285,-233
1,748375,2465,839,-529,-1477,-309,-34,197,285,-233
1,748388,2466,837,-529,-1481,-306,-34,197,285,-233
1,748399,2466,837,-529,-1481,-306,-34,197,285,-233
1,748408,2468,835,-526,-1482,-305,-35,211,281,-225
1,748417,2468,835,-526,-1482,-305,-35,211,281,-225
1,748431,2466,840,-524,-1481,-304,-31,211,281,-225
1,748445,2466,840,-524,-1481,-304,-31,211,281,-225
1,748460,2463,835,-533,-1474,-303,-42,211,281,-225
1,748473,2464,835,-534,-1476,-299,-42,211,281,-225
1,748486,2467,836,-530,-1477,-298,-39,211,281,-225
1,748499,2467,836,-530,-1477,-298,-39,211,281,-225
1,748513,2464,835,-533,-1485,-309,-38,211,281,-225
1,748526,2465,836,-533,-1483,-298,-28,196,288,-230
1,748540,2465,836,-533,-1483,-298,-28,196,288,-230
1,748555,2465,837,-529,-1479,-302,-36,196,288,-230
1,748567,2466,835,-531,-1481,-301,-36,196,288,-230
1,748581,2466,835,-531,-1481,-301,-36,196,288,-230
1,748596,2468,838,-532,-1480,-301,-36,196,288,-230
1,748610,2465,835,-535,-1478,-306,-35,196,288,-230
1,748624,2465,835,-535,-1478,-306,-35,196,288,-230
1,748641,2465,833,-529,-1474,-302,-41,196,288,-230
1,748655,2464,838,-529,-1477,-295,-37,196,288,-230
1,748672,2465,837,-532,-1470,-298,-39,210,282,-224
1,748688,2465,837,-532,-1470,-298,-39,210,282,-224
1,748702,2465,837,-532,-1470,-298,-39,210,282,-224
1,748718,2465,836,-534,-1480,-312,-40,210,282,-224
1,748731,2466,837,-534,-1482,-311,-40,210,282,-224
1,748745,2466,837,-534,-1482,-311,-40,210,282,-224
1,748759,2466,836,-531,-1479,-304,-33,210,282,-224
1,748773,2463,836,-534,-1475,-305,-35,210,282,-224
1,748785,2463,836,-534,-1475,-305,-35,210,282,-224
1,748795,2466,838,-530,-1476,-302,-40,202,280,-228
1,748809,2465,836,-531,-1486,-304,-38,202,280,-228
1,748822,2465,836,-531,-1486,-304,-38,202,280,-228
1,748833,2466,837,-528,-1482,-309,-32,202,280,-228
1,748848,2465,838,-532,-1476,-301,-41,202,280,-228
1,748861,2465,838,-532,-1476,-301,-41,202,280,-228
1,748873,2463,836,-535,-1475,-298,-44,202,280,-228
1,748890,2465,839,-535,-1482,-308,-41,202,280,-228
1,748905,2465,839,-535,-1482,-308,-41,202,280,-228
1,748920,2463,838,-533,-1474,-310,-44,207,271,-229
1,748934,2464,837,-525,-1475,-304,-36,207,271,-229
1,748948,2462,835,-532,-1483,-305,-40,207,271,-229
1,748962,2462,835,-532,-1483,-305,-40,207,271,-229
1,748974,2462,836,-530,-1479,-309,-36,207,271,-229
1,748985,2462,836,-530,-1479,-309,-36,207,271,-229
1,749000,2464,837,-532,-1482,-311,-37,207,271,-229
1,749014,2462,838,-534,-1478,-311,-39,207,271,-229
1,749028,2463,837,-527,-1478,-308,-37,205,283,-233
1,749041,2463,837,-527,-1478,-308,-37,205,283,-233
1,749056,2465,833,-529,-1491,-308,-39,205,283,-233
1,749068,2464,837,-534,-1485,-305,-44,205,283,-233
1,749082,2464,837,-534,-1485,-305,-44,205,283,-233
1,749096,2464,836,-532,-1478,-304,-45,205,283,-233
1,749112,2464,835,-530,-1473,-306,-43,205,283,-233
1,749125,2464,835,-530,-1473,-306,-43,205,283,-233
1,749138,2466,836,-534,-1481,-306,-35,205,283,-233
1,749154,2463,835,-532,-1477,-309,-39,205,283,-233
1,749167,2461,837,-527,-1473,-308,-31,204,278,-222
1,749179,2461,837,-527,-1473,-308,-31,204,278,-222
1,749191,2465,836,-526,-1483,-309,-40,204,278,-222
1,749203,2465,836,-526,-1483,-309,-40,204,278,-222
1,749217,2465,837,-529,-1484,-304,-41,204,278,-222
1,749231,2464,837,-532,-1481,-303,-37,204,278,-222
1,749244,2464,837,-532,-1481,-303,-37,204,278,-222
1,749258,2466,836,-533,-1476,-304,-33,204,278,-222
1,749270,2463,837,-533,-1473,-303,-34,204,278,-222
1,749284,2463,837,-533,-1473,-303,-34,204,278,-222
1,749299,2464,832,-529,-1481,-311,-37,197,279,-233
1,749314,2465,835,-529,-1479,-304,-35,197,279,-233
1,749328,2466,836,-533,-1479,-298,-33,197,279,-233
1,749341,2466,836,-533,-1479,-298,-33,197,279,-233
1,749357,2463,838,-528,-1476,-309,-42,197,279,-233
1,749371,2464,837,-533,-1481,-308,-34,197,279,-233
1,749385,2464,837,-533,-1481,-308,-34,197,279,-233
1,749399,2463,835,-536,-1479,-306,-39,197,279,-233
1,749413,2463,838,-523,-1471,-305,-36,197,285,-225
1,749424,2463,838,-523,-1471,-305,-36,197,285,-225
1,749436,2464,835,-527,-1477,-305,-41,197,285,-225
1,749451,2465,838,-527,-1476,-305,-37,197,285,-225
1,749464,2465,838,-527,-1476,-305,-37,197,285,-225
1,749478,2465,838,-527,-1474,-308,-34,197,285,-225
1,749493,2465,836,-532,-1474,-308,-41,197,285,-225
1,749505,2465,836,-532,-1474,-308,-41,197,285,-225
1,749518,2467,838,-534,-1483,-304,-37,197,285,-225
1,749534,2468,836,-526,-1477,-301,-40,206,272,-230
1,749549,2464,836,-529,-1475,-306,-42,206,272,-230
1,749564,2464,836,-529,-1475,-306,-42,206,272,-230
1,749577,2465,835,-530,-1477,-303,-42,206,272,-230
1,749592,2463,837,-529,-1477,-300,-42,206,272,-230
1,749607,2464,835,-531,-1479,-306,-29,206,272,-230
1,749623,2464,835,-531,-1479,-306,-29,206,272,-230
1,749637,2464,836,-527,-1479,-311,-47,206,272,-230
1,749650,2464,835,-533,-1478,-305,-39,199,283,-231
1,749664,2464,835,-533,-1478,-305,-39,199,283,-231
1,749678,2464,839,-525,-1479,-308,-39,199,283,-231
1,749690,2464,837,-525,-1483,-307,-41,199,283,-231
1,749704,2464,837,-525,-1483,-307,-41,199,283,-231
1,749717,2467,834,-531,-1474,-307,-42,199,283,-231
1,749731,2466,836,-530,-1472,-309,-40,199,283,-231
1,749745,2466,836,-530,-1472,-309,-40,199,283,-231
1,749755,2467,838,-533,-1473,-308,-43,199,283,-231
1,749769,2466,837,-534,-1483,-300,-46,199,283,-231
1,749784,2466,837,-534,-1483,-300,-46,199,283,-231
1,749797,2461,838,-526,-1480,-295,-40,191,285,-229
1,749811,2464,836,-528,-1482,-305,-39,191,285,-229
1,749819,2464,836,-528,-1482,-305,-39,191,285,-229
1,749828,2463,837,-532,-1474,-302,-37,191,285,-229
1,749835,2463,837,-532,-1474,-302,-37,191,285,-229
1,749843,2463,837,-532,-1474,-302,-37,191,285,-229
1,749851,2464,837,-523,-1476,-303,-38,191,285,-229
1,749858,2464,837,-523,-1476,-303,-38,191,285,-229
1,749867,2465,837,-531,-1472,-305,-43,191,285,-229
1,749875,2465,837,-531,-1472,-305,-43,191,285,-229
1,749883,2465,837,-531,-1472,-305,-43,191,285,-229
1,749891,2463,838,-531,-1475,-306,-41,191,285,-229
1,749898,2463,838,-531,-1475,-306,-41,191,285,-229
1,749907,2463,837,-523,-1479,-305,-37,206,286,-232
1,749916,2463,837,-523,-1479,-305,-37,206,286,-232
1,749924,2463,837,-523,-1479,-305,-37,206,286,-232
1,749931,2467,835,-526,-1472,-303,-31,206,286,-232
1,749940,2467,835,-526,-1472,-303,-31,206,286,-232
1,749947,2466,834,-529,-1478,-300,-37,206,286,-232
1,749956,2466,834,-529,-1478,-300,-37,206,286,-232
1,749964,2466,834,-529,-1478,-300,-37,206,286,-232
1,749971,2463,834,-529,-1475,-304,-40,206,286,-232
1,749979,2463,834,-529,-1475,-304,-40,206,286,-232
1,749987,2463,837,-530,-1475,-304,-40,206,286,-232
1,749995,2463,837,-530,-1475,-304,-40,206,286,-232
1,750003,2463,837,-530,-1475,-304,-40,206,286,-232
1,750010,2464,835,-536,-1480,-301,-40,206,286,-232
1,750018,2464,835,-536,-1480,-301,-40,206,286,-232
1,750025,2464,835,-536,-1480,-301,-40,206,286,-232
1,750033,2462,836,-529,-1475,-295,-43,197,287,-229
1,750042,2462,836,-529,-1475,-295,-43,197,287,-229
1,750049,2465,838,-528,-1482,-302,-42,197,287,-229
1,750057,2465,838,-528,-1482,-302,-42,197,287,-229
1,750065,2465,838,-528,-1482,-302,-42,197,287,-229
1,750073,2465,839,-528,-1475,-306,-43,197,287,-229
1,750081,2465,839,-528,-1475,-306,-43,197,287,-229
1,750090,2461,835,-529,-1477,-303,-46,197,287,-229
1,750098,2461,835,-529,-1477,-303,-46,197,287,-229
1,750106,2461,835,-529,-1477,-303,-46,197,287,-229
1,750113,2464,835,-535,-1483,-305,-42,197,287,-229
1,750123,2464,835,-535,-1483,-305,-42,197,287,-229
1,750131,2464,835,-532,-1485,-296,-45,197,287,-229
1,750139,2464,835,-532,-1485,-296,-45,197,287,-229
1,750146,2467,834,-530,-1474,-297,-39,197,287,-229
1,750154,2467,834,-530,-1474,-297,-39,200,274,-226
1,750161,2467,834,-530,-1474,-297,-39,200,274,-226
1,750170,2464,835,-527,-1472,-304,-39,200,274,-226
1,750177,2464,835,-527,-1472,-304,-39,200,274,-226
1,750185,2464,835,-527,-1472,-304,-39,200,274,-226
1,750193,2465,838,-530,-1481,-306,-42,200,274,-226
1,750201,2465,838,-530,-1481,-306,-42,200,274,-226
1,750210,2463,836,-531,-1479,-305,-41,200,274,-226
1,750218,2463,836,-531,-1479,-305,-41,200,274,-226
1,750225,2463,836,-531,-1479,-305,-41,200,274,-226
1,750233,2466,836,-531,-1478,-302,-38,200,274,-226
1,750241,2466,836,-531,-1478,-302,-38,200,274,-226
1,750249,2465,836,-530,-1477,-302,-38,200,274,-226
1,750258,2465,836,-530,-1477,-302,-38,200,274,-226
1,750266,2465,836,-530,-1477,-302,-38,200,274,-226
1,750274,2463,837,-528,-1479,-301,-40,200,274,-226
1,750282,2463,837,-528,-1479,-301,-40,200,274,-226
1,750289,2465,836,-524,-1479,-311,-43,203,275,-231
1,750298,2465,836,-524,-1479,-311,-43,203,275,-231
1,750306,2465,836,-524,-1479,-311,-43,203,275,-231
1,750313,2464,837,-529,-1480,-305,-41,203,275,-231
1,750320,2464,837,-529,-1480,-305,-41,203,275,-231
1,750328,2467,839,-529,-1480,-306,-37,203,275,-231
1,750336,2467,839,-529,-1480,-306,-37,203,275,-231
1,750344,2467,839,-529,-1480,-306,-37,203,275,-231
1,750351,2464,835,-530,-1476,-300,-39,203,275,-231
1,750360,2464,835,-530,-1476,-300,-39,203,275,-231
1,750367,2461,836,-532,-1472,-300,-39,203,275,-231
1,750375,2461,836,-532,-1472,-300,-39,203,275,-231
1,750383,2461,836,-532,-1472,-300,-39,203,275,-231
1,750391,2465,835,-533,-1480,-307,-46,203,275,-231
1,750399,2465,835,-533,-1480,-307,-46,203,275,-231
1,750406,2463,834,-533,-1485,-304,-42,199,287,-231
1,750414,2463,834,-533,-1485,-304,-42,199,287,-231
1,750422,2463,834,-533,-1485,-304,-42,199,287,-231
1,750430,2464,836,-532,-1482,-299,-35,199,287,-231
1,750437,2464,836,-532,-1482,-299,-35,199,287,-231
1,750445,2464,836,-532,-1482,-299,-35,199,287,-231
1,750452,2464,837,-531,-1476,-305,-34,199,287,-231
1,750460,2464,837,-531,-1476,-305,-34,199,287,-231
1,750468,2463,838,-527,-1475,-301,-40,199,287,-231
1,750476,2463,838,-527,-1475,-301,-40,199,287,-231
1,750483,2463,838,-527,-1475,-301,-40,199,287,-231
1,750491,2462,838,-528,-1478,-306,-35,199,287,-231
1,750499,2462,838,-528,-1478,-306,-35,199,287,-231
1,750508,2466,837,-535,-1479,-305,-40,199,287,-231
1,750516,2466,837,-535,-1479,-305,-40,199,287,-231
1,750523,2466,837,-535,-1479,-305,-40,199,287,-231
1,750531,2461,838,-525,-1479,-308,-44,193,279,-237
1,750538,2461,838,-525,-1479,-308,-44,193,279,-237
1,750546,2461,836,-527,-1480,-303,-39,193,279,-237
1,750555,2461,836,-527,-1480,-303,-39,193,279,-237
1,750562,2461,836,-527,-1480,-303,-39,193,279,-237
1,750570,2461,835,-527,-1473,-305,-35,193,279,-237
1,750578,2461,835,-527,-1473,-305,-35,193,279,-237
1,750585,2461,835,-527,-1473,-305,-35,193,279,-237
1,750594,2463,834,-531,-1475,-300,-36,193,279,-237
1,750602,2463,834,-531,-1475,-300,-36,193,279,-237
1,750610,2461,835,-533,-1482,-307,-38,193,279,-237
1,750617,2461,835,-533,-1482,-307,-38,193,279,-237
1,750625,2461,835,-533,-1482,-307,-38,193,279,-237
1,750633,2467,838,-527,-1484,-310,-38,193,279,-237
1,750642,2467,838,-527,-1484,-310,-38,193,279,-237
1,750649,2461,835,-529,-1477,-306,-42,195,283,-231
1,750656,2461,835,-529,-1477,-306,-42,195,283,-231
1,750664,2461,835,-529,-1477,-306,-42,195,283,-231
1,750672,2466,838,-527,-1477,-298,-40,195,283,-231
1,750681,2466,838,-527,-1477,-298,-40,195,283,-231
1,750688,2465,832,-531,-1478,-305,-37,195,283,-231
1,750696,2465,832,-531,-1478,-305,-37,195,283,-231
1,750704,2465,832,-531,-1478,-305,-37,195,283,-231
1,750712,2467,837,-529,-1475,-300,-39,195,283,-231
1,750720,2467,837,-529,-1475,-300,-39,195,283,-231
1,750728,2464,839,-530,-1474,-303,-40,195,283,-231
1,750736,2464,839,-530,-1474,-303,-40,195,283,-231
1,750746,2464,839,-530,-1474,-303,-40,195,283,-231
1,750753,2461,849,-532,-1474,-308,-38,195,283,-231
1,750761,2461,849,-532,-1474,-308,-38,195,283,-231
1,750770,2468,835,-531,-1475,-306,-42,195,283,-231
1,750779,2468,835,-531,-1475,-306,-42,195,283,-231
1,750786,2468,835,-531,-1475,-306,-42,195,283,-231
1,750794,2466,836,-526,-1486,-305,-39,196,278,-228
1,750801,2466,836,-526,-1486,-305,-39,196,278,-228
1,750810,2466,838,-533,-1485,-302,-41,196,278,-228
1,750818,2466,838,-533,-1485,-302,-41,196,278,-228
1,750826,2466,838,-533,-1485,-302,-41,196,278,-228
1,750834,2465,833,-532,-1480,-305,-39,196,278,-228
1,750840,2465,833,-532,-1480,-305,-39,196,278,-228
1,750846,2465,833,-532,-1480,-305,-39,196,278,-228
1,750852,2464,835,-524,-1476,-305,-32,196,278,-228
1,750858,2464,835,-524,-1476,-305,-32,196,278,-228
1,750864,2464,835,-524,-1476,-305,-32,196,278,-228
1,750871,2462,838,-532,-1478,-306,-39,196,278,-228
1,750877,2462,838,-532,-1478,-306,-39,196,278,-228
1,750883,2462,838,-532,-1478,-306,-39,196,278,-228
1,750889,2466,834,-531,-1482,-304,-42,196,278,-228
1,750896,2466,834,-531,-1482,-304,-42,196,278,-228
1,750902,2466,834,-531,-1482,-304,-42,196,278,-228
1,750908,2466,833,-527,-1476,-305,-42,195,283,-221
1,750914,2466,833,-527,-1476,-305,-42,195,283,-221
1,750920,2466,833,-527,-1476,-305,-42,195,283,-221
1,750926,2464,837,-533,-1481,-307,-39,195,283,-221
1,750934,2464,837,-533,-1481,-307,-39,195,283,-221
1,750940,2464,837,-533,-1481,-307,-39,195,283,-221
1,750946,2464,837,-533,-1481,-307,-39,195,283,-221
1,750952,2467,833,-533,-1480,-313,-38,195,283,-221
1,750958,2467,833,-533,-1480,-313,-38,195,283,-221
1,750964,2467,833,-533,-1480,-313,-38,195,283,-221
1,750970,2464,837,-530,-1480,-310,-38,195,283,-221
1,750977,2464,837,-530,-1480,-310,-38,195,283,-221
1,750983,2464,837,-530,-1480,-310,-38,195,283,-221
1,750989,2465,835,-539,-1478,-310,-36,195,283,-221
1,750995,2465,835,-539,-1478,-310,-36,195,283,-221
1,751001,2465,835,-539,-1478,-310,-36,195,283,-221
1,751007,2463,839,-534,-1484,-313,-38,195,283,-221
1,751015,2463,839,-534,-1484,-313,-38,195,283,-221
1,751023,2463,839,-534,-1484,-313,-38,195,283,-221
1,751030,2460,840,-529,-1476,-310,-44,205,283,-229
1,751037,2460,840,-529,-1476,-310,-44,205,283,-229
1,751044,2460,840,-529,-1476,-310,-44,205,283,-229
1,751051,2464,837,-530,-1481,-315,-42,205,283,-229
1,751058,2464,837,-530,-1481,-315,-42,205,283,-229
1,751067,2464,837,-530,-1481,-315,-42,205,283,-229
1,751074,2465,839,-531,-1474,-310,-38,205,283,-229
1,751081,2465,839,-531,-1474,-310,-38,205,283,-229
1,751089,2464,839,-533,-1476,-305,-38,205,283,-229
1,751096,2464,839,-533,-1476,-305,-38,205,283,-229
1,751102,2464,839,-533,-1476,-305,-38,205,283,-229
1,751109,2466,832,-534,-1473,-308,-35,205,283,-229
1,751117,2466,832,-534,-1473,-308,-35,205,283,-229
1,751125,2466,832,-534,-1473,-308,-35,205,283,-229
1,751133,2464,834,-535,-1478,-306,-36,205,283,-229
1,751141,2464,834,-535,-1478,-306,-36,205,283,-229
1,751150,2464,837,-530,-1485,-305,-40,193,277,-227
1,751157,2464,837,-530,-1485,-305,-40,193,277,-227
1,751165,2464,837,-530,-1485,-305,-40,193,277,-227
1,751174,2465,835,-529,-1480,-302,-38,193,277,-227
1,751181,2465,835,-529,-1480,-302,-38,193,277,-227
1,751192,2464,837,-527,-1487,-303,-35,193,277,-227
1,751199,2464,837,-527,-1487,-303,-35,193,277,-227
1,751209,2465,837,-529,-1480,-304,-31,193,277,-227
1,751217,2465,837,-529,-1480,-304,-31,193,277,-227
1,751227,2466,837,-533,-1479,-307,-31,193,277,-227
1,751238,2466,837,-533,-1479,-307,-31,193,277,-227
1,751249,2463,838,-532,-1474,-302,-37,193,277,-227
1,751258,2463,838,-532,-1474,-302,-37,193,277,-227
1,751272,2463,836,-533,-1478,-311,-30,193,277,-227
1,751287,2463,836,-533,-1478,-311,-30,193,277,-227
1,751297,2465,837,-532,-1476,-308,-38,200,274,-234
1,751310,2466,836,-530,-1484,-308,-38,200,274,-234
1,751324,2466,836,-530,-1484,-308,-38,200,274,-234
1,751338,2464,836,-533,-1479,-307,-27,200,274,-234
1,751352,2463,832,-532,-1481,-303,-41,200,274,-234
1,751364,2463,832,-532,-1481,-303,-41,200,274,-234
1,751377,2462,836,-533,-1476,-304,-43,200,274,-234
1,751391,2465,835,-534,-1475,-303,-37,200,274,-234
1,751405,2465,835,-534,-1475,-303,-37,200,274,-234
1,751420,2465,835,-526,-1478,-305,-37,209,281,-225
1,751435,2463,837,-527,-1480,-301,-36,209,281,-225
1,751451,2462,837,-526,-1472,-308,-36,209,281,-225
1,751466,2462,837,-526,-1472,-308,-36,209,281,-225
1,751480,2463,836,-528,-1477,-309,-41,209,281,-225
1,751495,2464,836,-530,-1478,-307,-39,209,281,-225
1,751508,2466,836,-534,-1482,-304,-37,209,281,-225
1,751521,2466,836,-534,-1482,-304,-37,209,281,-225
1,751536,2464,838,-530,-1483,-302,-38,205,279,-229
1,751550,2464,837,-531,-1478,-302,-36,205,279,-229
1,751563,2464,837,-531,-1478,-302,-36,205,279,-229
1,751578,2465,836,-530,-1477,-307,-34,205,279,-229
1,751591,2465,836,-530,-1477,-307,-34,205,279,-229
1,751605,2465,836,-530,-1477,-307,-34,205,279,-229
1,751619,2467,834,-524,-1476,-301,-36,205,279,-229
1,751633,2464,835,-532,-1477,-299,-40,205,279,-229
1,751646,2464,835,-532,-1477,-299,-40,205,279,-229
1,751661,2464,835,-526,-1473,-304,-37,197,283,-227
1,751675,2465,835,-525,-1479,-306,-39,197,283,-227
1,751688,2465,840,-525,-1477,-304,-45,197,283,-227
1,751702,2465,840,-525,-1477,-304,-45,197,283,-227
1,751716,2465,840,-525,-1477,-304,-45,197,283,-227
1,751729,2464,833,-530,-1478,-301,-30,197,283,-227
1,751742,2464,833,-530,-1478,-301,-30,197,283,-227
1,751757,2466,836,-532,-1480,-305,-38,197,283,-227
1,751770,2462,835,-534,-1482,-306,-41,205,289,-227
1,751784,2462,835,-534,-1482,-306,-41,205,289,-227
1,751798,2464,836,-529,-1476,-303,-42,205,289,-227
1,751812,2464,834,-532,-1482,-300,-32,205,289,-227
1,751825,2464,834,-532,-1482,-300,-32,205,289,-227
1,751840,2462,836,-530,-1473,-307,-33,205,289,-227
1,751853,2464,837,-530,-1477,-307,-31,205,289,-227
1,751864,2464,837,-530,-1477,-307,-31,205,289,-227
1,751879,2465,836,-531,-1480,-304,-37,205,289,-227
1,751893,2466,838,-533,-1488,-302,-39,205,289,-227
1,751907,2465,840,-525,-1480,-298,-36,198,278,-228
1,751921,2465,840,-525,-1480,-298,-36,198,278,-228
1,751935,2462,837,-528,-1483,-304,-32,198,278,-228
1,751948,2465,835,-534,-1483,-299,-39,198,278,-228
1,751963,2465,835,-534,-1483,-299,-39,198,278,-228
1,751976,2464,836,-529,-1485,-300,-35,198,278,-228
1,751988,2464,835,-530,-1482,-305,-35,198,278,-228
1,752003,2464,835,-530,-1482,-305,-35,198,278,-228
1,752016,2463,837,-534,-1483,-308,-37,198,278,-228
1,752029,2463,836,-518,-1485,-288,-35,202,284,-228
1,752043,2463,836,-518,-1485,-288,-35,202,284,-228
1,752057,2462,837,-531,-1490,-305,-35,202,284,-228
1,752071,2463,837,-534,-1490,-296,-36,202,284,-228
1,752083,2463,837,-534,-1490,-296,-36,202,284,-228
1,752098,2464,837,-514,-1471,-306,-38,202,284,-228
1,752112,2464,840,-521,-1478,-307,-35,202,284,-228
1,752125,2464,840,-521,-1478,-307,-35,202,284,-228
1,752141,2465,834,-548,-1488,-307,-42,202,284,-228
1,752156,2464,835,-525,-1485,-300,-42,203,277,-235
1,752172,2463,837,-522,-1482,-308,-35,203,277,-235
1,752187,2463,837,-522,-1482,-308,-35,203,277,-235
1,752194,2465,838,-542,-1485,-308,-42,203,277,-235
1,752204,2465,838,-542,-1485,-308,-42,203,277,-235
1,752218,2465,839,-531,-1471,-307,-36,203,277,-235
1,752231,2464,835,-527,-1472,-304,-41,203,277,-235
1,752244,2464,835,-527,-1472,-304,-41,203,277,-235
1,752258,2467,838,-534,-1477,-301,-40,203,277,-235
1,752270,2465,837,-531,-1486,-300,-39,201,279,-227
1,752284,2465,837,-531,-1486,-300,-39,201,279,-227
1,752299,2467,839,-529,-1482,-307,-46,201,279,-227
1,752312,2465,834,-528,-1484,-300,-42,201,279,-227
1,752326,2465,834,-528,-1484,-300,-42,201,279,-227
1,752342,2465,838,-530,-1478,-305,-34,201,279,-227
1,752357,2467,834,-532,-1476,-305,-37,201,279,-227
1,752373,2463,834,-531,-1472,-309,-36,201,279,-227
1,752389,2466,837,-531,-1467,-306,-38,201,279,-227
1,752402,2466,837,-531,-1467,-306,-38,201,279,-227
1,752415,2466,835,-528,-1479,-309,-45,203,283,-225
1,752430,2464,837,-530,-1487,-304,-45,203,283,-225
1,752441,2464,837,-530,-1487,-304,-45,203,283,-225
1,752455,2465,837,-524,-1484,-301,-41,203,283,-225
1,752468,2464,835,-533,-1482,-305,-39,203,283,-225
1,752483,2464,835,-533,-1482,-305,-39,203,283,-225
1,752496,2465,830,-536,-1489,-308,-35,203,283,-225
1,752510,2461,836,-531,-1478,-305,34,203,283,-225
1,752522,2461,836,-531,-1478,-305,34,203,283,-225
1,752536,2465,836,-516,-1477,-291,226,199,271,-225
1,752550,2464,834,-529,-1489,-300,94,199,271,-225
1,752564,2464,834,-529,-1489,-300,94,199,271,-225
1,752577,2465,834,-531,-1484,-302,44,199,271,-225
1,752592,2464,834,-527,-1476,-299,35,199,271,-225
1,752607,2464,834,-527,-1476,-299,35,199,271,-225
1,752620,2463,833,-524,-1474,-303,79,199,271,-225
1,752634,2464,834,-531,-1473,-296,78,199,271,-225
1,752650,2465,831,-524,-1467,-293,10,198,288,-242
1,752664,2465,831,-524,-1467,-293,10,198,288,-242
1,752677,2462,832,-531,-1466,-312,59,198,288,-242
1,752690,2462,829,-543,-1474,-305,62,198,288,-242
1,752703,2462,829,-543,-1474,-305,62,198,288,-242
1,752717,2465,827,-526,-1475,-310,-12,198,288,-242
1,752732,2465,832,-510,-1475,-309,-34,198,288,-242
1,752745,2465,832,-510,-1475,-309,-34,198,288,-242
1,752757,2464,825,-536,-1469,-307,-38,198,288,-242
1,752769,2466,830,-542,-1470,-300,-32,202,284,-234
1,752784,2466,830,-542,-1470,-300,-32,202,284,-234
1,752793,2466,834,-509,-1475,-295,-36,202,284,-234
1,752808,2464,831,-532,-1481,-297,-35,202,284,-234
1,752820,2464,831,-532,-1481,-297,-35,202,284,-234
1,752835,2464,826,-534,-1467,-291,-38,202,284,-234
1,752849,2462,830,-524,-1475,-301,-42,202,284,-234
1,752864,2462,830,-524,-1475,-301,-42,202,284,-234
1,752876,2464,829,-531,-1468,-303,-37,202,284,-234
1,752891,2463,830,-555,-1470,-300,-12,202,284,-234
1,752907,2463,830,-555,-1470,-300,-12,202,284,-234
1,752920,2464,827,-496,-1491,-296,-4,202,280,-232
1,752934,2466,818,-534,-1492,-295,-29,202,280,-232
1,752949,2464,810,-552,-1504,-301,-39,202,280,-232
1,752960,2464,810,-552,-1504,-301,-39,202,280,-232
1,752973,2465,827,-533,-1487,-307,16,202,280,-232
1,752988,2466,833,-529,-1503,-291,71,202,280,-232
1,753001,2466,833,-529,-1503,-291,71,202,280,-232
1,753015,2465,828,-531,-1484,-294,174,202,280,-232
1,753029,2470,845,-533,-1486,-292,127,213,277,-229
1,753041,2470,845,-533,-1486,-292,127,213,277,-229
1,753054,2466,831,-533,-1492,-295,17,213,277,-229
1,753070,2463,829,-519,-1493,-295,-18,213,277,-229
1,753085,2463,829,-519,-1493,-295,-18,213,277,-229
1,753100,2467,828,-559,-1469,-292,-6,213,277,-229
1,753114,2463,825,-494,-1456,-302,64,213,277,-229
1,753127,2463,825,-494,-1456,-302,64,213,277,-229
1,753142,2468,831,-539,-1484,-309,56,213,277,-229
1,753156,2468,831,-539,-1484,-309,56,206,280,-234
1,753169,2466,831,-503,-1474,-299,-157,206,280,-234
1,753182,2466,831,-503,-1474,-299,-157,206,280,-234
1,753191,2465,824,-530,-1475,-287,-255,206,280,-234
1,753206,2465,824,-530,-1475,-287,-255,206,280,-234
1,753219,2461,845,-507,-1473,-297,-332,206,280,-234
1,753233,2464,863,-527,-1459,-300,-327,206,280,-234
1,753247,2464,863,-527,-1459,-300,-327,206,280,-234
1,753259,2466,852,-534,-1474,-302,-258,206,280,-234
1,753272,2466,845,-527,-1479,-310,-144,240,280,-232
1,753287,2466,845,-527,-1479,-310,-144,240,280,-232
1,753301,2465,823,-508,-1482,-315,-83,240,280,-232
1,753314,2460,840,-514,-1481,-313,-59,240,280,-232
1,753326,2460,840,-514,-1481,-313,-59,240,280,-232
1,753339,2462,825,-476,-1486,-309,-38,240,280,-232
1,753354,2465,827,-542,-1518,-307,-44,240,280,-232
1,753369,2464,829,-553,-1481,-308,-54,240,280,-232
1,753383,2464,829,-553,-1481,-308,-54,240,280,-232
1,753397,2465,831,-511,-1486,-301,-46,240,280,-232
1,753411,2464,830,-526,-1501,-297,-41,237,277,-231
1,753426,2464,830,-526,-1501,-297,-41,237,277,-231
1,753439,2464,835,-532,-1494,-290,-57,237,277,-231
1,753453,2464,830,-527,-1488,-301,-82,237,277,-231
1,753467,2464,830,-527,-1488,-301,-82,237,277,-231
1,753480,2463,834,-529,-1499,-296,-148,237,277,-231
1,753497,2464,825,-520,-1451,-308,-145,237,277,-231
1,753510,2466,835,-534,-1437,-316,-98,237,277,-231
1,753523,2466,835,-534,-1437,-316,-98,237,277,-231
1,753538,2465,835,-548,-1439,-320,-98,230,266,-230
1,753551,2462,833,-531,-1455,-315,-126,230,266,-230
1,753565,2462,833,-531,-1455,-315,-126,230,266,-230
1,753579,2463,834,-513,-1481,-324,-152,230,266,-230
1,753591,2464,825,-527,-1461,-326,-160,230,266,-230
1,753605,2464,825,-527,-1461,-326,-160,230,266,-230
1,753620,2465,832,-571,-1447,-314,-113,230,266,-230
1,753632,2463,838,-502,-1489,-306,-82,230,266,-230
1,753647,2463,838,-502,-1489,-306,-82,230,266,-230
1,753662,2463,831,-537,-1513,-302,-84,224,270,-226
1,753677,2464,839,-532,-1477,-299,-82,224,270,-226
1,753690,2464,835,-541,-1457,-302,-53,224,270,-226
1,753704,2464,835,-541,-1457,-302,-53,224,270,-226
1,753719,2461,837,-530,-1479,-297,-44,224,270,-226
1,753730,2465,835,-517,-1471,-304,-45,224,270,-226
1,753738,2465,835,-517,-1471,-304,-45,224,270,-226
1,753750,2462,838,-523,-1470,-311,-43,224,270,-226
1,753762,2462,838,-523,-1470,-311,-43,224,270,-226
1,753775,2464,838,-529,-1468,-313,-73,233,279,-231
1,753788,2466,839,-532,-1482,-310,-85,233,279,-231
1,753803,2466,839,-532,-1482,-310,-85,233,279,-231
1,753817,2462,841,-518,-1493,-299,-76,233,279,-231
1,753829,2466,840,-533,-1485,-303,-62,233,279,-231
1,753842,2466,840,-533,-1485,-303,-62,233,279,-231
1,753856,2463,837,-530,-1468,-300,-56,233,279,-231
1,753871,2463,835,-529,-1479,-298,-48,233,279,-231
1,753886,2463,835,-529,-1479,-298,-48,233,279,-231
1,753898,2465,840,-522,-1494,-303,-45,230,276,-232
1,753913,2466,839,-513,-1484,-310,-46,230,276,-232
1,753927,2466,839,-513,-1484,-310,-46,230,276,-232
1,753941,2461,837,-523,-1488,-308,-42,230,276,-232
1,753954,2463,838,-534,-1476,-310,-41,230,276,-232
1,753967,2463,838,-534,-1476,-310,-41,230,276,-232
1,753982,2465,841,-525,-1487,-311,-46,230,276,-232
1,753997,2461,839,-532,-1476,-312,-40,230,276,-232
1,754011,2461,844,-497,-1465,-306,-39,230,276,-232
1,754025,2461,844,-497,-1465,-306,-39,230,276,-232
1,754039,2464,837,-524,-1460,-305,-48,228,280,-234
1,754053,2463,841,-502,-1468,-313,-34,228,280,-234
1,754066,2463,841,-502,-1468,-313,-34,228,280,-234
1,754078,2461,836,-493,-1464,-310,-35,228,280,-234
1,754093,2465,836,-550,-1457,-300,-42,228,280,-234
1,754108,2466,836,-531,-1454,-308,-38,228,280,-234
1,754120,2466,836,-531,-1454,-308,-38,228,280,-234
1,754135,2463,837,-526,-1470,-313,-41,228,280,-234
1,754149,2465,836,-523,-1473,-314,-28,228,276,-234
1,754164,2465,836,-523,-1473,-314,-28,228,276,-234
1,754179,2462,836,-534,-1485,-319,-34,228,276,-234
1,754192,2465,838,-534,-1493,-313,-39,228,276,-234
1,754206,2465,838,-534,-1493,-313,-39,228,276,-234
1,754219,2465,838,-530,-1497,-314,-37,228,276,-234
1,754230,2464,838,-538,-1479,-308,-33,228,276,-234
1,754244,2464,838,-538,-1479,-308,-33,228,276,-234
1,754257,2461,839,-520,-1467,-303,-36,228,276,-234
1,754272,2464,838,-518,-1452,-309,-27,220,276,-226
1,754285,2464,838,-518,-1452,-309,-27,220,276,-226
1,754296,2466,836,-527,-1475,-310,-35,220,276,-226
1,754310,2466,839,-522,-1493,-303,-39,220,276,-226
1,754323,2466,839,-522,-1493,-303,-39,220,276,-226
1,754336,2464,839,-526,-1485,-300,-30,220,276,-226
1,754351,2470,839,-535,-1487,-302,-17,220,276,-226
1,754366,2470,839,-535,-1487,-302,-17,220,276,-226
1,754379,2463,845,-560,-1472,-293,197,220,276,-226
1,754393,2462,834,-543,-1468,-281,225,229,277,-233
1,754403,2462,834,-543,-1468,-281,225,229,277,-233
1,754415,2467,832,-527,-1467,-290,257,229,277,-233
1,754430,2463,831,-540,-1482,-296,227,229,277,-233
1,754443,2463,831,-540,-1482,-296,227,229,277,-233
1,754457,2467,829,-545,-1485,-304,72,229,277,-233
1,754471,2465,826,-535,-1447,-280,41,229,277,-233
1,754485,2465,826,-535,-1447,-280,41,229,277,-233
1,754498,2464,830,-516,-1458,-268,128,229,277,-233
1,754511,2466,829,-527,-1459,-276,185,229,277,-233
1,754525,2466,829,-527,-1459,-276,185,229,277,-233
1,754538,2466,828,-530,-1486,-288,67,226,272,-220
1,754553,2466,828,-525,-1503,-292,-21,226,272,-220
1,754569,2468,832,-529,-1476,-302,-41,226,272,-220
1,754582,2468,832,-529,-1476,-302,-41,226,272,-220
1,754595,2465,828,-529,-1448,-301,-33,226,272,-220
1,754611,2464,828,-531,-1449,-303,-30,226,272,-220
1,754625,2464,828,-531,-1449,-303,-30,226,272,-220
1,754635,2462,825,-533,-1464,-309,-29,226,272,-220
1,754650,2462,825,-533,-1464,-309,-29,224,280,-230
1,754663,2462,825,-533,-1464,-309,-29,224,280,-230
1,754676,2467,828,-528,-1484,-312,-42,224,280,-230
1,754690,2465,833,-524,-1482,-317,-44,224,280,-230
1,754705,2465,833,-524,-1482,-317,-44,224,280,-230
1,754719,2466,828,-531,-1497,-322,-40,224,280,-230
1,754732,2463,825,-531,-1507,-322,-42,224,280,-230
1,754746,2463,825,-531,-1507,-322,-42,224,280,-230
1,754761,2464,832,-528,-1509,-318,-37,224,280,-230
1,754776,2461,831,-524,-1492,-322,-37,234,278,-226
1,754788,2465,825,-528,-1489,-316,-39,234,278,-226
1,754803,2465,825,-528,-1489,-316,-39,234,278,-226
1,754819,2463,825,-535,-1500,-311,-43,234,278,-226
1,754834,2465,828,-530,-1521,-311,-42,234,278,-226
1,754847,2465,828,-530,-1521,-311,-42,234,278,-226
1,754861,2464,829,-530,-1529,-315,-48,234,278,-226
1,754876,2465,827,-527,-1500,-307,-44,234,278,-226
1,754887,2465,827,-527,-1500,-307,-44,234,278,-226
1,754903,2462,826,-500,-1467,-311,-40,219,281,-237
1,754919,2460,828,-478,-1480,-309,-35,219,281,-237
1,754931,2463,826,-527,-1442,-303,-33,219,281,-237
1,754946,2463,826,-527,-1442,-303,-33,219,281,-237
1,754959,2466,827,-540,-1456,-308,-32,219,281,-237
1,754973,2463,827,-534,-1489,-309,-32,219,281,-237
1,754987,2463,827,-534,-1489,-309,-32,219,281,-237
1,754999,2464,831,-535,-1503,-306,-35,219,281,-237
1,755014,2461,828,-530,-1493,-309,-45,219,281,-237
1,755030,2464,827,-521,-1476,-305,-40,221,277,-227
1,755045,2464,827,-521,-1476,-305,-40,221,277,-227
1,755060,2462,829,-539,-1467,-308,-40,221,277,-227
1,755072,2465,827,-514,-1472,-304,-47,221,277,-227
1,755087,2465,827,-514,-1472,-304,-47,221,277,-227
1,755102,2462,829,-521,-1484,-299,-41,221,277,-227
1,755116,2465,824,-539,-1484,-312,-41,221,277,-227
1,755129,2463,827,-529,-1463,-303,-34,221,277,-227
1,755143,2463,827,-529,-1463,-303,-34,221,277,-227
1,755156,2461,829,-521,-1469,-303,-29,228,278,-226
1,755172,2464,829,-531,-1477,-299,-35,228,278,-226
1,755184,2464,829,-531,-1477,-299,-35,228,278,-226
1,755198,2466,826,-527,-1482,-299,-42,228,278,-226
1,755212,2464,830,-530,-1471,-307,-41,228,278,-226
1,755226,2464,830,-530,-1471,-307,-41,228,278,-226
1,755240,2466,830,-543,-1466,-304,-36,228,278,-226
1,755256,2465,829,-527,-1481,-300,-39,228,278,-226
1,755270,2462,832,-527,-1477,-300,-37,233,279,-237
1,755283,2462,832,-527,-1477,-300,-37,233,279,-237
1,755299,2464,830,-527,-1475,-304,-30,233,279,-237
1,755314,2464,827,-529,-1469,-312,-36,233,279,-237
1,755330,2466,825,-531,-1480,-307,-36,233,279,-237
1,755344,2466,825,-531,-1480,-307,-36,233,279,-237
1,755355,2463,828,-529,-1484,-307,-38,233,279,-237
1,755368,2462,826,-533,-1458,-296,-36,233,279,-237
1,755382,2462,826,-533,-1458,-296,-36,233,279,-237
1,755395,2463,828,-521,-1435,-289,-31,226,284,-228
1,755409,2467,826,-524,-1446,-297,-37,226,284,-228
1,755423,2467,826,-524,-1446,-297,-37,226,284,-228
1,755435,2463,828,-530,-1485,-296,-41,226,284,-228
1,755449,2468,827,-530,-1500,-312,-44,226,284,-228
1,755464,2468,827,-530,-1500,-312,-44,226,284,-228
1,755475,2466,828,-532,-1513,-310,-39,226,284,-228
1,755490,2463,830,-533,-1477,-299,-43,226,284,-228
1,755506,2463,830,-533,-1477,-299,-43,226,284,-228
1,755520,2465,827,-534,-1443,-288,-30,226,284,-228
1,755533,2463,827,-530,-1458,-303,-34,226,284,-230
1,755548,2463,827,-530,-1458,-303,-34,226,284,-230
1,755562,2465,824,-548,-1500,-306,-39,226,284,-230
1,755573,2468,827,-547,-1544,-309,-43,226,284,-230
1,755587,2468,827,-547,-1544,-309,-43,226,284,-230
1,755601,2466,829,-539,-1504,-299,-35,226,284,-230
1,755614,2463,827,-524,-1449,-288,-34,226,284,-230
1,755628,2463,827,-524,-1449,-288,-34,226,284,-230
1,755643,2466,829,-523,-1454,-293,-35,226,284,-230
1,755655,2464,828,-519,-1459,-305,-33,230,276,-218
1,755668,2463,832,-526,-1431,-310,-33,230,276,-218
1,755684,2463,832,-526,-1431,-310,-33,230,276,-218
1,755699,2463,829,-524,-1441,-308,-34,230,276,-218
1,755715,2461,828,-487,-1458,-307,-44,230,276,-218
1,755728,2461,828,-487,-1458,-307,-44,230,276,-218
1,755742,2467,827,-529,-1489,-313,-39,230,276,-218
1,755757,2467,828,-535,-1485,-306,-37,230,276,-218
1,755772,2462,825,-530,-1464,-308,-31,230,276,-228
1,755785,2462,825,-530,-1464,-308,-31,230,276,-228
1,755799,2463,826,-532,-1493,-305,-37,230,276,-228
1,755813,2465,829,-526,-1485,-302,-37,230,276,-228
1,755827,2465,829,-526,-1485,-302,-37,230,276,-228
1,755838,2465,827,-528,-1492,-303,-39,230,276,-228
1,755852,2465,828,-525,-1466,-302,-39,230,276,-228
1,755865,2465,828,-525,-1466,-302,-39,230,276,-228
1,755878,2464,825,-527,-1453,-305,-42,230,276,-228
1,755894,2463,826,-524,-1487,-301,-36,234,282,-222
1,755908,2463,826,-524,-1487,-301,-36,234,282,-222
1,755919,2463,828,-525,-1491,-313,-40,234,282,-222
1,755935,2466,830,-527,-1503,-315,-41,234,282,-222
1,755950,2464,830,-525,-1517,-316,-31,234,282,-222
1,755966,2464,830,-525,-1517,-316,-31,234,282,-222
1,755981,2462,830,-528,-1471,-307,-31,234,282,-222
1,755992,2467,825,-536,-1407,-308,-28,234,282,-222
1,756006,2467,825,-536,-1407,-308,-28,234,282,-222
1,756021,2465,821,-532,-1462,-308,-30,231,275,-225
1,756034,2465,830,-531,-1505,-304,-40,231,275,-225
1,756047,2465,830,-531,-1505,-304,-40,231,275,-225
1,756062,2467,827,-535,-1480,-296,-40,231,275,-225
1,756073,2464,828,-525,-1495,-294,-34,231,275,-225
1,756086,2464,828,-525,-1495,-294,-34,231,275,-225
1,756101,2464,824,-528,-1475,-305,-40,231,275,-225
1,756114,2464,830,-531,-1480,-305,-35,231,275,-225
1,756128,2465,826,-527,-1488,-305,-43,231,275,-225
1,756140,2465,826,-527,-1488,-305,-43,231,275,-225
1,756154,2466,830,-528,-1502,-306,-40,224,270,-232
1,756169,2462,832,-523,-1493,-310,-39,224,270,-232
1,756184,2462,832,-523,-1493,-310,-39,224,270,-232
1,756199,2468,837,-550,-1495,-310,-40,224,270,-232
1,756210,2466,823,-529,-1496,-291,-40,224,270,-232
1,756226,2466,823,-529,-1496,-291,-40,224,270,-232
1,756239,2465,831,-537,-1489,-295,-41,224,270,-232
1,756252,2465,828,-528,-1486,-298,-42,224,270,-232
1,756267,2465,828,-528,-1486,-298,-42,224,270,-232
1,756280,2463,829,-512,-1486,-298,-45,228,276,-218
1,756296,2464,824,-531,-1499,-297,-36,228,276,-218
1,756308,2462,830,-527,-1488,-300,-45,228,276,-218
1,756322,2462,830,-527,-1488,-300,-45,228,276,-218
1,756335,2462,828,-517,-1480,-293,-40,228,276,-218
1,756349,2463,828,-529,-1491,-280,-46,228,276,-218
1,756364,2463,828,-529,-1491,-280,-46,228,276,-218
1,756378,2465,829,-525,-1493,-293,-37,228,276,-218
1,756388,2466,824,-530,-1466,-300,-41,230,288,-218
1,756405,2466,824,-530,-1466,-300,-41,230,288,-234
1,756420,2464,819,-508,-1473,-298,-44,230,288,-234
1,756435,2466,825,-497,-1492,-300,-43,230,288,-234
1,756450,2465,828,-526,-1486,-301,-39,230,288,-234
1,756462,2465,828,-526,-1486,-301,-39,230,288,-234
1,756475,2469,829,-538,-1451,-301,-33,230,288,-234
1,756490,2465,827,-541,-1458,-309,-34,230,288,-234
1,756503,2465,827,-541,-1458,-309,-34,230,288,-234
1,756517,2464,831,-521,-1463,-292,-43,226,282,-228
1,756531,2466,830,-532,-1482,-303,-36,226,282,-228
1,756545,2466,830,-532,-1482,-303,-36,226,282,-228
1,756557,2467,828,-530,-1487,-301,-41,226,282,-228
1,756571,2463,831,-526,-1489,-300,-53,226,282,-228
1,756584,2463,831,-526,-1489,-300,-53,226,282,-228
1,756598,2463,827,-533,-1483,-305,-67,226,282,-228
1,756613,2465,831,-529,-1498,-305,-72,226,282,-228
1,756625,2465,831,-529,-1498,-305,-72,226,282,-228
1,756639,2463,828,-532,-1489,-298,-73,226,282,-228
1,756654,2466,827,-525,-1475,-293,-60,235,279,-227
1,756668,2466,827,-525,-1475,-293,-60,235,279,-227
1,756680,2464,828,-532,-1463,-300,-48,235,279,-227
1,756695,2464,828,-536,-1486,-312,-46,235,279,-227
1,756709,2468,834,-537,-1474,-299,-44,235,279,-227
1,756722,2468,834,-537,-1474,-299,-44,235,279,-227
1,756736,2463,828,-540,-1477,-308,-40,235,279,-227
1,756749,2462,828,-527,-1454,-304,-37,235,279,-227
1,756762,2462,828,-527,-1454,-304,-37,235,279,-227
1,756775,2465,824,-533,-1481,-305,-37,229,279,-225
1,756790,2468,829,-529,-1483,-298,-39,229,279,-225
1,756804,2468,829,-529,-1483,-298,-39,229,279,-225
1,756817,2467,826,-519,-1464,-303,-41,229,279,-225
1,756832,2465,828,-532,-1467,-298,-43,229,279,-225
1,756843,2465,828,-532,-1467,-298,-43,229,279,-225
1,756857,2463,827,-530,-1472,-297,-39,229,279,-225
1,756873,2465,830,-525,-1488,-307,-45,229,279,-225
1,756886,2465,830,-525,-1488,-307,-45,229,279,-225
1,756898,2467,830,-529,-1497,-309,-48,230,274,-234
1,756913,2468,830,-523,-1488,-307,-41,230,274,-234
1,756928,2468,830,-523,-1488,-307,-41,230,274,-234
1,756941,2467,827,-531,-1461,-309,-33,230,274,-234
1,756956,2465,829,-531,-1463,-301,-37,230,274,-234
1,756969,2465,830,-535,-1473,-297,-40,230,274,-234
1,756983,2465,830,-535,-1473,-297,-40,230,274,-234
1,756993,2465,826,-525,-1512,-305,-36,230,274,-234
1,757000,2465,826,-525,-1512,-305,-36,230,274,-234
1,757008,2465,826,-525,-1512,-305,-36,230,274,-234
1,757016,2465,826,-525,-1512,-305,-36,238,278,-232
1,757024,2465,826,-525,-1512,-305,-36,238,278,-232
1,757038,2465,828,-522,-1488,-296,-42,238,278,-232
1,757052,2466,829,-527,-1498,-301,-44,238,278,-232
1,757067,2466,829,-527,-1498,-301,-44,238,278,-232
1,757082,2466,829,-527,-1498,-301,-44,238,278,-232
1,757097,2469,827,-539,-1488,-291,-46,238,278,-232
1,757110,2464,831,-523,-1501,-296,-49,238,278,-232
1,757125,2464,831,-523,-1501,-296,-49,238,278,-232
1,757140,2467,826,-533,-1510,-309,-45,238,278,-232
1,757154,2468,830,-531,-1488,-313,-40,226,284,-224
1,757170,2465,829,-538,-1499,-312,-43,226,284,-224
1,757181,2465,829,-538,-1499,-312,-43,226,284,-224
1,757196,2465,829,-533,-1478,-300,-43,226,284,-224
1,757210,2465,829,-533,-1456,-294,-40,226,284,-224
1,757224,2465,829,-533,-1456,-294,-40,226,284,-224
1,757237,2464,827,-532,-1444,-285,-41,226,284,-224
1,757253,2465,828,-529,-1474,-291,-40,226,284,-224
1,757266,2465,828,-529,-1474,-291,-40,226,284,-224
1,757278,2467,831,-521,-1525,-294,-47,235,279,-233
1,757293,2463,828,-531,-1495,-313,-43,235,279,-233
1,757306,2463,828,-531,-1495,-313,-43,235,279,-233
1,757319,2463,828,-532,-1477,-310,-36,235,279,-233
1,757335,2461,827,-531,-1465,-315,-45,235,279,-233
1,757350,2464,828,-528,-1446,-314,-40,235,279,-233
1,757362,2464,828,-528,-1446,-314,-40,235,279,-233
1,757377,2464,828,-529,-1438,-310,-39,235,279,-233
1,757392,2465,831,-538,-1479,-320,-37,226,280,-236
1,757405,2465,831,-538,-1479,-320,-37,226,280,-236
1,757417,2467,828,-525,-1479,-314,-39,226,280,-236
1,757431,2467,825,-527,-1455,-307,-41,226,280,-236
1,757445,2467,825,-527,-1455,-307,-41,226,280,-236
1,757458,2466,826,-540,-1467,-301,-38,226,280,-236
1,757472,2463,828,-523,-1492,-309,-39,226,280,-236
1,757486,2463,828,-523,-1492,-309,-39,226,280,-236
1,757497,2465,832,-531,-1533,-325,-48,226,280,-236
1,757511,2462,834,-527,-1402,-306,-31,224,280,-230
1,757525,2462,834,-527,-1402,-306,-31,224,280,-230
1,757538,2466,829,-518,-1380,-297,-19,224,280,-230
1,757554,2466,829,-529,-1480,-308,-38,224,280,-230
1,757569,2466,829,-529,-1480,-308,-38,224,280,-230
1,757583,2465,827,-546,-1489,-302,-42,224,280,-230
1,757600,2464,830,-515,-1472,-296,-39,224,280,-230
1,757615,2466,825,-536,-1425,-317,-28,224,280,-230
1,757628,2466,825,-536,-1425,-317,-28,224,280,-230
1,757642,2465,825,-527,-1434,-308,-31,224,280,-230
1,757656,2463,828,-531,-1456,-322,-34,222,274,-230
1,757669,2466,830,-534,-1444,-312,-39,222,274,-230
1,757684,2466,830,-534,-1444,-312,-39,222,274,-230
1,757696,2466,827,-520,-1466,-302,-46,222,274,-230
1,757709,2465,827,-526,-1465,-306,-43,222,274,-230
1,757724,2465,827,-526,-1465,-306,-43,222,274,-230
1,757737,2463,829,-535,-1481,-315,-37,222,274,-230
1,757751,2463,824,-529,-1459,-301,-38,222,274,-230
1,757763,2463,824,-529,-1459,-301,-38,222,274,-230
1,757778,2465,827,-523,-1525,-309,-37,232,276,-230
1,757795,2463,829,-526,-1559,-320,-38,232,276,-230
1,757811,2470,831,-530,-1523,-317,-42,232,276,-230
1,757827,2470,831,-530,-1523,-317,-42,232,276,-230
1,757842,2466,828,-532,-1497,-316,-40,232,276,-230
1,757857,2465,829,-532,-1504,-321,-45,232,276,-230
1,757868,2465,829,-532,-1504,-321,-45,232,276,-230
1,757882,2461,829,-531,-1483,-310,-38,232,276,-230
1,757896,2462,825,-531,-1483,-305,-39,223,273,-235
1,757909,2465,828,-522,-1488,-311,-46,223,273,-235
1,757923,2465,828,-522,-1488,-311,-46,223,273,-235
1,757936,2465,827,-526,-1478,-303,-43,223,273,-235
1,757945,2465,827,-526,-1478,-303,-43,223,273,-235
1,757959,2467,827,-532,-1465,-303,-38,223,273,-235
1,757972,2467,831,-530,-1478,-306,-35,223,273,-235
1,757986,2467,831,-530,-1478,-306,-35,223,273,-235
1,757998,2463,832,-532,-1476,-301,-46,223,273,-235
1,758013,2462,829,-528,-1476,-301,-42,230,264,-236
1,758029,2462,829,-528,-1476,-301,-42,230,264,-236
1,758044,2462,829,-528,-1476,-301,-42,230,264,-236
1,758060,2463,828,-533,-1483,-305,-47,230,264,-236
1,758073,2464,829,-526,-1452,-298,-41,230,264,-236
1,758084,2464,829,-526,-1452,-298,-41,230,264,-236
1,758097,2463,826,-510,-1465,-301,-43,230,264,-236
1,758111,2466,822,-531,-1476,-314,-40,230,264,-236
1,758125,2466,822,-531,-1476,-314,-40,230,264,-236
1,758140,2465,824,-535,-1463,-317,-38,235,269,-233
1,758153,2463,828,-524,-1457,-303,-37,235,269,-233
1,758166,2463,828,-524,-1457,-303,-37,235,269,-233
1,758180,2466,827,-538,-1408,-288,-37,235,269,-233
1,758194,2466,831,-543,-1416,-268,-39,235,269,-233
1,758208,2466,831,-543,-1416,-268,-39,235,269,-233
1,758222,2461,827,-515,-1438,-256,-45,235,269,-233
1,758239,2463,830,-516,-1446,-267,-38,235,269,-233
1,758253,2462,829,-519,-1410,-293,-25,235,269,-233
1,758268,2462,829,-519,-1410,-293,-25,235,269,-233
1,758282,2461,827,-519,-1401,-320,-26,231,271,-233
1,758295,2467,828,-528,-1435,-331,-26,231,271,-233
1,758309,2465,829,-533,-1426,-333,-16,231,271,-233
1,758321,2465,829,-533,-1426,-333,-16,231,271,-233
1,758334,2466,826,-530,-1464,-335,3,231,271,-233
1,758349,2466,826,-530,-1464,-335,3,231,271,-233
1,758363,2463,826,-542,-1514,-319,-19,231,271,-233
1,758377,2466,825,-531,-1501,-293,-36,231,271,-233
1,758391,2465,826,-523,-1509,-285,-35,227,279,-225
1,758403,2465,826,-523,-1509,-285,-35,227,279,-225
1,758416,2468,826,-527,-1523,-302,-45,227,279,-225
1,758431,2466,829,-539,-1503,-301,-44,227,279,-225
1,758446,2466,829,-539,-1503,-301,-44,227,279,-225
1,758462,2464,831,-524,-1457,-293,-37,227,279,-225
1,758474,2464,831,-507,-1459,-313,-36,227,279,-225
1,758490,2467,825,-532,-1460,-308,-32,227,279,-225
1,758504,2467,825,-532,-1460,-308,-32,227,279,-225
1,758519,2465,830,-525,-1449,-308,-36,222,280,-232
1,758533,2465,827,-529,-1421,-302,-22,222,280,-232
1,758547,2465,827,-529,-1421,-302,-22,222,280,-232
1,758560,2467,830,-523,-1483,-301,6,222,280,-232
1,758575,2466,831,-539,-1483,-301,31,222,280,-232
1,758589,2466,831,-539,-1483,-301,31,222,280,-232
1,758603,2466,827,-509,-1481,-301,9,222,280,-232
1,758618,2467,832,-533,-1519,-285,-8,222,280,-232
1,758631,2463,828,-511,-1617,-272,-13,233,265,-239
1,758644,2463,828,-511,-1617,-272,-13,233,265,-239
1,758659,2464,823,-523,-1570,-331,-26,233,265,-239
1,758674,2465,818,-545,-1477,-304,-29,233,265,-239
1,758689,2464,825,-533,-1517,-309,-34,233,265,-239
1,758706,2464,825,-533,-1517,-309,-34,233,265,-239
1,758721,2465,816,-524,-1594,-322,-45,233,265,-239
1,758734,2465,834,-534,-1657,-314,-59,233,265,-239
1,758748,2465,834,-534,-1657,-314,-59,233,265,-239
1,758763,2466,828,-532,-1455,-297,-41,233,265,-239
1,758772,2464,824,-530,-1430,-299,-37,223,275,-225
1,758786,2464,824,-530,-1430,-299,-37,223,275,-225
1,758800,2467,825,-531,-1424,-300,-39,223,275,-225
1,758813,2466,825,-532,-1426,-303,-34,223,275,-225
1,758827,2466,825,-532,-1426,-303,-34,223,275,-225
1,758839,2468,826,-527,-1459,-306,-36,223,275,-225
1,758853,2465,824,-526,-1477,-309,-45,223,275,-225
1,758865,2465,824,-526,-1477,-309,-45,223,275,-225
1,758879,2465,828,-531,-1502,-310,-42,223,275,-225
1,758894,2462,826,-529,-1489,-304,-42,228,276,-234
1,758909,2465,826,-533,-1491,-302,-46,228,276,-234
1,758924,2465,826,-533,-1491,-302,-46,228,276,-234
1,758938,2465,829,-529,-1478,-300,-48,228,276,-234
1,758951,2464,826,-527,-1477,-297,-41,228,276,-234
1,758967,2464,826,-527,-1477,-297,-41,228,276,-234
1,758981,2465,824,-529,-1493,-308,-40,228,276,-234
1,758992,2463,824,-529,-1494,-307,-43,228,276,-234
1,759004,2463,824,-529,-1494,-307,-43,228,276,-234
1,759018,2467,825,-534,-1485,-304,-42,224,282,-228
1,759031,2463,825,-528,-1484,-304,-40,224,282,-228
1,759046,2463,825,-528,-1484,-304,-40,224,282,-228
1,759057,2468,823,-529,-1493,-305,-37,224,282,-228
1,759069,2468,823,-529,-1493,-305,-37,224,282,-228
1,759084,2466,825,-532,-1487,-304,-43,224,282,-228
1,759096,2467,823,-543,-1477,-310,-39,224,282,-228
1,759111,2469,828,-557,-1452,-320,-39,224,282,-228
1,759126,2469,828,-557,-1452,-320,-39,224,282,-228
1,759139,2466,822,-544,-1456,-304,-36,226,276,-232
1,759153,2465,824,-527,-1498,-290,-35,226,276,-232
1,759168,2465,824,-527,-1498,-290,-35,226,276,-232
1,759183,2467,827,-528,-1519,-283,-42,226,276,-232
1,759196,2465,826,-534,-1502,-289,-44,226,276,-232
1,759208,2465,826,-534,-1502,-289,-44,226,276,-232
1,759222,2465,828,-534,-1475,-292,-38,226,276,-232
1,759235,2463,827,-531,-1453,-291,-42,226,276,-232
1,759248,2463,827,-531,-1453,-291,-42,226,276,-232
1,759263,2466,824,-529,-1447,-291,-37,226,276,-232
1,759275,2466,826,-527,-1474,-292,-37,222,274,-228
1,759287,2466,826,-527,-1474,-292,-37,222,274,-228
1,759301,2463,825,-528,-1487,-299,-40,222,274,-228
1,759315,2463,827,-521,-1497,-305,-48,222,274,-228
1,759329,2463,827,-521,-1497,-305,-48,222,274,-228
1,759343,2464,824,-537,-1516,-334,-43,222,274,-228
1,759351,2466,827,-533,-1550,-337,-40,222,274,-228
1,759363,2466,827,-533,-1550,-337,-40,222,274,-228
1,759377,2467,826,-533,-1520,-315,-39,222,274,-228
1,759393,2461,826,-523,-1486,-302,-40,228,276,-232
1,759408,2461,826,-523,-1486,-302,-40,228,276,-232
1,759422,2464,824,-527,-1431,-309,-32,228,276,-232
1,759436,2466,822,-530,-1442,-316,-37,228,276,-232
1,759450,2467,826,-524,-1511,-315,-34,228,276,-232
1,759462,2467,826,-524,-1511,-315,-34,228,276,-232
1,759475,2466,829,-545,-1526,-316,-44,228,276,-232
1,759489,2466,829,-545,-1526,-316,-44,228,276,-232
1,759501,2465,828,-531,-1475,-283,-44,228,276,-232
1,759516,2466,827,-522,-1467,-289,-38,229,275,-227
1,759528,2466,827,-522,-1467,-289,-38,229,275,-227
1,759540,2466,828,-532,-1470,-310,-41,229,275,-227
1,759554,2465,827,-517,-1429,-309,-33,229,275,-227
1,759567,2465,827,-517,-1429,-309,-33,229,275,-227
1,759581,2467,826,-539,-1416,-314,-30,229,275,-227
1,759593,2465,824,-531,-1422,-302,-34,229,275,-227
1,759606,2465,824,-531,-1422,-302,-34,229,275,-227
1,759619,2465,826,-531,-1463,-295,-38,229,275,-227
1,759633,2463,827,-526,-1486,-294,-40,227,271,-229
1,759648,2463,827,-526,-1486,-294,-40,227,271,-229
1,759662,2462,826,-518,-1495,-294,-37,227,271,-229
1,759677,2468,827,-530,-1537,-308,-45,227,271,-229
1,759690,2467,829,-530,-1527,-303,-42,227,271,-229
1,759704,2467,829,-530,-1527,-303,-42,227,271,-229
1,759718,2468,828,-528,-1489,-294,-33,227,271,-229
1,759732,2465,827,-528,-1485,-304,-37,227,271,-229
1,759747,2465,827,-528,-1485,-304,-37,227,271,-229
1,759759,2465,821,-452,-1489,-305,-40,227,271,-229
1,759774,2466,827,-502,-1498,-304,-39,231,283,-231
1,759787,2466,827,-502,-1498,-304,-39,231,283,-231
1,759800,2464,824,-528,-1489,-305,-34,231,283,-231
1,759815,2464,825,-531,-1473,-301,-40,231,283,-231
1,759827,2464,825,-531,-1473,-301,-40,231,283,-231
1,759839,2465,827,-531,-1472,-303,-42,231,283,-231
1,759856,2465,827,-525,-1473,-306,-47,231,283,-231
1,759872,2463,828,-517,-1473,-310,-40,231,283,-231
1,759886,2463,828,-517,-1473,-310,-40,231,283,-231
1,759899,2465,827,-532,-1452,-308,-37,231,275,-221
1,759912,2461,827,-525,-1469,-305,-35,231,275,-221
1,759926,2461,827,-525,-1469,-305,-35,231,275,-221
1,759941,2463,825,-533,-1501,-309,-37,231,275,-221
1,759954,2465,825,-544,-1494,-298,-38,231,275,-221
1,759967,2465,825,-544,-1494,-298,-38,231,275,-221
1,759981,2462,827,-533,-1466,-278,-43,231,275,-221
1,759994,2467,819,-513,-1451,-277,-44,231,275,-221
1,760008,2467,819,-513,-1451,-277,-44,231,275,-221
1,760022,2464,825,-524,-1477,-269,-42,233,279,-231
1,760035,2463,826,-523,-1496,-282,-50,233,279,-231
1,760049,2463,826,-523,-1496,-282,-50,233,279,-231
1,760061,2463,823,-524,-1509,-286,-47,233,279,-231
1,760075,2462,824,-526,-1515,-300,-44,233,279,-231
1,760090,2462,824,-526,-1515,-300,-44,233,279,-231
1,760104,2461,824,-524,-1482,-306,-36,233,279,-231
1,760119,2464,825,-530,-1496,-330,-40,233,279,-231
1,760132,2465,827,-531,-1496,-335,-46,231,277,-229
1,760147,2465,827,-531,-1496,-335,-46,231,277,-229
1,760164,2466,827,-530,-1483,-320,-42,231,277,-229
1,760178,2467,825,-537,-1494,-306,-46,231,277,-229
1,760193,2464,827,-527,-1490,-298,-45,231,277,-229
1,760206,2464,827,-527,-1490,-298,-45,231,277,-229
1,760220,2464,826,-524,-1512,-319,-45,231,277,-229
1,760231,2466,826,-525,-1481,-318,-39,231,277,-229
1,760244,2466,826,-525,-1481,-318,-39,231,277,-229
1,760258,2467,828,-529,-1469,-314,-41,228,276,-226
1,760271,2466,825,-533,-1462,-320,-35,228,276,-226
1,760286,2466,825,-533,-1462,-320,-35,228,276,-226
1,760297,2468,827,-533,-1461,-309,-38,228,276,-226
1,760310,2465,830,-527,-1473,-301,-36,228,276,-226
1,760325,2465,830,-527,-1473,-301,-36,228,276,-226
1,760339,2466,825,-526,-1485,-302,-46,228,276,-226
1,760353,2466,827,-533,-1468,-304,-40,228,276,-226
1,760369,2466,827,-533,-1468,-304,-40,228,276,-226
1,760382,2467,823,-531,-1450,-304,-37,228,276,-226
1,760396,2466,824,-536,-1447,-305,-37,224,272,-232
1,760410,2466,824,-536,-1447,-305,-37,224,272,-232
1,760423,2467,822,-527,-1446,-292,-41,224,272,-232
1,760437,2465,827,-535,-1441,-298,-39,224,272,-232
1,760449,2465,827,-535,-1441,-298,-39,224,272,-232
1,760462,2464,823,-534,-1453,-299,-34,224,272,-232
1,760476,2466,824,-535,-1462,-294,-33,224,272,-232
1,760489,2466,824,-535,-1462,-294,-33,224,272,-232
1,760504,2466,824,-535,-1462,-294,-33,224,272,-232
1,760516,2466,822,-533,-1456,-292,-43,225,273,-229
1,760528,2466,822,-533,-1456,-292,-43,225,273,-229
1,760543,2465,830,-530,-1470,-291,-45,225,273,-229
1,760558,2464,828,-532,-1471,-288,-40,225,273,-229
1,760573,2466,824,-528,-1463,-301,-40,225,273,-229
1,760587,2466,824,-528,-1463,-301,-40,225,273,-229
1,760600,2465,828,-529,-1488,-306,-46,225,273,-229
1,760615,2466,825,-527,-1484,-320,-30,225,273,-229
1,760630,2465,823,-547,-1456,-322,-39,229,271,-229
1,760643,2465,823,-547,-1456,-322,-39,229,271,-231
1,760657,2468,824,-543,-1463,-285,-44,229,271,-231
1,760671,2463,826,-538,-1457,-266,-42,229,271,-231
1,760684,2463,826,-538,-1457,-266,-42,229,271,-231
1,760696,2464,822,-524,-1456,-295,-35,229,271,-231
1,760710,2461,828,-523,-1508,-323,-37,229,271,-231
1,760724,2461,828,-523,-1508,-323,-37,229,271,-231
1,760737,2465,824,-538,-1440,-319,-31,229,271,-231
1,760752,2466,823,-533,-1461,-299,-36,239,273,-237
1,760763,2466,823,-533,-1461,-299,-36,239,273,-237
1,760777,2465,823,-525,-1518,-301,-43,239,273,-237
1,760793,2466,831,-527,-1542,-303,-48,239,273,-237
1,760808,2466,831,-527,-1542,-303,-48,239,273,-237
1,760822,2468,826,-529,-1483,-299,-49,239,273,-237
1,760835,2465,823,-531,-1457,-304,-38,239,273,-237
1,760850,2465,823,-531,-1457,-304,-38,239,273,-237
1,760863,2463,829,-531,-1460,-301,-36,239,273,-237
1,760877,2465,830,-528,-1465,-298,-43,239,273,-237
1,760891,2465,831,-529,-1452,-304,-42,226,264,-238
1,760902,2465,831,-529,-1452,-304,-42,226,264,-238
1,760918,2465,831,-529,-1452,-304,-42,226,264,-238
1,760933,2464,822,-492,-1446,-306,-36,226,264,-238
1,760946,2464,822,-492,-1446,-306,-36,226,264,-238
1,760960,2464,825,-515,-1470,-308,-38,226,264,-238
1,760973,2465,828,-545,-1477,-310,-40,226,264,-238
1,760988,2465,828,-545,-1477,-310,-40,226,264,-238
1,761003,2465,826,-532,-1481,-305,-33,226,264,-238
1,761016,2465,826,-536,-1475,-300,-41,235,273,-233
1,761030,2465,826,-536,-1475,-300,-41,235,273,-233
1,761046,2464,825,-529,-1480,-302,-40,235,273,-233
1,761061,2465,825,-531,-1480,-304,-43,235,273,-233
1,761076,2464,825,-528,-1476,-308,-38,235,273,-233
1,761090,2464,825,-528,-1476,-308,-38,235,273,-233
1,761102,2465,826,-532,-1481,-306,-36,235,273,-233
1,761117,2464,824,-532,-1481,-307,-33,235,273,-233
1,761131,2467,826,-528,-1477,-304,-35,228,278,-236
1,761144,2467,826,-528,-1477,-304,-35,228,278,-236
1,761158,2466,825,-530,-1477,-307,-39,228,278,-236
1,761171,2463,826,-527,-1476,-305,-37,228,278,-236
1,761185,2463,826,-527,-1476,-305,-37,228,278,-236
1,761198,2464,825,-530,-1481,-301,-38,228,278,-236
1,761212,2466,824,-540,-1478,-296,-36,228,278,-236
1,761226,2466,824,-540,-1478,-296,-36,228,278,-236
1,761240,2465,827,-533,-1481,-300,-33,228,278,-236
1,761255,2464,827,-539,-1471,-300,-39,226,274,-232
1,761271,2465,826,-530,-1472,-302,-31,226,274,-232
1,761286,2465,826,-530,-1472,-302,-31,226,274,-232
1,761302,2466,825,-528,-1474,-299,-37,226,274,-232
1,761315,2467,826,-534,-1470,-302,-33,226,274,-232
1,761329,2467,826,-534,-1470,-302,-33,226,274,-232
1,761344,2467,826,-534,-1470,-302,-33,226,274,-232
1,761357,2466,823,-484,-1482,-276,-39,226,274,-232
1,761368,2466,823,-484,-1482,-276,-39,226,274,-232
1,761382,2466,823,-484,-1482,-276,-39,226,274,-232
1,761396,2468,826,-521,-1505,-257,-34,219,273,-231
1,761409,2468,826,-521,-1505,-257,-34,219,273,-231
1,761421,2465,825,-525,-1466,-298,-35,219,273,-231
1,761433,2466,826,-528,-1459,-289,-33,219,273,-231
1,761447,2466,826,-528,-1459,-289,-33,219,273,-231
1,761461,2463,824,-523,-1464,-307,-38,219,273,-231
1,761475,2466,826,-529,-1475,-324,-51,219,273,-231
1,761490,2462,824,-527,-1453,-324,-35,219,273,-231
1,761505,2462,824,-527,-1453,-324,-35,219,273,-231
1,761521,2464,827,-527,-1455,-321,-38,225,277,-227
1,761536,2464,827,-533,-1476,-308,-31,225,277,-227
1,761550,2465,825,-538,-1487,-309,-12,225,277,-227
1,761564,2465,825,-538,-1487,-309,-12,225,277,-227
1,761578,2465,825,-535,-1494,-293,-10,225,277,-227
1,761589,2465,825,-535,-1494,-293,-10,225,277,-227
1,761603,2465,829,-536,-1497,-289,-20,225,277,-227
1,761618,2463,825,-525,-1513,-295,-35,225,277,-227
1,761632,2467,827,-526,-1497,-310,-24,230,282,-226
1,761646,2467,827,-526,-1497,-310,-24,230,282,-226
1,761660,2466,826,-528,-1501,-312,-35,230,282,-226
1,761672,2467,826,-531,-1493,-311,-39,230,282,-226
1,761684,2467,826,-531,-1493,-311,-39,230,282,-226
1,761699,2465,827,-528,-1486,-313,-43,230,282,-226
1,761714,2467,825,-526,-1480,-311,-43,230,282,-226
1,761730,2467,825,-526,-1480,-311,-43,230,282,-226
1,761743,2467,824,-539,-1472,-310,-42,230,282,-226
1,761756,2468,823,-529,-1477,-308,-38,230,278,-236
1,761771,2466,826,-526,-1473,-309,-42,230,278,-236
1,761784,2466,826,-526,-1473,-309,-42,230,278,-236
1,761798,2469,823,-530,-1468,-310,-44,230,278,-236
1,761811,2464,825,-529,-1461,-304,-35,230,278,-236
1,761826,2464,825,-529,-1461,-304,-35,230,278,-236
1,761840,2464,829,-538,-1455,-310,-52,230,278,-236
1,761853,2464,829,-538,-1455,-310,-52,230,278,-236
1,761867,2464,829,-538,-1455,-310,-52,230,278,-236
1,761880,2465,827,-531,-1469,-307,-161,230,278,-236
1,761894,2465,825,-529,-1481,-296,-151,235,277,-231
1,761909,2465,825,-529,-1481,-296,-151,235,277,-231
1,761925,2466,832,-534,-1491,-302,-50,235,277,-231
1,761940,2464,829,-523,-1482,-290,-36,235,277,-231
1,761955,2463,828,-535,-1474,-290,-36,235,277,-231
1,761969,2463,828,-535,-1474,-290,-36,235,277,-231
1,761982,2463,825,-529,-1483,-289,-31,235,277,-231
1,761997,2465,827,-526,-1464,-292,-35,235,277,-231
1,762009,2465,827,-526,-1464,-292,-35,235,277,-231
1,762020,2464,826,-521,-1459,-298,-33,225,277,-235
1,762036,2467,827,-523,-1455,-318,-37,225,277,-235
1,762049,2467,827,-523,-1455,-318,-37,225,277,-235
1,762062,2467,826,-531,-1445,-334,-32,225,277,-235
1,762075,2463,822,-523,-1437,-355,-16,225,277,-235
1,762088,2463,822,-523,-1437,-355,-16,225,277,-235
1,762101,2463,825,-535,-1443,-326,-16,225,277,-235
1,762115,2465,826,-532,-1471,-303,-36,225,277,-235
1,762129,2465,826,-532,-1471,-303,-36,225,277,-235
1,762143,2467,829,-530,-1486,-308,-36,235,275,-231
1,762159,2465,825,-528,-1477,-301,-41,235,275,-231
1,762174,2464,828,-530,-1476,-293,-39,235,275,-231
1,762188,2464,828,-530,-1476,-293,-39,235,275,-231
1,762203,2464,825,-530,-1506,-286,-45,235,275,-231
1,762216,2463,829,-523,-1472,-288,-32,235,275,-231
1,762231,2467,828,-535,-1484,-293,-25,235,275,-231
1,762240,2467,828,-535,-1484,-293,-25,235,275,-231
1,762248,2467,828,-535,-1484,-293,-25,235,275,-231
1,762259,2465,826,-523,-1493,-290,-31,221,279,-235
1,762272,2468,827,-532,-1490,-298,-32,221,279,-235
1,762286,2468,827,-532,-1490,-298,-32,221,279,-235
1,762299,2468,828,-532,-1476,-295,-40,221,279,-235
1,762312,2467,831,-530,-1481,-296,-47,221,279,-235
1,762327,2467,831,-530,-1481,-296,-47,221,279,-235
1,762339,2465,826,-528,-1488,-305,-37,221,279,-235
1,762352,2464,828,-539,-1516,-306,-43,221,279,-235
1,762366,2464,828,-539,-1516,-306,-43,221,279,-235
1,762380,2466,829,-536,-1504,-301,-42,232,282,-234
1,762395,2465,827,-526,-1526,-295,-44,232,282,-234
1,762409,2465,827,-526,-1526,-295,-44,232,282,-234
1,762424,2463,829,-530,-1516,-302,-41,232,282,-234
1,762437,2464,824,-533,-1497,-299,-40,232,282,-234
1,762451,2464,829,-525,-1493,-293,-40,232,282,-234
1,762467,2464,829,-525,-1493,-293,-40,232,282,-234
1,762480,2466,829,-528,-1487,-290,-38,232,282,-234
1,762492,2465,822,-538,-1478,-280,-46,232,282,-234
1,762507,2465,822,-538,-1478,-280,-46,232,282,-234
1,762521,2465,822,-538,-1478,-280,-46,225,283,-239
1,762534,2465,828,-521,-1508,-282,-52,225,283,-239
1,762551,2464,829,-519,-1498,-295,-54,225,283,-239
1,762565,2464,829,-519,-1498,-295,-54,225,283,-239
1,762578,2465,830,-524,-1468,-308,-52,225,283,-239
1,762591,2465,830,-524,-1468,-308,-52,225,283,-239
1,762604,2465,825,-526,-1433,-324,-40,225,283,-239
1,762617,2466,829,-527,-1453,-326,-29,225,283,-239
1,762632,2465,826,-535,-1450,-321,-39,229,279,-235
1,762646,2465,826,-535,-1450,-321,-39,229,279,-235
1,762661,2465,827,-531,-1440,-303,-45,229,279,-235
1,762677,2466,824,-522,-1428,-311,-46,229,279,-235
1,762690,2466,824,-522,-1428,-311,-46,229,279,-235
1,762703,2464,826,-529,-1434,-317,-39,229,279,-235
1,762719,2465,827,-541,-1457,-314,-47,229,279,-235
1,762732,2465,826,-530,-1437,-295,-37,229,279,-235
1,762743,2465,826,-530,-1437,-295,-37,229,279,-235
1,762758,2464,828,-523,-1450,-289,-34,227,277,-235
1,762772,2464,828,-523,-1450,-289,-34,227,277,-235
1,762785,2464,828,-523,-1450,-289,-34,227,277,-235
1,762799,2466,829,-523,-1491,-303,-42,227,277,-235
1,762813,2464,825,-529,-1488,-313,-41,227,277,-235
1,762825,2464,825,-529,-1488,-313,-41,227,277,-235
1,762840,2462,828,-532,-1485,-302,-39,227,277,-235
1,762853,2462,826,-529,-1499,-303,-46,227,277,-235
1,762866,2462,826,-529,-1499,-303,-46,227,277,-235
1,762882,2463,826,-532,-1503,-303,-43,230,282,-228
1,762896,2462,826,-523,-1496,-301,-48,230,282,-228
1,762909,2462,826,-523,-1496,-301,-48,230,282,-228
1,762924,2465,828,-529,-1483,-311,-41,230,282,-228
1,762938,2463,829,-542,-1478,-314,-36,230,282,-228
1,762952,2462,828,-536,-1493,-298,-41,230,282,-228
1,762966,2462,828,-536,-1493,-298,-41,230,282,-228
1,762978,2466,830,-531,-1479,-276,-41,230,282,-228
1,762991,2465,829,-530,-1474,-283,-42,230,282,-228
1,763004,2465,829,-530,-1474,-283,-42,230,282,-228
1,763018,2467,824,-530,-1452,-294,-39,239,271,-233
1,763033,2466,826,-528,-1500,-302,-43,239,271,-233
1,763044,2466,826,-528,-1500,-302,-43,239,271,-233
1,763058,2467,828,-525,-1512,-309,-77,239,271,-233
1,763071,2462,829,-528,-1498,-316,-101,239,271,-233
1,763085,2462,829,-528,-1498,-316,-101,239,271,-233
1,763099,2464,831,-529,-1510,-317,-97,239,271,-233
1,763110,2464,831,-529,-1510,-317,-97,239,271,-233
1,763124,2466,832,-536,-1476,-315,-82,239,271,-233
1,763139,2465,824,-543,-1426,-302,-52,232,280,-232
1,763152,2467,830,-521,-1520,-302,-54,232,280,-232
1,763163,2467,830,-521,-1520,-302,-54,232,280,-232
1,763175,2467,831,-524,-1518,-309,-66,232,280,-232
1,763189,2467,831,-524,-1518,-309,-66,232,280,-232
1,763202,2468,807,-564,-1452,-316,-53,232,280,-232
1,763214,2465,824,-539,-1446,-308,-42,232,280,-232
1,763228,2465,824,-539,-1446,-308,-42,232,280,-232
1,763242,2463,829,-529,-1442,-310,-29,232,280,-232
1,763255,2464,828,-536,-1453,-312,-26,235,287,-227
1,763269,2464,828,-536,-1453,-312,-26,235,287,-227
1,763283,2465,830,-528,-1470,-301,-43,235,287,-227
1,763294,2467,831,-534,-1442,-290,-45,235,287,-227
1,763308,2467,831,-534,-1442,-290,-45,235,287,-227
1,763323,2466,830,-528,-1441,-293,-41,235,287,-227
1,763337,2462,829,-558,-1449,-308,-34,235,287,-227
1,763351,2462,829,-558,-1449,-308,-34,235,287,-227
1,763365,2466,827,-508,-1445,-313,-34,235,287,-227
1,763380,2467,827,-538,-1488,-315,-36,230,278,-224
1,763394,2465,825,-551,-1489,-311,-32,230,278,-224
1,763407,2465,825,-551,-1489,-311,-32,230,278,-224
1,763422,2463,825,-531,-1505,-308,-27,230,278,-224
1,763437,2464,827,-528,-1459,-302,-27,230,278,-224
1,763448,2464,827,-528,-1459,-302,-27,230,278,-224
1,763460,2464,835,-507,-1467,-306,-29,230,278,-224
1,763474,2467,833,-524,-1495,-304,-38,230,278,-224
1,763488,2467,833,-524,-1495,-304,-38,230,278,-224
1,763501,2465,825,-535,-1471,-300,-36,230,278,-224
1,763514,2468,834,-527,-1478,-306,-37,235,277,-233
1,763527,2468,834,-527,-1478,-306,-37,235,277,-233
1,763541,2465,830,-531,-1474,-301,-41,235,277,-233
1,763555,2467,827,-530,-1476,-293,-44,235,277,-233
1,763570,2467,827,-530,-1476,-293,-44,235,277,-233
1,763584,2465,832,-527,-1476,-302,-47,235,277,-233
1,763597,2463,830,-531,-1483,-307,-46,235,277,-233
1,763610,2463,830,-531,-1483,-307,-46,235,277,-233
1,763624,2463,830,-531,-1483,-307,-46,235,277,-233
1,763639,2466,819,-554,-1473,-295,-35,225,275,-231
1,763652,2466,828,-547,-1472,-301,-38,225,275,-231
1,763665,2466,828,-547,-1472,-301,-38,225,275,-231
1,763679,2465,832,-528,-1485,-301,-34,225,275,-231
1,763694,2466,827,-527,-1482,-299,-40,225,275,-231
1,763707,2466,827,-527,-1482,-299,-40,225,275,-231
1,763720,2465,830,-531,-1473,-305,-41,225,275,-231
1,763736,2462,827,-528,-1480,-306,-35,225,275,-231
1,763749,2462,827,-528,-1480,-306,-35,225,275,-231
1,763762,2464,827,-524,-1484,-315,-37,231,275,-231
1,763776,2464,828,-527,-1498,-313,-38,231,275,-231
1,763789,2464,828,-527,-1498,-313,-38,231,275,-231
1,763803,2469,832,-531,-1500,-307,-37,231,275,-231
1,763817,2467,829,-533,-1478,-302,-39,231,275,-231
1,763829,2467,829,-533,-1478,-302,-39,231,275,-231
1,763844,2465,829,-537,-1468,-298,-42,231,275,-231
1,763859,2467,827,-528,-1442,-283,-34,231,275,-231
1,763875,2468,828,-530,-1458,-281,-44,234,274,-232
1,763890,2468,828,-530,-1458,-281,-44,234,274,-232
1,763904,2468,828,-530,-1458,-281,-44,234,274,-232
1,763917,2464,827,-529,-1496,-314,-38,234,274,-232
1,763932,2464,831,-529,-1486,-320,-43,234,274,-232
1,763947,2464,831,-529,-1486,-320,-43,234,274,-232
1,763959,2466,832,-532,-1472,-316,-44,234,274,-232
1,763972,2463,829,-528,-1488,-305,-43,234,274,-232
1,763985,2463,829,-528,-1488,-305,-43,234,274,-232
1,763998,2462,827,-531,-1466,-297,-32,234,274,-232
1,764011,2462,827,-531,-1466,-297,-32,234,274,-232
1,764022,2467,829,-525,-1450,-286,-37,234,274,-232
1,764037,2463,827,-530,-1473,-286,-37,234,274,-232
1,764051,2466,828,-529,-1466,-304,-45,234,274,-232
1,764065,2466,828,-529,-1466,-304,-45,234,274,-232
1,764079,2467,827,-526,-1476,-308,-45,234,274,-232
1,764094,2467,827,-526,-1476,-308,-45,234,274,-232
1,764109,2467,827,-526,-1476,-308,-45,234,274,-232
1,764122,2465,827,-527,-1492,-310,-40,234,274,-232
1,764134,2465,830,-529,-1480,-308,-43,232,276,-226
1,764149,2465,830,-529,-1480,-308,-43,232,276,-226
1,764163,2466,828,-533,-1469,-300,-38,232,276,-226
1,764176,2466,829,-527,-1456,-294,-34,232,276,-226
1,764190,2466,829,-527,-1456,-294,-34,232,276,-226
1,764204,2466,830,-533,-1446,-301,-34,232,276,-226
1,764218,2465,825,-534,-1471,-307,-44,232,276,-226
1,764231,2465,825,-534,-1471,-307,-44,232,276,-226
1,764244,2463,830,-529,-1484,-298,-43,232,276,-226
1,764258,2465,828,-522,-1462,-295,-42,227,277,-231
1,764272,2463,830,-526,-1479,-302,-33,227,277,-231
1,764282,2463,830,-526,-1479,-302,-33,227,277,-231
1,764297,2464,829,-520,-1503,-310,-35,227,277,-231
1,764311,2464,829,-520,-1503,-310,-35,227,277,-231
1,764324,2465,827,-536,-1510,-307,-35,227,277,-231
1,764339,2464,829,-529,-1564,-302,-46,227,277,-231
1,764354,2463,831,-524,-1575,-313,-51,227,277,-231
1,764370,2463,831,-524,-1575,-313,-51,227,277,-231
1,764385,2465,828,-527,-1499,-313,-40,227,279,-231
1,764398,2466,830,-535,-1468,-304,-37,227,279,-231
1,764411,2465,829,-536,-1449,-277,-39,227,279,-231
1,764426,2465,829,-536,-1449,-277,-39,227,279,-231
1,764438,2465,830,-526,-1447,-268,-35,227,279,-231
1,764453,2466,827,-523,-1451,-280,-32,227,279,-231
1,764469,2466,827,-523,-1451,-280,-32,227,279,-231
1,764481,2469,830,-528,-1452,-297,-35,227,279,-231
1,764494,2467,829,-528,-1467,-304,-33,229,271,-227
1,764509,2467,829,-528,-1467,-304,-33,229,271,-227
1,764523,2466,821,-537,-1458,-307,-39,229,271,-227
1,764539,2466,827,-523,-1458,-308,-34,229,271,-227
1,764554,2466,827,-532,-1452,-308,-33,229,271,-227
1,764569,2466,827,-532,-1452,-308,-33,229,271,-227
1,764582,2464,828,-527,-1468,-309,-40,229,271,-227
1,764597,2467,828,-535,-1467,-301,-38,229,271,-227
1,764610,2467,828,-535,-1467,-301,-38,229,271,-227
1,764621,2467,830,-530,-1469,-299,-42,229,271,-227
1,764634,2466,833,-525,-1478,-303,-37,229,279,-225
1,764648,2466,833,-525,-1478,-303,-37,229,279,-225
1,764660,2465,828,-526,-1470,-305,-40,229,279,-225
1,764675,2465,831,-531,-1477,-301,-44,229,279,-225
1,764689,2465,831,-531,-1477,-301,-44,229,279,-225
1,764701,2467,828,-528,-1483,-306,-36,229,279,-225
1,764716,2465,830,-533,-1486,-303,-38,229,279,-225
1,764729,2465,830,-533,-1486,-303,-38,229,279,-225
1,764742,2465,827,-530,-1471,-301,-38,229,279,-225
1,764758,2464,825,-528,-1479,-297,-39,227,277,-223
1,764772,2467,829,-525,-1496,-306,-38,227,277,-223
1,764784,2467,829,-525,-1496,-306,-38,227,277,-223
1,764800,2466,829,-532,-1500,-312,-42,227,277,-223
1,764815,2466,828,-529,-1468,-304,-38,227,277,-223
1,764824,2466,828,-529,-1468,-304,-38,227,277,-223
1,764838,2463,828,-530,-1481,-310,-35,227,277,-223
1,764852,2464,829,-534,-1504,-313,-33,227,277,-223
1,764866,2464,829,-534,-1504,-313,-33,227,277,-223
1,764879,2465,833,-528,-1499,-307,-45,236,284,-232
1,764889,2465,833,-528,-1499,-307,-45,236,284,-232
1,764902,2465,834,-535,-1481,-304,-39,236,284,-232
1,764915,2469,828,-526,-1467,-288,-43,236,284,-232
1,764929,2469,828,-526,-1467,-288,-43,236,284,-232
1,764943,2464,831,-530,-1504,-293,-45,236,284,-232
1,764956,2464,829,-531,-1485,-302,-42,236,284,-232
1,764968,2464,829,-531,-1485,-302,-42,236,284,-232
1,764982,2466,832,-531,-1470,-308,-45,236,284,-232
1,764992,2464,832,-532,-1460,-306,-42,229,277,-235
1,765007,2464,832,-532,-1460,-306,-42,229,277,-235
1,765019,2466,829,-529,-1481,-316,-39,229,277,-235
1,765034,2465,828,-533,-1498,-309,-41,229,277,-235
1,765049,2465,828,-533,-1498,-309,-41,229,277,-235
1,765065,2465,828,-529,-1497,-303,-39,229,277,-235
1,765078,2463,829,-530,-1480,-296,-39,229,277,-235
1,765090,2463,829,-530,-1480,-296,-39,229,277,-235
1,765105,2465,828,-535,-1465,-290,-41,229,277,-235
1,765118,2465,828,-532,-1482,-289,-37,229,277,-235
1,765131,2465,828,-532,-1482,-289,-37,229,277,-235
1,765145,2468,827,-524,-1487,-299,-37,217,281,-231
1,765157,2466,828,-526,-1479,-310,-43,217,281,-231
1,765170,2466,828,-526,-1479,-310,-43,217,281,-231
1,765184,2465,829,-529,-1462,-309,-43,217,281,-231
1,765193,2465,827,-530,-1442,-305,-43,217,281,-231
1,765206,2465,827,-530,-1442,-305,-43,217,281,-231
1,765219,2466,829,-531,-1471,-303,-43,217,281,-231
1,765233,2465,828,-533,-1489,-298,-38,217,281,-231
1,765247,2465,828,-533,-1489,-298,-38,217,281,-231
1,765260,2465,827,-529,-1504,-299,-34,226,284,-228
1,765272,2465,827,-529,-1504,-299,-34,226,284,-228
1,765285,2463,830,-530,-1566,-313,-45,226,284,-228
1,765300,2466,830,-527,-1547,-315,-42,226,284,-228
1,765315,2467,830,-532,-1482,-303,-39,226,284,-228
1,765327,2467,830,-532,-1482,-303,-39,226,284,-228
1,765341,2465,831,-535,-1467,-302,-44,226,284,-228
1,765356,2466,831,-531,-1440,-298,-44,226,284,-228
1,765369,2466,831,-531,-1440,-298,-44,226,284,-228
1,765382,2466,832,-523,-1431,-298,-38,229,273,-229
1,765394,2466,828,-526,-1459,-295,-38,229,273,-229
1,765407,2466,828,-526,-1459,-295,-38,229,273,-229
1,765421,2464,827,-534,-1456,-304,-37,229,273,-229
1,765436,2468,828,-525,-1451,-295,-40,229,273,-229
1,765451,2468,828,-525,-1451,-295,-40,229,273,-229
1,765464,2467,831,-521,-1448,-292,-30,229,273,-229
1,765478,2466,827,-536,-1428,-305,-38,229,273,-229
1,765489,2466,827,-536,-1428,-305,-38,229,273,-229
1,765503,2464,830,-524,-1462,-311,-34,232,276,-238
1,765515,2469,819,-545,-1482,-307,-39,232,276,-238
1,765530,2469,819,-545,-1482,-307,-39,232,276,-238
1,765538,2465,829,-541,-1475,-301,-43,232,276,-238
1,765547,2465,829,-541,-1475,-301,-43,232,276,-238
1,765561,2466,828,-533,-1460,-302,-39,232,276,-238
1,765577,2465,832,-485,-1491,-303,-40,232,276,-238
1,765592,2467,822,-525,-1481,-312,-45,232,276,-238
1,765605,2467,822,-525,-1481,-312,-45,232,276,-238
1,765619,2465,835,-549,-1480,-318,-38,232,276,-238
1,765633,2467,829,-517,-1491,-296,-34,233,273,-239
1,765647,2467,829,-517,-1491,-296,-34,233,273,-239
1,765660,2465,827,-531,-1478,-297,-40,233,273,-239
1,765674,2467,829,-532,-1479,-304,-39,233,273,-239
1,765688,2467,829,-532,-1479,-304,-39,233,273,-239
1,765702,2464,831,-536,-1483,-308,-43,233,273,-239
1,765715,2467,830,-533,-1496,-296,-46,233,273,-239
1,765729,2467,830,-533,-1496,-296,-46,233,273,-239
1,765743,2464,830,-531,-1517,-308,-37,233,273,-239
1,765755,2467,826,-525,-1491,-304,-39,230,278,-228
1,765769,2467,826,-525,-1491,-304,-39,230,278,-228
1,765779,2467,829,-530,-1470,-301,-39,230,278,-228
1,765795,2467,829,-530,-1486,-307,-41,230,278,-228
1,765810,2467,829,-530,-1486,-307,-41,230,278,-228
1,765826,2464,828,-528,-1487,-304,-41,230,278,-228
1,765839,2467,828,-529,-1483,-305,-39,230,278,-228
1,765853,2465,830,-532,-1478,-304,-43,230,278,-228
1,765868,2465,830,-532,-1478,-304,-43,230,278,-228
1,765878,2466,830,-527,-1468,-303,-42,226,272,-232
1,765891,2466,830,-527,-1468,-303,-42,226,272,-232
1,765904,2464,827,-528,-1465,-297,-41,226,272,-232
1,765918,2463,827,-527,-1491,-294,-45,226,272,-232
1,765932,2465,829,-531,-1502,-299,-37,226,272,-232
1,765946,2465,829,-531,-1502,-299,-37,226,272,-232
1,765959,2466,833,-530,-1504,-309,-41,226,272,-232
1,765973,2466,827,-531,-1483,-300,-37,226,272,-232
1,765988,2466,827,-531,-1483,-300,-37,226,272,-232
1,766003,2466,831,-526,-1485,-297,-39,232,282,-230
1,766015,2465,827,-531,-1462,-292,-46,232,282,-230
1,766030,2465,827,-531,-1462,-292,-46,232,282,-230
1,766046,2466,828,-530,-1467,-297,-38,232,282,-230
1,766060,2467,832,-527,-1471,-301,-39,232,282,-230
1,766073,2470,826,-524,-1458,-311,-37,232,282,-230
1,766088,2470,826,-524,-1458,-311,-37,232,282,-230
1,766102,2467,828,-532,-1451,-310,-35,232,282,-230
1,766113,2465,824,-532,-1485,-308,-36,230,274,-232
1,766128,2465,824,-532,-1485,-308,-36,230,274,-232
1,766142,2464,831,-521,-1555,-301,-44,230,274,-232
1,766155,2466,830,-518,-1562,-303,-42,230,274,-232
1,766169,2466,830,-518,-1562,-303,-42,230,274,-232
1,766183,2465,830,-527,-1547,-317,-45,230,274,-232
1,766196,2463,829,-537,-1468,-318,-35,230,274,-232
1,766209,2463,829,-537,-1468,-318,-35,230,274,-232
1,766223,2467,828,-535,-1459,-304,-40,230,274,-232
1,766238,2466,828,-529,-1459,-299,-35,230,274,-232
1,766254,2463,831,-530,-1445,-300,-40,231,271,-233
1,766269,2463,831,-530,-1445,-300,-40,231,271,-233
1,766280,2465,829,-531,-1420,-299,-40,231,271,-233
1,766295,2464,828,-533,-1424,-289,-35,231,271,-233
1,766309,2464,828,-533,-1424,-289,-35,231,271,-233
1,766322,2465,826,-525,-1449,-290,-44,231,271,-233
1,766336,2465,826,-494,-1438,-289,-33,231,271,-233
1,766350,2465,826,-494,-1438,-289,-33,231,271,-233
1,766364,2464,824,-549,-1468,-301,-45,231,271,-233
1,766377,2466,825,-536,-1485,-310,-47,231,273,-231
1,766391,2466,825,-536,-1485,-310,-47,231,273,-231
1,766405,2467,829,-532,-1483,-307,-40,231,273,-231
1,766418,2466,830,-530,-1501,-306,-47,231,273,-231
1,766434,2464,842,-465,-1468,-305,-40,231,273,-231
1,766448,2464,842,-465,-1468,-305,-40,231,273,-231
1,766464,2467,807,-495,-1465,-304,-40,231,273,-231
1,766477,2465,843,-523,-1465,-306,-30,231,273,-231
1,766491,2465,843,-523,-1465,-306,-30,231,273,-231
1,766507,2467,824,-520,-1464,-313,-39,225,279,-231
1,766522,2465,829,-534,-1470,-308,-39,225,279,-231
1,766534,2465,829,-534,-1470,-308,-39,225,279,-231
1,766546,2465,829,-534,-1470,-308,-39,225,279,-231
1,766561,2465,828,-535,-1480,-303,-37,225,279,-231
1,766574,2464,827,-528,-1486,-297,-36,225,279,-231
1,766587,2464,827,-528,-1486,-297,-36,225,279,-231
1,766602,2467,830,-533,-1475,-302,-29,225,279,-231
1,766613,2467,829,-526,-1477,-301,-37,223,271,-233
1,766626,2467,829,-526,-1477,-301,-37,223,271,-233
1,766640,2466,832,-517,-1502,-308,-45,223,271,-233
1,766654,2467,833,-528,-1502,-312,-44,223,271,-233
1,766669,2467,833,-528,-1502,-312,-44,223,271,-233
1,766685,2464,829,-531,-1484,-309,-41,223,271,-233
1,766700,2464,828,-527,-1479,-313,-44,223,271,-233
1,766715,2465,826,-536,-1489,-309,-34,223,271,-233
1,766728,2465,826,-536,-1489,-309,-34,223,271,-233
1,766742,2467,829,-532,-1502,-311,-39,223,271,-233
1,766755,2465,827,-526,-1484,-306,-46,229,269,-233
1,766766,2465,827,-526,-1484,-306,-46,229,269,-233
1,766779,2464,827,-528,-1483,-295,-35,229,269,-233
1,766793,2466,828,-534,-1468,-299,-34,229,269,-233
1,766807,2466,828,-534,-1468,-299,-34,229,269,-233
1,766820,2463,827,-532,-1475,-298,-45,229,269,-233
1,766834,2463,832,-529,-1485,-309,-44,229,269,-233
1,766846,2463,832,-529,-1485,-309,-44,229,269,-233
1,766861,2462,830,-537,-1494,-305,-41,229,269,-233
1,766876,2465,831,-525,-1491,-309,-45,235,275,-227
1,766892,2465,831,-525,-1491,-309,-45,235,275,-227
1,766907,2463,828,-527,-1476,-314,-42,235,275,-227
1,766921,2464,830,-531,-1481,-313,-38,235,275,-227
1,766935,2466,831,-536,-1465,-311,-39,235,275,-227
1,766948,2466,831,-536,-1465,-311,-39,235,275,-227
1,766961,2463,829,-531,-1458,-302,-43,235,275,-227
1,766974,2467,834,-532,-1424,-291,-38,235,275,-227
1,766989,2467,834,-532,-1424,-291,-38,235,275,-227
1,767002,2465,825,-527,-1378,-289,-30,226,278,-230
1,767012,2466,825,-523,-1536,-309,-44,226,278,-230
1,767027,2466,825,-523,-1536,-309,-44,226,278,-230
1,767040,2466,832,-530,-1670,-314,-53,226,278,-230
1,767053,2465,830,-516,-1582,-322,-41,226,278,-230
1,767068,2465,830,-516,-1582,-322,-41,226,278,-230
1,767080,2463,828,-535,-1441,-325,-37,226,278,-230
1,767094,2466,827,-539,-1422,-310,-32,226,278,-230
1,767110,2466,827,-539,-1422,-310,-32,226,278,-230
1,767125,2465,831,-528,-1475,-289,-43,233,275,-231
1,767137,2464,829,-519,-1461,-281,-41,233,275,-231
1,767151,2464,829,-519,-1461,-281,-41,233,275,-231
1,767166,2463,826,-529,-1449,-302,-39,233,275,-231
1,767179,2465,830,-535,-1443,-298,-43,233,275,-231
1,767193,2464,828,-534,-1443,-281,-30,233,275,-231
1,767205,2464,828,-534,-1443,-281,-30,233,275,-231
1,767216,2463,827,-527,-1461,-283,-28,233,275,-231
1,767230,2463,827,-527,-1461,-283,-28,233,275,-231
1,767244,2462,831,-533,-1473,-305,-37,233,275,-231
1,767257,2467,829,-518,-1463,-303,-42,225,277,-237
1,767270,2467,829,-518,-1463,-303,-42,225,277,-237
1,767283,2464,830,-534,-1463,-307,-39,225,277,-237
1,767296,2464,845,-565,-1437,-303,-36,225,277,-237
1,767309,2464,845,-565,-1437,-303,-36,225,277,-237
1,767323,2463,841,-509,-1439,-310,-33,225,277,-237
1,767338,2465,825,-529,-1450,-305,-36,225,277,-237
1,767353,2474,769,-609,-1520,-308,-41,225,277,-237
1,767369,2474,769,-609,-1520,-308,-41,225,277,-237
1,767384,2463,853,-545,-1511,-306,-40,224,276,-232
1,767403,2462,827,-460,-1477,-305,-35,224,276,-232
1,767418,2461,828,-491,-1475,-312,-38,224,276,-232
1,767431,2461,828,-491,-1475,-312,-38,224,276,-232
1,767444,2467,828,-528,-1471,-301,-39,224,276,-232
1,767458,2465,830,-534,-1468,-301,-36,224,276,-232
1,767472,2465,830,-534,-1468,-301,-36,224,276,-232
1,767485,2463,828,-533,-1468,-299,-35,224,276,-232
1,767499,2465,827,-528,-1484,-305,-45,226,278,-232
1,767512,2464,833,-530,-1561,-312,-48,226,278,-232
1,767526,2464,833,-530,-1561,-312,-48,226,278,-232
1,767540,2465,827,-532,-1519,-311,-52,226,278,-232
1,767553,2465,828,-537,-1472,-304,-43,226,278,-232
1,767564,2465,828,-537,-1472,-304,-43,226,278,-232
1,767579,2467,829,-529,-1472,-299,-38,226,278,-232
1,767594,2464,830,-524,-1471,-298,-31,226,278,-232
1,767606,2464,830,-524,-1471,-298,-31,226,278,-232
1,767622,2465,829,-527,-1471,-304,-35,226,280,-236
1,767637,2466,829,-527,-1462,-302,-32,226,280,-236
1,767651,2466,829,-527,-1462,-302,-32,226,280,-236
1,767666,2468,830,-529,-1481,-301,-38,226,280,-236
1,767679,2466,825,-532,-1494,-314,-37,226,280,-236
1,767693,2466,825,-532,-1494,-314,-37,226,280,-236
1,767704,2466,825,-532,-1494,-314,-37,226,280,-236
1,767719,2466,828,-531,-1497,-304,-45,226,280,-236
1,767732,2466,828,-531,-1497,-304,-45,226,280,-236
1,767746,2465,830,-527,-1483,-305,-46,226,280,-236
1,767760,2466,831,-525,-1474,-300,-40,223,279,-231
1,767774,2464,826,-528,-1455,-293,-47,223,279,-231
1,767789,2464,826,-528,-1455,-293,-47,223,279,-231
1,767801,2466,830,-531,-1444,-290,-38,223,279,-231
1,767815,2464,829,-533,-1447,-293,-36,223,279,-231
1,767826,2464,829,-533,-1447,-293,-36,223,279,-231
1,767837,2462,828,-523,-1421,-299,-34,223,279,-231
1,767850,2462,828,-523,-1421,-299,-34,223,279,-231
1,767863,2468,825,-543,-1451,-316,-43,223,279,-231
1,767879,2464,827,-522,-1656,-310,-54,228,290,-236
1,767891,2464,827,-522,-1656,-310,-54,228,290,-236
1,767903,2461,833,-503,-1649,-311,-59,228,290,-236
1,767918,2467,827,-540,-1420,-323,-34,228,290,-236
1,767931,2467,827,-540,-1420,-323,-34,228,290,-236
1,767945,2465,828,-557,-1397,-301,-30,228,290,-236
1,767960,2465,830,-532,-1451,-295,-31,228,290,-236
1,767974,2463,828,-533,-1463,-300,-38,228,290,-236
1,767987,2463,828,-533,-1463,-300,-38,228,290,-236
1,768001,2464,828,-530,-1469,-295,-41,226,278,-238
1,768014,2466,831,-529,-1473,-289,-46,226,278,-238
1,768028,2466,831,-529,-1473,-289,-46,226,278,-238
1,768041,2465,824,-530,-1430,-290,-42,226,278,-238
1,768057,2463,825,-531,-1433,-295,-32,226,278,-238
1,768072,2463,825,-531,-1433,-295,-32,226,278,-238
1,768087,2466,830,-524,-1475,-301,-36,226,278,-238
1,768101,2464,827,-552,-1488,-307,-39,226,278,-238
1,768114,2467,825,-555,-1484,-305,-44,226,280,-228
1,768128,2467,825,-555,-1484,-305,-44,226,280,-228
1,768143,2466,830,-536,-1481,-304,-44,226,280,-228
1,768159,2465,827,-534,-1479,-303,-47,226,280,-228
1,768173,2466,829,-529,-1475,-303,-42,226,280,-228
1,768185,2466,829,-529,-1475,-303,-42,226,280,-228
1,768198,2464,826,-526,-1484,-300,-38,226,280,-228
1,768212,2468,828,-526,-1472,-294,-40,226,280,-228
1,768227,2468,828,-526,-1472,-294,-40,226,280,-228
1,768238,2463,831,-530,-1480,-298,-45,223,275,-229
1,768251,2463,831,-530,-1480,-298,-45,223,275,-229
1,768267,2468,828,-530,-1486,-299,-44,223,275,-229
1,768282,2467,829,-532,-1484,-302,-39,223,275,-229
1,768297,2465,827,-531,-1472,-301,-37,223,275,-229
1,768311,2465,827,-531,-1472,-301,-37,223,275,-229
1,768322,2466,829,-532,-1468,-300,-38,223,275,-229
1,768336,2466,830,-527,-1480,-299,-38,223,275,-229
1,768351,2466,830,-527,-1480,-299,-38,223,275,-229
1,768364,2464,828,-533,-1475,-306,-43,223,275,-229
1,768378,2465,830,-527,-1491,-301,-45,228,278,-236
1,768391,2465,830,-527,-1491,-301,-45,228,278,-236
1,768402,2465,825,-524,-1494,-301,-45,228,278,-236
1,768416,2466,829,-527,-1494,-303,-49,228,278,-236
1,768425,2466,829,-527,-1494,-303,-49,228,278,-236
1,768438,2468,829,-530,-1469,-303,-45,228,278,-236
1,768452,2468,829,-530,-1469,-303,-45,228,278,-236
1,768460,2467,828,-532,-1464,-298,-35,228,278,-236
1,768467,2467,828,-532,-1464,-298,-35,228,278,-236
1,768476,2463,828,-534,-1474,-298,-39,228,278,-236
1,768484,2463,828,-534,-1474,-298,-39,228,278,-236
1,768492,2463,828,-534,-1474,-298,-39,228,278,-236
1,768503,2465,829,-534,-1485,-309,-43,222,272,-228
1,768513,2465,829,-534,-1485,-309,-43,222,272,-228
1,768523,2464,829,-526,-1488,-304,-44,222,272,-228
1,768531,2464,829,-526,-1488,-304,-44,222,272,-228
1,768540,2465,829,-530,-1494,-300,-41,222,272,-228
1,768549,2465,829,-530,-1494,-300,-41,222,272,-228
1,768563,2469,829,-526,-1484,-294,-37,222,272,-228
1,768575,2467,831,-528,-1478,-297,-40,222,272,-228
1,768588,2467,831,-528,-1478,-297,-40,222,272,-228
1,768603,2466,830,-532,-1484,-308,-40,222,272,-228
1,768617,2466,828,-526,-1487,-311,-38,225,281,-229
1,768630,2466,828,-526,-1487,-311,-38,225,281,-229
1,768645,2464,828,-531,-1482,-305,-41,225,281,-229
1,768657,2466,827,-512,-1483,-304,-39,225,281,-229
1,768670,2466,827,-512,-1483,-304,-39,225,281,-229
1,768686,2466,828,-519,-1465,-303,-34,225,281,-229
1,768701,2466,828,-525,-1471,-303,-32,225,281,-229
1,768716,2465,826,-532,-1471,-304,-45,225,281,-229
1,768730,2465,826,-532,-1471,-304,-45,225,281,-229
1,768742,2465,828,-530,-1458,-306,-47,230,284,-236
1,768756,2464,829,-532,-1459,-307,-41,230,284,-236
1,768770,2464,829,-532,-1459,-307,-41,230,284,-236
1,768784,2466,827,-536,-1464,-309,-41,230,284,-236
1,768797,2467,830,-532,-1466,-294,-47,230,284,-236
1,768813,2467,830,-532,-1466,-294,-47,230,284,-236
1,768825,2464,827,-528,-1493,-301,-42,230,284,-236
1,768838,2464,831,-528,-1524,-312,-48,230,284,-236
1,768852,2464,831,-528,-1524,-312,-48,230,284,-236
1,768866,2465,831,-523,-1498,-308,-39,230,284,-236
1,768880,2464,830,-523,-1476,-310,-42,229,277,-227
1,768893,2464,829,-525,-1460,-306,-37,229,277,-227
1,768908,2464,829,-525,-1460,-306,-37,229,277,-227
1,768921,2464,829,-525,-1460,-306,-37,229,277,-227
1,768935,2465,828,-527,-1467,-299,-39,229,277,-227
1,768951,2465,828,-527,-1467,-299,-39,229,277,-227
1,768963,2464,830,-544,-1437,-290,-39,229,277,-227
1,768975,2466,827,-540,-1433,-295,-35,229,277,-227
1,768990,2466,827,-540,-1433,-295,-35,229,277,-227
1,769003,2466,828,-528,-1498,-301,-51,227,281,-225
1,769016,2463,829,-528,-1501,-298,-45,227,281,-225
1,769031,2463,829,-528,-1501,-298,-45,227,281,-225
1,769042,2464,828,-529,-1471,-303,-40,227,281,-225
1,769055,2464,828,-531,-1472,-307,-39,227,281,-225
1,769069,2464,828,-531,-1472,-307,-39,227,281,-225
1,769083,2465,827,-524,-1484,-306,-38,227,281,-225
1,769097,2468,829,-528,-1474,-305,-38,227,281,-225
1,769113,2468,829,-528,-1474,-305,-38,227,281,-225
1,769129,2464,830,-523,-1454,-310,-36,229,275,-231
1,769143,2467,828,-526,-1439,-311,-36,229,275,-231
1,769158,2465,831,-539,-1450,-313,-35,229,275,-231
1,769171,2465,831,-539,-1450,-313,-35,229,275,-231
1,769185,2463,829,-522,-1464,-315,-40,229,275,-231
1,769201,2467,831,-536,-1456,-332,-32,229,275,-231
1,769212,2467,831,-536,-1456,-332,-32,229,275,-231
1,769225,2466,830,-537,-1481,-340,-10,229,275,-231
1,769240,2466,832,-540,-1528,-320,8,232,278,-236
1,769253,2468,831,-532,-1517,-303,-20,232,278,-236
1,769267,2468,831,-532,-1517,-303,-20,232,278,-236
1,769280,2465,827,-535,-1479,-274,-34,232,278,-236
1,769292,2465,827,-535,-1479,-274,-34,232,278,-236
1,769306,2466,828,-524,-1476,-259,-41,232,278,-236
1,769319,2465,824,-533,-1477,-254,-42,232,278,-236
1,769333,2464,827,-531,-1471,-271,-39,232,278,-236
1,769348,2464,827,-531,-1471,-271,-39,232,278,-236
1,769363,2464,827,-532,-1476,-280,-44,232,278,-236
1,769379,2464,825,-525,-1467,-292,-38,225,275,-229
1,769393,2464,827,-531,-1478,-295,-48,225,275,-229
1,769406,2464,827,-531,-1478,-295,-48,225,275,-229
1,769421,2466,829,-533,-1478,-298,-43,225,275,-229
1,769430,2466,829,-533,-1478,-298,-43,225,275,-229
1,769443,2464,830,-537,-1476,-297,-38,225,275,-229
1,769458,2469,827,-532,-1487,-306,-44,225,275,-229
1,769471,2469,827,-532,-1487,-306,-44,225,275,-229
1,769485,2466,828,-528,-1483,-306,-48,225,275,-229
1,769500,2466,829,-522,-1480,-303,-51,228,274,-232
1,769511,2466,829,-522,-1480,-303,-51,228,274,-232
1,769524,2464,826,-523,-1479,-306,-39,228,274,-232
1,769540,2464,827,-529,-1483,-307,-37,228,274,-232
1,769554,2465,827,-536,-1479,-302,-46,228,274,-232
1,769567,2465,827,-536,-1479,-302,-46,228,274,-232
1,769583,2464,827,-535,-1479,-299,-45,228,274,-232
1,769597,2465,829,-525,-1478,-308,-36,228,274,-232
1,769612,2465,829,-525,-1478,-308,-36,228,274,-232
1,769627,2467,829,-525,-1470,-299,-43,237,277,-229
1,769640,2464,825,-529,-1474,-303,-41,237,277,-229
1,769654,2465,827,-528,-1483,-302,-40,237,277,-229
1,769669,2465,827,-528,-1483,-302,-40,237,277,-229
1,769681,2464,828,-530,-1483,-303,-41,237,277,-229
1,769694,2465,828,-529,-1480,-305,-43,237,277,-229
1,769708,2465,828,-529,-1480,-305,-43,237,277,-229
1,769722,2469,830,-530,-1481,-307,-41,237,277,-229
1,769735,2466,829,-528,-1483,-304,-41,231,279,-239
1,769747,2466,829,-528,-1483,-304,-41,231,279,-239
1,769760,2466,831,-531,-1477,-306,-36,231,279,-239
1,769775,2468,829,-527,-1476,-301,-40,231,279,-239
1,769789,2468,829,-527,-1476,-301,-40,231,279,-239
1,769806,2465,827,-527,-1473,-301,-38,231,279,-239
1,769820,2466,829,-532,-1474,-298,-47,231,279,-239
1,769832,2466,829,-532,-1474,-298,-47,231,279,-239
1,769848,2465,831,-534,-1483,-304,-43,231,279,-239
1,769863,2465,828,-529,-1483,-302,-46,221,281,-227
1,769876,2466,827,-530,-1479,-305,-37,221,281,-227
1,769890,2466,827,-530,-1479,-305,-37,221,281,-227
1,769904,2465,828,-529,-1481,-301,-41,221,281,-227
1,769920,2466,831,-529,-1473,-300,-38,221,281,-227
1,769933,2467,828,-531,-1476,-301,-46,221,281,-227
1,769945,2467,828,-531,-1476,-301,-46,221,281,-227
1,769958,2466,828,-530,-1479,-305,-35,221,281,-227
1,769973,2466,828,-530,-1479,-305,-35,221,281,-227
1,769986,2467,824,-531,-1480,-308,-38,221,281,-227
1,770000,2467,830,-522,-1483,-305,-42,232,272,-226
1,770014,2467,829,-526,-1477,-303,-34,232,272,-226
1,770027,2467,829,-526,-1477,-303,-34,232,272,-226
1,770042,2464,826,-532,-1473,-300,-45,232,272,-226
1,770057,2463,830,-526,-1479,-303,-39,232,272,-226
1,770070,2463,830,-526,-1479,-303,-39,232,272,-226
1,770082,2466,829,-531,-1477,-304,-35,232,272,-226
1,770098,2465,826,-537,-1472,-296,-39,232,272,-226
1,770111,2465,826,-537,-1472,-296,-39,232,272,-226
1,770126,2466,830,-523,-1473,-297,-47,224,280,-236
1,770140,2464,828,-532,-1475,-302,-42,224,280,-236
1,770153,2464,828,-532,-1475,-302,-42,224,280,-236
1,770167,2462,827,-536,-1477,-302,-40,224,280,-236
1,770181,2466,829,-533,-1478,-306,-44,224,280,-236
1,770195,2466,826,-530,-1481,-310,-38,224,280,-236
1,770208,2466,826,-530,-1481,-310,-38,224,280,-236
1,770223,2467,829,-528,-1482,-311,-36,224,280,-236
1,770237,2464,828,-528,-1474,-302,-37,224,278,-234
1,770252,2464,828,-528,-1474,-302,-37,224,278,-234
1,770269,2467,832,-528,-1477,-295,-42,224,278,-234
1,770283,2468,830,-532,-1475,-299,-42,224,278,-234
1,770297,2467,827,-535,-1472,-309,-39,224,278,-234
1,770311,2467,827,-535,-1472,-309,-39,224,278,-234
1,770326,2464,827,-533,-1479,-307,-48,224,278,-234
1,770338,2465,826,-533,-1475,-303,-37,224,278,-234
1,770352,2465,826,-533,-1475,-303,-37,224,278,-234
1,770365,2465,827,-533,-1479,-298,-37,228,272,-228
1,770378,2467,827,-530,-1476,-298,-41,228,272,-228
1,770392,2467,827,-530,-1476,-298,-41,228,272,-228
1,770406,2465,827,-524,-1484,-292,-50,228,272,-228
1,770418,2467,828,-527,-1480,-302,-48,228,272,-228
1,770430,2467,828,-527,-1480,-302,-48,228,272,-228
1,770444,2464,830,-531,-1474,-301,-44,228,272,-228
1,770457,2465,829,-528,-1476,-304,-43,228,272,-228
1,770471,2465,829,-528,-1476,-304,-43,228,272,-228
1,770486,2466,829,-532,-1480,-310,-44,228,272,-228
1,770498,2465,828,-530,-1477,-304,-37,228,284,-234
1,770512,2465,828,-530,-1477,-304,-37,228,284,-234
1,770528,2465,827,-531,-1476,-300,-40,228,284,-234
1,770543,2464,828,-534,-1477,-307,-45,228,284,-234
1,770556,2465,828,-531,-1478,-304,-41,228,284,-234
1,770569,2465,828,-531,-1478,-304,-41,228,284,-234
1,770584,2466,828,-530,-1479,-306,-43,228,284,-234
1,770597,2470,842,-643,-1505,-298,-43,228,284,-234
1,770612,2470,842,-643,-1505,-298,-43,228,284,-234
1,770625,2471,809,-683,-1512,-252,-207,224,280,-232
1,770639,2470,824,-620,-1454,-362,-125,224,280,-232
1,770652,2470,824,-620,-1454,-362,-125,224,280,-232
1,770665,2464,828,-542,-1491,-298,-50,224,280,-232
1,770679,2464,830,-520,-1479,-309,-41,224,280,-232
1,770694,2464,830,-520,-1479,-309,-41,224,280,-232
1,770707,2462,833,-528,-1476,-309,-45,224,280,-232
1,770722,2466,828,-547,-1466,-349,-53,224,280,-232
1,770738,2465,832,-535,-1404,-427,-64,226,278,-232
1,770753,2465,832,-535,-1404,-427,-64,226,278,-232
1,770767,2463,826,-523,-1382,-525,-70,226,278,-232
1,770781,2462,818,-534,-1454,-584,-58,226,278,-232
1,770795,2465,631,-532,-1533,-605,-89,226,278,-232
1,770809,2465,631,-532,-1533,-605,-89,226,278,-232
1,770822,2463,904,-543,-1550,-528,-394,226,278,-232
1,770835,2466,887,-537,-1518,-431,62,226,278,-232
1,770848,2466,887,-537,-1518,-431,62,226,278,-232
1,770863,2464,845,-538,-1517,-396,474,245,269,-239
1,770876,2468,836,-536,-1541,-374,366,245,269,-239
1,770889,2468,836,-536,-1541,-374,366,245,269,-239
1,770902,2466,831,-539,-1538,-352,103,245,269,-239
1,770916,2466,827,-535,-1527,-318,7,245,269,-239
1,770930,2466,827,-535,-1527,-318,7,245,269,-239
1,770944,2465,826,-540,-1500,-299,-8,245,269,-239
1,770958,2466,826,-546,-1491,-289,16,245,269,-239
1,770969,2466,826,-546,-1491,-289,16,245,269,-239
1,770982,2465,825,-538,-1479,-276,26,245,269,-239
1,770991,2465,825,-538,-1479,-276,26,245,269,-239
1,771000,2466,825,-533,-1445,-255,28,244,266,-236
1,771014,2465,820,-531,-1400,-234,50,244,266,-236
1,771028,2465,820,-531,-1400,-234,50,244,266,-236
1,771042,2465,820,-532,-1373,-191,99,244,266,-236
1,771053,2465,820,-532,-1373,-191,99,244,266,-236
1,771066,2467,827,-536,-1366,-154,70,244,266,-236
1,771081,2462,826,-539,-1433,-71,-1,244,266,-236
1,771094,2464,826,-537,-1515,19,-13,244,266,-236
1,771108,2464,826,-537,-1515,19,-13,244,266,-236
1,771122,2465,826,-528,-1534,-29,-125,248,272,-228
1,771134,2463,822,-520,-1508,-167,-400,248,272,-228
1,771147,2463,822,-520,-1508,-167,-400,248,272,-228
1,771161,2466,830,-520,-1483,-267,-431,248,272,-228
1,771176,2466,830,-537,-1467,-285,-269,248,272,-228
1,771190,2466,830,-537,-1467,-285,-269,248,272,-228
1,771204,2465,826,-526,-1478,-286,-150,248,272,-228
1,771217,2464,832,-527,-1493,-293,-91,248,272,-228
1,771231,2464,832,-527,-1493,-293,-91,248,272,-228
1,771247,2465,825,-532,-1486,-292,-35,245,267,-235
1,771259,2464,838,-529,-1474,-289,20,245,267,-235
1,771272,2464,838,-529,-1474,-289,20,245,267,-235
1,771287,2465,823,-531,-1483,-282,243,245,267,-235
1,771301,2463,827,-535,-1466,-289,303,245,267,-235
1,771314,2464,819,-522,-1458,-286,193,245,267,-235
1,771329,2464,819,-522,-1458,-286,193,245,267,-235
1,771343,2463,824,-521,-1476,-302,48,245,267,-235
1,771357,2465,823,-523,-1488,-306,-28,248,268,-226
1,771368,2465,823,-523,-1488,-306,-28,248,268,-226
1,771383,2467,825,-523,-1498,-301,-48,248,268,-226
1,771398,2462,822,-525,-1491,-298,-54,248,268,-226
1,771410,2462,822,-525,-1491,-298,-54,248,268,-226
1,771426,2466,824,-526,-1469,-291,-44,248,268,-226
1,771441,2465,823,-533,-1467,-299,-39,248,268,-226
1,771456,2469,822,-530,-1474,-297,-41,248,268,-226
1,771469,2469,822,-530,-1474,-297,-41,248,268,-226
1,771483,2465,823,-532,-1481,-297,-44,248,268,-226
1,771499,2466,822,-520,-1488,-295,-43,248,266,-238
1,771512,2466,822,-520,-1488,-295,-43,248,266,-238
1,771523,2466,825,-530,-1473,-298,-42,248,266,-238
1,771536,2466,822,-538,-1460,-299,-34,248,266,-238
1,771550,2466,822,-538,-1460,-299,-34,248,266,-238
1,771563,2467,823,-537,-1472,-295,-32,248,266,-238
1,771577,2463,826,-519,-1483,-303,-33,248,266,-238
1,771589,2463,826,-519,-1483,-303,-33,248,266,-238
1,771603,2464,822,-528,-1474,-299,-32,248,266,-238
1,771617,2467,823,-532,-1470,-299,-42,246,268,-234
1,771633,2467,823,-532,-1470,-299,-42,246,268,-234
1,771646,2466,821,-530,-1466,-301,-41,246,268,-234
1,771661,2463,822,-533,-1466,-306,-41,246,268,-234
1,771677,2468,822,-530,-1475,-306,-40,246,268,-234
1,771691,2468,822,-530,-1475,-306,-40,246,268,-234
1,771706,2464,822,-526,-1481,-305,-46,246,268,-234
1,771720,2466,824,-528,-1477,-304,-43,246,268,-234
1,771734,2466,824,-528,-1477,-304,-43,246,268,-234
1,771747,2464,825,-527,-1484,-299,-39,252,274,-238
1,771760,2465,822,-529,-1484,-299,-40,252,274,-238
1,771772,2465,822,-529,-1484,-299,-40,252,274,-238
1,771785,2462,823,-534,-1487,-309,-41,252,274,-238
1,771800,2466,823,-529,-1487,-296,-43,252,274,-238
1,771813,2466,823,-529,-1487,-296,-43,252,274,-238
1,771825,2464,822,-530,-1480,-297,-55,252,274,-238
1,771837,2466,825,-536,-1468,-302,-66,252,274,-238
1,771852,2466,825,-536,-1468,-302,-66,252,274,-238
1,771861,2465,824,-528,-1466,-313,-63,254,264,-236
1,771874,2466,823,-527,-1470,-295,-44,254,264,-236
1,771888,2466,823,-527,-1470,-295,-44,254,264,-236
1,771902,2464,822,-514,-1482,-288,-46,254,264,-236
1,771917,2468,821,-533,-1480,-297,-48,254,264,-236
1,771930,2468,821,-533,-1480,-297,-48,254,264,-236
