imu,time,ax,ay,az,gx,gy,gz,mx,my,mz
2,2628359,-1401,493,2344,6369,195,-80,53,-27,-145
2,2628374,-1405,502,2345,6368,186,-87,53,-27,-145
2,2628388,-1408,504,2338,6376,195,-87,53,-27,-145
2,2628401,-1408,504,2338,6376,195,-87,53,-27,-145
2,2628417,-1409,518,2344,6369,192,-87,58,-26,-154
2,2628429,-1404,495,2344,6372,188,-87,58,-26,-154
2,2628444,-1404,495,2344,6372,188,-87,58,-26,-154
2,2628457,-1405,503,2340,6371,184,-90,58,-26,-154
2,2628471,-1410,502,2342,6369,194,-86,58,-26,-154
2,2628486,-1410,502,2342,6369,194,-86,58,-26,-154
2,2628497,-1407,526,2337,6369,190,-75,58,-26,-154
2,2628512,-1406,499,2344,6377,186,-81,58,-26,-154
2,2628527,-1405,511,2346,6371,190,-85,52,-26,-164
2,2628542,-1405,511,2346,6371,190,-85,52,-26,-164
2,2628555,-1406,511,2345,6376,183,-92,52,-26,-164
2,2628570,-1410,532,2345,6374,177,-93,52,-26,-164
2,2628577,-1410,532,2345,6374,177,-93,52,-26,-164
2,2628587,-1405,513,2342,6370,185,-86,52,-26,-164
2,2628600,-1405,513,2342,6370,185,-86,52,-26,-164
2,2628614,-1404,516,2351,6377,189,-89,52,-26,-164
2,2628629,-1401,510,2347,6374,189,-88,52,-26,-164
2,2628637,-1401,510,2347,6374,189,-88,52,-26,-164
2,2628651,-1407,520,2353,6372,187,-89,60,-26,-164
2,2628663,-1407,520,2353,6372,187,-89,60,-26,-164
2,2628671,-1407,495,2347,6378,189,-88,60,-26,-164
2,2628679,-1407,495,2347,6378,189,-88,60,-26,-164
2,2628687,-1408,508,2346,6379,191,-89,60,-26,-164
2,2628697,-1408,508,2346,6379,191,-89,60,-26,-164
2,2628702,-1408,508,2346,6379,191,-89,60,-26,-164
2,2628708,-1408,489,2342,6368,187,-86,60,-26,-164
2,2628715,-1408,489,2342,6368,187,-86,60,-26,-164
2,2628721,-1408,489,2342,6368,187,-86,60,-26,-164
2,2628727,-1410,469,2350,6371,189,-88,60,-26,-164
2,2628733,-1410,469,2350,6371,189,-88,60,-26,-164
2,2628740,-1410,469,2350,6371,189,-88,60,-26,-164
2,2628746,-1410,469,2350,6371,189,-88,60,-26,-164
2,2628752,-1401,492,2346,6375,187,-95,60,-26,-164
2,2628758,-1401,492,2346,6375,187,-95,60,-26,-164
2,2628764,-1401,492,2346,6375,187,-95,60,-26,-164
2,2628769,-1402,486,2351,6375,189,-89,56,-26,-172
2,2628776,-1402,486,2351,6375,189,-89,56,-26,-172
2,2628783,-1402,486,2351,6375,189,-89,56,-26,-172
2,2628789,-1402,480,2342,6373,190,-89,56,-26,-172
2,2628794,-1402,480,2342,6373,190,-89,56,-26,-172
2,2628800,-1402,480,2342,6373,190,-89,56,-26,-172
2,2628807,-1408,481,2344,6370,186,-85,56,-26,-172
2,2628812,-1408,481,2344,6370,186,-85,56,-26,-172
2,2628818,-1408,481,2344,6370,186,-85,56,-26,-172
2,2628825,-1408,481,2344,6370,186,-85,56,-26,-172
2,2628834,-1406,492,2338,6362,193,-88,56,-26,-172
2,2628842,-1406,492,2338,6362,193,-88,56,-26,-172
2,2628852,-1403,495,2344,6367,185,-82,56,-26,-172
2,2628860,-1403,495,2344,6367,185,-82,56,-26,-172
2,2628869,-1411,477,2339,6370,184,-87,56,-26,-172
2,2628877,-1411,477,2339,6370,184,-87,56,-26,-172
2,2628891,-1403,482,2338,6364,182,-96,59,-27,-187
2,2628905,-1403,482,2338,6364,182,-96,59,-27,-187
2,2628917,-1404,480,2344,6360,188,-97,59,-27,-187
2,2628932,-1408,488,2341,6368,184,-88,59,-27,-187
2,2628946,-1404,482,2336,6367,186,-86,59,-27,-187
2,2628960,-1404,482,2336,6367,186,-86,59,-27,-187
2,2628974,-1403,494,2335,6368,191,-90,59,-27,-187
2,2628985,-1403,494,2335,6368,191,-90,59,-27,-187
2,2628999,-1404,494,2341,6366,188,-86,59,-27,-187
2,2629014,-1407,490,2336,6363,187,-86,59,-27,-187
2,2629029,-1404,490,2340,6358,181,-83,57,-23,-189
2,2629045,-1404,490,2340,6358,181,-83,57,-23,-189
2,2629059,-1404,496,2341,6358,192,-90,57,-23,-189
2,2629071,-1408,483,2336,6353,194,-95,57,-23,-189
2,2629086,-1408,483,2336,6353,194,-95,57,-23,-189
2,2629100,-1408,485,2336,6356,189,-92,57,-23,-189
2,2629113,-1404,492,2330,6364,186,-95,57,-23,-189
2,2629127,-1408,495,2334,6354,191,-90,57,-23,-189
2,2629141,-1408,495,2334,6354,191,-90,57,-23,-189
2,2629155,-1408,490,2335,6356,184,-89,66,-22,-208
2,2629169,-1406,503,2333,6356,192,-90,66,-22,-208
2,2629182,-1406,503,2333,6356,192,-90,66,-22,-208
2,2629195,-1402,513,2338,6355,193,-87,66,-22,-208
2,2629210,-1406,537,2334,6350,191,-86,66,-22,-208
2,2629224,-1406,537,2334,6350,191,-86,66,-22,-208
2,2629238,-1410,552,2336,6354,190,-81,66,-22,-208
2,2629248,-1407,545,2331,6356,190,-85,66,-22,-208
2,2629260,-1407,545,2331,6356,190,-85,66,-22,-208
2,2629274,-1406,539,2340,6355,190,-95,75,-21,-199
2,2629289,-1404,562,2333,6367,189,-88,75,-21,-199
2,2629297,-1404,562,2333,6367,189,-88,75,-21,-199
2,2629307,-1408,539,2338,6367,186,-88,75,-21,-199
2,2629315,-1408,539,2338,6367,186,-88,75,-21,-199
2,2629324,-1408,539,2338,6367,186,-88,75,-21,-199
2,2629334,-1408,539,2338,6367,186,-88,75,-21,-199
2,2629343,-1408,539,2338,6367,186,-88,75,-21,-199
2,2629352,-1400,519,2344,6376,193,-95,75,-21,-199
2,2629360,-1400,519,2344,6376,193,-95,75,-21,-199
2,2629369,-1403,544,2349,6377,195,-94,75,-21,-199
2,2629379,-1403,544,2349,6377,195,-94,75,-21,-199
2,2629390,-1402,507,2345,6378,183,-85,94,-16,-212
2,2629403,-1402,507,2345,6378,183,-85,94,-16,-212
2,2629416,-1402,507,2345,6378,183,-85,94,-16,-212
2,2629430,-1403,496,2341,6370,192,-87,94,-16,-212
2,2629444,-1403,496,2341,6370,192,-87,94,-16,-212
2,2629456,-1404,520,2344,6366,196,-88,94,-16,-212
2,2629469,-1405,487,2336,6366,186,-89,94,-16,-212
2,2629482,-1405,487,2336,6366,186,-89,94,-16,-212
2,2629495,-1408,529,2344,6371,192,-89,94,-16,-212
2,2629510,-1395,494,2353,6370,194,-85,90,-22,-226
2,2629525,-1395,494,2353,6370,194,-85,90,-22,-226
2,2629541,-1413,514,2355,6370,195,-89,90,-22,-226
2,2629555,-1403,497,2341,6376,188,-93,90,-22,-226
2,2629568,-1410,527,2347,6374,197,-86,90,-22,-226
2,2629583,-1410,527,2347,6374,197,-86,90,-22,-226
2,2629595,-1400,490,2349,6374,193,-83,90,-22,-226
2,2629602,-1400,490,2349,6374,193,-83,90,-22,-226
2,2629616,-1410,509,2340,6369,191,-87,90,-22,-226
2,2629630,-1401,490,2343,6371,186,-83,90,-22,-226
2,2629642,-1401,490,2343,6371,186,-83,90,-22,-226
2,2629653,-1410,515,2345,6370,188,-88,113,-17,-215
2,2629667,-1406,490,2340,6374,196,-87,113,-17,-215
2,2629681,-1406,490,2340,6374,196,-87,113,-17,-215
2,2629695,-1408,507,2344,6368,189,-93,113,-17,-215
2,2629707,-1405,492,2348,6369,187,-88,113,-17,-215
2,2629720,-1405,492,2348,6369,187,-88,113,-17,-215
2,2629734,-1409,505,2337,6368,189,-87,113,-17,-215
2,2629748,-1406,496,2347,6371,187,-86,113,-17,-215
2,2629762,-1406,496,2347,6371,187,-86,113,-17,-215
2,2629777,-1406,501,2345,6370,196,-86,107,-13,-221
2,2629792,-1403,464,2350,6373,193,-88,107,-13,-221
2,2629808,-1403,498,2336,6376,190,-83,107,-13,-221
2,2629823,-1403,498,2336,6376,190,-83,107,-13,-221
2,2629836,-1406,484,2342,6372,182,-79,107,-13,-221
2,2629850,-1407,499,2336,6367,190,-84,107,-13,-221
2,2629865,-1407,499,2336,6367,190,-84,107,-13,-221
2,2629875,-1403,471,2339,6362,189,-95,107,-13,-221
2,2629889,-1407,493,2335,6361,185,-85,126,-26,-220
2,2629902,-1407,493,2335,6361,185,-85,126,-26,-220
2,2629916,-1403,485,2349,6366,185,-85,126,-26,-220
2,2629929,-1404,494,2335,6364,183,-83,126,-26,-220
2,2629944,-1404,494,2335,6364,183,-83,126,-26,-220
2,2629956,-1403,483,2341,6362,189,-89,126,-26,-220
2,2629969,-1401,498,2341,6355,192,-91,126,-26,-220
2,2629983,-1401,498,2341,6355,192,-91,126,-26,-220
2,2629997,-1406,490,2332,6356,188,-87,126,-26,-220
2,2630011,-1408,496,2334,6359,187,-90,116,-26,-226
2,2630026,-1408,496,2334,6359,187,-90,116,-26,-226
2,2630039,-1406,491,2336,6361,188,-90,116,-26,-226
2,2630053,-1403,496,2344,6361,192,-84,116,-26,-226
2,2630069,-1405,498,2333,6359,188,-87,116,-26,-226
2,2630081,-1405,498,2333,6359,188,-87,116,-26,-226
2,2630092,-1410,503,2340,6362,188,-91,116,-26,-226
2,2630107,-1410,503,2340,6362,188,-91,116,-26,-226
2,2630120,-1403,512,2333,6359,185,-100,116,-26,-226
2,2630133,-1408,504,2339,6356,190,-91,125,-21,-229
2,2630148,-1407,513,2332,6360,196,-94,125,-21,-229
2,2630162,-1407,513,2332,6360,196,-94,125,-21,-229
2,2630173,-1409,519,2341,6361,195,-85,125,-21,-229
2,2630188,-1403,520,2337,6358,196,-87,125,-21,-229
2,2630202,-1403,520,2337,6358,196,-87,125,-21,-229
2,2630215,-1405,524,2330,6353,191,-88,125,-21,-229
2,2630231,-1407,524,2334,6367,191,-83,125,-21,-229
2,2630245,-1407,524,2334,6367,191,-83,125,-21,-229
2,2630258,-1409,545,2336,6363,189,-91,136,-28,-228
2,2630269,-1410,529,2340,6363,188,-89,136,-28,-228
2,2630285,-1410,529,2340,6363,188,-89,136,-28,-228
2,2630296,-1407,547,2336,6363,185,-92,136,-28,-228
2,2630311,-1404,523,2343,6366,188,-96,136,-28,-228
2,2630326,-1404,523,2343,6366,188,-96,136,-28,-228
2,2630340,-1403,547,2339,6365,183,-99,136,-28,-228
2,2630353,-1406,519,2341,6369,179,-92,136,-28,-228
2,2630367,-1406,519,2341,6369,179,-92,136,-28,-228
2,2630382,-1410,544,2344,6369,190,-96,136,-28,-228
2,2630394,-1401,508,2347,6372,195,-83,133,-23,-231
2,2630407,-1401,508,2347,6372,195,-83,133,-23,-231
2,2630420,-1410,538,2336,6367,187,-90,133,-23,-231
2,2630432,-1404,509,2345,6370,193,-93,133,-23,-231
2,2630448,-1404,509,2345,6370,193,-93,133,-23,-231
2,2630464,-1404,509,2345,6370,193,-93,133,-23,-231
2,2630479,-1403,497,2344,6371,191,-81,133,-23,-231
2,2630495,-1407,521,2349,6367,189,-82,133,-23,-231
2,2630510,-1400,496,2352,6369,192,-87,144,-30,-220
2,2630523,-1400,496,2352,6369,192,-87,144,-30,-220
2,2630538,-1406,522,2349,6375,191,-90,144,-30,-220
2,2630552,-1400,455,2348,6373,196,-92,144,-30,-220
2,2630563,-1400,455,2348,6373,196,-92,144,-30,-220
2,2630576,-1402,512,2339,6372,201,-94,144,-30,-220
2,2630589,-1404,477,2346,6371,199,-83,144,-30,-220
2,2630603,-1404,477,2346,6371,199,-83,144,-30,-220
2,2630617,-1406,516,2341,6373,190,-84,144,-30,-220
2,2630630,-1406,466,2349,6375,191,-97,150,-12,-224
2,2630643,-1406,466,2349,6375,191,-97,150,-12,-224
2,2630657,-1402,504,2345,6373,194,-94,150,-12,-224
2,2630671,-1399,477,2343,6364,194,-83,150,-12,-224
2,2630683,-1399,477,2343,6364,194,-83,150,-12,-224
2,2630700,-1413,503,2337,6371,190,-90,150,-12,-224
2,2630716,-1403,484,2347,6369,194,-89,150,-12,-224
2,2630731,-1407,506,2338,6358,195,-86,150,-12,-224
2,2630746,-1407,506,2338,6358,195,-86,150,-12,-224
2,2630760,-1400,485,2339,6362,191,-79,158,-16,-220
2,2630773,-1411,496,2336,6358,189,-89,158,-16,-220
2,2630788,-1411,496,2336,6358,189,-89,158,-16,-220
2,2630801,-1405,491,2336,6368,196,-92,158,-16,-220
2,2630812,-1404,495,2338,6374,203,-88,158,-16,-220
2,2630825,-1404,495,2338,6374,203,-88,158,-16,-220
2,2630840,-1410,487,2333,6368,189,-85,158,-16,-220
2,2630853,-1408,493,2337,6363,185,-83,158,-16,-220
2,2630866,-1408,493,2337,6363,185,-83,158,-16,-220
2,2630878,-1404,503,2338,6361,185,-90,166,2,-218
2,2630892,-1404,490,2344,6355,186,-83,166,2,-218
2,2630905,-1404,490,2344,6355,186,-83,166,2,-218
2,2630920,-1404,494,2333,6358,185,-91,166,2,-218
2,2630934,-1402,497,2336,6358,188,-92,166,2,-218
2,2630946,-1402,497,2336,6358,188,-92,166,2,-218
2,2630962,-1403,509,2331,6355,182,-85,166,2,-218
2,2630975,-1407,499,2334,6357,190,-87,166,2,-218
2,2630989,-1406,516,2330,6358,198,-93,166,2,-218
2,2631006,-1406,516,2330,6358,198,-93,166,2,-218
2,2631019,-1405,533,2343,6354,192,-88,161,3,-215
2,2631031,-1405,533,2343,6354,192,-88,161,3,-215
2,2631046,-1405,533,2343,6354,192,-88,161,3,-215
2,2631059,-1407,534,2345,6363,189,-80,161,3,-215
2,2631073,-1404,530,2334,6363,186,-82,161,3,-215
2,2631087,-1404,530,2334,6363,186,-82,161,3,-215
2,2631101,-1400,538,2346,6365,181,-80,161,3,-215
2,2631112,-1408,539,2336,6371,188,-80,161,3,-215
2,2631126,-1408,539,2336,6371,188,-80,161,3,-215
2,2631139,-1408,537,2352,6368,188,-89,168,-4,-206
2,2631153,-1404,524,2335,6370,183,-87,168,-4,-206
2,2631168,-1404,524,2335,6370,183,-87,168,-4,-206
2,2631183,-1407,529,2347,6373,188,-88,168,-4,-206
2,2631195,-1404,512,2339,6368,191,-82,168,-4,-206
2,2631209,-1409,522,2342,6369,194,-92,168,-4,-206
2,2631225,-1409,522,2342,6369,194,-92,168,-4,-206
2,2631240,-1404,499,2343,6369,189,-87,168,-4,-206
2,2631256,-1404,511,2350,6363,179,-85,162,-6,-204
2,2631267,-1404,511,2350,6363,179,-85,162,-6,-204
2,2631281,-1404,496,2342,6368,180,-91,162,-6,-204
2,2631294,-1407,518,2344,6365,193,-92,162,-6,-204
2,2631308,-1403,503,2350,6368,189,-97,162,-6,-204
2,2631322,-1403,503,2350,6368,189,-97,162,-6,-204
2,2631336,-1408,511,2342,6368,187,-92,162,-6,-204
2,2631350,-1405,508,2343,6367,186,-90,162,-6,-204
2,2631362,-1405,508,2343,6367,186,-90,162,-6,-204
2,2631377,-1406,526,2343,6364,181,-92,165,-1,-207
2,2631392,-1407,508,2349,6373,192,-91,165,-1,-207
2,2631404,-1407,508,2349,6373,192,-91,165,-1,-207
2,2631419,-1406,519,2340,6375,189,-88,165,-1,-207
2,2631435,-1407,505,2352,6373,189,-85,165,-1,-207
2,2631447,-1407,505,2352,6373,189,-85,165,-1,-207
2,2631460,-1410,535,2343,6375,193,-81,165,-1,-207
2,2631475,-1411,512,2346,6371,190,-89,165,-1,-207
2,2631490,-1402,525,2343,6373,193,-88,166,-2,-198
2,2631502,-1402,525,2343,6373,193,-88,166,-2,-198
2,2631515,-1401,496,2350,6366,188,-87,166,-2,-198
2,2631528,-1404,519,2347,6372,189,-88,166,-2,-198
2,2631542,-1404,519,2347,6372,189,-88,166,-2,-198
2,2631556,-1406,499,2343,6368,184,-87,166,-2,-198
2,2631570,-1405,513,2342,6369,191,-95,166,-2,-198
2,2631580,-1405,513,2342,6369,191,-95,166,-2,-198
2,2631595,-1404,455,2340,6375,189,-92,166,-2,-198
2,2631607,-1404,455,2340,6375,189,-92,166,-2,-198
2,2631620,-1406,494,2342,6375,186,-91,166,-2,-198
2,2631631,-1402,479,2342,6376,191,-93,166,-6,-194
2,2631646,-1402,479,2342,6376,191,-93,166,-6,-194
2,2631661,-1409,508,2348,6370,187,-89,166,-6,-194
2,2631676,-1403,462,2335,6362,189,-92,166,-6,-194
2,2631692,-1400,500,2348,6361,188,-89,166,-6,-194
2,2631704,-1400,500,2348,6361,188,-89,166,-6,-194
2,2631716,-1397,487,2333,6365,189,-84,166,-6,-194
2,2631731,-1413,508,2340,6362,188,-81,166,-6,-194
2,2631744,-1413,508,2340,6362,188,-81,166,-6,-194
2,2631758,-1398,484,2343,6364,184,-87,167,-11,-187
2,2631770,-1406,492,2338,6365,190,-92,167,-11,-187
2,2631784,-1406,492,2338,6365,190,-92,167,-11,-187
2,2631797,-1403,485,2336,6365,190,-83,167,-11,-187
2,2631812,-1410,493,2336,6365,183,-87,167,-11,-187
2,2631825,-1410,493,2336,6365,183,-87,167,-11,-187
2,2631839,-1405,497,2335,6365,184,-83,167,-11,-187
2,2631852,-1406,488,2336,6357,185,-94,167,-11,-187
2,2631864,-1406,488,2336,6357,185,-94,167,-11,-187
2,2631872,-1401,490,2338,6355,181,-92,170,2,-178
2,2631886,-1401,490,2338,6355,181,-92,170,2,-178
2,2631898,-1401,490,2338,6355,181,-92,170,2,-178
2,2631912,-1404,497,2334,6352,184,-88,170,2,-178
2,2631927,-1404,497,2334,6352,184,-88,170,2,-178
2,2631944,-1403,486,2334,6358,189,-96,170,2,-178
2,2631956,-1406,486,2334,6355,197,-89,170,2,-178
2,2631968,-1406,486,2334,6355,197,-89,170,2,-178
2,2631983,-1405,490,2327,6355,187,-95,170,2,-178
2,2631996,-1409,499,2334,6351,186,-86,163,-7,-171
2,2632009,-1406,491,2332,6351,183,-88,163,-7,-171
2,2632025,-1406,491,2332,6351,183,-88,163,-7,-171
2,2632038,-1405,498,2330,6358,193,-94,163,-7,-171
2,2632050,-1405,514,2333,6355,187,-94,163,-7,-171
2,2632065,-1405,514,2333,6355,187,-94,163,-7,-171
2,2632078,-1410,557,2334,6349,178,-90,163,-7,-171
2,2632092,-1409,558,2331,6357,191,-89,163,-7,-171
2,2632107,-1409,558,2331,6357,191,-89,163,-7,-171
2,2632122,-1405,541,2335,6356,192,-96,168,-16,-174
2,2632136,-1408,534,2334,6356,181,-87,168,-16,-174
2,2632152,-1407,551,2336,6365,182,-80,168,-16,-174
2,2632165,-1407,551,2336,6365,182,-80,168,-16,-174
2,2632179,-1415,556,2345,6370,185,-78,168,-16,-174
2,2632193,-1412,536,2343,6370,189,-85,168,-16,-174
2,2632204,-1412,536,2343,6370,189,-85,168,-16,-174
2,2632216,-1403,535,2340,6371,192,-92,168,-16,-174
2,2632229,-1405,531,2346,6371,193,-90,168,-16,-174
2,2632244,-1405,531,2346,6371,193,-90,168,-16,-174
2,2632258,-1407,534,2344,6379,186,-84,155,-17,-163
2,2632270,-1405,516,2346,6376,184,-92,155,-17,-163
2,2632284,-1405,516,2346,6376,184,-92,155,-17,-163
2,2632297,-1405,512,2344,6369,189,-78,155,-17,-163
2,2632311,-1400,500,2343,6376,189,-71,155,-17,-163
2,2632323,-1400,500,2343,6376,189,-71,155,-17,-163
2,2632336,-1410,505,2341,6366,194,-76,155,-17,-163
2,2632349,-1406,511,2345,6370,193,-88,155,-17,-163
2,2632365,-1406,511,2345,6370,193,-88,155,-17,-163
2,2632379,-1408,497,2348,6369,190,-89,152,-16,-146
2,2632392,-1404,493,2347,6364,183,-89,152,-16,-146
2,2632404,-1404,493,2347,6364,183,-89,152,-16,-146
2,2632418,-1407,500,2345,6372,187,-85,152,-16,-146
2,2632431,-1408,513,2340,6369,181,-83,152,-16,-146
2,2632445,-1408,513,2340,6369,181,-83,152,-16,-146
2,2632459,-1401,501,2339,6369,193,-87,152,-16,-146
2,2632470,-1410,507,2343,6370,194,-93,152,-16,-146
2,2632483,-1410,507,2343,6370,194,-93,152,-16,-146
2,2632497,-1404,505,2342,6372,191,-90,148,-16,-146
2,2632508,-1404,505,2342,6372,191,-90,148,-16,-146
2,2632523,-1407,513,2343,6377,200,-92,148,-16,-146
2,2632537,-1407,493,2341,6373,198,-92,148,-16,-146
2,2632550,-1404,499,2342,6366,199,-87,148,-16,-146
2,2632566,-1404,499,2342,6366,199,-87,148,-16,-146
2,2632581,-1403,493,2340,6373,193,-87,148,-16,-146
2,2632594,-1406,503,2336,6368,191,-83,148,-16,-146
2,2632605,-1406,503,2336,6368,191,-83,148,-16,-146
2,2632620,-1403,496,2347,6363,196,-92,142,-12,-138
2,2632633,-1406,497,2342,6368,187,-87,142,-12,-138
2,2632646,-1406,497,2342,6368,187,-87,142,-12,-138
2,2632659,-1407,490,2341,6362,191,-85,142,-12,-138
2,2632672,-1405,478,2339,6365,187,-89,142,-12,-138
2,2632685,-1405,478,2339,6365,187,-89,142,-12,-138
2,2632698,-1404,497,2339,6367,185,-88,142,-12,-138
2,2632713,-1406,486,2340,6361,184,-89,142,-12,-138
2,2632727,-1406,486,2340,6361,184,-89,142,-12,-138
2,2632737,-1405,483,2338,6363,191,-88,137,-21,-135
2,2632752,-1403,487,2337,6358,185,-90,137,-21,-135
2,2632766,-1403,487,2337,6358,185,-90,137,-21,-135
2,2632781,-1409,489,2339,6364,195,-84,137,-21,-135
2,2632794,-1400,494,2341,6363,195,-86,137,-21,-135
2,2632808,-1400,494,2341,6363,195,-86,137,-21,-135
2,2632824,-1406,494,2340,6357,188,-86,137,-21,-135
2,2632839,-1402,498,2334,6361,192,-92,137,-21,-135
2,2632852,-1404,492,2344,6351,194,-84,137,-21,-135
2,2632865,-1404,492,2344,6351,194,-84,137,-21,-135
2,2632879,-1404,496,2333,6355,192,-88,119,-23,-127
2,2632893,-1407,496,2334,6355,195,-85,119,-23,-127
2,2632905,-1407,496,2334,6355,195,-85,119,-23,-127
2,2632919,-1408,501,2331,6363,190,-90,119,-23,-127
2,2632932,-1406,496,2333,6364,188,-85,119,-23,-127
2,2632946,-1406,496,2333,6364,188,-85,119,-23,-127
2,2632962,-1404,508,2332,6352,190,-82,119,-23,-127
2,2632976,-1406,511,2333,6355,189,-87,119,-23,-127
2,2632987,-1406,511,2333,6355,189,-87,119,-23,-127
2,2633003,-1405,513,2340,6352,188,-89,124,-24,-124
2,2633017,-1405,526,2334,6352,192,-89,124,-24,-124
2,2633031,-1407,507,2343,6353,189,-91,124,-24,-124
2,2633043,-1407,507,2343,6353,189,-91,124,-24,-124
2,2633058,-1409,520,2331,6361,190,-89,124,-24,-124
2,2633071,-1411,512,2339,6364,187,-80,124,-24,-124
2,2633085,-1411,512,2339,6364,187,-80,124,-24,-124
2,2633099,-1411,532,2333,6364,191,-88,124,-24,-124
2,2633112,-1411,524,2341,6362,191,-83,114,-32,-112
2,2633122,-1411,524,2341,6362,191,-83,114,-32,-112
2,2633136,-1410,524,2340,6362,188,-93,114,-32,-112
2,2633147,-1410,524,2340,6362,188,-93,114,-32,-112
2,2633161,-1406,531,2338,6363,185,-89,114,-32,-112
2,2633174,-1410,530,2340,6366,190,-81,114,-32,-112
2,2633187,-1410,530,2340,6366,190,-81,114,-32,-112
2,2633200,-1408,524,2340,6364,186,-85,114,-32,-112
2,2633213,-1407,526,2341,6373,188,-92,114,-32,-112
2,2633229,-1407,526,2341,6373,188,-92,114,-32,-112
2,2633244,-1408,522,2347,6370,193,-86,110,-34,-104
2,2633260,-1409,519,2347,6362,195,-86,110,-34,-104
2,2633275,-1406,520,2348,6370,195,-85,110,-34,-104
2,2633289,-1406,520,2348,6370,195,-85,110,-34,-104
2,2633303,-1408,520,2343,6359,185,-86,110,-34,-104
2,2633316,-1406,507,2344,6364,189,-88,110,-34,-104
2,2633327,-1406,507,2344,6364,189,-88,110,-34,-104
2,2633341,-1410,504,2344,6367,192,-79,110,-34,-104
2,2633355,-1406,505,2343,6370,184,-87,100,-20,-114
2,2633369,-1406,505,2343,6370,184,-87,100,-20,-114
2,2633382,-1405,502,2346,6363,189,-82,100,-20,-114
2,2633396,-1403,502,2349,6368,189,-82,100,-20,-114
2,2633407,-1403,502,2349,6368,189,-82,100,-20,-114
2,2633421,-1403,466,2342,6370,183,-83,100,-20,-114
2,2633437,-1404,499,2343,6363,191,-92,100,-20,-114
2,2633450,-1404,499,2343,6363,191,-92,100,-20,-114
2,2633464,-1403,481,2339,6368,194,-84,100,-20,-114
2,2633480,-1406,505,2347,6363,189,-85,100,-20,-114
2,2633495,-1407,466,2340,6362,195,-88,109,-31,-101
2,2633509,-1407,466,2340,6362,195,-88,109,-31,-101
2,2633524,-1404,502,2341,6370,191,-94,109,-31,-101
2,2633537,-1400,481,2341,6360,188,-80,109,-31,-101
2,2633551,-1415,504,2339,6360,189,-83,109,-31,-101
2,2633563,-1415,504,2339,6360,189,-83,109,-31,-101
2,2633575,-1399,477,2334,6355,180,-87,109,-31,-101
2,2633588,-1399,477,2334,6355,180,-87,109,-31,-101
2,2633603,-1410,503,2343,6360,189,-96,109,-31,-101
2,2633616,-1400,483,2341,6362,190,-89,81,-33,-99
2,2633631,-1409,502,2339,6355,190,-85,81,-33,-99
2,2633645,-1409,502,2339,6355,190,-85,81,-33,-99
2,2633657,-1402,489,2339,6361,187,-101,81,-33,-99
2,2633670,-1402,489,2339,6361,187,-101,81,-33,-99
2,2633684,-1402,489,2339,6361,187,-101,81,-33,-99
2,2633699,-1403,481,2333,6357,190,-94,81,-33,-99
2,2633714,-1408,500,2336,6359,196,-90,81,-33,-99
2,2633730,-1408,500,2336,6359,196,-90,81,-33,-99
2,2633745,-1404,495,2337,6358,192,-95,82,-30,-106
2,2633758,-1408,496,2333,6354,188,-88,82,-30,-106
2,2633773,-1409,486,2328,6362,185,-92,82,-30,-106
2,2633787,-1409,486,2328,6362,185,-92,82,-30,-106
2,2633799,-1406,500,2336,6361,192,-89,82,-30,-106
2,2633811,-1407,506,2332,6350,187,-90,82,-30,-106
2,2633825,-1407,506,2332,6350,187,-90,82,-30,-106
2,2633839,-1411,510,2331,6354,185,-87,82,-30,-106
2,2633852,-1408,511,2332,6355,179,-81,76,-36,-106
2,2633867,-1408,511,2332,6355,179,-81,76,-36,-106
2,2633879,-1410,557,2340,6355,187,-89,76,-36,-106
2,2633891,-1412,534,2344,6356,184,-89,76,-36,-106
2,2633905,-1412,534,2344,6356,184,-89,76,-36,-106
2,2633918,-1409,533,2334,6356,180,-87,76,-36,-106
2,2633933,-1406,527,2334,6357,183,-93,76,-36,-106
2,2633947,-1406,527,2334,6357,183,-93,76,-36,-106
2,2633960,-1410,535,2343,6363,195,-90,76,-36,-106
2,2633973,-1412,530,2340,6368,189,-90,76,-26,-108
2,2633988,-1412,530,2340,6368,189,-90,76,-26,-108
2,2634000,-1414,520,2346,6371,189,-99,76,-26,-108
2,2634014,-1402,525,2342,6366,187,-98,76,-26,-108
2,2634029,-1402,525,2342,6366,187,-98,76,-26,-108
2,2634043,-1402,525,2342,6366,187,-98,76,-26,-108
2,2634056,-1415,522,2339,6367,185,-90,76,-26,-108
2,2634070,-1415,522,2339,6367,185,-90,76,-26,-108
2,2634084,-1408,509,2346,6364,187,-88,76,-26,-108
2,2634095,-1405,501,2339,6365,190,-99,73,-29,-95
2,2634108,-1405,501,2339,6365,190,-99,73,-29,-95
2,2634124,-1408,493,2349,6367,187,-86,73,-29,-95
2,2634135,-1411,505,2343,6370,188,-83,73,-29,-95
2,2634150,-1411,505,2343,6370,188,-83,73,-29,-95
2,2634167,-1404,498,2345,6369,196,-82,73,-29,-95
2,2634179,-1408,492,2337,6366,189,-93,73,-29,-95
2,2634193,-1402,493,2342,6370,190,-87,73,-29,-95
2,2634207,-1402,493,2342,6370,190,-87,73,-29,-95
2,2634222,-1409,503,2340,6368,188,-89,73,-29,-95
2,2634234,-1406,515,2349,6362,186,-94,68,-30,-102
2,2634248,-1406,515,2349,6362,186,-94,68,-30,-102
2,2634261,-1403,499,2339,6360,186,-89,68,-30,-102
2,2634273,-1407,498,2342,6366,187,-93,68,-30,-102
2,2634287,-1407,498,2342,6366,187,-93,68,-30,-102
2,2634302,-1404,506,2342,6377,183,-92,68,-30,-102
2,2634313,-1409,509,2340,6374,188,-93,68,-30,-102
2,2634327,-1409,509,2340,6374,188,-93,68,-30,-102
2,2634341,-1410,504,2340,6370,185,-93,68,-30,-102
2,2634354,-1406,507,2347,6367,184,-95,65,-21,-105
2,2634369,-1406,507,2347,6367,184,-95,65,-21,-105
2,2634379,-1408,506,2341,6367,180,-94,65,-21,-105
2,2634393,-1405,508,2349,6365,188,-83,65,-21,-105
2,2634407,-1405,508,2349,6365,188,-83,65,-21,-105
2,2634421,-1407,503,2346,6375,192,-88,65,-21,-105
2,2634434,-1402,500,2348,6373,186,-92,65,-21,-105
2,2634447,-1402,500,2348,6373,186,-92,65,-21,-105
2,2634462,-1408,483,2341,6368,183,-81,65,-21,-105
2,2634475,-1403,463,2342,6365,180,-83,61,-23,-109
2,2634488,-1403,463,2342,6365,180,-83,61,-23,-109
2,2634503,-1407,492,2338,6369,187,-89,61,-23,-109
2,2634519,-1409,489,2337,6367,177,-87,61,-23,-109
2,2634533,-1411,471,2336,6366,181,-90,61,-23,-109
2,2634546,-1411,471,2336,6366,181,-90,61,-23,-109
2,2634559,-1404,484,2340,6363,189,-95,61,-23,-109
2,2634571,-1404,484,2340,6363,189,-95,61,-23,-109
2,2634586,-1410,484,2347,6368,191,-88,61,-23,-109
2,2634600,-1405,496,2345,6356,191,-84,57,-15,-115
2,2634613,-1405,477,2339,6358,187,-89,57,-15,-115
2,2634628,-1405,477,2339,6358,187,-89,57,-15,-115
2,2634639,-1405,498,2340,6361,189,-95,57,-15,-115
2,2634652,-1403,477,2337,6365,189,-89,57,-15,-115
2,2634668,-1403,477,2337,6365,189,-89,57,-15,-115
2,2634682,-1411,492,2333,6361,183,-83,57,-15,-115
2,2634695,-1404,477,2332,6353,197,-89,57,-15,-115
2,2634708,-1404,477,2332,6353,197,-89,57,-15,-115
2,2634722,-1406,500,2335,6353,199,-93,58,-16,-116
2,2634735,-1408,477,2333,6351,192,-89,58,-16,-116
2,2634750,-1408,477,2333,6351,192,-89,58,-16,-116
2,2634764,-1409,493,2337,6353,181,-88,58,-16,-116
2,2634777,-1409,493,2337,6353,181,-88,58,-16,-116
2,2634790,-1409,493,2337,6353,181,-88,58,-16,-116
2,2634805,-1406,503,2331,6363,189,-87,58,-16,-116
2,2634819,-1404,483,2328,6360,186,-90,58,-16,-116
2,2634831,-1409,495,2336,6353,191,-96,58,-16,-116
2,2634846,-1409,495,2336,6353,191,-96,58,-16,-116
2,2634861,-1403,490,2333,6358,189,-90,62,-20,-112
2,2634871,-1408,500,2340,6352,187,-84,62,-20,-112
2,2634880,-1408,500,2340,6352,187,-84,62,-20,-112
2,2634888,-1408,500,2340,6352,187,-84,62,-20,-112
2,2634895,-1407,486,2329,6351,188,-84,62,-20,-112
2,2634903,-1407,486,2329,6351,188,-84,62,-20,-112
2,2634918,-1408,514,2327,6348,191,-80,62,-20,-112
2,2634935,-1407,516,2328,6354,184,-90,62,-20,-112
2,2634950,-1407,516,2328,6354,184,-90,62,-20,-112
2,2634963,-1415,565,2330,6353,192,-86,62,-20,-112
2,2634977,-1412,522,2335,6353,190,-87,48,-20,-120
2,2634990,-1412,522,2335,6353,190,-87,48,-20,-120
2,2635005,-1410,544,2342,6350,185,-90,48,-20,-120
2,2635018,-1406,535,2337,6358,180,-80,48,-20,-120
2,2635031,-1406,535,2337,6358,180,-80,48,-20,-120
2,2635044,-1417,562,2340,6359,185,-83,48,-20,-120
2,2635059,-1409,534,2338,6367,183,-86,48,-20,-120
2,2635073,-1412,538,2337,6365,180,-95,48,-20,-120
2,2635088,-1412,538,2337,6365,180,-95,48,-20,-120
2,2635104,-1410,511,2344,6369,186,-87,52,-18,-126
2,2635119,-1410,511,2344,6369,186,-87,52,-18,-126
2,2635133,-1411,503,2342,6376,187,-87,52,-18,-126
2,2635147,-1411,503,2342,6376,187,-87,52,-18,-126
2,2635160,-1407,516,2353,6370,191,-95,52,-18,-126
2,2635171,-1402,482,2342,6364,189,-84,52,-18,-126
2,2635184,-1402,482,2342,6364,189,-84,52,-18,-126
2,2635197,-1408,506,2345,6367,191,-85,52,-18,-126
2,2635211,-1408,506,2345,6367,191,-85,52,-18,-126
2,2635225,-1406,499,2349,6369,182,-85,49,-25,-131
2,2635237,-1409,517,2355,6365,193,-87,49,-25,-131
2,2635245,-1409,517,2355,6365,193,-87,49,-25,-131
2,2635257,-1402,483,2347,6374,190,-84,49,-25,-131
2,2635271,-1402,483,2347,6374,190,-84,49,-25,-131
2,2635283,-1412,499,2345,6370,194,-86,49,-25,-131
2,2635297,-1405,495,2342,6366,187,-96,49,-25,-131
2,2635313,-1410,509,2349,6371,191,-88,49,-25,-131
2,2635326,-1410,509,2349,6371,191,-88,49,-25,-131
2,2635339,-1404,485,2350,6371,183,-93,48,-22,-146
2,2635354,-1407,497,2346,6368,192,-99,48,-22,-146
2,2635368,-1407,497,2346,6368,192,-99,48,-22,-146
2,2635382,-1405,496,2346,6365,183,-91,48,-22,-146
2,2635396,-1409,506,2340,6366,187,-88,48,-22,-146
2,2635408,-1409,506,2340,6366,187,-88,48,-22,-146
2,2635425,-1407,495,2347,6372,196,-96,48,-22,-146
2,2635440,-1406,494,2340,6375,197,-93,48,-22,-146
2,2635452,-1404,492,2343,6374,187,-93,48,-22,-146
2,2635466,-1404,492,2343,6374,187,-93,48,-22,-146
2,2635480,-1411,490,2343,6370,189,-87,53,-17,-149
2,2635493,-1411,487,2344,6370,189,-85,53,-17,-149
2,2635507,-1411,487,2344,6370,189,-85,53,-17,-149
2,2635523,-1406,491,2341,6366,195,-87,53,-17,-149
2,2635534,-1404,471,2341,6366,194,-84,53,-17,-149
2,2635549,-1404,471,2341,6366,194,-84,53,-17,-149
2,2635565,-1406,491,2347,6363,190,-88,53,-17,-149
2,2635579,-1406,485,2339,6363,188,-87,53,-17,-149
2,2635590,-1406,485,2339,6363,188,-87,53,-17,-149
2,2635606,-1405,494,2343,6372,188,-87,58,-26,-154
2,2635618,-1405,473,2343,6361,185,-90,58,-26,-154
2,2635631,-1405,473,2343,6361,185,-90,58,-26,-154
2,2635645,-1403,495,2337,6359,175,-83,58,-26,-154
2,2635658,-1405,485,2338,6355,184,-83,58,-26,-154
2,2635669,-1405,485,2338,6355,184,-83,58,-26,-154
2,2635682,-1415,491,2341,6356,185,-85,58,-26,-154
2,2635696,-1405,480,2337,6360,189,-93,58,-26,-154
2,2635711,-1405,480,2337,6360,189,-93,58,-26,-154
2,2635722,-1406,490,2341,6355,186,-81,55,-29,-165
2,2635735,-1409,484,2340,6354,183,-79,55,-29,-165
2,2635748,-1409,484,2340,6354,183,-79,55,-29,-165
2,2635761,-1408,495,2340,6359,183,-87,55,-29,-165
2,2635776,-1407,492,2335,6360,182,-89,55,-29,-165
2,2635790,-1407,492,2335,6360,182,-89,55,-29,-165
2,2635802,-1404,498,2333,6350,182,-82,55,-29,-165
2,2635817,-1408,506,2333,6351,191,-87,55,-29,-165
2,2635832,-1411,513,2340,6353,192,-89,55,-29,-165
2,2635847,-1411,513,2340,6353,192,-89,57,-21,-177
2,2635858,-1409,525,2337,6353,191,-82,57,-21,-177
2,2635874,-1412,510,2334,6357,191,-85,57,-21,-177
2,2635888,-1412,510,2334,6357,191,-85,57,-21,-177
2,2635901,-1407,500,2334,6354,189,-89,57,-21,-177
2,2635915,-1407,500,2334,6354,189,-89,57,-21,-177
2,2635929,-1407,500,2334,6354,189,-89,57,-21,-177
2,2635944,-1412,511,2337,6369,190,-83,57,-21,-177
2,2635958,-1410,520,2343,6366,188,-83,52,-24,-178
2,2635969,-1410,520,2343,6366,188,-83,52,-24,-178
2,2635983,-1412,517,2347,6363,187,-83,52,-24,-178
2,2635997,-1409,527,2341,6359,186,-82,52,-24,-178
2,2636011,-1409,527,2341,6359,186,-82,52,-24,-178
2,2636024,-1409,519,2338,6364,192,-86,52,-24,-178
2,2636037,-1413,538,2340,6362,186,-97,52,-24,-178
2,2636052,-1413,538,2340,6362,186,-97,52,-24,-178
2,2636066,-1408,512,2347,6365,187,-85,52,-24,-178
2,2636080,-1408,529,2342,6367,190,-92,52,-24,-178
2,2636091,-1408,529,2342,6367,190,-92,52,-24,-178
2,2636106,-1408,505,2347,6370,181,-90,54,-26,-188
2,2636120,-1410,529,2346,6373,185,-84,54,-26,-188
2,2636133,-1410,529,2346,6373,185,-84,54,-26,-188
2,2636146,-1405,502,2346,6369,185,-89,54,-26,-188
2,2636156,-1408,522,2353,6366,189,-87,54,-26,-188
2,2636170,-1408,522,2353,6366,189,-87,54,-26,-188
2,2636183,-1400,497,2348,6371,185,-85,54,-26,-188
2,2636196,-1408,511,2349,6366,192,-82,54,-26,-188
2,2636211,-1408,511,2349,6366,192,-82,54,-26,-188
2,2636222,-1406,495,2347,6363,194,-87,60,-20,-190
2,2636236,-1411,503,2351,6368,191,-84,60,-20,-190
2,2636252,-1411,503,2351,6368,191,-84,60,-20,-190
2,2636267,-1405,487,2347,6374,191,-84,60,-20,-190
2,2636279,-1409,485,2350,6371,188,-88,60,-20,-190
2,2636294,-1404,461,2349,6368,184,-90,60,-20,-190
2,2636309,-1404,461,2349,6368,184,-90,60,-20,-190
2,2636323,-1404,499,2345,6363,184,-88,60,-20,-190
2,2636337,-1404,485,2351,6369,175,-89,64,-26,-202
2,2636351,-1404,485,2351,6369,175,-89,64,-26,-202
2,2636365,-1408,478,2345,6368,184,-94,64,-26,-202
2,2636379,-1401,483,2345,6365,190,-94,64,-26,-202
2,2636394,-1405,491,2338,6358,193,-87,64,-26,-202
2,2636405,-1405,491,2338,6358,193,-87,64,-26,-202
2,2636419,-1406,496,2344,6358,191,-87,64,-26,-202
2,2636433,-1406,496,2344,6358,191,-87,64,-26,-202
2,2636447,-1407,485,2334,6359,186,-84,64,-26,-202
2,2636460,-1408,500,2345,6360,189,-91,76,-20,-210
2,2636472,-1408,500,2345,6360,189,-91,76,-20,-210
2,2636484,-1398,478,2342,6352,185,-83,76,-20,-210
2,2636497,-1407,490,2340,6356,187,-87,76,-20,-210
2,2636513,-1407,490,2340,6356,187,-87,76,-20,-210
2,2636527,-1403,488,2335,6363,192,-87,76,-20,-210
2,2636542,-1406,501,2342,6353,186,-90,76,-20,-210
2,2636556,-1403,483,2344,6357,192,-85,76,-20,-210
2,2636570,-1403,483,2344,6357,192,-85,76,-20,-210
2,2636584,-1410,496,2340,6360,186,-83,86,-12,-216
2,2636598,-1403,492,2341,6365,189,-101,86,-12,-216
2,2636610,-1403,492,2341,6365,189,-101,86,-12,-216
2,2636623,-1407,496,2340,6361,192,-93,86,-12,-216
2,2636638,-1411,484,2337,6358,181,-88,86,-12,-216
2,2636651,-1411,484,2337,6358,181,-88,86,-12,-216
2,2636665,-1404,497,2336,6360,189,-91,86,-12,-216
2,2636677,-1407,495,2341,6364,191,-86,86,-12,-216
2,2636690,-1407,495,2341,6364,191,-86,86,-12,-216
2,2636704,-1410,507,2331,6351,190,-86,86,-12,-216
2,2636717,-1407,498,2343,6360,195,-95,93,-23,-215
2,2636731,-1407,498,2343,6360,195,-95,93,-23,-215
2,2636747,-1404,533,2336,6354,188,-98,93,-23,-215
2,2636762,-1407,543,2342,6357,189,-83,93,-23,-215
2,2636778,-1413,530,2340,6364,195,-84,93,-23,-215
2,2636792,-1413,530,2340,6364,195,-84,93,-23,-215
2,2636806,-1413,520,2334,6360,191,-85,93,-23,-215
2,2636820,-1404,524,2339,6364,187,-86,93,-23,-215
2,2636833,-1404,524,2339,6364,187,-86,93,-23,-215
2,2636846,-1409,526,2342,6366,192,-81,104,-24,-218
2,2636859,-1408,521,2350,6360,185,-84,104,-24,-218
2,2636872,-1408,521,2350,6360,185,-84,104,-24,-218
2,2636886,-1405,515,2344,6368,190,-88,104,-24,-218
2,2636899,-1403,515,2346,6373,191,-84,104,-24,-218
2,2636913,-1409,516,2346,6370,190,-84,104,-24,-218
2,2636925,-1409,516,2346,6370,190,-84,104,-24,-218
2,2636941,-1410,511,2350,6371,189,-85,104,-24,-218
2,2636956,-1406,508,2345,6368,195,-90,117,-19,-231
2,2636969,-1406,508,2345,6368,195,-90,117,-19,-231
2,2636983,-1404,491,2350,6377,195,-95,117,-19,-231
2,2636998,-1408,500,2344,6378,187,-87,117,-19,-231
2,2637014,-1407,496,2343,6369,188,-87,117,-19,-231
2,2637025,-1407,496,2343,6369,188,-87,117,-19,-231
2,2637039,-1411,501,2344,6370,196,-87,117,-19,-231
2,2637053,-1411,501,2344,6370,196,-87,117,-19,-231
2,2637065,-1403,493,2350,6368,191,-87,117,-19,-231
2,2637077,-1408,504,2344,6365,186,-79,116,-32,-228
2,2637090,-1408,504,2344,6365,186,-79,116,-32,-228
2,2637104,-1406,503,2347,6364,189,-88,116,-32,-228
2,2637118,-1405,508,2342,6370,190,-84,116,-32,-228
2,2637130,-1405,508,2342,6370,190,-84,116,-32,-228
2,2637143,-1406,500,2344,6372,197,-86,116,-32,-228
2,2637156,-1404,505,2340,6367,186,-80,116,-32,-228
2,2637170,-1404,505,2340,6367,186,-80,116,-32,-228
2,2637184,-1407,509,2345,6375,189,-89,116,-32,-228
2,2637195,-1406,512,2347,6372,190,-82,125,-23,-229
2,2637209,-1406,512,2347,6372,190,-82,125,-23,-229
2,2637225,-1408,508,2351,6370,193,-83,125,-23,-229
2,2637241,-1408,508,2351,6370,193,-83,125,-23,-229
2,2637255,-1410,504,2350,6371,182,-86,125,-23,-229
2,2637272,-1410,504,2350,6371,182,-86,125,-23,-229
2,2637282,-1407,512,2346,6366,188,-92,125,-23,-229
2,2637295,-1406,495,2345,6363,192,-97,125,-23,-229
2,2637308,-1406,495,2345,6363,192,-97,125,-23,-229
2,2637322,-1402,509,2347,6366,193,-87,136,-24,-234
2,2637336,-1405,460,2351,6366,189,-87,136,-24,-234
2,2637349,-1405,460,2351,6366,189,-87,136,-24,-234
2,2637362,-1405,488,2351,6365,187,-84,136,-24,-234
2,2637376,-1402,479,2342,6366,190,-87,136,-24,-234
2,2637389,-1402,479,2342,6366,190,-87,136,-24,-234
2,2637403,-1409,505,2347,6376,183,-91,136,-24,-234
2,2637418,-1409,505,2347,6376,183,-91,136,-24,-234
2,2637429,-1409,505,2347,6376,183,-91,136,-24,-234
2,2637443,-1406,495,2339,6365,187,-85,136,-24,-234
2,2637458,-1398,481,2343,6365,185,-86,136,-28,-226
2,2637473,-1398,481,2343,6365,185,-86,136,-28,-226
2,2637487,-1415,498,2342,6364,185,-87,136,-28,-226
2,2637499,-1399,479,2340,6365,189,-91,136,-28,-226
2,2637513,-1399,479,2340,6365,189,-91,136,-28,-226
2,2637527,-1403,497,2347,6361,185,-90,136,-28,-226
2,2637541,-1399,474,2336,6365,177,-83,136,-28,-226
2,2637554,-1409,490,2337,6369,186,-88,136,-28,-226
2,2637568,-1409,490,2337,6369,186,-88,136,-28,-226
2,2637580,-1406,493,2338,6357,185,-93,136,-14,-226
2,2637594,-1407,494,2338,6360,191,-96,136,-14,-226
2,2637607,-1407,494,2338,6360,191,-96,136,-14,-226
2,2637621,-1406,478,2340,6365,191,-86,136,-14,-226
2,2637636,-1411,486,2336,6365,196,-88,136,-14,-226
2,2637651,-1411,486,2336,6365,196,-88,136,-14,-226
2,2637665,-1404,496,2338,6361,198,-84,136,-14,-226
2,2637673,-1404,496,2338,6361,198,-84,136,-14,-226
2,2637685,-1406,491,2337,6357,193,-85,136,-14,-226
2,2637700,-1408,487,2343,6364,184,-87,140,-20,-218
2,2637716,-1404,492,2338,6359,189,-87,140,-20,-218
2,2637729,-1404,492,2338,6359,189,-87,140,-20,-218
2,2637743,-1408,503,2343,6351,183,-86,140,-20,-218
2,2637757,-1403,492,2329,6360,183,-84,140,-20,-218
2,2637770,-1403,492,2329,6360,183,-84,140,-20,-218
2,2637783,-1405,501,2337,6356,197,-82,140,-20,-218
2,2637796,-1400,508,2331,6360,201,-87,140,-20,-218
2,2637810,-1400,508,2331,6360,201,-87,140,-20,-218
2,2637824,-1411,551,2337,6358,189,-88,153,-23,-231
2,2637838,-1412,547,2337,6360,184,-94,153,-23,-231
2,2637849,-1412,547,2337,6360,184,-94,153,-23,-231
2,2637862,-1412,550,2341,6361,189,-89,153,-23,-231
2,2637876,-1406,534,2335,6361,194,-86,153,-23,-231
2,2637890,-1406,534,2335,6361,194,-86,153,-23,-231
2,2637904,-1408,552,2342,6358,194,-81,153,-23,-231
2,2637920,-1411,543,2347,6368,186,-79,153,-23,-231
2,2637935,-1413,537,2347,6368,190,-94,152,-4,-222
2,2637950,-1413,537,2347,6368,190,-94,152,-4,-222
2,2637964,-1404,526,2346,6370,185,-99,152,-4,-222
2,2637978,-1407,524,2347,6375,188,-87,152,-4,-222
2,2637991,-1407,524,2347,6375,188,-87,152,-4,-222
2,2638005,-1411,519,2348,6380,193,-90,152,-4,-222
2,2638017,-1405,517,2345,6372,192,-94,152,-4,-222
2,2638031,-1405,517,2345,6372,192,-94,152,-4,-222
2,2638045,-1406,502,2350,6372,193,-88,152,-4,-222
2,2638058,-1403,497,2348,6370,189,-92,152,-4,-222
2,2638072,-1403,497,2348,6370,189,-92,152,-4,-222
2,2638085,-1407,500,2354,6375,190,-92,158,-4,-214
2,2638097,-1407,511,2350,6374,195,-87,158,-4,-214
2,2638112,-1407,511,2350,6374,195,-87,158,-4,-214
2,2638127,-1400,492,2351,6377,187,-85,158,-4,-214
2,2638140,-1404,492,2347,6371,187,-90,158,-4,-214
2,2638154,-1404,494,2347,6366,192,-89,158,-4,-214
2,2638170,-1404,494,2347,6366,192,-89,158,-4,-214
2,2638185,-1407,512,2347,6372,195,-87,158,-4,-214
2,2638198,-1405,495,2350,6373,188,-89,161,-7,-211
2,2638213,-1405,495,2350,6373,188,-89,161,-7,-211
2,2638222,-1405,492,2347,6369,189,-86,161,-7,-211
2,2638235,-1404,489,2346,6365,191,-75,161,-7,-211
2,2638248,-1404,489,2346,6365,191,-75,161,-7,-211
2,2638263,-1408,502,2343,6367,193,-87,161,-7,-211
2,2638276,-1403,493,2350,6373,185,-90,161,-7,-211
2,2638287,-1403,493,2350,6373,185,-90,161,-7,-211
2,2638301,-1405,498,2344,6376,186,-90,161,-7,-211
2,2638314,-1405,498,2344,6376,186,-90,161,-7,-211
2,2638330,-1401,488,2350,6365,185,-88,174,0,-212
2,2638344,-1404,500,2346,6363,194,-80,174,0,-212
2,2638358,-1404,500,2346,6363,194,-80,174,0,-212
2,2638373,-1404,500,2346,6363,194,-80,174,0,-212
2,2638387,-1408,495,2343,6354,196,-88,174,0,-212
2,2638399,-1400,477,2347,6367,195,-96,174,0,-212
2,2638413,-1400,477,2347,6367,195,-96,174,0,-212
2,2638430,-1404,477,2345,6370,190,-95,174,0,-212
2,2638445,-1407,489,2340,6367,190,-85,165,-7,-207
2,2638458,-1408,490,2343,6361,188,-82,165,-7,-207
2,2638471,-1408,490,2343,6361,188,-82,165,-7,-207
2,2638485,-1401,476,2338,6359,193,-93,165,-7,-207
2,2638498,-1400,482,2343,6353,192,-86,165,-7,-207
2,2638513,-1400,482,2343,6353,192,-86,165,-7,-207
2,2638526,-1401,485,2337,6360,190,-86,165,-7,-207
2,2638540,-1408,490,2339,6361,190,-92,165,-7,-207
2,2638553,-1408,490,2339,6361,190,-92,165,-7,-207
2,2638566,-1400,490,2334,6362,191,-96,165,1,-209
2,2638579,-1407,493,2336,6357,184,-93,165,1,-209
2,2638587,-1407,493,2336,6357,184,-93,165,1,-209
2,2638598,-1406,486,2337,6363,190,-87,165,1,-209
2,2638611,-1406,486,2337,6363,190,-87,165,1,-209
2,2638625,-1411,493,2336,6356,183,-85,165,1,-209
2,2638636,-1404,492,2338,6360,185,-89,165,1,-209
2,2638650,-1404,492,2338,6360,185,-89,165,1,-209
2,2638665,-1407,492,2330,6360,192,-84,165,1,-209
2,2638681,-1404,499,2337,6360,191,-76,165,1,-209
2,2638695,-1404,499,2337,6360,191,-76,165,1,-209
2,2638706,-1404,513,2337,6352,185,-80,171,-7,-199
2,2638721,-1406,517,2341,6356,192,-82,171,-7,-199
2,2638734,-1406,517,2341,6356,192,-82,171,-7,-199
2,2638747,-1404,532,2330,6353,184,-86,171,-7,-199
2,2638760,-1406,517,2333,6363,189,-88,171,-7,-199
2,2638776,-1410,507,2335,6368,189,-90,171,-7,-199
2,2638788,-1410,507,2335,6368,189,-90,171,-7,-199
2,2638801,-1402,524,2337,6364,189,-89,171,-7,-199
2,2638817,-1408,512,2335,6360,191,-78,174,-2,-198
2,2638832,-1408,512,2335,6360,191,-78,174,-2,-198
2,2638848,-1405,520,2341,6359,191,-82,174,-2,-198
2,2638862,-1404,515,2343,6360,184,-92,174,-2,-198
2,2638874,-1404,515,2343,6360,184,-92,174,-2,-198
2,2638888,-1411,534,2345,6355,190,-86,174,-2,-198
2,2638902,-1407,524,2344,6365,186,-84,174,-2,-198
2,2638916,-1409,539,2341,6367,186,-88,174,-2,-198
2,2638929,-1409,539,2341,6367,186,-88,174,-2,-198
2,2638944,-1404,526,2347,6367,189,-90,175,-7,-183
2,2638957,-1409,526,2340,6362,189,-82,175,-7,-183
2,2638969,-1409,526,2340,6362,189,-82,175,-7,-183
2,2638983,-1406,516,2341,6368,190,-84,175,-7,-183
2,2638997,-1412,526,2344,6369,193,-78,175,-7,-183
2,2639010,-1412,526,2344,6369,193,-78,175,-7,-183
2,2639025,-1405,511,2350,6371,191,-80,175,-7,-183
2,2639038,-1409,511,2347,6377,184,-89,175,-7,-183
2,2639052,-1409,511,2347,6377,184,-89,175,-7,-183
2,2639068,-1409,506,2348,6378,191,-78,165,-9,-177
2,2639082,-1405,509,2349,6373,194,-83,165,-9,-177
2,2639094,-1405,509,2349,6373,194,-83,165,-9,-177
2,2639108,-1405,499,2346,6372,187,-89,165,-9,-177
2,2639124,-1401,504,2344,6372,183,-94,165,-9,-177
2,2639138,-1402,465,2340,6371,188,-91,165,-9,-177
2,2639153,-1402,465,2340,6371,188,-91,165,-9,-177
2,2639166,-1405,493,2345,6366,195,-91,165,-9,-177
2,2639180,-1412,478,2339,6373,189,-88,162,-4,-178
2,2639191,-1412,478,2339,6373,189,-88,162,-4,-178
2,2639203,-1405,499,2342,6367,191,-86,162,-4,-178
2,2639217,-1405,462,2341,6361,180,-93,162,-4,-178
2,2639232,-1405,462,2341,6361,180,-93,162,-4,-178
2,2639246,-1401,494,2345,6358,192,-85,162,-4,-178
2,2639259,-1403,485,2346,6360,182,-85,162,-4,-178
2,2639271,-1403,485,2346,6360,182,-85,162,-4,-178
2,2639286,-1407,493,2341,6357,187,-91,162,-4,-178
2,2639300,-1398,484,2340,6352,195,-97,162,-4,-178
2,2639314,-1398,484,2340,6352,195,-97,162,-4,-178
2,2639328,-1406,493,2344,6356,194,-98,154,-14,-164
2,2639342,-1409,485,2336,6365,182,-94,154,-14,-164
2,2639357,-1410,487,2339,6359,186,-89,154,-14,-164
2,2639372,-1410,487,2339,6359,186,-89,154,-14,-164
2,2639385,-1402,493,2338,6356,192,-92,154,-14,-164
2,2639398,-1402,487,2337,6362,189,-92,154,-14,-164
2,2639412,-1402,487,2337,6362,189,-92,154,-14,-164
2,2639425,-1403,489,2338,6365,185,-88,154,-14,-164
2,2639439,-1408,495,2342,6359,189,-86,152,-14,-164
2,2639453,-1408,495,2342,6359,189,-86,152,-14,-164
2,2639468,-1402,500,2340,6367,190,-89,152,-14,-164
2,2639481,-1405,494,2340,6361,193,-84,152,-14,-164
2,2639497,-1404,497,2335,6359,187,-85,152,-14,-164
2,2639512,-1404,497,2335,6359,187,-85,152,-14,-164
2,2639526,-1404,503,2335,6362,188,-88,152,-14,-164
2,2639541,-1404,507,2330,6362,188,-89,152,-14,-164
2,2639554,-1404,507,2330,6362,188,-89,152,-14,-164
2,2639569,-1405,503,2336,6366,179,-89,150,-12,-148
2,2639585,-1407,517,2339,6359,182,-89,150,-12,-148
2,2639598,-1407,545,2335,6360,186,-90,150,-12,-148
2,2639610,-1407,545,2335,6360,186,-90,150,-12,-148
2,2639624,-1407,541,2342,6361,181,-92,150,-12,-148
2,2639637,-1405,526,2339,6362,192,-90,150,-12,-148
2,2639651,-1405,526,2339,6362,192,-90,150,-12,-148
2,2639666,-1404,540,2345,6360,191,-96,150,-12,-148
2,2639679,-1407,538,2344,6363,194,-83,143,-17,-157
2,2639690,-1407,538,2344,6363,194,-83,143,-17,-157
2,2639705,-1408,535,2344,6366,186,-91,143,-17,-157
2,2639718,-1405,512,2339,6361,182,-98,143,-17,-157
2,2639731,-1405,512,2339,6361,182,-98,143,-17,-157
2,2639747,-1406,531,2342,6368,190,-92,143,-17,-157
2,2639762,-1404,520,2340,6371,189,-87,143,-17,-157
2,2639774,-1404,520,2340,6371,189,-87,143,-17,-157
2,2639789,-1410,532,2339,6368,191,-81,143,-17,-157
2,2639804,-1404,509,2353,6370,196,-90,143,-25,-135
2,2639819,-1401,509,2349,6374,195,-91,143,-25,-135
2,2639834,-1401,509,2349,6374,195,-91,143,-25,-135
2,2639846,-1400,494,2344,6372,187,-90,143,-25,-135
2,2639859,-1406,517,2343,6377,180,-88,143,-25,-135
2,2639873,-1406,517,2343,6377,180,-88,143,-25,-135
2,2639886,-1402,503,2341,6373,191,-89,143,-25,-135
2,2639900,-1406,507,2345,6371,191,-91,143,-25,-135
2,2639913,-1406,507,2345,6371,191,-91,143,-25,-135
2,2639925,-1405,487,2337,6370,189,-87,143,-25,-135
2,2639939,-1406,515,2344,6365,190,-91,128,-18,-130
2,2639953,-1406,515,2344,6365,190,-91,128,-18,-130
2,2639968,-1402,504,2345,6366,197,-85,128,-18,-130
2,2639982,-1405,509,2347,6362,187,-86,128,-18,-130
2,2639997,-1399,495,2340,6364,181,-81,128,-18,-130
2,2640013,-1399,495,2340,6364,181,-81,128,-18,-130
2,2640028,-1405,519,2345,6362,181,-86,128,-18,-130
2,2640041,-1403,506,2343,6359,190,-91,128,-18,-130
2,2640056,-1403,506,2343,6359,190,-91,128,-18,-130
2,2640065,-1408,516,2347,6364,194,-94,123,-27,-125
2,2640077,-1406,514,2344,6370,189,-92,123,-27,-125
2,2640092,-1406,514,2344,6370,189,-92,123,-27,-125
2,2640105,-1405,520,2342,6373,190,-82,123,-27,-125
2,2640118,-1408,509,2342,6370,190,-89,123,-27,-125
2,2640132,-1408,509,2342,6370,190,-89,123,-27,-125
2,2640144,-1407,503,2346,6364,182,-91,123,-27,-125
2,2640157,-1402,501,2343,6367,189,-87,123,-27,-125
2,2640172,-1402,501,2343,6367,189,-87,123,-27,-125
2,2640186,-1406,506,2338,6368,190,-80,121,-23,-127
2,2640200,-1406,490,2349,6372,183,-87,121,-23,-127
2,2640216,-1406,490,2349,6372,183,-87,121,-23,-127
2,2640230,-1402,469,2345,6374,188,-90,121,-23,-127
2,2640242,-1405,491,2344,6369,190,-88,121,-23,-127
2,2640258,-1404,498,2349,6366,194,-90,121,-23,-127
2,2640273,-1404,498,2349,6366,194,-90,121,-23,-127
2,2640289,-1414,478,2335,6366,189,-88,121,-23,-127
2,2640304,-1399,496,2342,6366,188,-96,113,-29,-111
2,2640315,-1399,496,2342,6366,188,-96,113,-29,-111
2,2640328,-1402,484,2338,6359,187,-89,113,-29,-111
2,2640343,-1402,498,2342,6357,174,-83,113,-29,-111
2,2640356,-1402,498,2342,6357,174,-83,113,-29,-111
2,2640370,-1407,482,2341,6360,179,-84,113,-29,-111
2,2640381,-1407,505,2342,6365,189,-92,113,-29,-111
2,2640396,-1407,505,2342,6365,189,-92,113,-29,-111
2,2640409,-1395,482,2336,6370,190,-83,113,-29,-111
2,2640423,-1408,499,2347,6361,186,-83,112,-34,-114
2,2640437,-1404,495,2334,6364,191,-84,112,-34,-114
2,2640451,-1404,495,2334,6364,191,-84,112,-34,-114
2,2640466,-1407,506,2338,6362,194,-90,112,-34,-114
2,2640482,-1401,480,2332,6362,192,-95,112,-34,-114
2,2640498,-1408,493,2333,6362,191,-83,112,-34,-114
2,2640513,-1408,493,2333,6362,191,-83,112,-34,-114
2,2640526,-1403,495,2330,6361,194,-86,112,-34,-114
2,2640539,-1405,504,2341,6364,192,-90,112,-34,-114
2,2640549,-1405,504,2341,6364,192,-90,112,-34,-114
2,2640562,-1402,486,2339,6361,180,-88,101,-33,-111
2,2640575,-1402,486,2339,6361,180,-88,101,-33,-111
2,2640589,-1403,497,2340,6357,182,-87,101,-33,-111
2,2640603,-1400,505,2336,6360,191,-89,101,-33,-111
2,2640615,-1400,505,2336,6360,191,-89,101,-33,-111
2,2640627,-1402,507,2340,6357,196,-85,101,-33,-111
2,2640641,-1405,502,2324,6358,186,-93,101,-33,-111
2,2640655,-1405,502,2324,6358,186,-93,101,-33,-111
2,2640669,-1407,515,2334,6363,190,-87,101,-33,-111
2,2640685,-1408,549,2336,6361,197,-83,92,-28,-110
2,2640700,-1408,552,2330,6354,193,-88,92,-28,-110
2,2640711,-1408,552,2330,6354,193,-88,92,-28,-110
2,2640724,-1410,539,2333,6356,192,-89,92,-28,-110
2,2640740,-1404,530,2331,6358,187,-80,92,-28,-110
2,2640753,-1404,530,2331,6358,187,-80,92,-28,-110
2,2640765,-1407,555,2343,6362,191,-84,92,-28,-110
2,2640780,-1409,554,2340,6367,190,-84,92,-28,-110
2,2640793,-1409,554,2340,6367,190,-84,92,-28,-110
2,2640807,-1413,540,2348,6373,188,-93,100,-34,-110
2,2640821,-1397,537,2345,6365,185,-94,100,-34,-110
2,2640833,-1397,537,2345,6365,185,-94,100,-34,-110
2,2640845,-1406,528,2343,6374,184,-89,100,-34,-110
2,2640859,-1408,529,2344,6373,185,-94,100,-34,-110
2,2640872,-1408,529,2344,6373,185,-94,100,-34,-110
2,2640886,-1409,516,2337,6364,188,-88,100,-34,-110
2,2640901,-1406,513,2349,6365,198,-92,100,-34,-110
2,2640916,-1406,513,2349,6365,198,-92,100,-34,-110
2,2640930,-1402,493,2342,6374,197,-90,82,-36,-106
2,2640945,-1407,508,2343,6368,184,-90,82,-36,-106
2,2640957,-1407,508,2343,6368,184,-90,82,-36,-106
2,2640968,-1406,503,2343,6372,188,-99,82,-36,-106
2,2640982,-1404,510,2348,6368,192,-88,82,-36,-106
2,2640996,-1404,510,2348,6368,192,-88,82,-36,-106
2,2641009,-1402,485,2344,6366,188,-86,82,-36,-106
2,2641024,-1406,511,2348,6367,192,-81,82,-36,-106
2,2641037,-1406,511,2348,6367,192,-81,82,-36,-106
2,2641052,-1405,505,2345,6377,188,-95,77,-35,-107
2,2641064,-1407,514,2341,6372,188,-90,77,-35,-107
2,2641079,-1399,490,2339,6371,188,-88,77,-35,-107
2,2641093,-1399,490,2339,6371,188,-88,77,-35,-107
2,2641107,-1406,511,2345,6366,190,-94,77,-35,-107
2,2641122,-1401,497,2342,6365,187,-81,77,-35,-107
2,2641136,-1401,497,2342,6365,187,-81,77,-35,-107
2,2641150,-1405,508,2344,6365,189,-85,77,-35,-107
2,2641164,-1400,491,2345,6372,189,-90,71,-35,-101
2,2641179,-1405,503,2346,6371,185,-91,71,-35,-101
2,2641195,-1405,503,2346,6371,185,-91,71,-35,-101
2,2641210,-1403,495,2343,6372,190,-88,71,-35,-101
2,2641224,-1410,504,2345,6375,190,-88,71,-35,-101
2,2641236,-1410,504,2345,6375,190,-88,71,-35,-101
2,2641249,-1404,491,2344,6368,192,-86,71,-35,-101
2,2641262,-1406,495,2340,6366,191,-83,71,-35,-101
2,2641276,-1406,495,2340,6366,191,-83,71,-35,-101
2,2641291,-1403,468,2339,6365,186,-84,71,-35,-101
2,2641302,-1407,504,2344,6367,190,-84,74,-30,-102
2,2641315,-1407,504,2344,6367,190,-84,74,-30,-102
2,2641329,-1404,485,2346,6370,184,-89,74,-30,-102
2,2641342,-1404,495,2335,6368,178,-90,74,-30,-102
2,2641356,-1404,495,2335,6368,178,-90,74,-30,-102
2,2641370,-1400,478,2339,6366,194,-84,74,-30,-102
2,2641382,-1406,504,2334,6366,197,-93,74,-30,-102
2,2641397,-1406,504,2334,6366,197,-93,74,-30,-102
2,2641413,-1401,488,2340,6367,188,-94,74,-30,-102
2,2641425,-1407,492,2340,6357,183,-92,62,-22,-104
2,2641438,-1402,496,2339,6363,187,-95,62,-22,-104
2,2641452,-1402,496,2339,6363,187,-95,62,-22,-104
2,2641466,-1403,488,2333,6364,175,-85,62,-22,-104
2,2641479,-1404,494,2333,6362,183,-89,62,-22,-104
2,2641492,-1404,494,2333,6362,183,-89,62,-22,-104
2,2641507,-1405,490,2338,6359,187,-85,62,-22,-104
2,2641520,-1404,500,2339,6363,194,-93,62,-22,-104
2,2641532,-1404,500,2339,6363,194,-93,62,-22,-104
2,2641546,-1400,494,2343,6359,184,-87,71,-27,-103
2,2641560,-1407,508,2338,6357,187,-86,71,-27,-103
2,2641574,-1407,508,2338,6357,187,-86,71,-27,-103
2,2641589,-1404,507,2341,6362,187,-92,71,-27,-103
2,2641601,-1407,513,2334,6359,186,-90,71,-27,-103
2,2641615,-1407,513,2334,6359,186,-90,71,-27,-103
2,2641630,-1406,505,2335,6357,195,-97,71,-27,-103
2,2641646,-1408,514,2331,6359,186,-92,71,-27,-103
2,2641661,-1403,516,2337,6364,188,-91,68,-26,-110
2,2641675,-1403,516,2337,6364,188,-91,68,-26,-110
2,2641689,-1407,515,2335,6362,187,-88,68,-26,-110
2,2641703,-1405,517,2338,6361,191,-94,68,-26,-110
2,2641717,-1405,517,2338,6361,191,-94,68,-26,-110
2,2641730,-1406,520,2332,6359,196,-88,68,-26,-110
2,2641743,-1408,538,2341,6365,186,-93,68,-26,-110
2,2641759,-1408,538,2341,6365,186,-93,68,-26,-110
2,2641773,-1408,538,2341,6365,186,-93,68,-26,-110
2,2641783,-1408,541,2339,6367,188,-95,55,-25,-109
2,2641797,-1408,541,2339,6367,188,-95,55,-25,-109
2,2641811,-1409,523,2342,6372,191,-96,55,-25,-109
2,2641825,-1409,529,2343,6369,190,-92,55,-25,-109
2,2641841,-1409,529,2343,6369,190,-92,55,-25,-109
2,2641854,-1409,529,2343,6369,190,-92,55,-25,-109
2,2641867,-1412,534,2346,6372,198,-89,55,-25,-109
2,2641883,-1405,501,2339,6370,184,-84,55,-25,-109
2,2641898,-1411,517,2343,6368,186,-90,55,-25,-109
2,2641913,-1411,517,2343,6368,186,-90,55,-25,-109
2,2641927,-1406,509,2352,6373,188,-94,53,-25,-109
2,2641940,-1413,522,2346,6377,189,-90,53,-25,-109
2,2641953,-1413,522,2346,6377,189,-90,53,-25,-109
2,2641968,-1406,490,2343,6375,189,-90,53,-25,-109
2,2641981,-1411,510,2342,6375,194,-91,53,-25,-109
2,2641994,-1411,510,2342,6375,194,-91,53,-25,-109
2,2642008,-1404,498,2344,6379,184,-87,53,-25,-109
2,2642019,-1405,488,2340,6376,189,-88,53,-25,-109
2,2642034,-1405,488,2340,6376,189,-88,53,-25,-109
2,2642048,-1406,463,2347,6382,190,-88,55,-27,-125
2,2642062,-1407,499,2334,6369,185,-92,55,-27,-125
2,2642071,-1407,499,2334,6369,185,-92,55,-27,-125
2,2642082,-1408,492,2350,6368,189,-76,55,-27,-125
2,2642097,-1408,492,2350,6368,189,-76,55,-27,-125
2,2642109,-1409,479,2338,6371,181,-82,55,-27,-125
2,2642124,-1402,489,2341,6370,185,-97,55,-27,-125
2,2642140,-1404,488,2339,6365,187,-93,55,-27,-125
2,2642154,-1404,488,2339,6365,187,-93,55,-27,-125
2,2642167,-1409,501,2347,6367,188,-87,54,-26,-132
2,2642181,-1401,481,2334,6362,184,-90,54,-26,-132
2,2642193,-1401,481,2334,6362,184,-90,54,-26,-132
2,2642205,-1406,500,2341,6364,184,-92,54,-26,-132
2,2642219,-1401,485,2341,6365,182,-87,54,-26,-132
2,2642231,-1401,485,2341,6365,182,-87,54,-26,-132
2,2642245,-1409,493,2328,6360,175,-85,54,-26,-132
2,2642257,-1409,493,2328,6360,175,-85,54,-26,-132
2,2642270,-1408,486,2336,6367,183,-95,54,-26,-132
2,2642283,-1404,495,2338,6361,196,-90,50,-16,-134
2,2642297,-1404,495,2338,6361,196,-90,50,-16,-134
2,2642312,-1405,483,2342,6361,185,-95,50,-16,-134
2,2642326,-1409,490,2329,6361,188,-92,50,-16,-134
2,2642339,-1405,493,2341,6362,188,-93,50,-16,-134
2,2642353,-1405,493,2341,6362,188,-93,50,-16,-134
2,2642367,-1404,499,2336,6358,188,-93,50,-16,-134
2,2642382,-1404,483,2337,6358,179,-90,50,-16,-134
2,2642396,-1404,483,2337,6358,179,-90,50,-16,-134
2,2642408,-1405,499,2329,6352,186,-85,45,-17,-141
2,2642422,-1408,498,2336,6349,190,-89,45,-17,-141
2,2642436,-1408,498,2336,6349,190,-89,45,-17,-141
2,2642449,-1406,505,2333,6357,186,-88,45,-17,-141
2,2642463,-1408,500,2338,6356,189,-90,45,-17,-141
2,2642478,-1408,500,2338,6356,189,-90,45,-17,-141
2,2642492,-1408,539,2339,6357,190,-88,45,-17,-141
2,2642504,-1409,551,2335,6353,181,-84,45,-17,-141
2,2642518,-1409,551,2335,6353,181,-84,45,-17,-141
2,2642531,-1408,525,2334,6359,182,-86,45,-17,-141
2,2642545,-1408,526,2340,6355,177,-91,48,-16,-148
2,2642561,-1404,533,2342,6366,185,-87,48,-16,-148
2,2642576,-1404,533,2342,6366,185,-87,48,-16,-148
2,2642589,-1404,533,2342,6366,185,-87,48,-16,-148
2,2642603,-1410,524,2336,6368,179,-87,48,-16,-148
2,2642616,-1410,524,2336,6368,179,-87,48,-16,-148
2,2642627,-1410,519,2328,6363,189,-87,48,-16,-148
2,2642640,-1408,518,2340,6371,194,-87,48,-16,-148
2,2642655,-1408,518,2340,6371,194,-87,48,-16,-148
2,2642668,-1414,518,2342,6365,186,-84,58,-24,-146
2,2642681,-1413,506,2340,6365,187,-88,58,-24,-146
2,2642696,-1413,506,2340,6365,187,-88,58,-24,-146
2,2642708,-1407,508,2345,6368,189,-91,58,-24,-146
2,2642717,-1407,508,2345,6368,189,-91,58,-24,-146
2,2642732,-1408,489,2342,6370,188,-87,58,-24,-146
2,2642744,-1409,502,2338,6369,187,-89,58,-24,-146
2,2642756,-1409,502,2338,6369,187,-89,58,-24,-146
2,2642770,-1411,506,2344,6366,186,-88,58,-24,-146
2,2642786,-1405,511,2343,6368,182,-89,57,-27,-161
2,2642800,-1410,495,2344,6371,185,-94,57,-27,-161
2,2642812,-1410,495,2344,6371,185,-94,57,-27,-161
2,2642827,-1407,502,2331,6367,190,-92,57,-27,-161
2,2642842,-1407,510,2346,6364,191,-94,57,-27,-161
2,2642855,-1407,510,2346,6364,191,-94,57,-27,-161
2,2642870,-1407,510,2346,6364,191,-94,57,-27,-161
2,2642883,-1406,501,2345,6371,191,-95,57,-27,-161
2,2642896,-1406,501,2345,6371,191,-95,57,-27,-161
2,2642910,-1406,514,2345,6364,196,-91,53,-23,-169
2,2642923,-1409,511,2347,6369,191,-86,53,-23,-169
2,2642936,-1409,511,2347,6369,191,-86,53,-23,-169
2,2642950,-1409,527,2346,6373,179,-86,53,-23,-169
2,2642966,-1406,501,2343,6364,177,-87,53,-23,-169
2,2642980,-1407,525,2342,6368,181,-95,53,-23,-169
2,2642995,-1407,525,2342,6368,181,-95,53,-23,-169
2,2643008,-1405,494,2342,6373,185,-92,53,-23,-169
2,2643019,-1410,509,2342,6378,181,-85,50,-24,-166
2,2643033,-1410,509,2342,6378,181,-85,50,-24,-166
2,2643045,-1404,491,2349,6376,192,-81,50,-24,-166
2,2643060,-1412,504,2345,6371,185,-93,50,-24,-166
2,2643074,-1412,504,2345,6371,185,-93,50,-24,-166
2,2643088,-1401,456,2343,6369,184,-91,50,-24,-166
2,2643101,-1413,493,2347,6376,183,-88,50,-24,-166
2,2643116,-1413,493,2347,6376,183,-88,50,-24,-166
2,2643129,-1403,483,2343,6368,195,-81,50,-24,-166
2,2643141,-1410,503,2349,6363,190,-88,50,-24,-166
2,2643154,-1410,503,2349,6363,190,-88,50,-24,-166
2,2643168,-1405,461,2340,6371,180,-92,54,-18,-178
2,2643182,-1409,500,2342,6371,188,-90,54,-18,-178
2,2643196,-1409,500,2342,6371,188,-90,54,-18,-178
2,2643209,-1409,500,2342,6371,188,-90,54,-18,-178
2,2643223,-1413,500,2338,6368,193,-83,54,-18,-178
2,2643238,-1413,500,2338,6368,193,-83,54,-18,-178
2,2643253,-1406,472,2331,6370,194,-95,54,-18,-178
2,2643264,-1407,495,2337,6365,192,-88,54,-18,-178
2,2643277,-1407,495,2337,6365,192,-88,54,-18,-178
2,2643292,-1406,483,2346,6368,199,-85,58,-18,-178
2,2643305,-1407,489,2338,6359,188,-88,58,-18,-178
2,2643318,-1407,489,2338,6359,188,-88,58,-18,-178
2,2643333,-1405,488,2337,6354,192,-92,58,-18,-178
2,2643346,-1405,488,2337,6358,197,-88,58,-18,-178
2,2643358,-1405,488,2337,6358,197,-88,58,-18,-178
2,2643373,-1406,493,2337,6357,187,-86,58,-18,-178
2,2643386,-1409,494,2331,6360,189,-90,58,-18,-178
2,2643401,-1404,500,2334,6360,189,-90,62,-26,-188
2,2643416,-1404,500,2334,6360,189,-90,62,-26,-188
2,2643428,-1407,483,2334,6361,186,-84,62,-26,-188
2,2643442,-1410,491,2333,6357,191,-80,62,-26,-188
2,2643457,-1410,491,2333,6357,191,-80,62,-26,-188
2,2643472,-1406,486,2329,6361,186,-83,62,-26,-188
2,2643485,-1409,496,2339,6359,192,-88,62,-26,-188
2,2643497,-1409,496,2339,6359,192,-88,62,-26,-188
2,2643512,-1405,485,2330,6361,191,-91,62,-26,-188
2,2643525,-1409,495,2338,6359,183,-86,67,-13,-205
2,2643538,-1409,495,2338,6359,183,-86,67,-13,-205
2,2643553,-1405,501,2329,6360,190,-85,67,-13,-205
2,2643565,-1409,516,2329,6355,196,-88,67,-13,-205
2,2643577,-1409,516,2329,6355,196,-88,67,-13,-205
2,2643593,-1410,521,2329,6347,184,-96,67,-13,-205
2,2643606,-1415,561,2332,6346,187,-85,67,-13,-205
2,2643619,-1411,539,2334,6346,183,-80,67,-13,-205
2,2643634,-1411,539,2334,6346,183,-80,67,-13,-205
2,2643650,-1411,533,2335,6357,185,-83,75,-21,-209
2,2643665,-1405,548,2343,6351,193,-85,75,-21,-209
2,2643680,-1417,548,2343,6361,186,-82,75,-21,-209
2,2643693,-1417,548,2343,6361,186,-82,75,-21,-209
2,2643707,-1408,544,2341,6355,187,-86,75,-21,-209
2,2643722,-1408,519,2342,6369,185,-92,75,-21,-209
2,2643731,-1408,519,2342,6369,185,-92,75,-21,-209
2,2643745,-1411,524,2341,6377,186,-88,75,-21,-209
2,2643759,-1411,524,2341,6377,186,-88,75,-21,-209
2,2643773,-1407,501,2339,6375,188,-84,75,-21,-209
2,2643786,-1419,509,2342,6370,184,-90,89,-17,-217
2,2643798,-1419,509,2342,6370,184,-90,89,-17,-217
2,2643811,-1405,490,2340,6370,186,-93,89,-17,-217
2,2643824,-1414,500,2345,6369,193,-90,89,-17,-217
2,2643838,-1414,500,2345,6369,193,-90,89,-17,-217
2,2643853,-1407,488,2344,6367,189,-83,89,-17,-217
2,2643867,-1412,515,2344,6366,184,-89,89,-17,-217
2,2643883,-1402,501,2343,6366,192,-97,89,-17,-217
2,2643896,-1402,501,2343,6366,192,-97,89,-17,-217
2,2643910,-1410,508,2346,6369,190,-90,99,-19,-213
2,2643924,-1406,498,2343,6372,188,-76,99,-19,-213
2,2643939,-1406,498,2343,6372,188,-76,99,-19,-213
2,2643951,-1411,515,2346,6370,191,-83,99,-19,-213
2,2643964,-1406,500,2348,6374,191,-92,99,-19,-213
2,2643979,-1406,500,2348,6374,191,-92,99,-19,-213
2,2643992,-1409,498,2335,6373,183,-87,99,-19,-213
2,2644005,-1409,490,2343,6370,196,-86,99,-19,-213
2,2644020,-1404,502,2347,6369,199,-80,111,-25,-223
2,2644032,-1404,502,2347,6369,199,-80,111,-25,-223
2,2644045,-1405,494,2351,6371,192,-92,111,-25,-223
2,2644059,-1405,494,2351,6371,192,-92,111,-25,-223
2,2644072,-1406,495,2341,6369,194,-86,111,-25,-223
2,2644087,-1405,494,2346,6369,198,-86,111,-25,-223
2,2644103,-1406,503,2344,6375,195,-84,111,-25,-223
2,2644118,-1406,503,2344,6375,195,-84,111,-25,-223
2,2644130,-1408,491,2345,6373,188,-94,111,-25,-223
2,2644145,-1407,474,2347,6374,189,-95,118,-20,-222
2,2644160,-1401,492,2346,6368,194,-86,118,-20,-222
2,2644172,-1401,492,2346,6368,194,-86,118,-20,-222
2,2644184,-1410,484,2334,6367,190,-85,118,-20,-222
2,2644199,-1410,484,2334,6367,190,-85,118,-20,-222
2,2644212,-1409,483,2338,6374,189,-87,118,-20,-222
2,2644226,-1404,476,2341,6362,188,-88,118,-20,-222
2,2644240,-1404,476,2341,6362,188,-88,118,-20,-222
2,2644250,-1407,484,2342,6364,189,-84,118,-20,-222
2,2644263,-1407,483,2337,6369,188,-81,119,-13,-233
2,2644277,-1407,483,2337,6369,188,-81,119,-13,-233
2,2644290,-1406,489,2341,6360,187,-85,119,-13,-233
2,2644304,-1401,492,2337,6364,193,-96,119,-13,-233
2,2644320,-1401,492,2337,6364,193,-96,119,-13,-233
2,2644333,-1405,488,2346,6360,185,-88,119,-13,-233
2,2644346,-1407,497,2334,6361,184,-90,119,-13,-233
2,2644362,-1411,488,2333,6370,195,-94,119,-13,-233
2,2644377,-1411,488,2333,6370,195,-94,119,-13,-233
2,2644391,-1407,493,2331,6370,188,-94,119,-13,-233
2,2644403,-1403,486,2340,6361,194,-86,119,-13,-233
2,2644416,-1403,486,2340,6361,194,-86,119,-13,-233
2,2644430,-1410,495,2334,6358,192,-84,119,-13,-233
2,2644444,-1403,501,2333,6363,188,-85,119,-13,-233
2,2644458,-1403,501,2333,6363,188,-85,119,-13,-233
2,2644470,-1407,509,2338,6370,188,-91,119,-13,-233
2,2644482,-1404,502,2335,6359,189,-91,119,-13,-233
2,2644495,-1404,502,2335,6359,189,-91,119,-13,-233
2,2644507,-1410,512,2341,6358,190,-89,119,-13,-233
2,2644523,-1406,510,2334,6356,187,-89,134,-20,-232
2,2644536,-1406,510,2334,6356,187,-89,134,-20,-232
2,2644548,-1413,525,2336,6366,187,-81,134,-20,-232
2,2644563,-1410,502,2332,6360,189,-81,134,-20,-232
2,2644579,-1410,502,2332,6360,189,-81,134,-20,-232
2,2644593,-1411,522,2336,6362,194,-84,134,-20,-232
2,2644605,-1407,518,2337,6366,195,-91,134,-20,-232
2,2644619,-1407,518,2337,6366,195,-91,134,-20,-232
2,2644632,-1412,533,2338,6365,186,-90,134,-20,-232
2,2644645,-1409,520,2342,6366,192,-89,141,-23,-225
2,2644660,-1409,520,2342,6366,192,-89,141,-23,-225
2,2644674,-1410,541,2340,6368,191,-95,141,-23,-225
2,2644685,-1410,521,2344,6366,194,-87,141,-23,-225
2,2644699,-1410,521,2344,6366,194,-87,141,-23,-225
2,2644713,-1414,531,2340,6364,188,-92,141,-23,-225
2,2644726,-1414,531,2340,6364,188,-92,141,-23,-225
2,2644741,-1412,521,2342,6367,189,-90,141,-23,-225
2,2644755,-1412,521,2342,6367,189,-90,141,-23,-225
2,2644768,-1408,505,2349,6370,193,-87,139,-31,-227
2,2644782,-1413,512,2347,6370,195,-87,139,-31,-227
2,2644797,-1413,512,2347,6370,195,-87,139,-31,-227
2,2644813,-1407,510,2347,6368,189,-83,139,-31,-227
2,2644828,-1412,504,2349,6370,184,-83,139,-31,-227
2,2644841,-1411,494,2351,6377,191,-83,139,-31,-227
2,2644853,-1411,494,2351,6377,191,-83,139,-31,-227
2,2644867,-1411,494,2351,6377,191,-83,139,-31,-227
2,2644880,-1411,494,2351,6377,191,-83,139,-31,-227
2,2644889,-1409,505,2352,6376,192,-94,138,-20,-222
2,2644902,-1409,464,2349,6371,187,-84,138,-20,-222
2,2644917,-1409,464,2349,6371,187,-84,138,-20,-222
2,2644930,-1407,490,2344,6366,183,-90,138,-20,-222
2,2644943,-1407,476,2346,6367,192,-90,138,-20,-222
2,2644958,-1407,476,2346,6367,192,-90,138,-20,-222
2,2644969,-1412,506,2345,6365,199,-85,138,-20,-222
2,2644983,-1410,457,2338,6374,194,-92,138,-20,-222
2,2644998,-1410,457,2338,6374,194,-92,138,-20,-222
2,2645011,-1406,500,2341,6376,195,-99,153,-11,-221
2,2645024,-1399,473,2346,6369,190,-96,153,-11,-221
2,2645040,-1399,473,2346,6369,190,-96,153,-11,-221
2,2645055,-1412,503,2345,6372,185,-85,153,-11,-221
2,2645069,-1401,473,2342,6371,188,-92,153,-11,-221
2,2645084,-1410,505,2339,6370,194,-85,153,-11,-221
2,2645097,-1410,505,2339,6370,194,-85,153,-11,-221
2,2645108,-1403,475,2341,6373,192,-79,153,-11,-221
2,2645120,-1403,475,2341,6373,192,-79,153,-11,-221
2,2645134,-1414,505,2330,6365,187,-88,153,-11,-221
2,2645147,-1407,472,2347,6362,195,-91,150,-4,-216
2,2645160,-1407,472,2347,6362,195,-91,150,-4,-216
2,2645172,-1407,499,2333,6365,188,-93,150,-4,-216
2,2645185,-1405,472,2342,6363,189,-94,150,-4,-216
2,2645198,-1405,472,2342,6363,189,-94,150,-4,-216
2,2645213,-1407,497,2335,6361,187,-93,150,-4,-216
2,2645227,-1402,486,2341,6368,182,-97,150,-4,-216
2,2645242,-1409,497,2332,6365,188,-92,150,-4,-216
2,2645254,-1409,497,2332,6365,188,-92,150,-4,-216
2,2645268,-1406,482,2341,6364,185,-94,164,-8,-210
2,2645280,-1406,482,2341,6364,185,-94,164,-8,-210
2,2645294,-1407,496,2337,6360,188,-96,164,-8,-210
2,2645307,-1409,494,2336,6362,187,-85,164,-8,-210
2,2645321,-1409,494,2336,6362,187,-85,164,-8,-210
2,2645335,-1412,495,2332,6360,180,-84,164,-8,-210
2,2645347,-1405,491,2335,6359,180,-86,164,-8,-210
2,2645358,-1405,491,2335,6359,180,-86,164,-8,-210
2,2645371,-1407,507,2337,6360,191,-88,164,-8,-210
2,2645385,-1409,527,2338,6359,185,-92,162,-10,-208
2,2645398,-1409,527,2338,6359,185,-92,162,-10,-208
2,2645411,-1408,542,2335,6356,184,-90,162,-10,-208
2,2645424,-1408,517,2338,6358,190,-93,162,-10,-208
2,2645436,-1408,517,2338,6358,190,-93,162,-10,-208
2,2645450,-1407,521,2338,6364,193,-90,162,-10,-208
2,2645464,-1403,531,2343,6364,184,-82,162,-10,-208
2,2645478,-1403,531,2343,6364,184,-82,162,-10,-208
2,2645493,-1410,527,2346,6372,187,-88,162,-10,-208
2,2645508,-1409,523,2344,6368,185,-98,172,-14,-210
2,2645522,-1407,512,2345,6375,184,-93,172,-14,-210
2,2645535,-1407,512,2345,6375,184,-93,172,-14,-210
2,2645548,-1409,514,2341,6374,188,-88,172,-14,-210
2,2645559,-1409,514,2341,6374,188,-88,172,-14,-210
2,2645574,-1413,506,2346,6376,186,-87,172,-14,-210
2,2645587,-1406,509,2335,6370,192,-89,172,-14,-210
2,2645601,-1406,509,2335,6370,192,-89,172,-14,-210
2,2645614,-1408,495,2349,6368,193,-87,172,-14,-210
2,2645628,-1407,498,2341,6369,182,-82,164,-4,-204
2,2645641,-1407,498,2341,6369,182,-82,164,-4,-204
2,2645654,-1409,495,2348,6371,184,-79,164,-4,-204
2,2645667,-1407,508,2346,6369,186,-91,164,-4,-204
2,2645682,-1403,498,2347,6367,188,-92,164,-4,-204
2,2645695,-1403,498,2347,6367,188,-92,164,-4,-204
2,2645708,-1409,501,2341,6369,192,-82,164,-4,-204
2,2645722,-1407,510,2346,6369,187,-86,164,-4,-204
2,2645736,-1407,510,2346,6369,187,-86,164,-4,-204
2,2645752,-1409,516,2342,6367,190,-89,164,-4,-204
2,2645768,-1408,505,2348,6372,189,-95,170,2,-200
2,2645782,-1409,507,2347,6370,189,-88,170,2,-200
2,2645795,-1409,507,2347,6370,189,-88,170,2,-200
2,2645810,-1405,512,2345,6371,180,-92,170,2,-200
2,2645824,-1410,518,2349,6374,185,-89,170,2,-200
2,2645837,-1410,518,2349,6374,185,-89,170,2,-200
2,2645851,-1407,510,2347,6370,179,-90,170,2,-200
2,2645863,-1408,504,2348,6370,182,-93,170,2,-200
2,2645879,-1408,504,2348,6370,182,-93,170,2,-200
2,2645894,-1404,501,2351,6369,190,-93,178,-8,-196
2,2645908,-1406,498,2348,6376,194,-86,178,-8,-196
2,2645922,-1409,507,2344,6380,189,-86,178,-8,-196
2,2645937,-1409,507,2344,6380,189,-86,178,-8,-196
2,2645950,-1404,483,2350,6384,193,-87,178,-8,-196
2,2645964,-1404,458,2344,6383,196,-90,178,-8,-196
2,2645977,-1404,458,2344,6383,196,-90,178,-8,-196
2,2645988,-1404,488,2347,6374,191,-88,178,-8,-196
2,2646003,-1411,495,2348,6371,187,-84,175,-5,-179
2,2646020,-1411,495,2348,6371,187,-84,175,-5,-179
2,2646034,-1407,472,2346,6371,186,-90,175,-5,-179
2,2646046,-1401,480,2349,6368,180,-91,175,-5,-179
2,2646060,-1401,480,2349,6368,180,-91,175,-5,-179
2,2646073,-1406,480,2351,6368,186,-92,175,-5,-179
2,2646086,-1404,498,2336,6360,177,-86,175,-5,-179
2,2646100,-1404,498,2336,6360,177,-86,175,-5,-179
2,2646115,-1411,473,2340,6356,181,-88,175,-5,-179
2,2646129,-1407,491,2338,6358,199,-88,167,-11,-183
2,2646142,-1403,468,2347,6363,190,-92,167,-11,-183
2,2646157,-1403,468,2347,6363,190,-92,167,-11,-183
2,2646171,-1410,493,2335,6365,180,-88,167,-11,-183
2,2646183,-1407,477,2338,6359,183,-96,167,-11,-183
2,2646198,-1407,477,2338,6359,183,-96,167,-11,-183
2,2646213,-1406,493,2332,6357,181,-93,167,-11,-183
2,2646228,-1401,469,2346,6365,183,-89,167,-11,-183
2,2646242,-1401,469,2346,6365,183,-89,167,-11,-183
2,2646256,-1408,487,2336,6368,184,-82,167,-3,-185
2,2646272,-1407,492,2342,6361,191,-83,167,-3,-185
2,2646287,-1410,496,2338,6362,197,-90,167,-3,-185
2,2646299,-1410,496,2338,6362,197,-90,167,-3,-185
2,2646309,-1400,478,2340,6355,174,-93,167,-3,-185
2,2646323,-1408,490,2338,6357,182,-86,167,-3,-185
2,2646336,-1408,490,2338,6357,182,-86,167,-3,-185
2,2646350,-1406,494,2329,6359,182,-85,167,-3,-185
2,2646364,-1408,492,2336,6359,186,-89,167,-3,-185
2,2646376,-1408,492,2336,6359,186,-89,167,-3,-185
2,2646391,-1404,481,2339,6359,185,-92,165,5,-163
2,2646405,-1404,492,2336,6357,184,-92,165,5,-163
2,2646417,-1404,492,2336,6357,184,-92,165,5,-163
2,2646431,-1410,500,2330,6350,178,-83,165,5,-163
2,2646446,-1409,514,2332,6352,185,-85,165,5,-163
2,2646458,-1409,514,2332,6352,185,-85,165,5,-163
2,2646473,-1408,532,2336,6354,180,-90,165,5,-163
2,2646489,-1410,558,2338,6353,188,-88,165,5,-163
2,2646504,-1409,540,2343,6355,187,-86,160,-22,-168
2,2646516,-1409,540,2343,6355,187,-86,160,-22,-168
2,2646531,-1410,542,2336,6358,191,-91,160,-22,-168
2,2646546,-1403,555,2339,6362,191,-92,160,-22,-168
2,2646560,-1403,555,2339,6362,191,-92,160,-22,-168
2,2646574,-1409,552,2341,6368,186,-90,160,-22,-168
2,2646587,-1410,530,2345,6375,186,-86,160,-22,-168
2,2646599,-1410,530,2345,6375,186,-86,160,-22,-168
2,2646615,-1403,533,2351,6374,194,-86,160,-22,-168
2,2646631,-1405,515,2352,6371,198,-85,160,-4,-160
2,2646643,-1407,512,2352,6381,191,-89,160,-4,-160
2,2646657,-1407,512,2352,6381,191,-89,160,-4,-160
2,2646671,-1405,500,2344,6372,189,-80,160,-4,-160
2,2646685,-1407,504,2353,6371,196,-100,160,-4,-160
2,2646700,-1407,504,2353,6371,196,-100,160,-4,-160
2,2646714,-1405,493,2344,6382,188,-86,160,-4,-160
2,2646727,-1410,505,2344,6374,189,-90,160,-4,-160
2,2646742,-1410,505,2344,6374,189,-90,160,-4,-160
2,2646753,-1408,497,2347,6366,191,-95,151,-17,-155
2,2646767,-1410,507,2351,6366,187,-96,151,-17,-155
2,2646782,-1405,489,2347,6377,182,-90,151,-17,-155
2,2646798,-1405,489,2347,6377,182,-90,151,-17,-155
2,2646811,-1408,508,2345,6374,183,-83,151,-17,-155
2,2646824,-1403,500,2350,6373,185,-85,151,-17,-155
2,2646838,-1403,500,2350,6373,185,-85,151,-17,-155
2,2646850,-1408,507,2346,6370,194,-91,151,-17,-155
2,2646864,-1405,492,2350,6370,183,-92,143,-17,-145
2,2646878,-1405,492,2350,6370,183,-92,143,-17,-145
2,2646892,-1412,501,2346,6376,192,-88,143,-17,-145
2,2646905,-1408,499,2347,6376,186,-82,143,-17,-145
2,2646919,-1408,499,2347,6376,186,-82,143,-17,-145
2,2646932,-1409,499,2342,6371,183,-90,143,-17,-145
2,2646944,-1405,493,2345,6371,190,-88,143,-17,-145
2,2646958,-1405,493,2345,6371,190,-88,143,-17,-145
2,2646971,-1407,491,2350,6371,189,-81,143,-17,-145
2,2646985,-1404,489,2344,6369,182,-80,143,-17,-145
2,2647001,-1404,489,2344,6369,182,-80,143,-17,-145
2,2647016,-1408,496,2349,6367,181,-87,135,-17,-145
2,2647031,-1404,465,2349,6375,187,-89,135,-17,-145
2,2647045,-1402,495,2344,6370,189,-91,135,-17,-145
2,2647059,-1402,495,2344,6370,189,-91,135,-17,-145
2,2647070,-1403,479,2340,6366,186,-79,135,-17,-145
2,2647081,-1403,479,2340,6366,186,-79,135,-17,-145
2,2647095,-1408,496,2339,6366,181,-87,135,-17,-145
2,2647109,-1403,472,2341,6360,187,-92,135,-17,-145
2,2647122,-1405,485,2337,6360,192,-81,135,-17,-145
2,2647137,-1405,485,2337,6360,192,-81,131,-25,-137
2,2647149,-1401,481,2346,6359,190,-86,131,-25,-137
2,2647162,-1401,481,2346,6359,190,-86,131,-25,-137
2,2647176,-1406,487,2336,6360,193,-81,131,-25,-137
2,2647189,-1400,483,2337,6355,186,-82,131,-25,-137
2,2647203,-1402,494,2343,6365,191,-82,131,-25,-137
2,2647218,-1402,494,2343,6365,191,-82,131,-25,-137
2,2647231,-1406,489,2337,6364,190,-85,131,-25,-137
2,2647245,-1409,495,2345,6371,194,-91,128,-14,-124
2,2647261,-1409,495,2345,6371,194,-91,128,-14,-124
2,2647276,-1407,488,2346,6365,195,-89,128,-14,-124
2,2647288,-1405,489,2341,6365,190,-88,128,-14,-124
2,2647301,-1405,489,2341,6365,190,-88,128,-14,-124
2,2647316,-1407,491,2332,6360,185,-84,128,-14,-124
2,2647329,-1406,499,2334,6370,200,-91,128,-14,-124
2,2647344,-1405,504,2339,6357,196,-93,128,-14,-124
2,2647357,-1405,504,2339,6357,196,-93,128,-14,-124
2,2647371,-1408,500,2341,6362,192,-82,114,-24,-120
2,2647387,-1407,505,2343,6360,189,-86,114,-24,-120
2,2647400,-1407,505,2343,6360,189,-86,114,-24,-120
2,2647413,-1406,515,2338,6363,191,-83,114,-24,-120
2,2647428,-1405,513,2338,6367,186,-85,114,-24,-120
2,2647441,-1405,513,2338,6367,186,-85,114,-24,-120
2,2647455,-1405,517,2343,6367,185,-92,114,-24,-120
2,2647469,-1408,520,2338,6362,188,-89,114,-24,-120
2,2647483,-1407,534,2339,6366,189,-89,108,-26,-122
2,2647497,-1407,534,2339,6366,189,-89,108,-26,-122
2,2647512,-1408,527,2344,6363,193,-89,108,-26,-122
2,2647526,-1407,543,2345,6362,186,-89,108,-26,-122
2,2647538,-1407,543,2345,6362,186,-89,108,-26,-122
2,2647553,-1405,524,2338,6370,190,-83,108,-26,-122
2,2647569,-1406,538,2342,6373,193,-94,108,-26,-122
2,2647577,-1406,538,2342,6373,193,-94,108,-26,-122
2,2647585,-1404,516,2344,6374,191,-80,108,-26,-122
2,2647592,-1404,516,2344,6374,191,-80,108,-26,-122
2,2647605,-1410,536,2349,6370,188,-80,108,-26,-122
2,2647617,-1410,536,2349,6370,188,-80,108,-26,-122
2,2647631,-1404,512,2348,6370,192,-84,108,-32,-114
2,2647645,-1411,531,2351,6372,195,-84,108,-32,-114
2,2647658,-1411,531,2351,6372,195,-84,108,-32,-114
2,2647672,-1401,502,2346,6364,195,-83,108,-32,-114
2,2647687,-1409,519,2345,6373,178,-80,108,-32,-114
2,2647699,-1409,519,2345,6373,178,-80,108,-32,-114
2,2647713,-1403,496,2347,6377,179,-85,108,-32,-114
2,2647727,-1402,512,2348,6375,189,-87,108,-32,-114
2,2647741,-1402,512,2348,6375,189,-87,108,-32,-114
2,2647756,-1405,493,2349,6373,192,-85,100,-26,-106
2,2647772,-1405,510,2352,6371,188,-85,100,-26,-106
2,2647787,-1402,453,2351,6377,192,-94,100,-26,-106
2,2647801,-1402,453,2351,6377,192,-94,100,-26,-106
2,2647815,-1403,500,2344,6371,190,-89,100,-26,-106
2,2647829,-1401,480,2345,6378,196,-88,100,-26,-106
2,2647844,-1407,509,2346,6368,189,-88,100,-26,-106
2,2647857,-1407,509,2346,6368,189,-88,100,-26,-106
2,2647868,-1406,463,2343,6372,190,-93,105,-27,-105
2,2647881,-1406,463,2343,6372,190,-93,105,-27,-105
2,2647896,-1403,497,2336,6373,193,-94,105,-27,-105
2,2647909,-1399,478,2338,6370,193,-80,105,-27,-105
2,2647921,-1399,478,2338,6370,193,-80,105,-27,-105
2,2647933,-1411,503,2343,6359,178,-80,105,-27,-105
2,2647947,-1400,484,2345,6363,187,-96,105,-27,-105
2,2647961,-1400,484,2345,6363,187,-96,105,-27,-105
2,2647974,-1400,484,2345,6363,187,-96,105,-27,-105
2,2647990,-1403,483,2343,6363,194,-82,93,-35,-103
2,2648004,-1412,493,2340,6368,188,-84,93,-35,-103
2,2648018,-1412,493,2340,6368,188,-84,93,-35,-103
2,2648032,-1406,491,2337,6365,195,-91,93,-35,-103
2,2648046,-1407,486,2334,6372,189,-92,93,-35,-103
2,2648059,-1407,486,2334,6372,189,-92,93,-35,-103
2,2648072,-1405,488,2337,6363,190,-78,93,-35,-103
2,2648085,-1409,493,2341,6360,187,-82,93,-35,-103
2,2648098,-1409,493,2341,6360,187,-82,93,-35,-103
2,2648113,-1411,497,2339,6361,184,-91,91,-35,-103
2,2648126,-1406,485,2342,6360,177,-88,91,-35,-103
2,2648137,-1406,485,2342,6360,177,-88,91,-35,-103
2,2648151,-1407,488,2340,6361,190,-85,91,-35,-103
2,2648164,-1406,498,2343,6362,186,-93,91,-35,-103
2,2648177,-1406,498,2343,6362,186,-93,91,-35,-103
2,2648193,-1407,510,2330,6357,185,-87,91,-35,-103
2,2648208,-1406,510,2337,6359,188,-90,91,-35,-103
2,2648223,-1406,510,2337,6359,188,-90,91,-35,-103
2,2648237,-1407,528,2340,6355,185,-89,83,-39,-107
2,2648251,-1410,553,2343,6355,190,-90,83,-39,-107
2,2648260,-1410,553,2343,6355,190,-90,83,-39,-107
2,2648273,-1408,533,2340,6359,182,-91,83,-39,-107
2,2648288,-1405,526,2341,6361,183,-89,83,-39,-107
2,2648302,-1405,526,2341,6361,183,-89,83,-39,-107
2,2648315,-1401,533,2343,6365,188,-91,83,-39,-107
2,2648329,-1407,541,2347,6371,191,-85,83,-39,-107
2,2648343,-1407,541,2347,6371,191,-85,83,-39,-107
2,2648357,-1409,535,2342,6370,182,-94,83,-39,-107
2,2648371,-1403,524,2354,6372,187,-96,79,-33,-103
2,2648385,-1398,526,2344,6370,194,-95,79,-33,-103
2,2648398,-1398,526,2344,6370,194,-95,79,-33,-103
2,2648413,-1405,516,2346,6376,187,-82,79,-33,-103
2,2648427,-1409,515,2339,6373,184,-87,79,-33,-103
2,2648440,-1409,515,2339,6373,184,-87,79,-33,-103
2,2648453,-1403,514,2348,6377,191,-93,79,-33,-103
2,2648468,-1404,496,2343,6378,192,-88,79,-33,-103
2,2648482,-1404,496,2343,6378,192,-88,79,-33,-103
2,2648497,-1403,502,2347,6378,187,-89,76,-36,-102
2,2648509,-1407,503,2347,6375,193,-90,76,-36,-102
2,2648524,-1404,508,2350,6369,183,-94,76,-36,-102
2,2648540,-1404,508,2350,6369,183,-94,76,-36,-102
2,2648554,-1402,496,2344,6375,188,-88,76,-36,-102
2,2648567,-1406,502,2344,6369,187,-88,76,-36,-102
2,2648582,-1406,502,2344,6369,187,-88,76,-36,-102
2,2648595,-1405,509,2348,6372,199,-85,76,-36,-102
2,2648611,-1408,510,2346,6357,197,-85,71,-31,-101
2,2648623,-1408,510,2346,6357,197,-85,71,-31,-101
2,2648636,-1408,496,2345,6367,194,-87,71,-31,-101
2,2648649,-1401,503,2344,6374,189,-93,71,-31,-101
2,2648664,-1401,503,2344,6374,189,-93,71,-31,-101
2,2648678,-1412,506,2347,6373,188,-92,71,-31,-101
2,2648693,-1410,512,2346,6364,195,-80,71,-31,-101
2,2648708,-1409,506,2346,6369,194,-88,71,-31,-101
2,2648720,-1409,506,2346,6369,194,-88,71,-31,-101
2,2648735,-1399,514,2348,6369,197,-90,65,-25,-99
2,2648751,-1406,508,2350,6366,193,-91,65,-25,-99
2,2648765,-1405,506,2346,6373,187,-95,65,-25,-99
2,2648775,-1405,506,2346,6373,187,-95,65,-25,-99
2,2648790,-1406,503,2346,6373,183,-93,65,-25,-99
2,2648803,-1406,503,2346,6373,183,-93,65,-25,-99
2,2648816,-1406,508,2346,6372,189,-93,65,-25,-99
2,2648829,-1405,452,2341,6376,189,-91,65,-25,-99
2,2648842,-1405,452,2341,6376,189,-91,65,-25,-99
2,2648851,-1405,503,2338,6369,190,-88,59,-25,-107
2,2648864,-1403,477,2347,6367,190,-85,59,-25,-107
2,2648880,-1403,477,2347,6367,190,-85,59,-25,-107
2,2648887,-1407,490,2344,6371,188,-83,59,-25,-107
2,2648901,-1407,490,2344,6371,188,-83,59,-25,-107
2,2648915,-1403,468,2342,6371,193,-92,59,-25,-107
2,2648930,-1406,503,2339,6360,194,-88,59,-25,-107
2,2648944,-1406,503,2339,6360,194,-88,59,-25,-107
2,2648958,-1400,488,2340,6366,192,-80,59,-25,-107
2,2648971,-1415,493,2337,6362,192,-89,59,-25,-107
2,2648986,-1402,481,2341,6362,190,-90,60,-28,-112
2,2649001,-1402,481,2341,6362,190,-90,60,-28,-112
2,2649016,-1406,487,2338,6364,194,-86,60,-28,-112
2,2649027,-1405,485,2338,6363,184,-84,60,-28,-112
2,2649040,-1405,485,2338,6363,184,-84,60,-28,-112
2,2649056,-1407,488,2334,6364,189,-82,60,-28,-112
2,2649069,-1405,486,2338,6357,199,-80,60,-28,-112
2,2649082,-1405,486,2338,6357,199,-80,60,-28,-112
2,2649095,-1402,493,2343,6364,190,-93,60,-28,-112
2,2649109,-1407,488,2334,6367,187,-99,51,-27,-113
2,2649122,-1407,488,2334,6367,187,-99,51,-27,-113
2,2649138,-1405,494,2342,6359,190,-94,51,-27,-113
2,2649152,-1407,498,2341,6361,195,-94,51,-27,-113
2,2649167,-1406,492,2335,6356,189,-85,51,-27,-113
2,2649181,-1406,492,2335,6356,189,-85,51,-27,-113
2,2649194,-1410,488,2330,6359,190,-81,51,-27,-113
2,2649208,-1406,494,2333,6354,195,-88,51,-27,-113
2,2649223,-1406,494,2333,6354,195,-88,51,-27,-113
2,2649236,-1406,495,2332,6354,191,-86,49,-17,-123
2,2649249,-1406,490,2337,6358,188,-89,49,-17,-123
2,2649262,-1406,490,2337,6358,188,-89,49,-17,-123
2,2649275,-1403,502,2332,6356,189,-90,49,-17,-123
2,2649288,-1407,515,2333,6352,195,-94,49,-17,-123
2,2649303,-1407,515,2333,6352,195,-94,49,-17,-123
2,2649316,-1407,540,2335,6352,188,-91,49,-17,-123
2,2649328,-1410,564,2335,6354,187,-90,49,-17,-123
2,2649340,-1410,564,2335,6354,187,-90,49,-17,-123
2,2649354,-1409,540,2342,6354,191,-94,51,-17,-123
2,2649366,-1405,546,2341,6354,177,-91,51,-17,-123
2,2649381,-1405,546,2341,6354,177,-91,51,-17,-123
2,2649397,-1405,550,2337,6354,187,-85,51,-17,-123
2,2649412,-1413,560,2340,6365,177,-88,51,-17,-123
2,2649425,-1406,540,2338,6369,189,-90,51,-17,-123
2,2649440,-1406,540,2338,6369,189,-90,51,-17,-123
2,2649450,-1401,545,2344,6377,195,-89,51,-17,-123
2,2649463,-1401,545,2344,6377,195,-89,51,-17,-123
2,2649479,-1403,526,2348,6376,189,-86,49,-21,-129
2,2649494,-1407,534,2351,6368,184,-83,49,-21,-129
2,2649507,-1406,515,2341,6371,186,-90,49,-21,-129
2,2649521,-1406,515,2341,6371,186,-90,49,-21,-129
2,2649538,-1402,522,2351,6368,186,-94,49,-21,-129
2,2649550,-1399,497,2343,6367,182,-85,49,-21,-129
2,2649563,-1399,497,2343,6367,182,-85,49,-21,-129
2,2649575,-1409,514,2342,6368,191,-86,49,-21,-129
2,2649588,-1403,501,2339,6372,199,-84,49,-21,-129
2,2649604,-1403,501,2339,6372,199,-84,49,-21,-129
2,2649617,-1404,504,2348,6372,194,-89,59,-17,-131
2,2649631,-1403,493,2345,6365,188,-83,59,-17,-131
2,2649646,-1407,505,2342,6369,187,-82,59,-17,-131
2,2649659,-1407,505,2342,6369,187,-82,59,-17,-131
2,2649673,-1402,511,2344,6368,185,-86,59,-17,-131
2,2649689,-1406,508,2345,6376,188,-89,59,-17,-131
2,2649704,-1406,508,2345,6376,188,-89,59,-17,-131
2,2649715,-1408,505,2348,6370,188,-89,59,-17,-131
2,2649729,-1404,503,2349,6366,186,-88,48,-28,-140
2,2649742,-1404,503,2349,6366,186,-88,48,-28,-140
2,2649756,-1409,507,2344,6367,182,-85,48,-28,-140
2,2649769,-1407,500,2339,6364,181,-91,48,-28,-140
2,2649779,-1407,500,2339,6364,181,-91,48,-28,-140
2,2649787,-1405,493,2339,6368,194,-84,48,-28,-140
2,2649800,-1405,493,2339,6368,194,-84,48,-28,-140
2,2649814,-1402,494,2342,6367,185,-81,48,-28,-140
2,2649826,-1408,501,2343,6370,185,-85,48,-28,-140
2,2649840,-1408,501,2343,6370,185,-85,48,-28,-140
2,2649854,-1405,501,2351,6366,189,-82,55,-21,-151
2,2649868,-1404,500,2340,6372,186,-82,55,-21,-151
2,2649880,-1404,500,2340,6372,186,-82,55,-21,-151
2,2649893,-1404,495,2347,6366,189,-85,55,-21,-151
2,2649909,-1402,477,2336,6364,195,-88,55,-21,-151
2,2649923,-1402,477,2336,6364,195,-88,55,-21,-151
2,2649935,-1408,499,2338,6367,194,-91,55,-21,-151
2,2649949,-1405,490,2342,6362,200,-85,55,-21,-151
2,2649963,-1405,490,2342,6362,200,-85,55,-21,-151
2,2649976,-1403,485,2345,6369,188,-91,55,-23,-153
2,2649991,-1401,478,2343,6363,189,-94,55,-23,-153
2,2650004,-1401,478,2343,6363,189,-94,55,-23,-153
2,2650018,-1406,493,2342,6362,195,-98,55,-23,-153
2,2650033,-1405,493,2342,6360,190,-84,55,-23,-153
2,2650047,-1407,498,2333,6365,190,-86,55,-23,-153
2,2650060,-1407,498,2333,6365,190,-86,55,-23,-153
2,2650074,-1404,494,2341,6367,189,-90,55,-23,-153
2,2650088,-1403,492,2336,6364,184,-82,48,-28,-166
2,2650102,-1403,492,2336,6364,184,-82,48,-28,-166
2,2650118,-1408,498,2343,6365,189,-86,48,-28,-166
2,2650131,-1408,496,2335,6359,184,-82,48,-28,-166
2,2650144,-1408,496,2335,6359,184,-82,48,-28,-166
2,2650160,-1404,495,2336,6358,193,-86,48,-28,-166
2,2650175,-1407,500,2333,6359,192,-89,48,-28,-166
2,2650189,-1406,508,2335,6356,185,-91,48,-28,-166
2,2650202,-1406,508,2335,6356,185,-91,48,-28,-166
2,2650215,-1410,513,2339,6356,186,-90,48,-28,-166
2,2650229,-1406,523,2339,6357,189,-92,54,-28,-168
2,2650242,-1406,523,2339,6357,189,-92,54,-28,-168
2,2650256,-1402,525,2337,6355,195,-89,54,-28,-168
2,2650269,-1407,516,2336,6363,193,-92,54,-28,-168
2,2650285,-1407,516,2336,6363,193,-92,54,-28,-168
2,2650298,-1407,513,2336,6361,185,-89,54,-28,-168
2,2650311,-1405,517,2336,6362,183,-89,54,-28,-168
2,2650324,-1405,517,2336,6362,183,-89,54,-28,-168
2,2650338,-1406,526,2332,6366,178,-93,54,-28,-168
2,2650352,-1409,527,2350,6369,181,-90,61,-27,-175
2,2650363,-1409,527,2350,6369,181,-90,61,-27,-175
2,2650378,-1408,529,2331,6363,182,-95,61,-27,-175
2,2650388,-1406,527,2336,6361,193,-90,61,-27,-175
2,2650403,-1406,527,2336,6361,193,-90,61,-27,-175
2,2650418,-1406,538,2333,6357,189,-97,61,-27,-175
2,2650431,-1407,526,2342,6368,192,-88,61,-27,-175
2,2650449,-1407,534,2334,6373,182,-88,61,-27,-175
2,2650464,-1407,534,2334,6373,182,-88,61,-27,-175
2,2650477,-1405,526,2352,6375,191,-87,60,-28,-184
2,2650491,-1408,530,2346,6373,185,-85,60,-28,-184
2,2650503,-1408,530,2346,6373,185,-85,60,-28,-184
2,2650518,-1405,521,2342,6372,191,-93,60,-28,-184
2,2650532,-1410,519,2343,6376,195,-97,60,-28,-184
2,2650547,-1404,512,2337,6367,188,-90,60,-28,-184
2,2650560,-1404,512,2337,6367,188,-90,60,-28,-184
2,2650573,-1410,505,2346,6371,186,-83,60,-28,-184
2,2650589,-1402,510,2344,6376,190,-89,60,-28,-194
2,2650604,-1402,510,2344,6376,190,-89,60,-28,-194
2,2650619,-1406,503,2350,6377,187,-90,60,-28,-194
2,2650635,-1406,505,2344,6375,190,-90,60,-28,-194
2,2650648,-1403,454,2345,6373,190,-97,60,-28,-194
2,2650661,-1403,454,2345,6373,190,-97,60,-28,-194
2,2650677,-1402,511,2338,6375,188,-95,60,-28,-194
2,2650689,-1404,484,2344,6367,188,-79,60,-28,-194
2,2650701,-1404,484,2344,6367,188,-79,60,-28,-194
2,2650715,-1411,495,2349,6371,186,-87,63,-19,-199
2,2650728,-1402,472,2345,6372,188,-96,63,-19,-199
2,2650742,-1402,472,2345,6372,188,-96,63,-19,-199
2,2650756,-1409,494,2340,6365,198,-83,63,-19,-199
2,2650767,-1398,485,2343,6366,192,-88,63,-19,-199
2,2650781,-1398,485,2343,6366,192,-88,63,-19,-199
2,2650796,-1412,490,2340,6357,197,-94,63,-19,-199
2,2650810,-1402,486,2337,6366,201,-91,63,-19,-199
2,2650823,-1402,486,2337,6366,201,-91,63,-19,-199
2,2650834,-1402,492,2344,6370,190,-87,63,-19,-199
2,2650848,-1405,494,2337,6359,189,-82,76,-22,-206
2,2650862,-1405,494,2337,6359,189,-82,76,-22,-206
2,2650876,-1408,496,2338,6358,184,-95,76,-22,-206
2,2650889,-1408,496,2338,6358,184,-95,76,-22,-206
2,2650901,-1408,496,2338,6358,184,-95,76,-22,-206
2,2650914,-1403,487,2337,6357,194,-94,76,-22,-206
2,2650929,-1411,489,2340,6365,195,-90,76,-22,-206
2,2650942,-1411,489,2340,6365,195,-90,76,-22,-206
2,2650955,-1404,496,2332,6352,189,-84,76,-22,-206
2,2650967,-1405,501,2340,6361,192,-92,93,-19,-221
2,2650981,-1405,501,2340,6361,192,-92,93,-19,-221
2,2650995,-1402,490,2332,6360,184,-93,93,-19,-221
2,2651009,-1409,491,2333,6360,183,-83,93,-19,-221
2,2651024,-1409,491,2333,6360,183,-83,93,-19,-221
2,2651038,-1403,501,2325,6356,183,-89,93,-19,-221
2,2651054,-1407,507,2335,6358,191,-92,93,-19,-221
2,2651067,-1407,507,2335,6358,191,-92,93,-19,-221
2,2651081,-1407,507,2335,6358,191,-92,93,-19,-221
2,2651096,-1408,513,2335,6356,196,-93,93,-19,-225
2,2651111,-1409,546,2338,6355,190,-92,93,-19,-225
2,2651122,-1409,546,2338,6355,190,-92,93,-19,-225
2,2651134,-1405,543,2330,6366,196,-87,93,-19,-225
2,2651149,-1410,523,2344,6364,191,-91,93,-19,-225
2,2651162,-1410,523,2344,6364,191,-91,93,-19,-225
2,2651175,-1406,527,2326,6364,184,-95,93,-19,-225
2,2651187,-1409,539,2345,6370,190,-87,93,-19,-225
2,2651200,-1409,539,2345,6370,190,-87,93,-19,-225
2,2651213,-1409,539,2335,6366,184,-86,115,-27,-229
2,2651228,-1413,526,2347,6367,191,-87,115,-27,-229
2,2651241,-1413,526,2347,6367,191,-87,115,-27,-229
2,2651255,-1399,530,2337,6364,186,-93,115,-27,-229
2,2651270,-1405,527,2353,6366,191,-86,115,-27,-229
2,2651283,-1405,527,2353,6366,191,-86,115,-27,-229
2,2651293,-1405,518,2340,6368,184,-84,115,-27,-229
2,2651307,-1405,518,2340,6368,184,-84,115,-27,-229
2,2651322,-1407,517,2341,6368,185,-88,115,-27,-229
2,2651335,-1402,504,2346,6369,190,-87,114,-22,-228
2,2651348,-1404,502,2343,6366,178,-86,114,-22,-228
2,2651357,-1404,502,2343,6366,178,-86,114,-22,-228
2,2651369,-1412,501,2341,6374,180,-94,114,-22,-228
2,2651382,-1412,501,2341,6374,180,-94,114,-22,-228
2,2651397,-1404,512,2338,6369,191,-91,114,-22,-228
2,2651411,-1407,499,2344,6368,191,-79,114,-22,-228
2,2651422,-1407,499,2344,6368,191,-79,114,-22,-228
2,2651436,-1404,504,2335,6371,189,-86,114,-22,-228
2,2651449,-1409,503,2345,6375,190,-86,114,-22,-228
2,2651463,-1409,503,2345,6375,190,-86,114,-22,-228
2,2651479,-1406,521,2351,6377,190,-84,116,-20,-226
2,2651493,-1405,504,2350,6369,186,-87,116,-20,-226
2,2651508,-1406,511,2340,6366,180,-87,116,-20,-226
2,2651523,-1406,511,2340,6366,180,-87,116,-20,-226
2,2651537,-1402,506,2343,6373,195,-84,116,-20,-226
2,2651550,-1410,525,2342,6367,193,-85,116,-20,-226
2,2651566,-1410,525,2342,6367,193,-85,116,-20,-226
2,2651576,-1407,518,2342,6370,186,-83,116,-20,-226
2,2651588,-1407,517,2345,6372,194,-87,124,-24,-232
2,2651601,-1407,517,2345,6372,194,-87,124,-24,-232
2,2651615,-1407,511,2346,6374,195,-84,124,-24,-232
2,2651629,-1406,510,2346,6373,187,-87,124,-24,-232
2,2651640,-1406,510,2346,6373,187,-87,124,-24,-232
2,2651653,-1404,502,2345,6376,192,-86,124,-24,-232
2,2651667,-1402,508,2345,6375,184,-85,124,-24,-232
2,2651680,-1402,508,2345,6375,184,-85,124,-24,-232
2,2651695,-1405,495,2342,6377,186,-89,124,-24,-232
2,2651709,-1401,464,2344,6375,196,-96,138,-20,-226
2,2651724,-1401,464,2344,6375,196,-96,138,-20,-226
2,2651739,-1403,496,2342,6370,191,-95,138,-20,-226
2,2651752,-1406,497,2346,6369,192,-81,138,-20,-226
2,2651767,-1408,480,2337,6375,186,-82,138,-20,-226
2,2651783,-1408,480,2337,6375,186,-82,138,-20,-226
2,2651797,-1400,484,2339,6369,188,-94,138,-20,-226
2,2651809,-1406,487,2344,6373,195,-86,138,-20,-226
2,2651823,-1406,487,2344,6373,195,-86,138,-20,-226
2,2651836,-1405,504,2343,6366,189,-87,143,-23,-221
2,2651850,-1407,491,2342,6365,183,-83,143,-23,-221
2,2651865,-1407,491,2342,6365,183,-83,143,-23,-221
2,2651880,-1405,500,2338,6367,187,-94,143,-23,-221
2,2651894,-1398,483,2339,6366,190,-94,143,-23,-221
2,2651906,-1398,483,2339,6366,190,-94,143,-23,-221
2,2651920,-1409,494,2334,6362,184,-88,143,-23,-221
2,2651933,-1406,486,2333,6366,186,-91,143,-23,-221
2,2651948,-1405,500,2336,6365,189,-93,152,-30,-218
2,2651962,-1405,500,2336,6365,189,-93,152,-30,-218
2,2651977,-1401,484,2335,6366,188,-96,152,-30,-218
2,2651993,-1411,491,2339,6363,187,-90,152,-30,-218
2,2652008,-1404,493,2327,6362,189,-88,152,-30,-218
2,2652021,-1404,493,2327,6362,189,-88,152,-30,-218
2,2652035,-1406,507,2340,6358,193,-88,152,-30,-218
2,2652049,-1402,484,2330,6360,175,-92,152,-30,-218
2,2652062,-1402,484,2330,6360,175,-92,152,-30,-218
2,2652076,-1407,498,2330,6355,187,-92,152,-30,-218
2,2652090,-1402,496,2330,6352,192,-90,152,-30,-218
2,2652104,-1402,496,2330,6352,192,-90,152,-30,-218
2,2652118,-1408,502,2332,6352,191,-83,152,-30,-218
2,2652131,-1408,486,2327,6357,192,-86,152,-30,-218
2,2652145,-1408,486,2327,6357,192,-86,152,-30,-218
2,2652157,-1408,501,2329,6361,192,-90,152,-30,-218
2,2652172,-1405,511,2334,6357,192,-83,152,-30,-218
2,2652187,-1411,552,2334,6350,185,-82,152,-30,-218
2,2652203,-1411,552,2334,6350,185,-82,152,-30,-218
2,2652217,-1412,546,2341,6358,189,-92,147,-15,-221
2,2652229,-1407,549,2340,6356,189,-95,147,-15,-221
2,2652242,-1407,549,2340,6356,189,-95,147,-15,-221
2,2652257,-1411,529,2336,6357,190,-86,147,-15,-221
2,2652270,-1409,563,2337,6364,195,-87,147,-15,-221
2,2652283,-1409,563,2337,6364,195,-87,147,-15,-221
2,2652298,-1413,541,2340,6368,191,-83,147,-15,-221
2,2652309,-1410,548,2338,6367,191,-96,147,-15,-221
2,2652322,-1410,548,2338,6367,191,-96,147,-15,-221
2,2652336,-1404,514,2345,6373,196,-90,153,-9,-223
2,2652349,-1411,535,2349,6368,191,-85,153,-9,-223
2,2652364,-1411,535,2349,6368,191,-85,153,-9,-223
2,2652379,-1407,506,2349,6376,183,-86,153,-9,-223
2,2652390,-1409,518,2351,6377,188,-96,153,-9,-223
2,2652406,-1409,518,2351,6377,188,-96,153,-9,-223
2,2652422,-1404,492,2349,6376,191,-94,153,-9,-223
2,2652437,-1406,508,2349,6376,195,-90,153,-9,-223
2,2652452,-1404,491,2348,6372,193,-78,159,-5,-215
2,2652466,-1404,491,2348,6372,193,-78,159,-5,-215
2,2652477,-1409,522,2355,6366,192,-88,159,-5,-215
2,2652491,-1404,485,2344,6370,189,-92,159,-5,-215
2,2652505,-1404,485,2344,6370,189,-92,159,-5,-215
2,2652519,-1410,507,2344,6369,187,-89,159,-5,-215
2,2652532,-1406,483,2346,6365,201,-88,159,-5,-215
2,2652544,-1406,483,2346,6365,201,-88,159,-5,-215
2,2652553,-1412,515,2339,6371,192,-89,159,-5,-215
2,2652567,-1412,515,2339,6371,192,-89,159,-5,-215
2,2652579,-1405,491,2348,6370,191,-91,161,-1,-211
2,2652592,-1407,502,2349,6368,193,-94,161,-1,-211
2,2652607,-1407,502,2349,6368,193,-94,161,-1,-211
2,2652621,-1402,488,2345,6369,196,-86,161,-1,-211
2,2652637,-1406,515,2344,6371,187,-86,161,-1,-211
2,2652649,-1406,491,2347,6374,205,-90,161,-1,-211
2,2652664,-1406,491,2347,6374,205,-90,161,-1,-211
2,2652680,-1406,501,2341,6374,191,-95,161,-1,-211
2,2652694,-1406,487,2346,6370,187,-88,149,-1,-207
2,2652708,-1407,503,2344,6372,177,-89,149,-1,-207
2,2652722,-1407,503,2344,6372,177,-89,149,-1,-207
2,2652735,-1407,487,2343,6369,187,-83,149,-1,-207
2,2652747,-1407,487,2343,6369,187,-83,149,-1,-207
2,2652761,-1410,495,2342,6367,187,-90,149,-1,-207
2,2652775,-1403,467,2350,6359,197,-85,149,-1,-207
2,2652788,-1401,499,2345,6368,193,-85,149,-1,-207
2,2652803,-1401,499,2345,6368,193,-85,149,-1,-207
2,2652811,-1404,485,2339,6370,195,-84,149,-1,-207
2,2652825,-1404,485,2339,6370,195,-84,149,-1,-207
2,2652838,-1408,494,2341,6361,189,-86,166,2,-210
2,2652853,-1402,475,2343,6359,193,-93,166,2,-210
2,2652867,-1402,475,2343,6359,193,-93,166,2,-210
2,2652879,-1404,493,2343,6359,191,-89,166,2,-210
2,2652889,-1402,488,2338,6357,189,-91,166,2,-210
2,2652903,-1402,488,2338,6357,189,-91,166,2,-210
2,2652917,-1408,494,2337,6362,189,-88,166,2,-210
2,2652933,-1403,487,2336,6358,187,-90,166,2,-210
2,2652947,-1403,487,2336,6358,187,-90,166,2,-210
2,2652962,-1404,484,2341,6361,186,-91,171,1,-203
2,2652977,-1403,488,2337,6355,185,-90,171,1,-203
2,2652990,-1403,497,2339,6364,193,-88,171,1,-203
2,2653004,-1403,497,2339,6364,193,-88,171,1,-203
2,2653016,-1402,499,2338,6359,196,-85,171,1,-203
2,2653029,-1404,493,2338,6364,197,-93,171,1,-203
2,2653043,-1404,493,2338,6364,197,-93,171,1,-203
2,2653057,-1406,504,2330,6358,187,-94,171,1,-203
2,2653070,-1410,511,2340,6356,192,-86,167,-11,-187
2,2653084,-1410,511,2340,6356,192,-86,167,-11,-187
2,2653097,-1408,511,2337,6355,191,-88,167,-11,-187
2,2653110,-1410,523,2338,6354,185,-86,167,-11,-187
2,2653125,-1410,523,2338,6354,185,-86,167,-11,-187
2,2653139,-1409,511,2335,6354,187,-90,167,-11,-187
2,2653152,-1408,514,2342,6369,191,-91,167,-11,-187
2,2653165,-1408,514,2342,6369,191,-91,167,-11,-187
2,2653180,-1406,507,2338,6360,187,-84,167,-11,-187
2,2653194,-1409,530,2345,6364,198,-91,165,-1,-195
2,2653208,-1409,530,2345,6364,198,-91,165,-1,-195
2,2653221,-1410,519,2340,6365,189,-88,165,-1,-195
2,2653235,-1411,531,2340,6359,186,-82,165,-1,-195
2,2653248,-1410,518,2334,6359,181,-88,165,-1,-195
2,2653263,-1410,518,2334,6359,181,-88,165,-1,-195
2,2653277,-1412,543,2347,6361,181,-93,165,-1,-195
2,2653290,-1407,513,2336,6360,189,-92,165,-1,-195
2,2653303,-1407,513,2336,6360,189,-92,165,-1,-195
2,2653316,-1411,538,2338,6360,192,-95,158,-12,-186
2,2653330,-1406,506,2352,6374,189,-89,158,-12,-186
2,2653344,-1406,506,2352,6374,189,-89,158,-12,-186
2,2653359,-1413,535,2345,6369,189,-91,158,-12,-186
2,2653374,-1406,505,2346,6373,195,-87,158,-12,-186
2,2653387,-1406,505,2346,6373,195,-87,158,-12,-186
2,2653400,-1411,527,2345,6368,189,-98,158,-12,-186
2,2653415,-1404,492,2346,6369,187,-92,158,-12,-186
2,2653428,-1413,516,2341,6373,189,-81,158,-12,-186
2,2653442,-1413,516,2341,6373,189,-81,158,-12,-186
2,2653456,-1410,485,2354,6370,192,-85,171,-5,-179
2,2653471,-1410,508,2348,6371,189,-89,171,-5,-179
2,2653484,-1410,508,2348,6371,189,-89,171,-5,-179
2,2653496,-1408,482,2349,6367,191,-85,171,-5,-179
2,2653509,-1405,458,2342,6371,192,-87,171,-5,-179
2,2653516,-1405,458,2342,6371,192,-87,171,-5,-179
2,2653529,-1398,488,2350,6373,187,-90,171,-5,-179
2,2653544,-1398,488,2350,6373,187,-90,171,-5,-179
2,2653554,-1407,491,2342,6375,185,-86,171,-5,-179
2,2653570,-1406,488,2349,6374,188,-82,167,-3,-167
2,2653585,-1406,488,2349,6374,188,-82,167,-3,-167
2,2653600,-1404,478,2340,6372,189,-91,167,-3,-167
2,2653614,-1408,485,2346,6369,200,-90,167,-3,-167
2,2653627,-1408,485,2346,6369,200,-90,167,-3,-167
2,2653641,-1405,490,2334,6361,195,-84,167,-3,-167
2,2653652,-1414,481,2341,6357,191,-74,167,-3,-167
2,2653666,-1414,481,2341,6357,191,-74,167,-3,-167
2,2653679,-1409,488,2332,6362,203,-86,167,-3,-167
2,2653692,-1403,480,2351,6360,194,-87,159,-11,-163
2,2653706,-1403,480,2351,6360,194,-87,159,-11,-163
2,2653718,-1408,494,2339,6361,192,-89,159,-11,-163
2,2653730,-1407,486,2338,6360,191,-97,159,-11,-163
2,2653744,-1407,486,2338,6360,191,-97,159,-11,-163
2,2653758,-1405,495,2339,6360,193,-92,159,-11,-163
2,2653772,-1398,477,2338,6354,188,-92,159,-11,-163
2,2653787,-1398,477,2338,6354,188,-92,159,-11,-163
2,2653803,-1406,494,2341,6367,195,-80,159,-11,-163
2,2653818,-1404,492,2339,6366,205,-78,157,-9,-161
2,2653832,-1407,498,2337,6356,199,-88,157,-9,-161
2,2653845,-1407,498,2337,6356,199,-88,157,-9,-161
2,2653859,-1403,479,2335,6361,191,-85,157,-9,-161
2,2653870,-1412,494,2338,6355,198,-91,157,-9,-161
2,2653883,-1412,494,2338,6355,198,-91,157,-9,-161
2,2653896,-1404,492,2337,6355,200,-88,157,-9,-161
2,2653911,-1410,501,2339,6358,198,-88,157,-9,-161
2,2653924,-1410,501,2339,6358,198,-88,157,-9,-161
2,2653937,-1403,498,2334,6364,193,-86,152,-10,-152
2,2653948,-1403,498,2334,6364,193,-86,152,-10,-152
2,2653962,-1408,508,2338,6355,192,-83,152,-10,-152
2,2653975,-1410,536,2336,6356,189,-91,152,-10,-152
2,2653989,-1413,553,2336,6361,185,-94,152,-10,-152
2,2654005,-1413,553,2336,6361,185,-94,152,-10,-152
2,2654020,-1408,526,2341,6363,187,-89,152,-10,-152
2,2654035,-1411,525,2330,6361,192,-87,152,-10,-152
2,2654050,-1410,531,2340,6362,190,-85,152,-10,-152
2,2654063,-1410,531,2340,6362,190,-85,152,-10,-152
2,2654076,-1415,540,2339,6361,190,-80,147,-13,-141
2,2654088,-1415,540,2339,6361,190,-80,147,-13,-141
2,2654102,-1411,517,2347,6362,191,-88,147,-13,-141
2,2654116,-1408,519,2340,6375,187,-87,147,-13,-141
2,2654130,-1405,517,2351,6379,192,-78,147,-13,-141
2,2654143,-1405,517,2351,6379,192,-78,147,-13,-141
2,2654157,-1409,523,2347,6367,183,-86,147,-13,-141
2,2654169,-1410,508,2347,6373,184,-85,147,-13,-141
2,2654182,-1410,508,2347,6373,184,-85,147,-13,-141
2,2654196,-1403,507,2350,6373,194,-91,134,-16,-136
2,2654210,-1404,493,2347,6374,185,-82,134,-16,-136
2,2654224,-1404,493,2347,6374,185,-82,134,-16,-136
2,2654240,-1409,507,2352,6375,180,-87,134,-16,-136
2,2654255,-1409,498,2347,6373,186,-86,134,-16,-136
2,2654270,-1402,498,2344,6370,189,-85,134,-16,-136
2,2654283,-1402,498,2344,6370,189,-85,134,-16,-136
2,2654298,-1403,487,2343,6359,187,-83,134,-16,-136
2,2654310,-1405,502,2350,6365,188,-89,133,-21,-135
2,2654322,-1405,502,2350,6365,188,-89,133,-21,-135
2,2654337,-1405,509,2350,6368,186,-86,133,-21,-135
2,2654350,-1406,504,2349,6363,190,-93,133,-21,-135
2,2654363,-1406,504,2349,6363,190,-93,133,-21,-135
2,2654376,-1404,499,2345,6361,185,-81,133,-21,-135
2,2654391,-1405,512,2345,6364,192,-79,133,-21,-135
2,2654404,-1405,512,2345,6364,192,-79,133,-21,-135
2,2654416,-1409,521,2344,6361,186,-83,133,-21,-135
2,2654430,-1409,522,2349,6361,189,-87,122,-24,-124
2,2654444,-1409,522,2349,6361,189,-87,122,-24,-124
2,2654458,-1405,506,2347,6368,187,-88,122,-24,-124
2,2654475,-1408,514,2351,6372,183,-88,122,-24,-124
2,2654489,-1408,514,2351,6372,183,-88,122,-24,-124
2,2654501,-1406,507,2340,6372,181,-83,122,-24,-124
2,2654517,-1408,507,2346,6369,185,-87,122,-24,-124
2,2654531,-1408,490,2351,6379,197,-92,122,-24,-124
2,2654543,-1408,490,2351,6379,197,-92,122,-24,-124
2,2654557,-1407,505,2353,6366,190,-89,117,-25,-121
2,2654571,-1404,449,2349,6372,187,-86,117,-25,-121
2,2654584,-1404,449,2349,6372,187,-86,117,-25,-121
2,2654598,-1406,504,2346,6371,188,-86,117,-25,-121
2,2654612,-1404,473,2346,6371,188,-89,117,-25,-121
2,2654625,-1404,473,2346,6371,188,-89,117,-25,-121
2,2654640,-1409,502,2346,6365,188,-90,117,-25,-121
2,2654652,-1405,460,2340,6373,183,-95,117,-25,-121
2,2654666,-1405,460,2340,6373,183,-95,117,-25,-121
2,2654680,-1406,500,2338,6366,192,-89,117,-25,-121
2,2654694,-1395,482,2344,6371,191,-88,111,-39,-123
2,2654705,-1395,482,2344,6371,191,-88,111,-39,-123
2,2654718,-1415,496,2338,6364,187,-90,111,-39,-123
2,2654733,-1404,477,2339,6363,186,-99,111,-39,-123
2,2654748,-1404,477,2339,6363,186,-99,111,-39,-123
2,2654760,-1403,495,2342,6363,195,-94,111,-39,-123
2,2654775,-1406,479,2342,6363,186,-87,111,-39,-123
2,2654789,-1406,479,2342,6363,186,-87,111,-39,-123
2,2654803,-1407,483,2334,6366,182,-87,111,-39,-123
2,2654817,-1404,486,2347,6354,194,-95,100,-30,-114
2,2654831,-1403,486,2341,6356,188,-94,100,-30,-114
2,2654839,-1403,486,2341,6356,188,-94,100,-30,-114
2,2654852,-1404,487,2341,6358,189,-92,100,-30,-114
2,2654866,-1404,487,2341,6358,189,-92,100,-30,-114
2,2654879,-1408,484,2335,6365,178,-88,100,-30,-114
2,2654893,-1404,494,2335,6361,184,-90,100,-30,-114
2,2654905,-1404,494,2335,6361,184,-90,100,-30,-114
2,2654919,-1399,492,2335,6356,190,-92,100,-30,-114
2,2654934,-1409,488,2341,6354,192,-92,100,-22,-102
2,2654947,-1409,488,2341,6354,192,-92,100,-22,-102
2,2654961,-1402,492,2340,6358,193,-95,100,-22,-102
2,2654977,-1406,492,2346,6359,188,-88,100,-22,-102
2,2654992,-1405,490,2336,6361,195,-95,100,-22,-102
2,2655006,-1405,490,2336,6361,195,-95,100,-22,-102
2,2655020,-1405,490,2336,6361,195,-95,100,-22,-102
2,2655034,-1408,507,2336,6354,192,-94,100,-22,-102
2,2655049,-1408,507,2336,6354,192,-94,100,-22,-102
2,2655059,-1410,514,2334,6355,195,-93,95,-35,-113
2,2655074,-1407,559,2345,6355,198,-95,95,-35,-113
2,2655087,-1407,559,2345,6355,198,-95,95,-35,-113
2,2655100,-1412,530,2334,6363,185,-90,95,-35,-113
2,2655115,-1409,550,2342,6362,180,-91,95,-35,-113
2,2655129,-1409,550,2342,6362,180,-91,95,-35,-113
2,2655142,-1406,533,2331,6359,185,-95,95,-35,-113
2,2655155,-1409,566,2345,6367,198,-86,95,-35,-113
2,2655171,-1407,531,2341,6366,188,-88,91,-25,-105
2,2655186,-1407,531,2341,6366,188,-88,91,-25,-105
2,2655198,-1416,549,2350,6366,187,-89,91,-25,-105
2,2655212,-1402,512,2342,6374,191,-84,91,-25,-105
2,2655228,-1402,512,2342,6374,191,-84,91,-25,-105
2,2655244,-1416,532,2344,6379,176,-92,91,-25,-105
2,2655259,-1409,502,2342,6370,187,-85,91,-25,-105
2,2655272,-1409,516,2346,6369,189,-87,91,-25,-105
2,2655286,-1409,516,2346,6369,189,-87,91,-25,-105
2,2655299,-1400,486,2349,6370,186,-94,91,-25,-105
2,2655313,-1409,501,2354,6370,187,-83,91,-35,-105
2,2655329,-1409,501,2354,6370,187,-83,91,-35,-105
2,2655341,-1406,497,2350,6371,190,-84,91,-35,-105
2,2655355,-1406,514,2358,6372,195,-89,91,-35,-105
2,2655369,-1406,514,2358,6372,195,-89,91,-35,-105
2,2655381,-1403,493,2355,6374,196,-96,91,-35,-105
2,2655389,-1403,493,2355,6374,196,-96,91,-35,-105
2,2655397,-1408,502,2346,6368,190,-94,91,-35,-105
2,2655411,-1405,503,2347,6359,188,-88,91,-35,-105
2,2655425,-1405,503,2347,6359,188,-88,91,-35,-105
2,2655438,-1406,510,2352,6367,182,-88,75,-43,-105
2,2655454,-1409,498,2352,6373,184,-87,75,-43,-105
2,2655469,-1409,498,2352,6373,184,-87,75,-43,-105
2,2655482,-1402,500,2347,6365,187,-89,75,-43,-105
2,2655494,-1409,503,2354,6366,188,-87,75,-43,-105
2,2655509,-1409,503,2354,6366,188,-87,75,-43,-105
2,2655522,-1404,500,2345,6370,181,-87,75,-43,-105
2,2655536,-1406,501,2344,6367,184,-95,75,-43,-105
2,2655550,-1406,501,2344,6367,184,-95,75,-43,-105
2,2655563,-1403,493,2358,6373,184,-91,79,-33,-101
2,2655577,-1406,501,2347,6367,184,-86,79,-33,-101
2,2655590,-1406,501,2347,6367,184,-86,79,-33,-101
2,2655603,-1409,495,2342,6373,185,-81,79,-33,-101
2,2655618,-1411,500,2341,6370,178,-93,79,-33,-101
2,2655632,-1403,468,2350,6379,191,-95,79,-33,-101
2,2655646,-1403,468,2350,6379,191,-95,79,-33,-101
2,2655659,-1403,487,2344,6375,184,-90,79,-33,-101
2,2655674,-1403,487,2344,6375,184,-90,78,-26,-102
2,2655689,-1403,487,2344,6375,184,-90,78,-26,-102
2,2655705,-1406,498,2348,6365,183,-86,78,-26,-102
2,2655719,-1406,472,2346,6364,173,-94,78,-26,-102
2,2655732,-1404,494,2343,6363,180,-83,78,-26,-102
2,2655746,-1404,494,2343,6363,180,-83,78,-26,-102
2,2655761,-1406,479,2343,6371,190,-89,78,-26,-102
2,2655774,-1410,500,2337,6368,183,-89,78,-26,-102
2,2655788,-1410,500,2337,6368,183,-89,78,-26,-102
2,2655802,-1404,471,2340,6363,183,-94,68,-28,-98
2,2655815,-1407,492,2342,6365,192,-91,68,-28,-98
2,2655827,-1407,492,2342,6365,192,-91,68,-28,-98
2,2655841,-1403,484,2342,6365,186,-87,68,-28,-98
2,2655855,-1411,497,2337,6359,178,-88,68,-28,-98
2,2655868,-1411,497,2337,6359,178,-88,68,-28,-98
2,2655883,-1404,487,2341,6359,189,-84,68,-28,-98
2,2655897,-1405,485,2341,6358,191,-76,68,-28,-98
2,2655909,-1405,485,2341,6358,191,-76,68,-28,-98
2,2655924,-1401,492,2343,6357,192,-82,64,-26,-108
2,2655939,-1408,501,2340,6359,182,-87,64,-26,-108
2,2655950,-1406,502,2340,6362,184,-91,64,-26,-108
2,2655965,-1406,502,2340,6362,184,-91,64,-26,-108
2,2655980,-1403,498,2334,6360,199,-92,64,-26,-108
2,2655994,-1403,504,2337,6354,195,-85,64,-26,-108
2,2656009,-1403,504,2337,6354,195,-85,64,-26,-108
2,2656022,-1406,506,2333,6366,188,-81,64,-26,-108
2,2656036,-1409,508,2334,6366,185,-87,64,-26,-108
2,2656051,-1409,508,2334,6366,185,-87,64,-26,-108
2,2656062,-1406,500,2334,6362,182,-90,56,-24,-106
2,2656075,-1406,507,2338,6362,191,-82,56,-24,-106
2,2656089,-1406,507,2338,6362,191,-82,56,-24,-106
2,2656103,-1408,529,2336,6360,184,-88,56,-24,-106
2,2656117,-1408,536,2342,6358,183,-89,56,-24,-106
2,2656133,-1405,529,2338,6362,174,-90,56,-24,-106
2,2656148,-1405,529,2338,6362,174,-90,56,-24,-106
2,2656161,-1405,533,2342,6364,189,-88,56,-24,-106
2,2656176,-1410,535,2340,6367,182,-95,56,-22,-114
2,2656185,-1410,535,2340,6367,182,-95,56,-22,-114
2,2656198,-1409,535,2341,6371,186,-94,56,-22,-114
2,2656212,-1409,527,2346,6369,191,-88,56,-22,-114
2,2656226,-1409,527,2346,6369,191,-88,56,-22,-114
2,2656239,-1408,518,2346,6378,186,-89,56,-22,-114
2,2656253,-1406,514,2350,6367,184,-85,56,-22,-114
2,2656269,-1406,514,2350,6367,184,-85,56,-22,-114
2,2656282,-1407,515,2343,6366,188,-91,56,-22,-114
2,2656294,-1406,513,2351,6368,187,-88,54,-28,-108
2,2656308,-1406,513,2351,6368,187,-88,54,-28,-108
2,2656320,-1402,508,2351,6374,188,-90,54,-28,-108
2,2656335,-1405,500,2346,6372,179,-88,54,-28,-108
2,2656350,-1405,500,2346,6372,179,-88,54,-28,-108
2,2656363,-1407,508,2345,6372,184,-83,54,-28,-108
2,2656377,-1408,502,2344,6374,190,-88,54,-28,-108
2,2656392,-1405,486,2346,6383,194,-94,54,-28,-108
2,2656407,-1405,486,2346,6383,194,-94,54,-28,-108
2,2656420,-1406,459,2348,6373,182,-91,53,-17,-117
2,2656432,-1408,494,2342,6368,171,-89,53,-17,-117
2,2656445,-1408,494,2342,6368,171,-89,53,-17,-117
2,2656458,-1409,491,2349,6367,189,-88,53,-17,-117
2,2656472,-1406,475,2344,6372,181,-96,53,-17,-117
2,2656487,-1406,475,2344,6372,181,-96,53,-17,-117
2,2656498,-1397,485,2342,6364,188,-95,53,-17,-117
2,2656512,-1406,488,2346,6359,189,-87,53,-17,-117
2,2656528,-1406,488,2346,6359,189,-87,53,-17,-117
2,2656542,-1407,502,2339,6361,191,-90,53,-21,-119
2,2656557,-1409,483,2338,6364,187,-87,53,-21,-119
2,2656571,-1409,483,2338,6364,187,-87,53,-21,-119
2,2656585,-1407,495,2337,6365,193,-96,53,-21,-119
2,2656601,-1402,482,2343,6362,181,-92,53,-21,-119
2,2656615,-1410,496,2337,6365,185,-94,53,-21,-119
2,2656629,-1410,496,2337,6365,185,-94,53,-21,-119
2,2656643,-1407,488,2342,6365,189,-90,53,-21,-119
2,2656656,-1403,495,2334,6370,199,-89,53,-21,-119
2,2656666,-1403,495,2334,6370,199,-89,53,-21,-119
2,2656681,-1402,482,2345,6371,193,-84,54,-24,-126
2,2656695,-1406,498,2336,6365,188,-85,54,-24,-126
2,2656708,-1406,498,2336,6365,188,-85,54,-24,-126
2,2656722,-1406,493,2335,6362,188,-85,54,-24,-126
2,2656737,-1405,499,2334,6362,190,-85,54,-24,-126
2,2656749,-1405,499,2334,6362,190,-85,54,-24,-126
2,2656763,-1405,481,2333,6367,195,-86,54,-24,-126
2,2656777,-1408,493,2329,6368,194,-77,54,-24,-126
2,2656790,-1408,493,2329,6368,194,-77,54,-24,-126
2,2656804,-1408,494,2336,6359,189,-79,51,-17,-129
2,2656813,-1406,509,2335,6356,192,-87,51,-17,-129
2,2656828,-1406,509,2335,6356,192,-87,51,-17,-129
2,2656837,-1403,501,2345,6354,192,-87,51,-17,-129
2,2656851,-1406,547,2337,6357,194,-89,51,-17,-129
2,2656867,-1406,547,2337,6357,194,-89,51,-17,-129
2,2656881,-1410,543,2343,6351,188,-81,51,-17,-129
2,2656894,-1406,540,2342,6363,189,-86,51,-17,-129
2,2656908,-1406,540,2342,6363,189,-86,51,-17,-129
2,2656922,-1405,513,2334,6368,189,-85,57,-25,-143
2,2656937,-1406,551,2342,6366,195,-91,57,-25,-143
2,2656951,-1406,551,2342,6366,195,-91,57,-25,-143
2,2656964,-1408,530,2339,6370,190,-76,57,-25,-143
2,2656977,-1414,531,2341,6363,185,-88,57,-25,-143
2,2656991,-1414,531,2341,6363,185,-88,57,-25,-143
2,2657005,-1403,510,2337,6361,188,-87,57,-25,-143
2,2657020,-1403,525,2341,6359,194,-83,57,-25,-143
2,2657033,-1406,512,2344,6364,188,-85,50,-26,-154
2,2657047,-1406,512,2344,6364,188,-85,50,-26,-154
2,2657062,-1410,516,2346,6371,195,-93,50,-26,-154
2,2657075,-1402,502,2351,6368,197,-94,50,-26,-154
2,2657087,-1402,502,2351,6368,197,-94,50,-26,-154
2,2657101,-1401,500,2345,6365,194,-88,50,-26,-154
2,2657115,-1403,501,2344,6372,191,-86,50,-26,-154
2,2657131,-1403,501,2344,6372,191,-86,50,-26,-154
2,2657143,-1410,514,2344,6376,192,-82,50,-26,-154
2,2657158,-1404,495,2343,6371,183,-94,61,-25,-155
2,2657171,-1404,495,2343,6371,183,-94,61,-25,-155
2,2657183,-1405,502,2346,6369,188,-84,61,-25,-155
2,2657197,-1405,497,2342,6372,195,-85,61,-25,-155
2,2657211,-1405,497,2342,6372,195,-85,61,-25,-155
2,2657225,-1408,526,2347,6374,193,-84,61,-25,-155
2,2657240,-1403,519,2345,6371,192,-84,61,-25,-155
2,2657256,-1404,513,2348,6369,190,-89,61,-25,-155
2,2657270,-1404,513,2348,6369,190,-89,61,-25,-155
2,2657285,-1406,514,2345,6367,191,-88,61,-25,-155
2,2657299,-1405,528,2343,6373,196,-85,48,-26,-160
2,2657313,-1410,522,2346,6375,193,-84,48,-26,-160
2,2657328,-1410,522,2346,6375,193,-84,48,-26,-160
2,2657339,-1406,514,2342,6371,196,-87,48,-26,-160
2,2657354,-1406,502,2346,6372,181,-92,48,-26,-160
2,2657370,-1406,502,2346,6372,181,-92,48,-26,-160
2,2657384,-1402,509,2348,6373,190,-89,48,-26,-160
2,2657397,-1408,507,2348,6375,188,-87,48,-26,-160
2,2657411,-1408,507,2348,6375,188,-87,48,-26,-160
2,2657425,-1403,507,2348,6373,192,-95,56,-28,-172
2,2657440,-1407,490,2346,6371,190,-88,56,-28,-172
2,2657453,-1400,469,2347,6378,188,-87,56,-28,-172
2,2657466,-1400,469,2347,6378,188,-87,56,-28,-172
2,2657480,-1403,501,2343,6379,190,-82,56,-28,-172
2,2657494,-1405,499,2346,6367,185,-83,56,-28,-172
2,2657509,-1405,499,2346,6367,185,-83,56,-28,-172
2,2657523,-1410,477,2340,6361,190,-89,56,-28,-172
2,2657534,-1404,479,2349,6365,201,-92,59,-27,-175
2,2657550,-1404,479,2349,6365,201,-92,59,-27,-175
2,2657565,-1408,482,2343,6364,203,-82,59,-27,-175
2,2657581,-1401,498,2344,6361,186,-80,59,-27,-175
2,2657594,-1406,479,2338,6367,186,-83,59,-27,-175
2,2657607,-1406,479,2338,6367,186,-83,59,-27,-175
2,2657619,-1405,496,2343,6359,198,-93,59,-27,-175
2,2657633,-1397,479,2342,6364,191,-81,59,-27,-175
2,2657647,-1397,479,2342,6364,191,-81,59,-27,-175
2,2657660,-1408,503,2341,6371,188,-88,63,-25,-183
2,2657675,-1405,484,2341,6365,178,-96,63,-25,-183
2,2657690,-1405,484,2341,6365,178,-96,63,-25,-183
2,2657701,-1406,498,2343,6362,189,-98,63,-25,-183
2,2657716,-1404,479,2339,6360,182,-80,63,-25,-183
2,2657729,-1404,479,2339,6360,182,-80,63,-25,-183
2,2657743,-1410,491,2336,6356,183,-83,63,-25,-183
2,2657757,-1408,495,2333,6361,193,-93,63,-25,-183
2,2657769,-1408,495,2333,6361,193,-93,63,-25,-183
2,2657784,-1407,493,2338,6359,194,-94,61,-25,-187
2,2657800,-1402,482,2337,6356,191,-87,61,-25,-187
2,2657814,-1405,495,2341,6357,195,-83,61,-25,-187
2,2657828,-1405,495,2341,6357,195,-83,61,-25,-187
2,2657840,-1402,500,2337,6355,195,-86,61,-25,-187
2,2657853,-1405,501,2335,6358,187,-89,61,-25,-187
2,2657866,-1405,501,2335,6358,187,-89,61,-25,-187
2,2657880,-1405,487,2334,6360,193,-93,61,-25,-187
2,2657895,-1403,499,2326,6361,188,-89,61,-25,-187
2,2657908,-1403,499,2326,6361,188,-89,61,-25,-187
2,2657921,-1409,502,2336,6355,188,-86,70,-12,-202
2,2657935,-1411,518,2325,6356,188,-91,70,-12,-202
2,2657949,-1411,518,2325,6356,188,-91,70,-12,-202
2,2657963,-1407,524,2340,6356,187,-84,70,-12,-202
2,2657978,-1406,571,2331,6349,196,-86,70,-12,-202
2,2657993,-1408,533,2346,6351,199,-82,70,-12,-202
2,2658009,-1408,533,2346,6351,199,-82,70,-12,-202
2,2658024,-1409,552,2331,6364,185,-95,70,-12,-202
2,2658038,-1406,554,2348,6365,190,-90,77,-17,-207
2,2658050,-1406,554,2348,6365,190,-90,77,-17,-207
2,2658066,-1410,564,2343,6376,191,-85,77,-17,-207
2,2658078,-1409,535,2347,6372,181,-87,77,-17,-207
2,2658092,-1409,535,2347,6372,181,-87,77,-17,-207
2,2658105,-1408,533,2343,6382,186,-86,77,-17,-207
2,2658118,-1405,515,2349,6374,189,-86,77,-17,-207
2,2658131,-1405,515,2349,6374,189,-86,77,-17,-207
2,2658146,-1406,521,2348,6370,190,-87,77,-17,-207
2,2658157,-1409,501,2344,6371,187,-90,92,-20,-216
2,2658170,-1409,501,2344,6371,187,-90,92,-20,-216
2,2658186,-1401,508,2352,6368,182,-96,92,-20,-216
2,2658200,-1402,496,2343,6365,189,-89,92,-20,-216
2,2658214,-1408,514,2347,6366,182,-88,92,-20,-216
2,2658229,-1408,514,2347,6366,182,-88,92,-20,-216
2,2658244,-1406,504,2346,6368,181,-92,92,-20,-216
2,2658259,-1405,519,2349,6370,186,-95,92,-20,-216
2,2658275,-1402,495,2346,6376,195,-97,110,-20,-220
2,2658288,-1402,495,2346,6376,195,-97,110,-20,-220
2,2658302,-1407,513,2344,6373,198,-91,110,-20,-220
2,2658316,-1405,510,2344,6368,186,-89,110,-20,-220
2,2658327,-1405,510,2344,6368,186,-89,110,-20,-220
2,2658340,-1404,512,2347,6374,184,-92,110,-20,-220
2,2658355,-1404,495,2341,6369,192,-85,110,-20,-220
2,2658368,-1404,495,2341,6369,192,-85,110,-20,-220
2,2658379,-1406,505,2344,6374,190,-82,110,-20,-220
2,2658391,-1406,505,2344,6374,190,-82,110,-20,-220
2,2658405,-1403,505,2346,6372,195,-81,111,-15,-221
2,2658418,-1407,504,2346,6372,182,-87,111,-15,-221
2,2658432,-1407,504,2346,6372,182,-87,111,-15,-221
2,2658446,-1403,497,2349,6370,189,-99,111,-15,-221
2,2658460,-1407,501,2345,6370,196,-89,111,-15,-221
2,2658472,-1407,501,2345,6370,196,-89,111,-15,-221
2,2658488,-1402,498,2346,6371,196,-91,111,-15,-221
2,2658503,-1402,499,2342,6377,186,-90,111,-15,-221
2,2658519,-1407,470,2340,6373,190,-87,111,-15,-221
2,2658532,-1407,470,2340,6373,190,-87,111,-15,-221
2,2658544,-1402,495,2343,6376,190,-93,111,-21,-227
2,2658557,-1406,485,2347,6372,189,-85,111,-21,-227
2,2658571,-1406,485,2347,6372,189,-85,111,-21,-227
2,2658584,-1408,487,2344,6373,193,-82,111,-21,-227
2,2658598,-1399,482,2340,6368,191,-80,111,-21,-227
2,2658612,-1399,482,2340,6368,191,-80,111,-21,-227
2,2658624,-1405,490,2334,6370,192,-87,111,-21,-227
2,2658637,-1403,491,2341,6369,187,-83,111,-21,-227
2,2658651,-1403,491,2341,6369,187,-83,111,-21,-227
2,2658665,-1407,490,2347,6363,184,-86,121,-21,-221
2,2658679,-1403,491,2340,6358,185,-89,121,-21,-221
2,2658695,-1402,491,2337,6362,189,-86,121,-21,-221
2,2658709,-1402,491,2337,6362,189,-86,121,-21,-221
2,2658723,-1403,495,2336,6359,197,-82,121,-21,-221
2,2658738,-1405,494,2334,6365,191,-83,121,-21,-221
2,2658753,-1405,493,2336,6361,191,-84,121,-21,-221
2,2658766,-1405,493,2336,6361,191,-84,121,-21,-221
2,2658778,-1400,492,2339,6365,200,-79,119,-15,-237
2,2658791,-1400,492,2339,6365,200,-79,119,-15,-237
2,2658804,-1400,492,2339,6365,200,-79,119,-15,-237
2,2658819,-1404,506,2336,6356,186,-93,119,-15,-237
2,2658832,-1404,506,2336,6356,186,-93,119,-15,-237
2,2658845,-1404,509,2341,6356,192,-88,119,-15,-237
2,2658857,-1403,508,2333,6352,190,-87,119,-15,-237
2,2658871,-1403,508,2333,6352,190,-87,119,-15,-237
2,2658885,-1405,512,2335,6351,192,-87,119,-15,-237
2,2658899,-1406,511,2337,6357,181,-84,132,-16,-230
2,2658915,-1404,511,2339,6355,181,-87,132,-16,-230
2,2658929,-1404,511,2339,6355,181,-87,132,-16,-230
2,2658941,-1405,506,2335,6360,180,-91,132,-16,-230
2,2658950,-1405,506,2335,6360,180,-91,132,-16,-230
2,2658964,-1407,528,2333,6362,188,-92,132,-16,-230
2,2658980,-1406,536,2339,6362,188,-85,132,-16,-230
2,2658996,-1409,535,2338,6362,186,-86,132,-16,-230
2,2659010,-1409,535,2338,6362,186,-86,132,-16,-230
2,2659022,-1409,540,2352,6365,185,-90,142,-30,-226
2,2659037,-1407,539,2339,6368,194,-81,142,-30,-226
2,2659048,-1407,539,2339,6368,194,-81,142,-30,-226
2,2659064,-1406,539,2348,6374,191,-87,142,-30,-226
2,2659077,-1408,525,2341,6370,191,-83,142,-30,-226
2,2659091,-1408,525,2341,6370,191,-83,142,-30,-226
2,2659104,-1408,525,2345,6377,187,-87,142,-30,-226
2,2659117,-1407,517,2338,6366,188,-94,142,-30,-226
2,2659131,-1407,517,2338,6366,188,-94,142,-30,-226
2,2659143,-1409,527,2345,6368,187,-91,147,-21,-223
2,2659159,-1405,513,2345,6373,190,-85,147,-21,-223
2,2659174,-1404,516,2349,6371,188,-89,147,-21,-223
2,2659189,-1404,516,2349,6371,188,-89,147,-21,-223
2,2659206,-1406,503,2345,6369,179,-84,147,-21,-223
2,2659219,-1407,513,2345,6370,186,-90,147,-21,-223
2,2659231,-1407,513,2345,6370,186,-90,147,-21,-223
2,2659247,-1405,505,2351,6371,192,-93,147,-21,-223
2,2659260,-1406,518,2343,6372,190,-83,147,-21,-223
2,2659273,-1406,518,2343,6372,190,-83,147,-21,-223
2,2659287,-1406,454,2347,6375,190,-83,142,-14,-226
2,2659302,-1405,503,2346,6370,184,-91,142,-14,-226
2,2659314,-1404,478,2347,6369,185,-79,142,-14,-226
2,2659326,-1404,478,2347,6369,185,-79,142,-14,-226
2,2659340,-1406,507,2346,6368,185,-85,142,-14,-226
2,2659354,-1402,464,2344,6364,186,-89,142,-14,-226
2,2659368,-1402,464,2344,6364,186,-89,142,-14,-226
2,2659382,-1404,504,2344,6369,193,-95,142,-14,-226
2,2659395,-1396,483,2347,6375,186,-86,150,-14,-214
2,2659408,-1396,483,2347,6375,186,-86,150,-14,-214
2,2659425,-1416,507,2344,6361,187,-84,150,-14,-214
2,2659439,-1399,481,2340,6362,187,-91,150,-14,-214
2,2659452,-1399,481,2340,6362,187,-91,150,-14,-214
2,2659465,-1403,503,2343,6362,194,-91,150,-14,-214
2,2659480,-1401,484,2341,6362,181,-85,150,-14,-214
2,2659493,-1401,484,2341,6362,181,-85,150,-14,-214
2,2659507,-1410,497,2338,6370,184,-87,150,-14,-214
2,2659521,-1405,491,2339,6362,186,-89,152,-14,-214
2,2659533,-1405,491,2339,6362,186,-89,152,-14,-214
2,2659547,-1406,500,2343,6366,180,-89,152,-14,-214
2,2659560,-1406,485,2334,6364,182,-83,152,-14,-214
2,2659575,-1406,497,2335,6359,185,-87,152,-14,-214
2,2659589,-1406,497,2335,6359,185,-87,152,-14,-214
2,2659603,-1405,491,2341,6358,189,-89,152,-14,-214
2,2659618,-1403,494,2338,6359,189,-83,152,-14,-214
2,2659631,-1403,494,2338,6359,189,-83,152,-14,-214
2,2659645,-1406,489,2339,6363,190,-84,162,-6,-220
2,2659660,-1404,502,2335,6367,188,-84,162,-6,-220
2,2659672,-1404,502,2335,6367,188,-84,162,-6,-220
2,2659685,-1406,502,2338,6359,187,-90,162,-6,-220
2,2659700,-1407,502,2335,6363,182,-89,162,-6,-220
2,2659716,-1410,510,2330,6367,187,-85,162,-6,-220
2,2659729,-1410,510,2330,6367,187,-85,162,-6,-220
2,2659742,-1406,530,2336,6361,188,-90,162,-6,-220
2,2659757,-1411,548,2338,6360,179,-85,166,-4,-216
2,2659768,-1411,548,2338,6360,179,-85,166,-4,-216
2,2659781,-1411,528,2342,6360,181,-83,166,-4,-216
2,2659794,-1408,524,2337,6360,179,-87,166,-4,-216
2,2659808,-1408,524,2337,6360,179,-87,166,-4,-216
2,2659821,-1407,540,2344,6367,181,-90,166,-4,-216
2,2659834,-1412,533,2336,6366,186,-84,166,-4,-216
2,2659847,-1412,533,2336,6366,186,-84,166,-4,-216
2,2659860,-1411,527,2347,6362,185,-93,166,-4,-216
2,2659873,-1411,527,2347,6362,185,-93,166,-4,-216
2,2659888,-1405,519,2341,6374,189,-91,166,-4,-216
2,2659902,-1410,520,2352,6371,188,-89,167,-5,-209
2,2659916,-1406,507,2340,6374,183,-86,167,-5,-209
2,2659930,-1406,507,2340,6374,183,-86,167,-5,-209
2,2659944,-1409,516,2348,6371,187,-89,167,-5,-209
2,2659959,-1403,496,2344,6367,189,-89,167,-5,-209
2,2659974,-1403,496,2344,6367,189,-89,167,-5,-209
2,2659985,-1402,507,2347,6371,185,-85,167,-5,-209
2,2659998,-1404,496,2344,6370,190,-84,167,-5,-209
2,2660012,-1404,496,2344,6370,190,-84,167,-5,-209
2,2660025,-1411,523,2344,6369,186,-90,174,-2,-196
2,2660041,-1405,499,2342,6364,187,-85,174,-2,-196
2,2660056,-1413,509,2338,6367,185,-82,174,-2,-196
2,2660068,-1413,509,2338,6367,185,-82,174,-2,-196
2,2660080,-1406,501,2337,6368,187,-88,174,-2,-196
2,2660094,-1406,501,2337,6368,187,-88,174,-2,-196
2,2660107,-1408,523,2341,6367,186,-92,174,-2,-196
2,2660122,-1409,504,2343,6365,190,-92,174,-2,-196
2,2660136,-1407,519,2346,6366,189,-90,167,-7,-211
2,2660152,-1407,519,2346,6366,189,-90,167,-7,-211
2,2660167,-1407,501,2353,6363,180,-85,167,-7,-211
2,2660182,-1405,534,2345,6365,185,-84,167,-7,-211
2,2660195,-1405,534,2345,6365,185,-84,167,-7,-211
2,2660205,-1409,507,2352,6373,189,-80,167,-7,-211
2,2660216,-1407,524,2343,6375,191,-86,167,-7,-211
2,2660230,-1407,524,2343,6375,191,-86,167,-7,-211
2,2660243,-1403,493,2347,6372,193,-93,167,-7,-211
2,2660257,-1408,517,2344,6368,191,-91,171,-7,-199
2,2660271,-1408,517,2344,6368,191,-91,171,-7,-199
2,2660283,-1410,488,2350,6373,185,-90,171,-7,-199
2,2660295,-1410,511,2342,6376,191,-91,171,-7,-199
2,2660310,-1410,511,2342,6376,191,-91,171,-7,-199
2,2660324,-1402,451,2347,6369,192,-85,171,-7,-199
2,2660338,-1406,495,2345,6374,186,-84,171,-7,-199
2,2660354,-1406,495,2345,6374,186,-84,171,-7,-199
2,2660370,-1405,484,2345,6366,188,-83,171,-7,-199
2,2660382,-1408,512,2342,6369,193,-93,169,-9,-195
2,2660396,-1406,462,2345,6366,190,-85,169,-9,-195
2,2660409,-1406,462,2345,6366,190,-85,169,-9,-195
2,2660420,-1403,501,2344,6367,183,-87,169,-9,-195
2,2660434,-1403,501,2344,6367,183,-87,169,-9,-195
2,2660448,-1397,478,2338,6370,183,-90,169,-9,-195
2,2660462,-1416,501,2337,6367,189,-78,169,-9,-195
2,2660475,-1400,474,2337,6358,179,-86,169,-9,-195
2,2660488,-1400,474,2337,6358,179,-86,169,-9,-195
2,2660500,-1410,489,2341,6363,187,-87,169,-9,-195
2,2660514,-1410,489,2341,6363,187,-87,169,-9,-195
2,2660527,-1404,476,2341,6365,184,-86,163,-15,-191
2,2660541,-1411,492,2336,6365,181,-80,163,-15,-191
2,2660556,-1403,487,2334,6363,192,-97,163,-15,-191
2,2660571,-1403,487,2334,6363,192,-97,163,-15,-191
2,2660583,-1404,496,2342,6358,187,-88,163,-15,-191
2,2660598,-1401,486,2338,6367,179,-83,163,-15,-191
2,2660613,-1401,486,2338,6367,179,-83,163,-15,-191
2,2660627,-1411,497,2329,6360,183,-85,163,-15,-191
2,2660638,-1405,494,2334,6361,186,-85,157,-13,-187
