imu,time,ax,ay,az,gx,gy,gz,mx,my,mz
0,4976843,3007,375,-2456,-1077,-604,-6904,149,267,-501
0,4976859,3004,374,-2460,-1069,-608,-6906,142,272,-490
0,4976872,3004,374,-2460,-1069,-608,-6906,142,272,-490
0,4976883,3002,386,-2460,-1067,-604,-6908,142,272,-490
0,4976899,3001,402,-2463,-1076,-607,-6899,142,272,-490
0,4976912,3001,402,-2463,-1076,-607,-6899,142,272,-490
0,4976925,3001,445,-2464,-1078,-605,-6891,142,272,-490
0,4976937,3005,420,-2461,-1076,-601,-6890,142,272,-490
0,4976949,3005,420,-2461,-1076,-601,-6890,142,272,-490
0,4976962,3007,439,-2468,-1079,-606,-6896,142,272,-490
0,4976975,3007,439,-2468,-1079,-606,-6896,142,272,-490
0,4976990,3006,410,-2457,-1074,-604,-6904,148,288,-494
0,4977004,3006,446,-2468,-1076,-605,-6911,148,288,-494
0,4977015,3006,446,-2468,-1076,-605,-6911,148,288,-494
0,4977029,3012,417,-2466,-1071,-600,-6924,148,288,-494
0,4977042,3011,434,-2464,-1080,-595,-6920,148,288,-494
0,4977056,3011,434,-2464,-1080,-595,-6920,148,288,-494
0,4977072,3011,397,-2459,-1075,-599,-6918,148,288,-494
0,4977086,3014,427,-2462,-1077,-607,-6918,148,288,-494
0,4977094,3014,427,-2462,-1077,-607,-6918,148,288,-494
0,4977105,3013,389,-2457,-1074,-608,-6916,148,288,-494
0,4977118,3019,412,-2457,-1082,-609,-6914,147,291,-505
0,4977131,3019,412,-2457,-1082,-609,-6914,147,291,-505
0,4977148,3014,372,-2460,-1082,-608,-6916,147,291,-505
0,4977162,3021,403,-2464,-1077,-610,-6919,147,291,-505
0,4977176,3021,403,-2464,-1077,-610,-6919,147,291,-505
0,4977189,3020,379,-2472,-1077,-613,-6913,147,291,-505
0,4977201,3020,379,-2472,-1077,-613,-6913,147,291,-505
0,4977215,3020,379,-2472,-1077,-613,-6913,147,291,-505
0,4977228,3016,372,-2459,-1076,-606,-6913,147,291,-505
0,4977242,3015,394,-2454,-1079,-608,-6915,151,299,-501
0,4977257,3017,379,-2460,-1072,-608,-6911,151,299,-501
0,4977272,3017,379,-2460,-1072,-608,-6911,151,299,-501
0,4977288,3015,401,-2460,-1070,-611,-6914,151,299,-501
0,4977301,3021,377,-2464,-1071,-610,-6917,151,299,-501
0,4977312,3021,377,-2464,-1071,-610,-6917,151,299,-501
0,4977326,3018,387,-2463,-1072,-599,-6919,151,299,-501
0,4977340,3020,382,-2462,-1074,-599,-6920,151,299,-501
0,4977355,3020,382,-2462,-1074,-599,-6920,151,299,-501
0,4977370,3015,396,-2468,-1065,-601,-6921,151,299,-501
0,4977384,3017,384,-2460,-1077,-604,-6914,158,300,-504
0,4977397,3017,384,-2460,-1077,-604,-6914,158,300,-504
0,4977406,3016,387,-2462,-1080,-612,-6921,158,300,-504
0,4977414,3016,387,-2462,-1080,-612,-6921,158,300,-504
0,4977423,3017,380,-2459,-1076,-612,-6910,158,300,-504
0,4977430,3017,380,-2459,-1076,-612,-6910,158,300,-504
0,4977439,3016,379,-2461,-1073,-606,-6912,158,300,-504
0,4977445,3016,379,-2461,-1073,-606,-6912,158,300,-504
0,4977453,3016,379,-2461,-1073,-606,-6912,158,300,-504
0,4977459,3013,378,-2458,-1068,-604,-6915,158,300,-504
0,4977464,3013,378,-2458,-1068,-604,-6915,158,300,-504
0,4977470,3013,378,-2458,-1068,-604,-6915,158,300,-504
0,4977475,3013,378,-2458,-1068,-604,-6915,158,300,-504
0,4977480,3019,374,-2460,-1071,-607,-6923,158,300,-504
0,4977485,3019,374,-2460,-1071,-607,-6923,158,300,-504
0,4977490,3019,374,-2460,-1071,-607,-6923,158,300,-504
0,4977496,3019,374,-2460,-1071,-607,-6923,158,300,-504
0,4977501,3019,353,-2459,-1078,-611,-6919,152,302,-506
0,4977506,3019,353,-2459,-1078,-611,-6919,152,302,-506
0,4977511,3019,353,-2459,-1078,-611,-6919,152,302,-506
0,4977516,3019,353,-2459,-1078,-611,-6919,152,302,-506
0,4977520,3018,382,-2464,-1077,-605,-6911,152,302,-506
0,4977525,3018,382,-2464,-1077,-605,-6911,152,302,-506
0,4977531,3018,382,-2464,-1077,-605,-6911,152,302,-506
0,4977539,3013,370,-2457,-1075,-605,-6922,152,302,-506
0,4977545,3013,370,-2457,-1075,-605,-6922,152,302,-506
0,4977551,3013,370,-2457,-1075,-605,-6922,152,302,-506
0,4977557,3013,370,-2457,-1075,-605,-6922,152,302,-506
0,4977564,3016,377,-2465,-1067,-600,-6917,152,302,-506
0,4977569,3016,377,-2465,-1067,-600,-6917,152,302,-506
0,4977576,3016,377,-2465,-1067,-600,-6917,152,302,-506
0,4977583,3010,361,-2472,-1074,-612,-6914,152,302,-506
0,4977589,3010,361,-2472,-1074,-612,-6914,152,302,-506
0,4977595,3010,361,-2472,-1074,-612,-6914,152,302,-506
0,4977603,3014,373,-2463,-1069,-607,-6914,152,302,-506
0,4977610,3014,373,-2463,-1069,-607,-6914,152,302,-506
0,4977616,3014,373,-2463,-1069,-607,-6914,152,302,-506
0,4977624,3009,372,-2460,-1073,-601,-6907,154,318,-504
0,4977633,3009,372,-2460,-1073,-601,-6907,154,318,-504
0,4977641,3012,380,-2455,-1069,-601,-6911,154,318,-504
0,4977649,3012,380,-2455,-1069,-601,-6911,154,318,-504
0,4977660,3008,377,-2457,-1071,-604,-6904,154,318,-504
0,4977669,3008,377,-2457,-1071,-604,-6904,154,318,-504
0,4977677,3008,377,-2457,-1071,-604,-6904,154,318,-504
0,4977685,3009,372,-2463,-1070,-608,-6907,154,318,-504
0,4977694,3009,372,-2463,-1070,-608,-6907,154,318,-504
0,4977704,3007,381,-2465,-1075,-602,-6908,154,318,-504
0,4977713,3007,381,-2465,-1075,-602,-6908,154,318,-504
0,4977720,3011,381,-2467,-1076,-609,-6906,154,318,-504
0,4977727,3011,381,-2467,-1076,-609,-6906,154,318,-504
0,4977737,3011,381,-2467,-1076,-609,-6906,154,318,-504
0,4977745,3008,381,-2465,-1079,-611,-6903,154,318,-504
0,4977756,3008,381,-2465,-1079,-611,-6903,154,318,-504
0,4977763,3011,381,-2459,-1083,-620,-6914,152,328,-504
0,4977770,3011,381,-2459,-1083,-620,-6914,152,328,-504
0,4977776,3011,381,-2459,-1083,-620,-6914,152,328,-504
0,4977782,3007,387,-2453,-1079,-607,-6907,152,328,-504
0,4977788,3007,387,-2453,-1079,-607,-6907,152,328,-504
0,4977798,3004,398,-2457,-1072,-601,-6905,152,328,-504
0,4977807,3004,398,-2457,-1072,-601,-6905,152,328,-504
0,4977815,3004,398,-2457,-1072,-601,-6905,152,328,-504
0,4977824,3006,396,-2461,-1069,-605,-6909,152,328,-504
0,4977832,3006,396,-2461,-1069,-605,-6909,152,328,-504
0,4977841,3005,400,-2462,-1073,-613,-6909,152,328,-504
0,4977849,3005,400,-2462,-1073,-613,-6909,152,328,-504
0,4977857,3005,400,-2462,-1073,-613,-6909,152,328,-504
0,4977865,3009,403,-2470,-1066,-606,-6913,152,328,-504
0,4977874,3009,403,-2470,-1066,-606,-6913,152,328,-504
0,4977883,3011,401,-2463,-1078,-606,-6907,152,328,-508
0,4977894,3011,401,-2463,-1078,-606,-6907,152,328,-508
0,4977902,3012,398,-2464,-1079,-611,-6909,152,328,-508
0,4977910,3012,398,-2464,-1079,-611,-6909,152,328,-508
0,4977920,3009,411,-2468,-1071,-611,-6913,152,328,-508
0,4977930,3009,411,-2468,-1071,-611,-6913,152,328,-508
0,4977940,3013,414,-2467,-1085,-610,-6914,152,328,-508
0,4977947,3013,414,-2467,-1085,-610,-6914,152,328,-508
0,4977956,3013,414,-2467,-1085,-610,-6914,152,328,-508
0,4977965,3005,421,-2469,-1079,-612,-6907,152,328,-508
0,4977974,3005,421,-2469,-1079,-612,-6907,152,328,-508
0,4977982,3012,407,-2462,-1076,-605,-6912,152,328,-508
0,4977991,3012,407,-2462,-1076,-605,-6912,152,328,-508
0,4977998,3009,423,-2468,-1074,-606,-6907,152,328,-508
0,4978008,3009,423,-2468,-1074,-606,-6907,152,328,-508
0,4978015,3009,423,-2468,-1074,-606,-6907,152,328,-508
0,4978024,3016,400,-2457,-1074,-615,-6912,154,338,-510
0,4978034,3016,400,-2457,-1074,-615,-6912,154,338,-510
0,4978041,3014,413,-2465,-1065,-610,-6913,154,338,-510
0,4978051,3014,413,-2465,-1065,-610,-6913,154,338,-510
0,4978059,3018,402,-2462,-1067,-605,-6915,154,338,-510
0,4978067,3018,402,-2462,-1067,-605,-6915,154,338,-510
0,4978081,3014,410,-2464,-1079,-600,-6914,154,338,-510
0,4978094,3014,410,-2464,-1079,-600,-6914,154,338,-510
0,4978109,3019,389,-2460,-1072,-613,-6918,154,338,-510
0,4978116,3019,389,-2460,-1072,-613,-6918,154,338,-510
0,4978127,3013,416,-2458,-1079,-606,-6929,154,338,-510
0,4978141,3018,387,-2457,-1078,-607,-6917,154,342,-510
0,4978154,3018,387,-2457,-1078,-607,-6917,154,342,-510
0,4978168,3017,394,-2461,-1076,-605,-6928,154,342,-510
0,4978183,3021,380,-2467,-1063,-604,-6924,154,342,-510
0,4978197,3021,380,-2467,-1063,-604,-6924,154,342,-510
0,4978209,3018,398,-2457,-1063,-600,-6915,154,342,-510
0,4978222,3023,379,-2463,-1070,-604,-6921,154,342,-510
0,4978235,3023,379,-2463,-1070,-604,-6921,154,342,-510
0,4978249,3018,346,-2457,-1078,-612,-6920,154,342,-510
0,4978264,3011,383,-2468,-1076,-608,-6919,168,340,-504
0,4978277,3011,383,-2468,-1076,-608,-6919,168,340,-504
0,4978289,3017,376,-2456,-1073,-606,-6918,168,340,-504
0,4978305,3014,378,-2459,-1076,-609,-6915,168,340,-504
0,4978320,3018,359,-2465,-1082,-612,-6910,168,340,-504
0,4978335,3018,359,-2465,-1082,-612,-6910,168,340,-504
0,4978350,3012,377,-2461,-1086,-605,-6914,168,340,-504
0,4978362,3016,380,-2472,-1069,-609,-6907,168,340,-504
0,4978376,3016,380,-2472,-1069,-609,-6907,168,340,-504
0,4978391,3011,385,-2461,-1079,-604,-6911,168,340,-504
0,4978402,3016,373,-2461,-1081,-601,-6918,164,360,-500
0,4978414,3016,373,-2461,-1081,-601,-6918,164,360,-500
0,4978429,3014,373,-2458,-1079,-601,-6905,164,360,-500
0,4978443,3008,375,-2461,-1076,-612,-6905,164,360,-500
0,4978457,3008,375,-2461,-1076,-612,-6905,164,360,-500
0,4978471,3014,379,-2457,-1079,-612,-6917,164,360,-500
0,4978485,3009,377,-2464,-1080,-610,-6913,164,360,-500
0,4978498,3009,377,-2464,-1080,-610,-6913,164,360,-500
0,4978513,3016,375,-2462,-1074,-603,-6907,164,360,-500
0,4978526,3007,381,-2461,-1072,-607,-6915,172,362,-498
0,4978540,3011,384,-2456,-1080,-610,-6916,172,362,-498
0,4978555,3011,384,-2456,-1080,-610,-6916,172,362,-498
0,4978570,3011,382,-2462,-1085,-611,-6914,172,362,-498
0,4978585,3010,373,-2457,-1086,-613,-6908,172,362,-498
0,4978596,3010,373,-2457,-1086,-613,-6908,172,362,-498
0,4978611,3013,370,-2459,-1080,-611,-6908,172,362,-498
0,4978624,3004,378,-2458,-1069,-611,-6916,172,362,-498
0,4978637,3004,378,-2458,-1069,-611,-6916,172,362,-498
0,4978652,3011,387,-2459,-1074,-607,-6903,172,362,-498
0,4978664,3006,384,-2461,-1070,-603,-6909,191,371,-503
0,4978676,3006,384,-2461,-1070,-603,-6909,191,371,-503
0,4978691,3006,399,-2458,-1067,-604,-6908,191,371,-503
0,4978704,3004,403,-2467,-1084,-604,-6902,191,371,-503
0,4978718,3004,403,-2467,-1084,-604,-6902,191,371,-503
0,4978731,3004,442,-2466,-1086,-602,-6903,191,371,-503
0,4978743,3013,402,-2456,-1076,-604,-6907,191,371,-503
0,4978757,3013,402,-2456,-1076,-604,-6907,191,371,-503
0,4978772,3007,412,-2459,-1070,-604,-6908,191,371,-503
0,4978788,3013,401,-2452,-1072,-608,-6910,193,381,-495
0,4978801,3008,431,-2449,-1063,-603,-6907,193,381,-495
0,4978813,3008,431,-2449,-1063,-603,-6907,193,381,-495
0,4978830,3015,402,-2461,-1081,-606,-6917,193,381,-495
0,4978844,3006,411,-2462,-1078,-604,-6916,193,381,-495
0,4978857,3006,411,-2462,-1078,-604,-6916,193,381,-495
0,4978871,3017,397,-2466,-1072,-614,-6921,193,381,-495
0,4978884,3013,406,-2463,-1070,-602,-6910,193,381,-495
0,4978896,3013,406,-2463,-1070,-602,-6910,193,381,-495
0,4978907,3021,395,-2464,-1077,-610,-6915,193,381,-495
0,4978920,3015,393,-2453,-1082,-604,-6920,200,374,-494
0,4978934,3015,393,-2453,-1082,-604,-6920,200,374,-494
0,4978948,3020,376,-2464,-1086,-606,-6913,200,374,-494
0,4978959,3020,376,-2464,-1086,-606,-6913,200,374,-494
0,4978974,3015,391,-2454,-1078,-608,-6917,200,374,-494
0,4978990,3011,397,-2459,-1076,-606,-6919,200,374,-494
0,4979004,3008,386,-2458,-1074,-609,-6918,200,374,-494
0,4979016,3008,386,-2458,-1074,-609,-6918,200,374,-494
0,4979031,3013,382,-2469,-1078,-610,-6914,200,374,-494
0,4979045,3017,383,-2452,-1074,-609,-6913,210,378,-496
0,4979058,3017,383,-2452,-1074,-609,-6913,210,378,-496
0,4979072,3013,402,-2455,-1070,-607,-6913,210,378,-496
0,4979082,3015,396,-2464,-1078,-608,-6918,210,378,-496
0,4979090,3015,396,-2464,-1078,-608,-6918,210,378,-496
0,4979099,3015,396,-2464,-1078,-608,-6918,210,378,-496
0,4979107,3015,397,-2463,-1074,-609,-6917,210,378,-496
0,4979117,3015,397,-2463,-1074,-609,-6917,210,378,-496
0,4979126,3021,394,-2458,-1069,-601,-6919,210,378,-496
0,4979135,3021,394,-2458,-1069,-601,-6919,210,378,-496
0,4979144,3017,403,-2465,-1082,-612,-6913,210,378,-496
0,4979152,3017,403,-2465,-1082,-612,-6913,210,378,-496
0,4979163,3016,404,-2457,-1072,-607,-6906,217,393,-497
0,4979172,3016,404,-2457,-1072,-607,-6906,217,393,-497
0,4979180,3014,400,-2454,-1080,-610,-6917,217,393,-497
0,4979191,3014,400,-2454,-1080,-610,-6917,217,393,-497
0,4979200,3014,400,-2454,-1080,-610,-6917,217,393,-497
0,4979208,3013,392,-2457,-1079,-606,-6917,217,393,-497
0,4979217,3013,392,-2457,-1079,-606,-6917,217,393,-497
0,4979225,3016,393,-2459,-1078,-602,-6911,217,393,-497
0,4979234,3016,393,-2459,-1078,-602,-6911,217,393,-497
0,4979243,3018,384,-2454,-1070,-607,-6920,217,393,-497
0,4979251,3018,384,-2454,-1070,-607,-6920,217,393,-497
0,4979260,3014,397,-2468,-1075,-607,-6930,217,393,-497
0,4979270,3014,397,-2468,-1075,-607,-6930,217,393,-497
0,4979278,3014,397,-2468,-1075,-607,-6930,217,393,-497
0,4979288,3021,368,-2456,-1082,-605,-6924,217,393,-497
0,4979298,3021,368,-2456,-1082,-605,-6924,217,393,-497
0,4979306,3016,357,-2450,-1079,-606,-6920,225,385,-495
0,4979315,3016,357,-2450,-1079,-606,-6920,225,385,-495
0,4979324,3018,371,-2459,-1076,-604,-6921,225,385,-495
0,4979335,3018,371,-2459,-1076,-604,-6921,225,385,-495
0,4979343,3019,385,-2462,-1074,-600,-6916,225,385,-495
0,4979352,3019,385,-2462,-1074,-600,-6916,225,385,-495
0,4979358,3019,385,-2462,-1074,-600,-6916,225,385,-495
0,4979366,3018,356,-2456,-1072,-610,-6916,225,385,-495
0,4979375,3018,356,-2456,-1072,-610,-6916,225,385,-495
0,4979384,3014,370,-2466,-1086,-613,-6924,225,385,-495
0,4979392,3014,370,-2466,-1086,-613,-6924,225,385,-495
0,4979400,3015,367,-2451,-1077,-607,-6916,225,385,-495
0,4979409,3015,367,-2451,-1077,-607,-6916,225,385,-495
0,4979421,3013,386,-2463,-1077,-609,-6912,232,378,-490
0,4979431,3013,386,-2463,-1077,-609,-6912,232,378,-490
0,4979439,3013,386,-2463,-1077,-609,-6912,232,378,-490
0,4979448,3013,365,-2462,-1072,-607,-6909,232,378,-490
0,4979458,3013,365,-2462,-1072,-607,-6909,232,378,-490
0,4979466,3015,388,-2459,-1089,-604,-6909,232,378,-490
0,4979476,3015,388,-2459,-1089,-604,-6909,232,378,-490
0,4979484,3016,359,-2464,-1082,-605,-6906,232,378,-490
0,4979493,3016,359,-2464,-1082,-605,-6906,232,378,-490
0,4979503,3014,384,-2465,-1080,-611,-6909,232,378,-490
0,4979515,3014,384,-2465,-1080,-611,-6909,232,378,-490
0,4979523,3012,366,-2455,-1071,-605,-6912,232,378,-490
0,4979532,3012,366,-2455,-1071,-605,-6912,232,378,-490
0,4979540,3008,383,-2458,-1081,-610,-6916,232,378,-490
0,4979550,3008,383,-2458,-1081,-610,-6916,232,378,-490
0,4979558,3008,383,-2458,-1081,-610,-6916,232,378,-490
0,4979567,3007,361,-2455,-1079,-614,-6918,232,386,-504
0,4979575,3007,361,-2455,-1079,-614,-6918,232,386,-504
0,4979586,3008,385,-2459,-1080,-611,-6909,232,386,-504
0,4979594,3008,385,-2459,-1080,-611,-6909,232,386,-504
0,4979603,3006,370,-2458,-1079,-608,-6908,232,386,-504
0,4979611,3006,370,-2458,-1079,-608,-6908,232,386,-504
0,4979620,3012,382,-2457,-1080,-602,-6908,232,386,-504
0,4979630,3012,382,-2457,-1080,-602,-6908,232,386,-504
0,4979639,3012,382,-2457,-1080,-602,-6908,232,386,-504
0,4979648,3008,368,-2470,-1081,-608,-6903,232,386,-504
0,4979657,3008,368,-2470,-1081,-608,-6903,232,386,-504
0,4979666,3013,379,-2464,-1076,-607,-6905,232,386,-504
0,4979675,3013,379,-2464,-1076,-607,-6905,232,386,-504
0,4979684,3009,378,-2458,-1075,-606,-6912,239,387,-495
0,4979692,3009,378,-2458,-1075,-606,-6912,239,387,-495
0,4979700,3008,382,-2457,-1078,-609,-6912,239,387,-495
0,4979709,3008,382,-2457,-1078,-609,-6912,239,387,-495
0,4979721,3005,376,-2460,-1074,-606,-6909,239,387,-495
0,4979730,3005,376,-2460,-1074,-606,-6909,239,387,-495
0,4979740,3007,377,-2462,-1069,-599,-6913,239,387,-495
0,4979749,3007,377,-2462,-1069,-599,-6913,239,387,-495
0,4979760,3007,377,-2462,-1069,-599,-6913,239,387,-495
0,4979768,3006,393,-2463,-1073,-600,-6908,239,387,-495
0,4979775,3006,393,-2463,-1073,-600,-6908,239,387,-495
0,4979783,3006,418,-2459,-1075,-605,-6906,239,387,-495
0,4979793,3006,418,-2459,-1075,-605,-6906,239,387,-495
0,4979802,3006,418,-2459,-1075,-605,-6906,239,387,-495
0,4979810,3006,418,-2459,-1075,-605,-6906,239,387,-495
0,4979819,3006,418,-2459,-1075,-605,-6906,239,387,-495
0,4979827,3007,427,-2463,-1077,-606,-6904,241,379,-491
0,4979836,3007,427,-2463,-1077,-606,-6904,241,379,-491
0,4979844,3002,421,-2461,-1078,-609,-6908,241,379,-491
0,4979853,3002,421,-2461,-1078,-609,-6908,241,379,-491
0,4979861,3010,438,-2464,-1085,-615,-6911,241,379,-491
0,4979868,3010,438,-2464,-1085,-615,-6911,241,379,-491
0,4979877,3010,438,-2464,-1085,-615,-6911,241,379,-491
0,4979887,3012,437,-2454,-1079,-613,-6914,241,379,-491
0,4979896,3012,437,-2454,-1079,-613,-6914,241,379,-491
0,4979905,3016,425,-2463,-1078,-616,-6920,241,379,-491
0,4979913,3016,425,-2463,-1078,-616,-6920,241,379,-491
0,4979921,3011,397,-2453,-1076,-604,-6915,241,379,-491
0,4979931,3011,397,-2453,-1076,-604,-6915,241,379,-491
0,4979940,3011,397,-2453,-1076,-604,-6915,241,379,-491
0,4979949,3019,412,-2460,-1077,-605,-6921,247,377,-477
0,4979957,3019,412,-2460,-1077,-605,-6921,247,377,-477
0,4979965,3016,393,-2458,-1075,-608,-6916,247,377,-477
0,4979974,3016,393,-2458,-1075,-608,-6916,247,377,-477
0,4979984,3021,414,-2464,-1080,-616,-6920,247,377,-477
0,4979993,3021,414,-2464,-1080,-616,-6920,247,377,-477
0,4980001,3013,370,-2463,-1069,-606,-6920,247,377,-477
0,4980012,3013,370,-2463,-1069,-606,-6920,247,377,-477
0,4980020,3013,370,-2463,-1069,-606,-6920,247,377,-477
0,4980029,3018,401,-2466,-1068,-604,-6915,247,377,-477
0,4980037,3018,401,-2466,-1068,-604,-6915,247,377,-477
0,4980048,3019,379,-2462,-1062,-608,-6913,247,377,-477
0,4980058,3019,379,-2462,-1062,-608,-6913,247,377,-477
0,4980068,3022,402,-2457,-1081,-602,-6917,253,367,-477
0,4980075,3022,402,-2457,-1081,-602,-6917,253,367,-477
0,4980086,3017,371,-2461,-1075,-606,-6916,253,367,-477
0,4980101,3017,371,-2461,-1075,-606,-6916,253,367,-477
0,4980114,3014,391,-2460,-1078,-612,-6921,253,367,-477
0,4980127,3015,372,-2460,-1082,-611,-6916,253,367,-477
0,4980141,3015,372,-2460,-1082,-611,-6916,253,367,-477
0,4980152,3016,404,-2457,-1076,-606,-6921,253,367,-477
0,4980165,3018,379,-2463,-1082,-606,-6931,253,367,-477
0,4980178,3018,379,-2463,-1082,-606,-6931,253,367,-477
0,4980192,3020,390,-2458,-1072,-597,-6925,253,367,-477
0,4980206,3020,372,-2457,-1075,-609,-6920,256,366,-478
0,4980217,3020,372,-2457,-1075,-609,-6920,256,366,-478
0,4980232,3014,396,-2458,-1078,-610,-6922,256,366,-478
0,4980247,3020,379,-2457,-1080,-610,-6915,256,366,-478
0,4980261,3017,383,-2463,-1083,-609,-6916,256,366,-478
0,4980275,3017,383,-2463,-1083,-609,-6916,256,366,-478
0,4980288,3018,375,-2454,-1077,-608,-6922,256,366,-478
0,4980302,3015,387,-2457,-1079,-608,-6924,256,366,-478
0,4980316,3015,387,-2457,-1079,-608,-6924,256,366,-478
0,4980330,3015,377,-2455,-1082,-605,-6920,260,366,-472
0,4980343,3012,353,-2450,-1083,-609,-6920,260,366,-472
0,4980358,3012,353,-2450,-1083,-609,-6920,260,366,-472
0,4980372,3016,375,-2464,-1086,-610,-6915,260,366,-472
0,4980384,3016,372,-2462,-1074,-603,-6912,260,366,-472
0,4980397,3016,372,-2462,-1074,-603,-6912,260,366,-472
0,4980410,3013,374,-2457,-1070,-610,-6915,260,366,-472
0,4980424,3017,359,-2465,-1077,-606,-6918,260,366,-472
0,4980441,3017,359,-2465,-1077,-606,-6918,260,366,-472
0,4980455,3012,373,-2465,-1073,-608,-6917,260,366,-472
0,4980468,3013,370,-2453,-1070,-608,-6915,246,368,-472
0,4980483,3008,373,-2455,-1074,-607,-6918,246,368,-472
0,4980497,3008,373,-2455,-1074,-607,-6918,246,368,-472
0,4980511,3010,366,-2459,-1084,-603,-6906,246,368,-472
0,4980525,3006,365,-2462,-1080,-603,-6904,246,368,-472
0,4980538,3006,365,-2462,-1080,-603,-6904,246,368,-472
0,4980551,3012,377,-2461,-1079,-608,-6910,246,368,-472
0,4980564,3007,378,-2458,-1079,-608,-6908,246,368,-472
0,4980578,3007,378,-2458,-1079,-608,-6908,246,368,-472
0,4980592,3011,373,-2462,-1079,-601,-6912,250,354,-472
0,4980604,3010,374,-2461,-1075,-613,-6909,250,354,-472
0,4980617,3010,374,-2461,-1075,-613,-6909,250,354,-472
0,4980630,3011,377,-2460,-1070,-606,-6898,250,354,-472
0,4980644,3004,390,-2463,-1081,-613,-6916,250,354,-472
0,4980659,3004,390,-2463,-1081,-613,-6916,250,354,-472
0,4980675,3007,395,-2462,-1082,-608,-6905,250,354,-472
0,4980689,3003,383,-2459,-1071,-606,-6903,250,354,-472
0,4980702,3006,397,-2459,-1068,-602,-6907,250,354,-472
0,4980716,3006,397,-2459,-1068,-602,-6907,250,354,-472
0,4980730,2999,400,-2454,-1082,-603,-6903,261,347,-475
0,4980745,3011,403,-2465,-1085,-609,-6906,261,347,-475
0,4980756,3011,403,-2465,-1085,-609,-6906,261,347,-475
0,4980771,3009,382,-2458,-1082,-617,-6912,261,347,-475
0,4980785,3009,417,-2466,-1077,-612,-6914,261,347,-475
0,4980798,3009,417,-2466,-1077,-612,-6914,261,347,-475
0,4980812,3009,407,-2458,-1071,-610,-6912,261,347,-475
0,4980825,3009,429,-2458,-1074,-605,-6903,261,347,-475
0,4980837,3009,429,-2458,-1074,-605,-6903,261,347,-475
0,4980851,3012,400,-2457,-1081,-603,-6915,253,349,-477
0,4980865,3007,430,-2452,-1078,-602,-6912,253,349,-477
0,4980878,3007,430,-2452,-1078,-602,-6912,253,349,-477
0,4980893,3014,399,-2456,-1082,-606,-6910,253,349,-477
0,4980909,3011,422,-2458,-1078,-608,-6914,253,349,-477
0,4980921,3011,422,-2458,-1078,-608,-6914,253,349,-477
0,4980935,3023,383,-2464,-1073,-604,-6914,253,349,-477
0,4980951,3013,413,-2462,-1077,-604,-6919,253,349,-477
0,4980966,3020,394,-2461,-1073,-604,-6914,255,333,-477
0,4980979,3020,394,-2461,-1073,-604,-6914,255,333,-477
0,4980993,3015,422,-2459,-1078,-608,-6918,255,333,-477
0,4981005,3021,387,-2459,-1076,-599,-6916,255,333,-477
0,4981019,3021,387,-2459,-1076,-599,-6916,255,333,-477
0,4981032,3016,399,-2453,-1077,-609,-6925,255,333,-477
0,4981047,3021,374,-2457,-1076,-602,-6917,255,333,-477
0,4981059,3021,374,-2457,-1076,-602,-6917,255,333,-477
0,4981071,3018,396,-2458,-1078,-602,-6917,255,333,-477
0,4981086,3019,374,-2460,-1081,-604,-6911,255,333,-477
0,4981096,3019,374,-2460,-1081,-604,-6911,255,333,-477
0,4981105,3022,337,-2458,-1074,-606,-6915,242,332,-484
0,4981113,3022,337,-2458,-1074,-606,-6915,242,332,-484
0,4981123,3015,376,-2472,-1077,-602,-6919,242,332,-484
0,4981132,3015,376,-2472,-1077,-602,-6919,242,332,-484
0,4981141,3015,376,-2472,-1077,-602,-6919,242,332,-484
0,4981149,3015,374,-2454,-1081,-610,-6913,242,332,-484
0,4981157,3015,374,-2454,-1081,-610,-6913,242,332,-484
0,4981166,3015,380,-2460,-1078,-602,-6921,242,332,-484
0,4981174,3015,380,-2460,-1078,-602,-6921,242,332,-484
0,4981182,3015,380,-2460,-1078,-602,-6921,242,332,-484
0,4981190,3019,354,-2466,-1080,-601,-6916,242,332,-484
0,4981198,3019,354,-2466,-1080,-601,-6916,242,332,-484
0,4981208,3016,372,-2455,-1077,-605,-6921,242,332,-484
0,4981217,3016,372,-2455,-1077,-605,-6921,242,332,-484
0,4981225,3014,373,-2459,-1073,-606,-6914,248,322,-482
0,4981234,3014,373,-2459,-1073,-606,-6914,248,322,-482
0,4981244,3012,376,-2453,-1068,-601,-6912,248,322,-482
0,4981253,3012,376,-2453,-1068,-601,-6912,248,322,-482
0,4981261,3012,376,-2453,-1068,-601,-6912,248,322,-482
0,4981270,3011,362,-2462,-1075,-606,-6906,248,322,-482
0,4981278,3011,362,-2462,-1075,-606,-6906,248,322,-482
0,4981286,3012,370,-2460,-1084,-611,-6906,248,322,-482
0,4981296,3012,370,-2460,-1084,-611,-6906,248,322,-482
0,4981304,3010,378,-2456,-1077,-607,-6907,248,322,-482
0,4981313,3010,378,-2456,-1077,-607,-6907,248,322,-482
0,4981321,3010,378,-2456,-1077,-607,-6907,248,322,-482
0,4981330,3011,378,-2458,-1077,-615,-6912,248,322,-482
0,4981341,3011,378,-2458,-1077,-615,-6912,248,322,-482
0,4981349,3009,370,-2457,-1072,-611,-6918,248,322,-482
0,4981359,3009,370,-2457,-1072,-611,-6918,248,322,-482
0,4981370,3010,368,-2470,-1092,-612,-6913,242,324,-492
0,4981377,3010,368,-2470,-1092,-612,-6913,242,324,-492
0,4981387,3008,372,-2459,-1076,-614,-6911,242,324,-492
0,4981395,3008,372,-2459,-1076,-614,-6911,242,324,-492
0,4981403,3005,382,-2464,-1082,-609,-6908,242,324,-492
0,4981412,3005,382,-2464,-1082,-609,-6908,242,324,-492
0,4981422,3005,382,-2464,-1082,-609,-6908,242,324,-492
0,4981432,3009,385,-2455,-1086,-607,-6906,242,324,-492
0,4981443,3005,365,-2462,-1080,-603,-6910,242,324,-492
0,4981450,3005,365,-2462,-1080,-603,-6910,242,324,-492
0,4981460,3005,365,-2462,-1080,-603,-6910,242,324,-492
0,4981470,3008,370,-2454,-1077,-609,-6913,242,324,-492
0,4981476,3008,370,-2454,-1077,-609,-6913,242,324,-492
0,4981485,3004,382,-2452,-1081,-611,-6911,247,307,-485
0,4981494,3004,382,-2452,-1081,-611,-6911,247,307,-485
0,4981502,3011,384,-2459,-1081,-605,-6906,247,307,-485
0,4981513,3011,384,-2459,-1081,-605,-6906,247,307,-485
0,4981523,3005,386,-2462,-1082,-597,-6905,247,307,-485
0,4981531,3005,386,-2462,-1082,-597,-6905,247,307,-485
0,4981540,3005,386,-2462,-1082,-597,-6905,247,307,-485
0,4981550,3007,394,-2460,-1079,-611,-6909,247,307,-485
0,4981561,3007,394,-2460,-1079,-611,-6909,247,307,-485
0,4981569,3003,446,-2463,-1085,-616,-6909,247,307,-485
0,4981580,3003,446,-2463,-1085,-616,-6909,247,307,-485
0,4981590,3003,424,-2455,-1089,-616,-6903,247,307,-485
0,4981600,3003,424,-2455,-1089,-616,-6903,247,307,-485
0,4981610,3003,424,-2455,-1089,-616,-6903,237,301,-485
0,4981622,3003,424,-2455,-1089,-616,-6903,237,301,-485
0,4981630,3005,402,-2451,-1075,-609,-6906,237,301,-485
0,4981642,3005,402,-2451,-1075,-609,-6906,237,301,-485
0,4981649,3012,420,-2454,-1074,-609,-6911,237,301,-485
0,4981660,3012,420,-2454,-1074,-609,-6911,237,301,-485
0,4981667,3007,415,-2457,-1074,-607,-6917,237,301,-485
0,4981677,3007,415,-2457,-1074,-607,-6917,237,301,-485
0,4981686,3013,404,-2456,-1077,-611,-6919,237,301,-485
0,4981694,3013,404,-2456,-1077,-611,-6919,237,301,-485
0,4981703,3009,394,-2463,-1079,-614,-6915,237,301,-485
0,4981712,3009,394,-2463,-1079,-614,-6915,237,301,-485
0,4981724,3016,404,-2456,-1078,-609,-6918,237,301,-485
0,4981734,3016,404,-2456,-1078,-609,-6918,237,301,-485
0,4981744,3010,406,-2458,-1077,-606,-6917,221,301,-493
0,4981754,3010,406,-2458,-1077,-606,-6917,221,301,-493
0,4981765,3016,392,-2454,-1073,-604,-6904,221,301,-493
0,4981773,3016,392,-2454,-1073,-604,-6904,221,301,-493
0,4981782,3016,392,-2454,-1073,-604,-6904,221,301,-493
0,4981792,3013,383,-2460,-1080,-607,-6909,221,301,-493
0,4981801,3013,383,-2460,-1080,-607,-6909,221,301,-493
0,4981812,3017,377,-2463,-1078,-609,-6915,221,301,-493
0,4981821,3017,377,-2463,-1078,-609,-6915,221,301,-493
0,4981830,3014,391,-2455,-1075,-608,-6918,221,301,-493
0,4981838,3014,391,-2455,-1075,-608,-6918,221,301,-493
0,4981849,3018,389,-2463,-1086,-609,-6912,221,301,-493
0,4981858,3018,389,-2463,-1086,-609,-6912,221,301,-493
0,4981866,3014,381,-2457,-1079,-603,-6915,225,289,-495
0,4981872,3014,381,-2457,-1079,-603,-6915,225,289,-495
0,4981882,3014,381,-2457,-1079,-603,-6915,225,289,-495
0,4981894,3014,377,-2460,-1085,-609,-6911,225,289,-495
0,4981902,3014,377,-2460,-1085,-609,-6911,225,289,-495
0,4981913,3016,386,-2461,-1078,-608,-6923,225,289,-495
0,4981921,3016,386,-2461,-1078,-608,-6923,225,289,-495
0,4981933,3013,396,-2463,-1082,-605,-6920,225,289,-495
0,4981944,3016,385,-2457,-1081,-607,-6919,225,289,-495
0,4981953,3016,385,-2457,-1081,-607,-6919,225,289,-495
0,4981963,3013,386,-2472,-1080,-605,-6911,225,289,-495
0,4981971,3013,386,-2472,-1080,-605,-6911,225,289,-495
0,4981984,3014,396,-2458,-1077,-605,-6920,225,289,-495
0,4981993,3014,396,-2458,-1077,-605,-6920,225,289,-495
0,4982003,3014,396,-2458,-1077,-605,-6920,225,289,-495
0,4982012,3013,411,-2453,-1068,-603,-6920,213,281,-491
0,4982023,3013,411,-2453,-1068,-603,-6920,213,281,-491
0,4982033,3013,398,-2455,-1075,-604,-6926,213,281,-491
0,4982041,3013,398,-2455,-1075,-604,-6926,213,281,-491
0,4982051,3014,388,-2456,-1070,-598,-6918,213,281,-491
0,4982063,3014,388,-2456,-1070,-598,-6918,213,281,-491
0,4982072,3014,393,-2447,-1079,-603,-6920,213,281,-491
0,4982082,3014,393,-2447,-1079,-603,-6920,213,281,-491
0,4982094,3019,391,-2460,-1071,-610,-6919,213,281,-491
0,4982109,3015,382,-2459,-1074,-612,-6919,213,281,-491
0,4982118,3015,382,-2459,-1074,-612,-6919,213,281,-491
0,4982132,3019,384,-2462,-1078,-607,-6924,208,276,-500
0,4982146,3019,384,-2462,-1078,-607,-6924,208,276,-500
0,4982159,3019,384,-2462,-1078,-607,-6924,208,276,-500
0,4982173,3017,350,-2455,-1071,-605,-6920,208,276,-500
0,4982188,3012,377,-2468,-1084,-605,-6918,208,276,-500
0,4982199,3012,377,-2468,-1084,-605,-6918,208,276,-500
0,4982212,3019,366,-2462,-1072,-601,-6921,208,276,-500
0,4982225,3013,360,-2457,-1064,-600,-6916,208,276,-500
0,4982239,3013,360,-2457,-1064,-600,-6916,208,276,-500
0,4982252,3016,357,-2464,-1082,-604,-6917,208,276,-500
0,4982266,3010,373,-2449,-1083,-604,-6913,207,271,-495
0,4982279,3010,373,-2449,-1083,-604,-6913,207,271,-495
0,4982293,3011,381,-2465,-1070,-601,-6908,207,271,-495
0,4982304,3011,367,-2451,-1072,-608,-6915,207,271,-495
0,4982317,3011,367,-2451,-1072,-608,-6915,207,271,-495
0,4982332,3007,378,-2460,-1079,-611,-6911,207,271,-495
0,4982344,3007,378,-2460,-1079,-611,-6911,207,271,-495
0,4982359,3007,378,-2460,-1079,-611,-6911,207,271,-495
0,4982375,3010,375,-2467,-1074,-609,-6913,207,271,-495
0,4982389,3011,363,-2454,-1083,-611,-6899,194,280,-500
0,4982401,3011,363,-2454,-1083,-611,-6899,194,280,-500
0,4982414,3007,381,-2453,-1078,-602,-6906,194,280,-500
0,4982428,3008,364,-2457,-1063,-604,-6912,194,280,-500
0,4982441,3008,364,-2457,-1063,-604,-6912,194,280,-500
0,4982455,3006,378,-2456,-1079,-614,-6916,194,280,-500
0,4982467,3004,366,-2458,-1081,-605,-6908,194,280,-500
0,4982479,3004,366,-2458,-1081,-605,-6908,194,280,-500
0,4982493,3007,388,-2458,-1081,-605,-6900,194,280,-500
0,4982507,3003,361,-2463,-1079,-615,-6910,191,263,-501
0,4982520,3003,361,-2463,-1079,-615,-6910,191,263,-501
0,4982535,3008,377,-2455,-1072,-608,-6900,191,263,-501
0,4982546,3002,369,-2459,-1074,-601,-6899,191,263,-501
0,4982561,3002,369,-2459,-1074,-601,-6899,191,263,-501
0,4982573,3006,385,-2463,-1076,-608,-6901,191,263,-501
0,4982586,2999,370,-2465,-1079,-613,-6904,191,263,-501
0,4982600,2999,370,-2465,-1079,-613,-6904,191,263,-501
0,4982616,3003,390,-2459,-1078,-599,-6901,191,263,-501
0,4982630,3003,395,-2460,-1073,-602,-6903,191,263,-501
0,4982643,3003,395,-2460,-1073,-602,-6903,191,263,-501
0,4982652,2999,446,-2461,-1077,-610,-6903,180,264,-500
0,4982665,3005,412,-2451,-1066,-601,-6897,180,264,-500
0,4982678,3005,412,-2451,-1066,-601,-6897,180,264,-500
0,4982692,3002,435,-2463,-1073,-605,-6902,180,264,-500
0,4982706,3004,409,-2460,-1072,-611,-6900,180,264,-500
0,4982719,3004,409,-2460,-1072,-611,-6900,180,264,-500
0,4982731,3004,449,-2463,-1078,-610,-6916,180,264,-500
0,4982745,3010,412,-2465,-1070,-611,-6912,180,264,-500
0,4982759,3010,412,-2465,-1070,-611,-6912,180,264,-500
0,4982772,3010,433,-2461,-1085,-605,-6917,186,264,-514
0,4982788,3015,393,-2457,-1086,-611,-6922,186,264,-514
0,4982802,3015,393,-2457,-1086,-611,-6922,186,264,-514
0,4982815,3014,416,-2460,-1073,-609,-6915,186,264,-514
0,4982829,3010,390,-2462,-1071,-612,-6916,186,264,-514
0,4982843,3010,390,-2462,-1071,-612,-6916,186,264,-514
0,4982856,3016,404,-2465,-1076,-601,-6921,186,264,-514
0,4982867,3012,371,-2471,-1071,-605,-6918,186,264,-514
0,4982882,3012,371,-2471,-1071,-605,-6918,186,264,-514
0,4982895,3021,398,-2467,-1072,-610,-6923,186,264,-514
0,4982908,3015,382,-2464,-1074,-605,-6924,181,265,-505
0,4982922,3015,382,-2464,-1074,-605,-6924,181,265,-505
0,4982932,3020,400,-2461,-1078,-611,-6920,181,265,-505
0,4982946,3015,369,-2466,-1077,-607,-6923,181,265,-505
0,4982960,3015,369,-2466,-1077,-607,-6923,181,265,-505
0,4982974,3020,386,-2458,-1078,-604,-6917,181,265,-505
0,4982988,3015,377,-2460,-1072,-608,-6916,181,265,-505
0,4983003,3015,377,-2460,-1072,-608,-6916,181,265,-505
0,4983016,3016,396,-2458,-1078,-600,-6914,181,265,-505
0,4983029,3013,374,-2453,-1078,-611,-6914,183,259,-509
0,4983045,3016,390,-2455,-1074,-606,-6912,183,259,-509
0,4983058,3016,390,-2455,-1074,-606,-6912,183,259,-509
0,4983070,3016,382,-2460,-1079,-608,-6915,183,259,-509
0,4983086,3018,396,-2459,-1071,-609,-6923,183,259,-509
0,4983100,3018,396,-2459,-1071,-609,-6923,183,259,-509
0,4983110,3020,378,-2463,-1073,-608,-6919,183,259,-509
0,4983119,3020,378,-2463,-1073,-608,-6919,183,259,-509
0,4983128,3020,384,-2467,-1070,-604,-6921,183,259,-509
0,4983137,3020,384,-2467,-1070,-604,-6921,183,259,-509
0,4983145,3015,380,-2462,-1070,-613,-6917,183,259,-509
0,4983153,3015,380,-2462,-1070,-613,-6917,183,259,-509
0,4983161,3015,380,-2462,-1070,-613,-6917,183,259,-509
0,4983170,3014,387,-2460,-1080,-615,-6911,170,260,-510
0,4983179,3014,387,-2460,-1080,-615,-6911,170,260,-510
0,4983187,3012,378,-2467,-1076,-609,-6909,170,260,-510
0,4983196,3012,378,-2467,-1076,-609,-6909,170,260,-510
0,4983204,3017,373,-2462,-1079,-616,-6922,170,260,-510
0,4983214,3017,373,-2462,-1079,-616,-6922,170,260,-510
0,4983222,3017,373,-2462,-1079,-616,-6922,170,260,-510
0,4983229,3014,365,-2457,-1075,-608,-6924,170,260,-510
0,4983236,3014,365,-2457,-1075,-608,-6924,170,260,-510
0,4983244,3014,365,-2457,-1075,-608,-6924,170,260,-510
0,4983252,3019,358,-2453,-1072,-606,-6922,170,260,-510
0,4983262,3019,358,-2453,-1072,-606,-6922,170,260,-510
0,4983270,3010,379,-2463,-1074,-606,-6912,170,260,-510
0,4983278,3010,379,-2463,-1074,-606,-6912,170,260,-510
0,4983288,3015,373,-2459,-1082,-606,-6907,164,256,-512
0,4983296,3015,373,-2459,-1082,-606,-6907,164,256,-512
0,4983305,3010,367,-2459,-1069,-602,-6913,164,256,-512
0,4983314,3010,367,-2459,-1069,-602,-6913,164,256,-512
0,4983323,3010,367,-2459,-1069,-602,-6913,164,256,-512
0,4983331,3013,364,-2462,-1076,-606,-6915,164,256,-512
0,4983340,3013,364,-2462,-1076,-606,-6915,164,256,-512
0,4983349,3013,374,-2459,-1088,-603,-6912,164,256,-512
0,4983357,3013,374,-2459,-1088,-603,-6912,164,256,-512
0,4983366,3009,369,-2468,-1070,-609,-6914,164,256,-512
0,4983374,3009,369,-2468,-1070,-609,-6914,164,256,-512
0,4983384,3009,369,-2468,-1070,-609,-6914,164,256,-512
0,4983392,3010,366,-2460,-1079,-605,-6907,164,256,-512
0,4983401,3010,366,-2460,-1079,-605,-6907,164,256,-512
0,4983409,3008,373,-2454,-1084,-605,-6909,164,262,-498
0,4983419,3008,373,-2454,-1084,-605,-6909,164,262,-498
0,4983429,3011,370,-2460,-1068,-605,-6906,164,262,-498
0,4983437,3011,370,-2460,-1068,-605,-6906,164,262,-498
0,4983447,3007,377,-2461,-1061,-602,-6915,164,262,-498
0,4983454,3007,377,-2461,-1061,-602,-6915,164,262,-498
0,4983462,3007,377,-2461,-1061,-602,-6915,164,262,-498
0,4983471,3009,374,-2462,-1076,-599,-6907,164,262,-498
0,4983480,3009,374,-2462,-1076,-599,-6907,164,262,-498
0,4983487,3006,378,-2463,-1085,-606,-6907,164,262,-498
0,4983496,3006,378,-2463,-1085,-606,-6907,164,262,-498
0,4983505,3012,369,-2457,-1073,-609,-6907,164,262,-498
0,4983514,3012,369,-2457,-1073,-609,-6907,164,262,-498
0,4983524,3012,369,-2457,-1073,-609,-6907,164,262,-498
0,4983531,3010,374,-2461,-1070,-613,-6910,164,262,-498
0,4983540,3010,374,-2461,-1070,-613,-6910,164,262,-498
0,4983547,3008,381,-2457,-1083,-610,-6904,157,267,-499
0,4983556,3008,381,-2457,-1083,-610,-6904,157,267,-499
0,4983563,3008,381,-2457,-1083,-610,-6904,157,267,-499
0,4983572,3004,384,-2452,-1083,-607,-6899,157,267,-499
0,4983580,3004,384,-2452,-1083,-607,-6899,157,267,-499
0,4983589,3003,382,-2457,-1076,-609,-6905,157,267,-499
0,4983598,3003,382,-2457,-1076,-609,-6905,157,267,-499
0,4983607,3004,390,-2458,-1080,-609,-6899,157,267,-499
0,4983616,3004,390,-2458,-1080,-609,-6899,157,267,-499
0,4983625,3006,388,-2459,-1070,-608,-6910,157,267,-499
0,4983633,3006,388,-2459,-1070,-608,-6910,157,267,-499
0,4983643,3006,388,-2459,-1070,-608,-6910,157,267,-499
0,4983651,3009,392,-2456,-1069,-600,-6907,157,267,-499
0,4983660,3009,392,-2456,-1069,-600,-6907,157,267,-499
0,4983668,3009,395,-2463,-1072,-608,-6909,155,263,-497
0,4983677,3009,395,-2463,-1072,-608,-6909,155,263,-497
0,4983688,3005,425,-2456,-1073,-609,-6910,155,263,-497
0,4983696,3005,425,-2456,-1073,-609,-6910,155,263,-497
0,4983704,3005,425,-2456,-1073,-609,-6910,155,263,-497
0,4983713,3008,408,-2465,-1080,-608,-6906,155,263,-497
0,4983721,3008,408,-2465,-1080,-608,-6906,155,263,-497
0,4983731,3006,405,-2462,-1084,-608,-6905,155,263,-497
0,4983742,3006,405,-2462,-1084,-608,-6905,155,263,-497
0,4983751,3012,408,-2463,-1083,-608,-6912,155,263,-497
0,4983759,3012,408,-2463,-1083,-608,-6912,155,263,-497
0,4983768,3003,416,-2464,-1082,-614,-6910,155,263,-497
0,4983777,3003,416,-2464,-1082,-614,-6910,155,263,-497
0,4983787,3014,400,-2458,-1084,-616,-6918,155,263,-497
0,4983796,3014,400,-2458,-1084,-616,-6918,155,263,-497
0,4983805,3014,400,-2458,-1084,-616,-6918,155,263,-497
0,4983814,3011,409,-2458,-1081,-607,-6919,150,282,-496
0,4983822,3011,409,-2458,-1081,-607,-6919,150,282,-496
0,4983830,3021,398,-2461,-1080,-615,-6918,150,282,-496
0,4983838,3021,398,-2461,-1080,-615,-6918,150,282,-496
0,4983847,3013,402,-2465,-1082,-609,-6917,150,282,-496
0,4983856,3013,402,-2465,-1082,-609,-6917,150,282,-496
0,4983864,3013,402,-2465,-1082,-609,-6917,150,282,-496
0,4983873,3018,393,-2465,-1081,-605,-6914,150,282,-496
0,4983883,3018,393,-2465,-1081,-605,-6914,150,282,-496
0,4983895,3012,398,-2462,-1079,-613,-6914,150,282,-496
0,4983904,3012,398,-2462,-1079,-613,-6914,150,282,-496
0,4983913,3017,373,-2466,-1080,-613,-6916,150,282,-496
0,4983922,3017,373,-2466,-1080,-613,-6916,150,282,-496
0,4983931,3013,386,-2457,-1082,-612,-6925,145,277,-497
0,4983940,3013,386,-2457,-1082,-612,-6925,145,277,-497
0,4983948,3015,380,-2457,-1084,-600,-6920,145,277,-497
0,4983956,3015,380,-2457,-1084,-600,-6920,145,277,-497
0,4983965,3015,380,-2457,-1084,-600,-6920,145,277,-497
0,4983973,3017,389,-2457,-1076,-605,-6924,145,277,-497
0,4983983,3017,389,-2457,-1076,-605,-6924,145,277,-497
0,4983991,3019,334,-2465,-1070,-605,-6921,145,277,-497
0,4984000,3019,334,-2465,-1070,-605,-6921,145,277,-497
0,4984008,3014,377,-2466,-1088,-611,-6920,145,277,-497
0,4984017,3014,377,-2466,-1088,-611,-6920,145,277,-497
0,4984027,3014,366,-2459,-1078,-610,-6920,145,277,-497
0,4984035,3014,366,-2459,-1078,-610,-6920,145,277,-497
0,4984043,3014,366,-2459,-1078,-610,-6920,145,277,-497
0,4984051,3013,395,-2461,-1063,-603,-6916,145,277,-497
0,4984059,3013,395,-2461,-1063,-603,-6916,145,277,-497
0,4984069,3018,352,-2463,-1079,-606,-6917,146,280,-492
0,4984077,3018,352,-2463,-1079,-606,-6917,146,280,-492
0,4984086,3012,374,-2458,-1080,-599,-6911,146,280,-492
0,4984094,3012,374,-2458,-1080,-599,-6911,146,280,-492
0,4984103,3012,374,-2458,-1080,-599,-6911,146,280,-492
0,4984114,3018,367,-2460,-1074,-610,-6911,146,280,-492
0,4984126,3009,380,-2445,-1071,-609,-6902,146,280,-492
0,4984140,3009,380,-2445,-1071,-609,-6902,146,280,-492
0,4984154,3014,364,-2463,-1067,-605,-6903,146,280,-492
0,4984167,3009,380,-2460,-1082,-602,-6914,146,280,-492
0,4984181,3009,380,-2460,-1082,-602,-6914,146,280,-492
0,4984194,3010,369,-2465,-1074,-608,-6908,153,289,-501
0,4984207,3005,374,-2450,-1073,-605,-6907,153,289,-501
0,4984221,3005,374,-2450,-1073,-605,-6907,153,289,-501
0,4984235,3013,377,-2460,-1079,-604,-6914,153,289,-501
0,4984248,3008,370,-2456,-1080,-604,-6908,153,289,-501
0,4984262,3008,370,-2456,-1080,-604,-6908,153,289,-501
0,4984272,3006,364,-2468,-1079,-609,-6914,153,289,-501
0,4984287,3007,376,-2453,-1073,-610,-6906,153,289,-501
0,4984298,3007,376,-2453,-1073,-610,-6906,153,289,-501
0,4984312,3005,381,-2458,-1076,-606,-6899,137,291,-493
0,4984327,3005,375,-2460,-1081,-611,-6902,137,291,-493
0,4984341,3005,375,-2460,-1081,-611,-6902,137,291,-493
0,4984355,3008,371,-2461,-1081,-608,-6910,137,291,-493
0,4984370,3005,379,-2459,-1081,-615,-6912,137,291,-493
0,4984384,3005,379,-2459,-1081,-615,-6912,137,291,-493
0,4984398,3011,388,-2461,-1075,-610,-6910,137,291,-493
0,4984411,3004,388,-2464,-1075,-612,-6898,137,291,-493
0,4984425,3004,388,-2464,-1075,-612,-6898,137,291,-493
0,4984438,3007,389,-2462,-1080,-614,-6911,137,291,-493
0,4984453,3000,437,-2461,-1070,-603,-6918,153,293,-489
0,4984466,3000,437,-2461,-1070,-603,-6918,153,293,-489
0,4984480,3004,411,-2452,-1066,-600,-6911,153,293,-489
0,4984494,3001,408,-2456,-1072,-604,-6903,153,293,-489
0,4984505,3001,408,-2456,-1072,-604,-6903,153,293,-489
0,4984520,3009,394,-2464,-1081,-609,-6908,153,293,-489
0,4984536,3008,415,-2455,-1074,-608,-6912,153,293,-489
0,4984550,3012,407,-2467,-1065,-609,-6911,153,293,-489
0,4984562,3012,407,-2467,-1065,-609,-6911,153,293,-489
0,4984577,3016,409,-2456,-1078,-604,-6917,143,299,-505
0,4984591,3017,398,-2464,-1084,-602,-6916,143,299,-505
0,4984605,3017,398,-2464,-1084,-602,-6916,143,299,-505
0,4984619,3012,401,-2462,-1074,-610,-6918,143,299,-505
0,4984631,3014,398,-2463,-1070,-612,-6920,143,299,-505
0,4984644,3014,398,-2463,-1070,-612,-6920,143,299,-505
0,4984657,3015,386,-2453,-1076,-603,-6917,143,299,-505
0,4984671,3016,376,-2463,-1078,-595,-6916,143,299,-505
0,4984685,3016,376,-2463,-1078,-595,-6916,143,299,-505
0,4984698,3012,379,-2462,-1069,-602,-6915,143,299,-505
0,4984712,3015,390,-2456,-1061,-611,-6915,156,314,-516
0,4984723,3015,390,-2456,-1061,-611,-6915,156,314,-516
0,4984738,3015,389,-2456,-1072,-609,-6911,156,314,-516
0,4984752,3016,387,-2465,-1075,-603,-6908,156,314,-516
0,4984766,3016,387,-2465,-1075,-603,-6908,156,314,-516
0,4984780,3011,379,-2468,-1068,-605,-6912,156,314,-516
0,4984796,3019,399,-2468,-1070,-608,-6916,156,314,-516
0,4984811,3012,395,-2464,-1077,-614,-6915,156,314,-516
0,4984825,3012,395,-2464,-1077,-614,-6915,156,314,-516
0,4984839,3021,393,-2464,-1080,-616,-6917,152,318,-504
0,4984854,3012,384,-2453,-1075,-604,-6913,152,318,-504
0,4984867,3016,399,-2461,-1074,-608,-6926,152,318,-504
0,4984880,3016,399,-2461,-1074,-608,-6926,152,318,-504
0,4984892,3012,407,-2460,-1072,-602,-6925,152,318,-504
0,4984906,3012,407,-2460,-1072,-602,-6925,152,318,-504
0,4984920,3016,395,-2466,-1070,-605,-6921,152,318,-504
0,4984934,3018,389,-2467,-1073,-602,-6915,152,318,-504
0,4984945,3018,389,-2467,-1073,-602,-6915,152,318,-504
0,4984957,3020,388,-2467,-1077,-609,-6917,152,318,-504
0,4984973,3020,384,-2459,-1079,-609,-6929,149,327,-511
0,4984986,3020,384,-2459,-1079,-609,-6929,149,327,-511
0,4984999,3021,388,-2467,-1075,-611,-6921,149,327,-511
0,4985015,3018,370,-2460,-1071,-616,-6915,149,327,-511
0,4985029,3020,340,-2458,-1074,-610,-6914,149,327,-511
0,4985044,3020,340,-2458,-1074,-610,-6914,149,327,-511
0,4985059,3012,376,-2459,-1076,-610,-6915,149,327,-511
0,4985072,3015,377,-2465,-1069,-605,-6908,149,327,-511
0,4985085,3015,377,-2465,-1069,-605,-6908,149,327,-511
0,4985099,3017,357,-2448,-1067,-608,-6920,148,324,-508
0,4985115,3020,359,-2469,-1078,-608,-6915,148,324,-508
0,4985124,3020,359,-2469,-1078,-608,-6915,148,324,-508
0,4985134,3013,365,-2454,-1073,-601,-6912,148,324,-508
0,4985144,3013,365,-2454,-1073,-601,-6912,148,324,-508
0,4985152,3013,387,-2462,-1073,-611,-6907,148,324,-508
0,4985162,3013,387,-2462,-1073,-611,-6907,148,324,-508
0,4985170,3015,363,-2466,-1072,-607,-6908,148,324,-508
0,4985180,3015,363,-2466,-1072,-607,-6908,148,324,-508
0,4985190,3010,374,-2460,-1081,-607,-6914,148,324,-508
0,4985196,3010,374,-2460,-1081,-607,-6914,148,324,-508
0,4985206,3010,374,-2460,-1081,-607,-6914,148,324,-508
0,4985217,3012,354,-2460,-1070,-607,-6912,156,340,-516
0,4985225,3012,354,-2460,-1070,-607,-6912,156,340,-516
0,4985237,3008,376,-2454,-1077,-610,-6917,156,340,-516
0,4985246,3008,376,-2454,-1077,-610,-6917,156,340,-516
0,4985254,3010,359,-2461,-1072,-614,-6908,156,340,-516
0,4985265,3010,359,-2461,-1072,-614,-6908,156,340,-516
0,4985274,3008,374,-2459,-1086,-611,-6905,156,340,-516
0,4985281,3008,374,-2459,-1086,-611,-6905,156,340,-516
0,4985289,3011,356,-2468,-1079,-607,-6911,156,340,-516
0,4985299,3011,356,-2468,-1079,-607,-6911,156,340,-516
0,4985309,3009,374,-2460,-1075,-603,-6916,156,340,-516
0,4985318,3009,374,-2460,-1075,-603,-6916,156,340,-516
0,4985328,3006,382,-2464,-1079,-604,-6909,156,340,-516
0,4985337,3006,382,-2464,-1079,-604,-6909,156,340,-516
0,4985348,3010,383,-2455,-1080,-607,-6900,160,344,-504
0,4985356,3010,383,-2455,-1080,-607,-6900,160,344,-504
0,4985365,3010,383,-2455,-1080,-607,-6900,160,344,-504
0,4985375,3009,361,-2466,-1077,-604,-6903,160,344,-504
0,4985387,3009,361,-2466,-1077,-604,-6903,160,344,-504
0,4985397,3010,372,-2463,-1073,-602,-6903,160,344,-504
0,4985406,3010,372,-2463,-1073,-602,-6903,160,344,-504
0,4985416,3006,376,-2461,-1077,-605,-6908,160,344,-504
0,4985425,3006,376,-2461,-1077,-605,-6908,160,344,-504
0,4985437,3003,377,-2459,-1078,-595,-6903,160,344,-504
0,4985448,3009,361,-2461,-1076,-597,-6905,160,344,-504
0,4985458,3009,361,-2461,-1076,-597,-6905,160,344,-504
0,4985469,3002,372,-2460,-1066,-604,-6903,160,356,-508
0,4985479,3002,372,-2460,-1066,-604,-6903,160,356,-508
0,4985489,3004,385,-2458,-1076,-606,-6910,160,356,-508
0,4985499,3004,385,-2458,-1076,-606,-6910,160,356,-508
0,4985507,2998,401,-2466,-1079,-607,-6905,160,356,-508
0,4985518,2998,401,-2466,-1079,-607,-6905,160,356,-508
0,4985528,3005,417,-2459,-1075,-601,-6902,160,356,-508
0,4985538,3005,417,-2459,-1075,-601,-6902,160,356,-508
0,4985549,3001,442,-2461,-1078,-606,-6904,160,356,-508
0,4985558,3001,442,-2461,-1078,-606,-6904,160,356,-508
0,4985569,3005,417,-2457,-1074,-604,-6899,160,356,-508
0,4985577,3005,417,-2457,-1074,-604,-6899,160,356,-508
0,4985588,3003,422,-2468,-1078,-604,-6903,160,356,-508
0,4985598,3003,422,-2468,-1078,-604,-6903,160,356,-508
0,4985608,3006,429,-2460,-1077,-606,-6910,168,368,-508
0,4985615,3006,429,-2460,-1077,-606,-6910,168,368,-508
0,4985623,3006,429,-2460,-1077,-606,-6910,168,368,-508
0,4985633,3010,430,-2457,-1071,-604,-6919,168,368,-508
0,4985641,3010,430,-2457,-1071,-604,-6919,168,368,-508
0,4985653,3007,409,-2463,-1087,-608,-6923,168,368,-508
0,4985661,3007,409,-2463,-1087,-608,-6923,168,368,-508
0,4985667,3007,409,-2463,-1087,-608,-6923,168,368,-508
0,4985677,3016,406,-2462,-1081,-609,-6917,168,368,-508
0,4985686,3016,406,-2462,-1081,-609,-6917,168,368,-508
0,4985696,3010,395,-2466,-1082,-608,-6922,168,368,-508
0,4985705,3010,395,-2466,-1082,-608,-6922,168,368,-508
0,4985716,3021,399,-2471,-1072,-608,-6919,168,368,-508
0,4985724,3021,399,-2471,-1072,-608,-6919,168,368,-508
0,4985735,3013,386,-2464,-1081,-611,-6919,181,361,-497
0,4985745,3013,386,-2464,-1081,-611,-6919,181,361,-497
0,4985755,3021,388,-2455,-1086,-605,-6916,181,361,-497
0,4985766,3021,388,-2455,-1086,-605,-6916,181,361,-497
0,4985775,3011,382,-2464,-1069,-602,-6918,181,361,-497
0,4985784,3011,382,-2464,-1069,-602,-6918,181,361,-497
0,4985794,3016,393,-2457,-1071,-606,-6914,181,361,-497
0,4985804,3016,393,-2457,-1071,-606,-6914,181,361,-497
0,4985812,3016,393,-2457,-1071,-606,-6914,181,361,-497
0,4985824,3016,393,-2457,-1071,-606,-6914,181,361,-497
0,4985834,3019,386,-2467,-1080,-611,-6911,181,361,-497
0,4985843,3019,386,-2467,-1080,-611,-6911,181,361,-497
0,4985853,3020,377,-2469,-1077,-613,-6919,190,374,-500
0,4985863,3020,377,-2469,-1077,-613,-6919,190,374,-500
0,4985874,3016,393,-2466,-1065,-610,-6914,190,374,-500
0,4985883,3016,393,-2466,-1065,-610,-6914,190,374,-500
0,4985892,3016,393,-2466,-1065,-610,-6914,190,374,-500
0,4985905,3016,393,-2466,-1065,-610,-6914,190,374,-500
0,4985913,3014,397,-2463,-1076,-605,-6914,190,374,-500
0,4985921,3014,397,-2463,-1076,-605,-6914,190,374,-500
0,4985931,3018,375,-2464,-1077,-617,-6921,190,374,-500
0,4985943,3018,375,-2464,-1077,-617,-6921,190,374,-500
0,4985954,3015,389,-2462,-1074,-607,-6920,190,374,-500
0,4985966,3015,389,-2462,-1074,-607,-6920,190,374,-500
0,4985975,3015,380,-2462,-1070,-606,-6918,190,374,-500
0,4985986,3015,380,-2462,-1070,-606,-6918,190,374,-500
0,4985996,3020,381,-2458,-1073,-611,-6919,200,378,-500
0,4986006,3020,381,-2458,-1073,-611,-6919,200,378,-500
0,4986018,3016,372,-2461,-1069,-600,-6925,200,378,-500
0,4986028,3016,372,-2461,-1069,-600,-6925,200,378,-500
0,4986038,3017,381,-2464,-1073,-601,-6917,200,378,-500
0,4986050,3014,384,-2462,-1081,-601,-6918,200,378,-500
0,4986061,3014,384,-2462,-1081,-601,-6918,200,378,-500
0,4986070,3019,365,-2464,-1080,-607,-6919,200,378,-500
0,4986079,3019,365,-2464,-1080,-607,-6919,200,378,-500
0,4986091,3018,368,-2467,-1074,-606,-6921,200,378,-500
0,4986102,3018,368,-2467,-1074,-606,-6921,200,378,-500
0,4986108,3018,368,-2467,-1074,-606,-6921,200,378,-500
0,4986120,3018,368,-2467,-1074,-606,-6921,209,375,-497
0,4986130,3017,377,-2459,-1071,-606,-6925,209,375,-497
0,4986143,3017,377,-2459,-1071,-606,-6925,209,375,-497
0,4986158,3011,358,-2457,-1079,-607,-6918,209,375,-497
0,4986172,3016,368,-2466,-1087,-608,-6910,209,375,-497
0,4986183,3016,368,-2466,-1087,-608,-6910,209,375,-497
0,4986196,3008,365,-2468,-1078,-607,-6903,209,375,-497
0,4986210,3008,365,-2468,-1078,-607,-6903,209,375,-497
0,4986223,3008,365,-2468,-1078,-607,-6903,209,375,-497
0,4986237,3008,362,-2468,-1092,-612,-6908,209,375,-497
0,4986249,3012,367,-2461,-1080,-617,-6904,209,375,-497
0,4986263,3012,367,-2461,-1080,-617,-6904,212,380,-492
0,4986276,3011,372,-2461,-1079,-600,-6904,212,380,-492
0,4986291,3012,374,-2460,-1078,-603,-6908,212,380,-492
0,4986305,3012,374,-2460,-1078,-603,-6908,212,380,-492
0,4986320,3007,377,-2462,-1087,-607,-6914,212,380,-492
0,4986335,3011,376,-2462,-1077,-612,-6911,212,380,-492
0,4986349,3007,373,-2465,-1078,-613,-6909,212,380,-492
0,4986362,3007,373,-2465,-1078,-613,-6909,212,380,-492
0,4986375,3006,382,-2459,-1069,-613,-6905,222,380,-498
0,4986387,3006,382,-2459,-1069,-613,-6905,222,380,-498
0,4986399,3003,387,-2462,-1072,-611,-6912,222,380,-498
0,4986414,3009,376,-2461,-1078,-616,-6902,222,380,-498
0,4986427,3009,376,-2461,-1078,-616,-6902,222,380,-498
0,4986440,3009,385,-2465,-1079,-620,-6904,222,380,-498
0,4986455,3007,384,-2462,-1072,-607,-6902,222,380,-498
0,4986467,3007,384,-2462,-1072,-607,-6902,222,380,-498
0,4986480,3006,394,-2459,-1081,-605,-6912,222,380,-498
0,4986493,3009,384,-2463,-1085,-608,-6907,222,380,-498
0,4986508,3009,384,-2463,-1085,-608,-6907,222,380,-498
0,4986522,3007,405,-2456,-1078,-604,-6906,222,376,-498
0,4986535,3008,414,-2463,-1078,-612,-6907,222,376,-498
0,4986551,3011,418,-2462,-1073,-618,-6913,222,376,-498
0,4986564,3011,418,-2462,-1073,-618,-6913,222,376,-498
0,4986579,3006,405,-2467,-1073,-606,-6907,222,376,-498
0,4986595,3010,423,-2465,-1079,-611,-6912,222,376,-498
0,4986606,3010,423,-2465,-1079,-611,-6912,222,376,-498
0,4986620,3012,406,-2458,-1072,-608,-6905,222,376,-498
0,4986635,3011,415,-2456,-1078,-613,-6916,231,381,-493
0,4986648,3011,415,-2456,-1078,-613,-6916,231,381,-493
0,4986661,3014,400,-2467,-1079,-613,-6910,231,381,-493
0,4986672,3012,415,-2460,-1069,-601,-6918,231,381,-493
0,4986685,3012,415,-2460,-1069,-601,-6918,231,381,-493
0,4986698,3018,392,-2461,-1078,-606,-6916,231,381,-493
0,4986712,3013,415,-2467,-1085,-609,-6910,231,381,-493
0,4986726,3013,415,-2467,-1085,-609,-6910,231,381,-493
0,4986736,3020,393,-2464,-1079,-597,-6917,231,381,-493
0,4986750,3012,402,-2465,-1077,-600,-6916,229,385,-491
0,4986764,3012,402,-2465,-1077,-600,-6916,229,385,-491
0,4986777,3021,377,-2459,-1077,-611,-6922,229,385,-491
0,4986791,3016,393,-2470,-1072,-598,-6927,229,385,-491
0,4986807,3016,393,-2470,-1072,-598,-6927,229,385,-491
0,4986823,3024,379,-2468,-1077,-603,-6922,229,385,-491
0,4986838,3018,392,-2467,-1072,-615,-6915,229,385,-491
0,4986851,3024,333,-2460,-1071,-609,-6917,229,385,-491
0,4986864,3024,333,-2460,-1071,-609,-6917,229,385,-491
0,4986880,3012,386,-2467,-1080,-604,-6927,229,385,-491
0,4986891,3019,366,-2455,-1072,-599,-6922,237,375,-495
0,4986904,3019,366,-2455,-1072,-599,-6922,237,375,-495
0,4986917,3011,392,-2465,-1078,-609,-6916,237,375,-495
0,4986931,3017,355,-2465,-1082,-612,-6909,237,375,-495
0,4986942,3017,355,-2465,-1082,-612,-6909,237,375,-495
0,4986956,3011,384,-2457,-1087,-603,-6920,237,375,-495
0,4986969,3011,384,-2457,-1087,-603,-6920,237,375,-495
0,4986982,3017,365,-2471,-1078,-614,-6917,237,375,-495
0,4986996,3011,381,-2458,-1075,-607,-6908,237,375,-495
0,4987010,3017,362,-2470,-1071,-614,-6909,241,379,-485
0,4987021,3017,362,-2470,-1071,-614,-6909,241,379,-485
0,4987034,3014,379,-2460,-1074,-607,-6910,241,379,-485
0,4987048,3014,379,-2460,-1074,-607,-6910,241,379,-485
0,4987063,3014,379,-2460,-1074,-607,-6910,241,379,-485
0,4987074,3010,382,-2459,-1082,-611,-6913,241,379,-485
0,4987089,3013,375,-2466,-1081,-602,-6911,241,379,-485
0,4987104,3013,375,-2466,-1081,-602,-6911,241,379,-485
0,4987117,3013,372,-2462,-1073,-605,-6908,241,379,-485
0,4987131,3013,372,-2462,-1073,-605,-6908,241,379,-485
0,4987140,3013,372,-2462,-1073,-605,-6908,241,379,-485
0,4987149,3013,372,-2462,-1073,-605,-6908,241,379,-485
0,4987157,3014,374,-2459,-1077,-602,-6912,241,363,-483
0,4987165,3014,374,-2459,-1077,-602,-6912,241,363,-483
0,4987173,3011,378,-2459,-1079,-613,-6907,241,363,-483
0,4987182,3011,378,-2459,-1079,-613,-6907,241,363,-483
0,4987191,3009,368,-2460,-1073,-615,-6902,241,363,-483
0,4987200,3009,368,-2460,-1073,-615,-6902,241,363,-483
0,4987207,3009,368,-2460,-1073,-615,-6902,241,363,-483
0,4987217,3007,371,-2464,-1075,-605,-6900,241,363,-483
0,4987227,3007,371,-2464,-1075,-605,-6900,241,363,-483
0,4987235,3008,378,-2461,-1072,-604,-6906,241,363,-483
0,4987244,3008,378,-2461,-1072,-604,-6906,241,363,-483
0,4987252,3010,384,-2463,-1078,-601,-6912,241,363,-483
0,4987261,3010,384,-2463,-1078,-601,-6912,241,363,-483
0,4987270,3011,373,-2461,-1077,-603,-6902,247,363,-483
0,4987280,3011,373,-2461,-1077,-603,-6902,247,367,-479
0,4987289,3011,373,-2461,-1077,-603,-6902,247,367,-479
0,4987297,3008,386,-2461,-1079,-606,-6910,247,367,-479
0,4987307,3008,386,-2461,-1079,-606,-6910,247,367,-479
0,4987315,3009,390,-2460,-1069,-606,-6902,247,367,-479
0,4987324,3009,390,-2460,-1069,-606,-6902,247,367,-479
0,4987333,3006,431,-2464,-1072,-609,-6909,247,367,-479
0,4987343,3006,431,-2464,-1072,-609,-6909,247,367,-479
0,4987353,3009,407,-2461,-1073,-609,-6903,247,367,-479
0,4987361,3009,407,-2461,-1073,-609,-6903,247,367,-479
0,4987369,3009,407,-2461,-1073,-609,-6903,247,367,-479
0,4987378,3002,408,-2465,-1075,-607,-6912,247,367,-479
0,4987386,3002,408,-2465,-1075,-607,-6912,247,367,-479
0,4987396,3008,401,-2463,-1072,-609,-6910,247,367,-479
0,4987407,3008,401,-2463,-1072,-609,-6910,247,367,-479
0,4987413,3010,423,-2461,-1072,-606,-6919,255,371,-475
0,4987422,3010,423,-2461,-1072,-606,-6919,255,371,-475
0,4987431,3014,402,-2462,-1084,-609,-6918,255,371,-475
0,4987438,3014,402,-2462,-1084,-609,-6918,255,371,-475
0,4987445,3014,402,-2462,-1084,-609,-6918,255,371,-475
0,4987454,3016,403,-2467,-1084,-613,-6913,255,371,-475
0,4987462,3016,403,-2467,-1084,-613,-6913,255,371,-475
0,4987470,3015,390,-2464,-1072,-601,-6919,255,371,-475
0,4987480,3015,390,-2464,-1072,-601,-6919,255,371,-475
0,4987488,3015,390,-2464,-1072,-601,-6919,255,371,-475
0,4987497,3010,402,-2468,-1069,-603,-6914,255,371,-475
0,4987506,3010,402,-2468,-1069,-603,-6914,255,371,-475
0,4987515,3015,388,-2460,-1071,-600,-6914,255,371,-475
0,4987525,3015,388,-2460,-1071,-600,-6914,255,371,-475
0,4987535,3015,384,-2464,-1071,-604,-6918,243,359,-473
0,4987543,3015,384,-2464,-1071,-604,-6918,243,359,-473
0,4987550,3012,379,-2472,-1071,-600,-6914,243,359,-473
0,4987559,3012,379,-2472,-1071,-600,-6914,243,359,-473
0,4987569,3012,379,-2472,-1071,-600,-6914,243,359,-473
0,4987578,3015,386,-2461,-1076,-607,-6919,243,359,-473
0,4987587,3015,386,-2461,-1076,-607,-6919,243,359,-473
0,4987595,3017,389,-2464,-1085,-612,-6922,243,359,-473
0,4987604,3017,389,-2464,-1085,-612,-6922,243,359,-473
0,4987613,3020,389,-2467,-1080,-600,-6920,243,359,-473
0,4987622,3020,389,-2467,-1080,-600,-6920,243,359,-473
0,4987630,3015,386,-2468,-1076,-597,-6923,243,359,-473
0,4987641,3015,386,-2468,-1076,-597,-6923,243,359,-473
0,4987650,3015,386,-2468,-1076,-597,-6923,243,359,-473
0,4987659,3017,397,-2464,-1070,-602,-6915,256,368,-474
0,4987667,3017,397,-2464,-1070,-602,-6915,256,368,-474
0,4987675,3011,405,-2464,-1072,-607,-6917,256,368,-474
0,4987684,3011,405,-2464,-1072,-607,-6917,256,368,-474
0,4987694,3018,397,-2466,-1079,-601,-6919,256,368,-474
0,4987701,3018,397,-2466,-1079,-601,-6919,256,368,-474
0,4987710,3018,397,-2466,-1079,-601,-6919,256,368,-474
0,4987720,3013,386,-2467,-1074,-599,-6920,256,368,-474
0,4987728,3013,386,-2467,-1074,-599,-6920,256,368,-474
0,4987737,3020,393,-2464,-1068,-601,-6925,256,368,-474
0,4987745,3020,393,-2464,-1068,-601,-6925,256,368,-474
0,4987753,3013,409,-2462,-1069,-610,-6922,256,368,-474
0,4987761,3013,409,-2462,-1069,-610,-6922,256,368,-474
0,4987769,3013,409,-2462,-1069,-610,-6922,256,368,-474
0,4987777,3020,398,-2463,-1069,-611,-6920,256,368,-474
0,4987785,3020,398,-2463,-1069,-611,-6920,256,368,-474
0,4987793,3014,398,-2466,-1067,-607,-6923,249,351,-467
0,4987801,3014,398,-2466,-1067,-607,-6923,249,351,-467
0,4987810,3014,398,-2466,-1067,-607,-6923,249,351,-467
0,4987820,3020,384,-2460,-1079,-607,-6924,249,351,-467
0,4987829,3020,384,-2460,-1079,-607,-6924,249,351,-467
0,4987837,3012,386,-2462,-1066,-612,-6914,249,351,-467
0,4987846,3012,386,-2462,-1066,-612,-6914,249,351,-467
0,4987854,3012,386,-2462,-1066,-612,-6914,249,351,-467
0,4987864,3012,386,-2462,-1066,-612,-6914,249,351,-467
0,4987871,3021,382,-2466,-1084,-601,-6923,249,351,-467
0,4987878,3021,382,-2466,-1084,-601,-6923,249,351,-467
0,4987886,3021,382,-2466,-1084,-601,-6923,249,351,-467
0,4987895,3024,332,-2463,-1084,-607,-6917,249,351,-467
0,4987904,3024,332,-2463,-1084,-607,-6917,249,351,-467
0,4987912,3011,376,-2469,-1081,-611,-6922,255,347,-485
0,4987920,3011,376,-2469,-1081,-611,-6922,255,347,-485
0,4987928,3011,376,-2469,-1081,-611,-6922,255,347,-485
0,4987936,3018,371,-2459,-1079,-607,-6928,255,347,-485
0,4987944,3018,371,-2459,-1079,-607,-6928,255,347,-485
0,4987953,3012,378,-2459,-1070,-609,-6923,255,347,-485
0,4987961,3012,378,-2459,-1070,-609,-6923,255,347,-485
0,4987970,3012,378,-2459,-1070,-609,-6923,255,347,-485
0,4987977,3020,357,-2462,-1079,-607,-6917,255,347,-485
0,4987987,3020,357,-2462,-1079,-607,-6917,255,347,-485
0,4987996,3015,372,-2466,-1085,-610,-6910,255,347,-485
0,4988004,3015,372,-2466,-1085,-610,-6910,255,347,-485
0,4988012,3016,373,-2470,-1071,-607,-6911,255,347,-485
0,4988021,3016,373,-2470,-1071,-607,-6911,255,347,-485
0,4988029,3016,373,-2470,-1071,-607,-6911,255,347,-485
0,4988038,3012,376,-2460,-1070,-607,-6912,255,347,-485
0,4988044,3012,376,-2460,-1070,-607,-6912,255,347,-485
0,4988053,3012,368,-2468,-1083,-599,-6912,253,345,-475
0,4988062,3012,368,-2468,-1083,-599,-6912,253,345,-475
0,4988071,3014,359,-2456,-1090,-610,-6913,253,345,-475
0,4988081,3014,359,-2456,-1090,-610,-6913,253,345,-475
0,4988089,3014,359,-2456,-1090,-610,-6913,253,345,-475
0,4988099,3009,373,-2461,-1075,-611,-6910,253,345,-475
0,4988107,3009,373,-2461,-1075,-611,-6910,253,345,-475
0,4988116,3015,370,-2457,-1074,-609,-6906,253,345,-475
0,4988127,3015,370,-2457,-1074,-609,-6906,253,345,-475
0,4988135,3008,371,-2458,-1077,-605,-6910,253,345,-475
0,4988149,3008,371,-2458,-1077,-605,-6910,253,345,-475
0,4988163,3012,364,-2465,-1081,-602,-6905,253,345,-475
0,4988175,3011,380,-2462,-1069,-602,-6905,255,331,-475
0,4988188,3011,380,-2462,-1069,-602,-6905,255,331,-475
0,4988203,3011,371,-2457,-1077,-604,-6912,255,331,-475
0,4988217,3007,381,-2464,-1073,-606,-6907,255,331,-475
0,4988229,3007,381,-2464,-1073,-606,-6907,255,331,-475
0,4988241,3009,365,-2472,-1069,-605,-6909,255,331,-475
0,4988257,3009,374,-2458,-1070,-605,-6911,255,331,-475
0,4988271,3007,375,-2471,-1083,-609,-6910,255,331,-475
0,4988286,3007,375,-2471,-1083,-609,-6910,255,331,-475
0,4988299,3008,377,-2459,-1086,-608,-6901,255,331,-475
0,4988314,3009,367,-2459,-1078,-604,-6895,254,330,-476
0,4988329,3009,367,-2459,-1078,-604,-6895,254,330,-476
0,4988343,3004,380,-2463,-1071,-610,-6902,254,330,-476
0,4988357,3004,401,-2472,-1075,-614,-6905,254,330,-476
0,4988370,3004,401,-2472,-1075,-614,-6905,254,330,-476
0,4988384,3002,435,-2462,-1071,-605,-6899,254,330,-476
0,4988397,3007,436,-2458,-1068,-601,-6905,254,330,-476
0,4988409,3007,436,-2458,-1068,-601,-6905,254,330,-476
0,4988424,3006,421,-2467,-1078,-607,-6905,254,330,-476
0,4988437,3006,411,-2460,-1088,-609,-6906,244,322,-474
0,4988451,3006,411,-2460,-1088,-609,-6906,244,322,-474
0,4988463,3009,439,-2458,-1075,-610,-6905,244,322,-474
0,4988476,3008,427,-2459,-1080,-612,-6922,244,322,-474
0,4988491,3009,424,-2467,-1077,-606,-6916,244,322,-474
0,4988507,3009,424,-2467,-1077,-606,-6916,244,322,-474
0,4988522,3012,405,-2464,-1078,-611,-6910,244,322,-474
0,4988535,3012,421,-2466,-1081,-612,-6920,244,322,-474
0,4988549,3012,421,-2466,-1081,-612,-6920,244,322,-474
0,4988564,3012,421,-2466,-1081,-612,-6920,246,318,-480
0,4988578,3021,402,-2461,-1083,-605,-6915,246,318,-480
0,4988592,3017,375,-2465,-1087,-606,-6912,246,318,-480
0,4988605,3017,375,-2465,-1087,-606,-6912,246,318,-480
0,4988619,3021,387,-2464,-1078,-611,-6918,246,318,-480
0,4988633,3016,379,-2464,-1073,-605,-6913,246,318,-480
0,4988647,3016,379,-2464,-1073,-605,-6913,246,318,-480
0,4988660,3016,398,-2461,-1079,-607,-6916,246,318,-480
0,4988676,3016,367,-2462,-1078,-609,-6915,246,318,-480
0,4988689,3016,367,-2462,-1078,-609,-6915,246,318,-480
0,4988702,3019,389,-2458,-1075,-611,-6914,228,310,-490
0,4988718,3014,376,-2466,-1072,-609,-6906,228,310,-490
0,4988733,3019,406,-2460,-1074,-607,-6915,228,310,-490
0,4988747,3019,406,-2460,-1074,-607,-6915,228,310,-490
0,4988761,3018,377,-2471,-1069,-604,-6910,228,310,-490
0,4988776,3020,390,-2464,-1070,-615,-6914,228,310,-490
0,4988790,3020,390,-2464,-1070,-615,-6914,228,310,-490
0,4988806,3018,379,-2471,-1076,-603,-6918,228,310,-490
0,4988817,3014,398,-2457,-1075,-608,-6925,226,304,-494
0,4988830,3014,398,-2457,-1075,-608,-6925,226,304,-494
0,4988845,3018,372,-2464,-1071,-598,-6917,226,304,-494
0,4988858,3014,384,-2463,-1067,-600,-6921,226,304,-494
0,4988871,3014,384,-2463,-1067,-600,-6921,226,304,-494
0,4988884,3014,384,-2463,-1067,-600,-6921,226,304,-494
0,4988896,3014,391,-2466,-1076,-606,-6917,226,304,-494
0,4988910,3014,391,-2466,-1076,-606,-6917,226,304,-494
0,4988919,3018,377,-2464,-1084,-612,-6916,226,304,-494
0,4988936,3014,383,-2469,-1073,-607,-6910,226,304,-494
0,4988950,3014,383,-2469,-1073,-607,-6910,226,304,-494
0,4988962,3023,348,-2460,-1074,-608,-6917,228,292,-490
0,4988978,3009,381,-2469,-1077,-604,-6919,228,292,-490
0,4988992,3019,364,-2458,-1076,-606,-6909,228,292,-490
0,4989008,3019,364,-2458,-1076,-606,-6909,228,292,-490
0,4989024,3014,375,-2462,-1074,-608,-6914,228,292,-490
0,4989034,3017,359,-2467,-1083,-605,-6909,228,292,-490
0,4989047,3017,359,-2467,-1083,-605,-6909,228,292,-490
0,4989061,3012,382,-2459,-1075,-605,-6910,228,292,-490
0,4989074,3013,373,-2462,-1084,-609,-6917,217,289,-499
0,4989088,3013,373,-2462,-1084,-609,-6917,217,289,-499
0,4989101,3012,381,-2461,-1072,-604,-6913,217,289,-499
0,4989113,3013,374,-2467,-1068,-600,-6904,217,289,-499
0,4989126,3013,374,-2467,-1068,-600,-6904,217,289,-499
0,4989140,3013,374,-2459,-1072,-607,-6910,217,289,-499
0,4989155,3011,374,-2472,-1082,-614,-6910,217,289,-499
0,4989167,3011,374,-2472,-1082,-614,-6910,217,289,-499
0,4989180,3010,375,-2467,-1089,-611,-6908,217,289,-499
0,4989196,3004,378,-2463,-1067,-606,-6908,212,284,-496
0,4989211,3004,378,-2463,-1067,-606,-6908,212,284,-496
0,4989227,3010,377,-2451,-1072,-608,-6909,212,284,-496
0,4989240,3006,388,-2462,-1070,-614,-6905,212,284,-496
0,4989252,3009,397,-2468,-1072,-606,-6905,212,284,-496
0,4989267,3009,397,-2468,-1072,-606,-6905,212,284,-496
0,4989282,3008,392,-2465,-1075,-608,-6906,212,284,-496
0,4989295,3013,396,-2468,-1084,-608,-6901,212,284,-496
0,4989308,3013,396,-2468,-1084,-608,-6901,212,284,-496
0,4989322,3009,400,-2463,-1083,-611,-6904,212,284,-496
0,4989336,3007,394,-2463,-1080,-606,-6910,213,287,-503
0,4989348,3007,394,-2463,-1080,-606,-6910,213,287,-503
0,4989363,3007,393,-2463,-1080,-600,-6915,213,287,-503
0,4989376,3006,404,-2464,-1079,-605,-6912,213,287,-503
0,4989390,3006,404,-2464,-1079,-605,-6912,213,287,-503
0,4989405,3005,409,-2458,-1085,-612,-6904,213,287,-503
0,4989420,3010,413,-2460,-1087,-612,-6910,213,287,-503
0,4989433,3011,401,-2457,-1087,-610,-6914,213,287,-503
0,4989447,3011,401,-2457,-1087,-610,-6914,213,287,-503
0,4989461,3015,417,-2464,-1081,-612,-6907,202,276,-496
0,4989476,3012,408,-2463,-1066,-606,-6899,202,276,-496
0,4989488,3012,408,-2463,-1066,-606,-6899,202,276,-496
0,4989500,3014,418,-2463,-1078,-613,-6912,202,276,-496
0,4989514,3009,398,-2466,-1079,-611,-6915,202,276,-496
0,4989528,3009,398,-2466,-1079,-611,-6915,202,276,-496
0,4989542,3015,413,-2467,-1078,-610,-6916,202,276,-496
0,4989555,3014,391,-2463,-1079,-607,-6915,202,276,-496
0,4989568,3014,391,-2463,-1079,-607,-6915,202,276,-496
0,4989581,3015,406,-2457,-1079,-609,-6916,202,276,-496
0,4989595,3016,387,-2459,-1089,-608,-6917,198,272,-492
0,4989608,3016,387,-2459,-1089,-608,-6917,198,272,-492
0,4989623,3018,399,-2450,-1082,-604,-6919,198,272,-492
0,4989638,3019,377,-2465,-1077,-601,-6916,198,272,-492
0,4989654,3016,398,-2469,-1081,-608,-6914,198,272,-492
0,4989668,3016,398,-2469,-1081,-608,-6914,198,272,-492
0,4989682,3020,385,-2460,-1086,-608,-6920,198,272,-492
0,4989696,3011,388,-2466,-1076,-605,-6922,198,272,-492
0,4989704,3011,388,-2466,-1076,-605,-6922,198,272,-492
0,4989712,3011,388,-2466,-1076,-605,-6922,198,272,-492
0,4989720,3031,330,-2459,-1080,-603,-6917,193,263,-503
0,4989733,3010,388,-2462,-1076,-608,-6919,193,263,-503
0,4989747,3010,388,-2462,-1076,-608,-6919,193,263,-503
0,4989761,3026,363,-2465,-1076,-608,-6921,193,263,-503
0,4989775,3009,383,-2459,-1085,-612,-6925,193,263,-503
0,4989789,3009,383,-2459,-1085,-612,-6925,193,263,-503
0,4989801,3022,354,-2469,-1089,-609,-6923,193,263,-503
0,4989814,3007,386,-2465,-1082,-601,-6915,193,263,-503
0,4989829,3007,386,-2465,-1082,-601,-6915,193,263,-503
0,4989842,3022,377,-2469,-1075,-606,-6916,193,263,-503
0,4989857,3012,386,-2456,-1069,-601,-6918,184,256,-508
0,4989873,3012,386,-2456,-1069,-601,-6918,184,256,-508
0,4989888,3017,367,-2466,-1074,-598,-6923,184,256,-508
0,4989902,3012,379,-2473,-1070,-599,-6910,184,256,-508
0,4989917,3013,372,-2465,-1069,-612,-6914,184,256,-508
0,4989932,3013,372,-2465,-1069,-612,-6914,184,256,-508
0,4989946,3008,377,-2461,-1071,-608,-6913,184,256,-508
0,4989959,3005,378,-2466,-1082,-611,-6911,184,256,-508
0,4989973,3005,378,-2466,-1082,-611,-6911,184,256,-508
0,4989988,3012,375,-2458,-1078,-610,-6914,181,259,-505
0,4990003,3009,373,-2455,-1082,-603,-6913,181,259,-505
0,4990016,3014,373,-2460,-1082,-606,-6915,181,259,-505
0,4990029,3014,373,-2460,-1082,-606,-6915,181,259,-505
0,4990044,3011,384,-2466,-1079,-604,-6910,181,259,-505
0,4990056,3013,371,-2466,-1075,-608,-6903,181,259,-505
0,4990068,3013,371,-2466,-1075,-608,-6903,181,259,-505
0,4990082,3009,375,-2464,-1072,-601,-6900,181,259,-505
0,4990095,3008,384,-2462,-1085,-606,-6904,173,255,-503
0,4990109,3008,384,-2462,-1085,-606,-6904,173,255,-503
0,4990125,3005,388,-2456,-1080,-604,-6908,173,255,-503
0,4990140,3012,385,-2465,-1073,-601,-6908,173,255,-503
0,4990155,3009,397,-2458,-1082,-606,-6909,173,255,-503
0,4990169,3009,397,-2458,-1082,-606,-6909,173,255,-503
0,4990182,3010,444,-2468,-1078,-606,-6903,173,255,-503
0,4990198,3007,414,-2460,-1079,-609,-6903,173,255,-503
0,4990209,3007,414,-2460,-1079,-609,-6903,173,255,-503
0,4990221,3013,414,-2470,-1092,-614,-6909,173,255,-503
0,4990235,3004,405,-2463,-1085,-618,-6914,170,258,-508
0,4990248,3004,405,-2463,-1085,-618,-6914,170,258,-508
0,4990262,3013,433,-2458,-1064,-612,-6918,170,258,-508
0,4990275,3008,402,-2462,-1075,-609,-6919,170,258,-508
0,4990287,3008,402,-2462,-1075,-609,-6919,170,258,-508
0,4990301,3016,410,-2460,-1081,-609,-6918,170,258,-508
0,4990314,3013,388,-2467,-1077,-609,-6923,170,258,-508
0,4990328,3013,388,-2467,-1077,-609,-6923,170,258,-508
0,4990343,3013,413,-2460,-1069,-616,-6920,170,258,-508
0,4990353,3013,413,-2460,-1069,-616,-6920,170,258,-508
0,4990368,3013,393,-2463,-1074,-613,-6919,165,259,-517
0,4990384,3014,408,-2457,-1081,-604,-6919,165,259,-517
0,4990400,3018,375,-2471,-1072,-604,-6919,165,259,-517
0,4990414,3020,392,-2462,-1079,-609,-6920,165,259,-517
0,4990426,3020,392,-2462,-1079,-609,-6920,165,259,-517
0,4990440,3020,386,-2465,-1075,-617,-6922,165,259,-517
0,4990453,3020,386,-2465,-1075,-617,-6922,165,259,-517
0,4990469,3018,395,-2464,-1073,-610,-6921,165,259,-517
0,4990482,3026,372,-2469,-1081,-611,-6914,165,259,-517
0,4990495,3015,383,-2459,-1074,-611,-6916,157,257,-505
0,4990509,3015,383,-2459,-1074,-611,-6916,157,257,-505
0,4990521,3019,393,-2459,-1073,-612,-6914,157,257,-505
0,4990534,3011,400,-2463,-1073,-614,-6912,157,257,-505
0,4990547,3011,400,-2463,-1073,-614,-6912,157,257,-505
0,4990562,3018,391,-2462,-1083,-611,-6915,157,257,-505
0,4990573,3018,391,-2462,-1083,-611,-6915,157,257,-505
0,4990584,3013,386,-2470,-1086,-602,-6912,157,257,-505
0,4990599,3023,396,-2461,-1073,-607,-6914,157,257,-505
0,4990611,3023,396,-2461,-1073,-607,-6914,157,257,-505
0,4990626,3018,401,-2463,-1080,-614,-6913,155,265,-505
0,4990643,3020,391,-2461,-1084,-605,-6921,155,265,-505
0,4990655,3016,389,-2466,-1078,-604,-6915,155,265,-505
0,4990669,3016,389,-2466,-1078,-604,-6915,155,265,-505
0,4990683,3017,386,-2457,-1070,-605,-6924,155,265,-505
0,4990696,3014,391,-2463,-1075,-608,-6926,155,265,-505
0,4990710,3014,391,-2463,-1075,-608,-6926,155,265,-505
0,4990722,3017,386,-2460,-1076,-610,-6925,155,265,-505
0,4990735,3020,362,-2460,-1077,-613,-6922,155,265,-505
0,4990749,3020,362,-2460,-1077,-613,-6922,155,265,-505
0,4990763,3019,353,-2464,-1085,-606,-6922,154,262,-502
0,4990778,3017,380,-2464,-1075,-602,-6925,154,262,-502
0,4990791,3017,380,-2464,-1075,-602,-6925,154,262,-502
0,4990804,3019,393,-2461,-1070,-605,-6917,154,262,-502
0,4990820,3018,357,-2460,-1083,-614,-6911,154,262,-502
0,4990835,3010,369,-2473,-1083,-606,-6918,154,262,-502
0,4990851,3010,369,-2473,-1083,-606,-6918,154,262,-502
0,4990866,3020,365,-2457,-1068,-611,-6909,154,262,-502
0,4990876,3012,388,-2458,-1077,-622,-6914,149,283,-505
0,4990891,3012,388,-2458,-1077,-622,-6914,149,283,-505
0,4990904,3022,356,-2460,-1075,-614,-6914,149,283,-505
0,4990918,3005,382,-2462,-1079,-604,-6915,149,283,-505
0,4990931,3005,382,-2462,-1079,-604,-6915,149,283,-505
0,4990945,3019,360,-2467,-1071,-602,-6912,149,283,-505
0,4990958,3005,386,-2458,-1067,-608,-6909,149,283,-505
0,4990972,3005,386,-2458,-1067,-608,-6909,149,283,-505
0,4990986,3017,368,-2464,-1076,-609,-6897,149,283,-505
0,4990999,3008,383,-2469,-1082,-608,-6900,156,274,-498
0,4991014,3010,355,-2463,-1071,-603,-6908,156,274,-498
0,4991030,3010,355,-2463,-1071,-603,-6908,156,274,-498
0,4991044,3005,386,-2456,-1074,-604,-6909,156,274,-498
0,4991057,3006,376,-2464,-1078,-604,-6907,156,274,-498
0,4991072,3006,376,-2464,-1078,-604,-6907,156,274,-498
0,4991084,3009,382,-2454,-1087,-609,-6903,156,274,-498
0,4991097,3008,358,-2466,-1075,-608,-6899,156,274,-498
0,4991111,3008,358,-2466,-1075,-608,-6899,156,274,-498
0,4991125,3008,387,-2463,-1077,-608,-6908,156,274,-498
0,4991138,3008,380,-2463,-1083,-610,-6907,143,283,-499
0,4991152,3008,380,-2463,-1083,-610,-6907,143,283,-499
0,4991166,3008,388,-2460,-1083,-610,-6905,143,283,-499
0,4991175,3009,369,-2465,-1085,-601,-6903,143,283,-499
0,4991188,3009,369,-2465,-1085,-601,-6903,143,283,-499
0,4991203,3005,382,-2461,-1074,-601,-6904,143,283,-499
0,4991216,3005,382,-2461,-1074,-601,-6904,143,283,-499
0,4991230,3005,382,-2461,-1074,-601,-6904,143,283,-499
0,4991242,3003,402,-2461,-1073,-605,-6901,143,283,-499
0,4991257,3005,417,-2459,-1080,-599,-6897,141,285,-499
0,4991272,3005,417,-2459,-1080,-599,-6897,141,285,-499
0,4991288,3005,435,-2463,-1073,-610,-6898,141,285,-499
0,4991301,3013,427,-2462,-1073,-617,-6901,141,285,-499
0,4991314,3013,427,-2462,-1073,-617,-6901,141,285,-499
0,4991329,3010,417,-2462,-1087,-608,-6902,141,285,-499
0,4991344,3010,439,-2464,-1073,-602,-6906,141,285,-499
0,4991357,3009,432,-2453,-1075,-615,-6912,141,285,-499
0,4991371,3009,432,-2453,-1075,-615,-6912,141,285,-499
0,4991385,3006,421,-2457,-1073,-608,-6916,141,285,-499
0,4991398,3015,407,-2457,-1082,-609,-6911,143,289,-503
0,4991413,3015,407,-2457,-1082,-609,-6911,143,289,-503
0,4991426,3013,400,-2452,-1070,-607,-6922,143,289,-503
0,4991439,3021,391,-2452,-1064,-605,-6916,143,289,-503
0,4991453,3021,391,-2452,-1064,-605,-6916,143,289,-503
0,4991467,3012,390,-2460,-1075,-608,-6910,143,289,-503
0,4991478,3020,391,-2461,-1079,-603,-6917,143,289,-503
0,4991490,3020,391,-2461,-1079,-603,-6917,143,289,-503
0,4991503,3016,380,-2463,-1073,-608,-6915,143,289,-503
0,4991518,3014,391,-2455,-1081,-611,-6917,141,291,-501
0,4991534,3014,391,-2455,-1081,-611,-6917,141,291,-501
0,4991549,3017,389,-2458,-1082,-605,-6925,141,291,-501
0,4991564,3016,397,-2457,-1081,-604,-6922,141,291,-501
0,4991572,3016,397,-2457,-1081,-604,-6922,141,291,-501
0,4991586,3019,376,-2462,-1080,-604,-6916,141,291,-501
0,4991595,3015,392,-2457,-1084,-617,-6908,141,291,-501
0,4991609,3015,392,-2457,-1084,-617,-6908,141,291,-501
0,4991623,3019,390,-2457,-1076,-609,-6923,141,291,-501
0,4991637,3016,398,-2462,-1072,-601,-6918,141,291,-501
0,4991651,3016,398,-2462,-1072,-601,-6918,141,291,-501
0,4991666,3020,382,-2459,-1076,-611,-6925,149,291,-499
0,4991677,3015,394,-2457,-1078,-612,-6918,149,291,-499
0,4991692,3015,394,-2457,-1078,-612,-6918,149,291,-499
0,4991707,3015,387,-2464,-1082,-610,-6915,149,291,-499
0,4991720,3016,389,-2461,-1074,-604,-6920,149,291,-499
0,4991734,3016,389,-2461,-1074,-604,-6920,149,291,-499
0,4991749,3020,382,-2464,-1087,-604,-6914,149,291,-499
0,4991764,3015,379,-2460,-1080,-610,-6922,149,291,-499
0,4991779,3020,384,-2462,-1075,-612,-6925,155,307,-507
0,4991794,3020,384,-2462,-1075,-612,-6925,155,307,-507
0,4991807,3015,387,-2455,-1076,-610,-6917,155,307,-507
0,4991821,3022,352,-2457,-1077,-607,-6916,155,307,-507
0,4991836,3022,352,-2457,-1077,-607,-6916,155,307,-507
0,4991848,3022,352,-2457,-1077,-607,-6916,155,307,-507
0,4991861,3017,365,-2455,-1081,-606,-6921,155,307,-507
0,4991876,3008,375,-2460,-1073,-612,-6915,155,307,-507
0,4991890,3008,375,-2460,-1073,-612,-6915,155,307,-507
0,4991902,3023,358,-2458,-1082,-607,-6919,148,308,-502
0,4991918,3013,375,-2451,-1074,-604,-6913,148,308,-502
0,4991933,3013,375,-2451,-1074,-604,-6913,148,308,-502
0,4991948,3012,373,-2458,-1066,-608,-6908,148,308,-502
0,4991962,3008,384,-2461,-1078,-606,-6916,148,308,-502
0,4991975,3008,384,-2461,-1078,-606,-6916,148,308,-502
0,4991990,3012,382,-2466,-1070,-599,-6905,148,308,-502
0,4992004,3010,371,-2459,-1077,-604,-6903,148,308,-502
0,4992016,3009,373,-2461,-1075,-608,-6900,148,308,-502
0,4992030,3009,373,-2461,-1075,-608,-6900,148,308,-502
0,4992044,3013,368,-2457,-1075,-603,-6911,149,313,-505
0,4992057,3012,389,-2463,-1079,-603,-6914,149,313,-505
0,4992071,3012,389,-2463,-1079,-603,-6914,149,313,-505
0,4992082,3012,373,-2457,-1071,-610,-6903,149,313,-505
0,4992095,3012,373,-2457,-1071,-610,-6903,149,313,-505
0,4992109,3005,388,-2461,-1066,-598,-6906,149,313,-505
0,4992120,3007,390,-2458,-1075,-595,-6905,149,313,-505
0,4992136,3007,390,-2458,-1075,-595,-6905,149,313,-505
0,4992149,3009,403,-2459,-1073,-608,-6907,149,313,-505
0,4992162,3011,383,-2459,-1071,-611,-6910,150,322,-504
0,4992178,3011,390,-2453,-1071,-609,-6914,150,322,-504
0,4992193,3011,390,-2453,-1071,-609,-6914,150,322,-504
0,4992208,3007,389,-2458,-1070,-610,-6907,150,322,-504
0,4992222,3010,399,-2457,-1082,-615,-6906,150,322,-504
0,4992234,3010,399,-2457,-1082,-615,-6906,150,322,-504
0,4992247,3008,400,-2461,-1073,-607,-6913,150,322,-504
0,4992262,3004,411,-2463,-1070,-600,-6909,150,322,-504
0,4992276,3004,411,-2463,-1070,-600,-6909,150,322,-504
0,4992289,3010,411,-2455,-1073,-598,-6904,150,322,-504
0,4992302,3007,414,-2451,-1072,-601,-6908,159,337,-507
0,4992313,3007,414,-2451,-1072,-601,-6908,159,337,-507
0,4992326,3013,420,-2457,-1073,-602,-6907,159,337,-507
0,4992334,3013,420,-2457,-1073,-602,-6907,159,337,-507
0,4992348,3012,409,-2463,-1077,-604,-6909,159,337,-507
0,4992362,3015,410,-2463,-1080,-600,-6913,159,337,-507
0,4992377,3013,398,-2459,-1081,-605,-6912,159,337,-507
0,4992391,3013,398,-2459,-1081,-605,-6912,159,337,-507
0,4992405,3010,420,-2464,-1071,-602,-6915,159,337,-507
0,4992420,3014,392,-2455,-1071,-601,-6920,148,338,-510
0,4992435,3014,392,-2455,-1071,-601,-6920,148,338,-510
0,4992450,3014,408,-2458,-1072,-604,-6922,148,338,-510
0,4992463,3017,385,-2459,-1070,-608,-6921,148,338,-510
0,4992477,3017,385,-2459,-1070,-608,-6921,148,338,-510
0,4992490,3017,385,-2459,-1070,-608,-6921,148,338,-510
0,4992501,3020,378,-2459,-1081,-598,-6927,148,338,-510
0,4992515,3020,378,-2459,-1081,-598,-6927,148,338,-510
0,4992529,3011,395,-2462,-1075,-614,-6925,148,338,-510
0,4992542,3018,382,-2459,-1073,-608,-6917,158,338,-504
0,4992556,3018,382,-2459,-1073,-608,-6917,158,338,-504
0,4992568,3017,376,-2455,-1077,-611,-6919,158,338,-504
0,4992581,3020,351,-2457,-1082,-611,-6922,158,338,-504
0,4992596,3020,351,-2457,-1082,-611,-6922,158,338,-504
0,4992611,3012,378,-2456,-1066,-604,-6916,158,338,-504
0,4992626,3024,376,-2467,-1078,-603,-6916,158,338,-504
0,4992638,3012,368,-2457,-1077,-606,-6915,158,338,-504
0,4992654,3012,368,-2457,-1077,-606,-6915,158,338,-504
0,4992669,3015,375,-2467,-1082,-599,-6910,158,338,-504
0,4992683,3015,381,-2459,-1070,-600,-6911,171,355,-501
0,4992698,3015,385,-2461,-1066,-610,-6915,171,355,-501
0,4992711,3015,385,-2461,-1066,-610,-6915,171,355,-501
0,4992722,3014,364,-2465,-1068,-609,-6915,171,355,-501
0,4992736,3014,364,-2465,-1068,-609,-6915,171,355,-501
0,4992750,3016,381,-2459,-1079,-600,-6906,171,355,-501
0,4992763,3011,368,-2464,-1083,-604,-6908,171,355,-501
0,4992777,3008,380,-2457,-1071,-606,-6910,171,355,-501
0,4992791,3008,380,-2457,-1071,-606,-6910,171,355,-501
0,4992803,3011,375,-2462,-1076,-604,-6904,181,355,-499
0,4992817,3011,375,-2462,-1076,-604,-6904,181,355,-499
0,4992830,3009,381,-2459,-1080,-600,-6907,181,355,-499
0,4992841,3012,371,-2465,-1071,-599,-6914,181,355,-499
0,4992854,3012,371,-2465,-1071,-599,-6914,181,355,-499
0,4992866,3009,380,-2454,-1072,-601,-6909,181,355,-499
0,4992880,3011,381,-2467,-1078,-605,-6904,181,355,-499
0,4992896,3011,381,-2467,-1078,-605,-6904,181,355,-499
0,4992909,3010,377,-2467,-1084,-604,-6910,181,355,-499
0,4992921,3014,369,-2468,-1074,-603,-6900,181,355,-499
0,4992937,3008,381,-2461,-1079,-607,-6908,181,371,-499
0,4992951,3008,381,-2461,-1079,-607,-6908,181,371,-499
0,4992964,3012,383,-2463,-1082,-607,-6913,181,371,-499
0,4992978,3002,385,-2460,-1076,-606,-6912,181,371,-499
0,4992990,3002,385,-2460,-1076,-606,-6912,181,371,-499
0,4993004,3009,381,-2459,-1067,-604,-6909,181,371,-499
0,4993018,3003,393,-2460,-1069,-605,-6900,181,371,-499
0,4993032,3003,393,-2460,-1069,-605,-6900,181,371,-499
0,4993045,3013,404,-2459,-1072,-602,-6909,181,371,-499
0,4993059,3005,425,-2460,-1076,-607,-6906,198,384,-496
0,4993072,3005,425,-2460,-1076,-607,-6906,198,384,-496
0,4993084,3016,410,-2458,-1070,-607,-6910,198,384,-496
0,4993099,3005,405,-2460,-1080,-605,-6914,198,384,-496
0,4993114,3005,405,-2460,-1080,-605,-6914,198,384,-496
0,4993128,3011,419,-2455,-1074,-603,-6914,198,384,-496
0,4993140,3007,412,-2453,-1072,-600,-6916,198,384,-496
0,4993156,3007,412,-2453,-1072,-600,-6916,198,384,-496
0,4993170,3011,412,-2459,-1080,-603,-6915,198,384,-496
0,4993183,3009,391,-2460,-1083,-599,-6910,198,384,-496
0,4993198,3010,407,-2452,-1079,-604,-6919,198,384,-496
0,4993211,3010,407,-2452,-1079,-604,-6919,201,379,-499
0,4993226,3018,385,-2450,-1075,-602,-6909,201,379,-499
0,4993236,3018,385,-2450,-1075,-602,-6909,201,379,-499
0,4993251,3011,401,-2456,-1086,-605,-6911,201,379,-499
0,4993264,3018,379,-2455,-1076,-611,-6918,201,379,-499
0,4993278,3010,398,-2459,-1069,-610,-6922,201,379,-499
0,4993292,3010,398,-2459,-1069,-610,-6922,201,379,-499
0,4993304,3017,382,-2461,-1071,-607,-6921,201,379,-499
0,4993317,3013,400,-2451,-1085,-611,-6922,212,382,-494
0,4993333,3013,400,-2451,-1085,-611,-6922,212,382,-494
0,4993348,3019,378,-2458,-1081,-605,-6915,212,382,-494
0,4993363,3009,385,-2453,-1088,-609,-6922,212,382,-494
0,4993375,3009,385,-2453,-1088,-609,-6922,212,382,-494
0,4993389,3016,385,-2462,-1082,-611,-6924,212,382,-494
0,4993402,3009,401,-2463,-1070,-605,-6922,212,382,-494
0,4993417,3009,401,-2463,-1070,-605,-6922,212,382,-494
0,4993430,3018,392,-2457,-1078,-609,-6919,212,382,-494
0,4993444,3013,402,-2461,-1078,-602,-6923,216,382,-494
0,4993457,3013,402,-2461,-1078,-602,-6923,216,382,-494
0,4993469,3021,399,-2459,-1081,-604,-6915,216,382,-494
0,4993483,3013,408,-2457,-1074,-601,-6919,216,382,-494
0,4993498,3013,408,-2457,-1074,-601,-6919,216,382,-494
0,4993511,3021,392,-2458,-1070,-609,-6930,216,382,-494
0,4993526,3013,402,-2462,-1074,-606,-6921,216,382,-494
0,4993542,3019,383,-2455,-1074,-606,-6918,216,382,-494
0,4993555,3019,383,-2455,-1074,-606,-6918,216,382,-494
0,4993568,3014,386,-2455,-1081,-602,-6926,216,382,-494
0,4993584,3018,384,-2460,-1077,-606,-6924,218,376,-496
0,4993599,3014,384,-2452,-1076,-603,-6920,218,376,-496
0,4993612,3014,384,-2452,-1076,-603,-6920,218,376,-496
0,4993623,3017,343,-2460,-1081,-605,-6921,218,376,-496
0,4993636,3017,343,-2460,-1081,-605,-6921,218,376,-496
0,4993649,3016,378,-2464,-1076,-604,-6921,218,376,-496
0,4993662,3017,375,-2462,-1069,-608,-6918,218,376,-496
0,4993676,3017,375,-2462,-1069,-608,-6918,218,376,-496
0,4993688,3018,373,-2454,-1070,-608,-6916,218,376,-496
0,4993701,3014,362,-2466,-1079,-607,-6906,228,384,-496
0,4993716,3014,362,-2466,-1079,-607,-6906,228,384,-496
0,4993730,3016,370,-2447,-1066,-601,-6904,228,384,-496
0,4993745,3009,372,-2466,-1069,-610,-6911,228,384,-496
0,4993760,3016,369,-2456,-1081,-602,-6911,228,384,-496
0,4993774,3016,369,-2456,-1081,-602,-6911,228,384,-496
0,4993787,3007,378,-2462,-1083,-609,-6908,228,384,-496
0,4993802,3013,357,-2460,-1079,-606,-6913,228,384,-496
0,4993817,3013,357,-2460,-1079,-606,-6913,228,384,-496
0,4993830,3005,380,-2459,-1064,-597,-6912,228,384,-496
0,4993843,3015,372,-2459,-1075,-606,-6908,231,379,-497
0,4993857,3015,372,-2459,-1075,-606,-6908,231,379,-497
0,4993871,3006,386,-2460,-1074,-600,-6909,231,379,-497
0,4993885,3014,360,-2458,-1067,-612,-6914,231,379,-497
0,4993898,3005,381,-2453,-1067,-613,-6906,231,379,-497
0,4993913,3005,381,-2453,-1067,-613,-6906,231,379,-497
0,4993926,3014,369,-2457,-1074,-613,-6911,231,379,-497
0,4993939,3004,388,-2459,-1077,-613,-6910,231,379,-497
0,4993952,3004,388,-2459,-1077,-613,-6910,231,379,-497
0,4993966,3008,358,-2457,-1076,-608,-6911,225,381,-493
0,4993980,3007,383,-2456,-1072,-598,-6907,225,381,-493
0,4993993,3007,383,-2456,-1072,-598,-6907,225,381,-493
0,4994006,3005,369,-2468,-1071,-602,-6911,225,381,-493
0,4994021,3005,390,-2461,-1076,-607,-6904,225,381,-493
0,4994037,3005,390,-2461,-1076,-607,-6904,225,381,-493
0,4994052,3010,367,-2464,-1074,-602,-6902,225,381,-493
0,4994064,3005,386,-2461,-1070,-600,-6902,225,381,-493
0,4994077,3005,386,-2461,-1070,-600,-6902,225,381,-493
0,4994092,3004,390,-2468,-1071,-604,-6905,225,381,-493
0,4994106,3003,413,-2455,-1081,-603,-6907,228,378,-492
0,4994119,2999,445,-2458,-1080,-609,-6904,228,378,-492
0,4994132,2999,445,-2458,-1080,-609,-6904,228,378,-492
0,4994148,3005,423,-2453,-1076,-605,-6896,228,378,-492
0,4994162,3004,419,-2461,-1085,-608,-6906,228,378,-492
0,4994174,3004,419,-2461,-1085,-608,-6906,228,378,-492
0,4994189,3009,423,-2460,-1069,-602,-6909,228,378,-492
0,4994202,3008,445,-2458,-1076,-605,-6914,228,378,-492
0,4994215,3008,445,-2458,-1076,-605,-6914,228,378,-492
0,4994229,3018,419,-2461,-1079,-599,-6922,243,383,-481
0,4994240,3018,419,-2461,-1079,-599,-6922,243,383,-481
0,4994255,3018,419,-2461,-1079,-599,-6922,243,383,-481
0,4994270,3016,408,-2457,-1080,-610,-6919,243,383,-481
0,4994285,3013,407,-2453,-1069,-610,-6913,243,383,-481
0,4994297,3013,407,-2453,-1069,-610,-6913,243,383,-481
0,4994312,3020,393,-2456,-1071,-605,-6918,243,383,-481
0,4994327,3015,384,-2460,-1077,-609,-6926,243,383,-481
0,4994340,3018,378,-2457,-1077,-614,-6919,235,373,-481
0,4994354,3018,378,-2457,-1077,-614,-6919,235,373,-481
0,4994368,3018,382,-2453,-1068,-613,-6922,235,373,-481
0,4994382,3018,399,-2461,-1075,-607,-6914,235,373,-481
0,4994395,3018,399,-2461,-1075,-607,-6914,235,373,-481
0,4994407,3019,386,-2456,-1078,-602,-6915,235,373,-481
0,4994420,3017,388,-2454,-1078,-607,-6924,235,373,-481
0,4994435,3017,388,-2454,-1078,-607,-6924,235,373,-481
0,4994449,3014,375,-2463,-1079,-603,-6925,235,373,-481
0,4994463,3020,403,-2457,-1081,-603,-6920,235,373,-481
0,4994477,3020,403,-2457,-1081,-603,-6920,235,373,-481
0,4994491,3017,383,-2449,-1076,-603,-6918,253,367,-471
0,4994505,3016,385,-2459,-1067,-599,-6913,253,367,-471
0,4994521,3019,369,-2463,-1082,-607,-6917,253,367,-471
0,4994530,3019,369,-2463,-1082,-607,-6917,253,367,-471
0,4994541,3013,394,-2453,-1081,-608,-6917,253,367,-471
0,4994555,3013,394,-2453,-1081,-608,-6917,253,367,-471
0,4994569,3019,380,-2468,-1081,-614,-6921,253,367,-471
0,4994583,3014,390,-2461,-1088,-614,-6910,253,367,-471
0,4994597,3014,390,-2461,-1088,-614,-6910,253,367,-471
0,4994610,3023,372,-2459,-1077,-608,-6915,258,372,-466
0,4994623,3014,390,-2455,-1075,-606,-6924,258,372,-466
0,4994636,3014,390,-2455,-1075,-606,-6924,258,372,-466
0,4994653,3019,374,-2455,-1077,-610,-6924,258,372,-466
0,4994667,3009,363,-2458,-1078,-605,-6920,258,372,-466
0,4994682,3018,365,-2463,-1080,-609,-6917,258,372,-466
0,4994698,3018,365,-2463,-1080,-609,-6917,258,372,-466
0,4994712,3007,371,-2460,-1074,-603,-6910,258,372,-466
0,4994725,3019,367,-2455,-1076,-608,-6912,258,372,-466
0,4994740,3011,367,-2457,-1086,-603,-6910,246,366,-478
0,4994751,3011,367,-2457,-1086,-603,-6910,246,366,-478
0,4994764,3018,364,-2457,-1082,-605,-6911,246,366,-478
0,4994779,3018,364,-2457,-1082,-605,-6911,246,366,-478
0,4994792,3009,372,-2463,-1089,-606,-6907,246,366,-478
0,4994805,3014,368,-2459,-1085,-604,-6914,246,366,-478
0,4994820,3009,376,-2461,-1080,-601,-6914,246,366,-478
0,4994833,3009,376,-2461,-1080,-601,-6914,246,366,-478
0,4994844,3011,358,-2459,-1080,-605,-6911,246,366,-478
0,4994859,3011,358,-2459,-1080,-605,-6911,246,366,-478
0,4994872,3007,386,-2458,-1076,-605,-6914,251,357,-473
0,4994885,3006,366,-2453,-1075,-607,-6908,251,357,-473
0,4994900,3008,376,-2456,-1080,-610,-6909,251,357,-473
0,4994915,3008,376,-2456,-1080,-610,-6909,251,357,-473
0,4994928,3010,364,-2459,-1068,-604,-6907,251,357,-473
0,4994942,3009,383,-2458,-1084,-607,-6908,251,357,-473
0,4994958,3009,383,-2458,-1084,-607,-6908,251,357,-473
0,4994971,3005,380,-2464,-1077,-612,-6905,251,357,-473
0,4994982,3006,397,-2465,-1072,-605,-6905,251,357,-473
0,4994997,3006,397,-2465,-1072,-605,-6905,251,357,-473
0,4995010,3005,382,-2460,-1069,-603,-6903,261,355,-471
0,4995023,3008,392,-2456,-1081,-603,-6904,261,355,-471
0,4995038,3008,392,-2456,-1081,-603,-6904,261,355,-471
0,4995052,3001,392,-2460,-1079,-601,-6902,261,355,-471
0,4995064,3007,407,-2459,-1084,-606,-6907,261,355,-471
0,4995078,3007,407,-2459,-1084,-606,-6907,261,355,-471
0,4995092,3006,387,-2463,-1079,-609,-6910,261,355,-471
0,4995105,3009,399,-2460,-1082,-607,-6907,261,355,-471
0,4995120,3005,414,-2462,-1073,-614,-6895,253,355,-475
0,4995135,3005,414,-2462,-1073,-614,-6895,253,355,-475
0,4995150,3012,426,-2455,-1072,-607,-6904,253,355,-475
0,4995166,3007,408,-2459,-1066,-598,-6908,253,355,-475
0,4995179,3007,408,-2459,-1066,-598,-6908,253,355,-475
0,4995193,3013,424,-2455,-1074,-602,-6910,253,355,-475
0,4995207,3014,399,-2460,-1076,-598,-6913,253,355,-475
0,4995220,3013,424,-2456,-1071,-602,-6923,253,355,-475
0,4995232,3013,424,-2456,-1071,-602,-6923,253,355,-475
0,4995246,3014,392,-2456,-1078,-606,-6920,253,343,-477
0,4995259,3014,392,-2456,-1078,-606,-6920,253,343,-477
0,4995272,3010,414,-2454,-1085,-607,-6917,253,343,-477
0,4995287,3016,388,-2454,-1078,-609,-6913,253,343,-477
0,4995302,3011,411,-2457,-1083,-608,-6919,253,343,-477
0,4995317,3011,411,-2457,-1083,-608,-6919,253,343,-477
0,4995332,3015,383,-2459,-1080,-606,-6914,253,343,-477
0,4995346,3015,400,-2454,-1079,-596,-6915,253,343,-477
0,4995360,3019,369,-2455,-1081,-608,-6922,253,343,-477
0,4995375,3019,369,-2455,-1081,-608,-6922,253,343,-477
0,4995386,3014,402,-2460,-1080,-608,-6920,253,335,-483
0,4995399,3014,402,-2460,-1080,-608,-6920,253,335,-483
0,4995412,3020,383,-2458,-1089,-610,-6921,253,335,-483
0,4995426,3017,349,-2451,-1084,-609,-6913,253,335,-483
0,4995440,3017,359,-2463,-1083,-603,-6922,253,335,-483
0,4995454,3017,359,-2463,-1083,-603,-6922,253,335,-483
0,4995467,3015,369,-2452,-1084,-604,-6911,253,335,-483
0,4995479,3015,369,-2452,-1084,-604,-6911,253,335,-483
0,4995493,3015,372,-2460,-1079,-607,-6922,253,335,-483
0,4995507,3021,353,-2458,-1074,-606,-6916,261,331,-481
0,4995521,3012,366,-2455,-1081,-602,-6909,261,331,-481
0,4995536,3012,366,-2455,-1081,-602,-6909,261,331,-481
0,4995550,3015,378,-2457,-1069,-600,-6913,261,331,-481
0,4995564,3013,385,-2458,-1073,-608,-6907,261,331,-481
0,4995579,3013,385,-2458,-1073,-608,-6907,261,331,-481
0,4995595,3010,367,-2456,-1083,-607,-6908,261,331,-481
0,4995610,3013,361,-2459,-1076,-600,-6906,261,331,-481
0,4995622,3012,374,-2458,-1072,-613,-6909,261,331,-481
0,4995635,3012,374,-2458,-1072,-613,-6909,261,331,-481
0,4995649,3014,368,-2452,-1070,-612,-6909,248,322,-478
0,4995663,3007,373,-2456,-1076,-607,-6915,248,322,-478
0,4995677,3007,373,-2456,-1076,-607,-6915,248,322,-478
0,4995690,3010,364,-2454,-1086,-608,-6913,248,322,-478
0,4995702,3005,374,-2463,-1082,-610,-6909,248,322,-478
0,4995717,3005,374,-2463,-1082,-610,-6909,248,322,-478
0,4995731,3007,377,-2456,-1070,-599,-6905,248,322,-478
0,4995744,3007,385,-2454,-1074,-600,-6904,248,322,-478
0,4995758,3007,385,-2454,-1074,-600,-6904,248,322,-478
0,4995770,3004,367,-2462,-1081,-608,-6909,237,313,-487
0,4995783,3013,371,-2454,-1072,-599,-6907,237,313,-487
0,4995798,3013,371,-2454,-1072,-599,-6907,237,313,-487
0,4995813,3002,374,-2456,-1070,-611,-6906,237,313,-487
0,4995827,3013,387,-2456,-1079,-613,-6905,237,313,-487
0,4995837,3013,387,-2456,-1079,-613,-6905,237,313,-487
0,4995854,3000,377,-2463,-1080,-606,-6906,237,313,-487
0,4995868,3006,389,-2461,-1079,-605,-6909,237,313,-487
0,4995883,2999,408,-2464,-1066,-606,-6905,240,302,-488
0,4995896,2999,408,-2464,-1066,-606,-6905,240,302,-488
0,4995910,3007,448,-2452,-1065,-608,-6902,240,302,-488
0,4995921,3012,402,-2459,-1073,-606,-6899,240,302,-488
0,4995937,3012,402,-2459,-1073,-606,-6899,240,302,-488
0,4995950,3009,404,-2458,-1077,-610,-6908,240,302,-488
0,4995963,3014,406,-2464,-1080,-609,-6913,240,302,-488
0,4995977,3014,406,-2464,-1080,-609,-6913,240,302,-488
0,4995990,3010,429,-2459,-1076,-609,-6915,240,302,-488
0,4996002,3017,402,-2465,-1081,-608,-6918,240,302,-488
0,4996016,3017,402,-2465,-1081,-608,-6918,240,302,-488
0,4996029,3005,396,-2452,-1077,-605,-6920,221,301,-483
0,4996043,3015,392,-2454,-1073,-602,-6913,221,301,-483
0,4996058,3015,392,-2454,-1073,-602,-6913,221,301,-483
0,4996065,3011,408,-2465,-1074,-611,-6914,221,301,-483
0,4996080,3011,408,-2465,-1074,-611,-6914,221,301,-483
0,4996089,3015,394,-2457,-1077,-609,-6911,221,301,-483
0,4996105,3014,391,-2458,-1077,-604,-6915,221,301,-483
0,4996120,3014,391,-2458,-1077,-604,-6915,221,301,-483
0,4996133,3013,377,-2464,-1077,-603,-6924,221,301,-483
0,4996147,3013,395,-2461,-1073,-608,-6920,220,296,-488
0,4996160,3013,395,-2461,-1073,-608,-6920,220,296,-488
0,4996172,3013,392,-2460,-1082,-611,-6916,220,296,-488
0,4996187,3018,387,-2460,-1087,-608,-6915,220,296,-488
0,4996200,3018,387,-2460,-1087,-608,-6915,220,296,-488
0,4996213,3014,372,-2460,-1080,-608,-6918,220,296,-488
0,4996228,3014,380,-2454,-1079,-599,-6918,220,296,-488
0,4996241,3010,394,-2462,-1074,-602,-6918,220,296,-488
0,4996252,3010,394,-2462,-1074,-602,-6918,220,296,-488
0,4996264,3013,394,-2454,-1076,-606,-6915,220,296,-488
0,4996278,3013,394,-2454,-1076,-606,-6915,220,296,-488
0,4996292,3013,387,-2459,-1072,-602,-6913,222,280,-500
0,4996301,3013,387,-2459,-1072,-602,-6913,222,280,-500
0,4996317,3013,387,-2459,-1072,-602,-6913,222,280,-500
0,4996332,3014,398,-2459,-1076,-608,-6918,222,280,-500
0,4996347,3017,408,-2462,-1080,-607,-6921,222,280,-500
0,4996361,3017,388,-2461,-1083,-603,-6916,222,280,-500
0,4996375,3017,388,-2461,-1083,-603,-6916,222,280,-500
0,4996387,3017,393,-2463,-1088,-607,-6920,222,280,-500
0,4996401,3017,393,-2463,-1088,-607,-6920,222,280,-500
0,4996414,3016,382,-2455,-1083,-608,-6918,204,278,-494
0,4996427,3016,398,-2463,-1079,-609,-6927,204,278,-494
0,4996442,3013,382,-2459,-1082,-612,-6922,204,278,-494
0,4996453,3013,382,-2459,-1082,-612,-6922,204,278,-494
0,4996465,3017,385,-2457,-1079,-603,-6913,204,278,-494
0,4996474,3017,385,-2457,-1079,-603,-6913,204,278,-494
0,4996485,3015,333,-2464,-1070,-596,-6923,204,278,-494
0,4996498,3015,333,-2464,-1070,-596,-6923,204,278,-494
0,4996511,3018,384,-2461,-1076,-606,-6920,204,278,-494
0,4996527,3016,366,-2463,-1073,-607,-6912,204,278,-494
0,4996542,3020,372,-2455,-1076,-602,-6910,207,271,-489
0,4996556,3020,372,-2455,-1076,-602,-6910,207,271,-489
0,4996571,3012,352,-2467,-1082,-608,-6910,207,271,-489
0,4996584,3012,377,-2454,-1080,-603,-6908,207,271,-489
0,4996596,3012,377,-2454,-1080,-603,-6908,207,271,-489
0,4996609,3010,365,-2462,-1073,-605,-6911,207,271,-489
0,4996622,3010,367,-2453,-1078,-617,-6907,207,271,-489
0,4996635,3010,367,-2453,-1078,-617,-6907,207,271,-489
0,4996649,3009,364,-2467,-1082,-605,-6910,207,271,-489
0,4996663,3012,364,-2451,-1082,-614,-6908,207,279,-497
0,4996677,3012,364,-2451,-1082,-614,-6908,207,279,-497
0,4996688,3011,372,-2458,-1075,-612,-6909,207,279,-497
0,4996703,3011,370,-2463,-1073,-608,-6908,207,279,-497
0,4996716,3011,370,-2463,-1073,-608,-6908,207,279,-497
0,4996729,3008,374,-2466,-1085,-607,-6905,207,279,-497
0,4996745,3012,367,-2467,-1070,-611,-6911,207,279,-497
0,4996760,3012,367,-2467,-1070,-611,-6911,207,279,-497
0,4996775,3004,377,-2459,-1073,-603,-6906,207,279,-497
0,4996790,3006,368,-2457,-1082,-601,-6905,193,271,-509
0,4996804,3006,374,-2457,-1075,-598,-6907,193,271,-509
0,4996817,3006,374,-2457,-1075,-598,-6907,193,271,-509
0,4996832,3005,362,-2467,-1078,-610,-6909,193,271,-509
0,4996845,3007,375,-2455,-1073,-607,-6903,193,271,-509
0,4996858,3007,375,-2455,-1073,-607,-6903,193,271,-509
0,4996872,3005,374,-2462,-1074,-609,-6911,193,271,-509
0,4996885,3011,378,-2464,-1080,-605,-6911,193,271,-509
0,4996898,3011,378,-2464,-1080,-605,-6911,193,271,-509
0,4996912,3008,367,-2463,-1076,-600,-6905,193,271,-509
0,4996924,3007,381,-2454,-1077,-615,-6905,187,263,-503
0,4996939,3007,381,-2454,-1077,-615,-6905,187,263,-503
0,4996954,3005,396,-2458,-1074,-612,-6897,187,263,-503
0,4996967,3001,408,-2465,-1082,-605,-6895,187,263,-503
0,4996980,3001,408,-2465,-1082,-605,-6895,187,263,-503
0,4996995,3004,437,-2458,-1090,-607,-6898,187,263,-503
0,4997010,3005,413,-2460,-1091,-605,-6896,187,263,-503
0,4997024,3005,419,-2461,-1085,-599,-6898,187,263,-503
0,4997039,3005,419,-2461,-1085,-599,-6898,187,263,-503
0,4997052,3003,422,-2465,-1079,-599,-6907,186,266,-510
0,4997063,3012,436,-2452,-1077,-612,-6907,186,266,-510
0,4997076,3012,436,-2452,-1077,-612,-6907,186,266,-510
0,4997091,3010,416,-2468,-1079,-615,-6917,186,266,-510
0,4997104,3013,417,-2460,-1091,-607,-6914,186,266,-510
0,4997118,3013,417,-2460,-1091,-607,-6914,186,266,-510
0,4997132,3011,402,-2460,-1078,-607,-6916,186,266,-510
0,4997145,3015,405,-2451,-1068,-611,-6913,186,266,-510
0,4997157,3015,405,-2451,-1068,-611,-6913,186,266,-510
0,4997172,3012,396,-2457,-1078,-600,-6912,186,266,-510
0,4997184,3014,385,-2454,-1082,-606,-6912,174,256,-506
0,4997197,3014,385,-2454,-1082,-606,-6912,174,256,-506
0,4997213,3015,379,-2461,-1072,-605,-6910,174,256,-506
0,4997221,3015,379,-2461,-1072,-605,-6910,174,256,-506
0,4997235,3014,378,-2454,-1072,-604,-6918,174,256,-506
0,4997249,3016,394,-2458,-1075,-604,-6919,174,256,-506
0,4997263,3015,382,-2458,-1080,-604,-6917,174,256,-506
0,4997277,3015,382,-2458,-1080,-604,-6917,174,256,-506
0,4997292,3020,385,-2463,-1078,-606,-6915,174,256,-506
0,4997306,3013,376,-2458,-1073,-603,-6915,176,264,-512
0,4997319,3013,376,-2458,-1073,-603,-6915,176,264,-512
0,4997332,3018,400,-2459,-1068,-605,-6914,176,264,-512
0,4997343,3012,381,-2462,-1069,-606,-6916,176,264,-512
0,4997356,3012,381,-2462,-1069,-606,-6916,176,264,-512
0,4997370,3013,386,-2453,-1076,-613,-6914,176,264,-512
0,4997384,3013,373,-2462,-1075,-607,-6926,176,264,-512
0,4997398,3013,373,-2462,-1075,-607,-6926,176,264,-512
0,4997414,3018,394,-2455,-1076,-605,-6921,176,264,-512
0,4997428,3019,380,-2462,-1076,-606,-6917,176,264,-512
0,4997442,3019,380,-2462,-1076,-606,-6917,176,264,-512
0,4997454,3018,386,-2457,-1075,-604,-6914,167,253,-503
0,4997470,3017,377,-2461,-1074,-616,-6920,167,253,-503
0,4997483,3019,386,-2461,-1083,-615,-6914,167,253,-503
0,4997498,3019,386,-2461,-1083,-615,-6914,167,253,-503
0,4997513,3018,377,-2455,-1081,-612,-6914,167,253,-503
0,4997526,3013,380,-2463,-1084,-608,-6920,167,253,-503
0,4997540,3013,380,-2463,-1084,-608,-6920,167,253,-503
0,4997554,3016,349,-2455,-1085,-612,-6922,167,253,-503
0,4997568,3010,372,-2461,-1089,-619,-6924,159,257,-507
0,4997581,3010,372,-2461,-1089,-619,-6924,159,257,-507
0,4997597,3014,367,-2450,-1078,-604,-6921,159,257,-507
0,4997609,3012,381,-2454,-1072,-607,-6914,159,257,-507
0,4997622,3012,347,-2466,-1077,-604,-6915,159,257,-507
0,4997639,3012,347,-2466,-1077,-604,-6915,159,257,-507
0,4997654,3011,375,-2465,-1084,-604,-6910,159,257,-507
0,4997667,3011,364,-2465,-1078,-606,-6909,159,257,-507
0,4997682,3011,364,-2465,-1078,-606,-6909,159,257,-507
0,4997696,3007,386,-2465,-1073,-608,-6902,158,260,-498
0,4997711,3006,358,-2465,-1080,-606,-6907,158,260,-498
0,4997725,3009,375,-2458,-1080,-601,-6908,158,260,-498
0,4997738,3009,375,-2458,-1080,-601,-6908,158,260,-498
0,4997752,3006,370,-2455,-1078,-597,-6910,158,260,-498
0,4997764,3008,371,-2463,-1077,-605,-6913,158,260,-498
0,4997775,3008,371,-2463,-1077,-605,-6913,158,260,-498
0,4997789,3007,362,-2461,-1086,-613,-6912,158,260,-498
0,4997803,3007,362,-2461,-1086,-613,-6912,158,260,-498
0,4997817,3012,370,-2461,-1086,-608,-6910,158,260,-498
0,4997830,3005,370,-2456,-1074,-606,-6916,163,263,-501
0,4997844,3008,385,-2462,-1076,-610,-6907,163,263,-501
0,4997859,3008,385,-2462,-1076,-610,-6907,163,263,-501
0,4997874,3005,381,-2462,-1081,-609,-6903,163,263,-501
0,4997890,3007,384,-2458,-1082,-607,-6907,163,263,-501
0,4997905,3003,382,-2455,-1075,-612,-6903,163,263,-501
0,4997918,3003,382,-2455,-1075,-612,-6903,163,263,-501
0,4997931,3008,391,-2460,-1075,-612,-6906,163,263,-501
0,4997944,3002,384,-2456,-1072,-615,-6908,154,266,-504
0,4997957,3002,384,-2456,-1072,-615,-6908,154,266,-504
0,4997971,3007,385,-2461,-1072,-605,-6898,154,266,-504
0,4997985,3004,392,-2456,-1081,-608,-6904,154,266,-504
0,4997998,3004,392,-2456,-1081,-608,-6904,154,266,-504
0,4998007,3007,421,-2461,-1083,-610,-6900,154,266,-504
0,4998021,3007,421,-2461,-1083,-610,-6900,154,266,-504
0,4998036,3007,410,-2460,-1077,-605,-6910,154,266,-504
0,4998048,3010,411,-2470,-1076,-609,-6911,154,266,-504
0,4998060,3010,411,-2470,-1076,-609,-6911,154,266,-504
0,4998075,3008,401,-2470,-1083,-615,-6914,154,266,-504
0,4998090,3010,425,-2461,-1072,-611,-6915,145,263,-497
0,4998107,3010,397,-2460,-1074,-605,-6920,145,263,-497
0,4998121,3010,397,-2460,-1074,-605,-6920,145,263,-497
0,4998133,3012,412,-2460,-1086,-607,-6914,145,263,-497
0,4998148,3010,391,-2462,-1077,-604,-6917,145,263,-497
0,4998161,3010,391,-2462,-1077,-604,-6917,145,263,-497
0,4998174,3014,407,-2463,-1075,-599,-6921,145,263,-497
0,4998189,3012,392,-2466,-1073,-603,-6916,145,263,-497
0,4998203,3012,392,-2466,-1073,-603,-6916,145,263,-497
0,4998216,3017,402,-2461,-1081,-602,-6916,144,270,-494
0,4998228,3019,375,-2461,-1078,-602,-6918,144,270,-494
0,4998242,3019,375,-2461,-1078,-602,-6918,144,270,-494
0,4998253,3020,389,-2468,-1079,-603,-6919,144,270,-494
0,4998266,3013,385,-2470,-1075,-605,-6917,144,270,-494
0,4998279,3013,385,-2470,-1075,-605,-6917,144,270,-494
0,4998294,3013,395,-2462,-1077,-614,-6918,144,270,-494
0,4998309,3013,395,-2462,-1077,-614,-6918,144,270,-494
0,4998324,3013,369,-2460,-1077,-595,-6918,144,270,-494
0,4998336,3013,369,-2460,-1077,-595,-6918,144,270,-494
0,4998349,3011,365,-2460,-1076,-607,-6916,146,272,-496
0,4998365,3014,393,-2458,-1080,-617,-6915,146,272,-496
0,4998378,3014,393,-2458,-1080,-617,-6915,146,272,-496
0,4998392,3013,345,-2456,-1085,-606,-6915,146,272,-496
0,4998406,3011,377,-2464,-1090,-610,-6916,146,272,-496
0,4998418,3011,377,-2464,-1090,-610,-6916,146,272,-496
0,4998436,3013,368,-2462,-1074,-604,-6919,146,272,-496
0,4998449,3006,388,-2461,-1065,-604,-6915,146,272,-496
0,4998462,3006,388,-2461,-1065,-604,-6915,146,272,-496
0,4998475,3011,357,-2453,-1078,-612,-6913,144,288,-488
0,4998490,3006,375,-2457,-1079,-606,-6912,144,288,-488
0,4998504,3005,356,-2461,-1066,-609,-6910,144,288,-488
0,4998518,3005,356,-2461,-1066,-609,-6910,144,288,-488
0,4998532,3006,373,-2458,-1073,-615,-6915,144,288,-488
0,4998546,3007,369,-2455,-1081,-611,-6910,144,288,-488
0,4998560,3007,369,-2455,-1081,-611,-6910,144,288,-488
0,4998577,3008,374,-2460,-1081,-608,-6910,144,288,-488
0,4998592,3006,363,-2465,-1079,-610,-6909,147,285,-499
0,4998604,3010,381,-2455,-1082,-606,-6911,147,285,-499
0,4998617,3010,381,-2455,-1082,-606,-6911,147,285,-499
0,4998630,3003,381,-2457,-1081,-607,-6915,147,285,-499
0,4998643,3003,381,-2457,-1081,-607,-6915,147,285,-499
0,4998657,3007,373,-2460,-1082,-612,-6913,147,285,-499
0,4998670,3003,365,-2461,-1067,-613,-6907,147,285,-499
0,4998682,3003,365,-2461,-1067,-613,-6907,147,285,-499
0,4998696,3007,378,-2462,-1069,-610,-6908,147,285,-499
0,4998712,3004,387,-2462,-1069,-606,-6902,147,285,-499
0,4998724,3008,391,-2457,-1068,-605,-6900,146,294,-492
0,4998738,3008,391,-2457,-1068,-605,-6900,146,294,-492
0,4998754,3005,392,-2460,-1071,-597,-6911,146,294,-492
0,4998769,3003,439,-2465,-1069,-602,-6913,146,294,-492
0,4998784,3003,439,-2465,-1069,-602,-6913,146,294,-492
0,4998797,3012,408,-2467,-1074,-605,-6903,146,294,-492
0,4998811,3005,414,-2469,-1078,-606,-6911,146,294,-492
0,4998823,3005,414,-2469,-1078,-606,-6911,146,294,-492
0,4998835,3009,392,-2466,-1085,-612,-6913,146,294,-492
0,4998848,3007,430,-2455,-1075,-606,-6915,146,300,-506
0,4998861,3007,430,-2455,-1075,-606,-6915,146,300,-506
0,4998876,3008,403,-2463,-1077,-603,-6911,146,300,-506
0,4998888,3011,409,-2466,-1076,-601,-6908,146,300,-506
0,4998899,3011,409,-2466,-1076,-601,-6908,146,300,-506
0,4998914,3013,388,-2463,-1067,-602,-6914,146,300,-506
0,4998923,3013,388,-2463,-1067,-602,-6914,146,300,-506
0,4998936,3013,406,-2462,-1073,-612,-6914,146,300,-506
0,4998948,3011,382,-2465,-1071,-608,-6915,146,300,-506
0,4998964,3011,382,-2465,-1071,-608,-6915,146,300,-506
0,4998978,3015,405,-2461,-1078,-605,-6916,146,300,-506
0,4998991,3010,371,-2462,-1077,-603,-6911,145,303,-505
0,4999007,3015,394,-2454,-1070,-608,-6920,145,303,-505
0,4999022,3015,394,-2454,-1070,-608,-6920,145,303,-505
0,4999036,3013,377,-2459,-1078,-607,-6913,145,303,-505
0,4999051,3012,404,-2460,-1074,-607,-6918,145,303,-505
0,4999065,3019,370,-2468,-1083,-613,-6913,145,303,-505
0,4999078,3019,370,-2468,-1083,-613,-6913,145,303,-505
0,4999092,3019,370,-2468,-1083,-613,-6913,145,303,-505
0,4999105,3019,387,-2458,-1088,-611,-6904,149,309,-503
0,4999119,3019,387,-2458,-1088,-611,-6904,149,309,-503
0,4999133,3012,412,-2458,-1086,-608,-6904,149,309,-503
0,4999146,3017,384,-2463,-1082,-605,-6914,149,309,-503
0,4999160,3017,384,-2463,-1082,-605,-6914,149,309,-503
0,4999175,3012,400,-2471,-1080,-606,-6915,149,309,-503
0,4999187,3019,391,-2464,-1076,-609,-6914,149,309,-503
0,4999199,3019,391,-2464,-1076,-609,-6914,149,309,-503
0,4999215,3011,415,-2459,-1077,-607,-6912,149,309,-503
0,4999230,3016,380,-2462,-1076,-609,-6926,146,310,-504
0,4999244,3016,380,-2462,-1076,-609,-6926,146,310,-504
0,4999258,3014,401,-2458,-1084,-607,-6924,146,310,-504
0,4999273,3019,371,-2456,-1076,-597,-6919,146,310,-504
0,4999288,3019,397,-2454,-1076,-606,-6928,146,310,-504
0,4999302,3019,397,-2454,-1076,-606,-6928,146,310,-504
0,4999315,3017,373,-2461,-1077,-605,-6919,146,310,-504
0,4999329,3019,391,-2457,-1084,-606,-6916,146,310,-504
0,4999343,3019,391,-2457,-1084,-606,-6916,146,310,-504
0,4999355,3018,331,-2462,-1076,-610,-6912,146,310,-504
0,4999368,3015,387,-2460,-1080,-605,-6919,159,331,-505
0,4999382,3015,387,-2460,-1080,-605,-6919,159,331,-505
0,4999395,3015,365,-2456,-1079,-610,-6914,159,331,-505
0,4999409,3015,375,-2451,-1086,-606,-6913,159,331,-505
0,4999422,3015,375,-2451,-1086,-606,-6913,159,331,-505
0,4999435,3015,344,-2460,-1083,-613,-6914,159,331,-505
0,4999450,3012,374,-2457,-1078,-607,-6916,159,331,-505
0,4999465,3012,370,-2463,-1077,-611,-6919,159,331,-505
0,4999480,3012,370,-2463,-1077,-611,-6919,159,331,-505
0,4999494,3014,371,-2453,-1075,-616,-6907,149,337,-509
0,4999506,3011,359,-2462,-1081,-603,-6909,149,337,-509
0,4999518,3011,359,-2462,-1081,-603,-6909,149,337,-509
0,4999531,3013,362,-2460,-1072,-595,-6908,149,337,-509
0,4999544,3013,362,-2460,-1072,-595,-6908,149,337,-509
0,4999557,3010,375,-2464,-1065,-604,-6913,149,337,-509
0,4999570,3010,367,-2462,-1083,-605,-6901,149,337,-509
0,4999583,3010,367,-2462,-1083,-605,-6901,149,337,-509
0,4999598,3009,371,-2468,-1091,-608,-6912,149,337,-509
0,4999611,3010,358,-2458,-1076,-608,-6908,149,337,-509
0,4999623,3010,358,-2458,-1076,-608,-6908,149,337,-509
0,4999635,3007,369,-2456,-1068,-602,-6909,143,339,-503
0,4999651,3007,367,-2457,-1071,-603,-6912,143,339,-503
0,4999666,3008,379,-2458,-1076,-610,-6910,143,339,-503
0,4999683,3008,379,-2458,-1076,-610,-6910,143,339,-503
0,4999698,3006,357,-2465,-1069,-613,-6903,143,339,-503
0,4999709,3009,369,-2456,-1080,-611,-6910,143,339,-503
0,4999725,3009,369,-2456,-1080,-611,-6910,143,339,-503
0,4999740,3003,372,-2466,-1073,-605,-6903,143,339,-503
0,4999753,3007,384,-2454,-1075,-603,-6907,159,343,-505
0,4999764,3007,384,-2454,-1075,-603,-6907,159,343,-505
0,4999777,3005,373,-2457,-1077,-605,-6910,159,343,-505
0,4999789,3005,369,-2462,-1076,-609,-6909,159,343,-505
0,4999803,3005,369,-2462,-1076,-609,-6909,159,343,-505
0,4999817,3004,371,-2458,-1079,-615,-6911,159,343,-505
0,4999830,3001,384,-2463,-1074,-607,-6903,159,343,-505
0,4999844,3001,384,-2463,-1074,-607,-6903,159,343,-505
0,4999857,2998,385,-2460,-1073,-609,-6893,159,343,-505
0,4999870,2999,408,-2460,-1079,-607,-6895,159,343,-505
0,4999885,2999,408,-2460,-1079,-607,-6895,159,343,-505
0,4999899,3000,448,-2454,-1077,-603,-6899,171,351,-499
0,4999913,3003,425,-2456,-1077,-606,-6894,171,351,-499
0,4999927,3007,431,-2460,-1080,-612,-6897,171,351,-499
0,4999943,3007,431,-2460,-1080,-612,-6897,171,351,-499
0,4999958,3007,420,-2468,-1077,-601,-6912,171,351,-499
0,4999971,3005,448,-2460,-1070,-602,-6915,171,351,-499
0,4999986,3005,448,-2460,-1070,-602,-6915,171,351,-499
0,4999999,3011,412,-2467,-1069,-608,-6904,171,351,-499
0,5000013,3011,410,-2451,-1081,-609,-6919,179,365,-495
0,5000025,3011,410,-2451,-1081,-609,-6919,179,365,-495
0,5000039,3011,410,-2451,-1081,-609,-6919,179,365,-495
0,5000052,3011,404,-2459,-1077,-609,-6921,179,365,-495
0,5000066,3018,384,-2458,-1074,-608,-6924,179,365,-495
0,5000080,3018,384,-2458,-1074,-608,-6924,179,365,-495
0,5000090,3011,389,-2456,-1079,-603,-6920,179,365,-495
0,5000104,3011,389,-2456,-1079,-603,-6920,179,365,-495
0,5000118,3022,384,-2465,-1078,-601,-6919,179,365,-495
0,5000131,3011,392,-2461,-1070,-602,-6925,190,372,-492
0,5000145,3016,403,-2459,-1069,-606,-6922,190,372,-492
0,5000161,3016,403,-2459,-1069,-606,-6922,190,372,-492
0,5000176,3011,403,-2458,-1083,-608,-6914,190,372,-492
0,5000190,3015,389,-2462,-1081,-607,-6914,190,372,-492
0,5000204,3015,389,-2462,-1081,-607,-6914,190,372,-492
0,5000218,3013,386,-2457,-1079,-609,-6917,190,372,-492
0,5000231,3017,394,-2460,-1073,-599,-6918,190,372,-492
0,5000243,3017,394,-2460,-1073,-599,-6918,190,372,-492
0,5000256,3014,384,-2459,-1066,-609,-6917,190,372,-492
0,5000272,3019,390,-2456,-1066,-607,-6923,199,379,-493
0,5000286,3019,390,-2456,-1066,-607,-6923,199,379,-493
0,5000299,3014,376,-2460,-1071,-607,-6923,199,379,-493
0,5000313,3016,395,-2466,-1079,-607,-6914,199,379,-493
0,5000326,3019,382,-2465,-1073,-605,-6922,199,379,-493
0,5000339,3019,382,-2465,-1073,-605,-6922,199,379,-493
0,5000354,3016,387,-2464,-1075,-605,-6919,199,379,-493
0,5000363,3016,387,-2464,-1075,-605,-6919,199,379,-493
0,5000375,3013,369,-2466,-1074,-601,-6909,199,379,-493
0,5000389,3013,375,-2457,-1079,-604,-6918,206,386,-502
0,5000403,3013,375,-2457,-1079,-604,-6918,206,386,-502
0,5000419,3018,346,-2453,-1078,-607,-6915,206,386,-502
0,5000434,3011,381,-2454,-1075,-600,-6917,206,386,-502
0,5000445,3011,381,-2454,-1075,-600,-6917,206,386,-502
0,5000461,3020,366,-2464,-1081,-609,-6911,206,386,-502
0,5000475,3009,370,-2463,-1072,-613,-6914,206,386,-502
0,5000489,3016,357,-2462,-1072,-606,-6905,206,386,-502
0,5000503,3016,357,-2462,-1072,-606,-6905,206,386,-502
0,5000516,3010,369,-2458,-1082,-608,-6905,206,386,-502
0,5000530,3018,372,-2456,-1083,-608,-6907,213,375,-499
0,5000542,3018,372,-2456,-1083,-608,-6907,213,375,-499
0,5000556,3009,371,-2466,-1081,-601,-6917,213,375,-499
0,5000570,3012,369,-2461,-1088,-606,-6912,213,375,-499
0,5000583,3012,369,-2461,-1088,-606,-6912,213,375,-499
0,5000598,3012,363,-2465,-1081,-609,-6906,213,375,-499
0,5000613,3007,386,-2459,-1079,-612,-6900,213,375,-499
0,5000629,3010,373,-2456,-1081,-604,-6907,213,375,-499
0,5000645,3010,373,-2456,-1081,-604,-6907,213,375,-499
0,5000659,3010,373,-2456,-1081,-604,-6907,219,385,-497
0,5000673,3014,369,-2461,-1070,-605,-6915,219,385,-497
0,5000687,3008,386,-2459,-1079,-607,-6903,219,385,-497
0,5000702,3008,386,-2459,-1079,-607,-6903,219,385,-497
0,5000714,3011,379,-2465,-1087,-604,-6900,219,385,-497
0,5000726,3011,379,-2465,-1087,-604,-6900,219,385,-497
0,5000739,3008,382,-2456,-1086,-608,-6900,219,385,-497
0,5000754,3011,375,-2459,-1084,-614,-6905,219,385,-497
0,5000768,3001,388,-2458,-1075,-612,-6904,219,385,-497
0,5000779,3001,388,-2458,-1075,-612,-6904,219,385,-497
0,5000793,3008,393,-2459,-1074,-608,-6901,222,380,-504
0,5000805,3008,393,-2459,-1074,-608,-6901,222,380,-504
0,5000819,3007,392,-2462,-1066,-605,-6908,222,380,-504
0,5000834,3009,404,-2461,-1076,-604,-6902,222,380,-504
0,5000844,3009,404,-2461,-1076,-604,-6902,222,380,-504
0,5000858,3004,439,-2463,-1072,-603,-6908,222,380,-504
0,5000873,3015,444,-2465,-1077,-611,-6907,222,380,-504
0,5000888,3009,441,-2464,-1078,-604,-6909,222,380,-504
0,5000902,3009,441,-2464,-1078,-604,-6909,222,380,-504
0,5000915,3016,452,-2458,-1079,-599,-6916,222,390,-494
0,5000930,3006,464,-2459,-1078,-610,-6920,222,390,-494
0,5000944,3006,464,-2459,-1078,-610,-6920,222,390,-494
0,5000957,3017,478,-2460,-1078,-613,-6919,222,390,-494
0,5000971,3015,476,-2469,-1069,-601,-6919,222,390,-494
0,5000982,3015,476,-2469,-1069,-601,-6919,222,390,-494
0,5000997,3021,491,-2453,-1075,-601,-6928,222,390,-494
0,5001011,3020,483,-2460,-1068,-616,-6935,222,390,-494
0,5001025,3020,483,-2460,-1068,-616,-6935,222,390,-494
0,5001038,3026,521,-2464,-1079,-619,-6941,230,386,-494
0,5001053,3030,507,-2464,-1075,-611,-6941,230,386,-494
0,5001067,3037,532,-2463,-1077,-613,-6942,230,386,-494
0,5001082,3037,532,-2463,-1077,-613,-6942,230,386,-494
0,5001098,3039,509,-2464,-1075,-608,-6955,230,386,-494
0,5001112,3040,544,-2462,-1074,-608,-6958,230,386,-494
0,5001125,3040,544,-2462,-1074,-608,-6958,230,386,-494
0,5001140,3048,526,-2460,-1076,-596,-6964,230,386,-494
0,5001155,3045,556,-2459,-1075,-602,-6975,230,386,-494
0,5001166,3045,556,-2459,-1075,-602,-6975,230,386,-494
0,5001179,3061,539,-2457,-1079,-608,-6984,233,379,-491
0,5001192,3058,585,-2465,-1081,-606,-6978,233,379,-491
0,5001207,3072,581,-2464,-1074,-606,-6990,233,379,-491
0,5001221,3072,581,-2464,-1074,-606,-6990,233,379,-491
0,5001233,3070,618,-2465,-1075,-598,-6990,233,379,-491
0,5001245,3070,618,-2465,-1075,-598,-6990,233,379,-491
0,5001260,3088,606,-2470,-1079,-603,-6991,233,379,-491
0,5001273,3084,648,-2476,-1079,-601,-7007,233,379,-491
0,5001287,3084,648,-2476,-1079,-601,-7007,233,379,-491
0,5001302,3101,627,-2461,-1074,-604,-7034,244,376,-488
0,5001316,3100,674,-2459,-1080,-609,-7039,244,376,-488
0,5001329,3118,641,-2465,-1081,-610,-7049,244,376,-488
0,5001344,3118,641,-2465,-1081,-610,-7049,244,376,-488
0,5001356,3118,688,-2465,-1077,-613,-7058,244,376,-488
0,5001368,3133,654,-2459,-1068,-602,-7065,244,376,-488
0,5001382,3133,654,-2459,-1068,-602,-7065,244,376,-488
0,5001397,3144,708,-2465,-1072,-606,-7079,244,376,-488
0,5001410,3159,669,-2471,-1077,-604,-7086,244,376,-488
0,5001424,3159,669,-2471,-1077,-604,-7086,244,376,-488
0,5001438,3164,717,-2471,-1078,-604,-7100,244,382,-488
0,5001451,3180,674,-2468,-1083,-608,-7117,244,382,-488
0,5001465,3180,674,-2468,-1083,-608,-7117,244,382,-488
0,5001478,3183,723,-2465,-1075,-605,-7127,244,382,-488
0,5001492,3200,680,-2469,-1079,-606,-7133,244,382,-488
0,5001505,3200,680,-2469,-1079,-606,-7133,244,382,-488
0,5001520,3201,721,-2460,-1075,-604,-7155,244,382,-488
0,5001534,3218,684,-2469,-1071,-605,-7169,244,382,-488
0,5001546,3218,684,-2469,-1071,-605,-7169,244,382,-488
0,5001562,3225,726,-2463,-1073,-607,-7181,247,373,-477
0,5001576,3241,704,-2466,-1075,-606,-7185,247,373,-477
0,5001590,3252,716,-2462,-1080,-602,-7203,247,373,-477
0,5001604,3252,716,-2462,-1080,-602,-7203,247,373,-477
0,5001616,3265,699,-2471,-1079,-606,-7220,247,373,-477
0,5001630,3277,712,-2465,-1071,-610,-7230,247,373,-477
0,5001644,3277,712,-2465,-1071,-610,-7230,247,373,-477
0,5001658,3289,689,-2465,-1084,-610,-7243,247,373,-477
0,5001669,3299,685,-2469,-1077,-617,-7256,254,378,-476
0,5001684,3299,685,-2469,-1077,-617,-7256,254,378,-476
0,5001697,3307,671,-2464,-1074,-611,-7270,254,378,-476
0,5001710,3316,653,-2463,-1076,-606,-7283,254,378,-476
0,5001724,3316,653,-2463,-1076,-606,-7283,254,378,-476
0,5001738,3328,650,-2465,-1077,-608,-7297,254,378,-476
0,5001754,3339,632,-2468,-1077,-607,-7306,254,378,-476
0,5001766,3339,632,-2468,-1077,-607,-7306,254,378,-476
0,5001781,3350,625,-2460,-1078,-601,-7315,254,378,-476
0,5001795,3358,592,-2468,-1071,-609,-7318,254,378,-476
0,5001809,3365,599,-2468,-1077,-602,-7323,251,359,-475
0,5001823,3365,599,-2468,-1077,-602,-7323,251,359,-475
0,5001835,3371,556,-2462,-1075,-608,-7331,251,359,-475
0,5001851,3378,570,-2460,-1073,-612,-7339,251,359,-475
0,5001865,3378,570,-2460,-1073,-612,-7339,251,359,-475
0,5001877,3386,527,-2466,-1078,-609,-7349,251,359,-475
0,5001891,3387,560,-2460,-1084,-615,-7351,251,359,-475
0,5001902,3387,560,-2460,-1084,-615,-7351,251,359,-475
0,5001915,3393,515,-2465,-1083,-611,-7347,251,359,-475
0,5001928,3401,538,-2468,-1079,-609,-7357,260,358,-472
0,5001943,3401,538,-2468,-1079,-609,-7357,260,358,-472
0,5001956,3408,509,-2472,-1077,-608,-7361,260,358,-472
0,5001968,3412,520,-2469,-1076,-600,-7364,260,358,-472
0,5001981,3412,520,-2469,-1076,-600,-7364,260,358,-472
0,5001995,3417,496,-2475,-1078,-606,-7377,260,358,-472
0,5002008,3417,502,-2459,-1074,-600,-7377,260,358,-472
0,5002022,3417,502,-2459,-1074,-600,-7377,260,358,-472
0,5002039,3422,488,-2470,-1079,-612,-7381,260,358,-472
0,5002053,3424,479,-2460,-1081,-609,-7378,260,358,-472
0,5002067,3424,479,-2460,-1081,-609,-7378,260,358,-472
0,5002082,3426,474,-2463,-1085,-610,-7377,252,358,-476
0,5002096,3430,450,-2457,-1077,-608,-7379,252,358,-476
0,5002110,3428,449,-2468,-1081,-617,-7388,252,358,-476
0,5002124,3428,449,-2468,-1081,-617,-7388,252,358,-476
0,5002135,3436,423,-2459,-1077,-612,-7391,252,358,-476
0,5002148,3434,428,-2474,-1076,-606,-7393,252,358,-476
0,5002162,3434,428,-2474,-1076,-606,-7393,252,358,-476
0,5002175,3437,400,-2465,-1081,-614,-7392,252,358,-476
0,5002188,3437,400,-2465,-1081,-614,-7392,252,358,-476
0,5002200,3432,422,-2456,-1082,-606,-7389,257,351,-483
0,5002214,3441,362,-2454,-1087,-608,-7382,257,351,-483
0,5002223,3441,362,-2454,-1087,-608,-7382,257,351,-483
0,5002233,3435,422,-2463,-1077,-608,-7393,257,351,-483
0,5002249,3437,384,-2464,-1072,-609,-7393,257,351,-483
0,5002264,3437,384,-2464,-1072,-609,-7393,257,351,-483
0,5002275,3430,403,-2455,-1077,-615,-7386,257,351,-483
0,5002285,3430,403,-2455,-1077,-615,-7386,257,351,-483
0,5002294,3434,366,-2475,-1087,-608,-7384,257,351,-483
0,5002307,3434,366,-2475,-1087,-608,-7384,257,351,-483
0,5002321,3428,398,-2461,-1075,-606,-7380,257,351,-483
0,5002337,3431,350,-2463,-1076,-610,-7374,258,348,-476
0,5002350,3426,361,-2451,-1076,-613,-7372,258,348,-476
0,5002363,3426,361,-2451,-1076,-613,-7372,258,348,-476
0,5002378,3427,361,-2469,-1069,-612,-7370,258,348,-476
0,5002392,3425,368,-2459,-1070,-602,-7371,258,348,-476
0,5002403,3425,368,-2459,-1070,-602,-7371,258,348,-476
0,5002417,3421,365,-2460,-1065,-606,-7369,258,348,-476
0,5002430,3416,369,-2460,-1075,-609,-7370,258,348,-476
0,5002444,3416,369,-2460,-1075,-609,-7370,258,348,-476
0,5002459,3414,376,-2458,-1087,-602,-7365,259,333,-487
0,5002469,3416,375,-2448,-1084,-612,-7368,259,333,-487
0,5002483,3416,375,-2448,-1084,-612,-7368,259,333,-487
0,5002498,3414,372,-2457,-1085,-622,-7358,259,333,-487
0,5002513,3409,379,-2456,-1088,-609,-7360,259,333,-487
0,5002528,3409,379,-2456,-1088,-609,-7360,259,333,-487
0,5002540,3413,379,-2457,-1084,-608,-7357,259,333,-487
0,5002554,3409,388,-2469,-1079,-611,-7357,259,333,-487
0,5002567,3409,388,-2469,-1079,-611,-7357,259,333,-487
0,5002580,3413,393,-2459,-1077,-604,-7356,249,335,-475
0,5002592,3405,421,-2463,-1086,-603,-7357,249,335,-475
0,5002607,3405,421,-2463,-1086,-603,-7357,249,335,-475
0,5002620,3410,408,-2457,-1071,-604,-7350,249,335,-475
0,5002635,3401,408,-2461,-1083,-605,-7350,249,335,-475
0,5002648,3401,408,-2461,-1083,-605,-7350,249,335,-475
0,5002661,3404,393,-2460,-1090,-609,-7355,249,335,-475
0,5002676,3404,440,-2469,-1085,-614,-7351,249,335,-475
0,5002691,3405,432,-2458,-1074,-610,-7340,249,335,-475
0,5002703,3405,432,-2458,-1074,-610,-7340,249,335,-475
0,5002718,3404,505,-2463,-1086,-609,-7354,252,332,-476
0,5002733,3412,448,-2459,-1084,-603,-7356,252,332,-476
0,5002744,3412,448,-2459,-1084,-603,-7356,252,332,-476
0,5002758,3405,472,-2457,-1086,-610,-7350,252,332,-476
0,5002771,3408,444,-2470,-1076,-606,-7363,252,332,-476
0,5002785,3408,444,-2470,-1076,-606,-7363,252,332,-476
0,5002799,3406,480,-2460,-1078,-607,-7362,252,332,-476
0,5002813,3410,436,-2472,-1075,-613,-7377,252,332,-476
0,5002825,3410,436,-2472,-1075,-613,-7377,252,332,-476
0,5002839,3413,437,-2452,-1083,-606,-7373,239,311,-483
0,5002852,3418,427,-2464,-1076,-605,-7370,239,311,-483
0,5002865,3418,427,-2464,-1076,-605,-7370,239,311,-483
0,5002880,3415,440,-2455,-1079,-611,-7377,239,311,-483
0,5002894,3421,447,-2462,-1085,-617,-7369,239,311,-483
0,5002909,3419,429,-2461,-1088,-610,-7370,239,311,-483
0,5002923,3419,429,-2461,-1088,-610,-7370,239,311,-483
0,5002936,3420,443,-2472,-1079,-614,-7366,239,311,-483
0,5002951,3416,438,-2459,-1074,-611,-7366,239,311,-483
0,5002967,3416,438,-2459,-1074,-611,-7366,239,311,-483
0,5002982,3422,461,-2454,-1089,-610,-7363,233,307,-489
0,5002994,3422,461,-2454,-1089,-610,-7363,233,307,-489
0,5003005,3422,461,-2454,-1089,-610,-7363,233,307,-489
0,5003019,3422,426,-2460,-1084,-609,-7356,233,307,-489
0,5003034,3416,417,-2467,-1076,-607,-7366,233,307,-489
0,5003047,3416,417,-2467,-1076,-607,-7366,233,307,-489
0,5003062,3423,433,-2452,-1076,-604,-7373,233,307,-489
0,5003073,3417,415,-2469,-1082,-604,-7371,233,307,-489
0,5003086,3417,415,-2469,-1082,-604,-7371,233,307,-489
0,5003101,3427,414,-2457,-1081,-604,-7371,237,299,-489
0,5003114,3422,413,-2456,-1083,-606,-7375,237,299,-489
0,5003128,3422,413,-2456,-1083,-606,-7375,237,299,-489
0,5003144,3424,423,-2459,-1080,-612,-7372,237,299,-489
0,5003159,3423,431,-2468,-1082,-615,-7374,237,299,-489
0,5003172,3424,367,-2461,-1079,-610,-7372,237,299,-489
0,5003187,3424,367,-2461,-1079,-610,-7372,237,299,-489
0,5003202,3424,405,-2466,-1079,-608,-7372,237,299,-489
0,5003216,3417,393,-2459,-1084,-611,-7372,237,299,-489
0,5003230,3417,393,-2459,-1084,-611,-7372,237,299,-489
0,5003242,3422,420,-2455,-1082,-612,-7374,225,297,-495
0,5003255,3415,375,-2466,-1079,-613,-7369,225,297,-495
0,5003270,3415,375,-2466,-1079,-613,-7369,225,297,-495
0,5003283,3423,403,-2452,-1087,-603,-7369,225,297,-495
0,5003297,3417,396,-2473,-1079,-607,-7366,225,297,-495
0,5003309,3417,396,-2473,-1079,-607,-7366,225,297,-495
0,5003322,3422,416,-2455,-1072,-616,-7371,225,297,-495
0,5003335,3415,389,-2473,-1094,-619,-7369,225,297,-495
0,5003350,3415,389,-2473,-1094,-619,-7369,225,297,-495
0,5003364,3419,401,-2453,-1092,-605,-7359,209,293,-491
0,5003378,3415,411,-2460,-1085,-602,-7364,209,293,-491
0,5003394,3414,407,-2460,-1080,-610,-7363,209,293,-491
0,5003409,3414,407,-2460,-1080,-610,-7363,209,293,-491
0,5003422,3416,404,-2464,-1085,-614,-7363,209,293,-491
0,5003437,3414,398,-2465,-1080,-611,-7369,209,293,-491
0,5003451,3415,403,-2461,-1065,-608,-7365,209,293,-491
0,5003464,3415,403,-2461,-1065,-608,-7365,209,293,-491
0,5003478,3410,417,-2458,-1073,-614,-7364,206,286,-502
0,5003491,3414,417,-2452,-1080,-606,-7361,206,286,-502
0,5003504,3414,417,-2452,-1080,-606,-7361,206,286,-502
0,5003517,3408,406,-2463,-1085,-608,-7359,206,286,-502
