imu,time,ax,ay,az,gx,gy,gz,mx,my,mz
2,2492678,-1411,543,1090,4762,84,-88,46,-14,-150
2,2492686,-1420,571,1096,4765,91,-90,46,-14,-150
2,2492695,-1420,571,1096,4765,91,-90,46,-14,-150
2,2492704,-1407,541,1088,4768,81,-91,46,-14,-150
2,2492713,-1407,541,1088,4768,81,-91,46,-14,-150
2,2492722,-1419,545,1096,4774,80,-91,46,-14,-150
2,2492733,-1419,545,1096,4774,80,-91,46,-14,-150
2,2492742,-1407,539,1078,4787,86,-86,46,-14,-150
2,2492750,-1407,539,1078,4787,86,-86,46,-14,-150
2,2492760,-1407,539,1078,4787,86,-86,46,-14,-150
2,2492773,-1423,536,1098,4789,82,-85,46,-14,-150
2,2492786,-1408,531,1093,4787,82,-88,59,-29,-159
2,2492801,-1408,531,1093,4787,82,-88,59,-29,-159
2,2492814,-1417,520,1102,4786,89,-93,59,-29,-159
2,2492828,-1410,522,1095,4788,83,-84,59,-29,-159
2,2492841,-1410,522,1095,4788,83,-84,59,-29,-159
2,2492856,-1417,510,1099,4789,88,-85,59,-29,-159
2,2492869,-1411,516,1097,4772,85,-88,59,-29,-159
2,2492884,-1409,512,1091,4775,87,-92,59,-29,-159
2,2492900,-1409,512,1091,4775,87,-92,59,-29,-159
2,2492914,-1411,512,1107,4775,94,-81,53,-29,-165
2,2492922,-1412,507,1097,4775,89,-81,53,-29,-165
2,2492934,-1412,507,1097,4775,89,-81,53,-29,-165
2,2492942,-1412,507,1097,4775,89,-81,53,-29,-165
2,2492949,-1419,509,1099,4774,91,-82,53,-29,-165
2,2492957,-1419,509,1099,4774,91,-82,53,-29,-165
2,2492966,-1409,508,1091,4775,84,-78,53,-29,-165
2,2492974,-1409,508,1091,4775,84,-78,53,-29,-165
2,2492982,-1418,507,1097,4782,92,-86,53,-29,-165
2,2492990,-1418,507,1097,4782,92,-86,53,-29,-165
2,2492998,-1418,507,1097,4782,92,-86,53,-29,-165
2,2493004,-1412,507,1097,4787,97,-91,53,-29,-165
2,2493010,-1412,507,1097,4787,97,-91,53,-29,-165
2,2493017,-1412,507,1097,4787,97,-91,53,-29,-165
2,2493023,-1413,514,1101,4782,86,-90,56,-22,-170
2,2493029,-1413,514,1101,4782,86,-90,56,-22,-170
2,2493035,-1413,514,1101,4782,86,-90,56,-22,-170
2,2493040,-1413,514,1101,4782,86,-90,56,-22,-170
2,2493047,-1410,515,1102,4785,90,-86,56,-22,-170
2,2493052,-1410,515,1102,4785,90,-86,56,-22,-170
2,2493059,-1410,515,1102,4785,90,-86,56,-22,-170
2,2493065,-1413,505,1100,4783,86,-87,56,-22,-170
2,2493071,-1413,505,1100,4783,86,-87,56,-22,-170
2,2493077,-1413,505,1100,4783,86,-87,56,-22,-170
2,2493083,-1412,504,1102,4776,92,-82,56,-22,-170
2,2493089,-1412,504,1102,4776,92,-82,56,-22,-170
2,2493095,-1412,504,1102,4776,92,-82,56,-22,-170
2,2493101,-1412,504,1102,4776,92,-82,56,-22,-170
2,2493109,-1415,511,1092,4785,92,-83,56,-22,-170
2,2493117,-1415,511,1092,4785,92,-83,56,-22,-170
2,2493123,-1415,504,1097,4786,89,-88,56,-22,-170
2,2493130,-1415,504,1097,4786,89,-88,56,-22,-170
2,2493137,-1415,504,1097,4786,89,-88,56,-22,-170
2,2493147,-1418,509,1090,4780,93,-90,56,-22,-170
2,2493156,-1418,509,1090,4780,93,-90,56,-22,-170
2,2493164,-1413,504,1098,4787,88,-81,53,-35,-173
2,2493173,-1413,504,1098,4787,88,-81,53,-35,-173
2,2493181,-1413,504,1098,4787,88,-81,53,-35,-173
2,2493195,-1409,508,1098,4788,86,-89,53,-35,-173
2,2493210,-1414,505,1105,4783,85,-85,53,-35,-173
2,2493225,-1412,508,1091,4782,89,-87,53,-35,-173
2,2493241,-1412,508,1091,4782,89,-87,53,-35,-173
2,2493254,-1410,498,1095,4784,86,-92,53,-35,-173
2,2493265,-1411,493,1095,4781,84,-93,53,-35,-173
2,2493279,-1411,493,1095,4781,84,-93,53,-35,-173
2,2493292,-1410,485,1100,4786,85,-85,56,-20,-190
2,2493306,-1417,497,1091,4788,92,-79,56,-20,-190
2,2493321,-1417,497,1091,4788,92,-79,56,-20,-190
2,2493332,-1412,493,1098,4785,89,-83,56,-20,-190
2,2493345,-1416,474,1095,4785,92,-85,56,-20,-190
2,2493360,-1416,474,1095,4785,92,-85,56,-20,-190
2,2493373,-1407,484,1088,4775,91,-89,56,-20,-190
2,2493387,-1410,480,1096,4779,92,-88,56,-20,-190
2,2493400,-1410,480,1096,4779,92,-88,56,-20,-190
2,2493413,-1413,488,1098,4779,84,-86,50,-26,-192
2,2493428,-1413,474,1102,4780,89,-90,50,-26,-192
2,2493444,-1413,474,1102,4780,89,-90,50,-26,-192
2,2493458,-1413,474,1102,4780,89,-90,50,-26,-192
2,2493470,-1412,476,1096,4779,82,-78,50,-26,-192
2,2493485,-1414,490,1088,4778,80,-79,50,-26,-192
2,2493499,-1414,490,1088,4778,80,-79,50,-26,-192
2,2493513,-1412,487,1093,4777,90,-93,50,-26,-192
2,2493527,-1412,487,1093,4777,90,-93,56,-30,-190
2,2493540,-1412,487,1093,4777,90,-93,56,-30,-190
2,2493553,-1414,481,1097,4773,86,-80,56,-30,-190
2,2493565,-1416,496,1093,4771,90,-87,56,-30,-190
2,2493580,-1416,496,1093,4771,90,-87,56,-30,-190
2,2493593,-1410,491,1084,4764,84,-92,56,-30,-190
2,2493602,-1410,491,1084,4764,84,-92,56,-30,-190
2,2493614,-1421,505,1092,4769,90,-89,56,-30,-190
2,2493629,-1412,495,1086,4771,76,-84,56,-30,-190
2,2493642,-1412,495,1086,4771,76,-84,56,-30,-190
2,2493651,-1416,499,1091,4770,83,-90,49,-25,-201
2,2493660,-1416,499,1091,4770,83,-90,49,-25,-201
2,2493669,-1408,503,1094,4776,88,-96,49,-25,-201
2,2493677,-1408,503,1094,4776,88,-96,49,-25,-201
2,2493690,-1416,505,1098,4772,84,-95,49,-25,-201
2,2493703,-1414,515,1092,4766,82,-92,49,-25,-201
2,2493717,-1414,515,1092,4766,82,-92,49,-25,-201
2,2493730,-1416,511,1086,4775,86,-94,49,-25,-201
2,2493745,-1412,520,1092,4771,86,-89,49,-25,-201
2,2493759,-1412,520,1092,4771,86,-89,49,-25,-201
2,2493770,-1417,523,1089,4778,89,-83,49,-25,-201
2,2493784,-1419,529,1098,4779,81,-86,64,-22,-204
2,2493798,-1419,529,1098,4779,81,-86,64,-22,-204
2,2493811,-1414,516,1087,4774,90,-93,64,-22,-204
2,2493826,-1417,514,1093,4767,94,-90,64,-22,-204
2,2493840,-1417,514,1093,4767,94,-90,64,-22,-204
2,2493854,-1409,515,1093,4773,80,-85,64,-22,-204
2,2493865,-1418,520,1092,4776,83,-92,64,-22,-204
2,2493880,-1418,520,1092,4776,83,-92,64,-22,-204
2,2493892,-1415,534,1095,4777,83,-89,64,-22,-204
2,2493906,-1415,531,1096,4772,80,-90,65,-19,-219
2,2493920,-1415,531,1096,4772,80,-90,65,-19,-219
2,2493933,-1416,539,1096,4774,80,-92,65,-19,-219
2,2493941,-1416,539,1096,4774,80,-92,65,-19,-219
2,2493950,-1417,543,1090,4777,78,-89,65,-19,-219
2,2493964,-1413,528,1098,4771,94,-90,65,-19,-219
2,2493978,-1413,528,1098,4771,94,-90,65,-19,-219
2,2493991,-1410,533,1099,4780,89,-84,65,-19,-219
2,2494004,-1414,520,1102,4783,88,-84,65,-19,-219
2,2494018,-1414,520,1102,4783,88,-84,65,-19,-219
2,2494031,-1412,525,1099,4785,90,-88,82,-22,-220
2,2494046,-1413,528,1101,4789,93,-82,82,-22,-220
2,2494060,-1413,528,1101,4789,93,-82,82,-22,-220
2,2494075,-1412,517,1095,4788,89,-88,82,-22,-220
2,2494090,-1414,519,1101,4786,88,-90,82,-22,-220
2,2494104,-1413,528,1098,4783,81,-82,82,-22,-220
2,2494117,-1413,528,1098,4783,81,-82,82,-22,-220
2,2494132,-1416,512,1097,4781,85,-86,82,-22,-220
2,2494145,-1413,518,1099,4786,77,-95,87,-19,-229
2,2494159,-1413,518,1099,4786,77,-95,87,-19,-229
2,2494172,-1416,505,1101,4783,89,-88,87,-19,-229
2,2494184,-1414,514,1102,4789,92,-90,87,-19,-229
2,2494199,-1414,514,1102,4789,92,-90,87,-19,-229
2,2494214,-1412,507,1102,4785,90,-81,87,-19,-229
2,2494228,-1412,467,1105,4789,93,-86,87,-19,-229
2,2494240,-1412,467,1105,4789,93,-86,87,-19,-229
2,2494255,-1408,504,1099,4783,96,-85,87,-19,-229
2,2494270,-1414,485,1102,4787,89,-87,95,-7,-225
2,2494283,-1417,487,1096,4793,89,-87,95,-7,-225
2,2494298,-1417,487,1096,4793,89,-87,95,-7,-225
2,2494311,-1409,467,1098,4787,85,-89,95,-7,-225
2,2494325,-1416,475,1098,4788,86,-91,95,-7,-225
2,2494340,-1416,475,1098,4788,86,-91,95,-7,-225
2,2494352,-1408,463,1099,4781,86,-85,95,-7,-225
2,2494365,-1420,469,1096,4784,87,-86,95,-7,-225
2,2494380,-1420,469,1096,4784,87,-86,95,-7,-225
2,2494394,-1409,469,1089,4779,86,-86,99,-19,-227
2,2494407,-1412,493,1099,4776,88,-82,99,-19,-227
2,2494417,-1412,493,1099,4776,88,-82,99,-19,-227
2,2494433,-1414,476,1099,4777,87,-80,99,-19,-227
2,2494447,-1417,480,1090,4777,79,-83,99,-19,-227
2,2494461,-1417,480,1090,4777,79,-83,99,-19,-227
2,2494474,-1409,480,1091,4782,90,-91,99,-19,-227
2,2494488,-1413,485,1091,4780,93,-82,99,-19,-227
2,2494503,-1413,479,1085,4766,83,-87,99,-19,-227
2,2494518,-1413,479,1085,4766,83,-87,99,-19,-227
2,2494532,-1415,490,1087,4767,87,-83,106,-18,-232
2,2494545,-1414,488,1088,4772,96,-91,106,-18,-232
2,2494560,-1414,488,1088,4772,96,-91,106,-18,-232
2,2494572,-1414,492,1093,4770,95,-89,106,-18,-232
2,2494585,-1414,508,1088,4775,91,-84,106,-18,-232
2,2494599,-1414,508,1088,4775,91,-84,106,-18,-232
2,2494612,-1416,495,1084,4774,87,-92,106,-18,-232
2,2494627,-1411,494,1090,4774,85,-90,106,-18,-232
2,2494638,-1411,494,1090,4774,85,-90,106,-18,-232
2,2494653,-1410,506,1093,4772,86,-91,111,-23,-227
2,2494666,-1419,506,1084,4770,92,-86,111,-23,-227
2,2494681,-1419,506,1084,4770,92,-86,111,-23,-227
2,2494692,-1411,510,1082,4771,89,-90,111,-23,-227
2,2494705,-1414,506,1084,4773,93,-89,111,-23,-227
2,2494720,-1414,506,1084,4773,93,-89,111,-23,-227
2,2494733,-1410,515,1086,4772,84,-83,111,-23,-227
2,2494747,-1416,522,1087,4771,89,-84,111,-23,-227
2,2494761,-1416,522,1087,4771,89,-84,111,-23,-227
2,2494774,-1419,538,1093,4770,87,-90,119,-25,-235
2,2494787,-1411,530,1091,4767,88,-95,119,-25,-235
2,2494800,-1411,530,1091,4767,88,-95,119,-25,-235
2,2494813,-1417,523,1100,4770,80,-84,119,-25,-235
2,2494828,-1413,540,1091,4775,89,-82,119,-25,-235
2,2494842,-1413,540,1091,4775,89,-82,119,-25,-235
2,2494856,-1422,548,1092,4769,97,-92,119,-25,-235
2,2494869,-1410,539,1090,4770,89,-92,119,-25,-235
2,2494885,-1422,538,1095,4778,90,-86,124,-18,-234
2,2494900,-1422,538,1095,4778,90,-86,124,-18,-234
2,2494913,-1415,542,1097,4781,88,-90,124,-18,-234
2,2494924,-1419,552,1098,4774,92,-85,124,-18,-234
2,2494938,-1419,552,1098,4774,92,-85,124,-18,-234
2,2494952,-1415,534,1096,4784,90,-89,124,-18,-234
2,2494965,-1412,524,1102,4784,86,-89,124,-18,-234
2,2494982,-1412,524,1102,4784,86,-89,124,-18,-234
2,2494995,-1415,532,1098,4784,91,-83,124,-18,-234
2,2495005,-1414,533,1095,4780,92,-80,125,-19,-233
2,2495020,-1414,533,1095,4780,92,-80,125,-19,-233
2,2495034,-1418,531,1101,4780,98,-87,125,-19,-233
2,2495047,-1414,533,1095,4781,87,-85,125,-19,-233
2,2495063,-1414,533,1095,4781,87,-85,125,-19,-233
2,2495077,-1411,518,1102,4785,95,-86,125,-19,-233
2,2495092,-1413,522,1094,4785,84,-93,125,-19,-233
2,2495105,-1416,517,1100,4786,84,-86,125,-19,-233
2,2495120,-1416,517,1100,4786,84,-86,125,-19,-233
2,2495134,-1412,505,1098,4791,96,-91,125,-19,-233
2,2495150,-1408,503,1108,4789,91,-86,126,-32,-234
2,2495161,-1408,503,1108,4789,91,-86,126,-32,-234
2,2495174,-1411,482,1099,4781,88,-84,126,-32,-234
2,2495188,-1412,488,1100,4787,89,-84,126,-32,-234
2,2495202,-1412,488,1100,4787,89,-84,126,-32,-234
2,2495216,-1414,491,1102,4782,88,-83,126,-32,-234
2,2495229,-1414,500,1101,4783,89,-87,126,-32,-234
2,2495242,-1414,500,1101,4783,89,-87,126,-32,-234
2,2495255,-1415,463,1097,4782,87,-85,126,-32,-234
2,2495268,-1412,485,1097,4786,84,-87,139,-19,-241
2,2495284,-1412,485,1097,4786,84,-87,139,-19,-241
2,2495297,-1411,470,1099,4782,98,-83,139,-19,-241
2,2495311,-1415,488,1098,4779,90,-89,139,-19,-241
2,2495324,-1413,458,1099,4781,89,-88,139,-19,-241
2,2495338,-1413,458,1099,4781,89,-88,139,-19,-241
2,2495352,-1414,484,1092,4779,90,-98,139,-19,-241
2,2495368,-1409,472,1095,4782,91,-96,139,-19,-241
2,2495380,-1409,472,1095,4782,91,-96,139,-19,-241
2,2495394,-1417,484,1099,4775,90,-94,140,-26,-242
2,2495410,-1413,477,1093,4771,84,-86,140,-26,-242
2,2495422,-1413,477,1093,4771,84,-86,140,-26,-242
2,2495432,-1414,490,1094,4766,88,-82,140,-26,-242
2,2495443,-1414,490,1094,4766,88,-82,140,-26,-242
2,2495457,-1411,473,1088,4773,89,-86,140,-26,-242
2,2495471,-1417,486,1088,4770,85,-87,140,-26,-242
2,2495485,-1414,486,1088,4775,83,-91,140,-26,-242
2,2495499,-1414,486,1088,4775,83,-91,140,-26,-242
2,2495508,-1412,493,1098,4767,89,-91,137,-21,-231
2,2495523,-1412,493,1098,4767,89,-91,137,-21,-231
2,2495537,-1412,509,1088,4773,92,-95,137,-21,-231
2,2495550,-1417,490,1088,4772,86,-87,137,-21,-231
2,2495565,-1412,498,1089,4767,88,-86,137,-21,-231
2,2495581,-1412,498,1089,4767,88,-86,137,-21,-231
2,2495594,-1410,496,1090,4765,95,-97,137,-21,-231
2,2495605,-1418,501,1088,4761,85,-89,137,-21,-231
2,2495622,-1418,501,1088,4761,85,-89,137,-21,-231
2,2495637,-1414,499,1083,4764,79,-91,153,-15,-233
2,2495651,-1417,504,1091,4762,89,-81,153,-15,-233
2,2495665,-1410,514,1084,4764,90,-76,153,-15,-233
2,2495678,-1410,514,1084,4764,90,-76,153,-15,-233
2,2495692,-1421,503,1089,4762,91,-78,153,-15,-233
2,2495706,-1417,522,1089,4770,91,-78,153,-15,-233
2,2495720,-1417,522,1089,4770,91,-78,153,-15,-233
2,2495733,-1417,534,1087,4764,85,-88,153,-15,-233
2,2495748,-1414,525,1089,4768,75,-85,153,-15,-233
2,2495760,-1414,525,1089,4768,75,-85,153,-15,-233
2,2495773,-1417,529,1091,4767,80,-88,145,-19,-227
2,2495784,-1417,529,1091,4767,80,-88,145,-19,-227
2,2495797,-1420,545,1096,4781,84,-87,145,-19,-227
2,2495809,-1416,546,1087,4780,89,-78,145,-19,-227
2,2495824,-1421,542,1094,4774,85,-83,145,-19,-227
2,2495837,-1421,542,1094,4774,85,-83,145,-19,-227
2,2495850,-1414,543,1090,4776,84,-87,145,-19,-227
2,2495865,-1416,533,1098,4782,96,-91,145,-19,-227
2,2495881,-1416,533,1098,4782,96,-91,145,-19,-227
2,2495895,-1414,537,1096,4784,92,-87,153,-19,-217
2,2495908,-1418,528,1100,4785,90,-90,153,-19,-217
2,2495924,-1418,528,1100,4785,90,-90,153,-19,-217
2,2495933,-1418,539,1093,4786,90,-95,153,-19,-217
2,2495945,-1415,532,1098,4786,90,-82,153,-19,-217
2,2495960,-1415,532,1098,4786,90,-82,153,-19,-217
2,2495973,-1418,522,1098,4792,86,-82,153,-19,-217
2,2495986,-1417,535,1096,4780,84,-95,153,-19,-217
2,2496000,-1417,535,1096,4780,84,-95,153,-19,-217
2,2496013,-1415,522,1103,4787,86,-93,161,-3,-223
2,2496026,-1411,520,1102,4779,91,-87,161,-3,-223
2,2496040,-1411,520,1102,4779,91,-87,161,-3,-223
2,2496054,-1415,520,1101,4791,89,-92,161,-3,-223
2,2496068,-1412,508,1093,4794,82,-92,161,-3,-223
2,2496082,-1412,508,1093,4794,82,-92,161,-3,-223
2,2496097,-1412,508,1093,4794,82,-92,161,-3,-223
2,2496111,-1414,498,1096,4796,93,-94,161,-3,-223
2,2496125,-1411,470,1105,4795,85,-91,163,-11,-215
2,2496140,-1411,470,1105,4795,85,-91,163,-11,-215
2,2496153,-1406,500,1101,4788,84,-81,163,-11,-215
2,2496165,-1415,487,1106,4789,87,-84,163,-11,-215
2,2496179,-1415,487,1106,4789,87,-84,163,-11,-215
2,2496193,-1418,478,1096,4782,87,-80,163,-11,-215
2,2496206,-1409,469,1093,4786,92,-89,163,-11,-215
2,2496220,-1409,469,1093,4786,92,-89,163,-11,-215
2,2496235,-1412,479,1101,4785,96,-84,163,-11,-215
2,2496246,-1412,463,1097,4788,90,-77,159,-9,-209
2,2496261,-1412,463,1097,4788,90,-77,159,-9,-209
2,2496274,-1416,459,1106,4787,84,-83,159,-9,-209
2,2496287,-1410,475,1095,4782,89,-87,159,-9,-209
2,2496303,-1410,475,1095,4782,89,-87,159,-9,-209
2,2496318,-1411,484,1097,4782,96,-90,159,-9,-209
2,2496332,-1409,475,1088,4778,81,-85,159,-9,-209
2,2496346,-1415,478,1093,4780,87,-88,159,-9,-209
2,2496360,-1415,478,1093,4780,87,-88,159,-9,-209
2,2496375,-1412,480,1092,4773,91,-96,159,-9,-209
2,2496391,-1411,481,1092,4773,88,-92,157,-5,-205
2,2496404,-1411,481,1092,4773,88,-92,157,-5,-205
2,2496414,-1416,480,1092,4778,81,-89,157,-5,-205
2,2496429,-1416,486,1084,4771,87,-85,157,-5,-205
2,2496442,-1416,486,1084,4771,87,-85,157,-5,-205
2,2496456,-1417,485,1091,4767,93,-82,157,-5,-205
2,2496471,-1413,493,1091,4772,86,-81,157,-5,-205
2,2496483,-1413,493,1091,4772,86,-81,157,-5,-205
2,2496495,-1419,504,1085,4773,86,-85,157,-5,-205
2,2496510,-1417,496,1091,4767,97,-90,167,-7,-209
2,2496527,-1414,488,1088,4768,92,-87,167,-7,-209
2,2496542,-1414,488,1088,4768,92,-87,167,-7,-209
2,2496558,-1412,504,1089,4766,92,-80,167,-7,-209
2,2496571,-1420,501,1086,4769,84,-83,167,-7,-209
2,2496584,-1420,501,1086,4769,84,-83,167,-7,-209
2,2496600,-1412,509,1085,4770,88,-92,167,-7,-209
2,2496615,-1415,500,1088,4771,85,-87,167,-7,-209
2,2496628,-1415,514,1090,4768,84,-87,178,-2,-200
2,2496643,-1415,514,1090,4768,84,-87,178,-2,-200
2,2496654,-1415,511,1085,4770,85,-82,178,-2,-200
2,2496668,-1418,527,1090,4774,83,-89,178,-2,-200
2,2496684,-1418,527,1090,4774,83,-89,178,-2,-200
2,2496696,-1413,531,1084,4771,87,-85,178,-2,-200
2,2496710,-1414,522,1090,4771,87,-85,178,-2,-200
2,2496724,-1414,522,1090,4771,87,-85,178,-2,-200
2,2496739,-1412,538,1083,4774,86,-87,178,-2,-200
2,2496751,-1421,543,1090,4771,88,-86,167,-1,-197
2,2496763,-1421,543,1090,4771,88,-86,167,-1,-197
2,2496779,-1418,547,1087,4770,81,-87,167,-1,-197
2,2496794,-1419,545,1091,4772,88,-89,167,-1,-197
2,2496808,-1418,540,1094,4772,90,-87,167,-1,-197
2,2496822,-1418,540,1094,4772,90,-87,167,-1,-197
2,2496833,-1416,544,1097,4785,92,-92,167,-1,-197
2,2496847,-1418,525,1103,4776,83,-89,167,-1,-197
2,2496863,-1418,525,1103,4776,83,-89,167,-1,-197
2,2496878,-1412,527,1098,4785,79,-87,163,-9,-191
2,2496892,-1416,531,1106,4788,90,-84,163,-9,-191
2,2496906,-1413,531,1100,4788,95,-83,163,-9,-191
2,2496918,-1413,531,1100,4788,95,-83,163,-9,-191
2,2496932,-1414,530,1101,4786,86,-87,163,-9,-191
2,2496947,-1414,537,1097,4789,83,-88,163,-9,-191
2,2496960,-1414,537,1097,4789,83,-88,163,-9,-191
2,2496974,-1415,517,1103,4781,90,-89,163,-9,-191
2,2496989,-1413,519,1099,4791,97,-93,163,-9,-191
2,2497001,-1413,519,1099,4791,97,-93,163,-9,-191
2,2497014,-1413,519,1099,4791,97,-93,177,-3,-201
2,2497030,-1412,512,1100,4790,94,-87,177,-3,-201
2,2497045,-1412,512,1100,4790,94,-87,177,-3,-201
2,2497060,-1410,503,1102,4790,94,-81,177,-3,-201
2,2497074,-1412,484,1098,4790,93,-89,177,-3,-201
2,2497087,-1413,479,1095,4795,93,-91,177,-3,-201
2,2497102,-1413,479,1095,4795,93,-91,177,-3,-201
2,2497117,-1415,498,1101,4793,90,-85,177,-3,-201
2,2497131,-1415,502,1101,4790,89,-86,167,-9,-189
2,2497145,-1415,502,1101,4790,89,-86,167,-9,-189
2,2497159,-1414,467,1098,4790,88,-91,167,-9,-189
2,2497173,-1408,478,1091,4783,91,-99,167,-9,-189
2,2497186,-1413,467,1098,4781,89,-86,167,-9,-189
2,2497199,-1413,467,1098,4781,89,-86,167,-9,-189
2,2497213,-1413,481,1098,4785,88,-85,167,-9,-189
2,2497227,-1414,454,1098,4784,89,-86,167,-9,-189
2,2497242,-1414,454,1098,4784,89,-86,167,-9,-189
2,2497254,-1410,480,1096,4784,94,-87,169,1,-181
2,2497268,-1412,474,1095,4782,101,-82,169,1,-181
2,2497283,-1412,474,1095,4782,101,-82,169,1,-181
2,2497298,-1414,483,1092,4782,83,-79,169,1,-181
2,2497313,-1417,477,1086,4777,87,-85,169,1,-181
2,2497329,-1412,483,1094,4779,91,-89,169,1,-181
2,2497341,-1412,483,1094,4779,91,-89,169,1,-181
2,2497353,-1409,473,1085,4772,89,-81,169,1,-181
2,2497367,-1418,485,1093,4779,82,-78,159,-9,-173
2,2497381,-1418,485,1093,4779,82,-78,159,-9,-173
2,2497394,-1414,483,1086,4771,86,-89,159,-9,-173
2,2497409,-1412,485,1094,4766,93,-84,159,-9,-173
2,2497419,-1412,485,1094,4766,93,-84,159,-9,-173
2,2497433,-1413,510,1091,4772,86,-81,159,-9,-173
2,2497447,-1415,489,1091,4769,87,-79,159,-9,-173
2,2497461,-1415,489,1091,4769,87,-79,159,-9,-173
2,2497469,-1412,500,1089,4769,87,-87,159,-9,-173
2,2497483,-1412,500,1089,4769,87,-87,159,-9,-173
2,2497499,-1411,483,1088,4766,85,-93,158,-4,-172
2,2497512,-1415,505,1088,4767,88,-87,158,-4,-172
2,2497524,-1415,505,1088,4767,88,-87,158,-4,-172
2,2497539,-1419,501,1085,4764,84,-86,158,-4,-172
2,2497553,-1420,505,1085,4769,87,-92,158,-4,-172
2,2497567,-1411,498,1088,4769,89,-94,158,-4,-172
2,2497582,-1411,498,1088,4769,89,-94,158,-4,-172
2,2497596,-1418,509,1089,4768,93,-85,158,-4,-172
2,2497610,-1414,510,1084,4765,81,-87,158,-4,-172
2,2497623,-1414,510,1084,4765,81,-87,158,-4,-172
2,2497635,-1416,519,1093,4762,80,-91,172,-4,-174
2,2497650,-1411,527,1090,4759,90,-87,172,-4,-174
2,2497664,-1411,527,1090,4759,90,-87,172,-4,-174
2,2497678,-1416,531,1084,4770,87,-90,172,-4,-174
2,2497693,-1416,542,1089,4768,85,-82,172,-4,-174
2,2497709,-1418,545,1088,4768,94,-79,172,-4,-174
2,2497725,-1418,545,1088,4768,94,-79,172,-4,-174
2,2497739,-1417,547,1097,4770,87,-81,172,-4,-174
2,2497756,-1421,539,1090,4769,88,-83,172,-4,-156
2,2497771,-1418,535,1098,4774,92,-82,172,-4,-156
2,2497784,-1418,535,1098,4774,92,-82,172,-4,-156
2,2497801,-1415,537,1085,4769,85,-87,172,-4,-156
2,2497811,-1415,522,1106,4777,87,-83,172,-4,-156
2,2497823,-1415,522,1106,4777,87,-83,172,-4,-156
2,2497837,-1412,534,1091,4781,84,-91,172,-4,-156
2,2497851,-1416,530,1097,4781,90,-89,172,-4,-156
2,2497864,-1416,530,1097,4781,90,-89,172,-4,-156
2,2497879,-1414,531,1096,4783,89,-90,157,-17,-153
2,2497891,-1417,535,1101,4788,93,-87,157,-17,-153
2,2497903,-1417,535,1101,4788,93,-87,157,-17,-153
2,2497918,-1417,525,1099,4790,96,-95,157,-17,-153
2,2497933,-1417,525,1099,4790,96,-95,157,-17,-153
2,2497947,-1415,516,1103,4788,87,-87,157,-17,-153
2,2497960,-1415,516,1103,4788,87,-87,157,-17,-153
2,2497975,-1414,497,1100,4793,84,-90,157,-17,-153
2,2497991,-1415,506,1103,4792,86,-93,157,-15,-143
2,2498004,-1415,506,1103,4792,86,-93,157,-15,-143
2,2498019,-1414,512,1100,4788,81,-79,157,-15,-143
2,2498034,-1413,456,1102,4792,89,-81,157,-15,-143
2,2498050,-1410,503,1098,4790,90,-88,157,-15,-143
2,2498063,-1410,503,1098,4790,90,-88,157,-15,-143
2,2498076,-1413,483,1098,4794,94,-83,157,-15,-143
2,2498091,-1414,500,1098,4791,89,-85,157,-15,-143
2,2498104,-1414,500,1098,4791,89,-85,157,-15,-143
2,2498118,-1412,465,1099,4789,81,-89,144,-16,-142
2,2498132,-1417,477,1099,4779,80,-90,144,-16,-142
2,2498147,-1417,477,1099,4779,80,-90,144,-16,-142
2,2498161,-1408,471,1093,4783,78,-82,144,-16,-142
2,2498173,-1418,474,1094,4785,78,-85,144,-16,-142
2,2498188,-1410,463,1092,4781,84,-87,144,-16,-142
2,2498203,-1410,463,1092,4781,84,-87,144,-16,-142
2,2498219,-1408,477,1100,4774,89,-88,144,-16,-142
2,2498234,-1412,482,1088,4774,84,-82,139,-21,-141
2,2498246,-1412,482,1088,4774,84,-82,139,-21,-141
2,2498258,-1419,480,1093,4772,82,-78,139,-21,-141
2,2498274,-1412,481,1087,4774,88,-93,139,-21,-141
2,2498288,-1414,478,1092,4771,90,-88,139,-21,-141
2,2498304,-1414,478,1092,4771,90,-88,139,-21,-141
2,2498317,-1412,477,1088,4772,90,-90,139,-21,-141
2,2498332,-1418,485,1088,4775,85,-81,139,-21,-141
2,2498344,-1418,485,1088,4775,85,-81,139,-21,-141
2,2498357,-1417,484,1083,4775,92,-81,139,-21,-141
2,2498371,-1410,499,1097,4765,83,-87,143,-17,-135
2,2498387,-1417,497,1087,4775,80,-73,143,-17,-135
2,2498402,-1417,497,1087,4775,80,-73,143,-17,-135
2,2498416,-1413,499,1086,4771,82,-90,143,-17,-135
2,2498429,-1415,492,1088,4770,89,-88,143,-17,-135
2,2498445,-1415,492,1088,4770,89,-88,143,-17,-135
2,2498460,-1408,513,1089,4767,89,-88,143,-17,-135
2,2498476,-1419,493,1086,4762,82,-82,143,-17,-135
2,2498490,-1413,508,1086,4769,89,-94,147,-17,-125
2,2498504,-1413,508,1086,4769,89,-94,147,-17,-125
2,2498516,-1412,500,1090,4764,94,-94,147,-17,-125
2,2498532,-1416,515,1084,4764,87,-83,147,-17,-125
2,2498544,-1416,515,1084,4764,87,-83,147,-17,-125
2,2498556,-1412,505,1089,4767,79,-82,147,-17,-125
2,2498572,-1422,526,1083,4769,84,-81,147,-17,-125
2,2498586,-1422,526,1083,4769,84,-81,147,-17,-125
2,2498600,-1413,531,1083,4773,92,-90,147,-17,-125
2,2498616,-1420,524,1095,4763,86,-91,135,-17,-133
2,2498630,-1418,540,1088,4762,72,-85,135,-17,-133
2,2498646,-1418,540,1088,4762,72,-85,135,-17,-133
2,2498661,-1420,543,1095,4768,87,-88,135,-17,-133
2,2498676,-1420,551,1085,4775,90,-86,135,-17,-133
2,2498691,-1420,546,1095,4778,86,-79,135,-17,-133
2,2498704,-1420,546,1095,4778,86,-79,135,-17,-133
2,2498715,-1424,535,1091,4774,90,-84,135,-17,-133
2,2498728,-1418,539,1092,4779,96,-89,121,-21,-131
2,2498742,-1418,539,1092,4779,96,-89,121,-21,-131
2,2498755,-1414,522,1099,4781,85,-84,121,-21,-131
2,2498769,-1417,523,1098,4783,91,-87,121,-21,-131
2,2498784,-1417,523,1098,4783,91,-87,121,-21,-131
2,2498800,-1414,528,1095,4780,90,-94,121,-21,-131
2,2498816,-1417,526,1100,4791,84,-86,121,-21,-131
2,2498830,-1416,533,1097,4787,87,-84,121,-21,-131
2,2498842,-1416,533,1097,4787,87,-84,121,-21,-131
2,2498857,-1417,534,1099,4788,79,-85,122,-28,-104
2,2498872,-1417,518,1102,4782,86,-91,122,-28,-104
2,2498890,-1414,518,1104,4780,97,-87,122,-28,-104
2,2498899,-1414,518,1104,4780,97,-87,122,-28,-104
2,2498913,-1418,504,1100,4790,87,-90,122,-28,-104
2,2498928,-1414,504,1100,4796,89,-88,122,-28,-104
2,2498942,-1414,504,1100,4796,89,-88,122,-28,-104
2,2498956,-1412,504,1097,4790,91,-85,122,-28,-104
2,2498970,-1412,471,1099,4784,91,-84,122,-28,-104
2,2498984,-1412,471,1099,4784,91,-84,122,-28,-104
2,2498998,-1411,492,1105,4780,89,-83,113,-25,-111
2,2499009,-1413,489,1095,4785,87,-88,113,-25,-111
2,2499023,-1413,489,1095,4785,87,-88,113,-25,-111
2,2499038,-1407,502,1101,4782,94,-86,113,-25,-111
2,2499051,-1417,459,1096,4792,84,-89,113,-25,-111
2,2499067,-1417,459,1096,4792,84,-89,113,-25,-111
2,2499084,-1408,477,1095,4779,84,-88,113,-25,-111
2,2499099,-1410,468,1098,4781,86,-85,113,-25,-111
2,2499115,-1418,471,1093,4781,82,-83,113,-27,-107
2,2499130,-1412,464,1099,4778,81,-85,113,-27,-107
2,2499145,-1412,464,1099,4778,81,-85,113,-27,-107
2,2499160,-1411,487,1092,4781,83,-88,113,-27,-107
2,2499173,-1410,474,1092,4777,86,-86,113,-27,-107
2,2499187,-1415,480,1092,4773,88,-90,113,-27,-107
2,2499200,-1415,480,1092,4773,88,-90,113,-27,-107
2,2499213,-1409,481,1087,4776,84,-101,113,-27,-107
2,2499227,-1409,481,1087,4776,84,-101,113,-27,-107
2,2499241,-1412,487,1093,4768,87,-89,108,-30,-110
2,2499255,-1413,474,1089,4771,85,-90,108,-30,-110
2,2499269,-1417,486,1085,4772,79,-88,108,-30,-110
2,2499280,-1417,486,1085,4772,79,-88,108,-30,-110
2,2499294,-1411,484,1084,4769,87,-93,108,-30,-110
2,2499309,-1410,487,1090,4768,92,-94,108,-30,-110
2,2499322,-1410,487,1090,4768,92,-94,108,-30,-110
2,2499337,-1415,502,1089,4768,81,-88,108,-30,-110
2,2499351,-1417,484,1088,4762,77,-84,99,-29,-105
2,2499366,-1417,484,1088,4762,77,-84,99,-29,-105
2,2499383,-1409,490,1092,4762,84,-90,99,-29,-105
2,2499398,-1406,505,1090,4763,79,-89,99,-29,-105
2,2499411,-1420,502,1093,4773,77,-79,99,-29,-105
2,2499426,-1420,502,1093,4773,77,-79,99,-29,-105
2,2499440,-1415,508,1085,4761,81,-88,99,-29,-105
2,2499453,-1421,503,1085,4756,85,-93,99,-29,-105
2,2499465,-1421,503,1085,4756,85,-93,99,-29,-105
2,2499478,-1407,511,1085,4763,81,-96,98,-26,-102
2,2499492,-1421,506,1092,4766,76,-89,98,-26,-102
2,2499506,-1421,506,1092,4766,76,-89,98,-26,-102
2,2499520,-1416,533,1087,4765,84,-80,98,-26,-102
2,2499531,-1416,525,1093,4765,90,-85,98,-26,-102
2,2499545,-1416,525,1093,4765,90,-85,98,-26,-102
2,2499559,-1415,514,1093,4769,83,-81,98,-26,-102
2,2499573,-1417,534,1086,4765,93,-85,98,-26,-102
2,2499587,-1417,534,1086,4765,93,-85,98,-26,-102
2,2499602,-1420,550,1091,4771,95,-84,98,-26,-102
2,2499618,-1416,543,1092,4769,88,-89,99,-25,-99
2,2499633,-1420,537,1095,4776,79,-86,99,-25,-99
2,2499645,-1420,537,1095,4776,79,-86,99,-25,-99
2,2499660,-1411,535,1094,4780,80,-93,99,-25,-99
2,2499675,-1421,536,1102,4777,87,-89,99,-25,-99
2,2499689,-1421,536,1102,4777,87,-89,99,-25,-99
2,2499700,-1421,536,1102,4777,87,-89,99,-25,-99
2,2499714,-1415,525,1099,4786,94,-89,99,-25,-99
2,2499728,-1415,525,1099,4786,94,-89,99,-25,-99
2,2499743,-1414,523,1095,4781,83,-90,89,-41,-95
2,2499758,-1416,529,1107,4784,89,-85,89,-41,-95
2,2499772,-1415,527,1097,4785,89,-88,89,-41,-95
2,2499784,-1415,527,1097,4785,89,-88,89,-41,-95
2,2499799,-1413,528,1102,4783,88,-93,89,-41,-95
2,2499814,-1412,514,1099,4785,96,-85,89,-41,-95
2,2499828,-1412,514,1099,4785,96,-85,89,-41,-95
2,2499844,-1415,515,1102,4789,86,-87,89,-41,-95
2,2499856,-1415,514,1099,4788,83,-84,90,-36,-98
2,2499870,-1414,504,1101,4782,92,-88,90,-36,-98
2,2499886,-1414,504,1101,4782,92,-88,90,-36,-98
2,2499901,-1415,499,1103,4787,93,-88,90,-36,-98
2,2499915,-1411,497,1095,4792,85,-83,90,-36,-98
2,2499930,-1419,464,1098,4787,83,-81,90,-36,-98
2,2499944,-1419,464,1098,4787,83,-81,90,-36,-98
2,2499952,-1408,496,1096,4784,86,-85,90,-36,-98
2,2499966,-1408,496,1096,4784,86,-85,90,-36,-98
2,2499981,-1416,487,1106,4789,86,-90,82,-28,-106
2,2499994,-1417,477,1101,4795,79,-91,82,-28,-106
2,2500008,-1409,474,1095,4786,80,-89,82,-28,-106
2,2500023,-1409,474,1095,4786,80,-89,82,-28,-106
2,2500037,-1415,470,1104,4775,81,-85,82,-28,-106
2,2500048,-1409,476,1088,4775,75,-88,82,-28,-106
2,2500064,-1409,476,1088,4775,75,-88,82,-28,-106
2,2500079,-1420,454,1096,4782,80,-93,82,-28,-106
2,2500094,-1406,474,1089,4775,82,-90,86,-34,-100
2,2500110,-1406,474,1089,4775,82,-90,86,-34,-100
2,2500123,-1406,474,1089,4775,82,-90,86,-34,-100
2,2500135,-1412,479,1094,4775,84,-88,86,-34,-100
2,2500149,-1412,479,1094,4775,84,-88,86,-34,-100
2,2500162,-1415,476,1089,4773,80,-86,86,-34,-100
2,2500176,-1414,486,1090,4768,78,-89,86,-34,-100
2,2500186,-1414,486,1090,4768,78,-89,86,-34,-100
2,2500193,-1407,475,1092,4772,89,-80,86,-34,-100
2,2500202,-1407,475,1092,4772,89,-80,86,-34,-100
2,2500215,-1422,485,1087,4776,79,-77,86,-34,-100
2,2500229,-1411,484,1083,4766,80,-92,86,-34,-100
2,2500243,-1411,484,1083,4766,80,-92,70,-36,-100
2,2500251,-1416,496,1091,4764,91,-93,70,-36,-100
2,2500264,-1416,496,1091,4764,91,-93,70,-36,-100
2,2500280,-1414,496,1082,4765,83,-90,70,-36,-100
2,2500294,-1416,491,1094,4768,81,-95,70,-36,-100
2,2500307,-1416,491,1094,4768,81,-95,70,-36,-100
2,2500322,-1416,490,1084,4766,86,-101,70,-36,-100
2,2500337,-1411,509,1089,4769,98,-96,70,-36,-100
2,2500353,-1413,497,1090,4766,81,-87,67,-31,-99
2,2500366,-1413,497,1090,4766,81,-87,67,-31,-99
2,2500380,-1417,506,1090,4767,74,-90,67,-31,-99
2,2500395,-1415,503,1088,4770,79,-87,67,-31,-99
2,2500408,-1415,503,1088,4770,79,-87,67,-31,-99
2,2500419,-1413,517,1084,4770,85,-90,67,-31,-99
2,2500432,-1413,502,1092,4763,87,-88,67,-31,-99
2,2500448,-1413,502,1092,4763,87,-88,67,-31,-99
2,2500461,-1423,529,1087,4765,81,-94,67,-31,-99
2,2500475,-1416,524,1093,4775,90,-86,68,-26,-102
2,2500491,-1414,523,1090,4769,94,-85,68,-26,-102
2,2500503,-1414,523,1090,4769,94,-85,68,-26,-102
2,2500517,-1419,522,1090,4776,84,-88,68,-26,-102
2,2500532,-1419,545,1091,4776,81,-88,68,-26,-102
2,2500547,-1419,545,1091,4776,81,-88,68,-26,-102
2,2500558,-1417,536,1091,4773,87,-81,68,-26,-102
2,2500573,-1419,539,1094,4777,94,-81,68,-26,-102
2,2500587,-1419,539,1094,4777,94,-81,68,-26,-102
2,2500600,-1419,540,1092,4772,93,-87,62,-26,-102
2,2500614,-1419,539,1097,4779,88,-84,62,-26,-102
2,2500628,-1419,539,1097,4779,88,-84,62,-26,-102
2,2500641,-1412,532,1094,4786,89,-85,62,-26,-102
2,2500654,-1418,516,1099,4780,83,-87,62,-26,-102
2,2500668,-1418,516,1099,4780,83,-87,62,-26,-102
2,2500681,-1414,520,1097,4781,89,-86,62,-26,-102
2,2500696,-1418,523,1103,4780,93,-82,62,-26,-102
2,2500710,-1416,521,1093,4784,83,-82,60,-34,-106
2,2500725,-1416,521,1093,4784,83,-82,60,-34,-106
2,2500740,-1418,531,1107,4790,83,-88,60,-34,-106
2,2500753,-1416,518,1098,4790,88,-86,60,-34,-106
2,2500767,-1416,518,1098,4790,88,-86,60,-34,-106
2,2500782,-1414,514,1101,4782,94,-89,60,-34,-106
2,2500797,-1416,511,1098,4782,82,-79,60,-34,-106
2,2500809,-1413,507,1093,4781,83,-83,60,-34,-106
2,2500825,-1413,507,1093,4781,83,-83,60,-34,-106
2,2500839,-1415,501,1099,4782,84,-87,60,-34,-106
2,2500855,-1415,492,1101,4785,82,-92,57,-23,-111
2,2500869,-1415,492,1101,4785,82,-92,57,-23,-111
2,2500883,-1414,466,1099,4791,89,-86,57,-23,-111
2,2500897,-1412,500,1094,4791,88,-86,57,-23,-111
2,2500910,-1414,486,1099,4779,89,-84,57,-23,-111
2,2500922,-1414,486,1099,4779,89,-84,57,-23,-111
2,2500936,-1415,479,1100,4781,83,-91,57,-23,-111
2,2500951,-1406,461,1096,4785,89,-90,57,-23,-111
2,2500964,-1406,461,1096,4785,89,-90,57,-23,-111
2,2500978,-1413,473,1101,4781,96,-85,61,-31,-113
2,2500990,-1412,470,1098,4781,82,-82,61,-31,-113
2,2501003,-1412,470,1098,4781,82,-82,61,-31,-113
2,2501018,-1415,464,1095,4776,83,-84,61,-31,-113
2,2501032,-1412,471,1085,4779,88,-99,61,-31,-113
2,2501046,-1412,471,1085,4779,88,-99,61,-31,-113
2,2501061,-1415,479,1099,4781,90,-90,61,-31,-113
2,2501075,-1411,475,1091,4783,82,-84,61,-31,-113
2,2501091,-1418,479,1089,4778,87,-86,62,-28,-118
2,2501106,-1418,479,1089,4778,87,-86,62,-28,-118
2,2501121,-1410,482,1094,4773,89,-88,62,-28,-118
2,2501134,-1412,480,1091,4770,88,-89,62,-28,-118
2,2501148,-1412,480,1091,4770,88,-89,62,-28,-118
2,2501160,-1414,479,1094,4773,79,-89,62,-28,-118
2,2501174,-1416,486,1086,4764,83,-86,62,-28,-118
2,2501187,-1416,486,1086,4764,83,-86,62,-28,-118
2,2501201,-1415,483,1089,4770,86,-85,62,-28,-118
2,2501215,-1415,509,1087,4765,83,-91,58,-26,-122
2,2501229,-1415,509,1087,4765,83,-91,58,-26,-122
2,2501242,-1419,481,1086,4763,81,-76,58,-26,-122
2,2501255,-1416,496,1081,4762,88,-91,58,-26,-122
2,2501268,-1416,496,1081,4762,88,-91,58,-26,-122
2,2501281,-1413,485,1091,4764,96,-87,58,-26,-122
2,2501296,-1415,506,1081,4769,84,-80,58,-26,-122
2,2501311,-1420,497,1086,4766,81,-92,58,-26,-122
2,2501326,-1420,497,1086,4766,81,-92,58,-26,-122
2,2501343,-1418,513,1089,4763,78,-90,57,-27,-117
2,2501357,-1412,502,1090,4766,80,-91,57,-27,-117
2,2501371,-1420,509,1091,4773,79,-84,57,-27,-117
2,2501383,-1420,509,1091,4773,79,-84,57,-27,-117
2,2501394,-1417,525,1082,4769,80,-86,57,-27,-117
2,2501407,-1417,525,1082,4769,80,-86,57,-27,-117
2,2501421,-1423,522,1088,4768,79,-82,57,-27,-117
2,2501434,-1418,521,1087,4774,88,-99,57,-27,-117
2,2501448,-1418,521,1087,4774,88,-99,57,-27,-117
2,2501457,-1420,513,1088,4770,87,-89,57,-27,-117
2,2501472,-1418,540,1084,4771,81,-86,57,-27,-117
2,2501485,-1418,540,1084,4771,81,-86,57,-27,-117
2,2501499,-1419,542,1093,4768,82,-87,57,-27,-117
2,2501514,-1417,538,1098,4777,85,-94,57,-27,-117
2,2501529,-1417,538,1098,4777,85,-94,57,-27,-117
2,2501543,-1417,535,1090,4774,90,-87,57,-27,-117
2,2501557,-1417,535,1090,4776,86,-84,57,-27,-117
2,2501570,-1417,532,1090,4781,87,-89,57,-27,-117
2,2501584,-1417,532,1090,4781,87,-89,57,-27,-117
2,2501598,-1420,527,1100,4784,79,-89,53,-25,-127
2,2501610,-1422,519,1090,4783,84,-93,53,-25,-127
2,2501624,-1422,519,1090,4783,84,-93,53,-25,-127
2,2501638,-1413,524,1099,4782,91,-85,53,-25,-127
2,2501651,-1413,514,1101,4782,87,-89,53,-25,-127
2,2501666,-1413,514,1101,4782,87,-89,53,-25,-127
2,2501679,-1419,524,1096,4781,83,-89,53,-25,-127
2,2501691,-1410,525,1096,4789,86,-85,53,-25,-127
2,2501705,-1410,525,1096,4789,86,-85,53,-25,-127
2,2501719,-1414,514,1104,4790,85,-81,52,-28,-132
2,2501732,-1412,515,1098,4786,75,-87,52,-28,-132
2,2501747,-1412,515,1098,4786,75,-87,52,-28,-132
2,2501763,-1421,516,1100,4783,79,-91,52,-28,-132
2,2501778,-1417,500,1100,4797,85,-92,52,-28,-132
2,2501791,-1415,501,1101,4792,82,-79,52,-28,-132
2,2501805,-1415,501,1101,4792,82,-79,52,-28,-132
2,2501819,-1411,465,1100,4792,82,-88,52,-28,-132
2,2501831,-1410,484,1104,4790,83,-85,51,-11,-139
2,2501843,-1410,484,1104,4790,83,-85,51,-11,-139
2,2501858,-1417,478,1096,4791,91,-92,51,-11,-139
2,2501872,-1412,503,1099,4782,91,-91,51,-11,-139
2,2501885,-1412,503,1099,4782,91,-91,51,-11,-139
2,2501899,-1416,464,1099,4782,91,-94,51,-11,-139
2,2501910,-1416,464,1099,4782,91,-94,51,-11,-139
2,2501924,-1416,464,1099,4782,91,-94,51,-11,-139
2,2501940,-1408,469,1096,4785,83,-81,51,-11,-139
2,2501955,-1419,477,1097,4776,86,-82,49,-19,-145
2,2501969,-1419,477,1097,4776,86,-82,49,-19,-145
2,2501983,-1410,453,1091,4770,84,-90,49,-19,-145
2,2501996,-1415,481,1091,4767,86,-95,49,-19,-145
2,2502011,-1410,474,1095,4772,82,-81,49,-19,-145
2,2502026,-1410,474,1095,4772,82,-81,49,-19,-145
2,2502039,-1421,478,1091,4781,84,-87,49,-19,-145
2,2502052,-1409,476,1089,4781,94,-91,49,-19,-145
2,2502067,-1409,476,1089,4781,94,-91,49,-19,-145
2,2502079,-1414,484,1097,4771,88,-95,51,-25,-149
2,2502093,-1407,478,1095,4773,92,-85,51,-25,-149
2,2502108,-1407,478,1095,4773,92,-85,51,-25,-149
2,2502121,-1421,482,1093,4773,84,-88,51,-25,-149
2,2502135,-1412,481,1085,4775,83,-94,51,-25,-149
2,2502150,-1412,481,1085,4775,83,-94,51,-25,-149
2,2502164,-1412,478,1089,4770,86,-90,51,-25,-149
2,2502176,-1416,512,1089,4766,72,-82,51,-25,-149
2,2502192,-1421,484,1085,4767,73,-93,51,-25,-149
2,2502202,-1421,484,1085,4767,73,-93,51,-25,-149
2,2502213,-1413,502,1092,4772,83,-89,51,-25,-153
2,2502227,-1413,502,1092,4772,83,-89,51,-25,-153
2,2502241,-1410,487,1088,4773,96,-89,51,-25,-153
2,2502255,-1420,501,1087,4778,78,-87,51,-25,-153
2,2502267,-1420,501,1087,4778,78,-87,51,-25,-153
2,2502281,-1409,499,1080,4767,82,-91,51,-25,-153
2,2502288,-1409,499,1080,4767,82,-91,51,-25,-153
2,2502297,-1419,505,1093,4764,91,-91,51,-25,-153
2,2502310,-1409,510,1085,4768,89,-88,51,-25,-153
2,2502325,-1409,510,1085,4768,89,-88,51,-25,-153
2,2502333,-1418,504,1087,4770,78,-85,61,-29,-157
2,2502341,-1418,504,1087,4770,78,-85,61,-29,-157
2,2502354,-1416,517,1088,4761,87,-84,61,-29,-157
2,2502368,-1416,517,1088,4761,87,-84,61,-29,-157
2,2502380,-1418,527,1089,4762,88,-88,61,-29,-157
2,2502393,-1415,521,1085,4770,93,-95,61,-29,-157
2,2502408,-1415,521,1085,4770,93,-95,61,-29,-157
2,2502423,-1415,526,1089,4773,84,-100,61,-29,-157
2,2502437,-1421,536,1089,4772,84,-91,61,-29,-157
2,2502451,-1416,551,1093,4770,85,-85,57,-29,-157
2,2502465,-1416,551,1093,4770,85,-85,57,-19,-165
2,2502480,-1422,544,1099,4769,79,-86,57,-19,-165
2,2502495,-1419,546,1092,4773,83,-82,57,-19,-165
2,2502508,-1419,546,1092,4773,83,-82,57,-19,-165
2,2502522,-1419,541,1102,4769,95,-88,57,-19,-165
2,2502534,-1415,539,1097,4778,93,-77,57,-19,-165
2,2502549,-1415,539,1097,4778,93,-77,57,-19,-165
2,2502562,-1417,521,1100,4783,80,-90,57,-19,-165
2,2502576,-1416,526,1096,4780,81,-90,52,-30,-166
2,2502589,-1416,526,1096,4780,81,-90,52,-30,-166
2,2502603,-1415,527,1103,4785,86,-86,52,-30,-166
2,2502618,-1415,524,1104,4783,86,-86,52,-30,-166
2,2502629,-1415,524,1104,4783,86,-86,52,-30,-166
2,2502643,-1421,527,1096,4788,82,-85,52,-30,-166
2,2502658,-1419,522,1098,4789,83,-88,52,-30,-166
2,2502673,-1415,512,1094,4783,91,-86,52,-30,-166
2,2502685,-1415,512,1094,4783,91,-86,52,-30,-166
2,2502700,-1415,509,1101,4786,87,-90,52,-24,-174
2,2502715,-1414,502,1099,4786,92,-83,52,-24,-174
2,2502728,-1414,502,1099,4786,92,-83,52,-24,-174
2,2502743,-1420,505,1103,4784,87,-87,52,-24,-174
2,2502756,-1414,491,1096,4788,88,-82,52,-24,-174
2,2502769,-1414,491,1096,4788,88,-82,52,-24,-174
2,2502784,-1415,460,1100,4788,92,-79,52,-24,-174
2,2502799,-1414,502,1099,4785,93,-79,52,-24,-174
2,2502813,-1413,484,1108,4787,95,-85,52,-24,-174
2,2502827,-1413,484,1108,4787,95,-85,52,-24,-174
2,2502840,-1416,474,1101,4785,88,-89,54,-22,-182
2,2502854,-1404,464,1099,4781,85,-87,54,-22,-182
2,2502868,-1404,464,1099,4781,85,-87,54,-22,-182
2,2502881,-1419,475,1094,4780,93,-85,54,-22,-182
2,2502895,-1408,469,1092,4782,78,-85,54,-22,-182
2,2502910,-1408,469,1092,4782,78,-85,54,-22,-182
2,2502926,-1423,460,1097,4784,84,-86,54,-22,-182
2,2502938,-1412,467,1085,4776,89,-90,54,-22,-182
2,2502952,-1413,479,1102,4780,97,-88,50,-24,-186
2,2502968,-1413,479,1102,4780,97,-88,50,-24,-186
2,2502982,-1413,470,1091,4779,86,-87,50,-24,-186
2,2502996,-1413,476,1098,4772,93,-91,50,-24,-186
2,2503010,-1413,476,1098,4772,93,-91,50,-24,-186
2,2503023,-1409,481,1089,4767,93,-91,50,-24,-186
2,2503038,-1411,486,1093,4775,96,-91,50,-24,-186
2,2503054,-1416,477,1091,4776,90,-80,50,-24,-186
2,2503066,-1416,477,1091,4776,90,-80,50,-24,-186
2,2503079,-1417,486,1090,4770,92,-91,52,-26,-192
2,2503094,-1410,486,1086,4766,87,-89,52,-26,-192
2,2503107,-1410,486,1086,4766,87,-89,52,-26,-192
2,2503121,-1416,503,1085,4762,81,-91,52,-26,-192
2,2503137,-1416,483,1085,4767,85,-92,52,-26,-192
2,2503150,-1416,483,1085,4767,85,-92,52,-26,-192
2,2503163,-1416,496,1086,4767,87,-93,52,-26,-192
2,2503178,-1416,496,1086,4767,87,-93,52,-26,-192
2,2503193,-1410,509,1091,4766,81,-82,56,-26,-202
2,2503206,-1410,509,1091,4766,81,-82,56,-26,-202
2,2503219,-1420,497,1086,4764,82,-89,56,-26,-202
2,2503231,-1411,514,1088,4769,88,-95,56,-26,-202
2,2503245,-1411,514,1088,4769,88,-95,56,-26,-202
2,2503259,-1413,502,1090,4766,90,-93,56,-26,-202
2,2503274,-1421,512,1085,4773,82,-81,56,-26,-202
2,2503285,-1421,512,1085,4773,82,-81,56,-26,-202
2,2503299,-1413,510,1089,4771,90,-86,56,-26,-202
2,2503314,-1424,530,1093,4769,96,-90,60,-22,-210
2,2503327,-1424,530,1093,4769,96,-90,60,-22,-210
2,2503342,-1415,524,1094,4768,89,-90,60,-22,-210
2,2503356,-1421,519,1091,4770,89,-90,60,-22,-210
2,2503371,-1412,536,1090,4772,85,-93,60,-22,-210
2,2503387,-1412,536,1090,4772,85,-93,60,-22,-210
2,2503401,-1420,546,1088,4772,90,-85,60,-22,-210
2,2503415,-1414,542,1097,4775,86,-85,60,-22,-210
2,2503430,-1414,542,1097,4775,86,-85,60,-22,-210
2,2503444,-1419,541,1094,4773,87,-89,60,-22,-210
2,2503455,-1420,532,1101,4785,90,-81,74,-20,-220
2,2503468,-1420,532,1101,4785,90,-81,74,-20,-220
2,2503482,-1416,542,1092,4783,93,-78,74,-20,-220
2,2503495,-1419,524,1094,4781,95,-84,74,-20,-220
2,2503510,-1419,524,1094,4781,95,-84,74,-20,-220
2,2503522,-1418,520,1092,4788,94,-96,74,-20,-220
2,2503533,-1417,523,1100,4792,95,-89,74,-20,-220
2,2503546,-1417,523,1100,4792,95,-89,74,-20,-220
2,2503560,-1416,515,1101,4791,91,-82,74,-20,-220
2,2503574,-1419,525,1104,4785,92,-96,75,-13,-223
2,2503588,-1419,525,1104,4785,92,-96,75,-13,-223
2,2503602,-1419,524,1102,4782,85,-92,75,-13,-223
2,2503616,-1415,516,1106,4789,89,-82,75,-13,-223
2,2503630,-1415,516,1106,4789,89,-82,75,-13,-223
2,2503646,-1417,513,1099,4787,90,-80,75,-13,-223
2,2503659,-1418,506,1099,4783,89,-90,75,-13,-223
2,2503671,-1418,506,1099,4783,89,-90,75,-13,-223
2,2503685,-1415,506,1102,4788,92,-87,75,-13,-223
2,2503698,-1413,489,1105,4796,94,-83,94,-12,-228
2,2503712,-1410,458,1101,4792,93,-84,94,-12,-228
2,2503727,-1410,458,1101,4792,93,-84,94,-12,-228
2,2503741,-1414,496,1102,4795,88,-91,94,-12,-228
2,2503752,-1415,486,1101,4793,91,-91,94,-12,-228
2,2503766,-1415,486,1101,4793,91,-91,94,-12,-228
2,2503780,-1417,482,1097,4788,80,-86,94,-12,-228
2,2503793,-1411,465,1092,4790,78,-90,94,-12,-228
2,2503809,-1411,465,1092,4790,78,-90,94,-12,-228
2,2503823,-1415,479,1104,4783,93,-79,101,-23,-227
2,2503836,-1406,439,1096,4784,85,-76,101,-23,-227
2,2503851,-1406,439,1096,4784,85,-76,101,-23,-227
2,2503865,-1413,468,1100,4784,82,-82,101,-23,-227
2,2503879,-1412,464,1088,4786,81,-83,101,-23,-227
2,2503890,-1412,464,1088,4786,81,-83,101,-23,-227
2,2503905,-1413,483,1092,4780,94,-81,101,-23,-227
2,2503918,-1411,466,1090,4777,88,-84,101,-23,-227
2,2503926,-1411,466,1090,4777,88,-84,101,-23,-227
2,2503938,-1422,481,1092,4773,79,-80,105,-19,-227
2,2503952,-1407,476,1092,4772,90,-84,105,-19,-227
2,2503965,-1407,476,1092,4772,90,-84,105,-19,-227
2,2503980,-1416,486,1098,4774,88,-91,105,-19,-227
2,2503993,-1412,474,1091,4770,80,-88,105,-19,-227
2,2504004,-1412,474,1091,4770,80,-88,105,-19,-227
2,2504018,-1415,487,1093,4767,85,-93,105,-19,-227
2,2504033,-1416,482,1091,4768,92,-86,105,-19,-227
2,2504045,-1416,482,1091,4768,92,-86,105,-19,-227
2,2504059,-1415,485,1087,4772,91,-77,105,-19,-227
2,2504075,-1419,513,1087,4770,84,-86,107,-19,-233
2,2504090,-1419,513,1087,4770,84,-86,107,-19,-233
2,2504105,-1417,484,1089,4764,89,-89,107,-19,-233
2,2504119,-1412,490,1093,4762,83,-95,107,-19,-233
2,2504133,-1412,495,1087,4764,90,-89,107,-19,-233
2,2504146,-1412,495,1087,4764,90,-89,107,-19,-233
2,2504159,-1423,508,1088,4770,93,-82,107,-19,-233
2,2504171,-1423,508,1088,4770,93,-82,107,-19,-233
2,2504185,-1412,501,1084,4771,87,-83,107,-19,-233
2,2504199,-1418,504,1096,4765,82,-88,114,-16,-230
2,2504212,-1413,514,1087,4761,83,-85,114,-16,-230
2,2504224,-1413,514,1087,4761,83,-85,114,-16,-230
2,2504237,-1421,508,1086,4760,84,-80,114,-16,-230
2,2504250,-1421,508,1086,4760,84,-80,114,-16,-230
2,2504265,-1416,519,1087,4769,94,-84,114,-16,-230
2,2504279,-1415,524,1082,4770,90,-88,114,-16,-230
2,2504294,-1414,513,1092,4762,90,-78,114,-16,-230
2,2504309,-1414,513,1092,4762,90,-78,114,-16,-230
2,2504323,-1410,527,1089,4768,83,-84,121,-13,-235
2,2504337,-1422,537,1095,4766,84,-84,121,-13,-235
2,2504352,-1422,537,1095,4766,84,-84,121,-13,-235
2,2504367,-1412,541,1087,4770,85,-86,121,-13,-235
2,2504380,-1423,540,1093,4772,82,-85,121,-13,-235
2,2504391,-1423,540,1093,4772,82,-85,121,-13,-235
2,2504404,-1415,543,1096,4779,85,-84,121,-13,-235
2,2504419,-1422,533,1098,4780,80,-82,121,-13,-235
2,2504432,-1422,533,1098,4780,80,-82,121,-13,-235
2,2504446,-1416,525,1097,4788,87,-85,124,-22,-230
2,2504459,-1416,516,1096,4785,84,-83,124,-22,-230
2,2504471,-1416,516,1096,4785,84,-83,124,-22,-230
2,2504484,-1418,526,1100,4782,87,-87,124,-22,-230
2,2504493,-1417,521,1094,4787,83,-79,124,-22,-230
2,2504505,-1417,521,1094,4787,83,-79,124,-22,-230
2,2504520,-1419,516,1106,4787,83,-84,124,-22,-230
2,2504532,-1419,516,1106,4787,83,-84,124,-22,-230
2,2504546,-1417,530,1094,4784,84,-85,124,-22,-230
2,2504561,-1420,519,1104,4785,85,-86,128,-26,-238
2,2504577,-1418,518,1103,4779,82,-92,128,-26,-238
2,2504591,-1418,518,1103,4779,82,-92,128,-26,-238
2,2504605,-1417,510,1107,4791,92,-90,128,-26,-238
2,2504619,-1415,501,1102,4788,86,-87,128,-26,-238
2,2504633,-1415,500,1103,4786,83,-87,128,-26,-238
2,2504643,-1415,500,1103,4786,83,-87,128,-26,-238
2,2504656,-1420,495,1097,4786,82,-89,128,-26,-238
2,2504671,-1420,495,1097,4786,82,-89,128,-26,-238
2,2504685,-1417,466,1095,4791,84,-93,128,-26,-238
2,2504699,-1413,494,1104,4787,87,-79,133,-29,-231
2,2504712,-1413,494,1104,4787,87,-79,133,-29,-231
2,2504724,-1415,482,1099,4791,85,-79,133,-29,-231
2,2504737,-1417,476,1104,4783,84,-84,133,-29,-231
2,2504751,-1417,476,1104,4783,84,-84,133,-29,-231
2,2504765,-1410,466,1097,4781,86,-89,133,-29,-231
2,2504780,-1420,474,1101,4780,89,-88,133,-29,-231
2,2504794,-1408,472,1090,4787,92,-85,133,-29,-231
2,2504806,-1408,472,1090,4787,92,-85,133,-29,-231
2,2504820,-1415,464,1098,4777,82,-89,136,-30,-234
2,2504835,-1412,479,1088,4772,85,-84,136,-30,-234
2,2504847,-1412,479,1088,4772,85,-84,136,-30,-234
2,2504861,-1413,473,1093,4778,91,-82,136,-30,-234
2,2504876,-1412,470,1090,4776,84,-90,136,-30,-234
2,2504890,-1412,470,1090,4776,84,-90,136,-30,-234
2,2504904,-1418,473,1087,4780,77,-91,136,-30,-234
2,2504918,-1412,484,1091,4773,91,-93,136,-30,-234
2,2504931,-1412,484,1091,4773,91,-93,136,-30,-234
2,2504946,-1413,475,1095,4766,95,-87,139,-23,-231
2,2504958,-1421,473,1088,4765,89,-80,139,-23,-231
2,2504972,-1421,473,1088,4765,89,-80,139,-23,-231
2,2504981,-1413,484,1085,4774,83,-87,139,-23,-231
2,2504992,-1413,484,1085,4774,83,-87,139,-23,-231
2,2505007,-1414,486,1090,4774,96,-94,139,-23,-231
2,2505022,-1414,495,1091,4766,79,-88,139,-23,-231
2,2505037,-1416,492,1087,4770,79,-87,139,-23,-231
2,2505054,-1416,491,1090,4764,83,-91,139,-15,-235
2,2505068,-1416,491,1090,4764,83,-91,139,-15,-235
2,2505081,-1414,487,1093,4766,79,-87,139,-15,-235
2,2505097,-1415,504,1087,4765,81,-86,139,-15,-235
2,2505111,-1415,504,1087,4765,81,-86,139,-15,-235
2,2505124,-1419,500,1090,4762,87,-89,139,-15,-235
2,2505138,-1415,506,1086,4764,86,-86,139,-15,-235
2,2505152,-1415,506,1086,4764,86,-86,139,-15,-235
2,2505166,-1409,504,1088,4764,89,-86,139,-15,-235
2,2505182,-1417,508,1089,4764,85,-87,153,-23,-217
2,2505197,-1417,518,1091,4764,79,-89,153,-23,-217
2,2505210,-1417,518,1091,4764,79,-89,153,-23,-217
2,2505224,-1418,531,1087,4764,90,-85,153,-23,-217
2,2505238,-1415,519,1086,4769,92,-88,153,-23,-217
2,2505251,-1415,519,1086,4769,92,-88,153,-23,-217
2,2505267,-1422,517,1087,4767,78,-88,153,-23,-217
2,2505279,-1416,540,1087,4771,86,-87,153,-23,-217
2,2505291,-1416,540,1087,4771,86,-87,153,-23,-217
2,2505305,-1421,541,1093,4769,91,-90,153,-23,-217
2,2505319,-1417,533,1095,4773,80,-89,153,-23,-217
2,2505327,-1417,533,1095,4773,80,-89,153,-23,-217
2,2505335,-1420,541,1090,4771,86,-89,153,-23,-217
2,2505344,-1420,541,1090,4771,86,-89,153,-23,-217
2,2505359,-1421,533,1103,4776,87,-81,153,-23,-217
2,2505373,-1421,533,1103,4776,87,-81,153,-23,-217
2,2505385,-1418,541,1095,4777,82,-90,153,-23,-217
2,2505398,-1421,521,1100,4778,85,-91,153,-23,-217
2,2505412,-1421,521,1100,4778,85,-91,153,-23,-217
2,2505425,-1416,527,1100,4780,88,-83,153,-23,-217
2,2505440,-1417,519,1101,4786,92,-86,151,-11,-225
2,2505453,-1419,515,1095,4782,89,-89,151,-11,-225
2,2505469,-1419,515,1095,4782,89,-89,151,-11,-225
2,2505483,-1420,525,1101,4785,87,-91,151,-11,-225
2,2505495,-1420,520,1098,4780,94,-90,151,-11,-225
2,2505509,-1420,520,1098,4780,94,-90,151,-11,-225
2,2505524,-1417,507,1102,4779,97,-93,151,-11,-225
2,2505536,-1421,512,1102,4784,89,-89,151,-11,-225
2,2505551,-1421,512,1102,4784,89,-89,151,-11,-225
2,2505567,-1417,501,1108,4786,92,-86,164,-10,-218
2,2505580,-1417,502,1109,4791,94,-88,164,-10,-218
2,2505594,-1415,495,1100,4792,94,-87,164,-10,-218
2,2505609,-1415,495,1100,4792,94,-87,164,-10,-218
2,2505624,-1414,453,1095,4785,86,-78,164,-10,-218
2,2505639,-1414,494,1094,4786,88,-82,164,-10,-218
2,2505653,-1414,494,1094,4786,88,-82,164,-10,-218
2,2505665,-1418,481,1105,4789,91,-80,164,-10,-218
2,2505679,-1421,484,1102,4784,90,-85,165,1,-221
2,2505694,-1421,484,1102,4784,90,-85,165,1,-221
2,2505707,-1411,465,1100,4787,95,-83,165,1,-221
2,2505721,-1414,471,1104,4779,86,-85,165,1,-221
2,2505737,-1409,470,1095,4772,89,-83,165,1,-221
2,2505751,-1409,470,1095,4772,89,-83,165,1,-221
2,2505762,-1409,470,1095,4772,89,-83,165,1,-221
2,2505778,-1415,465,1087,4777,84,-92,165,1,-221
2,2505791,-1415,465,1087,4777,84,-92,165,1,-221
2,2505804,-1407,479,1097,4769,83,-81,170,0,-210
2,2505819,-1413,477,1092,4775,75,-80,170,0,-210
2,2505834,-1418,475,1091,4774,82,-80,170,0,-210
2,2505846,-1418,475,1091,4774,82,-80,170,0,-210
2,2505861,-1411,479,1092,4773,82,-86,170,0,-210
2,2505876,-1412,477,1091,4776,90,-78,170,0,-210
2,2505889,-1412,477,1091,4776,90,-78,170,0,-210
2,2505902,-1415,476,1091,4777,77,-79,170,0,-210
2,2505915,-1416,482,1086,4767,78,-87,153,-3,-209
2,2505928,-1416,482,1086,4767,78,-87,153,-3,-209
2,2505942,-1414,485,1099,4770,89,-91,153,-3,-209
2,2505955,-1414,479,1095,4772,81,-84,153,-3,-209
2,2505968,-1414,479,1095,4772,81,-84,153,-3,-209
2,2505980,-1415,511,1091,4771,79,-81,153,-3,-209
2,2505994,-1415,511,1091,4771,79,-81,153,-3,-209
2,2506004,-1419,486,1087,4772,85,-83,153,-3,-209
2,2506012,-1419,486,1087,4772,85,-83,153,-3,-209
2,2506027,-1413,497,1084,4765,91,-97,153,-3,-209
2,2506040,-1413,477,1087,4768,79,-95,153,-3,-209
2,2506055,-1419,510,1092,4766,83,-84,171,-3,-203
2,2506067,-1419,510,1092,4766,83,-84,171,-3,-203
2,2506079,-1418,498,1087,4761,86,-89,171,-3,-203
2,2506094,-1418,498,1087,4761,86,-89,171,-3,-203
2,2506109,-1419,505,1089,4764,82,-93,171,-3,-203
2,2506123,-1412,499,1090,4773,88,-91,171,-3,-203
2,2506135,-1415,512,1090,4774,89,-80,171,-3,-203
2,2506149,-1415,512,1090,4774,89,-80,171,-3,-203
2,2506164,-1415,511,1090,4768,82,-88,171,-3,-203
2,2506178,-1418,528,1094,4767,85,-95,164,8,-202
2,2506191,-1418,528,1094,4767,85,-95,164,8,-202
2,2506204,-1411,518,1092,4769,80,-86,164,8,-202
2,2506218,-1422,531,1086,4772,77,-79,164,8,-202
2,2506230,-1422,531,1086,4772,77,-79,164,8,-202
2,2506246,-1419,533,1085,4771,88,-83,164,8,-202
2,2506262,-1420,548,1089,4775,82,-88,164,8,-202
2,2506277,-1421,540,1101,4780,89,-87,164,8,-202
2,2506293,-1421,540,1101,4780,89,-87,164,8,-202
2,2506307,-1415,532,1100,4779,82,-89,164,-8,-196
2,2506316,-1417,534,1098,4778,87,-89,164,-8,-196
2,2506331,-1417,534,1098,4778,87,-89,164,-8,-196
2,2506344,-1413,534,1100,4784,77,-85,164,-8,-196
2,2506358,-1420,520,1097,4781,79,-91,164,-8,-196
2,2506373,-1420,520,1097,4781,79,-91,164,-8,-196
2,2506387,-1418,529,1094,4784,77,-86,164,-8,-196
2,2506398,-1418,525,1098,4782,85,-84,164,-8,-196
2,2506413,-1418,525,1098,4782,85,-84,164,-8,-196
2,2506426,-1423,520,1101,4782,82,-86,167,-3,-197
2,2506439,-1420,524,1100,4781,81,-93,167,-3,-197
2,2506454,-1420,524,1100,4781,81,-93,167,-3,-197
2,2506466,-1419,512,1107,4789,85,-83,167,-3,-197
2,2506481,-1413,511,1098,4791,93,-82,167,-3,-197
2,2506497,-1418,510,1106,4791,87,-94,167,-3,-197
2,2506512,-1418,510,1106,4791,87,-94,167,-3,-197
2,2506526,-1415,502,1103,4791,92,-94,167,-3,-197
2,2506539,-1418,504,1108,4788,82,-85,178,0,-190
2,2506554,-1418,504,1108,4788,82,-85,178,0,-190
2,2506569,-1417,492,1103,4785,86,-79,178,0,-190
2,2506584,-1415,462,1104,4779,82,-84,178,0,-190
2,2506598,-1418,486,1101,4790,84,-78,178,0,-190
2,2506611,-1418,486,1101,4790,84,-78,178,0,-190
2,2506625,-1413,483,1102,4784,90,-76,178,0,-190
2,2506637,-1419,469,1097,4787,89,-84,178,0,-190
2,2506651,-1419,469,1097,4787,89,-84,178,0,-190
2,2506665,-1409,467,1101,4776,87,-94,178,0,-190
2,2506679,-1414,471,1105,4783,86,-81,176,-2,-184
2,2506693,-1414,471,1105,4783,86,-81,176,-2,-184
2,2506707,-1413,477,1096,4783,85,-80,176,-2,-184
2,2506721,-1413,454,1102,4789,91,-84,176,-2,-184
2,2506733,-1413,454,1102,4789,91,-84,176,-2,-184
2,2506749,-1412,472,1093,4782,82,-91,176,-2,-184
2,2506765,-1413,471,1095,4778,87,-83,176,-2,-184
2,2506779,-1415,477,1093,4773,84,-86,176,-2,-184
2,2506792,-1415,477,1093,4773,84,-86,176,-2,-184
2,2506806,-1416,468,1095,4773,84,-94,168,-12,-178
2,2506820,-1411,481,1086,4773,85,-90,168,-12,-178
2,2506834,-1411,481,1086,4773,85,-90,168,-12,-178
2,2506848,-1410,472,1089,4774,93,-86,168,-12,-178
2,2506861,-1414,483,1094,4778,85,-88,168,-12,-178
2,2506875,-1413,481,1086,4770,84,-83,168,-12,-178
2,2506888,-1413,481,1086,4770,84,-83,168,-12,-178
2,2506897,-1412,482,1092,4768,98,-87,168,-12,-178
2,2506911,-1412,482,1092,4768,98,-87,168,-12,-178
2,2506919,-1412,500,1095,4771,89,-86,169,-9,-169
2,2506931,-1412,500,1095,4771,89,-86,169,-9,-169
2,2506944,-1419,487,1087,4774,81,-84,169,-9,-169
2,2506959,-1413,499,1084,4770,86,-85,169,-9,-169
2,2506975,-1413,499,1084,4770,86,-85,169,-9,-169
2,2506989,-1414,479,1089,4771,90,-83,169,-9,-169
2,2507002,-1415,502,1084,4771,81,-86,169,-9,-169
2,2507017,-1417,491,1089,4768,81,-87,169,-9,-169
2,2507032,-1417,491,1089,4768,81,-87,169,-9,-169
2,2507044,-1416,507,1087,4760,80,-97,168,-2,-170
2,2507057,-1407,499,1096,4768,93,-103,168,-2,-170
2,2507070,-1407,499,1096,4768,93,-103,168,-2,-170
2,2507084,-1419,508,1091,4763,88,-85,168,-2,-170
2,2507098,-1411,510,1091,4768,87,-84,168,-2,-170
2,2507112,-1411,510,1091,4768,87,-84,168,-2,-170
2,2507124,-1419,525,1087,4773,81,-85,168,-2,-170
2,2507137,-1415,525,1081,4765,85,-88,168,-2,-170
2,2507151,-1415,525,1081,4765,85,-88,168,-2,-170
2,2507166,-1417,522,1093,4771,83,-83,164,-10,-166
2,2507179,-1417,533,1089,4770,84,-90,164,-10,-166
2,2507193,-1417,533,1089,4770,84,-90,164,-10,-166
2,2507208,-1419,538,1095,4778,86,-91,164,-10,-166
2,2507224,-1423,537,1093,4780,89,-88,164,-10,-166
2,2507239,-1420,541,1092,4775,90,-87,164,-10,-166
2,2507252,-1420,541,1092,4775,90,-87,164,-10,-166
2,2507267,-1421,538,1098,4786,91,-91,164,-10,-166
2,2507281,-1417,539,1097,4781,89,-86,164,-10,-166
2,2507292,-1417,539,1097,4781,89,-86,164,-10,-166
2,2507307,-1419,516,1109,4786,86,-82,158,-10,-158
2,2507320,-1417,525,1092,4780,87,-90,158,-10,-158
2,2507334,-1417,525,1092,4780,87,-90,158,-10,-158
2,2507347,-1418,516,1097,4783,96,-94,158,-10,-158
2,2507362,-1420,517,1098,4786,96,-86,158,-10,-158
2,2507373,-1420,517,1098,4786,96,-86,158,-10,-158
2,2507386,-1423,519,1099,4782,93,-94,158,-10,-158
2,2507401,-1418,520,1097,4783,82,-89,158,-10,-158
2,2507413,-1418,520,1097,4783,82,-89,158,-10,-158
2,2507428,-1418,507,1106,4786,82,-92,158,-8,-154
2,2507443,-1417,514,1101,4793,85,-92,158,-8,-154
2,2507458,-1414,495,1101,4791,88,-86,158,-8,-154
2,2507470,-1414,495,1101,4791,88,-86,158,-8,-154
2,2507486,-1416,498,1100,4789,89,-88,158,-8,-154
2,2507501,-1416,495,1097,4785,83,-88,158,-8,-154
2,2507516,-1416,464,1098,4789,91,-86,158,-8,-154
2,2507527,-1416,464,1098,4789,91,-86,158,-8,-154
2,2507540,-1414,487,1099,4792,92,-89,154,-18,-152
2,2507553,-1414,487,1099,4792,92,-89,154,-18,-152
2,2507568,-1420,476,1102,4790,95,-94,154,-18,-152
2,2507581,-1414,495,1097,4786,94,-85,154,-18,-152
2,2507596,-1416,453,1099,4776,90,-91,154,-18,-152
2,2507609,-1416,453,1099,4776,90,-91,154,-18,-152
2,2507622,-1410,470,1095,4778,90,-88,154,-18,-152
2,2507637,-1406,468,1099,4782,94,-83,154,-18,-152
2,2507652,-1406,468,1099,4782,94,-83,154,-18,-152
2,2507666,-1418,478,1106,4780,88,-79,147,-17,-135
2,2507679,-1411,464,1096,4775,89,-90,147,-17,-135
2,2507694,-1411,464,1096,4775,89,-90,147,-17,-135
2,2507709,-1417,487,1090,4773,86,-89,147,-17,-135
2,2507722,-1408,471,1095,4777,84,-89,147,-17,-135
2,2507737,-1418,472,1091,4776,83,-88,147,-17,-135
2,2507750,-1418,472,1091,4776,83,-88,147,-17,-135
2,2507764,-1411,472,1086,4771,88,-96,147,-17,-135
2,2507780,-1415,475,1094,4773,100,-89,138,-22,-142
2,2507791,-1415,475,1094,4773,100,-89,138,-22,-142
2,2507805,-1411,469,1091,4765,96,-87,138,-22,-142
2,2507821,-1416,480,1087,4771,95,-94,138,-22,-142
2,2507834,-1416,480,1087,4771,95,-94,138,-22,-142
2,2507847,-1413,489,1089,4770,93,-91,138,-22,-142
2,2507863,-1416,507,1092,4774,95,-85,138,-22,-142
2,2507878,-1415,489,1086,4766,94,-86,138,-22,-142
2,2507893,-1415,489,1086,4766,94,-86,138,-22,-142
2,2507907,-1418,493,1085,4773,83,-87,138,-22,-142
2,2507919,-1414,479,1086,4771,90,-83,147,-17,-127
2,2507933,-1414,479,1086,4771,90,-83,147,-17,-127
2,2507944,-1412,501,1092,4773,96,-91,147,-17,-127
2,2507958,-1419,488,1085,4768,93,-91,147,-17,-127
2,2507972,-1419,488,1085,4768,93,-91,147,-17,-127
2,2507985,-1418,503,1087,4767,79,-87,147,-17,-127
2,2507999,-1411,499,1086,4764,82,-89,147,-17,-127
2,2508011,-1411,499,1086,4764,82,-89,147,-17,-127
2,2508024,-1416,516,1087,4772,85,-84,147,-17,-127
2,2508040,-1413,514,1092,4771,89,-89,135,-15,-125
2,2508055,-1413,514,1092,4771,89,-89,135,-15,-125
2,2508070,-1419,532,1086,4775,94,-90,135,-15,-125
2,2508084,-1413,519,1090,4774,91,-90,135,-15,-125
2,2508098,-1417,510,1091,4779,85,-91,135,-15,-125
2,2508112,-1417,510,1091,4779,85,-91,135,-15,-125
2,2508128,-1416,537,1084,4775,82,-94,135,-15,-125
2,2508141,-1423,538,1090,4773,97,-90,135,-15,-125
2,2508155,-1423,538,1090,4773,97,-90,135,-15,-125
2,2508169,-1418,533,1098,4773,96,-96,128,-20,-122
2,2508183,-1419,534,1096,4774,95,-97,128,-20,-122
2,2508197,-1412,536,1091,4781,95,-92,128,-20,-122
2,2508212,-1412,536,1091,4781,95,-92,128,-20,-122
2,2508225,-1418,531,1098,4778,87,-85,128,-20,-122
2,2508238,-1420,526,1094,4777,85,-83,128,-20,-122
2,2508254,-1420,526,1094,4777,85,-83,128,-20,-122
2,2508267,-1419,520,1091,4777,89,-91,128,-20,-122
2,2508282,-1418,526,1098,4785,88,-90,120,-28,-122
2,2508298,-1418,516,1101,4781,79,-87,120,-28,-122
2,2508313,-1418,516,1101,4781,79,-87,120,-28,-122
2,2508327,-1418,520,1098,4789,81,-95,120,-28,-122
2,2508341,-1417,518,1100,4788,91,-92,120,-28,-122
2,2508354,-1417,518,1100,4788,91,-92,120,-28,-122
2,2508367,-1413,503,1102,4786,87,-96,120,-28,-122
2,2508381,-1416,507,1094,4787,85,-89,120,-28,-122
2,2508394,-1416,507,1094,4787,85,-89,120,-28,-122
2,2508408,-1419,507,1098,4786,90,-92,127,-23,-113
2,2508422,-1413,499,1102,4790,90,-92,127,-23,-113
2,2508436,-1413,499,1102,4790,90,-92,127,-23,-113
2,2508449,-1419,497,1104,4791,90,-82,127,-23,-113
2,2508461,-1414,471,1100,4786,86,-86,127,-23,-113
2,2508475,-1414,471,1100,4786,86,-86,127,-23,-113
2,2508488,-1420,475,1101,4784,89,-91,127,-23,-113
2,2508503,-1415,477,1100,4781,98,-97,127,-23,-113
2,2508517,-1413,491,1101,4784,96,-90,127,-23,-113
2,2508531,-1413,491,1101,4784,96,-90,127,-23,-113
2,2508544,-1417,460,1102,4786,85,-88,115,-23,-105
2,2508558,-1410,474,1099,4786,96,-83,115,-23,-105
2,2508573,-1410,474,1099,4786,96,-83,115,-23,-105
2,2508590,-1413,465,1096,4774,96,-81,115,-23,-105
2,2508604,-1417,475,1097,4782,83,-81,115,-23,-105
2,2508616,-1417,475,1097,4782,83,-81,115,-23,-105
2,2508631,-1413,455,1095,4781,86,-83,115,-23,-105
2,2508644,-1412,483,1090,4776,89,-87,115,-23,-105
2,2508658,-1410,472,1096,4771,80,-83,107,-23,-109
2,2508672,-1410,472,1096,4771,80,-83,107,-23,-109
2,2508685,-1417,479,1089,4769,82,-78,107,-23,-109
2,2508699,-1411,472,1088,4772,82,-86,107,-23,-109
2,2508712,-1411,472,1088,4772,82,-86,107,-23,-109
2,2508726,-1417,479,1087,4770,93,-89,107,-23,-109
2,2508738,-1417,479,1087,4770,93,-89,107,-23,-109
2,2508752,-1417,479,1087,4770,93,-89,107,-23,-109
2,2508767,-1419,477,1095,4774,78,-92,107,-23,-109
2,2508778,-1412,480,1089,4768,79,-89,103,-33,-113
2,2508793,-1412,480,1089,4768,79,-89,103,-33,-113
2,2508809,-1411,488,1094,4766,84,-79,103,-33,-113
2,2508824,-1413,505,1086,4768,77,-77,103,-33,-113
2,2508838,-1417,488,1086,4763,87,-88,103,-33,-113
2,2508851,-1417,488,1086,4763,87,-88,103,-33,-113
2,2508865,-1419,487,1083,4758,88,-92,103,-33,-113
2,2508878,-1406,493,1090,4761,93,-93,103,-33,-113
2,2508892,-1406,493,1090,4761,93,-93,103,-33,-113
2,2508906,-1420,494,1094,4771,89,-86,99,-27,-109
2,2508920,-1411,500,1085,4763,86,-89,99,-27,-109
2,2508935,-1411,500,1085,4763,86,-89,99,-27,-109
2,2508948,-1418,499,1092,4770,86,-95,99,-27,-109
2,2508961,-1410,510,1087,4764,86,-85,99,-27,-109
2,2508975,-1410,510,1087,4764,86,-85,99,-27,-109
2,2508990,-1418,507,1090,4765,82,-82,99,-27,-109
2,2509004,-1419,537,1081,4769,79,-93,99,-27,-109
2,2509019,-1421,527,1090,4769,88,-88,93,-31,-109
2,2509033,-1421,527,1090,4769,88,-88,93,-31,-109
2,2509044,-1412,516,1097,4774,85,-89,93,-31,-109
2,2509059,-1416,521,1088,4765,84,-87,93,-31,-109
2,2509073,-1416,521,1088,4765,84,-87,93,-31,-109
2,2509085,-1418,541,1097,4763,84,-94,93,-31,-109
2,2509101,-1415,534,1086,4772,93,-87,93,-31,-109
2,2509114,-1415,534,1086,4772,93,-87,93,-31,-109
2,2509128,-1420,534,1097,4780,84,-87,93,-31,-109
2,2509142,-1413,535,1088,4787,84,-91,89,-31,-99
2,2509156,-1413,535,1088,4787,84,-91,89,-31,-99
2,2509167,-1419,538,1102,4781,95,-89,89,-31,-99
2,2509177,-1418,531,1096,4776,87,-83,89,-31,-99
2,2509191,-1418,531,1096,4776,87,-83,89,-31,-99
2,2509205,-1421,516,1106,4781,77,-81,89,-31,-99
2,2509214,-1421,516,1106,4781,77,-81,89,-31,-99
2,2509222,-1415,520,1093,4785,97,-87,89,-31,-99
2,2509232,-1415,520,1093,4785,97,-87,89,-31,-99
2,2509239,-1417,520,1101,4785,92,-77,89,-31,-99
2,2509253,-1417,520,1101,4785,92,-77,89,-31,-99
2,2509264,-1420,512,1097,4782,90,-83,89,-31,-99
2,2509279,-1419,523,1103,4779,87,-87,85,-37,-105
2,2509294,-1419,523,1103,4779,87,-87,85,-37,-105
2,2509310,-1419,508,1103,4789,92,-83,85,-37,-105
2,2509326,-1413,510,1102,4788,87,-85,85,-37,-105
2,2509339,-1425,507,1099,4790,82,-91,85,-37,-105
2,2509352,-1425,507,1099,4790,82,-91,85,-37,-105
2,2509368,-1417,496,1101,4790,85,-81,85,-37,-105
2,2509381,-1416,493,1104,4795,86,-85,85,-37,-105
2,2509395,-1416,493,1104,4795,86,-85,85,-37,-105
2,2509410,-1416,491,1102,4794,86,-90,87,-33,-95
2,2509423,-1417,455,1099,4787,85,-88,87,-33,-95
2,2509435,-1417,455,1099,4787,85,-88,87,-33,-95
2,2509449,-1415,500,1098,4786,86,-91,87,-33,-95
2,2509462,-1409,481,1103,4782,88,-84,87,-33,-95
2,2509476,-1409,481,1103,4782,88,-84,87,-33,-95
2,2509489,-1418,469,1103,4783,87,-87,87,-33,-95
2,2509504,-1408,465,1091,4784,89,-94,87,-33,-95
2,2509515,-1408,465,1091,4784,89,-94,87,-33,-95
2,2509530,-1416,473,1102,4781,99,-82,82,-30,-100
2,2509543,-1413,482,1092,4777,93,-77,82,-30,-100
2,2509557,-1418,467,1099,4777,83,-88,82,-30,-100
2,2509573,-1418,467,1099,4777,83,-88,82,-30,-100
2,2509588,-1415,472,1087,4778,86,-100,82,-30,-100
2,2509601,-1414,472,1093,4779,90,-89,82,-30,-100
2,2509615,-1414,472,1093,4779,90,-89,82,-30,-100
2,2509629,-1408,479,1091,4780,85,-84,82,-30,-100
2,2509643,-1414,471,1099,4781,86,-84,85,-29,-105
2,2509654,-1414,471,1099,4781,86,-84,85,-29,-105
2,2509667,-1409,481,1097,4777,94,-90,85,-29,-105
2,2509680,-1410,471,1096,4773,92,-84,85,-29,-105
2,2509694,-1410,471,1096,4773,92,-84,85,-29,-105
2,2509708,-1418,483,1087,4771,81,-92,85,-29,-105
2,2509721,-1416,484,1084,4773,84,-88,85,-29,-105
2,2509733,-1416,484,1084,4773,84,-88,85,-29,-105
2,2509748,-1419,488,1096,4767,97,-88,85,-29,-105
2,2509761,-1409,506,1090,4771,86,-85,70,-32,-98
2,2509775,-1409,506,1090,4771,86,-85,70,-32,-98
2,2509790,-1409,506,1090,4771,86,-85,70,-32,-98
2,2509805,-1412,496,1087,4767,83,-92,70,-32,-98
2,2509820,-1414,488,1088,4771,94,-93,70,-32,-98
2,2509835,-1414,488,1088,4771,94,-93,70,-32,-98
2,2509848,-1414,488,1088,4771,94,-93,70,-32,-98
2,2509863,-1416,497,1085,4776,75,-92,70,-32,-98
2,2509878,-1422,504,1088,4772,85,-89,70,-32,-98
2,2509892,-1422,504,1088,4772,85,-89,70,-32,-98
2,2509904,-1412,507,1094,4769,83,-87,74,-28,-108
2,2509918,-1420,504,1096,4769,79,-80,74,-28,-108
2,2509932,-1420,504,1096,4769,79,-80,74,-28,-108
2,2509947,-1416,512,1088,4769,81,-93,74,-28,-108
2,2509959,-1416,522,1094,4771,98,-94,74,-28,-108
2,2509969,-1416,522,1094,4771,98,-94,74,-28,-108
2,2509983,-1414,520,1085,4773,90,-91,74,-28,-108
2,2510000,-1417,517,1094,4772,79,-93,74,-28,-108
2,2510013,-1417,517,1094,4772,79,-93,74,-28,-108
2,2510027,-1420,540,1086,4771,80,-84,63,-29,-95
2,2510042,-1418,538,1097,4771,85,-87,63,-29,-95
2,2510049,-1418,538,1097,4771,85,-87,63,-29,-95
2,2510062,-1418,534,1093,4776,93,-88,63,-29,-95
2,2510074,-1418,534,1093,4776,93,-88,63,-29,-95
2,2510090,-1419,535,1090,4781,83,-92,63,-29,-95
2,2510105,-1418,533,1092,4778,81,-85,63,-29,-95
2,2510121,-1418,533,1094,4783,88,-93,63,-29,-95
2,2510135,-1418,533,1094,4783,88,-93,63,-29,-95
2,2510147,-1419,526,1101,4781,87,-90,70,-22,-96
2,2510160,-1423,523,1095,4785,88,-90,70,-22,-96
2,2510172,-1423,523,1095,4785,88,-90,70,-22,-96
2,2510186,-1418,521,1099,4781,90,-90,70,-22,-96
2,2510199,-1421,507,1099,4790,84,-85,70,-22,-96
2,2510213,-1421,507,1099,4790,84,-85,70,-22,-96
2,2510227,-1423,516,1101,4784,83,-80,70,-22,-96
2,2510240,-1413,514,1097,4775,83,-90,70,-22,-96
2,2510255,-1413,514,1097,4775,83,-90,70,-22,-96
2,2510268,-1418,501,1109,4782,89,-86,54,-24,-112
2,2510282,-1419,510,1103,4785,89,-89,54,-24,-112
2,2510298,-1419,510,1103,4785,89,-89,54,-24,-112
2,2510310,-1423,504,1100,4786,84,-87,54,-24,-112
2,2510324,-1416,506,1100,4789,85,-81,54,-24,-112
2,2510340,-1415,500,1099,4791,90,-86,54,-24,-112
2,2510355,-1415,500,1099,4791,90,-86,54,-24,-112
2,2510368,-1414,454,1103,4793,86,-83,54,-24,-112
2,2510382,-1411,494,1095,4790,82,-89,53,-29,-107
2,2510395,-1411,494,1095,4790,82,-89,53,-29,-107
2,2510407,-1419,469,1109,4793,86,-80,53,-29,-107
2,2510420,-1416,489,1100,4793,89,-87,53,-29,-107
2,2510434,-1416,489,1100,4793,89,-87,53,-29,-107
2,2510448,-1414,457,1096,4787,101,-97,53,-29,-107
2,2510461,-1413,473,1096,4787,94,-91,53,-29,-107
2,2510474,-1413,473,1096,4787,94,-91,53,-29,-107
2,2510486,-1406,462,1093,4782,89,-84,53,-29,-107
2,2510501,-1419,459,1099,4781,82,-92,53,-29,-107
2,2510514,-1419,459,1099,4781,82,-92,53,-29,-107
2,2510528,-1407,464,1096,4777,88,-93,60,-16,-112
2,2510543,-1413,481,1099,4771,84,-89,60,-16,-112
2,2510558,-1414,473,1088,4780,76,-83,60,-16,-112
2,2510573,-1414,473,1088,4780,76,-83,60,-16,-112
2,2510587,-1416,472,1093,4771,79,-91,60,-16,-112
2,2510601,-1412,477,1092,4772,89,-89,60,-16,-112
2,2510615,-1412,477,1092,4772,89,-89,60,-16,-112
2,2510625,-1409,479,1096,4769,95,-86,60,-16,-112
2,2510639,-1413,473,1093,4776,88,-82,60,-16,-112
2,2510652,-1413,473,1093,4776,88,-82,52,-24,-110
2,2510665,-1417,482,1086,4771,87,-75,52,-24,-110
2,2510680,-1414,480,1091,4768,96,-89,52,-24,-110
2,2510692,-1414,480,1091,4768,96,-89,52,-24,-110
2,2510704,-1415,495,1090,4766,90,-89,52,-24,-110
2,2510718,-1419,500,1091,4771,90,-88,52,-24,-110
2,2510732,-1419,500,1091,4771,90,-88,52,-24,-110
2,2510746,-1415,495,1091,4769,87,-99,52,-24,-110
2,2510760,-1409,487,1086,4764,91,-100,45,-21,-113
2,2510776,-1409,487,1086,4764,91,-100,45,-21,-113
2,2510790,-1408,500,1088,4768,89,-94,45,-21,-113
2,2510803,-1421,490,1087,4764,82,-85,45,-21,-113
2,2510819,-1412,506,1087,4756,80,-94,45,-21,-113
2,2510834,-1412,506,1087,4756,80,-94,45,-21,-113
2,2510848,-1418,494,1089,4761,90,-93,45,-21,-113
2,2510859,-1413,513,1084,4766,84,-91,45,-21,-113
2,2510872,-1413,513,1084,4766,84,-91,45,-21,-113
2,2510886,-1419,504,1092,4770,84,-84,51,-21,-123
2,2510900,-1420,521,1090,4768,87,-89,51,-21,-123
2,2510913,-1420,521,1090,4768,87,-89,51,-21,-123
2,2510924,-1412,524,1096,4762,86,-90,51,-21,-123
2,2510938,-1412,524,1096,4762,86,-90,51,-21,-123
2,2510952,-1420,512,1094,4769,93,-95,51,-21,-123
2,2510965,-1416,527,1083,4770,91,-95,51,-21,-123
2,2510980,-1424,531,1092,4767,82,-86,51,-21,-123
2,2510988,-1424,531,1092,4767,82,-86,51,-21,-123
2,2510996,-1424,531,1092,4767,82,-86,51,-21,-123
2,2511005,-1415,541,1084,4766,83,-85,46,-22,-114
2,2511014,-1415,541,1084,4766,83,-85,46,-22,-114
2,2511029,-1422,536,1096,4775,83,-86,46,-22,-114
2,2511044,-1419,536,1094,4777,80,-87,46,-22,-114
2,2511059,-1416,533,1098,4781,91,-87,46,-22,-114
2,2511074,-1416,533,1098,4781,91,-87,46,-22,-114
2,2511087,-1418,528,1095,4774,87,-86,46,-22,-114
2,2511101,-1416,517,1101,4776,91,-86,46,-22,-114
2,2511114,-1416,517,1101,4776,91,-86,46,-22,-114
2,2511127,-1416,524,1098,4782,87,-89,46,-22,-114
2,2511141,-1418,520,1098,4781,90,-86,52,-18,-132
2,2511156,-1418,520,1098,4781,90,-86,52,-18,-132
2,2511169,-1423,515,1101,4777,84,-84,52,-18,-132
2,2511183,-1420,523,1095,4782,90,-83,52,-18,-132
2,2511198,-1420,523,1095,4782,90,-83,52,-18,-132
2,2511209,-1421,510,1104,4789,86,-87,52,-18,-132
2,2511223,-1417,509,1098,4785,93,-86,52,-18,-132
2,2511239,-1417,509,1098,4785,93,-86,52,-18,-132
2,2511250,-1415,500,1099,4791,80,-88,52,-18,-132
2,2511264,-1415,496,1103,4790,80,-86,50,-22,-130
2,2511279,-1416,496,1106,4793,89,-87,50,-22,-130
2,2511294,-1416,496,1106,4793,89,-87,50,-22,-130
2,2511302,-1416,480,1103,4790,83,-91,50,-22,-130
2,2511313,-1416,480,1103,4790,83,-91,50,-22,-130
2,2511326,-1419,475,1099,4788,84,-88,50,-22,-130
2,2511339,-1415,488,1101,4783,80,-85,50,-22,-130
2,2511353,-1415,488,1101,4783,80,-85,50,-22,-130
2,2511367,-1414,486,1097,4785,86,-83,50,-22,-130
2,2511379,-1419,456,1102,4783,87,-84,49,-17,-145
2,2511391,-1419,456,1102,4783,87,-84,49,-17,-145
2,2511405,-1412,475,1100,4779,85,-94,49,-17,-145
2,2511418,-1412,475,1100,4779,85,-94,49,-17,-145
2,2511433,-1416,462,1101,4779,85,-87,49,-17,-145
2,2511449,-1412,476,1091,4780,83,-88,49,-17,-145
2,2511464,-1415,446,1099,4778,79,-86,49,-17,-145
2,2511479,-1407,479,1098,4777,86,-84,49,-17,-145
2,2511494,-1407,479,1098,4777,86,-84,49,-17,-145
2,2511507,-1408,471,1102,4780,87,-78,52,-26,-150
2,2511517,-1408,471,1102,4780,87,-78,52,-26,-150
2,2511529,-1408,471,1102,4780,87,-78,52,-26,-150
2,2511545,-1412,469,1091,4781,86,-96,52,-26,-150
2,2511558,-1412,469,1091,4781,86,-96,52,-26,-150
2,2511572,-1415,480,1091,4775,84,-87,52,-26,-150
2,2511586,-1411,473,1087,4770,77,-81,52,-26,-150
2,2511600,-1424,479,1089,4773,83,-90,52,-26,-150
2,2511616,-1424,479,1089,4773,83,-90,52,-26,-150
2,2511628,-1411,482,1084,4772,85,-96,51,-21,-151
2,2511641,-1414,481,1094,4769,85,-88,51,-21,-151
2,2511655,-1414,481,1094,4769,85,-88,51,-21,-151
2,2511670,-1413,503,1094,4766,79,-80,51,-21,-151
2,2511684,-1418,483,1088,4776,78,-81,51,-21,-151
2,2511698,-1418,483,1088,4776,78,-81,51,-21,-151
2,2511712,-1415,496,1090,4773,85,-87,51,-21,-151
2,2511726,-1412,482,1087,4768,88,-85,51,-21,-151
2,2511741,-1416,505,1087,4765,83,-81,51,-21,-151
2,2511757,-1416,505,1087,4765,83,-81,51,-21,-151
2,2511772,-1422,494,1082,4766,75,-81,50,-22,-160
2,2511784,-1420,501,1094,4766,79,-87,50,-22,-160
2,2511799,-1420,501,1094,4766,79,-87,50,-22,-160
2,2511812,-1410,497,1090,4767,82,-89,50,-22,-160
2,2511825,-1421,504,1086,4767,80,-88,50,-22,-160
2,2511840,-1414,504,1090,4771,73,-87,50,-22,-160
2,2511853,-1414,504,1090,4771,73,-87,50,-22,-160
2,2511865,-1421,528,1091,4770,84,-86,50,-22,-160
2,2511878,-1421,528,1091,4770,84,-86,50,-22,-160
2,2511892,-1411,528,1094,4773,78,-91,55,-27,-161
2,2511905,-1421,523,1098,4774,80,-80,55,-27,-161
2,2511920,-1419,535,1088,4770,92,-90,55,-27,-161
2,2511935,-1419,535,1088,4770,92,-90,55,-27,-161
2,2511950,-1422,538,1095,4776,92,-82,55,-27,-161
2,2511966,-1422,535,1095,4777,92,-83,55,-27,-161
2,2511981,-1416,533,1090,4775,89,-88,55,-27,-161
2,2511994,-1416,533,1090,4775,89,-88,55,-27,-161
2,2512008,-1422,526,1099,4776,89,-82,56,-24,-168
2,2512022,-1418,537,1100,4785,93,-86,56,-24,-168
2,2512035,-1418,537,1100,4785,93,-86,56,-24,-168
2,2512050,-1421,521,1104,4787,89,-83,56,-24,-168
2,2512065,-1415,522,1098,4787,84,-88,56,-24,-168
2,2512079,-1415,522,1098,4787,84,-88,56,-24,-168
2,2512093,-1417,520,1104,4784,95,-94,56,-24,-168
2,2512107,-1418,511,1100,4789,88,-89,56,-24,-168
2,2512120,-1419,520,1107,4784,80,-90,54,-30,-174
2,2512133,-1419,520,1107,4784,80,-90,54,-30,-174
2,2512145,-1418,516,1103,4789,87,-86,54,-30,-174
2,2512160,-1416,505,1095,4789,87,-89,54,-30,-174
2,2512174,-1416,505,1095,4789,87,-89,54,-30,-174
2,2512182,-1422,507,1101,4789,87,-93,54,-30,-174
2,2512190,-1422,507,1101,4789,87,-93,54,-30,-174
2,2512202,-1420,501,1096,4783,87,-86,54,-30,-174
2,2512218,-1420,501,1096,4783,87,-86,54,-30,-174
2,2512232,-1419,501,1102,4790,85,-93,54,-30,-174
2,2512246,-1416,484,1103,4791,81,-90,49,-35,-181
2,2512260,-1410,456,1110,4794,81,-87,49,-35,-181
2,2512273,-1410,456,1110,4794,81,-87,49,-35,-181
2,2512284,-1412,497,1101,4789,85,-84,49,-35,-181
2,2512297,-1412,497,1101,4789,85,-84,49,-35,-181
2,2512311,-1417,488,1102,4789,87,-80,49,-35,-181
2,2512325,-1419,474,1096,4781,83,-87,49,-35,-181
2,2512333,-1419,474,1096,4781,83,-87,49,-35,-181
2,2512345,-1415,466,1094,4783,83,-94,49,-35,-181
2,2512358,-1415,466,1094,4783,83,-94,49,-35,-181
2,2512372,-1413,465,1097,4782,84,-90,52,-28,-186
2,2512386,-1412,470,1097,4778,76,-79,52,-28,-186
2,2512397,-1412,470,1097,4778,76,-79,52,-28,-186
2,2512405,-1415,448,1098,4773,73,-90,52,-28,-186
2,2512413,-1415,448,1098,4773,73,-90,52,-28,-186
2,2512422,-1411,466,1087,4778,89,-89,52,-28,-186
2,2512432,-1411,466,1087,4778,89,-89,52,-28,-186
2,2512440,-1410,476,1098,4782,89,-81,52,-28,-186
2,2512449,-1410,476,1098,4782,89,-81,52,-28,-186
2,2512458,-1410,476,1098,4782,89,-81,52,-28,-186
2,2512466,-1414,480,1092,4774,85,-83,52,-28,-186
2,2512475,-1414,480,1092,4774,85,-83,52,-28,-186
2,2512484,-1419,472,1094,4779,78,-90,52,-28,-186
2,2512492,-1419,472,1094,4779,78,-90,52,-28,-186
2,2512500,-1414,485,1091,4765,88,-88,52,-24,-184
2,2512508,-1414,485,1091,4765,88,-88,52,-24,-184
2,2512518,-1414,485,1091,4765,88,-88,52,-24,-184
2,2512526,-1415,476,1089,4767,84,-86,52,-24,-184
2,2512534,-1415,476,1089,4767,84,-86,52,-24,-184
2,2512542,-1421,474,1094,4772,87,-85,52,-24,-184
2,2512550,-1421,474,1094,4772,87,-85,52,-24,-184
2,2512559,-1421,474,1094,4772,87,-85,52,-24,-184
2,2512568,-1415,476,1087,4772,85,-94,52,-24,-184
2,2512576,-1415,476,1087,4772,85,-94,52,-24,-184
2,2512584,-1415,478,1091,4764,85,-92,52,-24,-184
2,2512592,-1415,478,1091,4764,85,-92,52,-24,-184
2,2512602,-1415,478,1091,4764,85,-92,52,-24,-184
2,2512610,-1415,478,1091,4764,85,-92,52,-24,-184
2,2512619,-1415,478,1091,4764,85,-92,52,-24,-184
2,2512627,-1414,508,1092,4764,76,-82,53,-23,-191
2,2512635,-1414,508,1092,4764,76,-82,53,-23,-191
2,2512645,-1417,488,1091,4768,84,-92,53,-23,-191
2,2512655,-1417,488,1091,4768,84,-92,53,-23,-191
2,2512665,-1418,485,1089,4770,91,-90,53,-23,-191
2,2512674,-1418,485,1089,4770,91,-90,53,-23,-191
2,2512684,-1410,493,1086,4768,80,-87,53,-23,-191
2,2512698,-1410,493,1086,4768,80,-87,53,-23,-191
2,2512712,-1424,496,1090,4758,78,-80,53,-23,-191
2,2512728,-1413,502,1086,4760,93,-88,53,-23,-191
2,2512739,-1413,502,1086,4760,93,-88,53,-23,-191
2,2512752,-1416,498,1094,4762,84,-89,59,-19,-201
2,2512765,-1416,506,1089,4762,89,-82,59,-19,-201
2,2512779,-1416,506,1089,4762,89,-82,59,-19,-201
2,2512795,-1419,505,1094,4768,88,-75,59,-19,-201
2,2512807,-1418,526,1094,4774,82,-87,59,-19,-201
2,2512818,-1418,526,1094,4774,82,-87,59,-19,-201
2,2512832,-1417,526,1090,4763,87,-86,59,-19,-201
2,2512847,-1416,511,1095,4768,78,-85,59,-19,-201
2,2512862,-1418,528,1095,4772,86,-82,67,-31,-207
2,2512876,-1418,528,1095,4772,86,-82,67,-31,-207
2,2512890,-1423,542,1096,4767,82,-86,67,-31,-207
2,2512906,-1420,540,1089,4774,83,-85,67,-31,-207
2,2512921,-1424,536,1094,4776,86,-86,67,-31,-207
2,2512935,-1424,536,1094,4776,86,-86,67,-31,-207
2,2512950,-1420,528,1093,4783,85,-90,67,-31,-207
2,2512957,-1420,528,1093,4783,85,-90,67,-31,-207
2,2512970,-1416,534,1096,4783,75,-86,67,-31,-207
2,2512986,-1415,525,1105,4785,83,-93,70,-20,-220
2,2512999,-1415,525,1105,4785,83,-93,70,-20,-220
2,2513012,-1417,520,1097,4782,79,-88,70,-20,-220
2,2513027,-1417,523,1103,4781,84,-90,70,-20,-220
2,2513039,-1417,523,1103,4781,84,-90,70,-20,-220
2,2513054,-1416,521,1094,4785,92,-85,70,-20,-220
2,2513067,-1423,518,1098,4788,85,-94,70,-20,-220
2,2513081,-1418,523,1094,4788,85,-88,70,-20,-220
2,2513095,-1418,523,1094,4788,85,-88,70,-20,-220
2,2513108,-1420,504,1099,4781,87,-82,70,-20,-220
2,2513123,-1416,505,1103,4783,91,-96,98,-16,-218
2,2513134,-1416,505,1103,4783,91,-96,98,-16,-218
2,2513148,-1419,497,1105,4788,87,-87,98,-16,-218
2,2513163,-1415,496,1104,4788,86,-92,98,-16,-218
2,2513176,-1415,496,1104,4788,86,-92,98,-16,-218
2,2513190,-1414,501,1101,4789,83,-88,98,-16,-218
2,2513206,-1413,460,1101,4791,82,-86,98,-16,-218
2,2513221,-1415,493,1102,4787,80,-93,98,-16,-218
2,2513234,-1415,493,1102,4787,80,-93,98,-16,-218
2,2513249,-1419,474,1105,4793,84,-89,94,-14,-230
2,2513262,-1418,485,1104,4788,85,-83,94,-14,-230
2,2513275,-1418,485,1104,4788,85,-83,94,-14,-230
2,2513290,-1412,451,1096,4789,88,-86,94,-14,-230
2,2513304,-1417,470,1098,4785,89,-89,94,-14,-230
2,2513317,-1417,470,1098,4785,89,-89,94,-14,-230
2,2513332,-1407,454,1096,4786,87,-87,94,-14,-230
2,2513346,-1419,457,1096,4783,83,-88,94,-14,-230
2,2513360,-1419,457,1096,4783,83,-88,94,-14,-230
2,2513370,-1411,462,1096,4778,86,-91,101,-25,-233
2,2513384,-1410,486,1098,4778,89,-83,101,-25,-233
2,2513398,-1410,486,1098,4778,89,-83,101,-25,-233
2,2513414,-1414,463,1093,4782,80,-89,101,-25,-233
2,2513425,-1413,473,1091,4775,75,-97,101,-25,-233
2,2513439,-1413,473,1091,4775,75,-97,101,-25,-233
2,2513454,-1413,472,1092,4778,81,-87,101,-25,-233
2,2513468,-1412,482,1090,4773,87,-83,101,-25,-233
2,2513481,-1415,467,1092,4772,90,-79,107,-13,-227
2,2513496,-1415,467,1092,4772,90,-79,107,-13,-227
2,2513509,-1422,483,1088,4768,79,-98,107,-13,-227
2,2513522,-1411,475,1098,4765,92,-94,107,-13,-227
2,2513536,-1411,475,1098,4765,92,-94,107,-13,-227
2,2513549,-1410,478,1093,4766,90,-83,107,-13,-227
2,2513563,-1413,492,1086,4773,71,-90,107,-13,-227
2,2513577,-1413,492,1086,4773,71,-90,107,-13,-227
2,2513588,-1418,502,1089,4769,91,-84,107,-13,-227
2,2513602,-1414,491,1091,4769,87,-88,118,-18,-236
2,2513617,-1414,491,1091,4769,87,-88,118,-18,-236
2,2513633,-1417,482,1092,4768,85,-87,118,-18,-236
2,2513645,-1414,507,1083,4761,90,-92,118,-18,-236
2,2513658,-1414,507,1083,4761,90,-92,118,-18,-236
2,2513673,-1419,498,1088,4757,90,-82,118,-18,-236
2,2513687,-1415,499,1088,4762,87,-92,118,-18,-236
2,2513700,-1415,499,1088,4762,87,-92,118,-18,-236
2,2513712,-1414,496,1089,4762,80,-83,118,-18,-236
2,2513726,-1415,507,1086,4764,84,-79,118,-18,-236
2,2513739,-1415,507,1086,4764,84,-79,118,-18,-236
2,2513753,-1417,504,1095,4765,81,-85,117,-19,-233
2,2513767,-1418,533,1090,4766,84,-96,117,-19,-233
2,2513781,-1421,513,1088,4767,85,-84,117,-19,-233
2,2513796,-1421,513,1088,4767,85,-84,117,-19,-233
2,2513809,-1415,531,1094,4764,88,-86,117,-19,-233
2,2513820,-1415,531,1094,4764,88,-86,117,-19,-233
2,2513836,-1419,532,1086,4767,88,-89,117,-19,-233
2,2513847,-1423,540,1087,4765,87,-85,117,-19,-233
2,2513861,-1418,530,1099,4774,81,-86,117,-19,-233
2,2513876,-1418,530,1099,4774,81,-86,126,-22,-226
2,2513891,-1422,528,1093,4773,81,-95,126,-22,-226
2,2513905,-1416,526,1100,4774,84,-94,126,-22,-226
2,2513920,-1416,526,1100,4774,84,-94,126,-22,-226
2,2513933,-1422,535,1094,4776,90,-85,126,-22,-226
2,2513944,-1419,516,1100,4775,93,-85,126,-22,-226
2,2513958,-1419,516,1100,4775,93,-85,126,-22,-226
2,2513972,-1419,528,1099,4787,87,-86,126,-22,-226
2,2513986,-1420,516,1102,4777,82,-87,124,-28,-236
2,2513999,-1420,516,1102,4777,82,-87,124,-28,-236
2,2514014,-1419,517,1098,4784,96,-82,124,-28,-236
2,2514028,-1424,515,1097,4788,92,-86,124,-28,-236
2,2514039,-1424,515,1097,4788,92,-86,124,-28,-236
2,2514054,-1419,512,1093,4784,89,-90,124,-28,-236
2,2514069,-1418,503,1100,4782,82,-81,124,-28,-236
2,2514084,-1418,504,1101,4782,84,-85,124,-28,-236
2,2514098,-1418,504,1101,4782,84,-85,124,-28,-236
2,2514111,-1415,493,1097,4787,86,-80,129,-23,-237
2,2514125,-1418,494,1104,4789,84,-82,129,-23,-237
2,2514140,-1418,494,1104,4789,84,-82,129,-23,-237
2,2514152,-1413,486,1098,4791,91,-84,129,-23,-237
2,2514162,-1417,459,1108,4790,91,-86,129,-23,-237
2,2514174,-1417,459,1108,4790,91,-86,129,-23,-237
2,2514188,-1417,459,1108,4790,91,-86,129,-23,-237
2,2514201,-1415,485,1101,4787,96,-85,129,-23,-237
2,2514215,-1415,485,1101,4787,96,-85,129,-23,-237
2,2514228,-1418,469,1098,4783,91,-87,137,-23,-243
2,2514240,-1418,469,1098,4783,91,-87,137,-23,-243
2,2514255,-1408,468,1100,4778,90,-91,137,-23,-243
2,2514268,-1417,460,1103,4783,81,-85,137,-23,-243
2,2514281,-1417,460,1103,4783,81,-85,137,-23,-243
2,2514295,-1411,473,1101,4786,91,-80,137,-23,-243
2,2514310,-1413,457,1101,4782,86,-87,137,-23,-243
2,2514323,-1415,472,1092,4777,88,-98,137,-23,-243
2,2514338,-1415,472,1092,4777,88,-98,137,-23,-243
2,2514354,-1410,474,1095,4781,97,-91,137,-23,-243
2,2514367,-1422,477,1095,4779,87,-86,140,-20,-232
2,2514380,-1422,477,1095,4779,87,-86,140,-20,-232
2,2514394,-1417,472,1085,4780,88,-90,140,-20,-232
2,2514407,-1417,479,1087,4772,91,-84,140,-20,-232
2,2514420,-1417,479,1087,4772,91,-84,140,-20,-232
2,2514435,-1412,467,1092,4775,97,-85,140,-20,-232
2,2514450,-1414,473,1091,4773,85,-79,140,-20,-232
2,2514462,-1414,477,1089,4774,86,-76,140,-20,-232
2,2514475,-1414,477,1089,4774,86,-76,140,-20,-232
2,2514490,-1412,487,1101,4777,93,-84,148,-16,-232
2,2514503,-1417,503,1102,4772,88,-83,148,-16,-232
2,2514519,-1417,503,1102,4772,88,-83,148,-16,-232
2,2514533,-1417,487,1091,4769,82,-83,148,-16,-232
2,2514548,-1412,493,1088,4773,85,-89,148,-16,-232
2,2514563,-1412,483,1089,4764,89,-90,148,-16,-232
2,2514578,-1412,483,1089,4764,89,-90,148,-16,-232
2,2514591,-1415,500,1097,4765,88,-88,148,-16,-232
2,2514606,-1419,490,1090,4768,83,-87,141,-13,-231
2,2514620,-1419,490,1090,4768,83,-87,141,-13,-231
2,2514634,-1416,502,1088,4767,80,-96,141,-13,-231
2,2514648,-1409,503,1089,4767,81,-91,141,-13,-231
2,2514662,-1421,509,1091,4772,82,-86,141,-13,-231
2,2514675,-1421,509,1091,4772,82,-86,141,-13,-231
2,2514689,-1414,510,1088,4776,82,-91,141,-13,-231
2,2514703,-1419,524,1094,4773,96,-83,141,-13,-231
2,2514717,-1419,524,1094,4773,96,-83,141,-13,-231
2,2514729,-1414,519,1099,4772,98,-90,142,-18,-228
2,2514742,-1423,514,1093,4776,85,-82,142,-18,-228
2,2514757,-1423,514,1093,4776,85,-82,142,-18,-228
2,2514774,-1419,537,1090,4774,79,-85,142,-18,-228
2,2514789,-1426,538,1091,4777,91,-88,142,-18,-228
2,2514802,-1423,532,1094,4777,87,-90,142,-18,-228
2,2514816,-1423,532,1094,4777,87,-90,142,-18,-228
2,2514830,-1420,531,1100,4775,88,-89,142,-18,-228
2,2514844,-1421,525,1098,4780,89,-84,152,-16,-222
2,2514856,-1421,525,1098,4780,89,-84,152,-16,-222
2,2514866,-1414,529,1105,4787,86,-87,152,-16,-222
2,2514873,-1414,529,1105,4787,86,-87,152,-16,-222
2,2514882,-1414,529,1105,4787,86,-87,152,-16,-222
2,2514890,-1417,515,1098,4790,85,-84,152,-16,-222
2,2514904,-1418,516,1095,4789,87,-81,152,-16,-222
2,2514913,-1418,516,1095,4789,87,-81,152,-16,-222
2,2514921,-1418,516,1095,4789,87,-81,152,-16,-222
2,2514931,-1411,528,1102,4786,86,-79,152,-16,-222
2,2514940,-1411,528,1102,4786,86,-79,152,-16,-222
2,2514950,-1420,509,1099,4784,91,-79,152,-16,-222
2,2514959,-1420,509,1099,4784,91,-79,152,-16,-222
2,2514972,-1418,522,1097,4791,85,-88,152,-16,-222
2,2514987,-1417,518,1101,4782,91,-91,153,-17,-221
2,2515002,-1417,518,1101,4782,91,-91,153,-17,-221
2,2515017,-1420,503,1104,4793,97,-83,153,-17,-221
2,2515033,-1414,496,1099,4790,97,-84,153,-17,-221
2,2515048,-1419,501,1100,4792,88,-85,153,-17,-221
2,2515062,-1412,497,1101,4785,89,-87,153,-17,-221
2,2515073,-1412,497,1101,4785,89,-87,153,-17,-221
2,2515086,-1418,499,1101,4784,86,-81,153,-17,-221
2,2515097,-1418,499,1101,4784,86,-81,153,-17,-221
2,2515111,-1412,459,1102,4793,87,-92,158,-6,-214
2,2515125,-1418,491,1101,4794,89,-92,158,-6,-214
2,2515138,-1418,491,1101,4794,89,-92,158,-6,-214
2,2515150,-1415,472,1103,4794,98,-81,158,-6,-214
2,2515162,-1415,472,1103,4794,98,-81,158,-6,-214
2,2515176,-1418,488,1102,4790,91,-83,158,-6,-214
2,2515186,-1415,450,1095,4790,85,-93,158,-6,-214
2,2515201,-1415,450,1095,4790,85,-93,158,-6,-214
2,2515213,-1411,476,1095,4789,90,-91,158,-6,-214
2,2515227,-1410,450,1094,4787,89,-94,158,-2,-218
2,2515244,-1418,468,1098,4785,82,-87,158,-2,-218
2,2515259,-1418,468,1098,4785,82,-87,158,-2,-218
2,2515273,-1406,458,1097,4786,85,-88,158,-2,-218
2,2515286,-1415,481,1097,4776,90,-87,158,-2,-218
2,2515299,-1415,481,1097,4776,90,-87,158,-2,-218
2,2515312,-1408,467,1091,4776,95,-86,158,-2,-218
2,2515325,-1421,475,1090,4774,82,-86,158,-2,-218
2,2515340,-1421,475,1090,4774,82,-86,158,-2,-218
2,2515354,-1411,476,1092,4774,88,-83,167,-5,-205
2,2515367,-1417,487,1092,4774,95,-82,167,-5,-205
2,2515382,-1417,487,1092,4774,95,-82,167,-5,-205
2,2515395,-1413,470,1089,4771,87,-85,167,-5,-205
2,2515408,-1413,487,1084,4773,89,-87,167,-5,-205
2,2515423,-1412,471,1086,4771,94,-81,167,-5,-205
2,2515438,-1412,471,1086,4771,94,-81,167,-5,-205
2,2515453,-1408,483,1092,4766,90,-88,167,-5,-205
2,2515468,-1417,507,1091,4771,88,-87,167,-7,-213
2,2515483,-1420,492,1087,4771,91,-83,167,-7,-213
2,2515496,-1420,492,1087,4771,91,-83,167,-7,-213
2,2515505,-1411,493,1090,4772,86,-88,167,-7,-213
2,2515518,-1411,493,1090,4772,86,-88,167,-7,-213
2,2515532,-1416,488,1083,4769,94,-83,167,-7,-213
2,2515547,-1421,504,1088,4772,79,-89,167,-7,-213
2,2515560,-1421,504,1088,4772,79,-89,167,-7,-213
2,2515574,-1419,494,1087,4769,86,-80,167,-7,-213
2,2515589,-1415,495,1091,4772,99,-82,163,5,-209
2,2515601,-1415,495,1091,4772,99,-82,163,5,-209
2,2515613,-1410,501,1092,4774,90,-85,163,5,-209
2,2515628,-1417,500,1099,4777,93,-80,163,5,-209
2,2515644,-1413,516,1093,4776,94,-86,163,5,-209
2,2515657,-1413,516,1093,4776,94,-86,163,5,-209
2,2515673,-1420,530,1082,4771,90,-93,163,5,-209
2,2515687,-1415,523,1090,4770,93,-83,163,5,-209
2,2515701,-1415,523,1090,4770,93,-83,163,5,-209
2,2515715,-1420,528,1086,4770,92,-82,163,5,-209
2,2515729,-1424,537,1096,4772,90,-79,179,-1,-193
2,2515744,-1416,537,1097,4774,91,-81,179,-1,-193
2,2515760,-1416,537,1097,4774,91,-81,179,-1,-193
2,2515769,-1421,531,1095,4776,90,-83,179,-1,-193
2,2515783,-1416,531,1092,4779,83,-79,179,-1,-193
2,2515798,-1416,531,1092,4779,83,-79,179,-1,-193
2,2515811,-1420,531,1095,4777,87,-83,179,-1,-193
2,2515825,-1415,532,1097,4782,88,-83,179,-1,-193
2,2515838,-1415,532,1097,4782,88,-83,179,-1,-193
2,2515851,-1419,517,1098,4780,86,-88,174,0,-192
2,2515864,-1419,521,1102,4790,95,-85,174,0,-192
2,2515878,-1419,521,1102,4790,95,-85,174,0,-192
2,2515892,-1416,516,1100,4789,95,-84,174,0,-192
2,2515907,-1420,514,1100,4791,93,-94,174,0,-192
2,2515918,-1420,514,1100,4791,93,-94,174,0,-192
2,2515932,-1419,520,1097,4783,92,-84,174,0,-192
2,2515946,-1423,509,1102,4789,94,-88,174,0,-192
2,2515961,-1423,509,1102,4789,94,-88,174,0,-192
2,2515976,-1419,508,1100,4784,89,-91,169,-1,-187
2,2515989,-1417,507,1100,4788,97,-83,169,-1,-187
2,2516004,-1416,495,1098,4785,96,-82,169,-1,-187
2,2516020,-1416,495,1098,4785,96,-82,169,-1,-187
2,2516035,-1415,494,1101,4792,92,-82,169,-1,-187
2,2516048,-1419,490,1098,4794,90,-80,169,-1,-187
2,2516063,-1419,490,1098,4794,90,-80,169,-1,-187
2,2516076,-1413,455,1097,4794,86,-86,169,-1,-187
2,2516091,-1412,500,1097,4790,94,-88,167,-7,-193
2,2516104,-1418,477,1106,4786,96,-92,167,-7,-193
2,2516116,-1418,477,1106,4786,96,-92,167,-7,-193
2,2516131,-1415,480,1098,4784,91,-91,167,-7,-193
2,2516145,-1409,463,1095,4784,88,-89,167,-7,-193
2,2516160,-1409,463,1095,4784,88,-89,167,-7,-193
2,2516174,-1414,469,1103,4787,90,-90,167,-7,-193
2,2516190,-1408,468,1100,4786,91,-84,167,-7,-193
2,2516205,-1417,455,1100,4783,86,-89,166,-8,-184
2,2516220,-1417,455,1100,4783,86,-89,166,-8,-184
2,2516234,-1410,469,1101,4776,94,-91,166,-8,-184
2,2516248,-1416,474,1104,4777,95,-81,166,-8,-184
2,2516261,-1416,474,1104,4777,95,-81,166,-8,-184
2,2516274,-1407,481,1092,4773,86,-79,166,-8,-184
2,2516287,-1416,469,1095,4770,85,-82,166,-8,-184
2,2516300,-1416,469,1095,4770,85,-82,166,-8,-184
2,2516315,-1410,476,1089,4768,94,-85,166,-8,-184
2,2516329,-1411,472,1095,4771,91,-70,166,-8,-184
2,2516342,-1411,472,1095,4771,91,-70,166,-8,-184
2,2516355,-1419,474,1094,4776,79,-77,169,-11,-179
2,2516368,-1414,479,1089,4767,81,-90,169,-11,-179
2,2516383,-1414,479,1089,4767,81,-90,169,-11,-179
2,2516399,-1418,484,1091,4769,91,-92,169,-11,-179
2,2516414,-1411,494,1091,4771,90,-83,169,-11,-179
2,2516426,-1417,493,1089,4776,84,-82,169,-11,-179
2,2516441,-1417,493,1089,4776,84,-82,169,-11,-179
2,2516457,-1413,489,1089,4771,88,-91,169,-11,-179
2,2516472,-1408,480,1098,4768,98,-92,168,-8,-174
2,2516487,-1411,498,1094,4762,91,-86,168,-8,-174
2,2516501,-1411,498,1094,4762,91,-86,168,-8,-174
2,2516514,-1420,487,1089,4769,82,-81,168,-8,-174
2,2516529,-1417,503,1086,4769,90,-85,168,-8,-174
2,2516544,-1413,492,1086,4770,91,-84,168,-8,-174
2,2516556,-1413,492,1086,4770,91,-84,168,-8,-174
2,2516569,-1416,510,1094,4766,89,-72,168,-8,-174
2,2516584,-1417,501,1095,4768,85,-86,168,-14,-166
2,2516598,-1417,501,1095,4768,85,-86,168,-14,-166
2,2516613,-1413,516,1098,4769,84,-86,168,-14,-166
2,2516626,-1412,525,1087,4768,83,-91,168,-14,-166
2,2516639,-1412,525,1087,4768,83,-91,168,-14,-166
2,2516653,-1420,521,1091,4773,83,-85,168,-14,-166
2,2516668,-1419,541,1085,4769,82,-90,168,-14,-166
2,2516683,-1424,537,1094,4774,87,-95,168,-14,-166
2,2516699,-1424,537,1094,4774,87,-95,168,-14,-166
2,2516713,-1416,541,1100,4774,83,-88,163,-9,-151
2,2516725,-1420,530,1095,4776,85,-86,163,-9,-151
2,2516739,-1420,530,1095,4776,85,-86,163,-9,-151
2,2516753,-1417,527,1096,4785,84,-88,163,-9,-151
2,2516767,-1412,536,1096,4781,87,-83,163,-9,-151
2,2516782,-1412,536,1096,4781,87,-83,163,-9,-151
2,2516795,-1420,520,1100,4778,83,-75,163,-9,-151
2,2516811,-1417,523,1094,4781,80,-83,163,-9,-151
2,2516824,-1425,525,1098,4781,81,-85,154,-6,-151
2,2516837,-1425,525,1098,4781,81,-85,154,-6,-160
2,2516850,-1414,524,1100,4786,91,-82,154,-6,-160
2,2516865,-1423,522,1100,4787,85,-85,154,-6,-160
2,2516879,-1423,522,1100,4787,85,-85,154,-6,-160
2,2516893,-1418,515,1096,4780,82,-90,154,-6,-160
2,2516909,-1417,501,1102,4783,82,-91,154,-6,-160
2,2516921,-1417,501,1102,4783,82,-91,154,-6,-160
2,2516936,-1419,506,1104,4791,77,-90,154,-6,-160
2,2516952,-1413,496,1102,4785,84,-88,154,-6,-160
2,2516967,-1422,499,1102,4793,90,-84,159,-11,-149
2,2516980,-1422,499,1102,4793,90,-84,159,-11,-149
2,2516993,-1420,502,1097,4786,85,-82,159,-11,-149
2,2517005,-1414,453,1107,4787,88,-83,159,-11,-149
2,2517019,-1414,453,1107,4787,88,-83,159,-11,-149
2,2517032,-1416,489,1099,4792,81,-86,159,-11,-149
2,2517047,-1414,476,1107,4789,90,-79,159,-11,-149
2,2517059,-1414,476,1107,4789,90,-79,159,-11,-149
2,2517071,-1412,484,1099,4785,93,-79,159,-11,-149
2,2517085,-1410,453,1099,4791,86,-85,146,-10,-136
2,2517099,-1410,453,1099,4791,86,-85,146,-10,-136
2,2517113,-1416,472,1099,4785,91,-81,146,-10,-136
2,2517129,-1409,466,1096,4784,90,-83,146,-10,-136
2,2517142,-1409,466,1096,4784,90,-83,146,-10,-136
2,2517156,-1418,463,1099,4780,90,-87,146,-10,-136
2,2517171,-1415,460,1091,4783,79,-92,146,-10,-136
2,2517186,-1406,480,1094,4776,83,-84,146,-10,-136
2,2517201,-1406,480,1094,4776,83,-84,146,-10,-136
2,2517216,-1414,472,1102,4775,91,-80,154,-14,-136
2,2517228,-1417,470,1095,4777,81,-84,154,-14,-136
2,2517240,-1417,470,1095,4777,81,-84,154,-14,-136
2,2517255,-1411,475,1091,4775,85,-89,154,-14,-136
2,2517268,-1413,482,1091,4775,85,-93,154,-14,-136
2,2517282,-1413,482,1091,4775,85,-93,154,-14,-136
2,2517295,-1412,474,1091,4771,80,-86,154,-14,-136
2,2517307,-1419,481,1087,4771,87,-94,154,-14,-136
2,2517322,-1419,481,1087,4771,87,-94,154,-14,-136
2,2517338,-1414,481,1091,4767,87,-98,142,-22,-132
2,2517352,-1413,487,1091,4776,83,-86,142,-22,-132
2,2517365,-1416,502,1093,4769,81,-87,142,-22,-132
2,2517381,-1416,502,1093,4769,81,-87,142,-22,-132
2,2517396,-1419,489,1090,4774,81,-98,142,-22,-132
2,2517411,-1416,486,1090,4776,88,-93,142,-22,-132
2,2517427,-1411,498,1091,4773,92,-83,142,-22,-132
2,2517440,-1411,498,1091,4773,92,-83,142,-22,-132
2,2517453,-1418,498,1091,4770,80,-90,140,-22,-130
2,2517468,-1416,501,1086,4768,85,-87,140,-22,-130
2,2517483,-1416,501,1086,4768,85,-87,140,-22,-130
2,2517498,-1415,490,1089,4767,91,-83,140,-22,-130
2,2517511,-1417,510,1090,4774,83,-82,140,-22,-130
2,2517524,-1417,510,1090,4774,83,-82,140,-22,-130
2,2517539,-1417,502,1090,4773,84,-76,140,-22,-130
2,2517554,-1422,519,1094,4769,90,-89,140,-22,-130
2,2517568,-1416,522,1092,4774,85,-84,140,-22,-130
2,2517582,-1416,522,1092,4774,85,-84,140,-22,-130
2,2517598,-1415,523,1102,4770,83,-84,122,-16,-124
2,2517613,-1416,528,1090,4773,81,-90,122,-16,-124
2,2517627,-1419,539,1096,4775,84,-91,122,-16,-124
2,2517641,-1419,539,1096,4775,84,-91,122,-16,-124
2,2517655,-1413,542,1094,4774,85,-91,122,-16,-124
2,2517669,-1422,537,1097,4775,84,-91,122,-16,-124
2,2517680,-1422,537,1097,4775,84,-91,122,-16,-124
2,2517694,-1418,532,1093,4776,80,-84,122,-16,-124
2,2517707,-1422,538,1097,4776,85,-87,120,-24,-120
2,2517721,-1422,538,1097,4776,85,-87,120,-24,-120
2,2517735,-1415,526,1092,4784,82,-87,120,-24,-120
2,2517750,-1423,513,1104,4782,76,-89,120,-24,-120
2,2517763,-1423,513,1104,4782,76,-89,120,-24,-120
2,2517775,-1415,519,1099,4784,79,-94,120,-24,-120
2,2517789,-1416,521,1098,4780,93,-84,120,-24,-120
2,2517804,-1416,521,1098,4780,93,-84,120,-24,-120
2,2517817,-1417,519,1106,4780,81,-89,120,-24,-120
2,2517829,-1415,524,1100,4791,82,-89,129,-21,-115
2,2517842,-1415,524,1100,4791,82,-89,129,-21,-115
2,2517858,-1419,516,1105,4789,80,-92,129,-21,-115
2,2517871,-1413,512,1097,4789,88,-94,129,-21,-115
2,2517883,-1413,512,1097,4789,88,-94,129,-21,-115
2,2517898,-1418,502,1105,4784,87,-93,129,-21,-115
2,2517912,-1413,491,1099,4789,82,-85,129,-21,-115
2,2517926,-1421,493,1106,4795,86,-85,129,-21,-115
2,2517940,-1421,493,1106,4795,86,-85,129,-21,-115
2,2517953,-1417,473,1103,4794,86,-81,119,-33,-109
2,2517968,-1415,472,1108,4792,79,-84,119,-33,-109
2,2517982,-1415,472,1108,4792,79,-84,119,-33,-109
2,2517994,-1415,485,1097,4785,90,-82,119,-33,-109
2,2518007,-1411,492,1104,4786,86,-83,119,-33,-109
2,2518020,-1411,492,1104,4786,86,-83,119,-33,-109
2,2518035,-1417,459,1099,4783,85,-92,119,-33,-109
2,2518049,-1405,467,1095,4780,88,-95,119,-33,-109
2,2518062,-1405,467,1095,4780,88,-95,119,-33,-109
2,2518076,-1410,457,1103,4786,87,-85,108,-34,-104
2,2518091,-1415,459,1098,4786,90,-82,108,-34,-104
2,2518107,-1412,455,1097,4780,88,-87,108,-34,-104
2,2518122,-1412,455,1097,4780,88,-87,108,-34,-104
2,2518132,-1413,480,1094,4783,84,-86,108,-34,-104
2,2518146,-1413,471,1095,4775,84,-80,108,-34,-104
2,2518160,-1413,471,1095,4775,84,-80,108,-34,-104
2,2518174,-1412,473,1091,4770,84,-90,108,-34,-104
2,2518189,-1417,472,1089,4768,79,-95,108,-34,-104
2,2518203,-1417,472,1089,4768,79,-95,108,-34,-104
2,2518216,-1409,488,1094,4767,87,-87,105,-19,-95
2,2518227,-1412,468,1093,4775,91,-86,105,-19,-95
2,2518242,-1412,468,1093,4775,91,-86,105,-19,-95
2,2518255,-1413,484,1090,4770,88,-91,105,-19,-95
2,2518269,-1412,472,1087,4771,91,-86,105,-19,-95
2,2518286,-1416,486,1098,4770,89,-89,105,-19,-95
2,2518301,-1416,486,1098,4770,89,-89,105,-19,-95
2,2518317,-1418,502,1089,4775,82,-85,105,-19,-95
2,2518332,-1422,486,1093,4772,89,-90,103,-33,-103
2,2518347,-1404,492,1093,4763,88,-92,103,-33,-103
2,2518361,-1404,492,1093,4763,88,-92,103,-33,-103
2,2518375,-1411,484,1090,4768,98,-89,103,-33,-103
2,2518389,-1408,503,1091,4770,94,-90,103,-33,-103
2,2518403,-1408,503,1091,4770,94,-90,103,-33,-103
2,2518418,-1408,503,1091,4770,94,-90,103,-33,-103
2,2518430,-1417,506,1087,4769,87,-87,103,-33,-103
2,2518445,-1417,506,1087,4769,87,-87,103,-33,-103
2,2518459,-1408,505,1091,4768,93,-86,94,-38,-106
2,2518473,-1422,504,1088,4773,83,-91,94,-38,-106
2,2518489,-1413,514,1086,4772,85,-90,94,-38,-106
2,2518504,-1413,514,1086,4772,85,-90,94,-38,-106
2,2518519,-1418,521,1093,4777,88,-87,94,-38,-106
2,2518535,-1412,512,1094,4771,91,-97,94,-38,-106
2,2518549,-1415,521,1091,4774,86,-87,94,-38,-106
2,2518562,-1415,521,1091,4774,86,-87,94,-38,-106
2,2518579,-1417,542,1092,4771,85,-91,87,-35,-103
2,2518593,-1417,540,1094,4771,80,-86,87,-35,-103
2,2518607,-1421,533,1095,4775,86,-89,87,-35,-103
2,2518620,-1421,533,1095,4775,86,-89,87,-35,-103
2,2518632,-1418,533,1090,4783,82,-83,87,-35,-103
2,2518645,-1420,529,1095,4781,96,-86,87,-35,-103
2,2518660,-1420,529,1095,4781,96,-86,87,-35,-103
2,2518674,-1419,529,1090,4779,83,-90,87,-35,-103
2,2518688,-1418,514,1100,4782,85,-90,95,-33,-105
2,2518700,-1418,514,1100,4782,85,-90,95,-33,-105
2,2518713,-1419,515,1097,4776,93,-92,95,-33,-105
2,2518728,-1414,522,1105,4786,92,-84,95,-33,-105
2,2518740,-1414,522,1105,4786,92,-84,95,-33,-105
2,2518755,-1419,517,1103,4790,86,-83,95,-33,-105
2,2518770,-1417,522,1099,4790,85,-93,95,-33,-105
2,2518786,-1417,522,1099,4790,85,-93,95,-33,-105
2,2518800,-1417,509,1100,4785,87,-87,95,-33,-105
2,2518813,-1418,500,1099,4787,91,-91,87,-33,-99
2,2518828,-1415,510,1097,4783,90,-84,87,-33,-99
2,2518843,-1415,510,1097,4783,90,-84,87,-33,-99
2,2518857,-1420,492,1101,4791,92,-83,87,-33,-99
2,2518868,-1417,495,1097,4792,84,-87,87,-33,-99
2,2518883,-1417,495,1097,4792,84,-87,87,-33,-99
2,2518897,-1417,491,1103,4786,80,-84,87,-33,-99
2,2518910,-1417,451,1099,4790,88,-87,87,-33,-99
2,2518925,-1417,451,1099,4790,88,-87,87,-33,-99
2,2518938,-1407,498,1101,4787,92,-89,87,-33,-99
2,2518950,-1417,478,1104,4791,94,-84,89,-31,-99
2,2518965,-1417,478,1104,4791,94,-84,89,-31,-99
2,2518978,-1411,484,1093,4787,98,-88,89,-31,-99
2,2518992,-1413,463,1101,4787,89,-91,89,-31,-99
2,2519007,-1417,476,1093,4779,97,-91,89,-31,-99
2,2519022,-1417,476,1093,4779,97,-91,89,-31,-99
2,2519037,-1411,473,1095,4782,87,-81,89,-31,-99
2,2519052,-1426,458,1096,4780,80,-84,89,-31,-99
2,2519065,-1426,458,1096,4780,80,-84,89,-31,-99
2,2519079,-1407,459,1095,4780,84,-89,82,-40,-96
2,2519095,-1412,469,1103,4778,90,-92,82,-40,-96
2,2519108,-1409,476,1096,4776,82,-89,82,-40,-96
2,2519120,-1409,476,1096,4776,82,-89,82,-40,-96
2,2519135,-1415,473,1098,4779,80,-84,82,-40,-96
2,2519149,-1409,482,1089,4774,83,-92,82,-40,-96
2,2519163,-1409,482,1089,4774,83,-92,82,-40,-96
2,2519177,-1410,476,1095,4774,87,-94,82,-40,-96
2,2519191,-1418,474,1090,4774,85,-88,75,-33,-95
2,2519203,-1418,474,1090,4774,85,-88,75,-33,-95
2,2519216,-1413,479,1090,4782,82,-89,75,-33,-95
2,2519230,-1417,486,1094,4779,91,-88,75,-33,-95
2,2519243,-1417,486,1094,4779,91,-88,75,-33,-95
2,2519258,-1414,497,1091,4768,87,-83,75,-33,-95
2,2519273,-1413,486,1090,4769,83,-79,75,-33,-95
2,2519286,-1417,490,1092,4769,94,-91,75,-33,-95
2,2519300,-1417,490,1092,4769,94,-91,75,-33,-95
2,2519315,-1410,488,1097,4765,90,-89,77,-31,-99
2,2519330,-1413,508,1092,4762,96,-90,77,-31,-99
2,2519346,-1413,508,1092,4762,96,-90,77,-31,-99
2,2519359,-1414,493,1092,4774,94,-83,77,-31,-99
2,2519371,-1415,503,1093,4771,96,-88,77,-31,-99
2,2519387,-1413,494,1093,4772,95,-93,77,-31,-99
2,2519401,-1413,494,1093,4772,95,-93,77,-31,-99
2,2519409,-1418,509,1090,4766,85,-92,77,-31,-99
2,2519424,-1418,509,1090,4766,85,-92,77,-31,-99
2,2519436,-1419,502,1089,4770,85,-83,76,-28,-102
2,2519450,-1419,524,1092,4770,90,-88,76,-28,-102
2,2519463,-1419,524,1092,4770,90,-88,76,-28,-102
2,2519478,-1417,521,1094,4769,91,-89,76,-28,-102
2,2519491,-1420,510,1095,4774,82,-89,76,-28,-102
2,2519506,-1412,529,1092,4778,83,-91,76,-28,-102
2,2519519,-1412,529,1092,4778,83,-91,76,-28,-102
2,2519533,-1423,538,1094,4771,88,-90,76,-28,-102
2,2519548,-1417,537,1090,4774,90,-90,76,-28,-102
2,2519564,-1417,537,1090,4774,90,-90,76,-28,-102
2,2519576,-1421,534,1099,4774,84,-92,72,-32,-100
2,2519588,-1419,531,1092,4777,90,-89,72,-32,-100
2,2519604,-1419,531,1092,4777,90,-89,72,-32,-100
2,2519617,-1417,534,1100,4784,84,-88,72,-32,-100
2,2519630,-1423,515,1098,4786,88,-88,72,-32,-100
2,2519645,-1423,515,1098,4786,88,-88,72,-32,-100
2,2519655,-1415,516,1095,4790,94,-85,72,-32,-100
2,2519668,-1415,516,1096,4789,89,-90,72,-32,-100
2,2519681,-1415,516,1096,4789,89,-90,72,-32,-100
2,2519695,-1412,515,1102,4789,90,-85,69,-29,-101
2,2519709,-1418,515,1102,4783,89,-91,69,-29,-101
2,2519723,-1418,515,1102,4783,89,-91,69,-29,-101
2,2519736,-1417,527,1094,4787,89,-87,69,-29,-101
2,2519751,-1416,510,1107,4790,91,-89,69,-29,-101
2,2519767,-1416,510,1107,4790,91,-89,69,-29,-101
2,2519782,-1417,503,1101,4788,89,-85,69,-29,-101
2,2519795,-1413,497,1104,4789,83,-87,69,-29,-101
2,2519806,-1420,497,1104,4792,94,-88,69,-29,-101
2,2519820,-1420,497,1104,4792,94,-88,61,-19,-115
2,2519834,-1421,497,1102,4794,90,-88,61,-19,-115
2,2519847,-1410,453,1101,4784,77,-87,61,-19,-115
2,2519860,-1410,453,1101,4784,77,-87,61,-19,-115
2,2519873,-1415,493,1099,4785,79,-87,61,-19,-115
2,2519886,-1415,493,1099,4785,79,-87,61,-19,-115
2,2519900,-1412,478,1107,4786,88,-81,61,-19,-115
2,2519914,-1413,491,1101,4785,90,-88,61,-19,-115
2,2519929,-1414,456,1099,4787,88,-96,58,-22,-108
2,2519942,-1414,456,1099,4787,88,-96,58,-22,-108
2,2519954,-1412,477,1101,4787,87,-101,58,-22,-108
2,2519968,-1413,456,1097,4782,87,-84,58,-22,-108
2,2519977,-1413,456,1097,4782,87,-84,58,-22,-108
2,2519994,-1416,462,1095,4778,90,-86,58,-22,-108
2,2520009,-1415,459,1086,4781,88,-92,58,-22,-108
2,2520025,-1415,459,1086,4781,88,-92,58,-22,-108
2,2520038,-1410,482,1098,4776,100,-94,58,-22,-108
2,2520052,-1413,466,1098,4778,91,-84,55,-27,-115
2,2520066,-1413,466,1098,4778,91,-84,55,-27,-115
2,2520078,-1417,470,1096,4778,92,-86,55,-27,-115
2,2520090,-1407,474,1094,4774,92,-91,55,-27,-115
2,2520099,-1407,474,1094,4774,92,-91,55,-27,-115
2,2520113,-1413,482,1094,4773,91,-86,55,-27,-115
2,2520125,-1413,482,1094,4773,91,-86,55,-27,-115
2,2520138,-1413,475,1089,4772,90,-82,55,-27,-115
2,2520152,-1419,489,1086,4763,85,-80,55,-27,-115
2,2520166,-1419,489,1086,4763,85,-80,55,-27,-115
2,2520180,-1413,479,1092,4763,96,-89,55,-27,-115
2,2520196,-1416,489,1090,4769,96,-88,57,-25,-113
2,2520209,-1417,491,1090,4762,86,-89,57,-25,-113
2,2520222,-1417,491,1090,4762,86,-89,57,-25,-113
2,2520237,-1416,489,1101,4767,81,-85,57,-25,-113
2,2520252,-1413,480,1093,4768,84,-88,57,-25,-113
2,2520267,-1408,503,1092,4763,84,-86,57,-25,-113
2,2520281,-1408,503,1092,4763,84,-86,57,-25,-113
2,2520291,-1421,495,1086,4765,83,-81,57,-25,-113
2,2520305,-1421,495,1086,4765,83,-81,57,-25,-113
2,2520318,-1418,508,1087,4772,85,-93,47,-23,-117
2,2520333,-1417,503,1090,4766,91,-95,47,-23,-117
2,2520347,-1417,507,1089,4765,83,-78,47,-23,-117
2,2520360,-1417,507,1089,4765,83,-78,47,-23,-117
2,2520373,-1416,500,1091,4766,87,-84,47,-23,-117
2,2520386,-1416,500,1091,4766,87,-84,47,-23,-117
2,2520400,-1419,522,1084,4761,89,-85,47,-23,-117
2,2520415,-1415,514,1089,4770,94,-91,47,-23,-117
2,2520430,-1415,513,1096,4771,87,-87,50,-16,-128
2,2520445,-1415,513,1096,4771,87,-87,50,-16,-128
2,2520460,-1415,526,1091,4764,95,-91,50,-16,-128
2,2520473,-1420,545,1097,4773,92,-88,50,-16,-128
2,2520488,-1416,537,1089,4775,87,-90,50,-16,-128
2,2520503,-1416,537,1089,4775,87,-90,50,-16,-128
2,2520517,-1421,537,1094,4773,86,-91,50,-16,-128
2,2520529,-1417,532,1093,4779,91,-89,50,-16,-128
2,2520543,-1417,532,1093,4779,91,-89,50,-16,-128
2,2520557,-1419,528,1102,4776,82,-87,45,-13,-127
2,2520570,-1417,521,1099,4776,75,-89,45,-13,-127
2,2520584,-1417,521,1099,4776,75,-89,45,-13,-127
2,2520599,-1425,513,1092,4772,84,-96,45,-13,-127
2,2520613,-1418,520,1095,4781,90,-93,45,-13,-127
2,2520625,-1418,520,1095,4781,90,-93,45,-13,-127
2,2520639,-1420,521,1105,4786,90,-86,45,-13,-127
2,2520652,-1419,516,1102,4781,85,-83,45,-13,-127
2,2520668,-1417,526,1096,4783,89,-90,50,-14,-132
2,2520682,-1417,526,1096,4783,89,-90,50,-14,-132
2,2520697,-1419,510,1104,4783,83,-91,50,-14,-132
2,2520714,-1414,504,1098,4790,85,-86,50,-14,-132
2,2520725,-1414,504,1098,4790,85,-86,50,-14,-132
2,2520740,-1420,507,1102,4786,82,-86,50,-14,-132
2,2520755,-1417,498,1099,4787,81,-90,50,-14,-132
2,2520769,-1417,493,1104,4790,86,-85,50,-14,-132
2,2520783,-1417,493,1104,4790,86,-85,50,-14,-132
2,2520795,-1416,480,1096,4790,88,-87,50,-14,-132
2,2520808,-1413,463,1103,4788,81,-92,57,-13,-131
2,2520822,-1413,463,1103,4788,81,-92,57,-13,-131
2,2520836,-1414,491,1099,4788,83,-84,57,-13,-131
2,2520850,-1412,483,1106,4785,82,-84,57,-13,-131
2,2520863,-1412,483,1106,4785,82,-84,57,-13,-131
2,2520878,-1421,464,1097,4789,77,-80,57,-13,-131
2,2520891,-1410,475,1091,4783,90,-84,57,-13,-131
2,2520904,-1410,475,1091,4783,90,-84,57,-13,-131
2,2520919,-1418,470,1099,4777,93,-88,57,-13,-131
2,2520933,-1415,475,1095,4781,89,-86,55,-15,-151
2,2520948,-1417,449,1098,4783,76,-87,55,-15,-151
2,2520963,-1417,449,1098,4783,76,-87,55,-15,-151
2,2520977,-1414,470,1091,4776,90,-90,55,-15,-151
2,2520991,-1407,475,1097,4773,90,-87,55,-15,-151
2,2521006,-1407,475,1097,4773,90,-87,55,-15,-151
2,2521019,-1416,474,1094,4778,82,-84,55,-15,-151
2,2521033,-1415,471,1091,4780,84,-89,55,-15,-151
2,2521044,-1415,471,1091,4780,84,-89,55,-15,-151
2,2521058,-1411,487,1103,4773,91,-87,55,-23,-153
2,2521072,-1413,472,1090,4765,93,-79,55,-23,-153
2,2521085,-1413,472,1090,4765,93,-79,55,-23,-153
2,2521100,-1418,477,1092,4771,82,-80,55,-23,-153
2,2521111,-1414,479,1083,4771,83,-80,55,-23,-153
2,2521125,-1414,479,1083,4771,83,-80,55,-23,-153
2,2521139,-1415,482,1088,4763,90,-83,55,-23,-153
2,2521153,-1411,494,1087,4765,76,-89,55,-23,-153
2,2521163,-1411,494,1087,4765,76,-89,55,-23,-153
2,2521177,-1421,496,1087,4765,81,-81,45,-17,-153
2,2521191,-1412,491,1087,4757,84,-82,45,-17,-153
2,2521205,-1412,491,1087,4757,84,-82,45,-17,-153
2,2521219,-1416,480,1095,4763,92,-89,45,-17,-153
2,2521233,-1410,505,1091,4770,83,-87,45,-17,-153
2,2521247,-1410,505,1091,4770,83,-87,45,-17,-153
2,2521262,-1418,498,1091,4769,78,-80,45,-17,-153
2,2521275,-1418,507,1088,4769,85,-86,45,-17,-153
2,2521289,-1411,497,1088,4769,88,-85,54,-28,-160
2,2521297,-1411,497,1088,4769,88,-85,54,-28,-160
2,2521310,-1420,507,1088,4762,78,-81,54,-28,-160
2,2521325,-1420,507,1088,4762,78,-81,54,-28,-160
2,2521338,-1417,506,1086,4765,83,-83,54,-28,-160
2,2521353,-1419,530,1089,4772,84,-92,54,-28,-160
2,2521364,-1419,530,1089,4772,84,-92,54,-28,-160
2,2521377,-1415,518,1093,4766,82,-91,54,-28,-160
2,2521391,-1416,518,1097,4770,78,-88,54,-28,-160
2,2521405,-1416,518,1097,4770,78,-88,54,-28,-160
2,2521419,-1417,535,1085,4765,80,-92,54,-28,-160
2,2521432,-1423,547,1099,4767,87,-90,56,-26,-162
2,2521444,-1423,547,1099,4767,87,-90,56,-26,-162
2,2521459,-1417,542,1093,4773,78,-91,56,-26,-162
2,2521475,-1422,545,1090,4774,85,-97,56,-26,-162
2,2521487,-1422,545,1090,4774,85,-97,56,-26,-162
2,2521499,-1422,528,1096,4781,85,-82,56,-26,-162
2,2521513,-1421,536,1096,4785,84,-86,56,-26,-162
2,2521527,-1421,536,1096,4785,84,-86,56,-26,-162
2,2521541,-1419,522,1099,4788,81,-82,56,-26,-162
2,2521554,-1419,515,1092,4788,81,-87,60,-26,-170
2,2521567,-1419,515,1092,4788,81,-87,60,-26,-170
2,2521581,-1416,517,1107,4785,87,-89,60,-26,-170
2,2521594,-1416,517,1104,4782,89,-88,60,-26,-170
2,2521608,-1421,526,1100,4788,87,-85,60,-26,-170
2,2521622,-1421,526,1100,4788,87,-85,60,-26,-170
2,2521637,-1422,522,1095,4793,88,-96,60,-26,-170
2,2521649,-1418,502,1101,4782,85,-86,60,-26,-170
2,2521662,-1418,502,1101,4782,85,-86,60,-26,-170
2,2521677,-1415,507,1105,4790,81,-75,54,-30,-182
2,2521693,-1415,499,1103,4794,89,-90,54,-30,-182
2,2521708,-1415,499,1103,4794,89,-90,54,-30,-182
2,2521722,-1413,499,1104,4793,91,-94,54,-30,-182
2,2521733,-1412,494,1099,4789,90,-95,54,-30,-182
2,2521746,-1412,494,1099,4789,90,-95,54,-30,-182
2,2521759,-1417,453,1106,4796,83,-89,54,-30,-182
2,2521774,-1410,497,1100,4785,85,-91,54,-30,-182
2,2521787,-1410,497,1100,4785,85,-91,54,-30,-182
2,2521802,-1419,480,1104,4785,85,-88,49,-23,-183
2,2521814,-1410,495,1101,4783,93,-92,49,-23,-183
2,2521827,-1410,495,1101,4783,93,-92,49,-23,-183
2,2521840,-1415,457,1098,4787,94,-92,49,-23,-183
2,2521856,-1416,472,1102,4780,83,-86,49,-23,-183
2,2521870,-1416,472,1102,4780,83,-86,49,-23,-183
2,2521878,-1416,472,1102,4780,83,-86,49,-23,-183
2,2521886,-1416,472,1102,4780,83,-86,49,-23,-183
2,2521894,-1418,459,1102,4784,82,-82,49,-23,-183
2,2521908,-1418,459,1102,4784,82,-82,49,-23,-183
2,2521921,-1416,461,1098,4781,91,-87,58,-22,-186
2,2521934,-1410,480,1103,4777,86,-83,58,-22,-186
2,2521948,-1410,480,1103,4777,86,-83,58,-22,-186
2,2521961,-1413,477,1095,4777,81,-83,58,-22,-186
2,2521975,-1415,471,1092,4774,79,-94,58,-22,-186
2,2521989,-1413,477,1093,4770,89,-90,58,-22,-186
2,2522003,-1413,477,1093,4770,89,-90,58,-22,-186
2,2522014,-1413,483,1103,4767,94,-80,58,-22,-186
2,2522029,-1419,478,1090,4768,88,-86,58,-22,-186
2,2522042,-1419,478,1090,4768,88,-86,58,-26,-186
2,2522056,-1416,488,1090,4764,89,-95,58,-26,-186
2,2522072,-1416,479,1091,4770,87,-90,58,-26,-186
2,2522087,-1416,479,1091,4770,87,-90,58,-26,-186
2,2522101,-1412,490,1093,4767,84,-78,58,-26,-186
2,2522115,-1415,498,1092,4774,85,-80,58,-26,-186
2,2522129,-1420,491,1090,4766,85,-92,58,-26,-186
2,2522141,-1420,491,1090,4766,85,-92,58,-26,-186
2,2522152,-1408,483,1094,4760,89,-90,58,-26,-186
2,2522166,-1408,483,1094,4760,89,-90,58,-26,-186
2,2522180,-1410,501,1096,4763,79,-89,58,-24,-206
2,2522193,-1417,498,1096,4766,77,-77,58,-24,-206
2,2522208,-1417,498,1096,4766,77,-77,58,-24,-206
2,2522218,-1414,513,1090,4761,84,-80,58,-24,-206
2,2522231,-1417,491,1091,4766,78,-84,58,-24,-206
2,2522247,-1417,491,1091,4766,78,-84,58,-24,-206
2,2522262,-1412,513,1092,4767,82,-83,58,-24,-206
2,2522275,-1418,496,1088,4769,78,-80,58,-24,-206
2,2522291,-1421,524,1095,4767,89,-92,69,-23,-205
2,2522305,-1421,524,1095,4767,89,-92,69,-23,-205
2,2522320,-1415,528,1095,4760,89,-88,69,-23,-205
2,2522335,-1417,518,1097,4763,79,-87,69,-23,-205
2,2522348,-1417,518,1097,4763,79,-87,69,-23,-205
2,2522361,-1417,526,1090,4765,78,-89,69,-23,-205
2,2522376,-1421,541,1095,4773,91,-88,69,-23,-205
2,2522391,-1412,538,1092,4772,84,-85,69,-23,-205
2,2522403,-1412,538,1092,4772,84,-85,69,-23,-205
2,2522415,-1417,538,1105,4774,86,-82,73,-17,-213
2,2522428,-1417,538,1105,4774,86,-82,73,-17,-213
2,2522442,-1416,530,1094,4783,84,-81,73,-17,-213
2,2522456,-1417,536,1101,4784,88,-79,73,-17,-213
2,2522469,-1420,523,1097,4782,87,-87,73,-17,-213
2,2522483,-1420,523,1097,4782,87,-87,73,-17,-213
2,2522498,-1416,519,1097,4785,80,-85,73,-17,-213
2,2522512,-1417,522,1098,4783,89,-79,73,-17,-213
2,2522525,-1417,522,1098,4783,89,-79,73,-17,-213
2,2522539,-1416,522,1102,4783,96,-80,80,-18,-218
2,2522552,-1419,515,1108,4782,91,-86,80,-18,-218
2,2522565,-1419,515,1108,4782,91,-86,80,-18,-218
2,2522578,-1417,525,1099,4778,85,-88,80,-18,-218
2,2522591,-1415,506,1104,4784,87,-87,80,-18,-218
2,2522606,-1415,506,1104,4784,87,-87,80,-18,-218
2,2522618,-1420,507,1099,4788,85,-93,80,-18,-218
2,2522632,-1422,506,1100,4793,94,-93,80,-18,-218
2,2522645,-1422,506,1100,4793,94,-93,80,-18,-218
2,2522659,-1416,496,1098,4793,89,-91,89,-17,-215
2,2522669,-1416,496,1098,4793,89,-91,89,-17,-215
2,2522683,-1418,493,1106,4791,83,-86,89,-17,-215
2,2522692,-1411,462,1102,4785,89,-86,89,-17,-215
2,2522707,-1411,462,1102,4785,89,-86,89,-17,-215
2,2522719,-1411,483,1100,4789,93,-89,89,-17,-215
2,2522733,-1411,483,1105,4785,93,-90,89,-17,-215
2,2522748,-1411,483,1105,4785,93,-90,89,-17,-215
2,2522764,-1412,501,1106,4790,78,-92,89,-17,-215
2,2522777,-1414,458,1098,4787,82,-92,89,-17,-215
2,2522790,-1414,479,1099,4786,83,-84,97,-15,-227
2,2522805,-1414,479,1099,4786,83,-84,97,-15,-227
2,2522818,-1411,464,1099,4782,86,-86,97,-15,-227
2,2522832,-1417,461,1095,4787,91,-84,97,-15,-227
2,2522847,-1417,461,1095,4787,91,-84,97,-15,-227
2,2522858,-1411,458,1097,4780,93,-82,97,-15,-227
2,2522870,-1413,477,1093,4783,93,-88,97,-15,-227
2,2522884,-1413,477,1093,4783,93,-88,97,-15,-227
2,2522898,-1410,468,1098,4778,91,-95,97,-15,-227
2,2522906,-1410,468,1098,4778,91,-95,97,-15,-227
2,2522919,-1416,476,1097,4770,80,-92,119,-17,-229
2,2522933,-1412,481,1094,4764,85,-92,119,-17,-229
2,2522947,-1412,481,1094,4764,85,-92,119,-17,-229
2,2522961,-1417,485,1091,4772,94,-82,119,-17,-229
2,2522977,-1408,471,1097,4774,91,-72,119,-17,-229
2,2522990,-1416,479,1086,4768,89,-85,119,-17,-229
2,2523003,-1416,479,1086,4768,89,-85,119,-17,-229
2,2523018,-1412,478,1091,4772,86,-84,119,-17,-229
2,2523032,-1408,482,1098,4769,102,-77,112,-24,-228
2,2523045,-1408,482,1098,4769,102,-77,112,-24,-228
2,2523059,-1416,472,1089,4770,90,-89,112,-24,-228
2,2523074,-1420,525,1097,4766,86,-87,112,-24,-228
2,2523087,-1420,525,1097,4766,86,-87,112,-24,-228
2,2523102,-1416,481,1090,4770,98,-81,112,-24,-228
2,2523115,-1417,495,1092,4769,91,-85,112,-24,-228
2,2523128,-1417,495,1092,4769,91,-85,112,-24,-228
2,2523144,-1408,491,1090,4766,77,-77,112,-24,-228
2,2523158,-1421,511,1088,4763,83,-76,106,-20,-236
2,2523170,-1404,492,1089,4763,89,-79,106,-20,-236
2,2523185,-1404,492,1089,4763,89,-79,106,-20,-236
2,2523199,-1422,503,1086,4766,91,-85,106,-20,-236
2,2523212,-1412,509,1083,4771,92,-81,106,-20,-236
2,2523227,-1412,509,1083,4771,92,-81,106,-20,-236
2,2523241,-1421,507,1089,4771,94,-79,106,-20,-236
2,2523250,-1414,510,1086,4772,88,-85,106,-20,-236
2,2523261,-1414,510,1086,4772,88,-85,106,-20,-236
2,2523276,-1417,527,1086,4772,80,-91,120,-20,-238
2,2523292,-1415,526,1100,4761,84,-86,120,-20,-238
2,2523303,-1415,526,1100,4761,84,-86,120,-20,-238
2,2523318,-1416,537,1087,4766,85,-87,120,-20,-238
2,2523332,-1416,540,1089,4771,85,-84,120,-20,-238
2,2523345,-1416,540,1089,4771,85,-84,120,-20,-238
2,2523357,-1418,552,1089,4774,86,-87,120,-20,-238
2,2523371,-1416,535,1095,4770,91,-79,120,-20,-238
2,2523378,-1416,535,1095,4770,91,-79,120,-20,-238
2,2523387,-1416,535,1095,4770,91,-79,120,-20,-238
2,2523395,-1418,531,1095,4774,85,-87,120,-20,-238
2,2523403,-1418,531,1095,4774,85,-87,120,-20,-238
2,2523416,-1416,533,1095,4784,96,-82,125,-25,-237
2,2523430,-1419,520,1102,4788,92,-86,125,-25,-237
2,2523440,-1419,520,1102,4788,92,-86,125,-25,-237
2,2523448,-1419,520,1102,4788,92,-86,125,-25,-237
2,2523460,-1414,516,1104,4788,90,-88,125,-25,-237
2,2523474,-1419,522,1099,4787,81,-87,125,-25,-237
2,2523488,-1419,522,1099,4787,81,-87,125,-25,-237
2,2523503,-1415,518,1102,4787,89,-85,125,-25,-237
2,2523515,-1417,517,1098,4783,91,-90,125,-25,-237
2,2523529,-1417,517,1098,4783,91,-90,125,-25,-237
2,2523544,-1417,523,1105,4789,90,-85,127,-25,-233
2,2523559,-1413,512,1104,4785,88,-82,127,-25,-233
2,2523573,-1417,512,1103,4784,92,-87,127,-25,-233
2,2523587,-1417,512,1103,4784,92,-87,127,-25,-233
2,2523600,-1412,493,1103,4786,82,-90,127,-25,-233
2,2523612,-1415,505,1103,4788,74,-90,127,-25,-233
2,2523626,-1415,505,1103,4788,74,-90,127,-25,-233
2,2523640,-1417,501,1099,4792,80,-93,127,-25,-233
2,2523654,-1416,458,1104,4790,89,-90,134,-26,-234
2,2523667,-1416,458,1104,4790,89,-90,134,-26,-234
2,2523680,-1412,490,1100,4789,96,-84,134,-26,-234
2,2523693,-1416,484,1100,4787,90,-82,134,-26,-234
2,2523706,-1416,484,1100,4787,90,-82,134,-26,-234
2,2523720,-1415,485,1104,4782,90,-84,134,-26,-234
2,2523734,-1405,464,1105,4785,81,-94,134,-26,-234
2,2523748,-1405,464,1105,4785,81,-94,134,-26,-234
2,2523763,-1417,471,1103,4787,85,-86,134,-26,-234
2,2523779,-1407,471,1095,4788,87,-90,136,-20,-236
2,2523791,-1415,462,1102,4782,83,-89,136,-20,-236
2,2523804,-1415,462,1102,4782,83,-89,136,-20,-236
2,2523819,-1415,467,1092,4781,86,-84,136,-20,-236
2,2523831,-1410,478,1095,4778,85,-87,136,-20,-236
2,2523843,-1410,478,1095,4778,85,-87,136,-20,-236
2,2523856,-1410,470,1096,4772,88,-88,136,-20,-236
2,2523870,-1410,470,1096,4772,88,-88,136,-20,-236
2,2523884,-1414,467,1092,4779,90,-84,136,-20,-236
2,2523897,-1411,483,1102,4775,92,-89,142,-28,-224
2,2523908,-1411,483,1102,4775,92,-89,142,-28,-224
2,2523921,-1412,482,1095,4774,87,-74,142,-28,-224
2,2523935,-1415,480,1096,4772,87,-79,142,-28,-224
2,2523950,-1415,480,1096,4772,87,-79,142,-28,-224
2,2523965,-1413,484,1092,4772,89,-89,142,-28,-224
2,2523980,-1418,489,1086,4770,100,-86,142,-28,-224
2,2523995,-1408,483,1093,4770,90,-83,142,-28,-224
2,2524009,-1408,483,1093,4770,90,-83,142,-28,-224
2,2524022,-1419,502,1087,4771,86,-82,142,-28,-224
2,2524037,-1415,483,1096,4773,91,-77,142,-20,-230
2,2524049,-1415,483,1096,4773,91,-77,142,-20,-230
2,2524063,-1413,494,1092,4773,92,-81,142,-20,-230
2,2524078,-1408,490,1092,4770,81,-84,142,-20,-230
2,2524091,-1419,501,1090,4768,77,-81,142,-20,-230
2,2524105,-1419,501,1090,4768,77,-81,142,-20,-230
2,2524120,-1412,503,1084,4762,90,-82,142,-20,-230
2,2524133,-1413,501,1089,4773,96,-89,142,-20,-230
2,2524145,-1413,501,1089,4773,96,-89,142,-20,-230
2,2524158,-1413,507,1092,4774,88,-84,149,-23,-229
2,2524172,-1420,501,1090,4773,84,-82,149,-23,-229
2,2524186,-1420,501,1090,4773,84,-82,149,-23,-229
2,2524198,-1415,511,1089,4764,77,-91,149,-23,-229
2,2524212,-1415,525,1095,4767,90,-81,149,-23,-229
2,2524226,-1415,525,1095,4767,90,-81,149,-23,-229
2,2524240,-1416,520,1098,4768,86,-78,149,-23,-229
2,2524255,-1419,533,1091,4773,80,-91,149,-23,-229
2,2524269,-1419,533,1091,4773,80,-91,149,-23,-229
2,2524281,-1417,535,1096,4778,89,-88,150,-16,-226
2,2524296,-1412,539,1093,4772,83,-96,150,-16,-226
2,2524309,-1412,539,1093,4772,83,-96,150,-16,-226
2,2524323,-1418,539,1097,4776,87,-90,150,-16,-226
2,2524338,-1420,534,1097,4785,92,-92,150,-16,-226
2,2524352,-1416,535,1094,4780,99,-85,150,-16,-226
2,2524364,-1416,535,1094,4780,99,-85,150,-16,-226
2,2524378,-1418,528,1096,4783,94,-81,150,-16,-226
2,2524391,-1417,529,1096,4786,93,-89,150,-16,-226
2,2524401,-1417,529,1096,4786,93,-89,152,-14,-230
2,2524416,-1415,526,1099,4784,90,-87,152,-14,-230
2,2524428,-1415,526,1099,4784,90,-87,152,-14,-230
2,2524442,-1414,518,1101,4782,86,-91,152,-14,-230
2,2524456,-1416,513,1096,4788,97,-87,152,-14,-230
2,2524471,-1416,513,1096,4788,97,-87,152,-14,-230
2,2524484,-1413,528,1095,4787,86,-88,152,-14,-230
2,2524498,-1415,514,1101,4790,94,-83,152,-14,-230
2,2524514,-1411,514,1102,4786,86,-88,156,-4,-216
2,2524527,-1411,514,1102,4786,86,-88,156,-4,-216
2,2524541,-1411,501,1103,4783,82,-91,156,-4,-216
2,2524555,-1417,504,1099,4789,84,-95,156,-4,-216
2,2524569,-1417,504,1099,4789,84,-95,156,-4,-216
2,2524583,-1414,500,1104,4793,87,-85,156,-4,-216
2,2524597,-1415,457,1106,4790,84,-87,156,-4,-216
2,2524609,-1415,457,1106,4790,84,-87,156,-4,-216
2,2524622,-1411,491,1096,4782,82,-86,156,-4,-216
2,2524637,-1416,483,1103,4792,99,-79,159,-3,-219
2,2524650,-1416,483,1103,4792,99,-79,159,-3,-219
2,2524662,-1415,492,1103,4790,90,-84,159,-3,-219
2,2524675,-1411,468,1099,4784,92,-90,159,-3,-219
2,2524682,-1411,468,1099,4784,92,-90,159,-3,-219
2,2524695,-1410,477,1101,4786,93,-94,159,-3,-219
2,2524710,-1410,477,1101,4786,93,-94,159,-3,-219
2,2524725,-1407,472,1101,4786,90,-79,159,-3,-219
2,2524740,-1407,472,1101,4786,90,-79,159,-3,-219
2,2524751,-1408,464,1089,4777,86,-92,159,-3,-219
2,2524765,-1408,464,1089,4777,86,-92,159,-3,-219
2,2524779,-1412,476,1102,4776,85,-82,163,-5,-217
2,2524792,-1416,476,1096,4778,86,-86,163,-5,-217
2,2524807,-1416,476,1096,4778,86,-86,163,-5,-217
2,2524820,-1417,474,1096,4775,84,-89,163,-5,-217
2,2524834,-1413,480,1093,4781,91,-93,163,-5,-217
2,2524847,-1413,480,1093,4781,91,-93,163,-5,-217
2,2524860,-1403,484,1093,4774,86,-93,163,-5,-217
2,2524873,-1412,474,1096,4775,81,-88,163,-5,-217
2,2524888,-1412,474,1096,4775,81,-88,163,-5,-217
2,2524903,-1412,474,1096,4775,81,-88,176,-4,-210
2,2524917,-1413,482,1096,4775,93,-91,176,-4,-210
2,2524925,-1413,482,1096,4775,93,-91,176,-4,-210
2,2524934,-1415,484,1092,4770,86,-90,176,-4,-210
2,2524942,-1415,484,1092,4770,86,-90,176,-4,-210
2,2524954,-1418,503,1084,4764,87,-79,176,-4,-210
2,2524967,-1418,503,1084,4764,87,-79,176,-4,-210
2,2524981,-1422,491,1080,4771,86,-83,176,-4,-210
2,2524995,-1411,493,1094,4769,94,-87,176,-4,-210
2,2525008,-1411,493,1094,4769,94,-87,176,-4,-210
2,2525022,-1412,476,1091,4771,91,-92,164,-4,-206
2,2525037,-1412,505,1093,4770,79,-93,164,-4,-206
2,2525049,-1412,505,1093,4770,79,-93,164,-4,-206
2,2525064,-1415,495,1096,4767,88,-88,164,-4,-206
2,2525077,-1417,503,1089,4769,89,-90,164,-4,-206
2,2525090,-1417,503,1089,4769,89,-90,164,-4,-206
2,2525106,-1410,492,1088,4770,86,-93,164,-4,-206
2,2525117,-1420,519,1094,4770,86,-90,164,-4,-206
2,2525129,-1420,519,1094,4770,86,-90,164,-4,-206
2,2525139,-1414,503,1090,4770,77,-84,164,0,-196
2,2525155,-1414,513,1089,4769,90,-85,164,0,-196
2,2525170,-1414,513,1089,4769,90,-85,164,0,-196
2,2525186,-1411,513,1089,4775,88,-86,164,0,-196
2,2525200,-1420,527,1093,4774,87,-89,164,0,-196
2,2525213,-1417,534,1092,4778,87,-94,164,0,-196
2,2525229,-1417,534,1092,4778,87,-94,164,0,-196
2,2525242,-1420,541,1095,4773,86,-90,164,0,-196
2,2525255,-1415,551,1096,4770,86,-84,163,-5,-199
2,2525271,-1415,551,1096,4770,86,-84,163,-5,-199
2,2525285,-1418,547,1099,4766,88,-78,163,-5,-199
2,2525298,-1414,542,1100,4782,91,-85,163,-5,-199
2,2525312,-1416,534,1098,4781,86,-90,163,-5,-199
2,2525326,-1416,534,1098,4781,86,-90,163,-5,-199
2,2525340,-1416,523,1096,4780,85,-78,163,-5,-199
2,2525356,-1418,522,1096,4785,87,-82,163,-5,-199
2,2525371,-1418,522,1096,4785,87,-82,163,-5,-199
2,2525382,-1419,525,1095,4790,85,-80,163,-5,-199
2,2525399,-1415,518,1101,4787,86,-83,176,-4,-192
2,2525414,-1414,529,1104,4782,86,-85,176,-4,-192
2,2525429,-1414,529,1104,4782,86,-85,176,-4,-192
2,2525445,-1414,518,1105,4779,85,-79,176,-4,-192
2,2525458,-1416,518,1105,4783,79,-87,176,-4,-192
2,2525471,-1416,518,1105,4783,79,-87,176,-4,-192
2,2525486,-1415,516,1099,4789,91,-86,176,-4,-192
2,2525499,-1411,504,1102,4785,89,-80,176,-4,-192
