imu,time,ax,ay,az,gx,gy,gz,mx,my,mz
0,4216047,2106,2003,-331,3899,-223,-319,238,48,-306
0,4216052,2108,2000,-349,3900,-212,-328,238,48,-306
0,4216057,2108,2000,-349,3900,-212,-328,238,48,-306
0,4216062,2108,2000,-349,3900,-212,-328,238,48,-306
0,4216068,2108,2000,-349,3900,-212,-328,238,48,-306
0,4216073,2107,1999,-372,3907,-215,-313,238,48,-306
0,4216080,2107,1999,-372,3907,-215,-313,238,48,-306
0,4216087,2107,1999,-372,3907,-215,-313,238,48,-306
0,4216095,2106,1998,-356,3908,-216,-318,238,48,-306
0,4216101,2106,1998,-356,3908,-216,-318,238,48,-306
0,4216108,2106,1998,-356,3908,-216,-318,238,48,-306
0,4216115,2104,1998,-329,3899,-225,-317,238,48,-306
0,4216122,2104,1998,-329,3899,-225,-317,238,48,-306
0,4216127,2104,1998,-329,3899,-225,-317,238,48,-306
0,4216135,2107,2004,-344,3904,-226,-318,238,48,-306
0,4216141,2107,2004,-344,3904,-226,-318,238,48,-306
0,4216148,2107,2004,-344,3904,-226,-318,238,48,-306
0,4216155,2104,2000,-352,3902,-229,-317,238,42,-316
0,4216162,2104,2000,-352,3902,-229,-317,238,42,-316
0,4216170,2111,2000,-357,3903,-224,-316,238,42,-316
0,4216179,2111,2000,-357,3903,-224,-316,238,42,-316
0,4216185,2111,2000,-357,3903,-224,-316,238,42,-316
0,4216193,2103,1998,-342,3897,-233,-305,238,42,-316
0,4216200,2103,1998,-342,3897,-233,-305,238,42,-316
0,4216207,2103,1998,-342,3897,-233,-305,238,42,-316
0,4216212,2101,1997,-346,3897,-224,-308,238,42,-316
0,4216219,2101,1997,-346,3897,-224,-308,238,42,-316
0,4216227,2101,1997,-346,3897,-224,-308,238,42,-316
0,4216235,2111,2001,-352,3897,-226,-315,238,42,-316
0,4216242,2111,2001,-352,3897,-226,-315,238,42,-316
0,4216249,2111,2001,-352,3897,-226,-315,238,42,-316
0,4216255,2103,1992,-357,3896,-225,-320,238,42,-316
0,4216262,2103,1992,-357,3896,-225,-320,238,42,-316
0,4216270,2105,1997,-353,3891,-230,-322,238,42,-316
0,4216279,2105,1997,-353,3891,-230,-322,238,42,-316
0,4216286,2105,1997,-353,3891,-230,-322,238,42,-316
0,4216292,2104,1998,-347,3880,-230,-321,245,47,-313
0,4216300,2104,1998,-347,3880,-230,-321,245,47,-313
0,4216306,2104,1998,-347,3880,-230,-321,245,47,-313
0,4216311,2106,2000,-367,3899,-223,-320,245,47,-313
0,4216317,2106,2000,-367,3899,-223,-320,245,47,-313
0,4216325,2106,2000,-367,3899,-223,-320,245,47,-313
0,4216333,2105,1994,-376,3895,-225,-321,245,47,-313
0,4216341,2105,1994,-376,3895,-225,-321,245,47,-313
0,4216346,2105,1994,-376,3895,-225,-321,245,47,-313
0,4216353,2104,1994,-358,3886,-221,-320,245,47,-313
0,4216361,2104,1994,-358,3886,-221,-320,245,47,-313
0,4216369,2104,1994,-358,3886,-221,-320,245,47,-313
0,4216377,2105,1990,-355,3895,-226,-318,245,47,-313
0,4216383,2105,1990,-355,3895,-226,-318,245,47,-313
0,4216390,2105,1990,-355,3895,-226,-318,245,47,-313
0,4216397,2104,1997,-362,3900,-216,-319,245,47,-313
0,4216403,2104,1997,-362,3900,-216,-319,245,47,-313
0,4216412,2106,1993,-372,3907,-222,-322,256,38,-324
0,4216419,2106,1993,-372,3907,-222,-322,256,38,-324
0,4216426,2106,1993,-372,3907,-222,-322,256,38,-324
0,4216433,2106,2001,-381,3900,-224,-324,256,38,-324
0,4216440,2106,2001,-381,3900,-224,-324,256,38,-324
0,4216445,2106,2001,-381,3900,-224,-324,256,38,-324
0,4216453,2105,1995,-375,3899,-231,-323,256,38,-324
0,4216461,2105,1995,-375,3899,-231,-323,256,38,-324
0,4216467,2105,1995,-375,3899,-231,-323,256,38,-324
0,4216474,2108,1999,-389,3900,-234,-315,256,38,-324
0,4216480,2108,1999,-389,3900,-234,-315,256,38,-324
0,4216488,2108,1999,-389,3900,-234,-315,256,38,-324
0,4216497,2104,1994,-415,3899,-239,-313,256,38,-324
0,4216504,2104,1994,-415,3899,-239,-313,256,38,-324
0,4216511,2106,1998,-394,3898,-230,-323,256,38,-324
0,4216519,2106,1998,-394,3898,-230,-323,256,38,-324
0,4216526,2106,1998,-394,3898,-230,-323,256,38,-324
0,4216535,2108,1993,-367,3900,-227,-320,257,37,-313
0,4216542,2108,1993,-367,3900,-227,-320,257,37,-313
0,4216547,2108,1993,-367,3900,-227,-320,257,37,-313
0,4216554,2105,2005,-381,3902,-222,-312,257,37,-313
0,4216560,2105,2005,-381,3902,-222,-312,257,37,-313
0,4216568,2105,2005,-381,3902,-222,-312,257,37,-313
0,4216574,2105,1998,-375,3900,-224,-314,257,37,-313
0,4216583,2105,1998,-375,3900,-224,-314,257,37,-313
0,4216591,2107,2005,-391,3902,-220,-315,257,37,-313
0,4216598,2107,2005,-391,3902,-220,-315,257,37,-313
0,4216605,2107,2005,-391,3902,-220,-315,257,37,-313
0,4216613,2109,2002,-376,3904,-228,-319,257,37,-313
0,4216621,2109,2002,-376,3904,-228,-319,257,37,-313
0,4216628,2109,2002,-376,3904,-228,-319,257,37,-313
0,4216635,2104,2003,-377,3904,-225,-320,257,37,-313
0,4216642,2104,2003,-377,3904,-225,-320,257,37,-313
0,4216649,2104,2003,-377,3904,-225,-320,257,37,-313
0,4216655,2105,1996,-393,3910,-226,-323,257,37,-313
0,4216670,2105,1996,-393,3910,-226,-323,257,37,-313
0,4216678,2106,1998,-391,3897,-229,-318,261,39,-309
0,4216688,2106,1998,-391,3897,-229,-318,261,39,-309
0,4216697,2103,1998,-392,3887,-230,-317,261,39,-309
0,4216706,2103,1998,-392,3887,-230,-317,261,39,-309
0,4216717,2103,1998,-392,3887,-230,-317,261,39,-309
0,4216730,2103,1998,-392,3887,-230,-317,261,39,-309
0,4216744,2108,2006,-391,3903,-225,-321,261,39,-309
0,4216757,2104,2003,-397,3909,-222,-322,261,39,-309
0,4216768,2104,2003,-397,3909,-222,-322,261,39,-309
0,4216781,2103,2003,-373,3904,-224,-318,261,39,-309
0,4216795,2106,2005,-374,3910,-214,-323,269,35,-315
0,4216803,2106,2005,-374,3910,-214,-323,269,35,-315
0,4216810,2106,2005,-374,3910,-214,-323,269,35,-315
0,4216818,2107,2004,-368,3905,-221,-319,269,35,-315
0,4216826,2107,2004,-368,3905,-221,-319,269,35,-315
0,4216835,2105,2002,-367,3899,-221,-311,269,35,-315
0,4216843,2105,2002,-367,3899,-221,-311,269,35,-315
0,4216851,2103,2005,-376,3913,-223,-320,269,35,-315
0,4216859,2103,2005,-376,3913,-223,-320,269,35,-315
0,4216867,2103,2005,-376,3913,-223,-320,269,35,-315
0,4216876,2106,2004,-378,3909,-232,-324,269,35,-315
0,4216884,2106,2004,-378,3909,-232,-324,269,35,-315
0,4216892,2111,2006,-370,3907,-228,-318,269,35,-315
0,4216900,2111,2006,-370,3907,-228,-318,269,35,-315
0,4216907,2111,2006,-370,3907,-228,-318,269,35,-315
0,4216915,2104,2004,-384,3914,-226,-322,269,35,-315
0,4216924,2104,2004,-384,3914,-226,-322,269,35,-315
0,4216932,2104,2004,-368,3911,-226,-323,282,46,-310
0,4216939,2104,2004,-368,3911,-226,-323,282,46,-310
0,4216948,2104,2004,-368,3911,-226,-323,282,46,-310
0,4216956,2109,2008,-364,3901,-221,-320,282,46,-310
0,4216965,2109,2008,-364,3901,-221,-320,282,46,-310
0,4216972,2100,2001,-350,3907,-213,-324,282,46,-310
0,4216980,2100,2001,-350,3907,-213,-324,282,46,-310
0,4216988,2100,2001,-350,3907,-213,-324,282,46,-310
0,4216996,2107,2006,-347,3909,-215,-315,282,46,-310
0,4217004,2107,2006,-347,3909,-215,-315,282,46,-310
0,4217012,2108,2003,-372,3904,-222,-314,282,46,-310
0,4217019,2108,2003,-372,3904,-222,-314,282,46,-310
0,4217027,2108,2003,-372,3904,-222,-314,282,46,-310
0,4217035,2106,2007,-364,3898,-234,-316,282,46,-310
0,4217042,2106,2007,-364,3898,-234,-316,282,46,-310
0,4217051,2105,1999,-337,3904,-223,-320,284,44,-316
0,4217060,2105,1999,-337,3904,-223,-320,284,44,-316
0,4217072,2106,2004,-350,3906,-219,-314,284,44,-316
0,4217086,2106,2004,-350,3906,-219,-314,284,44,-316
0,4217101,2107,1999,-345,3904,-220,-319,284,44,-316
0,4217114,2105,2004,-360,3892,-223,-328,284,44,-316
0,4217127,2105,2004,-360,3892,-223,-328,284,44,-316
0,4217142,2106,2001,-351,3890,-225,-314,284,44,-316
0,4217154,2108,1998,-350,3898,-224,-318,284,44,-316
0,4217167,2108,1998,-350,3898,-224,-318,284,44,-316
0,4217182,2105,1996,-350,3904,-231,-324,284,44,-316
0,4217195,2106,2001,-354,3908,-225,-316,292,48,-310
0,4217208,2106,2001,-354,3908,-225,-316,292,48,-310
0,4217223,2104,2002,-352,3903,-228,-315,292,48,-310
0,4217234,2109,1997,-356,3896,-235,-311,292,48,-310
0,4217248,2109,1997,-356,3896,-235,-311,292,48,-310
0,4217264,2105,1998,-356,3901,-223,-311,292,48,-310
0,4217276,2104,1993,-369,3892,-221,-326,292,48,-310
0,4217290,2104,1993,-369,3892,-221,-326,292,48,-310
0,4217305,2103,1998,-375,3890,-225,-328,292,48,-310
0,4217320,2109,1998,-346,3899,-233,-321,297,41,-303
0,4217335,2103,1991,-360,3891,-228,-319,297,41,-303
0,4217349,2103,1991,-360,3891,-228,-319,297,41,-303
0,4217362,2108,1996,-372,3892,-225,-316,297,41,-303
0,4217376,2105,1994,-377,3888,-227,-319,297,41,-303
0,4217389,2105,1994,-377,3888,-227,-319,297,41,-303
0,4217402,2107,1999,-381,3896,-225,-321,297,41,-303
0,4217415,2104,1998,-375,3897,-231,-321,297,41,-303
0,4217430,2104,1998,-375,3897,-231,-321,297,41,-303
0,4217443,2104,1998,-375,3897,-231,-321,297,57,-295
0,4217455,2105,1993,-394,3904,-226,-326,297,57,-295
0,4217466,2105,1993,-394,3904,-226,-326,297,57,-295
0,4217480,2105,1993,-394,3904,-226,-326,297,57,-295
0,4217492,2107,1997,-387,3902,-217,-322,297,57,-295
0,4217507,2107,1997,-387,3902,-217,-322,297,57,-295
0,4217522,2102,2001,-373,3897,-214,-320,297,57,-295
0,4217533,2107,1990,-381,3904,-216,-326,297,57,-295
0,4217549,2107,1990,-381,3904,-216,-326,297,57,-295
0,4217564,2106,2003,-392,3908,-225,-328,297,57,-295
0,4217578,2107,1996,-380,3899,-229,-322,301,57,-281
0,4217590,2107,1996,-380,3899,-229,-322,301,57,-281
0,4217604,2104,2011,-387,3895,-224,-317,301,57,-281
0,4217618,2107,1998,-393,3903,-223,-313,301,57,-281
0,4217632,2106,2005,-403,3900,-227,-311,301,57,-281
0,4217646,2106,2005,-403,3900,-227,-311,301,57,-281
0,4217659,2107,1996,-407,3904,-224,-315,301,57,-281
0,4217670,2107,1996,-407,3904,-224,-315,301,57,-281
0,4217676,2105,2007,-389,3904,-228,-320,301,57,-281
0,4217683,2105,2007,-389,3904,-228,-320,301,57,-281
0,4217690,2105,2007,-389,3904,-228,-320,301,57,-281
0,4217696,2106,2002,-394,3896,-227,-315,292,56,-276
0,4217703,2106,2002,-394,3896,-227,-315,292,56,-276
0,4217709,2106,2002,-394,3896,-227,-315,292,56,-276
0,4217715,2104,2008,-380,3901,-215,-319,292,56,-276
0,4217720,2104,2008,-380,3901,-215,-319,292,56,-276
0,4217728,2104,2008,-380,3901,-215,-319,292,56,-276
0,4217735,2108,2003,-375,3904,-221,-315,292,56,-276
0,4217741,2108,2003,-375,3904,-221,-315,292,56,-276
0,4217747,2108,2003,-375,3904,-221,-315,292,56,-276
0,4217753,2106,2004,-371,3913,-223,-316,292,56,-276
0,4217759,2106,2004,-371,3913,-223,-316,292,56,-276
0,4217765,2106,2004,-371,3913,-223,-316,292,56,-276
0,4217772,2107,2005,-371,3911,-225,-320,292,56,-276
0,4217778,2107,2005,-371,3911,-225,-320,292,56,-276
0,4217785,2107,2005,-371,3911,-225,-320,292,56,-276
0,4217792,2105,2004,-380,3905,-228,-315,292,56,-276
0,4217798,2105,2004,-380,3905,-228,-315,292,56,-276
0,4217804,2105,2004,-380,3905,-228,-315,292,56,-276
0,4217810,2105,2004,-380,3905,-228,-315,292,56,-276
0,4217818,2104,2005,-382,3901,-231,-316,292,56,-276
0,4217824,2104,2005,-382,3901,-231,-316,292,56,-276
0,4217830,2104,2005,-382,3901,-231,-316,292,56,-276
0,4217838,2107,2004,-371,3904,-237,-319,302,56,-284
0,4217844,2107,2004,-371,3904,-237,-319,302,56,-284
0,4217849,2107,2004,-371,3904,-237,-319,302,56,-284
0,4217854,2105,2006,-383,3911,-226,-318,302,56,-284
0,4217861,2105,2006,-383,3911,-226,-318,302,56,-284
0,4217868,2105,2006,-383,3911,-226,-318,302,56,-284
0,4217875,2112,2004,-373,3906,-222,-309,302,56,-284
0,4217881,2112,2004,-373,3906,-222,-309,302,56,-284
0,4217887,2112,2004,-373,3906,-222,-309,302,56,-284
0,4217894,2102,2008,-375,3909,-224,-316,302,56,-284
0,4217899,2102,2008,-375,3909,-224,-316,302,56,-284
0,4217906,2102,2008,-375,3909,-224,-316,302,56,-284
0,4217912,2102,2008,-375,3909,-224,-316,302,56,-284
0,4217918,2106,2001,-360,3903,-226,-320,302,56,-284
0,4217924,2106,2001,-360,3903,-226,-320,302,56,-284
0,4217931,2106,2001,-360,3903,-226,-320,302,56,-284
0,4217936,2103,2003,-340,3903,-225,-319,302,56,-284
0,4217943,2103,2003,-340,3903,-225,-319,302,56,-284
0,4217949,2103,2003,-340,3903,-225,-319,302,56,-284
0,4217956,2106,2000,-358,3907,-213,-316,300,52,-274
0,4217963,2106,2000,-358,3907,-213,-316,300,52,-274
0,4217969,2106,2000,-358,3907,-213,-316,300,52,-274
0,4217975,2106,2003,-355,3905,-216,-315,300,52,-274
0,4217982,2106,2003,-355,3905,-216,-315,300,52,-274
0,4217988,2106,2003,-355,3905,-216,-315,300,52,-274
0,4217994,2109,2002,-351,3893,-227,-312,300,52,-274
0,4218000,2109,2002,-351,3893,-227,-312,300,52,-274
0,4218006,2109,2002,-351,3893,-227,-312,300,52,-274
0,4218012,2104,2005,-340,3894,-229,-317,300,52,-274
0,4218020,2104,2005,-340,3894,-229,-317,300,52,-274
0,4218027,2104,2005,-340,3894,-229,-317,300,52,-274
0,4218033,2105,1998,-345,3906,-230,-320,300,52,-274
0,4218041,2105,1998,-345,3906,-230,-320,300,52,-274
0,4218048,2105,1998,-345,3906,-230,-320,300,52,-274
0,4218055,2107,2001,-345,3901,-225,-315,300,52,-274
0,4218061,2107,2001,-345,3901,-225,-315,300,52,-274
0,4218067,2107,2001,-345,3901,-225,-315,300,52,-274
0,4218075,2105,1995,-356,3890,-226,-311,296,54,-268
0,4218081,2105,1995,-356,3890,-226,-311,296,54,-268
0,4218088,2105,1995,-356,3890,-226,-311,296,54,-268
0,4218094,2106,2004,-340,3896,-228,-319,296,54,-268
0,4218100,2106,2004,-340,3896,-228,-319,296,54,-268
0,4218105,2106,2004,-340,3896,-228,-319,296,54,-268
0,4218112,2106,2004,-340,3896,-228,-319,296,54,-268
0,4218119,2107,1993,-345,3897,-224,-314,296,54,-268
0,4218126,2107,1993,-345,3897,-224,-314,296,54,-268
0,4218131,2107,1993,-345,3897,-224,-314,296,54,-268
0,4218138,2107,2003,-355,3892,-232,-316,296,54,-268
0,4218144,2107,2003,-355,3892,-232,-316,296,54,-268
0,4218151,2107,2003,-355,3892,-232,-316,296,54,-268
0,4218157,2107,1994,-356,3899,-226,-320,296,54,-268
0,4218162,2107,1994,-356,3899,-226,-320,296,54,-268
0,4218169,2107,1994,-356,3899,-226,-320,296,54,-268
0,4218175,2104,1998,-355,3891,-228,-318,296,54,-268
0,4218181,2104,1998,-355,3891,-228,-318,296,54,-268
0,4218188,2104,1998,-355,3891,-228,-318,296,54,-268
0,4218194,2107,1996,-349,3898,-226,-318,296,54,-268
0,4218200,2107,1996,-349,3898,-226,-318,296,54,-268
0,4218207,2107,1996,-349,3898,-226,-318,296,54,-268
0,4218214,2108,1999,-358,3898,-225,-321,298,42,-264
0,4218221,2108,1999,-358,3898,-225,-321,298,42,-264
0,4218228,2108,1999,-358,3898,-225,-321,298,42,-264
0,4218233,2108,1996,-379,3896,-223,-320,298,42,-264
0,4218242,2108,1996,-379,3896,-223,-320,298,42,-264
0,4218248,2108,1996,-379,3896,-223,-320,298,42,-264
0,4218255,2106,1995,-357,3895,-219,-319,298,42,-264
0,4218261,2106,1995,-357,3895,-219,-319,298,42,-264
0,4218268,2106,1995,-357,3895,-219,-319,298,42,-264
0,4218275,2100,1995,-362,3891,-225,-319,298,42,-264
0,4218281,2100,1995,-362,3891,-225,-319,298,42,-264
0,4218288,2100,1995,-362,3891,-225,-319,298,42,-264
0,4218295,2106,2000,-363,3892,-228,-320,298,42,-264
0,4218301,2106,2000,-363,3892,-228,-320,298,42,-264
0,4218306,2106,2000,-363,3892,-228,-320,298,42,-264
0,4218312,2104,1994,-377,3896,-238,-326,298,42,-264
0,4218318,2104,1994,-377,3896,-238,-326,298,42,-264
0,4218324,2104,1994,-377,3896,-238,-326,298,42,-264
0,4218332,2104,1994,-377,3896,-238,-326,298,42,-264
0,4218340,2109,2002,-382,3893,-231,-322,302,54,-264
0,4218346,2109,2002,-382,3893,-231,-322,302,54,-264
0,4218352,2104,1994,-374,3895,-228,-321,302,54,-264
0,4218358,2104,1994,-374,3895,-228,-321,302,54,-264
0,4218364,2104,1994,-374,3895,-228,-321,302,54,-264
0,4218371,2104,1994,-374,3895,-228,-321,302,54,-264
0,4218378,2105,1997,-371,3907,-222,-321,302,54,-264
0,4218384,2105,1997,-371,3907,-222,-321,302,54,-264
0,4218389,2105,1997,-371,3907,-222,-321,302,54,-264
0,4218395,2107,1997,-392,3908,-221,-318,302,54,-264
0,4218402,2107,1997,-392,3908,-221,-318,302,54,-264
0,4218408,2107,1997,-392,3908,-221,-318,302,54,-264
0,4218415,2104,1995,-398,3899,-221,-310,302,54,-264
0,4218421,2104,1995,-398,3899,-221,-310,302,54,-264
0,4218427,2104,1995,-398,3899,-221,-310,302,54,-264
0,4218434,2107,1999,-384,3893,-224,-312,302,54,-264
0,4218439,2107,1999,-384,3893,-224,-312,302,54,-264
0,4218445,2107,1999,-384,3893,-224,-312,302,54,-264
0,4218451,2107,1999,-384,3893,-224,-312,302,54,-264
0,4218459,2106,1998,-378,3895,-220,-312,302,54,-264
0,4218466,2106,1998,-378,3895,-220,-312,302,54,-264
0,4218474,2104,1996,-379,3892,-217,-317,295,51,-251
0,4218480,2104,1996,-379,3892,-217,-317,295,51,-251
0,4218486,2104,1996,-379,3892,-217,-317,295,51,-251
0,4218493,2104,2001,-389,3901,-221,-319,295,51,-251
0,4218501,2104,2001,-389,3901,-221,-319,295,51,-251
0,4218507,2104,2001,-389,3901,-221,-319,295,51,-251
0,4218513,2104,2001,-381,3901,-213,-322,295,51,-251
0,4218520,2104,2001,-381,3901,-213,-322,295,51,-251
0,4218526,2104,2001,-381,3901,-213,-322,295,51,-251
0,4218532,2104,2001,-381,3901,-213,-322,295,51,-251
0,4218539,2107,2000,-382,3900,-219,-326,295,51,-251
0,4218546,2107,2000,-382,3900,-219,-326,295,51,-251
0,4218551,2107,2000,-382,3900,-219,-326,295,51,-251
0,4218557,2104,1996,-388,3901,-230,-319,295,51,-251
0,4218564,2104,1996,-388,3901,-230,-319,295,51,-251
0,4218570,2104,1996,-388,3901,-230,-319,295,51,-251
0,4218577,2103,2003,-408,3908,-226,-318,295,51,-251
0,4218583,2103,2003,-408,3908,-226,-318,295,51,-251
0,4218591,2103,2003,-408,3908,-226,-318,295,51,-251
0,4218597,2104,2005,-403,3899,-224,-317,295,47,-247
0,4218603,2104,2005,-403,3899,-224,-317,295,47,-247
0,4218608,2104,2005,-403,3899,-224,-317,295,47,-247
0,4218614,2104,2002,-390,3907,-223,-318,295,47,-247
0,4218620,2104,2002,-390,3907,-223,-318,295,47,-247
0,4218628,2104,2002,-390,3907,-223,-318,295,47,-247
0,4218634,2105,1996,-395,3905,-225,-319,295,47,-247
0,4218641,2105,1996,-395,3905,-225,-319,295,47,-247
0,4218647,2105,1996,-395,3905,-225,-319,295,47,-247
0,4218654,2106,2004,-388,3908,-228,-316,295,47,-247
0,4218661,2106,2004,-388,3908,-228,-316,295,47,-247
0,4218668,2106,2004,-388,3908,-228,-316,295,47,-247
0,4218680,2102,2001,-381,3907,-226,-316,295,47,-247
0,4218691,2102,2001,-381,3907,-226,-316,295,47,-247
0,4218702,2104,2006,-378,3906,-216,-321,295,47,-247
0,4218717,2104,2000,-370,3910,-221,-319,295,47,-247
0,4218730,2104,2000,-370,3910,-221,-319,295,47,-247
0,4218746,2104,2004,-369,3916,-224,-316,295,45,-251
0,4218762,2103,2000,-383,3916,-228,-315,295,45,-251
0,4218776,2104,2003,-381,3905,-228,-326,295,45,-251
0,4218790,2104,2003,-381,3905,-228,-326,295,45,-251
0,4218805,2108,2003,-376,3912,-225,-319,295,45,-251
0,4218819,2106,2004,-373,3899,-225,-318,295,45,-251
0,4218833,2106,1999,-369,3903,-214,-316,295,45,-251
0,4218848,2106,1999,-369,3903,-214,-316,295,45,-251
0,4218864,2105,2004,-363,3907,-226,-324,282,54,-246
0,4218876,2104,2005,-342,3911,-223,-321,282,54,-246
0,4218890,2104,2005,-342,3911,-223,-321,282,54,-246
0,4218904,2108,2005,-355,3908,-218,-317,282,54,-246
0,4218917,2104,2001,-358,3904,-221,-315,282,54,-246
0,4218932,2104,2001,-358,3904,-221,-315,282,54,-246
0,4218948,2110,2004,-351,3910,-217,-314,282,54,-246
0,4218962,2103,1999,-341,3908,-225,-310,282,54,-246
0,4218977,2106,2004,-352,3907,-226,-317,284,64,-236
0,4218990,2106,2004,-352,3907,-226,-317,284,64,-236
0,4219004,2108,1998,-340,3903,-224,-325,284,64,-236
0,4219020,2103,1996,-353,3906,-216,-322,284,64,-236
0,4219034,2104,1997,-351,3907,-231,-326,284,64,-236
0,4219045,2104,1997,-351,3907,-231,-326,284,64,-236
0,4219060,2101,1996,-350,3902,-223,-317,284,64,-236
0,4219073,2101,1996,-350,3902,-223,-317,284,64,-236
0,4219086,2106,1998,-352,3905,-226,-313,284,64,-236
0,4219101,2102,1993,-354,3898,-231,-311,284,64,-236
0,4219112,2102,1993,-354,3898,-231,-311,284,64,-236
0,4219125,2102,2003,-353,3891,-230,-321,285,63,-237
0,4219139,2103,1992,-351,3902,-230,-322,285,63,-237
0,4219152,2103,1992,-351,3902,-230,-322,285,63,-237
0,4219166,2101,1993,-350,3898,-220,-321,285,63,-237
0,4219180,2110,1993,-378,3898,-220,-320,285,63,-237
0,4219192,2110,1993,-378,3898,-220,-320,285,63,-237
0,4219207,2098,1992,-372,3904,-224,-324,285,63,-237
0,4219223,2106,1997,-354,3892,-227,-315,285,63,-237
0,4219238,2100,1992,-357,3895,-217,-315,275,75,-233
0,4219251,2100,1992,-357,3895,-217,-315,275,75,-233
0,4219265,2108,1999,-369,3896,-221,-310,275,75,-233
0,4219279,2103,1993,-377,3895,-220,-313,275,75,-233
0,4219293,2103,1993,-377,3895,-220,-313,275,75,-233
0,4219305,2098,1999,-379,3896,-229,-318,275,75,-233
0,4219320,2107,1996,-373,3897,-226,-317,275,75,-233
0,4219332,2107,1996,-373,3897,-226,-317,275,75,-233
0,4219347,2101,1995,-396,3905,-222,-317,275,75,-233
0,4219361,2103,1993,-394,3895,-224,-324,275,75,-233
0,4219374,2100,1998,-390,3893,-220,-324,281,75,-233
0,4219387,2100,1998,-390,3893,-220,-324,281,77,-229
0,4219402,2104,1991,-373,3899,-226,-316,281,77,-229
0,4219414,2104,1999,-377,3903,-218,-315,281,77,-229
0,4219428,2104,1999,-377,3903,-218,-315,281,77,-229
0,4219443,2102,1991,-395,3899,-229,-320,281,77,-229
0,4219458,2103,2002,-392,3894,-226,-324,281,77,-229
0,4219473,2103,2002,-392,3894,-226,-324,281,77,-229
0,4219489,2104,1994,-387,3896,-224,-315,281,77,-229
0,4219501,2101,2002,-385,3897,-221,-312,278,84,-216
0,4219514,2101,2002,-385,3897,-221,-312,278,84,-216
0,4219527,2101,2002,-385,3897,-221,-312,278,84,-216
0,4219541,2107,1997,-409,3901,-219,-322,278,84,-216
0,4219554,2105,1996,-397,3903,-223,-318,278,84,-216
0,4219567,2105,1996,-397,3903,-223,-318,278,84,-216
0,4219581,2101,2002,-399,3907,-228,-317,278,84,-216
0,4219594,2103,2001,-396,3906,-227,-317,278,84,-216
0,4219609,2103,2001,-396,3906,-227,-317,278,84,-216
0,4219622,2103,2000,-381,3905,-224,-318,269,85,-231
0,4219636,2102,2003,-384,3899,-223,-319,269,85,-231
0,4219651,2102,2003,-384,3899,-223,-319,269,85,-231
0,4219662,2104,1999,-375,3904,-218,-311,269,85,-231
0,4219676,2105,1998,-370,3897,-215,-317,269,85,-231
0,4219684,2105,1998,-370,3897,-215,-317,269,85,-231
0,4219692,2105,1998,-370,3897,-215,-317,269,85,-231
0,4219698,2105,1998,-370,3897,-215,-317,269,85,-231
0,4219704,2105,1998,-370,3897,-215,-317,269,85,-231
0,4219711,2105,1998,-370,3897,-215,-317,269,85,-231
0,4219718,2102,2001,-378,3909,-218,-320,269,85,-231
0,4219723,2102,2001,-378,3909,-218,-320,269,85,-231
0,4219730,2102,2001,-378,3909,-218,-320,269,85,-231
0,4219738,2104,2002,-369,3899,-226,-320,269,85,-231
0,4219744,2104,2002,-369,3899,-226,-320,269,85,-231
0,4219751,2104,2002,-369,3899,-226,-320,269,85,-231
0,4219757,2103,1998,-366,3900,-223,-321,270,88,-222
0,4219765,2103,1998,-366,3900,-223,-321,270,88,-222
0,4219771,2103,1998,-366,3900,-223,-321,270,88,-222
0,4219778,2103,2001,-373,3911,-223,-313,270,88,-222
0,4219784,2103,2001,-373,3911,-223,-313,270,88,-222
0,4219790,2103,2001,-373,3911,-223,-313,270,88,-222
0,4219797,2103,2001,-375,3910,-225,-322,270,88,-222
0,4219803,2103,2001,-375,3910,-225,-322,270,88,-222
0,4219810,2103,2001,-375,3910,-225,-322,270,88,-222
0,4219817,2102,2002,-356,3900,-224,-323,270,88,-222
0,4219824,2102,2002,-356,3900,-224,-323,270,88,-222
0,4219830,2102,2002,-356,3900,-224,-323,270,88,-222
0,4219836,2103,1998,-336,3910,-217,-320,270,88,-222
0,4219842,2103,1998,-336,3910,-217,-320,270,88,-222
0,4219848,2103,1998,-336,3910,-217,-320,270,88,-222
0,4219854,2103,1997,-363,3910,-209,-322,270,88,-222
0,4219862,2103,1997,-363,3910,-209,-322,270,88,-222
0,4219869,2103,1997,-363,3910,-209,-322,270,88,-222
0,4219876,2102,1998,-361,3904,-221,-322,260,82,-222
0,4219883,2102,1998,-361,3904,-221,-322,260,82,-222
0,4219891,2102,1998,-361,3904,-221,-322,260,82,-222
0,4219898,2104,1995,-342,3902,-225,-323,260,82,-222
0,4219904,2104,1995,-342,3902,-225,-323,260,82,-222
0,4219911,2104,1995,-342,3902,-225,-323,260,82,-222
0,4219918,2103,1996,-337,3900,-227,-323,260,82,-222
0,4219924,2103,1996,-337,3900,-227,-323,260,82,-222
0,4219931,2103,1996,-337,3900,-227,-323,260,82,-222
0,4219938,2105,1990,-343,3908,-228,-313,260,82,-222
0,4219947,2105,1990,-343,3908,-228,-313,260,82,-222
0,4219954,2105,1990,-343,3908,-228,-313,260,82,-222
0,4219961,2105,1996,-356,3900,-220,-321,260,82,-222
0,4219966,2105,1996,-356,3900,-220,-321,260,82,-222
0,4219972,2105,1996,-356,3900,-220,-321,260,82,-222
0,4219978,2104,1993,-353,3904,-232,-314,260,82,-222
0,4219985,2104,1993,-353,3904,-232,-314,260,82,-222
0,4219992,2104,1993,-353,3904,-232,-314,260,82,-222
0,4220000,2101,1997,-345,3895,-218,-316,260,82,-222
0,4220006,2101,1997,-345,3895,-218,-316,260,82,-222
0,4220012,2101,1997,-345,3895,-218,-316,260,82,-222
0,4220018,2104,1992,-342,3892,-220,-316,256,86,-210
0,4220025,2104,1992,-342,3892,-220,-316,256,86,-210
0,4220034,2104,1992,-342,3892,-220,-316,256,86,-210
0,4220039,2100,1997,-355,3887,-228,-316,256,86,-210
0,4220045,2100,1997,-355,3887,-228,-316,256,86,-210
0,4220052,2100,1997,-355,3887,-228,-316,256,86,-210
0,4220058,2103,1989,-356,3896,-225,-325,256,86,-210
0,4220064,2103,1989,-356,3896,-225,-325,256,86,-210
0,4220071,2103,1989,-356,3896,-225,-325,256,86,-210
0,4220079,2103,1990,-351,3896,-230,-309,256,86,-210
0,4220086,2103,1990,-351,3896,-230,-309,256,86,-210
0,4220093,2103,1990,-351,3896,-230,-309,256,86,-210
0,4220099,2103,1989,-347,3894,-227,-319,256,86,-210
0,4220106,2103,1989,-347,3894,-227,-319,256,86,-210
0,4220112,2103,1989,-347,3894,-227,-319,256,86,-210
0,4220120,2103,1987,-367,3893,-224,-317,256,86,-210
0,4220127,2103,1987,-367,3893,-224,-317,256,86,-210
0,4220132,2103,1987,-367,3893,-224,-317,256,86,-210
0,4220138,2102,1993,-388,3894,-222,-321,243,87,-221
0,4220145,2102,1993,-388,3894,-222,-321,243,87,-221
0,4220150,2102,1993,-388,3894,-222,-321,243,87,-221
0,4220157,2098,1993,-360,3893,-220,-315,243,87,-221
0,4220165,2098,1993,-360,3893,-220,-315,243,87,-221
0,4220171,2098,1993,-360,3893,-220,-315,243,87,-221
0,4220178,2100,1994,-349,3888,-219,-313,243,87,-221
0,4220183,2100,1994,-349,3888,-219,-313,243,87,-221
0,4220189,2100,1994,-349,3888,-219,-313,243,87,-221
0,4220194,2100,1994,-349,3888,-219,-313,243,87,-221
0,4220200,2106,1994,-369,3899,-226,-318,243,87,-221
0,4220207,2106,1994,-369,3899,-226,-318,243,87,-221
0,4220214,2106,1994,-369,3899,-226,-318,243,87,-221
0,4220220,2099,1988,-385,3898,-219,-321,243,87,-221
0,4220227,2099,1988,-385,3898,-219,-321,243,87,-221
0,4220234,2099,1988,-385,3898,-219,-321,243,87,-221
0,4220240,2106,1993,-386,3894,-220,-322,243,87,-221
0,4220247,2106,1993,-386,3894,-220,-322,243,87,-221
0,4220253,2106,1993,-386,3894,-220,-322,243,87,-221
0,4220260,2101,1986,-376,3890,-232,-315,243,87,-221
0,4220267,2101,1986,-376,3890,-232,-315,243,87,-221
0,4220273,2101,1986,-376,3890,-232,-315,243,87,-221
0,4220279,2103,1995,-390,3889,-227,-314,245,83,-219
0,4220285,2103,1995,-390,3889,-227,-314,245,83,-219
0,4220291,2103,1995,-390,3889,-227,-314,245,83,-219
0,4220297,2104,1983,-409,3899,-226,-318,245,83,-219
0,4220304,2104,1983,-409,3899,-226,-318,245,83,-219
0,4220310,2104,1983,-409,3899,-226,-318,245,83,-219
0,4220317,2100,2000,-392,3896,-225,-322,245,83,-219
0,4220324,2100,2000,-392,3896,-225,-322,245,83,-219
0,4220333,2100,2000,-392,3896,-225,-322,245,83,-219
0,4220339,2104,1984,-370,3898,-224,-316,245,83,-219
0,4220345,2104,1984,-370,3898,-224,-316,245,83,-219
0,4220352,2104,1984,-370,3898,-224,-316,245,83,-219
0,4220359,2104,1996,-376,3903,-219,-328,245,83,-219
0,4220367,2104,1996,-376,3903,-219,-328,245,83,-219
0,4220375,2104,1996,-376,3903,-219,-328,245,83,-219
0,4220381,2104,1996,-376,3903,-219,-328,245,83,-219
0,4220387,2104,1996,-376,3903,-219,-328,245,83,-219
0,4220394,2104,1996,-376,3903,-219,-328,245,83,-219
0,4220401,2099,2001,-391,3898,-229,-322,243,79,-215
0,4220407,2099,2001,-391,3898,-229,-322,243,79,-215
0,4220416,2102,1989,-385,3900,-224,-319,243,79,-215
0,4220423,2102,1989,-385,3900,-224,-319,243,79,-215
0,4220429,2102,1989,-385,3900,-224,-319,243,79,-215
0,4220434,2102,1989,-385,3900,-224,-319,243,79,-215
0,4220441,2102,1989,-385,3900,-224,-319,243,79,-215
0,4220448,2102,1989,-385,3900,-224,-319,243,79,-215
0,4220454,2102,1989,-385,3900,-224,-319,243,79,-215
0,4220461,2107,1990,-402,3901,-223,-315,243,79,-215
0,4220468,2107,1990,-402,3901,-223,-315,243,79,-215
0,4220475,2107,1990,-402,3901,-223,-315,243,79,-215
0,4220481,2104,1999,-409,3899,-223,-323,243,79,-215
0,4220488,2104,1999,-409,3899,-223,-323,243,79,-215
0,4220493,2104,1999,-409,3899,-223,-323,243,79,-215
0,4220502,2103,1994,-398,3905,-228,-322,243,79,-215
0,4220508,2103,1994,-398,3905,-228,-322,243,79,-215
0,4220515,2103,1994,-398,3905,-228,-322,243,79,-215
0,4220521,2103,2000,-393,3912,-224,-319,237,83,-209
0,4220527,2103,2000,-393,3912,-224,-319,237,83,-209
0,4220534,2103,2000,-393,3912,-224,-319,237,83,-209
0,4220540,2107,1997,-393,3905,-223,-323,237,83,-209
0,4220549,2107,1997,-393,3905,-223,-323,237,83,-209
0,4220555,2107,1997,-393,3905,-223,-323,237,83,-209
0,4220562,2103,1998,-384,3901,-226,-324,237,83,-209
0,4220568,2103,1998,-384,3901,-226,-324,237,83,-209
0,4220574,2103,1998,-384,3901,-226,-324,237,83,-209
0,4220580,2105,1999,-375,3907,-222,-324,237,83,-209
0,4220587,2105,1999,-375,3907,-222,-324,237,83,-209
0,4220596,2100,2000,-378,3908,-223,-318,237,83,-209
0,4220602,2100,2000,-378,3908,-223,-318,237,83,-209
0,4220609,2100,2000,-378,3908,-223,-318,237,83,-209
0,4220615,2103,1999,-369,3911,-222,-322,237,83,-209
0,4220622,2103,1999,-369,3911,-222,-322,237,83,-209
0,4220628,2103,1999,-369,3911,-222,-322,237,83,-209
0,4220636,2105,1992,-377,3912,-213,-322,237,83,-209
0,4220644,2105,1992,-377,3912,-213,-322,237,83,-209
0,4220651,2105,1992,-377,3912,-213,-322,237,83,-209
0,4220659,2101,1999,-373,3911,-225,-316,228,82,-212
0,4220667,2101,1999,-373,3911,-225,-316,228,82,-212
0,4220675,2101,1999,-373,3911,-225,-316,228,82,-212
0,4220682,2103,2001,-371,3900,-237,-315,228,82,-212
0,4220688,2103,2001,-371,3900,-237,-315,228,82,-212
0,4220702,2103,1999,-377,3908,-231,-322,228,82,-212
0,4220717,2104,1999,-382,3910,-216,-326,228,82,-212
0,4220731,2104,1999,-382,3910,-216,-326,228,82,-212
0,4220745,2100,2000,-371,3909,-223,-316,228,82,-212
0,4220755,2100,2000,-371,3909,-223,-316,228,82,-212
0,4220767,2105,1996,-356,3909,-223,-319,228,82,-212
0,4220781,2101,1999,-337,3900,-213,-319,215,75,-213
0,4220790,2101,1999,-337,3900,-213,-319,215,75,-213
0,4220802,2104,1993,-363,3910,-215,-318,215,75,-213
0,4220817,2103,1997,-366,3903,-220,-316,215,75,-213
0,4220831,2103,1997,-366,3903,-220,-316,215,75,-213
0,4220847,2102,1993,-339,3896,-225,-326,215,75,-213
0,4220861,2104,1996,-340,3911,-218,-316,215,75,-213
0,4220874,2104,1996,-340,3911,-218,-316,215,75,-213
0,4220888,2102,1991,-347,3909,-216,-317,215,75,-213
0,4220902,2103,1995,-364,3906,-223,-312,215,75,-213
0,4220914,2103,1995,-364,3906,-223,-312,215,75,-213
0,4220929,2104,1993,-343,3903,-224,-321,219,71,-209
0,4220940,2102,1994,-335,3908,-227,-317,219,71,-209
0,4220952,2102,1994,-335,3908,-227,-317,219,71,-209
0,4220966,2106,1986,-347,3901,-223,-316,219,71,-209
0,4220980,2102,1994,-358,3898,-227,-315,219,71,-209
0,4220994,2102,1994,-358,3898,-227,-315,219,71,-209
0,4221005,2104,1986,-360,3894,-231,-316,219,71,-209
0,4221018,2101,1988,-350,3895,-228,-319,219,71,-209
0,4221033,2101,1988,-350,3895,-228,-319,219,71,-209
0,4221046,2104,1985,-342,3890,-230,-315,206,80,-216
0,4221060,2106,1991,-369,3890,-227,-325,206,80,-216
0,4221075,2106,1991,-369,3890,-227,-325,206,80,-216
0,4221090,2102,1987,-381,3890,-226,-322,206,80,-216
0,4221106,2101,1992,-355,3892,-220,-318,206,80,-216
0,4221119,2104,1987,-357,3900,-224,-316,206,80,-216
0,4221132,2104,1987,-357,3900,-224,-316,206,80,-216
0,4221146,2106,1992,-380,3894,-220,-316,206,80,-216
0,4221159,2102,1986,-381,3894,-223,-324,200,72,-220
0,4221172,2102,1986,-381,3894,-223,-324,200,72,-220
0,4221186,2102,1989,-384,3890,-230,-320,200,72,-220
0,4221199,2100,1986,-366,3892,-223,-314,200,72,-220
0,4221213,2100,1986,-366,3892,-223,-314,200,72,-220
0,4221228,2102,1991,-402,3892,-221,-317,200,72,-220
0,4221242,2102,1990,-416,3886,-226,-325,200,72,-220
0,4221254,2102,1990,-416,3886,-226,-325,200,72,-220
0,4221268,2102,1990,-416,3886,-226,-325,200,72,-220
0,4221284,2101,1992,-378,3904,-220,-316,200,72,-220
0,4221300,2106,1997,-377,3902,-224,-319,199,69,-231
0,4221315,2106,1997,-377,3902,-224,-319,199,69,-231
0,4221326,2103,1991,-386,3899,-227,-316,199,69,-231
0,4221341,2103,2001,-397,3902,-221,-316,199,69,-231
0,4221357,2101,1987,-371,3904,-225,-314,199,69,-231
0,4221370,2101,1987,-371,3904,-225,-314,199,69,-231
0,4221383,2103,1997,-392,3894,-226,-320,199,69,-231
0,4221396,2106,1991,-402,3901,-218,-314,199,69,-231
0,4221410,2106,1991,-402,3901,-218,-314,199,69,-231
0,4221426,2098,2002,-402,3900,-222,-323,191,71,-221
0,4221440,2105,1997,-392,3903,-228,-325,191,71,-221
0,4221453,2105,1997,-392,3903,-228,-325,191,71,-221
0,4221467,2103,2000,-384,3905,-224,-328,191,71,-221
0,4221480,2105,1997,-405,3896,-230,-315,191,71,-221
0,4221495,2105,1997,-405,3896,-230,-315,191,71,-221
0,4221506,2105,1998,-396,3903,-224,-322,191,71,-221
0,4221520,2101,1997,-373,3905,-226,-321,191,71,-221
0,4221535,2101,1997,-373,3905,-226,-321,191,71,-221
0,4221550,2101,1997,-373,3905,-226,-321,191,71,-221
0,4221564,2101,1997,-374,3909,-213,-314,187,65,-233
0,4221577,2107,1996,-377,3907,-220,-321,187,65,-233
0,4221591,2107,1996,-377,3907,-220,-321,187,65,-233
0,4221604,2103,1999,-373,3904,-233,-321,187,65,-233
0,4221618,2101,1991,-368,3903,-223,-318,187,65,-233
0,4221632,2101,1991,-368,3903,-223,-318,187,65,-233
0,4221646,2105,1996,-375,3905,-224,-322,187,65,-233
0,4221661,2103,1996,-382,3903,-224,-322,187,65,-233
0,4221672,2103,1996,-382,3903,-224,-322,187,65,-233
0,4221685,2102,2002,-368,3900,-218,-316,186,68,-232
0,4221697,2103,1999,-358,3909,-219,-323,186,68,-232
0,4221703,2103,1999,-358,3909,-219,-323,186,68,-232
0,4221711,2103,1999,-358,3909,-219,-323,186,68,-232
0,4221719,2103,2001,-336,3908,-216,-317,186,68,-232
0,4221724,2103,2001,-336,3908,-216,-317,186,68,-232
0,4221730,2103,2001,-336,3908,-216,-317,186,68,-232
0,4221736,2107,1999,-361,3908,-215,-322,186,68,-232
0,4221743,2107,1999,-361,3908,-215,-322,186,68,-232
0,4221750,2107,1999,-361,3908,-215,-322,186,68,-232
0,4221758,2103,1996,-363,3903,-221,-324,186,68,-232
0,4221766,2103,1996,-363,3903,-221,-324,186,68,-232
0,4221773,2103,1996,-363,3903,-221,-324,186,68,-232
0,4221780,2103,1996,-363,3903,-221,-324,186,68,-232
0,4221788,2103,1996,-363,3903,-221,-324,186,68,-232
0,4221795,2103,1996,-363,3903,-221,-324,186,68,-232
0,4221802,2102,1993,-339,3899,-225,-315,186,68,-232
0,4221810,2102,1993,-339,3899,-225,-315,186,68,-232
0,4221817,2103,1996,-345,3895,-222,-321,176,64,-242
0,4221825,2103,1996,-345,3895,-222,-321,176,64,-242
0,4221833,2103,1996,-345,3895,-222,-321,176,64,-242
0,4221841,2104,1991,-346,3904,-227,-318,176,64,-242
0,4221847,2104,1991,-346,3904,-227,-318,176,64,-242
0,4221853,2104,1991,-346,3904,-227,-318,176,64,-242
0,4221858,2101,1992,-361,3902,-221,-329,176,64,-242
0,4221865,2101,1992,-361,3902,-221,-329,176,64,-242
0,4221872,2101,1992,-361,3902,-221,-329,176,64,-242
0,4221879,2106,1991,-338,3904,-229,-319,176,64,-242
0,4221885,2106,1991,-338,3904,-229,-319,176,64,-242
0,4221892,2106,1991,-338,3904,-229,-319,176,64,-242
0,4221898,2103,1995,-356,3902,-219,-315,176,64,-242
0,4221904,2103,1995,-356,3902,-219,-315,176,64,-242
0,4221912,2103,1995,-356,3902,-219,-315,176,64,-242
0,4221919,2106,1996,-357,3891,-224,-322,176,64,-242
0,4221927,2106,1996,-357,3891,-224,-322,176,64,-242
0,4221933,2106,1996,-357,3891,-224,-322,176,64,-242
0,4221939,2102,1992,-355,3897,-227,-320,173,69,-247
0,4221946,2102,1992,-355,3897,-227,-320,173,69,-247
0,4221953,2102,1992,-355,3897,-227,-320,173,69,-247
0,4221958,2103,1993,-350,3892,-229,-316,173,69,-247
0,4221965,2103,1993,-350,3892,-229,-316,173,69,-247
0,4221971,2103,1993,-350,3892,-229,-316,173,69,-247
0,4221976,2103,1993,-350,3892,-229,-316,173,69,-247
0,4221983,2104,1987,-351,3888,-230,-314,173,69,-247
0,4221991,2104,1987,-351,3888,-230,-314,173,69,-247
0,4221997,2104,1987,-351,3888,-230,-314,173,69,-247
0,4222004,2106,1994,-370,3899,-220,-319,173,69,-247
0,4222011,2106,1994,-370,3899,-220,-319,173,69,-247
0,4222017,2107,1991,-381,3892,-225,-317,173,69,-247
0,4222026,2107,1991,-381,3892,-225,-317,173,69,-247
0,4222031,2107,1991,-381,3892,-225,-317,173,69,-247
0,4222039,2104,1993,-363,3887,-228,-315,173,69,-247
0,4222044,2104,1993,-363,3887,-228,-315,173,69,-247
0,4222051,2104,1993,-363,3887,-228,-315,173,69,-247
0,4222059,2104,1990,-357,3888,-228,-321,168,64,-242
0,4222066,2104,1990,-357,3888,-228,-321,168,64,-242
0,4222073,2104,1990,-357,3888,-228,-321,168,64,-242
0,4222082,2108,1993,-357,3901,-225,-320,168,64,-242
0,4222088,2108,1993,-357,3901,-225,-320,168,64,-242
0,4222096,2108,1993,-357,3901,-225,-320,168,64,-242
0,4222102,2102,1991,-379,3890,-233,-321,168,64,-242
0,4222110,2102,1991,-379,3890,-233,-321,168,64,-242
0,4222117,2102,1991,-379,3890,-233,-321,168,64,-242
0,4222124,2102,1991,-379,3890,-233,-321,168,64,-242
0,4222131,2102,1991,-379,3890,-233,-321,168,64,-242
0,4222137,2102,1991,-379,3890,-233,-321,168,64,-242
0,4222144,2100,1990,-378,3896,-226,-307,168,64,-242
0,4222152,2100,1990,-378,3896,-226,-307,168,64,-242
0,4222158,2106,1991,-382,3892,-235,-316,168,64,-242
0,4222166,2106,1991,-382,3892,-235,-316,168,64,-242
0,4222174,2106,1991,-382,3892,-235,-316,168,64,-242
0,4222180,2104,1989,-413,3898,-220,-318,168,64,-242
0,4222186,2104,1989,-413,3898,-220,-318,168,64,-242
0,4222194,2104,1989,-413,3898,-220,-318,168,64,-242
0,4222200,2100,1998,-383,3889,-224,-318,161,65,-245
0,4222206,2100,1998,-383,3889,-224,-318,161,65,-245
0,4222214,2100,1998,-383,3889,-224,-318,161,65,-245
0,4222220,2106,1990,-370,3894,-226,-318,161,65,-245
0,4222228,2106,1990,-370,3894,-226,-318,161,65,-245
0,4222235,2106,1990,-370,3894,-226,-318,161,65,-245
0,4222243,2104,1997,-384,3896,-221,-319,161,65,-245
0,4222249,2104,1997,-384,3896,-221,-319,161,65,-245
0,4222256,2104,1997,-384,3896,-221,-319,161,65,-245
0,4222261,2108,1987,-384,3897,-216,-317,161,65,-245
0,4222268,2108,1987,-384,3897,-216,-317,161,65,-245
0,4222274,2108,1987,-384,3897,-216,-317,161,65,-245
0,4222282,2104,1991,-393,3911,-221,-317,161,65,-245
0,4222289,2104,1991,-393,3911,-221,-317,161,65,-245
0,4222296,2104,1991,-393,3911,-221,-317,161,65,-245
0,4222302,2102,1995,-384,3902,-224,-315,161,65,-245
0,4222311,2102,1995,-384,3902,-224,-315,161,65,-245
0,4222317,2102,1995,-384,3902,-224,-315,161,65,-245
0,4222324,2103,1995,-383,3906,-223,-312,162,60,-254
0,4222331,2103,1995,-383,3906,-223,-312,162,60,-254
0,4222337,2103,1995,-383,3906,-223,-312,162,60,-254
0,4222344,2104,1998,-398,3905,-218,-311,162,60,-254
0,4222351,2104,1998,-398,3905,-218,-311,162,60,-254
0,4222358,2108,1992,-401,3904,-222,-318,162,60,-254
0,4222365,2108,1992,-401,3904,-222,-318,162,60,-254
0,4222372,2108,1992,-401,3904,-222,-318,162,60,-254
0,4222380,2101,1996,-405,3902,-228,-316,162,60,-254
0,4222387,2101,1996,-405,3902,-228,-316,162,60,-254
0,4222393,2101,1996,-405,3902,-228,-316,162,60,-254
0,4222399,2107,1999,-392,3903,-224,-322,162,60,-254
0,4222406,2107,1999,-392,3903,-224,-322,162,60,-254
0,4222412,2107,1999,-392,3903,-224,-322,162,60,-254
0,4222419,2103,1994,-399,3901,-228,-321,162,60,-254
0,4222428,2103,1994,-399,3901,-228,-321,162,60,-254
0,4222435,2103,1994,-399,3901,-228,-321,162,60,-254
0,4222442,2103,1999,-396,3904,-218,-315,162,60,-254
0,4222449,2103,1999,-396,3904,-218,-315,162,60,-254
0,4222455,2103,1999,-396,3904,-218,-315,162,60,-254
0,4222460,2105,1997,-369,3909,-210,-313,158,56,-256
0,4222468,2105,1997,-369,3909,-210,-313,158,56,-256
0,4222474,2105,1997,-369,3909,-210,-313,158,56,-256
0,4222479,2102,2001,-375,3904,-219,-313,158,56,-256
0,4222486,2102,2001,-375,3904,-219,-313,158,56,-256
0,4222495,2102,2001,-375,3904,-219,-313,158,56,-256
0,4222502,2106,2003,-375,3908,-218,-318,158,56,-256
0,4222509,2106,2003,-375,3908,-218,-318,158,56,-256
0,4222517,2106,2003,-375,3908,-218,-318,158,56,-256
0,4222522,2107,2002,-374,3901,-219,-319,158,56,-256
0,4222528,2107,2002,-374,3901,-219,-319,158,56,-256
0,4222535,2107,2002,-374,3901,-219,-319,158,56,-256
0,4222541,2105,2000,-379,3902,-226,-323,158,56,-256
0,4222550,2105,2000,-379,3902,-226,-323,158,56,-256
0,4222555,2105,2000,-379,3902,-226,-323,158,56,-256
0,4222564,2106,1999,-373,3899,-232,-322,158,56,-256
0,4222570,2106,1999,-373,3899,-232,-322,158,56,-256
0,4222577,2106,1999,-373,3899,-232,-322,158,56,-256
0,4222584,2106,2000,-375,3899,-227,-322,156,50,-262
0,4222592,2106,2000,-375,3899,-227,-322,156,50,-262
0,4222599,2105,2007,-382,3911,-225,-322,156,50,-262
0,4222605,2105,2007,-382,3911,-225,-322,156,50,-262
0,4222612,2105,2007,-382,3911,-225,-322,156,50,-262
0,4222619,2101,2000,-370,3911,-225,-324,156,50,-262
0,4222626,2101,2000,-370,3911,-225,-324,156,50,-262
0,4222633,2101,2000,-370,3911,-225,-324,156,50,-262
0,4222640,2099,2001,-368,3905,-217,-314,156,50,-262
0,4222647,2099,2001,-368,3905,-217,-314,156,50,-262
0,4222654,2099,2001,-368,3905,-217,-314,156,50,-262
0,4222663,2104,1997,-347,3905,-224,-313,156,50,-262
0,4222670,2104,1997,-347,3905,-224,-313,156,50,-262
0,4222679,2103,2003,-346,3901,-215,-315,156,50,-262
0,4222685,2103,2003,-346,3901,-215,-315,156,50,-262
0,4222691,2103,2003,-346,3901,-215,-315,156,50,-262
0,4222697,2103,2003,-346,3901,-215,-315,156,50,-262
0,4222710,2103,2003,-346,3901,-215,-315,156,50,-262
0,4222725,2109,2000,-358,3900,-225,-323,155,43,-257
0,4222740,2107,1994,-332,3901,-229,-322,155,43,-257
0,4222752,2107,1994,-332,3901,-229,-322,155,43,-257
0,4222766,2106,1998,-343,3896,-225,-314,155,43,-257
0,4222782,2102,1990,-351,3895,-224,-310,155,43,-257
0,4222796,2102,1990,-351,3895,-224,-310,155,43,-257
0,4222811,2107,1998,-358,3908,-223,-313,155,43,-257
0,4222825,2104,1994,-347,3905,-221,-312,155,43,-257
0,4222838,2104,1997,-335,3902,-220,-317,155,45,-267
0,4222853,2104,1997,-335,3902,-220,-317,155,45,-267
0,4222868,2105,1994,-345,3895,-224,-316,155,45,-267
0,4222881,2101,1992,-358,3895,-230,-323,155,45,-267
0,4222895,2101,1992,-358,3895,-230,-323,155,45,-267
0,4222909,2106,1995,-361,3899,-227,-318,155,45,-267
0,4222923,2105,1992,-350,3892,-226,-318,155,45,-267
0,4222938,2105,1992,-350,3892,-226,-318,155,45,-267
0,4222952,2106,1991,-357,3900,-218,-321,155,45,-267
0,4222968,2103,1988,-376,3899,-226,-323,157,53,-275
0,4222981,2105,1993,-362,3896,-219,-324,157,53,-275
0,4222995,2105,1993,-362,3896,-219,-324,157,53,-275
0,4223010,2109,1994,-346,3897,-227,-317,157,53,-275
0,4223025,2104,1994,-357,3894,-223,-323,157,53,-275
0,4223039,2106,1993,-376,3902,-226,-324,157,53,-275
0,4223052,2106,1993,-376,3902,-226,-324,157,53,-275
0,4223067,2104,1989,-382,3892,-229,-319,157,53,-275
0,4223082,2105,1991,-379,3896,-234,-329,157,53,-275
0,4223095,2105,1991,-379,3896,-234,-329,157,53,-275
0,4223110,2103,1996,-364,3898,-231,-328,150,48,-282
0,4223123,2105,1998,-407,3906,-228,-322,150,48,-282
0,4223137,2105,1998,-407,3906,-228,-322,150,48,-282
0,4223152,2108,1997,-403,3899,-223,-313,150,48,-282
0,4223164,2104,2001,-379,3894,-226,-313,150,48,-282
0,4223178,2104,2001,-379,3894,-226,-313,150,48,-282
0,4223194,2105,1996,-376,3900,-220,-313,150,48,-282
0,4223208,2104,2000,-386,3900,-223,-315,150,48,-282
0,4223220,2106,1996,-390,3890,-223,-311,158,50,-292
0,4223236,2106,1996,-390,3890,-223,-311,158,50,-292
0,4223251,2106,1996,-390,3890,-223,-311,158,50,-292
0,4223264,2103,1995,-381,3892,-227,-317,158,50,-292
0,4223278,2103,1995,-381,3892,-227,-317,158,50,-292
0,4223292,2104,1997,-402,3903,-229,-318,158,50,-292
0,4223302,2106,2001,-408,3904,-232,-318,158,50,-292
0,4223311,2106,2001,-408,3904,-232,-318,158,50,-292
0,4223325,2106,2004,-408,3906,-234,-320,158,50,-292
0,4223337,2106,2004,-408,3906,-234,-320,158,50,-292
0,4223348,2101,2002,-396,3902,-224,-314,158,50,-292
0,4223364,2103,2005,-393,3908,-222,-314,162,56,-286
0,4223377,2103,2005,-393,3908,-222,-314,162,56,-286
0,4223390,2103,2002,-401,3901,-224,-315,162,56,-286
0,4223406,2107,2005,-387,3901,-219,-314,162,56,-286
0,4223420,2105,2005,-373,3897,-218,-316,162,56,-286
0,4223432,2105,2005,-373,3897,-218,-316,162,56,-286
0,4223447,2103,2001,-368,3900,-219,-316,162,56,-286
0,4223462,2106,2003,-371,3905,-221,-315,162,56,-286
0,4223477,2106,2003,-371,3905,-221,-315,162,56,-286
0,4223489,2106,2004,-377,3914,-220,-318,156,42,-294
0,4223502,2105,2003,-373,3909,-228,-321,156,42,-294
0,4223515,2105,2003,-373,3909,-228,-321,156,42,-294
0,4223528,2107,2004,-371,3904,-230,-321,156,42,-294
0,4223542,2105,2005,-377,3907,-219,-322,156,42,-294
0,4223556,2105,2005,-377,3907,-219,-322,156,42,-294
0,4223571,2108,1999,-373,3914,-217,-318,156,42,-294
0,4223584,2108,1999,-373,3914,-217,-318,156,42,-294
0,4223598,2108,1999,-373,3914,-217,-318,156,42,-294
0,4223611,2102,2003,-349,3912,-218,-326,165,47,-293
0,4223625,2107,2007,-339,3908,-216,-324,165,47,-293
0,4223640,2106,2003,-366,3907,-215,-315,165,47,-293
0,4223655,2106,2003,-366,3907,-215,-315,165,47,-293
0,4223671,2108,2005,-360,3903,-220,-317,165,47,-293
0,4223686,2104,1996,-334,3904,-223,-316,165,47,-293
0,4223699,2107,2002,-335,3904,-230,-317,165,47,-293
0,4223711,2107,2002,-335,3904,-230,-317,165,47,-293
0,4223717,2107,2002,-335,3904,-230,-317,165,47,-293
0,4223725,2103,1996,-347,3902,-230,-310,165,47,-293
0,4223731,2103,1996,-347,3902,-230,-310,165,47,-293
0,4223738,2103,1996,-347,3902,-230,-310,165,47,-293
0,4223745,2103,1996,-347,3902,-230,-310,155,47,-297
0,4223752,2103,1996,-347,3902,-230,-310,155,47,-297
0,4223759,2109,1995,-344,3900,-221,-311,155,47,-297
0,4223765,2109,1995,-344,3900,-221,-311,155,47,-297
0,4223773,2109,1995,-344,3900,-221,-311,155,47,-297
0,4223781,2106,2001,-342,3897,-220,-319,155,47,-297
0,4223787,2106,2001,-342,3897,-220,-319,155,47,-297
0,4223793,2106,2001,-342,3897,-220,-319,155,47,-297
0,4223801,2109,1998,-344,3904,-222,-313,155,47,-297
0,4223807,2109,1998,-344,3904,-222,-313,155,47,-297
0,4223814,2109,1998,-344,3904,-222,-313,155,47,-297
0,4223819,2104,1995,-348,3894,-231,-315,155,47,-297
0,4223825,2104,1995,-348,3894,-231,-315,155,47,-297
0,4223833,2104,1995,-348,3894,-231,-315,155,47,-297
0,4223840,2106,1998,-344,3896,-227,-317,155,47,-297
0,4223848,2106,1998,-344,3896,-227,-317,155,47,-297
0,4223855,2106,1998,-344,3896,-227,-317,155,47,-297
0,4223861,2107,1994,-346,3889,-226,-320,163,57,-291
0,4223869,2107,1994,-346,3889,-226,-320,163,57,-291
0,4223878,2107,1994,-346,3889,-226,-320,163,57,-291
0,4223886,2105,1994,-348,3892,-228,-319,163,57,-291
0,4223893,2105,1994,-348,3892,-228,-319,163,57,-291
0,4223899,2105,1994,-348,3892,-228,-319,163,57,-291
0,4223907,2107,1991,-367,3894,-223,-319,163,57,-291
0,4223913,2107,1991,-367,3894,-223,-319,163,57,-291
0,4223922,2105,1995,-374,3905,-225,-318,163,57,-291
0,4223929,2105,1995,-374,3905,-225,-318,163,57,-291
0,4223935,2105,1995,-374,3905,-225,-318,163,57,-291
0,4223942,2105,1993,-346,3898,-232,-311,163,57,-291
0,4223949,2105,1993,-346,3898,-232,-311,163,57,-291
0,4223955,2105,1993,-346,3898,-232,-311,163,57,-291
0,4223962,2104,1997,-354,3894,-233,-316,163,57,-291
0,4223970,2104,1997,-354,3894,-233,-316,163,57,-291
0,4223976,2104,1997,-354,3894,-233,-316,163,57,-291
0,4223982,2110,1998,-375,3894,-224,-322,163,57,-291
0,4223990,2110,1998,-375,3894,-224,-322,163,57,-291
0,4223997,2110,1998,-375,3894,-224,-322,163,57,-291
0,4224003,2105,1994,-377,3898,-225,-327,163,51,-293
0,4224011,2105,1994,-377,3898,-225,-327,163,51,-293
0,4224019,2105,1994,-377,3898,-225,-327,163,51,-293
0,4224026,2108,2001,-373,3898,-230,-320,163,51,-293
0,4224035,2108,2001,-373,3898,-230,-320,163,51,-293
0,4224041,2106,1993,-369,3896,-226,-322,163,51,-293
0,4224049,2106,1993,-369,3896,-226,-322,163,51,-293
0,4224056,2106,1993,-369,3896,-226,-322,163,51,-293
0,4224063,2105,1997,-384,3899,-233,-318,163,51,-293
0,4224070,2105,1997,-384,3899,-233,-318,163,51,-293
0,4224077,2105,1997,-384,3899,-233,-318,163,51,-293
0,4224086,2108,1990,-402,3895,-232,-318,163,51,-293
0,4224092,2108,1990,-402,3895,-232,-318,163,51,-293
0,4224099,2108,1990,-402,3895,-232,-318,163,51,-293
0,4224104,2105,2004,-397,3891,-223,-317,163,51,-293
0,4224110,2105,2004,-397,3891,-223,-317,163,51,-293
0,4224118,2105,2004,-397,3891,-223,-317,163,51,-293
0,4224125,2106,1997,-375,3890,-229,-318,173,63,-309
0,4224133,2106,1997,-375,3890,-229,-318,173,63,-309
0,4224138,2106,1997,-375,3890,-229,-318,173,63,-309
0,4224144,2104,2005,-381,3889,-227,-315,173,63,-309
0,4224151,2104,2005,-381,3889,-227,-315,173,63,-309
0,4224157,2104,2005,-381,3889,-227,-315,173,63,-309
0,4224164,2109,1998,-394,3891,-225,-318,173,63,-309
0,4224172,2109,1998,-394,3891,-225,-318,173,63,-309
0,4224179,2109,1998,-394,3891,-225,-318,173,63,-309
0,4224187,2103,2005,-395,3895,-225,-322,173,63,-309
0,4224195,2103,2005,-395,3895,-225,-322,173,63,-309
0,4224201,2107,1996,-376,3891,-229,-311,173,63,-309
0,4224208,2107,1996,-376,3891,-229,-311,173,63,-309
0,4224217,2107,1996,-376,3891,-229,-311,173,63,-309
0,4224224,2104,2001,-383,3896,-228,-321,173,63,-309
0,4224230,2104,2001,-383,3896,-228,-321,173,63,-309
0,4224238,2104,2001,-383,3896,-228,-321,173,63,-309
0,4224244,2107,2002,-392,3892,-230,-323,173,63,-309
0,4224251,2107,2002,-392,3892,-230,-323,173,63,-309
0,4224259,2107,2002,-392,3892,-230,-323,173,63,-309
0,4224266,2104,2005,-403,3895,-229,-318,183,55,-303
0,4224272,2104,2005,-403,3895,-229,-318,183,55,-303
0,4224280,2103,2004,-403,3899,-229,-318,183,55,-303
0,4224288,2103,2004,-403,3899,-229,-318,183,55,-303
0,4224296,2103,2004,-403,3899,-229,-318,183,55,-303
0,4224305,2108,2004,-389,3905,-232,-316,183,55,-303
0,4224313,2108,2004,-389,3905,-232,-316,183,55,-303
0,4224319,2108,2004,-389,3905,-232,-316,183,55,-303
0,4224326,2104,2006,-405,3902,-218,-321,183,55,-303
0,4224333,2104,2006,-405,3902,-218,-321,183,55,-303
0,4224340,2106,2006,-382,3896,-223,-317,183,55,-303
0,4224348,2106,2006,-382,3896,-223,-317,183,55,-303
0,4224355,2106,2006,-382,3896,-223,-317,183,55,-303
0,4224362,2107,2006,-383,3898,-225,-322,183,55,-303
0,4224369,2107,2006,-383,3898,-225,-322,183,55,-303
0,4224376,2107,2006,-383,3898,-225,-322,183,55,-303
0,4224382,2107,2004,-375,3905,-219,-329,174,54,-314
0,4224388,2107,2004,-375,3905,-219,-329,174,54,-314
0,4224395,2107,2004,-375,3905,-219,-329,174,54,-314
0,4224401,2107,2008,-367,3899,-222,-323,174,54,-314
0,4224409,2107,2008,-367,3899,-222,-323,174,54,-314
0,4224416,2107,2008,-367,3899,-222,-323,174,54,-314
0,4224422,2110,2006,-378,3906,-226,-318,174,54,-314
0,4224430,2110,2006,-378,3906,-226,-318,174,54,-314
0,4224436,2110,2006,-378,3906,-226,-318,174,54,-314
0,4224444,2110,2006,-377,3909,-229,-321,174,54,-314
0,4224450,2110,2006,-377,3909,-229,-321,174,54,-314
0,4224457,2110,2006,-377,3909,-229,-321,174,54,-314
0,4224464,2105,2001,-370,3900,-219,-320,174,54,-314
0,4224473,2105,2001,-370,3900,-219,-320,174,54,-314
0,4224479,2105,2001,-370,3900,-219,-320,174,54,-314
0,4224485,2110,2003,-372,3909,-218,-315,174,54,-314
0,4224493,2110,2003,-372,3909,-218,-315,174,54,-314
0,4224498,2110,2003,-372,3909,-218,-315,174,54,-314
0,4224505,2106,2005,-374,3906,-226,-314,176,60,-308
0,4224513,2106,2005,-374,3906,-226,-314,176,60,-308
0,4224519,2106,2005,-374,3906,-226,-314,176,60,-308
0,4224526,2105,2004,-376,3907,-224,-317,176,60,-308
0,4224532,2105,2004,-376,3907,-224,-317,176,60,-308
0,4224539,2105,2004,-376,3907,-224,-317,176,60,-308
0,4224545,2103,2004,-343,3904,-214,-324,176,60,-308
0,4224550,2103,2004,-343,3904,-214,-324,176,60,-308
0,4224556,2103,2004,-343,3904,-214,-324,176,60,-308
0,4224561,2106,1998,-344,3908,-218,-319,176,60,-308
0,4224568,2106,1998,-344,3908,-218,-319,176,60,-308
0,4224575,2106,1998,-344,3908,-218,-319,176,60,-308
0,4224581,2106,2001,-362,3903,-216,-325,176,60,-308
0,4224587,2106,2001,-362,3903,-216,-325,176,60,-308
0,4224593,2106,2001,-362,3903,-216,-325,176,60,-308
0,4224601,2109,2006,-362,3905,-223,-322,176,60,-308
0,4224606,2109,2006,-362,3905,-223,-322,176,60,-308
0,4224613,2109,2006,-362,3905,-223,-322,176,60,-308
0,4224620,2109,2006,-362,3905,-223,-322,176,60,-308
0,4224627,2107,2002,-334,3892,-227,-318,176,60,-308
0,4224633,2107,2002,-334,3892,-227,-318,176,60,-308
0,4224641,2109,2002,-334,3903,-223,-314,197,55,-315
0,4224648,2109,2002,-334,3903,-223,-314,197,55,-315
0,4224656,2109,2002,-334,3903,-223,-314,197,55,-315
0,4224663,2103,1999,-350,3901,-231,-319,197,55,-315
0,4224669,2103,1999,-350,3901,-231,-319,197,55,-315
0,4224677,2103,1999,-350,3901,-231,-319,197,55,-315
0,4224684,2106,1996,-349,3891,-226,-318,197,55,-315
0,4224690,2106,1996,-349,3891,-226,-318,197,55,-315
0,4224696,2106,1996,-349,3891,-226,-318,197,55,-315
0,4224704,2105,1999,-334,3899,-229,-319,197,55,-315
0,4224711,2105,1999,-334,3899,-229,-319,197,55,-315
0,4224721,2106,2001,-337,3904,-226,-319,197,55,-315
0,4224737,2106,2001,-337,3904,-226,-319,197,55,-315
0,4224751,2104,1997,-344,3902,-221,-318,197,55,-315
0,4224759,2104,1997,-344,3902,-221,-318,197,55,-315
0,4224772,2101,1994,-354,3902,-223,-322,201,49,-321
0,4224787,2106,1995,-349,3894,-227,-323,201,49,-321
0,4224801,2104,2000,-356,3896,-230,-321,201,49,-321
0,4224816,2104,2000,-356,3896,-230,-321,201,49,-321
0,4224827,2109,1998,-359,3892,-226,-316,201,49,-321
0,4224842,2108,1995,-369,3900,-224,-314,201,49,-321
0,4224857,2108,1995,-369,3900,-224,-314,201,49,-321
0,4224871,2105,1997,-376,3895,-226,-321,201,49,-321
0,4224885,2109,1998,-354,3897,-228,-324,201,49,-321
0,4224900,2109,1998,-354,3897,-228,-324,201,49,-321
0,4224913,2101,1994,-362,3899,-217,-324,206,56,-316
0,4224927,2113,1998,-372,3892,-224,-320,206,56,-316
0,4224939,2113,1998,-372,3892,-224,-320,206,56,-316
0,4224954,2104,1989,-375,3901,-227,-314,206,56,-316
0,4224965,2106,2001,-383,3900,-231,-316,206,56,-316
0,4224980,2106,2001,-383,3900,-231,-316,206,56,-316
0,4224995,2106,1993,-366,3898,-225,-315,206,56,-316
0,4225008,2107,2001,-410,3898,-228,-313,206,56,-316
0,4225022,2107,1993,-404,3894,-232,-320,209,51,-321
0,4225037,2107,1993,-404,3894,-232,-320,209,51,-321
0,4225051,2100,2004,-371,3899,-228,-324,209,51,-321
0,4225062,2110,1991,-375,3890,-221,-320,209,51,-321
0,4225077,2110,1991,-375,3890,-221,-320,209,51,-321
0,4225090,2104,2005,-388,3903,-223,-314,209,51,-321
0,4225104,2108,1998,-384,3892,-222,-320,209,51,-321
0,4225118,2108,1998,-384,3892,-222,-320,209,51,-321
0,4225131,2104,2005,-387,3888,-226,-313,209,51,-321
0,4225145,2106,2003,-377,3896,-229,-313,209,51,-321
0,4225159,2106,2003,-377,3896,-229,-313,209,51,-321
0,4225172,2109,2002,-388,3893,-224,-321,211,43,-313
0,4225186,2105,1997,-407,3901,-226,-321,211,43,-313
0,4225201,2105,1997,-407,3901,-226,-321,211,43,-313
0,4225214,2105,1997,-407,3901,-226,-321,211,43,-313
0,4225229,2105,2000,-396,3904,-231,-321,211,43,-313
0,4225244,2106,2004,-390,3916,-235,-322,211,43,-313
0,4225257,2106,2004,-390,3916,-235,-322,211,43,-313
0,4225271,2104,1999,-404,3911,-220,-317,211,43,-313
0,4225286,2105,2005,-389,3906,-219,-324,215,55,-311
0,4225297,2105,2005,-389,3906,-219,-324,215,55,-311
0,4225310,2107,2010,-365,3905,-220,-315,215,55,-311
0,4225324,2108,2006,-368,3920,-209,-322,215,55,-311
0,4225338,2108,2006,-368,3920,-209,-322,215,55,-311
0,4225351,2105,2007,-372,3916,-211,-316,215,55,-311
0,4225364,2107,2005,-377,3905,-218,-314,215,55,-311
0,4225377,2107,2005,-377,3905,-218,-314,215,55,-311
0,4225391,2104,2004,-378,3907,-224,-315,215,55,-311
0,4225404,2107,2002,-363,3906,-223,-319,227,47,-315
0,4225418,2107,2002,-363,3906,-223,-319,227,47,-315
0,4225432,2103,2003,-376,3903,-223,-319,227,47,-315
0,4225448,2103,2006,-382,3907,-227,-324,227,47,-315
0,4225463,2107,2005,-368,3903,-222,-317,227,47,-315
0,4225477,2107,2005,-368,3903,-222,-317,227,47,-315
0,4225490,2102,2004,-359,3901,-216,-316,227,47,-315
0,4225505,2109,2002,-329,3901,-216,-315,227,47,-315
0,4225518,2109,2002,-329,3901,-216,-315,227,47,-315
0,4225528,2105,2008,-367,3904,-212,-318,227,47,-315
0,4225542,2105,2008,-367,3904,-212,-318,227,47,-315
0,4225555,2109,1999,-363,3902,-217,-311,233,41,-313
0,4225569,2107,2003,-344,3906,-219,-321,233,41,-313
0,4225583,2105,2000,-327,3902,-218,-322,233,41,-313
0,4225598,2105,2000,-327,3902,-218,-322,233,41,-313
0,4225610,2106,1998,-347,3904,-220,-323,233,41,-313
0,4225624,2102,2005,-357,3900,-222,-320,233,41,-313
0,4225633,2102,2005,-357,3900,-222,-320,233,41,-313
0,4225645,2106,2001,-354,3906,-227,-322,233,41,-313
0,4225659,2106,2001,-354,3906,-227,-322,233,41,-313
0,4225675,2103,2002,-341,3906,-225,-321,242,42,-322
0,4225689,2104,1995,-346,3897,-222,-312,242,42,-322
0,4225703,2109,2000,-356,3895,-221,-314,242,42,-322
0,4225716,2109,2000,-356,3895,-221,-314,242,42,-322
0,4225727,2105,1995,-358,3898,-224,-314,242,42,-322
0,4225734,2105,1995,-358,3898,-224,-314,242,42,-322
0,4225741,2105,1995,-358,3898,-224,-314,242,42,-322
0,4225750,2108,2002,-350,3892,-233,-315,242,42,-322
0,4225756,2108,2002,-350,3892,-233,-315,242,42,-322
0,4225762,2108,2002,-350,3892,-233,-315,242,42,-322
0,4225768,2105,1997,-353,3893,-220,-310,242,42,-322
0,4225775,2105,1997,-353,3893,-220,-310,242,42,-322
0,4225783,2107,1998,-367,3896,-218,-317,242,42,-322
0,4225790,2107,1998,-367,3896,-218,-317,242,42,-322
0,4225796,2107,1998,-367,3896,-218,-317,242,42,-322
0,4225802,2107,1998,-380,3898,-226,-311,243,51,-315
0,4225809,2107,1998,-380,3898,-226,-311,243,51,-315
0,4225816,2107,1998,-380,3898,-226,-311,243,51,-315
0,4225822,2101,1996,-361,3894,-225,-312,243,51,-315
0,4225830,2101,1996,-361,3894,-225,-312,243,51,-315
0,4225837,2101,1996,-361,3894,-225,-312,243,51,-315
0,4225844,2106,1996,-351,3894,-222,-321,243,51,-315
0,4225851,2106,1996,-351,3894,-222,-321,243,51,-315
0,4225858,2106,1996,-351,3894,-222,-321,243,51,-315
0,4225865,2106,1994,-367,3898,-217,-315,243,51,-315
0,4225872,2106,1994,-367,3898,-217,-315,243,51,-315
0,4225881,2106,1994,-367,3898,-217,-315,243,51,-315
0,4225886,2106,1993,-380,3900,-225,-322,243,51,-315
0,4225892,2106,1993,-380,3900,-225,-322,243,51,-315
0,4225897,2106,1993,-380,3900,-225,-322,243,51,-315
0,4225904,2109,2000,-387,3899,-223,-319,243,51,-315
0,4225912,2109,2000,-387,3899,-223,-319,243,51,-315
0,4225918,2109,2000,-387,3899,-223,-319,243,51,-315
0,4225926,2104,1998,-374,3898,-236,-314,246,48,-318
0,4225932,2104,1998,-374,3898,-236,-314,246,48,-318
0,4225939,2104,1998,-374,3898,-236,-314,246,48,-318
0,4225947,2107,1999,-388,3895,-228,-315,246,48,-318
0,4225955,2107,1999,-388,3895,-228,-315,246,48,-318
0,4225961,2107,1999,-388,3895,-228,-315,246,48,-318
0,4225969,2106,1989,-419,3906,-223,-316,246,48,-318
0,4225976,2106,1989,-419,3906,-223,-316,246,48,-318
0,4225982,2106,1989,-419,3906,-223,-316,246,48,-318
0,4225989,2107,1999,-395,3898,-221,-317,246,48,-318
0,4225997,2107,1999,-395,3898,-221,-317,246,48,-318
0,4226004,2106,1994,-368,3895,-215,-316,246,48,-318
0,4226014,2106,1994,-368,3895,-215,-316,246,48,-318
0,4226021,2106,1994,-368,3895,-215,-316,246,48,-318
0,4226030,2108,2002,-381,3899,-223,-312,246,48,-318
0,4226036,2108,2002,-381,3899,-223,-312,246,48,-318
0,4226043,2106,1993,-375,3910,-219,-320,246,48,-318
0,4226052,2106,1993,-375,3910,-219,-320,246,48,-318
0,4226059,2106,1993,-375,3910,-219,-320,246,48,-318
0,4226064,2100,1997,-384,3905,-222,-315,261,49,-305
0,4226071,2100,1997,-384,3905,-222,-315,261,49,-305
0,4226078,2100,1997,-384,3905,-222,-315,261,49,-305
0,4226085,2109,1996,-378,3908,-219,-311,261,49,-305
0,4226092,2109,1996,-378,3908,-219,-311,261,49,-305
0,4226099,2109,1996,-378,3908,-219,-311,261,49,-305
0,4226107,2102,1999,-385,3900,-221,-313,261,49,-305
0,4226113,2102,1999,-385,3900,-221,-313,261,49,-305
0,4226120,2102,1999,-385,3900,-221,-313,261,49,-305
0,4226126,2107,1994,-398,3899,-224,-324,261,49,-305
0,4226131,2107,1994,-398,3899,-224,-324,261,49,-305
0,4226139,2107,1994,-398,3899,-224,-324,261,49,-305
0,4226146,2108,2004,-402,3905,-221,-316,261,49,-305
0,4226153,2108,2004,-402,3905,-221,-316,261,49,-305
0,4226159,2108,2004,-402,3905,-221,-316,261,49,-305
0,4226166,2108,1998,-408,3911,-227,-314,261,49,-305
0,4226172,2108,1998,-408,3911,-227,-314,261,49,-305
0,4226181,2108,1998,-408,3911,-227,-314,261,49,-305
0,4226187,2104,2005,-389,3909,-223,-315,264,42,-312
0,4226193,2104,2005,-389,3909,-223,-315,264,42,-312
0,4226200,2104,2005,-389,3909,-223,-315,264,42,-312
0,4226208,2106,2003,-395,3906,-219,-319,264,42,-312
0,4226214,2106,2003,-395,3906,-219,-319,264,42,-312
0,4226221,2106,2003,-395,3906,-219,-319,264,42,-312
0,4226228,2103,2005,-400,3916,-220,-321,264,42,-312
0,4226235,2103,2005,-400,3916,-220,-321,264,42,-312
0,4226243,2105,2000,-378,3923,-218,-327,264,42,-312
0,4226248,2105,2000,-378,3923,-218,-327,264,42,-312
0,4226255,2105,2000,-378,3923,-218,-327,264,42,-312
0,4226263,2107,2000,-383,3906,-214,-319,264,42,-312
0,4226271,2107,2000,-383,3906,-214,-319,264,42,-312
0,4226277,2107,2000,-383,3906,-214,-319,264,42,-312
0,4226282,2107,2000,-383,3906,-214,-319,264,42,-312
0,4226289,2105,2001,-371,3905,-214,-310,264,42,-312
0,4226297,2105,2001,-371,3905,-214,-310,264,42,-312
0,4226306,2103,2003,-371,3914,-212,-313,272,34,-316
0,4226314,2103,2003,-371,3914,-212,-313,272,34,-316
0,4226321,2103,2003,-371,3914,-212,-313,272,34,-316
0,4226326,2103,2005,-375,3906,-218,-322,272,34,-316
0,4226334,2103,2005,-375,3906,-218,-322,272,34,-316
0,4226341,2103,2005,-375,3906,-218,-322,272,34,-316
0,4226350,2105,2001,-371,3900,-226,-323,272,34,-316
0,4226357,2105,2001,-371,3900,-226,-323,272,34,-316
0,4226363,2106,2002,-376,3902,-224,-321,272,34,-316
0,4226370,2106,2002,-376,3902,-224,-321,272,34,-316
0,4226376,2106,2002,-376,3902,-224,-321,272,34,-316
0,4226383,2103,2001,-380,3914,-219,-325,272,34,-316
0,4226390,2103,2001,-380,3914,-219,-325,272,34,-316
0,4226399,2103,2001,-380,3914,-219,-325,272,34,-316
0,4226405,2103,2001,-368,3913,-225,-315,272,34,-316
0,4226412,2103,2001,-368,3913,-225,-315,272,34,-316
0,4226420,2103,2001,-368,3913,-225,-315,272,34,-316
0,4226426,2108,2004,-366,3909,-214,-320,272,34,-316
0,4226434,2108,2004,-366,3909,-214,-320,272,34,-316
0,4226442,2108,2004,-366,3909,-214,-320,272,34,-316
0,4226450,2106,2000,-343,3909,-213,-321,276,40,-308
0,4226457,2106,2000,-343,3909,-213,-321,276,40,-308
0,4226464,2107,1998,-347,3906,-208,-320,276,40,-308
0,4226472,2107,1998,-347,3906,-208,-320,276,40,-308
0,4226480,2107,1998,-347,3906,-208,-320,276,40,-308
0,4226488,2105,2002,-367,3901,-215,-324,276,40,-308
0,4226494,2105,2002,-367,3901,-215,-324,276,40,-308
0,4226502,2105,2002,-367,3901,-215,-324,276,40,-308
0,4226508,2106,2006,-360,3903,-220,-322,276,40,-308
0,4226515,2106,2006,-360,3903,-220,-322,276,40,-308
0,4226523,2103,1999,-339,3899,-219,-320,276,40,-308
0,4226530,2103,1999,-339,3899,-219,-320,276,40,-308
0,4226537,2103,1999,-339,3899,-219,-320,276,40,-308
0,4226544,2104,2001,-349,3907,-218,-317,276,40,-308
0,4226549,2104,2001,-349,3907,-218,-317,276,40,-308
0,4226555,2104,2001,-349,3907,-218,-317,276,40,-308
0,4226562,2104,2001,-349,3907,-218,-317,276,40,-308
0,4226570,2110,2000,-347,3901,-223,-323,290,46,-300
0,4226576,2110,2000,-347,3901,-223,-323,290,46,-300
0,4226584,2104,1996,-353,3908,-223,-314,290,46,-300
0,4226590,2104,1996,-353,3908,-223,-314,290,46,-300
0,4226595,2104,1996,-353,3908,-223,-314,290,46,-300
0,4226604,2103,1997,-348,3904,-229,-323,290,46,-300
0,4226610,2103,1997,-348,3904,-229,-323,290,46,-300
0,4226615,2103,1997,-348,3904,-229,-323,290,46,-300
0,4226621,2103,1997,-348,3904,-229,-323,290,46,-300
0,4226628,2107,2000,-345,3901,-219,-317,290,46,-300
0,4226635,2107,2000,-345,3901,-219,-317,290,46,-300
0,4226642,2104,1995,-357,3899,-221,-314,290,46,-300
0,4226651,2104,1995,-357,3899,-221,-314,290,46,-300
0,4226659,2104,1995,-357,3899,-221,-314,290,46,-300
0,4226667,2105,1996,-357,3892,-229,-310,290,46,-300
0,4226673,2105,1996,-357,3892,-229,-310,290,46,-300
0,4226680,2105,1996,-357,3892,-229,-310,290,46,-300
0,4226689,2103,2000,-356,3895,-225,-309,290,46,-300
0,4226696,2103,2000,-356,3895,-225,-309,290,46,-300
0,4226704,2107,1994,-353,3895,-227,-318,291,43,-305
0,4226710,2107,1994,-353,3895,-227,-318,291,43,-305
0,4226718,2107,1994,-353,3895,-227,-318,291,43,-305
0,4226724,2104,1991,-358,3889,-232,-321,291,43,-305
0,4226736,2104,1991,-358,3889,-232,-321,291,43,-305
0,4226750,2105,1992,-376,3895,-231,-321,291,43,-305
0,4226764,2102,1994,-379,3901,-224,-320,291,43,-305
0,4226779,2102,1994,-379,3901,-224,-320,291,43,-305
0,4226793,2105,1994,-354,3894,-228,-315,291,43,-305
0,4226807,2103,1992,-365,3897,-224,-313,291,43,-305
0,4226824,2107,1995,-365,3890,-224,-317,294,50,-298
0,4226837,2107,1995,-365,3890,-224,-317,294,50,-298
0,4226849,2106,1991,-372,3893,-222,-317,294,50,-298
0,4226864,2106,1996,-369,3884,-235,-314,294,50,-298
0,4226878,2106,1996,-369,3884,-235,-314,294,50,-298
0,4226892,2102,1989,-373,3894,-234,-315,294,50,-298
0,4226908,2103,1998,-392,3888,-231,-325,294,50,-298
0,4226920,2103,1998,-392,3888,-231,-325,294,50,-298
0,4226932,2104,1990,-403,3896,-224,-328,294,50,-298
0,4226948,2103,1994,-399,3897,-233,-320,297,47,-285
0,4226963,2101,1990,-381,3901,-234,-315,297,47,-285
0,4226978,2101,1990,-381,3901,-234,-315,297,47,-285
0,4226990,2103,1997,-374,3908,-224,-317,297,47,-285
0,4227003,2103,1997,-374,3908,-224,-317,297,47,-285
0,4227017,2103,1990,-387,3900,-219,-315,297,47,-285
0,4227032,2103,1999,-384,3893,-223,-324,297,47,-285
0,4227045,2103,1992,-379,3895,-224,-318,297,47,-285
0,4227059,2103,1992,-379,3895,-224,-318,297,47,-285
0,4227072,2103,1996,-384,3898,-227,-316,297,47,-285
0,4227084,2104,1994,-390,3901,-227,-319,299,47,-295
0,4227098,2104,1994,-390,3901,-227,-319,299,47,-295
0,4227115,2105,1997,-406,3901,-225,-310,299,47,-295
0,4227129,2100,1999,-409,3907,-233,-316,299,47,-295
0,4227137,2100,1999,-409,3907,-233,-316,299,47,-295
0,4227145,2104,2000,-389,3901,-227,-319,299,47,-295
0,4227153,2104,2000,-389,3901,-227,-319,299,47,-295
0,4227162,2104,2000,-389,3901,-227,-319,299,47,-295
0,4227170,2104,1999,-395,3903,-215,-317,299,47,-295
0,4227178,2104,1999,-395,3903,-215,-317,299,47,-295
0,4227186,2102,1998,-385,3909,-217,-318,299,47,-295
0,4227194,2102,1998,-385,3909,-217,-318,299,47,-295
0,4227204,2102,1998,-385,3909,-217,-318,299,47,-295
0,4227211,2105,2000,-374,3906,-215,-323,302,48,-286
0,4227220,2105,2000,-374,3906,-215,-323,302,48,-286
0,4227228,2102,2003,-372,3906,-217,-318,302,48,-286
0,4227236,2102,2003,-372,3906,-217,-318,302,48,-286
0,4227244,2103,1998,-369,3908,-212,-313,302,48,-286
0,4227253,2103,1998,-369,3908,-212,-313,302,48,-286
0,4227260,2103,1998,-369,3908,-212,-313,302,48,-286
0,4227268,2102,1996,-379,3905,-225,-318,302,48,-286
0,4227276,2102,1996,-379,3905,-225,-318,302,48,-286
0,4227283,2104,1998,-377,3903,-224,-319,302,48,-286
0,4227292,2104,1998,-377,3903,-224,-319,302,48,-286
0,4227299,2104,1998,-377,3903,-224,-319,302,48,-286
0,4227307,2101,2000,-377,3905,-220,-318,302,48,-286
0,4227315,2101,2000,-377,3905,-220,-318,302,48,-286
0,4227324,2101,2002,-377,3902,-219,-314,302,48,-286
0,4227332,2101,2002,-377,3902,-219,-314,302,48,-286
0,4227340,2101,2002,-377,3902,-219,-314,302,48,-286
0,4227348,2103,2004,-367,3903,-224,-320,303,45,-273
0,4227356,2103,2004,-367,3903,-224,-320,303,45,-273
0,4227364,2101,2000,-371,3908,-222,-312,303,45,-273
0,4227373,2101,2000,-371,3908,-222,-312,303,45,-273
0,4227380,2101,2000,-371,3908,-222,-312,303,45,-273
0,4227390,2101,1998,-353,3913,-224,-319,303,45,-273
0,4227399,2101,1998,-353,3913,-224,-319,303,45,-273
0,4227408,2105,1999,-343,3910,-222,-314,303,45,-273
0,4227419,2105,1999,-343,3910,-222,-314,303,45,-273
0,4227428,2108,1998,-365,3911,-219,-313,303,45,-273
0,4227443,2108,1998,-365,3911,-219,-313,303,45,-273
0,4227457,2102,2001,-356,3906,-222,-324,303,45,-273
0,4227470,2105,1997,-339,3909,-226,-322,293,43,-269
0,4227484,2103,2001,-340,3891,-231,-318,293,43,-269
0,4227500,2103,2001,-340,3891,-231,-318,293,43,-269
0,4227516,2101,1990,-346,3895,-224,-312,293,43,-269
0,4227530,2104,1999,-353,3905,-228,-317,293,43,-269
0,4227544,2104,1999,-353,3905,-228,-317,293,43,-269
0,4227557,2102,1991,-353,3902,-228,-318,293,43,-269
0,4227571,2102,1995,-345,3904,-227,-323,293,43,-269
0,4227586,2106,1990,-342,3894,-215,-316,293,43,-269
0,4227599,2106,1990,-342,3894,-215,-316,293,43,-269
0,4227608,2100,1998,-348,3899,-227,-320,295,53,-265
0,4227620,2100,1998,-348,3899,-227,-320,295,53,-265
0,4227635,2104,1994,-354,3890,-231,-319,295,53,-265
0,4227647,2103,1992,-355,3892,-226,-320,295,53,-265
0,4227661,2103,1992,-355,3892,-226,-320,295,53,-265
0,4227677,2105,1989,-348,3895,-223,-313,295,53,-265
0,4227690,2105,1986,-366,3892,-227,-317,295,53,-265
0,4227703,2105,1986,-366,3892,-227,-317,295,53,-265
0,4227718,2101,1994,-377,3899,-227,-321,295,53,-265
0,4227729,2106,1989,-351,3888,-227,-326,301,47,-263
0,4227741,2106,1989,-351,3888,-227,-326,301,47,-263
0,4227747,2101,1990,-367,3890,-222,-317,301,47,-263
0,4227756,2101,1990,-367,3890,-222,-317,301,47,-263
0,4227762,2101,1990,-367,3890,-222,-317,301,47,-263
0,4227768,2107,1993,-369,3896,-216,-319,301,47,-263
0,4227776,2107,1993,-369,3896,-216,-319,301,47,-263
0,4227782,2107,1993,-369,3896,-216,-319,301,47,-263
0,4227791,2104,1986,-379,3895,-228,-321,301,47,-263
0,4227798,2104,1986,-379,3895,-228,-321,301,47,-263
0,4227804,2104,1986,-379,3895,-228,-321,301,47,-263
0,4227810,2105,1996,-384,3894,-225,-315,301,47,-263
0,4227817,2105,1996,-384,3894,-225,-315,301,47,-263
0,4227824,2105,1996,-384,3894,-225,-315,301,47,-263
0,4227830,2102,1988,-375,3904,-221,-322,301,47,-263
0,4227837,2102,1988,-375,3904,-221,-322,301,47,-263
0,4227844,2102,1988,-375,3904,-221,-322,301,47,-263
0,4227850,2103,1996,-392,3903,-227,-316,285,49,-257
0,4227857,2103,1996,-392,3903,-227,-316,285,49,-257
0,4227863,2103,1996,-392,3903,-227,-316,285,49,-257
0,4227870,2105,1982,-412,3901,-224,-319,285,49,-257
0,4227876,2105,1982,-412,3901,-224,-319,285,49,-257
0,4227883,2105,1982,-412,3901,-224,-319,285,49,-257
0,4227890,2103,2001,-389,3890,-228,-318,285,49,-257
0,4227897,2103,2001,-389,3890,-228,-318,285,49,-257
0,4227903,2103,2001,-389,3890,-228,-318,285,49,-257
0,4227909,2105,1988,-379,3897,-219,-316,285,49,-257
0,4227917,2105,1988,-379,3897,-219,-316,285,49,-257
0,4227924,2105,1988,-379,3897,-219,-316,285,49,-257
0,4227931,2100,2002,-381,3889,-208,-314,285,49,-257
0,4227937,2100,2002,-381,3889,-208,-314,285,49,-257
0,4227944,2100,2002,-381,3889,-208,-314,285,49,-257
0,4227951,2107,1985,-389,3897,-217,-313,285,49,-257
0,4227957,2107,1985,-389,3897,-217,-313,285,49,-257
0,4227962,2107,1985,-389,3897,-217,-313,285,49,-257
0,4227969,2101,2000,-386,3902,-221,-312,285,49,-257
0,4227975,2101,2000,-386,3902,-221,-312,285,49,-257
0,4227981,2101,2000,-386,3902,-221,-312,285,49,-257
0,4227987,2105,1988,-384,3906,-228,-318,299,57,-253
0,4227994,2105,1988,-384,3906,-228,-318,299,57,-253
0,4228000,2105,1988,-384,3906,-228,-318,299,57,-253
0,4228007,2104,2002,-391,3907,-229,-320,299,57,-253
0,4228014,2104,2002,-391,3907,-229,-320,299,57,-253
0,4228020,2104,2002,-391,3907,-229,-320,299,57,-253
0,4228028,2103,1989,-398,3902,-227,-317,299,57,-253
0,4228034,2103,1989,-398,3902,-227,-317,299,57,-253
0,4228041,2103,1989,-398,3902,-227,-317,299,57,-253
0,4228047,2104,2001,-404,3904,-223,-309,299,57,-253
0,4228054,2104,2001,-404,3904,-223,-309,299,57,-253
0,4228061,2104,2001,-404,3904,-223,-309,299,57,-253
0,4228067,2102,1989,-404,3899,-229,-315,299,57,-253
0,4228074,2102,1989,-404,3899,-229,-315,299,57,-253
0,4228080,2102,1989,-404,3899,-229,-315,299,57,-253
0,4228087,2100,2003,-389,3897,-234,-318,299,57,-253
0,4228092,2100,2003,-389,3897,-234,-318,299,57,-253
0,4228099,2100,2003,-389,3897,-234,-318,299,57,-253
0,4228105,2103,1994,-397,3916,-229,-317,295,53,-253
0,4228112,2103,1994,-397,3916,-229,-317,295,53,-253
0,4228118,2103,1994,-397,3916,-229,-317,295,53,-253
0,4228125,2101,2000,-382,3909,-222,-320,295,53,-253
0,4228131,2101,2000,-382,3909,-222,-320,295,53,-253
0,4228139,2101,2000,-382,3909,-222,-320,295,53,-253
0,4228146,2102,1997,-381,3906,-222,-312,295,53,-253
0,4228151,2102,1997,-381,3906,-222,-312,295,53,-253
0,4228158,2102,1997,-381,3906,-222,-312,295,53,-253
0,4228164,2102,1997,-381,3906,-222,-312,295,53,-253
0,4228170,2104,2000,-372,3902,-214,-320,295,53,-253
0,4228176,2104,2000,-372,3902,-214,-320,295,53,-253
0,4228183,2104,2000,-372,3902,-214,-320,295,53,-253
0,4228190,2104,1999,-373,3906,-226,-321,295,53,-253
0,4228195,2104,1999,-373,3906,-226,-321,295,53,-253
0,4228203,2104,1999,-373,3906,-226,-321,295,53,-253
0,4228209,2105,2004,-373,3898,-229,-319,295,53,-253
0,4228215,2105,2004,-373,3898,-229,-319,295,53,-253
0,4228221,2105,2004,-373,3898,-229,-319,295,53,-253
0,4228229,2103,1998,-378,3906,-228,-317,295,53,-253
0,4228235,2103,1998,-378,3906,-228,-317,295,53,-253
0,4228242,2103,1998,-378,3906,-228,-317,295,53,-253
0,4228248,2108,2001,-380,3907,-222,-312,296,58,-246
0,4228254,2108,2001,-380,3907,-222,-312,296,58,-246
0,4228259,2108,2001,-380,3907,-222,-312,296,58,-246
0,4228265,2104,1999,-376,3906,-220,-316,296,58,-246
0,4228272,2104,1999,-376,3906,-220,-316,296,58,-246
0,4228280,2104,1999,-376,3906,-220,-316,296,58,-246
0,4228286,2102,1999,-374,3911,-227,-315,296,58,-246
0,4228293,2102,1999,-374,3911,-227,-315,296,58,-246
0,4228299,2102,1999,-374,3911,-227,-315,296,58,-246
0,4228305,2103,2001,-369,3912,-215,-319,296,58,-246
0,4228313,2103,2001,-369,3912,-215,-319,296,58,-246
0,4228319,2103,2001,-369,3912,-215,-319,296,58,-246
0,4228325,2103,2002,-367,3907,-218,-315,296,58,-246
0,4228332,2103,2002,-367,3907,-218,-315,296,58,-246
0,4228337,2103,2002,-367,3907,-218,-315,296,58,-246
0,4228343,2103,2002,-367,3907,-218,-315,296,58,-246
0,4228350,2102,1998,-335,3908,-219,-314,296,58,-246
0,4228357,2102,1998,-335,3908,-219,-314,296,58,-246
0,4228364,2102,1998,-335,3908,-219,-314,296,58,-246
0,4228370,2104,2000,-357,3902,-219,-316,284,60,-242
0,4228377,2104,2000,-357,3902,-219,-316,284,60,-242
0,4228383,2104,2000,-357,3902,-219,-316,284,60,-242
0,4228389,2102,1995,-357,3902,-226,-316,284,60,-242
0,4228396,2102,1995,-357,3902,-226,-316,284,60,-242
0,4228402,2102,1995,-357,3902,-226,-316,284,60,-242
0,4228410,2104,1998,-352,3901,-226,-315,284,60,-242
0,4228415,2104,1998,-352,3901,-226,-315,284,60,-242
0,4228421,2104,1998,-352,3901,-226,-315,284,60,-242
0,4228428,2104,1995,-338,3909,-230,-325,284,60,-242
0,4228435,2104,1995,-338,3909,-230,-325,284,60,-242
0,4228443,2104,1995,-338,3909,-230,-325,284,60,-242
0,4228450,2102,1993,-344,3909,-219,-314,284,60,-242
0,4228456,2102,1993,-344,3909,-219,-314,284,60,-242
0,4228462,2102,1993,-344,3909,-219,-314,284,60,-242
0,4228469,2103,1996,-346,3916,-207,-313,284,60,-242
0,4228476,2103,1996,-346,3916,-207,-313,284,60,-242
0,4228484,2103,1996,-346,3916,-207,-313,284,60,-242
0,4228489,2099,1991,-357,3911,-220,-314,284,60,-242
0,4228495,2099,1991,-357,3911,-220,-314,284,60,-242
0,4228501,2099,1991,-357,3911,-220,-314,284,60,-242
0,4228507,2102,1994,-342,3906,-218,-319,286,52,-244
0,4228515,2102,1994,-342,3906,-218,-319,286,52,-244
0,4228520,2102,1994,-342,3906,-218,-319,286,52,-244
0,4228527,2102,1991,-340,3898,-224,-317,286,52,-244
0,4228532,2102,1991,-340,3898,-224,-317,286,52,-244
0,4228538,2102,1991,-340,3898,-224,-317,286,52,-244
0,4228543,2102,1991,-340,3898,-224,-317,286,52,-244
0,4228550,2106,1994,-348,3901,-223,-322,286,52,-244
0,4228556,2106,1994,-348,3901,-223,-322,286,52,-244
0,4228563,2106,1994,-348,3901,-223,-322,286,52,-244
0,4228570,2099,1990,-357,3904,-226,-321,286,52,-244
0,4228576,2099,1990,-357,3904,-226,-321,286,52,-244
0,4228583,2099,1990,-357,3904,-226,-321,286,52,-244
0,4228589,2101,1990,-355,3897,-227,-320,286,52,-244
0,4228595,2101,1990,-355,3897,-227,-320,286,52,-244
0,4228601,2101,1990,-355,3897,-227,-320,286,52,-244
0,4228610,2108,1993,-350,3892,-229,-320,286,52,-244
0,4228617,2108,1993,-350,3892,-229,-320,286,52,-244
0,4228622,2108,1993,-350,3892,-229,-320,286,52,-244
0,4228627,2104,1989,-357,3894,-223,-310,286,74,-236
0,4228633,2104,1989,-357,3894,-223,-310,286,74,-236
0,4228641,2104,1989,-357,3894,-223,-310,286,74,-236
0,4228648,2106,1991,-381,3896,-226,-317,286,74,-236
0,4228656,2106,1991,-381,3896,-226,-317,286,74,-236
0,4228662,2106,1991,-381,3896,-226,-317,286,74,-236
0,4228669,2099,1987,-360,3899,-231,-318,286,74,-236
0,4228674,2099,1987,-360,3899,-231,-318,286,74,-236
0,4228681,2099,1987,-360,3899,-231,-318,286,74,-236
0,4228687,2106,1993,-350,3896,-229,-316,286,74,-236
0,4228695,2106,1993,-350,3896,-229,-316,286,74,-236
0,4228701,2106,1993,-350,3896,-229,-316,286,74,-236
0,4228707,2106,1988,-363,3895,-224,-315,286,74,-236
0,4228713,2106,1988,-363,3895,-224,-315,286,74,-236
0,4228721,2106,1988,-363,3895,-224,-315,286,74,-236
0,4228728,2103,1994,-377,3900,-227,-321,286,74,-236
0,4228737,2103,1994,-377,3900,-227,-321,286,74,-236
0,4228743,2103,1994,-377,3900,-227,-321,286,74,-236
0,4228758,2102,1993,-376,3899,-232,-318,274,70,-228
0,4228769,2096,1991,-373,3895,-225,-315,274,70,-228
0,4228782,2096,1991,-373,3895,-225,-315,274,70,-228
0,4228796,2108,1991,-371,3894,-224,-316,274,70,-228
0,4228811,2102,1989,-400,3897,-232,-323,274,70,-228
0,4228827,2108,1992,-405,3899,-224,-313,274,70,-228
0,4228840,2108,1992,-405,3899,-224,-313,274,70,-228
0,4228855,2102,1993,-389,3898,-225,-314,274,70,-228
0,4228870,2103,1991,-373,3897,-225,-320,274,70,-228
0,4228883,2103,1991,-373,3897,-225,-320,274,70,-228
0,4228894,2103,1997,-382,3902,-216,-319,273,83,-233
0,4228910,2100,1998,-390,3898,-210,-314,273,83,-233
0,4228922,2100,1998,-390,3898,-210,-314,273,83,-233
0,4228935,2106,1998,-385,3902,-226,-311,273,83,-233
0,4228951,2102,1995,-387,3901,-230,-319,273,83,-233
0,4228965,2102,1995,-387,3901,-230,-319,273,83,-233
0,4228977,2105,1990,-389,3898,-232,-324,273,83,-233
0,4228993,2105,1988,-399,3911,-223,-323,273,83,-233
0,4229008,2105,1993,-405,3905,-222,-318,272,86,-228
0,4229022,2105,1993,-405,3905,-222,-318,272,86,-228
0,4229033,2102,1997,-390,3902,-226,-311,272,86,-228
0,4229048,2101,1997,-401,3907,-223,-313,272,86,-228
0,4229063,2101,1997,-401,3907,-223,-313,272,86,-228
0,4229078,2101,1997,-401,3907,-223,-313,272,86,-228
0,4229092,2101,2002,-375,3915,-222,-319,272,86,-228
0,4229106,2102,1999,-382,3904,-219,-325,272,86,-228
0,4229115,2102,1999,-382,3904,-219,-325,272,86,-228
0,4229128,2104,2000,-376,3909,-221,-323,272,86,-228
0,4229142,2104,2000,-376,3909,-221,-323,272,86,-228
0,4229156,2106,1996,-375,3908,-220,-325,268,78,-222
0,4229171,2104,1993,-379,3907,-231,-320,268,78,-222
0,4229186,2104,1993,-379,3907,-231,-320,268,78,-222
0,4229199,2103,1995,-373,3902,-225,-319,268,78,-222
0,4229214,2105,1999,-373,3900,-231,-315,268,78,-222
0,4229228,2107,2001,-371,3905,-230,-318,268,78,-222
0,4229243,2107,2001,-371,3905,-230,-318,268,78,-222
0,4229259,2098,1999,-372,3914,-219,-305,268,78,-222
0,4229272,2104,1999,-368,3905,-223,-311,265,83,-225
0,4229284,2104,1999,-368,3905,-223,-311,265,83,-225
0,4229299,2100,1994,-334,3905,-224,-314,265,83,-225
0,4229307,2105,1999,-353,3903,-220,-317,265,83,-225
0,4229318,2105,1999,-353,3903,-220,-317,265,83,-225
0,4229330,2104,1999,-369,3905,-215,-320,265,83,-225
0,4229345,2104,1999,-369,3905,-215,-320,265,83,-225
0,4229359,2102,2000,-360,3905,-218,-315,265,83,-225
0,4229373,2101,1992,-340,3896,-224,-312,265,83,-225
0,4229385,2101,1992,-340,3896,-224,-312,265,83,-225
0,4229398,2102,1998,-350,3900,-225,-319,265,83,-225
0,4229412,2107,1990,-339,3903,-225,-317,257,87,-213
0,4229429,2104,1998,-353,3898,-223,-322,257,87,-213
0,4229443,2104,1998,-353,3898,-223,-322,257,87,-213
0,4229458,2104,1998,-353,3898,-223,-322,257,87,-213
0,4229471,2102,2000,-338,3898,-224,-317,257,87,-213
0,4229484,2102,2000,-338,3898,-224,-317,257,87,-213
0,4229498,2108,1994,-350,3895,-223,-317,257,87,-213
0,4229512,2103,1992,-360,3893,-230,-326,257,87,-213
0,4229529,2103,1994,-350,3894,-225,-322,263,81,-221
0,4229542,2103,1994,-350,3894,-225,-322,263,81,-221
0,4229557,2106,1994,-344,3893,-229,-319,263,81,-221
0,4229571,2104,1989,-354,3890,-225,-314,263,81,-221
0,4229582,2104,1989,-354,3890,-225,-314,263,81,-221
0,4229597,2108,1989,-381,3899,-219,-322,263,81,-221
0,4229610,2100,1992,-368,3894,-222,-321,263,81,-221
0,4229623,2100,1992,-368,3894,-222,-321,263,81,-221
0,4229639,2105,1993,-352,3884,-227,-319,263,81,-221
0,4229654,2104,1995,-366,3897,-225,-317,246,90,-214
0,4229669,2105,1992,-376,3895,-227,-319,246,90,-214
0,4229685,2105,1992,-376,3895,-227,-319,246,90,-214
0,4229698,2106,1991,-385,3890,-224,-320,246,90,-214
0,4229712,2101,1988,-375,3894,-240,-313,246,90,-214
0,4229722,2101,1988,-375,3894,-240,-313,246,90,-214
0,4229735,2104,1992,-375,3897,-232,-318,246,90,-214
0,4229749,2104,1992,-410,3899,-230,-315,246,90,-214
0,4229756,2104,1992,-410,3899,-230,-315,246,90,-214
0,4229763,2104,1992,-410,3899,-230,-315,246,90,-214
0,4229770,2104,1995,-401,3897,-224,-312,246,90,-214
0,4229776,2104,1995,-401,3897,-224,-312,246,90,-214
0,4229783,2104,1995,-401,3897,-224,-312,246,90,-214
0,4229790,2104,1996,-372,3891,-220,-315,243,85,-215
0,4229795,2104,1996,-372,3891,-220,-315,243,85,-215
0,4229803,2104,1996,-372,3891,-220,-315,243,85,-215
0,4229809,2103,1995,-379,3891,-229,-315,243,85,-215
0,4229817,2103,1995,-379,3891,-229,-315,243,85,-215
0,4229823,2103,1995,-379,3891,-229,-315,243,85,-215
0,4229831,2101,1998,-388,3896,-224,-324,243,85,-215
0,4229837,2101,1998,-388,3896,-224,-324,243,85,-215
0,4229846,2101,1998,-388,3896,-224,-324,243,85,-215
0,4229851,2103,1994,-389,3901,-225,-317,243,85,-215
0,4229857,2103,1994,-389,3901,-225,-317,243,85,-215
0,4229863,2103,1994,-389,3901,-225,-317,243,85,-215
0,4229868,2103,1994,-380,3901,-230,-315,243,85,-215
0,4229875,2103,1994,-380,3901,-230,-315,243,85,-215
0,4229881,2103,1994,-380,3901,-230,-315,243,85,-215
0,4229888,2105,1996,-371,3899,-219,-316,243,85,-215
0,4229894,2105,1996,-371,3899,-219,-316,243,85,-215
0,4229900,2105,1996,-371,3899,-219,-316,243,85,-215
0,4229906,2105,1996,-371,3899,-219,-316,243,85,-215
0,4229911,2104,1995,-387,3899,-217,-321,234,86,-212
0,4229918,2104,1995,-387,3899,-217,-321,234,86,-212
0,4229924,2104,1995,-387,3899,-217,-321,234,86,-212
0,4229931,2105,2000,-395,3900,-223,-320,234,86,-212
0,4229939,2105,2000,-395,3900,-223,-320,234,86,-212
0,4229946,2105,2000,-395,3900,-223,-320,234,86,-212
0,4229951,2105,1999,-401,3911,-230,-322,234,86,-212
0,4229957,2105,1999,-401,3911,-230,-322,234,86,-212
0,4229963,2105,1999,-401,3911,-230,-322,234,86,-212
0,4229968,2106,2000,-388,3905,-222,-322,234,86,-212
0,4229976,2106,2000,-388,3905,-222,-322,234,86,-212
0,4229982,2106,2000,-388,3905,-222,-322,234,86,-212
0,4229988,2103,1998,-400,3908,-215,-320,234,86,-212
0,4229994,2103,1998,-400,3908,-215,-320,234,86,-212
0,4230002,2103,1998,-400,3908,-215,-320,234,86,-212
0,4230008,2103,2000,-400,3905,-221,-317,234,86,-212
0,4230014,2103,2000,-400,3905,-221,-317,234,86,-212
0,4230021,2103,2000,-400,3905,-221,-317,234,86,-212
0,4230028,2103,2000,-400,3905,-221,-317,234,86,-212
0,4230035,2103,2000,-400,3905,-221,-317,234,86,-212
0,4230041,2103,2000,-400,3905,-221,-317,234,86,-212
0,4230048,2104,2002,-372,3895,-224,-321,233,77,-205
0,4230054,2104,2002,-372,3895,-224,-321,233,77,-205
0,4230061,2104,2002,-372,3895,-224,-321,233,77,-205
0,4230068,2103,1998,-371,3910,-225,-320,233,77,-205
0,4230074,2103,1998,-371,3910,-225,-320,233,77,-205
0,4230081,2103,1998,-371,3910,-225,-320,233,77,-205
0,4230088,2098,1998,-371,3915,-222,-312,233,77,-205
0,4230095,2098,1998,-371,3915,-222,-312,233,77,-205
0,4230102,2098,1998,-371,3915,-222,-312,233,77,-205
0,4230108,2104,1998,-377,3906,-223,-315,233,77,-205
0,4230115,2104,1998,-377,3906,-223,-315,233,77,-205
0,4230121,2104,1998,-377,3906,-223,-315,233,77,-205
0,4230128,2104,2003,-370,3909,-227,-312,233,77,-205
0,4230135,2104,2003,-370,3909,-227,-312,233,77,-205
0,4230141,2104,2003,-370,3909,-227,-312,233,77,-205
0,4230148,2104,1999,-374,3909,-232,-318,233,77,-205
0,4230153,2104,1999,-374,3909,-232,-318,233,77,-205
0,4230160,2104,1999,-374,3909,-232,-318,233,77,-205
0,4230167,2104,1999,-374,3909,-232,-318,233,77,-205
0,4230173,2102,1998,-376,3911,-225,-313,224,80,-202
0,4230179,2102,1998,-376,3911,-225,-313,224,80,-202
0,4230185,2102,1998,-376,3911,-225,-313,224,80,-202
0,4230192,2102,1998,-376,3911,-225,-313,224,80,-202
0,4230198,2102,1998,-376,3911,-225,-313,224,80,-202
0,4230203,2102,1998,-376,3911,-225,-313,224,80,-202
0,4230210,2104,2002,-363,3907,-222,-320,224,80,-202
0,4230216,2104,2002,-363,3907,-222,-320,224,80,-202
0,4230222,2104,2002,-363,3907,-222,-320,224,80,-202
0,4230227,2106,2002,-343,3901,-216,-315,224,80,-202
0,4230235,2106,2002,-343,3901,-216,-315,224,80,-202
0,4230242,2106,2002,-343,3901,-216,-315,224,80,-202
0,4230248,2104,2002,-355,3903,-216,-313,224,80,-202
0,4230255,2104,2002,-355,3903,-216,-313,224,80,-202
0,4230260,2104,2002,-355,3903,-216,-313,224,80,-202
0,4230268,2106,2000,-370,3900,-216,-319,224,80,-202
0,4230275,2106,2000,-370,3900,-216,-319,224,80,-202
0,4230281,2106,2000,-370,3900,-216,-319,224,80,-202
0,4230288,2107,1997,-352,3906,-232,-312,226,74,-208
0,4230294,2107,1997,-352,3906,-232,-312,226,74,-208
0,4230300,2107,1997,-352,3906,-232,-312,226,74,-208
0,4230306,2107,1997,-352,3906,-232,-312,226,74,-208
0,4230313,2108,2000,-331,3903,-236,-315,226,74,-208
0,4230320,2108,2000,-331,3903,-236,-315,226,74,-208
0,4230326,2108,2000,-331,3903,-236,-315,226,74,-208
0,4230333,2110,2001,-347,3893,-236,-315,226,74,-208
0,4230338,2110,2001,-347,3893,-236,-315,226,74,-208
0,4230344,2110,2001,-347,3893,-236,-315,226,74,-208
0,4230350,2107,2000,-349,3892,-234,-317,226,74,-208
0,4230358,2107,2000,-349,3892,-234,-317,226,74,-208
0,4230365,2107,2000,-349,3892,-234,-317,226,74,-208
0,4230370,2107,2000,-356,3897,-231,-321,226,74,-208
0,4230376,2107,2000,-356,3897,-231,-321,226,74,-208
0,4230382,2107,2000,-356,3897,-231,-321,226,74,-208
0,4230387,2104,1999,-343,3901,-225,-322,226,74,-208
0,4230394,2104,1999,-343,3901,-225,-322,226,74,-208
0,4230400,2104,1999,-343,3901,-225,-322,226,74,-208
0,4230407,2104,1999,-343,3901,-225,-322,226,74,-208
0,4230413,2103,2001,-346,3896,-220,-318,226,74,-208
0,4230420,2103,2001,-346,3896,-220,-318,226,74,-208
0,4230427,2103,2001,-346,3896,-220,-318,226,74,-208
0,4230432,2107,1996,-342,3896,-222,-323,212,76,-218
0,4230438,2107,1996,-342,3896,-222,-323,212,76,-218
0,4230445,2107,1996,-342,3896,-222,-323,212,76,-218
0,4230451,2107,1998,-355,3897,-225,-319,212,76,-218
0,4230457,2107,1998,-355,3897,-225,-319,212,76,-218
0,4230463,2107,1998,-355,3897,-225,-319,212,76,-218
0,4230469,2110,1995,-350,3901,-225,-321,212,76,-218
0,4230476,2110,1995,-350,3901,-225,-321,212,76,-218
0,4230482,2110,1995,-350,3901,-225,-321,212,76,-218
0,4230490,2109,1991,-352,3902,-226,-323,212,76,-218
0,4230497,2109,1991,-352,3902,-226,-323,212,76,-218
0,4230503,2109,1991,-352,3902,-226,-323,212,76,-218
0,4230510,2108,1994,-364,3894,-224,-315,212,76,-218
0,4230517,2108,1994,-364,3894,-224,-315,212,76,-218
0,4230524,2108,1994,-364,3894,-224,-315,212,76,-218
0,4230531,2107,1996,-375,3897,-221,-318,212,76,-218
0,4230537,2107,1996,-375,3897,-221,-318,212,76,-218
0,4230544,2107,1996,-375,3897,-221,-318,212,76,-218
0,4230550,2103,1996,-370,3889,-228,-313,210,70,-220
0,4230555,2103,1996,-370,3889,-228,-313,210,70,-220
0,4230561,2103,1996,-370,3889,-228,-313,210,70,-220
0,4230567,2107,1993,-348,3889,-229,-316,210,70,-220
0,4230575,2107,1993,-348,3889,-229,-316,210,70,-220
0,4230581,2107,1993,-348,3889,-229,-316,210,70,-220
0,4230588,2106,1991,-362,3892,-230,-318,210,70,-220
0,4230595,2106,1991,-362,3892,-230,-318,210,70,-220
0,4230600,2106,1991,-362,3892,-230,-318,210,70,-220
0,4230607,2106,1991,-362,3892,-230,-318,210,70,-220
0,4230614,2107,1995,-377,3891,-222,-318,210,70,-220
0,4230621,2107,1995,-377,3891,-222,-318,210,70,-220
0,4230627,2107,1995,-377,3891,-222,-318,210,70,-220
0,4230634,2105,1993,-385,3894,-221,-319,210,70,-220
0,4230639,2105,1993,-385,3894,-221,-319,210,70,-220
0,4230645,2105,1993,-385,3894,-221,-319,210,70,-220
0,4230650,2103,1996,-385,3889,-229,-322,210,70,-220
0,4230656,2103,1996,-385,3889,-229,-322,210,70,-220
0,4230663,2103,1996,-385,3889,-229,-322,210,70,-220
0,4230671,2105,1992,-382,3889,-228,-313,210,70,-220
0,4230677,2105,1992,-382,3889,-228,-313,210,70,-220
0,4230683,2105,1992,-382,3889,-228,-313,210,70,-220
0,4230690,2104,1998,-416,3888,-228,-315,207,75,-225
0,4230697,2104,1998,-416,3888,-228,-315,207,75,-225
0,4230704,2104,1998,-416,3888,-228,-315,207,75,-225
0,4230711,2108,1993,-391,3883,-228,-321,207,75,-225
0,4230717,2108,1993,-391,3883,-228,-321,207,75,-225
0,4230723,2108,1993,-391,3883,-228,-321,207,75,-225
0,4230729,2105,1996,-368,3888,-224,-314,207,75,-225
0,4230735,2105,1996,-368,3888,-224,-314,207,75,-225
0,4230743,2105,1996,-368,3888,-224,-314,207,75,-225
0,4230748,2109,1996,-385,3895,-215,-318,207,75,-225
0,4230754,2109,1996,-385,3895,-215,-318,207,75,-225
0,4230761,2109,1996,-385,3895,-215,-318,207,75,-225
0,4230771,2104,1997,-380,3895,-222,-321,207,75,-225
0,4230786,2104,1997,-380,3895,-222,-321,207,75,-225
0,4230799,2106,2000,-383,3894,-224,-318,207,75,-225
0,4230813,2107,1998,-378,3893,-228,-317,192,70,-228
0,4230829,2104,1996,-368,3889,-231,-314,192,70,-228
0,4230844,2104,1996,-368,3889,-231,-314,192,70,-228
0,4230859,2105,1994,-398,3896,-222,-322,192,70,-228
0,4230876,2105,1994,-398,3896,-222,-322,192,70,-228
0,4230891,2107,1996,-394,3900,-234,-319,192,70,-228
0,4230906,2107,1996,-394,3900,-234,-319,192,70,-228
0,4230921,2102,2004,-395,3901,-234,-320,192,70,-228
0,4230935,2103,2000,-391,3906,-228,-318,192,70,-228
0,4230949,2105,2008,-393,3904,-222,-321,192,64,-236
0,4230964,2105,2008,-393,3904,-222,-321,192,64,-236
0,4230975,2105,2002,-385,3904,-220,-316,192,64,-236
0,4230988,2105,2002,-385,3904,-220,-316,192,64,-236
0,4231003,2101,2005,-369,3904,-221,-312,192,64,-236
0,4231018,2108,2004,-376,3898,-219,-317,192,64,-236
0,4231031,2105,2002,-370,3894,-218,-319,192,64,-236
0,4231048,2105,2002,-370,3894,-218,-319,192,64,-236
0,4231062,2110,2006,-381,3905,-228,-320,192,64,-236
0,4231077,2108,2002,-369,3904,-227,-318,178,72,-232
0,4231093,2104,2007,-369,3904,-228,-327,178,72,-232
0,4231109,2110,1999,-382,3902,-225,-327,178,72,-232
0,4231124,2110,1999,-382,3902,-225,-327,178,72,-232
0,4231139,2104,2005,-377,3904,-225,-322,178,72,-232
0,4231152,2105,2002,-369,3902,-226,-322,178,72,-232
0,4231168,2105,2002,-369,3902,-226,-322,178,72,-232
0,4231181,2103,2003,-354,3901,-220,-316,178,72,-232
0,4231195,2107,2003,-332,3911,-216,-315,180,72,-240
0,4231207,2107,2003,-332,3911,-216,-315,180,72,-240
0,4231223,2106,2003,-361,3908,-221,-316,180,72,-240
0,4231237,2106,2003,-361,3908,-221,-316,180,72,-240
0,4231250,2104,1997,-339,3901,-226,-325,180,72,-240
0,4231265,2104,1997,-339,3901,-226,-325,180,72,-240
0,4231279,2106,2003,-338,3890,-220,-315,180,72,-240
0,4231292,2108,1996,-353,3900,-229,-319,180,72,-240
0,4231306,2108,1996,-353,3900,-229,-319,180,72,-240
0,4231321,2107,2002,-352,3907,-230,-313,180,72,-240
0,4231335,2108,1999,-353,3909,-225,-311,175,67,-235
0,4231350,2103,2004,-341,3900,-228,-328,175,67,-235
0,4231362,2103,2004,-341,3900,-228,-328,175,67,-235
0,4231376,2106,1996,-352,3898,-226,-315,175,67,-235
0,4231390,2106,2002,-359,3896,-224,-316,175,67,-235
0,4231404,2106,2002,-359,3896,-224,-316,175,67,-235
0,4231417,2110,1997,-354,3895,-226,-320,175,67,-235
0,4231432,2104,1999,-353,3880,-237,-316,175,67,-235
0,4231444,2104,1999,-353,3880,-237,-316,175,67,-235
0,4231456,2108,1994,-348,3892,-236,-317,170,64,-246
0,4231471,2111,1996,-372,3892,-223,-319,170,64,-246
0,4231485,2111,1996,-372,3892,-223,-319,170,64,-246
0,4231499,2107,1997,-375,3892,-226,-318,170,64,-246
0,4231514,2102,1998,-349,3888,-235,-321,170,64,-246
0,4231525,2102,1998,-349,3888,-235,-321,170,64,-246
0,4231539,2106,1998,-363,3892,-219,-310,170,64,-246
0,4231555,2108,2001,-374,3897,-220,-319,170,64,-246
0,4231570,2105,1989,-378,3904,-228,-318,170,64,-246
0,4231584,2105,1989,-378,3904,-228,-318,170,64,-246
0,4231597,2104,1997,-376,3892,-231,-317,167,61,-241
0,4231611,2106,1993,-368,3899,-229,-313,167,61,-241
0,4231624,2106,1993,-368,3899,-229,-313,167,61,-241
0,4231639,2108,2001,-400,3893,-228,-313,167,61,-241
0,4231652,2110,2000,-409,3909,-217,-318,167,61,-241
0,4231666,2110,2000,-409,3909,-217,-318,167,61,-241
0,4231677,2105,2003,-383,3906,-223,-320,167,61,-241
0,4231691,2105,1997,-378,3894,-223,-320,167,61,-241
0,4231705,2105,1997,-378,3894,-223,-320,167,61,-241
0,4231718,2106,2001,-382,3898,-224,-315,171,51,-251
0,4231733,2110,1996,-380,3901,-224,-317,171,51,-251
0,4231748,2110,1996,-380,3901,-224,-317,171,51,-251
0,4231763,2104,2001,-387,3902,-228,-319,171,51,-251
0,4231771,2105,1998,-369,3895,-225,-315,171,51,-251
0,4231778,2105,1998,-369,3895,-225,-315,171,51,-251
0,4231785,2105,1998,-369,3895,-225,-315,171,51,-251
0,4231790,2107,2002,-390,3902,-220,-321,171,51,-251
0,4231798,2107,2002,-390,3902,-220,-321,171,51,-251
0,4231803,2107,2002,-390,3902,-220,-321,171,51,-251
0,4231811,2106,2003,-399,3904,-218,-317,171,51,-251
0,4231818,2106,2003,-399,3904,-218,-317,171,51,-251
0,4231824,2106,2003,-399,3904,-218,-317,171,51,-251
0,4231831,2110,2006,-392,3903,-222,-321,171,51,-251
0,4231837,2110,2006,-392,3903,-222,-321,171,51,-251
0,4231844,2110,2006,-392,3903,-222,-321,171,51,-251
0,4231851,2102,2002,-391,3902,-221,-320,161,57,-253
0,4231858,2102,2002,-391,3902,-221,-320,161,57,-253
0,4231865,2102,2002,-391,3902,-221,-320,161,57,-253
0,4231871,2105,2005,-387,3904,-227,-319,161,57,-253
0,4231878,2105,2005,-387,3904,-227,-319,161,57,-253
0,4231884,2105,2005,-387,3904,-227,-319,161,57,-253
0,4231891,2107,2002,-398,3907,-225,-323,161,57,-253
0,4231899,2107,2002,-398,3907,-225,-323,161,57,-253
0,4231907,2107,2002,-398,3907,-225,-323,161,57,-253
0,4231912,2106,2003,-392,3905,-218,-321,161,57,-253
0,4231918,2106,2003,-392,3905,-218,-321,161,57,-253
0,4231924,2106,2003,-392,3905,-218,-321,161,57,-253
0,4231930,2108,2004,-366,3900,-221,-316,161,57,-253
0,4231939,2108,2004,-366,3900,-221,-316,161,57,-253
0,4231945,2108,2004,-366,3900,-221,-316,161,57,-253
0,4231953,2105,2008,-375,3915,-216,-309,161,57,-253
0,4231961,2105,2008,-375,3915,-216,-309,161,57,-253
0,4231969,2105,2008,-375,3915,-216,-309,161,57,-253
0,4231975,2110,2001,-364,3913,-223,-317,152,52,-258
0,4231983,2110,2001,-364,3913,-223,-317,152,52,-258
0,4231989,2110,2001,-364,3913,-223,-317,152,52,-258
0,4231996,2110,2005,-372,3904,-231,-322,152,52,-258
0,4232002,2110,2005,-372,3904,-231,-322,152,52,-258
0,4232008,2110,2005,-372,3904,-231,-322,152,52,-258
0,4232015,2108,2007,-378,3907,-230,-321,152,52,-258
0,4232020,2108,2007,-378,3907,-230,-321,152,52,-258
0,4232028,2108,2007,-378,3907,-230,-321,152,52,-258
0,4232034,2107,2008,-366,3897,-238,-319,152,52,-258
0,4232040,2107,2008,-366,3897,-238,-319,152,52,-258
0,4232046,2107,2008,-366,3897,-238,-319,152,52,-258
0,4232052,2105,2006,-374,3902,-229,-316,152,52,-258
0,4232058,2105,2006,-374,3902,-229,-316,152,52,-258
0,4232064,2105,2006,-374,3902,-229,-316,152,52,-258
0,4232070,2106,2007,-383,3904,-232,-318,152,52,-258
0,4232076,2106,2007,-383,3904,-232,-318,152,52,-258
0,4232083,2106,2007,-383,3904,-232,-318,152,52,-258
0,4232089,2106,2007,-383,3904,-232,-318,152,52,-258
0,4232096,2105,2009,-367,3906,-224,-321,159,53,-265
0,4232102,2105,2009,-367,3906,-224,-321,159,53,-265
0,4232109,2105,2009,-367,3906,-224,-321,159,53,-265
0,4232114,2105,2009,-353,3916,-223,-312,159,53,-265
0,4232121,2105,2009,-353,3916,-223,-312,159,53,-265
0,4232127,2105,2009,-353,3916,-223,-312,159,53,-265
0,4232133,2101,2005,-333,3900,-217,-318,159,53,-265
0,4232140,2101,2005,-333,3900,-217,-318,159,53,-265
0,4232146,2101,2005,-333,3900,-217,-318,159,53,-265
0,4232153,2104,2002,-358,3908,-217,-319,159,53,-265
0,4232160,2104,2002,-358,3908,-217,-319,159,53,-265
0,4232166,2104,2002,-358,3908,-217,-319,159,53,-265
0,4232174,2104,1996,-360,3906,-218,-316,159,53,-265
0,4232179,2104,1996,-360,3906,-218,-316,159,53,-265
0,4232185,2104,1996,-360,3906,-218,-316,159,53,-265
0,4232190,2105,2005,-349,3906,-225,-318,159,53,-265
0,4232198,2105,2005,-349,3906,-225,-318,159,53,-265
0,4232205,2105,2005,-349,3906,-225,-318,159,53,-265
0,4232211,2110,1997,-339,3905,-229,-322,159,53,-265
0,4232217,2110,1997,-339,3905,-229,-322,159,53,-265
0,4232224,2110,1997,-339,3905,-229,-322,159,53,-265
0,4232230,2105,2001,-344,3908,-227,-318,158,48,-272
0,4232237,2105,2001,-344,3908,-227,-318,158,48,-272
0,4232243,2105,2001,-344,3908,-227,-318,158,48,-272
0,4232248,2105,2001,-344,3908,-227,-318,158,48,-272
0,4232255,2111,2004,-345,3902,-217,-318,158,48,-272
0,4232261,2111,2004,-345,3902,-217,-318,158,48,-272
0,4232267,2111,2004,-345,3902,-217,-318,158,48,-272
0,4232273,2107,2002,-353,3902,-226,-315,158,48,-272
0,4232282,2107,2002,-353,3902,-226,-315,158,48,-272
0,4232288,2107,2002,-353,3902,-226,-315,158,48,-272
0,4232294,2105,1997,-346,3893,-222,-314,158,48,-272
0,4232300,2105,1997,-346,3893,-222,-314,158,48,-272
0,4232307,2105,1997,-346,3893,-222,-314,158,48,-272
0,4232314,2107,1997,-348,3890,-220,-313,158,48,-272
0,4232321,2107,1997,-348,3890,-220,-313,158,48,-272
0,4232327,2107,1997,-348,3890,-220,-313,158,48,-272
0,4232334,2108,1997,-352,3894,-223,-321,158,48,-272
0,4232340,2108,1997,-352,3894,-223,-321,158,48,-272
0,4232347,2108,1997,-352,3894,-223,-321,158,48,-272
0,4232353,2109,1996,-356,3897,-223,-318,155,49,-273
0,4232359,2109,1996,-356,3897,-223,-318,155,49,-273
0,4232366,2109,1996,-356,3897,-223,-318,155,49,-273
0,4232372,2104,1999,-344,3893,-231,-320,155,49,-273
0,4232380,2104,1999,-344,3893,-231,-320,155,49,-273
0,4232386,2104,1999,-344,3893,-231,-320,155,49,-273
0,4232393,2107,1994,-355,3892,-232,-317,155,49,-273
0,4232398,2107,1994,-355,3892,-232,-317,155,49,-273
0,4232404,2107,1994,-355,3892,-232,-317,155,49,-273
0,4232413,2109,1997,-363,3895,-231,-311,155,49,-273
0,4232420,2109,1997,-363,3895,-231,-311,155,49,-273
0,4232426,2109,1997,-363,3895,-231,-311,155,49,-273
0,4232432,2111,1996,-386,3896,-228,-311,155,49,-273
0,4232440,2111,1996,-386,3896,-228,-311,155,49,-273
0,4232448,2111,1996,-386,3896,-228,-311,155,49,-273
0,4232454,2104,1997,-356,3891,-226,-316,155,49,-273
0,4232460,2104,1997,-356,3891,-226,-316,155,49,-273
0,4232465,2104,1997,-356,3891,-226,-316,155,49,-273
0,4232472,2108,1996,-364,3885,-227,-320,155,49,-273
0,4232478,2108,1996,-364,3885,-227,-320,155,49,-273
0,4232486,2108,1996,-364,3885,-227,-320,155,49,-273
0,4232493,2108,1999,-369,3888,-224,-323,146,52,-272
0,4232501,2108,1999,-369,3888,-224,-323,146,52,-272
0,4232507,2108,1999,-369,3888,-224,-323,146,52,-272
0,4232515,2108,1993,-375,3904,-229,-315,146,52,-272
0,4232521,2108,1993,-375,3904,-229,-315,146,52,-272
0,4232528,2108,1993,-375,3904,-229,-315,146,52,-272
0,4232535,2107,1999,-378,3888,-224,-322,146,52,-272
0,4232541,2107,1999,-378,3888,-224,-322,146,52,-272
0,4232547,2107,1999,-378,3888,-224,-322,146,52,-272
0,4232554,2107,1994,-374,3889,-226,-323,146,52,-272
0,4232561,2107,1994,-374,3889,-226,-323,146,52,-272
0,4232568,2107,1994,-374,3889,-226,-323,146,52,-272
0,4232573,2106,1997,-384,3891,-229,-323,146,52,-272
0,4232582,2106,1997,-384,3891,-229,-323,146,52,-272
0,4232588,2106,1997,-384,3891,-229,-323,146,52,-272
0,4232594,2104,1995,-414,3892,-231,-322,146,52,-272
0,4232600,2104,1995,-414,3892,-231,-322,146,52,-272
0,4232606,2104,1995,-414,3892,-231,-322,146,52,-272
0,4232612,2102,2001,-390,3900,-225,-319,160,40,-282
0,4232620,2102,2001,-390,3900,-225,-319,160,40,-282
0,4232626,2102,2001,-390,3900,-225,-319,160,40,-282
0,4232632,2105,1999,-370,3900,-223,-326,160,40,-282
0,4232638,2105,1999,-370,3900,-223,-326,160,40,-282
0,4232644,2105,1999,-370,3900,-223,-326,160,40,-282
0,4232649,2105,1999,-370,3900,-223,-326,160,40,-282
0,4232655,2107,2002,-378,3897,-228,-325,160,40,-282
0,4232664,2107,2002,-378,3897,-228,-325,160,40,-282
0,4232671,2103,1995,-389,3894,-228,-329,160,40,-282
0,4232678,2103,1995,-389,3894,-228,-329,160,40,-282
0,4232684,2103,1995,-389,3894,-228,-329,160,40,-282
0,4232691,2107,2002,-392,3893,-232,-330,160,40,-282
0,4232699,2107,2002,-392,3893,-232,-330,160,40,-282
0,4232705,2107,2002,-392,3893,-232,-330,160,40,-282
0,4232712,2105,1998,-378,3896,-230,-322,160,40,-282
0,4232717,2105,1998,-378,3896,-230,-322,160,40,-282
0,4232723,2105,1998,-378,3896,-230,-322,160,40,-282
0,4232730,2105,1998,-378,3896,-230,-322,160,40,-282
0,4232738,2104,2002,-389,3898,-222,-317,160,40,-282
0,4232744,2104,2002,-389,3898,-222,-317,160,40,-282
0,4232750,2104,2002,-389,3898,-222,-317,160,40,-282
0,4232756,2105,2001,-400,3897,-222,-313,154,60,-286
0,4232762,2105,2001,-400,3897,-222,-313,154,60,-286
0,4232769,2105,2001,-400,3897,-222,-313,154,60,-286
0,4232779,2107,2002,-399,3898,-223,-322,154,60,-286
0,4232793,2106,1998,-398,3898,-230,-314,154,60,-286
0,4232807,2106,1998,-398,3898,-230,-314,154,60,-286
0,4232818,2106,2003,-392,3893,-234,-313,154,60,-286
0,4232830,2106,2003,-392,3893,-234,-313,154,60,-286
0,4232844,2106,2005,-406,3894,-220,-317,154,60,-286
0,4232859,2102,2002,-397,3902,-221,-320,154,60,-286
0,4232873,2102,2006,-370,3907,-225,-323,164,44,-286
0,4232887,2102,2006,-370,3907,-225,-323,164,44,-286
0,4232898,2106,2005,-373,3913,-224,-311,164,44,-286
0,4232914,2107,2000,-373,3911,-227,-318,164,44,-286
0,4232929,2107,2000,-373,3911,-227,-318,164,44,-286
0,4232943,2104,2006,-373,3909,-230,-315,164,44,-286
0,4232954,2106,2003,-382,3909,-231,-312,164,44,-286
0,4232969,2106,2003,-382,3909,-231,-312,164,44,-286
0,4232984,2103,2004,-380,3907,-229,-314,164,44,-286
0,4232998,2107,2002,-374,3908,-229,-313,157,55,-289
0,4233013,2105,2004,-381,3910,-228,-321,157,55,-289
0,4233027,2105,2004,-381,3910,-228,-321,157,55,-289
0,4233040,2103,2000,-369,3904,-227,-318,157,55,-289
0,4233053,2103,2005,-368,3907,-228,-318,157,55,-289
0,4233065,2103,2005,-368,3907,-228,-318,157,55,-289
0,4233079,2105,2002,-335,3911,-220,-315,157,55,-289
0,4233094,2105,2003,-356,3916,-217,-315,157,55,-289
0,4233108,2105,2003,-356,3916,-217,-315,157,55,-289
0,4233121,2109,1997,-374,3907,-213,-317,157,55,-289
0,4233134,2104,2004,-348,3896,-222,-316,156,52,-288
0,4233148,2104,2004,-348,3896,-222,-316,156,52,-288
0,4233164,2104,1997,-330,3902,-232,-314,156,52,-288
0,4233174,2105,2002,-348,3903,-227,-318,156,52,-288
0,4233188,2105,2002,-348,3903,-227,-318,156,52,-288
0,4233203,2105,1997,-354,3906,-229,-314,156,52,-288
0,4233218,2102,1999,-357,3905,-222,-309,156,52,-288
0,4233232,2104,1998,-339,3903,-227,-311,156,52,-288
0,4233245,2104,1998,-339,3903,-227,-311,156,52,-288
0,4233259,2102,1997,-347,3897,-224,-319,153,59,-301
0,4233270,2102,1997,-347,3897,-224,-319,153,59,-301
0,4233284,2104,1999,-348,3905,-227,-323,153,59,-301
0,4233297,2104,1989,-358,3896,-217,-317,153,59,-301
0,4233312,2105,1997,-350,3891,-227,-321,153,59,-301
0,4233326,2105,1997,-350,3891,-227,-321,153,59,-301
0,4233338,2105,1993,-348,3894,-223,-315,153,59,-301
0,4233351,2105,1993,-348,3894,-223,-315,153,59,-301
0,4233364,2105,1996,-357,3897,-223,-321,153,59,-301
0,4233378,2108,1991,-378,3896,-227,-318,153,59,-301
0,4233393,2100,1997,-366,3892,-225,-316,163,55,-295
0,4233408,2100,1997,-366,3892,-225,-316,163,55,-295
0,4233422,2105,1991,-349,3895,-226,-319,163,55,-295
0,4233434,2104,1986,-358,3897,-226,-315,163,55,-295
0,4233450,2104,1986,-358,3897,-226,-315,163,55,-295
0,4233464,2106,1991,-383,3894,-229,-317,163,55,-295
0,4233478,2105,1992,-377,3894,-233,-322,163,55,-295
0,4233489,2105,1992,-377,3894,-233,-322,163,55,-295
0,4233501,2107,1987,-384,3890,-228,-316,163,55,-295
0,4233516,2106,1992,-369,3879,-232,-309,172,56,-308
0,4233529,2106,1992,-369,3879,-232,-309,172,56,-308
0,4233543,2102,1995,-411,3895,-233,-315,172,56,-308
0,4233558,2105,1992,-397,3891,-231,-312,172,56,-308
0,4233572,2104,1997,-382,3895,-231,-318,172,56,-308
0,4233586,2104,1997,-382,3895,-231,-318,172,56,-308
0,4233602,2104,1992,-380,3901,-221,-323,172,56,-308
0,4233617,2105,1993,-388,3899,-227,-315,172,56,-308
0,4233631,2106,1992,-389,3887,-233,-318,172,56,-308
0,4233645,2106,1992,-389,3887,-233,-318,178,54,-302
0,4233658,2104,1998,-385,3888,-223,-319,178,54,-302
0,4233673,2105,1996,-375,3898,-227,-316,178,54,-302
0,4233689,2105,1996,-375,3898,-227,-316,178,54,-302
0,4233703,2100,2000,-395,3895,-233,-313,178,54,-302
0,4233716,2109,1993,-402,3902,-236,-317,178,54,-302
0,4233731,2109,1993,-402,3902,-236,-317,178,54,-302
0,4233744,2102,1997,-407,3900,-236,-318,178,54,-302
0,4233756,2104,1998,-400,3911,-227,-317,178,54,-302
0,4233769,2104,1998,-400,3911,-227,-317,178,54,-302
0,4233783,2103,1999,-395,3913,-217,-312,181,65,-309
0,4233789,2103,1999,-395,3913,-217,-312,181,65,-309
0,4233796,2105,1998,-399,3908,-224,-321,181,65,-309
0,4233802,2105,1998,-399,3908,-224,-321,181,65,-309
0,4233809,2105,1998,-399,3908,-224,-321,181,65,-309
0,4233816,2102,2000,-382,3908,-222,-319,181,65,-309
0,4233821,2102,2000,-382,3908,-222,-319,181,65,-309
0,4233828,2102,2000,-382,3908,-222,-319,181,65,-309
0,4233836,2103,2002,-378,3907,-219,-315,181,65,-309
0,4233843,2103,2002,-378,3907,-219,-315,181,65,-309
0,4233851,2103,2002,-378,3907,-219,-315,181,65,-309
0,4233857,2102,2000,-373,3905,-221,-315,181,65,-309
0,4233863,2102,2000,-373,3905,-221,-315,181,65,-309
0,4233869,2102,2000,-373,3905,-221,-315,181,65,-309
0,4233875,2102,1997,-368,3899,-218,-319,181,65,-309
0,4233882,2102,1997,-368,3899,-218,-319,181,65,-309
0,4233889,2102,1997,-368,3899,-218,-319,181,65,-309
0,4233895,2107,1998,-379,3906,-223,-321,178,50,-318
0,4233902,2107,1998,-379,3906,-223,-321,178,50,-318
0,4233909,2107,1998,-379,3906,-223,-321,178,50,-318
0,4233915,2103,1994,-371,3907,-233,-318,178,50,-318
0,4233922,2103,1994,-371,3907,-233,-318,178,50,-318
0,4233928,2103,1994,-371,3907,-233,-318,178,50,-318
0,4233935,2103,1997,-372,3898,-227,-313,178,50,-318
0,4233944,2103,1997,-372,3898,-227,-313,178,50,-318
0,4233949,2103,1997,-372,3898,-227,-313,178,50,-318
0,4233957,2101,1996,-379,3903,-229,-314,178,50,-318
0,4233964,2101,1996,-379,3903,-229,-314,178,50,-318
0,4233971,2101,1996,-379,3903,-229,-314,178,50,-318
0,4233977,2098,2002,-376,3901,-223,-319,178,50,-318
0,4233984,2098,2002,-376,3901,-223,-319,178,50,-318
0,4233990,2098,2002,-376,3901,-223,-319,178,50,-318
0,4233995,2099,2000,-369,3899,-221,-317,178,50,-318
0,4234002,2099,2000,-369,3899,-221,-317,178,50,-318
0,4234007,2099,2000,-369,3899,-221,-317,178,50,-318
0,4234013,2097,1998,-355,3908,-222,-318,178,50,-318
0,4234021,2097,1998,-355,3908,-222,-318,178,50,-318
0,4234029,2097,1998,-355,3908,-222,-318,178,50,-318
0,4234035,2103,1996,-346,3908,-215,-316,193,53,-315
0,4234042,2103,1996,-346,3908,-215,-316,193,53,-315
0,4234048,2103,1996,-346,3908,-215,-316,193,53,-315
0,4234054,2103,1998,-367,3911,-214,-317,193,53,-315
0,4234061,2103,1998,-367,3911,-214,-317,193,53,-315
0,4234067,2103,1998,-367,3911,-214,-317,193,53,-315
0,4234073,2104,1998,-361,3896,-221,-320,193,53,-315
0,4234079,2104,1998,-361,3896,-221,-320,193,53,-315
0,4234086,2104,1998,-361,3896,-221,-320,193,53,-315
0,4234092,2104,1998,-361,3896,-221,-320,193,53,-315
0,4234099,2104,1998,-361,3896,-221,-320,193,53,-315
0,4234104,2104,1998,-361,3896,-221,-320,193,53,-315
0,4234110,2104,1998,-361,3896,-221,-320,193,53,-315
0,4234117,2104,1999,-341,3907,-228,-318,193,53,-315
0,4234124,2104,1999,-341,3907,-228,-318,193,53,-315
0,4234130,2104,1999,-341,3907,-228,-318,193,53,-315
0,4234137,2107,1990,-346,3903,-230,-319,193,53,-315
0,4234143,2107,1990,-346,3903,-230,-319,193,53,-315
0,4234150,2107,1990,-346,3903,-230,-319,193,53,-315
0,4234158,2100,1995,-358,3893,-235,-314,193,59,-317
0,4234164,2100,1995,-358,3893,-235,-314,193,59,-317
0,4234171,2100,1995,-358,3893,-235,-314,193,59,-317
0,4234178,2101,1993,-347,3887,-229,-318,193,59,-317
0,4234183,2101,1993,-347,3887,-229,-318,193,59,-317
0,4234190,2101,1993,-347,3887,-229,-318,193,59,-317
0,4234196,2100,1996,-339,3901,-224,-323,193,59,-317
0,4234203,2100,1996,-339,3901,-224,-323,193,59,-317
0,4234209,2100,1996,-339,3901,-224,-323,193,59,-317
0,4234215,2107,1985,-346,3901,-224,-319,193,59,-317
0,4234221,2107,1985,-346,3901,-224,-319,193,59,-317
0,4234228,2107,1985,-346,3901,-224,-319,193,59,-317
0,4234235,2101,1992,-360,3901,-230,-316,193,59,-317
0,4234241,2101,1992,-360,3901,-230,-316,193,59,-317
0,4234247,2101,1992,-360,3901,-230,-316,193,59,-317
0,4234255,2105,1988,-352,3895,-235,-322,193,59,-317
0,4234262,2105,1988,-352,3895,-235,-322,193,59,-317
0,4234268,2105,1988,-352,3895,-235,-322,193,59,-317
0,4234274,2105,1988,-352,3895,-235,-322,193,59,-317
0,4234281,2105,1988,-352,3895,-235,-322,193,59,-317
0,4234288,2105,1988,-352,3895,-235,-322,193,59,-317
0,4234294,2104,1989,-343,3897,-227,-316,199,49,-313
0,4234302,2104,1989,-343,3897,-227,-316,199,49,-313
0,4234308,2104,1989,-343,3897,-227,-316,199,49,-313
0,4234313,2104,1988,-376,3893,-222,-319,199,49,-313
0,4234320,2104,1988,-376,3893,-222,-319,199,49,-313
0,4234328,2104,1988,-376,3893,-222,-319,199,49,-313
0,4234334,2103,1985,-374,3887,-224,-319,199,49,-313
0,4234342,2103,1985,-374,3887,-224,-319,199,49,-313
0,4234349,2103,1985,-374,3887,-224,-319,199,49,-313
0,4234357,2104,1990,-353,3894,-231,-308,199,49,-313
0,4234365,2104,1990,-353,3894,-231,-308,199,49,-313
0,4234373,2104,1990,-353,3894,-231,-308,199,49,-313
0,4234380,2100,1991,-368,3896,-230,-309,199,49,-313
0,4234386,2100,1991,-368,3896,-230,-309,199,49,-313
0,4234392,2100,1991,-368,3896,-230,-309,199,49,-313
0,4234398,2104,1993,-377,3891,-227,-319,199,49,-313
0,4234405,2104,1993,-377,3891,-227,-319,199,49,-313
0,4234413,2104,1993,-377,3891,-227,-319,199,49,-313
0,4234419,2103,1989,-377,3891,-228,-318,206,50,-324
0,4234427,2103,1989,-377,3891,-228,-318,206,50,-324
0,4234434,2104,1993,-381,3899,-227,-315,206,50,-324
0,4234441,2104,1993,-381,3899,-227,-315,206,50,-324
0,4234448,2104,1993,-381,3899,-227,-315,206,50,-324
0,4234456,2104,1986,-373,3893,-228,-317,206,50,-324
0,4234462,2104,1986,-373,3893,-228,-317,206,50,-324
0,4234468,2104,1986,-373,3893,-228,-317,206,50,-324
0,4234476,2105,1993,-405,3890,-227,-311,206,50,-324
0,4234482,2105,1993,-405,3890,-227,-311,206,50,-324
0,4234488,2105,1993,-405,3890,-227,-311,206,50,-324
0,4234497,2103,1984,-415,3895,-230,-322,206,50,-324
0,4234502,2103,1984,-415,3895,-230,-322,206,50,-324
0,4234509,2103,1984,-415,3895,-230,-322,206,50,-324
0,4234516,2102,1992,-387,3892,-225,-317,206,50,-324
0,4234523,2102,1992,-387,3892,-225,-317,206,50,-324
0,4234530,2102,1992,-387,3892,-225,-317,206,50,-324
0,4234537,2103,1990,-384,3905,-223,-314,211,57,-313
0,4234543,2103,1990,-384,3905,-223,-314,211,57,-313
0,4234549,2103,1990,-384,3905,-223,-314,211,57,-313
0,4234555,2102,1999,-388,3897,-224,-321,211,57,-313
0,4234562,2102,1999,-388,3897,-224,-321,211,57,-313
0,4234570,2102,1999,-388,3897,-224,-321,211,57,-313
0,4234576,2103,1988,-386,3898,-226,-312,211,57,-313
0,4234583,2103,1988,-386,3898,-226,-312,211,57,-313
0,4234588,2103,1988,-386,3898,-226,-312,211,57,-313
0,4234594,2104,2001,-395,3893,-224,-313,211,57,-313
0,4234601,2104,2001,-395,3893,-224,-313,211,57,-313
0,4234609,2104,2001,-395,3893,-224,-313,211,57,-313
0,4234617,2100,1988,-366,3890,-226,-313,211,57,-313
0,4234625,2100,1988,-366,3890,-226,-313,211,57,-313
0,4234632,2100,1988,-366,3890,-226,-313,211,57,-313
0,4234638,2104,1997,-395,3896,-217,-324,211,57,-313
0,4234643,2104,1997,-395,3896,-217,-324,211,57,-313
0,4234650,2104,1997,-395,3896,-217,-324,211,57,-313
0,4234656,2103,1991,-403,3897,-219,-315,211,57,-313
0,4234664,2103,1991,-403,3897,-219,-315,211,57,-313
0,4234671,2103,1991,-403,3897,-219,-315,211,57,-313
0,4234676,2104,1997,-400,3901,-233,-319,216,54,-314
0,4234684,2104,1997,-400,3901,-233,-319,216,54,-314
0,4234691,2104,1997,-400,3901,-233,-319,216,54,-314
0,4234697,2105,1996,-395,3908,-229,-314,216,54,-314
0,4234704,2105,1996,-395,3908,-229,-314,216,54,-314
0,4234712,2105,1996,-395,3908,-229,-314,216,54,-314
0,4234718,2102,1996,-390,3901,-229,-317,216,54,-314
0,4234726,2102,1996,-390,3901,-229,-317,216,54,-314
0,4234732,2102,1996,-390,3901,-229,-317,216,54,-314
0,4234739,2105,1994,-405,3902,-223,-323,216,54,-314
0,4234745,2105,1994,-405,3902,-223,-323,216,54,-314
0,4234752,2105,1994,-405,3902,-223,-323,216,54,-314
0,4234761,2101,2001,-391,3911,-221,-319,216,54,-314
0,4234767,2101,2001,-391,3911,-221,-319,216,54,-314
0,4234774,2104,1998,-372,3913,-225,-313,216,54,-314
0,4234781,2104,1998,-372,3913,-225,-313,216,54,-314
0,4234789,2104,1998,-372,3913,-225,-313,216,54,-314
0,4234803,2100,1998,-376,3909,-216,-317,220,52,-304
0,4234817,2103,1994,-371,3906,-221,-321,220,52,-304
0,4234830,2103,1994,-371,3906,-221,-321,220,52,-304
0,4234843,2105,2001,-379,3910,-219,-317,220,52,-304
0,4234857,2105,1997,-383,3909,-226,-317,220,52,-304
0,4234872,2105,1997,-383,3909,-226,-317,220,52,-304
0,4234889,2106,1999,-371,3905,-228,-323,220,52,-304
0,4234903,2105,1996,-380,3900,-233,-322,220,52,-304
0,4234915,2105,1999,-381,3905,-230,-326,220,52,-304
0,4234930,2105,1999,-381,3905,-230,-326,220,52,-304
0,4234944,2102,1996,-372,3911,-233,-318,229,47,-311
0,4234958,2101,2000,-354,3902,-221,-325,229,47,-311
0,4234973,2101,2000,-354,3902,-221,-325,229,47,-311
0,4234987,2102,1999,-344,3911,-217,-323,229,47,-311
0,4234998,2103,1998,-373,3905,-218,-308,229,47,-311
0,4235014,2103,1997,-363,3908,-212,-317,229,47,-311
0,4235028,2103,1997,-363,3908,-212,-317,229,47,-311
0,4235042,2103,1991,-341,3907,-225,-315,229,47,-311
0,4235056,2106,1998,-336,3900,-228,-315,240,42,-312
0,4235070,2106,1998,-336,3900,-228,-315,240,42,-312
0,4235084,2103,1990,-342,3899,-225,-320,240,42,-312
0,4235098,2104,1997,-354,3894,-225,-321,240,42,-312
0,4235110,2104,1997,-354,3894,-225,-321,240,42,-312
0,4235125,2106,1991,-353,3901,-230,-317,240,42,-312
0,4235141,2103,1995,-339,3897,-227,-316,240,42,-312
0,4235153,2103,1995,-339,3897,-227,-316,240,42,-312
0,4235167,2103,1990,-347,3900,-226,-313,240,42,-312
0,4235183,2100,1995,-360,3897,-224,-320,240,42,-312
0,4235198,2105,1985,-350,3897,-227,-320,240,46,-308
0,4235212,2105,1985,-350,3897,-227,-320,240,46,-308
0,4235227,2101,1989,-349,3898,-221,-319,240,46,-308
0,4235241,2102,1988,-350,3891,-221,-314,240,46,-308
0,4235255,2102,1989,-378,3894,-226,-308,240,46,-308
0,4235268,2102,1989,-378,3894,-226,-308,240,46,-308
0,4235282,2105,1991,-375,3897,-232,-321,240,46,-308
0,4235296,2105,1996,-353,3901,-227,-316,240,46,-308
0,4235311,2105,1996,-353,3901,-227,-316,240,46,-308
0,4235325,2103,1989,-361,3894,-220,-319,252,36,-308
0,4235338,2107,1995,-370,3898,-218,-321,252,36,-308
0,4235354,2107,1995,-370,3898,-218,-321,252,36,-308
0,4235362,2105,1988,-375,3891,-228,-313,252,36,-308
0,4235370,2105,1988,-375,3891,-228,-313,252,36,-308
0,4235378,2103,1994,-382,3889,-229,-315,252,36,-308
0,4235388,2103,1994,-382,3889,-229,-315,252,36,-308
0,4235403,2105,1993,-368,3893,-226,-315,252,36,-308
0,4235415,2105,1995,-398,3895,-228,-318,252,36,-308
0,4235428,2105,1995,-398,3895,-228,-318,252,36,-308
0,4235444,2105,1993,-407,3901,-219,-316,261,47,-307
0,4235460,2104,1998,-381,3895,-220,-313,261,47,-307
0,4235474,2100,1994,-377,3890,-231,-314,261,47,-307
0,4235490,2100,1994,-377,3890,-231,-314,261,47,-307
0,4235503,2104,1994,-378,3893,-226,-316,261,47,-307
0,4235515,2104,1992,-385,3903,-223,-319,261,47,-307
0,4235530,2104,1992,-385,3903,-223,-319,261,47,-307
0,4235543,2105,1999,-390,3900,-223,-316,261,47,-307
0,4235557,2102,1993,-382,3904,-220,-313,261,47,-307
0,4235572,2102,1993,-382,3904,-220,-313,261,47,-307
0,4235582,2105,2001,-389,3891,-218,-318,261,33,-313
0,4235596,2107,1994,-402,3895,-223,-311,261,33,-313
0,4235611,2107,1994,-402,3895,-223,-311,261,33,-313
0,4235626,2105,2001,-401,3900,-226,-313,261,33,-313
0,4235641,2105,1995,-404,3902,-231,-314,261,33,-313
0,4235655,2102,2001,-390,3915,-225,-321,261,33,-313
0,4235668,2102,2001,-390,3915,-225,-321,261,33,-313
0,4235683,2104,1999,-404,3900,-217,-319,261,33,-313
0,4235699,2102,2005,-389,3904,-224,-313,262,42,-310
0,4235713,2102,2005,-389,3904,-224,-313,262,42,-310
0,4235726,2103,1998,-375,3913,-226,-318,262,42,-310
0,4235742,2101,2004,-377,3907,-217,-318,262,42,-310
0,4235754,2101,2004,-377,3907,-217,-318,262,42,-310
0,4235769,2102,2002,-375,3897,-216,-310,262,42,-310
0,4235784,2108,2001,-374,3901,-221,-313,262,42,-310
0,4235797,2104,1995,-373,3910,-228,-321,262,42,-310
0,4235810,2104,1995,-373,3910,-228,-321,262,42,-310
0,4235824,2104,2002,-370,3907,-229,-315,262,42,-310
0,4235839,2104,1998,-377,3902,-231,-313,280,46,-316
0,4235854,2104,1998,-377,3902,-231,-313,280,46,-316
0,4235870,2104,1998,-377,3902,-231,-313,280,46,-316
0,4235885,2107,2004,-373,3910,-222,-315,280,46,-316
0,4235900,2101,2007,-357,3906,-220,-312,280,46,-316
0,4235915,2105,2000,-327,3911,-218,-321,280,46,-316
0,4235928,2105,2000,-327,3911,-218,-321,280,46,-316
0,4235942,2106,2001,-372,3906,-214,-323,280,46,-316
0,4235955,2103,1996,-367,3908,-214,-319,285,45,-317
0,4235967,2103,1996,-367,3908,-214,-319,285,45,-317
0,4235980,2105,1999,-343,3900,-222,-317,285,45,-317
0,4235994,2105,1999,-343,3900,-222,-317,285,45,-317
0,4236007,2106,1998,-334,3899,-224,-315,285,45,-317
0,4236019,2105,1996,-345,3899,-230,-321,285,45,-317
0,4236032,2105,1996,-345,3899,-230,-321,285,45,-317
0,4236047,2100,1997,-348,3900,-232,-324,285,45,-317
0,4236063,2102,1998,-356,3894,-230,-322,285,45,-317
0,4236071,2102,1998,-356,3894,-230,-322,285,45,-317
0,4236088,2103,1997,-339,3898,-232,-322,285,45,-317
0,4236102,2100,1994,-340,3892,-216,-317,285,45,-317
0,4236116,2109,1997,-345,3896,-223,-321,285,45,-317
0,4236130,2109,1997,-345,3896,-223,-321,285,45,-317
0,4236144,2108,1997,-352,3896,-222,-312,285,45,-317
0,4236156,2102,1994,-348,3891,-222,-316,285,45,-317
0,4236169,2102,1994,-348,3891,-222,-316,285,45,-317
0,4236182,2107,1994,-349,3888,-225,-315,285,45,-317
0,4236196,2103,1989,-364,3887,-225,-316,285,45,-317
0,4236210,2103,1989,-364,3887,-225,-316,285,45,-317
0,4236224,2109,1995,-378,3896,-226,-321,291,45,-303
0,4236235,2107,1992,-368,3902,-226,-326,291,45,-303
0,4236249,2107,1992,-368,3902,-226,-326,291,45,-303
0,4236262,2107,1999,-348,3897,-223,-317,291,45,-303
0,4236276,2103,1989,-363,3899,-221,-311,291,45,-303
0,4236291,2103,1989,-363,3899,-221,-311,291,45,-303
0,4236305,2105,1997,-378,3891,-220,-317,291,45,-303
0,4236316,2108,1996,-374,3892,-227,-317,291,45,-303
0,4236333,2108,1996,-374,3892,-227,-317,291,45,-303
0,4236340,2101,1997,-385,3896,-222,-314,297,45,-297
0,4236354,2101,1997,-385,3896,-222,-314,297,45,-297
0,4236369,2105,1997,-375,3899,-224,-316,297,45,-297
0,4236383,2105,2000,-412,3898,-223,-312,297,45,-297
0,4236397,2105,2003,-399,3899,-227,-322,297,45,-297
0,4236411,2105,2003,-399,3899,-227,-322,297,45,-297
0,4236425,2102,1999,-378,3896,-230,-320,297,45,-297
0,4236437,2103,1995,-377,3902,-221,-314,297,45,-297
0,4236451,2103,1995,-377,3902,-221,-314,297,45,-297
0,4236465,2106,1997,-385,3909,-219,-318,297,45,-297
0,4236479,2102,2002,-382,3904,-218,-317,294,54,-290
0,4236492,2102,2002,-382,3904,-218,-317,294,54,-290
0,4236505,2105,2005,-380,3898,-222,-323,294,54,-290
0,4236517,2104,2000,-377,3888,-224,-314,294,54,-290
0,4236530,2104,2000,-377,3888,-224,-314,294,54,-290
0,4236541,2103,1998,-402,3900,-229,-321,294,54,-290
0,4236556,2104,1999,-400,3913,-225,-325,294,54,-290
0,4236568,2104,1999,-400,3913,-225,-325,294,54,-290
0,4236582,2104,1999,-407,3906,-229,-326,294,54,-290
0,4236598,2102,2009,-391,3898,-227,-314,303,49,-279
0,4236612,2102,2009,-391,3898,-227,-314,303,49,-279
0,4236624,2105,2005,-391,3893,-225,-309,303,49,-279
0,4236638,2104,2005,-389,3909,-219,-311,303,49,-279
0,4236651,2104,2005,-389,3909,-219,-311,303,49,-279
0,4236664,2105,2006,-378,3902,-218,-317,303,49,-279
0,4236677,2106,2005,-376,3895,-222,-313,303,49,-279
0,4236691,2106,2005,-376,3895,-222,-313,303,49,-279
0,4236703,2104,2005,-373,3900,-224,-317,303,49,-279
0,4236718,2105,2003,-378,3903,-223,-315,303,49,-279
0,4236731,2105,2003,-378,3903,-223,-315,303,49,-279
0,4236744,2106,2008,-372,3909,-221,-322,292,50,-276
0,4236760,2105,2006,-373,3909,-227,-321,292,50,-276
0,4236773,2105,2006,-373,3909,-227,-321,292,50,-276
0,4236784,2106,2007,-376,3907,-227,-317,292,50,-276
0,4236800,2106,2002,-383,3905,-228,-318,292,50,-276
0,4236815,2106,2002,-383,3905,-228,-318,292,50,-276
0,4236827,2104,2004,-366,3902,-226,-316,292,50,-276
0,4236839,2106,2006,-372,3892,-215,-310,292,50,-276
0,4236854,2106,2006,-372,3892,-215,-310,292,50,-276
0,4236868,2105,2003,-352,3898,-222,-313,306,64,-286
0,4236882,2107,2003,-347,3898,-219,-319,306,64,-286
0,4236896,2104,2002,-361,3904,-216,-323,306,64,-286
0,4236911,2104,2002,-361,3904,-216,-323,306,64,-286
0,4236922,2103,2003,-356,3904,-220,-313,306,64,-286
0,4236936,2103,1997,-337,3901,-229,-309,306,64,-286
0,4236952,2103,1997,-337,3901,-229,-309,306,64,-286
0,4236963,2106,2006,-342,3894,-234,-323,306,64,-286
0,4236978,2106,1997,-340,3895,-228,-320,304,46,-260
0,4236993,2106,1997,-340,3895,-228,-320,304,46,-260
0,4237009,2106,1997,-340,3895,-228,-320,304,46,-260
0,4237026,2106,2002,-347,3903,-228,-315,304,46,-260
0,4237040,2104,2001,-342,3906,-230,-312,304,46,-260
0,4237053,2104,2001,-342,3906,-230,-312,304,46,-260
0,4237067,2103,1995,-347,3895,-231,-322,304,46,-260
0,4237082,2103,2000,-360,3891,-226,-327,304,46,-260
0,4237093,2103,2000,-360,3891,-226,-327,304,46,-260
0,4237108,2109,1996,-359,3901,-228,-320,304,46,-260
0,4237123,2105,1999,-355,3893,-228,-320,299,51,-269
0,4237136,2103,1999,-345,3896,-226,-324,299,51,-269
0,4237150,2103,1999,-345,3896,-226,-324,299,51,-269
0,4237165,2106,1999,-368,3902,-237,-320,299,51,-269
0,4237179,2110,1994,-384,3892,-235,-320,299,51,-269
0,4237195,2110,1994,-384,3892,-235,-320,299,51,-269
0,4237209,2106,2001,-349,3895,-226,-314,299,51,-269
0,4237222,2106,1991,-359,3904,-224,-318,299,51,-269
0,4237237,2106,2001,-363,3890,-221,-311,297,53,-257
