imu,time,ax,ay,az,gx,gy,gz,mx,my,mz
0,2628359,2237,323,2531,5482,-104,-302,144,66,-284
0,2628373,2237,323,2531,5482,-104,-302,144,66,-284
0,2628388,2230,338,2534,5479,-106,-298,144,66,-284
0,2628401,2232,333,2537,5472,-117,-295,139,55,-291
0,2628417,2235,333,2544,5466,-116,-306,139,55,-291
0,2628429,2235,333,2544,5466,-116,-306,139,55,-291
0,2628443,2242,328,2538,5472,-106,-299,139,55,-291
0,2628457,2235,332,2535,5478,-110,-295,139,55,-291
0,2628471,2235,332,2535,5478,-110,-295,139,55,-291
0,2628485,2236,352,2538,5479,-109,-300,139,55,-291
0,2628496,2234,353,2536,5472,-111,-302,139,55,-291
0,2628511,2234,353,2536,5472,-111,-302,139,55,-291
0,2628527,2236,336,2534,5474,-108,-301,139,55,-291
0,2628542,2237,345,2534,5480,-111,-296,138,56,-294
0,2628555,2237,345,2534,5480,-111,-296,138,56,-294
0,2628569,2233,349,2535,5485,-107,-300,138,56,-294
0,2628577,2233,357,2538,5478,-115,-298,138,56,-294
0,2628586,2233,357,2538,5478,-115,-298,138,56,-294
0,2628599,2232,334,2529,5481,-108,-303,138,56,-294
0,2628614,2232,334,2529,5481,-108,-303,138,56,-294
0,2628629,2236,350,2536,5488,-110,-304,138,56,-294
0,2628636,2234,334,2540,5485,-112,-290,138,56,-294
0,2628651,2234,334,2540,5485,-112,-290,138,56,-294
0,2628663,2231,346,2545,5478,-117,-299,137,55,-307
0,2628671,2231,346,2545,5478,-117,-299,137,55,-307
0,2628679,2238,323,2542,5480,-108,-302,137,55,-307
0,2628687,2238,323,2542,5480,-108,-302,137,55,-307
0,2628696,2233,335,2545,5486,-105,-304,137,55,-307
0,2628702,2233,335,2545,5486,-105,-304,137,55,-307
0,2628708,2233,335,2545,5486,-105,-304,137,55,-307
0,2628714,2233,335,2545,5486,-105,-304,137,55,-307
0,2628720,2237,301,2538,5484,-115,-300,137,55,-307
0,2628726,2237,301,2538,5484,-115,-300,137,55,-307
0,2628732,2237,301,2538,5484,-115,-300,137,55,-307
0,2628740,2233,309,2540,5476,-113,-292,137,55,-307
0,2628746,2233,309,2540,5476,-113,-292,137,55,-307
0,2628751,2233,309,2540,5476,-113,-292,137,55,-307
0,2628757,2236,313,2526,5476,-112,-298,137,55,-307
0,2628764,2236,313,2526,5476,-112,-298,137,55,-307
0,2628769,2236,313,2526,5476,-112,-298,137,55,-307
0,2628775,2236,313,2526,5476,-112,-298,137,55,-307
0,2628782,2234,325,2538,5478,-114,-298,136,60,-306
0,2628788,2234,325,2538,5478,-114,-298,136,60,-306
0,2628794,2234,325,2538,5478,-114,-298,136,60,-306
0,2628800,2232,300,2536,5489,-112,-300,136,60,-306
0,2628806,2232,300,2536,5489,-112,-300,136,60,-306
0,2628812,2232,300,2536,5489,-112,-300,136,60,-306
0,2628818,2236,325,2535,5482,-114,-304,136,60,-306
0,2628825,2236,325,2535,5482,-114,-304,136,60,-306
0,2628834,2236,325,2535,5482,-114,-304,136,60,-306
0,2628842,2238,314,2529,5478,-103,-306,136,60,-306
0,2628851,2238,314,2529,5478,-103,-306,136,60,-306
0,2628860,2234,325,2537,5473,-108,-298,136,60,-306
0,2628869,2234,325,2537,5473,-108,-298,136,60,-306
0,2628877,2239,308,2528,5481,-109,-305,136,60,-306
0,2628891,2239,308,2528,5481,-109,-305,136,60,-306
0,2628904,2236,327,2526,5475,-105,-304,136,60,-306
0,2628917,2235,308,2539,5478,-108,-293,140,50,-320
0,2628931,2235,308,2539,5478,-108,-293,140,50,-320
0,2628946,2228,317,2532,5478,-109,-298,140,50,-320
0,2628960,2233,317,2525,5474,-111,-297,140,50,-320
0,2628974,2233,317,2525,5474,-111,-297,140,50,-320
0,2628985,2235,326,2529,5472,-114,-298,140,50,-320
0,2628999,2235,322,2519,5474,-106,-295,140,50,-320
0,2629014,2235,322,2519,5474,-106,-295,140,50,-320
0,2629029,2232,321,2528,5471,-115,-301,140,50,-320
0,2629045,2234,320,2531,5467,-109,-301,152,48,-334
0,2629058,2233,327,2537,5464,-110,-298,152,48,-334
0,2629071,2233,327,2537,5464,-110,-298,152,48,-334
0,2629086,2230,320,2526,5461,-120,-296,152,48,-334
0,2629100,2235,328,2524,5465,-115,-299,152,48,-334
0,2629113,2235,328,2524,5465,-115,-299,152,48,-334
0,2629127,2236,324,2522,5464,-116,-298,152,48,-334
0,2629141,2234,320,2526,5463,-113,-300,152,48,-334
0,2629155,2234,320,2526,5463,-113,-300,152,48,-334
0,2629168,2233,324,2523,5466,-106,-298,152,48,-334
0,2629182,2231,340,2522,5468,-110,-298,156,58,-338
0,2629195,2231,340,2522,5468,-110,-298,156,58,-338
0,2629210,2235,346,2525,5462,-108,-300,156,58,-338
0,2629224,2229,392,2528,5466,-104,-299,156,58,-338
0,2629238,2225,368,2527,5468,-108,-298,156,58,-338
0,2629246,2225,368,2527,5468,-108,-298,156,58,-338
0,2629260,2233,385,2527,5467,-111,-299,156,58,-338
0,2629274,2233,385,2527,5467,-111,-299,156,58,-338
0,2629288,2232,367,2529,5467,-109,-301,156,58,-338
0,2629297,2233,396,2534,5473,-106,-296,156,58,-338
0,2629307,2233,396,2534,5473,-106,-296,162,56,-344
0,2629315,2233,396,2534,5473,-106,-296,162,56,-344
0,2629324,2230,353,2534,5486,-108,-298,162,56,-344
0,2629334,2230,353,2534,5486,-108,-298,162,56,-344
0,2629343,2227,373,2532,5477,-117,-299,162,56,-344
0,2629351,2227,373,2532,5477,-117,-299,162,56,-344
0,2629360,2241,344,2534,5484,-110,-296,162,56,-344
0,2629369,2241,344,2534,5484,-110,-296,162,56,-344
0,2629379,2229,368,2535,5486,-103,-294,162,56,-344
0,2629390,2229,368,2535,5486,-103,-294,162,56,-344
0,2629403,2234,334,2533,5485,-108,-300,162,56,-344
0,2629416,2234,334,2533,5485,-108,-300,162,56,-344
0,2629430,2233,356,2531,5485,-96,-302,162,56,-344
0,2629444,2243,326,2541,5483,-109,-308,175,53,-351
0,2629455,2243,326,2541,5483,-109,-308,175,53,-351
0,2629469,2229,343,2542,5484,-104,-297,175,53,-351
0,2629482,2239,338,2534,5486,-107,-298,175,53,-351
0,2629495,2239,338,2534,5486,-107,-298,175,53,-351
0,2629510,2234,345,2536,5480,-110,-295,175,53,-351
0,2629525,2237,336,2532,5483,-106,-301,175,53,-351
0,2629541,2230,329,2527,5471,-106,-291,175,53,-351
0,2629555,2230,329,2527,5471,-106,-291,175,53,-351
0,2629568,2231,343,2535,5478,-108,-305,183,59,-353
0,2629583,2233,336,2535,5475,-107,-304,183,59,-353
0,2629594,2233,336,2535,5475,-107,-304,183,59,-353
0,2629602,2232,337,2539,5481,-112,-304,183,59,-353
0,2629616,2232,337,2539,5481,-112,-304,183,59,-353
0,2629630,2235,330,2538,5483,-109,-306,183,59,-353
0,2629642,2233,343,2536,5480,-104,-298,183,59,-353
0,2629653,2233,343,2536,5480,-104,-298,183,59,-353
0,2629666,2237,333,2536,5477,-112,-298,183,59,-353
0,2629681,2230,336,2538,5476,-113,-304,196,58,-366
0,2629695,2230,336,2538,5476,-113,-304,196,58,-366
0,2629707,2236,324,2536,5483,-111,-299,196,58,-366
0,2629720,2231,332,2532,5485,-116,-298,196,58,-366
0,2629734,2231,332,2532,5485,-116,-298,196,58,-366
0,2629748,2234,323,2536,5483,-112,-302,196,58,-366
0,2629762,2232,333,2530,5474,-101,-302,196,58,-366
0,2629776,2232,333,2530,5474,-101,-302,196,58,-366
0,2629792,2237,309,2529,5473,-100,-299,196,58,-366
0,2629808,2236,317,2527,5473,-111,-304,196,58,-366
0,2629822,2234,319,2533,5484,-111,-294,203,55,-353
0,2629836,2234,319,2533,5484,-111,-294,203,55,-353
0,2629850,2238,330,2535,5480,-105,-301,203,55,-353
0,2629865,2234,303,2536,5477,-112,-302,203,55,-353
0,2629875,2234,303,2536,5477,-112,-302,203,55,-353
0,2629889,2237,326,2529,5483,-112,-309,203,55,-353
0,2629902,2233,312,2533,5482,-111,-302,203,55,-353
0,2629915,2233,312,2533,5482,-111,-302,203,55,-353
0,2629929,2233,331,2526,5480,-114,-296,203,55,-353
0,2629944,2237,311,2529,5480,-115,-302,190,50,-372
0,2629956,2237,311,2529,5480,-115,-302,190,50,-372
0,2629969,2234,328,2524,5468,-112,-299,190,50,-372
0,2629983,2237,321,2523,5466,-110,-296,190,50,-372
0,2629996,2237,321,2523,5466,-110,-296,190,50,-372
0,2630011,2233,328,2527,5459,-114,-294,190,50,-372
0,2630026,2235,317,2521,5464,-111,-297,190,50,-372
0,2630039,2237,333,2527,5478,-109,-298,190,50,-372
0,2630053,2237,333,2527,5478,-109,-298,190,50,-372
0,2630068,2234,324,2524,5479,-115,-296,190,50,-372
0,2630081,2235,339,2530,5472,-108,-297,208,46,-362
0,2630092,2235,339,2530,5472,-108,-297,208,46,-362
0,2630106,2235,339,2525,5471,-103,-297,208,46,-362
0,2630120,2234,342,2527,5472,-103,-298,208,46,-362
0,2630133,2234,342,2527,5472,-103,-298,208,46,-362
0,2630148,2235,335,2524,5469,-104,-298,208,46,-362
0,2630162,2229,343,2522,5475,-103,-299,208,46,-362
0,2630173,2229,343,2522,5475,-103,-299,208,46,-362
0,2630188,2231,355,2524,5470,-101,-299,208,46,-362
0,2630202,2231,349,2529,5477,-108,-296,210,56,-362
0,2630215,2231,349,2529,5477,-108,-296,210,56,-362
0,2630231,2234,359,2534,5473,-108,-296,210,56,-362
0,2630245,2235,364,2534,5473,-113,-300,210,56,-362
0,2630258,2235,364,2534,5473,-113,-300,210,56,-362
0,2630269,2231,370,2531,5469,-111,-298,210,56,-362
0,2630285,2234,361,2532,5476,-109,-302,210,56,-362
0,2630296,2234,361,2532,5476,-109,-302,210,56,-362
0,2630310,2228,372,2531,5487,-102,-301,210,56,-362
0,2630326,2232,357,2527,5481,-109,-298,210,56,-362
0,2630339,2225,364,2530,5489,-108,-291,217,55,-355
0,2630353,2225,364,2530,5489,-108,-291,217,55,-355
0,2630367,2233,358,2536,5487,-107,-298,217,55,-355
0,2630382,2233,358,2536,5487,-107,-298,217,55,-355
0,2630393,2233,358,2536,5487,-107,-298,217,55,-355
0,2630407,2235,349,2539,5481,-114,-300,217,55,-355
0,2630420,2233,351,2538,5486,-105,-294,217,55,-355
0,2630432,2233,351,2538,5486,-105,-294,217,55,-355
0,2630448,2235,349,2541,5483,-106,-299,217,55,-355
0,2630464,2234,340,2541,5479,-98,-290,225,55,-359
0,2630479,2234,336,2542,5489,-108,-305,225,55,-359
0,2630495,2234,336,2542,5489,-108,-305,225,55,-359
0,2630510,2233,335,2531,5490,-102,-304,225,55,-359
0,2630523,2233,344,2534,5486,-105,-299,225,55,-359
0,2630538,2233,344,2534,5486,-105,-299,225,55,-359
0,2630552,2233,344,2534,5486,-105,-299,225,55,-359
0,2630563,2236,305,2544,5487,-113,-295,225,55,-359
0,2630576,2236,305,2544,5487,-113,-295,225,55,-359
0,2630589,2238,318,2535,5486,-103,-300,225,55,-367
0,2630602,2234,334,2540,5489,-103,-291,225,55,-367
0,2630617,2234,334,2540,5489,-103,-291,225,55,-367
0,2630629,2233,306,2537,5489,-109,-295,225,55,-367
0,2630642,2239,336,2532,5486,-103,-302,225,55,-367
0,2630657,2239,336,2532,5486,-103,-302,225,55,-367
0,2630670,2237,318,2533,5477,-110,-303,225,55,-367
0,2630683,2231,341,2534,5477,-113,-292,225,55,-367
0,2630699,2233,310,2526,5472,-111,-296,225,55,-367
0,2630716,2233,310,2526,5472,-111,-296,225,55,-367
0,2630731,2232,339,2529,5473,-115,-302,237,63,-357
0,2630746,2239,305,2530,5472,-106,-289,237,63,-357
0,2630760,2230,333,2521,5479,-108,-290,237,63,-357
0,2630773,2230,333,2521,5479,-108,-290,237,63,-357
0,2630788,2234,313,2529,5474,-108,-296,237,63,-357
0,2630800,2235,346,2532,5473,-107,-299,237,63,-357
0,2630812,2235,346,2532,5473,-107,-299,237,63,-357
0,2630825,2237,312,2533,5469,-111,-293,237,63,-357
0,2630839,2235,336,2524,5466,-105,-291,238,66,-356
0,2630853,2235,336,2524,5466,-105,-291,238,66,-356
0,2630866,2237,319,2531,5475,-103,-300,238,66,-356
0,2630878,2237,319,2531,5475,-103,-300,238,66,-356
0,2630892,2229,335,2528,5475,-105,-298,238,66,-356
0,2630905,2236,314,2526,5466,-115,-298,238,66,-356
0,2630919,2230,329,2526,5476,-110,-295,238,66,-356
0,2630933,2230,329,2526,5476,-110,-295,238,66,-356
0,2630946,2232,325,2524,5476,-105,-295,238,66,-356
0,2630961,2233,335,2526,5471,-107,-294,238,66,-356
0,2630975,2233,335,2526,5471,-107,-294,238,66,-356
0,2630989,2234,335,2530,5469,-109,-299,246,76,-350
0,2631006,2234,352,2531,5468,-108,-307,246,76,-350
0,2631019,2234,383,2527,5472,-112,-303,246,76,-350
0,2631031,2234,383,2527,5472,-112,-303,246,76,-350
0,2631046,2229,367,2531,5466,-109,-300,246,76,-350
0,2631059,2235,358,2528,5469,-104,-308,246,76,-350
0,2631072,2235,358,2528,5469,-104,-308,246,76,-350
0,2631087,2236,357,2529,5471,-103,-305,246,76,-350
0,2631100,2225,368,2536,5474,-107,-297,242,72,-346
0,2631112,2225,368,2536,5474,-107,-297,242,72,-346
0,2631126,2231,355,2524,5482,-106,-296,242,72,-346
0,2631139,2226,355,2540,5477,-108,-302,242,72,-346
0,2631153,2226,355,2540,5477,-108,-302,242,72,-346
0,2631168,2235,344,2535,5483,-107,-300,242,72,-346
0,2631182,2234,346,2530,5489,-106,-288,242,72,-346
0,2631195,2234,346,2530,5489,-106,-288,242,72,-346
0,2631209,2231,340,2533,5489,-109,-296,242,72,-346
0,2631225,2234,342,2534,5476,-112,-299,242,72,-346
0,2631240,2240,333,2542,5484,-106,-305,242,72,-346
0,2631255,2240,333,2542,5484,-106,-305,242,72,-346
0,2631267,2234,335,2530,5483,-108,-296,242,72,-346
0,2631281,2231,342,2530,5475,-116,-302,242,72,-346
0,2631294,2231,342,2530,5475,-116,-302,242,72,-346
0,2631308,2230,339,2530,5475,-109,-294,242,72,-346
0,2631322,2234,334,2536,5481,-107,-292,242,72,-346
0,2631336,2234,334,2536,5481,-107,-292,242,72,-346
0,2631350,2234,332,2529,5478,-102,-294,242,72,-346
0,2631362,2230,345,2542,5481,-102,-293,248,72,-332
0,2631377,2230,345,2542,5481,-102,-293,248,72,-332
0,2631392,2237,346,2535,5480,-105,-301,248,72,-332
0,2631404,2232,346,2535,5485,-110,-300,248,72,-332
0,2631418,2232,346,2535,5485,-110,-300,248,72,-332
0,2631434,2237,342,2532,5485,-109,-296,248,72,-332
0,2631447,2237,342,2532,5485,-109,-296,248,72,-332
0,2631460,2232,352,2534,5480,-105,-294,248,72,-332
0,2631475,2232,352,2534,5480,-105,-294,248,72,-332
0,2631490,2230,351,2537,5480,-110,-301,255,71,-331
0,2631502,2232,331,2536,5483,-110,-295,255,71,-331
0,2631515,2232,331,2536,5483,-110,-295,255,71,-331
0,2631528,2232,343,2534,5491,-111,-286,255,71,-331
0,2631541,2232,326,2532,5480,-110,-298,255,71,-331
0,2631556,2232,326,2532,5480,-110,-298,255,71,-331
0,2631570,2230,340,2539,5473,-114,-299,255,71,-331
0,2631580,2235,312,2538,5475,-107,-294,255,71,-331
0,2631595,2235,312,2538,5475,-107,-294,255,71,-331
0,2631607,2235,312,2538,5475,-107,-294,255,71,-331
0,2631619,2235,312,2538,5475,-107,-294,255,71,-331
0,2631631,2237,321,2532,5484,-109,-308,247,67,-327
0,2631646,2230,337,2539,5482,-104,-301,247,67,-327
0,2631660,2231,301,2525,5475,-105,-305,247,67,-327
0,2631676,2231,301,2525,5475,-105,-305,247,67,-327
0,2631691,2241,323,2530,5478,-97,-303,247,67,-327
0,2631703,2234,304,2526,5478,-101,-300,247,67,-327
0,2631716,2234,304,2526,5478,-101,-300,247,67,-327
0,2631731,2235,340,2531,5477,-112,-296,247,67,-327
0,2631744,2235,304,2536,5474,-110,-296,245,77,-321
0,2631758,2235,304,2536,5474,-110,-296,245,77,-321
0,2631770,2234,324,2527,5473,-107,-298,245,77,-321
0,2631784,2244,306,2538,5477,-108,-303,245,77,-321
0,2631797,2244,306,2538,5477,-108,-303,245,77,-321
0,2631812,2230,335,2523,5473,-113,-307,245,77,-321
0,2631825,2233,323,2531,5481,-106,-300,245,77,-321
0,2631839,2233,323,2531,5481,-106,-300,245,77,-321
0,2631852,2235,331,2526,5483,-110,-304,245,77,-321
0,2631864,2238,309,2529,5481,-103,-294,245,77,-321
0,2631872,2238,309,2529,5481,-103,-294,245,77,-321
0,2631885,2225,320,2522,5475,-107,-292,252,68,-328
0,2631898,2225,320,2522,5475,-107,-292,252,68,-328
0,2631912,2231,324,2529,5464,-103,-293,252,68,-328
0,2631927,2230,325,2529,5469,-111,-296,252,68,-328
0,2631944,2236,312,2523,5472,-109,-297,252,68,-328
0,2631956,2236,312,2523,5472,-109,-297,252,68,-328
0,2631968,2236,325,2526,5471,-109,-300,252,68,-328
0,2631983,2235,322,2530,5479,-106,-297,252,68,-328
0,2631996,2235,322,2530,5479,-106,-297,252,68,-328
0,2632009,2235,322,2530,5479,-106,-297,242,64,-312
0,2632024,2234,323,2527,5469,-105,-301,242,64,-312
0,2632038,2234,323,2527,5469,-105,-301,242,64,-312
0,2632050,2230,339,2522,5463,-106,-296,242,64,-312
0,2632065,2230,349,2523,5468,-106,-298,242,64,-312
0,2632078,2230,349,2523,5468,-106,-298,242,64,-312
0,2632091,2227,398,2514,5473,-109,-300,242,64,-312
0,2632107,2229,356,2529,5473,-107,-300,242,64,-312
0,2632122,2231,373,2522,5465,-109,-298,232,70,-302
0,2632136,2231,373,2522,5465,-109,-298,232,70,-302
0,2632151,2234,366,2532,5469,-112,-305,232,70,-302
0,2632165,2224,395,2536,5463,-106,-297,232,70,-302
0,2632179,2224,395,2536,5463,-106,-297,232,70,-302
0,2632193,2233,358,2533,5477,-105,-299,232,70,-302
0,2632204,2229,371,2533,5475,-107,-302,232,70,-302
0,2632216,2229,371,2533,5475,-107,-302,232,70,-302
0,2632229,2233,345,2531,5480,-106,-297,232,70,-302
0,2632243,2225,369,2529,5483,-113,-296,232,70,-302
0,2632258,2225,369,2529,5483,-113,-296,232,70,-302
0,2632270,2228,332,2536,5490,-112,-302,242,66,-296
0,2632283,2228,345,2536,5487,-108,-307,242,66,-296
0,2632297,2228,345,2536,5487,-108,-307,242,66,-296
0,2632310,2237,310,2538,5480,-102,-298,242,66,-296
0,2632323,2226,336,2537,5489,-108,-297,242,66,-296
0,2632335,2226,336,2537,5489,-108,-297,242,66,-296
0,2632349,2231,324,2536,5483,-113,-294,242,66,-296
0,2632365,2229,340,2529,5485,-103,-294,242,66,-296
0,2632379,2229,340,2529,5485,-103,-294,242,66,-296
0,2632392,2234,313,2539,5493,-108,-302,239,61,-295
0,2632404,2228,339,2530,5485,-109,-297,239,61,-295
0,2632418,2228,339,2530,5485,-109,-297,239,61,-295
0,2632431,2231,333,2539,5485,-107,-301,239,61,-295
0,2632444,2225,342,2531,5485,-112,-302,239,61,-295
0,2632459,2225,342,2531,5485,-112,-302,239,61,-295
0,2632470,2233,317,2539,5479,-114,-305,239,61,-295
0,2632483,2229,329,2533,5475,-108,-306,239,61,-295
0,2632497,2229,329,2533,5475,-108,-306,239,61,-295
0,2632508,2230,328,2537,5483,-110,-296,239,61,-295
0,2632522,2228,335,2534,5480,-113,-290,229,55,-283
0,2632536,2228,335,2534,5480,-113,-290,229,55,-283
0,2632550,2233,325,2537,5482,-108,-295,229,55,-283
0,2632566,2233,326,2528,5474,-109,-295,229,55,-283
0,2632581,2233,326,2528,5474,-109,-295,229,55,-283
0,2632594,2230,330,2532,5480,-102,-303,229,55,-283
0,2632605,2230,330,2532,5480,-102,-303,229,55,-283
0,2632619,2230,330,2532,5480,-102,-303,229,55,-283
0,2632633,2235,319,2531,5481,-101,-307,229,55,-283
0,2632646,2233,322,2537,5477,-104,-304,220,60,-272
0,2632659,2233,322,2537,5477,-104,-304,220,60,-272
0,2632672,2233,304,2533,5475,-107,-295,220,60,-272
0,2632685,2231,318,2535,5476,-116,-294,220,60,-272
0,2632698,2231,318,2535,5476,-116,-294,220,60,-272
0,2632713,2235,313,2533,5476,-106,-294,220,60,-272
0,2632726,2232,325,2536,5477,-109,-293,220,60,-272
0,2632737,2232,325,2536,5477,-109,-293,220,60,-272
0,2632751,2232,308,2526,5473,-115,-298,220,60,-272
0,2632766,2234,328,2534,5479,-104,-296,220,60,-272
0,2632781,2234,328,2534,5479,-104,-296,220,60,-272
0,2632794,2240,318,2532,5467,-104,-300,214,54,-264
0,2632808,2229,329,2535,5470,-107,-296,214,54,-264
0,2632823,2236,318,2522,5468,-113,-296,214,54,-264
0,2632838,2236,318,2522,5468,-113,-296,214,54,-264
0,2632852,2233,327,2527,5476,-105,-293,214,54,-264
0,2632865,2233,318,2527,5478,-112,-292,214,54,-264
0,2632878,2233,318,2527,5478,-112,-292,214,54,-264
0,2632893,2234,320,2528,5472,-114,-296,214,54,-264
0,2632905,2236,323,2531,5478,-115,-299,213,59,-265
0,2632919,2236,323,2531,5478,-115,-299,213,59,-265
0,2632932,2233,323,2531,5469,-114,-299,213,59,-265
0,2632946,2234,328,2523,5470,-105,-300,213,59,-265
0,2632962,2234,328,2523,5470,-105,-300,213,59,-265
0,2632975,2231,343,2525,5473,-102,-303,213,59,-265
0,2632987,2229,342,2534,5465,-108,-306,213,59,-265
0,2633001,2231,351,2529,5465,-108,-301,213,59,-265
0,2633017,2231,351,2529,5465,-108,-301,213,59,-265
0,2633031,2227,340,2525,5474,-109,-307,206,50,-248
0,2633042,2230,348,2528,5482,-112,-300,206,50,-248
0,2633058,2230,348,2528,5482,-112,-300,206,50,-248
0,2633071,2232,329,2528,5479,-106,-296,206,50,-248
0,2633084,2232,360,2528,5472,-111,-300,206,50,-248
0,2633099,2232,360,2528,5472,-111,-300,206,50,-248
0,2633112,2229,337,2530,5476,-109,-293,206,50,-248
0,2633122,2229,362,2535,5469,-107,-300,206,50,-248
0,2633136,2229,362,2535,5469,-107,-300,206,50,-248
0,2633146,2235,349,2526,5480,-111,-292,206,50,-248
0,2633161,2235,349,2526,5480,-111,-292,206,50,-248
0,2633172,2226,374,2533,5475,-106,-292,198,54,-250
0,2633187,2233,346,2532,5479,-109,-292,198,54,-250
0,2633200,2233,346,2532,5479,-109,-292,198,54,-250
0,2633213,2226,361,2530,5481,-113,-298,198,54,-250
0,2633229,2236,345,2534,5475,-115,-306,198,54,-250
0,2633244,2229,350,2533,5484,-111,-297,198,54,-250
0,2633260,2229,350,2533,5484,-111,-297,198,54,-250
0,2633275,2230,334,2535,5487,-117,-300,198,54,-250
0,2633289,2228,354,2541,5481,-107,-297,197,45,-247
0,2633303,2233,330,2542,5479,-108,-296,197,45,-247
0,2633316,2233,330,2542,5479,-108,-296,197,45,-247
0,2633327,2227,343,2538,5483,-109,-303,197,45,-247
0,2633340,2227,343,2538,5483,-109,-303,197,45,-247
0,2633355,2232,324,2535,5489,-106,-297,197,45,-247
0,2633369,2232,343,2541,5490,-110,-307,197,45,-247
0,2633382,2233,322,2535,5488,-106,-298,197,45,-247
0,2633396,2233,322,2535,5488,-106,-298,197,45,-247
0,2633407,2230,322,2535,5482,-111,-300,197,45,-247
0,2633421,2230,322,2535,5482,-111,-300,197,45,-247
0,2633436,2235,285,2537,5487,-104,-305,187,49,-241
0,2633449,2231,326,2530,5490,-106,-299,187,49,-241
0,2633464,2230,316,2536,5480,-108,-297,187,49,-241
0,2633480,2230,316,2536,5480,-108,-297,187,49,-241
0,2633495,2225,310,2519,5482,-107,-294,187,49,-241
0,2633509,2239,311,2536,5479,-110,-300,187,49,-241
0,2633524,2232,315,2531,5480,-113,-303,187,49,-241
0,2633536,2232,315,2531,5480,-113,-303,187,49,-241
0,2633550,2236,323,2539,5485,-111,-293,183,51,-239
0,2633562,2236,323,2539,5485,-111,-293,183,51,-239
0,2633575,2230,313,2530,5475,-110,-303,183,51,-239
0,2633588,2233,325,2528,5475,-110,-303,183,51,-239
0,2633603,2237,312,2528,5478,-115,-300,183,51,-239
0,2633616,2237,312,2528,5478,-115,-300,183,51,-239
0,2633631,2229,325,2523,5476,-116,-291,183,51,-239
0,2633645,2230,313,2531,5471,-116,-293,183,51,-239
0,2633657,2230,313,2531,5471,-116,-293,183,51,-239
0,2633670,2237,328,2519,5466,-115,-306,183,51,-239
0,2633683,2239,310,2536,5469,-119,-298,186,52,-244
0,2633699,2239,310,2536,5469,-119,-298,186,52,-244
0,2633714,2232,327,2527,5470,-114,-298,186,52,-244
0,2633730,2233,321,2522,5471,-112,-300,186,52,-244
0,2633745,2232,330,2534,5466,-107,-307,186,52,-244
0,2633758,2232,330,2534,5466,-107,-307,186,52,-244
0,2633772,2236,314,2525,5467,-107,-305,186,52,-244
0,2633787,2230,327,2527,5472,-108,-297,186,52,-244
0,2633799,2230,327,2527,5472,-108,-297,186,52,-244
0,2633811,2232,331,2533,5469,-108,-304,166,52,-234
0,2633825,2230,338,2524,5468,-110,-295,166,52,-234
0,2633838,2230,338,2524,5468,-110,-295,166,52,-234
0,2633852,2230,330,2525,5475,-107,-292,166,52,-234
0,2633866,2226,378,2523,5477,-110,-300,166,52,-234
0,2633878,2226,378,2523,5477,-110,-300,166,52,-234
0,2633891,2228,366,2527,5473,-105,-297,166,52,-234
0,2633905,2230,363,2526,5475,-105,-296,166,52,-234
0,2633918,2230,363,2526,5475,-105,-296,166,52,-234
0,2633933,2230,339,2531,5471,-108,-303,174,56,-234
0,2633947,2233,367,2538,5468,-109,-296,174,56,-234
0,2633959,2233,367,2538,5468,-109,-296,174,56,-234
0,2633972,2231,361,2536,5477,-106,-290,174,56,-234
0,2633988,2224,357,2533,5478,-110,-297,174,56,-234
0,2634000,2224,357,2533,5478,-110,-297,174,56,-234
0,2634014,2235,347,2530,5477,-112,-290,174,56,-234
0,2634029,2233,345,2534,5486,-100,-297,174,56,-234
0,2634042,2233,345,2534,5486,-100,-297,174,56,-234
0,2634055,2226,347,2538,5489,-105,-304,174,56,-234
0,2634070,2231,334,2540,5480,-110,-308,162,58,-240
0,2634084,2232,332,2537,5483,-105,-299,162,58,-240
0,2634095,2232,332,2537,5483,-105,-299,162,58,-240
0,2634108,2235,317,2539,5489,-99,-300,162,58,-240
0,2634124,2228,337,2537,5483,-108,-299,162,58,-240
0,2634135,2228,337,2537,5483,-108,-299,162,58,-240
0,2634150,2230,330,2543,5477,-113,-296,162,58,-240
0,2634166,2231,333,2539,5472,-106,-303,162,58,-240
0,2634179,2231,333,2539,5472,-106,-303,162,58,-240
0,2634192,2234,317,2543,5474,-111,-296,161,51,-231
0,2634207,2230,333,2531,5477,-101,-294,161,51,-231
0,2634222,2230,333,2531,5477,-101,-294,161,51,-231
0,2634234,2232,332,2533,5481,-101,-291,161,51,-231
0,2634248,2232,334,2532,5480,-112,-298,161,51,-231
0,2634261,2232,334,2532,5480,-112,-298,161,51,-231
0,2634273,2231,317,2540,5488,-105,-310,161,51,-231
0,2634287,2235,330,2540,5489,-107,-304,161,51,-231
0,2634301,2235,330,2540,5489,-107,-304,161,51,-231
0,2634313,2231,337,2537,5477,-111,-298,161,51,-231
0,2634327,2231,342,2539,5481,-107,-306,152,58,-242
0,2634341,2231,342,2539,5481,-107,-306,152,58,-242
0,2634354,2236,333,2542,5485,-104,-305,152,58,-242
0,2634369,2237,344,2535,5477,-112,-300,152,58,-242
0,2634379,2237,344,2535,5477,-112,-300,152,58,-242
0,2634393,2236,326,2535,5474,-113,-298,152,58,-242
0,2634407,2233,340,2532,5482,-112,-294,152,58,-242
0,2634421,2233,340,2532,5482,-112,-294,152,58,-242
0,2634433,2233,324,2537,5483,-104,-305,152,58,-242
0,2634447,2235,338,2530,5476,-106,-299,150,60,-242
0,2634462,2235,338,2530,5476,-106,-299,150,60,-242
0,2634475,2236,284,2536,5485,-104,-297,150,60,-242
0,2634488,2234,328,2530,5489,-110,-303,150,60,-242
0,2634503,2234,328,2530,5489,-110,-303,150,60,-242
0,2634519,2235,309,2539,5478,-110,-299,150,60,-242
0,2634533,2233,324,2530,5479,-111,-307,150,60,-242
0,2634545,2237,297,2537,5484,-101,-302,150,60,-242
0,2634559,2237,297,2537,5484,-101,-302,150,60,-242
0,2634571,2232,325,2534,5481,-105,-301,150,60,-242
0,2634586,2238,319,2540,5470,-100,-298,150,60,-242
0,2634600,2238,319,2540,5470,-100,-298,150,60,-242
0,2634613,2224,322,2526,5474,-116,-300,150,60,-242
0,2634628,2237,315,2530,5470,-114,-307,150,60,-242
0,2634638,2237,315,2530,5470,-114,-307,150,60,-242
0,2634651,2232,317,2534,5475,-106,-301,150,60,-242
0,2634667,2235,311,2531,5480,-107,-295,150,60,-242
0,2634682,2235,311,2531,5480,-107,-295,150,60,-242
0,2634695,2231,314,2522,5468,-106,-300,150,60,-242
0,2634708,2237,320,2532,5464,-110,-305,146,58,-248
0,2634722,2237,320,2532,5464,-110,-305,146,58,-248
0,2634734,2239,322,2536,5470,-107,-299,146,58,-248
0,2634750,2231,319,2530,5470,-106,-292,146,58,-248
0,2634763,2231,319,2530,5470,-106,-292,146,58,-248
0,2634777,2232,317,2529,5468,-108,-302,146,58,-248
0,2634790,2233,330,2524,5463,-97,-308,146,58,-248
0,2634805,2233,312,2522,5467,-111,-300,146,58,-248
0,2634819,2233,312,2522,5467,-111,-300,146,58,-248
0,2634831,2229,320,2525,5465,-112,-297,142,64,-250
0,2634846,2236,319,2524,5470,-115,-297,142,64,-250
0,2634861,2236,319,2524,5470,-115,-297,142,64,-250
0,2634871,2228,330,2520,5471,-117,-301,142,64,-250
0,2634880,2228,330,2520,5471,-117,-301,142,64,-250
0,2634888,2231,321,2528,5468,-116,-307,142,64,-250
0,2634895,2231,321,2528,5468,-116,-307,142,64,-250
0,2634903,2231,321,2528,5468,-116,-307,142,64,-250
0,2634918,2231,340,2523,5464,-106,-300,142,64,-250
0,2634935,2235,341,2527,5463,-103,-291,142,64,-250
0,2634950,2231,394,2525,5473,-100,-295,142,64,-250
0,2634963,2231,394,2525,5473,-100,-295,142,64,-250
0,2634977,2229,366,2541,5475,-110,-296,141,65,-261
0,2634990,2232,377,2526,5464,-109,-299,141,65,-261
0,2635005,2233,365,2531,5467,-112,-301,141,65,-261
0,2635018,2233,365,2531,5467,-112,-301,141,65,-261
0,2635031,2228,388,2533,5473,-108,-302,141,65,-261
0,2635044,2231,371,2531,5475,-111,-299,141,65,-261
0,2635058,2231,371,2531,5475,-111,-299,141,65,-261
0,2635073,2226,371,2536,5488,-102,-302,141,65,-261
0,2635088,2239,356,2540,5484,-112,-297,132,62,-266
0,2635104,2239,356,2540,5484,-112,-297,132,62,-266
0,2635118,2234,362,2541,5485,-114,-287,132,62,-266
0,2635132,2233,351,2542,5484,-110,-296,132,62,-266
0,2635146,2235,349,2538,5479,-106,-297,132,62,-266
0,2635160,2235,349,2538,5479,-106,-297,132,62,-266
0,2635171,2235,337,2538,5476,-109,-304,132,62,-266
0,2635184,2235,337,2538,5476,-109,-304,132,62,-266
0,2635197,2231,328,2535,5482,-109,-295,132,62,-266
0,2635211,2233,327,2530,5485,-113,-291,132,62,-266
0,2635225,2227,341,2538,5485,-109,-301,137,61,-275
0,2635237,2227,341,2538,5485,-109,-301,137,61,-275
0,2635245,2234,318,2536,5486,-106,-301,137,61,-275
0,2635257,2234,318,2536,5486,-106,-301,137,61,-275
0,2635271,2231,324,2540,5486,-115,-297,137,61,-275
0,2635282,2231,324,2540,5486,-115,-297,137,61,-275
0,2635297,2234,324,2544,5487,-99,-299,137,61,-275
0,2635313,2231,344,2540,5484,-108,-301,137,61,-275
0,2635326,2237,326,2539,5486,-110,-299,137,61,-275
0,2635338,2237,326,2539,5486,-110,-299,137,61,-275
0,2635354,2232,329,2539,5481,-111,-302,142,60,-282
0,2635368,2238,328,2539,5476,-104,-303,142,60,-282
0,2635382,2238,328,2539,5476,-104,-303,142,60,-282
0,2635396,2228,339,2530,5484,-111,-294,142,60,-282
0,2635408,2230,321,2535,5490,-115,-302,142,60,-282
0,2635424,2230,329,2530,5476,-109,-298,142,60,-282
0,2635440,2230,329,2530,5476,-109,-298,142,60,-282
0,2635452,2235,317,2539,5480,-107,-293,142,60,-282
0,2635465,2231,330,2533,5482,-113,-298,143,59,-285
0,2635480,2231,330,2533,5482,-113,-298,143,59,-285
0,2635493,2232,325,2540,5471,-109,-301,143,59,-285
0,2635507,2236,328,2534,5470,-107,-307,143,59,-285
0,2635522,2236,328,2534,5470,-107,-307,143,59,-285
0,2635534,2237,312,2543,5475,-109,-305,143,59,-285
0,2635549,2232,307,2532,5482,-108,-303,143,59,-285
0,2635565,2232,307,2532,5482,-108,-303,143,59,-285
0,2635578,2236,320,2523,5485,-99,-302,143,59,-285
0,2635589,2233,319,2530,5478,-106,-303,143,59,-285
0,2635604,2232,305,2532,5482,-106,-305,142,59,-285
0,2635618,2232,305,2532,5482,-106,-305,142,58,-292
0,2635631,2237,317,2533,5477,-101,-301,142,58,-292
0,2635645,2230,314,2538,5477,-101,-303,142,58,-292
0,2635657,2230,314,2538,5477,-101,-303,142,58,-292
0,2635669,2235,327,2529,5472,-109,-294,142,58,-292
0,2635682,2235,327,2529,5472,-109,-294,142,58,-292
0,2635696,2236,314,2527,5475,-107,-296,142,58,-292
0,2635710,2232,324,2528,5476,-102,-295,142,58,-292
0,2635722,2232,324,2528,5476,-102,-295,142,58,-292
0,2635735,2236,317,2528,5470,-107,-306,147,49,-297
0,2635748,2233,331,2523,5464,-106,-298,147,49,-297
0,2635761,2233,331,2523,5464,-106,-298,147,49,-297
0,2635776,2232,323,2535,5465,-104,-303,147,49,-297
0,2635790,2231,329,2526,5472,-110,-308,147,49,-297
0,2635802,2231,329,2526,5472,-110,-308,147,49,-297
0,2635817,2232,331,2530,5474,-109,-306,147,49,-297
0,2635832,2229,343,2530,5472,-103,-305,147,49,-297
0,2635847,2234,353,2529,5476,-110,-302,147,49,-297
0,2635858,2234,353,2529,5476,-110,-302,147,49,-297
0,2635873,2233,353,2533,5473,-110,-298,142,48,-304
0,2635888,2236,348,2536,5471,-110,-297,142,48,-304
0,2635901,2236,348,2536,5471,-110,-297,142,48,-304
0,2635915,2235,342,2528,5468,-114,-293,142,48,-304
0,2635928,2234,355,2531,5473,-109,-295,142,48,-304
0,2635944,2234,355,2531,5473,-109,-295,142,48,-304
0,2635958,2233,352,2528,5473,-110,-300,142,48,-304
0,2635969,2229,354,2531,5476,-111,-301,142,48,-304
0,2635983,2229,354,2531,5476,-111,-301,142,48,-304
0,2635997,2230,353,2527,5471,-107,-308,136,58,-316
0,2636011,2233,361,2533,5467,-108,-299,136,58,-316
0,2636024,2233,361,2533,5467,-108,-299,136,58,-316
0,2636037,2230,364,2535,5468,-119,-302,136,58,-316
0,2636051,2235,365,2535,5469,-114,-306,136,58,-316
0,2636066,2230,363,2535,5479,-116,-303,136,58,-316
0,2636080,2230,363,2535,5479,-116,-303,136,58,-316
0,2636091,2234,350,2535,5480,-107,-302,136,58,-316
0,2636105,2233,364,2539,5485,-102,-302,136,58,-316
0,2636119,2233,364,2539,5485,-102,-302,136,58,-316
0,2636132,2231,348,2546,5483,-113,-299,137,53,-329
0,2636146,2235,352,2538,5481,-98,-296,137,53,-329
0,2636156,2235,352,2538,5481,-98,-296,137,53,-329
0,2636170,2234,335,2536,5486,-102,-302,137,53,-329
0,2636183,2234,335,2536,5486,-102,-302,137,53,-329
0,2636196,2234,348,2535,5479,-117,-291,137,53,-329
0,2636211,2232,334,2531,5485,-109,-293,137,53,-329
0,2636222,2232,334,2531,5485,-109,-293,137,53,-329
0,2636236,2234,341,2532,5480,-107,-298,137,53,-329
0,2636252,2241,329,2538,5481,-115,-302,147,49,-329
0,2636267,2234,336,2536,5487,-110,-300,147,49,-329
0,2636279,2234,336,2536,5487,-110,-300,147,49,-329
0,2636293,2240,288,2542,5488,-114,-306,147,49,-329
0,2636309,2235,339,2542,5480,-110,-296,147,49,-329
0,2636322,2235,339,2542,5480,-110,-296,147,49,-329
0,2636337,2235,310,2538,5490,-111,-291,147,49,-329
0,2636351,2228,332,2529,5474,-109,-291,147,49,-329
0,2636364,2228,332,2529,5474,-109,-291,147,49,-329
0,2636379,2237,298,2528,5473,-102,-297,149,59,-343
0,2636393,2230,328,2535,5478,-99,-293,149,59,-343
0,2636405,2230,328,2535,5478,-99,-293,149,59,-343
0,2636419,2242,310,2538,5467,-113,-303,149,59,-343
0,2636433,2226,332,2528,5474,-111,-296,149,59,-343
0,2636446,2238,324,2530,5481,-109,-301,149,59,-343
0,2636460,2238,324,2530,5481,-109,-301,149,59,-343
0,2636472,2232,326,2522,5467,-114,-307,149,59,-343
0,2636484,2232,326,2522,5467,-114,-307,149,59,-343
0,2636497,2235,317,2532,5469,-109,-298,149,59,-343
0,2636512,2229,326,2533,5476,-110,-299,161,59,-351
0,2636527,2236,329,2540,5477,-108,-305,161,59,-351
0,2636542,2236,329,2540,5477,-108,-305,161,59,-351
0,2636556,2235,319,2529,5479,-99,-295,161,59,-351
0,2636569,2231,321,2525,5472,-109,-292,161,59,-351
0,2636584,2231,321,2525,5472,-109,-292,161,59,-351
0,2636598,2232,325,2529,5469,-111,-303,161,59,-351
0,2636610,2234,330,2526,5470,-117,-306,161,59,-351
0,2636623,2234,330,2526,5470,-117,-306,161,59,-351
0,2636637,2236,322,2526,5469,-116,-299,177,55,-351
0,2636651,2235,327,2533,5469,-112,-302,177,55,-351
0,2636665,2235,327,2533,5469,-112,-302,177,55,-351
0,2636677,2234,336,2527,5468,-110,-298,177,55,-351
0,2636689,2234,341,2531,5470,-110,-295,177,55,-351
0,2636704,2234,341,2531,5470,-110,-295,177,55,-351
0,2636716,2232,335,2522,5469,-108,-307,177,55,-351
0,2636731,2231,350,2532,5466,-110,-301,177,55,-351
0,2636746,2231,378,2523,5473,-106,-300,177,55,-351
0,2636762,2231,378,2523,5473,-106,-300,177,55,-351
0,2636777,2229,367,2529,5473,-105,-299,188,58,-352
0,2636791,2229,358,2527,5481,-112,-308,188,58,-352
0,2636805,2229,358,2527,5481,-112,-308,188,58,-352
0,2636819,2240,354,2532,5482,-106,-303,188,58,-352
0,2636832,2233,373,2530,5472,-108,-291,188,58,-352
0,2636846,2233,373,2530,5472,-108,-291,188,58,-352
0,2636859,2230,362,2529,5479,-110,-301,188,58,-352
0,2636872,2229,359,2535,5482,-111,-301,188,58,-352
0,2636886,2229,359,2535,5482,-111,-301,188,58,-352
0,2636899,2239,354,2538,5477,-107,-305,190,54,-352
0,2636913,2235,355,2542,5478,-112,-294,190,54,-352
0,2636925,2235,355,2542,5478,-112,-294,190,54,-352
0,2636940,2230,350,2528,5486,-110,-297,190,54,-352
0,2636955,2231,345,2534,5482,-108,-305,190,54,-352
0,2636969,2239,331,2535,5480,-109,-302,190,54,-352
0,2636983,2239,331,2535,5480,-109,-302,190,54,-352
0,2636998,2234,337,2532,5477,-109,-298,190,54,-352
0,2637014,2232,334,2529,5486,-108,-298,190,54,-352
0,2637025,2232,334,2529,5486,-108,-298,190,54,-352
0,2637039,2231,347,2536,5478,-110,-307,197,51,-361
0,2637052,2238,328,2539,5481,-106,-303,197,51,-361
0,2637065,2238,328,2539,5481,-106,-303,197,51,-361
0,2637077,2235,335,2531,5479,-109,-298,197,51,-361
0,2637090,2234,331,2534,5481,-111,-297,197,51,-361
0,2637104,2234,331,2534,5481,-111,-297,197,51,-361
0,2637118,2230,349,2534,5475,-100,-297,197,51,-361
0,2637129,2233,330,2538,5483,-108,-296,197,51,-361
0,2637143,2233,330,2538,5483,-108,-296,197,51,-361
0,2637156,2232,339,2537,5480,-105,-300,200,54,-364
0,2637169,2230,338,2536,5471,-115,-302,200,54,-364
0,2637184,2230,338,2536,5471,-115,-302,200,54,-364
0,2637195,2232,347,2532,5477,-117,-301,200,54,-364
0,2637209,2230,345,2536,5482,-111,-308,200,54,-364
0,2637224,2230,345,2536,5482,-111,-308,200,54,-364
0,2637241,2235,353,2529,5485,-111,-302,200,54,-364
0,2637255,2230,346,2532,5482,-106,-299,200,54,-364
0,2637271,2232,345,2534,5483,-111,-297,205,51,-375
0,2637282,2232,345,2534,5483,-111,-297,205,51,-375
0,2637295,2232,328,2538,5482,-110,-300,205,51,-375
0,2637308,2233,341,2530,5482,-109,-296,205,51,-375
0,2637322,2233,341,2530,5482,-109,-296,205,51,-375
0,2637336,2234,319,2532,5486,-106,-290,205,51,-375
0,2637348,2233,307,2531,5490,-112,-303,205,51,-375
0,2637361,2233,307,2531,5490,-112,-303,205,51,-375
0,2637375,2236,323,2531,5480,-105,-300,205,51,-375
0,2637389,2231,329,2533,5481,-109,-294,205,51,-375
0,2637403,2231,329,2533,5481,-109,-294,205,51,-375
0,2637418,2233,306,2538,5478,-109,-300,213,45,-367
0,2637429,2233,306,2538,5478,-109,-300,213,45,-367
0,2637443,2233,306,2538,5478,-109,-300,213,45,-367
0,2637458,2236,317,2527,5482,-112,-302,213,45,-367
0,2637473,2236,317,2527,5482,-112,-302,213,45,-367
0,2637487,2236,317,2527,5482,-112,-302,213,45,-367
0,2637498,2239,315,2528,5479,-110,-299,213,45,-367
0,2637513,2229,337,2525,5475,-104,-307,213,45,-367
0,2637527,2229,337,2525,5475,-104,-307,213,45,-367
0,2637540,2239,310,2534,5477,-107,-302,220,50,-362
0,2637554,2231,326,2530,5476,-109,-296,220,50,-362
0,2637568,2234,315,2522,5471,-113,-296,220,50,-362
0,2637580,2234,315,2522,5471,-113,-296,220,50,-362
0,2637594,2234,339,2527,5477,-106,-305,220,50,-362
0,2637607,2234,339,2527,5477,-106,-305,220,50,-362
0,2637621,2234,339,2527,5477,-106,-305,220,50,-362
0,2637636,2235,330,2527,5476,-108,-294,220,50,-362
0,2637650,2234,328,2525,5480,-106,-298,220,50,-362
0,2637665,2234,328,2525,5480,-106,-298,220,50,-362
0,2637672,2233,337,2533,5467,-106,-297,224,62,-356
0,2637685,2233,337,2533,5467,-106,-297,224,62,-356
0,2637700,2239,314,2523,5470,-117,-300,224,62,-356
0,2637716,2231,327,2521,5473,-114,-300,224,62,-356
0,2637729,2239,323,2524,5475,-109,-299,224,62,-356
0,2637743,2239,323,2524,5475,-109,-299,224,62,-356
0,2637757,2234,332,2521,5475,-103,-296,224,62,-356
0,2637769,2232,327,2515,5473,-110,-298,224,62,-356
0,2637783,2232,327,2515,5473,-110,-298,224,62,-356
0,2637796,2232,349,2526,5473,-107,-306,232,58,-354
0,2637810,2231,363,2524,5469,-110,-303,232,58,-354
0,2637824,2231,363,2524,5469,-110,-303,232,58,-354
0,2637837,2226,402,2523,5466,-114,-296,232,58,-354
0,2637849,2228,368,2534,5457,-115,-309,232,58,-354
0,2637862,2228,368,2534,5457,-115,-309,232,58,-354
0,2637876,2234,381,2533,5465,-112,-306,232,58,-354
0,2637890,2236,368,2529,5465,-110,-297,232,58,-354
0,2637904,2236,368,2529,5465,-110,-297,232,58,-354
0,2637920,2225,390,2530,5477,-110,-283,238,66,-350
0,2637935,2230,367,2530,5466,-105,-297,238,66,-350
0,2637950,2230,382,2528,5467,-107,-299,238,66,-350
0,2637964,2230,382,2528,5467,-107,-299,238,66,-350
0,2637977,2235,352,2536,5475,-108,-290,238,66,-350
0,2637991,2233,371,2536,5473,-111,-292,238,66,-350
0,2638005,2233,371,2536,5473,-111,-292,238,66,-350
0,2638017,2232,346,2538,5480,-108,-301,238,66,-350
0,2638030,2235,350,2534,5481,-106,-305,238,66,-350
0,2638045,2235,350,2534,5481,-106,-305,238,66,-350
0,2638058,2238,324,2541,5483,-109,-294,235,67,-357
0,2638072,2234,342,2536,5483,-108,-290,235,67,-357
0,2638085,2234,342,2536,5483,-108,-290,235,67,-357
0,2638097,2234,339,2531,5495,-104,-302,235,67,-357
0,2638112,2232,335,2536,5487,-105,-295,235,67,-357
0,2638127,2232,335,2536,5487,-105,-295,235,67,-357
0,2638140,2235,320,2528,5489,-106,-298,235,67,-357
0,2638154,2232,336,2530,5490,-114,-304,235,67,-357
0,2638170,2234,335,2537,5487,-108,-300,239,65,-343
0,2638184,2234,335,2537,5487,-108,-300,239,65,-343
0,2638198,2233,339,2536,5485,-107,-301,239,65,-343
0,2638213,2236,323,2534,5483,-102,-292,239,65,-343
0,2638222,2236,323,2534,5483,-102,-292,239,65,-343
0,2638235,2237,331,2542,5480,-100,-290,239,65,-343
0,2638248,2235,335,2530,5479,-108,-296,239,65,-343
0,2638263,2235,335,2530,5479,-108,-296,239,65,-343
0,2638276,2233,333,2537,5490,-110,-299,239,65,-343
0,2638286,2233,333,2537,5490,-110,-299,239,65,-343
0,2638301,2231,329,2527,5480,-110,-303,239,65,-343
0,2638314,2236,323,2542,5481,-114,-299,240,66,-342
0,2638330,2233,328,2534,5482,-114,-294,240,66,-342
0,2638344,2233,328,2534,5482,-114,-294,240,66,-342
0,2638358,2229,332,2533,5484,-115,-295,240,66,-342
0,2638372,2232,328,2529,5475,-107,-297,240,66,-342
0,2638386,2232,328,2529,5475,-107,-297,240,66,-342
0,2638399,2234,320,2538,5473,-109,-293,240,66,-342
0,2638413,2232,307,2533,5474,-113,-295,240,66,-342
0,2638430,2234,330,2533,5478,-110,-294,240,76,-342
0,2638445,2234,330,2533,5478,-110,-294,240,76,-342
0,2638458,2236,324,2532,5480,-110,-290,240,76,-342
0,2638471,2235,318,2532,5470,-115,-303,240,76,-342
0,2638484,2235,318,2532,5470,-115,-303,240,76,-342
0,2638498,2235,314,2528,5476,-116,-294,240,76,-342
0,2638512,2234,323,2530,5469,-108,-292,240,76,-342
0,2638526,2234,323,2530,5469,-108,-292,240,76,-342
0,2638540,2234,324,2528,5481,-106,-294,240,76,-342
0,2638553,2231,322,2526,5465,-108,-301,240,76,-342
0,2638566,2231,322,2526,5465,-108,-301,240,76,-342
0,2638579,2234,323,2530,5468,-106,-298,251,73,-341
0,2638587,2234,323,2530,5468,-106,-298,251,73,-341
0,2638598,2236,320,2527,5468,-107,-297,251,73,-341
0,2638611,2233,322,2526,5461,-108,-299,251,73,-341
0,2638625,2233,322,2526,5461,-108,-299,251,73,-341
0,2638636,2237,327,2527,5475,-119,-299,251,73,-341
0,2638649,2236,327,2527,5467,-108,-301,251,73,-341
0,2638664,2236,327,2527,5467,-108,-301,251,73,-341
0,2638680,2237,333,2523,5471,-108,-296,251,73,-341
0,2638694,2231,344,2524,5469,-105,-303,243,73,-341
0,2638706,2231,344,2524,5469,-105,-303,243,73,-341
0,2638720,2230,346,2527,5462,-107,-302,243,73,-341
0,2638734,2228,365,2520,5463,-107,-298,243,73,-341
0,2638747,2228,365,2520,5463,-107,-298,243,73,-341
0,2638760,2230,354,2526,5467,-112,-298,243,73,-341
0,2638775,2229,343,2528,5474,-110,-302,243,73,-341
0,2638788,2229,343,2528,5474,-110,-302,243,73,-341
0,2638801,2235,352,2534,5469,-108,-300,243,73,-341
0,2638816,2227,351,2529,5470,-111,-296,254,68,-330
0,2638832,2232,352,2529,5477,-107,-296,254,68,-330
0,2638848,2232,352,2529,5477,-107,-296,254,68,-330
0,2638862,2230,351,2527,5483,-104,-293,254,68,-330
0,2638873,2235,368,2530,5475,-107,-305,254,68,-330
0,2638888,2235,368,2530,5475,-107,-305,254,68,-330
0,2638902,2232,357,2530,5478,-109,-297,254,68,-330
0,2638915,2226,375,2528,5483,-105,-295,254,68,-330
0,2638929,2232,350,2521,5482,-109,-304,254,68,-330
0,2638944,2232,350,2521,5482,-109,-304,254,68,-330
0,2638957,2230,363,2531,5476,-107,-293,248,60,-332
0,2638969,2234,341,2539,5479,-106,-299,248,60,-332
0,2638983,2234,341,2539,5479,-106,-299,248,60,-332
0,2638996,2227,360,2534,5481,-111,-295,248,60,-332
0,2639010,2237,344,2538,5478,-108,-297,248,60,-332
0,2639025,2237,344,2538,5478,-108,-297,248,60,-332
0,2639037,2230,351,2544,5481,-116,-299,248,60,-332
0,2639051,2235,333,2533,5493,-104,-298,248,60,-332
0,2639067,2235,333,2533,5493,-104,-298,248,60,-332
0,2639081,2230,348,2538,5492,-100,-299,253,69,-319
0,2639093,2236,323,2534,5485,-101,-297,253,69,-319
0,2639108,2236,323,2534,5485,-101,-297,253,69,-319
0,2639124,2230,337,2533,5476,-108,-293,253,69,-319
0,2639138,2233,299,2538,5474,-110,-296,253,69,-319
0,2639153,2235,309,2537,5476,-110,-306,253,69,-319
0,2639166,2235,309,2537,5476,-110,-306,253,69,-319
0,2639179,2237,315,2536,5480,-111,-302,253,69,-319
0,2639191,2231,332,2542,5482,-109,-296,253,69,-319
0,2639203,2231,332,2542,5482,-109,-296,253,69,-319
0,2639217,2237,299,2536,5481,-110,-295,238,68,-308
0,2639232,2243,326,2536,5476,-109,-311,238,68,-308
0,2639246,2243,326,2536,5476,-109,-311,238,68,-308
0,2639259,2232,314,2525,5469,-112,-300,238,68,-308
0,2639271,2226,330,2531,5470,-115,-297,238,68,-308
0,2639286,2226,330,2531,5470,-115,-297,238,68,-308
0,2639300,2234,308,2532,5469,-115,-301,238,68,-308
0,2639314,2231,324,2528,5473,-111,-305,238,68,-308
0,2639328,2231,324,2528,5473,-111,-305,238,68,-308
0,2639342,2236,313,2540,5470,-110,-291,244,64,-300
0,2639357,2228,325,2529,5474,-110,-290,244,64,-300
0,2639371,2234,318,2529,5466,-114,-306,244,64,-300
0,2639385,2234,318,2529,5466,-114,-306,244,64,-300
0,2639398,2239,330,2529,5465,-103,-304,244,64,-300
0,2639412,2236,317,2529,5472,-109,-296,244,64,-300
0,2639425,2236,317,2529,5472,-109,-296,244,64,-300
0,2639439,2229,328,2521,5469,-111,-298,244,64,-300
0,2639453,2234,324,2520,5466,-111,-306,235,67,-279
0,2639468,2234,324,2520,5466,-111,-306,235,67,-279
0,2639481,2234,329,2528,5467,-115,-303,235,67,-279
0,2639496,2232,319,2522,5470,-112,-297,235,67,-279
0,2639511,2231,333,2535,5459,-111,-294,235,67,-279
0,2639526,2231,333,2535,5459,-111,-294,235,67,-279
0,2639541,2233,336,2527,5463,-103,-298,235,67,-279
0,2639554,2232,337,2521,5460,-114,-303,235,67,-279
0,2639569,2232,337,2521,5460,-114,-303,235,67,-279
0,2639585,2236,338,2525,5467,-114,-311,235,67,-279
0,2639598,2231,380,2533,5469,-115,-297,233,65,-287
0,2639609,2230,364,2529,5466,-110,-298,233,65,-287
0,2639623,2230,364,2529,5466,-110,-298,233,65,-287
0,2639637,2231,373,2527,5471,-99,-299,233,65,-287
0,2639651,2236,344,2532,5472,-106,-305,233,65,-287
0,2639666,2236,344,2532,5472,-106,-305,233,65,-287
0,2639679,2227,375,2526,5471,-108,-306,233,65,-287
0,2639690,2231,352,2529,5470,-113,-303,233,65,-287
0,2639705,2231,352,2529,5470,-113,-303,233,65,-287
0,2639718,2222,357,2531,5474,-108,-292,224,62,-274
0,2639731,2237,344,2537,5475,-108,-297,224,62,-274
0,2639747,2237,344,2537,5475,-108,-297,224,62,-274
0,2639761,2232,358,2544,5475,-111,-292,224,62,-274
0,2639774,2231,347,2542,5472,-116,-296,224,62,-274
0,2639789,2231,347,2542,5472,-116,-296,224,62,-274
0,2639804,2230,351,2537,5477,-108,-302,224,62,-274
0,2639819,2238,336,2535,5470,-106,-304,224,62,-274
0,2639834,2232,333,2534,5478,-109,-296,224,62,-274
0,2639846,2232,333,2534,5478,-109,-296,224,62,-274
0,2639858,2226,331,2531,5469,-113,-296,223,61,-271
0,2639873,2229,340,2531,5478,-105,-302,223,61,-271
0,2639886,2229,340,2531,5478,-105,-302,223,61,-271
0,2639899,2234,328,2542,5481,-110,-301,223,61,-271
0,2639912,2233,319,2532,5478,-110,-297,223,61,-271
0,2639925,2233,319,2532,5478,-110,-297,223,61,-271
0,2639939,2232,327,2535,5485,-108,-301,223,61,-271
0,2639953,2234,333,2532,5474,-108,-306,223,61,-271
0,2639967,2234,333,2532,5474,-108,-306,223,61,-271
0,2639982,2236,333,2544,5480,-115,-302,213,51,-269
0,2639997,2235,330,2533,5482,-109,-302,213,51,-269
0,2640013,2233,340,2538,5483,-113,-301,213,51,-269
0,2640027,2233,340,2538,5483,-113,-301,213,51,-269
0,2640041,2233,337,2531,5476,-120,-295,213,51,-269
0,2640055,2230,337,2534,5477,-109,-302,213,51,-269
0,2640065,2230,337,2534,5477,-109,-302,213,51,-269
0,2640077,2233,336,2527,5480,-107,-302,213,51,-269
0,2640091,2232,347,2538,5477,-105,-299,213,51,-269
0,2640105,2232,347,2538,5477,-105,-299,213,51,-269
0,2640118,2232,350,2536,5476,-110,-294,209,61,-261
0,2640132,2233,336,2540,5469,-114,-295,209,61,-261
0,2640144,2233,336,2540,5469,-114,-295,209,61,-261
0,2640157,2237,334,2540,5478,-113,-295,209,61,-261
0,2640172,2235,334,2532,5482,-108,-300,209,61,-261
0,2640186,2235,334,2532,5482,-108,-300,209,61,-261
0,2640200,2225,335,2535,5482,-109,-305,209,61,-261
0,2640216,2235,287,2539,5483,-112,-302,209,61,-261
0,2640230,2235,287,2539,5483,-112,-302,209,61,-261
0,2640242,2233,326,2538,5480,-114,-298,215,57,-259
0,2640258,2236,309,2534,5479,-112,-300,215,57,-259
0,2640273,2228,324,2532,5478,-116,-297,215,57,-259
0,2640288,2228,324,2532,5478,-116,-297,215,57,-259
0,2640304,2241,306,2529,5469,-108,-299,215,57,-259
0,2640315,2230,319,2533,5478,-101,-303,215,57,-259
0,2640328,2230,319,2533,5478,-101,-303,215,57,-259
0,2640342,2241,320,2535,5475,-105,-298,215,57,-259
0,2640356,2227,323,2529,5477,-118,-302,196,54,-248
0,2640369,2227,323,2529,5477,-118,-302,196,54,-248
0,2640381,2235,326,2535,5476,-103,-313,196,54,-248
0,2640396,2238,317,2525,5479,-96,-303,196,54,-248
0,2640409,2238,317,2525,5479,-96,-303,196,54,-248
0,2640423,2235,321,2526,5478,-102,-294,196,54,-248
0,2640437,2231,315,2517,5474,-111,-299,196,54,-248
0,2640451,2232,325,2531,5468,-114,-302,196,54,-248
0,2640466,2232,325,2531,5468,-114,-302,196,54,-248
0,2640482,2242,312,2530,5471,-110,-296,196,54,-248
0,2640497,2233,316,2535,5469,-110,-287,193,49,-243
0,2640513,2239,324,2527,5470,-113,-300,193,49,-243
0,2640526,2239,324,2527,5470,-113,-300,193,49,-243
0,2640539,2233,330,2537,5475,-104,-297,193,49,-243
0,2640549,2233,330,2537,5475,-104,-297,193,49,-243
0,2640562,2237,316,2522,5473,-109,-296,193,49,-243
0,2640575,2229,320,2522,5463,-108,-298,193,49,-243
0,2640589,2229,320,2522,5463,-108,-298,193,49,-243
0,2640603,2236,327,2510,5464,-107,-307,193,49,-243
0,2640615,2233,328,2525,5477,-117,-297,192,54,-252
0,2640627,2233,328,2525,5477,-117,-297,192,54,-252
0,2640641,2230,321,2524,5469,-111,-296,192,54,-252
0,2640655,2226,337,2523,5470,-110,-306,192,54,-252
0,2640668,2226,337,2523,5470,-110,-306,192,54,-252
0,2640684,2230,357,2527,5474,-109,-305,192,54,-252
0,2640699,2227,390,2524,5471,-113,-298,192,54,-252
0,2640710,2227,390,2524,5471,-113,-298,192,54,-252
0,2640724,2229,371,2537,5456,-109,-299,192,54,-252
0,2640740,2231,362,2525,5472,-110,-305,192,54,-252
0,2640753,2235,380,2534,5475,-114,-299,178,42,-236
0,2640765,2235,380,2534,5475,-114,-299,178,42,-236
0,2640780,2224,378,2529,5484,-104,-291,178,42,-236
0,2640793,2225,374,2538,5480,-116,-304,178,42,-236
0,2640806,2225,374,2538,5480,-116,-304,178,42,-236
0,2640821,2231,354,2528,5486,-110,-311,178,42,-236
0,2640833,2231,354,2528,5486,-110,-311,178,42,-236
0,2640845,2231,354,2528,5486,-110,-311,178,42,-236
0,2640859,2231,348,2535,5485,-107,-290,178,42,-236
0,2640872,2225,358,2544,5478,-111,-295,187,45,-249
0,2640886,2225,358,2544,5478,-111,-295,187,45,-249
0,2640901,2238,338,2544,5487,-104,-299,187,45,-249
0,2640916,2232,332,2543,5476,-111,-302,187,45,-249
0,2640929,2232,332,2543,5476,-111,-302,187,45,-249
0,2640945,2233,321,2540,5483,-113,-297,187,45,-249
0,2640956,2230,337,2541,5485,-113,-297,187,45,-249
0,2640968,2230,337,2541,5485,-113,-297,187,45,-249
0,2640982,2233,332,2545,5481,-105,-302,187,45,-249
0,2640995,2231,320,2545,5482,-108,-301,173,53,-235
0,2641009,2231,320,2545,5482,-108,-301,173,53,-235
0,2641024,2231,326,2545,5489,-110,-300,173,53,-235
0,2641037,2229,333,2544,5481,-104,-296,173,53,-235
0,2641052,2235,333,2537,5472,-117,-296,173,53,-235
0,2641064,2235,333,2537,5472,-117,-296,173,53,-235
0,2641079,2236,320,2540,5484,-113,-297,173,53,-235
0,2641092,2236,327,2540,5487,-103,-304,173,53,-235
0,2641107,2236,327,2540,5487,-103,-304,173,53,-235
0,2641122,2234,326,2535,5475,-113,-295,173,53,-235
0,2641136,2232,337,2544,5478,-110,-294,159,53,-239
0,2641150,2232,337,2544,5478,-110,-294,159,53,-239
0,2641164,2233,325,2543,5479,-108,-299,159,53,-239
0,2641179,2233,326,2539,5484,-105,-297,159,53,-239
0,2641195,2235,327,2537,5482,-112,-295,159,53,-239
0,2641210,2235,327,2537,5482,-112,-295,159,53,-239
0,2641224,2230,333,2540,5475,-114,-300,159,53,-239
0,2641236,2234,319,2535,5488,-111,-298,159,53,-239
0,2641249,2234,319,2535,5488,-111,-298,159,53,-239
0,2641262,2233,326,2533,5486,-108,-299,158,54,-236
0,2641276,2236,295,2535,5478,-115,-296,158,54,-236
0,2641290,2236,295,2535,5478,-115,-296,158,54,-236
0,2641302,2231,328,2535,5484,-115,-305,158,54,-236
0,2641314,2232,313,2531,5485,-105,-297,158,54,-236
0,2641328,2232,313,2531,5485,-105,-297,158,54,-236
0,2641342,2234,325,2531,5482,-106,-296,158,54,-236
0,2641356,2234,299,2537,5488,-106,-297,158,54,-236
0,2641370,2234,299,2537,5488,-106,-297,158,54,-236
0,2641382,2237,330,2528,5481,-108,-297,158,54,-236
0,2641397,2235,309,2539,5478,-104,-294,160,54,-236
0,2641413,2232,323,2529,5470,-113,-304,160,54,-236
0,2641424,2232,323,2529,5470,-113,-304,160,54,-236
0,2641438,2234,314,2529,5470,-111,-310,160,54,-236
0,2641452,2234,314,2529,5470,-111,-310,160,54,-236
0,2641466,2235,327,2529,5474,-112,-300,160,54,-236
0,2641479,2232,315,2532,5481,-108,-295,160,54,-236
0,2641492,2234,322,2529,5477,-107,-299,160,54,-236
0,2641507,2234,322,2529,5477,-107,-299,160,54,-236
0,2641520,2238,323,2533,5471,-101,-302,154,50,-240
0,2641532,2233,321,2530,5467,-115,-297,154,50,-240
0,2641546,2233,321,2530,5467,-115,-297,154,50,-240
0,2641560,2233,321,2527,5468,-109,-299,154,50,-240
0,2641573,2233,331,2523,5469,-110,-301,154,50,-240
0,2641589,2233,331,2523,5469,-110,-301,154,50,-240
0,2641600,2232,340,2531,5476,-106,-292,154,50,-240
0,2641614,2231,330,2521,5477,-107,-296,154,50,-240
0,2641630,2231,330,2521,5477,-107,-296,154,50,-240
0,2641646,2231,340,2516,5478,-102,-297,154,50,-240
0,2641661,2234,342,2538,5469,-107,-301,151,63,-245
0,2641675,2236,344,2527,5472,-110,-293,151,63,-245
0,2641688,2236,344,2527,5472,-110,-293,151,63,-245
0,2641702,2232,342,2531,5478,-111,-299,151,63,-245
0,2641717,2232,359,2528,5468,-110,-304,151,63,-245
0,2641730,2232,359,2528,5468,-110,-304,151,63,-245
0,2641743,2234,362,2535,5467,-110,-304,151,63,-245
0,2641758,2230,355,2527,5469,-108,-305,151,63,-245
0,2641773,2230,363,2535,5472,-105,-303,147,63,-247
0,2641783,2230,363,2535,5472,-105,-303,147,63,-247
0,2641797,2231,360,2530,5476,-109,-296,147,63,-247
0,2641811,2231,360,2530,5476,-109,-296,147,63,-247
0,2641825,2228,356,2538,5478,-112,-296,147,63,-247
0,2641840,2232,339,2534,5481,-108,-291,147,63,-247
0,2641853,2232,363,2544,5479,-107,-299,147,63,-247
0,2641867,2232,363,2544,5479,-107,-299,147,63,-247
0,2641883,2236,344,2536,5477,-111,-299,147,63,-247
0,2641898,2228,352,2545,5471,-119,-296,151,67,-257
0,2641913,2234,342,2538,5481,-110,-300,151,67,-257
0,2641927,2234,342,2538,5481,-110,-300,151,67,-257
0,2641940,2232,354,2540,5477,-106,-300,151,67,-257
0,2641953,2238,325,2537,5481,-110,-292,151,67,-257
0,2641968,2238,325,2537,5481,-110,-292,151,67,-257
0,2641981,2232,334,2537,5479,-108,-298,151,67,-257
0,2641994,2234,323,2534,5471,-124,-292,151,67,-257
0,2642007,2234,323,2534,5471,-124,-292,151,67,-257
0,2642019,2232,335,2538,5480,-110,-297,151,67,-257
0,2642034,2235,278,2550,5486,-108,-304,141,61,-257
0,2642048,2235,278,2550,5486,-108,-304,141,61,-257
0,2642062,2237,337,2536,5486,-110,-303,141,61,-257
0,2642071,2237,337,2536,5486,-110,-303,141,61,-257
0,2642081,2237,315,2551,5480,-107,-296,141,61,-257
0,2642097,2229,320,2529,5476,-110,-290,141,61,-257
0,2642109,2229,320,2529,5476,-110,-290,141,61,-257
0,2642124,2240,299,2536,5480,-119,-305,141,61,-257
0,2642140,2236,326,2529,5480,-107,-299,141,61,-257
0,2642153,2237,317,2544,5484,-105,-291,137,67,-265
0,2642167,2237,317,2544,5484,-105,-291,137,67,-265
0,2642181,2229,315,2524,5488,-113,-299,137,67,-265
0,2642193,2234,322,2530,5477,-106,-301,137,67,-265
0,2642204,2234,322,2530,5477,-106,-301,137,67,-265
0,2642219,2239,316,2535,5479,-110,-295,137,67,-265
0,2642231,2239,316,2535,5479,-110,-295,137,67,-265
0,2642245,2232,315,2533,5473,-116,-292,137,67,-265
0,2642256,2228,315,2530,5466,-112,-303,137,67,-265
0,2642270,2228,315,2530,5466,-112,-303,137,67,-265
0,2642283,2234,321,2532,5468,-111,-306,137,67,-265
0,2642296,2238,318,2537,5472,-110,-305,132,54,-262
0,2642312,2238,318,2537,5472,-110,-305,132,54,-262
0,2642326,2230,320,2529,5473,-109,-296,132,54,-262
0,2642339,2232,320,2528,5474,-113,-306,132,54,-262
0,2642353,2232,320,2528,5474,-113,-306,132,54,-262
0,2642367,2239,325,2531,5471,-117,-296,132,54,-262
0,2642382,2235,315,2517,5474,-111,-297,132,54,-262
0,2642396,2230,316,2522,5477,-99,-297,132,54,-262
0,2642408,2230,316,2522,5477,-99,-297,132,54,-262
0,2642421,2231,327,2528,5472,-104,-304,140,66,-270
0,2642436,2232,332,2520,5473,-106,-303,140,66,-270
0,2642449,2232,332,2520,5473,-106,-303,140,66,-270
0,2642462,2232,333,2525,5471,-107,-302,140,66,-270
0,2642478,2229,345,2529,5463,-109,-303,140,66,-270
0,2642491,2229,345,2529,5463,-109,-303,140,66,-270
0,2642504,2229,388,2531,5458,-105,-299,140,66,-270
0,2642518,2229,353,2529,5469,-112,-298,140,66,-270
0,2642531,2229,353,2529,5469,-112,-298,140,66,-270
0,2642545,2231,360,2530,5462,-113,-300,140,66,-270
0,2642561,2235,356,2533,5473,-106,-302,140,64,-280
0,2642575,2226,378,2530,5477,-110,-292,140,64,-280
0,2642589,2226,378,2530,5477,-110,-292,140,64,-280
0,2642603,2232,354,2524,5485,-107,-297,140,64,-280
0,2642616,2226,353,2537,5478,-109,-309,140,64,-280
0,2642627,2226,353,2537,5478,-109,-309,140,64,-280
0,2642640,2238,347,2533,5477,-106,-309,140,64,-280
0,2642654,2228,353,2532,5476,-115,-289,140,64,-280
0,2642668,2228,353,2532,5476,-115,-289,140,64,-280
0,2642681,2231,342,2537,5485,-112,-297,142,56,-282
0,2642696,2234,347,2536,5482,-109,-306,142,56,-282
0,2642707,2234,347,2536,5482,-109,-306,142,56,-282
0,2642717,2241,326,2533,5484,-110,-295,142,56,-282
0,2642731,2241,326,2533,5484,-110,-295,142,56,-282
0,2642744,2238,330,2536,5484,-116,-300,142,56,-282
0,2642755,2233,329,2529,5488,-112,-299,142,56,-282
0,2642770,2233,329,2529,5488,-112,-299,142,56,-282
0,2642786,2231,339,2534,5488,-116,-309,142,56,-282
0,2642800,2234,322,2537,5479,-112,-309,135,49,-303
0,2642812,2234,322,2537,5479,-112,-309,135,49,-303
0,2642827,2233,335,2539,5482,-108,-301,135,49,-303
0,2642842,2232,336,2542,5484,-106,-293,135,49,-303
0,2642855,2232,353,2537,5482,-114,-301,135,49,-303
0,2642869,2232,353,2537,5482,-114,-301,135,49,-303
0,2642883,2233,334,2543,5485,-111,-301,135,49,-303
0,2642896,2234,346,2530,5480,-106,-301,135,49,-303
0,2642910,2234,346,2530,5480,-106,-301,135,49,-303
0,2642922,2236,342,2542,5483,-108,-295,135,49,-303
0,2642936,2237,362,2536,5485,-113,-293,136,54,-302
0,2642950,2237,362,2536,5485,-113,-293,136,54,-302
0,2642965,2232,335,2540,5485,-111,-299,136,54,-302
0,2642980,2234,349,2539,5491,-102,-299,136,54,-302
0,2642995,2233,328,2536,5489,-106,-297,136,54,-302
0,2643008,2233,328,2536,5489,-106,-297,136,54,-302
0,2643019,2228,346,2541,5481,-114,-293,136,54,-302
0,2643032,2228,346,2541,5481,-114,-293,136,54,-302
0,2643045,2238,323,2539,5479,-112,-300,136,54,-302
0,2643060,2235,340,2539,5482,-106,-305,146,56,-310
0,2643074,2235,340,2539,5482,-106,-305,146,56,-310
0,2643087,2239,298,2534,5484,-104,-292,146,56,-310
0,2643101,2233,312,2541,5488,-105,-300,146,56,-310
0,2643116,2235,313,2534,5492,-102,-296,146,56,-310
0,2643128,2235,313,2534,5492,-102,-296,146,56,-310
0,2643141,2234,333,2538,5482,-105,-299,146,56,-310
0,2643154,2236,290,2534,5489,-109,-306,146,56,-310
0,2643168,2236,290,2534,5489,-109,-306,146,56,-310
0,2643182,2231,325,2530,5488,-103,-302,146,56,-310
0,2643196,2237,313,2535,5480,-106,-299,140,54,-312
0,2643208,2237,313,2535,5480,-106,-299,140,54,-312
0,2643222,2227,333,2541,5478,-113,-295,140,54,-312
0,2643238,2235,306,2534,5479,-109,-298,140,54,-312
0,2643253,2235,306,2534,5479,-109,-298,140,54,-312
0,2643264,2231,326,2537,5479,-104,-300,140,54,-312
0,2643277,2242,307,2532,5474,-111,-295,140,54,-312
0,2643291,2242,307,2532,5474,-111,-295,140,54,-312
0,2643305,2228,326,2532,5475,-112,-294,140,54,-312
0,2643318,2232,315,2536,5464,-104,-303,139,57,-325
0,2643333,2232,315,2536,5464,-104,-303,139,57,-325
0,2643346,2233,328,2528,5471,-105,-299,139,57,-325
0,2643358,2231,317,2528,5474,-113,-295,139,57,-325
0,2643373,2231,317,2528,5474,-113,-295,139,57,-325
0,2643386,2227,327,2525,5472,-112,-297,139,57,-325
0,2643401,2234,317,2527,5469,-107,-297,139,57,-325
0,2643416,2232,320,2526,5473,-103,-300,139,57,-325
0,2643428,2232,320,2526,5473,-103,-300,139,57,-325
0,2643442,2241,318,2528,5475,-104,-299,156,52,-332
0,2643457,2235,324,2532,5472,-113,-292,156,52,-332
0,2643472,2235,324,2532,5472,-113,-292,156,52,-332
0,2643484,2239,329,2530,5472,-106,-295,156,52,-332
0,2643496,2239,324,2527,5470,-105,-290,156,52,-332
0,2643511,2239,324,2527,5470,-105,-290,156,52,-332
0,2643525,2233,326,2524,5464,-106,-294,156,52,-332
0,2643538,2234,331,2520,5469,-109,-298,156,52,-332
0,2643553,2234,331,2520,5469,-109,-298,156,52,-332
0,2643565,2230,337,2523,5475,-108,-303,156,52,-332
0,2643577,2233,342,2520,5470,-109,-297,152,52,-338
0,2643593,2233,342,2520,5470,-109,-297,152,52,-338
0,2643606,2230,389,2530,5465,-111,-294,152,52,-338
0,2643619,2231,372,2527,5465,-116,-297,152,52,-338
0,2643634,2231,372,2527,5465,-116,-297,152,52,-338
0,2643649,2231,374,2530,5460,-111,-300,152,52,-338
0,2643664,2236,377,2524,5464,-113,-305,152,52,-338
0,2643680,2230,387,2529,5473,-104,-298,152,52,-338
0,2643693,2230,387,2529,5473,-104,-298,152,52,-338
0,2643707,2233,383,2536,5473,-110,-298,166,60,-348
0,2643722,2227,358,2533,5482,-108,-301,166,60,-348
0,2643731,2227,358,2533,5482,-108,-301,166,60,-348
0,2643745,2236,363,2540,5494,-108,-297,166,60,-348
0,2643759,2236,340,2535,5493,-108,-299,166,60,-348
0,2643772,2236,340,2535,5493,-108,-299,166,60,-348
0,2643786,2227,344,2532,5487,-109,-304,166,60,-348
0,2643798,2234,331,2526,5484,-109,-305,166,60,-348
0,2643811,2234,331,2526,5484,-109,-305,166,60,-348
0,2643824,2236,337,2542,5478,-112,-298,166,60,-348
0,2643838,2240,329,2545,5481,-116,-295,167,59,-361
0,2643853,2240,329,2545,5481,-116,-295,167,59,-361
0,2643867,2232,345,2537,5484,-104,-297,167,59,-361
0,2643881,2241,330,2536,5487,-105,-299,167,59,-361
0,2643896,2230,341,2536,5478,-106,-293,167,59,-361
0,2643910,2230,341,2536,5478,-106,-293,167,59,-361
0,2643924,2239,326,2532,5487,-105,-290,167,59,-361
0,2643939,2227,345,2530,5480,-102,-294,167,59,-361
0,2643950,2227,345,2530,5480,-102,-294,167,59,-361
0,2643964,2237,333,2543,5484,-104,-287,189,59,-357
0,2643978,2234,332,2544,5481,-108,-296,189,59,-357
0,2643992,2234,332,2544,5481,-108,-296,189,59,-357
0,2644005,2236,322,2539,5488,-113,-302,189,59,-357
0,2644020,2240,341,2536,5472,-117,-300,189,59,-357
0,2644032,2240,341,2536,5472,-117,-300,189,59,-357
0,2644045,2236,327,2540,5482,-108,-302,189,59,-357
0,2644059,2233,334,2533,5475,-109,-300,189,59,-357
0,2644072,2233,334,2533,5475,-109,-300,189,59,-357
0,2644087,2235,324,2534,5483,-107,-294,189,59,-357
0,2644102,2233,334,2537,5478,-112,-306,198,60,-358
0,2644117,2235,323,2540,5478,-109,-301,198,60,-358
0,2644130,2235,323,2540,5478,-109,-301,198,60,-358
0,2644145,2233,302,2538,5481,-109,-303,198,60,-358
0,2644160,2238,321,2537,5475,-99,-303,198,60,-358
0,2644172,2238,321,2537,5475,-99,-303,198,60,-358
0,2644184,2233,316,2526,5486,-99,-299,198,60,-358
0,2644198,2229,324,2530,5476,-109,-301,198,60,-358
0,2644211,2229,324,2530,5476,-109,-301,198,60,-358
0,2644226,2239,312,2529,5473,-109,-301,203,55,-363
0,2644240,2237,320,2538,5464,-110,-307,203,55,-363
0,2644250,2237,320,2538,5464,-110,-307,203,55,-363
0,2644263,2241,315,2531,5470,-118,-305,203,55,-363
0,2644277,2230,319,2532,5476,-116,-306,203,55,-363
0,2644290,2230,319,2532,5476,-116,-306,203,55,-363
0,2644304,2237,320,2518,5469,-105,-310,203,55,-363
0,2644320,2237,312,2529,5481,-115,-295,203,55,-363
0,2644333,2237,312,2529,5481,-115,-295,203,55,-363
0,2644346,2233,329,2528,5468,-115,-296,200,46,-360
0,2644362,2230,324,2530,5470,-110,-297,200,46,-360
0,2644377,2234,325,2528,5472,-109,-290,200,46,-360
0,2644391,2234,325,2528,5472,-109,-290,200,46,-360
0,2644403,2235,321,2529,5470,-110,-296,200,46,-360
0,2644416,2232,333,2529,5467,-109,-300,200,46,-360
0,2644430,2232,333,2529,5467,-109,-300,200,46,-360
0,2644444,2236,333,2524,5465,-98,-294,200,46,-360
0,2644458,2232,344,2527,5468,-101,-296,200,46,-360
0,2644470,2232,344,2527,5468,-101,-296,200,46,-360
0,2644482,2238,334,2524,5470,-117,-304,208,48,-362
0,2644495,2238,334,2524,5470,-117,-304,208,48,-362
0,2644507,2229,341,2524,5468,-109,-291,208,48,-362
0,2644521,2236,343,2515,5467,-116,-298,208,48,-362
0,2644536,2228,355,2532,5480,-110,-298,208,48,-362
0,2644548,2228,355,2532,5480,-110,-298,208,48,-362
0,2644563,2235,340,2523,5472,-113,-294,208,48,-362
0,2644579,2232,354,2532,5475,-112,-294,208,48,-362
0,2644593,2232,354,2532,5475,-112,-294,208,48,-362
0,2644604,2237,356,2530,5475,-106,-291,212,50,-358
0,2644618,2232,373,2540,5478,-107,-298,212,50,-358
0,2644632,2232,373,2540,5478,-107,-298,212,50,-358
0,2644645,2232,357,2532,5473,-111,-304,212,50,-358
0,2644660,2232,384,2527,5472,-111,-298,212,50,-358
0,2644674,2232,384,2527,5472,-111,-298,212,50,-358
0,2644685,2231,353,2529,5478,-109,-300,212,50,-358
0,2644699,2227,372,2530,5482,-108,-300,212,50,-358
0,2644712,2227,372,2530,5482,-108,-300,212,50,-358
0,2644726,2231,341,2534,5483,-109,-304,212,50,-358
0,2644741,2230,367,2534,5494,-98,-302,216,52,-360
0,2644755,2230,367,2534,5494,-98,-302,216,52,-360
0,2644768,2237,336,2541,5489,-106,-287,216,52,-360
0,2644782,2235,359,2539,5489,-105,-295,216,52,-360
0,2644797,2241,342,2538,5483,-103,-299,216,52,-360
0,2644813,2241,342,2538,5483,-103,-299,216,52,-360
0,2644828,2231,356,2538,5480,-114,-297,216,52,-360
0,2644841,2236,326,2537,5476,-109,-298,216,52,-360
0,2644853,2236,326,2537,5476,-109,-298,216,52,-360
0,2644867,2234,343,2539,5477,-107,-295,222,60,-362
0,2644880,2236,328,2538,5481,-108,-296,222,60,-362
0,2644889,2236,328,2538,5481,-108,-296,222,60,-362
0,2644902,2235,321,2534,5480,-115,-303,222,60,-362
0,2644916,2236,297,2533,5478,-109,-302,222,60,-362
0,2644930,2236,297,2533,5478,-109,-302,222,60,-362
0,2644943,2234,328,2529,5490,-103,-303,222,60,-362
0,2644958,2238,328,2539,5483,-113,-299,222,60,-362
0,2644968,2238,328,2539,5483,-113,-299,222,60,-362
0,2644983,2229,306,2527,5475,-117,-308,222,60,-362
0,2644998,2241,327,2534,5485,-103,-308,232,50,-356
0,2645011,2241,327,2534,5485,-103,-308,232,50,-356
0,2645024,2237,322,2539,5483,-105,-294,232,50,-356
0,2645040,2230,333,2535,5479,-112,-297,232,50,-356
0,2645055,2230,333,2535,5479,-112,-297,232,50,-356
0,2645069,2234,312,2528,5474,-112,-302,232,50,-356
0,2645083,2230,338,2524,5473,-105,-305,232,50,-356
0,2645096,2230,338,2524,5473,-105,-305,232,50,-356
0,2645108,2241,304,2527,5465,-103,-305,232,50,-356
0,2645120,2227,333,2532,5466,-114,-298,233,61,-357
0,2645133,2227,333,2532,5466,-114,-298,233,61,-357
0,2645147,2237,310,2532,5475,-110,-306,233,61,-357
0,2645160,2236,340,2522,5468,-109,-301,233,61,-357
0,2645172,2236,340,2522,5468,-109,-301,233,61,-357
0,2645184,2239,305,2530,5468,-114,-299,233,61,-357
0,2645198,2233,334,2524,5470,-114,-295,233,61,-357
0,2645213,2233,334,2524,5470,-114,-295,233,61,-357
0,2645227,2235,321,2530,5472,-106,-303,233,61,-357
0,2645241,2230,339,2526,5482,-110,-299,237,73,-355
0,2645254,2230,339,2526,5482,-110,-299,237,73,-355
0,2645268,2237,310,2535,5478,-112,-299,237,73,-355
0,2645280,2233,332,2527,5465,-109,-302,237,73,-355
0,2645294,2233,332,2527,5465,-109,-302,237,73,-355
0,2645307,2235,320,2531,5467,-111,-299,237,73,-355
0,2645320,2235,337,2521,5475,-104,-299,237,73,-355
0,2645335,2235,337,2521,5475,-104,-299,237,73,-355
0,2645347,2238,324,2530,5473,-104,-307,237,73,-355
0,2645358,2234,348,2519,5469,-106,-308,237,73,-355
0,2645370,2234,348,2519,5469,-106,-308,237,73,-355
0,2645384,2234,349,2533,5466,-117,-303,243,77,-347
0,2645398,2227,390,2529,5466,-108,-300,243,77,-347
0,2645411,2227,390,2529,5466,-108,-300,243,77,-347
0,2645423,2227,390,2529,5466,-108,-300,243,77,-347
0,2645436,2227,390,2529,5466,-108,-300,243,77,-347
0,2645449,2234,360,2521,5468,-106,-303,243,77,-347
0,2645464,2233,364,2533,5476,-114,-303,243,77,-347
0,2645478,2228,364,2532,5469,-113,-300,243,77,-347
0,2645493,2228,364,2532,5469,-113,-300,243,77,-347
0,2645508,2228,354,2534,5468,-119,-306,246,74,-336
0,2645522,2232,354,2534,5474,-107,-302,246,74,-336
0,2645535,2232,354,2534,5474,-107,-302,246,74,-336
0,2645548,2232,352,2533,5474,-102,-300,246,74,-336
0,2645559,2231,344,2540,5483,-109,-301,246,74,-336
0,2645573,2231,344,2540,5483,-109,-301,246,74,-336
0,2645586,2230,352,2529,5490,-111,-302,246,74,-336
0,2645601,2231,332,2536,5487,-103,-301,246,74,-336
0,2645614,2231,332,2536,5487,-103,-301,246,74,-336
0,2645628,2240,335,2524,5483,-109,-306,246,74,-336
0,2645641,2232,331,2540,5494,-106,-305,248,74,-340
0,2645654,2232,331,2540,5494,-106,-305,248,74,-340
0,2645667,2233,350,2536,5484,-102,-306,248,74,-340
0,2645681,2232,331,2537,5472,-110,-301,248,74,-340
0,2645695,2232,331,2537,5472,-110,-301,248,74,-340
0,2645708,2231,337,2529,5474,-106,-288,248,74,-340
0,2645722,2236,341,2533,5476,-103,-289,248,74,-340
0,2645736,2236,341,2533,5476,-103,-289,248,74,-340
0,2645751,2234,361,2534,5471,-109,-297,248,74,-340
0,2645768,2234,361,2534,5471,-109,-297,251,77,-337
0,2645782,2235,349,2530,5474,-107,-298,251,77,-337
0,2645794,2235,349,2530,5474,-107,-298,251,77,-337
0,2645810,2234,341,2536,5478,-110,-300,251,77,-337
0,2645824,2232,365,2537,5483,-107,-295,251,77,-337
0,2645837,2233,339,2536,5480,-98,-295,251,77,-337
0,2645851,2233,339,2536,5480,-98,-295,251,77,-337
0,2645863,2233,350,2533,5486,-101,-295,251,77,-337
0,2645878,2236,324,2534,5480,-102,-296,256,78,-328
0,2645894,2236,324,2534,5480,-102,-296,256,78,-328
0,2645908,2228,338,2535,5477,-106,-296,256,78,-328
0,2645921,2232,329,2535,5482,-107,-296,256,78,-328
0,2645937,2232,329,2535,5482,-107,-296,256,78,-328
0,2645950,2230,335,2534,5491,-104,-300,256,78,-328
0,2645963,2238,282,2534,5485,-110,-292,256,78,-328
0,2645977,2238,282,2534,5485,-110,-292,256,78,-328
0,2645988,2235,328,2529,5486,-107,-297,256,78,-328
0,2646003,2233,318,2533,5490,-107,-289,256,78,-328
0,2646020,2233,332,2541,5488,-112,-293,247,67,-327
0,2646034,2233,332,2541,5488,-112,-293,247,67,-327
0,2646045,2240,302,2535,5485,-112,-308,247,67,-327
0,2646060,2235,324,2533,5481,-112,-303,247,67,-327
0,2646073,2235,324,2533,5481,-112,-303,247,67,-327
0,2646086,2241,322,2528,5478,-106,-303,247,67,-327
0,2646100,2227,318,2536,5468,-104,-301,247,67,-327
0,2646115,2227,318,2536,5468,-104,-301,247,67,-327
0,2646129,2238,316,2526,5472,-107,-302,247,67,-327
0,2646142,2239,311,2533,5472,-106,-294,252,76,-322
0,2646157,2239,311,2533,5472,-106,-294,252,76,-322
0,2646170,2232,323,2528,5476,-110,-299,252,76,-322
0,2646183,2231,314,2534,5475,-111,-301,252,76,-322
0,2646198,2231,314,2534,5475,-111,-301,252,76,-322
0,2646213,2237,327,2522,5470,-104,-299,252,76,-322
0,2646227,2243,305,2536,5470,-112,-301,252,76,-322
0,2646242,2234,323,2532,5472,-120,-295,252,76,-322
0,2646255,2234,323,2532,5472,-120,-295,252,76,-322
0,2646270,2234,323,2532,5472,-120,-295,252,76,-322
0,2646286,2229,329,2533,5468,-110,-291,248,72,-314
0,2646299,2235,308,2524,5471,-115,-299,248,72,-314
0,2646309,2235,308,2524,5471,-115,-299,248,72,-314
0,2646323,2234,315,2521,5463,-113,-302,248,72,-314
0,2646336,2234,315,2521,5463,-113,-302,248,72,-314
0,2646350,2236,325,2522,5474,-107,-304,248,72,-314
0,2646363,2229,329,2524,5471,-111,-298,248,72,-314
0,2646375,2229,329,2524,5471,-111,-298,248,72,-314
0,2646390,2234,316,2522,5472,-110,-306,248,72,-314
0,2646405,2233,327,2529,5460,-107,-296,238,64,-304
0,2646417,2233,327,2529,5460,-107,-296,238,64,-304
0,2646431,2232,329,2524,5458,-107,-288,238,64,-304
0,2646446,2232,351,2529,5460,-108,-294,238,64,-304
0,2646458,2232,351,2529,5460,-108,-294,238,64,-304
0,2646473,2232,357,2525,5467,-107,-303,238,64,-304
0,2646489,2229,397,2521,5471,-110,-298,238,64,-304
0,2646504,2231,369,2529,5465,-106,-298,238,64,-304
0,2646515,2231,369,2529,5465,-106,-298,238,64,-304
0,2646531,2228,373,2525,5467,-108,-297,238,64,-304
0,2646546,2229,384,2535,5477,-104,-296,237,67,-301
0,2646560,2227,380,2531,5483,-114,-295,237,67,-301
0,2646574,2227,380,2531,5483,-114,-295,237,67,-301
0,2646587,2227,365,2532,5472,-115,-299,237,67,-301
0,2646599,2226,355,2531,5469,-108,-300,237,67,-301
0,2646614,2226,355,2531,5469,-108,-300,237,67,-301
0,2646630,2228,349,2536,5475,-105,-296,237,67,-301
0,2646643,2231,335,2537,5483,-108,-295,237,67,-301
0,2646657,2231,335,2537,5483,-108,-295,237,67,-301
0,2646671,2229,339,2526,5480,-115,-305,237,63,-297
0,2646684,2229,333,2535,5483,-105,-298,237,63,-297
0,2646700,2231,321,2530,5479,-107,-300,237,63,-297
0,2646713,2231,321,2530,5479,-107,-300,237,63,-297
0,2646726,2226,333,2539,5483,-112,-299,237,63,-297
0,2646742,2230,332,2534,5472,-98,-302,237,63,-297
0,2646753,2230,332,2534,5472,-98,-302,237,63,-297
0,2646766,2233,341,2532,5484,-105,-306,237,63,-297
0,2646782,2236,327,2533,5482,-101,-305,230,56,-286
0,2646797,2236,327,2533,5482,-101,-305,230,56,-286
0,2646810,2232,337,2529,5480,-108,-304,230,56,-286
0,2646824,2233,334,2540,5480,-114,-289,230,56,-286
0,2646838,2233,334,2540,5480,-114,-289,230,56,-286
0,2646850,2231,341,2536,5481,-110,-303,230,56,-286
0,2646864,2235,326,2534,5480,-117,-296,230,56,-286
0,2646878,2235,326,2534,5480,-117,-296,230,56,-286
0,2646891,2233,333,2530,5474,-109,-298,230,56,-286
0,2646905,2233,332,2537,5479,-109,-303,230,56,-286
0,2646919,2229,334,2537,5486,-113,-308,230,56,-286
0,2646932,2229,334,2537,5486,-113,-308,229,65,-281
0,2646944,2238,327,2537,5484,-113,-308,229,65,-281
0,2646958,2238,327,2537,5484,-113,-308,229,65,-281
0,2646971,2237,328,2532,5479,-112,-302,229,65,-281
0,2646985,2236,330,2531,5473,-114,-302,229,65,-281
0,2647001,2233,328,2536,5478,-116,-300,229,65,-281
0,2647016,2233,328,2536,5478,-116,-300,229,65,-281
0,2647031,2236,303,2537,5482,-118,-296,229,65,-281
0,2647045,2238,322,2532,5485,-106,-296,215,55,-273
0,2647059,2238,322,2532,5485,-106,-296,215,55,-273
0,2647070,2231,311,2532,5480,-107,-295,215,55,-273
0,2647081,2231,327,2529,5478,-108,-301,215,55,-273
0,2647095,2231,327,2529,5478,-108,-301,215,55,-273
0,2647108,2231,298,2528,5476,-105,-305,215,55,-273
0,2647122,2235,321,2525,5475,-97,-304,215,55,-273
0,2647137,2235,321,2525,5475,-97,-304,215,55,-273
0,2647149,2237,310,2531,5474,-106,-307,215,55,-273
0,2647162,2229,331,2531,5474,-115,-299,215,55,-273
0,2647176,2229,331,2531,5474,-115,-299,215,55,-273
0,2647189,2238,312,2537,5480,-109,-300,218,62,-268
0,2647203,2238,326,2526,5472,-108,-296,218,62,-268
0,2647217,2238,326,2526,5472,-108,-296,218,62,-268
0,2647231,2232,322,2529,5480,-109,-294,218,62,-268
0,2647245,2231,325,2524,5478,-109,-301,218,62,-268
0,2647261,2233,321,2526,5462,-113,-303,218,62,-268
0,2647276,2233,321,2526,5462,-113,-303,218,62,-268
0,2647288,2236,323,2527,5469,-114,-305,218,62,-268
0,2647301,2232,322,2527,5476,-111,-295,207,55,-253
0,2647316,2232,322,2527,5476,-111,-295,207,55,-253
0,2647329,2232,322,2527,5476,-111,-295,207,55,-253
0,2647343,2236,337,2529,5469,-106,-292,207,55,-253
0,2647357,2236,337,2529,5469,-106,-292,207,55,-253
0,2647371,2233,339,2527,5460,-111,-307,207,55,-253
0,2647387,2231,334,2528,5465,-112,-297,207,55,-253
0,2647400,2233,342,2524,5468,-107,-300,207,55,-253
0,2647413,2233,342,2524,5468,-107,-300,207,55,-253
0,2647427,2231,346,2522,5467,-106,-301,207,55,-253
0,2647441,2228,348,2527,5459,-113,-299,199,55,-259
0,2647455,2228,348,2527,5459,-113,-299,199,55,-259
0,2647469,2230,351,2527,5468,-117,-299,199,55,-259
0,2647483,2232,362,2531,5465,-106,-302,199,55,-259
0,2647496,2232,362,2531,5465,-106,-302,199,55,-259
0,2647512,2231,354,2525,5467,-114,-298,199,55,-259
0,2647526,2231,354,2525,5467,-114,-298,199,55,-259
0,2647538,2231,354,2525,5467,-114,-298,199,55,-259
0,2647553,2232,356,2533,5477,-112,-298,199,55,-259
0,2647569,2232,367,2530,5478,-102,-298,189,57,-255
0,2647576,2232,367,2530,5478,-102,-298,189,57,-255
0,2647584,2229,348,2534,5477,-109,-294,189,57,-255
0,2647592,2229,348,2534,5477,-109,-294,189,57,-255
0,2647605,2228,365,2542,5481,-105,-298,189,57,-255
0,2647617,2228,365,2542,5481,-105,-298,189,57,-255
0,2647630,2230,341,2528,5482,-100,-301,189,57,-255
0,2647644,2229,350,2539,5486,-106,-295,189,57,-255
0,2647658,2229,350,2539,5486,-106,-295,189,57,-255
0,2647672,2229,350,2539,5486,-106,-295,189,57,-255
0,2647687,2227,345,2539,5472,-114,-306,188,58,-250
0,2647699,2227,345,2539,5472,-114,-306,188,58,-250
0,2647713,2233,326,2538,5480,-107,-299,188,58,-250
0,2647727,2233,336,2544,5491,-101,-295,188,58,-250
0,2647741,2237,328,2544,5482,-104,-302,188,58,-250
0,2647756,2237,328,2544,5482,-104,-302,188,58,-250
0,2647772,2233,336,2540,5485,-105,-294,188,58,-250
0,2647787,2235,292,2538,5480,-111,-301,188,58,-250
0,2647801,2235,322,2535,5486,-103,-299,188,58,-250
0,2647815,2235,322,2535,5486,-103,-299,188,58,-250
0,2647829,2232,309,2535,5485,-107,-294,180,48,-234
0,2647844,2228,340,2536,5477,-115,-305,180,48,-234
0,2647857,2228,340,2536,5477,-115,-305,180,48,-234
0,2647868,2230,293,2529,5476,-110,-306,180,48,-234
0,2647881,2234,326,2534,5477,-110,-308,180,48,-234
0,2647895,2234,326,2534,5477,-110,-308,180,48,-234
0,2647909,2237,302,2539,5486,-108,-297,180,48,-234
0,2647921,2225,331,2534,5487,-104,-299,180,48,-234
0,2647932,2225,331,2534,5487,-104,-299,180,48,-234
0,2647947,2233,312,2530,5483,-106,-306,182,48,-236
0,2647960,2231,331,2532,5476,-105,-299,182,48,-236
0,2647974,2231,331,2532,5476,-105,-299,182,48,-236
0,2647989,2237,310,2530,5474,-114,-302,182,48,-236
0,2648004,2228,325,2526,5469,-120,-298,182,48,-236
0,2648018,2228,325,2526,5469,-120,-298,182,48,-236
0,2648032,2231,320,2527,5479,-112,-303,182,48,-236
0,2648046,2233,324,2520,5474,-117,-297,182,48,-236
0,2648059,2233,324,2520,5474,-117,-297,182,48,-236
0,2648072,2234,310,2525,5471,-108,-300,182,48,-236
0,2648085,2232,324,2534,5468,-107,-302,171,55,-235
0,2648098,2232,324,2534,5468,-107,-302,171,55,-235
0,2648112,2235,329,2529,5475,-108,-293,171,55,-235
0,2648125,2238,321,2530,5473,-111,-303,171,55,-235
0,2648136,2238,321,2530,5473,-111,-303,171,55,-235
0,2648150,2234,320,2528,5473,-108,-300,171,55,-235
0,2648164,2230,331,2532,5470,-114,-295,171,55,-235
0,2648177,2230,331,2532,5470,-114,-295,171,55,-235
0,2648192,2234,339,2524,5469,-104,-292,171,55,-235
0,2648208,2229,339,2532,5467,-108,-298,160,50,-242
0,2648222,2231,343,2528,5470,-106,-305,160,50,-242
0,2648237,2231,343,2528,5470,-106,-305,160,50,-242
0,2648250,2234,380,2531,5465,-104,-303,160,50,-242
0,2648260,2232,356,2527,5475,-110,-303,160,50,-242
0,2648273,2232,356,2527,5475,-110,-303,160,50,-242
0,2648288,2232,355,2530,5470,-105,-305,160,50,-242
0,2648301,2232,351,2532,5472,-108,-309,160,50,-242
0,2648315,2232,351,2532,5472,-108,-309,160,50,-242
0,2648329,2226,370,2541,5474,-100,-296,165,47,-233
0,2648343,2230,349,2532,5483,-104,-299,165,47,-233
0,2648357,2230,349,2532,5483,-104,-299,165,47,-233
0,2648371,2228,351,2537,5486,-107,-309,165,47,-233
0,2648384,2234,347,2536,5478,-104,-307,165,47,-233
0,2648398,2234,347,2536,5478,-104,-307,165,47,-233
0,2648413,2229,343,2540,5482,-109,-297,165,47,-233
0,2648427,2226,333,2525,5485,-108,-305,165,47,-233
0,2648440,2226,333,2525,5485,-108,-305,165,47,-233
0,2648453,2232,335,2546,5486,-102,-313,165,47,-233
0,2648468,2234,319,2540,5483,-98,-304,157,51,-245
0,2648482,2231,326,2546,5487,-98,-301,157,51,-245
0,2648497,2231,326,2546,5487,-98,-301,157,51,-245
0,2648509,2225,327,2535,5479,-108,-306,157,51,-245
0,2648524,2231,332,2547,5486,-103,-304,157,51,-245
0,2648540,2231,332,2547,5486,-103,-304,157,51,-245
0,2648553,2232,317,2531,5482,-113,-310,157,51,-245
0,2648567,2232,325,2534,5478,-113,-296,157,51,-245
0,2648582,2228,330,2533,5476,-114,-301,153,55,-233
0,2648595,2228,330,2533,5476,-114,-301,153,55,-233
0,2648610,2229,334,2539,5480,-107,-300,153,55,-233
0,2648623,2233,319,2539,5475,-110,-306,153,55,-233
0,2648636,2233,319,2539,5475,-110,-306,153,55,-233
0,2648649,2234,326,2541,5479,-103,-301,153,55,-233
0,2648664,2234,332,2539,5486,-102,-304,153,55,-233
0,2648678,2234,332,2539,5486,-102,-304,153,55,-233
0,2648693,2231,342,2532,5481,-107,-298,153,55,-233
0,2648707,2228,336,2537,5479,-106,-297,153,55,-233
0,2648720,2228,336,2537,5479,-106,-297,153,55,-233
0,2648735,2235,339,2538,5478,-106,-304,156,56,-238
0,2648751,2231,334,2537,5486,-99,-295,156,56,-238
0,2648765,2234,336,2537,5484,-98,-297,156,56,-238
0,2648775,2234,336,2537,5484,-98,-297,156,56,-238
0,2648788,2229,329,2539,5480,-96,-299,156,56,-238
0,2648803,2232,332,2537,5485,-100,-300,156,56,-238
0,2648816,2232,332,2537,5485,-100,-300,156,56,-238
0,2648829,2233,282,2532,5483,-106,-291,156,56,-238
0,2648842,2237,326,2539,5481,-110,-297,148,66,-244
0,2648850,2237,326,2539,5481,-110,-297,148,66,-244
0,2648864,2235,310,2536,5482,-110,-302,148,66,-244
0,2648879,2235,310,2536,5482,-110,-302,148,66,-244
0,2648887,2234,335,2538,5485,-105,-299,148,66,-244
0,2648901,2232,293,2532,5477,-110,-292,148,66,-244
0,2648915,2232,293,2532,5477,-110,-292,148,66,-244
0,2648930,2236,333,2541,5473,-102,-298,148,66,-244
0,2648944,2240,312,2529,5472,-103,-300,148,66,-244
0,2648958,2240,312,2529,5472,-103,-300,148,66,-244
0,2648971,2223,324,2520,5474,-112,-298,148,66,-244
0,2648986,2239,306,2529,5469,-105,-309,149,61,-245
0,2649001,2239,306,2529,5469,-105,-309,149,61,-245
0,2649015,2232,321,2540,5468,-110,-299,149,61,-245
0,2649026,2236,309,2537,5469,-109,-300,149,61,-245
0,2649040,2236,309,2537,5469,-109,-300,149,61,-245
0,2649055,2229,316,2526,5465,-113,-304,149,61,-245
0,2649069,2235,313,2527,5470,-108,-306,149,61,-245
0,2649082,2237,323,2528,5471,-108,-306,149,61,-245
0,2649095,2237,323,2528,5471,-108,-306,149,61,-245
0,2649109,2231,318,2533,5478,-114,-303,141,65,-249
0,2649122,2230,323,2530,5468,-107,-299,141,65,-249
0,2649138,2230,323,2530,5468,-107,-299,141,65,-249
0,2649152,2236,321,2526,5470,-104,-304,141,65,-249
0,2649166,2239,320,2529,5478,-105,-290,141,65,-249
0,2649180,2239,320,2529,5478,-105,-290,141,65,-249
0,2649194,2233,314,2518,5475,-110,-301,141,65,-249
0,2649208,2235,326,2524,5476,-114,-297,141,65,-249
0,2649222,2235,325,2527,5470,-110,-300,144,64,-256
0,2649236,2235,325,2527,5470,-110,-300,144,64,-256
0,2649249,2231,317,2533,5466,-114,-299,144,64,-256
0,2649262,2231,317,2533,5466,-114,-299,144,64,-256
0,2649275,2234,321,2526,5467,-108,-301,144,64,-256
0,2649288,2233,342,2525,5466,-107,-301,144,64,-256
0,2649303,2232,357,2524,5462,-107,-300,144,64,-256
0,2649316,2232,357,2524,5462,-107,-300,144,64,-256
0,2649328,2231,391,2526,5468,-113,-292,144,64,-256
0,2649340,2231,391,2526,5468,-113,-292,144,64,-256
0,2649354,2228,362,2529,5467,-106,-296,144,64,-256
0,2649366,2235,376,2534,5469,-104,-298,135,59,-263
0,2649381,2235,376,2534,5469,-104,-298,135,59,-263
0,2649397,2238,370,2534,5470,-106,-291,135,59,-263
0,2649412,2226,393,2532,5476,-114,-294,135,59,-263
0,2649425,2233,358,2535,5485,-106,-306,135,59,-263
0,2649439,2233,358,2535,5485,-106,-306,135,59,-263
0,2649450,2235,373,2538,5481,-111,-308,135,59,-263
0,2649462,2236,343,2537,5480,-109,-301,135,59,-263
0,2649479,2236,343,2537,5480,-109,-301,135,59,-263
0,2649494,2230,362,2542,5484,-117,-294,144,60,-268
0,2649507,2233,336,2536,5480,-106,-301,144,60,-268
0,2649521,2233,336,2536,5480,-106,-301,144,60,-268
0,2649537,2233,346,2542,5473,-111,-299,144,60,-268
0,2649550,2238,317,2531,5476,-106,-295,144,60,-268
0,2649562,2226,335,2535,5474,-116,-302,144,60,-268
0,2649575,2226,335,2535,5474,-116,-302,144,60,-268
0,2649588,2232,325,2535,5477,-112,-303,144,60,-268
0,2649603,2231,338,2538,5487,-107,-298,144,60,-268
0,2649617,2231,338,2538,5487,-107,-298,144,60,-268
0,2649631,2235,318,2545,5483,-119,-305,147,59,-269
0,2649646,2233,334,2541,5476,-117,-302,147,59,-269
0,2649658,2233,334,2541,5476,-117,-302,147,59,-269
0,2649673,2234,329,2542,5481,-109,-302,147,59,-269
0,2649689,2230,338,2531,5487,-112,-301,147,59,-269
0,2649704,2237,326,2537,5480,-107,-301,147,59,-269
0,2649715,2237,326,2537,5480,-107,-301,147,59,-269
0,2649729,2232,329,2533,5486,-109,-305,147,59,-269
0,2649742,2232,329,2533,5486,-109,-305,147,59,-269
0,2649755,2229,326,2545,5487,-107,-299,146,48,-278
0,2649769,2228,324,2537,5484,-107,-295,146,48,-278
0,2649779,2228,324,2537,5484,-107,-295,146,48,-278
0,2649787,2233,320,2539,5487,-109,-298,146,48,-278
0,2649800,2233,320,2539,5487,-109,-298,146,48,-278
0,2649812,2235,323,2537,5477,-107,-294,146,48,-278
0,2649826,2232,325,2536,5479,-109,-296,146,48,-278
0,2649840,2232,325,2536,5479,-109,-296,146,48,-278
0,2649853,2231,328,2535,5480,-107,-292,146,48,-278
0,2649868,2233,327,2532,5486,-110,-298,141,59,-289
0,2649880,2233,327,2532,5486,-110,-298,141,59,-289
0,2649893,2236,324,2536,5482,-109,-303,141,59,-289
0,2649909,2234,301,2534,5490,-106,-302,141,59,-289
0,2649923,2233,323,2531,5484,-111,-303,141,59,-289
0,2649935,2233,323,2531,5484,-111,-303,141,59,-289
0,2649948,2234,309,2532,5472,-110,-306,141,59,-289
0,2649963,2234,318,2535,5470,-103,-295,141,59,-289
0,2649976,2234,318,2535,5470,-103,-295,141,59,-289
0,2649990,2236,303,2534,5480,-102,-291,141,59,-289
0,2650004,2233,323,2529,5473,-103,-300,139,55,-299
0,2650018,2233,323,2529,5473,-103,-300,139,55,-299
0,2650033,2240,321,2534,5473,-108,-303,139,55,-299
0,2650047,2231,327,2526,5472,-108,-305,139,55,-299
0,2650060,2231,327,2526,5472,-108,-305,139,55,-299
0,2650074,2239,319,2529,5472,-106,-302,139,55,-299
0,2650087,2235,322,2528,5468,-106,-297,139,55,-299
0,2650102,2235,322,2528,5468,-106,-297,139,55,-299
0,2650117,2233,319,2534,5475,-113,-300,139,55,-299
0,2650131,2233,324,2534,5472,-104,-296,134,48,-306
0,2650144,2239,322,2531,5469,-106,-304,134,48,-306
0,2650160,2239,322,2531,5469,-106,-304,134,48,-306
0,2650174,2238,327,2535,5471,-113,-310,134,48,-306
0,2650189,2232,337,2530,5475,-114,-308,134,48,-306
0,2650202,2232,337,2530,5475,-114,-308,134,48,-306
0,2650215,2233,341,2524,5471,-111,-307,134,48,-306
0,2650229,2231,347,2528,5475,-112,-297,134,48,-306
0,2650242,2231,347,2528,5475,-112,-297,134,48,-306
0,2650255,2234,348,2523,5470,-111,-297,134,48,-306
0,2650269,2231,343,2531,5478,-112,-294,133,49,-309
0,2650285,2235,342,2528,5474,-102,-298,133,49,-309
0,2650297,2235,342,2528,5474,-102,-298,133,49,-309
0,2650311,2236,346,2532,5471,-106,-298,133,49,-309
0,2650324,2233,354,2528,5479,-104,-300,133,49,-309
0,2650338,2233,354,2528,5479,-104,-300,133,49,-309
0,2650352,2229,352,2533,5473,-115,-297,133,49,-309
0,2650362,2229,352,2533,5473,-115,-297,133,49,-309
0,2650378,2235,362,2524,5476,-109,-295,133,49,-309
0,2650388,2236,352,2532,5473,-113,-302,136,42,-320
0,2650403,2232,373,2535,5468,-113,-298,136,42,-320
0,2650418,2232,373,2535,5468,-113,-298,136,42,-320
0,2650431,2233,354,2532,5473,-114,-298,136,42,-320
0,2650449,2233,369,2533,5477,-118,-301,136,42,-320
0,2650463,2238,348,2540,5478,-113,-299,136,42,-320
0,2650477,2238,348,2540,5478,-113,-299,136,42,-320
0,2650490,2231,359,2531,5484,-109,-295,136,42,-320
0,2650503,2231,359,2531,5484,-109,-295,136,42,-320
0,2650517,2231,348,2536,5483,-105,-297,136,42,-320
0,2650532,2231,353,2545,5484,-104,-303,144,46,-326
0,2650546,2235,337,2540,5489,-110,-303,144,46,-326
0,2650560,2235,337,2540,5489,-110,-303,144,46,-326
0,2650573,2235,337,2540,5489,-110,-303,144,46,-326
0,2650588,2235,336,2540,5484,-106,-302,144,46,-326
0,2650603,2233,342,2537,5481,-106,-301,144,46,-326
0,2650619,2233,342,2537,5481,-106,-301,144,46,-326
0,2650635,2235,335,2540,5481,-111,-300,144,46,-326
0,2650648,2231,285,2548,5480,-109,-301,142,56,-332
0,2650661,2231,285,2548,5480,-109,-301,142,56,-332
0,2650676,2236,333,2527,5480,-109,-302,142,56,-332
0,2650689,2230,312,2546,5482,-105,-290,142,56,-332
0,2650701,2230,312,2546,5482,-105,-290,142,56,-332
0,2650715,2232,329,2536,5479,-105,-292,142,56,-332
0,2650728,2236,296,2528,5475,-109,-300,142,56,-332
0,2650741,2236,296,2528,5475,-109,-300,142,56,-332
0,2650755,2234,324,2534,5470,-110,-301,142,56,-332
0,2650767,2240,312,2533,5471,-114,-298,153,59,-341
0,2650780,2240,312,2533,5471,-114,-298,153,59,-341
0,2650796,2225,326,2532,5479,-104,-303,153,59,-341
0,2650810,2238,312,2530,5480,-107,-300,153,59,-341
0,2650823,2238,312,2530,5480,-107,-300,153,59,-341
0,2650834,2237,322,2529,5472,-104,-289,153,59,-341
0,2650848,2236,319,2531,5481,-102,-291,153,59,-341
0,2650862,2236,319,2531,5481,-102,-291,153,59,-341
0,2650875,2229,320,2529,5473,-101,-300,153,59,-341
0,2650889,2237,325,2536,5470,-108,-304,153,59,-341
0,2650901,2237,325,2536,5470,-108,-304,153,59,-341
0,2650914,2239,318,2534,5472,-105,-303,166,56,-346
0,2650928,2233,321,2531,5478,-104,-302,166,56,-346
0,2650942,2233,321,2531,5478,-104,-302,166,56,-346
0,2650954,2236,328,2527,5475,-108,-295,166,56,-346
0,2650967,2236,328,2527,5475,-108,-295,166,56,-346
0,2650981,2236,328,2527,5475,-108,-295,166,56,-346
0,2650995,2239,321,2523,5473,-106,-299,166,56,-346
0,2651009,2232,321,2527,5474,-107,-302,166,56,-346
0,2651024,2232,321,2527,5474,-107,-302,166,56,-346
0,2651038,2238,332,2524,5469,-107,-298,178,52,-352
0,2651054,2237,337,2532,5467,-109,-291,178,52,-352
0,2651066,2235,332,2533,5476,-104,-297,178,52,-352
0,2651081,2235,332,2533,5476,-104,-297,178,52,-352
0,2651096,2235,340,2529,5470,-99,-294,178,52,-352
0,2651110,2234,370,2530,5474,-104,-290,178,52,-352
0,2651121,2234,370,2530,5474,-104,-290,178,52,-352
0,2651134,2234,370,2530,5474,-104,-290,178,52,-352
0,2651148,2234,353,2533,5468,-111,-301,178,52,-352
0,2651162,2234,353,2533,5468,-111,-301,178,52,-352
0,2651175,2233,361,2526,5469,-118,-303,183,63,-359
0,2651187,2240,371,2529,5474,-108,-294,183,63,-359
0,2651200,2240,371,2529,5474,-108,-294,183,63,-359
0,2651213,2234,375,2529,5485,-113,-295,183,63,-359
0,2651227,2229,358,2540,5481,-109,-303,183,63,-359
0,2651240,2229,358,2540,5481,-109,-303,183,63,-359
0,2651255,2239,359,2530,5479,-106,-306,183,63,-359
0,2651270,2236,352,2530,5483,-111,-300,183,63,-359
0,2651283,2236,352,2530,5483,-111,-300,183,63,-359
0,2651293,2231,354,2541,5480,-107,-294,193,55,-367
0,2651305,2231,346,2535,5479,-110,-300,193,55,-367
0,2651322,2231,346,2535,5479,-110,-300,193,55,-367
0,2651335,2235,351,2532,5486,-99,-299,193,55,-367
0,2651348,2239,335,2531,5490,-111,-297,193,55,-367
0,2651357,2239,335,2531,5490,-111,-297,193,55,-367
0,2651369,2231,334,2534,5493,-116,-296,193,55,-367
0,2651382,2231,334,2534,5493,-116,-296,193,55,-367
0,2651396,2233,346,2532,5486,-107,-291,193,55,-367
0,2651411,2234,335,2539,5482,-105,-298,193,55,-367
0,2651422,2234,335,2539,5482,-105,-298,193,55,-367
0,2651435,2238,333,2539,5484,-111,-295,190,58,-360
0,2651449,2232,333,2539,5485,-110,-292,190,58,-360
0,2651463,2232,333,2539,5485,-110,-292,190,58,-360
0,2651479,2232,351,2540,5487,-102,-303,190,58,-360
0,2651493,2234,334,2537,5480,-99,-296,190,58,-360
0,2651507,2232,340,2533,5493,-104,-294,190,58,-360
0,2651523,2232,340,2533,5493,-104,-294,190,58,-360
0,2651537,2236,341,2531,5481,-98,-290,190,58,-360
0,2651550,2233,354,2534,5477,-103,-301,204,54,-366
0,2651565,2233,351,2539,5483,-111,-297,204,54,-366
0,2651576,2233,351,2539,5483,-111,-297,204,54,-366
0,2651588,2233,351,2539,5483,-111,-297,204,54,-366
0,2651601,2233,351,2539,5483,-111,-297,204,54,-366
0,2651615,2241,348,2535,5482,-104,-299,204,54,-366
0,2651628,2236,340,2542,5488,-109,-296,204,54,-366
0,2651640,2236,340,2542,5488,-109,-296,204,54,-366
0,2651652,2234,336,2539,5483,-107,-297,204,54,-366
0,2651667,2234,336,2539,5483,-107,-297,213,57,-367
0,2651680,2234,336,2539,5483,-107,-297,213,57,-367
0,2651695,2234,330,2535,5478,-115,-301,213,57,-367
0,2651709,2235,292,2535,5485,-108,-304,213,57,-367
0,2651724,2235,292,2535,5485,-108,-304,213,57,-367
0,2651739,2234,330,2533,5476,-109,-301,213,57,-367
0,2651752,2235,325,2532,5475,-110,-294,213,57,-367
0,2651767,2231,323,2536,5475,-107,-304,213,57,-367
0,2651783,2231,323,2536,5475,-107,-304,213,57,-367
0,2651797,2240,314,2535,5477,-109,-309,213,57,-367
0,2651808,2234,321,2545,5471,-105,-296,211,49,-363
0,2651823,2234,321,2545,5471,-105,-296,211,49,-363
0,2651836,2241,330,2538,5473,-110,-297,211,49,-363
0,2651850,2229,320,2532,5469,-109,-304,211,49,-363
0,2651864,2229,320,2532,5469,-109,-304,211,49,-363
0,2651880,2232,323,2533,5481,-105,-303,211,49,-363
0,2651894,2243,315,2531,5479,-106,-300,211,49,-363
0,2651906,2231,324,2533,5474,-109,-285,211,49,-363
0,2651920,2231,324,2533,5474,-109,-285,211,49,-363
0,2651933,2236,317,2526,5471,-103,-300,228,50,-356
0,2651948,2233,331,2530,5469,-101,-298,228,50,-356
0,2651962,2233,331,2530,5469,-101,-298,228,50,-356
0,2651977,2240,321,2531,5472,-108,-295,228,50,-356
0,2651993,2232,323,2535,5481,-109,-297,228,50,-356
0,2652008,2237,323,2525,5471,-109,-300,228,50,-356
0,2652021,2237,323,2525,5471,-109,-300,228,50,-356
0,2652035,2234,336,2533,5474,-107,-292,228,50,-356
0,2652049,2239,316,2523,5467,-108,-297,228,50,-356
0,2652062,2239,316,2523,5467,-108,-297,228,50,-356
0,2652076,2233,328,2530,5475,-104,-300,227,59,-361
0,2652090,2236,323,2523,5480,-109,-301,227,59,-361
0,2652103,2236,323,2523,5480,-109,-301,227,59,-361
0,2652118,2232,335,2518,5477,-104,-304,227,59,-361
0,2652131,2234,320,2524,5465,-105,-298,227,59,-361
0,2652145,2232,336,2522,5459,-110,-300,227,59,-361
0,2652157,2232,336,2522,5459,-110,-300,227,59,-361
0,2652172,2233,345,2534,5466,-110,-301,227,59,-361
0,2652187,2230,377,2533,5470,-115,-302,233,57,-357
0,2652203,2230,377,2533,5470,-115,-302,233,57,-357
0,2652217,2228,387,2531,5473,-104,-301,233,57,-357
0,2652229,2233,376,2529,5469,-106,-305,233,57,-357
0,2652242,2233,376,2529,5469,-106,-305,233,57,-357
0,2652256,2232,363,2530,5468,-107,-302,233,57,-357
0,2652269,2237,390,2528,5478,-109,-303,233,57,-357
0,2652283,2237,390,2528,5478,-109,-303,233,57,-357
0,2652298,2226,375,2536,5480,-116,-297,233,57,-357
0,2652309,2229,379,2530,5488,-109,-297,235,67,-349
0,2652322,2229,379,2530,5488,-109,-297,235,67,-349
0,2652336,2234,356,2533,5477,-107,-294,235,67,-349
0,2652349,2231,366,2538,5488,-104,-292,235,67,-349
0,2652364,2231,366,2538,5488,-104,-292,235,67,-349
0,2652378,2234,349,2538,5500,-108,-289,235,67,-349
0,2652390,2229,354,2542,5488,-104,-297,235,67,-349
0,2652406,2240,332,2540,5483,-101,-299,235,67,-349
0,2652422,2240,332,2540,5483,-101,-299,235,67,-349
0,2652437,2239,341,2538,5484,-103,-292,235,67,-349
0,2652452,2235,330,2540,5480,-109,-296,238,68,-352
0,2652466,2235,330,2540,5480,-109,-296,238,68,-352
0,2652477,2229,348,2539,5480,-111,-300,238,68,-352
0,2652491,2236,320,2534,5487,-103,-295,238,68,-352
0,2652505,2236,320,2534,5487,-103,-295,238,68,-352
0,2652518,2233,337,2536,5484,-108,-291,238,68,-352
0,2652532,2233,322,2534,5483,-107,-298,238,68,-352
0,2652542,2233,322,2534,5483,-107,-298,238,68,-352
0,2652553,2224,352,2535,5490,-105,-301,238,68,-352
0,2652566,2237,329,2545,5492,-107,-302,236,68,-350
0,2652579,2237,329,2545,5492,-107,-302,236,68,-350
0,2652592,2232,337,2543,5487,-115,-298,236,68,-350
0,2652606,2238,320,2532,5485,-114,-298,236,68,-350
0,2652621,2238,320,2532,5485,-114,-298,236,68,-350
0,2652637,2230,349,2527,5483,-112,-296,236,68,-350
0,2652649,2233,325,2531,5488,-101,-300,236,68,-350
0,2652664,2233,325,2531,5488,-101,-300,236,68,-350
0,2652680,2233,332,2530,5482,-109,-300,236,68,-350
0,2652694,2239,317,2531,5485,-109,-301,236,68,-350
0,2652708,2229,337,2532,5482,-108,-304,253,67,-337
0,2652722,2229,337,2532,5482,-108,-304,253,67,-337
0,2652735,2235,324,2535,5479,-110,-297,253,67,-337
0,2652747,2233,334,2538,5473,-110,-298,253,67,-337
0,2652761,2233,334,2538,5473,-110,-298,253,67,-337
0,2652775,2233,334,2538,5473,-110,-298,253,67,-337
0,2652788,2238,328,2532,5483,-106,-293,253,67,-337
0,2652803,2238,328,2532,5483,-106,-293,253,67,-337
0,2652811,2237,311,2534,5481,-109,-295,253,67,-337
0,2652825,2237,311,2534,5481,-109,-295,253,67,-337
0,2652838,2232,327,2538,5475,-104,-297,244,76,-342
0,2652853,2238,306,2532,5477,-107,-301,244,76,-342
0,2652867,2236,325,2527,5480,-108,-298,244,76,-342
0,2652879,2236,325,2527,5480,-108,-298,244,76,-342
0,2652889,2238,315,2526,5477,-107,-300,244,76,-342
0,2652903,2238,315,2526,5477,-107,-300,244,76,-342
0,2652917,2232,327,2531,5473,-104,-300,244,76,-342
0,2652933,2241,319,2533,5473,-106,-306,244,76,-342
0,2652947,2238,323,2524,5473,-97,-297,244,76,-342
0,2652962,2238,323,2524,5473,-97,-297,244,76,-342
0,2652977,2236,319,2538,5468,-108,-291,254,64,-336
0,2652990,2237,328,2532,5471,-108,-300,254,64,-336
0,2653004,2237,328,2532,5471,-108,-300,254,64,-336
0,2653016,2237,328,2532,5471,-108,-300,254,64,-336
0,2653029,2234,325,2529,5470,-110,-301,254,64,-336
0,2653042,2234,325,2529,5470,-110,-301,254,64,-336
0,2653057,2232,331,2516,5481,-108,-305,254,64,-336
0,2653070,2230,344,2524,5473,-109,-303,254,64,-336
0,2653084,2230,344,2524,5473,-109,-303,254,64,-336
0,2653097,2229,344,2529,5473,-112,-304,242,74,-332
0,2653110,2235,355,2523,5471,-110,-300,242,74,-332
0,2653125,2235,355,2523,5471,-110,-300,242,74,-332
0,2653139,2235,349,2522,5469,-111,-294,242,74,-332
0,2653152,2232,347,2533,5467,-112,-298,242,74,-332
0,2653165,2232,347,2533,5467,-112,-298,242,74,-332
0,2653180,2236,341,2529,5477,-109,-301,242,74,-332
0,2653194,2234,360,2532,5480,-105,-298,242,74,-332
0,2653207,2232,351,2529,5484,-106,-297,250,70,-326
0,2653221,2232,351,2529,5484,-106,-297,250,70,-326
0,2653235,2228,366,2535,5467,-107,-305,250,70,-326
0,2653248,2234,351,2531,5468,-111,-300,250,70,-326
0,2653262,2234,351,2531,5468,-111,-300,250,70,-326
0,2653277,2228,373,2532,5474,-112,-299,250,70,-326
0,2653290,2229,347,2528,5476,-109,-296,250,70,-326
0,2653303,2229,347,2528,5476,-109,-296,250,70,-326
0,2653315,2226,372,2538,5482,-104,-304,250,70,-326
0,2653330,2234,340,2533,5487,-104,-303,250,70,-326
0,2653343,2234,340,2533,5487,-104,-303,250,70,-326
0,2653359,2231,367,2541,5485,-108,-304,252,74,-320
0,2653374,2235,340,2537,5483,-114,-299,252,74,-320
0,2653387,2230,360,2535,5478,-113,-300,252,74,-320
0,2653400,2230,360,2535,5478,-113,-300,252,74,-320
0,2653415,2236,328,2536,5485,-113,-293,252,74,-320
0,2653428,2228,347,2531,5481,-117,-295,252,74,-320
0,2653442,2228,347,2531,5481,-117,-295,252,74,-320
0,2653456,2235,319,2533,5489,-111,-296,252,74,-320
0,2653471,2228,343,2540,5491,-100,-298,254,72,-316
0,2653484,2228,343,2540,5491,-100,-298,254,72,-316
0,2653496,2236,324,2543,5491,-108,-298,254,72,-316
0,2653508,2234,290,2530,5496,-108,-297,254,72,-316
0,2653516,2234,290,2530,5496,-108,-297,254,72,-316
0,2653529,2239,317,2537,5489,-113,-302,254,72,-316
0,2653544,2239,317,2537,5489,-113,-302,254,72,-316
0,2653554,2233,325,2525,5487,-109,-297,254,72,-316
0,2653570,2236,322,2534,5484,-107,-300,254,72,-316
0,2653585,2236,322,2534,5484,-107,-300,254,72,-316
0,2653600,2235,308,2530,5479,-108,-306,254,72,-316
0,2653614,2238,320,2543,5481,-109,-299,248,66,-310
0,2653627,2238,320,2543,5481,-109,-299,248,66,-310
0,2653640,2238,321,2531,5477,-111,-298,248,66,-310
0,2653651,2224,314,2537,5480,-113,-294,248,66,-310
0,2653665,2224,314,2537,5480,-113,-294,248,66,-310
0,2653678,2236,317,2521,5470,-114,-293,248,66,-310
0,2653692,2236,314,2533,5470,-113,-297,248,66,-310
0,2653706,2236,314,2533,5470,-113,-297,248,66,-310
0,2653717,2230,325,2528,5474,-113,-297,248,66,-310
0,2653730,2232,321,2532,5476,-107,-300,241,59,-293
0,2653744,2232,321,2532,5476,-107,-300,241,59,-293
0,2653757,2235,329,2529,5470,-110,-299,241,59,-293
0,2653772,2242,314,2530,5477,-114,-309,241,59,-293
0,2653787,2242,314,2530,5477,-114,-309,241,59,-293
0,2653803,2234,326,2523,5475,-117,-296,241,59,-293
0,2653818,2232,321,2526,5479,-104,-305,241,59,-293
0,2653832,2230,329,2529,5465,-115,-304,241,59,-293
0,2653845,2230,329,2529,5465,-115,-304,241,59,-293
0,2653859,2234,313,2522,5469,-114,-303,241,59,-293
0,2653870,2230,324,2527,5471,-115,-297,241,59,-293
0,2653883,2230,324,2527,5471,-115,-297,241,59,-293
0,2653896,2239,325,2525,5467,-112,-300,241,59,-293
0,2653911,2231,331,2526,5464,-116,-302,241,59,-293
0,2653924,2231,331,2526,5464,-116,-302,241,59,-293
0,2653936,2237,328,2525,5470,-111,-300,241,59,-293
0,2653948,2234,338,2527,5463,-114,-297,241,59,-293
0,2653962,2234,338,2527,5463,-114,-297,241,59,-293
0,2653975,2235,366,2519,5467,-112,-292,241,59,-293
0,2653989,2224,385,2526,5473,-109,-295,231,61,-283
0,2654005,2224,385,2526,5473,-109,-295,231,61,-283
0,2654020,2228,356,2533,5471,-108,-294,231,61,-283
0,2654035,2231,356,2522,5473,-110,-298,231,61,-283
0,2654049,2231,361,2529,5480,-110,-301,231,61,-283
0,2654063,2231,361,2529,5480,-110,-301,231,61,-283
0,2654076,2224,373,2526,5481,-111,-293,231,61,-283
0,2654088,2230,347,2530,5479,-113,-299,231,61,-283
0,2654102,2230,347,2530,5479,-113,-299,231,61,-283
0,2654115,2233,350,2530,5488,-99,-301,224,56,-284
0,2654130,2233,347,2533,5478,-104,-296,224,56,-284
0,2654143,2233,347,2533,5478,-104,-296,224,56,-284
0,2654156,2230,357,2536,5482,-108,-288,224,56,-284
0,2654169,2229,343,2534,5482,-109,-304,224,56,-284
0,2654182,2229,343,2534,5482,-109,-304,224,56,-284
0,2654196,2237,342,2532,5485,-100,-302,224,56,-284
0,2654210,2238,322,2538,5486,-107,-301,224,56,-284
0,2654224,2238,322,2538,5486,-107,-301,224,56,-284
0,2654239,2234,339,2532,5485,-108,-300,224,56,-284
0,2654255,2231,332,2541,5487,-111,-308,216,56,-274
0,2654270,2234,331,2531,5483,-103,-297,216,56,-274
0,2654283,2234,331,2531,5483,-103,-297,216,56,-274
0,2654298,2237,319,2539,5481,-103,-296,216,56,-274
0,2654310,2233,333,2535,5483,-117,-293,216,56,-274
0,2654321,2233,333,2535,5483,-117,-293,216,56,-274
0,2654337,2234,337,2534,5475,-110,-299,216,56,-274
0,2654350,2234,339,2535,5484,-110,-301,216,56,-274
0,2654363,2234,339,2535,5484,-110,-301,216,56,-274
0,2654376,2237,329,2540,5481,-100,-298,205,63,-267
0,2654391,2235,340,2532,5482,-104,-296,205,63,-267
0,2654403,2235,340,2532,5482,-104,-296,205,63,-267
0,2654416,2230,350,2537,5491,-105,-296,205,63,-267
0,2654430,2229,353,2536,5485,-104,-302,205,63,-267
0,2654444,2229,353,2536,5485,-104,-302,205,63,-267
0,2654458,2230,338,2532,5483,-106,-305,205,63,-267
0,2654475,2232,345,2538,5483,-107,-299,205,63,-267
0,2654489,2233,336,2539,5489,-103,-294,205,63,-267
0,2654501,2233,336,2539,5489,-103,-294,205,63,-267
0,2654517,2232,339,2545,5486,-108,-301,210,54,-266
0,2654531,2229,321,2540,5490,-106,-300,210,54,-266
0,2654543,2229,321,2540,5490,-106,-300,210,54,-266
0,2654557,2233,336,2541,5490,-101,-300,210,54,-266
0,2654570,2235,282,2538,5486,-112,-289,210,54,-266
0,2654584,2235,282,2538,5486,-112,-289,210,54,-266
0,2654598,2236,331,2536,5482,-112,-300,210,54,-266
0,2654612,2237,306,2535,5483,-105,-294,210,54,-266
0,2654625,2237,306,2535,5483,-105,-294,210,54,-266
0,2654640,2233,332,2539,5481,-110,-293,206,56,-250
0,2654652,2234,291,2533,5490,-105,-306,206,56,-250
0,2654665,2234,291,2533,5490,-105,-306,206,56,-250
0,2654680,2235,331,2532,5481,-104,-307,206,56,-250
0,2654694,2242,314,2531,5480,-116,-300,206,56,-250
0,2654705,2242,314,2531,5480,-116,-300,206,56,-250
0,2654718,2228,329,2535,5484,-116,-299,206,56,-250
0,2654733,2243,306,2530,5480,-111,-302,206,56,-250
0,2654747,2243,306,2530,5480,-111,-302,206,56,-250
0,2654760,2236,328,2532,5471,-105,-295,190,58,-250
0,2654774,2233,311,2535,5470,-113,-294,190,58,-250
0,2654789,2232,318,2531,5470,-111,-300,190,58,-250
0,2654803,2232,318,2531,5470,-111,-300,190,58,-250
0,2654817,2239,319,2530,5464,-107,-303,190,58,-250
0,2654830,2238,319,2530,5471,-108,-300,190,58,-250
0,2654839,2238,319,2530,5471,-108,-300,190,58,-250
0,2654852,2235,321,2526,5476,-109,-293,190,58,-250
0,2654866,2235,321,2526,5476,-109,-293,190,58,-250
0,2654879,2234,318,2529,5467,-104,-294,190,58,-250
0,2654893,2232,327,2533,5468,-97,-306,188,50,-250
0,2654905,2232,327,2533,5468,-97,-306,188,50,-250
0,2654919,2236,323,2525,5470,-110,-304,188,50,-250
0,2654934,2231,320,2530,5469,-110,-297,188,50,-250
0,2654947,2231,320,2530,5469,-110,-297,188,50,-250
0,2654961,2237,319,2527,5467,-104,-297,188,50,-250
0,2654977,2233,325,2528,5475,-107,-297,188,50,-250
0,2654992,2234,322,2521,5477,-108,-298,188,50,-250
0,2655006,2234,322,2521,5477,-108,-298,188,50,-250
0,2655020,2228,323,2525,5464,-112,-294,187,53,-249
0,2655034,2235,339,2528,5464,-112,-302,187,53,-249
0,2655048,2235,339,2528,5464,-112,-302,187,53,-249
0,2655059,2232,345,2522,5468,-107,-298,187,53,-249
0,2655073,2229,389,2529,5462,-103,-297,187,53,-249
0,2655087,2229,389,2529,5462,-103,-297,187,53,-249
0,2655100,2224,368,2524,5466,-107,-297,187,53,-249
0,2655114,2231,380,2533,5462,-104,-307,187,53,-249
0,2655129,2231,359,2526,5475,-109,-301,187,53,-249
0,2655142,2231,359,2526,5475,-109,-301,187,53,-249
0,2655155,2226,395,2544,5481,-110,-298,184,50,-240
0,2655171,2230,357,2524,5474,-118,-296,184,50,-240
0,2655186,2230,357,2524,5474,-118,-296,184,50,-240
0,2655198,2223,380,2536,5485,-109,-301,184,50,-240
0,2655212,2237,340,2528,5482,-108,-300,184,50,-240
0,2655228,2237,340,2528,5482,-108,-300,184,50,-240
0,2655244,2228,365,2537,5483,-101,-297,184,50,-240
0,2655259,2231,331,2530,5493,-114,-298,184,50,-240
0,2655272,2226,350,2545,5492,-102,-305,174,50,-252
0,2655285,2226,350,2545,5492,-102,-305,174,50,-252
0,2655299,2226,350,2545,5492,-102,-305,174,50,-252
0,2655313,2230,332,2542,5488,-105,-291,174,50,-252
0,2655329,2230,332,2542,5488,-105,-291,174,50,-252
0,2655341,2232,323,2541,5480,-113,-297,174,50,-252
0,2655355,2234,342,2539,5475,-109,-303,174,50,-252
0,2655369,2234,342,2539,5475,-109,-303,174,50,-252
0,2655380,2234,342,2539,5475,-109,-303,174,50,-252
0,2655388,2234,342,2539,5475,-109,-303,174,50,-252
0,2655397,2234,336,2536,5479,-102,-299,174,50,-252
0,2655411,2226,332,2538,5479,-104,-296,165,49,-237
0,2655424,2226,332,2538,5479,-104,-296,165,49,-237
0,2655438,2234,339,2537,5478,-109,-296,165,49,-237
0,2655454,2233,325,2538,5477,-109,-301,165,49,-237
0,2655469,2233,325,2538,5477,-109,-301,165,49,-237
0,2655482,2235,327,2538,5476,-103,-297,165,49,-237
0,2655494,2235,327,2538,5476,-103,-297,165,49,-237
0,2655508,2235,327,2538,5476,-103,-297,165,49,-237
0,2655522,2234,334,2539,5481,-111,-297,165,49,-237
0,2655536,2233,327,2540,5483,-110,-298,157,61,-243
0,2655550,2235,325,2537,5478,-105,-286,157,61,-243
0,2655563,2235,325,2537,5478,-105,-286,157,61,-243
0,2655577,2234,329,2539,5492,-111,-288,157,61,-243
0,2655590,2235,326,2537,5477,-106,-298,157,61,-243
0,2655603,2235,326,2537,5477,-106,-298,157,61,-243
0,2655618,2229,328,2532,5480,-109,-305,157,61,-243
0,2655632,2235,298,2539,5489,-107,-306,157,61,-243
0,2655646,2235,298,2539,5489,-107,-306,157,61,-243
0,2655659,2231,318,2539,5481,-113,-306,163,55,-241
0,2655673,2232,312,2539,5480,-114,-294,163,55,-241
0,2655688,2232,312,2539,5480,-114,-294,163,55,-241
0,2655704,2234,331,2537,5482,-112,-293,163,55,-241
0,2655719,2235,299,2535,5477,-107,-298,163,55,-241
0,2655731,2237,322,2534,5474,-106,-290,163,55,-241
0,2655746,2237,322,2534,5474,-106,-290,163,55,-241
0,2655761,2233,310,2535,5482,-112,-300,163,55,-241
0,2655774,2228,329,2524,5478,-109,-299,163,55,-241
0,2655788,2228,329,2524,5478,-109,-299,163,55,-241
0,2655802,2233,303,2532,5480,-111,-299,155,53,-243
0,2655815,2231,321,2525,5482,-111,-299,155,53,-243
0,2655827,2231,321,2525,5482,-111,-299,155,53,-243
0,2655841,2238,312,2530,5475,-109,-294,155,53,-243
0,2655855,2226,326,2526,5468,-116,-296,155,53,-243
0,2655868,2226,326,2526,5468,-116,-296,155,53,-243
0,2655883,2237,315,2530,5474,-105,-301,155,53,-243
0,2655897,2234,319,2527,5472,-104,-298,155,53,-243
0,2655909,2234,319,2527,5472,-104,-298,155,53,-243
0,2655924,2235,324,2536,5472,-109,-294,151,63,-231
0,2655939,2232,330,2531,5474,-112,-308,151,63,-231
0,2655950,2237,331,2532,5476,-114,-305,151,63,-231
0,2655965,2237,331,2532,5476,-114,-305,151,63,-231
0,2655980,2235,329,2531,5474,-113,-302,151,63,-231
0,2655994,2235,332,2528,5470,-116,-299,151,63,-231
0,2656008,2235,332,2528,5470,-116,-299,151,63,-231
0,2656022,2230,335,2523,5465,-118,-298,151,63,-231
0,2656035,2235,335,2523,5475,-111,-300,151,63,-231
0,2656050,2234,332,2528,5477,-104,-307,151,63,-231
0,2656062,2234,332,2528,5477,-104,-307,153,59,-241
0,2656075,2235,336,2534,5464,-111,-306,153,59,-241
0,2656089,2235,336,2534,5464,-111,-306,153,59,-241
0,2656103,2230,364,2535,5461,-107,-297,153,59,-241
0,2656117,2232,373,2539,5473,-112,-297,153,59,-241
0,2656133,2231,361,2532,5468,-113,-297,153,59,-241
0,2656148,2231,361,2532,5468,-113,-297,153,59,-241
0,2656161,2233,365,2532,5467,-111,-292,153,59,-241
0,2656175,2230,364,2533,5476,-112,-292,146,68,-252
0,2656185,2230,364,2533,5476,-112,-292,146,68,-252
0,2656198,2227,369,2530,5477,-114,-293,146,68,-252
0,2656212,2229,354,2536,5481,-113,-301,146,68,-252
0,2656226,2229,354,2536,5481,-113,-301,146,68,-252
0,2656239,2234,350,2536,5479,-107,-305,146,68,-252
0,2656253,2234,347,2538,5479,-112,-302,146,68,-252
0,2656269,2234,347,2538,5479,-112,-302,146,68,-252
0,2656281,2228,348,2535,5483,-111,-296,146,68,-252
0,2656294,2234,343,2542,5485,-115,-298,141,61,-243
0,2656308,2234,343,2542,5485,-115,-298,141,61,-243
0,2656320,2238,339,2545,5481,-112,-300,141,61,-243
0,2656335,2232,327,2539,5484,-113,-296,141,61,-243
0,2656350,2232,327,2539,5484,-113,-296,141,61,-243
0,2656363,2237,340,2527,5493,-102,-293,141,61,-243
0,2656377,2229,334,2536,5488,-101,-297,141,61,-243
0,2656392,2232,318,2532,5487,-104,-298,141,61,-243
0,2656407,2232,318,2532,5487,-104,-298,141,61,-243
0,2656420,2232,285,2533,5480,-106,-300,141,61,-243
0,2656432,2236,329,2544,5481,-109,-299,142,66,-260
0,2656445,2236,329,2544,5481,-109,-299,142,66,-260
0,2656458,2233,322,2552,5486,-103,-297,142,66,-260
0,2656472,2234,311,2538,5487,-116,-305,142,66,-260
0,2656487,2234,311,2538,5487,-116,-305,142,66,-260
0,2656498,2246,314,2536,5476,-106,-311,142,66,-260
0,2656512,2236,317,2535,5479,-103,-300,142,66,-260
0,2656527,2236,317,2535,5479,-103,-300,142,66,-260
0,2656542,2234,331,2529,5477,-114,-301,142,66,-260
0,2656557,2232,312,2528,5481,-109,-302,146,56,-254
0,2656571,2235,323,2534,5478,-114,-307,146,56,-254
0,2656585,2235,323,2534,5478,-114,-307,146,56,-254
0,2656601,2240,313,2536,5472,-111,-299,146,56,-254
0,2656615,2232,325,2530,5474,-118,-286,146,56,-254
0,2656629,2232,325,2530,5474,-118,-286,146,56,-254
0,2656643,2233,321,2538,5478,-107,-299,146,56,-254
0,2656656,2238,329,2520,5470,-110,-297,146,56,-254
0,2656666,2238,329,2520,5470,-110,-297,146,56,-254
0,2656680,2239,311,2535,5480,-109,-297,146,56,-254
0,2656695,2235,327,2527,5472,-114,-299,139,55,-265
0,2656708,2235,327,2527,5472,-114,-299,139,55,-265
0,2656722,2237,323,2537,5479,-111,-297,139,55,-265
0,2656736,2233,329,2522,5474,-109,-299,139,55,-265
0,2656749,2233,329,2522,5474,-109,-299,139,55,-265
0,2656762,2233,329,2522,5474,-109,-299,139,55,-265
0,2656777,2233,323,2523,5473,-108,-299,139,55,-265
0,2656790,2233,323,2523,5473,-108,-299,139,55,-265
0,2656804,2234,330,2529,5475,-109,-301,139,55,-265
0,2656813,2236,338,2531,5470,-110,-298,143,65,-271
0,2656828,2236,338,2531,5470,-110,-298,143,65,-271
0,2656836,2236,338,2531,5470,-110,-298,143,65,-271
0,2656851,2233,375,2526,5481,-105,-296,143,65,-271
0,2656867,2233,375,2526,5481,-105,-296,143,65,-271
0,2656880,2229,378,2530,5466,-106,-302,143,65,-271
0,2656894,2230,372,2531,5473,-112,-303,143,65,-271
0,2656908,2230,372,2531,5473,-112,-303,143,65,-271
0,2656922,2232,345,2522,5477,-112,-302,143,65,-271
0,2656937,2235,381,2530,5473,-111,-299,143,65,-271
0,2656951,2235,381,2530,5473,-111,-299,143,65,-271
0,2656964,2228,362,2531,5478,-112,-293,139,53,-283
0,2656977,2225,362,2527,5482,-116,-300,139,53,-283
0,2656991,2225,362,2527,5482,-116,-300,139,53,-283
0,2657005,2235,341,2531,5475,-113,-307,139,53,-283
0,2657020,2233,355,2539,5476,-109,-297,139,53,-283
0,2657033,2236,342,2529,5482,-110,-287,139,53,-283
0,2657047,2236,342,2529,5482,-110,-287,139,53,-283
0,2657062,2229,344,2541,5483,-113,-294,139,53,-283
0,2657075,2239,333,2541,5486,-106,-295,144,60,-290
0,2657087,2239,333,2541,5486,-106,-295,144,60,-290
0,2657101,2237,329,2545,5482,-105,-296,144,60,-290
0,2657115,2233,332,2531,5482,-108,-287,144,60,-290
0,2657131,2233,332,2531,5482,-108,-287,144,60,-290
0,2657143,2230,344,2531,5479,-104,-290,144,60,-290
0,2657157,2236,329,2536,5475,-105,-294,144,60,-290
0,2657170,2236,329,2536,5475,-105,-294,144,60,-290
0,2657182,2233,329,2531,5482,-112,-300,144,60,-290
0,2657197,2234,328,2536,5479,-111,-292,145,53,-295
0,2657211,2234,328,2536,5479,-111,-292,145,53,-295
0,2657225,2227,359,2539,5474,-111,-296,145,53,-295
0,2657240,2238,353,2538,5486,-107,-298,145,53,-295
0,2657256,2233,344,2540,5483,-102,-300,145,53,-295
0,2657270,2233,344,2540,5483,-102,-300,145,53,-295
0,2657285,2238,341,2540,5480,-114,-293,145,53,-295
0,2657298,2231,355,2528,5478,-113,-306,145,53,-295
0,2657313,2227,357,2538,5486,-105,-299,145,53,-295
0,2657328,2227,357,2538,5486,-105,-299,145,53,-295
0,2657339,2233,342,2537,5491,-103,-301,144,54,-304
0,2657354,2231,336,2535,5477,-105,-303,144,54,-304
0,2657370,2231,336,2535,5477,-105,-303,144,54,-304
0,2657383,2236,337,2539,5489,-106,-298,144,54,-304
0,2657397,2230,333,2537,5487,-107,-290,144,54,-304
0,2657411,2230,333,2537,5487,-107,-290,144,54,-304
0,2657425,2239,337,2540,5483,-113,-300,144,54,-304
0,2657439,2234,321,2536,5483,-112,-297,144,54,-304
0,2657452,2242,298,2540,5485,-112,-299,133,49,-311
0,2657466,2242,298,2540,5485,-112,-299,133,49,-311
0,2657480,2237,329,2538,5486,-119,-301,133,49,-311
0,2657494,2236,330,2540,5479,-105,-301,133,49,-311
0,2657509,2236,330,2540,5479,-105,-301,133,49,-311
0,2657522,2232,309,2530,5476,-101,-296,133,49,-311
0,2657534,2237,312,2533,5482,-112,-300,133,49,-311
0,2657549,2237,312,2533,5482,-112,-300,133,49,-311
0,2657565,2234,317,2529,5478,-110,-304,133,49,-311
0,2657581,2235,334,2538,5472,-111,-307,133,49,-311
0,2657594,2232,312,2535,5470,-111,-297,147,51,-311
0,2657607,2232,312,2535,5470,-111,-297,147,51,-311
0,2657619,2239,327,2536,5472,-110,-307,147,51,-311
0,2657633,2243,310,2531,5477,-113,-301,147,51,-311
0,2657647,2243,310,2531,5477,-113,-301,147,51,-311
0,2657660,2231,331,2530,5465,-119,-295,147,51,-311
0,2657674,2240,313,2528,5472,-109,-297,147,51,-311
0,2657689,2240,313,2528,5472,-109,-297,147,51,-311
0,2657701,2236,330,2529,5472,-106,-307,147,51,-311
0,2657715,2238,308,2533,5477,-110,-294,144,50,-320
0,2657729,2238,308,2533,5477,-110,-294,144,50,-320
0,2657743,2231,322,2531,5476,-112,-295,144,50,-320
0,2657757,2236,325,2526,5472,-112,-296,144,50,-320
0,2657769,2236,325,2526,5472,-112,-296,144,50,-320
0,2657784,2233,323,2531,5475,-105,-298,144,50,-320
0,2657799,2238,312,2524,5471,-111,-294,144,50,-320
0,2657814,2234,327,2528,5470,-107,-294,144,50,-320
0,2657827,2234,327,2528,5470,-107,-294,144,50,-320
0,2657839,2238,331,2525,5470,-113,-296,144,50,-320
0,2657853,2238,331,2525,5470,-117,-297,146,56,-332
0,2657866,2238,331,2525,5470,-117,-297,146,56,-332
0,2657880,2232,322,2527,5472,-106,-299,146,56,-332
0,2657895,2235,327,2518,5469,-108,-302,146,56,-332
0,2657908,2235,327,2518,5469,-108,-302,146,56,-332
0,2657921,2231,332,2522,5470,-106,-299,146,56,-332
0,2657935,2231,349,2521,5470,-109,-299,146,56,-332
0,2657948,2231,349,2521,5470,-109,-299,146,56,-332
0,2657963,2233,353,2528,5459,-107,-299,146,56,-332
0,2657978,2231,399,2531,5469,-108,-298,158,70,-340
0,2657992,2228,364,2535,5470,-119,-295,158,70,-340
0,2658009,2228,364,2535,5470,-119,-295,158,70,-340
0,2658024,2229,382,2519,5463,-113,-303,158,70,-340
0,2658038,2236,385,2532,5471,-107,-299,158,70,-340
0,2658050,2236,385,2532,5471,-107,-299,158,70,-340
0,2658066,2228,391,2535,5474,-111,-296,158,70,-340
0,2658078,2230,363,2531,5477,-107,-291,158,70,-340
0,2658091,2230,363,2531,5477,-107,-291,158,70,-340
0,2658105,2227,362,2535,5485,-103,-295,176,46,-354
0,2658118,2233,346,2542,5502,-101,-298,176,46,-354
0,2658131,2233,346,2542,5502,-101,-298,176,46,-354
0,2658146,2232,347,2537,5487,-110,-300,176,46,-354
0,2658157,2228,331,2533,5484,-118,-298,176,46,-354
0,2658170,2228,331,2533,5484,-118,-298,176,46,-354
0,2658186,2235,341,2544,5479,-108,-297,176,46,-354
0,2658200,2236,328,2535,5484,-98,-291,176,46,-354
0,2658213,2235,343,2540,5484,-108,-293,176,46,-354
0,2658229,2235,343,2540,5484,-108,-293,176,46,-354
0,2658244,2235,340,2537,5477,-110,-295,179,59,-353
0,2658259,2233,348,2546,5473,-111,-302,179,59,-353
0,2658275,2236,327,2533,5468,-119,-298,179,59,-353
0,2658288,2236,327,2533,5468,-119,-298,179,59,-353
0,2658301,2231,340,2536,5481,-114,-288,179,59,-353
0,2658315,2232,337,2531,5474,-108,-296,179,59,-353
0,2658327,2232,337,2531,5474,-108,-296,179,59,-353
0,2658340,2233,346,2534,5473,-109,-296,179,59,-353
0,2658354,2231,322,2542,5473,-110,-308,189,45,-361
0,2658367,2231,322,2542,5473,-110,-308,189,45,-361
0,2658378,2234,337,2540,5471,-102,-301,189,45,-361
0,2658391,2234,337,2540,5471,-102,-301,189,45,-361
0,2658405,2235,334,2537,5480,-110,-293,189,45,-361
0,2658418,2236,341,2536,5481,-113,-300,189,45,-361
0,2658432,2236,341,2536,5481,-113,-300,189,45,-361
0,2658446,2233,329,2539,5479,-112,-302,189,45,-361
0,2658459,2238,329,2540,5479,-109,-298,189,45,-361
0,2658472,2238,329,2540,5479,-109,-298,189,45,-361
0,2658487,2233,329,2541,5478,-110,-296,189,45,-361
0,2658502,2234,329,2536,5479,-110,-298,196,50,-358
0,2658519,2234,300,2534,5484,-101,-298,196,50,-358
0,2658532,2234,300,2534,5484,-101,-298,196,50,-358
0,2658543,2234,300,2534,5484,-101,-298,196,50,-358
0,2658556,2236,318,2535,5478,-108,-302,196,50,-358
0,2658571,2236,318,2535,5478,-108,-302,196,50,-358
0,2658584,2233,321,2537,5473,-104,-306,196,50,-358
0,2658598,2238,313,2531,5476,-113,-304,196,50,-358
0,2658612,2238,313,2531,5476,-113,-304,196,50,-358
0,2658624,2230,319,2533,5468,-114,-298,206,48,-368
0,2658637,2238,324,2532,5475,-116,-294,206,48,-368
0,2658651,2238,324,2532,5475,-116,-294,206,48,-368
0,2658665,2233,319,2529,5475,-115,-296,206,48,-368
0,2658679,2232,320,2535,5470,-104,-306,206,48,-368
0,2658695,2236,324,2527,5466,-107,-304,206,48,-368
0,2658709,2236,324,2527,5466,-107,-304,206,48,-368
0,2658723,2230,329,2519,5472,-117,-299,206,48,-368
0,2658738,2232,325,2525,5467,-113,-300,206,48,-368
0,2658753,2232,325,2525,5467,-113,-300,206,48,-368
0,2658766,2234,328,2528,5464,-111,-301,202,54,-368
0,2658778,2236,323,2529,5467,-112,-297,202,54,-368
0,2658791,2236,323,2529,5467,-112,-297,202,54,-368
0,2658804,2232,328,2529,5471,-111,-293,202,54,-368
0,2658818,2237,337,2528,5470,-104,-299,202,54,-368
0,2658832,2237,337,2528,5470,-104,-299,202,54,-368
0,2658845,2237,338,2527,5462,-104,-298,202,54,-368
0,2658857,2233,340,2530,5468,-110,-301,202,54,-368
0,2658871,2233,340,2530,5468,-110,-301,202,54,-368
0,2658884,2233,337,2532,5479,-107,-303,214,58,-358
0,2658898,2233,341,2527,5477,-109,-298,214,58,-358
0,2658915,2232,343,2528,5466,-110,-296,214,58,-358
0,2658929,2232,343,2528,5466,-110,-296,214,58,-358
0,2658941,2234,338,2527,5474,-112,-308,214,58,-358
0,2658950,2234,338,2527,5474,-112,-308,214,58,-358
0,2658964,2232,362,2529,5472,-116,-302,214,58,-358
0,2658980,2229,367,2526,5473,-107,-295,214,58,-358
0,2658996,2233,367,2534,5474,-110,-293,211,47,-367
0,2659010,2233,367,2534,5474,-110,-293,211,47,-367
0,2659022,2229,369,2540,5476,-109,-301,211,47,-367
0,2659036,2234,369,2531,5478,-105,-298,211,47,-367
0,2659048,2234,369,2531,5478,-105,-298,211,47,-367
0,2659063,2229,370,2536,5479,-112,-301,211,47,-367
0,2659077,2228,352,2526,5478,-110,-301,211,47,-367
0,2659090,2228,352,2526,5478,-110,-301,211,47,-367
0,2659104,2230,355,2537,5488,-111,-303,211,47,-367
0,2659117,2236,347,2534,5478,-103,-297,211,47,-367
0,2659131,2236,347,2534,5478,-103,-297,211,47,-367
0,2659143,2236,347,2534,5478,-103,-297,226,46,-352
0,2659159,2236,342,2537,5480,-114,-302,226,46,-352
0,2659174,2236,342,2537,5480,-114,-302,226,46,-352
0,2659189,2235,350,2545,5479,-108,-299,226,46,-352
0,2659205,2230,328,2538,5481,-107,-294,226,46,-352
0,2659218,2230,344,2538,5479,-106,-295,226,46,-352
0,2659230,2230,344,2538,5479,-106,-295,226,46,-352
0,2659246,2234,331,2537,5493,-106,-296,226,46,-352
0,2659259,2234,346,2537,5490,-112,-295,233,53,-353
0,2659273,2234,346,2537,5490,-112,-295,233,53,-353
0,2659287,2235,285,2540,5489,-110,-299,233,53,-353
0,2659301,2234,333,2530,5486,-106,-297,233,53,-353
0,2659314,2234,333,2530,5486,-106,-297,233,53,-353
0,2659326,2234,308,2537,5486,-103,-292,233,53,-353
0,2659340,2229,342,2536,5476,-110,-287,233,53,-353
0,2659354,2229,342,2536,5476,-110,-287,233,53,-353
0,2659368,2233,299,2538,5486,-109,-291,233,53,-353
0,2659382,2233,337,2533,5480,-98,-303,233,53,-353
0,2659394,2239,315,2536,5472,-106,-294,222,64,-366
0,2659408,2239,315,2536,5472,-106,-294,222,64,-366
0,2659424,2225,335,2533,5473,-112,-293,222,64,-366
0,2659439,2238,315,2536,5466,-113,-305,222,64,-366
0,2659452,2238,315,2536,5466,-113,-305,222,64,-366
0,2659465,2238,333,2528,5475,-107,-308,222,64,-366
0,2659480,2235,315,2528,5477,-114,-302,222,64,-366
0,2659493,2235,315,2528,5477,-114,-302,222,64,-366
0,2659507,2232,327,2525,5466,-107,-303,222,64,-366
0,2659521,2234,321,2531,5479,-100,-294,238,78,-352
0,2659533,2234,321,2531,5479,-100,-294,238,78,-352
0,2659547,2238,329,2534,5484,-100,-297,238,78,-352
0,2659560,2232,317,2528,5473,-111,-297,238,78,-352
0,2659574,2232,326,2530,5478,-113,-300,238,78,-352
0,2659589,2232,326,2530,5478,-113,-300,238,78,-352
0,2659603,2236,325,2530,5473,-108,-299,238,78,-352
0,2659618,2236,324,2527,5474,-109,-297,238,78,-352
0,2659631,2236,324,2527,5474,-109,-297,238,78,-352
0,2659645,2233,318,2524,5480,-103,-293,235,63,-351
0,2659659,2238,333,2525,5480,-105,-298,235,63,-351
0,2659671,2238,333,2525,5480,-105,-298,235,63,-351
0,2659685,2232,333,2531,5476,-104,-300,235,63,-351
0,2659700,2232,331,2523,5470,-109,-296,235,63,-351
0,2659715,2231,338,2523,5466,-106,-301,235,63,-351
0,2659729,2231,338,2523,5466,-106,-301,235,63,-351
0,2659742,2234,365,2526,5465,-110,-302,235,63,-351
0,2659756,2230,379,2525,5461,-109,-300,235,63,-351
0,2659768,2230,379,2525,5461,-109,-300,235,63,-351
0,2659781,2231,359,2537,5464,-111,-305,253,71,-341
0,2659794,2231,359,2537,5464,-111,-305,253,71,-341
0,2659808,2231,352,2532,5470,-112,-300,253,71,-341
0,2659821,2235,370,2538,5468,-103,-296,253,71,-341
0,2659834,2235,370,2538,5468,-103,-296,253,71,-341
0,2659846,2227,362,2528,5483,-110,-297,253,71,-341
0,2659860,2223,359,2533,5495,-117,-296,253,71,-341
0,2659873,2223,359,2533,5495,-117,-296,253,71,-341
0,2659888,2236,350,2525,5484,-115,-298,253,71,-341
0,2659902,2228,351,2536,5485,-107,-299,243,77,-341
0,2659916,2230,333,2536,5477,-108,-294,243,77,-341
0,2659930,2230,333,2536,5477,-108,-294,243,77,-341
0,2659944,2229,342,2541,5481,-103,-304,243,77,-341
0,2659959,2238,326,2535,5481,-106,-306,243,77,-341
0,2659974,2238,326,2535,5481,-106,-306,243,77,-341
0,2659984,2237,336,2536,5482,-105,-301,243,77,-341
0,2659998,2235,323,2535,5484,-104,-290,243,77,-341
0,2660012,2235,323,2535,5484,-104,-290,243,77,-341
0,2660025,2232,350,2540,5483,-105,-298,243,77,-341
0,2660041,2233,330,2534,5478,-110,-295,247,77,-345
0,2660056,2230,340,2529,5480,-110,-292,247,77,-345
0,2660068,2230,340,2529,5480,-110,-292,247,77,-345
0,2660080,2234,327,2532,5483,-112,-293,247,77,-345
0,2660094,2234,327,2532,5483,-112,-293,247,77,-345
0,2660107,2233,351,2534,5482,-104,-297,247,77,-345
0,2660121,2229,334,2538,5477,-107,-301,247,77,-345
0,2660136,2233,351,2533,5483,-109,-300,247,77,-345
0,2660152,2233,351,2533,5483,-109,-300,247,77,-345
0,2660167,2231,330,2548,5485,-110,-295,246,74,-338
0,2660180,2233,363,2539,5486,-106,-295,246,74,-338
0,2660194,2233,363,2539,5486,-106,-295,246,74,-338
0,2660205,2228,336,2541,5477,-114,-295,246,74,-338
0,2660215,2234,356,2532,5486,-108,-300,246,74,-338
0,2660230,2234,356,2532,5486,-108,-300,246,74,-338
