imu,time,ax,ay,az,gx,gy,gz,mx,my,mz
0,3688290,2336,-1306,-407,3896,-236,-303,188,56,-218
0,3688297,2333,-1306,-397,3898,-238,-296,176,62,-218
0,3688303,2333,-1306,-397,3898,-238,-296,176,62,-218
0,3688309,2333,-1306,-397,3898,-238,-296,176,62,-218
0,3688315,2339,-1311,-367,3889,-243,-302,176,62,-218
0,3688323,2339,-1311,-367,3889,-243,-302,176,62,-218
0,3688329,2339,-1311,-367,3889,-243,-302,176,62,-218
0,3688334,2331,-1308,-405,3884,-247,-295,176,62,-218
0,3688341,2331,-1308,-405,3884,-247,-295,176,62,-218
0,3688348,2331,-1308,-405,3884,-247,-295,176,62,-218
0,3688354,2339,-1303,-402,3892,-238,-295,176,62,-218
0,3688360,2339,-1303,-402,3892,-238,-295,176,62,-218
0,3688368,2339,-1303,-402,3892,-238,-295,176,62,-218
0,3688377,2338,-1304,-393,3889,-232,-298,176,62,-218
0,3688386,2338,-1304,-393,3889,-232,-298,176,62,-218
0,3688399,2338,-1302,-379,3897,-236,-297,176,62,-218
0,3688410,2338,-1302,-379,3897,-236,-297,176,62,-218
0,3688423,2329,-1305,-384,3898,-240,-297,171,69,-217
0,3688437,2332,-1310,-376,3903,-230,-292,171,69,-217
0,3688451,2332,-1310,-376,3903,-230,-292,171,69,-217
0,3688465,2338,-1309,-387,3898,-228,-305,171,69,-217
0,3688473,2341,-1311,-328,3897,-242,-295,171,69,-217
0,3688485,2341,-1311,-328,3897,-242,-295,171,69,-217
0,3688495,2336,-1310,-380,3889,-253,-299,171,69,-217
0,3688508,2336,-1310,-380,3889,-253,-299,171,69,-217
0,3688522,2335,-1306,-371,3881,-243,-300,171,69,-217
0,3688531,2335,-1306,-371,3881,-243,-300,171,69,-217
0,3688544,2340,-1316,-386,3893,-236,-304,171,69,-217
0,3688558,2338,-1299,-352,3900,-234,-298,167,63,-215
0,3688571,2338,-1299,-352,3900,-234,-298,167,63,-215
0,3688586,2337,-1319,-371,3901,-249,-302,167,63,-215
0,3688599,2331,-1301,-386,3904,-243,-299,167,63,-215
0,3688610,2331,-1301,-386,3904,-243,-299,167,63,-215
0,3688625,2338,-1321,-366,3893,-237,-293,167,63,-215
0,3688640,2339,-1302,-350,3893,-233,-294,167,63,-215
0,3688653,2341,-1322,-368,3898,-244,-295,167,63,-215
0,3688668,2341,-1322,-368,3898,-244,-295,167,63,-215
0,3688683,2333,-1310,-347,3900,-243,-297,161,67,-223
0,3688697,2340,-1321,-374,3898,-233,-302,161,67,-223
0,3688712,2340,-1321,-374,3898,-233,-302,161,67,-223
0,3688725,2334,-1307,-344,3899,-238,-302,161,67,-223
0,3688738,2340,-1324,-370,3901,-243,-303,161,67,-223
0,3688753,2340,-1324,-370,3901,-243,-303,161,67,-223
0,3688764,2336,-1311,-379,3906,-245,-299,161,67,-223
0,3688777,2342,-1326,-379,3903,-238,-305,161,67,-223
0,3688791,2342,-1326,-379,3903,-238,-305,161,67,-223
0,3688804,2338,-1307,-378,3902,-242,-303,161,67,-223
0,3688818,2339,-1325,-378,3906,-246,-298,160,54,-218
0,3688829,2339,-1325,-378,3906,-246,-298,160,54,-218
0,3688843,2335,-1312,-376,3908,-242,-295,160,54,-218
0,3688858,2335,-1319,-384,3906,-237,-301,160,54,-218
0,3688873,2335,-1319,-384,3906,-237,-301,160,54,-218
0,3688888,2335,-1319,-384,3906,-237,-301,160,54,-218
0,3688901,2337,-1314,-386,3906,-238,-295,160,54,-218
0,3688916,2336,-1317,-386,3905,-239,-306,160,54,-218
0,3688932,2336,-1317,-386,3905,-239,-306,160,54,-218
0,3688947,2339,-1314,-383,3902,-241,-299,158,54,-216
0,3688955,2333,-1316,-412,3903,-247,-306,158,54,-216
0,3688965,2333,-1316,-412,3903,-247,-306,158,54,-216
0,3688972,2333,-1316,-412,3903,-247,-306,158,54,-216
0,3688981,2339,-1308,-401,3909,-245,-301,158,54,-216
0,3688989,2339,-1308,-401,3909,-245,-301,158,54,-216
0,3688997,2333,-1315,-383,3920,-246,-297,158,54,-216
0,3689005,2333,-1315,-383,3920,-246,-297,158,54,-216
0,3689014,2333,-1315,-383,3920,-246,-297,158,54,-216
0,3689021,2337,-1312,-407,3908,-244,-297,158,54,-216
0,3689029,2337,-1312,-407,3908,-244,-297,158,54,-216
0,3689037,2335,-1311,-411,3904,-235,-295,158,54,-216
0,3689046,2335,-1311,-411,3904,-235,-295,158,54,-216
0,3689054,2335,-1311,-411,3904,-235,-295,158,54,-216
0,3689063,2339,-1314,-415,3894,-235,-302,143,61,-219
0,3689070,2339,-1314,-415,3894,-235,-302,143,61,-219
0,3689078,2341,-1307,-407,3887,-246,-301,143,61,-219
0,3689086,2341,-1307,-407,3887,-246,-301,143,61,-219
0,3689095,2337,-1316,-398,3896,-247,-300,143,61,-219
0,3689103,2337,-1316,-398,3896,-247,-300,143,61,-219
0,3689111,2337,-1316,-398,3896,-247,-300,143,61,-219
0,3689119,2336,-1305,-425,3903,-243,-306,143,61,-219
0,3689127,2336,-1305,-425,3903,-243,-306,143,61,-219
0,3689136,2335,-1308,-408,3900,-238,-305,143,61,-219
0,3689144,2335,-1308,-408,3900,-238,-305,143,61,-219
0,3689151,2335,-1308,-408,3900,-238,-305,143,61,-219
0,3689160,2337,-1307,-408,3897,-239,-300,143,61,-219
0,3689168,2337,-1307,-408,3897,-239,-300,143,61,-219
0,3689177,2336,-1305,-398,3881,-245,-301,143,61,-219
0,3689185,2336,-1305,-398,3881,-245,-301,143,61,-219
0,3689193,2336,-1305,-398,3881,-245,-301,143,61,-219
0,3689200,2336,-1307,-399,3888,-238,-296,134,54,-218
0,3689208,2336,-1307,-399,3888,-238,-296,134,54,-218
0,3689219,2336,-1308,-395,3895,-231,-298,134,54,-218
0,3689228,2336,-1308,-395,3895,-231,-298,134,54,-218
0,3689237,2338,-1305,-396,3892,-242,-300,134,54,-218
0,3689245,2338,-1305,-396,3892,-242,-300,134,54,-218
0,3689253,2338,-1305,-396,3892,-242,-300,134,54,-218
0,3689261,2333,-1312,-362,3898,-244,-299,134,54,-218
0,3689269,2333,-1312,-362,3898,-244,-299,134,54,-218
0,3689277,2336,-1303,-409,3895,-245,-297,134,54,-218
0,3689285,2336,-1303,-409,3895,-245,-297,134,54,-218
0,3689292,2336,-1303,-409,3895,-245,-297,134,54,-218
0,3689300,2334,-1308,-390,3900,-233,-304,134,54,-218
0,3689310,2334,-1308,-390,3900,-233,-304,134,54,-218
0,3689318,2340,-1305,-395,3891,-236,-303,133,59,-219
0,3689328,2340,-1305,-395,3891,-236,-303,133,59,-219
0,3689337,2334,-1312,-363,3888,-236,-306,133,59,-219
0,3689347,2334,-1312,-363,3888,-236,-306,133,59,-219
0,3689356,2335,-1310,-392,3893,-247,-306,133,59,-219
0,3689366,2335,-1310,-392,3893,-247,-306,133,59,-219
0,3689379,2333,-1304,-370,3895,-239,-293,133,59,-219
0,3689393,2333,-1304,-370,3895,-239,-293,133,59,-219
0,3689406,2341,-1314,-383,3894,-231,-292,133,59,-219
0,3689420,2339,-1302,-331,3898,-237,-305,133,59,-219
0,3689433,2339,-1302,-331,3898,-237,-305,133,59,-219
0,3689446,2334,-1315,-383,3894,-243,-299,133,59,-219
0,3689460,2336,-1301,-361,3904,-225,-297,133,67,-229
0,3689476,2341,-1317,-369,3899,-224,-296,133,67,-229
0,3689489,2341,-1317,-369,3899,-224,-296,133,67,-229
0,3689501,2336,-1301,-359,3895,-234,-295,133,67,-229
0,3689509,2336,-1301,-359,3895,-234,-295,133,67,-229
0,3689524,2340,-1318,-369,3891,-247,-305,133,67,-229
0,3689535,2332,-1306,-381,3890,-237,-305,133,67,-229
0,3689547,2332,-1306,-381,3890,-237,-305,133,67,-229
0,3689562,2340,-1312,-374,3907,-227,-300,133,67,-229
0,3689575,2334,-1305,-356,3905,-233,-298,133,67,-229
0,3689588,2334,-1305,-356,3905,-233,-298,127,61,-225
0,3689600,2335,-1319,-365,3893,-248,-300,127,61,-225
0,3689615,2335,-1319,-365,3893,-248,-300,127,61,-225
0,3689628,2335,-1304,-347,3897,-239,-298,127,61,-225
0,3689641,2339,-1325,-366,3903,-239,-297,127,61,-225
0,3689656,2337,-1302,-357,3904,-243,-296,127,61,-225
0,3689667,2337,-1302,-357,3904,-243,-296,127,61,-225
0,3689680,2337,-1322,-365,3913,-250,-302,127,61,-225
0,3689696,2336,-1302,-381,3909,-242,-303,127,61,-225
0,3689711,2336,-1302,-381,3909,-242,-303,127,61,-225
0,3689726,2339,-1319,-370,3910,-235,-296,119,53,-211
0,3689740,2335,-1309,-377,3905,-232,-303,119,53,-211
0,3689751,2335,-1309,-377,3905,-232,-303,119,53,-211
0,3689764,2339,-1312,-383,3916,-242,-311,119,53,-211
0,3689779,2331,-1313,-382,3909,-241,-304,119,53,-211
0,3689792,2331,-1313,-382,3909,-241,-304,119,53,-211
0,3689806,2342,-1316,-384,3905,-237,-302,119,53,-211
0,3689819,2338,-1311,-389,3903,-235,-301,119,53,-211
0,3689833,2338,-1311,-389,3903,-235,-301,119,53,-211
0,3689847,2338,-1320,-372,3903,-238,-301,109,59,-219
0,3689862,2338,-1309,-380,3906,-243,-301,109,59,-219
0,3689875,2339,-1321,-385,3909,-240,-297,109,59,-219
0,3689889,2339,-1321,-385,3909,-240,-297,109,59,-219
0,3689905,2340,-1308,-414,3910,-233,-295,109,59,-219
0,3689919,2342,-1312,-402,3904,-239,-296,109,59,-219
0,3689926,2342,-1312,-402,3904,-239,-296,109,59,-219
0,3689935,2339,-1315,-387,3905,-242,-298,109,59,-219
0,3689942,2339,-1315,-387,3905,-242,-298,109,59,-219
0,3689951,2339,-1315,-387,3905,-242,-298,109,59,-219
0,3689960,2340,-1313,-406,3904,-244,-298,97,61,-225
0,3689969,2340,-1313,-406,3904,-244,-298,97,61,-225
0,3689978,2332,-1316,-411,3909,-237,-296,97,61,-225
0,3689988,2332,-1316,-411,3909,-237,-296,97,61,-225
0,3689997,2339,-1307,-419,3906,-229,-297,97,61,-225
0,3690005,2339,-1307,-419,3906,-229,-297,97,61,-225
0,3690012,2339,-1307,-419,3906,-229,-297,97,61,-225
0,3690021,2337,-1311,-404,3908,-236,-294,97,61,-225
0,3690030,2337,-1311,-404,3908,-236,-294,97,61,-225
0,3690039,2335,-1310,-404,3900,-243,-296,97,61,-225
0,3690048,2335,-1310,-404,3900,-243,-296,97,61,-225
0,3690056,2337,-1310,-418,3896,-240,-295,97,61,-225
0,3690065,2337,-1310,-418,3896,-240,-295,97,61,-225
0,3690074,2337,-1310,-418,3896,-240,-295,97,61,-225
0,3690083,2338,-1309,-407,3891,-236,-305,97,61,-225
0,3690091,2338,-1309,-407,3891,-236,-305,97,61,-225
0,3690100,2339,-1308,-407,3900,-237,-298,91,73,-231
0,3690108,2339,-1308,-407,3900,-237,-298,91,73,-231
0,3690119,2333,-1310,-400,3903,-245,-299,91,73,-231
0,3690128,2333,-1310,-400,3903,-245,-299,91,73,-231
0,3690137,2340,-1304,-411,3896,-241,-296,91,73,-231
0,3690145,2340,-1304,-411,3896,-241,-296,91,73,-231
0,3690155,2340,-1304,-411,3896,-241,-296,91,73,-231
0,3690163,2333,-1305,-393,3893,-229,-295,91,73,-231
0,3690171,2333,-1305,-393,3893,-229,-295,91,73,-231
0,3690180,2336,-1306,-408,3895,-236,-304,91,73,-231
0,3690188,2336,-1306,-408,3895,-236,-304,91,73,-231
0,3690198,2336,-1300,-383,3894,-241,-301,91,73,-231
0,3690207,2336,-1300,-383,3894,-241,-301,91,73,-231
0,3690215,2336,-1300,-383,3894,-241,-301,91,73,-231
0,3690223,2335,-1312,-376,3895,-245,-295,84,70,-238
0,3690231,2335,-1312,-376,3895,-245,-295,84,70,-238
0,3690240,2340,-1296,-405,3892,-237,-300,84,70,-238
0,3690248,2340,-1296,-405,3892,-237,-300,84,70,-238
0,3690256,2336,-1312,-375,3882,-231,-303,84,70,-238
0,3690265,2336,-1312,-375,3882,-231,-303,84,70,-238
0,3690273,2336,-1312,-375,3882,-231,-303,84,70,-238
0,3690283,2341,-1297,-392,3896,-240,-298,84,70,-238
0,3690291,2341,-1297,-392,3896,-240,-298,84,70,-238
0,3690300,2335,-1310,-369,3893,-251,-294,84,70,-238
0,3690308,2335,-1310,-369,3893,-251,-294,84,70,-238
0,3690316,2335,-1303,-384,3883,-241,-303,84,70,-238
0,3690324,2335,-1303,-384,3883,-241,-303,84,70,-238
0,3690334,2335,-1303,-384,3883,-241,-303,84,70,-238
0,3690343,2337,-1306,-376,3895,-233,-305,84,70,-238
0,3690351,2337,-1306,-376,3895,-233,-305,84,70,-238
0,3690359,2338,-1304,-356,3896,-234,-298,77,71,-245
0,3690368,2338,-1304,-356,3896,-234,-298,77,71,-245
0,3690377,2338,-1307,-355,3910,-243,-293,77,71,-245
0,3690385,2338,-1307,-355,3910,-243,-293,77,71,-245
0,3690395,2338,-1307,-355,3910,-243,-293,77,71,-245
0,3690404,2334,-1304,-391,3888,-239,-299,77,71,-245
0,3690413,2334,-1304,-391,3888,-239,-299,77,71,-245
0,3690422,2336,-1307,-350,3887,-225,-301,77,71,-245
0,3690430,2336,-1307,-350,3887,-225,-301,77,71,-245
0,3690439,2344,-1297,-394,3890,-226,-298,77,71,-245
0,3690447,2344,-1297,-394,3890,-226,-298,77,71,-245
0,3690457,2335,-1312,-361,3905,-240,-298,77,71,-245
0,3690464,2335,-1312,-361,3905,-240,-298,77,71,-245
0,3690474,2335,-1312,-361,3905,-240,-298,77,71,-245
0,3690482,2335,-1300,-381,3898,-245,-300,84,74,-246
0,3690490,2335,-1300,-381,3898,-245,-300,84,74,-246
0,3690499,2337,-1312,-374,3906,-230,-302,84,74,-246
0,3690507,2337,-1312,-374,3906,-230,-302,84,74,-246
0,3690514,2337,-1312,-374,3906,-230,-302,84,74,-246
0,3690523,2340,-1308,-360,3895,-231,-302,84,74,-246
0,3690530,2340,-1308,-360,3895,-231,-302,84,74,-246
0,3690539,2337,-1307,-371,3892,-243,-304,84,74,-246
0,3690548,2337,-1307,-371,3892,-243,-304,84,74,-246
0,3690556,2333,-1308,-354,3895,-247,-299,84,74,-246
0,3690563,2333,-1308,-354,3895,-247,-299,84,74,-246
0,3690572,2333,-1308,-354,3895,-247,-299,84,74,-246
0,3690580,2338,-1311,-359,3910,-228,-296,84,74,-246
0,3690590,2338,-1311,-359,3910,-228,-296,84,74,-246
0,3690599,2331,-1308,-362,3906,-234,-295,81,79,-253
0,3690607,2331,-1308,-362,3906,-234,-295,81,79,-253
0,3690616,2339,-1313,-363,3904,-240,-303,81,79,-253
0,3690625,2339,-1313,-363,3904,-240,-303,81,79,-253
0,3690633,2339,-1313,-363,3904,-240,-303,81,79,-253
0,3690642,2336,-1310,-372,3903,-240,-301,81,79,-253
0,3690649,2336,-1310,-372,3903,-240,-301,81,79,-253
0,3690657,2339,-1318,-379,3904,-233,-296,81,79,-253
0,3690665,2339,-1318,-379,3904,-233,-296,81,79,-253
0,3690675,2339,-1318,-379,3904,-233,-296,81,79,-253
0,3690683,2342,-1306,-375,3899,-236,-296,81,79,-253
0,3690692,2342,-1306,-375,3899,-236,-296,81,79,-253
0,3690699,2339,-1320,-390,3903,-241,-302,81,79,-253
0,3690708,2339,-1320,-390,3903,-241,-302,81,79,-253
0,3690716,2336,-1307,-382,3912,-244,-302,81,79,-253
0,3690725,2336,-1307,-382,3912,-244,-302,81,79,-253
0,3690734,2336,-1307,-382,3912,-244,-302,81,79,-253
0,3690742,2340,-1317,-378,3905,-236,-308,75,77,-257
0,3690752,2340,-1317,-378,3905,-236,-308,75,77,-257
0,3690761,2335,-1311,-372,3911,-235,-301,75,77,-257
0,3690768,2335,-1311,-372,3911,-235,-301,75,77,-257
0,3690776,2341,-1313,-384,3900,-243,-301,75,77,-257
0,3690785,2341,-1313,-384,3900,-243,-301,75,77,-257
0,3690793,2341,-1313,-384,3900,-243,-301,75,77,-257
0,3690801,2336,-1317,-384,3902,-236,-290,75,77,-257
0,3690809,2336,-1317,-384,3902,-236,-290,75,77,-257
0,3690818,2341,-1314,-391,3900,-231,-299,75,77,-257
0,3690826,2341,-1314,-391,3900,-231,-299,75,77,-257
0,3690835,2341,-1314,-391,3900,-231,-299,75,77,-257
0,3690844,2332,-1317,-389,3913,-236,-299,75,77,-257
0,3690851,2332,-1317,-389,3913,-236,-299,75,77,-257
0,3690859,2339,-1308,-424,3904,-236,-300,82,74,-262
0,3690868,2339,-1308,-424,3904,-236,-300,82,74,-262
0,3690877,2338,-1308,-385,3900,-235,-302,82,74,-262
0,3690888,2338,-1308,-385,3900,-235,-302,82,74,-262
0,3690895,2338,-1308,-385,3900,-235,-302,82,74,-262
0,3690905,2333,-1311,-404,3901,-243,-297,82,74,-262
0,3690913,2333,-1311,-404,3901,-243,-297,82,74,-262
0,3690923,2335,-1305,-403,3902,-238,-295,82,74,-262
0,3690937,2337,-1315,-410,3899,-232,-295,82,74,-262
0,3690950,2337,-1315,-410,3899,-232,-295,82,74,-262
0,3690964,2340,-1301,-410,3905,-238,-299,82,74,-262
0,3690979,2340,-1314,-411,3899,-240,-296,82,74,-262
0,3690995,2340,-1314,-411,3899,-240,-296,82,74,-262
0,3691006,2333,-1307,-400,3901,-245,-288,72,68,-270
0,3691021,2344,-1309,-415,3902,-237,-290,72,68,-270
0,3691034,2344,-1309,-415,3902,-237,-290,72,68,-270
0,3691047,2331,-1303,-402,3894,-234,-302,72,68,-270
0,3691063,2342,-1307,-416,3885,-247,-306,72,68,-270
0,3691076,2342,-1307,-416,3885,-247,-306,72,68,-270
0,3691088,2329,-1304,-399,3899,-254,-308,72,68,-270
0,3691104,2338,-1310,-404,3894,-243,-301,72,68,-270
0,3691119,2341,-1294,-396,3881,-237,-305,78,70,-276
0,3691134,2341,-1294,-396,3881,-237,-305,78,70,-276
0,3691150,2336,-1310,-403,3887,-238,-300,78,70,-276
0,3691162,2339,-1297,-368,3889,-241,-302,78,70,-276
0,3691175,2339,-1297,-368,3889,-241,-302,78,70,-276
0,3691190,2333,-1315,-398,3895,-250,-298,78,70,-276
0,3691204,2337,-1293,-403,3886,-241,-308,78,70,-276
0,3691217,2338,-1311,-390,3889,-236,-306,78,70,-276
0,3691231,2338,-1311,-390,3889,-236,-306,78,70,-276
0,3691246,2336,-1297,-378,3886,-244,-305,78,70,-276
0,3691258,2339,-1308,-380,3891,-251,-298,68,70,-284
0,3691272,2339,-1308,-380,3891,-251,-298,68,70,-284
0,3691287,2330,-1299,-382,3893,-241,-297,68,70,-284
0,3691300,2341,-1308,-387,3893,-235,-300,68,70,-284
0,3691315,2341,-1308,-387,3893,-235,-300,68,70,-284
0,3691329,2335,-1298,-364,3883,-243,-292,68,70,-284
0,3691344,2337,-1308,-365,3882,-250,-294,68,70,-284
0,3691360,2334,-1298,-369,3885,-244,-306,68,70,-284
0,3691373,2334,-1298,-369,3885,-244,-306,68,70,-284
0,3691381,2337,-1319,-373,3896,-235,-300,76,68,-280
0,3691394,2337,-1319,-373,3896,-235,-300,76,68,-280
0,3691409,2341,-1294,-374,3895,-235,-306,76,68,-280
0,3691423,2333,-1318,-362,3894,-239,-301,76,68,-280
0,3691437,2333,-1318,-362,3894,-239,-301,76,68,-280
0,3691450,2333,-1294,-378,3894,-239,-305,76,68,-280
0,3691465,2339,-1315,-363,3895,-234,-303,76,68,-280
0,3691480,2338,-1302,-364,3893,-238,-304,76,68,-280
0,3691492,2338,-1302,-364,3893,-238,-304,76,68,-280
0,3691506,2345,-1310,-368,3894,-246,-300,81,61,-287
0,3691518,2331,-1308,-341,3899,-246,-298,81,61,-287
0,3691533,2331,-1308,-341,3899,-246,-298,81,61,-287
0,3691548,2342,-1309,-366,3896,-240,-304,81,61,-287
0,3691564,2338,-1306,-345,3894,-242,-303,81,61,-287
0,3691579,2341,-1318,-367,3900,-237,-294,81,61,-287
0,3691593,2341,-1318,-367,3900,-237,-294,81,61,-287
0,3691608,2339,-1300,-373,3911,-239,-293,81,61,-287
0,3691621,2338,-1324,-376,3907,-240,-296,81,61,-287
0,3691634,2338,-1324,-376,3907,-240,-296,81,61,-287
0,3691648,2338,-1300,-383,3906,-235,-302,79,61,-293
0,3691661,2335,-1324,-390,3898,-240,-305,79,61,-293
0,3691675,2335,-1324,-390,3898,-240,-305,79,61,-293
0,3691688,2335,-1303,-383,3895,-244,-302,79,61,-293
0,3691703,2338,-1316,-376,3896,-237,-292,79,61,-293
0,3691716,2338,-1316,-376,3896,-237,-292,79,61,-293
0,3691729,2337,-1308,-380,3904,-240,-296,79,61,-293
0,3691742,2342,-1314,-386,3908,-239,-304,79,61,-293
0,3691757,2342,-1314,-386,3908,-239,-304,79,61,-293
0,3691771,2336,-1310,-388,3907,-235,-303,80,66,-292
0,3691786,2343,-1312,-382,3910,-238,-305,80,66,-292
0,3691797,2334,-1310,-419,3909,-235,-307,80,66,-292
0,3691812,2334,-1310,-419,3909,-235,-307,80,66,-292
0,3691826,2339,-1314,-407,3908,-230,-298,80,66,-292
0,3691839,2338,-1306,-403,3916,-233,-296,80,66,-292
0,3691853,2338,-1306,-403,3916,-233,-296,80,66,-292
0,3691868,2335,-1315,-405,3905,-235,-307,80,66,-292
0,3691881,2339,-1303,-415,3896,-237,-307,80,66,-292
0,3691893,2339,-1303,-415,3896,-237,-307,80,66,-292
0,3691908,2340,-1315,-411,3896,-230,-306,87,63,-301
0,3691921,2343,-1300,-415,3902,-234,-305,87,63,-301
0,3691933,2343,-1300,-415,3902,-234,-305,87,63,-301
0,3691941,2337,-1315,-398,3902,-242,-302,87,63,-301
0,3691951,2337,-1315,-398,3902,-242,-302,87,63,-301
0,3691959,2334,-1305,-421,3896,-243,-305,87,63,-301
0,3691966,2334,-1305,-421,3896,-243,-305,87,63,-301
0,3691974,2334,-1305,-421,3896,-243,-305,87,63,-301
0,3691983,2340,-1305,-410,3899,-224,-304,87,63,-301
0,3691992,2340,-1305,-410,3899,-224,-304,87,63,-301
0,3692001,2337,-1309,-412,3896,-230,-307,87,63,-301
0,3692009,2337,-1309,-412,3896,-230,-307,87,63,-301
0,3692018,2330,-1298,-395,3898,-245,-309,89,65,-297
0,3692026,2330,-1298,-395,3898,-245,-309,89,65,-297
0,3692035,2330,-1298,-395,3898,-245,-309,89,65,-297
0,3692043,2333,-1307,-409,3903,-247,-301,89,65,-297
0,3692052,2333,-1307,-409,3903,-247,-301,89,65,-297
0,3692060,2336,-1302,-408,3891,-234,-306,89,65,-297
0,3692068,2336,-1302,-408,3891,-234,-306,89,65,-297
0,3692077,2336,-1302,-408,3891,-234,-306,89,65,-297
0,3692085,2343,-1303,-406,3893,-233,-297,89,65,-297
0,3692094,2343,-1303,-406,3893,-233,-297,89,65,-297
0,3692102,2337,-1310,-378,3889,-237,-303,89,65,-297
0,3692111,2337,-1310,-378,3889,-237,-303,89,65,-297
0,3692120,2339,-1305,-387,3891,-252,-301,89,65,-297
0,3692129,2339,-1305,-387,3891,-252,-301,89,65,-297
0,3692136,2339,-1305,-387,3891,-252,-301,89,65,-297
0,3692146,2333,-1304,-408,3889,-239,-297,89,65,-297
0,3692153,2333,-1304,-408,3889,-239,-297,89,65,-297
0,3692163,2337,-1302,-383,3893,-226,-298,93,77,-311
0,3692171,2337,-1302,-383,3893,-226,-298,93,77,-311
0,3692180,2340,-1302,-394,3889,-236,-296,93,77,-311
0,3692189,2340,-1302,-394,3889,-236,-296,93,77,-311
0,3692198,2328,-1308,-377,3898,-243,-297,93,77,-311
0,3692206,2328,-1308,-377,3898,-243,-297,93,77,-311
0,3692214,2328,-1308,-377,3898,-243,-297,93,77,-311
0,3692223,2339,-1304,-396,3899,-237,-298,93,77,-311
0,3692231,2339,-1304,-396,3899,-237,-298,93,77,-311
0,3692239,2337,-1306,-376,3895,-232,-290,93,77,-311
0,3692249,2337,-1306,-376,3895,-232,-290,93,77,-311
0,3692256,2337,-1306,-376,3895,-232,-290,93,77,-311
0,3692265,2345,-1304,-380,3893,-242,-303,93,77,-311
0,3692273,2345,-1304,-380,3893,-242,-303,93,77,-311
0,3692281,2334,-1306,-364,3892,-243,-306,98,74,-300
0,3692290,2334,-1306,-364,3892,-243,-306,98,74,-300
0,3692299,2334,-1306,-364,3892,-243,-306,98,74,-300
0,3692307,2334,-1306,-364,3892,-243,-306,98,74,-300
0,3692316,2334,-1306,-364,3892,-243,-306,98,74,-300
0,3692324,2341,-1304,-378,3888,-231,-304,98,74,-300
0,3692334,2341,-1304,-378,3888,-231,-304,98,74,-300
0,3692342,2335,-1303,-374,3897,-235,-300,98,74,-300
0,3692350,2335,-1303,-374,3897,-235,-300,98,74,-300
0,3692358,2342,-1303,-369,3903,-235,-305,98,74,-300
0,3692366,2342,-1303,-369,3903,-235,-305,98,74,-300
0,3692375,2342,-1303,-369,3903,-235,-305,98,74,-300
0,3692384,2333,-1311,-374,3904,-244,-296,98,74,-300
0,3692392,2333,-1311,-374,3904,-244,-296,98,74,-300
0,3692401,2339,-1310,-368,3903,-239,-294,109,81,-315
0,3692410,2339,-1310,-368,3903,-239,-294,109,81,-315
0,3692420,2341,-1303,-360,3893,-234,-299,109,81,-315
0,3692429,2341,-1303,-360,3893,-234,-299,109,81,-315
0,3692438,2341,-1303,-360,3893,-234,-299,109,81,-315
0,3692447,2338,-1312,-372,3897,-235,-298,109,81,-315
0,3692455,2338,-1312,-372,3897,-235,-298,109,81,-315
0,3692467,2338,-1304,-347,3894,-241,-295,109,81,-315
0,3692475,2338,-1304,-347,3894,-241,-295,109,81,-315
0,3692483,2337,-1313,-369,3901,-234,-299,109,81,-315
0,3692492,2337,-1313,-369,3901,-234,-299,109,81,-315
0,3692500,2337,-1313,-369,3901,-234,-299,109,81,-315
0,3692509,2337,-1313,-369,3901,-234,-299,109,81,-315
0,3692516,2337,-1313,-369,3901,-234,-299,109,81,-315
0,3692525,2339,-1316,-371,3908,-238,-299,109,81,-315
0,3692534,2339,-1316,-371,3908,-238,-299,109,81,-315
0,3692542,2338,-1312,-370,3901,-239,-302,113,83,-317
0,3692551,2338,-1312,-370,3901,-239,-302,113,83,-317
0,3692559,2344,-1316,-375,3904,-236,-304,113,83,-317
0,3692566,2344,-1316,-375,3904,-236,-304,113,83,-317
0,3692575,2344,-1316,-375,3904,-236,-304,113,83,-317
0,3692583,2331,-1317,-380,3905,-239,-302,113,83,-317
0,3692592,2331,-1317,-380,3905,-239,-302,113,83,-317
0,3692600,2340,-1310,-391,3902,-239,-295,113,83,-317
0,3692608,2340,-1310,-391,3902,-239,-295,113,83,-317
0,3692616,2340,-1310,-391,3902,-239,-295,113,83,-317
0,3692625,2335,-1314,-386,3907,-242,-295,113,83,-317
0,3692635,2335,-1314,-386,3907,-242,-295,113,83,-317
0,3692645,2335,-1313,-383,3900,-237,-290,113,83,-317
0,3692653,2335,-1313,-383,3900,-237,-290,113,83,-317
0,3692661,2339,-1309,-383,3904,-236,-293,120,88,-310
0,3692669,2339,-1309,-383,3904,-236,-293,120,88,-310
0,3692679,2337,-1318,-383,3903,-232,-297,120,88,-310
0,3692687,2337,-1318,-383,3903,-232,-297,120,88,-310
0,3692696,2337,-1318,-383,3903,-232,-297,120,88,-310
0,3692704,2338,-1307,-389,3906,-240,-301,120,88,-310
0,3692712,2338,-1307,-389,3906,-240,-301,120,88,-310
0,3692723,2333,-1316,-388,3908,-234,-300,120,88,-310
0,3692732,2333,-1316,-388,3908,-234,-300,120,88,-310
0,3692740,2334,-1311,-425,3905,-234,-297,120,88,-310
0,3692750,2334,-1311,-425,3905,-234,-297,120,88,-310
0,3692759,2334,-1311,-425,3905,-234,-297,120,88,-310
0,3692767,2337,-1306,-393,3908,-225,-297,120,88,-310
0,3692776,2337,-1306,-393,3908,-225,-297,120,88,-310
0,3692782,2338,-1318,-403,3912,-237,-292,120,88,-310
0,3692791,2338,-1318,-403,3912,-237,-292,120,88,-310
0,3692801,2338,-1309,-405,3906,-240,-298,113,89,-317
0,3692810,2338,-1309,-405,3906,-240,-298,113,89,-317
0,3692818,2338,-1309,-405,3906,-240,-298,113,89,-317
0,3692826,2334,-1317,-422,3902,-232,-298,113,89,-317
0,3692834,2334,-1317,-422,3902,-232,-298,113,89,-317
0,3692844,2341,-1305,-418,3893,-231,-300,113,89,-317
0,3692853,2341,-1305,-418,3893,-231,-300,113,89,-317
0,3692863,2340,-1312,-410,3892,-239,-300,113,89,-317
0,3692872,2340,-1312,-410,3892,-239,-300,113,89,-317
0,3692881,2335,-1310,-398,3896,-243,-300,113,89,-317
0,3692891,2335,-1310,-398,3896,-243,-300,113,89,-317
0,3692900,2336,-1308,-424,3893,-239,-300,113,89,-317
0,3692908,2336,-1308,-424,3893,-239,-300,113,89,-317
0,3692918,2336,-1308,-424,3893,-239,-300,113,89,-317
0,3692925,2330,-1307,-409,3897,-231,-295,125,85,-325
0,3692935,2330,-1307,-409,3897,-231,-295,125,85,-325
0,3692948,2341,-1307,-403,3893,-232,-296,125,85,-325
0,3692961,2334,-1306,-398,3901,-244,-300,125,85,-325
0,3692977,2334,-1306,-398,3901,-244,-300,125,85,-325
0,3692990,2338,-1306,-416,3893,-242,-304,125,85,-325
0,3693001,2336,-1305,-406,3891,-237,-307,125,85,-325
0,3693016,2336,-1305,-406,3891,-237,-307,125,85,-325
0,3693030,2340,-1310,-403,3892,-241,-301,125,85,-325
0,3693043,2339,-1299,-386,3892,-245,-293,125,85,-325
0,3693058,2339,-1299,-386,3892,-245,-293,125,85,-325
0,3693071,2330,-1315,-370,3884,-249,-295,120,88,-322
0,3693085,2337,-1306,-415,3886,-242,-303,120,88,-322
0,3693099,2337,-1306,-415,3886,-242,-303,120,88,-322
0,3693114,2337,-1313,-381,3889,-233,-294,120,88,-322
0,3693124,2340,-1301,-394,3893,-242,-304,120,88,-322
0,3693138,2340,-1301,-394,3893,-242,-304,120,88,-322
0,3693154,2335,-1306,-368,3898,-245,-297,120,88,-322
0,3693167,2330,-1309,-389,3890,-243,-296,120,88,-322
0,3693181,2337,-1300,-373,3891,-239,-304,132,84,-320
0,3693195,2337,-1300,-373,3891,-239,-304,132,84,-320
0,3693206,2342,-1308,-338,3888,-244,-302,132,84,-320
0,3693220,2334,-1307,-366,3891,-250,-294,132,84,-320
0,3693234,2334,-1307,-366,3891,-250,-294,132,84,-320
0,3693247,2337,-1308,-395,3893,-234,-295,132,84,-320
0,3693260,2336,-1315,-369,3892,-230,-304,132,84,-320
0,3693275,2336,-1315,-369,3892,-230,-304,132,84,-320
0,3693285,2344,-1304,-374,3889,-234,-304,132,84,-320
0,3693299,2344,-1304,-374,3889,-234,-304,132,84,-320
0,3693315,2335,-1314,-364,3901,-250,-294,144,74,-316
0,3693330,2331,-1304,-384,3895,-252,-293,144,74,-316
0,3693343,2338,-1305,-386,3901,-237,-302,144,74,-316
0,3693357,2338,-1305,-386,3901,-237,-302,144,74,-316
0,3693372,2335,-1305,-342,3899,-239,-297,144,74,-316
0,3693387,2341,-1308,-374,3892,-241,-301,144,74,-316
0,3693401,2334,-1310,-354,3892,-240,-300,144,74,-316
0,3693413,2334,-1310,-354,3892,-240,-300,144,74,-316
0,3693427,2344,-1316,-377,3899,-235,-296,144,74,-316
0,3693437,2344,-1316,-377,3899,-235,-296,144,74,-316
0,3693452,2337,-1307,-354,3905,-238,-297,143,85,-325
0,3693465,2341,-1320,-361,3903,-246,-298,143,85,-325
0,3693479,2341,-1320,-361,3903,-246,-298,143,85,-325
0,3693493,2332,-1301,-379,3900,-244,-303,143,85,-325
0,3693506,2335,-1322,-386,3903,-237,-303,143,85,-325
0,3693518,2335,-1322,-386,3903,-237,-303,143,85,-325
0,3693533,2339,-1301,-375,3905,-235,-304,143,85,-325
0,3693548,2339,-1321,-390,3906,-244,-298,143,85,-325
0,3693563,2334,-1310,-380,3904,-243,-297,148,74,-322
0,3693576,2334,-1310,-380,3904,-243,-297,148,74,-322
0,3693591,2337,-1318,-389,3904,-244,-303,148,74,-322
0,3693606,2334,-1319,-380,3900,-245,-294,148,74,-322
0,3693622,2341,-1315,-381,3901,-239,-288,148,74,-322
0,3693635,2341,-1315,-381,3901,-239,-288,148,74,-322
0,3693648,2331,-1318,-383,3910,-236,-295,148,74,-322
0,3693662,2338,-1312,-397,3904,-234,-300,148,74,-322
0,3693674,2338,-1312,-397,3904,-234,-300,148,74,-322
0,3693687,2335,-1315,-392,3904,-233,-295,148,74,-322
0,3693702,2334,-1312,-419,3901,-239,-296,151,81,-325
0,3693715,2334,-1312,-419,3901,-239,-296,151,81,-325
0,3693728,2338,-1313,-390,3905,-236,-293,151,81,-325
0,3693743,2332,-1317,-404,3908,-231,-291,151,81,-325
0,3693754,2332,-1317,-404,3908,-231,-291,151,81,-325
0,3693768,2338,-1310,-402,3894,-239,-302,151,81,-325
0,3693783,2336,-1316,-418,3899,-237,-306,151,81,-325
0,3693797,2336,-1316,-418,3899,-237,-306,151,81,-325
0,3693810,2333,-1315,-414,3896,-243,-301,151,81,-325
0,3693826,2338,-1316,-408,3907,-244,-297,162,78,-318
0,3693840,2331,-1314,-410,3894,-243,-299,162,78,-318
0,3693853,2331,-1314,-410,3894,-243,-299,162,78,-318
0,3693867,2340,-1310,-421,3892,-238,-299,162,78,-318
0,3693881,2330,-1307,-403,3897,-232,-298,162,78,-318
0,3693893,2330,-1307,-403,3897,-232,-298,162,78,-318
0,3693905,2340,-1313,-412,3897,-234,-296,162,78,-318
0,3693919,2340,-1313,-412,3897,-234,-296,162,78,-318
0,3693932,2333,-1304,-400,3896,-237,-299,162,78,-318
0,3693945,2335,-1319,-401,3885,-241,-301,162,78,-318
0,3693955,2335,-1319,-401,3885,-241,-301,162,78,-318
0,3693964,2336,-1301,-405,3883,-235,-296,162,78,-318
0,3693973,2336,-1301,-405,3883,-235,-296,162,78,-318
0,3693981,2335,-1318,-390,3887,-230,-298,162,78,-318
0,3693990,2335,-1318,-390,3887,-230,-298,162,78,-318
0,3693998,2335,-1318,-390,3887,-230,-298,162,78,-318
0,3694007,2335,-1302,-371,3894,-241,-299,162,78,-318
0,3694016,2335,-1302,-371,3894,-241,-299,162,78,-318
0,3694025,2333,-1313,-420,3897,-242,-304,162,78,-318
0,3694032,2333,-1313,-420,3897,-242,-304,162,78,-318
0,3694042,2331,-1305,-382,3896,-231,-301,162,78,-318
0,3694049,2331,-1305,-382,3896,-231,-301,162,78,-318
0,3694058,2331,-1305,-382,3896,-231,-301,162,78,-318
0,3694066,2344,-1310,-402,3895,-238,-301,162,78,-318
0,3694074,2344,-1310,-402,3895,-238,-301,162,78,-318
0,3694084,2331,-1306,-365,3887,-248,-294,172,70,-316
0,3694093,2331,-1306,-365,3887,-248,-294,172,70,-316
0,3694101,2336,-1311,-393,3888,-241,-290,172,70,-316
0,3694111,2336,-1311,-393,3888,-241,-290,172,70,-316
0,3694119,2336,-1311,-393,3888,-241,-290,172,70,-316
0,3694128,2331,-1307,-375,3886,-231,-306,172,70,-316
0,3694136,2331,-1307,-375,3886,-231,-306,172,70,-316
0,3694143,2341,-1310,-377,3891,-228,-298,172,70,-316
0,3694151,2341,-1310,-377,3891,-228,-298,172,70,-316
0,3694159,2341,-1310,-377,3891,-228,-298,172,70,-316
0,3694169,2332,-1308,-335,3894,-236,-304,172,70,-316
0,3694176,2332,-1308,-335,3894,-236,-304,172,70,-316
0,3694183,2332,-1312,-383,3897,-249,-307,172,70,-316
0,3694192,2332,-1312,-383,3897,-249,-307,172,70,-316
0,3694199,2332,-1312,-383,3897,-249,-307,172,70,-316
0,3694208,2332,-1307,-362,3891,-230,-304,178,64,-312
0,3694217,2332,-1307,-362,3891,-230,-304,178,64,-312
0,3694225,2338,-1314,-388,3899,-232,-308,178,64,-312
0,3694233,2338,-1314,-388,3899,-232,-308,178,64,-312
0,3694241,2336,-1305,-358,3895,-238,-305,178,64,-312
0,3694249,2336,-1305,-358,3895,-238,-305,178,64,-312
0,3694259,2336,-1305,-358,3895,-238,-305,178,64,-312
0,3694268,2333,-1316,-385,3896,-244,-302,178,64,-312
0,3694276,2333,-1316,-385,3896,-244,-302,178,64,-312
0,3694285,2331,-1313,-383,3899,-239,-298,178,64,-312
0,3694294,2331,-1313,-383,3899,-239,-298,178,64,-312
0,3694303,2339,-1314,-370,3896,-230,-300,178,64,-312
0,3694310,2339,-1314,-370,3896,-230,-300,178,64,-312
0,3694319,2339,-1314,-370,3896,-230,-300,178,64,-312
0,3694327,2334,-1314,-359,3895,-241,-293,178,64,-312
0,3694334,2334,-1314,-359,3895,-241,-293,178,64,-312
0,3694344,2338,-1310,-357,3890,-246,-294,181,59,-311
0,3694351,2338,-1310,-357,3890,-246,-294,181,59,-311
0,3694360,2328,-1317,-361,3902,-238,-301,181,59,-311
0,3694368,2328,-1317,-361,3902,-238,-301,181,59,-311
0,3694379,2328,-1317,-361,3902,-238,-301,181,59,-311
0,3694387,2336,-1314,-370,3895,-236,-300,181,59,-311
0,3694394,2336,-1314,-370,3895,-236,-300,181,59,-311
0,3694403,2336,-1312,-355,3906,-239,-298,181,59,-311
0,3694410,2336,-1312,-355,3906,-239,-298,181,59,-311
0,3694418,2336,-1312,-355,3906,-239,-298,181,59,-311
0,3694426,2332,-1315,-379,3909,-241,-299,181,59,-311
0,3694434,2332,-1315,-379,3909,-241,-299,181,59,-311
0,3694442,2335,-1312,-383,3899,-234,-305,181,59,-311
0,3694451,2335,-1312,-383,3899,-234,-305,181,59,-311
0,3694459,2335,-1312,-383,3899,-234,-305,181,59,-311
0,3694468,2336,-1322,-369,3895,-227,-302,182,54,-308
0,3694476,2336,-1322,-369,3895,-227,-302,182,54,-308
0,3694483,2338,-1311,-383,3893,-242,-301,182,54,-308
0,3694491,2338,-1311,-383,3893,-242,-301,182,54,-308
0,3694498,2338,-1311,-383,3893,-242,-301,182,54,-308
0,3694508,2338,-1319,-381,3905,-246,-295,182,54,-308
0,3694515,2338,-1319,-381,3905,-246,-295,182,54,-308
0,3694524,2333,-1313,-383,3903,-243,-296,182,54,-308
0,3694533,2333,-1313,-383,3903,-243,-296,182,54,-308
0,3694542,2343,-1319,-378,3898,-233,-300,182,54,-308
0,3694552,2343,-1319,-378,3898,-233,-300,182,54,-308
0,3694560,2343,-1319,-378,3898,-233,-300,182,54,-308
0,3694566,2334,-1319,-383,3910,-233,-297,182,54,-308
0,3694572,2334,-1319,-383,3910,-233,-297,182,54,-308
0,3694578,2334,-1319,-383,3910,-233,-297,182,54,-308
0,3694587,2337,-1318,-386,3907,-233,-306,182,54,-308
0,3694596,2337,-1318,-386,3907,-233,-306,182,54,-308
0,3694606,2331,-1315,-379,3912,-234,-306,197,55,-291
0,3694616,2331,-1315,-379,3912,-234,-306,197,55,-291
0,3694625,2337,-1320,-385,3901,-233,-300,197,55,-291
0,3694635,2337,-1320,-385,3901,-233,-300,197,55,-291
0,3694643,2336,-1308,-421,3896,-231,-296,197,55,-291
0,3694652,2336,-1308,-421,3896,-231,-296,197,55,-291
0,3694661,2337,-1318,-401,3913,-238,-297,197,55,-291
0,3694668,2337,-1318,-401,3913,-238,-297,197,55,-291
0,3694678,2337,-1318,-401,3913,-238,-297,197,55,-291
0,3694687,2338,-1315,-398,3896,-237,-299,197,55,-291
0,3694695,2338,-1315,-398,3896,-237,-299,197,55,-291
0,3694704,2333,-1320,-410,3898,-244,-307,197,55,-291
0,3694713,2333,-1320,-410,3898,-244,-307,197,55,-291
0,3694723,2339,-1312,-407,3895,-239,-302,196,60,-294
0,3694732,2339,-1312,-407,3895,-239,-302,196,60,-294
0,3694740,2339,-1312,-407,3895,-239,-302,196,60,-294
0,3694749,2336,-1314,-406,3911,-236,-299,196,60,-294
0,3694757,2336,-1314,-406,3911,-236,-299,196,60,-294
0,3694766,2339,-1311,-410,3897,-239,-304,196,60,-294
0,3694774,2339,-1311,-410,3897,-239,-304,196,60,-294
0,3694783,2332,-1312,-400,3902,-247,-295,196,60,-294
0,3694793,2332,-1312,-400,3902,-247,-295,196,60,-294
0,3694802,2335,-1316,-427,3888,-246,-297,196,60,-294
0,3694813,2335,-1316,-427,3888,-246,-297,196,60,-294
0,3694821,2335,-1316,-427,3888,-246,-297,196,60,-294
0,3694829,2334,-1306,-406,3897,-240,-295,196,60,-294
0,3694838,2334,-1306,-406,3897,-240,-295,196,60,-294
0,3694846,2341,-1311,-409,3890,-241,-297,202,58,-298
0,3694856,2341,-1311,-409,3890,-241,-297,202,58,-298
0,3694865,2331,-1303,-391,3899,-242,-296,202,58,-298
0,3694873,2331,-1303,-391,3899,-242,-296,202,58,-298
0,3694883,2338,-1312,-415,3900,-239,-299,202,58,-298
0,3694894,2338,-1312,-415,3900,-239,-299,202,58,-298
0,3694902,2331,-1308,-393,3889,-231,-305,202,58,-298
0,3694911,2331,-1308,-393,3889,-231,-305,202,58,-298
0,3694919,2331,-1308,-393,3889,-231,-305,202,58,-298
0,3694928,2339,-1312,-402,3896,-226,-306,202,58,-298
0,3694938,2339,-1312,-402,3896,-226,-306,202,58,-298
0,3694946,2332,-1309,-366,3890,-240,-298,202,58,-298
0,3694957,2332,-1309,-366,3890,-240,-298,202,58,-298
0,3694970,2336,-1312,-402,3887,-240,-303,202,58,-298
0,3694984,2332,-1303,-395,3888,-235,-300,208,52,-294
0,3694996,2332,-1303,-395,3888,-235,-300,208,52,-294
0,3695010,2335,-1315,-384,3886,-239,-300,208,52,-294
0,3695025,2336,-1301,-381,3887,-243,-301,208,52,-294
0,3695039,2336,-1301,-381,3887,-243,-301,208,52,-294
0,3695053,2334,-1316,-382,3885,-248,-302,208,52,-294
0,3695067,2335,-1303,-381,3890,-232,-305,208,52,-294
0,3695080,2335,-1303,-381,3890,-232,-305,208,52,-294
0,3695094,2336,-1315,-385,3891,-237,-307,208,52,-294
0,3695108,2337,-1304,-335,3898,-234,-300,218,50,-284
0,3695121,2337,-1304,-335,3898,-234,-300,218,50,-284
0,3695133,2335,-1313,-367,3891,-247,-301,218,50,-284
0,3695149,2332,-1308,-373,3882,-243,-299,218,50,-284
0,3695161,2332,-1308,-373,3882,-243,-299,218,50,-284
0,3695176,2338,-1312,-384,3890,-236,-298,218,50,-284
0,3695188,2336,-1303,-364,3889,-234,-296,218,50,-284
0,3695203,2339,-1314,-368,3889,-245,-303,218,50,-284
0,3695218,2339,-1314,-368,3889,-245,-303,218,50,-284
0,3695233,2330,-1306,-386,3896,-245,-303,218,50,-284
0,3695247,2337,-1321,-364,3895,-231,-306,218,52,-278
0,3695260,2337,-1321,-364,3895,-231,-306,218,52,-278
0,3695276,2339,-1307,-355,3902,-237,-301,218,52,-278
0,3695290,2336,-1317,-365,3896,-238,-298,218,52,-278
0,3695305,2331,-1308,-352,3892,-243,-294,218,52,-278
0,3695315,2331,-1308,-352,3892,-243,-294,218,52,-278
0,3695330,2341,-1321,-381,3896,-239,-303,218,52,-278
0,3695344,2338,-1303,-347,3906,-241,-297,218,52,-278
0,3695357,2338,-1303,-347,3906,-241,-297,218,52,-278
0,3695372,2341,-1325,-360,3902,-243,-302,225,47,-279
0,3695385,2331,-1311,-374,3905,-236,-300,225,47,-279
0,3695396,2331,-1311,-374,3905,-236,-300,225,47,-279
0,3695410,2339,-1324,-379,3903,-232,-301,225,47,-279
0,3695425,2338,-1312,-368,3906,-235,-300,225,47,-279
0,3695438,2338,-1312,-368,3906,-235,-300,225,47,-279
0,3695453,2340,-1321,-380,3903,-246,-301,225,47,-279
0,3695468,2332,-1311,-381,3904,-239,-298,225,47,-279
0,3695483,2338,-1322,-379,3903,-227,-299,225,47,-279
0,3695499,2338,-1322,-379,3903,-227,-299,225,47,-279
0,3695514,2336,-1307,-380,3908,-240,-293,220,44,-276
0,3695527,2336,-1307,-380,3908,-240,-293,220,44,-276
0,3695541,2336,-1307,-380,3908,-240,-293,220,44,-276
0,3695554,2336,-1310,-380,3907,-233,-301,220,44,-276
0,3695566,2337,-1323,-384,3911,-238,-307,220,44,-276
0,3695577,2337,-1323,-384,3911,-238,-307,220,44,-276
0,3695590,2336,-1312,-408,3907,-238,-301,220,44,-276
0,3695600,2336,-1312,-408,3907,-238,-301,220,44,-276
0,3695612,2341,-1316,-420,3906,-237,-299,220,44,-276
0,3695627,2332,-1319,-368,3896,-236,-296,222,44,-264
0,3695640,2332,-1319,-368,3896,-236,-296,222,44,-264
0,3695653,2337,-1315,-405,3896,-246,-297,222,44,-264
0,3695669,2331,-1319,-403,3909,-230,-296,222,44,-264
0,3695680,2331,-1319,-403,3909,-230,-296,222,44,-264
0,3695694,2342,-1316,-415,3902,-230,-310,222,44,-264
0,3695709,2337,-1312,-399,3900,-229,-296,222,44,-264
0,3695724,2337,-1319,-394,3902,-238,-299,222,44,-264
0,3695735,2337,-1319,-394,3902,-238,-299,222,44,-264
0,3695750,2332,-1309,-410,3889,-245,-296,227,37,-259
0,3695763,2334,-1316,-408,3904,-238,-297,227,37,-259
0,3695775,2334,-1316,-408,3904,-238,-297,227,37,-259
0,3695789,2341,-1309,-401,3904,-237,-297,227,37,-259
0,3695800,2341,-1309,-401,3904,-237,-297,227,37,-259
0,3695813,2334,-1315,-395,3900,-241,-297,227,37,-259
0,3695826,2335,-1310,-409,3897,-240,-305,227,37,-259
0,3695840,2335,-1310,-409,3897,-240,-305,227,37,-259
0,3695853,2333,-1313,-403,3890,-238,-298,227,37,-259
0,3695865,2336,-1312,-403,3901,-234,-298,227,37,-259
0,3695879,2336,-1312,-403,3901,-234,-298,227,37,-259
0,3695892,2338,-1308,-371,3888,-242,-307,221,51,-263
0,3695905,2338,-1312,-382,3895,-244,-312,221,51,-263
0,3695921,2338,-1312,-382,3895,-244,-312,221,51,-263
0,3695936,2333,-1307,-409,3881,-239,-301,221,51,-263
0,3695949,2337,-1314,-387,3888,-234,-298,221,51,-263
0,3695962,2337,-1314,-387,3888,-234,-298,221,51,-263
0,3695969,2341,-1308,-390,3890,-238,-300,221,51,-263
0,3695976,2341,-1308,-390,3890,-238,-300,221,51,-263
0,3695984,2337,-1315,-375,3894,-241,-296,221,51,-263
0,3695993,2337,-1315,-375,3894,-241,-296,221,51,-263
0,3696002,2337,-1315,-375,3894,-241,-296,221,51,-263
0,3696011,2335,-1312,-386,3897,-239,-301,229,49,-263
0,3696021,2335,-1312,-386,3897,-239,-301,229,49,-263
0,3696029,2337,-1307,-362,3892,-228,-305,229,49,-263
0,3696038,2337,-1307,-362,3892,-228,-305,229,49,-263
0,3696047,2342,-1309,-372,3885,-239,-301,229,49,-263
0,3696055,2342,-1309,-372,3885,-239,-301,229,49,-263
0,3696063,2333,-1306,-349,3889,-250,-301,229,49,-263
0,3696072,2333,-1306,-349,3889,-250,-301,229,49,-263
0,3696081,2333,-1306,-349,3889,-250,-301,229,49,-263
0,3696090,2332,-1310,-384,3889,-243,-304,229,49,-263
0,3696098,2332,-1310,-384,3889,-243,-304,229,49,-263
0,3696106,2336,-1311,-365,3895,-235,-299,229,49,-263
0,3696112,2336,-1311,-365,3895,-235,-299,229,49,-263
0,3696121,2336,-1311,-365,3895,-235,-299,229,49,-263
0,3696131,2339,-1307,-384,3899,-229,-303,229,49,-263
0,3696140,2339,-1307,-384,3899,-229,-303,229,49,-263
0,3696147,2333,-1311,-348,3900,-248,-299,223,45,-251
0,3696158,2333,-1311,-348,3900,-248,-299,223,45,-251
0,3696169,2337,-1314,-384,3893,-252,-307,223,45,-251
0,3696179,2337,-1314,-384,3893,-252,-307,223,45,-251
0,3696187,2333,-1310,-370,3893,-234,-298,223,45,-251
0,3696197,2333,-1310,-370,3893,-234,-298,223,45,-251
0,3696208,2340,-1314,-366,3895,-230,-295,223,45,-251
0,3696219,2340,-1314,-366,3895,-230,-295,223,45,-251
0,3696227,2341,-1309,-355,3895,-242,-300,223,45,-251
0,3696237,2341,-1309,-355,3895,-242,-300,223,45,-251
0,3696244,2337,-1319,-350,3904,-244,-296,223,45,-251
0,3696252,2337,-1319,-350,3904,-244,-296,223,45,-251
0,3696261,2337,-1319,-350,3904,-244,-296,223,45,-251
0,3696270,2336,-1307,-360,3900,-236,-294,223,45,-249
0,3696279,2336,-1307,-360,3900,-236,-294,223,45,-249
0,3696290,2340,-1312,-362,3898,-234,-299,223,45,-249
0,3696296,2340,-1312,-362,3898,-234,-299,223,45,-249
0,3696306,2338,-1318,-347,3911,-235,-295,223,45,-249
0,3696314,2338,-1318,-347,3911,-235,-295,223,45,-249
0,3696323,2333,-1313,-373,3907,-241,-304,223,45,-249
0,3696334,2333,-1313,-373,3907,-241,-304,223,45,-249
0,3696345,2337,-1320,-371,3904,-234,-302,223,45,-249
0,3696355,2337,-1320,-371,3904,-234,-302,223,45,-249
0,3696365,2337,-1314,-370,3911,-227,-298,223,45,-249
0,3696375,2337,-1314,-370,3911,-227,-298,223,45,-249
0,3696382,2337,-1314,-370,3911,-227,-298,223,45,-249
0,3696392,2336,-1320,-375,3913,-236,-303,219,49,-245
0,3696403,2337,-1314,-360,3905,-242,-302,219,49,-245
0,3696413,2337,-1314,-360,3905,-242,-302,219,49,-245
0,3696422,2337,-1314,-360,3905,-242,-302,219,49,-245
0,3696431,2337,-1323,-359,3901,-241,-302,219,49,-245
0,3696440,2337,-1323,-359,3901,-241,-302,219,49,-245
0,3696448,2337,-1318,-344,3909,-227,-303,219,49,-245
0,3696457,2337,-1318,-344,3909,-227,-303,219,49,-245
0,3696466,2341,-1319,-331,3914,-233,-301,219,49,-245
0,3696474,2341,-1319,-331,3914,-233,-301,219,49,-245
0,3696487,2334,-1317,-339,3913,-242,-297,219,49,-245
0,3696495,2334,-1317,-339,3913,-242,-297,219,49,-245
0,3696503,2339,-1320,-323,3918,-242,-298,219,49,-245
0,3696515,2339,-1320,-323,3918,-242,-298,219,49,-245
0,3696526,2336,-1321,-309,3917,-234,-299,225,41,-245
0,3696535,2336,-1321,-309,3917,-234,-299,225,41,-245
0,3696543,2341,-1324,-307,3919,-242,-305,225,41,-245
0,3696551,2341,-1324,-307,3919,-242,-305,225,41,-245
0,3696562,2341,-1324,-307,3919,-242,-305,225,41,-245
0,3696572,2341,-1326,-283,3923,-240,-292,225,41,-245
0,3696580,2341,-1326,-283,3923,-240,-292,225,41,-245
0,3696591,2339,-1331,-287,3915,-238,-302,225,41,-245
0,3696601,2339,-1331,-287,3915,-238,-302,225,41,-245
0,3696609,2340,-1332,-268,3933,-239,-297,225,41,-245
0,3696618,2340,-1332,-268,3933,-239,-297,225,41,-245
0,3696627,2341,-1336,-250,3934,-239,-294,225,41,-245
0,3696640,2341,-1336,-250,3934,-239,-294,225,41,-245
0,3696648,2337,-1341,-226,3944,-232,-292,217,43,-239
0,3696657,2337,-1341,-226,3944,-232,-292,217,43,-239
0,3696666,2343,-1345,-194,3943,-233,-303,217,43,-239
0,3696675,2343,-1345,-194,3943,-233,-303,217,43,-239
0,3696685,2343,-1345,-194,3943,-233,-303,217,43,-239
0,3696694,2343,-1345,-194,3943,-233,-303,217,43,-239
0,3696703,2338,-1356,-163,3963,-232,-308,217,43,-239
0,3696711,2338,-1356,-163,3963,-232,-308,217,43,-239
0,3696721,2338,-1356,-163,3963,-232,-308,217,43,-239
0,3696730,2344,-1361,-131,3970,-228,-305,217,43,-239
0,3696739,2344,-1361,-131,3970,-228,-305,217,43,-239
0,3696747,2347,-1368,-134,3971,-231,-296,217,43,-239
0,3696756,2347,-1368,-134,3971,-231,-296,217,43,-239
0,3696765,2341,-1376,-112,3989,-227,-297,217,43,-239
0,3696774,2341,-1376,-112,3989,-227,-297,217,43,-239
0,3696784,2343,-1382,-103,4000,-232,-298,215,53,-233
0,3696793,2343,-1382,-103,4000,-232,-298,215,53,-233
0,3696801,2343,-1382,-103,4000,-232,-298,215,53,-233
0,3696809,2345,-1390,-90,4017,-235,-294,215,53,-233
0,3696819,2345,-1390,-90,4017,-235,-294,215,53,-233
0,3696828,2344,-1400,-61,4028,-232,-293,215,53,-233
0,3696837,2344,-1400,-61,4028,-232,-293,215,53,-233
0,3696845,2346,-1405,-68,4040,-236,-291,215,53,-233
0,3696855,2346,-1405,-68,4040,-236,-291,215,53,-233
0,3696865,2347,-1416,-43,4053,-229,-299,215,53,-233
0,3696873,2347,-1416,-43,4053,-229,-299,215,53,-233
0,3696882,2347,-1416,-43,4053,-229,-299,215,53,-233
0,3696890,2346,-1424,-24,4066,-228,-301,215,53,-233
0,3696898,2346,-1424,-24,4066,-228,-301,215,53,-233
0,3696906,2348,-1434,-20,4071,-232,-306,209,57,-233
0,3696914,2348,-1434,-20,4071,-232,-306,209,57,-233
0,3696923,2348,-1434,-20,4071,-232,-306,209,57,-233
0,3696932,2344,-1444,-3,4088,-225,-307,209,57,-233
0,3696941,2344,-1444,-3,4088,-225,-307,209,57,-233
0,3696948,2348,-1459,-13,4103,-226,-297,209,57,-233
0,3696958,2348,-1459,-13,4103,-226,-297,209,57,-233
0,3696966,2349,-1464,6,4125,-220,-291,209,57,-233
0,3696980,2349,-1464,6,4125,-220,-291,209,57,-233
0,3696992,2354,-1481,2,4142,-219,-294,209,57,-233
0,3697005,2355,-1483,-5,4158,-221,-294,209,57,-233
0,3697018,2355,-1483,-5,4158,-221,-294,209,57,-233
0,3697033,2353,-1504,18,4172,-212,-300,209,57,-233
0,3697046,2354,-1502,13,4177,-214,-297,208,54,-232
0,3697060,2354,-1502,13,4177,-214,-297,208,54,-232
0,3697072,2353,-1525,19,4202,-212,-297,208,54,-232
0,3697086,2356,-1531,26,4220,-214,-294,208,54,-232
0,3697101,2356,-1531,26,4220,-214,-294,208,54,-232
0,3697115,2357,-1546,17,4229,-216,-297,208,54,-232
0,3697128,2356,-1560,25,4248,-216,-299,208,54,-232
0,3697143,2356,-1560,25,4248,-216,-299,208,54,-232
0,3697159,2356,-1560,25,4248,-216,-299,208,54,-232
0,3697173,2358,-1575,31,4288,-208,-299,205,61,-227
0,3697186,2358,-1589,12,4298,-209,-298,205,61,-227
0,3697201,2358,-1589,12,4298,-209,-298,205,61,-227
0,3697216,2358,-1602,-9,4313,-202,-302,205,61,-227
0,3697229,2358,-1614,-11,4330,-207,-296,205,61,-227
0,3697241,2358,-1614,-11,4330,-207,-296,205,61,-227
0,3697255,2362,-1617,-39,4350,-203,-297,205,61,-227
0,3697268,2361,-1633,-46,4361,-201,-294,205,61,-227
0,3697282,2361,-1633,-46,4361,-201,-294,205,61,-227
0,3697296,2363,-1639,-72,4378,-205,-291,203,51,-225
0,3697310,2362,-1650,-87,4379,-208,-299,203,51,-225
0,3697321,2362,-1650,-87,4379,-208,-299,203,51,-225
0,3697336,2364,-1658,-99,4394,-197,-299,203,51,-225
0,3697350,2364,-1666,-122,4410,-195,-303,203,51,-225
0,3697363,2364,-1666,-122,4410,-195,-303,203,51,-225
0,3697379,2366,-1672,-140,4427,-204,-299,203,51,-225
0,3697394,2363,-1677,-160,4428,-201,-292,203,51,-225
0,3697409,2363,-1685,-184,4437,-206,-303,203,51,-225
0,3697422,2363,-1685,-184,4437,-206,-303,203,51,-225
0,3697436,2365,-1693,-189,4440,-207,-300,195,57,-217
0,3697451,2365,-1700,-225,4453,-203,-294,195,57,-217
0,3697462,2365,-1700,-225,4453,-203,-294,195,57,-217
0,3697475,2364,-1701,-225,4461,-197,-304,195,57,-217
0,3697488,2365,-1699,-261,4464,-205,-302,195,57,-217
0,3697502,2365,-1699,-261,4464,-205,-302,195,57,-217
0,3697516,2366,-1711,-261,4466,-195,-301,195,57,-217
0,3697530,2371,-1712,-286,4464,-205,-299,195,57,-217
0,3697542,2371,-1712,-286,4464,-205,-299,195,57,-217
0,3697555,2368,-1713,-295,4475,-196,-305,181,53,-217
0,3697568,2368,-1721,-278,4478,-192,-296,181,53,-217
0,3697583,2368,-1721,-278,4478,-192,-296,181,53,-217
0,3697598,2368,-1716,-306,4485,-192,-294,181,53,-217
0,3697613,2365,-1721,-298,4492,-185,-289,181,53,-217
0,3697629,2368,-1720,-331,4491,-195,-304,181,53,-217
0,3697644,2368,-1720,-331,4491,-195,-304,181,53,-217
0,3697658,2364,-1729,-322,4493,-196,-296,181,53,-217
0,3697672,2368,-1726,-338,4494,-200,-299,181,53,-217
0,3697685,2367,-1725,-354,4499,-191,-295,189,61,-217
0,3697699,2367,-1725,-354,4499,-191,-295,189,61,-217
0,3697714,2366,-1736,-349,4496,-186,-291,189,61,-217
0,3697728,2369,-1726,-374,4499,-195,-301,189,61,-217
0,3697740,2369,-1726,-374,4499,-195,-301,189,61,-217
0,3697754,2365,-1732,-358,4496,-198,-297,189,61,-217
0,3697767,2367,-1723,-389,4503,-194,-301,189,61,-217
0,3697782,2367,-1723,-389,4503,-194,-301,189,61,-217
0,3697797,2368,-1730,-387,4500,-198,-300,189,61,-217
0,3697813,2367,-1731,-383,4496,-187,-303,186,66,-214
0,3697828,2365,-1726,-431,4491,-195,-304,186,66,-214
0,3697843,2365,-1726,-431,4491,-195,-304,186,66,-214
0,3697857,2366,-1733,-372,4501,-191,-294,186,66,-214
0,3697870,2365,-1728,-420,4498,-205,-299,186,66,-214
0,3697884,2365,-1728,-420,4498,-205,-299,186,66,-214
0,3697895,2362,-1728,-429,4499,-198,-301,186,66,-214
0,3697908,2367,-1723,-497,4489,-193,-294,186,66,-214
0,3697923,2367,-1723,-497,4489,-193,-294,186,66,-214
0,3697936,2363,-1716,-500,4494,-188,-299,186,66,-214
0,3697949,2376,-1722,-406,4493,-191,-299,168,58,-224
0,3697961,2376,-1722,-406,4493,-191,-299,168,58,-224
0,3697974,2363,-1717,-441,4479,-212,-296,168,58,-224
0,3697982,2363,-1717,-441,4479,-212,-296,168,58,-224
0,3697989,2359,-1719,-487,4476,-202,-297,168,58,-224
0,3697998,2359,-1719,-487,4476,-202,-297,168,58,-224
0,3698004,2359,-1719,-487,4476,-202,-297,168,58,-224
0,3698013,2371,-1710,-447,4473,-191,-297,168,58,-224
0,3698022,2371,-1710,-447,4473,-191,-297,168,58,-224
0,3698031,2362,-1724,-404,4466,-197,-299,168,58,-224
0,3698039,2362,-1724,-404,4466,-197,-299,168,58,-224
0,3698046,2367,-1701,-384,4470,-202,-300,168,58,-224
0,3698056,2367,-1701,-384,4470,-202,-300,168,58,-224
0,3698065,2367,-1701,-384,4470,-202,-300,168,58,-224
0,3698073,2363,-1713,-432,4468,-204,-298,163,59,-209
0,3698083,2363,-1713,-432,4468,-204,-298,163,59,-209
0,3698092,2363,-1702,-416,4464,-190,-293,163,59,-209
0,3698101,2363,-1702,-416,4464,-190,-293,163,59,-209
0,3698110,2374,-1708,-408,4468,-190,-296,163,59,-209
0,3698119,2374,-1708,-408,4468,-190,-296,163,59,-209
0,3698127,2359,-1704,-386,4465,-202,-299,163,59,-209
0,3698137,2359,-1704,-386,4465,-202,-299,163,59,-209
0,3698145,2359,-1704,-386,4465,-202,-299,163,59,-209
0,3698152,2369,-1714,-428,4466,-200,-298,163,59,-209
0,3698162,2369,-1714,-428,4466,-200,-298,163,59,-209
0,3698169,2362,-1697,-425,4470,-194,-300,163,59,-209
0,3698180,2362,-1697,-425,4470,-194,-300,163,59,-209
0,3698188,2370,-1715,-367,4464,-186,-301,167,57,-215
0,3698196,2370,-1715,-367,4464,-186,-301,167,57,-215
0,3698204,2370,-1715,-367,4464,-186,-301,167,57,-215
0,3698212,2362,-1696,-385,4468,-205,-296,167,57,-215
0,3698222,2362,-1696,-385,4468,-205,-296,167,57,-215
0,3698231,2361,-1711,-416,4465,-199,-293,167,57,-215
0,3698241,2361,-1711,-416,4465,-199,-293,167,57,-215
0,3698250,2364,-1695,-394,4467,-184,-297,167,57,-215
0,3698258,2364,-1695,-394,4467,-184,-297,167,57,-215
0,3698268,2372,-1705,-382,4465,-190,-296,167,57,-215
0,3698276,2372,-1705,-382,4465,-190,-296,167,57,-215
0,3698284,2372,-1705,-382,4465,-190,-296,167,57,-215
0,3698293,2364,-1703,-373,4471,-210,-297,167,57,-215
0,3698302,2364,-1703,-373,4471,-210,-297,167,57,-215
0,3698312,2361,-1706,-372,4465,-205,-297,167,57,-215
0,3698320,2361,-1706,-372,4465,-205,-297,167,57,-215
0,3698330,2361,-1709,-380,4470,-193,-297,151,49,-215
0,3698338,2361,-1709,-380,4470,-193,-297,151,49,-215
0,3698349,2370,-1704,-319,4467,-194,-299,151,49,-215
0,3698358,2370,-1704,-319,4467,-194,-299,151,49,-215
0,3698366,2360,-1703,-378,4475,-207,-298,151,49,-215
0,3698375,2360,-1703,-378,4475,-207,-298,151,49,-215
0,3698382,2360,-1703,-378,4475,-207,-298,151,49,-215
0,3698393,2360,-1709,-336,4472,-192,-298,151,49,-215
0,3698401,2360,-1709,-336,4472,-192,-298,151,49,-215
0,3698410,2369,-1708,-374,4468,-195,-301,151,49,-215
0,3698419,2369,-1708,-374,4468,-195,-301,151,49,-215
0,3698428,2363,-1713,-307,4480,-205,-298,151,49,-215
0,3698437,2363,-1713,-307,4480,-205,-298,151,49,-215
0,3698445,2363,-1713,-307,4480,-205,-298,151,49,-215
0,3698453,2366,-1711,-361,4476,-210,-301,144,48,-228
0,3698463,2366,-1711,-361,4476,-210,-301,144,48,-228
0,3698471,2359,-1715,-313,4479,-195,-296,144,48,-228
0,3698481,2359,-1715,-313,4479,-195,-296,144,48,-228
0,3698491,2367,-1711,-374,4478,-188,-290,144,48,-228
0,3698499,2367,-1711,-374,4478,-188,-290,144,48,-228
0,3698508,2365,-1711,-316,4472,-190,-291,144,48,-228
0,3698515,2365,-1711,-316,4472,-190,-291,144,48,-228
0,3698525,2365,-1711,-316,4472,-190,-291,144,48,-228
0,3698532,2363,-1720,-382,4479,-203,-294,144,48,-228
0,3698541,2363,-1720,-382,4479,-203,-294,144,48,-228
0,3698550,2365,-1708,-320,4489,-191,-292,144,48,-228
0,3698560,2365,-1708,-320,4489,-191,-292,144,48,-228
0,3698567,2368,-1726,-372,4489,-199,-291,144,48,-228
0,3698576,2368,-1726,-372,4489,-199,-291,144,48,-228
0,3698583,2368,-1726,-372,4489,-199,-291,144,48,-228
0,3698591,2363,-1714,-343,4490,-196,-291,142,58,-212
0,3698603,2363,-1714,-343,4490,-196,-291,142,58,-212
0,3698610,2368,-1724,-370,4485,-191,-293,142,58,-212
0,3698619,2368,-1724,-370,4485,-191,-293,142,58,-212
0,3698627,2365,-1716,-357,4492,-195,-289,142,58,-212
0,3698636,2365,-1716,-357,4492,-195,-289,142,58,-212
0,3698646,2365,-1716,-357,4492,-195,-289,142,58,-212
0,3698654,2367,-1719,-355,4484,-198,-294,142,58,-212
0,3698664,2367,-1719,-355,4484,-198,-294,142,58,-212
0,3698674,2365,-1720,-406,4488,-202,-287,142,58,-212
0,3698682,2365,-1720,-406,4488,-202,-287,142,58,-212
0,3698692,2367,-1718,-383,4493,-194,-290,142,58,-212
0,3698700,2367,-1718,-383,4493,-194,-290,142,58,-212
0,3698708,2370,-1720,-383,4493,-196,-296,141,59,-219
0,3698718,2370,-1720,-383,4493,-196,-296,141,59,-219
0,3698729,2370,-1720,-383,4493,-196,-296,141,59,-219
0,3698740,2370,-1720,-383,4493,-196,-296,141,59,-219
0,3698749,2366,-1722,-438,4484,-196,-297,141,59,-219
0,3698759,2366,-1722,-438,4484,-196,-297,141,59,-219
0,3698766,2365,-1716,-371,4485,-179,-290,141,59,-219
0,3698775,2365,-1716,-371,4485,-179,-290,141,59,-219
0,3698784,2365,-1716,-371,4485,-179,-290,141,59,-219
0,3698791,2369,-1715,-418,4478,-203,-294,141,59,-219
0,3698800,2369,-1715,-418,4478,-203,-294,141,59,-219
0,3698808,2359,-1720,-396,4486,-202,-289,141,59,-219
0,3698817,2359,-1720,-396,4486,-202,-289,141,59,-219
0,3698825,2359,-1720,-396,4486,-202,-289,141,59,-219
0,3698834,2369,-1720,-442,4477,-189,-300,124,64,-222
0,3698841,2369,-1720,-442,4477,-189,-300,124,64,-222
0,3698850,2366,-1712,-398,4473,-186,-299,124,64,-222
0,3698859,2366,-1712,-398,4473,-186,-299,124,64,-222
0,3698869,2373,-1722,-406,4478,-199,-300,124,64,-222
0,3698877,2373,-1722,-406,4478,-199,-300,124,64,-222
0,3698886,2373,-1722,-406,4478,-199,-300,124,64,-222
0,3698894,2365,-1711,-407,4484,-208,-298,124,64,-222
0,3698904,2365,-1711,-407,4484,-208,-298,124,64,-222
0,3698911,2363,-1716,-424,4480,-200,-309,124,64,-222
0,3698920,2363,-1716,-424,4480,-200,-309,124,64,-222
0,3698928,2369,-1710,-411,4478,-195,-304,124,64,-222
0,3698937,2369,-1710,-411,4478,-195,-304,124,64,-222
0,3698946,2369,-1710,-411,4478,-195,-304,124,64,-222
0,3698955,2364,-1710,-398,4488,-198,-301,124,64,-222
0,3698963,2364,-1710,-398,4488,-198,-301,124,64,-222
0,3698972,2359,-1714,-406,4484,-202,-298,124,54,-220
0,3698984,2359,-1714,-406,4484,-202,-298,124,54,-220
0,3698997,2363,-1700,-418,4482,-196,-293,124,54,-220
0,3699012,2368,-1714,-414,4478,-190,-286,124,54,-220
0,3699022,2368,-1714,-414,4478,-190,-286,124,54,-220
0,3699038,2366,-1703,-399,4472,-198,-292,124,54,-220
0,3699052,2363,-1716,-413,4464,-207,-294,124,54,-220
0,3699067,2362,-1701,-405,4464,-199,-294,124,54,-220
0,3699081,2362,-1701,-405,4464,-199,-294,124,54,-220
0,3699094,2368,-1708,-373,4466,-193,-298,114,58,-224
0,3699105,2368,-1708,-373,4466,-193,-298,114,58,-224
0,3699118,2363,-1707,-382,4468,-211,-296,114,58,-224
0,3699131,2366,-1705,-412,4460,-210,-294,114,58,-224
0,3699144,2366,-1705,-412,4460,-210,-294,114,58,-224
0,3699159,2365,-1709,-388,4462,-191,-295,114,58,-224
0,3699171,2372,-1707,-390,4464,-197,-302,114,58,-224
0,3699183,2372,-1707,-390,4464,-197,-302,114,58,-224
0,3699196,2361,-1705,-388,4468,-209,-296,114,58,-224
0,3699210,2363,-1706,-409,4470,-206,-290,114,58,-224
0,3699224,2363,-1706,-409,4470,-206,-290,114,58,-224
0,3699238,2366,-1704,-389,4472,-190,-288,102,64,-226
0,3699251,2365,-1706,-378,4475,-195,-298,102,64,-226
0,3699264,2365,-1706,-378,4475,-195,-298,102,64,-226
0,3699278,2364,-1705,-381,4471,-204,-300,102,64,-226
0,3699292,2363,-1702,-364,4468,-195,-299,102,64,-226
0,3699306,2363,-1702,-364,4468,-195,-299,102,64,-226
0,3699321,2371,-1711,-311,4463,-198,-297,102,64,-226
0,3699337,2361,-1700,-345,4464,-201,-288,102,64,-226
0,3699351,2364,-1720,-343,4467,-196,-297,93,71,-231
0,3699365,2364,-1720,-343,4467,-196,-297,93,71,-231
0,3699379,2365,-1697,-357,4468,-187,-292,93,71,-231
0,3699393,2366,-1718,-326,4474,-196,-302,93,71,-231
0,3699403,2366,-1718,-326,4474,-196,-302,93,71,-231
0,3699418,2362,-1704,-345,4483,-206,-301,93,71,-231
0,3699431,2362,-1723,-363,4482,-203,-297,93,71,-231
0,3699444,2362,-1723,-363,4482,-203,-297,93,71,-231
0,3699459,2364,-1715,-347,4494,-185,-301,93,71,-231
0,3699470,2372,-1718,-361,4483,-194,-297,93,71,-231
0,3699482,2372,-1718,-361,4483,-194,-297,93,71,-231
0,3699496,2361,-1720,-340,4492,-201,-291,87,65,-241
0,3699510,2362,-1715,-367,4490,-194,-299,87,65,-241
0,3699524,2362,-1715,-367,4490,-194,-299,87,65,-241
0,3699538,2365,-1718,-381,4485,-193,-300,87,65,-241
0,3699551,2369,-1715,-367,4482,-199,-290,87,65,-241
0,3699565,2369,-1715,-367,4482,-199,-290,87,65,-241
0,3699576,2368,-1719,-397,4492,-201,-292,87,65,-241
0,3699591,2361,-1719,-365,4489,-194,-301,87,65,-241
0,3699605,2361,-1719,-365,4489,-194,-301,87,65,-241
0,3699620,2369,-1722,-417,4495,-190,-297,84,68,-244
0,3699636,2360,-1711,-425,4490,-183,-294,84,68,-244
0,3699649,2371,-1727,-369,4490,-195,-297,84,68,-244
0,3699661,2371,-1727,-369,4490,-195,-297,84,68,-244
0,3699673,2364,-1706,-404,4480,-212,-298,84,68,-244
0,3699686,2364,-1706,-404,4480,-212,-298,84,68,-244
0,3699700,2359,-1729,-392,4485,-197,-298,84,68,-244
0,3699714,2368,-1701,-425,4483,-187,-304,84,68,-244
0,3699728,2368,-1727,-382,4479,-191,-296,80,74,-248
0,3699741,2368,-1727,-382,4479,-191,-296,80,74,-248
0,3699752,2368,-1706,-393,4483,-207,-299,80,74,-248
0,3699767,2368,-1706,-393,4483,-207,-299,80,74,-248
0,3699782,2362,-1724,-396,4484,-203,-293,80,74,-248
0,3699799,2361,-1710,-421,4482,-191,-298,80,74,-248
0,3699811,2372,-1710,-407,4487,-191,-293,80,74,-248
0,3699824,2372,-1710,-407,4487,-191,-293,80,74,-248
0,3699840,2372,-1710,-407,4487,-191,-293,80,74,-248
0,3699854,2365,-1712,-411,4473,-204,-292,80,74,-248
0,3699868,2367,-1712,-402,4472,-197,-296,82,74,-252
0,3699881,2367,-1712,-402,4472,-197,-296,82,74,-252
0,3699896,2369,-1710,-410,4473,-191,-296,82,74,-252
0,3699910,2365,-1706,-400,4471,-197,-298,82,74,-252
0,3699924,2365,-1706,-400,4471,-197,-298,82,74,-252
0,3699939,2361,-1713,-409,4471,-206,-298,82,74,-252
0,3699952,2362,-1705,-398,4473,-193,-295,82,74,-252
0,3699965,2362,-1705,-398,4473,-193,-295,82,74,-252
0,3699980,2363,-1714,-404,4473,-192,-295,82,74,-252
0,3699991,2368,-1706,-398,4468,-204,-296,84,68,-260
0,3700000,2368,-1706,-398,4468,-204,-296,84,68,-260
0,3700006,2368,-1706,-398,4468,-204,-296,84,68,-260
0,3700016,2363,-1709,-405,4472,-205,-292,84,68,-260
0,3700025,2363,-1709,-405,4472,-205,-292,84,68,-260
0,3700033,2360,-1711,-405,4472,-194,-300,84,68,-260
0,3700042,2360,-1711,-405,4472,-194,-300,84,68,-260
0,3700050,2367,-1707,-409,4473,-190,-299,84,68,-260
0,3700059,2367,-1707,-409,4473,-190,-299,84,68,-260
0,3700067,2367,-1707,-409,4473,-190,-299,84,68,-260
0,3700076,2360,-1707,-400,4472,-196,-290,84,68,-260
0,3700084,2360,-1707,-400,4472,-196,-290,84,68,-260
0,3700094,2360,-1707,-403,4465,-199,-298,84,68,-260
0,3700102,2360,-1707,-403,4465,-199,-298,84,68,-260
0,3700110,2363,-1702,-370,4475,-193,-294,84,68,-260
0,3700119,2363,-1702,-370,4475,-193,-294,84,68,-260
0,3700127,2363,-1702,-370,4475,-193,-294,84,68,-260
0,3700136,2363,-1708,-404,4471,-201,-295,71,77,-273
0,3700144,2363,-1708,-404,4471,-201,-295,71,77,-273
0,3700152,2365,-1698,-387,4464,-196,-295,71,77,-273
0,3700161,2365,-1698,-387,4464,-196,-295,71,77,-273
0,3700170,2366,-1710,-387,4462,-195,-295,71,77,-273
0,3700178,2366,-1710,-387,4462,-195,-295,71,77,-273
0,3700187,2366,-1710,-387,4462,-195,-295,71,77,-273
0,3700195,2363,-1701,-352,4461,-205,-295,71,77,-273
0,3700203,2363,-1701,-352,4461,-205,-295,71,77,-273
0,3700211,2362,-1713,-350,4465,-207,-291,71,77,-273
0,3700219,2362,-1713,-350,4465,-207,-291,71,77,-273
0,3700228,2361,-1706,-319,4465,-192,-301,71,77,-273
0,3700237,2361,-1706,-319,4465,-192,-301,71,77,-273
0,3700245,2361,-1706,-319,4465,-192,-301,71,77,-273
0,3700251,2367,-1713,-368,4471,-193,-302,74,72,-280
0,3700260,2367,-1713,-368,4471,-193,-302,74,72,-280
0,3700269,2361,-1708,-327,4469,-190,-304,74,72,-280
0,3700278,2361,-1708,-327,4469,-190,-304,74,72,-280
0,3700286,2361,-1708,-327,4469,-190,-304,74,72,-280
0,3700295,2371,-1715,-345,4477,-208,-294,74,72,-280
0,3700301,2371,-1715,-345,4477,-208,-294,74,72,-280
0,3700310,2359,-1714,-323,4471,-206,-292,74,72,-280
0,3700319,2359,-1714,-323,4471,-206,-292,74,72,-280
0,3700327,2359,-1714,-323,4471,-206,-292,74,72,-280
0,3700335,2366,-1722,-380,4473,-199,-301,74,72,-280
0,3700345,2366,-1722,-380,4473,-199,-301,74,72,-280
0,3700354,2362,-1712,-334,4482,-181,-299,74,72,-280
0,3700363,2362,-1712,-334,4482,-181,-299,74,72,-280
0,3700370,2371,-1723,-384,4475,-200,-297,73,71,-275
0,3700379,2371,-1723,-384,4475,-200,-297,73,71,-275
0,3700387,2371,-1723,-384,4475,-200,-297,73,71,-275
0,3700395,2362,-1710,-329,4476,-204,-294,73,71,-275
0,3700404,2362,-1710,-329,4476,-204,-294,73,71,-275
0,3700409,2362,-1729,-402,4484,-198,-293,73,71,-275
0,3700417,2362,-1729,-402,4484,-198,-293,73,71,-275
0,3700426,2362,-1729,-402,4484,-198,-293,73,71,-275
0,3700433,2367,-1706,-374,4483,-192,-296,73,71,-275
0,3700442,2367,-1706,-374,4483,-192,-296,73,71,-275
0,3700450,2371,-1723,-388,4480,-198,-296,73,71,-275
0,3700459,2371,-1723,-388,4480,-198,-296,73,71,-275
0,3700466,2371,-1723,-388,4480,-198,-296,73,71,-275
0,3700477,2361,-1714,-381,4492,-206,-288,73,71,-275
0,3700487,2361,-1714,-381,4492,-206,-288,73,71,-275
0,3700497,2361,-1726,-378,4490,-198,-298,73,71,-275
0,3700507,2361,-1726,-378,4490,-198,-298,73,71,-275
0,3700516,2362,-1715,-401,4480,-197,-291,82,56,-294
0,3700526,2362,-1715,-401,4480,-197,-291,82,56,-294
0,3700533,2367,-1719,-381,4484,-194,-290,82,56,-294
0,3700542,2367,-1719,-381,4484,-194,-290,82,56,-294
0,3700551,2364,-1719,-401,4485,-199,-294,82,56,-294
0,3700559,2364,-1719,-401,4485,-199,-294,82,56,-294
0,3700568,2364,-1719,-401,4485,-199,-294,82,56,-294
0,3700577,2362,-1719,-369,4485,-199,-293,82,56,-294
0,3700584,2362,-1719,-369,4485,-199,-293,82,56,-294
0,3700594,2366,-1721,-398,4473,-196,-297,82,56,-294
0,3700602,2366,-1721,-398,4473,-196,-297,82,56,-294
0,3700612,2368,-1721,-382,4479,-196,-297,82,56,-294
0,3700621,2368,-1721,-382,4479,-196,-297,82,56,-294
0,3700629,2366,-1718,-390,4473,-201,-293,83,65,-281
0,3700638,2366,-1718,-390,4473,-201,-293,83,65,-281
0,3700648,2360,-1720,-382,4479,-200,-295,83,65,-281
0,3700659,2360,-1720,-382,4479,-200,-295,83,65,-281
0,3700667,2360,-1720,-382,4479,-200,-295,83,65,-281
0,3700676,2366,-1717,-389,4479,-197,-293,83,65,-281
0,3700684,2366,-1717,-389,4479,-197,-293,83,65,-281
0,3700694,2363,-1717,-392,4475,-197,-301,83,65,-281
0,3700703,2363,-1717,-392,4475,-197,-301,83,65,-281
0,3700710,2366,-1721,-389,4488,-198,-299,83,65,-281
0,3700719,2366,-1721,-389,4488,-198,-299,83,65,-281
0,3700726,2366,-1721,-389,4488,-198,-299,83,65,-281
0,3700736,2365,-1716,-390,4481,-205,-295,83,65,-281
0,3700744,2365,-1716,-390,4481,-205,-295,83,65,-281
0,3700753,2362,-1724,-386,4482,-204,-294,83,65,-281
0,3700762,2362,-1724,-386,4482,-204,-294,83,65,-281
0,3700769,2366,-1721,-397,4479,-205,-294,81,67,-297
0,3700777,2366,-1721,-397,4479,-205,-294,81,67,-297
0,3700786,2366,-1721,-397,4479,-205,-294,81,67,-297
0,3700796,2366,-1718,-385,4482,-192,-297,81,67,-297
0,3700804,2366,-1718,-385,4482,-192,-297,81,67,-297
0,3700813,2364,-1722,-392,4483,-204,-302,81,67,-297
0,3700822,2364,-1722,-392,4483,-204,-302,81,67,-297
0,3700831,2365,-1713,-387,4476,-201,-299,81,67,-297
0,3700840,2365,-1713,-387,4476,-201,-299,81,67,-297
0,3700848,2365,-1713,-387,4476,-201,-299,81,67,-297
0,3700857,2363,-1723,-407,4484,-200,-298,81,67,-297
0,3700867,2363,-1723,-407,4484,-200,-298,81,67,-297
0,3700876,2367,-1705,-397,4482,-190,-299,81,67,-297
0,3700884,2367,-1705,-397,4482,-190,-299,81,67,-297
0,3700893,2365,-1724,-395,4477,-200,-291,94,70,-292
0,3700902,2365,-1724,-395,4477,-200,-291,94,70,-292
0,3700912,2365,-1709,-395,4476,-201,-299,94,70,-292
0,3700922,2365,-1709,-395,4476,-201,-299,94,70,-292
0,3700931,2363,-1722,-406,4481,-201,-294,94,70,-292
0,3700939,2363,-1722,-406,4481,-201,-294,94,70,-292
0,3700948,2363,-1722,-406,4481,-201,-294,94,70,-292
0,3700957,2367,-1712,-394,4478,-194,-292,94,70,-292
0,3700966,2367,-1712,-394,4478,-194,-292,94,70,-292
0,3700975,2366,-1717,-401,4478,-201,-294,94,70,-292
0,3700984,2366,-1717,-401,4478,-201,-294,94,70,-292
0,3700994,2359,-1715,-396,4472,-201,-288,94,70,-292
0,3701007,2359,-1715,-396,4472,-201,-288,94,70,-292
0,3701016,2364,-1714,-402,4478,-200,-291,94,70,-292
0,3701028,2364,-1714,-402,4478,-200,-291,94,70,-292
0,3701044,2368,-1713,-392,4468,-197,-290,87,69,-307
0,3701058,2366,-1712,-388,4479,-199,-290,87,69,-307
0,3701072,2361,-1714,-402,4480,-199,-294,87,69,-307
0,3701086,2361,-1714,-402,4480,-199,-294,87,69,-307
0,3701100,2362,-1718,-391,4478,-193,-297,87,69,-307
0,3701112,2366,-1708,-401,4471,-190,-293,87,69,-307
0,3701125,2366,-1708,-401,4471,-190,-293,87,69,-307
0,3701139,2365,-1715,-388,4472,-200,-287,87,69,-307
0,3701151,2363,-1712,-393,4470,-203,-295,91,73,-309
0,3701167,2363,-1712,-393,4470,-203,-295,91,73,-309
0,3701182,2362,-1714,-378,4467,-195,-305,91,73,-309
0,3701197,2367,-1712,-378,4475,-199,-296,91,73,-309
0,3701213,2363,-1709,-377,4481,-198,-289,91,73,-309
0,3701227,2363,-1709,-377,4481,-198,-289,91,73,-309
0,3701241,2362,-1714,-357,4483,-193,-295,91,73,-309
0,3701254,2363,-1715,-354,4469,-197,-301,91,73,-309
0,3701265,2363,-1715,-354,4469,-197,-301,91,73,-309
0,3701278,2364,-1715,-383,4478,-191,-294,102,84,-308
0,3701292,2364,-1721,-367,4476,-195,-301,102,84,-308
0,3701305,2364,-1721,-367,4476,-195,-301,102,84,-308
0,3701319,2365,-1716,-391,4474,-201,-294,102,84,-308
0,3701332,2364,-1725,-368,4487,-196,-298,102,84,-308
0,3701345,2364,-1725,-368,4487,-196,-298,102,84,-308
0,3701359,2364,-1725,-368,4487,-196,-298,102,84,-308
0,3701374,2363,-1718,-373,4479,-193,-288,102,84,-308
0,3701388,2363,-1718,-373,4479,-193,-288,102,84,-308
0,3701401,2367,-1711,-374,4487,-207,-296,102,84,-308
0,3701416,2362,-1716,-357,4476,-202,-290,110,84,-310
0,3701432,2363,-1713,-355,4473,-188,-295,110,84,-310
0,3701447,2363,-1713,-355,4473,-188,-295,110,84,-310
0,3701459,2364,-1717,-365,4478,-189,-293,110,84,-310
0,3701474,2362,-1716,-350,4488,-197,-294,110,84,-310
0,3701487,2362,-1716,-350,4488,-197,-294,110,84,-310
0,3701499,2366,-1724,-372,4487,-199,-295,110,84,-310
0,3701512,2364,-1717,-362,4485,-199,-295,110,84,-310
0,3701526,2364,-1717,-362,4485,-199,-295,110,84,-310
0,3701539,2364,-1725,-381,4486,-195,-298,104,82,-316
0,3701553,2361,-1710,-375,4483,-201,-301,104,82,-316
0,3701566,2361,-1710,-375,4483,-201,-301,104,82,-316
0,3701580,2363,-1730,-380,4479,-202,-300,104,82,-316
0,3701594,2362,-1712,-378,4475,-198,-302,104,82,-316
0,3701608,2362,-1712,-378,4475,-198,-302,104,82,-316
0,3701623,2368,-1730,-381,4479,-196,-296,104,82,-316
0,3701637,2365,-1716,-380,4490,-199,-298,104,82,-316
0,3701650,2367,-1721,-389,4481,-199,-289,104,82,-316
0,3701665,2367,-1721,-389,4481,-199,-289,104,82,-316
0,3701680,2360,-1719,-380,4479,-198,-292,114,88,-312
0,3701694,2364,-1723,-400,4486,-204,-292,114,88,-312
0,3701707,2364,-1723,-400,4486,-204,-292,114,88,-312
0,3701722,2365,-1716,-435,4490,-197,-297,114,88,-312
0,3701734,2367,-1722,-367,4491,-193,-297,114,88,-312
0,3701747,2367,-1722,-367,4491,-193,-297,114,88,-312
0,3701762,2361,-1719,-419,4476,-204,-291,114,88,-312
0,3701775,2358,-1729,-394,4477,-200,-300,114,88,-312
0,3701788,2358,-1729,-394,4477,-200,-300,114,88,-312
0,3701800,2371,-1717,-422,4481,-187,-299,116,80,-322
0,3701812,2361,-1722,-381,4481,-195,-286,116,80,-322
0,3701827,2361,-1722,-381,4481,-195,-286,116,80,-322
0,3701840,2360,-1720,-408,4477,-200,-286,116,80,-322
0,3701855,2361,-1719,-395,4469,-202,-288,116,80,-322
0,3701867,2361,-1719,-395,4469,-202,-288,116,80,-322
0,3701880,2364,-1723,-414,4469,-196,-289,116,80,-322
0,3701895,2367,-1717,-400,4472,-198,-294,116,80,-322
0,3701910,2367,-1717,-400,4472,-198,-294,116,80,-322
0,3701925,2365,-1717,-395,4474,-207,-297,116,80,-322
0,3701940,2360,-1715,-401,4469,-209,-297,123,83,-323
0,3701952,2361,-1716,-398,4475,-200,-294,123,83,-323
0,3701965,2361,-1716,-398,4475,-200,-294,123,83,-323
0,3701979,2367,-1710,-389,4477,-195,-298,123,83,-323
0,3701992,2362,-1715,-393,4474,-207,-305,123,83,-323
0,3702004,2362,-1715,-393,4474,-207,-305,123,83,-323
0,3702012,2364,-1713,-405,4475,-196,-303,123,83,-323
0,3702022,2364,-1713,-405,4475,-196,-303,123,83,-323
0,3702030,2364,-1713,-405,4475,-196,-303,123,83,-323
0,3702038,2365,-1714,-397,4478,-192,-302,123,83,-323
0,3702046,2365,-1714,-397,4478,-192,-302,123,83,-323
0,3702054,2368,-1721,-379,4474,-202,-294,127,87,-313
0,3702064,2368,-1721,-379,4474,-202,-294,127,87,-313
0,3702072,2364,-1712,-387,4470,-206,-281,127,87,-313
0,3702082,2364,-1712,-387,4470,-206,-281,127,87,-313
0,3702089,2364,-1712,-387,4470,-206,-281,127,87,-313
0,3702097,2360,-1718,-379,4472,-197,-298,127,87,-313
0,3702106,2360,-1718,-379,4472,-197,-298,127,87,-313
0,3702115,2365,-1714,-382,4470,-190,-299,127,87,-313
0,3702123,2365,-1714,-382,4470,-190,-299,127,87,-313
0,3702133,2366,-1716,-379,4465,-196,-296,127,87,-313
0,3702141,2366,-1716,-379,4465,-196,-296,127,87,-313
0,3702151,2360,-1710,-385,4474,-200,-294,127,87,-313
0,3702159,2360,-1710,-385,4474,-200,-294,127,87,-313
0,3702168,2360,-1710,-385,4474,-200,-294,127,87,-313
0,3702176,2367,-1716,-369,4464,-200,-289,138,82,-322
0,3702185,2367,-1716,-369,4464,-200,-289,138,82,-322
0,3702195,2363,-1717,-378,4468,-200,-294,138,82,-322
0,3702203,2363,-1717,-378,4468,-200,-294,138,82,-322
0,3702209,2363,-1717,-378,4468,-200,-294,138,82,-322
0,3702218,2365,-1714,-365,4472,-202,-292,138,82,-322
0,3702227,2365,-1714,-365,4472,-202,-292,138,82,-322
0,3702237,2367,-1717,-352,4474,-197,-298,138,82,-322
0,3702246,2367,-1717,-352,4474,-197,-298,138,82,-322
0,3702254,2361,-1719,-366,4474,-194,-299,138,82,-322
0,3702261,2361,-1719,-366,4474,-194,-299,138,82,-322
0,3702269,2361,-1719,-366,4474,-194,-299,138,82,-322
0,3702278,2365,-1720,-343,4471,-194,-295,138,82,-322
0,3702287,2365,-1720,-343,4471,-194,-295,138,82,-322
0,3702295,2366,-1718,-363,4478,-195,-295,138,82,-322
0,3702304,2366,-1718,-363,4478,-195,-295,138,82,-322
0,3702313,2366,-1725,-338,4477,-202,-296,132,82,-320
0,3702322,2366,-1725,-338,4477,-202,-296,132,82,-320
0,3702331,2363,-1717,-361,4482,-202,-302,132,82,-320
0,3702339,2363,-1717,-361,4482,-202,-302,132,82,-320
0,3702346,2363,-1717,-361,4482,-202,-302,132,82,-320
0,3702355,2361,-1729,-360,4480,-189,-301,132,82,-320
0,3702364,2361,-1729,-360,4480,-189,-301,132,82,-320
0,3702372,2363,-1719,-371,4479,-187,-299,132,82,-320
0,3702381,2363,-1719,-371,4479,-187,-299,132,82,-320
0,3702389,2363,-1719,-371,4479,-187,-299,132,82,-320
0,3702397,2366,-1730,-365,4481,-203,-298,132,82,-320
0,3702407,2366,-1730,-365,4481,-203,-298,132,82,-320
0,3702413,2365,-1721,-366,4483,-196,-292,132,82,-320
0,3702421,2365,-1721,-366,4483,-196,-292,132,82,-320
0,3702429,2365,-1721,-366,4483,-196,-292,132,82,-320
0,3702439,2363,-1726,-367,4482,-201,-300,147,81,-329
0,3702448,2363,-1726,-367,4482,-201,-300,147,81,-329
0,3702454,2366,-1720,-377,4488,-197,-301,147,81,-329
0,3702460,2366,-1720,-377,4488,-197,-301,147,81,-329
0,3702469,2366,-1720,-377,4488,-197,-301,147,81,-329
0,3702477,2368,-1725,-370,4480,-198,-293,147,81,-329
0,3702487,2368,-1725,-370,4480,-198,-293,147,81,-329
0,3702495,2362,-1727,-387,4487,-199,-296,147,81,-329
0,3702504,2362,-1727,-387,4487,-199,-296,147,81,-329
0,3702511,2361,-1724,-372,4499,-193,-296,147,81,-329
0,3702520,2361,-1724,-372,4499,-193,-296,147,81,-329
0,3702530,2361,-1724,-372,4499,-193,-296,147,81,-329
0,3702538,2363,-1728,-390,4494,-194,-296,147,81,-329
0,3702546,2363,-1728,-390,4494,-194,-296,147,81,-329
0,3702555,2361,-1722,-373,4482,-200,-299,147,81,-329
0,3702564,2361,-1722,-373,4482,-200,-299,147,81,-329
0,3702573,2362,-1727,-428,4487,-210,-296,147,83,-315
0,3702581,2362,-1727,-428,4487,-210,-296,147,83,-315
0,3702590,2362,-1727,-428,4487,-210,-296,147,83,-315
0,3702598,2360,-1717,-399,4486,-191,-295,147,83,-315
0,3702607,2360,-1717,-399,4486,-191,-295,147,83,-315
0,3702617,2365,-1731,-398,4490,-202,-294,147,83,-315
0,3702626,2365,-1731,-398,4490,-202,-294,147,83,-315
0,3702636,2364,-1717,-413,4484,-201,-297,147,83,-315
0,3702646,2364,-1717,-413,4484,-201,-297,147,83,-315
0,3702654,2363,-1727,-404,4476,-192,-294,147,83,-315
0,3702664,2363,-1727,-404,4476,-192,-294,147,83,-315
0,3702672,2363,-1713,-405,4470,-190,-294,147,83,-315
0,3702681,2363,-1713,-405,4470,-190,-294,147,83,-315
0,3702689,2363,-1713,-405,4470,-190,-294,147,83,-315
0,3702699,2364,-1726,-391,4476,-197,-285,157,79,-321
0,3702708,2364,-1726,-391,4476,-197,-285,157,79,-321
0,3702716,2358,-1711,-395,4477,-205,-288,157,79,-321
0,3702724,2358,-1711,-395,4477,-205,-288,157,79,-321
0,3702732,2364,-1724,-417,4479,-198,-298,157,79,-321
0,3702740,2364,-1724,-417,4479,-198,-298,157,79,-321
0,3702749,2364,-1724,-417,4479,-198,-298,157,79,-321
0,3702759,2366,-1711,-393,4473,-192,-298,157,79,-321
0,3702769,2366,-1711,-393,4473,-192,-298,157,79,-321
0,3702778,2367,-1725,-415,4480,-201,-297,157,79,-321
0,3702788,2367,-1725,-415,4480,-201,-297,157,79,-321
0,3702796,2357,-1712,-391,4479,-205,-293,157,79,-321
0,3702804,2357,-1712,-391,4479,-205,-293,157,79,-321
0,3702811,2362,-1722,-416,4471,-200,-297,163,69,-311
0,3702820,2362,-1722,-416,4471,-200,-297,163,69,-311
0,3702829,2362,-1722,-416,4471,-200,-297,163,69,-311
0,3702838,2362,-1714,-370,4470,-189,-294,163,69,-311
0,3702847,2362,-1714,-370,4470,-189,-294,163,69,-311
0,3702854,2365,-1720,-408,4463,-203,-293,163,69,-311
0,3702864,2365,-1720,-408,4463,-203,-293,163,69,-311
0,3702873,2360,-1713,-382,4470,-194,-294,163,69,-311
0,3702882,2360,-1713,-382,4470,-194,-294,163,69,-311
0,3702891,2360,-1713,-382,4470,-194,-294,163,69,-311
0,3702900,2368,-1719,-406,4472,-199,-294,163,69,-311
0,3702909,2368,-1719,-406,4472,-199,-294,163,69,-311
0,3702919,2360,-1710,-372,4468,-196,-294,163,69,-311
0,3702928,2360,-1710,-372,4468,-196,-294,163,69,-311
0,3702938,2366,-1722,-405,4481,-194,-295,163,69,-311
0,3702945,2366,-1722,-405,4481,-194,-295,163,69,-311
0,3702955,2361,-1709,-379,4475,-198,-300,176,70,-316
0,3702964,2361,-1709,-379,4475,-198,-300,176,70,-316
0,3702974,2365,-1722,-384,4464,-204,-286,176,70,-316
0,3702982,2365,-1722,-384,4464,-204,-286,176,70,-316
0,3702990,2365,-1722,-384,4464,-204,-286,176,70,-316
0,3702999,2364,-1709,-376,4472,-193,-292,176,70,-316
0,3703007,2364,-1709,-376,4472,-193,-292,176,70,-316
0,3703022,2368,-1717,-388,4468,-198,-300,176,70,-316
0,3703036,2363,-1707,-374,4465,-191,-302,176,70,-316
0,3703050,2363,-1707,-374,4465,-191,-302,176,70,-316
0,3703063,2364,-1722,-383,4471,-197,-296,176,70,-316
0,3703077,2361,-1712,-366,4463,-203,-300,183,63,-301
0,3703091,2361,-1712,-366,4463,-203,-300,183,63,-301
0,3703103,2367,-1717,-347,4470,-201,-304,183,63,-301
0,3703117,2361,-1713,-351,4476,-196,-296,183,63,-301
0,3703134,2363,-1720,-356,4476,-205,-302,183,63,-301
0,3703149,2363,-1720,-356,4476,-205,-302,183,63,-301
0,3703164,2363,-1713,-373,4481,-188,-303,183,63,-301
0,3703177,2367,-1728,-333,4478,-205,-299,183,63,-301
0,3703191,2367,-1728,-333,4478,-205,-299,183,63,-301
0,3703204,2367,-1711,-380,4477,-201,-288,183,63,-301
0,3703218,2361,-1730,-337,4487,-194,-297,192,64,-298
0,3703231,2361,-1730,-337,4487,-194,-297,192,64,-298
0,3703245,2372,-1718,-390,4485,-193,-295,192,64,-298
0,3703259,2365,-1727,-341,4483,-200,-292,192,64,-298
0,3703271,2365,-1727,-341,4483,-200,-292,192,64,-298
0,3703285,2363,-1720,-381,4474,-200,-291,192,64,-298
0,3703300,2369,-1726,-359,4480,-192,-289,192,64,-298
0,3703312,2364,-1721,-377,4483,-187,-293,192,64,-298
0,3703327,2364,-1721,-377,4483,-187,-293,192,64,-298
0,3703343,2366,-1726,-371,4486,-197,-301,189,73,-307
0,3703358,2362,-1721,-376,4491,-198,-296,189,73,-307
0,3703373,2366,-1731,-375,4485,-200,-291,189,73,-307
0,3703387,2366,-1731,-375,4485,-200,-291,189,73,-307
0,3703400,2366,-1721,-377,4488,-206,-295,189,73,-307
0,3703414,2360,-1736,-396,4481,-212,-295,189,73,-307
0,3703429,2360,-1736,-396,4481,-212,-295,189,73,-307
0,3703443,2362,-1715,-438,4477,-204,-294,189,73,-307
0,3703457,2367,-1726,-359,4477,-189,-295,189,73,-307
0,3703473,2366,-1723,-409,4478,-201,-293,193,53,-299
0,3703486,2366,-1723,-409,4478,-201,-293,193,53,-299
0,3703499,2362,-1723,-389,4485,-196,-296,193,53,-299
0,3703513,2369,-1720,-424,4474,-193,-300,193,53,-299
0,3703528,2369,-1720,-424,4474,-193,-300,193,53,-299
0,3703540,2366,-1721,-380,4471,-197,-290,193,53,-299
0,3703554,2364,-1726,-402,4477,-203,-298,193,53,-299
0,3703569,2364,-1726,-402,4477,-203,-298,193,53,-299
0,3703584,2360,-1716,-396,4477,-198,-301,193,53,-299
0,3703600,2364,-1718,-409,4480,-195,-290,207,59,-291
0,3703612,2368,-1713,-391,4467,-204,-297,207,59,-291
0,3703626,2368,-1713,-391,4467,-204,-297,207,59,-291
0,3703642,2367,-1720,-385,4476,-206,-298,207,59,-291
0,3703656,2360,-1719,-400,4484,-206,-294,207,59,-291
0,3703669,2360,-1719,-400,4484,-206,-294,207,59,-291
0,3703684,2366,-1715,-400,4469,-195,-294,207,59,-291
0,3703696,2367,-1715,-384,4475,-191,-290,207,59,-291
0,3703710,2367,-1715,-384,4475,-191,-290,207,59,-291
0,3703723,2361,-1718,-397,4477,-205,-296,201,49,-293
0,3703736,2364,-1712,-386,4476,-201,-290,201,49,-293
0,3703749,2364,-1712,-386,4476,-201,-290,201,49,-293
0,3703762,2364,-1712,-386,4476,-201,-290,201,49,-293
0,3703775,2368,-1712,-381,4472,-200,-291,201,49,-293
0,3703788,2368,-1712,-381,4472,-200,-291,201,49,-293
0,3703802,2360,-1719,-395,4473,-195,-301,201,49,-293
0,3703816,2363,-1711,-382,4475,-189,-307,201,49,-293
0,3703830,2363,-1711,-382,4475,-189,-307,201,49,-293
0,3703841,2365,-1713,-390,4475,-192,-303,201,49,-293
0,3703852,2365,-1713,-390,4475,-192,-303,201,49,-293
0,3703865,2367,-1716,-378,4483,-195,-301,215,55,-283
0,3703880,2366,-1710,-381,4486,-206,-293,215,55,-283
0,3703895,2365,-1718,-379,4474,-203,-297,215,55,-283
0,3703910,2365,-1718,-379,4474,-203,-297,215,55,-283
0,3703923,2365,-1709,-370,4468,-205,-296,215,55,-283
0,3703938,2365,-1715,-373,4469,-197,-302,215,55,-283
0,3703951,2365,-1715,-373,4469,-197,-302,215,55,-283
0,3703963,2362,-1710,-353,4462,-194,-290,215,55,-283
0,3703975,2365,-1715,-318,4454,-209,-297,209,45,-275
0,3703990,2365,-1715,-318,4454,-209,-297,209,45,-275
0,3704003,2363,-1712,-368,4465,-204,-299,209,45,-275
0,3704016,2365,-1718,-334,4476,-193,-293,209,45,-275
0,3704031,2365,-1718,-334,4476,-193,-293,209,45,-275
0,3704040,2367,-1718,-383,4479,-203,-291,209,45,-275
0,3704053,2365,-1720,-328,4490,-199,-299,209,45,-275
0,3704068,2365,-1720,-328,4490,-199,-299,209,45,-275
0,3704082,2364,-1718,-376,4485,-207,-302,209,45,-275
0,3704094,2363,-1721,-360,4486,-187,-288,209,45,-275
0,3704103,2363,-1721,-360,4486,-187,-288,209,45,-275
0,3704118,2368,-1715,-370,4479,-194,-294,218,46,-276
0,3704131,2368,-1715,-370,4479,-194,-294,218,46,-276
0,3704146,2363,-1726,-361,4480,-200,-295,218,46,-276
0,3704162,2365,-1715,-367,4483,-195,-293,218,46,-276
0,3704175,2366,-1725,-373,4484,-194,-287,218,46,-276
0,3704189,2366,-1725,-373,4484,-194,-287,218,46,-276
0,3704203,2367,-1722,-377,4483,-193,-291,218,46,-276
0,3704216,2371,-1725,-377,4491,-200,-294,218,46,-276
0,3704231,2371,-1725,-377,4491,-200,-294,218,46,-276
0,3704244,2363,-1722,-375,4486,-203,-291,217,45,-271
0,3704257,2367,-1722,-379,4480,-199,-298,217,45,-271
0,3704271,2367,-1722,-379,4480,-199,-298,217,45,-271
0,3704286,2362,-1720,-429,4488,-193,-297,217,45,-271
0,3704300,2369,-1721,-402,4490,-197,-297,217,45,-271
0,3704314,2360,-1715,-386,4486,-205,-298,217,45,-271
0,3704330,2360,-1715,-386,4486,-205,-298,217,45,-271
0,3704345,2367,-1719,-406,4477,-218,-300,217,45,-271
0,3704358,2361,-1719,-406,4484,-196,-299,218,44,-262
0,3704373,2368,-1718,-394,4481,-188,-303,218,44,-262
0,3704388,2368,-1718,-394,4481,-188,-303,218,44,-262
0,3704400,2372,-1717,-385,4479,-201,-286,218,44,-262
0,3704414,2365,-1717,-385,4491,-203,-288,218,44,-262
0,3704428,2365,-1717,-385,4491,-203,-288,218,44,-262
0,3704441,2361,-1720,-408,4479,-195,-298,218,44,-262
0,3704455,2366,-1715,-394,4476,-180,-297,218,44,-262
0,3704469,2366,-1715,-394,4476,-180,-297,218,44,-262
0,3704483,2369,-1717,-397,4476,-194,-294,218,44,-262
0,3704495,2365,-1712,-379,4478,-204,-304,230,46,-264
0,3704509,2365,-1712,-379,4478,-204,-304,230,46,-264
0,3704522,2364,-1717,-411,4476,-199,-290,230,46,-264
0,3704536,2368,-1712,-378,4482,-187,-296,230,46,-264
0,3704551,2368,-1712,-378,4482,-187,-296,230,46,-264
0,3704566,2370,-1717,-407,4480,-193,-299,230,46,-264
0,3704581,2361,-1715,-382,4470,-195,-293,230,46,-264
0,3704596,2366,-1716,-412,4468,-195,-299,230,46,-264
0,3704609,2366,-1716,-412,4468,-195,-299,230,46,-264
0,3704624,2363,-1713,-375,4473,-191,-291,221,49,-259
0,3704638,2366,-1720,-398,4464,-197,-287,221,49,-259
0,3704649,2366,-1720,-398,4464,-197,-287,221,49,-259
0,3704663,2364,-1706,-387,4465,-199,-300,221,49,-259
0,3704677,2365,-1718,-389,4471,-196,-299,221,49,-259
0,3704690,2365,-1718,-389,4471,-196,-299,221,49,-259
0,3704704,2362,-1701,-383,4475,-205,-297,221,49,-259
0,3704716,2365,-1717,-388,4473,-205,-298,221,49,-259
0,3704729,2365,-1717,-388,4473,-205,-298,221,49,-259
0,3704742,2365,-1706,-379,4475,-202,-303,221,49,-259
0,3704757,2365,-1711,-377,4482,-192,-301,219,43,-249
0,3704770,2365,-1711,-377,4482,-192,-301,219,43,-249
0,3704785,2368,-1713,-376,4464,-196,-294,219,43,-249
0,3704800,2368,-1709,-365,4467,-199,-292,219,43,-249
0,3704815,2368,-1718,-326,4477,-196,-298,219,43,-249
0,3704828,2368,-1718,-326,4477,-196,-298,219,43,-249
0,3704843,2365,-1711,-370,4477,-201,-299,219,43,-249
0,3704858,2364,-1718,-341,4479,-191,-294,219,43,-249
0,3704866,2364,-1718,-341,4479,-191,-294,219,43,-249
0,3704882,2369,-1713,-361,4483,-185,-300,214,42,-244
0,3704895,2366,-1714,-338,4489,-204,-299,214,42,-244
0,3704909,2366,-1714,-338,4489,-204,-299,214,42,-244
0,3704923,2363,-1721,-360,4487,-212,-300,214,42,-244
0,3704937,2363,-1718,-368,4484,-198,-297,214,42,-244
0,3704949,2363,-1718,-368,4484,-198,-297,214,42,-244
0,3704962,2371,-1724,-373,4483,-191,-303,214,42,-244
0,3704975,2364,-1717,-365,4479,-198,-302,214,42,-244
0,3704988,2364,-1717,-365,4479,-198,-302,214,42,-244
0,3705004,2365,-1726,-377,4493,-194,-298,214,42,-244
0,3705017,2362,-1720,-371,4482,-195,-298,215,47,-241
0,3705028,2362,-1720,-371,4482,-195,-298,215,47,-241
0,3705039,2370,-1717,-387,4488,-197,-292,215,47,-241
0,3705054,2370,-1717,-387,4488,-197,-292,215,47,-241
0,3705069,2361,-1717,-371,4482,-202,-299,215,47,-241
0,3705083,2368,-1721,-398,4476,-203,-305,215,47,-241
0,3705099,2365,-1715,-371,4480,-196,-297,215,47,-241
0,3705112,2365,-1715,-371,4480,-196,-297,215,47,-241
0,3705126,2371,-1725,-407,4486,-192,-295,215,47,-241
0,3705140,2363,-1709,-429,4486,-193,-294,218,50,-246
0,3705152,2363,-1709,-429,4486,-193,-294,218,50,-246
0,3705164,2367,-1728,-363,4490,-196,-288,218,50,-246
0,3705178,2364,-1709,-413,4479,-206,-295,218,50,-246
0,3705192,2364,-1709,-413,4479,-206,-295,218,50,-246
0,3705206,2359,-1728,-391,4476,-197,-289,218,50,-246
0,3705219,2370,-1711,-431,4474,-191,-295,218,50,-246
0,3705230,2370,-1711,-431,4474,-191,-295,218,50,-246
0,3705245,2367,-1717,-374,4476,-192,-295,218,50,-246
0,3705259,2365,-1716,-395,4484,-209,-291,225,47,-243
0,3705271,2365,-1716,-395,4484,-209,-291,225,47,-243
0,3705284,2359,-1709,-393,4482,-201,-296,225,47,-243
0,3705298,2364,-1718,-411,4480,-194,-297,225,47,-243
0,3705314,2364,-1718,-411,4480,-194,-297,225,47,-243
0,3705328,2368,-1708,-388,4470,-190,-296,225,47,-243
0,3705344,2364,-1716,-389,4480,-202,-291,225,47,-243
0,3705356,2360,-1712,-402,4475,-204,-291,225,47,-243
0,3705366,2360,-1712,-402,4475,-204,-291,225,47,-243
0,3705379,2367,-1711,-401,4484,-190,-294,225,47,-243
0,3705388,2367,-1711,-401,4484,-190,-294,225,47,-243
0,3705398,2362,-1712,-385,4482,-200,-295,210,52,-240
0,3705411,2362,-1712,-385,4482,-200,-295,210,52,-240
0,3705425,2366,-1708,-397,4479,-202,-293,210,52,-240
0,3705434,2366,-1708,-397,4479,-202,-293,210,52,-240
0,3705441,2363,-1710,-399,4480,-198,-292,210,52,-240
0,3705450,2363,-1710,-399,4480,-198,-292,210,52,-240
0,3705463,2366,-1710,-397,4478,-194,-292,210,52,-240
0,3705478,2367,-1705,-387,4476,-195,-299,210,52,-240
0,3705491,2367,-1705,-387,4476,-195,-299,210,52,-240
0,3705505,2367,-1717,-396,4471,-204,-299,210,52,-240
0,3705520,2365,-1706,-391,4471,-202,-296,214,58,-230
0,3705531,2365,-1706,-391,4471,-202,-296,214,58,-230
0,3705543,2367,-1712,-387,4478,-193,-294,214,58,-230
0,3705556,2367,-1706,-398,4474,-200,-294,214,58,-230
0,3705571,2367,-1706,-398,4474,-200,-294,214,58,-230
0,3705586,2363,-1707,-391,4469,-198,-296,214,58,-230
0,3705600,2363,-1713,-392,4472,-197,-294,214,58,-230
0,3705614,2363,-1713,-392,4472,-197,-294,214,58,-230
0,3705628,2363,-1705,-380,4473,-194,-297,214,58,-230
0,3705640,2363,-1715,-382,4469,-204,-302,214,58,-230
0,3705653,2363,-1715,-382,4469,-204,-302,214,58,-230
0,3705666,2367,-1705,-367,4457,-202,-299,200,50,-236
0,3705679,2368,-1709,-342,4467,-197,-294,200,50,-236
0,3705693,2368,-1709,-342,4467,-197,-294,200,50,-236
0,3705706,2362,-1716,-344,4473,-209,-292,200,50,-236
0,3705717,2365,-1710,-358,4474,-194,-299,200,50,-236
0,3705732,2365,-1710,-358,4474,-194,-299,200,50,-236
0,3705747,2366,-1717,-377,4470,-192,-298,200,50,-236
0,3705761,2371,-1708,-343,4480,-194,-296,200,50,-236
0,3705774,2371,-1708,-343,4480,-194,-296,200,50,-236
0,3705788,2364,-1718,-368,4486,-216,-292,205,53,-227
0,3705802,2363,-1718,-370,4474,-205,-291,205,53,-227
0,3705817,2365,-1718,-375,4477,-194,-291,205,53,-227
0,3705830,2365,-1718,-375,4477,-194,-291,205,53,-227
0,3705839,2366,-1716,-365,4485,-192,-291,205,53,-227
0,3705847,2366,-1716,-365,4485,-192,-291,205,53,-227
0,3705862,2366,-1711,-365,4486,-204,-298,205,53,-227
0,3705873,2366,-1711,-365,4486,-204,-298,205,53,-227
0,3705889,2359,-1715,-385,4491,-208,-296,205,53,-227
0,3705903,2369,-1715,-382,4474,-191,-293,205,53,-227
0,3705916,2371,-1713,-373,4481,-188,-292,193,65,-223
0,3705929,2371,-1713,-373,4481,-188,-292,193,65,-223
0,3705944,2365,-1719,-382,4481,-210,-296,193,65,-223
0,3705957,2362,-1716,-384,4480,-210,-292,193,65,-223
0,3705970,2362,-1716,-384,4480,-210,-292,193,65,-223
0,3705984,2360,-1717,-435,4474,-197,-294,193,65,-223
0,3705998,2372,-1707,-400,4484,-191,-293,193,65,-223
0,3706010,2372,-1707,-400,4484,-191,-293,193,65,-223
0,3706019,2364,-1716,-400,4482,-202,-296,193,65,-223
0,3706028,2364,-1716,-400,4482,-202,-296,193,65,-223
0,3706036,2367,-1709,-393,4492,-204,-303,199,57,-225
0,3706045,2367,-1709,-393,4492,-204,-303,199,57,-225
0,3706053,2367,-1709,-393,4492,-204,-303,199,57,-225
0,3706061,2367,-1709,-393,4492,-204,-303,199,57,-225
0,3706070,2367,-1709,-393,4492,-204,-303,199,57,-225
0,3706078,2367,-1715,-407,4471,-190,-302,199,57,-225
0,3706086,2367,-1715,-407,4471,-190,-302,199,57,-225
0,3706094,2367,-1715,-407,4471,-190,-302,199,57,-225
0,3706102,2374,-1712,-384,4469,-202,-287,199,57,-225
0,3706110,2374,-1712,-384,4469,-202,-287,199,57,-225
0,3706120,2362,-1717,-387,4477,-215,-294,199,57,-225
0,3706128,2362,-1717,-387,4477,-215,-294,199,57,-225
0,3706137,2362,-1715,-414,4477,-205,-295,199,57,-225
0,3706145,2362,-1715,-414,4477,-205,-295,199,57,-225
0,3706153,2362,-1715,-414,4477,-205,-295,199,57,-225
0,3706162,2368,-1707,-404,4477,-186,-304,191,67,-219
0,3706168,2368,-1707,-404,4477,-186,-304,191,67,-219
0,3706174,2368,-1707,-404,4477,-186,-304,191,67,-219
0,3706179,2366,-1716,-396,4475,-201,-295,191,67,-219
0,3706186,2366,-1716,-396,4475,-201,-295,191,67,-219
0,3706192,2366,-1716,-396,4475,-201,-295,191,67,-219
0,3706199,2364,-1706,-390,4477,-202,-295,191,67,-219
0,3706205,2364,-1706,-390,4477,-202,-295,191,67,-219
0,3706211,2364,-1706,-390,4477,-202,-295,191,67,-219
0,3706217,2364,-1715,-415,4465,-202,-295,191,67,-219
0,3706223,2364,-1715,-415,4465,-202,-295,191,67,-219
0,3706229,2364,-1715,-415,4465,-202,-295,191,67,-219
0,3706236,2370,-1710,-387,4472,-197,-294,191,67,-219
0,3706243,2370,-1710,-387,4472,-197,-294,191,67,-219
0,3706249,2370,-1710,-387,4472,-197,-294,191,67,-219
0,3706255,2370,-1710,-387,4472,-197,-294,191,67,-219
0,3706261,2365,-1715,-407,4474,-198,-291,191,67,-219
0,3706267,2365,-1715,-407,4474,-198,-291,191,67,-219
0,3706273,2365,-1715,-407,4474,-198,-291,191,67,-219
0,3706279,2364,-1710,-390,4472,-197,-298,191,67,-219
0,3706287,2364,-1710,-390,4472,-197,-298,191,67,-219
0,3706293,2364,-1710,-390,4472,-197,-298,191,67,-219
0,3706299,2366,-1709,-402,4474,-199,-296,178,60,-218
0,3706305,2366,-1709,-402,4474,-199,-296,178,60,-218
0,3706311,2366,-1709,-402,4474,-199,-296,178,60,-218
0,3706317,2367,-1710,-382,4471,-197,-297,178,60,-218
0,3706323,2367,-1710,-382,4471,-197,-297,178,60,-218
0,3706330,2367,-1710,-382,4471,-197,-297,178,60,-218
0,3706336,2369,-1707,-401,4474,-203,-296,178,60,-218
0,3706343,2369,-1707,-401,4474,-203,-296,178,60,-218
0,3706349,2369,-1707,-401,4474,-203,-296,178,60,-218
0,3706355,2369,-1707,-401,4474,-203,-296,178,60,-218
0,3706361,2365,-1706,-387,4473,-197,-298,178,60,-218
0,3706368,2365,-1706,-387,4473,-197,-298,178,60,-218
0,3706374,2365,-1706,-387,4473,-197,-298,178,60,-218
0,3706380,2367,-1719,-395,4467,-203,-296,178,60,-218
0,3706386,2367,-1719,-395,4467,-203,-296,178,60,-218
0,3706392,2367,-1719,-395,4467,-203,-296,178,60,-218
0,3706398,2365,-1703,-397,4471,-199,-296,178,60,-218
0,3706404,2365,-1703,-397,4471,-199,-296,178,60,-218
0,3706411,2365,-1703,-397,4471,-199,-296,178,60,-218
0,3706417,2366,-1718,-394,4470,-202,-298,165,65,-219
0,3706423,2366,-1718,-394,4470,-202,-298,165,65,-219
0,3706430,2366,-1718,-394,4470,-202,-298,165,65,-219
0,3706436,2366,-1696,-384,4470,-201,-303,165,65,-219
0,3706442,2366,-1696,-384,4470,-201,-303,165,65,-219
0,3706448,2366,-1696,-384,4470,-201,-303,165,65,-219
0,3706455,2366,-1696,-384,4470,-201,-303,165,65,-219
0,3706461,2366,-1718,-378,4467,-203,-300,165,65,-219
0,3706467,2366,-1718,-378,4467,-203,-300,165,65,-219
0,3706473,2366,-1718,-378,4467,-203,-300,165,65,-219
0,3706479,2364,-1700,-376,4472,-200,-298,165,65,-219
0,3706486,2364,-1700,-376,4472,-200,-298,165,65,-219
0,3706492,2364,-1700,-376,4472,-200,-298,165,65,-219
0,3706499,2367,-1712,-380,4471,-203,-299,165,65,-219
0,3706505,2367,-1712,-380,4471,-203,-299,165,65,-219
0,3706511,2367,-1712,-380,4471,-203,-299,165,65,-219
0,3706517,2365,-1708,-324,4472,-196,-300,165,65,-219
0,3706523,2365,-1708,-324,4472,-196,-300,165,65,-219
0,3706529,2365,-1708,-324,4472,-196,-300,165,65,-219
0,3706535,2365,-1708,-324,4472,-196,-300,165,65,-219
0,3706542,2367,-1714,-368,4476,-207,-296,165,65,-219
0,3706548,2367,-1714,-368,4476,-207,-296,165,65,-219
0,3706554,2367,-1714,-368,4476,-207,-296,165,65,-219
0,3706561,2359,-1715,-333,4476,-201,-292,170,60,-224
0,3706567,2359,-1715,-333,4476,-201,-292,170,60,-224
0,3706573,2359,-1715,-333,4476,-201,-292,170,60,-224
0,3706580,2370,-1712,-388,4472,-194,-294,170,60,-224
0,3706587,2370,-1712,-388,4472,-194,-294,170,60,-224
0,3706592,2370,-1712,-388,4472,-194,-294,170,60,-224
0,3706599,2364,-1709,-332,4482,-196,-294,170,60,-224
0,3706605,2364,-1709,-332,4482,-196,-294,170,60,-224
0,3706611,2364,-1709,-332,4482,-196,-294,170,60,-224
0,3706617,2364,-1709,-332,4482,-196,-294,170,60,-224
0,3706624,2364,-1709,-332,4482,-196,-294,170,60,-224
0,3706630,2364,-1709,-332,4482,-196,-294,170,60,-224
0,3706636,2363,-1705,-368,4483,-196,-288,170,60,-224
0,3706642,2363,-1705,-368,4483,-196,-288,170,60,-224
0,3706648,2363,-1705,-368,4483,-196,-288,170,60,-224
0,3706654,2363,-1705,-368,4483,-196,-288,170,60,-224
0,3706660,2364,-1725,-375,4492,-186,-294,170,60,-224
0,3706667,2364,-1725,-375,4492,-186,-294,170,60,-224
0,3706673,2364,-1725,-375,4492,-186,-294,170,60,-224
0,3706679,2368,-1704,-367,4481,-196,-289,155,59,-223
0,3706685,2368,-1704,-367,4481,-196,-289,155,59,-223
0,3706690,2368,-1704,-367,4481,-196,-289,155,59,-223
0,3706696,2363,-1727,-354,4476,-207,-297,155,59,-223
0,3706702,2363,-1727,-354,4476,-207,-297,155,59,-223
0,3706708,2363,-1727,-354,4476,-207,-297,155,59,-223
0,3706715,2363,-1727,-354,4476,-207,-297,155,59,-223
0,3706721,2364,-1709,-381,4482,-202,-289,155,59,-223
0,3706727,2364,-1709,-381,4482,-202,-289,155,59,-223
0,3706732,2364,-1709,-381,4482,-202,-289,155,59,-223
0,3706738,2367,-1727,-384,4495,-193,-299,155,59,-223
0,3706744,2367,-1727,-384,4495,-193,-299,155,59,-223
0,3706750,2367,-1727,-384,4495,-193,-299,155,59,-223
0,3706757,2363,-1710,-385,4475,-195,-301,155,59,-223
0,3706763,2363,-1710,-385,4475,-195,-301,155,59,-223
0,3706769,2363,-1710,-385,4475,-195,-301,155,59,-223
0,3706775,2363,-1710,-385,4475,-195,-301,155,59,-223
0,3706781,2367,-1723,-389,4476,-197,-295,155,59,-223
0,3706787,2367,-1723,-389,4476,-197,-295,155,59,-223
0,3706793,2367,-1723,-389,4476,-197,-295,155,59,-223
0,3706800,2362,-1718,-379,4485,-201,-293,145,63,-219
0,3706806,2362,-1718,-379,4485,-201,-293,145,63,-219
0,3706811,2362,-1718,-379,4485,-201,-293,145,63,-219
0,3706817,2369,-1715,-425,4481,-189,-296,145,63,-219
0,3706823,2369,-1715,-425,4481,-189,-296,145,63,-219
0,3706829,2369,-1715,-425,4481,-189,-296,145,63,-219
0,3706835,2369,-1715,-425,4481,-189,-296,145,63,-219
0,3706842,2363,-1710,-423,4480,-184,-290,145,63,-219
0,3706848,2363,-1710,-423,4480,-184,-290,145,63,-219
0,3706853,2363,-1710,-423,4480,-184,-290,145,63,-219
0,3706859,2373,-1722,-368,4480,-204,-283,145,63,-219
0,3706865,2373,-1722,-368,4480,-204,-283,145,63,-219
0,3706871,2373,-1722,-368,4480,-204,-283,145,63,-219
0,3706877,2367,-1708,-410,4486,-213,-300,145,63,-219
0,3706884,2367,-1708,-410,4486,-213,-300,145,63,-219
0,3706890,2367,-1708,-410,4486,-213,-300,145,63,-219
0,3706895,2367,-1708,-410,4486,-213,-300,145,63,-219
0,3706901,2354,-1724,-399,4482,-204,-302,145,63,-219
0,3706907,2354,-1724,-399,4482,-204,-302,145,63,-219
0,3706913,2354,-1724,-399,4482,-204,-302,145,63,-219
0,3706919,2369,-1707,-429,4474,-182,-303,145,63,-219
0,3706926,2369,-1707,-429,4474,-182,-303,145,63,-219
0,3706932,2369,-1707,-429,4474,-182,-303,145,63,-219
0,3706938,2364,-1717,-372,4474,-193,-296,148,58,-222
0,3706944,2364,-1717,-372,4474,-193,-296,148,58,-222
0,3706950,2364,-1717,-372,4474,-193,-296,148,58,-222
0,3706958,2365,-1713,-394,4471,-206,-303,148,58,-222
0,3706966,2365,-1713,-394,4471,-206,-303,148,58,-222
0,3706976,2365,-1713,-394,4471,-206,-303,148,58,-222
0,3706984,2361,-1717,-400,4469,-202,-295,148,58,-222
0,3706992,2361,-1717,-400,4469,-202,-295,148,58,-222
0,3706999,2364,-1715,-409,4473,-191,-291,148,58,-222
0,3707009,2364,-1715,-409,4473,-191,-291,148,58,-222
0,3707017,2369,-1709,-396,4479,-192,-292,148,58,-222
0,3707026,2369,-1709,-396,4479,-192,-292,148,58,-222
0,3707035,2369,-1709,-396,4479,-192,-292,148,58,-222
0,3707047,2364,-1713,-389,4481,-196,-293,148,58,-222
0,3707059,2366,-1709,-414,4474,-204,-291,139,55,-213
0,3707073,2366,-1709,-414,4474,-204,-291,139,55,-213
0,3707087,2368,-1711,-379,4470,-192,-297,139,55,-213
0,3707102,2369,-1715,-405,4471,-198,-303,139,55,-213
0,3707115,2369,-1715,-405,4471,-198,-303,139,55,-213
0,3707124,2365,-1710,-379,4478,-199,-304,139,55,-213
0,3707139,2363,-1716,-407,4474,-204,-300,139,55,-213
0,3707153,2363,-1716,-407,4474,-204,-300,139,55,-213
0,3707166,2363,-1708,-385,4478,-201,-291,139,55,-213
0,3707182,2367,-1716,-405,4471,-198,-295,139,55,-213
0,3707197,2359,-1705,-386,4474,-197,-295,139,55,-213
0,3707210,2359,-1705,-386,4474,-197,-295,133,51,-219
0,3707224,2364,-1715,-395,4476,-198,-298,133,51,-219
0,3707239,2360,-1707,-382,4467,-200,-299,133,51,-219
0,3707249,2360,-1707,-382,4467,-200,-299,133,51,-219
0,3707262,2367,-1714,-393,4468,-195,-294,133,51,-219
0,3707277,2362,-1706,-390,4467,-198,-299,133,51,-219
0,3707290,2362,-1706,-390,4467,-198,-299,133,51,-219
0,3707304,2366,-1717,-381,4460,-194,-297,133,51,-219
0,3707318,2363,-1706,-370,4459,-201,-298,126,48,-216
0,3707329,2363,-1706,-370,4459,-201,-298,126,48,-216
0,3707342,2363,-1717,-379,4478,-197,-288,126,48,-216
0,3707356,2363,-1717,-379,4478,-197,-288,126,48,-216
0,3707370,2365,-1704,-346,4475,-183,-296,126,48,-216
0,3707383,2366,-1718,-342,4466,-203,-295,126,48,-216
0,3707397,2364,-1712,-359,4465,-210,-298,126,48,-216
0,3707409,2364,-1712,-359,4465,-210,-298,126,48,-216
0,3707421,2362,-1719,-360,4471,-187,-294,126,48,-216
0,3707436,2362,-1719,-360,4471,-187,-294,126,48,-216
0,3707450,2367,-1713,-369,4467,-187,-291,126,48,-216
0,3707458,2367,-1716,-334,4485,-202,-284,121,59,-227
0,3707472,2367,-1716,-334,4485,-202,-284,121,59,-227
0,3707488,2362,-1714,-377,4481,-206,-300,121,59,-227
0,3707501,2365,-1714,-363,4474,-196,-301,121,59,-227
0,3707514,2365,-1714,-363,4474,-196,-301,121,59,-227
0,3707530,2367,-1717,-384,4481,-196,-304,121,59,-227
0,3707543,2367,-1716,-362,4492,-196,-299,121,59,-227
0,3707557,2360,-1712,-377,4484,-203,-294,121,59,-227
0,3707571,2360,-1712,-377,4484,-203,-294,121,59,-227
0,3707584,2363,-1722,-392,4474,-198,-298,111,57,-215
0,3707598,2365,-1709,-376,4481,-198,-294,111,57,-215
0,3707612,2365,-1709,-376,4481,-198,-294,111,57,-215
0,3707625,2363,-1722,-390,4490,-200,-299,111,57,-215
0,3707638,2362,-1707,-377,4493,-200,-290,111,57,-215
0,3707652,2362,-1707,-377,4493,-200,-290,111,57,-215
0,3707667,2363,-1728,-418,4489,-191,-295,111,57,-215
0,3707682,2363,-1713,-434,4490,-191,-292,111,57,-215
0,3707697,2363,-1713,-434,4490,-191,-292,111,57,-215
0,3707709,2366,-1726,-360,4488,-199,-302,96,72,-224
0,3707724,2365,-1715,-408,4483,-221,-296,96,72,-224
0,3707739,2358,-1728,-394,4480,-205,-295,96,72,-224
0,3707751,2358,-1728,-394,4480,-205,-295,96,72,-224
0,3707764,2366,-1707,-427,4468,-189,-300,96,72,-224
0,3707780,2372,-1720,-377,4479,-191,-295,96,72,-224
0,3707793,2372,-1720,-377,4479,-191,-295,96,72,-224
0,3707806,2364,-1710,-393,4484,-214,-297,96,72,-224
0,3707821,2366,-1721,-393,4482,-200,-294,96,72,-224
0,3707834,2366,-1721,-393,4482,-200,-294,96,72,-224
0,3707849,2367,-1707,-411,4479,-193,-299,96,62,-220
0,3707860,2368,-1720,-399,4477,-194,-297,96,62,-220
0,3707876,2368,-1720,-399,4477,-194,-297,96,62,-220
0,3707890,2364,-1709,-394,4479,-200,-294,96,62,-220
0,3707904,2362,-1718,-414,4481,-198,-295,96,62,-220
0,3707918,2366,-1711,-388,4476,-188,-296,96,62,-220
0,3707933,2366,-1711,-388,4476,-188,-296,96,62,-220
0,3707949,2367,-1709,-407,4480,-198,-296,96,62,-220
0,3707964,2361,-1714,-379,4470,-204,-291,79,65,-233
0,3707977,2361,-1714,-379,4470,-204,-291,79,65,-233
0,3707991,2362,-1711,-410,4470,-211,-305,79,65,-233
0,3708004,2361,-1714,-376,4473,-203,-300,79,65,-233
0,3708017,2361,-1714,-376,4473,-203,-300,79,65,-233
0,3708033,2366,-1714,-395,4472,-199,-298,79,65,-233
0,3708047,2362,-1709,-384,4470,-201,-304,79,65,-233
0,3708055,2362,-1709,-384,4470,-201,-304,79,65,-233
0,3708064,2365,-1719,-394,4468,-203,-298,79,65,-233
0,3708072,2365,-1719,-394,4468,-203,-298,79,65,-233
0,3708082,2364,-1708,-383,4472,-197,-297,79,65,-233
0,3708090,2364,-1708,-383,4472,-197,-297,79,65,-233
0,3708098,2366,-1718,-386,4479,-196,-293,79,69,-245
0,3708106,2366,-1718,-386,4479,-196,-293,79,69,-245
0,3708115,2366,-1718,-386,4479,-196,-293,79,69,-245
0,3708125,2366,-1718,-386,4479,-196,-293,79,69,-245
0,3708133,2366,-1718,-386,4479,-196,-293,79,69,-245
0,3708142,2362,-1716,-392,4475,-201,-304,79,69,-245
0,3708149,2362,-1716,-392,4475,-201,-304,79,69,-245
0,3708158,2360,-1704,-371,4471,-200,-293,79,69,-245
0,3708167,2360,-1704,-371,4471,-200,-293,79,69,-245
0,3708176,2360,-1704,-371,4471,-200,-293,79,69,-245
0,3708185,2363,-1714,-382,4473,-210,-297,79,69,-245
0,3708193,2363,-1714,-382,4473,-210,-297,79,69,-245
0,3708199,2363,-1710,-352,4471,-199,-290,79,69,-245
0,3708209,2363,-1710,-352,4471,-199,-290,79,69,-245
0,3708219,2363,-1717,-331,4470,-197,-291,74,80,-250
0,3708227,2363,-1717,-331,4470,-197,-291,74,80,-250
0,3708236,2363,-1717,-331,4470,-197,-291,74,80,-250
0,3708244,2363,-1715,-366,4474,-205,-299,74,80,-250
0,3708254,2363,-1715,-366,4474,-205,-299,74,80,-250
0,3708261,2363,-1723,-346,4466,-196,-294,74,80,-250
0,3708270,2363,-1723,-346,4466,-196,-294,74,80,-250
0,3708278,2368,-1710,-380,4469,-200,-302,74,80,-250
0,3708288,2368,-1710,-380,4469,-200,-302,74,80,-250
0,3708297,2368,-1710,-380,4469,-200,-302,74,80,-250
0,3708305,2361,-1724,-336,4481,-204,-293,74,80,-250
0,3708314,2361,-1724,-336,4481,-204,-293,74,80,-250
0,3708322,2363,-1711,-392,4478,-205,-299,74,80,-250
0,3708333,2363,-1711,-392,4478,-205,-299,74,80,-250
0,3708341,2359,-1726,-354,4491,-189,-290,75,79,-255
0,3708350,2359,-1726,-354,4491,-189,-290,75,79,-255
0,3708360,2367,-1710,-376,4482,-187,-290,75,79,-255
0,3708369,2367,-1710,-376,4482,-187,-290,75,79,-255
0,3708378,2365,-1721,-367,4481,-196,-294,75,79,-255
0,3708386,2365,-1721,-367,4481,-196,-294,75,79,-255
0,3708394,2365,-1721,-367,4481,-196,-294,75,79,-255
0,3708401,2361,-1719,-369,4476,-199,-296,75,79,-255
0,3708409,2361,-1719,-369,4476,-199,-296,75,79,-255
0,3708418,2361,-1719,-369,4476,-199,-296,75,79,-255
0,3708426,2367,-1721,-380,4477,-197,-300,75,79,-255
0,3708435,2367,-1721,-380,4477,-197,-300,75,79,-255
0,3708444,2360,-1718,-372,4483,-203,-297,75,79,-255
0,3708453,2360,-1718,-372,4483,-203,-297,75,79,-255
0,3708462,2364,-1720,-391,4483,-204,-305,75,79,-255
0,3708468,2364,-1720,-391,4483,-204,-305,75,79,-255
0,3708477,2364,-1720,-391,4483,-204,-305,75,79,-255
0,3708485,2357,-1716,-373,4486,-200,-297,69,73,-263
0,3708494,2357,-1716,-373,4486,-200,-297,69,73,-263
0,3708504,2365,-1727,-389,4488,-192,-291,69,73,-263
0,3708512,2365,-1727,-389,4488,-192,-291,69,73,-263
0,3708521,2361,-1710,-430,4487,-196,-298,69,73,-263
0,3708530,2361,-1710,-430,4487,-196,-298,69,73,-263
0,3708538,2361,-1710,-430,4487,-196,-298,69,73,-263
0,3708547,2366,-1725,-389,4490,-191,-294,69,73,-263
0,3708556,2366,-1725,-389,4490,-191,-294,69,73,-263
0,3708564,2366,-1725,-389,4490,-191,-294,69,73,-263
0,3708573,2366,-1725,-389,4490,-191,-294,69,73,-263
0,3708581,2363,-1730,-387,4481,-200,-301,69,73,-263
0,3708591,2363,-1730,-387,4481,-200,-301,69,73,-263
0,3708600,2363,-1720,-416,4486,-195,-300,77,69,-265
0,3708610,2363,-1720,-416,4486,-195,-300,77,69,-265
0,3708619,2365,-1721,-393,4486,-190,-292,77,69,-265
0,3708628,2365,-1721,-393,4486,-190,-292,77,69,-265
0,3708636,2365,-1721,-393,4486,-190,-292,77,69,-265
0,3708645,2364,-1716,-393,4479,-205,-299,77,69,-265
0,3708654,2364,-1716,-393,4479,-205,-299,77,69,-265
0,3708661,2361,-1714,-391,4470,-199,-296,77,69,-265
0,3708668,2361,-1714,-391,4470,-199,-296,77,69,-265
0,3708678,2361,-1714,-391,4470,-199,-296,77,69,-265
0,3708688,2362,-1718,-412,4476,-184,-293,77,69,-265
0,3708697,2362,-1718,-412,4476,-184,-293,77,69,-265
0,3708705,2367,-1711,-397,4473,-192,-302,77,69,-265
0,3708713,2367,-1711,-397,4473,-192,-302,77,69,-265
0,3708723,2367,-1716,-397,4475,-201,-296,77,69,-265
0,3708731,2367,-1716,-397,4475,-201,-296,77,69,-265
0,3708740,2360,-1714,-388,4480,-200,-295,82,70,-272
0,3708750,2360,-1714,-388,4480,-200,-295,82,70,-272
0,3708759,2364,-1710,-408,4463,-187,-289,82,70,-272
0,3708770,2364,-1710,-408,4463,-187,-289,82,70,-272
0,3708779,2363,-1719,-383,4475,-196,-296,82,70,-272
0,3708787,2363,-1719,-383,4475,-196,-296,82,70,-272
0,3708796,2363,-1719,-383,4475,-196,-296,82,70,-272
0,3708805,2364,-1712,-406,4481,-201,-292,82,70,-272
0,3708815,2364,-1712,-406,4481,-201,-292,82,70,-272
0,3708823,2364,-1708,-388,4472,-194,-291,82,70,-272
0,3708832,2364,-1708,-388,4472,-194,-291,82,70,-272
0,3708841,2369,-1720,-400,4473,-203,-292,82,70,-272
0,3708852,2369,-1720,-400,4473,-203,-292,82,70,-272
0,3708860,2365,-1711,-382,4476,-200,-292,80,66,-280
0,3708869,2365,-1711,-382,4476,-200,-292,80,66,-280
0,3708878,2365,-1711,-382,4476,-200,-292,80,66,-280
0,3708887,2363,-1719,-397,4465,-206,-291,80,66,-280
0,3708895,2363,-1719,-397,4465,-206,-291,80,66,-280
0,3708903,2363,-1707,-390,4456,-202,-296,80,66,-280
0,3708912,2363,-1707,-390,4456,-202,-296,80,66,-280
0,3708920,2364,-1717,-386,4465,-202,-300,80,66,-280
0,3708929,2364,-1717,-386,4465,-202,-300,80,66,-280
0,3708937,2364,-1717,-386,4465,-202,-300,80,66,-280
0,3708945,2363,-1710,-391,4469,-206,-301,80,66,-280
0,3708955,2363,-1710,-391,4469,-206,-301,80,66,-280
0,3708963,2366,-1717,-385,4471,-203,-306,80,66,-280
0,3708973,2366,-1717,-385,4471,-203,-306,80,66,-280
0,3708981,2364,-1719,-390,4466,-196,-297,80,66,-280
0,3708990,2364,-1719,-390,4466,-196,-297,80,66,-280
0,3708998,2364,-1719,-390,4466,-196,-297,80,66,-280
0,3709007,2365,-1710,-368,4479,-201,-292,81,67,-285
0,3709016,2365,-1710,-368,4479,-201,-292,81,67,-285
0,3709024,2365,-1710,-368,4479,-201,-292,81,67,-285
0,3709033,2365,-1710,-368,4479,-201,-292,81,67,-285
0,3709042,2362,-1708,-350,4467,-201,-301,81,67,-285
0,3709050,2362,-1708,-350,4467,-201,-301,81,67,-285
0,3709066,2365,-1722,-329,4472,-198,-300,81,67,-285
0,3709080,2361,-1708,-370,4471,-196,-302,81,67,-285
0,3709090,2361,-1708,-370,4471,-196,-302,81,67,-285
0,3709106,2366,-1722,-333,4479,-193,-300,81,67,-285
0,3709118,2366,-1722,-333,4479,-193,-300,81,67,-285
0,3709132,2368,-1714,-378,4480,-197,-297,81,69,-295
0,3709148,2365,-1720,-335,4488,-199,-303,81,69,-295
0,3709163,2357,-1722,-387,4489,-204,-300,81,69,-295
0,3709175,2357,-1722,-387,4489,-204,-300,81,69,-295
0,3709187,2362,-1722,-354,4482,-194,-292,81,69,-295
0,3709201,2368,-1722,-376,4483,-203,-296,81,69,-295
0,3709209,2368,-1722,-376,4483,-203,-296,81,69,-295
0,3709218,2368,-1722,-376,4483,-203,-296,81,69,-295
0,3709232,2361,-1725,-357,4481,-200,-293,81,69,-295
0,3709240,2362,-1721,-378,4484,-196,-295,85,75,-297
0,3709250,2362,-1721,-378,4484,-196,-295,85,75,-297
0,3709263,2364,-1723,-361,4486,-194,-292,85,75,-297
0,3709278,2364,-1723,-361,4486,-194,-292,85,75,-297
0,3709292,2368,-1720,-388,4476,-203,-301,85,75,-297
0,3709307,2364,-1724,-364,4487,-198,-299,85,75,-297
0,3709322,2363,-1722,-399,4488,-200,-290,85,75,-297
0,3709331,2363,-1722,-399,4488,-200,-290,85,75,-297
0,3709339,2363,-1722,-399,4488,-200,-290,85,75,-297
0,3709347,2364,-1720,-371,4481,-196,-294,85,75,-297
0,3709360,2366,-1731,-430,4486,-200,-303,85,75,-297
0,3709375,2366,-1731,-430,4486,-200,-303,85,75,-297
0,3709391,2367,-1717,-405,4484,-198,-297,88,62,-300
0,3709406,2362,-1729,-375,4474,-198,-293,88,62,-300
0,3709421,2364,-1713,-409,4478,-208,-291,88,62,-300
0,3709434,2364,-1713,-409,4478,-208,-291,88,62,-300
0,3709448,2358,-1725,-404,4477,-194,-292,88,62,-300
0,3709462,2368,-1717,-415,4483,-189,-299,88,62,-300
0,3709474,2368,-1717,-415,4483,-189,-299,88,62,-300
0,3709487,2366,-1719,-381,4485,-196,-301,88,62,-300
0,3709499,2360,-1721,-401,4476,-210,-302,88,62,-300
0,3709514,2360,-1721,-401,4476,-210,-302,86,68,-300
0,3709528,2363,-1718,-408,4479,-199,-297,86,68,-300
0,3709542,2365,-1716,-405,4475,-193,-290,86,68,-300
0,3709555,2365,-1716,-405,4475,-193,-290,86,68,-300
0,3709569,2364,-1724,-404,4479,-204,-295,86,68,-300
0,3709584,2360,-1718,-392,4477,-205,-287,86,68,-300
0,3709595,2360,-1718,-392,4477,-205,-287,86,68,-300
0,3709607,2361,-1722,-416,4477,-203,-295,86,68,-300
0,3709623,2367,-1714,-375,4480,-184,-296,86,68,-300
0,3709636,2367,-1714,-375,4480,-184,-296,86,68,-300
0,3709649,2363,-1717,-405,4476,-199,-298,93,81,-309
0,3709663,2364,-1713,-389,4481,-198,-292,93,81,-309
0,3709676,2364,-1713,-389,4481,-198,-292,93,81,-309
0,3709689,2367,-1715,-402,4475,-190,-298,93,81,-309
0,3709703,2362,-1720,-381,4475,-199,-298,93,81,-309
0,3709716,2362,-1720,-381,4475,-199,-298,93,81,-309
0,3709730,2364,-1717,-397,4472,-206,-297,93,81,-309
0,3709745,2363,-1720,-393,4462,-207,-293,93,81,-309
0,3709757,2363,-1720,-393,4462,-207,-293,93,81,-309
0,3709770,2366,-1718,-394,4468,-201,-296,95,77,-309
0,3709786,2363,-1710,-384,4479,-198,-295,95,77,-309
0,3709802,2362,-1721,-394,4477,-196,-297,95,77,-309
0,3709816,2362,-1721,-394,4477,-196,-297,95,77,-309
0,3709832,2366,-1704,-389,4472,-190,-300,95,77,-309
0,3709843,2366,-1704,-389,4472,-190,-300,95,77,-309
0,3709857,2366,-1704,-389,4472,-190,-300,95,77,-309
0,3709871,2363,-1706,-373,4468,-203,-297,95,77,-309
0,3709885,2363,-1720,-381,4473,-201,-297,95,77,-309
0,3709898,2363,-1720,-381,4473,-201,-297,95,77,-309
0,3709913,2365,-1711,-366,4470,-196,-295,102,80,-314
0,3709926,2365,-1718,-323,4479,-201,-291,102,80,-314
0,3709938,2365,-1718,-323,4479,-201,-291,102,80,-314
0,3709952,2362,-1718,-364,4476,-206,-299,102,80,-314
0,3709965,2365,-1721,-347,4479,-190,-297,102,80,-314
0,3709979,2365,-1721,-347,4479,-190,-297,102,80,-314
0,3709995,2369,-1715,-377,4475,-194,-296,102,80,-314
0,3710008,2366,-1725,-323,4474,-200,-300,102,80,-314
0,3710021,2362,-1714,-388,4481,-208,-299,107,95,-319
0,3710036,2362,-1714,-388,4481,-208,-299,107,95,-319
0,3710045,2359,-1732,-331,4475,-192,-292,107,95,-319
0,3710060,2359,-1732,-331,4475,-192,-292,107,95,-319
0,3710068,2369,-1716,-397,4477,-190,-294,107,95,-319
0,3710077,2369,-1716,-397,4477,-190,-294,107,95,-319
0,3710085,2363,-1728,-340,4479,-196,-300,107,95,-319
0,3710093,2363,-1728,-340,4479,-196,-300,107,95,-319
0,3710101,2365,-1721,-375,4486,-203,-296,107,95,-319
0,3710109,2365,-1721,-375,4486,-203,-296,107,95,-319
0,3710117,2365,-1721,-375,4486,-203,-296,107,95,-319
0,3710127,2363,-1727,-379,4481,-196,-295,107,95,-319
0,3710135,2363,-1727,-379,4481,-196,-295,107,95,-319
0,3710143,2365,-1724,-386,4487,-191,-291,104,88,-312
0,3710151,2365,-1724,-386,4487,-191,-291,104,88,-312
0,3710159,2365,-1724,-386,4487,-191,-291,104,88,-312
0,3710167,2366,-1722,-377,4487,-199,-292,104,88,-312
0,3710177,2366,-1722,-377,4487,-199,-292,104,88,-312
0,3710185,2361,-1722,-368,4489,-202,-301,104,88,-312
0,3710194,2361,-1722,-368,4489,-202,-301,104,88,-312
0,3710204,2363,-1722,-399,4486,-197,-301,104,88,-312
0,3710213,2363,-1722,-399,4486,-197,-301,104,88,-312
0,3710221,2363,-1719,-440,4488,-191,-298,104,88,-312
0,3710227,2363,-1719,-440,4488,-191,-298,104,88,-312
0,3710236,2363,-1719,-440,4488,-191,-298,104,88,-312
0,3710243,2369,-1722,-363,4479,-196,-297,104,88,-312
0,3710253,2369,-1722,-363,4479,-196,-297,104,88,-312
0,3710263,2361,-1719,-415,4484,-206,-296,104,88,-312
0,3710271,2361,-1719,-415,4484,-206,-296,104,88,-312
0,3710281,2360,-1726,-386,4489,-195,-298,117,87,-321
0,3710289,2360,-1726,-386,4489,-195,-298,117,87,-321
0,3710303,2367,-1714,-422,4481,-191,-300,117,87,-321
0,3710311,2367,-1714,-422,4481,-191,-300,117,87,-321
0,3710320,2367,-1714,-422,4481,-191,-300,117,87,-321
0,3710326,2364,-1720,-389,4476,-187,-302,117,87,-321
0,3710336,2364,-1720,-389,4476,-187,-302,117,87,-321
0,3710346,2367,-1721,-399,4492,-200,-300,117,87,-321
0,3710354,2367,-1721,-399,4492,-200,-300,117,87,-321
0,3710362,2359,-1719,-394,4483,-207,-301,117,87,-321
0,3710371,2359,-1719,-394,4483,-207,-301,117,87,-321
0,3710381,2361,-1720,-415,4471,-201,-303,117,87,-321
0,3710390,2361,-1720,-415,4471,-201,-303,117,87,-321
0,3710399,2361,-1720,-415,4471,-201,-303,117,87,-321
0,3710407,2366,-1709,-400,4477,-192,-297,117,83,-323
0,3710416,2366,-1709,-400,4477,-192,-297,117,83,-323
0,3710427,2362,-1723,-393,4483,-202,-296,117,83,-323
0,3710435,2362,-1723,-393,4483,-202,-296,117,83,-323
0,3710444,2363,-1711,-405,4482,-201,-296,117,83,-323
0,3710452,2363,-1711,-405,4482,-201,-296,117,83,-323
0,3710461,2363,-1721,-398,4478,-197,-301,117,83,-323
0,3710472,2363,-1721,-398,4478,-197,-301,117,83,-323
0,3710480,2363,-1721,-398,4478,-197,-301,117,83,-323
0,3710487,2364,-1712,-391,4482,-194,-301,117,83,-323
0,3710496,2364,-1712,-391,4482,-194,-301,117,83,-323
0,3710505,2366,-1714,-397,4479,-196,-299,117,83,-323
0,3710514,2366,-1714,-397,4479,-196,-299,117,83,-323
0,3710522,2360,-1714,-393,4473,-199,-293,117,83,-323
0,3710528,2360,-1714,-393,4473,-199,-293,117,83,-323
0,3710537,2360,-1714,-393,4473,-199,-293,117,83,-323
0,3710546,2363,-1720,-395,4478,-192,-294,123,85,-313
0,3710556,2363,-1720,-395,4478,-192,-294,123,85,-313
0,3710565,2368,-1716,-385,4469,-192,-294,123,85,-313
0,3710573,2368,-1716,-385,4469,-192,-294,123,85,-313
0,3710581,2368,-1716,-385,4469,-192,-294,123,85,-313
0,3710588,2368,-1716,-385,4469,-192,-294,123,85,-313
0,3710598,2368,-1716,-385,4469,-192,-294,123,85,-313
0,3710606,2360,-1708,-388,4475,-202,-292,123,85,-313
0,3710614,2360,-1708,-388,4475,-202,-292,123,85,-313
0,3710624,2363,-1720,-390,4473,-197,-299,123,85,-313
0,3710632,2363,-1720,-390,4473,-197,-299,123,85,-313
0,3710644,2363,-1710,-394,4474,-192,-298,123,85,-313
0,3710652,2363,-1710,-394,4474,-192,-298,123,85,-313
0,3710662,2363,-1715,-386,4476,-200,-291,140,84,-324
0,3710672,2363,-1715,-386,4476,-200,-291,140,84,-324
0,3710681,2368,-1711,-389,4473,-201,-297,140,84,-324
0,3710691,2368,-1711,-389,4473,-201,-297,140,84,-324
0,3710700,2368,-1711,-389,4473,-201,-297,140,84,-324
0,3710710,2366,-1715,-373,4479,-204,-294,140,84,-324
0,3710718,2366,-1715,-373,4479,-204,-294,140,84,-324
0,3710729,2364,-1720,-375,4485,-198,-297,140,84,-324
0,3710738,2364,-1720,-375,4485,-198,-297,140,84,-324
0,3710747,2367,-1710,-372,4479,-199,-294,140,84,-324
0,3710755,2367,-1710,-372,4479,-199,-294,140,84,-324
0,3710764,2369,-1719,-314,4480,-202,-294,140,84,-324
0,3710773,2369,-1719,-314,4480,-202,-294,140,84,-324
0,3710783,2359,-1712,-359,4469,-212,-287,142,72,-318
0,3710791,2359,-1712,-359,4469,-212,-287,142,72,-318
0,3710800,2359,-1712,-359,4469,-212,-287,142,72,-318
0,3710811,2360,-1717,-332,4472,-196,-294,142,72,-318
0,3710821,2360,-1717,-332,4472,-196,-294,142,72,-318
0,3710830,2368,-1716,-385,4476,-194,-307,142,72,-318
0,3710839,2368,-1716,-385,4476,-194,-307,142,72,-318
0,3710849,2367,-1719,-321,4484,-191,-301,142,72,-318
0,3710859,2367,-1719,-321,4484,-191,-301,142,72,-318
0,3710868,2364,-1723,-377,4483,-208,-295,142,72,-318
0,3710879,2364,-1723,-377,4483,-208,-295,142,72,-318
0,3710888,2364,-1719,-363,4479,-202,-296,142,72,-318
0,3710898,2364,-1719,-363,4479,-202,-296,142,72,-318
0,3710908,2368,-1722,-384,4469,-191,-294,142,72,-318
0,3710917,2368,-1722,-384,4469,-191,-294,142,72,-318
0,3710926,2368,-1722,-384,4469,-191,-294,141,75,-327
0,3710937,2368,-1722,-384,4469,-191,-294,141,75,-327
0,3710947,2366,-1723,-373,4473,-202,-287,141,75,-327
0,3710957,2366,-1723,-373,4473,-202,-287,141,75,-327
0,3710965,2362,-1718,-381,4480,-200,-292,141,75,-327
0,3710974,2362,-1718,-381,4480,-200,-292,141,75,-327
0,3710983,2368,-1721,-384,4480,-194,-299,141,75,-327
0,3710992,2368,-1721,-384,4480,-194,-299,141,75,-327
0,3711002,2370,-1721,-376,4486,-192,-290,141,75,-327
0,3711010,2370,-1721,-376,4486,-192,-290,141,75,-327
0,3711020,2370,-1721,-376,4486,-192,-290,141,75,-327
0,3711031,2366,-1723,-378,4491,-197,-298,141,75,-327
0,3711040,2366,-1723,-378,4491,-197,-298,141,75,-327
0,3711050,2362,-1725,-391,4489,-197,-298,158,78,-320
0,3711058,2362,-1725,-391,4489,-197,-298,158,78,-320
0,3711068,2363,-1724,-436,4485,-188,-297,158,78,-320
0,3711081,2363,-1724,-436,4485,-188,-297,158,78,-320
0,3711094,2366,-1719,-367,4486,-181,-294,158,78,-320
0,3711108,2363,-1725,-415,4490,-207,-295,158,78,-320
0,3711115,2363,-1725,-415,4490,-207,-295,158,78,-320
0,3711123,2361,-1716,-398,4485,-203,-293,158,78,-320
0,3711131,2361,-1716,-398,4485,-203,-293,158,78,-320
0,3711139,2361,-1716,-398,4485,-203,-293,158,78,-320
0,3711148,2365,-1724,-428,4487,-192,-297,158,78,-320
0,3711162,2366,-1713,-394,4479,-181,-301,158,78,-320
0,3711176,2366,-1713,-394,4479,-181,-301,158,78,-320
0,3711191,2372,-1716,-389,4472,-196,-308,158,74,-320
0,3711204,2358,-1712,-391,4477,-209,-290,158,74,-320
0,3711217,2358,-1712,-391,4477,-209,-290,158,74,-320
0,3711233,2366,-1719,-414,4471,-203,-303,158,74,-320
0,3711241,2366,-1719,-414,4471,-203,-303,158,74,-320
0,3711255,2367,-1708,-401,4479,-193,-294,158,74,-320
0,3711267,2369,-1717,-387,4479,-199,-299,158,74,-320
0,3711281,2369,-1717,-387,4479,-199,-299,158,74,-320
0,3711295,2364,-1713,-397,4475,-205,-292,158,74,-320
0,3711308,2367,-1717,-400,4477,-195,-291,160,72,-316
0,3711322,2368,-1712,-394,4479,-195,-290,160,72,-316
0,3711334,2368,-1712,-394,4479,-195,-290,160,72,-316
0,3711346,2367,-1719,-394,4477,-201,-294,160,72,-316
0,3711360,2367,-1719,-394,4477,-201,-294,160,72,-316
0,3711372,2363,-1706,-392,4464,-208,-296,160,72,-316
0,3711383,2364,-1711,-400,4467,-205,-298,160,72,-316
0,3711396,2364,-1711,-400,4467,-205,-298,160,72,-316
0,3711412,2365,-1705,-386,4482,-194,-297,160,72,-316
0,3711426,2369,-1714,-388,4480,-189,-295,160,72,-316
0,3711438,2369,-1714,-388,4480,-189,-295,160,72,-316
0,3711454,2364,-1707,-389,4465,-207,-292,171,69,-319
0,3711469,2370,-1715,-384,4466,-197,-294,171,69,-319
0,3711484,2368,-1710,-393,4479,-194,-304,171,69,-319
0,3711499,2368,-1710,-393,4479,-194,-304,171,69,-319
0,3711512,2366,-1714,-384,4477,-202,-299,171,69,-319
0,3711525,2364,-1709,-387,4459,-202,-293,171,69,-319
0,3711539,2364,-1709,-387,4459,-202,-293,171,69,-319
0,3711553,2363,-1712,-374,4468,-198,-294,171,69,-319
0,3711566,2366,-1708,-377,4474,-196,-293,179,59,-305
0,3711580,2366,-1708,-377,4474,-196,-293,179,59,-305
0,3711593,2364,-1712,-354,4465,-195,-291,179,59,-305
0,3711604,2366,-1712,-325,4473,-190,-292,179,59,-305
0,3711616,2366,-1712,-325,4473,-190,-292,179,59,-305
0,3711630,2364,-1714,-368,4478,-198,-306,179,59,-305
0,3711644,2362,-1716,-347,4480,-187,-298,179,59,-305
0,3711657,2362,-1716,-347,4480,-187,-298,179,59,-305
0,3711672,2372,-1710,-372,4479,-193,-297,179,59,-305
0,3711683,2366,-1716,-332,4480,-209,-293,186,66,-296
0,3711697,2366,-1716,-332,4480,-209,-293,186,66,-296
0,3711714,2364,-1714,-372,4475,-207,-299,186,66,-296
0,3711728,2366,-1714,-366,4485,-188,-294,186,66,-296
0,3711740,2366,-1714,-366,4485,-188,-294,186,66,-296
0,3711753,2371,-1722,-371,4487,-196,-298,186,66,-296
0,3711768,2362,-1715,-367,4484,-209,-293,186,66,-296
0,3711781,2362,-1715,-367,4484,-209,-293,186,66,-296
0,3711795,2365,-1720,-375,4489,-200,-297,186,66,-296
0,3711809,2365,-1713,-374,4481,-188,-304,186,66,-296
0,3711822,2365,-1713,-374,4481,-188,-304,186,66,-296
0,3711836,2368,-1722,-381,4476,-192,-304,200,60,-298
0,3711848,2366,-1719,-370,4478,-197,-296,200,60,-298
0,3711861,2366,-1719,-370,4478,-197,-296,200,60,-298
0,3711876,2363,-1722,-393,4484,-196,-300,200,60,-298
0,3711890,2366,-1725,-376,4491,-197,-299,200,60,-298
0,3711904,2366,-1718,-420,4478,-199,-301,200,60,-298
0,3711917,2366,-1718,-420,4478,-199,-301,200,60,-298
0,3711931,2368,-1720,-426,4484,-194,-289,200,60,-298
0,3711946,2365,-1714,-363,4475,-196,-287,196,64,-300
0,3711959,2365,-1714,-363,4475,-196,-287,196,64,-300
0,3711971,2363,-1717,-406,4483,-200,-294,196,64,-300
0,3711984,2361,-1718,-400,4486,-189,-295,196,64,-300
0,3711997,2361,-1718,-400,4486,-189,-295,196,64,-300
0,3712012,2370,-1713,-421,4475,-192,-300,196,64,-300
0,3712025,2366,-1715,-370,4486,-196,-300,196,64,-300
0,3712038,2366,-1715,-370,4486,-196,-300,196,64,-300
0,3712052,2365,-1721,-395,4480,-199,-299,196,64,-300
0,3712065,2363,-1718,-405,4486,-197,-298,196,64,-300
0,3712077,2363,-1718,-405,4486,-197,-298,196,64,-300
0,3712086,2363,-1713,-406,4482,-188,-293,198,56,-296
0,3712096,2363,-1713,-406,4482,-188,-293,198,56,-296
0,3712104,2366,-1708,-395,4480,-193,-296,198,56,-296
0,3712114,2366,-1708,-395,4480,-193,-296,198,56,-296
0,3712120,2366,-1708,-395,4480,-193,-296,198,56,-296
0,3712128,2366,-1708,-395,4480,-193,-296,198,56,-296
0,3712138,2366,-1708,-395,4480,-193,-296,198,56,-296
0,3712147,2365,-1708,-408,4485,-203,-288,198,56,-296
0,3712158,2365,-1708,-408,4485,-203,-288,198,56,-296
0,3712171,2365,-1714,-389,4472,-194,-289,198,56,-296
0,3712177,2365,-1714,-389,4472,-194,-289,198,56,-296
0,3712187,2370,-1711,-405,4479,-200,-302,198,56,-296
0,3712194,2370,-1711,-405,4479,-200,-302,198,56,-296
0,3712203,2364,-1706,-378,4475,-199,-298,212,56,-296
0,3712214,2364,-1706,-378,4475,-199,-298,212,56,-296
0,3712225,2365,-1713,-408,4468,-192,-296,212,56,-296
0,3712233,2365,-1713,-408,4468,-192,-296,212,56,-296
0,3712244,2365,-1704,-382,4474,-189,-301,212,56,-296
0,3712253,2365,-1704,-382,4474,-189,-301,212,56,-296
0,3712262,2365,-1704,-382,4474,-189,-301,212,56,-296
0,3712271,2367,-1715,-399,4478,-198,-302,212,56,-296
0,3712280,2367,-1715,-399,4478,-198,-302,212,56,-296
0,3712288,2364,-1703,-383,4482,-196,-300,212,56,-296
0,3712297,2364,-1703,-383,4482,-196,-300,212,56,-296
0,3712304,2365,-1716,-396,4477,-194,-293,212,56,-296
0,3712316,2365,-1716,-396,4477,-194,-293,212,56,-296
0,3712325,2361,-1701,-387,4483,-193,-300,208,62,-288
0,3712334,2361,-1701,-387,4483,-193,-300,208,62,-288
0,3712345,2369,-1717,-390,4470,-201,-296,208,62,-288
0,3712356,2369,-1717,-390,4470,-201,-296,208,62,-288
0,3712367,2362,-1703,-385,4467,-194,-306,208,62,-288
0,3712378,2362,-1703,-385,4467,-194,-306,208,62,-288
0,3712389,2364,-1710,-387,4465,-199,-300,208,62,-288
0,3712400,2364,-1710,-387,4465,-199,-300,208,62,-288
0,3712411,2364,-1706,-380,4473,-199,-299,208,62,-288
0,3712421,2364,-1706,-380,4473,-199,-299,208,62,-288
0,3712432,2368,-1715,-385,4470,-200,-294,208,62,-288
0,3712444,2365,-1709,-349,4481,-191,-303,208,62,-288
0,3712452,2365,-1709,-349,4481,-191,-303,208,62,-288
0,3712463,2366,-1715,-327,4480,-195,-300,204,58,-282
0,3712474,2366,-1715,-327,4480,-195,-300,204,58,-282
0,3712483,2366,-1715,-327,4480,-195,-300,204,58,-282
0,3712493,2366,-1708,-364,4476,-198,-301,204,58,-282
0,3712502,2366,-1708,-364,4476,-198,-301,204,58,-282
0,3712514,2364,-1718,-352,4474,-189,-302,204,58,-282
