imu,time,ax,ay,az,gx,gy,gz,mx,my,mz
2,2896396,-1424,506,-583,-165,-238,-79,91,-19,-257
2,2896401,-1424,506,-583,-165,-238,-79,91,-19,-257
2,2896407,-1424,506,-583,-165,-238,-79,91,-19,-257
2,2896412,-1426,497,-575,-165,-237,-86,91,-19,-257
2,2896418,-1426,497,-575,-165,-237,-86,91,-19,-257
2,2896427,-1426,497,-575,-165,-237,-86,91,-19,-257
2,2896434,-1426,500,-577,-166,-240,-87,91,-19,-257
2,2896442,-1426,500,-577,-166,-240,-87,91,-19,-257
2,2896454,-1427,502,-571,-164,-238,-87,90,-10,-258
2,2896467,-1427,502,-571,-164,-238,-87,90,-10,-258
2,2896481,-1428,503,-572,-160,-234,-85,90,-10,-258
2,2896494,-1426,503,-573,-155,-240,-85,90,-10,-258
2,2896507,-1426,503,-573,-155,-240,-85,90,-10,-258
2,2896520,-1424,501,-576,-157,-238,-86,90,-10,-258
2,2896533,-1420,502,-582,-163,-234,-89,90,-10,-258
2,2896547,-1420,502,-582,-163,-234,-89,90,-10,-258
2,2896562,-1420,498,-579,-164,-236,-88,90,-10,-258
2,2896576,-1423,501,-570,-157,-237,-90,89,-15,-255
2,2896591,-1429,499,-581,-162,-236,-87,89,-15,-255
2,2896607,-1429,499,-581,-162,-236,-87,89,-15,-255
2,2896620,-1425,497,-578,-164,-235,-83,89,-15,-255
2,2896634,-1425,499,-578,-167,-239,-82,89,-15,-255
2,2896646,-1425,499,-578,-167,-239,-82,89,-15,-255
2,2896655,-1425,500,-574,-166,-238,-80,89,-15,-255
2,2896669,-1425,500,-574,-166,-238,-80,89,-15,-255
2,2896683,-1427,501,-575,-169,-235,-86,89,-15,-255
2,2896693,-1427,506,-570,-158,-241,-87,92,-10,-258
2,2896707,-1427,506,-570,-158,-241,-87,92,-10,-258
2,2896722,-1425,499,-567,-163,-244,-88,92,-10,-258
2,2896737,-1423,499,-575,-171,-246,-85,92,-10,-258
2,2896750,-1423,499,-575,-171,-246,-85,92,-10,-258
2,2896764,-1424,498,-577,-165,-247,-84,92,-10,-258
2,2896779,-1424,502,-576,-166,-243,-82,92,-10,-258
2,2896795,-1424,503,-575,-166,-243,-89,92,-10,-258
2,2896811,-1424,503,-575,-166,-243,-89,92,-10,-258
2,2896826,-1427,501,-576,-160,-241,-85,92,-24,-258
2,2896841,-1427,502,-576,-165,-241,-83,92,-24,-258
2,2896856,-1424,499,-575,-163,-241,-84,92,-24,-258
2,2896869,-1424,499,-575,-163,-241,-84,92,-24,-258
2,2896884,-1426,500,-577,-167,-234,-87,92,-24,-258
2,2896899,-1423,503,-575,-160,-232,-90,92,-24,-258
2,2896910,-1423,503,-575,-160,-232,-90,92,-24,-258
2,2896924,-1427,502,-573,-162,-238,-90,92,-24,-258
2,2896939,-1421,497,-575,-168,-245,-87,92,-24,-258
2,2896953,-1424,500,-575,-168,-240,-85,89,-9,-251
2,2896967,-1424,500,-575,-168,-240,-85,89,-9,-251
2,2896980,-1425,502,-578,-165,-236,-88,89,-9,-251
2,2896994,-1425,498,-577,-163,-239,-80,89,-9,-251
2,2897006,-1425,498,-577,-163,-239,-80,89,-9,-251
2,2897021,-1427,499,-574,-157,-238,-88,89,-9,-251
2,2897036,-1424,497,-575,-162,-231,-81,89,-9,-251
2,2897052,-1424,497,-578,-160,-241,-84,89,-9,-251
2,2897063,-1424,497,-578,-160,-241,-84,89,-9,-251
2,2897072,-1425,499,-572,-166,-240,-89,88,-22,-254
2,2897080,-1425,499,-572,-166,-240,-89,88,-22,-254
2,2897088,-1425,499,-572,-166,-240,-89,88,-22,-254
2,2897096,-1427,507,-571,-160,-236,-88,88,-22,-254
2,2897104,-1427,507,-571,-160,-236,-88,88,-22,-254
2,2897113,-1427,503,-582,-157,-237,-83,88,-22,-254
2,2897121,-1427,503,-582,-157,-237,-83,88,-22,-254
2,2897128,-1427,503,-582,-157,-237,-83,88,-22,-254
2,2897133,-1425,498,-574,-158,-234,-81,88,-22,-254
2,2897139,-1425,498,-574,-158,-234,-81,88,-22,-254
2,2897145,-1425,498,-574,-158,-234,-81,88,-22,-254
2,2897152,-1427,497,-576,-161,-232,-87,88,-22,-254
2,2897158,-1427,497,-576,-161,-232,-87,88,-22,-254
2,2897162,-1427,497,-576,-161,-232,-87,88,-22,-254
2,2897167,-1427,497,-576,-161,-232,-87,88,-22,-254
2,2897173,-1426,499,-574,-158,-234,-88,88,-22,-254
2,2897177,-1426,499,-574,-158,-234,-88,88,-22,-254
2,2897182,-1426,499,-574,-158,-234,-88,88,-22,-254
2,2897187,-1426,499,-574,-158,-234,-88,88,-22,-254
2,2897191,-1425,500,-573,-156,-234,-77,92,-22,-252
2,2897197,-1425,500,-573,-156,-234,-77,92,-22,-252
2,2897202,-1425,500,-573,-156,-234,-77,92,-22,-252
2,2897208,-1425,500,-573,-156,-234,-77,92,-22,-252
2,2897212,-1430,503,-576,-158,-237,-92,92,-22,-252
2,2897217,-1430,503,-576,-158,-237,-92,92,-22,-252
2,2897223,-1430,503,-576,-158,-237,-92,92,-22,-252
2,2897229,-1430,503,-576,-158,-237,-92,92,-22,-252
2,2897235,-1428,498,-577,-154,-238,-82,92,-22,-252
2,2897241,-1428,498,-577,-154,-238,-82,92,-22,-252
2,2897247,-1428,498,-577,-154,-238,-82,92,-22,-252
2,2897253,-1427,497,-575,-161,-238,-85,92,-22,-252
2,2897259,-1427,497,-575,-161,-238,-85,92,-22,-252
2,2897264,-1427,497,-575,-161,-238,-85,92,-22,-252
2,2897270,-1427,497,-575,-161,-238,-85,92,-22,-252
2,2897277,-1428,504,-580,-156,-239,-88,92,-22,-252
2,2897285,-1428,504,-580,-156,-239,-88,92,-22,-252
2,2897299,-1424,503,-580,-165,-234,-81,92,-22,-252
2,2897306,-1424,503,-580,-165,-234,-81,92,-22,-252
2,2897314,-1426,500,-573,-165,-231,-92,97,-13,-257
2,2897326,-1426,500,-573,-165,-231,-92,97,-13,-257
2,2897334,-1425,498,-578,-166,-238,-94,97,-13,-257
2,2897346,-1425,498,-578,-166,-238,-94,97,-13,-257
2,2897359,-1424,498,-582,-161,-235,-91,97,-13,-257
2,2897373,-1424,500,-580,-156,-238,-86,97,-13,-257
2,2897386,-1424,500,-580,-156,-238,-86,97,-13,-257
2,2897398,-1424,499,-581,-156,-231,-91,97,-13,-257
2,2897411,-1424,499,-581,-156,-231,-91,97,-13,-257
2,2897425,-1425,502,-580,-164,-237,-89,97,-13,-257
2,2897439,-1424,497,-570,-161,-234,-81,83,-17,-251
2,2897453,-1424,500,-576,-165,-228,-86,83,-17,-251
2,2897467,-1424,500,-576,-165,-228,-86,83,-17,-251
2,2897480,-1426,500,-576,-163,-240,-91,83,-17,-251
2,2897494,-1425,502,-575,-165,-238,-87,83,-17,-251
2,2897508,-1425,502,-575,-165,-238,-87,83,-17,-251
2,2897523,-1426,503,-576,-160,-237,-87,83,-17,-251
2,2897538,-1423,501,-576,-167,-235,-97,83,-17,-251
2,2897553,-1426,495,-579,-167,-234,-81,86,-16,-256
2,2897565,-1426,495,-579,-167,-234,-81,86,-16,-256
2,2897582,-1429,498,-570,-160,-234,-79,86,-16,-256
2,2897597,-1430,502,-576,-159,-234,-84,86,-16,-256
2,2897611,-1428,501,-577,-161,-238,-84,86,-16,-256
2,2897626,-1428,501,-577,-161,-238,-84,86,-16,-256
2,2897640,-1425,502,-571,-163,-237,-89,86,-16,-256
2,2897653,-1423,503,-576,-156,-236,-88,86,-16,-256
2,2897662,-1423,503,-576,-156,-236,-88,86,-16,-256
2,2897675,-1425,502,-574,-166,-237,-80,86,-16,-256
2,2897689,-1425,502,-574,-166,-237,-80,86,-16,-256
2,2897700,-1425,505,-573,-167,-231,-87,92,-18,-258
2,2897712,-1426,504,-574,-159,-228,-85,92,-18,-258
2,2897726,-1426,504,-574,-159,-228,-85,92,-18,-258
2,2897741,-1422,495,-576,-162,-237,-96,92,-18,-258
2,2897757,-1426,498,-574,-166,-235,-88,92,-18,-258
2,2897773,-1426,496,-576,-165,-239,-95,92,-18,-258
2,2897787,-1426,496,-576,-165,-239,-95,92,-18,-258
2,2897800,-1426,498,-577,-168,-245,-90,92,-18,-258
2,2897814,-1428,501,-570,-161,-241,-91,90,-12,-256
2,2897829,-1428,501,-570,-161,-241,-91,90,-12,-256
2,2897844,-1427,502,-579,-173,-234,-85,90,-12,-256
2,2897857,-1423,500,-580,-171,-236,-86,90,-12,-256
2,2897871,-1423,500,-580,-171,-236,-86,90,-12,-256
2,2897885,-1421,498,-578,-171,-233,-80,90,-12,-256
2,2897898,-1423,498,-577,-163,-233,-81,90,-12,-256
2,2897910,-1423,498,-577,-163,-233,-81,90,-12,-256
2,2897925,-1423,501,-574,-159,-233,-88,90,-12,-256
2,2897939,-1420,499,-573,-157,-236,-87,89,-19,-261
2,2897952,-1426,501,-572,-158,-235,-89,89,-19,-261
2,2897965,-1426,501,-572,-158,-235,-89,89,-19,-261
2,2897973,-1428,501,-573,-153,-243,-85,89,-19,-261
2,2897986,-1428,501,-573,-153,-243,-85,89,-19,-261
2,2898000,-1426,499,-575,-155,-238,-79,89,-19,-261
2,2898015,-1429,501,-575,-162,-239,-89,89,-19,-261
2,2898030,-1429,501,-575,-162,-239,-89,89,-19,-261
2,2898043,-1427,501,-574,-157,-239,-91,89,-19,-261
2,2898058,-1426,500,-573,-158,-240,-88,87,-9,-251
2,2898073,-1425,499,-573,-168,-236,-81,87,-9,-251
2,2898084,-1425,499,-573,-168,-236,-81,87,-9,-251
2,2898099,-1426,500,-576,-163,-234,-91,87,-9,-251
2,2898112,-1424,499,-578,-160,-236,-95,87,-9,-251
2,2898125,-1424,499,-578,-160,-236,-95,87,-9,-251
2,2898137,-1426,500,-584,-167,-236,-85,87,-9,-251
2,2898150,-1426,500,-584,-167,-236,-85,87,-9,-251
2,2898161,-1429,501,-576,-164,-238,-86,87,-9,-251
2,2898178,-1429,496,-577,-159,-243,-81,85,-15,-251
2,2898193,-1427,502,-569,-162,-232,-84,85,-15,-251
2,2898208,-1427,502,-569,-162,-232,-84,85,-15,-251
2,2898222,-1425,502,-571,-162,-240,-82,85,-15,-251
2,2898234,-1424,503,-577,-154,-228,-80,85,-15,-251
2,2898248,-1424,503,-577,-154,-228,-80,85,-15,-251
2,2898262,-1427,497,-575,-156,-225,-89,85,-15,-251
2,2898277,-1426,496,-579,-158,-232,-90,85,-15,-251
2,2898290,-1426,496,-579,-158,-232,-90,85,-15,-251
2,2898306,-1426,500,-574,-166,-232,-86,85,-15,-251
2,2898319,-1425,499,-572,-169,-236,-92,87,-17,-253
2,2898332,-1425,499,-572,-169,-236,-92,87,-17,-253
2,2898345,-1429,498,-573,-167,-239,-91,87,-17,-253
2,2898360,-1428,499,-570,-169,-237,-89,87,-17,-253
2,2898375,-1424,500,-578,-160,-233,-87,87,-17,-253
2,2898390,-1424,500,-578,-160,-233,-87,87,-17,-253
2,2898403,-1424,500,-574,-156,-237,-88,87,-17,-253
2,2898418,-1430,504,-577,-158,-241,-91,87,-17,-253
2,2898434,-1428,502,-571,-159,-237,-89,96,-18,-252
2,2898448,-1428,502,-571,-159,-237,-89,96,-18,-252
2,2898461,-1427,498,-574,-157,-236,-86,96,-18,-252
2,2898476,-1427,497,-575,-163,-235,-83,96,-18,-252
2,2898489,-1427,497,-575,-163,-235,-83,96,-18,-252
2,2898501,-1425,501,-576,-159,-242,-83,96,-18,-252
2,2898516,-1423,499,-574,-162,-236,-83,96,-18,-252
2,2898530,-1423,499,-574,-162,-236,-83,96,-18,-252
2,2898544,-1427,501,-581,-163,-239,-84,96,-18,-252
2,2898558,-1426,500,-573,-163,-236,-85,89,-9,-253
2,2898573,-1426,499,-577,-160,-242,-86,89,-9,-253
2,2898586,-1426,499,-577,-160,-242,-86,89,-9,-253
2,2898600,-1428,500,-574,-158,-240,-90,89,-9,-253
2,2898614,-1427,499,-575,-166,-235,-89,89,-9,-253
2,2898630,-1427,499,-575,-166,-235,-89,89,-9,-253
2,2898646,-1428,497,-578,-167,-241,-88,89,-9,-253
2,2898660,-1424,499,-580,-165,-234,-84,89,-9,-253
2,2898673,-1426,498,-578,-168,-241,-87,90,-12,-246
2,2898686,-1426,498,-578,-168,-241,-87,90,-12,-246
2,2898700,-1427,494,-576,-161,-233,-91,90,-12,-246
2,2898714,-1425,496,-577,-160,-234,-86,90,-12,-246
2,2898727,-1425,496,-577,-160,-234,-86,90,-12,-246
2,2898742,-1428,503,-574,-162,-237,-88,90,-12,-246
2,2898757,-1426,498,-574,-161,-236,-84,90,-12,-246
2,2898768,-1426,498,-574,-161,-236,-84,90,-12,-246
2,2898782,-1427,497,-578,-160,-240,-86,90,-12,-246
2,2898797,-1426,499,-574,-161,-234,-93,95,-13,-255
2,2898810,-1426,499,-574,-161,-234,-93,95,-13,-255
2,2898825,-1424,503,-573,-161,-239,-92,95,-13,-255
2,2898840,-1426,502,-577,-159,-237,-85,95,-13,-255
2,2898855,-1428,499,-580,-158,-236,-87,95,-13,-255
2,2898871,-1428,499,-580,-158,-236,-87,95,-13,-255
2,2898885,-1427,496,-580,-161,-237,-89,95,-13,-255
2,2898899,-1427,496,-580,-161,-237,-89,95,-13,-255
2,2898914,-1426,496,-579,-161,-235,-86,95,-13,-255
2,2898927,-1426,496,-579,-161,-235,-86,95,-13,-255
2,2898940,-1428,501,-573,-160,-239,-88,88,-16,-256
2,2898954,-1427,502,-573,-162,-234,-81,88,-16,-256
2,2898967,-1427,502,-573,-162,-234,-81,88,-16,-256
2,2898982,-1426,500,-575,-161,-235,-90,88,-16,-256
2,2898997,-1425,500,-578,-162,-231,-82,88,-16,-256
2,2899011,-1425,500,-578,-162,-231,-82,88,-16,-256
2,2899024,-1424,501,-576,-167,-235,-87,88,-16,-256
2,2899039,-1423,498,-581,-163,-232,-84,88,-16,-256
2,2899050,-1423,498,-581,-163,-232,-84,88,-16,-256
2,2899065,-1423,499,-574,-160,-235,-87,92,-14,-250
2,2899081,-1419,500,-580,-162,-240,-83,92,-14,-250
2,2899096,-1422,498,-579,-161,-234,-83,92,-14,-250
2,2899109,-1422,498,-579,-161,-234,-83,92,-14,-250
2,2899123,-1427,501,-581,-159,-231,-88,92,-14,-250
2,2899138,-1430,500,-576,-158,-236,-93,92,-14,-250
2,2899153,-1424,503,-577,-157,-237,-99,92,-14,-250
2,2899167,-1424,503,-577,-157,-237,-99,92,-14,-250
2,2899181,-1427,499,-570,-163,-235,-89,101,-15,-261
2,2899194,-1423,496,-578,-155,-242,-84,101,-15,-261
2,2899205,-1423,496,-578,-155,-242,-84,101,-15,-261
2,2899218,-1423,498,-575,-168,-237,-84,101,-15,-261
2,2899232,-1423,498,-575,-168,-237,-84,101,-15,-261
2,2899247,-1425,501,-574,-159,-238,-95,101,-15,-261
2,2899261,-1426,502,-578,-161,-237,-95,101,-15,-261
2,2899276,-1426,497,-578,-159,-236,-90,101,-15,-261
2,2899291,-1426,497,-578,-159,-236,-90,101,-15,-261
2,2899302,-1429,496,-581,-166,-243,-90,85,-19,-259
2,2899316,-1426,499,-577,-161,-246,-83,85,-19,-259
2,2899332,-1426,499,-577,-161,-246,-83,85,-19,-259
2,2899347,-1424,500,-580,-165,-239,-89,85,-19,-259
2,2899357,-1426,497,-575,-161,-239,-89,85,-19,-259
2,2899371,-1426,497,-575,-161,-239,-89,85,-19,-259
2,2899385,-1425,499,-570,-169,-232,-85,85,-19,-259
2,2899398,-1426,500,-576,-164,-230,-89,85,-19,-259
2,2899412,-1426,500,-576,-164,-230,-89,85,-19,-259
2,2899428,-1421,498,-578,-158,-240,-93,99,-15,-261
2,2899439,-1423,501,-573,-167,-237,-90,99,-15,-261
2,2899451,-1423,501,-573,-167,-237,-90,99,-15,-261
2,2899467,-1427,501,-578,-157,-234,-85,99,-15,-261
2,2899481,-1429,496,-578,-159,-234,-93,99,-15,-261
2,2899494,-1425,511,-586,-161,-244,-93,99,-15,-261
2,2899510,-1425,511,-586,-161,-244,-93,99,-15,-261
2,2899524,-1426,517,-573,-163,-238,-90,99,-15,-261
2,2899540,-1428,485,-570,-165,-233,-87,99,-15,-261
2,2899556,-1434,514,-578,-160,-239,-86,90,-18,-256
2,2899569,-1434,514,-578,-160,-239,-86,90,-18,-256
2,2899584,-1421,497,-576,-160,-231,-84,90,-18,-256
2,2899598,-1425,513,-573,-160,-232,-93,90,-18,-256
2,2899611,-1425,513,-573,-160,-232,-93,90,-18,-256
2,2899624,-1423,503,-575,-159,-235,-87,90,-18,-256
2,2899639,-1427,494,-573,-162,-231,-85,90,-18,-256
2,2899652,-1427,494,-573,-162,-231,-85,90,-18,-256
2,2899666,-1426,505,-575,-161,-235,-76,90,-18,-256
2,2899681,-1426,502,-567,-158,-226,-76,96,-14,-262
2,2899695,-1429,502,-574,-164,-227,-85,96,-14,-262
2,2899709,-1429,502,-574,-164,-227,-85,96,-14,-262
2,2899722,-1428,499,-577,-164,-236,-87,96,-14,-262
2,2899736,-1428,499,-573,-158,-238,-85,96,-14,-262
2,2899751,-1428,499,-573,-158,-238,-85,96,-14,-262
2,2899767,-1428,500,-573,-160,-238,-83,96,-14,-262
2,2899781,-1426,498,-574,-162,-234,-84,96,-14,-262
2,2899793,-1423,497,-572,-160,-236,-90,89,-27,-261
2,2899808,-1423,497,-572,-160,-236,-90,89,-27,-261
2,2899823,-1425,498,-573,-162,-231,-80,89,-27,-261
2,2899836,-1426,500,-576,-160,-228,-83,89,-27,-261
2,2899850,-1426,500,-576,-160,-228,-83,89,-27,-261
2,2899864,-1427,499,-576,-159,-229,-81,89,-27,-261
2,2899879,-1426,500,-579,-160,-235,-90,89,-27,-261
2,2899891,-1426,500,-579,-160,-235,-90,89,-27,-261
2,2899904,-1425,502,-578,-157,-231,-91,89,-27,-261
2,2899917,-1425,502,-581,-159,-231,-82,96,-18,-258
2,2899931,-1425,502,-581,-159,-231,-82,96,-18,-258
2,2899946,-1426,488,-558,-175,-235,-89,96,-18,-258
2,2899960,-1422,474,-501,-267,-251,-91,96,-18,-258
2,2899975,-1433,490,-570,-366,-260,-88,96,-18,-258
2,2899983,-1433,490,-570,-366,-260,-88,96,-18,-258
2,2899996,-1429,513,-621,-395,-250,-81,96,-18,-258
2,2900011,-1429,513,-621,-395,-250,-81,96,-18,-258
2,2900027,-1430,492,-556,-398,-240,-76,96,-18,-258
2,2900042,-1426,472,-540,-430,-237,-83,91,-21,-257
2,2900057,-1420,474,-559,-490,-251,-91,91,-21,-257
2,2900071,-1420,474,-559,-490,-251,-91,91,-21,-257
2,2900084,-1431,493,-562,-547,-267,-86,91,-21,-257
2,2900100,-1424,499,-589,-567,-266,-88,91,-21,-257
2,2900114,-1421,495,-573,-559,-273,-91,91,-21,-257
2,2900128,-1421,495,-573,-559,-273,-91,91,-21,-257
2,2900140,-1426,482,-564,-584,-266,-87,91,-21,-257
2,2900155,-1428,489,-559,-630,-266,-82,91,-21,-257
2,2900167,-1428,489,-559,-630,-266,-82,91,-21,-257
2,2900182,-1430,499,-580,-668,-265,-84,83,-19,-257
2,2900197,-1429,498,-567,-700,-265,-92,83,-19,-257
2,2900212,-1429,498,-567,-700,-265,-92,83,-19,-257
2,2900229,-1422,489,-564,-729,-270,-85,83,-19,-257
2,2900244,-1431,492,-570,-752,-272,-83,83,-19,-257
2,2900259,-1433,498,-571,-764,-271,-83,83,-19,-257
2,2900274,-1428,494,-577,-770,-272,-89,83,-19,-257
2,2900288,-1428,494,-577,-770,-272,-89,83,-19,-257
2,2900302,-1428,496,-577,-768,-275,-87,90,-20,-262
2,2900317,-1429,499,-575,-768,-264,-84,90,-20,-262
2,2900328,-1429,499,-575,-768,-264,-84,90,-20,-262
2,2900341,-1429,502,-574,-774,-272,-89,90,-20,-262
2,2900356,-1426,498,-575,-775,-267,-94,90,-20,-262
2,2900370,-1426,498,-575,-775,-267,-94,90,-20,-262
2,2900384,-1428,494,-574,-768,-273,-95,90,-20,-262
2,2900398,-1426,504,-580,-774,-285,-89,90,-20,-262
2,2900410,-1426,504,-580,-774,-285,-89,90,-20,-262
2,2900423,-1430,498,-578,-769,-276,-82,89,-17,-259
2,2900438,-1432,489,-579,-756,-267,-85,89,-17,-259
2,2900453,-1432,489,-579,-756,-267,-85,89,-17,-259
2,2900466,-1431,489,-582,-752,-274,-83,89,-17,-259
2,2900481,-1427,497,-579,-738,-263,-84,89,-17,-259
2,2900497,-1429,498,-583,-723,-268,-87,89,-17,-259
2,2900511,-1429,498,-583,-723,-268,-87,89,-17,-259
2,2900528,-1428,498,-572,-719,-268,-85,89,-17,-259
2,2900541,-1426,498,-569,-705,-278,-85,84,-22,-266
2,2900555,-1427,503,-579,-688,-281,-86,84,-22,-266
2,2900570,-1427,503,-579,-688,-281,-86,84,-22,-266
2,2900583,-1428,503,-579,-674,-265,-85,84,-22,-266
2,2900595,-1429,496,-563,-672,-264,-81,84,-22,-266
2,2900609,-1429,496,-563,-672,-264,-81,84,-22,-266
2,2900625,-1425,494,-565,-682,-268,-81,84,-22,-266
2,2900638,-1429,495,-576,-714,-268,-90,84,-22,-266
2,2900653,-1429,495,-576,-714,-268,-90,84,-22,-266
2,2900666,-1429,494,-574,-729,-272,-85,86,-16,-264
2,2900678,-1430,500,-572,-745,-271,-87,86,-16,-264
2,2900692,-1430,500,-572,-745,-271,-87,86,-16,-264
2,2900707,-1427,492,-572,-756,-280,-89,86,-16,-264
2,2900719,-1419,495,-572,-764,-270,-77,86,-16,-264
2,2900733,-1419,495,-572,-764,-270,-77,86,-16,-264
2,2900748,-1427,500,-567,-780,-277,-84,86,-16,-264
2,2900763,-1425,499,-572,-795,-271,-87,86,-16,-264
2,2900779,-1423,492,-560,-816,-275,-95,86,-16,-264
2,2900793,-1423,492,-560,-816,-275,-95,86,-16,-264
2,2900806,-1424,485,-562,-855,-286,-87,85,-23,-263
2,2900820,-1425,500,-567,-890,-284,-83,85,-23,-263
2,2900833,-1425,500,-567,-890,-284,-83,85,-23,-263
2,2900846,-1424,491,-566,-931,-280,-86,85,-23,-263
2,2900861,-1427,483,-574,-962,-287,-86,85,-23,-263
2,2900875,-1425,487,-578,-987,-294,-79,85,-23,-263
2,2900888,-1425,487,-578,-987,-294,-79,85,-23,-263
2,2900902,-1426,495,-576,-1000,-289,-79,85,-23,-263
2,2900918,-1427,491,-568,-1008,-288,-82,79,-21,-261
2,2900931,-1427,491,-568,-1008,-288,-82,79,-21,-261
2,2900943,-1426,486,-571,-1028,-289,-87,79,-21,-261
2,2900959,-1424,498,-569,-1038,-284,-82,79,-21,-261
2,2900974,-1424,498,-569,-1038,-284,-82,79,-21,-261
2,2900988,-1427,494,-564,-1061,-288,-86,79,-21,-261
2,2901003,-1428,498,-564,-1089,-293,-81,79,-21,-261
2,2901015,-1429,502,-581,-1119,-307,-86,79,-21,-261
2,2901030,-1429,502,-581,-1119,-307,-86,79,-21,-261
2,2901044,-1427,505,-572,-1123,-305,-82,88,-22,-256
2,2901058,-1430,498,-563,-1132,-299,-80,88,-22,-256
2,2901071,-1430,498,-563,-1132,-299,-80,88,-22,-256
2,2901086,-1428,495,-574,-1139,-298,-87,88,-22,-256
2,2901098,-1427,494,-562,-1153,-300,-89,88,-22,-256
2,2901110,-1427,494,-562,-1153,-300,-89,88,-22,-256
2,2901125,-1429,495,-574,-1175,-301,-80,88,-22,-256
2,2901138,-1429,497,-577,-1186,-303,-83,88,-22,-256
2,2901153,-1429,497,-577,-1186,-303,-83,88,-22,-256
2,2901168,-1426,495,-570,-1194,-312,-87,73,-15,-261
2,2901183,-1428,491,-570,-1203,-298,-89,73,-15,-261
2,2901197,-1426,492,-572,-1225,-306,-85,73,-15,-261
2,2901212,-1426,492,-572,-1225,-306,-85,73,-15,-261
2,2901226,-1428,491,-572,-1233,-302,-85,73,-15,-261
2,2901241,-1427,484,-574,-1245,-296,-86,73,-15,-261
2,2901256,-1426,489,-576,-1247,-302,-88,73,-15,-261
2,2901268,-1426,489,-576,-1247,-302,-88,73,-15,-261
2,2901282,-1428,494,-571,-1249,-306,-80,77,-17,-265
2,2901298,-1429,498,-570,-1253,-311,-84,77,-17,-265
2,2901311,-1429,498,-570,-1253,-311,-84,77,-17,-265
2,2901325,-1426,494,-571,-1261,-306,-91,77,-17,-265
2,2901339,-1425,493,-570,-1279,-304,-83,77,-17,-265
2,2901347,-1425,493,-570,-1279,-304,-83,77,-17,-265
2,2901356,-1427,493,-573,-1295,-308,-81,77,-17,-265
2,2901370,-1427,493,-573,-1295,-308,-81,77,-17,-265
2,2901385,-1429,502,-576,-1302,-302,-82,77,-17,-265
2,2901400,-1431,497,-568,-1312,-311,-80,77,-17,-265
2,2901415,-1427,497,-569,-1323,-310,-82,74,-16,-266
2,2901429,-1427,497,-569,-1323,-310,-82,74,-16,-266
2,2901443,-1428,497,-570,-1331,-313,-87,74,-16,-266
2,2901458,-1430,500,-569,-1341,-314,-88,74,-16,-266
2,2901472,-1430,500,-569,-1341,-314,-88,74,-16,-266
2,2901483,-1429,494,-576,-1349,-308,-76,74,-16,-266
2,2901497,-1428,491,-572,-1354,-312,-81,74,-16,-266
2,2901512,-1428,491,-572,-1354,-312,-81,74,-16,-266
2,2901529,-1426,492,-573,-1351,-316,-79,74,-16,-266
2,2901542,-1430,499,-577,-1355,-314,-82,73,-17,-261
2,2901556,-1425,497,-579,-1359,-312,-90,73,-17,-261
2,2901568,-1425,497,-579,-1359,-312,-90,73,-17,-261
2,2901579,-1427,500,-575,-1353,-310,-86,73,-17,-261
2,2901593,-1427,500,-575,-1353,-310,-86,73,-17,-261
2,2901607,-1429,489,-574,-1351,-310,-87,73,-17,-261
2,2901621,-1429,491,-580,-1364,-312,-79,73,-17,-261
2,2901637,-1427,493,-579,-1368,-310,-90,73,-17,-261
2,2901651,-1427,493,-579,-1368,-310,-90,73,-17,-261
2,2901667,-1427,492,-574,-1368,-313,-84,82,-18,-262
2,2901681,-1428,496,-574,-1369,-317,-94,82,-18,-262
2,2901695,-1428,496,-574,-1369,-317,-94,82,-18,-262
2,2901709,-1425,493,-574,-1370,-305,-95,82,-18,-262
2,2901723,-1429,502,-581,-1360,-312,-88,82,-18,-262
2,2901734,-1429,502,-581,-1360,-312,-88,82,-18,-262
2,2901748,-1426,497,-581,-1364,-318,-86,82,-18,-262
2,2901763,-1427,502,-575,-1366,-315,-79,82,-18,-262
2,2901776,-1425,504,-573,-1359,-318,-81,64,-16,-264
2,2901791,-1425,504,-573,-1359,-318,-81,64,-16,-264
2,2901805,-1428,500,-577,-1351,-321,-85,64,-16,-264
2,2901816,-1431,499,-585,-1342,-320,-88,64,-16,-264
2,2901830,-1431,499,-585,-1342,-320,-88,64,-16,-264
2,2901847,-1424,501,-577,-1334,-315,-91,64,-16,-264
2,2901863,-1427,500,-575,-1320,-312,-85,64,-16,-264
2,2901877,-1426,490,-574,-1318,-322,-91,64,-16,-264
2,2901890,-1426,490,-574,-1318,-322,-91,64,-16,-264
2,2901902,-1427,494,-577,-1319,-316,-88,70,-10,-258
2,2901917,-1427,500,-571,-1319,-304,-88,70,-10,-258
2,2901931,-1427,500,-571,-1319,-304,-88,70,-10,-258
2,2901945,-1426,495,-573,-1315,-307,-90,70,-10,-258
2,2901959,-1429,492,-582,-1298,-312,-88,70,-10,-258
2,2901972,-1429,492,-582,-1298,-312,-88,70,-10,-258
2,2901984,-1428,492,-579,-1291,-309,-86,70,-10,-258
2,2901998,-1428,491,-577,-1285,-300,-89,70,-10,-258
2,2902013,-1428,491,-577,-1285,-300,-89,70,-10,-258
2,2902027,-1430,495,-573,-1289,-304,-81,65,-13,-263
2,2902041,-1427,496,-572,-1298,-308,-86,65,-13,-263
2,2902056,-1427,497,-571,-1294,-310,-86,65,-13,-263
2,2902072,-1427,497,-571,-1294,-310,-86,65,-13,-263
2,2902084,-1424,495,-579,-1284,-313,-83,65,-13,-263
2,2902098,-1429,495,-572,-1292,-308,-89,65,-13,-263
2,2902113,-1429,495,-572,-1292,-308,-89,65,-13,-263
2,2902127,-1428,498,-574,-1290,-303,-83,65,-13,-263
2,2902138,-1427,501,-573,-1298,-306,-82,65,-13,-263
2,2902152,-1427,501,-573,-1298,-306,-82,65,-13,-263
2,2902166,-1426,500,-573,-1301,-298,-89,62,-22,-264
2,2902180,-1430,502,-573,-1307,-302,-87,62,-22,-264
2,2902195,-1430,502,-573,-1307,-302,-87,62,-22,-264
2,2902209,-1424,503,-573,-1309,-308,-76,62,-22,-264
2,2902222,-1430,496,-578,-1317,-321,-79,62,-22,-264
2,2902233,-1430,496,-578,-1317,-321,-79,62,-22,-264
2,2902247,-1431,488,-575,-1324,-309,-91,62,-22,-264
2,2902261,-1428,489,-580,-1319,-309,-84,62,-22,-264
2,2902276,-1430,492,-574,-1321,-309,-86,62,-22,-264
2,2902290,-1430,492,-574,-1321,-309,-86,62,-14,-258
2,2902303,-1427,498,-574,-1327,-309,-83,62,-14,-258
2,2902317,-1428,496,-577,-1331,-313,-89,62,-14,-258
2,2902331,-1428,496,-577,-1331,-313,-89,62,-14,-258
2,2902346,-1428,495,-575,-1336,-314,-84,62,-14,-258
2,2902358,-1428,495,-575,-1335,-319,-83,62,-14,-258
2,2902372,-1428,495,-575,-1335,-319,-83,62,-14,-258
2,2902386,-1426,489,-575,-1337,-315,-89,62,-14,-258
2,2902402,-1427,494,-578,-1338,-320,-88,58,-10,-258
2,2902415,-1427,494,-578,-1338,-320,-88,58,-10,-258
2,2902429,-1430,494,-572,-1348,-312,-88,58,-10,-258
2,2902444,-1426,497,-568,-1356,-309,-87,58,-10,-258
2,2902456,-1427,498,-566,-1363,-321,-82,58,-10,-258
2,2902469,-1427,498,-566,-1363,-321,-82,58,-10,-258
2,2902483,-1427,498,-566,-1363,-321,-82,58,-10,-258
2,2902499,-1428,498,-581,-1356,-307,-83,58,-10,-258
2,2902514,-1428,498,-581,-1356,-307,-83,58,-10,-258
2,2902528,-1428,498,-581,-1356,-307,-83,62,-16,-252
2,2902542,-1428,497,-569,-1353,-316,-88,62,-16,-252
2,2902557,-1425,500,-575,-1356,-318,-93,62,-16,-252
2,2902573,-1425,500,-575,-1356,-318,-93,62,-16,-252
2,2902586,-1427,495,-572,-1368,-315,-86,62,-16,-252
2,2902597,-1429,500,-575,-1370,-311,-87,62,-16,-252
2,2902608,-1429,500,-575,-1370,-311,-87,62,-16,-252
2,2902623,-1430,495,-571,-1377,-312,-89,62,-16,-252
2,2902636,-1430,498,-573,-1367,-315,-89,46,-10,-250
2,2902650,-1430,498,-573,-1367,-315,-89,46,-10,-250
2,2902664,-1426,502,-578,-1357,-313,-89,46,-10,-250
2,2902678,-1426,497,-580,-1348,-314,-85,46,-10,-250
2,2902689,-1426,497,-580,-1348,-314,-85,46,-10,-250
2,2902703,-1426,496,-569,-1337,-311,-87,46,-10,-250
2,2902716,-1424,495,-571,-1336,-313,-91,46,-10,-250
2,2902730,-1424,495,-571,-1336,-313,-91,46,-10,-250
2,2902745,-1430,494,-571,-1336,-310,-83,46,-10,-250
2,2902760,-1427,497,-576,-1326,-310,-86,46,-10,-250
2,2902773,-1427,497,-576,-1326,-310,-86,46,-10,-250
2,2902786,-1427,498,-576,-1315,-313,-96,46,-14,-260
2,2902801,-1430,496,-576,-1302,-308,-88,46,-14,-260
2,2902816,-1430,496,-576,-1302,-308,-88,46,-14,-260
2,2902832,-1430,495,-577,-1292,-311,-86,46,-14,-260
2,2902843,-1426,499,-572,-1290,-308,-84,46,-14,-260
2,2902858,-1430,498,-575,-1288,-309,-83,46,-14,-260
2,2902874,-1430,498,-575,-1288,-309,-83,46,-14,-260
2,2902887,-1425,498,-576,-1280,-304,-87,46,-14,-260
2,2902900,-1425,500,-568,-1281,-306,-85,54,-14,-252
2,2902915,-1425,500,-568,-1281,-306,-85,54,-14,-252
2,2902929,-1428,499,-565,-1284,-315,-83,54,-14,-252
2,2902942,-1433,495,-575,-1302,-314,-83,54,-14,-252
2,2902956,-1433,495,-575,-1302,-314,-83,54,-14,-252
2,2902969,-1430,487,-574,-1307,-314,-82,54,-14,-252
2,2902983,-1431,490,-567,-1320,-318,-85,54,-14,-252
2,2902998,-1423,495,-568,-1333,-313,-84,54,-14,-252
2,2903011,-1423,495,-568,-1333,-313,-84,54,-14,-252
2,2903023,-1425,496,-570,-1349,-310,-87,42,-14,-254
2,2903036,-1424,493,-567,-1354,-314,-81,42,-14,-254
2,2903052,-1424,493,-567,-1354,-314,-81,42,-14,-254
2,2903066,-1429,487,-572,-1358,-319,-86,42,-14,-254
2,2903079,-1428,489,-577,-1366,-309,-93,42,-14,-254
2,2903095,-1428,489,-577,-1366,-309,-93,42,-14,-254
2,2903110,-1425,493,-574,-1366,-307,-90,42,-14,-254
2,2903126,-1431,496,-574,-1369,-317,-91,42,-14,-254
2,2903140,-1426,496,-575,-1374,-324,-82,48,-16,-256
2,2903154,-1426,496,-575,-1374,-324,-82,48,-16,-256
2,2903169,-1428,491,-577,-1368,-316,-91,48,-16,-256
2,2903183,-1429,492,-577,-1365,-311,-76,48,-16,-256
2,2903197,-1424,497,-575,-1363,-308,-86,48,-16,-256
2,2903211,-1424,497,-575,-1363,-308,-86,48,-16,-256
2,2903227,-1427,499,-571,-1361,-309,-86,48,-16,-256
2,2903239,-1430,496,-569,-1365,-311,-85,48,-16,-256
2,2903254,-1430,496,-569,-1365,-311,-85,48,-16,-256
2,2903268,-1427,492,-570,-1385,-317,-85,35,-21,-251
2,2903282,-1429,495,-570,-1393,-316,-89,35,-21,-251
2,2903291,-1429,495,-570,-1393,-316,-89,35,-21,-251
2,2903301,-1428,500,-572,-1387,-315,-88,35,-21,-251
2,2903315,-1428,500,-572,-1387,-315,-88,35,-21,-251
2,2903330,-1431,497,-570,-1384,-314,-86,35,-21,-251
2,2903346,-1427,500,-578,-1383,-318,-92,35,-21,-251
2,2903361,-1429,498,-575,-1370,-312,-86,35,-21,-251
2,2903376,-1429,507,-587,-1342,-312,-91,35,-21,-251
2,2903391,-1429,507,-587,-1342,-312,-91,35,-21,-251
2,2903406,-1429,507,-587,-1342,-312,-91,37,-15,-247
2,2903420,-1426,489,-569,-1312,-308,-91,37,-15,-247
2,2903435,-1426,489,-569,-1312,-308,-91,37,-15,-247
2,2903446,-1430,498,-581,-1310,-310,-87,37,-15,-247
2,2903458,-1427,499,-571,-1308,-311,-87,37,-15,-247
2,2903473,-1427,499,-571,-1308,-311,-87,37,-15,-247
2,2903486,-1428,495,-571,-1306,-304,-81,37,-15,-247
2,2903500,-1431,491,-566,-1313,-306,-90,37,-15,-247
2,2903515,-1431,491,-566,-1313,-306,-90,37,-15,-247
2,2903527,-1427,503,-570,-1332,-309,-87,33,-17,-245
2,2903540,-1430,500,-574,-1330,-312,-83,33,-17,-245
2,2903555,-1430,500,-574,-1330,-312,-83,33,-17,-245
2,2903569,-1431,492,-579,-1321,-310,-83,33,-17,-245
2,2903583,-1426,498,-586,-1304,-306,-84,33,-17,-245
2,2903598,-1426,502,-581,-1289,-306,-87,33,-17,-245
2,2903613,-1426,502,-581,-1289,-306,-87,33,-17,-245
2,2903628,-1427,495,-564,-1288,-304,-87,33,-17,-245
2,2903645,-1425,491,-556,-1307,-309,-90,27,-15,-253
2,2903659,-1424,503,-573,-1323,-308,-89,27,-15,-253
2,2903673,-1424,503,-573,-1323,-308,-89,27,-15,-253
2,2903688,-1432,497,-582,-1331,-310,-90,27,-15,-253
2,2903702,-1430,490,-575,-1321,-309,-78,27,-15,-253
2,2903714,-1430,490,-575,-1321,-309,-78,27,-15,-253
2,2903727,-1429,489,-581,-1317,-305,-87,27,-15,-253
2,2903741,-1427,493,-573,-1328,-309,-91,27,-15,-253
2,2903755,-1427,493,-573,-1328,-309,-91,27,-15,-253
2,2903770,-1426,494,-574,-1329,-310,-90,19,-21,-239
2,2903784,-1428,499,-577,-1337,-311,-90,19,-21,-239
2,2903794,-1428,499,-577,-1337,-311,-90,19,-21,-239
2,2903809,-1425,495,-569,-1336,-306,-90,19,-21,-239
2,2903822,-1425,489,-574,-1338,-304,-84,19,-21,-239
2,2903837,-1430,492,-577,-1346,-314,-89,19,-21,-239
2,2903852,-1430,492,-577,-1346,-314,-89,19,-21,-239
2,2903866,-1427,495,-572,-1347,-313,-91,19,-21,-239
2,2903882,-1425,494,-575,-1346,-316,-89,27,-17,-239
2,2903898,-1425,491,-577,-1346,-309,-89,27,-17,-239
2,2903913,-1425,491,-577,-1346,-309,-89,27,-17,-239
2,2903929,-1425,493,-578,-1345,-311,-87,27,-17,-239
2,2903944,-1429,495,-571,-1353,-308,-86,27,-17,-239
2,2903957,-1428,490,-578,-1351,-308,-88,27,-17,-239
2,2903971,-1428,490,-578,-1351,-308,-88,27,-17,-239
2,2903983,-1429,497,-575,-1352,-320,-92,27,-17,-239
2,2903997,-1427,500,-570,-1349,-313,-82,27,-17,-239
2,2904012,-1427,500,-570,-1349,-313,-82,27,-17,-239
2,2904026,-1424,498,-566,-1340,-314,-80,26,-12,-240
2,2904039,-1425,495,-575,-1332,-304,-85,26,-12,-240
2,2904053,-1425,495,-575,-1332,-304,-85,26,-12,-240
2,2904068,-1424,494,-576,-1333,-313,-88,26,-12,-240
2,2904082,-1431,495,-565,-1332,-318,-93,26,-12,-240
2,2904096,-1431,495,-565,-1332,-318,-93,26,-12,-240
2,2904109,-1432,494,-570,-1349,-314,-89,26,-12,-240
2,2904124,-1425,499,-578,-1349,-313,-84,26,-12,-240
2,2904136,-1425,499,-578,-1349,-313,-84,26,-12,-240
2,2904146,-1427,498,-573,-1341,-314,-89,24,-12,-236
2,2904160,-1428,495,-575,-1337,-316,-79,24,-12,-236
2,2904173,-1428,495,-575,-1337,-316,-79,24,-12,-236
2,2904187,-1425,491,-579,-1329,-315,-89,24,-12,-236
2,2904198,-1425,489,-575,-1322,-307,-86,24,-12,-236
2,2904211,-1425,489,-575,-1322,-307,-86,24,-12,-236
2,2904225,-1427,489,-574,-1324,-299,-87,24,-12,-236
2,2904239,-1428,491,-567,-1340,-299,-89,24,-12,-236
2,2904253,-1428,491,-567,-1340,-299,-89,24,-12,-236
2,2904264,-1427,494,-570,-1361,-309,-89,20,-14,-234
2,2904278,-1426,494,-579,-1375,-319,-92,20,-14,-234
2,2904293,-1426,494,-579,-1375,-319,-92,20,-14,-234
2,2904308,-1428,494,-575,-1367,-314,-82,20,-14,-234
2,2904324,-1426,491,-577,-1353,-318,-80,20,-14,-234
2,2904336,-1426,491,-577,-1353,-318,-80,20,-14,-234
2,2904351,-1425,500,-582,-1347,-313,-85,20,-14,-234
2,2904366,-1427,491,-577,-1343,-305,-81,20,-14,-234
2,2904380,-1428,496,-577,-1341,-309,-80,28,-16,-244
2,2904393,-1428,496,-577,-1341,-309,-80,28,-16,-244
2,2904408,-1428,490,-570,-1329,-315,-80,28,-16,-244
2,2904421,-1426,496,-577,-1327,-311,-90,28,-16,-244
2,2904436,-1426,496,-577,-1327,-311,-90,28,-16,-244
2,2904446,-1427,496,-576,-1318,-304,-90,28,-16,-244
2,2904455,-1427,496,-576,-1318,-304,-90,28,-16,-244
2,2904464,-1428,499,-578,-1303,-306,-84,28,-16,-244
2,2904475,-1428,499,-578,-1303,-306,-84,28,-16,-244
2,2904489,-1424,497,-573,-1295,-312,-86,28,-16,-244
2,2904504,-1425,493,-576,-1288,-311,-80,18,-8,-228
2,2904518,-1426,497,-579,-1282,-309,-81,18,-8,-228
2,2904535,-1426,497,-579,-1282,-309,-81,18,-8,-228
2,2904549,-1425,494,-574,-1273,-306,-81,18,-8,-228
2,2904562,-1429,493,-573,-1267,-309,-81,18,-8,-228
2,2904578,-1429,493,-573,-1267,-309,-81,18,-8,-228
2,2904593,-1425,489,-573,-1260,-304,-93,18,-8,-228
2,2904608,-1428,482,-559,-1270,-303,-91,18,-8,-228
2,2904622,-1426,475,-542,-1319,-305,-85,18,-8,-228
2,2904634,-1426,475,-542,-1319,-305,-85,18,-8,-228
2,2904648,-1426,490,-585,-1359,-311,-86,17,-9,-229
2,2904663,-1429,498,-583,-1365,-317,-89,17,-9,-229
2,2904676,-1429,498,-583,-1365,-317,-89,17,-9,-229
2,2904690,-1431,483,-558,-1362,-314,-86,17,-9,-229
2,2904706,-1430,489,-593,-1363,-311,-85,17,-9,-229
2,2904720,-1429,483,-565,-1371,-318,-83,17,-9,-229
2,2904731,-1429,483,-565,-1371,-318,-83,17,-9,-229
2,2904745,-1427,479,-572,-1378,-314,-82,17,-9,-229
2,2904760,-1426,492,-570,-1392,-310,-90,20,-10,-230
2,2904774,-1426,492,-570,-1392,-310,-90,20,-10,-230
2,2904788,-1427,494,-575,-1385,-315,-87,20,-10,-230
2,2904804,-1421,497,-581,-1387,-313,-82,20,-10,-230
2,2904819,-1429,493,-574,-1389,-312,-85,20,-10,-230
2,2904835,-1429,493,-574,-1389,-312,-85,20,-10,-230
2,2904850,-1427,492,-572,-1388,-317,-90,20,-10,-230
2,2904864,-1424,498,-573,-1378,-309,-92,20,-10,-230
2,2904879,-1424,494,-573,-1379,-310,-88,15,-15,-225
2,2904892,-1424,494,-573,-1379,-310,-88,15,-15,-225
2,2904906,-1426,498,-577,-1377,-308,-90,15,-15,-225
2,2904922,-1426,503,-579,-1373,-308,-94,15,-15,-225
2,2904937,-1426,503,-579,-1373,-308,-94,15,-15,-225
2,2904951,-1426,503,-585,-1348,-312,-86,15,-15,-225
2,2904965,-1425,499,-585,-1322,-308,-83,15,-15,-225
2,2904979,-1430,493,-571,-1307,-303,-89,15,-15,-225
2,2904993,-1430,493,-571,-1307,-303,-89,15,-15,-225
2,2905007,-1430,494,-574,-1291,-305,-86,2,-14,-222
2,2905022,-1425,494,-574,-1286,-307,-95,2,-14,-222
2,2905031,-1425,494,-574,-1286,-307,-95,2,-14,-222
2,2905046,-1426,493,-577,-1283,-308,-95,2,-14,-222
2,2905061,-1423,493,-576,-1277,-304,-88,2,-14,-222
2,2905073,-1423,493,-576,-1277,-304,-88,2,-14,-222
2,2905085,-1426,493,-574,-1278,-306,-84,2,-14,-222
2,2905099,-1427,492,-578,-1274,-301,-88,2,-14,-222
2,2905113,-1427,492,-578,-1274,-301,-88,2,-14,-222
2,2905127,-1428,487,-573,-1272,-305,-91,-3,-21,-221
2,2905141,-1427,489,-573,-1273,-299,-87,-3,-21,-221
2,2905153,-1427,489,-573,-1273,-299,-87,-3,-21,-221
2,2905165,-1427,490,-568,-1284,-310,-87,-3,-21,-221
2,2905181,-1420,487,-571,-1298,-307,-90,-3,-21,-221
2,2905194,-1420,487,-571,-1298,-307,-90,-3,-21,-221
2,2905208,-1423,493,-581,-1300,-305,-86,-3,-21,-221
2,2905223,-1423,493,-567,-1305,-308,-82,-3,-21,-221
2,2905239,-1426,492,-578,-1297,-302,-91,-3,-21,-221
2,2905254,-1426,492,-578,-1297,-302,-91,-3,-21,-221
2,2905269,-1428,493,-573,-1296,-301,-86,11,-9,-221
2,2905283,-1430,497,-570,-1295,-303,-94,11,-9,-221
2,2905296,-1430,497,-570,-1295,-303,-94,11,-9,-221
2,2905311,-1427,491,-569,-1305,-300,-88,11,-9,-221
2,2905323,-1425,493,-573,-1315,-295,-80,11,-9,-221
2,2905336,-1425,493,-573,-1315,-295,-80,11,-9,-221
2,2905351,-1424,494,-568,-1322,-310,-94,11,-9,-221
2,2905364,-1426,491,-571,-1323,-313,-87,11,-9,-221
2,2905377,-1426,491,-571,-1323,-313,-87,11,-9,-221
2,2905391,-1427,490,-569,-1325,-310,-92,4,-12,-224
2,2905403,-1428,492,-579,-1320,-302,-88,4,-12,-224
2,2905416,-1428,492,-579,-1320,-302,-88,4,-12,-224
2,2905430,-1427,487,-579,-1314,-300,-82,4,-12,-224
2,2905443,-1428,490,-575,-1313,-295,-86,4,-12,-224
2,2905458,-1428,490,-575,-1313,-295,-86,4,-12,-224
2,2905474,-1429,492,-579,-1328,-303,-88,4,-12,-224
2,2905488,-1429,493,-576,-1339,-309,-86,4,-12,-224
2,2905501,-1425,490,-566,-1343,-299,-84,-1,-11,-211
2,2905516,-1425,490,-566,-1343,-299,-84,-1,-11,-211
2,2905531,-1426,492,-561,-1352,-304,-89,-1,-11,-211
2,2905545,-1425,484,-563,-1365,-304,-85,-1,-11,-211
2,2905558,-1425,484,-563,-1365,-304,-85,-1,-11,-211
2,2905570,-1423,494,-569,-1385,-309,-89,-1,-11,-211
2,2905584,-1425,496,-574,-1398,-311,-87,-1,-11,-211
2,2905597,-1425,496,-574,-1398,-311,-87,-1,-11,-211
2,2905612,-1428,493,-573,-1400,-314,-80,-1,-11,-211
2,2905626,-1424,492,-571,-1397,-306,-86,4,-10,-220
2,2905638,-1424,492,-571,-1397,-306,-86,4,-10,-220
2,2905652,-1428,490,-578,-1398,-309,-80,4,-10,-220
2,2905666,-1428,500,-572,-1394,-318,-82,4,-10,-220
2,2905680,-1427,495,-572,-1391,-322,-86,4,-10,-220
2,2905695,-1427,495,-572,-1391,-322,-86,4,-10,-220
2,2905709,-1427,495,-578,-1392,-319,-94,4,-10,-220
2,2905724,-1430,495,-578,-1382,-316,-90,4,-10,-220
2,2905740,-1425,490,-570,-1374,-317,-89,-11,-17,-211
2,2905755,-1425,490,-570,-1374,-317,-89,-11,-17,-211
2,2905768,-1425,495,-571,-1378,-317,-85,-11,-17,-211
2,2905783,-1427,492,-574,-1378,-305,-89,-11,-17,-211
2,2905795,-1427,492,-574,-1378,-305,-89,-11,-17,-211
2,2905808,-1427,492,-574,-1378,-305,-89,-11,-17,-211
2,2905823,-1428,496,-571,-1372,-317,-81,-11,-17,-211
2,2905837,-1428,496,-571,-1372,-317,-81,-11,-17,-211
2,2905850,-1426,491,-579,-1361,-320,-78,-11,-17,-211
2,2905865,-1428,500,-579,-1365,-315,-89,-5,-15,-211
2,2905879,-1428,500,-579,-1365,-315,-89,-5,-15,-211
2,2905891,-1427,494,-579,-1345,-308,-89,-5,-15,-211
2,2905904,-1427,492,-579,-1320,-308,-90,-5,-15,-211
2,2905918,-1427,492,-579,-1320,-308,-90,-5,-15,-211
2,2905930,-1428,491,-578,-1309,-310,-86,-5,-15,-211
2,2905945,-1423,492,-580,-1297,-313,-90,-5,-15,-211
2,2905960,-1426,489,-577,-1282,-305,-85,-5,-15,-211
2,2905973,-1426,489,-577,-1282,-305,-85,-5,-15,-211
2,2905987,-1426,494,-578,-1278,-310,-84,-5,-15,-211
2,2906001,-1425,495,-572,-1272,-310,-92,-11,-11,-207
2,2906017,-1425,495,-572,-1272,-310,-92,-11,-11,-207
2,2906033,-1425,494,-577,-1262,-306,-84,-11,-11,-207
2,2906046,-1424,497,-576,-1251,-308,-82,-11,-11,-207
2,2906057,-1424,497,-576,-1251,-308,-82,-11,-11,-207
2,2906073,-1429,492,-567,-1248,-304,-92,-11,-11,-207
2,2906086,-1426,494,-577,-1241,-300,-81,-11,-11,-207
2,2906100,-1427,491,-571,-1246,-310,-78,-11,-11,-207
2,2906115,-1427,491,-571,-1246,-310,-78,-11,-11,-207
2,2906129,-1427,484,-556,-1262,-305,-88,-7,-21,-215
2,2906143,-1428,488,-561,-1292,-310,-86,-7,-21,-215
2,2906156,-1428,488,-561,-1292,-310,-86,-7,-21,-215
2,2906170,-1425,485,-572,-1319,-311,-89,-7,-21,-215
2,2906184,-1426,497,-581,-1330,-311,-95,-7,-21,-215
2,2906199,-1426,497,-581,-1330,-311,-95,-7,-21,-215
2,2906213,-1426,489,-575,-1335,-307,-88,-7,-21,-215
2,2906227,-1424,494,-578,-1330,-304,-83,-7,-21,-215
2,2906241,-1427,488,-571,-1334,-301,-79,-11,-15,-207
2,2906254,-1427,488,-571,-1334,-301,-79,-11,-15,-207
2,2906269,-1426,492,-571,-1331,-306,-88,-11,-15,-207
2,2906285,-1426,489,-574,-1336,-304,-85,-11,-15,-207
2,2906297,-1426,489,-574,-1336,-304,-85,-11,-15,-207
2,2906310,-1426,494,-578,-1345,-298,-78,-11,-15,-207
2,2906324,-1428,490,-578,-1350,-303,-78,-11,-15,-207
2,2906339,-1428,490,-578,-1350,-303,-78,-11,-15,-207
2,2906352,-1427,488,-570,-1344,-316,-86,-11,-15,-207
2,2906366,-1423,493,-574,-1341,-318,-82,-7,-9,-203
2,2906381,-1424,491,-576,-1339,-313,-85,-7,-9,-203
2,2906393,-1424,491,-576,-1339,-313,-85,-7,-9,-203
2,2906405,-1428,497,-570,-1353,-302,-86,-7,-9,-203
2,2906420,-1426,494,-576,-1354,-302,-84,-7,-9,-203
2,2906432,-1426,494,-576,-1354,-302,-84,-7,-9,-203
2,2906447,-1428,494,-572,-1356,-309,-82,-7,-9,-203
2,2906463,-1430,495,-571,-1360,-309,-85,-7,-9,-203
2,2906478,-1430,495,-571,-1360,-309,-85,-7,-9,-203
2,2906493,-1427,489,-572,-1369,-314,-86,-12,-14,-206
2,2906509,-1429,488,-574,-1379,-318,-85,-12,-14,-206
2,2906523,-1427,485,-573,-1375,-313,-85,-12,-14,-206
2,2906537,-1427,485,-573,-1375,-313,-85,-12,-14,-206
2,2906546,-1423,495,-577,-1375,-317,-83,-12,-14,-206
2,2906559,-1423,495,-577,-1375,-317,-83,-12,-14,-206
2,2906573,-1424,491,-576,-1377,-319,-84,-12,-14,-206
2,2906588,-1427,494,-578,-1372,-316,-90,-12,-14,-206
2,2906601,-1429,491,-577,-1368,-318,-94,-12,-14,-206
2,2906615,-1429,491,-577,-1368,-318,-94,-12,-14,-206
2,2906627,-1428,488,-565,-1374,-312,-95,-15,-11,-197
2,2906642,-1421,494,-576,-1370,-316,-88,-15,-11,-197
2,2906656,-1421,494,-576,-1370,-316,-88,-15,-11,-197
2,2906672,-1425,491,-574,-1367,-321,-93,-15,-11,-197
2,2906687,-1428,489,-578,-1368,-313,-85,-15,-11,-197
2,2906702,-1427,487,-572,-1365,-309,-91,-15,-11,-197
2,2906716,-1427,487,-572,-1365,-309,-91,-15,-11,-197
2,2906729,-1425,488,-575,-1359,-313,-92,-15,-11,-197
2,2906744,-1425,489,-571,-1357,-317,-87,-15,-11,-191
2,2906760,-1427,491,-578,-1344,-315,-90,-15,-11,-191
2,2906774,-1427,491,-578,-1344,-315,-90,-15,-11,-191
2,2906787,-1429,497,-573,-1318,-306,-86,-15,-11,-191
2,2906802,-1430,495,-575,-1304,-304,-83,-15,-11,-191
2,2906816,-1430,495,-575,-1304,-304,-83,-15,-11,-191
2,2906830,-1426,498,-579,-1288,-303,-83,-15,-11,-191
2,2906844,-1425,491,-574,-1286,-301,-83,-15,-11,-191
2,2906857,-1425,491,-574,-1286,-301,-83,-15,-11,-191
2,2906870,-1426,494,-567,-1284,-303,-86,-24,-20,-198
2,2906880,-1425,491,-561,-1299,-306,-85,-24,-20,-198
2,2906892,-1425,491,-561,-1299,-306,-85,-24,-20,-198
2,2906907,-1428,487,-570,-1312,-311,-85,-24,-20,-198
2,2906921,-1422,491,-573,-1312,-307,-81,-24,-20,-198
2,2906937,-1422,491,-573,-1312,-307,-81,-24,-20,-198
2,2906949,-1423,496,-584,-1299,-306,-81,-24,-20,-198
2,2906964,-1423,496,-584,-1299,-306,-81,-24,-20,-198
2,2906977,-1423,496,-584,-1299,-306,-81,-24,-20,-198
2,2906991,-1429,490,-580,-1286,-296,-87,-17,-5,-189
2,2907005,-1424,490,-571,-1288,-305,-90,-17,-5,-189
2,2907019,-1424,490,-571,-1288,-305,-90,-17,-5,-189
2,2907033,-1421,487,-576,-1299,-303,-85,-17,-5,-189
2,2907047,-1427,486,-576,-1304,-311,-78,-17,-5,-189
2,2907060,-1426,486,-580,-1319,-304,-90,-17,-5,-189
2,2907075,-1426,486,-580,-1319,-304,-90,-17,-5,-189
2,2907087,-1426,489,-576,-1319,-308,-84,-17,-5,-189
2,2907103,-1424,490,-576,-1320,-318,-88,-20,-20,-182
2,2907117,-1424,490,-576,-1320,-318,-88,-20,-20,-182
2,2907133,-1422,498,-573,-1324,-319,-85,-20,-20,-182
2,2907149,-1424,493,-570,-1311,-308,-81,-20,-20,-182
2,2907164,-1429,496,-567,-1312,-306,-83,-20,-20,-182
2,2907180,-1429,496,-567,-1312,-306,-83,-20,-20,-182
2,2907193,-1429,495,-570,-1318,-311,-89,-20,-20,-182
2,2907206,-1427,489,-572,-1311,-309,-84,-20,-20,-182
2,2907220,-1424,491,-569,-1320,-305,-79,-20,-20,-182
2,2907233,-1424,491,-569,-1320,-305,-79,-20,-20,-182
2,2907249,-1424,490,-566,-1330,-308,-87,-26,-18,-186
2,2907261,-1425,496,-563,-1348,-307,-81,-26,-18,-186
2,2907276,-1425,496,-563,-1348,-307,-81,-26,-18,-186
2,2907289,-1425,495,-569,-1354,-308,-85,-26,-18,-186
2,2907303,-1422,495,-571,-1357,-307,-79,-26,-18,-186
2,2907318,-1422,495,-571,-1357,-307,-79,-26,-18,-186
2,2907329,-1425,493,-575,-1349,-310,-85,-26,-18,-186
2,2907342,-1423,489,-576,-1351,-314,-86,-26,-18,-186
2,2907359,-1423,489,-576,-1351,-314,-86,-26,-18,-186
2,2907373,-1425,492,-571,-1357,-306,-86,-19,-21,-191
2,2907385,-1422,492,-576,-1365,-313,-90,-19,-21,-191
2,2907400,-1422,492,-576,-1365,-313,-90,-19,-21,-191
2,2907415,-1427,492,-576,-1381,-317,-87,-19,-21,-191
2,2907429,-1422,493,-578,-1388,-315,-83,-19,-21,-191
2,2907444,-1428,488,-576,-1395,-313,-82,-19,-21,-191
2,2907457,-1428,488,-576,-1395,-313,-82,-19,-21,-191
2,2907471,-1427,489,-573,-1392,-316,-85,-19,-21,-191
2,2907486,-1428,494,-572,-1379,-320,-79,-22,-8,-190
2,2907500,-1428,494,-572,-1379,-320,-79,-22,-8,-190
2,2907512,-1426,497,-575,-1373,-317,-87,-22,-8,-190
2,2907527,-1425,496,-574,-1367,-316,-93,-22,-8,-190
2,2907539,-1425,496,-574,-1367,-316,-93,-22,-8,-190
2,2907553,-1424,498,-572,-1350,-307,-91,-22,-8,-190
2,2907568,-1426,493,-573,-1339,-299,-78,-22,-8,-190
2,2907581,-1424,500,-578,-1329,-304,-87,-22,-8,-190
2,2907594,-1424,500,-578,-1329,-304,-87,-22,-8,-190
2,2907610,-1425,495,-569,-1331,-313,-88,-22,-12,-188
2,2907625,-1427,493,-565,-1323,-307,-83,-22,-12,-188
2,2907641,-1426,491,-570,-1327,-315,-86,-22,-12,-188
2,2907656,-1426,491,-570,-1327,-315,-86,-22,-12,-188
2,2907669,-1426,491,-573,-1328,-301,-90,-22,-12,-188
2,2907681,-1423,493,-575,-1331,-302,-87,-22,-12,-188
2,2907696,-1423,493,-575,-1331,-302,-87,-22,-12,-188
2,2907709,-1425,493,-576,-1335,-314,-89,-22,-12,-188
2,2907723,-1426,492,-577,-1333,-313,-88,-22,-18,-186
2,2907735,-1426,492,-577,-1333,-313,-88,-22,-18,-186
2,2907747,-1425,494,-581,-1335,-309,-85,-22,-18,-186
2,2907762,-1427,495,-577,-1330,-318,-78,-22,-18,-186
2,2907777,-1427,495,-577,-1330,-318,-78,-22,-18,-186
2,2907790,-1427,496,-577,-1322,-311,-83,-22,-18,-186
2,2907804,-1429,492,-578,-1323,-310,-84,-22,-18,-186
2,2907820,-1429,492,-578,-1323,-310,-84,-22,-18,-186
2,2907835,-1425,495,-576,-1310,-307,-97,-22,-18,-186
2,2907850,-1426,490,-568,-1321,-315,-86,-22,-18,-186
2,2907865,-1425,488,-566,-1326,-316,-82,-34,-16,-174
2,2907879,-1425,488,-566,-1326,-316,-82,-34,-16,-174
2,2907893,-1426,492,-571,-1333,-309,-87,-34,-16,-174
2,2907909,-1427,500,-571,-1342,-317,-87,-34,-16,-174
2,2907919,-1427,500,-571,-1342,-317,-87,-34,-16,-174
2,2907931,-1425,492,-573,-1336,-321,-87,-34,-16,-174
2,2907945,-1426,498,-568,-1333,-315,-87,-34,-16,-174
2,2907959,-1426,498,-568,-1333,-315,-87,-34,-16,-174
2,2907973,-1423,495,-574,-1332,-304,-88,-34,-16,-174
2,2907985,-1425,496,-570,-1331,-309,-83,-27,-5,-175
2,2907998,-1425,496,-570,-1331,-309,-83,-27,-5,-175
2,2908012,-1427,498,-566,-1330,-305,-81,-27,-5,-175
2,2908022,-1429,495,-571,-1324,-312,-91,-27,-5,-175
2,2908036,-1429,495,-571,-1324,-312,-91,-27,-5,-175
2,2908048,-1427,496,-573,-1321,-313,-89,-27,-5,-175
2,2908062,-1429,488,-573,-1315,-315,-84,-27,-5,-175
2,2908078,-1429,488,-573,-1315,-315,-84,-27,-5,-175
2,2908089,-1427,490,-574,-1311,-314,-86,-27,-5,-175
2,2908100,-1427,490,-574,-1311,-314,-86,-27,-5,-175
2,2908114,-1431,488,-567,-1319,-310,-88,-23,-15,-177
2,2908128,-1426,491,-572,-1327,-302,-93,-23,-15,-177
2,2908142,-1423,496,-578,-1334,-307,-92,-23,-15,-177
2,2908153,-1423,496,-578,-1334,-307,-92,-23,-15,-177
2,2908167,-1427,496,-578,-1336,-313,-85,-23,-15,-177
2,2908181,-1428,494,-577,-1334,-302,-86,-23,-15,-177
2,2908195,-1428,494,-577,-1334,-302,-86,-23,-15,-177
2,2908209,-1424,491,-571,-1339,-305,-82,-23,-15,-177
2,2908223,-1426,485,-569,-1338,-310,-81,-30,-10,-178
2,2908234,-1426,485,-569,-1338,-310,-81,-30,-10,-178
2,2908248,-1422,492,-571,-1341,-309,-88,-30,-10,-178
2,2908262,-1423,492,-572,-1343,-311,-90,-30,-10,-178
2,2908275,-1423,492,-572,-1343,-311,-90,-30,-10,-178
2,2908289,-1425,496,-578,-1344,-308,-87,-30,-10,-178
2,2908302,-1425,495,-565,-1345,-300,-87,-30,-10,-178
2,2908315,-1425,495,-565,-1345,-300,-87,-30,-10,-178
2,2908332,-1426,496,-572,-1342,-307,-88,-30,-10,-178
2,2908346,-1427,494,-569,-1333,-310,-88,-28,-10,-166
2,2908361,-1425,496,-569,-1334,-311,-87,-28,-10,-166
2,2908375,-1425,496,-569,-1334,-311,-87,-28,-10,-166
2,2908387,-1426,491,-570,-1334,-319,-91,-28,-10,-166
2,2908401,-1426,491,-570,-1334,-319,-91,-28,-10,-166
2,2908414,-1427,492,-569,-1332,-310,-88,-28,-10,-166
2,2908428,-1424,497,-567,-1338,-313,-89,-28,-10,-166
2,2908442,-1423,489,-574,-1336,-315,-83,-28,-10,-166
2,2908456,-1423,489,-574,-1336,-315,-83,-28,-10,-166
2,2908468,-1422,495,-575,-1337,-308,-85,-28,-10,-166
2,2908482,-1426,489,-569,-1336,-316,-87,-37,-13,-165
2,2908495,-1426,489,-569,-1336,-316,-87,-37,-13,-165
2,2908511,-1426,496,-573,-1339,-311,-92,-37,-13,-165
2,2908525,-1430,496,-578,-1335,-309,-83,-37,-13,-165
2,2908539,-1430,496,-578,-1335,-309,-83,-37,-13,-165
2,2908555,-1426,494,-572,-1332,-302,-84,-37,-13,-165
2,2908568,-1421,493,-577,-1333,-308,-88,-37,-13,-165
2,2908582,-1422,491,-583,-1337,-309,-87,-37,-13,-165
2,2908597,-1422,491,-583,-1337,-309,-87,-37,-13,-165
2,2908612,-1426,488,-572,-1336,-310,-87,-33,-19,-155
2,2908625,-1428,490,-569,-1334,-314,-91,-33,-19,-155
2,2908637,-1428,490,-569,-1334,-314,-91,-33,-19,-155
2,2908651,-1428,496,-572,-1335,-315,-87,-33,-19,-155
2,2908665,-1427,494,-576,-1336,-305,-88,-33,-19,-155
2,2908680,-1427,494,-576,-1336,-305,-88,-33,-19,-155
2,2908695,-1426,494,-572,-1333,-301,-88,-33,-19,-155
2,2908707,-1422,498,-566,-1336,-306,-83,-33,-19,-155
2,2908719,-1422,498,-566,-1336,-306,-83,-33,-19,-155
2,2908734,-1425,497,-563,-1334,-314,-80,-35,-19,-159
2,2908749,-1430,490,-574,-1330,-310,-80,-35,-19,-159
2,2908764,-1425,496,-571,-1333,-314,-85,-35,-19,-159
2,2908777,-1425,496,-571,-1333,-314,-85,-35,-19,-159
2,2908791,-1425,494,-571,-1333,-309,-95,-35,-19,-159
2,2908807,-1427,491,-571,-1337,-310,-85,-35,-19,-159
2,2908822,-1423,494,-571,-1339,-317,-90,-35,-19,-159
2,2908835,-1423,494,-571,-1339,-317,-90,-35,-19,-159
2,2908850,-1427,492,-569,-1341,-311,-94,-25,-19,-155
2,2908864,-1427,496,-570,-1346,-302,-92,-25,-19,-155
2,2908876,-1427,496,-570,-1346,-302,-92,-25,-19,-155
2,2908890,-1423,487,-573,-1348,-307,-85,-25,-19,-155
2,2908903,-1425,493,-573,-1337,-307,-81,-25,-19,-155
2,2908917,-1425,493,-573,-1337,-307,-81,-25,-19,-155
2,2908933,-1423,491,-580,-1348,-302,-80,-25,-19,-155
2,2908947,-1426,496,-577,-1343,-305,-85,-25,-19,-155
2,2908961,-1426,496,-577,-1343,-305,-85,-25,-19,-155
2,2908973,-1427,495,-575,-1333,-310,-80,-42,-18,-156
2,2908984,-1428,494,-572,-1336,-311,-74,-42,-18,-156
2,2908997,-1428,494,-572,-1336,-311,-74,-42,-18,-156
2,2909011,-1424,495,-572,-1334,-310,-83,-42,-18,-156
2,2909026,-1426,492,-576,-1333,-302,-81,-42,-18,-156
2,2909041,-1426,492,-576,-1333,-302,-81,-42,-18,-156
2,2909057,-1420,489,-575,-1340,-303,-88,-42,-18,-156
2,2909072,-1422,486,-569,-1342,-315,-83,-42,-18,-156
2,2909086,-1427,491,-564,-1344,-307,-85,-32,-12,-158
2,2909100,-1427,491,-564,-1344,-307,-85,-32,-12,-158
2,2909114,-1422,495,-565,-1342,-309,-89,-32,-12,-158
2,2909126,-1423,499,-575,-1348,-313,-90,-32,-12,-158
2,2909138,-1423,499,-575,-1348,-313,-90,-32,-12,-158
2,2909154,-1428,494,-578,-1349,-310,-89,-32,-12,-158
2,2909167,-1424,495,-568,-1336,-303,-90,-32,-12,-158
2,2909181,-1424,495,-568,-1336,-303,-90,-32,-12,-158
2,2909196,-1424,487,-571,-1336,-305,-82,-32,-12,-158
2,2909207,-1427,492,-577,-1336,-310,-87,-32,-12,-158
2,2909220,-1427,492,-577,-1336,-310,-87,-32,-12,-158
2,2909236,-1426,491,-572,-1330,-304,-87,-36,-10,-148
2,2909251,-1427,493,-573,-1333,-306,-88,-36,-10,-148
2,2909266,-1429,491,-578,-1325,-309,-81,-36,-10,-148
2,2909280,-1429,491,-578,-1325,-309,-81,-36,-10,-148
2,2909292,-1428,498,-578,-1336,-312,-77,-36,-10,-148
2,2909307,-1427,492,-580,-1336,-310,-87,-36,-10,-148
2,2909323,-1426,494,-576,-1328,-311,-94,-36,-10,-148
2,2909337,-1426,494,-576,-1328,-311,-94,-36,-10,-148
2,2909350,-1423,497,-574,-1322,-303,-91,-36,-12,-154
2,2909365,-1423,497,-574,-1322,-303,-91,-36,-12,-154
2,2909380,-1423,497,-574,-1322,-303,-91,-36,-12,-154
2,2909394,-1423,491,-577,-1318,-307,-88,-36,-12,-154
2,2909407,-1426,488,-572,-1323,-310,-81,-36,-12,-154
2,2909421,-1426,488,-572,-1323,-310,-81,-36,-12,-154
2,2909436,-1426,494,-573,-1329,-309,-80,-36,-12,-154
2,2909450,-1425,494,-577,-1325,-321,-82,-36,-12,-154
2,2909464,-1423,489,-566,-1326,-308,-86,-32,-22,-148
2,2909479,-1423,489,-566,-1326,-308,-86,-32,-22,-148
2,2909495,-1424,490,-571,-1335,-310,-93,-32,-22,-148
2,2909510,-1424,488,-567,-1345,-314,-87,-32,-22,-148
2,2909526,-1427,496,-573,-1356,-310,-82,-32,-22,-148
2,2909541,-1427,496,-573,-1356,-310,-82,-32,-22,-148
2,2909555,-1424,493,-572,-1356,-313,-86,-32,-22,-148
2,2909570,-1422,492,-572,-1347,-314,-85,-32,-22,-148
2,2909584,-1425,498,-572,-1343,-320,-88,-39,-11,-139
2,2909598,-1425,498,-572,-1343,-320,-88,-39,-11,-139
2,2909614,-1425,491,-574,-1341,-316,-86,-39,-11,-139
2,2909627,-1425,496,-568,-1340,-307,-93,-39,-11,-139
2,2909639,-1425,496,-568,-1340,-307,-93,-39,-11,-139
2,2909655,-1425,489,-574,-1346,-307,-88,-39,-11,-139
2,2909668,-1425,492,-577,-1351,-317,-91,-39,-11,-139
2,2909682,-1426,490,-576,-1349,-314,-89,-39,-11,-139
2,2909698,-1426,490,-576,-1349,-314,-89,-39,-11,-139
2,2909713,-1426,490,-574,-1345,-313,-89,-35,-15,-143
2,2909728,-1424,494,-575,-1351,-313,-94,-35,-15,-143
2,2909744,-1426,495,-571,-1352,-311,-89,-35,-15,-143
2,2909758,-1426,495,-571,-1352,-311,-89,-35,-15,-143
2,2909772,-1423,494,-567,-1347,-315,-89,-35,-15,-143
2,2909787,-1423,494,-571,-1345,-317,-78,-35,-15,-143
2,2909795,-1423,494,-571,-1345,-317,-78,-35,-15,-143
2,2909808,-1430,490,-572,-1338,-319,-84,-35,-15,-143
2,2909821,-1430,490,-572,-1338,-319,-84,-35,-15,-143
2,2909836,-1427,493,-577,-1329,-303,-87,-35,-15,-143
2,2909850,-1425,496,-569,-1333,-313,-85,-41,-13,-141
2,2909863,-1426,495,-567,-1328,-308,-88,-41,-13,-141
2,2909877,-1426,495,-567,-1328,-308,-88,-41,-13,-141
2,2909890,-1426,491,-573,-1339,-315,-86,-41,-13,-141
2,2909905,-1424,491,-569,-1342,-307,-86,-41,-13,-141
2,2909921,-1424,491,-569,-1342,-307,-86,-41,-13,-141
2,2909936,-1426,494,-573,-1341,-310,-88,-41,-13,-141
2,2909949,-1427,493,-575,-1347,-307,-93,-41,-13,-141
2,2909963,-1424,496,-568,-1343,-315,-83,-37,-19,-143
2,2909978,-1424,496,-568,-1343,-315,-83,-37,-19,-143
2,2909991,-1426,494,-581,-1339,-305,-83,-37,-19,-143
2,2910006,-1427,490,-574,-1330,-299,-86,-37,-19,-143
2,2910020,-1427,490,-574,-1330,-299,-86,-37,-19,-143
2,2910034,-1424,501,-574,-1324,-304,-83,-37,-19,-143
2,2910049,-1425,498,-574,-1335,-309,-84,-37,-19,-143
2,2910062,-1425,498,-574,-1335,-309,-84,-37,-19,-143
2,2910075,-1424,496,-580,-1333,-301,-84,-37,-19,-143
2,2910090,-1426,489,-576,-1323,-312,-91,-32,-10,-130
2,2910099,-1426,489,-576,-1323,-312,-91,-32,-10,-130
2,2910110,-1425,491,-577,-1327,-314,-88,-32,-10,-130
2,2910121,-1425,491,-577,-1327,-314,-88,-32,-10,-130
2,2910135,-1425,491,-577,-1324,-313,-86,-32,-10,-130
2,2910150,-1424,494,-572,-1329,-307,-85,-32,-10,-130
2,2910166,-1425,496,-575,-1329,-312,-82,-32,-10,-130
2,2910181,-1425,496,-575,-1329,-312,-82,-32,-10,-130
2,2910195,-1424,491,-572,-1326,-310,-75,-32,-10,-130
2,2910209,-1424,490,-568,-1325,-305,-84,-39,-15,-131
2,2910223,-1429,492,-566,-1329,-312,-86,-39,-15,-131
2,2910237,-1429,492,-566,-1329,-312,-86,-39,-15,-131
2,2910249,-1426,485,-567,-1330,-308,-83,-39,-15,-131
2,2910264,-1425,494,-568,-1340,-312,-84,-39,-15,-131
2,2910278,-1425,494,-568,-1340,-312,-84,-39,-15,-131
2,2910291,-1425,494,-568,-1340,-312,-84,-39,-15,-131
2,2910307,-1426,495,-574,-1344,-311,-73,-39,-15,-131
2,2910320,-1426,495,-574,-1344,-311,-73,-39,-15,-131
2,2910334,-1426,491,-571,-1350,-315,-83,-30,-22,-124
2,2910350,-1426,495,-574,-1347,-313,-93,-30,-22,-124
2,2910365,-1426,490,-574,-1338,-312,-90,-30,-22,-124
2,2910380,-1426,490,-574,-1338,-312,-90,-30,-22,-124
2,2910394,-1425,493,-579,-1337,-306,-85,-30,-22,-124
2,2910408,-1427,491,-577,-1338,-313,-79,-30,-22,-124
2,2910422,-1427,491,-577,-1338,-313,-79,-30,-22,-124
2,2910433,-1423,493,-579,-1334,-311,-80,-30,-22,-124
2,2910445,-1425,495,-579,-1329,-307,-87,-30,-22,-124
2,2910459,-1425,495,-579,-1329,-307,-87,-30,-22,-124
2,2910474,-1426,491,-569,-1325,-312,-100,-40,-18,-122
2,2910488,-1423,492,-574,-1332,-309,-90,-40,-18,-122
2,2910502,-1423,492,-574,-1332,-309,-90,-40,-18,-122
2,2910514,-1422,488,-579,-1334,-310,-92,-40,-18,-122
2,2910529,-1423,489,-574,-1336,-311,-87,-40,-18,-122
2,2910542,-1423,489,-574,-1336,-311,-87,-40,-18,-122
2,2910557,-1424,495,-577,-1335,-316,-86,-40,-18,-122
2,2910571,-1423,490,-575,-1331,-320,-84,-40,-18,-122
2,2910585,-1425,496,-576,-1326,-315,-92,-39,-17,-121
2,2910601,-1425,496,-576,-1326,-315,-92,-39,-17,-121
2,2910613,-1425,496,-576,-1326,-315,-92,-39,-17,-121
2,2910627,-1424,494,-570,-1331,-314,-88,-39,-17,-121
2,2910643,-1424,494,-570,-1331,-314,-88,-39,-17,-121
2,2910658,-1423,496,-565,-1329,-306,-88,-39,-17,-121
2,2910672,-1424,492,-572,-1333,-305,-85,-39,-17,-121
2,2910686,-1421,497,-571,-1327,-311,-77,-39,-17,-121
2,2910698,-1421,497,-571,-1327,-311,-77,-39,-17,-121
2,2910712,-1426,492,-570,-1322,-311,-85,-36,-16,-122
2,2910727,-1427,488,-569,-1326,-311,-78,-36,-16,-122
2,2910741,-1427,488,-569,-1326,-311,-78,-36,-16,-122
2,2910755,-1426,491,-574,-1330,-312,-88,-36,-16,-122
2,2910770,-1424,490,-575,-1332,-309,-83,-36,-16,-122
2,2910786,-1422,498,-579,-1333,-308,-81,-36,-16,-122
2,2910799,-1422,498,-579,-1333,-308,-81,-36,-16,-122
2,2910814,-1424,494,-580,-1327,-310,-85,-36,-16,-122
2,2910828,-1427,494,-577,-1324,-310,-82,-38,-16,-120
2,2910843,-1426,493,-567,-1321,-303,-84,-38,-16,-120
2,2910859,-1426,493,-567,-1321,-303,-84,-38,-16,-120
2,2910872,-1427,498,-567,-1326,-308,-85,-38,-16,-120
2,2910885,-1425,498,-567,-1343,-312,-91,-38,-16,-120
2,2910901,-1425,498,-567,-1343,-312,-91,-38,-16,-120
2,2910916,-1424,493,-573,-1359,-314,-88,-38,-16,-120
2,2910931,-1426,490,-579,-1359,-312,-91,-38,-16,-120
2,2910946,-1425,495,-573,-1359,-314,-83,-38,-8,-114
2,2910959,-1425,495,-573,-1359,-314,-83,-38,-8,-114
2,2910973,-1425,489,-575,-1357,-311,-90,-38,-8,-114
2,2910988,-1424,493,-576,-1352,-308,-88,-38,-8,-114
2,2911003,-1424,493,-576,-1352,-308,-88,-38,-8,-114
2,2911019,-1426,493,-575,-1348,-311,-85,-38,-8,-114
2,2911030,-1425,496,-578,-1348,-310,-83,-38,-8,-114
2,2911044,-1421,494,-572,-1342,-310,-84,-38,-8,-114
2,2911058,-1421,494,-572,-1342,-310,-84,-38,-8,-114
2,2911073,-1426,491,-572,-1338,-312,-88,-38,-8,-114
2,2911088,-1427,490,-571,-1338,-313,-96,-35,-7,-111
2,2911104,-1427,490,-571,-1338,-313,-96,-35,-7,-111
2,2911119,-1423,489,-567,-1344,-306,-89,-35,-7,-111
2,2911134,-1423,492,-575,-1348,-312,-90,-35,-7,-111
2,2911149,-1422,494,-569,-1343,-312,-86,-35,-7,-111
2,2911163,-1422,494,-569,-1343,-312,-86,-35,-7,-111
2,2911177,-1426,498,-570,-1345,-318,-88,-35,-7,-111
2,2911193,-1425,497,-578,-1344,-316,-87,-35,-7,-111
2,2911204,-1424,493,-575,-1339,-319,-91,-36,-18,-112
2,2911217,-1424,493,-575,-1339,-319,-91,-36,-18,-112
2,2911232,-1420,492,-568,-1327,-311,-91,-36,-18,-112
2,2911245,-1423,493,-574,-1326,-308,-87,-36,-18,-112
2,2911260,-1423,493,-574,-1326,-308,-87,-36,-18,-112
2,2911275,-1423,494,-579,-1325,-304,-91,-36,-18,-112
2,2911287,-1423,494,-579,-1325,-304,-91,-36,-18,-112
2,2911298,-1423,494,-579,-1325,-304,-91,-36,-18,-112
2,2911311,-1425,498,-570,-1327,-308,-89,-36,-18,-112
2,2911325,-1423,494,-566,-1329,-308,-85,-40,-22,-112
2,2911340,-1423,494,-566,-1329,-308,-85,-40,-22,-112
2,2911355,-1424,488,-570,-1337,-307,-95,-40,-22,-112
2,2911370,-1427,493,-570,-1347,-317,-94,-40,-22,-112
2,2911385,-1423,491,-574,-1350,-313,-91,-40,-22,-112
2,2911399,-1423,491,-574,-1350,-313,-91,-40,-22,-112
2,2911414,-1421,498,-579,-1351,-304,-85,-40,-22,-112
2,2911428,-1422,493,-576,-1350,-313,-82,-40,-22,-112
2,2911442,-1422,493,-576,-1350,-313,-82,-40,-22,-112
2,2911458,-1423,495,-576,-1342,-310,-87,-34,-16,-106
2,2911470,-1423,495,-576,-1342,-310,-87,-34,-16,-106
2,2911482,-1423,495,-576,-1342,-310,-87,-34,-16,-106
2,2911498,-1423,491,-570,-1322,-304,-82,-34,-16,-106
2,2911512,-1429,486,-578,-1334,-305,-87,-34,-16,-106
2,2911526,-1423,489,-567,-1341,-305,-82,-34,-16,-106
2,2911542,-1423,489,-567,-1341,-305,-82,-34,-16,-106
2,2911557,-1423,491,-566,-1346,-308,-79,-34,-16,-106
2,2911571,-1426,493,-574,-1359,-313,-78,-32,-16,-104
2,2911587,-1424,497,-575,-1352,-312,-84,-32,-16,-104
2,2911601,-1424,497,-575,-1352,-312,-84,-32,-16,-104
2,2911616,-1426,494,-577,-1352,-315,-83,-32,-16,-104
2,2911630,-1427,497,-572,-1333,-312,-91,-32,-16,-104
2,2911643,-1427,497,-572,-1333,-312,-91,-32,-16,-104
2,2911655,-1421,493,-580,-1337,-304,-83,-32,-16,-104
2,2911669,-1425,488,-574,-1342,-301,-80,-32,-16,-104
2,2911683,-1425,488,-574,-1342,-301,-80,-32,-16,-104
2,2911697,-1425,490,-572,-1351,-316,-85,-32,-16,-104
2,2911712,-1425,490,-572,-1351,-316,-85,-33,-15,-103
2,2911725,-1421,495,-566,-1355,-310,-88,-33,-15,-103
2,2911737,-1421,495,-566,-1355,-310,-88,-33,-15,-103
2,2911750,-1422,495,-573,-1359,-315,-83,-33,-15,-103
2,2911764,-1422,495,-573,-1359,-315,-83,-33,-15,-103
2,2911777,-1425,496,-571,-1359,-317,-78,-33,-15,-103
2,2911793,-1425,490,-573,-1357,-320,-85,-33,-15,-103
2,2911808,-1425,498,-579,-1353,-322,-86,-33,-15,-103
2,2911823,-1425,498,-579,-1353,-322,-86,-33,-15,-103
2,2911839,-1425,488,-576,-1353,-310,-87,-33,-15,-103
2,2911852,-1428,493,-576,-1344,-309,-89,-33,-15,-103
2,2911866,-1427,488,-573,-1347,-313,-87,-33,-15,-103
2,2911881,-1427,488,-573,-1347,-313,-87,-33,-15,-103
2,2911895,-1427,494,-577,-1335,-315,-88,-33,-15,-103
2,2911906,-1425,498,-571,-1342,-316,-88,-33,-15,-103
2,2911921,-1425,498,-571,-1342,-316,-88,-33,-15,-103
2,2911935,-1425,498,-571,-1342,-316,-88,-33,-15,-103
2,2911950,-1427,496,-565,-1341,-314,-81,-32,-14,-104
2,2911965,-1426,493,-572,-1339,-311,-86,-32,-14,-104
2,2911979,-1426,493,-572,-1339,-311,-86,-32,-14,-104
2,2911993,-1426,492,-571,-1338,-311,-85,-32,-14,-104
2,2912009,-1424,495,-577,-1333,-319,-91,-32,-14,-104
2,2912024,-1424,495,-577,-1333,-319,-91,-32,-14,-104
2,2912039,-1428,499,-573,-1329,-319,-92,-32,-14,-104
2,2912055,-1423,496,-582,-1334,-311,-88,-32,-14,-104
2,2912068,-1423,493,-570,-1331,-310,-81,-34,-18,-92
2,2912081,-1423,493,-570,-1331,-310,-81,-34,-18,-92
2,2912098,-1423,493,-569,-1334,-304,-86,-34,-18,-92
2,2912106,-1428,493,-578,-1334,-306,-93,-34,-18,-92
2,2912118,-1428,493,-578,-1334,-306,-93,-34,-18,-92
2,2912133,-1424,487,-580,-1327,-307,-86,-34,-18,-92
2,2912147,-1426,498,-580,-1331,-305,-86,-34,-18,-92
2,2912161,-1426,498,-580,-1331,-305,-86,-34,-18,-92
2,2912177,-1424,497,-574,-1334,-309,-83,-34,-18,-92
2,2912189,-1426,495,-572,-1334,-310,-88,-34,-20,-92
2,2912202,-1426,495,-572,-1334,-310,-88,-34,-20,-92
2,2912217,-1426,496,-573,-1326,-311,-87,-34,-20,-92
2,2912231,-1423,492,-573,-1315,-303,-97,-34,-20,-92
2,2912245,-1424,492,-576,-1321,-303,-87,-34,-20,-92
2,2912259,-1424,492,-576,-1321,-303,-87,-34,-20,-92
2,2912270,-1425,490,-580,-1314,-304,-94,-34,-20,-92
2,2912285,-1423,497,-571,-1316,-298,-88,-34,-20,-92
2,2912301,-1423,497,-571,-1316,-298,-88,-34,-20,-92
2,2912316,-1423,493,-570,-1325,-306,-82,-34,-20,-92
2,2912328,-1424,498,-577,-1319,-305,-80,-34,-20,-92
2,2912343,-1424,498,-577,-1319,-305,-80,-34,-20,-92
2,2912357,-1424,492,-574,-1321,-311,-82,-34,-20,-92
2,2912372,-1420,496,-575,-1326,-313,-84,-34,-20,-92
2,2912387,-1422,488,-578,-1324,-309,-77,-34,-20,-92
2,2912401,-1422,488,-578,-1324,-309,-77,-34,-20,-92
2,2912415,-1421,492,-569,-1323,-303,-77,-34,-20,-92
2,2912431,-1423,491,-573,-1324,-309,-81,-34,-20,-92
2,2912446,-1425,491,-570,-1328,-311,-86,-31,-21,-93
2,2912458,-1425,491,-570,-1328,-311,-86,-31,-21,-93
2,2912472,-1426,495,-578,-1324,-307,-87,-31,-21,-93
2,2912486,-1424,499,-577,-1322,-308,-84,-31,-21,-93
2,2912500,-1424,499,-577,-1322,-308,-84,-31,-21,-93
2,2912515,-1425,495,-571,-1321,-307,-79,-31,-21,-93
2,2912529,-1425,490,-569,-1335,-313,-93,-31,-21,-93
2,2912544,-1425,490,-569,-1335,-313,-93,-31,-21,-93
2,2912560,-1422,489,-574,-1341,-325,-87,-31,-21,-93
2,2912575,-1424,490,-573,-1348,-310,-80,-32,-18,-88
2,2912588,-1422,495,-570,-1356,-310,-89,-32,-18,-88
2,2912603,-1422,495,-570,-1356,-310,-89,-32,-18,-88
2,2912618,-1427,492,-569,-1351,-316,-90,-32,-18,-88
2,2912632,-1425,493,-576,-1349,-316,-87,-32,-18,-88
2,2912644,-1425,493,-576,-1349,-316,-87,-32,-18,-88
2,2912657,-1427,493,-578,-1350,-312,-90,-32,-18,-88
2,2912670,-1423,493,-574,-1350,-305,-94,-32,-18,-88
2,2912685,-1423,493,-574,-1350,-305,-94,-32,-18,-88
2,2912699,-1419,493,-573,-1354,-307,-85,-26,-22,-78
2,2912710,-1423,498,-577,-1353,-311,-85,-26,-22,-78
2,2912722,-1423,498,-577,-1353,-311,-85,-26,-22,-78
2,2912736,-1423,498,-577,-1353,-311,-85,-26,-22,-78
2,2912750,-1424,497,-577,-1341,-315,-84,-26,-22,-78
2,2912764,-1424,497,-577,-1341,-315,-84,-26,-22,-78
2,2912781,-1422,496,-584,-1340,-309,-84,-26,-22,-78
2,2912796,-1421,496,-576,-1346,-312,-80,-26,-22,-78
2,2912811,-1425,497,-571,-1337,-312,-87,-30,-18,-82
2,2912826,-1423,497,-570,-1332,-311,-81,-30,-18,-82
2,2912840,-1423,497,-570,-1332,-311,-81,-30,-18,-82
2,2912855,-1425,491,-571,-1332,-312,-84,-30,-18,-82
2,2912869,-1425,496,-571,-1331,-317,-86,-30,-18,-82
2,2912883,-1425,496,-571,-1331,-317,-86,-30,-18,-82
2,2912898,-1425,492,-572,-1326,-307,-80,-30,-18,-82
2,2912912,-1426,497,-575,-1318,-306,-88,-30,-18,-82
2,2912923,-1426,497,-575,-1318,-306,-88,-30,-18,-82
2,2912937,-1421,496,-572,-1316,-306,-94,-31,-15,-79
2,2912952,-1422,496,-571,-1316,-305,-93,-31,-15,-79
2,2912965,-1423,488,-571,-1311,-310,-88,-31,-15,-79
2,2912980,-1423,488,-571,-1311,-310,-88,-31,-15,-79
2,2912995,-1426,488,-574,-1316,-314,-82,-31,-15,-79
2,2913009,-1425,494,-569,-1330,-312,-85,-31,-15,-79
2,2913024,-1425,494,-569,-1330,-312,-85,-31,-15,-79
2,2913038,-1425,496,-569,-1334,-310,-87,-31,-15,-79
2,2913053,-1423,496,-583,-1327,-306,-91,-31,-15,-79
2,2913065,-1423,496,-583,-1327,-306,-91,-31,-15,-79
2,2913077,-1425,497,-574,-1326,-304,-85,-28,-30,-74
2,2913091,-1423,491,-570,-1321,-305,-77,-28,-30,-74
2,2913105,-1423,491,-570,-1321,-305,-77,-28,-30,-74
2,2913119,-1422,495,-576,-1329,-302,-84,-28,-30,-74
2,2913133,-1427,497,-570,-1334,-305,-83,-28,-30,-74
2,2913147,-1423,490,-575,-1341,-308,-83,-28,-30,-74
2,2913159,-1423,490,-575,-1341,-308,-83,-28,-30,-74
2,2913172,-1424,493,-584,-1345,-310,-90,-28,-30,-74
2,2913185,-1426,501,-577,-1335,-316,-92,-28,-30,-74
2,2913199,-1426,501,-577,-1335,-316,-92,-21,-15,-63
2,2913214,-1425,498,-572,-1332,-315,-83,-21,-15,-63
2,2913225,-1422,498,-572,-1327,-307,-84,-21,-15,-63
2,2913241,-1422,498,-572,-1327,-307,-84,-21,-15,-63
2,2913255,-1428,492,-578,-1326,-301,-86,-21,-15,-63
2,2913268,-1420,487,-574,-1325,-304,-85,-21,-15,-63
2,2913281,-1420,487,-574,-1325,-304,-85,-21,-15,-63
2,2913293,-1425,493,-576,-1329,-307,-80,-21,-15,-63
2,2913307,-1424,494,-572,-1335,-303,-91,-27,-21,-73
2,2913321,-1424,494,-572,-1335,-303,-91,-27,-21,-73
2,2913336,-1423,494,-567,-1326,-309,-84,-27,-21,-73
2,2913351,-1428,492,-567,-1327,-305,-84,-27,-21,-73
2,2913366,-1423,488,-569,-1336,-306,-83,-27,-21,-73
2,2913379,-1423,488,-569,-1336,-306,-83,-27,-21,-73
2,2913392,-1423,495,-577,-1341,-318,-86,-27,-21,-73
2,2913406,-1425,495,-577,-1348,-314,-84,-27,-21,-73
2,2913420,-1425,495,-577,-1348,-314,-84,-27,-21,-73
2,2913434,-1424,496,-576,-1340,-311,-80,-28,-22,-62
2,2913449,-1428,496,-573,-1345,-303,-83,-28,-22,-62
2,2913464,-1428,496,-573,-1345,-303,-83,-28,-22,-62
2,2913478,-1426,495,-576,-1338,-308,-76,-28,-22,-62
2,2913492,-1423,495,-575,-1340,-309,-75,-28,-22,-62
2,2913507,-1422,495,-580,-1342,-320,-80,-28,-22,-62
2,2913522,-1422,495,-580,-1342,-320,-80,-28,-22,-62
2,2913534,-1424,491,-572,-1336,-314,-82,-28,-22,-62
2,2913548,-1421,494,-574,-1341,-305,-80,-18,-18,-72
2,2913562,-1421,494,-574,-1341,-305,-80,-18,-18,-72
2,2913576,-1423,492,-571,-1344,-316,-83,-18,-18,-72
2,2913591,-1421,492,-574,-1350,-318,-92,-18,-18,-72
2,2913605,-1421,492,-574,-1350,-318,-92,-18,-18,-72
2,2913619,-1428,494,-571,-1347,-317,-85,-18,-18,-72
2,2913631,-1426,498,-571,-1352,-313,-84,-18,-18,-72
2,2913644,-1426,498,-571,-1352,-313,-84,-18,-18,-72
2,2913659,-1423,497,-577,-1354,-312,-83,-18,-18,-72
2,2913675,-1423,494,-577,-1355,-320,-88,-18,-18,-72
2,2913689,-1422,500,-569,-1352,-312,-90,-23,-23,-57
2,2913701,-1422,500,-569,-1352,-312,-90,-23,-23,-57
2,2913717,-1422,500,-569,-1352,-312,-90,-23,-23,-57
2,2913732,-1422,495,-583,-1350,-316,-85,-23,-23,-57
2,2913747,-1426,495,-579,-1341,-313,-81,-23,-23,-57
2,2913762,-1426,495,-579,-1341,-313,-81,-23,-23,-57
2,2913775,-1426,499,-575,-1341,-310,-80,-23,-23,-57
2,2913789,-1423,503,-572,-1337,-312,-86,-23,-23,-57
2,2913801,-1423,503,-572,-1337,-312,-86,-23,-23,-57
2,2913814,-1424,496,-562,-1338,-307,-87,-7,-19,-63
2,2913828,-1425,499,-571,-1341,-313,-89,-7,-19,-63
2,2913843,-1425,499,-571,-1341,-313,-89,-7,-19,-63
2,2913853,-1426,494,-581,-1335,-314,-90,-7,-19,-63
2,2913865,-1426,494,-581,-1335,-314,-90,-7,-19,-63
2,2913878,-1424,489,-575,-1329,-310,-86,-7,-19,-63
2,2913892,-1426,501,-572,-1318,-308,-83,-7,-19,-63
2,2913906,-1426,501,-572,-1318,-308,-83,-7,-19,-63
2,2913922,-1424,496,-580,-1320,-301,-85,-7,-19,-63
2,2913937,-1425,494,-572,-1323,-304,-85,-14,-20,-60
2,2913952,-1429,493,-580,-1329,-311,-88,-14,-20,-60
2,2913968,-1423,495,-571,-1319,-305,-90,-14,-20,-60
2,2913983,-1423,495,-571,-1319,-305,-90,-14,-20,-60
2,2913998,-1423,495,-572,-1321,-311,-90,-14,-20,-60
2,2914013,-1423,496,-571,-1318,-314,-91,-14,-20,-60
2,2914027,-1426,494,-578,-1327,-307,-86,-14,-20,-60
2,2914041,-1426,494,-578,-1327,-307,-86,-14,-20,-60
2,2914053,-1424,493,-576,-1319,-307,-95,-4,-20,-52
2,2914066,-1424,493,-576,-1319,-307,-95,-4,-20,-52
2,2914080,-1427,496,-574,-1320,-309,-93,-4,-20,-52
2,2914095,-1424,497,-573,-1319,-307,-91,-4,-20,-52
2,2914108,-1424,489,-575,-1316,-308,-87,-4,-20,-52
2,2914122,-1424,489,-575,-1316,-308,-87,-4,-20,-52
2,2914137,-1424,493,-572,-1321,-311,-82,-4,-20,-52
2,2914148,-1419,492,-568,-1332,-312,-88,-4,-20,-52
2,2914162,-1419,492,-568,-1332,-312,-88,-4,-20,-52
2,2914179,-1422,497,-569,-1340,-314,-88,-5,-19,-53
2,2914193,-1426,495,-579,-1339,-317,-92,-5,-19,-53
2,2914208,-1424,499,-579,-1338,-316,-85,-5,-19,-53
2,2914221,-1424,499,-579,-1338,-316,-85,-5,-19,-53
2,2914233,-1426,494,-571,-1329,-298,-87,-5,-19,-53
2,2914247,-1423,493,-568,-1336,-306,-84,-5,-19,-53
2,2914262,-1423,493,-568,-1336,-306,-84,-5,-19,-53
2,2914276,-1425,491,-572,-1351,-306,-78,-5,-19,-53
2,2914289,-1422,495,-574,-1355,-310,-82,-5,-19,-53
2,2914305,-1422,495,-574,-1355,-310,-82,-5,-19,-53
2,2914317,-1424,488,-575,-1358,-309,-87,-14,-22,-54
2,2914331,-1421,498,-577,-1348,-308,-78,-14,-22,-54
2,2914345,-1421,498,-577,-1348,-308,-78,-14,-22,-54
2,2914360,-1425,498,-576,-1346,-309,-81,-14,-22,-54
2,2914374,-1424,498,-576,-1342,-305,-80,-14,-22,-54
2,2914390,-1425,495,-576,-1344,-307,-87,-14,-22,-54
2,2914405,-1425,495,-576,-1344,-307,-87,-14,-22,-54
2,2914420,-1423,495,-577,-1342,-303,-82,-14,-22,-54
2,2914436,-1421,493,-569,-1343,-310,-83,-5,-19,-45
2,2914451,-1421,493,-571,-1332,-300,-88,-5,-19,-45
2,2914465,-1421,493,-571,-1332,-300,-88,-5,-19,-45
2,2914480,-1425,492,-580,-1327,-305,-89,-5,-19,-45
2,2914493,-1423,495,-574,-1331,-309,-84,-5,-19,-45
2,2914505,-1423,495,-574,-1331,-309,-84,-5,-19,-45
2,2914519,-1425,498,-576,-1321,-313,-85,-5,-19,-45
2,2914532,-1420,496,-572,-1327,-302,-82,-5,-19,-45
2,2914546,-1420,496,-572,-1327,-302,-82,-5,-19,-45
2,2914561,-1426,495,-571,-1320,-305,-79,-6,-20,-46
2,2914575,-1424,496,-577,-1318,-304,-85,-6,-20,-46
2,2914588,-1425,494,-573,-1319,-313,-82,-6,-20,-46
2,2914600,-1425,494,-573,-1319,-313,-82,-6,-20,-46
2,2914615,-1423,497,-575,-1320,-301,-87,-6,-20,-46
2,2914629,-1423,497,-576,-1307,-309,-87,-6,-20,-46
2,2914643,-1423,497,-576,-1307,-309,-87,-6,-20,-46
2,2914658,-1426,496,-577,-1303,-303,-81,-6,-20,-46
2,2914673,-1427,498,-570,-1306,-307,-79,-4,-22,-46
2,2914689,-1422,496,-567,-1318,-300,-87,-4,-22,-46
2,2914703,-1422,496,-567,-1318,-300,-87,-4,-22,-46
2,2914718,-1424,484,-569,-1329,-310,-80,-4,-22,-46
2,2914733,-1424,487,-568,-1341,-313,-82,-4,-22,-46
2,2914746,-1424,487,-568,-1341,-313,-82,-4,-22,-46
2,2914759,-1424,496,-576,-1342,-304,-81,-4,-22,-46
2,2914771,-1423,497,-576,-1341,-309,-80,-4,-22,-46
2,2914786,-1423,497,-576,-1341,-309,-80,-4,-22,-46
2,2914800,-1425,498,-573,-1343,-315,-82,1,-21,-41
2,2914813,-1425,502,-577,-1339,-308,-91,1,-21,-41
2,2914828,-1424,494,-574,-1342,-309,-95,1,-21,-41
2,2914842,-1424,494,-574,-1342,-309,-95,1,-21,-41
2,2914853,-1425,496,-574,-1336,-306,-83,1,-21,-41
2,2914867,-1425,496,-574,-1336,-306,-83,1,-21,-41
2,2914882,-1427,494,-578,-1323,-307,-87,1,-21,-41
2,2914896,-1424,489,-581,-1321,-315,-87,1,-21,-41
2,2914910,-1420,491,-569,-1327,-316,-84,1,-21,-41
2,2914925,-1420,491,-569,-1327,-316,-84,1,-21,-41
2,2914940,-1426,492,-567,-1338,-320,-86,-7,-11,-43
2,2914956,-1423,491,-567,-1340,-312,-78,-7,-11,-43
2,2914971,-1423,493,-577,-1348,-306,-90,-7,-11,-43
2,2914985,-1423,493,-577,-1348,-306,-90,-7,-11,-43
2,2915000,-1422,498,-578,-1345,-310,-98,-7,-11,-43
2,2915015,-1424,492,-573,-1338,-312,-93,-7,-11,-43
2,2915028,-1425,493,-578,-1339,-307,-90,-7,-11,-43
2,2915041,-1425,493,-578,-1339,-307,-90,-7,-11,-43
2,2915054,-1422,496,-573,-1334,-301,-82,-1,-21,-37
2,2915068,-1426,489,-572,-1339,-311,-87,-1,-21,-37
2,2915083,-1426,489,-572,-1339,-311,-87,-1,-21,-37
2,2915097,-1424,495,-576,-1343,-309,-86,-1,-21,-37
2,2915110,-1426,499,-573,-1355,-322,-91,-1,-21,-37
2,2915121,-1426,499,-573,-1355,-322,-91,-1,-21,-37
2,2915132,-1427,491,-567,-1358,-317,-87,-1,-21,-37
2,2915145,-1427,491,-567,-1358,-317,-87,-1,-21,-37
2,2915161,-1424,499,-579,-1353,-313,-88,-1,-21,-37
2,2915172,-1424,493,-579,-1347,-307,-89,8,-24,-34
2,2915185,-1424,493,-579,-1347,-307,-89,8,-24,-34
2,2915201,-1424,500,-574,-1348,-312,-89,8,-24,-34
2,2915216,-1421,495,-574,-1342,-314,-89,8,-24,-34
2,2915231,-1427,493,-575,-1340,-310,-90,8,-24,-34
2,2915245,-1427,493,-575,-1340,-310,-90,8,-24,-34
2,2915259,-1425,496,-578,-1330,-306,-87,8,-24,-34
2,2915271,-1422,493,-575,-1330,-311,-77,8,-24,-34
2,2915287,-1422,493,-575,-1330,-311,-77,8,-24,-34
2,2915300,-1426,491,-570,-1324,-309,-83,7,-23,-31
2,2915313,-1423,494,-569,-1328,-306,-84,7,-23,-31
2,2915328,-1425,493,-569,-1329,-310,-85,7,-23,-31
2,2915340,-1425,493,-569,-1329,-310,-85,7,-23,-31
2,2915353,-1422,499,-579,-1323,-312,-91,7,-23,-31
2,2915366,-1422,499,-579,-1323,-312,-91,7,-23,-31
2,2915380,-1424,499,-579,-1325,-314,-81,7,-23,-31
2,2915395,-1426,502,-577,-1312,-309,-91,7,-23,-31
2,2915408,-1422,500,-570,-1295,-308,-77,6,-22,-44
2,2915422,-1422,500,-570,-1295,-308,-77,6,-22,-44
2,2915436,-1427,494,-578,-1294,-309,-84,6,-22,-44
2,2915451,-1422,488,-575,-1307,-310,-87,6,-22,-44
2,2915467,-1422,488,-575,-1307,-310,-87,6,-22,-44
2,2915477,-1419,492,-574,-1310,-306,-83,6,-22,-44
2,2915490,-1421,493,-578,-1328,-308,-86,6,-22,-44
2,2915504,-1421,493,-578,-1328,-308,-86,6,-22,-44
2,2915518,-1420,497,-570,-1322,-308,-83,6,-22,-44
2,2915531,-1424,497,-579,-1327,-316,-82,6,-22,-44
2,2915546,-1424,497,-579,-1327,-316,-82,6,-22,-44
2,2915558,-1426,498,-578,-1326,-312,-84,8,-30,-36
2,2915571,-1424,492,-574,-1325,-317,-80,8,-30,-36
2,2915586,-1424,492,-574,-1325,-317,-80,8,-30,-36
2,2915599,-1422,486,-576,-1327,-306,-88,8,-30,-36
2,2915613,-1422,493,-579,-1327,-311,-79,8,-30,-36
2,2915629,-1425,498,-575,-1337,-314,-81,8,-30,-36
2,2915644,-1425,498,-575,-1337,-314,-81,8,-30,-36
2,2915659,-1422,492,-573,-1334,-313,-88,8,-30,-36
2,2915675,-1424,491,-573,-1330,-314,-81,7,-21,-35
2,2915688,-1429,491,-581,-1327,-305,-84,7,-21,-35
2,2915702,-1429,491,-581,-1327,-305,-84,7,-21,-35
2,2915717,-1426,493,-579,-1327,-312,-81,7,-21,-35
2,2915731,-1426,490,-569,-1331,-301,-84,7,-21,-35
2,2915744,-1426,490,-569,-1331,-301,-84,7,-21,-35
2,2915756,-1426,492,-572,-1332,-306,-87,7,-21,-35
2,2915770,-1426,493,-576,-1338,-308,-82,7,-21,-35
2,2915784,-1426,493,-576,-1338,-308,-82,7,-21,-35
2,2915799,-1423,494,-572,-1337,-310,-84,14,-18,-22
2,2915813,-1424,491,-580,-1336,-311,-91,14,-18,-22
2,2915825,-1424,491,-580,-1336,-311,-91,14,-18,-22
2,2915838,-1423,498,-581,-1330,-313,-84,14,-18,-22
2,2915852,-1424,496,-573,-1332,-310,-83,14,-18,-22
2,2915865,-1424,496,-573,-1332,-310,-83,14,-18,-22
2,2915880,-1426,494,-575,-1335,-305,-88,14,-18,-22
2,2915897,-1424,491,-577,-1344,-306,-84,14,-18,-22
2,2915911,-1422,495,-575,-1362,-309,-83,22,-30,-30
2,2915927,-1422,495,-575,-1362,-309,-83,22,-30,-30
2,2915942,-1421,494,-574,-1362,-313,-89,22,-30,-30
2,2915956,-1428,488,-579,-1360,-318,-92,22,-30,-30
2,2915970,-1427,499,-579,-1367,-316,-96,22,-30,-30
2,2915984,-1427,499,-579,-1367,-316,-96,22,-30,-30
2,2915998,-1421,493,-583,-1361,-311,-86,22,-30,-30
2,2916015,-1423,500,-575,-1356,-301,-86,22,-30,-30
2,2916028,-1423,500,-575,-1356,-301,-86,22,-30,-30
2,2916040,-1426,497,-577,-1350,-301,-84,22,-16,-18
2,2916055,-1426,492,-576,-1349,-305,-84,22,-16,-18
2,2916067,-1426,492,-576,-1349,-305,-84,22,-16,-18
2,2916081,-1424,494,-574,-1354,-305,-89,22,-16,-18
2,2916097,-1426,496,-571,-1351,-300,-94,22,-16,-18
2,2916110,-1424,496,-582,-1340,-310,-88,22,-16,-18
2,2916123,-1424,496,-582,-1340,-310,-88,22,-16,-18
2,2916140,-1428,497,-572,-1331,-310,-83,22,-16,-18
2,2916154,-1427,495,-574,-1331,-305,-80,23,-19,-15
2,2916166,-1427,495,-574,-1331,-305,-80,23,-19,-15
2,2916178,-1424,493,-576,-1336,-302,-81,23,-19,-15
2,2916193,-1424,491,-572,-1332,-310,-86,23,-19,-15
2,2916207,-1424,491,-572,-1332,-310,-86,23,-19,-15
2,2916221,-1425,493,-580,-1322,-309,-90,23,-19,-15
2,2916236,-1423,494,-583,-1323,-310,-86,23,-19,-15
2,2916250,-1427,493,-581,-1323,-313,-86,23,-19,-15
2,2916263,-1427,493,-581,-1323,-313,-86,23,-19,-15
2,2916275,-1424,500,-586,-1324,-303,-91,23,-19,-15
2,2916289,-1426,497,-576,-1325,-308,-93,28,-20,-22
2,2916298,-1426,497,-576,-1325,-308,-93,28,-20,-22
2,2916311,-1423,496,-570,-1327,-306,-82,28,-20,-22
2,2916324,-1423,496,-570,-1327,-306,-82,28,-20,-22
2,2916340,-1427,495,-573,-1332,-314,-88,28,-20,-22
2,2916358,-1427,489,-582,-1323,-303,-86,28,-20,-22
2,2916373,-1427,494,-577,-1325,-308,-86,28,-20,-22
2,2916388,-1427,494,-577,-1325,-308,-86,28,-20,-22
2,2916404,-1426,496,-578,-1317,-311,-86,28,-20,-22
2,2916416,-1426,497,-578,-1314,-308,-88,33,-21,-19
2,2916428,-1425,491,-573,-1321,-306,-82,33,-21,-19
2,2916443,-1425,491,-573,-1321,-306,-82,33,-21,-19
2,2916457,-1426,490,-575,-1314,-308,-85,33,-21,-19
2,2916471,-1424,491,-574,-1322,-304,-80,33,-21,-19
2,2916486,-1424,491,-574,-1322,-304,-80,33,-21,-19
2,2916499,-1425,492,-575,-1317,-307,-81,33,-21,-19
2,2916511,-1424,494,-574,-1324,-303,-83,33,-21,-19
2,2916525,-1424,494,-574,-1324,-303,-83,33,-21,-19
2,2916540,-1425,496,-565,-1323,-304,-79,26,-22,-20
2,2916555,-1421,495,-566,-1333,-309,-89,26,-22,-20
2,2916571,-1424,492,-580,-1345,-310,-89,26,-22,-20
2,2916584,-1424,492,-580,-1345,-310,-89,26,-22,-20
2,2916598,-1428,496,-581,-1343,-307,-89,26,-22,-20
2,2916614,-1424,493,-582,-1336,-311,-92,26,-22,-20
2,2916628,-1424,493,-582,-1336,-311,-92,26,-22,-20
2,2916642,-1424,496,-582,-1330,-302,-89,26,-22,-20
2,2916657,-1425,495,-575,-1333,-306,-86,34,-24,-16
2,2916671,-1426,492,-574,-1334,-312,-80,34,-24,-16
2,2916685,-1426,492,-574,-1334,-312,-80,34,-24,-16
2,2916701,-1427,495,-576,-1335,-317,-86,34,-24,-16
2,2916714,-1423,496,-578,-1346,-311,-76,34,-24,-16
2,2916727,-1423,496,-578,-1346,-311,-76,34,-24,-16
2,2916742,-1424,498,-576,-1347,-309,-83,34,-24,-16
2,2916755,-1424,491,-577,-1349,-309,-88,34,-24,-16
2,2916770,-1424,491,-577,-1349,-309,-88,31,-23,-11
2,2916786,-1424,491,-577,-1349,-309,-88,31,-23,-11
2,2916800,-1425,486,-581,-1344,-318,-88,31,-23,-11
2,2916814,-1423,495,-576,-1350,-312,-88,31,-23,-11
2,2916828,-1423,495,-576,-1350,-312,-88,31,-23,-11
2,2916843,-1427,493,-574,-1347,-314,-86,31,-23,-11
2,2916859,-1424,499,-578,-1345,-310,-96,31,-23,-11
2,2916875,-1424,495,-580,-1337,-308,-93,31,-23,-11
2,2916890,-1423,497,-576,-1342,-310,-79,31,-23,-11
2,2916903,-1423,497,-576,-1342,-310,-79,31,-23,-11
2,2916916,-1423,489,-570,-1346,-305,-80,37,-27,-5
2,2916931,-1426,492,-576,-1347,-300,-87,37,-27,-5
2,2916944,-1426,492,-576,-1347,-300,-87,37,-27,-5
2,2916959,-1425,491,-578,-1350,-302,-85,37,-27,-5
2,2916973,-1426,492,-576,-1349,-307,-88,37,-27,-5
2,2916985,-1426,492,-576,-1349,-307,-88,37,-27,-5
2,2917000,-1426,496,-579,-1344,-309,-78,37,-27,-5
2,2917012,-1427,493,-583,-1334,-313,-79,37,-27,-5
2,2917027,-1427,493,-583,-1334,-313,-79,37,-27,-5
2,2917042,-1424,496,-578,-1326,-308,-89,38,-22,-10
2,2917056,-1427,494,-579,-1316,-314,-85,38,-22,-10
2,2917070,-1426,492,-579,-1333,-310,-88,38,-22,-10
2,2917086,-1426,492,-579,-1333,-310,-88,38,-22,-10
2,2917101,-1425,492,-575,-1331,-308,-81,38,-22,-10
2,2917117,-1424,489,-579,-1343,-309,-88,38,-22,-10
2,2917132,-1425,490,-580,-1351,-307,-85,38,-22,-10
2,2917146,-1425,490,-580,-1351,-307,-85,38,-22,-10
2,2917159,-1425,492,-580,-1347,-314,-90,40,-30,-6
2,2917175,-1427,492,-582,-1343,-315,-88,40,-30,-6
2,2917190,-1429,499,-580,-1343,-314,-86,40,-30,-6
2,2917202,-1429,499,-580,-1343,-314,-86,40,-30,-6
2,2917217,-1425,492,-578,-1332,-310,-80,40,-30,-6
2,2917230,-1425,491,-580,-1330,-310,-86,40,-30,-6
2,2917243,-1425,491,-580,-1330,-310,-86,40,-30,-6
2,2917258,-1426,484,-577,-1330,-318,-93,40,-30,-6
2,2917272,-1428,491,-573,-1336,-309,-82,52,-12,-6
2,2917286,-1428,491,-573,-1336,-309,-82,52,-12,-6
2,2917303,-1426,490,-571,-1344,-304,-85,52,-12,-6
2,2917316,-1428,493,-569,-1355,-313,-85,52,-12,-6
2,2917330,-1425,493,-580,-1351,-302,-84,52,-12,-6
2,2917345,-1425,493,-580,-1351,-302,-84,52,-12,-6
2,2917356,-1426,489,-580,-1354,-314,-81,52,-12,-6
2,2917369,-1426,489,-580,-1354,-314,-81,52,-12,-6
2,2917384,-1426,496,-578,-1356,-312,-89,52,-12,-6
2,2917398,-1426,491,-578,-1354,-308,-85,59,-21,3
2,2917412,-1423,492,-578,-1352,-310,-89,59,-21,3
2,2917427,-1423,492,-578,-1352,-310,-89,59,-21,3
2,2917442,-1424,494,-579,-1348,-310,-82,59,-21,3
2,2917456,-1428,496,-578,-1342,-311,-81,59,-21,3
2,2917471,-1428,494,-583,-1345,-299,-86,59,-21,3
2,2917481,-1428,494,-583,-1345,-299,-86,59,-21,3
2,2917496,-1430,493,-575,-1334,-304,-93,59,-21,3
2,2917510,-1425,489,-580,-1338,-308,-85,59,-21,3
2,2917521,-1425,489,-580,-1338,-308,-85,59,-21,3
2,2917536,-1428,486,-569,-1340,-304,-82,49,-21,1
2,2917553,-1425,492,-575,-1347,-310,-84,49,-21,1
2,2917567,-1425,492,-575,-1347,-310,-84,49,-21,1
2,2917581,-1423,495,-575,-1347,-311,-80,49,-21,1
2,2917596,-1426,491,-579,-1347,-319,-85,49,-21,1
2,2917610,-1423,494,-580,-1346,-314,-84,49,-21,1
2,2917621,-1423,494,-580,-1346,-314,-84,49,-21,1
2,2917635,-1426,494,-584,-1346,-314,-85,49,-21,1
2,2917649,-1426,494,-584,-1346,-314,-85,49,-21,1
2,2917663,-1425,495,-574,-1339,-311,-84,58,-32,4
2,2917677,-1421,492,-573,-1337,-304,-81,58,-32,4
2,2917692,-1426,492,-580,-1334,-310,-85,58,-32,4
2,2917700,-1426,492,-580,-1334,-310,-85,58,-32,4
2,2917708,-1426,492,-580,-1334,-310,-85,58,-32,4
2,2917716,-1424,487,-584,-1325,-312,-92,58,-32,4
2,2917731,-1425,493,-580,-1325,-313,-86,58,-32,4
2,2917745,-1425,493,-580,-1325,-313,-86,58,-32,4
2,2917760,-1424,490,-574,-1334,-309,-87,58,-32,4
2,2917774,-1428,490,-575,-1338,-304,-90,65,-23,5
2,2917788,-1428,490,-575,-1338,-304,-90,65,-23,5
2,2917803,-1426,491,-583,-1333,-313,-90,65,-23,5
2,2917815,-1420,492,-582,-1317,-305,-86,65,-23,5
2,2917830,-1425,493,-585,-1317,-306,-83,65,-23,5
2,2917846,-1425,493,-585,-1317,-306,-83,65,-23,5
2,2917860,-1426,496,-577,-1317,-306,-78,65,-23,5
2,2917873,-1427,488,-578,-1323,-309,-75,65,-23,5
2,2917886,-1427,488,-578,-1323,-309,-75,65,-23,5
2,2917901,-1425,486,-577,-1318,-315,-78,67,-23,1
2,2917915,-1424,490,-581,-1326,-315,-79,67,-23,1
2,2917928,-1424,490,-581,-1326,-315,-79,67,-23,1
2,2917943,-1426,492,-578,-1331,-302,-81,67,-23,1
2,2917955,-1422,492,-577,-1332,-312,-81,67,-23,1
2,2917967,-1422,492,-577,-1332,-312,-81,67,-23,1
2,2917983,-1425,492,-578,-1334,-313,-82,67,-23,1
2,2917996,-1426,492,-581,-1328,-310,-89,67,-23,1
2,2918010,-1424,494,-585,-1329,-312,-87,71,-23,7
2,2918026,-1424,494,-585,-1329,-312,-87,71,-23,7
2,2918041,-1423,493,-578,-1339,-313,-88,71,-23,7
2,2918056,-1425,493,-579,-1338,-311,-85,71,-23,7
2,2918071,-1428,492,-573,-1328,-312,-85,71,-23,7
2,2918084,-1428,492,-573,-1328,-312,-85,71,-23,7
2,2918100,-1427,492,-584,-1323,-313,-86,71,-23,7
2,2918116,-1430,489,-580,-1328,-316,-87,71,-23,7
2,2918125,-1430,489,-580,-1328,-316,-87,71,-23,7
2,2918137,-1428,486,-579,-1325,-312,-87,71,-23,7
2,2918152,-1424,486,-578,-1330,-300,-82,72,-22,8
2,2918165,-1424,486,-578,-1330,-300,-82,72,-22,8
2,2918179,-1427,493,-586,-1324,-306,-85,72,-22,8
2,2918193,-1427,493,-582,-1324,-312,-84,72,-22,8
2,2918208,-1427,493,-582,-1324,-312,-84,72,-22,8
2,2918220,-1428,488,-584,-1328,-312,-89,72,-22,8
2,2918234,-1426,490,-583,-1326,-316,-80,72,-22,8
2,2918248,-1426,490,-583,-1326,-316,-80,72,-22,8
2,2918262,-1427,493,-579,-1328,-320,-93,72,-22,8
2,2918277,-1427,493,-579,-1328,-320,-93,77,-21,1
2,2918292,-1426,492,-571,-1322,-308,-86,77,-21,1
2,2918307,-1426,492,-571,-1322,-308,-86,77,-21,1
2,2918322,-1430,491,-582,-1332,-311,-88,77,-21,1
2,2918336,-1425,492,-581,-1336,-317,-85,77,-21,1
2,2918350,-1425,492,-581,-1336,-317,-85,77,-21,1
2,2918364,-1426,489,-587,-1334,-317,-81,77,-21,1
2,2918375,-1427,487,-583,-1333,-318,-79,77,-21,1
2,2918388,-1427,487,-583,-1333,-318,-79,77,-21,1
2,2918403,-1428,494,-580,-1332,-312,-86,73,-21,7
2,2918416,-1425,488,-579,-1322,-306,-89,73,-21,7
2,2918430,-1425,488,-579,-1322,-306,-89,73,-21,7
2,2918445,-1424,488,-576,-1324,-313,-86,73,-21,7
2,2918456,-1424,496,-580,-1324,-312,-91,73,-21,7
2,2918469,-1424,496,-580,-1324,-312,-91,73,-21,7
2,2918482,-1426,493,-578,-1335,-308,-87,73,-21,7
2,2918497,-1432,488,-582,-1333,-314,-80,73,-21,7
2,2918511,-1428,490,-574,-1343,-303,-82,73,-27,11
2,2918526,-1428,490,-574,-1343,-303,-82,73,-27,11
2,2918542,-1427,486,-578,-1352,-309,-82,73,-27,11
2,2918557,-1428,491,-578,-1344,-306,-90,73,-27,11
2,2918572,-1426,496,-577,-1350,-306,-97,73,-27,11
2,2918586,-1426,496,-577,-1350,-306,-97,73,-27,11
2,2918600,-1428,495,-581,-1342,-306,-86,73,-27,11
2,2918615,-1426,493,-585,-1344,-306,-93,73,-27,11
2,2918627,-1426,493,-585,-1344,-306,-93,73,-27,11
2,2918638,-1423,493,-585,-1343,-307,-100,74,-28,8
2,2918652,-1423,490,-576,-1352,-309,-91,74,-28,8
2,2918667,-1423,490,-576,-1352,-309,-91,74,-28,8
2,2918680,-1425,489,-578,-1352,-307,-91,74,-28,8
2,2918693,-1430,486,-583,-1352,-307,-93,74,-28,8
2,2918705,-1430,486,-583,-1352,-307,-93,74,-28,8
2,2918719,-1426,492,-583,-1350,-311,-89,74,-28,8
2,2918732,-1428,490,-578,-1344,-302,-87,74,-28,8
2,2918748,-1428,490,-578,-1344,-302,-87,74,-28,8
2,2918763,-1426,490,-583,-1345,-306,-84,74,-28,8
2,2918778,-1426,491,-576,-1343,-306,-82,88,-30,6
2,2918794,-1426,490,-583,-1341,-312,-87,88,-30,6
2,2918807,-1426,490,-583,-1341,-312,-87,88,-30,6
2,2918820,-1428,489,-586,-1342,-316,-79,88,-30,6
2,2918837,-1425,492,-579,-1344,-316,-92,88,-30,6
2,2918852,-1426,489,-585,-1339,-308,-83,88,-30,6
2,2918862,-1426,489,-585,-1339,-308,-83,88,-30,6
2,2918876,-1427,491,-580,-1337,-311,-80,88,-30,6
2,2918891,-1427,491,-580,-1337,-311,-80,88,-30,6
2,2918904,-1426,490,-580,-1342,-313,-80,84,-22,8
2,2918920,-1427,491,-580,-1346,-315,-77,84,-22,8
2,2918933,-1428,489,-579,-1344,-318,-80,84,-22,8
2,2918947,-1428,489,-579,-1344,-318,-80,84,-22,8
2,2918960,-1425,487,-581,-1335,-311,-82,84,-22,8
2,2918972,-1425,486,-585,-1328,-310,-86,84,-22,8
2,2918986,-1425,486,-585,-1328,-310,-86,84,-22,8
2,2919001,-1424,488,-583,-1330,-316,-87,84,-22,8
2,2919016,-1425,496,-580,-1337,-308,-84,86,-26,10
2,2919031,-1426,501,-574,-1335,-308,-87,86,-26,10
2,2919044,-1426,501,-574,-1335,-308,-87,86,-26,10
2,2919058,-1427,492,-572,-1343,-314,-80,86,-26,10
2,2919072,-1428,482,-579,-1342,-302,-81,86,-26,10
2,2919087,-1428,482,-579,-1342,-302,-81,86,-26,10
2,2919102,-1428,482,-579,-1342,-302,-81,86,-26,10
2,2919115,-1427,487,-583,-1352,-313,-84,86,-26,10
2,2919127,-1427,487,-583,-1352,-313,-84,86,-26,10
2,2919141,-1426,492,-575,-1347,-309,-87,92,-26,4
2,2919155,-1427,492,-576,-1337,-313,-93,92,-26,4
2,2919170,-1427,492,-576,-1337,-313,-93,92,-26,4
2,2919184,-1426,490,-582,-1339,-309,-92,92,-26,4
2,2919200,-1423,494,-586,-1332,-308,-89,92,-26,4
2,2919214,-1424,497,-581,-1331,-311,-87,92,-26,4
2,2919225,-1424,497,-581,-1331,-311,-87,92,-26,4
2,2919239,-1430,493,-580,-1329,-306,-88,92,-26,4
2,2919255,-1428,487,-574,-1335,-307,-90,97,-27,13
2,2919271,-1427,483,-580,-1345,-314,-86,97,-27,13
2,2919286,-1427,483,-580,-1345,-314,-86,97,-27,13
2,2919301,-1430,487,-591,-1340,-313,-84,97,-27,13
2,2919313,-1423,494,-579,-1339,-309,-87,97,-27,13
2,2919326,-1423,494,-579,-1339,-309,-87,97,-27,13
2,2919341,-1426,498,-583,-1335,-313,-85,97,-27,13
2,2919355,-1427,493,-581,-1325,-306,-81,97,-27,13
2,2919369,-1427,493,-581,-1325,-306,-81,97,-27,13
2,2919385,-1425,488,-584,-1330,-313,-84,97,-27,13
2,2919397,-1429,485,-580,-1323,-307,-83,95,-31,9
2,2919408,-1429,485,-580,-1323,-307,-83,95,-31,9
2,2919422,-1425,492,-585,-1319,-306,-84,95,-31,9
2,2919439,-1426,494,-583,-1320,-304,-87,95,-31,9
2,2919452,-1426,487,-580,-1316,-308,-89,95,-31,9
2,2919467,-1426,487,-580,-1316,-308,-89,95,-31,9
2,2919481,-1426,484,-578,-1314,-310,-87,95,-31,9
2,2919496,-1426,492,-580,-1325,-307,-86,95,-31,9
2,2919513,-1429,488,-574,-1332,-303,-88,104,-28,24
2,2919528,-1429,488,-574,-1332,-303,-88,104,-28,24
2,2919542,-1426,498,-578,-1334,-305,-89,104,-28,24
2,2919557,-1428,494,-581,-1331,-307,-86,104,-28,24
2,2919571,-1428,494,-581,-1331,-307,-86,104,-28,24
2,2919582,-1429,492,-584,-1325,-313,-82,104,-28,24
2,2919595,-1428,486,-584,-1327,-310,-89,104,-28,24
2,2919609,-1428,486,-584,-1327,-310,-89,104,-28,24
2,2919623,-1428,490,-584,-1323,-304,-87,104,-28,24
2,2919638,-1431,494,-575,-1318,-304,-83,109,-23,15
2,2919652,-1427,499,-580,-1331,-313,-91,109,-23,15
2,2919667,-1427,499,-580,-1331,-313,-91,109,-23,15
2,2919680,-1427,499,-580,-1331,-313,-91,109,-23,15
2,2919693,-1430,487,-580,-1325,-308,-92,109,-23,15
2,2919707,-1430,487,-580,-1325,-308,-92,109,-23,15
2,2919723,-1423,486,-585,-1334,-301,-90,109,-23,15
2,2919738,-1423,494,-582,-1330,-302,-81,109,-23,15
2,2919751,-1423,494,-582,-1330,-302,-81,109,-23,15
2,2919766,-1427,491,-579,-1324,-304,-86,104,-22,10
2,2919781,-1424,492,-578,-1317,-305,-90,104,-22,10
2,2919795,-1430,496,-584,-1316,-309,-89,104,-22,10
2,2919810,-1430,496,-584,-1316,-309,-89,104,-22,10
2,2919824,-1427,495,-588,-1310,-304,-79,104,-22,10
2,2919838,-1427,495,-593,-1283,-305,-78,104,-22,10
2,2919851,-1427,495,-593,-1283,-305,-78,104,-22,10
2,2919863,-1429,491,-589,-1259,-305,-83,104,-22,10
2,2919877,-1428,493,-586,-1242,-296,-85,99,-21,11
2,2919890,-1428,493,-586,-1242,-296,-85,99,-21,11
2,2919905,-1429,488,-588,-1227,-303,-90,99,-21,11
2,2919919,-1425,492,-583,-1208,-299,-88,99,-21,11
2,2919929,-1425,492,-583,-1208,-299,-88,99,-21,11
2,2919943,-1426,492,-586,-1196,-293,-83,99,-21,11
2,2919957,-1428,498,-585,-1180,-302,-79,99,-21,11
2,2919971,-1428,498,-585,-1180,-302,-79,99,-21,11
2,2919986,-1424,498,-591,-1160,-296,-89,99,-21,11
2,2920000,-1428,497,-589,-1144,-298,-89,99,-21,11
2,2920016,-1430,501,-594,-1114,-298,-93,110,-26,16
2,2920031,-1430,501,-594,-1114,-298,-93,110,-26,16
2,2920046,-1427,494,-594,-1067,-284,-92,110,-26,16
2,2920059,-1427,495,-587,-1034,-281,-89,110,-26,16
2,2920075,-1427,492,-590,-1014,-284,-83,110,-26,16
2,2920090,-1427,492,-590,-1014,-284,-83,110,-26,16
2,2920103,-1427,491,-585,-1006,-288,-85,110,-26,16
2,2920115,-1422,497,-588,-989,-279,-85,110,-26,16
2,2920131,-1422,497,-588,-989,-279,-85,110,-26,16
2,2920145,-1424,494,-585,-964,-280,-83,115,-27,11
2,2920159,-1425,491,-587,-944,-288,-86,115,-27,11
2,2920173,-1426,496,-580,-930,-288,-86,115,-27,11
2,2920186,-1426,496,-580,-930,-288,-86,115,-27,11
2,2920198,-1432,496,-587,-920,-284,-94,115,-27,11
2,2920212,-1432,496,-587,-920,-284,-94,115,-27,11
2,2920226,-1428,492,-585,-920,-286,-93,115,-27,11
2,2920242,-1428,492,-578,-918,-287,-80,115,-27,11
2,2920255,-1429,493,-580,-910,-272,-82,118,-24,10
2,2920269,-1429,493,-580,-910,-272,-82,118,-24,10
2,2920282,-1430,491,-579,-893,-281,-88,118,-24,10
2,2920296,-1426,492,-582,-882,-284,-91,118,-24,10
2,2920310,-1426,492,-582,-882,-284,-91,118,-24,10
2,2920324,-1426,501,-585,-873,-280,-89,118,-24,10
2,2920336,-1424,496,-588,-859,-276,-78,118,-24,10
2,2920343,-1424,496,-588,-859,-276,-78,118,-24,10
2,2920357,-1423,497,-586,-843,-277,-92,118,-24,10
2,2920373,-1426,496,-580,-831,-273,-93,114,-30,14
2,2920382,-1426,496,-580,-831,-273,-93,114,-30,14
2,2920396,-1426,495,-579,-819,-277,-87,114,-30,14
2,2920411,-1426,495,-579,-819,-277,-87,114,-30,14
2,2920424,-1427,486,-584,-816,-276,-89,114,-30,14
2,2920438,-1425,492,-585,-811,-277,-89,114,-30,14
2,2920452,-1425,492,-585,-811,-277,-89,114,-30,14
2,2920466,-1424,489,-578,-797,-274,-84,114,-30,14
2,2920479,-1424,485,-582,-792,-275,-84,114,-30,14
2,2920496,-1423,491,-585,-789,-277,-88,116,-26,14
2,2920510,-1423,491,-585,-789,-277,-88,116,-26,14
2,2920525,-1423,491,-585,-789,-277,-88,116,-26,14
2,2920538,-1428,495,-579,-756,-283,-86,116,-26,14
2,2920552,-1425,494,-584,-744,-279,-83,116,-26,14
2,2920567,-1425,494,-584,-744,-279,-83,116,-26,14
2,2920583,-1425,495,-584,-742,-270,-83,116,-26,14
2,2920597,-1427,490,-580,-728,-277,-74,116,-26,14
2,2920611,-1427,490,-580,-728,-277,-74,116,-26,14
2,2920626,-1427,488,-584,-720,-266,-82,115,-25,15
2,2920640,-1428,493,-583,-711,-271,-84,115,-25,15
2,2920652,-1428,491,-585,-704,-278,-86,115,-25,15
2,2920665,-1428,491,-585,-704,-278,-86,115,-25,15
2,2920678,-1427,489,-587,-699,-272,-92,115,-25,15
2,2920692,-1422,493,-581,-683,-267,-87,115,-25,15
2,2920707,-1422,493,-581,-683,-267,-87,115,-25,15
2,2920722,-1423,496,-585,-665,-262,-94,115,-25,15
2,2920738,-1426,493,-582,-662,-271,-92,115,-25,15
2,2920754,-1427,495,-585,-643,-271,-93,113,-25,13
2,2920770,-1427,495,-585,-643,-271,-93,113,-25,13
2,2920785,-1425,492,-583,-626,-266,-84,113,-25,13
2,2920799,-1423,492,-589,-614,-266,-80,113,-25,13
2,2920813,-1432,492,-592,-602,-259,-81,113,-25,13
2,2920828,-1432,492,-592,-602,-259,-81,113,-25,13
2,2920843,-1428,497,-591,-576,-261,-89,113,-25,13
2,2920853,-1424,491,-580,-554,-266,-88,113,-25,13
2,2920867,-1424,491,-580,-554,-266,-88,113,-25,13
2,2920883,-1426,491,-579,-535,-260,-94,114,-32,8
2,2920897,-1424,493,-585,-514,-252,-82,114,-32,8
2,2920910,-1424,493,-585,-514,-252,-82,114,-32,8
2,2920925,-1423,493,-589,-508,-257,-91,114,-32,8
2,2920937,-1423,500,-590,-488,-254,-94,114,-32,8
2,2920949,-1423,500,-590,-488,-254,-94,114,-32,8
2,2920965,-1427,494,-586,-456,-251,-94,114,-32,8
2,2920978,-1426,498,-586,-436,-246,-91,114,-32,8
2,2920991,-1426,498,-586,-436,-246,-91,114,-32,8
2,2921007,-1426,495,-583,-429,-248,-86,122,-28,18
2,2921022,-1427,493,-585,-419,-248,-81,122,-28,18
2,2921037,-1426,492,-584,-395,-247,-86,122,-28,18
2,2921052,-1426,492,-584,-395,-247,-86,122,-28,18
2,2921066,-1428,494,-586,-385,-250,-89,122,-28,18
2,2921080,-1422,495,-585,-368,-253,-89,122,-28,18
2,2921096,-1424,496,-587,-356,-245,-89,122,-28,18
2,2921109,-1424,496,-587,-356,-245,-89,122,-28,18
2,2921122,-1425,498,-578,-348,-253,-93,121,-29,7
2,2921138,-1424,497,-580,-336,-244,-83,121,-29,7
2,2921151,-1424,497,-580,-336,-244,-83,121,-29,7
2,2921165,-1427,494,-576,-322,-243,-91,121,-29,7
2,2921180,-1425,496,-587,-301,-233,-87,121,-29,7
2,2921194,-1427,490,-582,-294,-231,-94,121,-29,7
2,2921209,-1427,490,-582,-294,-231,-94,121,-29,7
2,2921224,-1427,491,-585,-278,-237,-86,121,-29,7
2,2921239,-1428,494,-583,-275,-242,-92,127,-25,9
2,2921250,-1428,494,-583,-275,-242,-92,127,-25,9
2,2921266,-1425,494,-580,-264,-243,-88,127,-25,9
2,2921276,-1424,491,-582,-260,-247,-89,127,-25,9
2,2921291,-1424,491,-582,-260,-247,-89,127,-25,9
2,2921305,-1423,492,-581,-253,-243,-91,127,-25,9
2,2921318,-1421,493,-580,-243,-247,-86,127,-25,9
2,2921332,-1421,493,-580,-243,-247,-86,127,-25,9
2,2921347,-1424,496,-586,-239,-240,-85,127,-25,9
2,2921360,-1427,494,-585,-223,-248,-88,127,-25,9
2,2921371,-1427,494,-585,-223,-248,-88,127,-25,9
2,2921385,-1427,490,-583,-210,-250,-85,129,-25,5
2,2921400,-1427,491,-587,-205,-240,-88,129,-25,5
2,2921413,-1428,489,-583,-204,-246,-91,129,-25,5
2,2921427,-1428,489,-583,-204,-246,-91,129,-25,5
2,2921441,-1425,487,-583,-193,-234,-92,129,-25,5
2,2921453,-1425,487,-583,-193,-234,-92,129,-25,5
2,2921467,-1425,492,-583,-196,-235,-88,129,-25,5
2,2921481,-1426,491,-589,-182,-240,-95,129,-25,5
2,2921495,-1426,492,-582,-168,-237,-98,131,-31,9
2,2921509,-1426,492,-582,-168,-237,-98,131,-31,9
2,2921525,-1424,492,-582,-161,-235,-99,131,-31,9
2,2921541,-1430,493,-584,-153,-237,-88,131,-31,9
2,2921556,-1429,492,-581,-146,-239,-87,131,-31,9
2,2921571,-1429,492,-581,-146,-239,-87,131,-31,9
2,2921585,-1427,485,-580,-151,-233,-96,131,-31,9
2,2921600,-1425,486,-582,-147,-240,-92,131,-31,9
2,2921614,-1427,486,-580,-144,-235,-89,129,-27,7
2,2921628,-1427,486,-580,-144,-235,-89,129,-27,7
2,2921640,-1425,489,-579,-146,-229,-93,129,-27,7
2,2921655,-1424,492,-580,-150,-232,-91,129,-27,7
2,2921669,-1424,492,-580,-150,-232,-91,129,-27,7
2,2921683,-1421,489,-585,-157,-233,-99,129,-27,7
2,2921698,-1427,493,-578,-153,-235,-94,129,-27,7
2,2921711,-1427,493,-578,-153,-235,-94,129,-27,7
2,2921720,-1427,495,-582,-152,-237,-93,129,-27,7
2,2921736,-1429,491,-579,-160,-236,-78,121,-35,9
2,2921750,-1429,491,-579,-160,-236,-78,121,-35,9
2,2921766,-1428,488,-574,-163,-237,-88,121,-35,9
2,2921779,-1425,490,-579,-166,-238,-84,121,-35,9
2,2921793,-1425,490,-579,-166,-238,-84,121,-35,9
2,2921808,-1424,490,-586,-165,-243,-86,121,-35,9
2,2921823,-1425,487,-585,-173,-236,-95,121,-35,9
2,2921837,-1428,493,-581,-173,-236,-85,121,-35,9
2,2921851,-1428,493,-581,-173,-236,-85,121,-35,9
2,2921865,-1425,494,-579,-169,-236,-78,125,-33,5
2,2921879,-1422,496,-578,-169,-242,-88,125,-33,5
2,2921890,-1422,496,-578,-169,-242,-88,125,-33,5
2,2921904,-1424,490,-578,-164,-241,-91,125,-33,5
2,2921918,-1422,487,-580,-162,-239,-86,125,-33,5
2,2921932,-1422,487,-580,-162,-239,-86,125,-33,5
2,2921947,-1428,491,-582,-163,-239,-88,125,-33,5
2,2921961,-1428,491,-584,-157,-240,-83,125,-33,5
2,2921973,-1428,491,-584,-157,-240,-83,125,-33,5
2,2921988,-1425,489,-580,-161,-233,-90,125,-33,5
2,2922002,-1424,488,-583,-162,-239,-84,123,-33,11
2,2922017,-1426,489,-581,-150,-237,-86,123,-33,11
2,2922032,-1426,489,-581,-150,-237,-86,123,-33,11
2,2922045,-1425,493,-586,-156,-231,-87,123,-33,11
2,2922059,-1425,494,-582,-161,-231,-83,123,-33,11
2,2922075,-1424,490,-580,-165,-235,-82,123,-33,11
2,2922088,-1424,490,-580,-165,-235,-82,123,-33,11
2,2922102,-1424,495,-578,-159,-242,-81,123,-33,11
2,2922117,-1428,491,-579,-166,-237,-87,127,-33,11
2,2922131,-1428,491,-579,-166,-237,-87,127,-33,11
2,2922144,-1425,491,-582,-160,-231,-80,127,-33,11
2,2922157,-1424,495,-582,-165,-233,-84,127,-33,11
2,2922170,-1424,495,-582,-165,-233,-84,127,-33,11
2,2922183,-1427,492,-579,-163,-239,-88,127,-33,11
2,2922198,-1423,493,-584,-166,-237,-86,127,-33,11
2,2922213,-1423,493,-584,-166,-237,-86,127,-33,11
2,2922226,-1424,491,-578,-161,-232,-86,127,-33,11
2,2922238,-1419,492,-578,-164,-232,-85,130,-32,12
2,2922254,-1426,491,-579,-161,-229,-88,130,-32,12
2,2922269,-1426,491,-579,-161,-229,-88,130,-32,12
2,2922283,-1425,495,-579,-161,-231,-83,130,-32,12
2,2922295,-1426,493,-578,-172,-231,-88,130,-32,12
2,2922310,-1426,493,-578,-172,-231,-88,130,-32,12
2,2922323,-1427,492,-583,-176,-241,-79,130,-32,12
2,2922339,-1425,491,-581,-164,-227,-91,130,-32,12
2,2922353,-1425,491,-581,-164,-227,-91,130,-32,12
2,2922366,-1422,490,-575,-164,-235,-95,129,-29,9
2,2922383,-1425,485,-578,-166,-231,-90,129,-29,9
2,2922396,-1425,489,-583,-163,-232,-95,129,-29,9
2,2922409,-1425,489,-583,-163,-232,-95,129,-29,9
2,2922423,-1423,491,-581,-158,-240,-87,129,-29,9
2,2922437,-1426,493,-581,-167,-234,-89,129,-29,9
2,2922451,-1426,493,-581,-167,-234,-89,129,-29,9
2,2922466,-1426,493,-581,-167,-234,-89,129,-29,9
2,2922481,-1428,492,-581,-159,-236,-82,126,-34,6
2,2922497,-1429,494,-577,-164,-239,-91,126,-34,6
2,2922512,-1429,494,-577,-164,-239,-91,126,-34,6
2,2922525,-1429,489,-577,-158,-237,-87,126,-34,6
2,2922533,-1429,489,-577,-158,-237,-87,126,-34,6
2,2922546,-1425,494,-586,-158,-233,-91,126,-34,6
2,2922560,-1426,493,-584,-159,-239,-89,126,-34,6
2,2922574,-1426,493,-584,-159,-239,-89,126,-34,6
2,2922588,-1427,492,-580,-162,-233,-90,126,-34,6
2,2922601,-1431,491,-581,-162,-228,-91,126,-34,6
2,2922615,-1425,490,-581,-167,-224,-88,123,-33,9
2,2922627,-1425,490,-581,-167,-224,-88,123,-33,9
2,2922641,-1424,490,-583,-163,-232,-91,123,-33,9
2,2922654,-1426,489,-584,-164,-234,-88,123,-33,9
2,2922669,-1426,489,-584,-164,-234,-88,123,-33,9
2,2922683,-1427,495,-582,-159,-232,-91,123,-33,9
2,2922697,-1425,490,-585,-154,-229,-79,123,-33,9
2,2922710,-1425,490,-585,-154,-229,-79,123,-33,9
2,2922724,-1428,490,-583,-164,-228,-90,123,-33,9
2,2922739,-1429,491,-580,-166,-231,-96,127,-33,13
2,2922753,-1429,491,-580,-166,-231,-96,127,-33,13
2,2922764,-1428,490,-578,-167,-231,-92,127,-33,13
2,2922778,-1423,487,-583,-170,-234,-92,127,-33,13
2,2922791,-1423,487,-583,-170,-234,-92,127,-33,13
2,2922806,-1424,488,-582,-163,-237,-85,127,-33,13
2,2922820,-1421,492,-577,-161,-236,-85,127,-33,13
2,2922833,-1421,492,-577,-161,-236,-85,127,-33,13
2,2922847,-1424,492,-579,-155,-229,-88,127,-33,13
2,2922860,-1426,492,-578,-156,-235,-92,128,-28,12
2,2922873,-1426,492,-578,-156,-235,-92,128,-28,12
2,2922888,-1426,495,-583,-161,-238,-85,128,-28,12
2,2922902,-1428,492,-579,-169,-233,-88,128,-28,12
2,2922916,-1424,491,-580,-167,-235,-92,128,-28,12
2,2922933,-1424,491,-580,-167,-235,-92,128,-28,12
2,2922945,-1428,490,-578,-165,-238,-83,128,-28,12
2,2922960,-1427,491,-582,-170,-240,-86,128,-28,12
2,2922976,-1424,492,-585,-164,-242,-82,125,-27,13
2,2922990,-1424,492,-585,-164,-242,-82,125,-27,13
2,2923004,-1426,492,-582,-164,-235,-78,125,-27,13
2,2923016,-1422,492,-583,-159,-232,-83,125,-27,13
2,2923031,-1422,492,-583,-159,-232,-83,125,-27,13
2,2923045,-1425,493,-582,-156,-236,-89,125,-27,13
2,2923059,-1425,493,-580,-165,-236,-88,125,-27,13
2,2923073,-1425,493,-580,-165,-236,-88,125,-27,13
2,2923086,-1428,490,-580,-155,-232,-84,125,-27,13
2,2923102,-1427,490,-575,-160,-238,-82,124,-24,20
2,2923114,-1427,490,-575,-160,-238,-82,124,-24,20
2,2923127,-1429,488,-580,-157,-234,-86,124,-24,20
2,2923143,-1428,489,-583,-158,-234,-85,124,-24,20
2,2923155,-1427,490,-582,-161,-236,-87,124,-24,20
2,2923169,-1427,490,-582,-161,-236,-87,124,-24,20
2,2923186,-1427,493,-582,-163,-237,-86,124,-24,20
2,2923201,-1423,493,-584,-162,-237,-90,124,-24,20
2,2923216,-1422,493,-584,-165,-239,-87,124,-24,20
2,2923231,-1422,493,-584,-165,-239,-87,124,-24,20
2,2923244,-1426,493,-573,-157,-229,-78,126,-34,8
2,2923258,-1425,494,-578,-160,-235,-88,126,-34,8
2,2923273,-1425,494,-578,-160,-235,-88,126,-34,8
2,2923284,-1426,495,-581,-166,-233,-86,126,-34,8
2,2923296,-1423,495,-582,-160,-239,-96,126,-34,8
2,2923312,-1423,495,-582,-160,-239,-96,126,-34,8
2,2923326,-1426,494,-586,-161,-229,-97,126,-34,8
2,2923339,-1426,492,-582,-164,-228,-87,126,-34,8
2,2923355,-1426,492,-582,-164,-228,-87,126,-34,8
2,2923366,-1424,490,-578,-166,-236,-92,125,-33,5
2,2923378,-1425,490,-583,-166,-239,-89,125,-33,5
2,2923394,-1425,490,-583,-166,-239,-89,125,-33,5
2,2923404,-1426,491,-579,-159,-233,-87,125,-33,5
2,2923415,-1424,493,-580,-162,-234,-82,125,-33,5
2,2923428,-1424,493,-580,-162,-234,-82,125,-33,5
2,2923444,-1426,494,-581,-162,-242,-87,125,-33,5
2,2923459,-1425,493,-581,-158,-236,-92,125,-33,5
2,2923473,-1425,493,-581,-158,-236,-92,125,-33,5
2,2923486,-1427,493,-580,-160,-241,-90,121,-27,7
2,2923499,-1425,488,-581,-167,-240,-92,121,-27,7
2,2923512,-1425,488,-581,-167,-240,-92,121,-27,7
2,2923526,-1427,488,-580,-163,-234,-88,121,-27,7
2,2923539,-1425,489,-587,-158,-238,-86,121,-27,7
2,2923553,-1425,489,-587,-158,-238,-86,121,-27,7
2,2923566,-1427,491,-580,-161,-239,-88,121,-27,7
2,2923580,-1425,494,-581,-163,-240,-87,121,-27,7
2,2923593,-1425,494,-581,-163,-240,-87,121,-27,7
2,2923607,-1424,494,-577,-161,-232,-93,134,-28,10
2,2923622,-1422,491,-580,-164,-231,-88,134,-28,10
2,2923637,-1425,490,-579,-165,-241,-90,134,-28,10
2,2923653,-1425,490,-579,-165,-241,-90,134,-28,10
2,2923667,-1426,490,-582,-158,-239,-82,134,-28,10
2,2923680,-1426,492,-581,-164,-237,-90,134,-28,10
2,2923696,-1425,493,-582,-164,-231,-88,134,-28,10
2,2923711,-1425,493,-582,-164,-231,-88,134,-28,10
2,2923726,-1426,489,-584,-162,-239,-84,128,-26,16
2,2923740,-1428,494,-579,-163,-239,-85,128,-26,16
2,2923752,-1428,494,-579,-163,-239,-85,128,-26,16
2,2923765,-1424,492,-575,-164,-239,-86,128,-26,16
2,2923779,-1422,495,-587,-161,-233,-82,128,-26,16
2,2923792,-1422,495,-587,-161,-233,-82,128,-26,16
2,2923806,-1424,492,-584,-173,-237,-87,128,-26,16
2,2923819,-1424,491,-580,-166,-235,-93,128,-26,16
2,2923831,-1424,491,-580,-166,-235,-93,128,-26,16
2,2923845,-1425,492,-577,-168,-238,-90,128,-26,16
2,2923858,-1427,490,-577,-156,-238,-86,129,-25,11
2,2923874,-1427,490,-577,-156,-238,-86,129,-25,11
2,2923889,-1426,491,-582,-156,-229,-83,129,-25,11
2,2923906,-1425,492,-584,-155,-228,-82,129,-25,11
2,2923921,-1424,493,-580,-166,-230,-93,129,-25,11
2,2923937,-1426,491,-582,-163,-233,-87,129,-25,11
2,2923953,-1426,491,-582,-163,-233,-87,129,-25,11
2,2923967,-1427,493,-579,-154,-240,-94,129,-25,11
2,2923981,-1423,492,-581,-159,-239,-91,126,-30,12
2,2923996,-1422,492,-580,-165,-233,-84,126,-30,12
2,2924010,-1422,492,-580,-165,-233,-84,126,-30,12
2,2924022,-1424,491,-583,-154,-227,-89,126,-30,12
2,2924036,-1423,495,-577,-159,-235,-93,126,-30,12
2,2924050,-1423,495,-577,-159,-235,-93,126,-30,12
2,2924063,-1428,495,-580,-167,-237,-86,126,-30,12
2,2924077,-1424,493,-582,-159,-232,-87,126,-30,12
2,2924092,-1424,493,-582,-159,-232,-87,126,-30,12
2,2924105,-1427,489,-582,-166,-229,-89,133,-25,15
2,2924118,-1424,488,-577,-162,-235,-87,133,-25,15
2,2924132,-1424,488,-577,-162,-235,-87,133,-25,15
2,2924147,-1424,490,-577,-161,-235,-86,133,-25,15
2,2924163,-1426,494,-584,-159,-232,-86,133,-25,15
2,2924176,-1424,494,-579,-160,-227,-88,133,-25,15
2,2924189,-1424,494,-579,-160,-227,-88,133,-25,15
2,2924204,-1422,493,-578,-166,-236,-80,133,-25,15
2,2924219,-1426,495,-578,-161,-238,-82,131,-27,11
2,2924233,-1426,495,-578,-161,-238,-82,131,-27,11
2,2924247,-1426,492,-578,-160,-245,-80,131,-27,11
2,2924261,-1427,491,-580,-159,-242,-88,131,-27,11
2,2924275,-1427,491,-580,-159,-242,-88,131,-27,11
2,2924289,-1426,490,-582,-164,-231,-92,131,-27,11
2,2924302,-1426,490,-580,-163,-238,-91,131,-27,11
2,2924316,-1424,492,-584,-162,-237,-91,131,-27,11
2,2924333,-1424,492,-584,-162,-237,-91,131,-27,11
2,2924348,-1425,492,-585,-164,-236,-88,129,-27,9
2,2924362,-1426,495,-577,-160,-236,-91,129,-27,9
2,2924377,-1426,495,-581,-156,-231,-82,129,-27,9
2,2924389,-1426,495,-581,-156,-231,-82,129,-27,9
2,2924403,-1424,491,-581,-161,-233,-79,129,-27,9
2,2924417,-1424,493,-578,-159,-235,-85,129,-27,9
2,2924430,-1424,493,-578,-159,-235,-85,129,-27,9
2,2924444,-1425,494,-579,-159,-229,-85,129,-27,9
2,2924455,-1425,494,-579,-159,-229,-85,129,-27,9
2,2924469,-1426,494,-586,-156,-239,-87,129,-27,9
2,2924483,-1426,494,-577,-158,-236,-91,129,-27,9
2,2924497,-1425,492,-577,-162,-231,-95,129,-27,9
2,2924512,-1425,492,-577,-162,-231,-95,129,-27,9
2,2924525,-1427,492,-579,-161,-236,-90,129,-27,9
2,2924538,-1427,490,-579,-160,-237,-92,129,-27,9
2,2924552,-1427,490,-579,-160,-237,-92,129,-27,9
2,2924565,-1426,494,-582,-158,-235,-92,129,-27,9
2,2924577,-1425,493,-581,-165,-240,-88,129,-27,9
2,2924593,-1425,493,-581,-165,-240,-88,129,-27,9
2,2924609,-1425,493,-577,-167,-239,-86,135,-29,17
2,2924623,-1427,494,-575,-167,-232,-84,135,-29,17
2,2924638,-1423,492,-578,-160,-237,-89,135,-29,17
2,2924651,-1423,492,-578,-160,-237,-89,135,-29,17
2,2924665,-1425,488,-581,-161,-229,-83,135,-29,17
2,2924682,-1427,489,-581,-159,-239,-88,135,-29,17
2,2924695,-1427,489,-581,-159,-239,-88,135,-29,17
2,2924707,-1425,492,-578,-160,-241,-90,135,-29,17
2,2924724,-1422,492,-576,-160,-233,-82,130,-36,8
2,2924736,-1425,491,-578,-161,-228,-84,130,-36,8
2,2924750,-1425,491,-578,-161,-228,-84,130,-36,8
2,2924764,-1423,499,-581,-162,-237,-94,130,-36,8
2,2924778,-1424,494,-581,-167,-233,-94,130,-36,8
2,2924793,-1424,494,-581,-167,-233,-94,130,-36,8
2,2924806,-1425,495,-581,-167,-236,-88,130,-36,8
2,2924820,-1426,492,-584,-167,-237,-84,130,-36,8
2,2924835,-1426,492,-584,-167,-237,-84,130,-36,8
2,2924852,-1426,488,-579,-164,-235,-88,124,-30,18
2,2924867,-1426,495,-578,-161,-234,-87,124,-30,18
2,2924882,-1427,494,-580,-157,-231,-85,124,-30,18
2,2924897,-1423,494,-585,-163,-240,-86,124,-30,18
2,2924909,-1423,494,-585,-163,-240,-86,124,-30,18
2,2924922,-1424,493,-583,-158,-241,-86,124,-30,18
2,2924936,-1423,494,-577,-160,-235,-87,124,-30,18
2,2924950,-1423,494,-577,-160,-235,-87,124,-30,18
2,2924964,-1424,495,-579,-156,-232,-91,128,-34,16
2,2924979,-1427,491,-580,-164,-238,-93,128,-34,16
2,2924989,-1427,491,-580,-164,-238,-93,128,-34,16
2,2925003,-1422,492,-580,-160,-240,-87,128,-34,16
2,2925019,-1424,489,-579,-162,-234,-81,128,-34,16
2,2925031,-1424,489,-579,-162,-234,-81,128,-34,16
2,2925046,-1426,492,-579,-158,-231,-85,128,-34,16
2,2925061,-1426,489,-584,-153,-244,-85,128,-34,16
2,2925076,-1426,492,-586,-158,-238,-93,136,-32,20
2,2925091,-1426,492,-586,-158,-238,-93,136,-32,20
2,2925105,-1425,493,-579,-167,-226,-87,136,-32,20
2,2925120,-1422,494,-579,-160,-228,-83,136,-32,20
2,2925134,-1422,494,-579,-160,-228,-83,136,-32,20
2,2925150,-1420,495,-586,-157,-224,-81,136,-32,20
2,2925162,-1424,495,-582,-154,-229,-90,136,-32,20
2,2925170,-1424,495,-582,-154,-229,-90,136,-32,20
2,2925184,-1424,496,-577,-167,-239,-93,136,-32,20
2,2925198,-1424,496,-577,-167,-239,-93,136,-32,20
2,2925210,-1424,496,-577,-167,-239,-93,136,-32,20
2,2925222,-1423,495,-575,-159,-232,-84,127,-25,27
2,2925237,-1423,495,-575,-159,-232,-84,127,-25,27
2,2925246,-1426,491,-583,-156,-230,-85,127,-25,27
2,2925257,-1423,489,-581,-158,-235,-87,127,-25,27
2,2925272,-1423,489,-581,-158,-235,-87,127,-25,27
2,2925287,-1423,494,-579,-159,-234,-90,127,-25,27
2,2925302,-1424,493,-584,-161,-230,-90,127,-25,27
2,2925318,-1421,492,-580,-162,-229,-88,127,-25,27
2,2925330,-1421,492,-580,-162,-229,-88,127,-25,27
2,2925345,-1421,492,-578,-160,-234,-88,134,-32,12
2,2925361,-1425,495,-580,-160,-236,-88,134,-32,12
2,2925376,-1425,495,-580,-160,-236,-88,134,-32,12
2,2925389,-1425,496,-581,-164,-242,-90,134,-32,12
2,2925404,-1427,493,-580,-165,-235,-91,134,-32,12
2,2925417,-1427,491,-580,-167,-239,-93,134,-32,12
2,2925428,-1427,491,-580,-167,-239,-93,134,-32,12
2,2925444,-1425,491,-576,-171,-241,-90,134,-32,12
2,2925459,-1423,492,-581,-159,-237,-86,125,-27,7
2,2925473,-1423,492,-581,-159,-237,-86,125,-27,7
2,2925488,-1427,493,-580,-165,-238,-86,125,-27,7
2,2925496,-1427,493,-580,-165,-238,-86,125,-27,7
2,2925506,-1427,496,-576,-165,-238,-90,125,-27,7
2,2925520,-1426,498,-582,-167,-235,-84,125,-27,7
2,2925535,-1426,498,-582,-167,-235,-84,125,-27,7
2,2925549,-1422,495,-577,-167,-236,-91,125,-27,7
2,2925564,-1422,493,-581,-161,-236,-88,125,-27,7
2,2925579,-1426,493,-582,-160,-236,-83,125,-31,11
2,2925595,-1426,493,-582,-160,-236,-83,125,-31,11
2,2925611,-1428,493,-580,-165,-239,-90,125,-31,11
2,2925624,-1423,493,-578,-165,-240,-90,125,-31,11
2,2925637,-1423,494,-580,-162,-241,-91,125,-31,11
2,2925651,-1423,494,-580,-162,-241,-91,125,-31,11
2,2925664,-1426,490,-583,-159,-244,-86,125,-31,11
2,2925679,-1421,493,-579,-163,-236,-90,125,-31,11
2,2925691,-1421,493,-579,-163,-236,-90,125,-31,11
2,2925706,-1422,497,-582,-165,-238,-89,129,-23,15
2,2925719,-1423,492,-576,-170,-238,-89,129,-23,15
2,2925733,-1423,492,-576,-170,-238,-89,129,-23,15
2,2925748,-1423,495,-578,-165,-245,-88,129,-23,15
2,2925761,-1420,496,-581,-167,-234,-84,129,-23,15
2,2925774,-1420,496,-581,-167,-234,-84,129,-23,15
2,2925791,-1427,494,-583,-170,-234,-83,129,-23,15
2,2925806,-1427,493,-583,-166,-233,-99,129,-23,15
2,2925821,-1429,492,-584,-161,-235,-90,129,-23,15
2,2925835,-1429,492,-584,-161,-235,-90,129,-23,15
2,2925847,-1425,490,-582,-158,-235,-83,128,-32,18
2,2925861,-1426,490,-583,-164,-232,-93,128,-32,18
2,2925876,-1426,490,-583,-164,-232,-93,128,-32,18
2,2925889,-1425,493,-574,-167,-239,-88,128,-32,18
2,2925903,-1424,497,-581,-170,-230,-93,128,-32,18
2,2925918,-1424,496,-582,-169,-234,-86,128,-32,18
2,2925932,-1424,496,-582,-169,-234,-86,128,-32,18
2,2925945,-1420,494,-583,-165,-236,-76,128,-32,18
2,2925959,-1425,492,-578,-166,-231,-90,134,-28,16
2,2925972,-1425,492,-578,-166,-231,-90,134,-28,16
2,2925986,-1422,494,-582,-164,-237,-83,134,-28,16
2,2926002,-1425,494,-585,-160,-241,-91,134,-28,16
2,2926017,-1423,491,-581,-167,-230,-88,134,-28,16
2,2926032,-1423,491,-581,-167,-230,-88,134,-28,16
2,2926048,-1422,493,-581,-165,-234,-84,134,-28,16
2,2926062,-1422,493,-578,-162,-236,-89,134,-28,16
2,2926075,-1422,493,-578,-162,-236,-89,134,-28,16
2,2926090,-1425,496,-578,-160,-237,-91,131,-35,17
2,2926104,-1426,495,-582,-158,-235,-85,131,-35,17
2,2926116,-1426,495,-582,-158,-235,-85,131,-35,17
2,2926132,-1423,494,-575,-166,-230,-86,131,-35,17
2,2926146,-1425,492,-582,-167,-235,-86,131,-35,17
2,2926159,-1426,492,-582,-167,-240,-83,131,-35,17
2,2926174,-1426,492,-582,-167,-240,-83,131,-35,17
2,2926188,-1426,494,-576,-168,-241,-87,131,-35,17
2,2926202,-1429,495,-577,-170,-233,-85,126,-34,8
2,2926217,-1429,495,-577,-170,-233,-85,126,-34,8
2,2926229,-1425,494,-577,-162,-230,-81,126,-34,8
2,2926243,-1426,494,-583,-159,-231,-87,126,-34,8
2,2926259,-1425,494,-584,-162,-233,-87,126,-34,8
2,2926274,-1425,494,-584,-162,-233,-87,126,-34,8
2,2926288,-1422,498,-579,-159,-236,-85,126,-34,8
2,2926300,-1425,492,-579,-163,-240,-87,126,-34,8
2,2926313,-1425,492,-579,-163,-240,-87,126,-34,8
2,2926327,-1426,496,-579,-162,-239,-86,122,-26,8
2,2926342,-1423,493,-577,-164,-229,-90,122,-26,8
2,2926355,-1423,493,-577,-164,-229,-90,122,-26,8
2,2926370,-1424,489,-579,-164,-229,-93,122,-26,8
2,2926382,-1425,492,-583,-162,-231,-90,122,-26,8
2,2926395,-1425,492,-583,-162,-231,-90,122,-26,8
2,2926408,-1424,496,-584,-159,-238,-101,122,-26,8
2,2926419,-1426,494,-582,-165,-247,-85,122,-26,8
2,2926434,-1426,494,-582,-165,-247,-85,122,-26,8
2,2926443,-1424,491,-584,-159,-242,-86,122,-26,8
2,2926458,-1427,490,-570,-162,-245,-87,122,-30,10
2,2926473,-1427,490,-570,-162,-245,-87,122,-30,10
2,2926486,-1422,492,-581,-167,-230,-84,122,-30,10
2,2926501,-1424,493,-576,-161,-238,-85,122,-30,10
2,2926515,-1424,493,-576,-161,-238,-85,122,-30,10
2,2926528,-1425,494,-583,-160,-239,-91,122,-30,10
2,2926542,-1423,489,-582,-162,-244,-91,122,-30,10
2,2926557,-1423,489,-582,-162,-244,-91,122,-30,10
2,2926569,-1427,493,-580,-165,-236,-86,122,-30,10
2,2926582,-1428,492,-573,-162,-228,-91,126,-28,10
2,2926597,-1428,492,-573,-162,-228,-91,126,-28,10
2,2926611,-1427,491,-582,-159,-232,-86,126,-28,10
2,2926625,-1427,492,-579,-154,-236,-87,126,-28,10
2,2926640,-1419,492,-579,-168,-232,-87,126,-28,10
2,2926655,-1419,492,-579,-168,-232,-87,126,-28,10
2,2926668,-1424,498,-580,-162,-237,-90,126,-28,10
2,2926682,-1423,497,-582,-159,-236,-84,126,-28,10
2,2926696,-1423,497,-582,-159,-236,-84,126,-28,10
2,2926711,-1424,497,-579,-166,-239,-87,122,-32,18
2,2926728,-1426,497,-576,-165,-229,-90,122,-32,18
2,2926743,-1427,492,-575,-168,-232,-87,122,-32,18
2,2926756,-1427,492,-575,-168,-232,-87,122,-32,18
2,2926769,-1423,490,-581,-169,-234,-94,122,-32,18
2,2926783,-1425,492,-585,-162,-235,-98,122,-32,18
2,2926796,-1425,492,-585,-162,-235,-98,122,-32,18
2,2926811,-1423,493,-578,-161,-228,-81,122,-32,18
2,2926825,-1424,495,-577,-161,-232,-92,124,-32,16
2,2926839,-1424,494,-579,-158,-235,-87,124,-32,16
2,2926852,-1424,494,-579,-158,-235,-87,124,-32,16
2,2926863,-1424,494,-576,-160,-234,-87,124,-32,16
2,2926877,-1424,494,-576,-160,-234,-87,124,-32,16
2,2926892,-1425,495,-577,-165,-235,-94,124,-32,16
2,2926906,-1424,494,-575,-160,-231,-96,124,-32,16
2,2926921,-1425,492,-579,-158,-238,-91,124,-32,16
2,2926938,-1425,492,-579,-158,-238,-91,124,-32,16
2,2926952,-1422,491,-583,-158,-240,-84,125,-27,9
2,2926966,-1425,489,-580,-161,-231,-82,125,-27,9
2,2926980,-1425,491,-581,-160,-233,-87,125,-27,9
2,2926995,-1425,491,-581,-160,-233,-87,125,-27,9
2,2927009,-1421,494,-584,-162,-239,-87,125,-27,9
2,2927022,-1423,493,-584,-156,-233,-85,125,-27,9
2,2927034,-1423,493,-584,-156,-233,-85,125,-27,9
2,2927049,-1425,494,-574,-157,-245,-90,125,-27,9
2,2927063,-1419,491,-580,-159,-232,-87,125,-27,9
2,2927076,-1419,491,-580,-159,-232,-87,125,-27,9
2,2927090,-1424,496,-576,-161,-233,-93,129,-29,11
2,2927102,-1425,497,-582,-171,-227,-89,129,-29,11
2,2927115,-1425,497,-582,-171,-227,-89,129,-29,11
2,2927130,-1426,493,-578,-161,-234,-80,129,-29,11
2,2927143,-1425,491,-578,-156,-235,-87,129,-29,11
2,2927158,-1425,491,-578,-156,-235,-87,129,-29,11
2,2927172,-1429,487,-579,-164,-239,-88,129,-29,11
2,2927187,-1425,492,-580,-160,-242,-87,129,-29,11
2,2927201,-1426,494,-576,-162,-239,-93,125,-29,13
2,2927215,-1426,494,-576,-162,-239,-93,125,-29,13
2,2927230,-1423,493,-585,-160,-236,-90,125,-29,13
2,2927246,-1426,497,-584,-162,-236,-85,125,-29,13
2,2927261,-1423,494,-580,-161,-235,-87,125,-29,13
2,2927270,-1423,494,-580,-161,-235,-87,125,-29,13
2,2927286,-1425,496,-580,-158,-237,-84,125,-29,13
2,2927299,-1426,493,-582,-161,-237,-86,125,-29,13
2,2927313,-1426,493,-582,-161,-237,-86,125,-29,13
2,2927328,-1425,490,-577,-159,-235,-89,127,-35,11
2,2927342,-1424,486,-574,-157,-226,-94,127,-35,11
2,2927354,-1424,486,-574,-157,-226,-94,127,-35,11
2,2927367,-1425,492,-579,-160,-236,-94,127,-35,11
2,2927380,-1426,490,-584,-156,-235,-91,127,-35,11
2,2927394,-1426,490,-584,-156,-235,-91,127,-35,11
2,2927409,-1424,489,-581,-168,-236,-87,127,-35,11
2,2927424,-1426,494,-581,-166,-248,-94,127,-35,11
2,2927440,-1426,494,-575,-160,-239,-85,130,-28,12
2,2927456,-1426,494,-575,-160,-239,-85,130,-28,12
2,2927471,-1427,492,-580,-158,-231,-84,130,-28,12
2,2927486,-1425,494,-578,-167,-231,-94,130,-28,12
2,2927501,-1425,492,-578,-168,-229,-87,130,-28,12
2,2927515,-1425,492,-578,-168,-229,-87,130,-28,12
2,2927528,-1426,494,-580,-165,-239,-90,130,-28,12
2,2927543,-1423,489,-586,-172,-233,-85,130,-28,12
2,2927558,-1423,489,-586,-172,-233,-85,130,-28,12
2,2927571,-1425,493,-576,-163,-230,-90,125,-29,13
2,2927584,-1424,495,-581,-169,-232,-82,125,-29,13
2,2927598,-1424,495,-581,-169,-232,-82,125,-29,13
2,2927613,-1424,496,-583,-170,-230,-90,125,-29,13
2,2927627,-1427,496,-576,-166,-242,-90,125,-29,13
2,2927640,-1422,493,-583,-162,-223,-84,125,-29,13
2,2927651,-1422,493,-583,-162,-223,-84,125,-29,13
2,2927668,-1423,489,-584,-168,-228,-90,125,-29,13
2,2927680,-1426,493,-582,-166,-233,-91,125,-29,13
2,2927692,-1426,493,-582,-166,-233,-91,125,-29,13
2,2927708,-1424,497,-582,-162,-230,-86,136,-36,6
2,2927723,-1420,495,-581,-165,-231,-84,136,-36,6
2,2927738,-1420,495,-581,-165,-231,-84,136,-36,6
2,2927753,-1421,489,-579,-161,-232,-92,136,-36,6
2,2927767,-1426,491,-584,-160,-232,-81,136,-36,6
2,2927781,-1424,491,-577,-159,-227,-84,136,-36,6
2,2927796,-1424,491,-577,-159,-227,-84,136,-36,6
2,2927811,-1425,496,-579,-158,-235,-82,136,-36,6
2,2927822,-1425,492,-574,-163,-234,-91,126,-32,10
2,2927836,-1425,492,-574,-163,-234,-91,126,-32,10
2,2927851,-1425,491,-585,-164,-231,-87,126,-32,10
2,2927866,-1425,494,-580,-158,-240,-89,126,-32,10
2,2927881,-1426,492,-577,-160,-234,-90,126,-32,10
2,2927895,-1426,492,-577,-160,-234,-90,126,-32,10
2,2927909,-1426,490,-582,-161,-236,-85,126,-32,10
2,2927925,-1425,490,-580,-163,-237,-82,126,-32,10
2,2927940,-1422,492,-576,-165,-236,-80,129,-31,5
2,2927953,-1422,492,-576,-165,-236,-80,129,-31,5
2,2927967,-1426,491,-580,-161,-242,-81,129,-31,5
2,2927980,-1423,491,-582,-166,-242,-83,129,-31,5
2,2927994,-1423,491,-582,-166,-242,-83,129,-31,5
2,2928008,-1426,495,-585,-158,-234,-81,129,-31,5
2,2928020,-1425,495,-578,-165,-236,-83,129,-31,5
2,2928034,-1425,495,-578,-165,-236,-83,129,-31,5
2,2928048,-1424,488,-581,-163,-238,-86,129,-31,5
2,2928062,-1424,491,-575,-165,-234,-89,129,-31,15
2,2928077,-1424,491,-575,-165,-234,-89,129,-31,15
2,2928093,-1428,491,-580,-162,-236,-88,129,-31,15
2,2928107,-1425,494,-583,-168,-234,-88,129,-31,15
2,2928120,-1426,493,-582,-166,-237,-89,129,-31,15
2,2928135,-1426,493,-582,-166,-237,-89,129,-31,15
2,2928150,-1423,492,-584,-166,-239,-88,129,-31,15
2,2928165,-1427,492,-583,-166,-232,-84,129,-31,15
2,2928176,-1427,492,-583,-166,-232,-84,129,-31,15
2,2928189,-1426,492,-580,-170,-233,-83,126,-36,6
2,2928203,-1426,492,-580,-170,-233,-83,126,-36,6
2,2928218,-1426,492,-580,-170,-233,-83,126,-36,6
2,2928230,-1425,497,-582,-167,-239,-81,126,-36,6
2,2928243,-1427,498,-581,-168,-233,-84,126,-36,6
2,2928254,-1427,498,-581,-168,-233,-84,126,-36,6
2,2928271,-1424,491,-586,-160,-236,-91,126,-36,6
2,2928285,-1427,495,-579,-157,-233,-89,126,-36,6
2,2928300,-1425,494,-584,-161,-227,-89,126,-36,6
2,2928314,-1425,494,-584,-161,-227,-89,135,-29,17
2,2928329,-1428,490,-574,-161,-233,-85,135,-29,17
2,2928345,-1426,491,-578,-159,-236,-89,135,-29,17
2,2928360,-1425,495,-576,-166,-229,-88,135,-29,17
2,2928375,-1425,495,-576,-166,-229,-88,135,-29,17
2,2928390,-1424,491,-585,-165,-231,-93,135,-29,17
2,2928404,-1425,494,-580,-163,-233,-88,135,-29,17
2,2928418,-1425,494,-580,-163,-233,-88,135,-29,17
2,2928433,-1425,495,-581,-165,-230,-89,135,-29,17
2,2928448,-1426,493,-576,-164,-234,-88,132,-30,16
2,2928462,-1423,491,-575,-159,-244,-88,132,-30,16
2,2928476,-1423,491,-575,-159,-244,-88,132,-30,16
2,2928489,-1423,491,-577,-160,-234,-87,132,-30,16
2,2928503,-1425,495,-580,-164,-230,-92,132,-30,16
2,2928518,-1425,495,-580,-164,-230,-92,132,-30,16
2,2928532,-1424,494,-580,-160,-234,-93,132,-30,16
2,2928547,-1425,491,-576,-170,-243,-86,132,-30,16
2,2928563,-1428,497,-582,-165,-241,-84,130,-34,6
2,2928579,-1428,497,-582,-165,-241,-84,130,-34,6
2,2928594,-1427,495,-582,-160,-236,-86,130,-34,6
2,2928610,-1430,499,-582,-166,-235,-89,130,-34,6
2,2928624,-1428,497,-582,-166,-241,-96,130,-34,6
2,2928640,-1426,490,-579,-163,-233,-94,130,-34,6
2,2928654,-1426,490,-579,-163,-233,-94,130,-34,6
2,2928668,-1428,491,-579,-161,-240,-81,130,-34,6
2,2928678,-1428,491,-579,-161,-240,-81,130,-34,6
2,2928695,-1428,492,-580,-167,-231,-80,129,-27,13
2,2928708,-1426,495,-581,-161,-231,-83,129,-27,13
2,2928722,-1421,496,-579,-162,-240,-94,129,-27,13
2,2928735,-1421,496,-579,-162,-240,-94,129,-27,13
2,2928749,-1427,494,-579,-158,-234,-89,129,-27,13
2,2928765,-1425,495,-585,-162,-227,-83,129,-27,13
2,2928781,-1424,497,-584,-163,-236,-85,129,-27,13
2,2928796,-1424,497,-584,-163,-236,-85,129,-27,13
2,2928809,-1423,498,-578,-161,-235,-91,137,-29,17
2,2928824,-1424,497,-577,-161,-234,-90,137,-29,17
2,2928839,-1424,497,-577,-161,-234,-90,137,-29,17
2,2928855,-1426,494,-582,-154,-236,-88,137,-29,17
2,2928870,-1427,492,-580,-158,-235,-84,137,-29,17
2,2928881,-1425,492,-586,-163,-235,-80,137,-29,17
