imu,time,ax,ay,az,gx,gy,gz,mx,my,mz
0,1798422,2224,322,-393,-1033,-581,-336,172,56,-392
0,1798432,2224,325,-397,-1042,-580,-328,172,56,-392
0,1798441,2224,325,-397,-1042,-580,-328,172,56,-392
0,1798452,2225,325,-392,-1039,-579,-321,172,56,-392
0,1798465,2225,325,-392,-1039,-579,-321,172,56,-392
0,1798479,2227,325,-394,-1038,-576,-318,172,56,-392
0,1798495,2225,323,-391,-1033,-574,-323,172,56,-392
0,1798502,2225,323,-391,-1033,-574,-323,172,56,-392
0,1798510,2222,324,-385,-1036,-582,-326,162,56,-400
0,1798523,2222,324,-385,-1036,-582,-326,162,56,-400
0,1798538,2224,329,-387,-1042,-578,-326,162,56,-400
0,1798553,2220,326,-383,-1033,-568,-332,162,56,-400
0,1798568,2224,325,-389,-1037,-570,-329,162,56,-400
0,1798585,2224,325,-389,-1037,-570,-329,162,56,-400
0,1798597,2224,328,-396,-1024,-568,-334,162,56,-400
0,1798610,2224,329,-392,-1027,-562,-329,162,56,-400
0,1798624,2224,329,-392,-1027,-562,-329,162,56,-400
0,1798638,2227,324,-392,-1033,-572,-330,162,56,-400
0,1798651,2225,324,-397,-1029,-573,-331,172,62,-394
0,1798662,2225,324,-397,-1029,-573,-331,172,62,-394
0,1798673,2226,324,-392,-1035,-581,-331,172,62,-394
0,1798686,2225,325,-394,-1036,-573,-330,172,62,-394
0,1798701,2225,325,-394,-1036,-573,-330,172,62,-394
0,1798715,2222,327,-390,-1025,-577,-333,172,62,-394
0,1798731,2222,327,-390,-1025,-577,-333,172,62,-394
0,1798745,2222,327,-390,-1025,-577,-333,172,62,-394
0,1798760,2225,324,-391,-1038,-574,-333,172,62,-394
0,1798774,2225,324,-388,-1044,-574,-330,169,61,-393
0,1798789,2224,324,-392,-1029,-571,-325,169,61,-393
0,1798802,2224,324,-392,-1029,-571,-325,169,61,-393
0,1798812,2226,326,-395,-1036,-572,-333,169,61,-393
0,1798827,2223,326,-390,-1037,-576,-327,169,61,-393
0,1798841,2223,326,-390,-1037,-576,-327,169,61,-393
0,1798855,2227,326,-394,-1034,-568,-332,169,61,-393
0,1798868,2224,328,-392,-1044,-567,-333,169,61,-393
0,1798877,2224,328,-392,-1044,-567,-333,169,61,-393
0,1798891,2227,325,-396,-1037,-570,-326,169,61,-393
0,1798905,2227,325,-396,-1037,-570,-326,169,61,-393
0,1798919,2224,326,-389,-1039,-569,-323,181,67,-401
0,1798934,2228,325,-391,-1038,-570,-323,181,67,-401
0,1798945,2228,325,-391,-1038,-570,-323,181,67,-401
0,1798958,2227,328,-386,-1037,-576,-333,181,67,-401
0,1798973,2228,327,-395,-1038,-577,-323,181,67,-401
0,1798984,2228,327,-395,-1038,-577,-323,181,67,-401
0,1798992,2226,326,-391,-1032,-574,-328,181,67,-401
0,1799001,2226,326,-391,-1032,-574,-328,181,67,-401
0,1799009,2224,325,-392,-1031,-569,-327,181,67,-401
0,1799017,2224,325,-392,-1031,-569,-327,181,67,-401
0,1799026,2224,325,-392,-1031,-569,-327,181,67,-401
0,1799034,2226,327,-393,-1031,-565,-331,172,60,-384
0,1799043,2226,327,-393,-1031,-565,-331,172,60,-384
0,1799051,2224,324,-388,-1031,-574,-332,172,60,-384
0,1799058,2224,324,-388,-1031,-574,-332,172,60,-384
0,1799066,2224,324,-388,-1031,-574,-332,172,60,-384
0,1799074,2226,325,-385,-1042,-575,-332,172,60,-384
0,1799081,2226,325,-385,-1042,-575,-332,172,60,-384
0,1799088,2226,324,-395,-1035,-576,-330,172,60,-384
0,1799094,2226,324,-395,-1035,-576,-330,172,60,-384
0,1799100,2226,324,-395,-1035,-576,-330,172,60,-384
0,1799106,2226,324,-395,-1035,-576,-330,172,60,-384
0,1799112,2227,324,-387,-1036,-574,-329,172,60,-384
0,1799118,2227,324,-387,-1036,-574,-329,172,60,-384
0,1799124,2227,324,-387,-1036,-574,-329,172,60,-384
0,1799131,2227,324,-387,-1036,-574,-329,172,60,-384
0,1799136,2227,324,-387,-1036,-574,-329,172,60,-384
0,1799142,2227,324,-387,-1036,-574,-329,172,60,-384
0,1799147,2226,325,-391,-1036,-575,-330,174,52,-390
0,1799152,2226,325,-391,-1036,-575,-330,174,52,-390
0,1799157,2226,325,-391,-1036,-575,-330,174,52,-390
0,1799163,2226,325,-391,-1036,-575,-330,174,52,-390
0,1799170,2224,329,-393,-1036,-575,-330,174,52,-390
0,1799176,2224,329,-393,-1036,-575,-330,174,52,-390
0,1799182,2224,329,-393,-1036,-575,-330,174,52,-390
0,1799188,2228,324,-390,-1037,-576,-330,174,52,-390
0,1799194,2228,324,-390,-1037,-576,-330,174,52,-390
0,1799199,2228,324,-390,-1037,-576,-330,174,52,-390
0,1799209,2224,328,-392,-1032,-572,-329,174,52,-390
0,1799224,2224,328,-392,-1032,-572,-329,174,52,-390
0,1799236,2226,326,-395,-1046,-573,-329,174,52,-390
0,1799249,2226,326,-392,-1031,-565,-322,174,52,-390
0,1799261,2226,326,-392,-1031,-565,-322,174,52,-390
0,1799275,2223,323,-393,-1021,-566,-332,174,52,-390
0,1799288,2225,326,-383,-1038,-577,-333,172,60,-394
0,1799301,2225,326,-383,-1038,-577,-333,172,60,-394
0,1799314,2227,326,-387,-1042,-582,-331,172,60,-394
0,1799326,2224,324,-390,-1039,-575,-331,172,60,-394
0,1799334,2224,324,-390,-1039,-575,-331,172,60,-394
0,1799346,2224,324,-390,-1039,-575,-331,172,60,-394
0,1799359,2224,326,-391,-1033,-577,-330,172,60,-394
0,1799371,2226,323,-394,-1034,-579,-329,172,60,-394
0,1799379,2226,323,-394,-1034,-579,-329,172,60,-394
0,1799389,2224,326,-396,-1040,-578,-335,172,60,-394
0,1799396,2224,326,-396,-1040,-578,-335,172,60,-394
0,1799404,2224,326,-396,-1040,-578,-335,172,60,-394
0,1799412,2226,326,-389,-1035,-581,-328,166,60,-394
0,1799420,2226,326,-389,-1035,-581,-328,166,60,-394
0,1799428,2224,326,-387,-1032,-580,-332,166,60,-394
0,1799436,2224,326,-387,-1032,-580,-332,166,60,-394
0,1799443,2224,326,-387,-1032,-580,-332,166,60,-394
0,1799451,2226,326,-393,-1028,-578,-334,166,60,-394
0,1799458,2226,326,-393,-1028,-578,-334,166,60,-394
0,1799465,2226,326,-393,-1028,-578,-334,166,60,-394
0,1799474,2225,327,-395,-1032,-584,-327,166,60,-394
0,1799481,2225,327,-395,-1032,-584,-327,166,60,-394
0,1799490,2226,324,-396,-1032,-576,-335,166,60,-394
0,1799498,2226,324,-396,-1032,-576,-335,166,60,-394
0,1799505,2226,324,-396,-1032,-576,-335,166,60,-394
0,1799514,2226,325,-392,-1035,-574,-331,166,60,-394
0,1799522,2226,325,-392,-1035,-574,-331,166,60,-394
0,1799531,2223,327,-398,-1034,-567,-334,166,60,-394
0,1799538,2223,327,-398,-1034,-567,-334,166,60,-394
0,1799547,2225,326,-393,-1034,-569,-331,167,57,-385
0,1799556,2225,326,-393,-1034,-569,-331,167,57,-385
0,1799565,2225,326,-393,-1034,-569,-331,167,57,-385
0,1799577,2225,325,-390,-1027,-568,-326,167,57,-385
0,1799590,2224,324,-395,-1034,-572,-331,167,57,-385
0,1799606,2224,324,-395,-1034,-572,-331,167,57,-385
0,1799619,2223,324,-392,-1035,-577,-325,167,57,-385
0,1799631,2225,326,-389,-1029,-573,-328,167,57,-385
0,1799645,2225,326,-389,-1029,-573,-328,167,57,-385
0,1799661,2223,324,-391,-1025,-571,-332,167,57,-385
0,1799673,2222,328,-391,-1026,-575,-329,172,58,-388
0,1799683,2222,328,-391,-1026,-575,-329,172,58,-388
0,1799696,2222,326,-393,-1030,-576,-332,172,58,-388
0,1799711,2222,325,-390,-1043,-577,-328,172,58,-388
0,1799727,2222,325,-390,-1043,-577,-328,172,58,-388
0,1799742,2225,324,-393,-1041,-584,-328,172,58,-388
0,1799755,2224,327,-389,-1041,-578,-335,172,58,-388
0,1799770,2226,325,-393,-1029,-576,-333,172,58,-388
0,1799781,2226,325,-393,-1029,-576,-333,172,58,-388
0,1799795,2226,326,-387,-1033,-571,-332,173,55,-393
0,1799811,2224,326,-392,-1034,-573,-331,173,55,-393
0,1799824,2224,326,-392,-1034,-573,-331,173,55,-393
0,1799837,2227,328,-395,-1037,-577,-325,173,55,-393
0,1799848,2224,327,-390,-1038,-578,-324,173,55,-393
0,1799863,2224,327,-390,-1038,-578,-324,173,55,-393
0,1799878,2222,324,-391,-1043,-584,-328,173,55,-393
0,1799894,2226,325,-396,-1032,-573,-334,173,55,-393
0,1799909,2226,326,-393,-1036,-574,-326,173,55,-393
0,1799922,2226,326,-393,-1036,-574,-326,173,55,-393
0,1799936,2227,327,-396,-1041,-575,-328,163,53,-393
0,1799951,2225,324,-395,-1043,-576,-329,163,53,-393
0,1799966,2225,324,-395,-1043,-576,-329,163,53,-393
0,1799980,2225,324,-395,-1043,-579,-335,163,53,-393
0,1799994,2221,325,-390,-1036,-579,-328,163,53,-393
0,1800007,2225,323,-388,-1026,-575,-325,163,53,-393
0,1800023,2225,323,-388,-1026,-575,-325,163,53,-393
0,1800036,2221,327,-393,-1033,-571,-324,163,53,-393
0,1800050,2223,323,-388,-1034,-573,-324,167,51,-391
0,1800064,2223,323,-388,-1034,-573,-324,167,51,-391
0,1800080,2226,324,-393,-1034,-583,-326,167,51,-391
0,1800095,2225,326,-395,-1033,-576,-327,167,51,-391
0,1800111,2226,323,-393,-1039,-569,-328,167,51,-391
0,1800124,2226,323,-393,-1039,-569,-328,167,51,-391
0,1800137,2225,325,-395,-1030,-569,-322,167,51,-391
0,1800153,2225,326,-392,-1036,-575,-328,167,51,-391
0,1800167,2225,326,-392,-1036,-575,-328,167,51,-391
0,1800181,2222,326,-396,-1035,-580,-326,167,51,-391
0,1800195,2226,324,-392,-1033,-579,-325,170,60,-392
0,1800209,2224,321,-389,-1034,-571,-328,170,60,-392
0,1800223,2224,321,-389,-1034,-571,-328,170,60,-392
0,1800233,2226,325,-393,-1026,-575,-323,170,60,-392
0,1800247,2226,325,-393,-1026,-575,-323,170,60,-392
0,1800260,2224,328,-392,-1030,-574,-330,170,60,-392
0,1800274,2225,324,-390,-1029,-568,-329,170,60,-392
0,1800290,2224,327,-392,-1038,-573,-334,170,60,-392
0,1800305,2224,327,-392,-1038,-573,-334,170,60,-392
0,1800321,2226,325,-382,-1037,-576,-330,168,58,-394
0,1800334,2224,324,-389,-1036,-576,-326,168,58,-394
0,1800348,2228,326,-388,-1044,-583,-322,168,58,-394
0,1800364,2228,326,-388,-1044,-583,-322,168,58,-394
0,1800376,2225,325,-391,-1040,-576,-329,168,58,-394
0,1800387,2225,325,-391,-1040,-576,-329,168,58,-394
0,1800402,2226,326,-394,-1036,-575,-328,168,58,-394
0,1800416,2223,325,-398,-1034,-574,-330,168,58,-394
0,1800429,2224,327,-391,-1032,-577,-332,168,58,-394
0,1800443,2224,327,-391,-1032,-577,-332,168,58,-394
0,1800458,2225,326,-393,-1041,-572,-330,175,49,-385
0,1800470,2225,326,-391,-1042,-576,-330,175,49,-385
0,1800483,2225,326,-391,-1042,-576,-330,175,49,-385
0,1800497,2226,324,-396,-1038,-571,-326,175,49,-385
0,1800508,2224,324,-393,-1035,-576,-330,175,49,-385
0,1800522,2224,324,-393,-1035,-576,-330,175,49,-385
0,1800534,2224,326,-391,-1033,-575,-328,175,49,-385
0,1800549,2223,326,-395,-1027,-572,-328,175,49,-385
0,1800564,2223,326,-395,-1027,-572,-328,175,49,-385
0,1800578,2224,324,-387,-1028,-568,-321,165,57,-385
0,1800590,2226,326,-386,-1036,-572,-324,165,57,-385
0,1800601,2226,326,-386,-1036,-572,-324,165,57,-385
0,1800615,2226,324,-397,-1035,-577,-327,165,57,-385
0,1800624,2226,324,-397,-1035,-577,-327,165,57,-385
0,1800636,2225,324,-390,-1029,-574,-335,165,57,-385
0,1800650,2225,326,-396,-1033,-570,-325,165,57,-385
0,1800665,2225,326,-396,-1033,-570,-325,165,57,-385
0,1800678,2223,325,-394,-1048,-573,-319,165,57,-385
0,1800692,2224,324,-393,-1036,-576,-323,175,57,-401
0,1800705,2224,324,-393,-1036,-576,-323,175,57,-401
0,1800718,2223,328,-391,-1029,-574,-327,175,57,-401
0,1800732,2223,327,-395,-1028,-567,-327,175,57,-401
0,1800747,2223,327,-395,-1028,-567,-327,175,57,-401
0,1800761,2225,327,-389,-1031,-573,-327,175,57,-401
0,1800776,2224,323,-394,-1034,-570,-331,175,57,-401
0,1800792,2224,323,-391,-1037,-574,-335,175,57,-401
0,1800806,2224,323,-391,-1037,-574,-335,175,57,-401
0,1800821,2227,324,-390,-1043,-581,-326,175,57,-401
0,1800836,2225,323,-388,-1038,-581,-333,170,52,-396
0,1800850,2225,323,-396,-1035,-573,-327,170,52,-396
0,1800864,2225,323,-396,-1035,-573,-327,170,52,-396
0,1800880,2221,325,-388,-1039,-573,-327,170,52,-396
0,1800891,2224,325,-390,-1040,-577,-325,170,52,-396
0,1800903,2224,325,-390,-1040,-577,-325,170,52,-396
0,1800918,2226,329,-395,-1046,-578,-328,170,52,-396
0,1800932,2225,323,-393,-1035,-573,-328,170,52,-396
0,1800945,2225,323,-393,-1035,-573,-328,170,52,-396
0,1800961,2222,326,-390,-1024,-574,-332,168,64,-390
0,1800973,2226,328,-388,-1038,-569,-326,168,64,-390
0,1800985,2226,328,-388,-1038,-569,-326,168,64,-390
0,1801000,2225,326,-389,-1036,-570,-326,168,64,-390
0,1801016,2224,326,-387,-1031,-571,-330,168,64,-390
0,1801030,2226,325,-394,-1032,-568,-332,168,64,-390
0,1801043,2226,325,-394,-1032,-568,-332,168,64,-390
0,1801058,2223,326,-394,-1023,-574,-328,168,64,-390
0,1801073,2224,324,-396,-1028,-577,-324,168,64,-390
0,1801089,2224,324,-396,-1028,-577,-324,168,64,-390
0,1801102,2222,325,-393,-1028,-569,-332,169,51,-389
0,1801116,2223,326,-392,-1031,-577,-335,169,51,-389
0,1801129,2224,327,-395,-1031,-573,-325,169,51,-389
0,1801141,2224,327,-395,-1031,-573,-325,169,51,-389
0,1801154,2225,326,-395,-1031,-577,-327,169,51,-389
0,1801167,2225,326,-395,-1031,-577,-327,169,51,-389
0,1801182,2224,324,-397,-1029,-570,-334,169,51,-389
0,1801196,2226,323,-394,-1031,-572,-331,169,51,-389
0,1801209,2224,326,-393,-1029,-570,-329,173,59,-395
0,1801223,2224,326,-393,-1029,-570,-329,173,59,-395
0,1801237,2225,324,-391,-1036,-570,-332,173,59,-395
0,1801252,2223,324,-388,-1044,-572,-331,173,59,-395
0,1801268,2223,324,-388,-1044,-572,-331,173,59,-395
0,1801283,2222,326,-396,-1040,-574,-328,173,59,-395
0,1801297,2223,326,-390,-1022,-578,-320,173,59,-395
0,1801310,2223,322,-391,-1029,-578,-332,173,59,-395
0,1801325,2223,322,-391,-1029,-578,-332,173,59,-395
0,1801340,2223,327,-394,-1031,-577,-333,173,59,-395
0,1801354,2222,326,-397,-1036,-572,-332,169,55,-387
0,1801367,2222,326,-397,-1036,-572,-332,169,55,-387
0,1801381,2225,323,-392,-1035,-575,-329,169,55,-387
0,1801394,2227,324,-392,-1033,-578,-332,169,55,-387
0,1801410,2225,326,-393,-1035,-579,-331,169,55,-387
0,1801422,2225,326,-393,-1035,-579,-331,169,55,-387
0,1801436,2220,323,-392,-1031,-571,-328,169,55,-387
0,1801445,2220,323,-392,-1031,-571,-328,169,55,-387
0,1801457,2222,323,-388,-1036,-580,-330,169,55,-387
0,1801472,2225,326,-392,-1035,-574,-329,166,58,-386
0,1801487,2225,326,-392,-1035,-574,-329,166,58,-386
0,1801502,2225,326,-396,-1039,-569,-321,166,58,-386
0,1801518,2224,326,-390,-1037,-581,-330,166,58,-386
0,1801532,2223,323,-390,-1039,-576,-333,166,58,-386
0,1801544,2223,323,-390,-1039,-576,-333,166,58,-386
0,1801560,2227,327,-389,-1032,-570,-325,166,58,-386
0,1801575,2225,328,-395,-1032,-574,-329,166,58,-386
0,1801589,2225,328,-395,-1032,-574,-329,166,58,-386
0,1801603,2223,324,-392,-1034,-576,-322,173,59,-401
0,1801617,2226,327,-392,-1036,-572,-327,173,59,-401
0,1801628,2226,327,-392,-1036,-572,-327,173,59,-401
0,1801643,2225,324,-388,-1039,-583,-326,173,59,-401
0,1801656,2225,325,-390,-1040,-581,-324,173,59,-401
0,1801669,2225,325,-390,-1040,-581,-324,173,59,-401
0,1801683,2224,327,-390,-1032,-576,-323,173,59,-401
0,1801699,2225,326,-392,-1039,-580,-322,173,59,-401
0,1801714,2224,326,-393,-1046,-578,-328,173,59,-401
0,1801730,2224,326,-393,-1046,-578,-328,173,59,-401
0,1801745,2223,325,-391,-1039,-567,-335,174,60,-392
0,1801760,2226,325,-390,-1030,-577,-335,174,60,-392
0,1801776,2225,325,-394,-1041,-575,-327,174,60,-392
0,1801790,2225,322,-396,-1030,-571,-331,174,60,-392
0,1801803,2225,322,-396,-1030,-571,-331,174,60,-392
0,1801819,2228,324,-395,-1024,-570,-332,174,60,-392
0,1801833,2223,327,-396,-1025,-570,-325,174,60,-392
0,1801846,2223,327,-396,-1025,-570,-325,174,60,-392
0,1801858,2223,327,-393,-1028,-576,-325,166,64,-390
0,1801872,2225,325,-390,-1035,-577,-319,166,64,-390
0,1801883,2225,325,-390,-1035,-577,-319,166,64,-390
0,1801899,2224,324,-389,-1028,-575,-329,166,64,-390
0,1801911,2227,326,-394,-1035,-578,-325,166,64,-390
0,1801925,2227,326,-394,-1035,-578,-325,166,64,-390
0,1801940,2225,327,-394,-1037,-574,-328,166,64,-390
0,1801955,2222,324,-390,-1037,-582,-332,166,64,-390
0,1801970,2227,324,-398,-1039,-578,-330,166,64,-390
0,1801985,2227,324,-398,-1039,-578,-330,166,64,-390
0,1801997,2223,327,-387,-1034,-570,-326,172,54,-394
0,1802012,2224,324,-394,-1038,-574,-339,172,54,-394
0,1802028,2224,324,-394,-1038,-574,-339,172,54,-394
0,1802041,2223,327,-395,-1036,-576,-327,172,54,-394
0,1802055,2223,326,-391,-1037,-577,-329,172,54,-394
0,1802070,2223,326,-391,-1037,-577,-329,172,54,-394
0,1802084,2225,321,-390,-1038,-581,-327,172,54,-394
0,1802096,2224,323,-392,-1027,-570,-328,172,54,-394
0,1802108,2224,323,-392,-1027,-570,-328,172,54,-394
0,1802124,2224,327,-391,-1032,-575,-328,166,54,-388
0,1802138,2223,327,-390,-1034,-575,-326,166,54,-388
0,1802151,2222,324,-394,-1038,-581,-321,166,54,-388
0,1802167,2222,324,-394,-1038,-581,-321,166,54,-388
0,1802182,2225,325,-391,-1034,-576,-332,166,54,-388
0,1802196,2224,324,-396,-1030,-577,-331,166,54,-388
0,1802205,2224,324,-396,-1030,-577,-331,166,54,-388
0,1802216,2225,326,-397,-1028,-576,-328,166,54,-388
0,1802229,2225,326,-397,-1028,-576,-328,166,54,-388
0,1802243,2219,323,-394,-1032,-574,-326,166,54,-388
0,1802256,2225,323,-387,-1037,-577,-331,166,58,-398
0,1802269,2225,323,-387,-1037,-577,-331,166,58,-398
0,1802285,2225,323,-394,-1026,-576,-336,166,58,-398
0,1802300,2226,324,-391,-1046,-577,-331,166,58,-398
0,1802314,2225,327,-396,-1040,-570,-329,166,58,-398
0,1802327,2225,327,-396,-1040,-570,-329,166,58,-398
0,1802341,2224,327,-392,-1036,-578,-336,166,58,-398
0,1802354,2223,326,-392,-1045,-578,-337,166,58,-398
0,1802368,2223,326,-392,-1045,-578,-337,166,58,-398
0,1802384,2224,324,-393,-1037,-575,-332,167,59,-389
0,1802397,2224,324,-393,-1037,-575,-332,167,59,-389
0,1802413,2222,325,-392,-1034,-571,-321,167,59,-389
0,1802426,2222,325,-392,-1034,-571,-321,167,59,-389
0,1802440,2222,330,-391,-1038,-566,-323,167,59,-389
0,1802455,2222,326,-391,-1030,-572,-326,167,59,-389
0,1802467,2222,326,-391,-1030,-572,-326,167,59,-389
0,1802480,2222,326,-391,-1030,-572,-326,167,59,-389
0,1802493,2224,328,-392,-1038,-581,-328,170,60,-392
0,1802508,2224,328,-392,-1038,-581,-328,170,60,-392
0,1802521,2222,326,-387,-1032,-579,-330,170,60,-392
0,1802534,2227,324,-392,-1034,-573,-325,170,60,-392
0,1802547,2227,324,-392,-1034,-573,-325,170,60,-392
0,1802560,2224,324,-398,-1032,-576,-326,170,60,-392
0,1802573,2225,323,-393,-1029,-579,-322,170,60,-392
0,1802588,2225,323,-393,-1029,-579,-322,170,60,-392
0,1802603,2227,323,-393,-1033,-576,-332,170,60,-392
0,1802617,2226,325,-394,-1034,-577,-332,170,60,-392
0,1802630,2226,325,-394,-1034,-577,-332,170,60,-392
0,1802643,2228,323,-389,-1036,-574,-326,171,67,-393
0,1802655,2224,325,-385,-1040,-577,-328,171,67,-393
0,1802665,2224,325,-385,-1040,-577,-328,171,67,-393
0,1802681,2224,321,-390,-1041,-577,-327,171,67,-393
0,1802694,2225,328,-387,-1045,-578,-323,171,67,-393
0,1802707,2225,328,-387,-1045,-578,-323,171,67,-393
0,1802722,2226,326,-398,-1034,-579,-325,171,67,-393
0,1802735,2225,328,-393,-1036,-574,-325,171,67,-393
0,1802749,2225,328,-393,-1036,-574,-325,171,67,-393
0,1802762,2221,326,-392,-1030,-566,-333,176,56,-394
0,1802775,2224,326,-389,-1033,-576,-327,176,56,-394
0,1802788,2224,326,-389,-1033,-576,-327,176,56,-394
0,1802804,2223,323,-391,-1031,-577,-319,176,56,-394
0,1802817,2224,327,-389,-1035,-574,-324,176,56,-394
0,1802833,2226,325,-392,-1033,-569,-328,176,56,-394
0,1802848,2226,325,-392,-1033,-569,-328,176,56,-394
0,1802861,2226,327,-393,-1029,-570,-334,176,56,-394
0,1802875,2225,327,-391,-1036,-572,-326,176,56,-394
0,1802890,2225,327,-391,-1036,-572,-326,176,56,-394
0,1802903,2225,327,-389,-1036,-577,-330,169,57,-391
0,1802915,2224,328,-390,-1038,-580,-329,169,57,-391
0,1802929,2224,328,-390,-1038,-580,-329,169,57,-391
0,1802942,2223,325,-397,-1040,-572,-323,169,57,-391
0,1802956,2225,326,-392,-1036,-569,-325,169,57,-391
0,1802969,2225,326,-392,-1036,-569,-325,169,57,-391
0,1802980,2223,325,-393,-1025,-565,-328,169,57,-391
0,1802993,2219,327,-396,-1038,-575,-325,169,57,-391
0,1803006,2219,327,-396,-1038,-575,-325,169,57,-391
0,1803021,2224,326,-389,-1035,-571,-325,172,54,-394
0,1803036,2224,325,-395,-1034,-578,-326,172,54,-394
0,1803052,2223,325,-391,-1042,-573,-328,172,54,-394
0,1803066,2223,325,-391,-1042,-573,-328,172,54,-394
0,1803080,2226,324,-392,-1038,-575,-330,172,54,-394
0,1803095,2226,324,-392,-1038,-575,-330,172,54,-394
0,1803109,2226,324,-392,-1038,-575,-330,172,54,-394
0,1803124,2221,326,-395,-1033,-582,-330,172,54,-394
0,1803136,2224,325,-391,-1030,-576,-333,172,54,-394
0,1803149,2224,325,-391,-1030,-576,-333,172,54,-394
0,1803162,2223,326,-390,-1032,-576,-325,164,58,-392
0,1803175,2224,324,-392,-1035,-574,-326,164,58,-392
0,1803190,2224,324,-392,-1035,-574,-326,164,58,-392
0,1803202,2227,324,-394,-1032,-577,-336,164,58,-392
0,1803214,2223,325,-400,-1036,-582,-324,164,58,-392
0,1803228,2223,325,-400,-1036,-582,-324,164,58,-392
0,1803241,2223,326,-395,-1024,-571,-334,164,58,-392
0,1803256,2222,323,-395,-1029,-570,-334,164,58,-392
0,1803267,2222,323,-395,-1029,-570,-334,164,58,-392
0,1803278,2224,325,-389,-1034,-574,-331,173,55,-389
0,1803291,2225,324,-386,-1029,-574,-326,173,55,-389
0,1803307,2225,324,-386,-1029,-574,-326,173,55,-389
0,1803321,2226,326,-392,-1031,-575,-328,173,55,-389
0,1803336,2223,326,-393,-1035,-576,-328,173,55,-389
0,1803352,2225,322,-391,-1033,-568,-328,173,55,-389
0,1803365,2225,322,-391,-1033,-568,-328,173,55,-389
0,1803379,2225,324,-393,-1033,-574,-332,173,55,-389
0,1803393,2224,324,-393,-1039,-578,-330,166,58,-392
0,1803405,2224,324,-393,-1039,-578,-330,166,58,-392
0,1803418,2223,324,-391,-1030,-579,-328,166,58,-392
0,1803431,2223,324,-391,-1030,-579,-328,166,58,-392
0,1803445,2220,325,-392,-1035,-585,-333,166,58,-392
0,1803459,2227,328,-391,-1045,-574,-332,166,58,-392
0,1803473,2224,328,-387,-1044,-576,-323,166,58,-392
0,1803486,2224,328,-387,-1044,-576,-323,166,58,-392
0,1803499,2225,324,-394,-1030,-566,-339,166,58,-392
0,1803512,2223,324,-392,-1036,-574,-335,166,58,-392
0,1803527,2223,324,-392,-1036,-574,-335,166,58,-392
0,1803541,2223,325,-384,-1034,-581,-325,173,57,-393
0,1803555,2230,323,-392,-1033,-576,-330,173,57,-393
0,1803571,2230,323,-392,-1033,-576,-330,173,57,-393
0,1803584,2225,325,-386,-1026,-582,-333,173,57,-393
0,1803598,2227,323,-387,-1033,-573,-332,173,57,-393
0,1803614,2225,326,-390,-1038,-570,-336,173,57,-393
0,1803629,2225,326,-390,-1038,-570,-336,173,57,-393
0,1803641,2226,324,-397,-1037,-569,-329,173,57,-393
0,1803655,2223,325,-388,-1031,-569,-327,169,59,-399
0,1803670,2223,325,-388,-1031,-569,-327,169,59,-399
0,1803683,2225,326,-393,-1031,-578,-329,169,59,-399
0,1803697,2227,324,-391,-1034,-582,-327,169,59,-399
0,1803710,2227,324,-391,-1034,-582,-327,169,59,-399
0,1803725,2225,325,-386,-1043,-577,-327,169,59,-399
0,1803739,2224,326,-390,-1039,-577,-330,169,59,-399
0,1803751,2224,326,-390,-1039,-577,-330,169,59,-399
0,1803765,2222,326,-396,-1039,-576,-336,169,59,-399
0,1803783,2224,327,-390,-1030,-575,-333,169,59,-399
0,1803798,2223,327,-384,-1032,-578,-332,168,58,-388
0,1803812,2226,325,-394,-1033,-578,-322,168,58,-388
0,1803827,2226,325,-394,-1033,-578,-322,168,58,-388
0,1803840,2224,325,-391,-1032,-570,-327,168,58,-388
0,1803855,2220,328,-394,-1046,-577,-324,168,58,-388
0,1803871,2220,328,-394,-1046,-577,-324,168,58,-388
0,1803884,2226,326,-390,-1039,-578,-321,168,58,-388
0,1803897,2226,327,-399,-1042,-582,-323,168,58,-388
0,1803911,2226,327,-399,-1042,-582,-323,168,58,-388
0,1803920,2224,324,-389,-1040,-582,-330,171,61,-391
0,1803933,2226,323,-386,-1036,-571,-326,171,61,-391
0,1803947,2226,323,-386,-1036,-571,-326,171,61,-391
0,1803961,2223,322,-387,-1030,-572,-326,171,61,-391
0,1803971,2223,322,-387,-1030,-572,-326,171,61,-391
0,1803984,2222,324,-394,-1047,-572,-325,171,61,-391
0,1803999,2222,324,-394,-1047,-572,-325,171,61,-391
0,1804012,2222,324,-394,-1047,-572,-325,171,61,-391
0,1804026,2222,327,-396,-1033,-574,-329,171,61,-391
0,1804042,2225,327,-391,-1034,-578,-329,162,58,-396
0,1804058,2226,325,-384,-1040,-578,-327,162,58,-396
0,1804073,2228,325,-394,-1033,-578,-323,162,58,-396
0,1804089,2228,325,-394,-1033,-578,-323,162,58,-396
0,1804102,2225,326,-386,-1033,-572,-326,162,58,-396
0,1804116,2221,327,-393,-1033,-575,-331,162,58,-396
0,1804131,2221,327,-393,-1033,-575,-331,162,58,-396
0,1804144,2227,327,-394,-1035,-574,-335,162,58,-396
0,1804157,2222,328,-392,-1038,-569,-334,162,58,-396
0,1804174,2224,325,-389,-1044,-569,-328,173,59,-403
0,1804186,2224,325,-389,-1044,-569,-328,173,59,-403
0,1804200,2223,324,-388,-1043,-571,-328,173,59,-403
0,1804215,2225,325,-389,-1028,-580,-333,173,59,-403
0,1804229,2225,325,-389,-1028,-580,-333,173,59,-403
0,1804244,2222,327,-392,-1034,-574,-333,173,59,-403
0,1804258,2227,324,-391,-1032,-577,-330,173,59,-403
0,1804272,2227,324,-391,-1032,-577,-330,173,59,-403
0,1804286,2223,327,-389,-1026,-569,-333,173,59,-403
0,1804300,2224,328,-390,-1033,-569,-338,163,63,-399
0,1804315,2225,323,-391,-1038,-579,-335,163,63,-399
0,1804326,2225,323,-391,-1038,-579,-335,163,63,-399
0,1804340,2224,327,-392,-1030,-572,-332,163,63,-399
0,1804354,2225,324,-396,-1041,-569,-341,163,63,-399
0,1804367,2225,324,-396,-1041,-569,-341,163,63,-399
0,1804382,2223,327,-398,-1036,-574,-327,163,63,-399
0,1804394,2225,327,-393,-1041,-581,-320,163,63,-399
0,1804409,2225,327,-393,-1041,-581,-320,163,63,-399
0,1804423,2223,324,-396,-1042,-579,-326,163,63,-399
0,1804437,2224,326,-391,-1035,-573,-327,164,58,-390
0,1804452,2224,326,-391,-1035,-573,-327,164,58,-390
0,1804467,2221,327,-383,-1034,-579,-327,164,58,-390
0,1804481,2225,325,-388,-1031,-574,-323,164,58,-390
0,1804495,2223,323,-394,-1027,-576,-329,164,58,-390
0,1804507,2223,323,-394,-1027,-576,-329,164,58,-390
0,1804521,2223,322,-390,-1026,-579,-325,164,58,-390
0,1804535,2219,324,-398,-1035,-579,-327,164,58,-390
0,1804551,2219,324,-398,-1035,-579,-327,164,58,-390
0,1804565,2223,326,-389,-1040,-573,-336,169,59,-387
0,1804577,2224,325,-381,-1029,-573,-330,169,59,-387
0,1804591,2224,325,-381,-1029,-573,-330,169,59,-387
0,1804605,2226,324,-391,-1033,-573,-330,169,59,-387
0,1804618,2229,326,-388,-1033,-579,-332,169,59,-387
0,1804633,2229,326,-388,-1033,-579,-332,169,59,-387
0,1804647,2225,324,-391,-1028,-578,-334,169,59,-387
0,1804659,2225,324,-394,-1031,-577,-328,169,59,-387
0,1804672,2225,324,-394,-1031,-577,-328,169,59,-387
0,1804686,2223,321,-394,-1036,-576,-329,169,59,-387
0,1804701,2223,324,-390,-1034,-577,-329,167,57,-387
0,1804715,2224,326,-388,-1030,-579,-324,167,57,-387
0,1804730,2224,326,-388,-1030,-579,-324,167,57,-387
0,1804745,2225,325,-391,-1024,-573,-324,167,57,-387
0,1804759,2222,326,-388,-1033,-572,-326,167,57,-387
0,1804773,2222,326,-388,-1033,-572,-326,167,57,-387
0,1804783,2224,325,-393,-1043,-571,-324,167,57,-387
0,1804795,2229,328,-392,-1036,-580,-326,167,57,-387
0,1804811,2229,328,-392,-1036,-580,-326,167,57,-387
0,1804826,2226,325,-388,-1034,-573,-327,165,61,-395
0,1804839,2222,328,-389,-1035,-572,-326,165,61,-395
0,1804854,2224,324,-389,-1038,-575,-318,165,61,-395
0,1804867,2224,324,-389,-1038,-575,-318,165,61,-395
0,1804880,2225,328,-389,-1034,-573,-320,165,61,-395
0,1804894,2225,329,-395,-1032,-569,-330,165,61,-395
0,1804908,2225,329,-395,-1032,-569,-330,165,61,-395
0,1804921,2226,326,-397,-1037,-571,-330,165,61,-395
0,1804935,2223,327,-392,-1031,-572,-323,172,50,-392
0,1804948,2223,327,-392,-1031,-572,-323,172,50,-392
0,1804961,2225,322,-387,-1033,-575,-331,172,50,-392
0,1804975,2224,325,-390,-1034,-578,-329,172,50,-392
0,1804989,2224,325,-390,-1034,-578,-329,172,50,-392
0,1805003,2226,322,-389,-1034,-576,-328,172,50,-392
0,1805017,2226,326,-392,-1039,-575,-323,172,50,-392
0,1805029,2226,326,-392,-1039,-575,-323,172,50,-392
0,1805044,2224,326,-395,-1034,-573,-329,172,50,-392
0,1805058,2226,324,-390,-1032,-570,-329,172,50,-392
0,1805071,2226,324,-390,-1032,-570,-329,172,50,-392
0,1805081,2223,327,-389,-1043,-576,-331,167,55,-391
0,1805094,2224,325,-387,-1033,-572,-334,167,55,-391
0,1805110,2224,325,-387,-1033,-572,-334,167,55,-391
0,1805124,2226,325,-395,-1035,-576,-338,167,55,-391
0,1805138,2221,324,-395,-1034,-577,-336,167,55,-391
0,1805152,2221,324,-395,-1034,-577,-336,167,55,-391
0,1805166,2224,327,-397,-1034,-576,-326,167,55,-391
0,1805179,2223,329,-393,-1035,-575,-329,167,55,-391
0,1805192,2223,329,-393,-1035,-575,-329,167,55,-391
0,1805207,2221,324,-387,-1033,-580,-327,164,60,-390
0,1805220,2223,326,-388,-1037,-571,-326,164,60,-390
0,1805235,2226,326,-392,-1031,-577,-330,164,60,-390
0,1805250,2226,326,-392,-1031,-577,-330,164,60,-390
0,1805265,2226,328,-391,-1033,-575,-328,164,60,-390
0,1805281,2229,328,-395,-1035,-577,-331,164,60,-390
0,1805297,2225,326,-393,-1035,-579,-322,164,60,-390
0,1805312,2225,326,-393,-1035,-579,-322,164,60,-390
0,1805326,2224,324,-394,-1040,-574,-327,164,60,-390
0,1805340,2224,324,-394,-1040,-574,-327,171,57,-395
0,1805353,2224,324,-394,-1040,-574,-327,171,57,-395
0,1805365,2224,325,-386,-1040,-578,-329,171,57,-395
0,1805377,2226,327,-383,-1033,-583,-332,171,57,-395
0,1805391,2226,327,-383,-1033,-583,-332,171,57,-395
0,1805405,2223,324,-397,-1029,-571,-322,171,57,-395
0,1805419,2226,325,-391,-1030,-567,-335,171,57,-395
0,1805431,2226,325,-391,-1030,-567,-335,171,57,-395
0,1805444,2225,327,-394,-1033,-582,-325,171,57,-395
0,1805457,2223,325,-393,-1035,-580,-324,169,63,-393
0,1805469,2223,325,-393,-1035,-580,-324,169,63,-393
0,1805485,2226,326,-385,-1035,-576,-323,169,63,-393
0,1805500,2225,326,-397,-1039,-565,-326,169,63,-393
0,1805514,2222,327,-389,-1030,-574,-328,169,63,-393
0,1805527,2222,327,-389,-1030,-574,-328,169,63,-393
0,1805542,2223,326,-392,-1040,-575,-332,169,63,-393
0,1805555,2225,324,-391,-1033,-564,-334,169,63,-393
0,1805570,2225,324,-391,-1033,-564,-334,169,63,-393
0,1805583,2224,326,-397,-1042,-574,-328,169,63,-393
0,1805597,2226,323,-394,-1039,-574,-329,169,63,-387
0,1805613,2226,323,-394,-1039,-574,-329,169,63,-387
0,1805627,2227,325,-394,-1035,-568,-324,169,63,-387
0,1805641,2221,322,-390,-1036,-573,-326,169,63,-387
0,1805655,2227,324,-390,-1032,-574,-322,169,63,-387
0,1805668,2227,324,-390,-1032,-574,-322,169,63,-387
0,1805680,2224,325,-388,-1033,-576,-333,169,63,-387
0,1805693,2224,325,-388,-1033,-576,-333,169,63,-387
0,1805708,2226,325,-386,-1038,-581,-331,169,63,-387
0,1805721,2225,325,-391,-1030,-573,-332,161,57,-399
0,1805735,2225,323,-391,-1026,-573,-334,161,57,-399
0,1805749,2225,323,-391,-1026,-573,-334,161,57,-399
0,1805762,2224,326,-391,-1030,-579,-326,161,57,-399
0,1805776,2223,322,-391,-1024,-571,-325,161,57,-399
0,1805792,2223,322,-391,-1024,-571,-325,161,57,-399
0,1805807,2224,322,-395,-1036,-571,-329,161,57,-399
0,1805819,2227,324,-396,-1036,-573,-324,161,57,-399
0,1805834,2227,324,-396,-1036,-573,-324,161,57,-399
0,1805849,2223,326,-396,-1038,-576,-329,168,54,-388
0,1805863,2225,325,-390,-1037,-578,-329,168,54,-388
0,1805877,2221,328,-392,-1036,-574,-324,168,54,-388
0,1805891,2221,328,-392,-1036,-574,-324,168,54,-388
0,1805903,2224,324,-394,-1033,-570,-331,168,54,-388
0,1805917,2226,324,-390,-1039,-574,-330,168,54,-388
0,1805931,2226,324,-390,-1039,-574,-330,168,54,-388
0,1805944,2224,322,-390,-1040,-577,-328,168,54,-388
0,1805959,2225,328,-390,-1043,-574,-329,168,54,-388
0,1805973,2225,328,-390,-1043,-574,-329,168,54,-388
0,1805987,2224,326,-396,-1033,-574,-327,172,68,-398
0,1806002,2224,325,-387,-1035,-577,-325,172,68,-398
0,1806017,2223,323,-391,-1031,-577,-328,172,68,-398
0,1806031,2223,323,-391,-1031,-577,-328,172,68,-398
0,1806046,2225,325,-392,-1033,-573,-329,172,68,-398
0,1806060,2225,326,-391,-1042,-575,-337,172,68,-398
0,1806074,2225,326,-391,-1042,-575,-337,172,68,-398
0,1806088,2224,328,-394,-1032,-572,-331,172,68,-398
0,1806100,2225,325,-396,-1032,-579,-323,159,51,-399
0,1806113,2225,325,-396,-1032,-579,-323,159,51,-399
0,1806127,2227,323,-386,-1037,-576,-330,159,51,-399
0,1806140,2223,326,-390,-1027,-578,-328,159,51,-399
0,1806151,2223,326,-390,-1027,-578,-328,159,51,-399
0,1806163,2224,324,-392,-1030,-573,-326,159,51,-399
0,1806177,2224,328,-390,-1031,-578,-327,159,51,-399
0,1806191,2224,328,-390,-1031,-578,-327,159,51,-399
0,1806205,2224,328,-387,-1031,-571,-331,159,51,-399
0,1806218,2225,327,-394,-1040,-571,-330,159,51,-399
0,1806230,2225,327,-394,-1040,-571,-330,159,51,-399
0,1806245,2222,327,-384,-1037,-577,-331,171,57,-391
0,1806261,2224,323,-392,-1041,-568,-331,171,57,-391
0,1806276,2220,327,-395,-1045,-576,-338,171,57,-391
0,1806286,2220,327,-395,-1045,-576,-338,171,57,-391
0,1806300,2224,326,-394,-1041,-573,-334,171,57,-391
0,1806314,2224,326,-394,-1041,-573,-334,171,57,-391
0,1806328,2224,326,-384,-1040,-572,-328,171,57,-391
0,1806343,2220,328,-391,-1045,-575,-336,171,57,-391
0,1806356,2227,325,-393,-1044,-580,-338,171,57,-395
0,1806369,2227,325,-393,-1044,-580,-338,171,57,-395
0,1806383,2224,327,-390,-1039,-576,-335,171,57,-395
0,1806396,2225,329,-394,-1034,-576,-329,171,57,-395
0,1806410,2225,329,-394,-1034,-576,-329,171,57,-395
0,1806425,2224,325,-396,-1035,-574,-327,171,57,-395
0,1806440,2222,320,-386,-1044,-583,-327,171,57,-395
0,1806455,2222,320,-386,-1044,-583,-327,171,57,-395
0,1806471,2225,324,-391,-1038,-577,-326,171,57,-395
0,1806487,2227,324,-394,-1035,-575,-331,171,57,-395
0,1806501,2224,326,-386,-1034,-578,-335,162,52,-384
0,1806516,2226,325,-396,-1037,-577,-332,162,52,-384
0,1806530,2226,325,-396,-1037,-577,-332,162,52,-384
0,1806545,2226,324,-392,-1035,-572,-329,162,52,-384
0,1806559,2227,329,-393,-1031,-578,-334,162,52,-384
0,1806571,2227,329,-393,-1031,-578,-334,162,52,-384
0,1806584,2224,327,-394,-1031,-574,-334,162,52,-384
0,1806598,2224,327,-394,-1031,-574,-334,162,52,-384
0,1806612,2224,327,-394,-1031,-574,-334,162,52,-384
0,1806626,2226,324,-398,-1032,-577,-332,163,55,-383
0,1806641,2227,326,-390,-1040,-581,-330,163,55,-383
0,1806653,2227,326,-390,-1040,-581,-330,163,55,-383
0,1806665,2227,324,-396,-1038,-574,-335,163,55,-383
0,1806681,2223,326,-391,-1033,-574,-338,163,55,-383
0,1806694,2223,326,-391,-1033,-574,-338,163,55,-383
0,1806709,2224,328,-394,-1036,-571,-338,163,55,-383
0,1806725,2224,324,-400,-1042,-577,-327,163,55,-383
0,1806739,2223,323,-395,-1033,-565,-329,172,60,-396
0,1806754,2223,323,-395,-1033,-565,-329,172,60,-396
0,1806769,2228,325,-389,-1031,-571,-326,172,60,-396
0,1806783,2224,325,-394,-1033,-578,-324,172,60,-396
0,1806797,2224,327,-391,-1032,-573,-333,172,60,-396
0,1806811,2224,327,-391,-1032,-573,-333,172,60,-396
0,1806823,2226,322,-394,-1039,-580,-330,172,60,-396
0,1806835,2226,322,-394,-1039,-580,-330,172,60,-396
0,1806849,2224,326,-390,-1037,-574,-331,172,60,-396
0,1806863,2224,326,-390,-1037,-574,-331,172,60,-396
0,1806877,2223,328,-382,-1034,-574,-329,163,51,-397
0,1806891,2223,328,-382,-1034,-574,-329,163,51,-397
0,1806903,2226,322,-391,-1029,-578,-329,163,51,-397
0,1806916,2223,326,-391,-1032,-577,-331,163,51,-397
0,1806929,2223,326,-391,-1032,-577,-331,163,51,-397
0,1806944,2226,322,-389,-1028,-571,-322,163,51,-397
0,1806959,2222,325,-395,-1030,-573,-331,163,51,-397
0,1806967,2222,325,-395,-1030,-573,-331,163,51,-397
0,1806982,2226,323,-388,-1036,-577,-331,163,51,-397
0,1806997,2225,325,-392,-1032,-577,-323,164,60,-394
0,1807011,2225,325,-392,-1032,-577,-323,164,60,-394
0,1807025,2223,328,-395,-1034,-577,-323,164,60,-394
0,1807040,2223,325,-390,-1044,-582,-330,164,60,-394
0,1807055,2223,325,-390,-1044,-582,-330,164,60,-394
0,1807070,2226,326,-394,-1039,-578,-331,164,60,-394
0,1807078,2226,327,-392,-1042,-574,-329,164,60,-394
0,1807089,2226,327,-392,-1042,-574,-329,164,60,-394
0,1807104,2223,326,-393,-1042,-579,-331,164,60,-394
0,1807118,2224,324,-392,-1032,-578,-329,164,60,-394
0,1807131,2224,324,-392,-1032,-578,-329,164,60,-394
0,1807145,2223,325,-386,-1042,-580,-320,166,64,-396
0,1807160,2225,324,-387,-1041,-572,-326,166,64,-396
0,1807174,2225,324,-387,-1041,-572,-326,166,64,-396
0,1807185,2223,324,-396,-1033,-572,-332,166,64,-396
0,1807199,2227,326,-396,-1034,-582,-324,166,64,-396
0,1807213,2227,326,-396,-1034,-582,-324,166,64,-396
0,1807227,2225,324,-389,-1039,-578,-328,166,64,-396
0,1807243,2226,321,-396,-1043,-575,-325,166,64,-396
0,1807258,2231,326,-390,-1043,-578,-326,168,56,-396
0,1807273,2231,326,-390,-1043,-578,-326,168,56,-396
0,1807289,2223,327,-395,-1040,-573,-324,168,56,-396
0,1807302,2224,325,-396,-1042,-572,-330,168,56,-396
0,1807315,2224,325,-396,-1042,-572,-330,168,56,-396
0,1807330,2223,325,-397,-1032,-580,-329,168,56,-396
0,1807341,2223,327,-397,-1026,-577,-332,168,56,-396
0,1807355,2223,327,-397,-1026,-577,-332,168,56,-396
0,1807370,2224,327,-389,-1029,-577,-330,168,56,-396
0,1807383,2223,326,-392,-1039,-582,-331,168,56,-396
0,1807397,2223,324,-385,-1033,-576,-331,170,54,-392
0,1807412,2223,324,-385,-1033,-576,-331,170,54,-392
0,1807427,2225,326,-390,-1029,-569,-333,170,54,-392
0,1807442,2227,325,-393,-1038,-571,-338,170,54,-392
0,1807454,2227,325,-393,-1038,-571,-338,170,54,-392
0,1807468,2224,325,-391,-1024,-571,-333,170,54,-392
0,1807481,2223,325,-392,-1033,-570,-332,170,54,-392
0,1807496,2223,325,-392,-1033,-570,-332,170,54,-392
0,1807509,2227,328,-397,-1038,-569,-341,170,54,-392
0,1807524,2225,327,-389,-1032,-572,-332,177,61,-387
0,1807540,2224,325,-396,-1039,-570,-324,177,61,-387
0,1807554,2224,325,-396,-1039,-570,-324,177,61,-387
0,1807567,2223,324,-387,-1032,-580,-331,177,61,-387
0,1807582,2224,322,-391,-1042,-577,-330,177,61,-387
0,1807595,2224,322,-391,-1042,-577,-330,177,61,-387
0,1807607,2226,324,-391,-1037,-573,-328,177,61,-387
0,1807621,2226,324,-391,-1037,-573,-328,177,61,-387
0,1807636,2226,324,-391,-1037,-573,-328,177,61,-387
0,1807649,2224,325,-397,-1036,-579,-336,165,53,-399
0,1807664,2225,324,-392,-1035,-576,-328,165,53,-399
0,1807676,2225,324,-392,-1035,-576,-328,165,53,-399
0,1807690,2224,322,-394,-1037,-582,-325,165,53,-399
0,1807704,2223,324,-392,-1035,-580,-328,165,53,-399
0,1807718,2226,325,-396,-1040,-572,-320,165,53,-399
0,1807733,2226,325,-396,-1040,-572,-320,165,53,-399
0,1807746,2226,327,-391,-1031,-570,-329,165,53,-399
0,1807759,2224,323,-392,-1036,-573,-324,165,53,-399
0,1807773,2224,323,-392,-1036,-573,-324,165,53,-399
0,1807788,2224,326,-392,-1029,-570,-328,168,58,-392
0,1807798,2228,326,-392,-1029,-578,-331,168,58,-392
0,1807808,2228,326,-392,-1029,-578,-331,168,58,-392
0,1807822,2224,325,-393,-1035,-577,-331,168,58,-392
0,1807836,2224,325,-393,-1035,-577,-331,168,58,-392
0,1807850,2222,326,-391,-1038,-575,-328,168,58,-392
0,1807864,2222,326,-393,-1034,-577,-327,168,58,-392
0,1807875,2222,326,-393,-1034,-577,-327,168,58,-392
0,1807889,2224,327,-400,-1033,-578,-331,168,58,-392
0,1807903,2226,324,-393,-1039,-572,-335,174,58,-390
0,1807918,2226,326,-393,-1027,-570,-327,174,58,-390
0,1807930,2226,326,-393,-1027,-570,-327,174,58,-390
0,1807945,2222,321,-394,-1032,-576,-325,174,58,-390
0,1807960,2226,325,-392,-1037,-568,-330,174,58,-390
0,1807974,2226,325,-392,-1037,-568,-330,174,58,-390
0,1807989,2228,325,-394,-1027,-568,-326,174,58,-390
0,1808004,2227,324,-390,-1035,-576,-331,174,58,-390
0,1808018,2225,324,-395,-1033,-576,-334,174,58,-390
0,1808031,2225,324,-395,-1033,-576,-334,174,58,-390
0,1808047,2223,326,-386,-1035,-574,-339,176,60,-390
0,1808058,2221,325,-390,-1033,-573,-339,176,60,-390
0,1808072,2221,325,-390,-1033,-573,-339,176,60,-390
0,1808087,2227,327,-392,-1036,-571,-330,176,60,-390
0,1808101,2224,325,-392,-1033,-577,-326,176,60,-390
0,1808115,2224,325,-392,-1033,-577,-326,176,60,-390
0,1808129,2226,327,-395,-1039,-574,-331,176,60,-390
0,1808143,2223,327,-397,-1036,-575,-337,176,60,-390
0,1808156,2223,327,-397,-1036,-575,-337,176,60,-390
0,1808172,2223,326,-402,-1032,-581,-334,170,48,-398
0,1808186,2228,325,-389,-1040,-577,-319,170,48,-398
0,1808199,2224,325,-392,-1046,-569,-324,170,48,-398
0,1808210,2224,325,-392,-1046,-569,-324,170,48,-398
0,1808225,2225,325,-391,-1036,-574,-323,170,48,-398
0,1808239,2224,324,-388,-1040,-581,-327,170,48,-398
0,1808252,2224,324,-388,-1040,-581,-327,170,48,-398
0,1808267,2225,326,-393,-1036,-582,-326,170,48,-398
0,1808280,2223,323,-394,-1036,-573,-327,175,51,-391
0,1808292,2223,323,-394,-1036,-573,-327,175,51,-391
0,1808306,2227,326,-390,-1040,-575,-332,175,51,-391
0,1808319,2225,323,-393,-1036,-577,-327,175,51,-391
0,1808334,2225,323,-393,-1036,-577,-327,175,51,-391
0,1808344,2225,324,-393,-1028,-577,-324,175,51,-391
0,1808358,2225,324,-389,-1032,-572,-323,175,51,-391
0,1808373,2225,324,-389,-1032,-572,-323,175,51,-391
0,1808387,2223,324,-396,-1037,-571,-331,175,51,-391
0,1808401,2224,325,-392,-1035,-578,-325,175,51,-391
0,1808416,2224,325,-392,-1035,-578,-325,175,51,-391
0,1808429,2225,326,-386,-1031,-571,-331,170,58,-394
0,1808442,2227,325,-389,-1031,-569,-319,170,58,-394
0,1808457,2227,325,-389,-1031,-569,-319,170,58,-394
0,1808474,2221,326,-393,-1031,-573,-325,170,58,-394
0,1808489,2224,325,-390,-1037,-573,-328,170,58,-394
0,1808504,2227,324,-392,-1038,-572,-336,170,58,-394
0,1808518,2227,324,-392,-1038,-572,-336,170,58,-394
0,1808530,2227,326,-397,-1037,-576,-329,170,58,-394
0,1808544,2224,325,-391,-1033,-576,-329,166,58,-394
0,1808559,2226,322,-390,-1039,-570,-341,166,58,-394
0,1808573,2226,322,-390,-1039,-570,-341,166,58,-394
0,1808590,2226,327,-389,-1032,-578,-335,166,58,-394
0,1808604,2226,330,-388,-1034,-571,-336,166,58,-394
0,1808615,2226,330,-388,-1034,-571,-336,166,58,-394
0,1808627,2223,326,-393,-1041,-571,-329,166,58,-394
0,1808642,2223,326,-389,-1047,-576,-334,166,58,-394
0,1808658,2223,326,-389,-1047,-576,-334,166,58,-394
0,1808672,2225,328,-396,-1036,-584,-330,166,58,-394
0,1808686,2224,328,-388,-1035,-579,-334,169,55,-391
0,1808701,2226,324,-388,-1037,-577,-337,169,55,-391
0,1808715,2226,324,-388,-1037,-577,-337,169,55,-391
0,1808731,2225,326,-395,-1038,-574,-336,169,55,-391
0,1808745,2226,325,-394,-1035,-573,-336,169,55,-391
0,1808759,2222,324,-392,-1039,-578,-327,169,55,-391
0,1808766,2222,324,-392,-1039,-578,-327,169,55,-391
0,1808780,2222,324,-397,-1041,-574,-327,169,55,-391
0,1808793,2222,324,-397,-1041,-574,-327,169,55,-391
0,1808807,2225,325,-396,-1037,-576,-328,166,58,-392
0,1808822,2223,325,-391,-1030,-571,-333,166,58,-392
0,1808836,2223,325,-391,-1030,-571,-333,166,58,-392
0,1808848,2223,326,-386,-1034,-576,-323,166,58,-392
0,1808862,2224,326,-390,-1038,-580,-334,166,58,-392
0,1808877,2224,326,-390,-1038,-580,-334,166,58,-392
0,1808891,2227,325,-395,-1027,-574,-328,166,58,-392
0,1808907,2224,326,-394,-1038,-573,-328,166,58,-392
0,1808921,2224,326,-395,-1039,-580,-328,166,58,-392
0,1808935,2224,326,-395,-1039,-580,-328,166,58,-392
0,1808951,2223,325,-389,-1033,-576,-330,166,54,-388
0,1808966,2225,324,-386,-1035,-578,-335,166,54,-388
0,1808982,2225,325,-390,-1038,-570,-334,166,54,-388
0,1808996,2225,325,-390,-1038,-570,-334,166,54,-388
0,1809010,2224,328,-393,-1040,-572,-334,166,54,-388
0,1809025,2227,325,-393,-1041,-580,-333,166,54,-388
0,1809039,2225,327,-401,-1035,-580,-323,166,54,-388
0,1809053,2225,327,-401,-1035,-580,-323,166,54,-388
0,1809065,2225,325,-390,-1033,-573,-329,172,58,-392
0,1809078,2225,325,-390,-1033,-573,-329,172,58,-392
0,1809092,2224,325,-389,-1036,-570,-332,172,58,-392
0,1809106,2224,327,-394,-1031,-582,-325,172,58,-392
0,1809121,2226,325,-391,-1047,-579,-334,172,58,-392
0,1809135,2226,325,-391,-1047,-579,-334,172,58,-392
0,1809148,2223,324,-391,-1042,-578,-335,172,58,-392
0,1809162,2224,327,-389,-1040,-579,-330,172,58,-392
0,1809177,2224,327,-389,-1040,-579,-330,172,58,-392
0,1809193,2228,326,-391,-1029,-580,-328,169,61,-399
0,1809209,2226,326,-390,-1032,-577,-323,169,61,-399
0,1809218,2226,326,-390,-1032,-577,-323,169,61,-399
0,1809232,2225,325,-392,-1039,-575,-327,169,61,-399
0,1809247,2227,328,-394,-1043,-563,-335,169,61,-399
0,1809261,2225,326,-397,-1029,-570,-340,169,61,-399
0,1809272,2225,326,-397,-1029,-570,-340,169,61,-399
0,1809287,2228,326,-389,-1030,-573,-333,169,61,-399
0,1809299,2224,324,-395,-1032,-577,-337,169,61,-399
0,1809313,2224,324,-395,-1032,-577,-337,169,61,-399
0,1809327,2222,325,-390,-1036,-577,-331,172,58,-388
0,1809341,2223,322,-392,-1027,-570,-330,172,58,-388
0,1809355,2223,322,-392,-1027,-570,-330,172,58,-388
0,1809370,2224,327,-392,-1031,-570,-323,172,58,-388
0,1809382,2224,324,-394,-1025,-576,-325,172,58,-388
0,1809396,2224,324,-394,-1025,-576,-325,172,58,-388
0,1809413,2224,325,-388,-1028,-578,-330,172,58,-388
0,1809428,2226,325,-387,-1026,-570,-334,172,58,-388
0,1809443,2225,323,-389,-1031,-574,-335,170,58,-388
0,1809457,2225,323,-389,-1031,-574,-335,170,58,-388
0,1809469,2226,324,-393,-1041,-572,-324,170,58,-388
0,1809482,2226,328,-392,-1032,-577,-321,170,58,-388
0,1809497,2226,328,-392,-1032,-577,-321,170,58,-388
0,1809511,2225,326,-395,-1044,-582,-326,170,58,-388
0,1809525,2227,324,-389,-1035,-579,-325,170,58,-388
0,1809539,2227,324,-389,-1035,-579,-325,170,58,-388
0,1809550,2226,325,-396,-1038,-583,-328,170,58,-388
0,1809564,2224,326,-390,-1043,-578,-334,170,58,-388
0,1809580,2224,326,-386,-1037,-581,-326,170,58,-388
0,1809595,2224,326,-386,-1037,-581,-326,165,55,-389
0,1809608,2224,326,-391,-1038,-575,-329,165,55,-389
0,1809623,2224,324,-394,-1038,-582,-324,165,55,-389
0,1809638,2224,324,-394,-1038,-582,-324,165,55,-389
0,1809653,2224,324,-394,-1041,-580,-326,165,55,-389
0,1809668,2224,324,-394,-1041,-580,-326,165,55,-389
0,1809682,2224,327,-394,-1038,-576,-324,165,55,-389
0,1809695,2224,327,-394,-1038,-576,-324,165,55,-389
0,1809710,2224,327,-390,-1039,-571,-327,164,56,-394
0,1809723,2226,326,-384,-1038,-577,-323,164,56,-394
0,1809735,2226,326,-384,-1038,-577,-323,164,56,-394
0,1809748,2224,324,-390,-1033,-572,-331,164,56,-394
0,1809763,2226,324,-396,-1035,-570,-340,164,56,-394
0,1809775,2226,324,-396,-1035,-570,-340,164,56,-394
0,1809790,2229,324,-391,-1037,-569,-331,164,56,-394
0,1809805,2226,326,-396,-1033,-574,-331,164,56,-394
0,1809816,2226,326,-396,-1033,-574,-331,164,56,-394
0,1809831,2224,326,-394,-1039,-574,-328,164,56,-394
0,1809847,2226,326,-390,-1036,-575,-334,169,57,-391
0,1809861,2224,326,-391,-1032,-572,-331,169,57,-391
0,1809873,2224,326,-391,-1032,-572,-331,169,57,-391
0,1809888,2225,326,-392,-1039,-573,-331,169,57,-391
0,1809901,2223,325,-394,-1042,-579,-330,169,57,-391
0,1809914,2223,325,-394,-1042,-579,-330,169,57,-391
0,1809929,2225,329,-391,-1034,-580,-326,169,57,-391
0,1809942,2224,327,-392,-1038,-572,-337,169,57,-391
0,1809953,2224,327,-392,-1038,-572,-337,169,57,-391
0,1809968,2228,327,-389,-1034,-579,-328,174,62,-390
0,1809983,2225,327,-390,-1038,-577,-327,174,62,-390
0,1809996,2225,327,-390,-1038,-577,-327,174,62,-390
0,1810010,2229,323,-389,-1028,-576,-333,174,62,-390
0,1810024,2225,326,-393,-1040,-574,-324,174,62,-390
0,1810039,2225,326,-393,-1040,-574,-324,174,62,-390
0,1810054,2229,323,-392,-1040,-574,-330,174,62,-390
0,1810068,2227,324,-393,-1035,-577,-327,174,62,-390
0,1810081,2222,324,-388,-1041,-579,-331,166,56,-392
0,1810096,2222,324,-388,-1041,-579,-331,166,56,-392
0,1810110,2223,327,-392,-1042,-578,-324,166,56,-392
0,1810125,2223,328,-393,-1030,-575,-325,166,56,-392
0,1810139,2223,328,-393,-1030,-575,-325,166,56,-392
0,1810151,2224,324,-394,-1041,-583,-331,166,56,-392
0,1810165,2224,327,-394,-1038,-589,-334,166,56,-392
0,1810180,2224,327,-394,-1038,-589,-334,166,56,-392
0,1810193,2225,325,-393,-1035,-575,-321,166,56,-392
0,1810205,2223,323,-395,-1023,-572,-334,166,56,-392
0,1810215,2223,323,-395,-1023,-572,-334,166,56,-392
0,1810225,2223,325,-389,-1037,-575,-333,173,49,-391
0,1810240,2223,325,-389,-1037,-575,-333,173,49,-391
0,1810254,2228,321,-394,-1040,-572,-331,173,49,-391
0,1810269,2224,323,-393,-1037,-580,-331,173,49,-391
0,1810283,2227,326,-397,-1034,-581,-325,173,49,-391
0,1810297,2227,326,-397,-1034,-581,-325,173,49,-391
0,1810313,2227,325,-393,-1039,-578,-329,173,49,-391
0,1810324,2228,325,-393,-1038,-575,-335,173,49,-391
0,1810337,2228,325,-393,-1038,-575,-335,173,49,-391
0,1810352,2224,325,-392,-1038,-580,-331,171,49,-393
0,1810366,2225,323,-391,-1037,-582,-334,171,49,-393
0,1810379,2225,323,-391,-1037,-582,-334,171,49,-393
0,1810394,2225,326,-392,-1036,-580,-329,171,49,-393
0,1810408,2226,324,-393,-1040,-575,-332,171,49,-393
0,1810420,2226,324,-393,-1040,-575,-332,171,49,-393
0,1810435,2225,326,-390,-1040,-574,-329,171,49,-393
0,1810451,2225,325,-398,-1032,-577,-324,171,49,-393
0,1810465,2224,327,-393,-1044,-578,-328,171,49,-393
0,1810481,2225,327,-389,-1039,-577,-334,161,49,-393
0,1810493,2225,327,-389,-1039,-577,-334,161,55,-391
0,1810506,2225,326,-396,-1034,-581,-331,161,55,-391
0,1810521,2225,326,-396,-1034,-581,-331,161,55,-391
0,1810534,2224,329,-392,-1031,-583,-326,161,55,-391
0,1810548,2224,328,-392,-1034,-578,-328,161,55,-391
0,1810563,2226,323,-390,-1038,-584,-326,161,55,-391
0,1810575,2226,323,-390,-1038,-584,-326,161,55,-391
0,1810588,2225,325,-387,-1031,-572,-332,161,55,-391
0,1810603,2223,324,-391,-1039,-570,-332,168,62,-386
0,1810616,2223,324,-391,-1039,-570,-332,168,62,-386
0,1810629,2224,324,-391,-1040,-584,-327,168,62,-386
0,1810643,2223,325,-396,-1036,-571,-331,168,62,-386
0,1810658,2223,325,-396,-1036,-571,-331,168,62,-386
0,1810671,2229,323,-387,-1038,-571,-326,168,62,-386
0,1810684,2227,328,-396,-1032,-576,-335,168,62,-386
0,1810700,2227,328,-396,-1032,-576,-335,168,62,-386
0,1810714,2227,323,-404,-1027,-572,-333,168,62,-386
0,1810726,2223,323,-392,-1035,-576,-334,168,62,-386
0,1810740,2223,323,-392,-1035,-576,-334,168,62,-386
0,1810754,2223,325,-387,-1036,-577,-325,170,54,-390
0,1810767,2224,328,-392,-1037,-577,-328,170,54,-390
0,1810782,2226,325,-392,-1033,-574,-335,170,54,-390
0,1810795,2226,325,-392,-1033,-574,-335,170,54,-390
0,1810803,2224,324,-396,-1034,-572,-329,170,54,-390
0,1810819,2224,324,-396,-1034,-572,-329,170,54,-390
0,1810832,2222,327,-392,-1045,-577,-332,170,54,-390
0,1810846,2226,323,-393,-1043,-576,-331,170,54,-390
0,1810862,2226,323,-393,-1043,-576,-331,171,55,-393
0,1810877,2226,323,-393,-1043,-576,-331,171,55,-393
0,1810892,2226,328,-392,-1033,-578,-323,171,55,-393
0,1810907,2225,324,-393,-1038,-575,-325,171,55,-393
0,1810920,2225,324,-393,-1038,-575,-325,171,55,-393
0,1810934,2225,324,-393,-1038,-575,-325,171,55,-393
0,1810948,2226,325,-392,-1031,-570,-334,171,55,-393
0,1810963,2226,323,-389,-1035,-580,-332,171,55,-393
0,1810976,2226,323,-389,-1035,-580,-332,171,55,-393
0,1810989,2225,327,-390,-1028,-577,-328,162,54,-394
0,1811003,2226,327,-393,-1034,-572,-326,162,54,-394
0,1811014,2226,327,-393,-1034,-572,-326,162,54,-394
0,1811028,2226,326,-392,-1031,-572,-328,162,54,-394
0,1811043,2224,328,-390,-1040,-573,-321,162,54,-394
0,1811055,2224,328,-390,-1040,-573,-321,162,54,-394
0,1811070,2225,328,-389,-1032,-578,-323,162,54,-394
0,1811084,2225,328,-389,-1032,-578,-323,162,54,-394
0,1811096,2225,328,-389,-1032,-578,-323,162,54,-394
0,1811111,2226,326,-394,-1030,-576,-325,162,54,-394
0,1811127,2224,326,-390,-1035,-580,-338,165,61,-393
0,1811142,2225,325,-392,-1043,-578,-329,165,61,-393
0,1811156,2225,325,-392,-1043,-578,-329,165,61,-393
0,1811170,2224,326,-389,-1038,-574,-333,165,61,-393
0,1811184,2223,324,-394,-1038,-576,-323,165,61,-393
0,1811198,2223,324,-394,-1038,-576,-323,165,61,-393
0,1811212,2224,325,-390,-1036,-577,-323,165,61,-393
0,1811223,2224,328,-397,-1036,-582,-326,165,61,-393
0,1811237,2224,328,-397,-1036,-582,-326,165,61,-393
0,1811252,2223,325,-394,-1030,-579,-334,167,51,-389
0,1811265,2225,323,-392,-1038,-574,-326,167,51,-389
0,1811279,2225,323,-392,-1038,-574,-326,167,51,-389
0,1811292,2225,324,-391,-1046,-575,-332,167,51,-389
0,1811306,2221,325,-392,-1048,-569,-336,167,51,-389
0,1811321,2224,328,-393,-1035,-571,-328,167,51,-389
0,1811337,2224,328,-393,-1035,-571,-328,167,51,-389
0,1811345,2225,323,-392,-1047,-575,-330,167,51,-389
0,1811357,2225,323,-392,-1047,-575,-330,167,51,-389
0,1811372,2225,326,-397,-1040,-579,-331,167,51,-389
0,1811386,2223,322,-393,-1041,-580,-329,168,54,-396
0,1811398,2223,322,-393,-1041,-580,-329,168,54,-396
0,1811412,2224,326,-389,-1035,-578,-328,168,54,-396
0,1811427,2223,326,-390,-1041,-578,-320,168,54,-396
0,1811442,2226,325,-390,-1037,-567,-330,168,54,-396
0,1811456,2226,325,-390,-1037,-567,-330,168,54,-396
0,1811471,2224,326,-393,-1034,-575,-330,168,54,-396
0,1811485,2226,327,-395,-1034,-575,-330,168,54,-396
0,1811501,2226,327,-395,-1034,-575,-330,168,54,-396
0,1811516,2227,326,-389,-1035,-575,-329,167,61,-401
0,1811530,2225,327,-388,-1043,-574,-327,167,61,-401
0,1811543,2225,326,-399,-1038,-579,-333,167,61,-401
0,1811558,2225,326,-399,-1038,-579,-333,167,61,-401
0,1811573,2222,328,-390,-1038,-581,-328,167,61,-401
0,1811590,2226,327,-392,-1034,-577,-327,167,61,-401
0,1811604,2227,328,-398,-1020,-576,-324,167,61,-401
0,1811617,2227,328,-398,-1020,-576,-324,167,61,-401
0,1811630,2227,323,-394,-1031,-575,-330,167,61,-401
0,1811644,2227,326,-393,-1040,-581,-326,167,61,-401
0,1811657,2227,326,-393,-1040,-581,-326,167,61,-401
0,1811672,2227,325,-387,-1038,-585,-329,167,61,-401
0,1811685,2225,324,-388,-1035,-575,-329,167,61,-401
0,1811698,2225,324,-388,-1035,-575,-329,167,61,-401
0,1811710,2224,326,-389,-1038,-576,-329,167,61,-401
0,1811725,2224,326,-393,-1036,-577,-333,167,61,-401
0,1811739,2224,326,-393,-1036,-577,-333,167,61,-401
0,1811753,2225,324,-394,-1029,-575,-327,167,61,-401
0,1811769,2223,328,-390,-1035,-573,-322,165,61,-397
0,1811783,2226,326,-394,-1029,-575,-322,165,61,-397
0,1811799,2226,326,-394,-1029,-575,-322,165,61,-397
0,1811814,2224,325,-393,-1032,-576,-324,165,61,-397
0,1811829,2224,323,-393,-1031,-570,-321,165,61,-397
0,1811843,2228,328,-390,-1037,-577,-332,165,61,-397
0,1811857,2228,328,-390,-1037,-577,-332,165,61,-397
0,1811871,2226,323,-397,-1035,-576,-329,165,61,-397
0,1811884,2223,326,-394,-1031,-583,-330,161,59,-389
0,1811899,2223,326,-394,-1031,-583,-330,161,59,-389
0,1811911,2224,327,-391,-1034,-571,-333,161,59,-389
0,1811924,2227,326,-391,-1030,-578,-321,161,59,-389
0,1811936,2227,326,-391,-1030,-578,-321,161,59,-389
0,1811950,2226,324,-389,-1044,-577,-325,161,59,-389
0,1811962,2226,324,-389,-1044,-577,-325,161,59,-389
0,1811977,2225,325,-389,-1039,-567,-327,161,59,-389
0,1811992,2226,327,-398,-1035,-571,-330,161,59,-389
0,1812007,2224,325,-387,-1036,-575,-331,161,59,-389
0,1812023,2227,322,-388,-1036,-579,-324,163,59,-395
0,1812035,2227,322,-388,-1036,-579,-324,163,59,-395
0,1812048,2225,328,-388,-1037,-569,-339,163,59,-395
0,1812064,2227,326,-390,-1034,-580,-333,163,59,-395
0,1812078,2227,326,-390,-1034,-580,-333,163,59,-395
0,1812091,2227,329,-389,-1038,-572,-322,163,59,-395
0,1812105,2223,327,-397,-1030,-572,-326,163,59,-395
0,1812120,2223,327,-397,-1030,-572,-326,163,59,-395
0,1812133,2226,327,-389,-1033,-574,-329,163,59,-395
0,1812146,2223,324,-389,-1041,-579,-335,168,62,-388
0,1812161,2223,324,-389,-1041,-579,-335,168,62,-388
0,1812175,2226,326,-386,-1034,-577,-334,168,62,-388
0,1812190,2227,328,-392,-1036,-580,-321,168,62,-388
0,1812203,2223,326,-394,-1035,-572,-326,168,62,-388
0,1812218,2223,326,-394,-1035,-572,-326,168,62,-388
0,1812234,2225,325,-392,-1033,-574,-329,168,62,-388
0,1812249,2222,326,-395,-1033,-574,-330,168,62,-388
0,1812263,2225,330,-391,-1040,-578,-330,168,62,-388
0,1812277,2225,330,-391,-1040,-578,-330,168,62,-388
0,1812291,2224,328,-388,-1036,-577,-329,170,52,-388
0,1812305,2224,325,-389,-1037,-581,-331,170,52,-388
0,1812316,2224,325,-389,-1037,-581,-331,170,52,-388
0,1812330,2226,324,-393,-1033,-570,-331,170,52,-388
0,1812344,2223,326,-391,-1035,-569,-336,170,52,-388
0,1812358,2223,326,-391,-1035,-569,-336,170,52,-388
0,1812372,2224,326,-391,-1035,-577,-325,170,52,-388
0,1812387,2224,326,-388,-1041,-579,-331,170,52,-388
0,1812401,2224,326,-388,-1041,-579,-331,170,52,-388
0,1812413,2223,325,-395,-1035,-575,-327,170,66,-394
0,1812428,2223,324,-391,-1040,-577,-326,170,66,-394
0,1812444,2224,324,-394,-1035,-586,-333,170,66,-394
0,1812459,2224,324,-394,-1035,-586,-333,170,66,-394
0,1812473,2223,325,-390,-1038,-577,-328,170,66,-394
0,1812486,2225,325,-394,-1042,-575,-331,170,66,-394
0,1812502,2225,325,-394,-1042,-575,-331,170,66,-394
0,1812516,2224,324,-393,-1035,-576,-321,170,66,-394
0,1812531,2226,325,-391,-1035,-577,-324,175,61,-395
0,1812544,2223,326,-392,-1035,-579,-327,175,61,-395
0,1812558,2223,326,-392,-1035,-579,-327,175,61,-395
0,1812572,2223,325,-387,-1042,-578,-329,175,61,-395
0,1812586,2225,324,-385,-1041,-586,-337,175,61,-395
0,1812601,2225,324,-385,-1041,-586,-337,175,61,-395
0,1812614,2224,326,-391,-1043,-576,-331,175,61,-395
0,1812628,2224,326,-388,-1046,-574,-330,175,61,-395
0,1812641,2224,326,-388,-1046,-574,-330,175,61,-395
0,1812656,2225,324,-391,-1041,-573,-327,175,61,-395
0,1812670,2226,328,-389,-1040,-575,-327,167,61,-391
0,1812681,2226,328,-389,-1040,-575,-327,167,61,-391
0,1812697,2225,328,-388,-1040,-575,-330,167,61,-391
0,1812712,2226,326,-397,-1044,-585,-334,167,61,-391
0,1812724,2227,329,-391,-1038,-578,-329,167,61,-391
0,1812738,2227,329,-391,-1038,-578,-329,167,61,-391
0,1812752,2225,328,-391,-1032,-575,-332,167,61,-391
0,1812766,2225,328,-392,-1033,-574,-320,167,61,-391
0,1812780,2225,328,-392,-1033,-574,-320,167,61,-391
0,1812793,2223,328,-391,-1040,-582,-319,169,65,-397
0,1812807,2226,328,-384,-1036,-582,-321,169,65,-397
0,1812822,2226,328,-384,-1036,-582,-321,169,65,-397
0,1812834,2224,325,-393,-1037,-574,-324,169,65,-397
0,1812848,2224,325,-391,-1042,-571,-326,169,65,-397
0,1812862,2224,325,-391,-1042,-571,-326,169,65,-397
0,1812877,2223,327,-392,-1033,-576,-329,169,65,-397
0,1812890,2224,326,-391,-1032,-572,-328,169,65,-397
0,1812905,2225,328,-393,-1041,-580,-328,169,65,-397
0,1812921,2225,328,-393,-1041,-580,-328,169,65,-397
0,1812935,2227,325,-389,-1041,-576,-332,166,56,-394
0,1812945,2228,323,-390,-1037,-579,-329,166,56,-394
0,1812960,2228,323,-390,-1037,-579,-329,166,56,-394
0,1812972,2223,325,-390,-1041,-581,-330,166,56,-394
0,1812984,2227,326,-392,-1031,-585,-327,166,56,-394
0,1812998,2227,326,-392,-1031,-585,-327,166,56,-394
0,1813012,2223,327,-388,-1035,-582,-326,166,56,-394
0,1813026,2230,325,-394,-1039,-582,-335,166,56,-394
0,1813040,2230,325,-394,-1039,-582,-335,166,56,-394
0,1813052,2228,327,-389,-1030,-574,-334,171,59,-387
0,1813066,2227,327,-394,-1032,-570,-332,171,59,-387
0,1813082,2227,327,-394,-1032,-570,-332,171,59,-387
0,1813097,2227,326,-396,-1035,-570,-334,171,59,-387
0,1813111,2227,326,-396,-1035,-570,-334,171,59,-387
0,1813125,2223,326,-393,-1042,-578,-331,171,59,-387
0,1813136,2223,326,-393,-1042,-578,-331,171,59,-387
0,1813150,2226,322,-392,-1035,-572,-327,171,59,-387
0,1813165,2229,325,-395,-1033,-581,-328,171,59,-387
0,1813180,2229,325,-395,-1033,-581,-328,171,59,-387
0,1813193,2228,327,-393,-1033,-582,-327,168,58,-390
0,1813203,2228,327,-393,-1033,-582,-327,168,58,-390
0,1813218,2228,327,-393,-1033,-582,-327,168,58,-390
0,1813231,2229,327,-395,-1034,-573,-331,168,58,-390
0,1813245,2224,326,-392,-1042,-583,-331,168,58,-390
0,1813259,2224,326,-392,-1042,-583,-331,168,58,-390
0,1813270,2223,326,-393,-1041,-587,-331,168,58,-390
0,1813284,2227,327,-392,-1038,-578,-329,168,58,-390
0,1813299,2227,327,-392,-1038,-578,-329,168,58,-390
0,1813312,2227,327,-386,-1032,-580,-327,165,65,-399
0,1813327,2225,329,-393,-1028,-581,-324,165,65,-399
0,1813342,2225,329,-393,-1028,-581,-324,165,65,-399
0,1813357,2225,326,-397,-1029,-582,-326,165,65,-399
0,1813372,2223,326,-394,-1034,-576,-327,165,65,-399
0,1813388,2225,329,-395,-1034,-572,-326,165,65,-399
0,1813402,2225,329,-395,-1034,-572,-326,165,65,-399
0,1813415,2226,327,-394,-1033,-572,-323,165,65,-399
0,1813430,2224,328,-385,-1039,-571,-329,170,54,-392
0,1813444,2224,328,-385,-1039,-571,-329,170,54,-392
0,1813456,2224,329,-392,-1033,-572,-328,170,54,-392
0,1813468,2224,326,-389,-1030,-580,-331,170,54,-392
0,1813482,2224,326,-389,-1030,-580,-331,170,54,-392
0,1813496,2227,326,-392,-1029,-573,-334,170,54,-392
0,1813511,2226,325,-389,-1033,-573,-333,170,54,-392
0,1813525,2225,326,-391,-1030,-579,-331,170,54,-392
0,1813539,2225,326,-391,-1030,-579,-331,170,54,-392
0,1813551,2227,327,-391,-1034,-574,-330,170,54,-392
0,1813567,2222,325,-385,-1034,-574,-333,160,54,-394
0,1813582,2222,325,-385,-1034,-574,-333,160,54,-394
0,1813597,2224,324,-396,-1031,-570,-326,160,54,-394
0,1813608,2226,323,-392,-1034,-577,-332,160,54,-394
0,1813621,2226,323,-392,-1034,-577,-332,160,54,-394
0,1813636,2226,325,-396,-1035,-580,-328,160,54,-394
0,1813650,2228,322,-399,-1031,-580,-326,160,54,-394
0,1813663,2228,322,-399,-1031,-580,-326,160,54,-394
0,1813677,2230,327,-391,-1031,-580,-335,160,54,-394
0,1813688,2226,328,-395,-1041,-580,-328,169,63,-397
0,1813702,2226,328,-395,-1041,-580,-328,169,63,-397
0,1813715,2225,327,-394,-1048,-580,-330,169,63,-397
0,1813729,2225,327,-394,-1048,-580,-330,169,63,-397
0,1813744,2225,327,-394,-1048,-580,-330,169,63,-397
0,1813758,2224,327,-394,-1032,-570,-326,169,63,-397
0,1813771,2225,325,-398,-1038,-571,-328,169,63,-397
0,1813786,2225,324,-394,-1038,-579,-328,169,63,-397
0,1813801,2225,324,-394,-1038,-579,-328,169,63,-397
0,1813817,2226,326,-395,-1036,-579,-331,169,63,-397
0,1813827,2225,323,-388,-1036,-577,-330,164,58,-396
0,1813835,2225,323,-388,-1036,-577,-330,164,58,-396
0,1813843,2225,323,-388,-1036,-577,-330,164,58,-396
0,1813852,2226,328,-392,-1034,-575,-327,164,58,-396
0,1813865,2224,326,-394,-1032,-577,-333,164,58,-396
0,1813878,2224,326,-394,-1032,-577,-333,164,58,-396
0,1813894,2224,329,-398,-1031,-570,-317,164,58,-396
0,1813906,2224,324,-392,-1035,-569,-330,164,58,-396
0,1813919,2224,324,-392,-1035,-569,-330,164,58,-396
0,1813934,2227,326,-389,-1028,-570,-335,164,58,-396
0,1813947,2226,328,-391,-1041,-581,-335,165,57,-387
0,1813958,2226,328,-391,-1041,-581,-335,165,57,-387
0,1813971,2227,326,-389,-1041,-580,-338,165,57,-387
0,1813985,2225,322,-390,-1036,-574,-337,165,57,-387
0,1813999,2225,322,-390,-1036,-574,-337,165,57,-387
0,1814013,2225,322,-390,-1036,-574,-337,165,57,-387
0,1814028,2227,325,-398,-1032,-574,-330,165,57,-387
0,1814043,2227,325,-398,-1032,-574,-330,165,57,-387
0,1814060,2223,325,-393,-1037,-575,-331,165,57,-387
0,1814075,2224,325,-395,-1041,-583,-325,165,57,-387
0,1814089,2226,328,-385,-1033,-578,-331,171,55,-391
0,1814103,2226,328,-385,-1033,-578,-331,171,55,-391
0,1814117,2222,324,-389,-1032,-575,-332,171,55,-391
0,1814130,2223,325,-397,-1032,-571,-333,171,55,-391
0,1814144,2223,325,-397,-1032,-571,-333,171,55,-391
0,1814156,2227,328,-392,-1036,-577,-331,171,55,-391
0,1814170,2224,326,-395,-1039,-580,-333,171,55,-391
0,1814183,2224,326,-395,-1039,-580,-333,171,55,-391
0,1814198,2224,327,-394,-1033,-582,-327,171,55,-391
0,1814212,2224,327,-394,-1033,-582,-327,180,50,-392
0,1814226,2221,327,-392,-1037,-580,-319,180,50,-392
0,1814240,2221,327,-392,-1037,-580,-319,180,50,-392
0,1814254,2225,325,-396,-1031,-581,-329,180,50,-392
0,1814269,2227,324,-394,-1027,-579,-334,180,50,-392
0,1814285,2227,324,-394,-1027,-579,-334,180,50,-392
0,1814298,2227,324,-386,-1036,-572,-327,180,50,-392
0,1814310,2225,327,-392,-1034,-572,-331,180,50,-392
0,1814326,2227,323,-395,-1038,-574,-333,165,65,-397
0,1814340,2227,323,-395,-1038,-574,-333,165,65,-397
0,1814354,2227,324,-389,-1034,-574,-328,165,65,-397
0,1814368,2223,329,-391,-1035,-575,-322,165,65,-397
0,1814381,2223,329,-391,-1035,-575,-322,165,65,-397
0,1814397,2228,327,-387,-1037,-581,-325,165,65,-397
0,1814413,2222,326,-392,-1023,-579,-328,165,65,-397
0,1814425,2223,326,-394,-1024,-569,-327,165,65,-397
0,1814439,2223,326,-394,-1024,-569,-327,165,65,-397
0,1814454,2223,326,-394,-1024,-569,-327,165,65,-397
0,1814468,2225,327,-394,-1040,-578,-325,166,58,-398
0,1814482,2225,327,-394,-1040,-578,-325,166,58,-398
0,1814493,2226,326,-394,-1045,-582,-332,166,58,-398
0,1814507,2223,321,-394,-1042,-575,-327,166,58,-398
0,1814522,2223,321,-394,-1042,-575,-327,166,58,-398
0,1814538,2225,326,-391,-1038,-573,-323,166,58,-398
0,1814554,2224,324,-389,-1043,-580,-327,166,58,-398
0,1814568,2225,326,-395,-1032,-579,-324,166,58,-398
0,1814581,2225,326,-395,-1032,-579,-324,166,58,-398
0,1814594,2226,327,-384,-1036,-571,-331,166,64,-396
0,1814607,2227,325,-389,-1045,-579,-330,166,64,-396
0,1814621,2227,325,-389,-1045,-579,-330,166,64,-396
0,1814635,2224,324,-394,-1040,-583,-326,166,64,-396
0,1814647,2225,322,-393,-1038,-583,-325,166,64,-396
0,1814659,2225,322,-393,-1038,-583,-325,166,64,-396
0,1814673,2225,324,-390,-1036,-582,-321,166,64,-396
0,1814684,2225,324,-390,-1036,-582,-321,166,64,-396
0,1814699,2222,327,-396,-1035,-582,-329,166,64,-396
0,1814711,2224,324,-393,-1042,-579,-327,166,64,-396
0,1814725,2224,324,-393,-1042,-579,-327,166,64,-396
0,1814739,2227,325,-389,-1035,-580,-327,169,49,-391
0,1814755,2223,327,-390,-1031,-576,-325,169,49,-391
0,1814769,2227,325,-390,-1042,-587,-336,169,49,-391
0,1814780,2227,325,-390,-1042,-587,-336,169,49,-391
0,1814795,2228,326,-392,-1046,-582,-337,169,49,-391
0,1814808,2227,327,-394,-1031,-578,-324,169,49,-391
0,1814822,2227,327,-394,-1031,-578,-324,169,49,-391
0,1814837,2227,327,-397,-1029,-580,-322,169,49,-391
0,1814848,2227,327,-385,-1033,-577,-329,167,59,-393
0,1814861,2227,327,-385,-1033,-577,-329,167,59,-393
0,1814875,2221,323,-385,-1029,-574,-331,167,59,-393
0,1814888,2223,324,-386,-1035,-572,-324,167,59,-393
0,1814901,2223,324,-386,-1035,-572,-324,167,59,-393
0,1814914,2222,326,-392,-1034,-575,-324,167,59,-393
0,1814926,2223,326,-389,-1030,-574,-324,167,59,-393
0,1814940,2223,326,-389,-1030,-574,-324,167,59,-393
0,1814955,2226,325,-387,-1032,-575,-324,167,59,-393
0,1814968,2227,325,-395,-1032,-572,-332,167,59,-393
0,1814979,2227,325,-395,-1032,-572,-332,167,59,-393
0,1814992,2224,327,-386,-1028,-567,-329,167,59,-393
0,1815005,2224,327,-386,-1028,-567,-329,167,59,-393
0,1815013,2221,325,-390,-1038,-576,-329,167,59,-393
0,1815026,2222,326,-391,-1039,-582,-328,167,59,-393
0,1815042,2222,326,-391,-1039,-582,-328,167,59,-393
0,1815053,2226,323,-392,-1031,-575,-328,167,59,-393
0,1815066,2226,323,-392,-1031,-575,-328,167,59,-393
0,1815081,2224,325,-394,-1034,-569,-326,167,59,-393
0,1815097,2227,322,-393,-1039,-575,-324,167,59,-393
0,1815112,2223,327,-393,-1045,-571,-329,170,58,-396
0,1815127,2228,325,-391,-1035,-571,-331,170,58,-396
0,1815140,2228,325,-391,-1035,-571,-331,170,58,-396
0,1815154,2224,323,-389,-1033,-576,-325,170,58,-396
0,1815166,2224,323,-392,-1032,-581,-326,170,58,-396
0,1815178,2224,323,-392,-1032,-581,-326,170,58,-396
0,1815191,2228,324,-396,-1036,-580,-319,170,58,-396
0,1815205,2228,324,-396,-1036,-580,-319,170,58,-396
0,1815220,2225,326,-392,-1031,-575,-320,170,58,-396
0,1815231,2224,325,-390,-1033,-575,-326,171,51,-395
0,1815244,2224,325,-390,-1033,-575,-326,171,51,-395
0,1815259,2224,328,-391,-1045,-584,-328,171,51,-395
0,1815274,2224,324,-391,-1045,-581,-329,171,51,-395
0,1815286,2224,324,-393,-1039,-580,-327,171,51,-395
0,1815299,2224,324,-393,-1039,-580,-327,171,51,-395
0,1815312,2223,325,-393,-1030,-577,-326,171,51,-395
0,1815325,2223,325,-393,-1030,-577,-326,171,51,-395
0,1815341,2225,326,-390,-1033,-577,-320,171,51,-395
0,1815354,2228,325,-392,-1037,-576,-330,171,51,-395
0,1815366,2228,325,-392,-1037,-576,-330,171,51,-395
0,1815378,2224,326,-388,-1031,-575,-333,173,61,-387
0,1815392,2227,329,-390,-1038,-571,-329,173,61,-387
0,1815406,2227,329,-390,-1038,-571,-329,173,61,-387
0,1815421,2226,328,-390,-1034,-568,-322,173,61,-387
0,1815437,2224,326,-386,-1032,-582,-318,173,61,-387
0,1815452,2226,326,-391,-1033,-577,-326,173,61,-387
0,1815467,2224,326,-392,-1025,-569,-326,173,61,-387
0,1815482,2224,326,-392,-1025,-569,-326,173,61,-387
0,1815495,2226,325,-394,-1041,-576,-327,167,55,-391
0,1815508,2226,326,-390,-1030,-575,-333,167,55,-391
0,1815523,2226,326,-390,-1030,-575,-333,167,55,-391
0,1815535,2226,327,-401,-1037,-578,-323,167,55,-391
0,1815548,2227,327,-394,-1042,-583,-325,167,55,-391
0,1815563,2227,327,-394,-1042,-583,-325,167,55,-391
0,1815576,2224,326,-398,-1037,-572,-329,167,55,-391
0,1815589,2223,323,-397,-1043,-575,-323,167,55,-391
0,1815602,2223,323,-397,-1043,-575,-323,167,55,-391
0,1815614,2222,326,-390,-1034,-575,-326,167,55,-391
0,1815628,2222,326,-392,-1031,-577,-327,169,57,-387
0,1815643,2222,326,-392,-1031,-577,-327,169,57,-387
0,1815657,2227,324,-389,-1038,-576,-329,169,57,-387
0,1815671,2224,323,-388,-1038,-577,-326,169,57,-387
0,1815687,2224,323,-388,-1038,-577,-326,169,57,-387
0,1815702,2224,324,-395,-1032,-578,-331,169,57,-387
0,1815717,2224,323,-392,-1037,-574,-331,169,57,-387
0,1815731,2226,328,-394,-1032,-575,-335,169,57,-387
0,1815744,2226,328,-394,-1032,-575,-335,169,57,-387
0,1815758,2222,328,-389,-1035,-570,-329,169,57,-401
0,1815771,2224,326,-388,-1037,-569,-331,169,57,-401
0,1815784,2224,326,-388,-1037,-569,-331,169,57,-401
0,1815797,2224,328,-393,-1033,-575,-329,169,57,-401
0,1815811,2223,326,-394,-1030,-568,-330,169,57,-401
0,1815825,2223,326,-394,-1030,-568,-330,169,57,-401
0,1815838,2224,326,-396,-1036,-574,-325,169,57,-401
0,1815848,2226,324,-395,-1034,-572,-329,169,57,-401
0,1815863,2226,324,-395,-1034,-572,-329,169,57,-401
0,1815876,2227,327,-388,-1023,-576,-331,177,51,-397
0,1815889,2221,325,-390,-1033,-581,-326,177,51,-397
0,1815901,2221,325,-390,-1033,-581,-326,177,51,-397
0,1815914,2226,326,-389,-1033,-578,-327,177,51,-397
0,1815929,2228,325,-393,-1030,-579,-335,177,51,-397
0,1815939,2228,325,-393,-1030,-579,-335,177,51,-397
0,1815952,2225,325,-395,-1036,-574,-335,177,51,-397
0,1815965,2225,325,-395,-1036,-574,-335,177,51,-397
0,1815979,2223,328,-393,-1044,-577,-333,177,51,-397
0,1815993,2227,328,-398,-1033,-573,-336,177,51,-397
0,1816007,2225,327,-387,-1036,-581,-331,177,51,-397
0,1816020,2225,327,-387,-1036,-581,-331,167,61,-399
0,1816034,2223,326,-390,-1027,-573,-331,167,61,-399
0,1816047,2223,326,-390,-1027,-573,-331,167,61,-399
0,1816061,2223,326,-390,-1027,-573,-331,167,61,-399
0,1816075,2224,326,-387,-1029,-568,-330,167,61,-399
0,1816087,2224,326,-387,-1029,-568,-330,167,61,-399
0,1816099,2226,323,-390,-1034,-577,-332,167,61,-399
0,1816115,2225,326,-393,-1030,-580,-331,167,61,-399
0,1816129,2228,328,-390,-1026,-575,-337,175,51,-391
0,1816142,2228,328,-390,-1026,-575,-337,175,51,-391
0,1816158,2225,327,-391,-1034,-573,-336,175,51,-391
0,1816170,2223,326,-394,-1028,-577,-330,175,51,-391
0,1816182,2223,326,-394,-1028,-577,-330,175,51,-391
0,1816198,2223,327,-394,-1030,-578,-331,175,51,-391
0,1816213,2222,326,-392,-1036,-577,-335,175,51,-391
0,1816225,2222,326,-392,-1036,-577,-335,175,51,-391
0,1816237,2222,326,-392,-1036,-577,-335,175,51,-391
0,1816250,2224,325,-395,-1043,-573,-319,175,51,-391
0,1816264,2224,325,-395,-1043,-573,-319,175,51,-391
0,1816279,2226,326,-384,-1047,-577,-323,176,60,-390
0,1816292,2225,326,-392,-1040,-573,-333,176,60,-390
0,1816303,2225,326,-392,-1040,-573,-333,176,60,-390
0,1816316,2222,325,-389,-1036,-576,-333,176,60,-390
0,1816330,2228,324,-397,-1039,-581,-335,176,60,-390
0,1816343,2228,324,-397,-1039,-581,-335,176,60,-390
0,1816358,2223,325,-399,-1041,-579,-331,176,60,-390
0,1816374,2225,326,-392,-1026,-572,-324,176,60,-390
0,1816390,2223,326,-391,-1031,-568,-329,167,55,-397
0,1816404,2223,326,-391,-1031,-568,-329,167,55,-397
0,1816419,2225,324,-387,-1039,-570,-328,167,55,-397
0,1816432,2224,324,-391,-1022,-573,-327,167,55,-397
0,1816444,2224,324,-391,-1022,-573,-327,167,55,-397
0,1816457,2226,326,-390,-1028,-581,-328,167,55,-397
0,1816470,2224,323,-394,-1022,-577,-326,167,55,-397
0,1816483,2224,323,-394,-1022,-577,-326,167,55,-397
0,1816497,2225,323,-398,-1024,-569,-337,167,55,-397
0,1816511,2223,324,-392,-1034,-578,-331,167,55,-397
0,1816524,2223,324,-392,-1034,-578,-331,167,55,-397
0,1816536,2225,327,-389,-1041,-580,-331,169,49,-393
0,1816549,2228,323,-392,-1038,-572,-332,169,49,-393
0,1816564,2228,323,-392,-1038,-572,-332,169,49,-393
0,1816572,2222,326,-394,-1031,-577,-332,169,49,-393
0,1816585,2222,326,-394,-1031,-577,-332,169,49,-393
0,1816600,2225,326,-394,-1034,-570,-330,169,49,-393
0,1816614,2226,325,-391,-1044,-580,-329,169,49,-393
0,1816628,2226,325,-391,-1044,-580,-329,169,49,-393
0,1816642,2226,327,-395,-1024,-568,-331,169,49,-393
0,1816657,2225,326,-390,-1033,-572,-332,170,58,-400
0,1816673,2224,325,-389,-1033,-582,-330,170,58,-400
0,1816686,2224,325,-389,-1033,-582,-330,170,58,-400
0,1816699,2225,326,-395,-1037,-580,-326,170,58,-400
0,1816714,2226,329,-394,-1039,-575,-328,170,58,-400
0,1816726,2226,329,-394,-1039,-575,-328,170,58,-400
0,1816740,2225,326,-393,-1041,-573,-329,170,58,-400
0,1816755,2225,324,-394,-1045,-584,-331,170,58,-400
0,1816768,2225,324,-394,-1045,-584,-331,170,58,-400
0,1816781,2225,324,-395,-1034,-581,-324,171,51,-393
0,1816795,2224,329,-389,-1036,-574,-327,171,51,-393
0,1816808,2227,328,-393,-1032,-577,-327,171,51,-393
0,1816820,2227,328,-393,-1032,-577,-327,171,51,-393
0,1816835,2228,324,-390,-1037,-573,-327,171,51,-393
0,1816847,2228,324,-390,-1037,-573,-327,171,51,-393
0,1816860,2225,325,-393,-1035,-574,-322,171,51,-393
0,1816876,2225,330,-395,-1033,-579,-325,171,51,-393
0,1816891,2224,324,-394,-1039,-576,-331,171,51,-393
0,1816906,2224,324,-394,-1039,-576,-331,171,51,-393
0,1816920,2223,324,-393,-1034,-578,-331,166,56,-388
0,1816934,2225,327,-391,-1030,-576,-333,166,56,-388
0,1816947,2225,327,-391,-1030,-576,-333,166,56,-388
0,1816962,2225,323,-392,-1038,-580,-317,166,56,-388
0,1816976,2225,323,-392,-1038,-580,-317,166,56,-388
0,1816990,2226,325,-397,-1036,-576,-321,166,56,-388
0,1817004,2226,325,-397,-1036,-576,-321,166,56,-388
0,1817017,2226,324,-392,-1029,-575,-318,166,56,-388
0,1817031,2223,326,-387,-1034,-576,-329,171,59,-397
0,1817044,2223,326,-387,-1034,-576,-329,171,59,-397
0,1817059,2225,324,-388,-1025,-573,-323,171,59,-397
0,1817071,2223,324,-390,-1030,-579,-331,171,59,-397
0,1817085,2223,324,-390,-1030,-579,-331,171,59,-397
0,1817101,2223,324,-390,-1033,-576,-327,171,59,-397
0,1817113,2225,325,-394,-1034,-574,-322,171,59,-397
0,1817127,2225,325,-394,-1034,-574,-322,171,59,-397
0,1817142,2223,325,-394,-1037,-577,-337,171,59,-397
0,1817157,2225,326,-389,-1034,-573,-328,171,59,-397
0,1817170,2222,328,-386,-1029,-577,-328,162,60,-394
0,1817186,2222,328,-386,-1029,-577,-328,162,60,-394
0,1817199,2226,324,-395,-1036,-577,-331,162,60,-394
0,1817213,2223,327,-398,-1038,-573,-335,162,60,-394
0,1817225,2223,327,-398,-1038,-573,-335,162,60,-394
0,1817238,2225,325,-391,-1038,-578,-323,162,60,-394
0,1817250,2224,325,-395,-1025,-572,-321,162,60,-394
0,1817265,2224,325,-395,-1025,-572,-321,162,60,-394
0,1817279,2220,325,-394,-1036,-579,-326,162,60,-394
0,1817294,2225,326,-395,-1033,-577,-325,169,47,-401
0,1817310,2223,325,-396,-1034,-569,-328,169,47,-401
0,1817323,2223,325,-396,-1034,-569,-328,169,47,-401
0,1817336,2225,328,-391,-1030,-575,-326,169,47,-401
0,1817351,2226,324,-392,-1030,-578,-335,169,47,-401
0,1817361,2226,324,-392,-1030,-578,-335,169,47,-401
0,1817374,2224,323,-395,-1031,-577,-330,169,47,-401
0,1817388,2224,323,-395,-1031,-577,-330,169,47,-401
0,1817401,2224,326,-390,-1028,-571,-325,169,47,-401
0,1817415,2225,328,-393,-1033,-584,-328,172,52,-388
0,1817427,2225,328,-393,-1033,-584,-328,172,52,-388
0,1817440,2223,326,-386,-1037,-578,-323,172,52,-388
0,1817455,2226,328,-390,-1037,-578,-326,172,52,-388
0,1817467,2226,328,-390,-1037,-578,-326,172,52,-388
0,1817482,2227,329,-387,-1038,-577,-320,172,52,-388
0,1817497,2223,328,-392,-1038,-572,-326,172,52,-388
0,1817512,2226,327,-388,-1035,-576,-328,172,52,-388
0,1817527,2226,327,-388,-1035,-576,-328,172,52,-388
0,1817542,2225,326,-389,-1025,-575,-327,172,52,-388
0,1817554,2227,325,-388,-1024,-574,-315,171,57,-385
0,1817570,2223,327,-393,-1035,-583,-325,171,57,-385
0,1817582,2223,327,-393,-1035,-583,-325,171,57,-385
0,1817594,2224,327,-388,-1037,-577,-328,171,57,-385
0,1817609,2224,327,-388,-1037,-577,-328,171,57,-385
0,1817623,2223,328,-396,-1031,-569,-324,171,57,-385
0,1817638,2225,323,-391,-1033,-574,-324,171,57,-385
0,1817653,2225,327,-393,-1036,-569,-330,171,57,-385
0,1817667,2225,327,-393,-1036,-569,-330,171,57,-385
0,1817682,2226,326,-393,-1030,-578,-328,172,56,-390
0,1817696,2224,326,-392,-1028,-575,-331,172,56,-390
0,1817709,2224,326,-392,-1028,-575,-331,172,56,-390
0,1817723,2222,327,-392,-1030,-574,-331,172,56,-390
0,1817740,2225,324,-399,-1032,-570,-327,172,56,-390
0,1817750,2226,326,-390,-1028,-579,-325,172,56,-390
0,1817765,2226,326,-390,-1028,-579,-325,172,56,-390
0,1817782,2227,327,-391,-1037,-576,-323,172,56,-390
0,1817797,2225,322,-395,-1025,-571,-331,172,56,-390
0,1817812,2222,326,-393,-1027,-571,-330,165,63,-393
0,1817827,2222,326,-393,-1027,-571,-330,165,63,-393
0,1817841,2225,326,-388,-1034,-578,-318,165,63,-393
0,1817856,2228,328,-393,-1033,-579,-329,165,63,-393
0,1817870,2224,323,-396,-1037,-575,-329,165,63,-393
0,1817882,2224,323,-396,-1037,-575,-329,165,63,-393
0,1817896,2226,324,-395,-1027,-577,-325,165,63,-393
0,1817912,2223,325,-394,-1034,-576,-324,165,63,-393
0,1817925,2223,325,-394,-1034,-576,-324,165,63,-393
0,1817939,2225,325,-388,-1035,-570,-329,170,64,-394
0,1817953,2226,324,-390,-1036,-572,-325,170,64,-394
0,1817967,2226,324,-390,-1036,-572,-325,170,64,-394
0,1817979,2226,324,-393,-1037,-570,-324,170,64,-394
0,1817993,2224,324,-391,-1031,-574,-324,170,64,-394
0,1818008,2224,324,-391,-1031,-574,-324,170,64,-394
0,1818024,2225,324,-394,-1034,-580,-330,170,64,-394
0,1818039,2224,324,-396,-1037,-574,-338,170,64,-394
0,1818054,2226,325,-399,-1035,-579,-329,170,64,-394
0,1818066,2226,325,-399,-1035,-579,-329,170,64,-394
0,1818081,2224,326,-389,-1034,-575,-322,166,60,-396
0,1818095,2226,326,-395,-1038,-576,-322,166,60,-396
0,1818108,2226,326,-395,-1038,-576,-322,166,60,-396
0,1818122,2227,326,-393,-1048,-578,-326,166,60,-396
0,1818137,2225,326,-390,-1042,-580,-333,166,60,-396
0,1818150,2225,323,-397,-1038,-580,-323,166,60,-396
0,1818165,2225,323,-397,-1038,-580,-323,166,60,-396
0,1818178,2228,325,-388,-1036,-572,-329,166,60,-396
0,1818192,2220,324,-388,-1025,-576,-328,166,60,-392
0,1818206,2220,324,-388,-1025,-576,-328,166,60,-392
0,1818220,2226,326,-394,-1033,-576,-325,166,60,-392
0,1818235,2222,325,-394,-1034,-575,-324,166,60,-392
0,1818251,2222,325,-394,-1034,-575,-324,166,60,-392
0,1818266,2222,325,-394,-1034,-575,-324,166,60,-392
0,1818277,2224,325,-390,-1043,-576,-320,166,60,-392
0,1818293,2225,329,-393,-1036,-579,-330,166,60,-392
0,1818308,2225,329,-393,-1036,-579,-330,166,60,-392
0,1818322,2224,326,-389,-1038,-579,-336,167,55,-391
0,1818335,2225,328,-390,-1038,-579,-327,167,55,-391
0,1818348,2225,328,-390,-1038,-579,-327,167,55,-391
0,1818362,2225,324,-397,-1034,-576,-325,167,55,-391
0,1818377,2225,325,-392,-1034,-573,-332,167,55,-391
0,1818390,2222,328,-387,-1032,-576,-331,167,55,-391
0,1818404,2222,328,-387,-1032,-576,-331,167,55,-391
0,1818417,2225,326,-393,-1039,-580,-326,167,55,-391
0,1818429,2225,326,-393,-1039,-580,-326,167,55,-391
0,1818444,2223,326,-395,-1036,-572,-330,167,55,-391
0,1818460,2224,328,-383,-1031,-573,-326,180,50,-392
0,1818475,2225,324,-388,-1030,-570,-333,180,50,-392
0,1818489,2225,324,-388,-1030,-570,-333,180,50,-392
0,1818502,2226,326,-391,-1037,-577,-328,180,50,-392
0,1818517,2222,326,-392,-1039,-579,-326,180,50,-392
0,1818532,2223,324,-395,-1041,-580,-316,180,50,-392
0,1818547,2223,324,-395,-1041,-580,-316,180,50,-392
0,1818560,2224,324,-392,-1042,-576,-323,180,50,-392
0,1818574,2226,328,-393,-1035,-571,-325,169,65,-393
0,1818588,2226,328,-393,-1035,-571,-325,169,65,-393
0,1818600,2225,325,-387,-1040,-578,-325,169,65,-393
0,1818615,2225,327,-395,-1032,-575,-328,169,65,-393
0,1818630,2225,327,-395,-1032,-575,-328,169,65,-393
0,1818643,2227,326,-390,-1037,-573,-332,169,65,-393
0,1818657,2224,325,-391,-1039,-574,-330,169,65,-393
0,1818672,2225,327,-391,-1035,-577,-324,169,65,-393
0,1818685,2225,327,-391,-1035,-577,-324,169,65,-393
0,1818697,2223,325,-393,-1043,-576,-322,169,65,-393
0,1818712,2225,324,-385,-1035,-580,-330,167,57,-395
0,1818728,2225,324,-385,-1035,-580,-330,167,57,-395
0,1818735,2226,326,-394,-1045,-572,-329,167,57,-395
0,1818750,2226,326,-394,-1045,-572,-329,167,57,-395
0,1818764,2222,324,-396,-1043,-575,-334,167,57,-395
0,1818778,2225,326,-391,-1041,-582,-328,167,57,-395
0,1818795,2224,328,-395,-1035,-576,-327,167,57,-395
0,1818808,2224,328,-395,-1035,-576,-327,167,57,-395
0,1818819,2227,326,-392,-1023,-576,-323,167,57,-395
0,1818833,2223,327,-389,-1032,-577,-330,173,55,-399
0,1818847,2223,327,-389,-1032,-577,-330,173,55,-399
0,1818861,2224,325,-394,-1028,-576,-325,173,55,-399
0,1818875,2226,323,-390,-1037,-573,-323,173,55,-399
0,1818889,2226,323,-390,-1037,-573,-323,173,55,-399
0,1818902,2225,326,-383,-1040,-582,-327,173,55,-399
0,1818914,2224,326,-393,-1036,-583,-323,173,55,-399
0,1818928,2224,326,-393,-1036,-583,-323,173,55,-399
0,1818942,2225,326,-396,-1024,-574,-323,173,55,-399
0,1818956,2223,327,-393,-1020,-574,-326,166,58,-394
0,1818971,2223,327,-393,-1020,-574,-326,166,58,-394
0,1818983,2222,326,-385,-1036,-579,-334,166,58,-394
0,1818997,2223,324,-393,-1038,-568,-325,166,58,-394
0,1819013,2225,325,-388,-1026,-571,-324,166,58,-394
0,1819029,2225,325,-388,-1026,-571,-324,166,58,-394
0,1819044,2227,326,-392,-1038,-579,-332,166,58,-394
0,1819058,2224,326,-391,-1042,-580,-330,166,58,-394
0,1819070,2224,326,-391,-1042,-580,-330,166,58,-394
0,1819084,2225,326,-391,-1039,-574,-328,166,58,-394
0,1819098,2225,327,-394,-1033,-573,-337,173,55,-391
0,1819112,2226,327,-396,-1031,-579,-336,173,55,-391
0,1819126,2226,327,-396,-1031,-579,-336,173,55,-391
0,1819142,2225,325,-395,-1039,-581,-332,173,55,-391
0,1819154,2225,325,-390,-1037,-577,-331,173,55,-391
0,1819166,2225,325,-390,-1037,-577,-331,173,55,-391
0,1819182,2224,326,-391,-1034,-581,-328,173,55,-391
0,1819196,2225,327,-393,-1037,-574,-325,173,55,-391
0,1819210,2225,327,-393,-1037,-574,-325,173,55,-391
0,1819225,2224,324,-394,-1039,-575,-325,163,61,-389
0,1819240,2229,325,-391,-1038,-573,-326,163,61,-389
0,1819255,2226,324,-390,-1043,-578,-327,163,61,-389
0,1819271,2226,324,-390,-1043,-578,-327,163,61,-389
0,1819286,2223,322,-395,-1031,-580,-340,163,61,-389
0,1819300,2223,324,-393,-1037,-580,-333,163,61,-389
0,1819315,2223,325,-390,-1038,-578,-337,163,61,-389
0,1819329,2223,325,-390,-1038,-578,-337,163,61,-389
0,1819343,2229,326,-396,-1040,-576,-323,163,61,-389
0,1819355,2227,328,-389,-1033,-576,-330,169,57,-395
0,1819370,2227,328,-389,-1033,-576,-330,169,57,-395
0,1819383,2224,325,-393,-1029,-577,-325,169,57,-395
0,1819398,2223,326,-393,-1039,-573,-328,169,57,-395
0,1819412,2228,324,-395,-1037,-575,-333,169,57,-395
0,1819425,2228,324,-395,-1037,-575,-333,169,57,-395
0,1819439,2225,324,-395,-1038,-576,-325,169,57,-395
0,1819451,2225,324,-395,-1038,-576,-325,169,57,-395
0,1819466,2225,328,-394,-1045,-579,-323,169,57,-395
0,1819482,2225,328,-387,-1033,-573,-322,168,56,-390
0,1819497,2224,326,-389,-1039,-571,-326,168,56,-390
0,1819509,2224,326,-389,-1039,-571,-326,168,56,-390
0,1819525,2223,327,-391,-1039,-570,-331,168,56,-390
0,1819540,2225,328,-389,-1034,-573,-331,168,56,-390
0,1819554,2225,329,-398,-1039,-579,-318,168,56,-390
0,1819570,2225,329,-398,-1039,-579,-318,168,56,-390
0,1819583,2227,326,-395,-1039,-572,-324,168,56,-390
0,1819597,2222,324,-396,-1039,-576,-321,168,56,-390
0,1819612,2222,324,-396,-1039,-576,-321,168,56,-390
0,1819624,2226,327,-392,-1046,-583,-330,164,50,-388
0,1819638,2224,324,-388,-1047,-582,-334,164,50,-388
0,1819652,2221,324,-397,-1037,-580,-331,164,50,-388
0,1819666,2221,324,-397,-1037,-580,-331,164,50,-388
0,1819680,2225,326,-393,-1033,-573,-329,164,50,-388
0,1819695,2224,326,-387,-1032,-575,-325,164,50,-388
0,1819710,2224,326,-387,-1032,-575,-325,164,50,-388
0,1819725,2226,326,-393,-1032,-578,-329,164,50,-388
0,1819742,2225,324,-386,-1032,-571,-332,171,59,-387
0,1819756,2224,327,-393,-1036,-576,-330,171,59,-387
0,1819772,2228,326,-394,-1036,-579,-324,171,59,-387
0,1819787,2228,326,-394,-1036,-579,-324,171,59,-387
0,1819801,2225,328,-392,-1030,-582,-328,171,59,-387
0,1819815,2228,320,-392,-1037,-583,-335,171,59,-387
0,1819831,2228,320,-392,-1037,-583,-335,171,59,-387
0,1819843,2226,325,-392,-1036,-576,-331,171,59,-387
0,1819856,2225,326,-390,-1026,-569,-325,173,59,-397
0,1819871,2225,326,-390,-1026,-569,-325,173,59,-397
0,1819885,2222,327,-390,-1028,-565,-327,173,59,-397
0,1819899,2221,326,-392,-1035,-579,-329,173,59,-397
0,1819914,2221,326,-392,-1035,-579,-329,173,59,-397
0,1819926,2221,326,-392,-1035,-579,-329,173,59,-397
0,1819940,2226,324,-392,-1039,-580,-335,173,59,-397
0,1819954,2224,326,-391,-1033,-581,-328,173,59,-397
0,1819969,2224,326,-391,-1033,-581,-328,173,59,-397
0,1819984,2224,325,-392,-1036,-577,-327,173,59,-397
0,1819999,2221,326,-388,-1024,-580,-325,167,63,-397
0,1820013,2225,324,-394,-1033,-574,-330,167,63,-397
0,1820026,2225,324,-394,-1033,-574,-330,167,63,-397
0,1820042,2224,326,-390,-1035,-578,-331,167,63,-397
0,1820057,2225,326,-385,-1036,-573,-321,167,63,-397
0,1820072,2226,326,-391,-1036,-572,-321,167,63,-397
0,1820087,2226,326,-391,-1036,-572,-321,167,63,-397
0,1820101,2225,329,-392,-1036,-576,-322,167,63,-397
0,1820115,2224,327,-396,-1033,-575,-329,172,50,-386
0,1820130,2224,327,-396,-1033,-575,-329,172,50,-386
0,1820145,2225,327,-391,-1035,-572,-333,172,50,-386
0,1820156,2222,327,-389,-1031,-577,-329,172,50,-386
0,1820172,2222,327,-389,-1031,-577,-329,172,50,-386
0,1820187,2225,324,-395,-1032,-577,-325,172,50,-386
0,1820197,2225,327,-390,-1046,-578,-326,172,50,-386
0,1820210,2225,327,-390,-1046,-578,-326,172,50,-386
0,1820225,2225,328,-394,-1035,-571,-331,172,50,-386
0,1820240,2225,325,-389,-1029,-565,-334,172,50,-386
0,1820255,2225,328,-389,-1037,-570,-331,170,56,-388
0,1820269,2225,328,-389,-1037,-570,-331,170,56,-388
0,1820283,2227,329,-395,-1042,-571,-325,170,56,-388
0,1820299,2225,328,-395,-1033,-572,-323,170,56,-388
0,1820312,2225,328,-395,-1033,-572,-323,170,56,-388
0,1820325,2226,325,-396,-1033,-570,-326,170,56,-388
0,1820339,2224,326,-391,-1043,-572,-328,170,56,-388
0,1820353,2224,323,-391,-1035,-571,-333,170,56,-388
0,1820367,2224,323,-391,-1035,-571,-333,170,56,-388
0,1820381,2224,323,-391,-1035,-571,-333,165,57,-387
0,1820396,2226,327,-392,-1036,-579,-330,165,57,-387
0,1820411,2226,327,-392,-1036,-579,-330,165,57,-387
0,1820425,2226,327,-387,-1033,-578,-327,165,57,-387
0,1820439,2225,326,-387,-1046,-578,-332,165,57,-387
0,1820454,2224,326,-387,-1035,-577,-328,165,57,-387
0,1820469,2224,326,-387,-1035,-577,-328,165,57,-387
0,1820484,2224,329,-390,-1029,-572,-323,165,57,-387
0,1820496,2226,326,-395,-1033,-575,-323,178,56,-398
0,1820509,2226,326,-395,-1033,-575,-323,178,56,-398
0,1820522,2224,326,-392,-1032,-570,-324,178,56,-398
0,1820536,2225,327,-387,-1037,-570,-326,178,56,-398
0,1820551,2225,327,-387,-1037,-570,-326,178,56,-398
0,1820565,2225,327,-387,-1037,-570,-326,178,56,-398
0,1820578,2224,326,-382,-1035,-575,-324,178,56,-398
0,1820590,2224,326,-382,-1035,-575,-324,178,56,-398
0,1820606,2223,325,-390,-1032,-581,-320,178,56,-398
0,1820619,2222,326,-388,-1033,-577,-330,178,56,-398
0,1820634,2226,329,-386,-1033,-566,-326,170,56,-390
0,1820646,2226,329,-386,-1033,-566,-326,170,56,-390
0,1820661,2223,326,-391,-1033,-574,-332,170,56,-390
0,1820676,2222,329,-392,-1039,-574,-334,170,56,-390
0,1820690,2222,329,-392,-1039,-574,-334,170,56,-390
0,1820703,2223,325,-391,-1036,-575,-325,170,56,-390
0,1820717,2224,324,-397,-1038,-576,-336,170,56,-390
0,1820731,2224,324,-397,-1038,-576,-336,170,56,-390
0,1820747,2223,327,-391,-1033,-577,-334,170,56,-390
0,1820760,2226,329,-394,-1032,-569,-327,168,58,-396
0,1820773,2226,329,-394,-1032,-569,-327,168,58,-396
0,1820787,2227,325,-387,-1040,-572,-330,168,58,-396
0,1820802,2225,324,-393,-1029,-579,-330,168,58,-396
0,1820816,2224,325,-391,-1030,-572,-330,168,58,-396
0,1820831,2224,325,-391,-1030,-572,-330,168,58,-396
0,1820848,2225,322,-391,-1045,-573,-328,168,58,-396
0,1820862,2223,327,-394,-1034,-573,-324,168,58,-396
0,1820875,2225,328,-387,-1033,-573,-335,168,58,-396
0,1820886,2225,328,-387,-1033,-573,-335,168,58,-396
0,1820895,2226,328,-388,-1035,-573,-331,181,69,-393
0,1820910,2226,328,-388,-1035,-573,-331,181,69,-393
0,1820924,2226,326,-390,-1041,-578,-327,181,69,-393
0,1820939,2223,326,-392,-1036,-580,-328,181,69,-393
0,1820954,2227,326,-391,-1038,-578,-325,181,69,-393
0,1820967,2227,326,-391,-1038,-578,-325,181,69,-393
0,1820979,2225,328,-389,-1038,-579,-324,181,69,-393
0,1820993,2225,328,-389,-1038,-579,-324,181,69,-393
0,1821006,2224,328,-396,-1028,-574,-335,181,69,-393
0,1821021,2222,326,-390,-1035,-572,-330,178,50,-392
0,1821035,2224,327,-391,-1036,-573,-332,178,50,-392
0,1821046,2224,327,-391,-1036,-573,-332,178,50,-392
0,1821059,2225,324,-399,-1035,-574,-331,178,50,-392
0,1821075,2221,325,-391,-1043,-571,-325,178,50,-392
0,1821089,2221,325,-391,-1043,-571,-325,178,50,-392
0,1821104,2224,325,-392,-1033,-570,-329,178,50,-392
0,1821117,2224,325,-396,-1029,-573,-335,178,50,-392
0,1821132,2224,325,-396,-1029,-573,-335,178,50,-392
0,1821148,2228,324,-391,-1036,-577,-329,178,50,-392
0,1821160,2222,326,-395,-1032,-578,-325,172,56,-392
0,1821173,2225,327,-393,-1032,-583,-328,172,56,-392
0,1821188,2225,327,-393,-1032,-583,-328,172,56,-392
0,1821200,2223,326,-397,-1042,-578,-330,172,56,-392
0,1821215,2227,327,-395,-1032,-579,-333,172,56,-392
0,1821229,2227,327,-395,-1032,-579,-333,172,56,-392
0,1821243,2225,325,-388,-1047,-578,-330,172,56,-392
0,1821257,2224,327,-392,-1043,-576,-333,172,56,-392
0,1821271,2224,327,-392,-1043,-576,-333,172,56,-392
0,1821285,2226,326,-391,-1045,-577,-332,172,56,-390
0,1821300,2228,327,-392,-1034,-578,-328,172,56,-390
0,1821314,2228,327,-392,-1034,-578,-328,172,56,-390
0,1821327,2228,324,-395,-1038,-580,-328,172,56,-390
0,1821342,2225,328,-392,-1042,-582,-326,172,56,-390
0,1821358,2227,324,-394,-1044,-580,-325,172,56,-390
0,1821373,2227,324,-394,-1044,-580,-325,172,56,-390
0,1821382,2227,324,-394,-1044,-580,-325,172,56,-390
0,1821396,2224,325,-392,-1039,-579,-325,173,47,-387
0,1821410,2224,325,-392,-1039,-579,-325,173,47,-387
0,1821424,2224,327,-383,-1030,-578,-327,173,47,-387
0,1821437,2225,325,-395,-1033,-583,-331,173,47,-387
0,1821453,2225,325,-395,-1033,-583,-331,173,47,-387
0,1821466,2225,327,-394,-1028,-580,-327,173,47,-387
0,1821478,2223,325,-389,-1029,-571,-326,173,47,-387
0,1821493,2223,325,-389,-1029,-571,-326,173,47,-387
0,1821506,2223,323,-394,-1033,-573,-328,173,47,-387
0,1821520,2223,323,-391,-1034,-576,-327,173,47,-387
0,1821536,2225,323,-394,-1033,-573,-329,166,56,-400
0,1821551,2225,323,-394,-1033,-573,-329,166,56,-400
0,1821564,2225,324,-392,-1031,-571,-330,166,56,-400
0,1821578,2224,325,-387,-1037,-580,-329,166,56,-400
0,1821593,2224,325,-387,-1037,-580,-329,166,56,-400
0,1821602,2224,327,-388,-1039,-576,-329,166,56,-400
0,1821617,2221,325,-390,-1038,-584,-331,166,56,-400
0,1821632,2221,325,-390,-1038,-584,-331,166,56,-400
0,1821645,2225,324,-392,-1038,-579,-320,166,56,-400
0,1821659,2224,325,-394,-1045,-583,-321,171,51,-395
0,1821673,2224,325,-394,-1045,-583,-321,171,51,-395
0,1821687,2225,327,-396,-1037,-579,-316,171,51,-395
0,1821701,2224,324,-393,-1047,-574,-328,171,51,-395
0,1821713,2224,324,-393,-1047,-574,-328,171,51,-395
0,1821727,2226,324,-390,-1035,-577,-332,171,51,-395
0,1821741,2226,324,-389,-1032,-571,-318,171,51,-395
0,1821755,2226,326,-394,-1032,-579,-332,171,51,-395
0,1821767,2226,326,-394,-1032,-579,-332,171,51,-395
0,1821779,2226,327,-391,-1031,-578,-329,171,51,-395
0,1821795,2229,326,-393,-1030,-575,-329,174,52,-398
0,1821810,2229,326,-393,-1030,-575,-329,174,52,-398
0,1821825,2225,324,-387,-1026,-585,-328,174,52,-398
0,1821837,2222,321,-394,-1035,-575,-327,174,52,-398
0,1821849,2222,321,-394,-1035,-575,-327,174,52,-398
0,1821863,2224,327,-395,-1036,-571,-331,174,52,-398
0,1821878,2224,326,-389,-1034,-573,-322,174,52,-398
0,1821891,2224,326,-389,-1034,-573,-322,174,52,-398
0,1821905,2225,321,-399,-1038,-575,-332,174,52,-398
0,1821921,2226,326,-390,-1035,-577,-341,170,58,-392
0,1821933,2226,326,-390,-1035,-577,-341,170,58,-392
0,1821946,2223,326,-384,-1032,-583,-329,170,58,-392
0,1821960,2223,325,-389,-1033,-579,-333,170,58,-392
0,1821974,2223,325,-389,-1033,-579,-333,170,58,-392
0,1821988,2222,327,-393,-1033,-576,-334,170,58,-392
0,1822001,2223,325,-393,-1036,-573,-327,170,58,-392
0,1822014,2223,325,-393,-1036,-573,-327,170,58,-392
0,1822028,2226,329,-394,-1034,-567,-327,170,58,-392
0,1822043,2225,327,-398,-1033,-570,-329,170,58,-392
0,1822056,2222,324,-391,-1033,-571,-327,176,58,-396
0,1822070,2222,324,-391,-1033,-571,-327,176,58,-396
0,1822085,2224,327,-389,-1032,-571,-323,176,58,-396
0,1822100,2224,327,-391,-1031,-579,-326,176,58,-396
0,1822113,2224,327,-391,-1031,-579,-326,176,58,-396
0,1822128,2224,325,-393,-1029,-566,-328,176,58,-396
0,1822142,2228,323,-395,-1032,-576,-332,176,58,-396
0,1822155,2226,328,-390,-1041,-581,-336,176,58,-396
0,1822170,2226,328,-390,-1041,-581,-336,176,58,-396
0,1822182,2225,328,-381,-1033,-579,-329,170,60,-386
0,1822196,2224,327,-387,-1041,-572,-325,170,60,-386
0,1822210,2224,327,-387,-1041,-572,-325,170,60,-386
0,1822224,2223,325,-385,-1043,-574,-333,170,60,-386
0,1822238,2227,327,-392,-1033,-579,-331,170,60,-386
0,1822253,2227,327,-392,-1033,-579,-331,170,60,-386
0,1822266,2223,326,-392,-1035,-579,-325,170,60,-386
0,1822280,2225,330,-392,-1041,-567,-325,170,60,-386
0,1822297,2225,325,-392,-1038,-574,-336,173,61,-387
0,1822312,2225,325,-392,-1038,-574,-336,173,61,-387
0,1822327,2223,330,-389,-1034,-574,-333,173,61,-387
0,1822341,2222,326,-395,-1033,-578,-328,173,61,-387
0,1822353,2222,326,-395,-1033,-578,-328,173,61,-387
0,1822367,2224,329,-392,-1037,-572,-326,173,61,-387
0,1822382,2224,326,-394,-1036,-571,-329,173,61,-387
0,1822395,2226,327,-396,-1035,-573,-325,173,61,-387
0,1822409,2226,327,-396,-1035,-573,-325,173,61,-387
0,1822420,2224,326,-393,-1044,-565,-325,173,61,-387
0,1822433,2224,326,-393,-1044,-565,-325,173,61,-387
0,1822441,2225,327,-386,-1038,-573,-335,173,65,-395
0,1822452,2225,327,-386,-1038,-573,-335,173,65,-395
0,1822466,2221,325,-387,-1032,-570,-326,173,65,-395
0,1822481,2225,326,-390,-1035,-575,-328,173,65,-395
0,1822494,2225,326,-390,-1035,-575,-328,173,65,-395
0,1822509,2226,328,-394,-1037,-570,-326,173,65,-395
0,1822520,2224,327,-392,-1031,-570,-325,173,65,-395
0,1822533,2224,327,-392,-1031,-570,-325,173,65,-395
0,1822548,2223,325,-393,-1036,-575,-328,173,65,-395
0,1822563,2225,326,-391,-1037,-569,-335,173,55,-393
0,1822577,2225,326,-390,-1037,-575,-324,173,55,-393
0,1822588,2225,326,-390,-1037,-575,-324,173,55,-393
0,1822603,2225,325,-389,-1043,-575,-322,173,55,-393
0,1822617,2224,326,-393,-1032,-571,-322,173,55,-393
0,1822630,2224,326,-393,-1032,-571,-322,173,55,-393
0,1822645,2227,327,-395,-1037,-576,-327,173,55,-393
0,1822659,2226,324,-396,-1033,-574,-329,173,55,-393
0,1822671,2226,324,-396,-1033,-574,-329,173,55,-393
0,1822684,2225,324,-393,-1044,-575,-329,173,55,-393
0,1822697,2227,324,-393,-1034,-570,-327,169,59,-395
0,1822710,2227,324,-393,-1034,-570,-327,169,59,-395
0,1822726,2224,325,-393,-1042,-576,-327,169,59,-395
0,1822741,2224,322,-386,-1034,-578,-327,169,59,-395
0,1822756,2227,325,-393,-1038,-573,-328,169,59,-395
0,1822772,2227,325,-393,-1038,-573,-328,169,59,-395
0,1822786,2228,323,-389,-1029,-573,-326,169,59,-395
0,1822800,2226,325,-397,-1030,-572,-326,169,59,-395
0,1822815,2226,325,-397,-1030,-572,-326,169,59,-395
0,1822829,2225,324,-385,-1026,-568,-330,169,59,-395
0,1822841,2225,326,-387,-1033,-565,-332,169,59,-395
0,1822854,2225,326,-387,-1033,-565,-332,169,59,-395
0,1822868,2226,327,-397,-1036,-570,-332,169,59,-395
0,1822882,2227,326,-391,-1042,-574,-326,169,59,-395
0,1822896,2228,326,-394,-1039,-578,-330,169,59,-395
0,1822904,2228,326,-394,-1039,-578,-330,169,59,-395
0,1822918,2226,326,-394,-1035,-572,-324,169,59,-395
0,1822932,2226,326,-394,-1035,-572,-324,169,59,-395
0,1822946,2221,325,-387,-1037,-575,-329,168,58,-392
0,1822961,2223,324,-386,-1036,-572,-326,168,58,-392
0,1822977,2223,325,-394,-1038,-573,-333,168,58,-392
0,1822992,2223,325,-394,-1038,-573,-333,168,58,-392
0,1823007,2227,326,-390,-1042,-575,-334,168,58,-392
0,1823021,2222,326,-391,-1031,-576,-333,168,58,-392
0,1823033,2222,326,-391,-1031,-576,-333,168,58,-392
0,1823048,2224,325,-391,-1040,-567,-331,168,58,-392
0,1823062,2225,326,-393,-1032,-571,-325,168,58,-392
0,1823075,2225,326,-393,-1032,-571,-325,168,58,-392
0,1823090,2225,326,-393,-1032,-571,-325,167,59,-399
0,1823104,2223,326,-389,-1036,-570,-326,167,59,-399
0,1823117,2224,326,-388,-1034,-571,-334,167,59,-399
0,1823131,2224,326,-388,-1034,-571,-334,167,59,-399
0,1823145,2225,325,-397,-1034,-577,-326,167,59,-399
0,1823161,2224,328,-388,-1033,-572,-334,167,59,-399
0,1823174,2224,328,-388,-1033,-572,-334,167,59,-399
0,1823186,2226,326,-390,-1034,-575,-325,167,59,-399
0,1823202,2225,331,-391,-1035,-575,-324,168,58,-392
0,1823214,2225,331,-391,-1035,-575,-324,168,58,-392
0,1823227,2224,328,-388,-1036,-577,-331,168,58,-392
0,1823243,2225,327,-390,-1039,-567,-332,168,58,-392
0,1823258,2226,328,-388,-1042,-572,-331,168,58,-392
0,1823272,2226,328,-388,-1042,-572,-331,168,58,-392
0,1823286,2226,325,-388,-1035,-573,-325,168,58,-392
0,1823300,2223,325,-393,-1034,-573,-329,168,58,-392
0,1823313,2223,325,-393,-1034,-573,-329,168,58,-392
0,1823329,2225,324,-392,-1035,-574,-334,168,58,-392
0,1823341,2225,325,-394,-1038,-577,-328,168,58,-396
0,1823354,2225,325,-394,-1038,-577,-328,168,58,-396
0,1823369,2224,326,-388,-1036,-580,-330,168,58,-396
0,1823383,2224,326,-392,-1038,-578,-335,168,58,-396
0,1823396,2224,324,-393,-1031,-580,-329,168,58,-396
0,1823409,2224,324,-393,-1031,-580,-329,168,58,-396
0,1823422,2228,328,-395,-1037,-584,-336,168,58,-396
0,1823435,2228,328,-395,-1037,-584,-336,168,58,-396
0,1823451,2223,323,-391,-1036,-573,-329,168,58,-396
0,1823464,2225,327,-388,-1029,-578,-330,166,50,-392
0,1823476,2225,327,-388,-1029,-578,-330,166,50,-392
0,1823491,2222,325,-388,-1034,-582,-324,166,50,-392
0,1823505,2222,325,-387,-1043,-575,-324,166,50,-392
0,1823519,2223,327,-397,-1031,-578,-329,166,50,-392
0,1823533,2223,327,-397,-1031,-578,-329,166,50,-392
0,1823547,2225,325,-393,-1033,-578,-329,166,50,-392
0,1823561,2224,328,-389,-1035,-578,-327,166,50,-392
0,1823572,2224,328,-389,-1035,-578,-327,166,50,-392
0,1823586,2223,325,-385,-1037,-577,-328,166,50,-392
0,1823600,2227,326,-390,-1032,-568,-327,168,64,-396
0,1823613,2227,326,-390,-1032,-568,-327,168,64,-396
0,1823625,2223,325,-384,-1028,-576,-320,168,64,-396
0,1823639,2227,323,-392,-1032,-570,-324,168,64,-396
0,1823651,2227,323,-392,-1032,-570,-324,168,64,-396
0,1823665,2224,323,-391,-1027,-572,-332,168,64,-396
0,1823679,2227,326,-395,-1037,-576,-330,168,64,-396
0,1823694,2227,326,-395,-1037,-576,-330,168,64,-396
0,1823710,2220,325,-395,-1038,-576,-331,168,64,-396
0,1823723,2224,328,-388,-1032,-576,-332,158,64,-392
0,1823737,2226,323,-384,-1030,-568,-324,158,64,-392
0,1823752,2226,323,-384,-1030,-568,-324,158,64,-392
0,1823763,2225,324,-386,-1024,-569,-331,158,64,-392
0,1823775,2225,324,-386,-1024,-569,-331,158,64,-392
0,1823789,2226,327,-395,-1030,-577,-332,158,64,-392
0,1823803,2222,327,-397,-1036,-581,-321,158,64,-392
0,1823817,2225,325,-393,-1040,-576,-327,158,64,-392
0,1823832,2225,325,-393,-1040,-576,-327,158,64,-392
0,1823845,2225,325,-391,-1036,-577,-327,155,63,-389
0,1823858,2224,326,-389,-1041,-573,-334,155,63,-389
0,1823875,2224,326,-389,-1041,-573,-334,155,63,-389
0,1823889,2227,326,-393,-1042,-577,-332,155,63,-389
0,1823903,2225,325,-390,-1031,-577,-330,155,63,-389
0,1823916,2225,325,-390,-1031,-577,-330,155,63,-389
0,1823931,2225,325,-390,-1031,-577,-330,155,63,-389
0,1823946,2224,326,-391,-1041,-578,-331,155,63,-389
0,1823959,2226,324,-393,-1037,-578,-332,155,63,-389
0,1823973,2226,324,-393,-1037,-578,-332,155,63,-389
0,1823987,2225,327,-388,-1041,-580,-328,171,55,-397
0,1824001,2225,327,-386,-1037,-572,-330,171,55,-397
0,1824013,2225,327,-386,-1037,-572,-330,171,55,-397
0,1824028,2223,322,-384,-1031,-577,-326,171,55,-397
0,1824043,2225,323,-389,-1036,-582,-327,171,55,-397
0,1824056,2225,323,-389,-1036,-582,-327,171,55,-397
0,1824069,2222,327,-392,-1036,-576,-326,171,55,-397
0,1824082,2224,328,-392,-1035,-578,-334,171,55,-397
0,1824098,2225,327,-390,-1028,-577,-333,172,56,-392
0,1824111,2225,327,-390,-1028,-577,-333,172,56,-392
0,1824124,2227,324,-387,-1029,-579,-324,172,56,-392
0,1824139,2226,326,-391,-1032,-574,-323,172,56,-392
0,1824152,2226,326,-391,-1032,-574,-323,172,56,-392
0,1824166,2229,326,-395,-1030,-573,-333,172,56,-392
0,1824182,2225,322,-391,-1034,-566,-325,172,56,-392
0,1824195,2225,322,-391,-1034,-566,-325,172,56,-392
0,1824208,2223,324,-391,-1025,-571,-330,172,56,-392
0,1824224,2224,326,-396,-1038,-575,-324,172,56,-392
0,1824237,2224,326,-396,-1038,-575,-324,172,56,-392
0,1824248,2223,330,-389,-1035,-577,-328,171,55,-393
0,1824263,2226,328,-385,-1033,-582,-330,171,55,-393
0,1824276,2226,328,-385,-1033,-582,-330,171,55,-393
0,1824290,2225,325,-392,-1031,-573,-322,171,55,-393
0,1824304,2225,327,-390,-1037,-576,-323,171,55,-393
0,1824317,2225,327,-390,-1037,-576,-323,171,55,-393
0,1824333,2226,325,-393,-1044,-575,-324,171,55,-393
0,1824348,2228,327,-392,-1039,-576,-331,171,55,-393
0,1824360,2224,327,-392,-1037,-576,-333,168,58,-392
0,1824373,2224,327,-392,-1037,-576,-333,168,58,-392
0,1824381,2224,326,-394,-1037,-584,-329,168,58,-392
0,1824391,2224,326,-394,-1037,-584,-329,168,58,-392
0,1824399,2225,328,-390,-1029,-570,-328,168,58,-392
0,1824407,2225,328,-390,-1029,-570,-328,168,58,-392
0,1824415,2225,328,-390,-1029,-570,-328,168,58,-392
0,1824427,2223,326,-391,-1029,-572,-331,168,58,-392
0,1824435,2223,326,-391,-1029,-572,-331,168,58,-392
0,1824443,2226,329,-390,-1036,-584,-329,168,58,-392
0,1824451,2226,329,-390,-1036,-584,-329,168,58,-392
0,1824462,2225,325,-389,-1031,-578,-332,168,58,-392
0,1824473,2225,325,-389,-1031,-578,-332,168,58,-392
0,1824482,2227,327,-389,-1026,-580,-331,166,54,-388
0,1824490,2227,327,-389,-1026,-580,-331,166,54,-388
0,1824500,2227,326,-389,-1035,-576,-322,166,54,-388
0,1824509,2227,326,-389,-1035,-576,-322,166,54,-388
0,1824522,2224,324,-393,-1032,-582,-328,166,54,-388
0,1824530,2224,324,-393,-1032,-582,-328,166,54,-388
0,1824539,2221,324,-388,-1040,-571,-328,166,54,-388
0,1824549,2221,324,-388,-1040,-571,-328,166,54,-388
0,1824559,2222,327,-392,-1038,-575,-327,166,54,-388
0,1824565,2222,327,-392,-1038,-575,-327,166,54,-388
0,1824574,2222,327,-392,-1038,-575,-327,166,54,-388
0,1824584,2225,327,-389,-1036,-583,-338,166,54,-388
0,1824593,2225,327,-389,-1036,-583,-338,166,54,-388
0,1824603,2225,325,-394,-1034,-573,-333,166,54,-388
0,1824614,2225,325,-394,-1034,-573,-333,166,54,-388
0,1824623,2226,327,-387,-1039,-581,-325,171,61,-393
0,1824632,2226,327,-387,-1039,-581,-325,171,61,-393
0,1824642,2225,326,-383,-1032,-577,-329,171,61,-393
0,1824652,2225,326,-383,-1032,-577,-329,171,61,-393
0,1824661,2226,326,-392,-1032,-573,-321,171,61,-393
0,1824671,2226,326,-392,-1032,-573,-321,171,61,-393
0,1824683,2225,326,-389,-1031,-571,-324,171,61,-393
0,1824692,2225,326,-389,-1031,-571,-324,171,61,-393
0,1824701,2226,326,-392,-1036,-573,-322,171,61,-393
0,1824710,2226,326,-392,-1036,-573,-322,171,61,-393
0,1824719,2230,326,-400,-1038,-577,-326,171,61,-393
0,1824728,2230,326,-400,-1038,-577,-326,171,61,-393
0,1824739,2224,325,-396,-1036,-573,-329,172,64,-392
0,1824748,2224,325,-396,-1036,-573,-329,172,64,-392
0,1824757,2224,325,-396,-1036,-573,-329,172,64,-392
0,1824766,2226,326,-392,-1028,-571,-326,172,64,-392
0,1824775,2226,326,-392,-1028,-571,-326,172,64,-392
0,1824785,2222,322,-391,-1034,-565,-325,172,64,-392
0,1824793,2222,322,-391,-1034,-565,-325,172,64,-392
0,1824802,2224,325,-384,-1041,-569,-331,172,64,-392
0,1824811,2224,325,-384,-1041,-569,-331,172,64,-392
0,1824821,2226,326,-389,-1030,-577,-325,172,64,-392
0,1824830,2226,326,-389,-1030,-577,-325,172,64,-392
0,1824839,2225,329,-393,-1034,-568,-329,172,64,-392
0,1824849,2225,329,-393,-1034,-568,-329,172,64,-392
0,1824858,2225,329,-393,-1034,-568,-329,172,64,-392
0,1824868,2224,325,-398,-1035,-576,-327,172,64,-392
0,1824877,2224,325,-398,-1035,-576,-327,172,64,-392
0,1824885,2227,326,-390,-1028,-572,-329,170,58,-394
0,1824893,2227,326,-390,-1028,-572,-329,170,58,-394
0,1824903,2223,327,-396,-1039,-582,-330,170,58,-394
0,1824913,2223,327,-396,-1039,-582,-330,170,58,-394
0,1824923,2223,326,-392,-1038,-577,-323,170,58,-394
0,1824932,2223,326,-392,-1038,-577,-323,170,58,-394
0,1824941,2227,326,-395,-1030,-575,-327,170,58,-394
0,1824951,2227,326,-395,-1030,-575,-327,170,58,-394
0,1824959,2223,325,-395,-1033,-574,-325,170,58,-394
0,1824967,2223,325,-395,-1033,-574,-325,170,58,-394
0,1824974,2223,325,-395,-1033,-574,-325,170,58,-394
0,1824983,2223,325,-392,-1043,-570,-327,170,58,-394
0,1824993,2223,325,-392,-1043,-570,-327,170,58,-394
0,1825001,2225,321,-384,-1042,-576,-332,171,55,-389
0,1825010,2225,321,-384,-1042,-576,-332,171,55,-389
0,1825019,2226,327,-392,-1030,-575,-333,171,55,-389
0,1825030,2226,327,-392,-1030,-575,-333,171,55,-389
0,1825040,2226,326,-392,-1034,-581,-332,171,55,-389
0,1825049,2226,326,-392,-1034,-581,-332,171,55,-389
0,1825057,2226,326,-392,-1034,-581,-332,171,55,-389
0,1825069,2227,325,-392,-1030,-578,-328,171,55,-389
0,1825078,2227,325,-392,-1030,-578,-328,171,55,-389
0,1825086,2227,326,-391,-1027,-571,-325,171,55,-389
0,1825095,2227,326,-391,-1027,-571,-325,171,55,-389
0,1825105,2228,327,-390,-1035,-582,-327,171,55,-389
0,1825114,2228,327,-390,-1035,-582,-327,171,55,-389
0,1825124,2226,325,-392,-1032,-574,-322,171,55,-389
0,1825134,2226,325,-392,-1032,-574,-322,171,55,-389
0,1825143,2226,324,-382,-1032,-575,-326,177,55,-395
0,1825154,2226,324,-382,-1032,-575,-326,177,55,-395
0,1825161,2224,328,-396,-1038,-573,-330,177,55,-395
0,1825172,2224,328,-396,-1038,-573,-330,177,55,-395
0,1825183,2224,326,-392,-1036,-581,-330,177,55,-395
0,1825191,2224,326,-392,-1036,-581,-330,177,55,-395
0,1825202,2225,328,-396,-1031,-571,-333,177,55,-395
0,1825211,2225,328,-396,-1031,-571,-333,177,55,-395
0,1825221,2228,328,-390,-1032,-573,-326,177,55,-395
0,1825231,2228,328,-390,-1032,-573,-326,177,55,-395
0,1825240,2224,325,-393,-1034,-570,-319,177,55,-395
0,1825248,2224,325,-393,-1034,-570,-319,177,55,-395
0,1825256,2224,325,-393,-1034,-570,-319,177,55,-395
0,1825263,2224,326,-386,-1031,-568,-317,167,51,-399
0,1825274,2224,326,-386,-1031,-568,-317,167,51,-399
0,1825284,2229,326,-392,-1030,-570,-328,167,51,-399
0,1825293,2229,326,-392,-1030,-570,-328,167,51,-399
0,1825303,2224,326,-384,-1035,-576,-322,167,51,-399
0,1825311,2224,326,-384,-1035,-576,-322,167,51,-399
0,1825321,2226,326,-388,-1032,-571,-327,167,51,-399
0,1825332,2226,326,-388,-1032,-571,-327,167,51,-399
0,1825342,2223,326,-392,-1032,-577,-328,167,51,-399
0,1825353,2223,326,-392,-1032,-577,-328,167,51,-399
0,1825362,2221,327,-398,-1036,-579,-325,167,51,-399
0,1825373,2221,327,-398,-1036,-579,-325,167,51,-399
0,1825384,2225,325,-391,-1038,-585,-329,167,55,-387
0,1825393,2225,325,-391,-1038,-585,-329,167,55,-387
0,1825403,2221,327,-393,-1035,-574,-325,167,55,-387
0,1825414,2221,327,-393,-1035,-574,-325,167,55,-387
0,1825422,2226,325,-392,-1023,-564,-326,167,55,-387
0,1825433,2226,325,-392,-1023,-564,-326,167,55,-387
0,1825444,2225,325,-397,-1035,-573,-328,167,55,-387
0,1825454,2225,325,-397,-1035,-573,-328,167,55,-387
0,1825465,2227,327,-390,-1037,-582,-330,167,55,-387
0,1825476,2227,327,-390,-1037,-582,-330,167,55,-387
0,1825487,2225,325,-394,-1042,-582,-331,167,55,-387
0,1825497,2225,325,-394,-1042,-582,-331,167,55,-387
0,1825505,2223,327,-396,-1037,-577,-332,167,55,-387
0,1825515,2223,327,-396,-1037,-577,-332,167,55,-387
0,1825526,2227,326,-388,-1038,-576,-336,173,61,-393
0,1825538,2227,326,-388,-1038,-576,-336,173,61,-393
0,1825549,2224,328,-391,-1029,-572,-336,173,61,-393
0,1825559,2223,326,-388,-1035,-577,-333,173,61,-393
0,1825569,2223,326,-388,-1035,-577,-333,173,61,-393
0,1825579,2223,326,-388,-1035,-577,-333,173,61,-393
0,1825588,2224,325,-392,-1037,-580,-326,173,61,-393
0,1825599,2224,325,-392,-1037,-580,-326,173,61,-393
0,1825608,2225,324,-398,-1034,-576,-326,173,61,-393
0,1825619,2224,325,-392,-1025,-573,-322,173,61,-393
0,1825629,2224,325,-392,-1025,-573,-322,173,61,-393
0,1825638,2224,325,-392,-1025,-573,-322,173,61,-393
0,1825648,2226,325,-396,-1029,-575,-323,168,62,-392
0,1825657,2226,325,-396,-1029,-575,-323,168,62,-392
0,1825667,2227,327,-389,-1034,-575,-326,168,62,-392
0,1825675,2227,327,-389,-1034,-575,-326,168,62,-392
0,1825686,2226,325,-390,-1033,-578,-322,168,62,-392
0,1825696,2226,325,-390,-1033,-578,-322,168,62,-392
0,1825707,2224,326,-392,-1027,-582,-329,168,62,-392
0,1825716,2224,326,-392,-1027,-582,-329,168,62,-392
0,1825726,2226,327,-396,-1035,-583,-329,168,62,-392
0,1825735,2226,327,-396,-1035,-583,-329,168,62,-392
0,1825746,2225,328,-398,-1038,-572,-323,168,62,-392
0,1825756,2225,328,-398,-1038,-572,-323,168,62,-392
0,1825766,2222,327,-393,-1028,-574,-319,168,62,-392
0,1825775,2222,327,-393,-1028,-574,-319,168,62,-392
0,1825785,2223,325,-387,-1033,-579,-324,166,52,-396
0,1825795,2223,325,-387,-1033,-579,-324,166,52,-396
0,1825806,2228,323,-389,-1029,-578,-332,166,52,-396
0,1825816,2228,323,-389,-1029,-578,-332,166,52,-396
0,1825824,2224,325,-390,-1031,-575,-334,166,52,-396
0,1825835,2224,325,-390,-1031,-575,-334,166,52,-396
0,1825845,2227,322,-395,-1032,-567,-325,166,52,-396
0,1825854,2227,322,-395,-1032,-567,-325,166,52,-396
0,1825865,2227,325,-392,-1035,-569,-324,166,52,-396
0,1825874,2227,325,-392,-1035,-569,-324,166,52,-396
0,1825888,2222,326,-395,-1043,-574,-324,166,52,-396
0,1825898,2222,326,-395,-1043,-574,-324,166,52,-396
0,1825905,2221,324,-384,-1038,-576,-321,166,62,-392
0,1825915,2221,324,-384,-1038,-576,-321,166,62,-392
0,1825924,2226,325,-389,-1033,-573,-327,166,62,-392
0,1825933,2226,325,-389,-1033,-573,-327,166,62,-392
0,1825943,2227,329,-396,-1034,-568,-318,166,62,-392
0,1825951,2227,329,-396,-1034,-568,-318,166,62,-392
0,1825959,2224,327,-392,-1037,-574,-325,166,62,-392
0,1825974,2224,327,-392,-1037,-574,-325,166,62,-392
0,1825982,2224,326,-394,-1038,-574,-327,166,62,-392
0,1825990,2224,326,-394,-1038,-574,-327,166,62,-392
0,1825998,2224,326,-394,-1038,-574,-327,166,62,-392
0,1826010,2222,329,-391,-1032,-576,-330,166,62,-392
0,1826019,2222,329,-391,-1032,-576,-330,166,62,-392
0,1826028,2226,326,-387,-1031,-574,-322,169,61,-401
0,1826039,2226,326,-387,-1031,-574,-322,169,61,-401
0,1826050,2225,326,-390,-1028,-573,-332,169,61,-401
0,1826060,2225,326,-390,-1028,-573,-332,169,61,-401
0,1826072,2226,326,-391,-1029,-578,-331,169,61,-401
0,1826083,2223,326,-390,-1036,-572,-318,169,61,-401
0,1826094,2223,326,-390,-1036,-572,-318,169,61,-401
0,1826106,2224,326,-389,-1031,-577,-322,169,61,-401
0,1826116,2224,326,-389,-1031,-577,-322,169,61,-401
0,1826124,2227,326,-389,-1033,-579,-326,169,61,-401
0,1826134,2227,326,-389,-1033,-579,-326,169,61,-401
0,1826141,2227,323,-387,-1037,-571,-320,169,61,-401
0,1826151,2227,323,-387,-1037,-571,-320,169,61,-401
0,1826161,2228,324,-388,-1033,-573,-328,166,56,-396
0,1826171,2228,324,-388,-1033,-573,-328,166,56,-396
0,1826182,2227,328,-392,-1037,-575,-328,166,56,-396
0,1826192,2227,328,-392,-1037,-575,-328,166,56,-396
0,1826203,2226,326,-387,-1036,-569,-343,166,56,-396
0,1826212,2226,326,-387,-1036,-569,-343,166,56,-396
0,1826224,2227,325,-389,-1040,-571,-329,166,56,-396
0,1826232,2227,325,-389,-1040,-571,-329,166,56,-396
0,1826242,2226,325,-389,-1037,-570,-329,166,56,-396
0,1826250,2226,325,-389,-1037,-570,-329,166,56,-396
0,1826260,2225,324,-395,-1031,-573,-329,166,56,-396
0,1826269,2225,324,-395,-1031,-573,-329,166,56,-396
0,1826277,2225,324,-395,-1031,-573,-329,166,56,-396
0,1826285,2225,324,-395,-1031,-573,-329,166,58,-396
0,1826293,2225,324,-395,-1031,-573,-329,166,58,-396
0,1826302,2224,325,-389,-1032,-565,-329,166,58,-396
0,1826312,2224,325,-389,-1032,-565,-329,166,58,-396
0,1826320,2224,325,-389,-1032,-565,-329,166,58,-396
0,1826328,2224,325,-384,-1036,-574,-324,166,58,-396
0,1826337,2224,325,-384,-1036,-574,-324,166,58,-396
0,1826347,2223,324,-390,-1036,-572,-332,166,58,-396
0,1826356,2223,324,-390,-1036,-572,-332,166,58,-396
0,1826364,2225,325,-392,-1031,-572,-332,166,58,-396
0,1826374,2225,325,-392,-1031,-572,-332,166,58,-396
0,1826379,2225,325,-392,-1031,-572,-332,166,58,-396
0,1826386,2227,326,-388,-1027,-578,-329,166,58,-396
0,1826393,2227,326,-388,-1027,-578,-329,166,58,-396
0,1826401,2221,325,-388,-1035,-584,-327,166,58,-396
0,1826411,2221,325,-388,-1035,-584,-327,166,58,-396
0,1826419,2221,325,-388,-1035,-584,-327,166,58,-396
0,1826425,2223,325,-388,-1035,-578,-331,160,62,-390
0,1826435,2223,325,-388,-1035,-578,-331,160,62,-390
0,1826443,2223,327,-396,-1034,-572,-328,160,62,-390
0,1826451,2223,327,-396,-1034,-572,-328,160,62,-390
0,1826460,2223,327,-396,-1034,-572,-328,160,62,-390
0,1826467,2226,324,-395,-1031,-580,-329,160,62,-390
0,1826476,2226,324,-395,-1031,-580,-329,160,62,-390
0,1826485,2226,324,-399,-1035,-577,-335,160,62,-390
0,1826494,2226,324,-399,-1035,-577,-335,160,62,-390
0,1826503,2224,324,-393,-1034,-580,-332,160,62,-390
0,1826511,2224,324,-393,-1034,-580,-332,160,62,-390
0,1826520,2224,324,-393,-1034,-580,-332,160,62,-390
0,1826528,2223,324,-390,-1037,-582,-324,160,62,-390
0,1826537,2223,324,-390,-1037,-582,-324,160,62,-390
0,1826544,2226,325,-391,-1043,-573,-323,172,54,-390
0,1826552,2226,325,-391,-1043,-573,-323,172,54,-390
0,1826560,2226,325,-391,-1043,-573,-323,172,54,-390
0,1826568,2226,326,-384,-1032,-570,-329,172,54,-390
0,1826576,2226,326,-384,-1032,-570,-329,172,54,-390
0,1826584,2226,326,-392,-1033,-579,-325,172,54,-390
0,1826593,2226,326,-392,-1033,-579,-325,172,54,-390
0,1826599,2226,326,-392,-1033,-579,-325,172,54,-390
0,1826606,2225,328,-392,-1033,-580,-329,172,54,-390
0,1826612,2225,328,-392,-1033,-580,-329,172,54,-390
0,1826619,2225,328,-392,-1033,-580,-329,172,54,-390
0,1826624,2224,326,-392,-1036,-578,-328,172,54,-390
0,1826629,2224,326,-392,-1036,-578,-328,172,54,-390
0,1826634,2224,326,-392,-1036,-578,-328,172,54,-390
0,1826639,2224,326,-392,-1036,-578,-328,172,54,-390
0,1826644,2225,324,-386,-1046,-583,-333,172,54,-390
0,1826650,2225,324,-386,-1046,-583,-333,172,54,-390
0,1826655,2225,324,-386,-1046,-583,-333,172,54,-390
0,1826660,2225,324,-386,-1046,-583,-333,172,54,-390
0,1826665,2224,330,-387,-1045,-579,-328,172,54,-390
0,1826670,2224,330,-387,-1045,-579,-328,172,54,-390
0,1826675,2224,330,-387,-1045,-579,-328,172,54,-390
0,1826680,2224,330,-387,-1045,-579,-328,172,54,-390
0,1826684,2226,325,-385,-1036,-577,-332,168,58,-400
0,1826690,2226,325,-385,-1036,-577,-332,168,58,-400
0,1826695,2226,325,-385,-1036,-577,-332,168,58,-400
0,1826702,2224,326,-393,-1034,-575,-332,168,58,-400
0,1826708,2224,326,-393,-1034,-575,-332,168,58,-400
0,1826714,2224,326,-393,-1034,-575,-332,168,58,-400
0,1826720,2224,326,-393,-1034,-575,-332,168,58,-400
0,1826725,2225,326,-390,-1030,-579,-329,168,58,-400
0,1826731,2225,326,-390,-1030,-579,-329,168,58,-400
0,1826738,2225,326,-390,-1030,-579,-329,168,58,-400
0,1826745,2225,322,-396,-1035,-579,-325,168,58,-400
0,1826753,2225,322,-396,-1035,-579,-325,168,58,-400
0,1826762,2224,324,-391,-1039,-579,-324,168,58,-400
0,1826771,2224,324,-391,-1039,-579,-324,168,58,-400
0,1826780,2224,324,-391,-1039,-579,-324,168,58,-400
0,1826788,2221,326,-392,-1034,-572,-328,168,58,-400
0,1826798,2221,326,-392,-1034,-572,-328,168,58,-400
0,1826806,2222,328,-391,-1033,-574,-321,166,58,-396
0,1826814,2222,328,-391,-1033,-574,-321,166,58,-396
0,1826824,2222,323,-383,-1038,-578,-328,166,58,-396
0,1826833,2222,323,-383,-1038,-578,-328,166,58,-396
0,1826842,2225,324,-387,-1034,-574,-329,166,58,-396
0,1826851,2225,324,-387,-1034,-574,-329,166,58,-396
0,1826860,2225,324,-387,-1034,-574,-329,166,58,-396
0,1826868,2223,325,-393,-1032,-582,-328,166,58,-396
0,1826877,2223,325,-393,-1032,-582,-328,166,58,-396
0,1826885,2226,326,-393,-1038,-568,-331,166,58,-396
0,1826895,2226,326,-393,-1038,-568,-331,166,58,-396
0,1826903,2227,328,-392,-1033,-572,-326,166,58,-396
0,1826909,2227,328,-392,-1033,-572,-326,166,58,-396
0,1826917,2227,328,-392,-1033,-572,-326,166,58,-396
0,1826926,2224,327,-393,-1030,-577,-326,169,63,-395
0,1826935,2224,327,-393,-1030,-577,-326,169,63,-395
0,1826944,2224,328,-384,-1033,-578,-328,169,63,-395
0,1826953,2224,328,-384,-1033,-578,-328,169,63,-395
0,1826961,2224,328,-384,-1033,-578,-328,169,63,-395
0,1826970,2223,325,-394,-1030,-575,-325,169,63,-395
0,1826978,2223,325,-394,-1030,-575,-325,169,63,-395
0,1826987,2224,323,-392,-1031,-577,-325,169,63,-395
0,1826996,2224,323,-392,-1031,-577,-325,169,63,-395
0,1827005,2223,325,-389,-1029,-568,-332,169,63,-395
0,1827012,2223,325,-389,-1029,-568,-332,169,63,-395
0,1827021,2224,323,-391,-1031,-571,-334,169,63,-395
0,1827028,2224,323,-391,-1031,-571,-334,169,63,-395
0,1827037,2224,323,-391,-1031,-571,-334,169,63,-395
0,1827045,2224,328,-392,-1027,-566,-326,169,63,-395
0,1827054,2224,328,-392,-1027,-566,-326,169,63,-395
0,1827062,2224,325,-387,-1030,-571,-325,167,65,-383
0,1827072,2224,325,-387,-1030,-571,-325,167,65,-383
0,1827080,2224,325,-387,-1030,-571,-325,167,65,-383
0,1827087,2222,323,-392,-1036,-576,-327,167,65,-383
0,1827097,2222,323,-392,-1036,-576,-327,167,65,-383
0,1827105,2224,326,-394,-1034,-582,-323,167,65,-383
0,1827113,2224,326,-394,-1034,-582,-323,167,65,-383
0,1827123,2226,325,-392,-1032,-576,-321,167,65,-383
0,1827131,2226,325,-392,-1032,-576,-321,167,65,-383
0,1827141,2226,325,-392,-1032,-576,-321,167,65,-383
0,1827149,2225,327,-394,-1047,-584,-322,167,65,-383
0,1827161,2225,327,-394,-1047,-584,-322,167,65,-383
0,1827170,2226,329,-392,-1041,-587,-326,167,65,-383
0,1827178,2226,329,-392,-1041,-587,-326,167,65,-383
0,1827187,2224,326,-389,-1043,-579,-327,167,51,-389
0,1827195,2224,326,-389,-1043,-579,-327,167,51,-389
0,1827204,2223,324,-396,-1042,-576,-330,167,51,-389
0,1827215,2223,324,-396,-1042,-576,-330,167,51,-389
0,1827223,2224,325,-389,-1030,-585,-322,167,51,-389
0,1827231,2224,325,-389,-1030,-585,-322,167,51,-389
0,1827239,2224,325,-389,-1030,-585,-322,167,51,-389
0,1827247,2221,324,-388,-1032,-575,-329,167,51,-389
0,1827256,2221,324,-388,-1032,-575,-329,167,51,-389
0,1827262,2225,325,-398,-1026,-576,-329,167,51,-389
0,1827274,2225,325,-398,-1026,-576,-329,167,51,-389
0,1827282,2227,325,-392,-1036,-574,-329,167,51,-389
0,1827291,2227,325,-392,-1036,-574,-329,167,51,-389
0,1827300,2227,325,-392,-1036,-574,-329,167,51,-389
0,1827308,2222,325,-393,-1042,-571,-328,167,51,-389
0,1827317,2222,325,-393,-1042,-571,-328,167,51,-389
0,1827326,2223,327,-390,-1038,-575,-330,169,55,-393
0,1827335,2223,327,-390,-1038,-575,-330,169,55,-393
0,1827345,2223,325,-390,-1027,-577,-328,169,55,-393
0,1827353,2223,325,-390,-1027,-577,-328,169,55,-393
0,1827362,2227,324,-391,-1032,-581,-329,169,55,-393
0,1827369,2227,324,-391,-1032,-581,-329,169,55,-393
0,1827380,2227,324,-391,-1032,-581,-329,169,55,-393
0,1827388,2226,327,-393,-1038,-571,-336,169,55,-393
0,1827396,2226,327,-393,-1038,-571,-336,169,55,-393
0,1827405,2226,327,-393,-1028,-582,-334,169,55,-393
0,1827414,2226,327,-393,-1028,-582,-334,169,55,-393
0,1827423,2223,325,-391,-1033,-577,-326,169,55,-393
0,1827430,2223,325,-391,-1033,-577,-326,169,55,-393
0,1827438,2223,325,-391,-1033,-577,-326,169,55,-393
0,1827446,2225,325,-388,-1040,-576,-330,182,58,-400
0,1827454,2225,325,-388,-1040,-576,-330,182,58,-400
0,1827464,2224,326,-392,-1035,-575,-331,182,58,-400
0,1827472,2224,326,-392,-1035,-575,-331,182,58,-400
0,1827481,2224,326,-392,-1035,-575,-331,182,58,-400
0,1827491,2224,324,-391,-1041,-578,-326,182,58,-400
0,1827497,2224,324,-391,-1041,-578,-326,182,58,-400
0,1827507,2225,327,-395,-1036,-581,-325,182,58,-400
0,1827515,2225,327,-395,-1036,-581,-325,182,58,-400
0,1827524,2228,324,-387,-1033,-580,-328,182,58,-400
0,1827532,2228,324,-387,-1033,-580,-328,182,58,-400
0,1827539,2228,324,-387,-1033,-580,-328,182,58,-400
0,1827548,2224,326,-396,-1032,-574,-321,182,58,-400
0,1827556,2224,326,-396,-1032,-574,-321,182,58,-400
0,1827564,2225,326,-391,-1038,-576,-326,182,58,-400
0,1827573,2225,326,-391,-1038,-576,-326,182,58,-400
0,1827581,2225,326,-391,-1038,-576,-326,182,58,-400
0,1827589,2226,327,-388,-1035,-579,-321,160,58,-396
0,1827597,2226,327,-388,-1035,-579,-321,160,58,-396
0,1827606,2224,328,-393,-1035,-580,-326,160,58,-396
0,1827615,2224,328,-393,-1035,-580,-326,160,58,-396
0,1827623,2224,326,-392,-1044,-578,-334,160,58,-396
0,1827633,2224,326,-392,-1044,-578,-334,160,58,-396
0,1827642,2224,326,-392,-1044,-578,-334,160,58,-396
0,1827650,2224,324,-395,-1036,-574,-332,160,58,-396
0,1827658,2224,324,-395,-1036,-574,-332,160,58,-396
0,1827666,2223,327,-393,-1033,-580,-329,160,58,-396
0,1827676,2223,327,-393,-1033,-580,-329,160,58,-396
0,1827685,2224,326,-395,-1026,-575,-323,160,58,-396
0,1827693,2224,326,-395,-1026,-575,-323,160,58,-396
0,1827702,2223,328,-388,-1033,-569,-330,171,59,-397
0,1827712,2223,328,-388,-1033,-569,-330,171,59,-397
0,1827720,2223,328,-388,-1033,-569,-330,171,59,-397
0,1827729,2222,326,-387,-1030,-573,-329,171,59,-397
0,1827737,2222,326,-387,-1030,-573,-329,171,59,-397
0,1827747,2224,324,-391,-1028,-577,-325,171,59,-397
0,1827756,2224,324,-391,-1028,-577,-325,171,59,-397
0,1827765,2224,327,-389,-1043,-571,-329,171,59,-397
0,1827774,2224,327,-389,-1043,-571,-329,171,59,-397
0,1827783,2224,326,-392,-1041,-577,-326,171,59,-397
0,1827792,2224,326,-392,-1041,-577,-326,171,59,-397
0,1827801,2224,326,-392,-1041,-577,-326,171,59,-397
0,1827808,2223,326,-390,-1035,-579,-323,171,59,-397
0,1827816,2223,326,-390,-1035,-579,-323,171,59,-397
0,1827825,2224,329,-393,-1030,-581,-332,170,54,-404
0,1827833,2224,329,-393,-1030,-581,-332,170,54,-404
0,1827843,2224,328,-390,-1025,-577,-325,170,54,-404
0,1827852,2224,328,-390,-1025,-577,-325,170,54,-404
0,1827860,2224,328,-390,-1025,-577,-325,170,54,-404
0,1827868,2224,324,-389,-1026,-575,-323,170,54,-404
0,1827876,2224,324,-389,-1026,-575,-323,170,54,-404
0,1827885,2228,323,-389,-1037,-573,-328,170,54,-404
0,1827893,2228,323,-389,-1037,-573,-328,170,54,-404
0,1827901,2228,323,-389,-1037,-573,-328,170,54,-404
0,1827908,2227,328,-388,-1036,-576,-325,170,54,-404
0,1827916,2227,328,-388,-1036,-576,-325,170,54,-404
0,1827924,2225,328,-389,-1030,-575,-332,170,54,-404
0,1827934,2225,328,-389,-1030,-575,-332,170,54,-404
