imu,server_time,arduino_time,ax,ay,az,gx,gy,gz,mx,my,mz
1,2021-07-02 11:02:24.456,8844456,0.11851018160285236,-10.024879827141513,-0.5620127422297073,2.967757156525214,-18.19586676076346,-5.13139752588504,395.61048447171686,152.56876767539336,-142.53500637709965
1,2021-07-02 11:02:24.464,8844464,0.1145256416811642,-10.02903403527269,-0.5347139726438107,2.9554414487337874,-18.20875944608983,-5.270872145913322,395.8672341670226,152.5441279273879,-142.74645478954284
1,2021-07-02 11:02:24.471,8844471,0.11060833489569163,-10.033249103258163,-0.507375177227537,2.9456943343374182,-18.22230804164452,-5.413567076949185,396.13151982247535,152.5226105864553,-142.95159311801044
1,2021-07-02 11:02:24.478,8844478,0.10677025198587918,-10.037522958235742,-0.4800432438977004,2.9386566708830086,-18.236528968014174,-5.559320929250007,396.4034005223629,152.50419499193248,-143.14986103789735
1,2021-07-02 11:02:24.486,8844486,0.10302334229745966,-10.041853554612484,-0.4527650070086224,2.9344647314499253,-18.251438759884923,-5.7079595576636395,396.6829366150215,152.48883542789054,-143.34071614306262
1,2021-07-02 11:02:24.492,8844492,0.09937945369084349,-10.046238874048889,-0.42558703765271466,2.9332494821818895,-18.267054069664955,-5.859296149849456,396.9701894365352,152.4764602689457,-143.52363641546776
1,2021-07-02 11:02:24.503,8844503,0.09585026972844979,-10.050676924171285,-0.39855543319499975,2.935135867036189,-18.283391668315133,-6.013131389929753,397.2652209980093,152.4669712189458,-143.69812270371156
1,2021-07-02 11:02:24.516,8844516,0.09244724408538547,-10.05516573567798,-0.37171560967317063,2.940242110508982,-18.300468441685275,-6.169253708559068,397.56809365365314,152.4602426415818,-143.86370122220364
1,2021-07-02 11:02:24.530,8844530,0.08918153280604502,-10.059703357970749,-0.34511209934559317,2.948679048180755,-18.3183013803258,-6.327439629150832,397.8788697673852,152.45612098215722,-144.01992608223077
1,2021-07-02 11:02:24.544,8844544,0.0860639258737425,-10.064287854181774,-0.3187883541395102,2.960549491767735,-18.33690756102604,-6.4874542168524725,398.19761139037126,152.45442428377706,-144.16638185794486
1,2021-07-02 11:02:24.553,8844553,0.08310478019405884,-10.068917296862466,-0.29278655681561455,2.975947633272518,-18.35630411880259,-6.649051631487055,398.5243799334937,152.45494182065428,-144.30268615122228
1,2021-07-02 11:02:24.566,8844566,0.08031395609183281,-10.073589765131816,-0.2671474438987909,2.9949584922817527,-18.37650820851051,-6.8119757794791616,398.85923576721785,152.45743390606796,-144.42849204941191
1,2021-07-02 11:02:24.579,8844579,0.07770075837248396,-10.078303342789832,-0.24191014457984736,3.0176574108674448,-18.397536956166835,-6.9759610562219265,399.20223765291325,152.4616319519218,-144.54349033085714
1,2021-07-02 11:02:24.592,8844592,0.07527388132854494,-10.083056115632461,-0.21711203760291697,3.0441096019187914,-18.419407401601617,-7.140733170415555,399.5534419390834,152.4672388377217,-144.64741131098415
1,2021-07-02 11:02:24.603,8844603,0.07304135616232688,-10.087846166068296,-0.1927886259793524,3.074369759046939,-18.44213643477295,-7.306010043624103,399.91290150847135,152.47392961223252,-144.74002629046066
1,2021-07-02 11:02:24.617,8844617,0.07101049995077736,-10.092671564379462,-0.16897342864933063,3.1084817386673826,-18.465740727082682,-7.471502780234342,400.2806644914104,152.4813525319115,-144.82114860479555
1,2021-07-02 11:02:24.631,8844631,0.0691878667487312,-10.097530357493078,-0.14569788847369114,3.146478325561657,-18.490236657801763,-7.636916704636437,400.6567727670746,152.48913043645004,-144.89063428177604
1,2021-07-02 11:02:24.645,8844645,0.06757920240962453,-10.102420556728699,-0.12299129622499143,3.188381090729097,-18.515640235648693,-7.801952462405794,401.04126027479185,152.49686246181932,-144.94838231244339
1,2021-07-02 11:02:24.654,8844654,0.06618940471053932,-10.107340125679357,-0.10088073026881277,3.2342003458607183,-18.541967016005398,-7.966307178542341,401.4341511580944,152.50412609126033,-144.99433454060164
1,2021-07-02 11:02:24.665,8844665,0.06502248973242988,-10.11228696890032,-0.07939101154465734,3.2839351946380955,-18.569232014444232,-8.129675660312802,401.8354577646953,152.51047954467924,-145.02847517513877
1,2021-07-02 11:02:24.677,8844677,0.06408156462665875,-10.11725892181795,-0.05854467288888168,3.3375736783225083,-18.597449617319327,-8.291751630677748,402.2451785260965,152.51546450690518,-145.0508299287173
1,2021-07-02 11:02:24.690,8844690,0.06336880628201266,-10.122253742189596,-0.038361940515281676,3.395093011436919,-18.626633490113974,-8.45222898166341,402.66329574779263,152.5186091865684,-145.06146479048374
1,2021-07-02 11:02:24.701,8844701,0.06288544530042899,-10.127269103313019,-0.01886072516712625,3.4564599012224217,-18.656796483819605,-8.610803040697753,403.0897733752713,152.51943165395164,-145.06048446380083
1,2021-07-02 11:02:24.717,8844717,0.06263175508087683,-10.132302588857044,-5.66225339249555e-05,3.5216309405176407,-18.68795053919084,-8.767171843743244,403.5245548622123,152.51744332805623,-145.04803054263093
1,2021-07-02 11:02:24.728,8844728,0.06260704626200582,-10.137351688867339,0.018037074685507852,3.590553059880338,-18.720106588954472,-8.921037407743816,403.96756130152164,152.51215243966234,-145.02427952355973
1,2021-07-02 11:02:24.742,8844742,0.06280966682048364,-10.142413796497921,0.03540935032860978,3.6631640249993445,-18.753274458837193,-9.072106993396101,404.41868994663724,152.5030673403679,-144.98944072565305
1,2021-07-02 11:02:24.750,8844750,0.06323700780935057,-10.147486205376207,0.05205142377250131,3.7393929683883456,-18.78746276857495,-9.220094347349848,404.87781319036367,152.48969960544272,-144.94375414628595
1,2021-07-02 11:02:24.758,8844758,0.0638855145093166,-10.15256610805611,0.06795669730209698,3.819160946100494,-18.822678833599284,-9.364720910979495,405.3447780352865,152.47156692148002,-144.88748825630577
1,2021-07-02 11:02:24.766,8844766,0.06475070283051412,-10.157650596398456,0.08312069589988347,3.9023815115357006,-18.858928567889745,-9.505716984900628,405.8194060835727,152.44819575826193,-144.82093773239234
1,2021-07-02 11:02:24.775,8844775,0.06582718082523308,-10.162736664621402,0.09754100292269706,3.9889613000648336,-18.896216389152617,-9.642822844431862,406.30149407445487,152.4191238239931,-144.7444211238114
1,2021-07-02 11:02:24.785,8844785,0.06710867498789136,-10.167821215296895,0.1112171942401305,4.078800617204369,-18.934545128370875,-9.77578980496906,406.79081499817977,152.38390230276266,-144.6582784501058
1,2021-07-02 11:02:24.798,8844798,0.06858806096278765,-10.172901068009876,0.12415077218741864,4.171794019835693,-18.973915945897254,-9.904381235723239,407.28711981567295,152.34209787277217,-144.5628687256363
1,2021-07-02 11:02:24.813,8844813,0.07025739858306479,-10.177972969883617,0.13634509852186033,4.267830878519212,-19.01432825554414,-10.028373519054666,407.7901397953275,152.29329450640623,-144.45856740916037
1,2021-07-02 11:02:24.825,8844825,0.07210797146680836,-10.183033606984878,0.14780532379394537,4.366795910828647,-19.05577965740614,-10.147556952144079,408.2995893872569,152.2370950672938,-144.3457637904938
1,2021-07-02 11:02:24.837,8844837,0.07413033127492341,-10.188079615922874,0.15853831070540814,4.46856967983783,-19.09826587987574,-10.261736586477559,408.8151693910608,152.17312274511204,-144.22485835173873
1,2021-07-02 11:02:24.852,8844852,0.0763143463145632,-10.193107595353322,0.16855255041899606,4.573029057016547,-19.141780731100003,-10.370732998664094,409.3365700820505,152.1010223829019,-144.09626015446287
1,2021-07-02 11:02:24.865,8844865,0.07864925386091687,-10.198114117176805,0.17785807198924883,4.680047653214079,-19.18631605989017,-10.474382985595797,409.86347405279196,152.0204617367626,-143.96038428924223
1,2021-07-02 11:02:24.879,8844879,0.08112371553470658,-10.203095737104093,0.18646634583825694,4.78949622383328,-19.231861725859556,-10.57254017825651,410.39555869192174,151.93113268130293,-143.81764939747146
1,2021-07-02 11:02:24.889,8844889,0.08372587522532905,-10.208049004310844,0.19439018273962122,4.901243054455539,-19.278405578051803,-10.66507557023519,410.932498314065,151.83275235927934,-143.66847526042287
1,2021-07-02 11:02:24.900,8844900,0.08644341924751503,-10.212970470203471,0.201643629891015,5.015154331857539,-19.32593344096574,-10.751877959152,411.4739659733227,151.72506427044,-143.51328044719628
1,2021-07-02 11:02:24.913,8844913,0.08926363851999053,-10.21785669659384,0.2082418651074372,5.1310945035672315,-19.374429107395603,-10.832854301560651,412.01963499311773,151.60783929405403,-143.3524800127797
1,2021-07-02 11:02:24.926,8844926,0.09217349250725661,-10.22270426354641,0.21420108927054216,5.2489266272970365,-19.42387433856981,-10.907929983006158,412.56918024355974,151.48087663904968,-143.18648324089662
1,2021-07-02 11:02:24.940,8844940,0.09515967455306036,-10.227509776821806,0.21953841642061056,5.3685127100273204,-19.474248872835282,-10.977049004398683,413.1222791881369,151.34400471511125,-143.0156914452102
1,2021-07-02 11:02:24.952,8844952,0.09820867816221823,-10.232269874496396,0.2242717606536013,5.489714036132712,-19.525530444098944,-11.040174084897549,413.67861270446053,151.1970819174988,-142.8404958767869
1,2021-07-02 11:02:24.964,8844964,0.10130686379296652,-10.23698123239517,0.2284197196814816,5.612391485071462,-19.577694810301235,-11.097286681191907,414.23786567439726,151.039997317755,-142.66127580466795
1,2021-07-02 11:02:24.973,8844973,0.10444052581874111,-10.241640568717306,0.23200145639189196,5.7364058396295095,-19.630715790594916,-11.148386923338023,414.79972734877276,150.872671251855,-142.47839681683416
1,2021-07-02 11:02:24.981,8844981,0.10759595956603595,-10.246244649424224,0.2350365809097427,5.86161808429389,-19.68456530870233,-11.193493467734307,415.36389150937214,150.69505579673583,-142.29220935389995
1,2021-07-02 11:02:24.989,8844989,0.11075952862331372,-10.250790296590601,0.2375450355629513,5.987889692575889,-19.739213440492,-11.232643268472327,415.9300564607744,150.50713512551735,-142.10304746835754
1,2021-07-02 11:02:25.001,8845001,0.11391773256751224,-10.255274401129357,0.23954698418237977,6.115082902731858,-19.79462846562976,-11.265891268911709,416.4979248866448,150.3089257310971,-141.9112277981129
1,2021-07-02 11:02:25.012,8845012,0.11705727473606334,-10.259693939568397,0.2410627064202077,6.243060979981633,-19.8507769242294,-11.293310015297777,417.0672036052533,150.10047650716797,-141.71704874285038
1,2021-07-02 11:02:25.025,8845025,0.12016512916207908,-10.264045993216689,0.24211249763744225,6.371688460372428,-19.90762367931127,-11.314989193898079,417.63760325910897,149.88186867507406,-141.5207898315786
1,2021-07-02 11:02:25.037,8845037,0.12322860590507742,-10.268327767900841,0.2427165749719325,6.500831371982718,-19.96513198549778,-11.331035093189605,418.2088379737067,149.65321554428752,-141.32271126954586
1,2021-07-02 11:02:25.050,8845050,0.1262354146941082,-10.272536613147697,0.24289499009476967,6.630357433948407,-20.023263563953915,-11.341569993059782,418.780625017579,149.41466209654868,-141.12305365352972
1,2021-07-02 11:02:25.062,8845062,0.12917372727676196,-10.276670040447538,0.24266754896882745,6.760136237956963,-20.08197868296828,-11.346731483476404,419.352684481466,149.16638439753663,-140.92203784919337
1,2021-07-02 11:02:25.074,8845074,0.13203223858873384,-10.280725740722968,0.2420537388497649,6.890039417376812,-20.141236242955213,-11.34667171561196,419.9247389684592,148.90858886532882,-140.71986503275733
1,2021-07-02 11:02:25.087,8845087,0.13480022614650858,-10.284701601373841,0.24107266282626136,7.019940807372506,-20.200993864388792,-11.341556588795427,420.49651327255975,148.6415114387477,-140.51671690395375
1,2021-07-02 11:02:25.095,8845095,0.13746760653235815,-10.288595723171465,0.23974298214824516,7.149716597239125,-20.26120797757104,-11.33156487664997,421.06773403755886,148.36541667364577,-140.31275607232905
1,2021-07-02 11:02:25.104,8845104,0.14002498767949825,-10.292406436807997,0.23808286631534523,7.279245474285645,-20.321833913943976,-11.316887295745982,421.63812941415466,148.08059676858593,-140.10812661021882
1,2021-07-02 11:02:25.112,8845112,0.14246371582535416,-10.296132318333205,0.2361099506637892,7.408408756922349,-20.38282599938117,-11.297725520712019,422.20742874765403,147.7873705063536,-139.90295476084196
1,2021-07-02 11:02:25.120,8845120,0.14477591642725912,-10.299772202340247,0.23384130125115715,7.537090513873068,-20.44413765058595,-11.274291150702059,422.77536233146293,147.48608209429287,-139.69734978894633
1,2021-07-02 11:02:25.128,8845128,0.14695452877450887,-10.303325191784895,0.23129338695124155,7.6651776675079875,-20.505721476396577,-11.24680463242936,423.3416612615166,147.17709988592202,-139.49140496139623
1,2021-07-02 11:02:25.136,8845136,0.1489933341614632,-10.306790663687291,0.22848205839926078,7.792560081324091,-20.567529385821093,-11.215494145372729,423.9060574267368,146.86081496576682,-139.28519864505762
1,2021-07-02 11:02:25.144,8845144,0.1508869773635833,-10.310168270348587,0.22542253275240878,7.919130632321114,-20.629512703506947,-11.18059445710459,424.46828367051546,146.53763957885408,-139.07879550931017
1,2021-07-02 11:02:25.152,8845152,0.1526309812421284,-10.313457935986976,0.2221293825932295,8.044785268470978,-20.69162229155034,-11.142345759955855,425.02807415812543,146.2080053858345,-138.87224782049273
1,2021-07-02 11:02:25.160,8845160,0.1542217548100262,-10.316659849006774,0.21861652708028578,8.169423051901386,-20.75380867517382,-11.100992501316295,425.5851649848418,145.87236152425484,-138.66559681557277
1,2021-07-02 11:02:25.167,8845167,0.15565659556568323,-10.319774450423257,0.21489722373389947,8.292946190339077,-20.81602216990633,-11.056782217689094,426.1392950478626,145.53117246378162,-138.45887414039083
1,2021-07-02 11:02:25.176,8845176,0.15693368696133964,-10.32280241923809,0.21098405998838962,8.415260061513642,-20.87821300932937,-11.009964379015507,426.69020714717203,145.18491568131296,-138.25210332818853
1,2021-07-02 11:02:25.184,8845184,0.1580520917803397,-10.325744655897038,0.2068889445153845,8.536273236360918,-20.94033147358734,-10.960789247619502,427.2376491762864,144.83407925090202,-138.0453012767826
1,2021-07-02 11:02:25.194,8845194,0.15901174218811717,-10.328602265095013,0.20262309876946882,8.655897506164463,-21.00232801894061,-10.909506755827689,427.78137520584465,144.4791594816059,-137.8384796731104
1,2021-07-02 11:02:25.204,8845204,0.15981342715219013,-10.33137653883207,0.19819704917706757,8.77404791653489,-21.064153408559708,-10.856365405835383,428.3211463206032,144.12065869753047,-137.63164632350114
1,2021-07-02 11:02:25.214,8845214,0.160458777714249,-10.334068940188542,0.19362062059875074,8.890642808874617,-21.12575884505456,-10.801611193853974,428.8567311742173,143.75908318470252,-137.42480636536453
1,2021-07-02 11:02:25.222,8845222,0.16095025025176346,-10.33668108817594,0.1889029324794238,9.00560386875261,-21.187096105549067,-10.745486558991422,429.3879062837591,143.39494129061782,-137.2179633456202
1,2021-07-02 11:02:25.235,8845235,0.16129110724483056,-10.339214743742188,0.18405239953661912,9.11885617995431,-21.248117680014026,-10.688229357013418,429.9144560972388,143.02874165438666,-137.01112015311642
1,2021-07-02 11:02:25.248,8845248,0.16148539421690886,-10.341671796204649,0.1790767382213348,9.230328282339018,-21.30877691300479,-10.630071860668211,430.43617286713845,142.66099154520916,-136.80427979228668
1,2021-07-02 11:02:25.260,8845260,0.16153791107608986,-10.344054248856775,0.17398297946039473,9.339952231694435,-21.369028148443885,-10.571239790788002,430.9528563626947,142.29219528675426,-136.5974459852924
1,2021-07-02 11:02:25.273,8845273,0.16145417658047773,-10.346364202984272,0.16877748821324182,9.447663661078934,-21.428826877022004,-10.511951384639863,431.4643134533833,141.9228527448896,-136.39062358989963
1,2021-07-02 11:02:25.284,8845284,0.16124038582023656,-10.348603840502504,0.16346599021671376,9.55340184477023,-21.488129885499934,-10.452416509586378,431.9703575957601,141.5534578561131,-136.18381882033847
1,2021-07-02 11:02:25.297,8845297,0.16090336170912586,-10.350775406111332,0.1580536051492146,9.657109766820685,-21.546895405904973,-10.392835831464469,432.47080825550387,141.18449717397343,-135.97703925839383
1,2021-07-02 11:02:25.309,8845309,0.1604505018611059,-10.35288119012747,0.15254488456123885,9.758734196465097,-21.60508326125272,-10.333400047836413,432.9654902952202,140.81644841362163,-135.77029364679342
1,2021-07-02 11:02:25.322,8845322,0.1598897220217396,-10.354923513062117,0.14694385356505282,9.858225772094547,-21.662655004663165,-10.274289194813875,433.45423335341593,140.44977898908226,-135.56359148104264
1,2021-07-02 11:02:25.335,8845335,0.15922939716593013,-10.356904712688415,0.14125405647383296,9.955539093173217,-21.719574050112918,-10.215672032771725,433.9368712310409,140.0849445638674,-135.35694245920521
1,2021-07-02 11:02:25.347,8845347,0.15847830144004046,-10.35882713400149,0.13547860665270373,10.050632816289907,-21.775805793835577,-10.157705513259415,434.4132412968194,139.72238765006236,-135.1503558732132
1,2021-07-02 11:02:25.361,8845361,0.15764554782531132,-10.360693122049133,0.129620239979245,10.143469750464696,-21.83131772550244,-10.100534327588887,434.883183927046,139.36253627664652,-134.9438400012097
1,2021-07-02 11:02:25.372,8845372,0.156740527988441,-10.362505016996835,0.12368137084610202,10.23401694822946,-21.88607952859142,-10.044290536486159,435.34654200381374,139.00580272191678,-134.73740151708418
1,2021-07-02 11:02:25.384,8845384,0.1557728526047524,-10.364265150315548,0.11766414969276162,10.322245790183512,-21.940063169594158,-9.989093279925298,435.80316050007195,138.65258229057153,-134.53104490927993
1,2021-07-02 11:02:25.392,8845392,0.15475229229630488,-10.365975840949288,0.11157052068547052,10.40813206023116,-21.993242975540742,-9.935048566556755,436.25288618047955,138.30325211328918,-134.32477189614332
1,2021-07-02 11:02:25.402,8845402,0.15368871915260734,-10.367639390575375,0.10540227746553707,10.491656007982543,-22.045595699140904,-9.882249142032745,436.6955674466114,137.9581699468265,-134.11858082508724
1,2021-07-02 11:02:25.410,8845410,0.15259204875171883,-10.369258077413804,0.09916111531788833,10.57280239588068,-22.097100571148253,-9.83077443476687,437.1310543546631,137.6176729528783,-133.91246604284706
1,2021-07-02 11:02:25.422,8845422,0.15147218268369533,-10.370834148446182,0.09284868011940095,10.651560531119674,-22.147739340033826,-9.78069057710376,437.5591988275914,137.28207643995825,-133.70641722989188
1,2021-07-02 11:02:25.436,8845436,0.15033895173674564,-10.372369810327287,0.08646661610348283,10.727924284161361,-22.197496299138678,-9.732050500053262,437.9798550542984,136.95167258172,-133.50041872095764
1,2021-07-02 11:02:25.449,8845449,0.14920206009308032,-10.373867219639504,0.08001661424775786,10.801892095914225,-22.24635830120978,-9.684894100282976,438.39288001600306,136.6267291774379,-133.29444888569006
1,2021-07-02 11:02:25.461,8845461,0.14807103095362983,-10.375328473318183,0.07350046189735253,10.87346697550715,-22.2943147599017,-9.639248478606193,438.798134050595,136.30748854956525,-133.08847967228894
1,2021-07-02 11:02:25.474,8845474,0.14695515389953992,-10.376755599980951,0.06692009352444941,10.942656490782838,-22.341357637622124,-9.595128249646132,439.19548139420124,135.99416664470937,-132.8824763881486
1,2021-07-02 11:02:25.488,8845488,0.14586343426130763,-10.37815055272054,0.06027764235059493,11.009472753448723,-22.387481419241805,-9.552535922219215,439.5847906907435,135.6869523526801,-132.67639773947354
1,2021-07-02 11:02:25.500,8845500,0.14480454508427634,-10.379515203955402,0.053575492338238405,11.073932399396273,-22.432683071647162,-9.511462348548154,439.9659354886854,135.3860070297199,-132.47019612294915
1,2021-07-02 11:02:25.507,8845507,0.14378678270807155,-10.380851343092248,0.046816329654313996,11.136056562814943,-22.476961989523648,-9.471887237760276,440.33879474945945,135.09146420660798,-132.2638181567657
1,2021-07-02 11:02:25.513,8845513,0.142818026933018,-10.382160677521318,0.04000319265891666,11.195870842028004,-22.520319928135823,-9.433779726179072,440.70325339156955,134.80342946270585,-132.05720543828826
1,2021-07-02 11:02:25.520,8845520,0.14190570615038636,-10.383444836667843,0.03313952013005577,11.253405255669701,-22.562760924469046,-9.397098994790426,441.0592028938599,134.5219804473974,-131.8502955156579
1,2021-07-02 11:02:25.528,8845528,0.1410567672084332,-10.384705378146151,0.026229198102759213,11.308694188935338,-22.604291208680646,-9.361794924080483,441.4065419809339,134.24716703076913,-131.64302306059776
1,2021-07-02 11:02:25.535,8845535,0.1402776494394819,-10.385943795005678,0.01927660559641392,11.361776330307288,-22.644919107949313,-9.327808778009153,441.74517741318573,133.97901156577703,-131.4353212296839
1,2021-07-02 11:02:25.540,8845540,0.13957426199145537,-10.38716152323239,0.012286658931424003,11.412694598964274,-22.68465494453376,-9.295073910282063,442.0750249033848,133.71750924455077,-131.22712320132143
1,2021-07-02 11:02:25.545,8845545,0.1389519635007174,-10.388359948755467,0.005264853887754076,11.461496062627068,-22.72351092952719,-9.263516486752774,442.39601017447984,133.46262853478387,-131.0183638708281
1,2021-07-02 11:02:25.550,8845550,0.1384155435338894,-10.389540413314181,-0.0017826955362606443,11.508231845442143,-22.761501053438316,-9.2330562188474,442.7080701390362,133.2143116970167,-130.8089816619185
1,2021-07-02 11:02:25.556,8845556,0.13796920589357117,-10.39070421862186,-0.008849223794380523,11.552957025087183,-22.7986409741061,-9.203607104189123,443.01115411949473,132.97247541003736,-130.598920369504
1,2021-07-02 11:02:25.564,8845564,0.13761655425599012,-10.391852628331948,-0.015927288360154158,11.59573051798617,-22.83494790204576,-9.17507817139125,443.3052249941767,132.73701154648148,-130.38813092460623
1,2021-07-02 11:02:25.572,8845572,0.13736058052184003,-10.392986867601548,-0.023008754142173436,11.636614952508397,-22.870440483673125,-9.147374226710381,443.59026018712524,132.5077881266662,-130.1765729962266
1,2021-07-02 11:02:25.578,8845578,0.13720365601861356,-10.394108120504592,-0.030084788788667383,11.675676531608126,-22.905138683441866,-9.120396601166469,443.8662524800102,132.28465045308337,-129.9642163883203
1,2021-07-02 11:02:25.585,8845585,0.13714752558344265,-10.395217525828034,-0.03714586930823601,11.712984887055024,-22.93906366609804,-9.094043897195977,444.13321065748033,132.06742241391905,-129.7510422140613
1,2021-07-02 11:02:25.590,8845590,0.13719330464882096,-10.396316171834409,-0.04418179978129296,11.748612926854873,-22.972237679842912,-9.068212733409979,444.3911600035365,131.85590794146074,-129.5370438343545
1,2021-07-02 11:02:25.597,8845597,0.1373414796667294,-10.397405090614953,-0.05118173894402087,11.782636676210236,-23.00468394029299,-9.042798485007319,444.6401426659408,131.64989261162737,-129.32222754750188
1,2021-07-02 11:02:25.605,8845605,0.1375919123463144,-10.398485252721496,-0.058134235842196874,11.815135111567795,-23.036426514533506,-9.017696016736295,444.8802179051203,131.44914537122082,-129.10661301688032
1,2021-07-02 11:02:25.614,8845614,0.1379438481635146,-10.399557562810902,-0.06502727214119262,11.846189987559034,-23.067490204870932,-8.992800405125069,445.11146224347084,131.25342037984947,-128.8902334234384
1,2021-07-02 11:02:25.619,8845619,0.13839592956590266,-10.400622857160133,-0.07184831037915511,11.875885657181856,-23.09790043241375,-8.968007646442302,445.333969530413,131.0624589538116,-128.67313532976934
1,2021-07-02 11:02:25.625,8845625,0.13894621422865924,-10.401681903923345,-0.07858434783795024,11.904308885674391,-23.127683120883617,-8.943215346521198,445.54785093800535,130.8759915995516,-128.45537824246878
1,2021-07-02 11:02:25.631,8845631,0.1395921983557048,-10.402735406488503,-0.08522197597383371,11.931548658103683,-23.1568645815068,-8.918323388229535,445.75323490137464,130.6937401246103,-128.23703385943975
1,2021-07-02 11:02:25.637,8845637,0.14033084440495514,-10.403784009416524,-0.0917474456348028,11.957695979755183,-23.185471400435283,-8.893234571592776,445.95026701768614,130.51541981428394,-128.0181849887636
1,2021-07-02 11:02:25.643,8845643,0.1411586122591751,-10.404828305950579,-0.0981467383460511,11.9828436678093,-23.21353033029007,-8.867855221056075,446.13910991684656,130.34074166248365,-127.79892412571508
1,2021-07-02 11:02:25.650,8845650,0.14207149301242694,-10.405868846272545,-0.10440564346563891,12.007086133334473,-23.24106818658425,-8.842095754981113,446.31994311660753,130.16941464554566,-127.57935167446428
1,2021-07-02 11:02:25.657,8845657,0.14306504483769578,-10.406906146099521,-0.1105098400958666,12.030519153554302,-23.268111748184076,-8.815871213385947,446.49296287422436,130.0011480279862,-127.35957380097784
1,2021-07-02 11:02:25.664,8845664,0.14413443053098796,-10.4079406954258,-0.11644498202617927,12.053239634821788,-23.294687660126765,-8.789101740439618,446.65838204343123,129.8356536884547,-127.13969991612895
1,2021-07-02 11:02:25.672,8845672,0.1452744562910128,-10.40897296722473,-0.12219678399774285,12.075345366994002,-23.32082233826645,-8.761713018863578,446.81642993055135,129.6726484495301,-126.919839850621
1,2021-07-02 11:02:25.680,8845680,0.14647961113285723,-10.41000342584142,-0.12775110761164343,12.09693477013494,-23.346541877322,-8.733636654216637,446.9673521170693,129.51185638652387,-126.70010089602191
1,2021-07-02 11:02:25.687,8845687,0.1477441062144807,-10.411032534723846,-0.13309404512332465,12.118106634564837,-23.371871964922132,-8.704810507709826,447.11141020107794,129.3530110858079,-126.4805849488139
1,2021-07-02 11:02:25.693,8845693,0.14906191340061217,-10.412060763056504,-0.13821199947863247,12.138959855244075,-23.396837803402352,-8.675178977352385,447.24888142400755,129.195857828156,-126.26138593175078
1,2021-07-02 11:02:25.700,8845700,0.15042680243404688,-10.413088590694155,-0.14309175897602183,12.159593161377085,-23.421464039305576,-8.644693229178516,447.3800581746136,129.040155681394,-126.04258755411661
1,2021-07-02 11:02:25.709,8845709,0.15183237609719052,-10.414116510728359,-0.14772056497700126,12.180104841945692,-23.445774699463417,-8.613311381625188,447.5052473762275,128.8856794915907,-125.82426140987984
1,2021-07-02 11:02:25.715,8845715,0.15327210287881918,-10.415145029361717,-0.15208617176679834,12.200592467443144,-23.469793132805133,-8.580998646231944,447.62476976575897,128.73222176308963,-125.60646540023305
1,2021-07-02 11:02:25.721,8845721,0.15473934688939273,-10.416174663365952,-0.15617689882414665,12.221152607347625,-23.493541957565178,-8.547727428160558,447.7389590725516,128.5795944177723,-125.38924246703237
1,2021-07-02 11:02:25.728,8845728,0.1562273951618912,-10.417205935816225,-0.1599816768233393,12.241880542748083,-23.517043013422366,-8.51347739060931,447.8481611048248,128.42763042402007,-125.1726196236794
1,2021-07-02 11:02:25.736,8845736,0.1577294831168563,-10.418239370858915,-0.1634900894978986,12.26286997467897,-23.540317317682756,-8.478235486460338,447.9527327510842,128.27618528590455,-124.95660727002036
1,2021-07-02 11:02:25.743,8845743,0.1592388193999552,-10.419275488117462,-0.16669241366206972,12.28421273006776,-23.563385024633238,-8.441995958773044,448.05304090356,128.12513838319012,-124.74119877787196
1,2021-07-02 11:02:25.748,8845748,0.16074861109459565,-10.420314797132903,-0.16957965879580544,12.305998467604358,-23.586265387651586,-8.40476031092615,448.1494613104177,127.97439415277259,-124.52637033381929
1,2021-07-02 11:02:25.752,8845752,0.16225208982982456,-10.421357792083208,-0.17214360622990463,12.32831438568372,-23.608976723992125,-8.366537247884777,448.2423773632085,127.82388310221204,-124.31208102596838
1,2021-07-02 11:02:25.758,8845758,0.16374253902809857,-10.422404946956297,-0.1743768472140221,12.351244934436718,-23.631536382311378,-8.32734259056068,448.33217882575946,127.67356264604328,-124.09827316137213
1,2021-07-02 11:02:25.763,8845763,0.16521332242710646,-10.423456711324135,-0.17627281918601007,12.37487153375723,-23.653960713373607,-8.287199164130037,448.4192605104647,127.52341775556727,-123.88487280088351
1,2021-07-02 11:02:25.768,8845768,0.16665791382997833,-10.424513506893184,-0.17782583949061948,12.399272299416022,-23.676265044815906,-8.246136659659228,448.5040209077258,127.37346141284247,-123.67179049822238
1,2021-07-02 11:02:25.773,8845773,0.16806992776592564,-10.425575725108558,-0.17903113511823604,12.424521780013833,-23.69846366094571,-8.204191468013514,448.5868607740943,127.22373485960802,-123.45892223007105
1,2021-07-02 11:02:25.782,8845782,0.16944315059950224,-10.426643726154271,-0.17988486655872374,12.45069070797158,-23.720569788479967,-8.161406485154895,448.6681816845044,127.07430763188286,-123.24615050403821
1,2021-07-02 11:02:25.789,8845789,0.17077157174010635,-10.427717839613578,-0.1803841444278417,12.477845767376738,-23.742595589183114,-8.117830887626358,448.7483845538396,126.92527737099805,-123.03334563134992
1,2021-07-02 11:02:25.796,8845796,0.17204941473478713,-10.428798366882713,-0.1805270388025303,12.506049380814494,-23.764552160251625,-8.073519876965564,448.82786813295866,126.77676940183431,-122.82036715113874
1,2021-07-02 11:02:25.802,8845802,0.17327116793300698,-10.429885585237344,-0.1803125824340151,12.535359516918552,-23.78644954275803,-8.028534392758532,448.9070274842127,126.6289360709841,-122.6070653912809
1,2021-07-02 11:02:25.807,8845807,0.17443161420679204,-10.430979753183225,-0.17974076970719396,12.565829519955313,-23.808296737775063,-7.982940795298723,448.9862524414175,126.48195584721532,-122.39328314109602
1,2021-07-02 11:02:25.815,8845815,0.17552585911456736,-10.43208111639456,-0.1788125532158192,12.597507961997943,-23.830101729401225,-7.936810519269523,449.0659260591982,126.33603220398706,-122.17885739387383
1,2021-07-02 11:02:25.824,8845824,0.17654935696715282,-10.43318991340058,-0.17752983932317865,12.630438517659375,-23.85187151392924,-7.8902196994555,449.14642305660504,126.19139231344299,-121.96362110753849
1,2021-07-02 11:02:25.831,8845831,0.1774979343886773,-10.434306380343186,-0.17589548341277084,12.664659861069074,-23.873612134356073,-7.8432487692531065,449.22810825990285,126.048285571729,-121.74740494136495
1,2021-07-02 11:02:25.838,8845838,0.17836781102552438,-10.435430754346271,-0.17391328497858802,12.70020558427598,-23.895328718854056,-7.795982033500617,449.3113350494623,125.90698195820913,-121.53003894396029
1,2021-07-02 11:02:25.844,8845844,0.1791556170888911,-10.436563275171997,-0.17158798234741363,12.737104135950048,-23.917025521417415,-7.748507217877213,449.39644381573356,125.76777022160049,-121.31135417730668
1,2021-07-02 11:02:25.851,8845851,0.17985840759600114,-10.43770418506635,-0.16892524636743608,12.775378779815991,-23.938705963489294,-7.700914997003063,449.4837604293534,125.63095588421696,-121.0911842635279
1,2021-07-02 11:02:25.859,8845859,0.18047367346007726,-10.438853727029814,-0.16593167167312953,12.81504757304501,-23.96037267629688,-7.653298503425256,449.5735947305336,125.4968590556237,-120.86936684097118
1,2021-07-02 11:02:25.867,8845867,0.18099934973979265,-10.44001214194835,-0.16261476367417724,12.856123365198005,-23.982027544047526,-7.605752820025139,449.6662390429916,125.36581204713406,-120.6457449161146
1,2021-07-02 11:02:25.874,8845874,0.1814338213260904,-10.441179665015827,-0.15898291956085278,12.898613818350862,-24.003671748090408,-7.558374458533433,449.7619667178224,125.23815677872902,-120.42016809771863
1,2021-07-02 11:02:25.882,8845882,0.18177592624685449,-10.44235652183326,-0.15504540199763564,12.942521448691563,-24.025305811752364,-7.511260827817573,449.8610307128623,125.11424197014739,-120.19249369954005
1,2021-07-02 11:02:25.889,8845889,0.18202495667238267,-10.44354292452454,-0.1508123048690832,12.987843689412477,-24.046929645160883,-7.464509697347941,449.9636622132683,124.99442010808323,-119.96258769781431
1,2021-07-02 11:02:25.897,8845897,0.18218065757937008,-10.444739068079414,-0.14629451175039693,13.034572974792397,-24.068542589492882,-7.41821866181292,450.0700692992277,124.87904418163696,-119.7303255295931
1,2021-07-02 11:02:25.904,8845904,0.18224322295181444,-10.445945127005514,-0.141503648785468,13.082696845876495,-24.09014346057697,-7.372484611581517,450.18043566691506,124.76846417839647,-119.49559271789461
1,2021-07-02 11:02:25.910,8845910,0.182213289483567,-10.447161252418066,-0.13645203345322415,13.132198078091417,-24.111730591934318,-7.327403212194347,450.2949194090342,124.6630233337779,-119.25828530948701
1,2021-07-02 11:02:25.917,8845917,0.1820919279439873,-10.448387569890851,-0.13115261995047156,13.183054830050203,-24.133301876931682,-7.283068395910415,450.4136518615128,124.56305412652911,-119.01831011098078
1,2021-07-02 11:02:25.923,8845923,0.18188063248668065,-10.449624178498835,-0.1256189414891243,13.235240811947495,-24.154854809419298,-7.2395718686794925,450.5367365250885,124.46887402515362,-118.77558471453321
1,2021-07-02 11:02:25.930,8845930,0.18158130816180848,-10.450871151349498,-0.1198650496794007,13.288725472022286,-24.176386522620398,-7.197002635404982,450.66424808040966,124.38078104812698,-118.53003733320928
1,2021-07-02 11:02:25.938,8845938,0.18119625684543197,-10.4521285376507,-0.11390545115531583,13.343474199506673,-24.197893826677966,-7.155446545910483,450.79623153287326,124.29904930514877,-118.28160651789652
1,2021-07-02 11:02:25.945,8845945,0.18072816178462084,-10.453396366197092,-0.10775504160735318,13.39944854219742,-24.219373245579057,-7.114985863901036,450.9327015333251,124.2239247448277,-118.03024085640094
1,2021-07-02 11:02:25.952,8845952,0.18018007096085337,-10.454674650046657,-0.1014290373506708,13.456606436803916,-24.24082105419163,-7.075698860350776,451.07364191138237,124.15562127677268,-117.77589872627912
1,2021-07-02 11:02:25.960,8845960,0.17955537951037964,-10.455963391993183,-0.09494290454453388,13.514902449806128,-24.262233316005037,-7.037659431673539,451.2190054410768,124.09431733241999,-117.51854812076694
1,2021-07-02 11:02:25.967,8845967,0.17885781144892202,-10.457262590306927,-0.0883122862909655,13.574288026212958,-24.28360592203717,-7.000936742626418,451.368713849157,124.04015287153399,-117.25816653808533
1,2021-07-02 11:02:25.973,8845973,0.17809140081893018,-10.458572244156272,-0.08155292831221049,13.634711744624202,-24.304934631353678,-6.965594894015787,451.52265807473714,123.99322683017856,-116.99474091844188
1,2021-07-02 11:02:25.980,8845980,0.1772604721658316,-10.45989235799894,-0.07468060480644122,13.696119578348906,-24.32621511357119,-6.93169261584964,451.6806987892501,123.95359500638668,-116.72826761286099
1,2021-07-02 11:02:25.987,8845987,0.17636962013480362,-10.461222944176466,-0.06771104662356364,13.758455162976656,-24.347442993540348,-6.899282987008616,451.8426671859291,123.92126838019311,-116.45875236778953
1,2021-07-02 11:02:25.993,8845993,0.1754236880305802,-10.462564023251534,-0.06065987348154741,13.821660071186031,-24.368613898006714,-6.868413182055796,452.00836604830346,123.89621186513988,-116.18621030923745
1,2021-07-02 11:02:26.001,8846001,0.17442774530308333,-10.463915622127956,-0.053542531233788423,13.885674095706129,-24.389723503262815,-6.839124245111883,452.17757110744225,123.87834348881161,-115.9106659100254
1,2021-07-02 11:02:26.008,8846008,0.1733870640100165,-10.465277770340565,-0.04637423472797478,13.950435541230355,-24.410767582271923,-6.811450890434948,452.35003269792327,123.86753400040632,-115.63215292352433
1,2021-07-02 11:02:26.015,8846015,0.1723070944054051,-10.466650495222094,-0.039169916070560654,14.015881525882438,-24.431742049985605,-6.785421329201631,452.52547772273203,123.86360690379288,-115.35071426708582
1,2021-07-02 11:02:26.022,8846022,0.1711934400070652,-10.468033817181988,-0.03194417702717036,14.081948291739144,-24.45264300591301,-6.761057122020641,452.7036119375119,123.86633891494773,-115.06640183817724
1,2021-07-02 11:02:26.030,8846030,0.1700518327923301,-10.469427746749064,-0.024711243665851243,14.148571521392913,-24.473466773114176,-6.73837305712465,452.8841225647827,123.87546084309618,-114.77927624605327
1,2021-07-02 11:02:26.035,8846035,0.16888810942203292,-10.47083228491954,-0.017484921628118943,14.215686654870574,-24.494209933251554,-6.717377054651115,453.0666812489331,123.89065889530607,-114.48940644161544
1,2021-07-02 11:02:26.042,8846042,0.16770818935386148,-10.472247427788336,-0.010278551247587864,14.283229200456717,-24.514869358008657,-6.698070097398469,453.2509473629528,123.9115764046897,-114.19686922793424
1,2021-07-02 11:02:26.049,8846049,0.1665180551983149,-10.47367317556347,-0.0031049631138477343,14.351135033478693,-24.535442237258934,-6.680446187757534,453.4365716654955,123.93781597601863,-113.90174863855208
1,2021-07-02 11:02:26.056,8846056,0.16532373494208985,-10.475109545037256,0.004023563427458892,14.419340676287279,-24.55592610374702,-6.6644923296422585,453.623200244376,123.96894200921419,-113.60413519459897
1,2021-07-02 11:02:26.062,8846062,0.16413128526699886,-10.476556583982756,0.011095335326232001,14.487783551951065,-24.576318853644253,-6.650188533786884,453.81047857000266,124.00448350083913,-113.30412509493605
1,2021-07-02 11:02:26.068,8846068,0.16294677531153434,-10.478014385939995,0.01809927185432553,14.556402206653615,-24.59661876282497,-6.637507844682609,453.99805541971915,124.04393699032774,-113.00181941746592
1,2021-07-02 11:02:26.074,8846074,0.1617762705118315,-10.479483103898723,0.025024920722514065,14.625136499426654,-24.61682449955752,-6.626416387316152,454.18558649670194,124.08676955170604,-112.69732338551279
1,2021-07-02 11:02:26.082,8846082,0.1606258163015464,-10.480962961417516,0.031862464360520475,14.693927759905142,-24.636935134661766,-6.616873431871379,454.37273767980736,124.13242179251223,-112.3907457096801
1,2021-07-02 11:02:26.088,8846088,0.15950142141844476,-10.482454260214611,0.03860271676385096,14.762718916222832,-24.656950149721048,-6.60883147499452,454.5591879033943,124.18031085558158,-112.08219799136963
1,2021-07-02 11:02:26.093,8846093,0.15840904044211726,-10.483957384015763,0.045237111554486224,14.831454596738043,-24.676869442935452,-6.602236336889917,454.74463167866713,124.22983342631083,-111.77179416919459
1,2021-07-02 11:02:26.098,8846098,0.15735455511945004,-10.48547279886137,0.05175768203490802,14.900081210151882,-24.696693331644425,-6.5970272739243505,454.9287812680636,124.28036874818979,-111.45964998939154
1,2021-07-02 11:02:26.103,8846103,0.15634375416492421,-10.487001050112822,0.05815703416518156,14.968547008604945,-24.716422551022937,-6.593137106557576,455.1113685241667,124.3312816495243,-111.14588248121387
1,2021-07-02 11:02:26.108,8846108,0.1553823115514985,-10.488542756361797,0.06442831441546974,15.036802138082386,-24.736058249088984,-6.590492362758437,455.2921464045618,124.38192558437545,-110.83060941817584
1,2021-07-02 11:02:26.113,8846113,0.15447576369208646,-10.490098600483904,0.07056517649767158,15.104798680261032,-24.75560197806789,-6.589013437782933,455.4708901739774,124.43164569080082,-110.5139487459088
1,2021-07-02 11:02:26.118,8846118,0.153629486093788,-10.491669318115969,0.07656175214860479,15.172490689859218,-24.775055681907723,-6.588614771650808,455.6473983049572,124.47978186950695,-110.19601795729099
1,2021-07-02 11:02:26.125,8846125,0.15284866990901763,-10.493255683832396,0.08241262970959963,15.239834231244867,-24.79442168004291,-6.589205045473062,455.8214930881954,124.5256718860049,-109.87693339541961
1,2021-07-02 11:02:26.131,8846131,0.15213829852115274,-10.494858495421829,0.08811284096327285,15.306787416453737,-24.813702647899984,-6.590687397814896,455.9930209635478,124.56865449930376,-109.55680946490835
1,2021-07-02 11:02:26.138,8846138,0.15150312414497874,-10.4964785569946,0.09365785345892315,15.373310443804838,-24.832901594562948,-6.592959663158499,456.1618525825916,124.60807262007914,-109.23575773191521
1,2021-07-02 11:02:26.144,8846144,0.15094764443543754,-10.498116661865195,0.09904356412934709,15.439365634359111,-24.852021837812803,-6.595914635096386,456.32788261345945,124.64327650111514,-108.91388589323395
1,2021-07-02 11:02:26.151,8846151,0.15047607930958648,-10.499773576016237,0.1042662908425761,15.504917463759533,-24.871066976829635,-6.599440355834833,456.4910292985166,124.67362696263942,-108.59129659471873
1,2021-07-02 11:02:26.158,8846158,0.15009234856402212,-10.501450022701773,0.10932276005243516,15.569932587533012,-24.890040862982666,-6.603420431644917,456.6512337752853,124.69849865495169,-108.2680860792538
1,2021-07-02 11:02:26.167,8846167,0.14980005112800876,-10.503146668591524,0.11421008963469174,15.63437985813487,-24.908947569192147,-6.607734372613492,456.80845917277486,124.71728335663293,-107.94434265406244
1,2021-07-02 11:02:26.174,8846174,0.14960244682071777,-10.504864111655397,0.11892576689982828,15.698230333225826,-24.927791358468696,-6.612257954275747,456.96268950483227,124.72939328705884,-107.62014501526882
1,2021-07-02 11:02:26.181,8846181,0.14950244152779835,-10.506602870697412,0.12346762300373666,15.76145727627356,-24.94657665237339,-6.616863597530233,457.1139283992862,124.73426437692552,-107.2955605542846
1,2021-07-02 11:02:26.188,8846188,0.14950257663529365,-10.508363376296764,0.1278338056471998,15.824036151239016,-24.9653080001538,-6.621420762420397,457.2621977111096,124.73135942085504,-106.9706438187223
1,2021-07-02 11:02:26.194,8846194,0.1496050227640726,-10.510145963039935,0.13202275154014823,15.885944612747034,-24.98399004910168,-6.625796351742761,457.40753605800705,124.7201710550042,-106.64543525234524
1,2021-07-02 11:02:26.201,8846201,0.14981157648729407,-10.511950863178834,0.1360331592689795,15.947162492036236,-25.002627516247994,-6.629855120944468,457.5499972993121,124.70022453683282,-106.31996025184326
1,2021-07-02 11:02:26.209,8846209,0.15012365801094282,-10.51377820193448,0.13986396276712848,16.00767177821651,-25.021225161207504,-6.63346009102254,457.68964896926286,124.67108032297624,-105.99422853003712
1,2021-07-02 11:02:26.216,8846216,0.15054230854000933,-10.51562799436193,0.14351430570221235,16.067456594763538,-25.039787759997868,-6.636472962058017,457.8265706736193,124.63233644451,-105.66823376546428
1,2021-07-02 11:02:26.223,8846223,0.15106818746735495,-10.517500143138445,0.14698351738530993,16.126503171603424,-25.058320079584302,-6.638754526309727,457.96085245840794,124.58363067835691,-105.34195351828004
1,2021-07-02 11:02:26.230,8846230,0.15170157031105128,-10.519394436453274,0.15027109065903996,16.184799812583403,-25.076826852543075,-6.640165080633336,458.09259315940704,124.52464251302106,-105.01534939239278
1,2021-07-02 11:02:26.236,8846236,0.15244234818528574,-10.521310545696862,0.15337666143811962,16.24233685739287,-25.09531275097417,-6.640564838523434,458.2218987408176,124.45509490624364,-104.68836742373412
1,2021-07-02 11:02:26.242,8846242,0.15329002914556944,-10.523248023286877,0.1562999889400831,16.299106637206318,-25.113782358933808,-6.639814342355238,458.3488806314038,124.37475583156271,-104.36093867454721
1,2021-07-02 11:02:26.251,8846251,0.15424374152551637,-10.525206301108579,0.15904093586236917,16.355103424379447,-25.132240142971927,-6.6377748760722675,458.47365406622913,124.28343961012784,-104.03298001355508
1,2021-07-02 11:02:26.259,8846259,0.15530223937986345,-10.527184689854156,0.16159944842156082,16.410323377399333,-25.150690420421586,-6.634308877816887,458.59633644196566,124.18100802347112,-103.70439506184749
1,2021-07-02 11:02:26.267,8846267,0.15646391016877878,-10.529182379403565,0.1639755366141776,16.464764482471296,-25.16913732503883,-6.62928035144785,458.7170456936093,124.0673712022729,-103.37507528429617
1,2021-07-02 11:02:26.273,8846273,0.1577267847560019,-10.531198440339812,0.16616925539176464,16.518426492659,-25.187584769780408,-6.622555275580524,458.83589870029965,123.94248828548633,-103.0449012062751
1,2021-07-02 11:02:26.280,8846280,0.1590885496755621,-10.53323182665126,0.16818068792797725,16.571310864380077,-25.206036406719658,-6.614002008342127,458.9530097278133,123.80636784350172,-102.71374373542372
1,2021-07-02 11:02:26.287,8846287,0.16054656152693075,-10.535281379614544,0.1700099324059981,16.62342069030072,-25.22449558426629,-6.603491685732733,459.06848891517717,123.65906805834254,-102.38146556814448
1,2021-07-02 11:02:26.292,8846292,0.1620978632450485,-10.53734583269097,0.1716570933436664,16.67476062814613,-25.242965302401082,-6.590898611820599,459.1824408127348,123.50069665319516,-102.04792266047347
1,2021-07-02 11:02:26.301,8846301,0.1637392017906796,-10.53942381697895,0.17312227775951253,16.725336825677836,-25.2614481674897,-6.5761006395987645,459.2949629788913,123.33141056288241,-101.71296574290204
1,2021-07-02 11:02:26.308,8846308,0.16546704666521714,-10.541513866590243,0.17440559598464916,16.775156842364915,-25.279946348619475,-6.558979541556855,459.4061446426596,123.15141533813174,-101.37644185865713
1,2021-07-02 11:02:26.316,8846316,0.16727760866900265,-10.543614423438969,0.17550716643642403,16.824229568473925,-25.29846153674018,-6.53942136878326,459.5160654390392,122.96096428544111,-101.03819590487089
1,2021-07-02 11:02:26.323,8846323,0.16916685835537149,-10.545723841169039,0.17642712300610963,16.87256514222342,-25.316994906595035,-6.517316797016379,459.6247942241676,122.76035736101383,-100.69807215598189
1,2021-07-02 11:02:26.328,8846328,0.17113054377600206,-10.5478403882008,0.1771656237476389,16.920174865128665,-25.335547080639394,-6.492561458197124,459.73238797710314,122.54993984620931,-100.35591574861398
1,2021-07-02 11:02:26.336,8846336,0.17316420755998188,-10.549962250234437,0.17772286086638844,16.967071115363247,-25.35411809442978,-6.465056257022733,459.8388907950184,122.33010082168047,-100.01157410707279
1,2021-07-02 11:02:26.341,8846341,0.17526320380178645,-10.552087532811841,0.178099073323609,17.013267259400774,-25.372707363741213,-6.43470767274573,459.9443329885108,122.1012714394058,-99.66489828848349
1,2021-07-02 11:02:26.347,8846347,0.17742271528396142,-10.554214264479011,0.17829456339307673,17.058777563150443,-25.391313654169597,-6.4014280461169815,460.04873028366495,121.86392298158842,-99.31574422646919
1,2021-07-02 11:02:26.354,8846354,0.17963777146337057,-10.556340400901684,0.1783097178107971,17.103617104435585,-25.40993505393738,-6.3651358506732905,460.1520831374346,121.61856469288864,-98.96397385213388
1,2021-07-02 11:02:26.360,8846360,0.18190326772291512,-10.558463830231654,0.1781450337706904,17.147801688494845,-25.428568950203463,-6.325755947418661,460.2543761728446,121.36574137190462,-98.60945607097062
1,2021-07-02 11:02:26.367,8846367,0.18421398644036846,-10.560582380012042,0.17780114986562368,17.19134776756669,-25.447212008886687,-6.283219822052311,460.3555777404505,121.10603070729162,-98.25206757416323
1,2021-07-02 11:02:26.374,8846374,0.1865646201072817,-10.562693825724756,0.17727888153368082,17.234272364312925,-25.46586015813202,-6.237465803948029,460.455639612425,120.84004034341889,-97.89169346258825
1,2021-07-02 11:02:26.381,8846381,0.18894979615422844,-10.564795900750171,0.17657925960743384,17.276592996521522,-25.48450857576227,-6.188439266325966,460.5544968155782,120.56840466000396,-97.5282276616556
1,2021-07-02 11:02:26.389,8846389,0.19136410279172356,-10.566886307296055,0.17570356997403916,17.318327598996866,-25.503151681137815,-6.136092807266577,460.65206760954703,120.29178124974123,-97.1615731049495
1,2021-07-02 11:02:26.396,8846396,0.19380211522462545,-10.568962727843036,0.17465339256352874,17.359494439052302,-25.521783131862904,-6.080386411278956,460.74825361631997,120.01084707755561,-96.79164166444713
1,2021-07-02 11:02:26.403,8846403,0.19625842169658966,-10.571022836648721,0.1734306382484877,17.40011202289882,-25.540395825642737,-6.021287591605884,460.8429401071884,119.72629430476522,-96.41835380490306
1,2021-07-02 11:02:26.411,8846411,0.19872764875391452,-10.573064310828702,0.17203758227341284,17.44019899097765,-25.558981907239765,-5.9587715140729145,460.93599645313503,119.43882576113036,-96.04163793979069
1,2021-07-02 11:02:26.417,8846417,0.20120448505055943,-10.57508484065676,0.17047689283968212,17.479774002287343,-25.577532780137236,-5.8928211030741195,461.0272767445841,119.14915004750084,-95.66142946599068
1,2021-07-02 11:02:26.425,8846425,0.20368370311847858,-10.577082138942863,0.1687516537417039,17.51885561017085,-25.596039122469346,-5.82342712922532,461.1166205824919,118.85797626696407,-95.27766946576905
1,2021-07-02 11:02:26.432,8846432,0.20616017875828935,-10.57905394946213,0.16686538042174887,17.55746213318012,-25.61449090685482,-5.750588277294288,461.2038540233876,118.56600845927986,-94.8903031221742
1,2021-07-02 11:02:26.439,8846439,0.208628907899031,-10.580998054392682,0.16482202926469006,17.59561152490451,-25.63287742359461,-5.6743111928535255,461.28879062618927,118.27393995196512,-94.49927799780194
1,2021-07-02 11:02:26.445,8846445,0.21108502090016273,-10.582912280709678,0.16262600023320162,17.633321246642335,-25.651187306533767,-5.594610506244693,461.37123252922987,117.98244791836285,-94.10454238445634
1,2021-07-02 11:02:26.453,8846453,0.2135237945034643,-10.584794505601499,0.16028213322350865,17.670608146268194,-25.66940856118421,-5.511508832682016,461.4509715050668,117.69218835591654,-93.70604387321502
1,2021-07-02 11:02:26.459,8846459,0.2159406620147539,-10.58664266118044,0.15779569896696638,17.70748834583829,-25.687528595127723,-5.425036748105676,461.5277899751828,117.40379155915114,-93.30372819014609
1,2021-07-02 11:02:26.468,8846468,0.2183312225016371,-10.588454738887988,0.15517238553685922,17.743977139809157,-25.70553425090313,-5.335232740951661,461.60146198579736,117.11785808483256,-92.89753828489813
1,2021-07-02 11:02:26.475,8846475,0.22069124964058714,-10.590228794001968,0.15241828115694478,17.780088904700083,-25.723411841623772,-5.242143139550419,461.67175414969495,116.83495519144023,-92.48741364759327
1,2021-07-02 11:02:26.482,8846482,0.2230167005692232,-10.591962950632322,0.1495398534573541,17.81583701909282,-25.741147189383216,-5.145822014667092,461.7384265587971,116.55561373520094,-92.0732898292175
1,2021-07-02 11:02:26.488,8846488,0.2253037250060089,-10.593655407497497,0.14654392536098337,17.851233790863333,-25.758725665907825,-5.046331057478484,461.8012336720062,116.28032550508165,-91.65509814046376
1,2021-07-02 11:02:26.496,8846496,0.22754867498974937,-10.595304444521371,0.1434376484646323,17.886290387711295,-25.776132234187934,-4.9437394337668445,461.859925182647,116.00954097932535,-91.23276550374041
1,2021-07-02 11:02:26.502,8846502,0.22974811562595548,-10.596908430033777,0.14022847520796738,17.921016767781026,-25.793351489660605,-4.838123614303551,461.914246869602,115.74366748633048,-90.80621443281093
1,2021-07-02 11:02:26.512,8846512,0.23189883699470737,-10.59846582819326,0.13692413058779943,17.955421608844027,-25.81036770017865,-4.729567180055266,461.9639414360028,115.48306775292347,-90.37536311427976
1,2021-07-02 11:02:26.523,8846523,0.23399786693031882,-10.599975206076895,0.13353258321273276,17.989512236009023,-25.827164844795618,-4.618160600543783,462.00874933908426,115.2280588233492,-89.94012556488354
1,2021-07-02 11:02:26.532,8846532,0.23604248401218714,-10.601435239832954,0.13006201525719066,18.023294549089645,-25.843726651700948,-4.504000984649996,462.0484096145371,114.97891133260464,-89.50041183828714
1,2021-07-02 11:02:26.540,8846540,0.23803023000198598,-10.602844719576149,0.12652079159388635,18.056772952225156,-25.860036635642647,-4.387191803927236,462.0826606984117,114.7358491180645,-89.05612825481799
1,2021-07-02 11:02:26.548,8846548,0.23995892108342623,-10.604202553090659,0.12291742909058055,18.08995028952286,-25.876078135240405,-4.267842587934659,462.11124125317684,114.49904915368974,-88.6071776330822
1,2021-07-02 11:02:26.557,8846557,0.24182665741851916,-10.60550776858816,0.11926056707507517,18.12282779051128,-25.891834350735515,-4.146068589905066,462.1338910234846,114.26864179146945,-88.15345953102715
1,2021-07-02 11:02:26.567,8846567,0.24363183054919035,-10.606759516783468,0.11555893973372805,18.15540502863725,-25.907288382763635,-4.02199042091428,462.15035178153875,114.04471129511914,-87.69487055575262
1,2021-07-02 11:02:26.577,8846577,0.24537312810044107,-10.607957072454694,0.11182135113603152,18.187679895507994,-25.922423272562007,-3.8957336516687207,462.16036844087995,113.82729665144295,-87.23130482998194
1,2021-07-02 11:02:26.593,8846593,0.2470495353249394,-10.609099835443471,0.10805665348720936,18.219648592762876,-25.937222043728607,-3.7674283817948555,462.163690397768,113.61639264515853,-86.76265467391268
1,2021-07-02 11:02:26.608,8846608,0.24866033343001354,-10.610187330918015,0.10427372893695872,18.251305641948083,-25.95166774538729,-3.637208777604619,462.1600731242857,113.41195118338135,-86.28881150884813
1,2021-07-02 11:02:26.617,8846617,0.250205095222294,-10.611219208773932,0.10048147483377723,18.282643910323703,-25.96574349630097,-3.5052125821784217,462.1492800176213,113.21388285636417,-85.80966695980528
1,2021-07-02 11:02:26.627,8846627,0.2516836789785903,-10.612195242072096,0.09668879179347442,18.313654647986137,-25.979432529090786,-3.3715806046961037,462.13108450572395,113.02205872148743,-85.32511412820173
1,2021-07-02 11:02:26.643,8846643,0.2530962214245479,-10.613115324363214,0.09290457356341042,18.344327531084904,-25.992718233768656,-3.236456196223333,462.10527240909806,112.83631229789245,-84.83504900540383
1,2021-07-02 11:02:26.657,8846657,0.25444313053752077,-10.61397946583784,0.08913769758073109,18.374650707757347,-26.005584200549688,-3.0999847175665156,462.07164455806117,112.65644175954034,-84.33937199759191
1,2021-07-02 11:02:26.666,8846666,0.2557250786697546,-10.61478778842673,0.08539701523770163,18.404610845943743,-26.01801426262968,-2.962313004029261,462.03001965469974,112.48221231293638,-83.83798953206433
1,2021-07-02 11:02:26.678,8846678,0.2569429961388043,-10.615540520051656,0.08169134079884635,18.43419318426239,-26.02999253949317,-2.8235888311796153,461.98023732012666,112.31335873649978,-83.3308157147635
1,2021-07-02 11:02:26.692,8846692,0.2580980651565838,-10.616237988232585,0.07802943750676483,18.463381588461164,-26.041503480565083,-2.6839603839007173,461.9221611804629,112.14958804158023,-82.81777400846066
1,2021-07-02 11:02:26.705,8846705,0.2591917138218061,-10.61688061335082,0.0744199994013244,18.492158615821186,-26.05253190836021,-2.543575729517563,461.8556817963151,111.99058220583602,-82.29879890068484
1,2021-07-02 11:02:26.714,8846714,0.2602256095791308,-10.617468901989144,0.07087162858742198,18.520505587518834,-26.06306306013035,-2.402582295869884,461.7807192881783,111.83600093965171,-81.77383753012522
1,2021-07-02 11:02:26.727,8846727,0.26120165108892157,-10.618003440655635,0.06739280944887238,18.548402665705265,-26.07308262733592,-2.2611263559905797,461.6972255963817,111.68548446392448,-81.24285123987426
1,2021-07-02 11:02:26.740,8846740,0.2621219574477406,-10.618484889731892,0.06399188204432031,18.575828930338826,-26.08257679279171,-2.119352521436931,461.6051863618416,111.53865628747438,-80.70581702551448
1,2021-07-02 11:02:26.748,8846748,0.2629888543816617,-10.618913976969731,0.06067701627242282,18.602762451237435,-26.091532265653644,-1.9774032465844165,461.5046224229987,111.39512597453165,-80.16272884568271
1,2021-07-02 11:02:26.755,8846755,0.26380485778557683,-10.619291489792303,0.05745618739164851,18.62918035267792,-26.099936314350142,-1.8354183467330583,461.3955909237917,111.25449189300438,-79.61359876237523
1,2021-07-02 11:02:26.764,8846764,0.2645726552497343,-10.619618266161112,0.05433715291052945,18.655058870612937,-26.10777679731612,-1.6935345331172271,461.2781860269931,111.1163439344565,-79.05845787788526
1,2021-07-02 11:02:26.772,8846772,0.265295086151644,-10.619895184414654,0.05132743064437102,18.680373405302266,-26.11504219121218,-1.5518849676855981,461.1525392267113,110.98026619692868,-78.49735703489138
1,2021-07-02 11:02:26.782,8846782,0.26597512080552715,-10.620123152823528,0.048434277611568405,18.705098573774446,-26.121721616301464,-1.4105988399626954,461.0188192533399,110.8458396219133,-77.93036724584456
1,2021-07-02 11:02:26.794,8846794,0.26661583908949976,-10.620303099580582,0.04566466944894253,18.7292082667936,-26.127804858827137,-1.269800966706036,460.8772315685406,110.71264457983693,-77.35757982417422
1,2021-07-02 11:02:26.809,8846809,0.26722040886205445,-10.62043596369646,0.043025280358440825,18.752675714560798,-26.13328239055347,-1.1296114129149266,460.7280174714181,110.58026341298131,-76.77910622318264
1,2021-07-02 11:02:26.823,8846823,0.2677920643065389,-10.620522686985778,0.04052246419280931,18.775473564892696,-26.13814538584251,-0.9901451330377391,460.57145287990045,110.44828297088367,-76.19507764882212
1,2021-07-02 11:02:26.832,8846832,0.2683340841466455,-10.62056420717819,0.03816223758948919,18.7975739765711,-26.14238573640382,-0.8515116350063724,460.4078468749353,110.3162971877832,-75.605644545908
1,2021-07-02 11:02:26.843,8846843,0.2688497696552961,-10.620561452199587,0.03595026571163848,18.818948728424314,-26.14599606339117,-0.7138146731762438,460.2375400705627,110.183909737281,-75.01097602325551
1,2021-07-02 11:02:26.858,8846858,0.2693424225751429,-10.62051533562419,0.033891850621439776,18.839569342613952,-26.1489697264267,-0.5771519761128079,460.0609028291255,110.05073677339743,-74.41125922220009
1,2021-07-02 11:02:26.871,8846871,0.26981532321433,-10.620426753013383,0.03199192207612471,18.859407219554743,-26.15130082948197,-0.4416150129733733,459.87833331636193,109.91640975276142,-73.8066985989132
1,2021-07-02 11:02:26.881,8846881,0.270271709016349,-10.620296578590755,0.03025503024763047,18.878433781384015,-26.15298422386176,-0.3072888004262847,459.6902553858999,109.78057832975233,-73.19751508386044
1,2021-07-02 11:02:26.895,8846895,0.2707147540394469,-10.620125661788093,0.028685339393837578,18.896620620590443,-26.154015508552828,-0.17425175069120277,459.49711628227953,109.64291331636701,-72.58394508143877
1,2021-07-02 11:02:26.909,8846909,0.27114755000069757,-10.619914823494968,0.027286621868268517,18.91393965114537,-26.154391027993988,-0.042575560065782066,459.29938415126895,109.50310969851485,-71.96623927253157
1,2021-07-02 11:02:26.922,8846922,0.27157308959864745,-10.619664852087233,0.02606225311484701,18.93036326156268,-26.154107867102773,0.08767486305605593,459.09754535264216,109.36088969360809,-71.3446611911054
1,2021-07-02 11:02:26.932,8846932,0.2719942526481597,-10.619376499496768,0.025015208672162646,18.945864471015103,-26.153163843455985,0.2164414311080533,458.8921016039914,109.21600580048863,-70.71948558905095
1,2021-07-02 11:02:26.945,8846945,0.2724137952935567,-10.619050477785922,0.024148063284942588,18.96041708922579,-26.15155749698698,0.3436728717101459,458.6835670445514,109.06824373191365,-70.09099668124232
1,2021-07-02 11:02:26.957,8846957,0.27283434220678954,-10.618687456900398,0.023462991110120058,18.973995878942652,-26.149288078169384,0.4693246854461985,458.4724653414754,108.91742508596049,-69.45948640589896
1,2021-07-02 11:02:26.970,8846970,0.27325838112030115,-10.618288064378353,0.022961765064754332,18.986576718071554,-26.146355536003426,0.5933590704867864,458.2593269270676,108.76340964626344,-68.82525279176487
1,2021-07-02 11:02:26.982,8846982,0.2736882586898284,-10.617852887435035,0.022645753911678505,18.99813675801195,-26.142760506740668,0.7157448174675243,458.0446863945966,108.60609726150625,-68.18859844538969
1,2021-07-02 11:02:26.996,8846996,0.2741261769585347,-10.617382476938081,0.022515918777418934,19.008654575405433,-26.138504303159692,0.8364571770200877,457.82908004644383,108.445429288123,-67.54982912826193
1,2021-07-02 11:02:27.008,8847008,0.27457419016342915,-10.61687735211113,0.022572812995197516,19.01811031535453,-26.133588903406366,0.955477701487463,457.6130435814705,108.28138958670755,-66.90925238470756
1,2021-07-02 11:02:27.016,8847016,0.2750342017128099,-10.616338005004666,0.02281658721540343,19.026485824398357,-26.128016938766343,1.0727940623168095,457.3971099083964,108.1140050624304,-66.267176181318
1,2021-07-02 11:02:27.028,8847028,0.2755079610489216,-10.6157649044415,0.02324699842938565,19.033764771507247,-26.121791680557767,1.188399845286646,457.1818070719228,107.94334573955699,-65.62390751854136
1,2021-07-02 11:02:27.042,8847042,0.2759970601750524,-10.6151584997064,0.023863420622051507,19.03993275520605,-26.114917026789072,1.3022943257000432,456.96765627830433,107.76952436573539,-64.97975098459196
1,2021-07-02 11:02:27.051,8847051,0.27650292987551106,-10.61451922451551,0.02466485595184088,19.044977394118927,-26.107397489210175,1.4144822238803336,456.75517000708294,107.59269557041554,-64.33500726990563
1,2021-07-02 11:02:27.060,8847060,0.27702683591545113,-10.613847501535513,0.025649947182936634,19.04888839741844,-26.099238180728833,1.5249734398973265,456.544850195734,107.41305465358012,-63.68997174699004
1,2021-07-02 11:02:27.069,8847069,0.2775698756234845,-10.61314374712842,0.02681699331895366,19.05165761228844,-26.09044480228672,1.6337827680134438,456.3371864840453,107.23083610967258,-63.044933268629535
1,2021-07-02 11:02:27.077,8847077,0.27813297519203206,-10.612408375824714,0.028163969631467518,19.053279047336876,-26.081023628494965,1.7409295939040785,456.1326545051533,107.04631196252619,-62.40017328920251
1,2021-07-02 11:02:27.085,8847085,0.2787168879118207,-10.611641804381671,0.029688551170015082,19.05374887256265,-26.070981492695367,1.8464375780918356,455.93171421029245,106.85978993490784,-61.755965327155344
1,2021-07-02 11:02:27.093,8847093,0.27932219351209453,-10.610844455545434,0.03138813814845356,19.0530653975161,-26.060325772975027,1.9503343278407757,455.73480821447566,106.6716114472354,-61.11257473851183
1,2021-07-02 11:02:27.101,8847101,0.2799492987793369,-10.610016761540829,0.0332598833595289,19.051229029885654,-26.04906438009419,2.0526510591410583,455.54236015051987,106.48214943410672,-60.47025876168102
1,2021-07-02 11:02:27.110,8847110,0.28059843957795644,-10.60915916715847,0.03530072343903317,19.048242216822363,-26.037205747229866,2.153422251000738,455.3547730190483,106.29180596715678,-59.82926679385985
1,2021-07-02 11:02:27.118,8847118,0.2812696841906349,-10.608272132376149,0.037507414640126774,19.044109371045504,-26.024758820965534,2.2526852953866374,455.1724275223486,106.10100967265919,-59.18984085937721
1,2021-07-02 11:02:27.126,8847126,0.28196293757065977,-10.607356134699348,0.03987657062343836,19.038836783709375,-26.011733053038448,2.350480146738278,454.9956803702419,105.9102129322096,-58.55221623039188
1,2021-07-02 11:02:27.134,8847134,0.28267794596187185,-10.606411671612065,0.04240469798714158,19.03243252590109,-25.99813839251669,2.4468489745677404,454.8248625464163,105.71988885477676,-57.916622160438
1,2021-07-02 11:02:27.142,8847142,0.2834143015732882,-10.605439263568892,0.04508822639246851,19.024906339841905,-25.98398527814463,2.541835821751869,454.66027752399737,105.53052800837871,-57.28328269140814
1,2021-07-02 11:02:27.151,8847151,0.28417144728670674,-10.604439457860437,0.04792353240140431,19.016269519909702,-25.969284630654478,2.635486270156048,454.5021994194764,105.34263489964393,-56.65241749467443
1,2021-07-02 11:02:27.159,8847159,0.2849486814091436,-10.603412833520478,0.0509069575038693,19.00653478330945,-25.954047844932997,2.7278471144695207,454.3508710744786,105.15672418954586,-56.02424270717384
1,2021-07-02 11:02:27.168,8847168,0.28574516238203007,-10.602360007270457,0.054034821193421984,18.995716130259936,-25.938286781905973,2.8189660451497973,454.2065020610167,104.97331664329322,-55.39897172534821
1,2021-07-02 11:02:27.176,8847176,0.2865599133373635,-10.601281640287064,0.05730343021256587,18.98382869322015,-25.922013759771808,2.908891341923262,454.0692666351744,104.79293486061339,-54.7768159296157
1,2021-07-02 11:02:27.185,8847185,0.2873918264290498,-10.600178445318003,0.06070908553893962,18.970888574058197,-25.90524154401663,2.997671579130655,453.93930171659633,104.61609891948464,-54.15798532955462
1,2021-07-02 11:02:27.193,8847193,0.28823966691487213,-10.599051193553827,0.06424808855474097,18.956912667998846,-25.887983335808553,3.0853553433791645,453.81670500048483,104.44332211469224,-53.54268912979296
1,2021-07-02 11:02:27.202,8847202,0.2891020770576705,-10.597900720819382,0.06791674657775258,18.94191847406781,-25.870252758826926,3.171990963683895,453.7015332803482,104.27510692460491,-52.931136207155696
1,2021-07-02 11:02:27.211,8847211,0.2899775800718205,-10.596727932804113,0.07171137660380617,18.925923892941928,-25.85206384475698,3.2576262545979633,453.5938010081683,104.11194125309109,-52.32353547248768
1,2021-07-02 11:02:27.220,8847220,0.29086458450773195,-10.595533808956533,0.07562830591199259,18.90894701378528,-25.833431017223845,3.342308273149892,453.4934790902137,103.95429494557875,-51.72009608115531
1,2021-07-02 11:02:27.229,8847229,0.291761389532401,-10.594319404569603,0.07966386883973506,18.891005891691055,-25.814369073373566,3.4260830909584596,453.40049391139684,103.80261656891108,-51.12102745453379
1,2021-07-02 11:02:27.238,8847238,0.292666191495829,-10.593085850836722,0.08381439991555205,18.872118317563906,-25.79489316239918,3.508995583702344,453.31472658153325,103.65733044496035,-50.526539075030946
1,2021-07-02 11:02:27.247,8847247,0.29357709209099764,-10.591834353119307,0.08807622449592496,18.852301583409677,-25.77501876102489,3.591089240347443,453.23601239731437,103.51883392830193,-49.936840017454934
1,2021-07-02 11:02:27.256,8847256,0.2944921083926824,-10.590566187781254,0.09244564888699815,18.83157224720373,-25.754761646487978,3.6724059939258447,453.1641405142561,103.38749491861647,-49.352138179802445
1,2021-07-02 11:02:27.266,8847266,0.2954091849780463,-10.589282697560542,0.09691895228810331,18.80994590156925,-25.73413786735872,3.7529860749199804,453.0988538233269,103.26364959888238,-48.77263917682681
1,2021-07-02 11:02:27.280,8847280,0.2963262079734099,-10.587985285225125,0.10149238243692277,18.787436949989342,-25.7131637119217,3.832867887859998,453.0398490273937,103.14760039083654,-48.19854486004016
1,2021-07-02 11:02:27.294,8847294,0.29724102028284893,-10.586675405661644,0.10616215552872946,18.76405839415721,-25.691855673368032,3.9120879114021467,452.98677691400604,103.03961412251176,-47.630051444488025
1,2021-07-02 11:02:27.307,8847307,0.2981514369829032,-10.585354556956114,0.11092445935751943,18.73982163590279,-25.67023041111226,3.990680621399564,452.9392428262593,102.93992041756913,-47.06734730483468
1,2021-07-02 11:02:27.318,8847318,0.29905526024040174,-10.58402427078446,0.11577545726847666,18.714736296605807,-25.648304708292343,4.068678435019801,452.896807342532,102.848710342631,-46.51061065101387
1,2021-07-02 11:02:27.331,8847331,0.29995029359342923,-10.582686101893447,0.12071128992446536,18.68881005682513,-25.626095426462232,4.1461116728324665,452.85898718107285,102.76613536376507,-45.96000737592389
1,2021-07-02 11:02:27.343,8847343,0.30083435549960974,-10.581341616285405,0.12572807269897546,18.662048519342612,-25.60361945900396,4.223008536249245,452.82525634093764,102.69230664933042,-45.4156892861233
1,2021-07-02 11:02:27.356,8847356,0.3017052919450407,-10.579992378052534,0.13082188842929338,18.63445509957299,-25.580893684799307,4.299395099059886,452.79504748241425,102.62729473090842,-44.877792779467036
1,2021-07-02 11:02:27.368,8847368,0.30256098799409736,-10.578639935338016,0.13598877677587465,18.606030947816013,-25.55793492324922,4.375295312776022,452.7677535455458,102.57112952012271,-44.346437952120866
1,2021-07-02 11:02:27.381,8847381,0.3033993783023007,-10.577285806192119,0.1412247214756392,18.57677490749893,-25.534759890899128,4.450731025943352,452.74272960464464,102.52380067680011,-43.821728101403224
1,2021-07-02 11:02:27.394,8847394,0.3042184565676187,-10.57593146493396,0.1465256358949311,18.546683512471343,-25.511385159249272,4.52572201755116,452.7192949569076,102.4852583244655,-43.30374959129819
1,2021-07-02 11:02:27.408,8847408,0.305016283839416,-10.57457832927785,0.15188734676402682,18.515751025115037,-25.48782711298316,4.600286044235225,452.69673544342,102.45541410970806,-42.79257204788615
1,2021-07-02 11:02:27.418,8847418,0.3057909956584194,-10.573227748251833,0.15730557623202415,18.48396951541603,-25.46410190764432,4.674438900585972,452.67430600097344,102.43414260249823,-42.28824885234749
1,2021-07-02 11:02:27.430,8847430,0.3065408079032491,-10.571880990875854,0.16277592278466074,18.451328979309302,-25.44022542596083,4.748194491696139,452.65123344514683,102.42128302929582,-41.79081789768237
1,2021-07-02 11:02:27.442,8847442,0.3072640211395318,-10.570539235659568,0.16829384180567183,18.417817493369842,-25.416213232519254,4.821564916858338,452.62671949478477,102.41664130242484,-41.3003025660752
1,2021-07-02 11:02:27.455,8847455,0.3079590236573199,-10.569203561183471,0.1738546268460351,18.383421402492157,-25.392080526866362,4.894560562657653,452.5999440653536,102.41999225770051,-40.8167128669151
1,2021-07-02 11:02:27.466,8847466,0.30862429385036766,-10.56787493811977,0.17945339271919605,18.34812553685495,-25.36784209544729,4.967190203055782,452.5700688682471,102.43108198391198,-40.340046666274986
1,2021-07-02 11:02:27.480,8847480,0.30925840253395676,-10.56655422281843,0.18508506120789942,18.311913453837356,-25.343512263293928,5.039461104600292,452.53624134339174,102.44963015716776,-39.870290948710725
1,2021-07-02 11:02:27.493,8847493,0.3098600154511198,-10.565242152135614,0.19074434996873024,18.274767700103506,-25.319104846796264,5.111379136251645,452.49759893502073,102.47533234562087,-39.407423070006956
1,2021-07-02 11:02:27.504,8847504,0.31042789592998177,-10.563939338858368,0.19642576513550836,18.236670089625004,-25.294633108946257,5.1829488836929904,452.45327371066395,102.50786227946439,-38.951411969556
1,2021-07-02 11:02:27.517,8847517,0.3109609073769346,-10.562646267227924,0.20212359778930272,18.19760199530526,-25.270109718264155,5.254173766417344,452.40239732122564,102.54687408732704,-38.50221931340797
1,2021-07-02 11:02:27.524,8847524,0.31145801513650917,-10.56136328872587,0.20783192426237265,18.157544653921153,-25.245546712470453,5.325056153463654,452.3441062997305,102.59200450063803,-38.05980053945463
1,2021-07-02 11:02:27.532,8847532,0.31191828745380284,-10.560090618866168,0.2135446102676672,18.116479484394223,-25.22095546780443,5.395597472585397,452.2775476959632,102.64287502795109,-37.62410577663198
1,2021-07-02 11:02:27.539,8847539,0.31234089568271234,-10.558828335620957,0.2192553185019351,18.074388417835028,-25.1963466745397,5.465798308617156,452.2018850438262,102.69909410161569,-37.19508061044658
1,2021-07-02 11:02:27.546,8847546,0.31272511409268205,-10.557576379599912,0.22495751883358417,18.031254236132003,-25.171730318754804,5.535658488868875,452.1163046442961,102.76025919763377,-36.77266667332759
1,2021-07-02 11:02:27.552,8847552,0.313070319467961,-10.55633455583534,0.23064449997075173,17.987060914940844,-25.147115669972788,5.605177155425871,452.0200220789203,102.82595892026083,-36.356802067619725
1,2021-07-02 11:02:27.559,8847559,0.3133759903597337,-10.555102537039692,0.23630938137627136,17.941793966203843,-25.122511274077368,5.674352825412366,451.9122887468616,102.89577502589965,-35.94742168146083
1,2021-07-02 11:02:27.565,8847565,0.3136417056834733,-10.553879868235168,0.24194512412217764,17.895440774948295,-25.097924950920493,5.743183440634382,451.79239815045673,102.96928435150737,-35.5444574870939
1,2021-07-02 11:02:27.572,8847572,0.3138671425171206,-10.552665972595591,0.24754453969705537,17.847990925743044,-25.073363796217986,5.811666408186338,451.65969172102876,103.04606062264803,-35.14783888266822
1,2021-07-02 11:02:27.579,8847579,0.31405207328456797,-10.551460158216436,0.25310029623301866,17.799436515263526,-25.04883418775706,5.879798633513439,451.51356409736076,103.1256761339159,-34.75749308696647
1,2021-07-02 11:02:27.586,8847586,0.3141963626905321,-10.550261625469375,0.2586049219572913,17.74977244813876,-25.024341796193315,5.9475765472268645,451.3534678359251,103.20770330431526,-34.373345567991265
1,2021-07-02 11:02:27.593,8847593,0.314299964696794,-10.54906947471383,0.26405080632352096,17.698996714102467,-24.99989160032145,6.0149961270736885,451.17891754465757,103.29171611231003,-33.99532048095611
1,2021-07-02 11:02:27.599,8847599,0.3143629196616381,-10.547882714346658,0.26943020030901377,17.647110645824384,-24.97548790606593,6.082052916441815,450.9894934312432,103.37729141543194,-33.62334109161222
1,2021-07-02 11:02:27.605,8847605,0.31438535166058634,-10.546700269268646,0.2747352179535959,17.594119157590544,-24.951134368116424,6.148742040537183,450.78484425602045,103.46401015948449,-33.25733016122484
1,2021-07-02 11:02:27.610,8847610,0.3143674659395988,-10.545520989722078,0.2799578408951672,17.540030964498506,-24.92683401312731,6.215058221048237,450.56468967872433,103.55145848250272,-32.897210269890174
1,2021-07-02 11:02:27.616,8847616,0.31430954636658115,-10.54434366020409,0.28508992703265584,17.484858780983117,-24.902589263545632,6.280995789308237,450.32882198737246,103.63922871872505,-32.54290405525642
1,2021-07-02 11:02:27.623,8847623,0.31421195268012436,-10.543167008040657,0.29012322405656055,17.428619497088857,-24.87840196130883,6.346548697429898,450.0771071966667,103.72692030790428,-32.19433434408086
1,2021-07-02 11:02:27.629,8847629,0.31407511728590476,-10.541989711381921,0.29504938819624676,17.37133433083714,-24.854273390956717,6.411710527709015,449.80948550232586,103.81414061533044,-31.85142415441759
1,2021-07-02 11:02:27.634,8847634,0.31389954126588043,-10.540810406712735,0.2998600079900303,17.31302895525493,-24.830204302274716,6.476474501850015,449.52597107680356,103.9005056679577,-31.514096546589364
1,2021-07-02 11:02:27.642,8847642,0.313685789216962,-10.53962769615732,0.30454663257934633,17.253733598723215,-24.806194932904436,6.540833492253527,449.2266511908694,103.98564081202358,-31.182274301450363
1,2021-07-02 11:02:27.649,8847649,0.3134344826438566,-10.538440154773646,0.3091008041273668,17.19348311681317,-24.782245030934924,6.6047800378900225,448.91168464455524,104.06918129752002,-30.85587940479578
1,2021-07-02 11:02:27.657,8847657,0.31314629184006754,-10.537246337820282,0.3135140939139555,17.132317033580854,-24.758353877033393,6.668306366429634,448.58129948999186,104.15077279482311,-30.53483231711822
1,2021-07-02 11:02:27.664,8847664,0.3128219264095566,-10.536044787853315,0.3177781411458149,17.07027955123364,-24.734520305946525,6.7314044217139894,448.23579004406554,104.23007184967696,-30.219051016919938
1,2021-07-02 11:02:27.670,8847670,0.3124621248737586,-10.53483404170038,0.32188469330117203,17.007419528184005,-24.71074272766505,6.794065893260811,447.87551326974335,104.30674628744485,-29.908449849472355
1,2021-07-02 11:02:27.676,8847676,0.31206764417448807,-10.53361263786246,0.32582564752261733,16.943790425513363,-24.6870191484375,6.856282244371263,447.5008847513509,104.38047558609195,-29.60293829127044
1,2021-07-02 11:02:27.683,8847683,0.3116392500651118,-10.532379125203603,0.3295930935181562,16.879450221025127,-24.663347191395975,6.918044737129354,447.1123745700364,104.4509512420382,-29.302419784101907
1,2021-07-02 11:02:27.691,8847691,0.31117770928814453,-10.531132073441226,0.33317935892621914,16.814461289541814,-24.639724116639048,6.979344454411969,446.71050330286755,104.51787714804338,-29.006790749622414
1,2021-07-02 11:02:27.698,8847698,0.3106837843432582,-10.529870085250636,0.33657705833827584,16.7488902484645,-24.616146841394595,7.040172319877488,446.2958382207422,104.58096999343502,-28.715939817614906
1,2021-07-02 11:02:27.707,8847707,0.31015823154176897,-10.528591809394275,0.3397791471666059,16.682807768059078,-24.592611961401712,7.100519116999328,445.86898967756235,104.63995969197371,-28.42974725807079
1,2021-07-02 11:02:27.715,8847715,0.30960180251244734,-10.527295954326984,0.34277898081229735,16.61628834587813,-24.569115774187928,7.1603755080084,445.4306076659199,104.69458984146874,-28.14808459886218
1,2021-07-02 11:02:27.721,8847721,0.3090152484518112,-10.525981301894156,0.3455703783364363,16.549410044833753,-24.545654304138747,7.2197320529396265,444.98137851375964,104.74461821902125,-27.870814411068455
1,2021-07-02 11:02:27.728,8847728,0.3083993259269511,-10.524646720821925,0.34814768900300513,16.482254194792336,-24.5222233289353,7.278579228434495,444.5220216957333,104.78981731551978,-27.597790244307355
1,2021-07-02 11:02:27.736,8847736,0.3077548032993209,-10.52329117972519,0.35050585976930065,16.41490505804893,-24.498818407167278,7.336907446197903,444.05328673225057,104.82997491274519,-27.328856694699553
1,2021-07-02 11:02:27.742,8847742,0.30708246736064465,-10.521913759334986,0.3526405013136271,16.34744946065204,-24.475434907562377,7.394707071071487,443.5759501485642,104.86489470615831,-27.063849588366132
1,2021-07-02 11:02:27.748,8847748,0.3063831300003542,-10.520513663529874,0.35454794964849273,16.279976394336753,-24.4520680405914,7.451968437864334,443.0908124656048,104.89439697614755,-26.802596263619684
1,2021-07-02 11:02:27.753,8847753,0.30565763465779233,-10.519090228602098,0.35622532056999284,16.21257659593718,-24.428712892546084,7.508681865323276,442.59869519370324,104.91831931020262,-26.544915935261557
1,2021-07-02 11:02:27.758,8847758,0.3049068622416757,-10.517642930155567,0.3576705550808284,16.145342110502884,-24.40536446115342,7.564837666066324,442.1004377998102,104.93651737815951,-26.290620124639428
1,2021-07-02 11:02:27.763,8847763,0.3041317362666749,-10.516171387230159,0.358882454902835,16.078365841159737,-24.38201769135675,7.620426152817776,441.5968946183409,104.94886576232733,-26.03951313935049
1,2021-07-02 11:02:27.769,8847769,0.30333322707959703,-10.514675363647841,0.35986070798937103,16.01174108706184,-24.358667510250083,7.675437642166088,441.0889316753448,104.95525884396582,-25.791392586695373
1,2021-07-02 11:02:27.775,8847775,0.30251235511512375,-10.513154767023224,0.3606059044803822,15.945561073066399,-24.335308860902906,7.729862456272871,440.5774233953226,104.9556117472293,-25.54604990519632
1,2021-07-02 11:02:27.782,8847782,0.3016701931471669,-10.511609646110971,0.361119543772118,15.879918477164834,-24.311936735302584,7.783690922097034,440.0632491596857,104.94986134133346,-25.303270898689366
1,2021-07-02 11:02:27.788,8847788,0.30080786756948896,-10.510040187091583,0.3614040334510038,15.814904961093072,-24.288546206680753,7.836913368254936,439.54728969714284,104.9379672974822,-25.06283626153732
1,2021-07-02 11:02:27.794,8847794,0.299926558862098,-10.508446709270697,0.361462680992244,15.750610708434044,-24.265132461560697,7.889520120667611,439.0304233438761,104.91991317745455,-24.82452210294707
1,2021-07-02 11:02:27.802,8847802,0.29902750146764245,-10.506829660596155,0.36129967920138806,15.687123973926461,-24.24169083190129,7.941501498701764,438.51352231523964,104.89570749569756,-24.58810051321096
1,2021-07-02 11:02:27.808,8847808,0.2981119832547726,-10.505189613243004,0.36092008607355536,15.624530645718506,-24.21821682721441,7.992847813892554,437.99744918840304,104.86538467712842,-24.35334023410216
1,2021-07-02 11:02:27.815,8847815,0.2971813447350669,-10.503527259306924,0.36032979915682806,15.562913820540414,-24.194706165828265,8.043549373306098,437.48305373750503,104.8290058517353,-24.12000747651861
1,2021-07-02 11:02:27.821,8847821,0.2962369783370741,-10.501843406529579,0.35953552397352423,15.502353392633193,-24.171154804175057,8.093596488779072,436.97117015884857,104.78665946136806,-23.887866893908313
1,2021-07-02 11:02:27.828,8847828,0.2952803281182358,-10.500138973964043,0.3585447359248904,15.442925658636945,-24.14755896302686,8.142979492522764,436.46261466591875,104.73846167299814,-23.656682700845252
1,2021-07-02 11:02:27.836,8847836,0.29431289006444844,-10.49841498753335,0.3573656357120475,15.384702940307324,-24.12391514979885,8.191688759420636,435.9581834225498,104.68455659620989,-23.42621992235995
1,2021-07-02 11:02:27.844,8847844,0.29333621267983123,-10.49667257552179,0.3560070994329043,15.32775322645648,-24.100220176439272,8.239714735952713,435.45865078272044,104.62511630231727,-23.196245759702226
1,2021-07-02 11:02:27.851,8847851,0.292351897177382,-10.494912964106682,0.35447862523778156,15.272139836058479,-24.076471172857367,8.287047974809763,434.9647678056628,104.56034064214161,-22.96653105827268
1,2021-07-02 11:02:27.858,8847858,0.2913615963826754,-10.493137473032482,0.35279027819437797,15.217921104738622,-24.052665595971714,8.333679173815824,434.4772610152213,104.49045685913488,-22.736851863503983
1,2021-07-02 11:02:27.865,8847865,0.29036701155421973,-10.49134751147254,0.3509526342895387,15.165150095917465,-24.028801234300364,8.379599218209506,433.99683137269983,104.41571899419337,-22.506991050503395
1,2021-07-02 11:02:27.873,8847873,0.28936988682979004,-10.48954457407642,0.3489767239105301,15.113874336145766,-24.004876208010863,8.424799225923664,433.5241534327835,104.33640707817878,-22.276740013284115
1,2021-07-02 11:02:27.880,8847880,0.2883720017347269,-10.487730237190542,0.34687397484005567,15.064135572688338,-23.98088896478708,8.469270595396598,433.0598746525118,104.25282610784996,-22.045900399415647
1,2021-07-02 11:02:27.886,8847886,0.2873751625836619,-10.485906155225091,0.34465615471655303,15.015969550927078,-23.956838272205818,8.513005055143433,432.6046148237143,104.16530480061067,-21.814285875912475
1,2021-07-02 11:02:27.893,8847893,0.2863811934321172,-10.484074057042273,0.34233531308658316,14.96940580982212,-23.932723207067582,8.555994714532622,432.15896559980064,104.07419412319796,-21.581723912156853
1,2021-07-02 11:02:27.900,8847900,0.2853919268616557,-10.482235742073716,0.3399237235404684,14.924467495115104,-23.90854314176666,8.598232115380881,431.7234900883079,103.97986558917339,-21.348057565615687
1,2021-07-02 11:02:27.908,8847908,0.28440919469366355,-10.480393075777174,0.3374338266357886,14.881171191042734,-23.88429772763954,8.63971028395024,431.2987224811678,103.88270931983756,-21.113147256064437
1,2021-07-02 11:02:27.916,8847916,0.28343481875002946,-10.478547984083777,0.3348781741691688,14.83952677171947,-23.859986875084513,8.680422783248384,430.8851676952435,103.78313186296808,-20.876872513973193
1,2021-07-02 11:02:27.922,8847922,0.28247060190351825,-10.476702446569938,0.3322693751031077,14.799537274016851,-23.835610730170306,8.720363765842485,430.4833009963153,103.68155376358385,-20.63913368864289
1,2021-07-02 11:02:27.930,8847930,0.2815183197530674,-10.47485848812481,0.3296200433670718,14.761198794412895,-23.811169647502886,8.759528027429036,430.0935675842018,103.57840688847065,-20.399853599677165
1,2021-07-02 11:02:27.937,8847937,0.2805797132781568,-10.473018168874717,0.32694274791343014,14.724500412173276,-23.786664159249707,8.797911061418096,429.71638213666506,103.47413154458647,-20.158979105659373
1,2021-07-02 11:02:27.944,8847944,0.27965648283162786,-10.471183572139905,0.324249965763893,14.689424141430374,-23.762094940666977,8.835509114442775,429.352128345139,103.36917350069899,-19.91648254647576
1,2021-07-02 11:02:27.949,8847949,0.27875028367001004,-10.469356790453386,0.3215540389174506,14.655944915657132,-23.73746277314301,8.872319241787965,429.00115849533915,103.26398106004258,-19.672363005999067
1,2021-07-02 11:02:27.956,8847956,0.27786272275649776,-10.467539910222282,0.31886713557558183,14.62403060831514,-23.71276850609045,8.908339360957513,428.6637931273125,103.15900229318162,-19.426647351382623
1,2021-07-02 11:02:27.963,8847963,0.27699535623215604,-10.465734995991681,0.316201215510101,14.59364209242646,-23.688013018716237,8.94356830172448,428.3403207756081,103.05468247086773,-19.179391022455356
1,2021-07-02 11:02:27.969,8847969,0.27614968727408656,-10.463944075132737,0.31356799887045217,14.564733340218602,-23.66319718214132,8.978005851829435,428.0309977717983,102.95146169813314,-18.930678554242284
1,2021-07-02 11:02:27.976,8847976,0.27532716482428543,-10.462169123453618,0.3109789372178225,14.537251562863817,-23.63832182210121,9.011652798059222,427.73604808856436,102.84977274316856,-18.680623817464618
1,2021-07-02 11:02:27.984,8847984,0.2745291840468912,-10.460412052047625,0.30844518536338494,14.511137389764166,-23.613387682454935,9.04451096257157,427.45566320541866,102.75003905457436,-18.42936996177985
1,2021-07-02 11:02:27.992,8847992,0.27375708883447825,-10.458674695545652,0.305977573132129,14.486325085882047,-23.588395389631188,9.076583234479667,427.19000197700007,102.65267296064188,-18.177089046433878
1,2021-07-02 11:02:28.000,8848000,0.27301217565013053,-10.456958801774682,0.30358657712749343,14.462742804139536,-23.563345418137,9.107873596733167,426.9391904857707,102.55807404441465,-17.923981342915745
1,2021-07-02 11:02:28.007,8848007,0.27229569744596116,-10.455266022714044,0.3012822931129608,14.440312869061838,-23.538238057345307,9.138387148267787,426.70332186183464,102.4666276884004,-17.670274294133062
1,2021-07-02 11:02:28.013,8848013,0.2716088668098718,-10.453597906531419,0.2990744095343488,14.418952088093898,-23.51307337977415,9.16813012164736,426.4824560535054,102.37870378294933,-17.41622111456407
1,2021-07-02 11:02:28.021,8848021,0.2709528583222948,-10.451955890315391,0.2969721824217929,14.398572087521346,-23.487851211209048,9.197109896729527,426.276619533165,102.29465559248499,-17.16209901579267
1,2021-07-02 11:02:28.027,8848027,0.2703288105251515,-10.450341293034858,0.29498441170899065,14.379079670187306,-23.46257110313482,9.22533501095691,426.08580492387506,102.2148187739661,-16.908207041796874
1,2021-07-02 11:02:28.033,8848033,0.26973782762639137,-10.448755308372768,0.2931194186961838,14.360377192451816,-23.437232307584235,9.252815166804433,425.9099705331258,102.13951054217604,-16.654863498341015
1,2021-07-02 11:02:28.041,8848041,0.2691809804441714,-10.447198997291398,0.29138502389365073,14.342362958043095,-23.411833754009663,9.279561236653226,425.7490397810312,102.06902897667342,-16.40240296081875
1,2021-07-02 11:02:28.049,8848049,0.26865930575618946,-10.445673280345323,0.2897885242551973,14.324931626535946,-23.38637402757496,9.305585265085936,425.6029005179487,102.00365246453326,-16.151172857431696
1,2021-07-02 11:02:28.056,8848056,0.2681738034241896,-10.444178929963458,0.2883366692459642,14.307974634304301,-23.3608513483243,9.330900468449817,425.4714042611373,101.94363926847005,-15.901529687236966
1,2021-07-02 11:02:28.062,8848062,0.26772543107989816,-10.442716563256413,0.2870356359825439,14.29138062583722,-23.335263550965415,9.355521231204282,425.35436544167294,101.88922720156089,-15.653835045356693
1,2021-07-02 11:02:28.069,8848069,0.2673150964461102,-10.441286636096907,0.285891004155915,14.27503589323277,-23.30960806526947,9.379463098351456,425.2515607874649,101.84063338528445,-15.408451690332688
1,2021-07-02 11:02:28.076,8848076,0.2669436476633719,-10.439889439033267,0.2849077314336208,14.258824821444867,-23.283881897243855,9.40274276375751,425.1627289354038,101.79805407273757,-15.165739826093711
1,2021-07-02 11:02:28.083,8848083,0.2666118624505423,-10.43852509525114,0.2840901299412162,14.242630336272125,-23.258081611680346,9.425378054880216,425.0875703058728,101.76166452790522,-14.926053658418112
1,2021-07-02 11:02:28.089,8848089,0.26632043718294357,-10.437193560546135,0.28344184445559417,14.226334351579645,-23.232203317348404,9.44738791433684,425.0257472400154,101.73161895703375,-14.689738223303223
1,2021-07-02 11:02:28.094,8848094,0.2660699766935113,-10.43589462508253,0.2829658329389372,14.209818212497701,-23.206242656327998,9.46879237797115,424.9768843942695,101.70805048949056,-14.457126472294535
1,2021-07-02 11:02:28.099,8848099,0.26586098510783107,-10.434627916604184,0.28266434989601025,14.192963132140072,-23.180194798450426,9.489612548667358,424.9405693875184,101.69107120587391,-14.22853660001379
1,2021-07-02 11:02:28.104,8848104,0.265693857759545,-10.433392904788876,0.28253893286414294,14.175650620152549,-23.15405444083925,9.509870565633772,424.9163536970298,101.68077221152664,-14.004269599332416
1,2021-07-02 11:02:28.109,8848109,0.2655688742259276,-10.432188906444035,0.28259039239259076,14.157762901973157,-23.127815811851068,9.52958956938665,424.90375380015195,101.67722375400598,-13.7846070298643
1,2021-07-02 11:02:28.114,8848114,0.26548619260881146,-10.431015091104936,0.282818806200303,14.139183328075385,-23.101472678734254,9.548793662431338,424.90225255950656,101.68047538346694,-13.569808985699185
1,2021-07-02 11:02:28.119,8848119,0.2654458452346328,-10.42987048649672,0.28322351842329013,14.11979677259567,-23.075018358499648,9.567507865310871,424.9113008501635,101.69055615532744,-13.360112248563421
1,2021-07-02 11:02:28.125,8848125,0.2654477358855389,-10.428753983452939,0.28380314457501565,14.099490020671357,-23.04844573127786,9.585758067975014,424.93031942799723,101.70747487499881,-13.155728612877859
1,2021-07-02 11:02:28.131,8848131,0.26549163850124224,-10.427664340162734,0.2845555820960309,14.07815214395449,-23.021747255249753,9.603570976706964,424.95870103910596,101.73122038488366,-12.956843369481332
1,2021-07-02 11:02:28.136,8848136,0.2655771970822424,-10.42660018586102,0.2854780255299356,14.055674864309587,-22.99491498252201,9.620974056498794,424.99581277082547,101.76176189426262,-12.763613935101652
1,2021-07-02 11:02:28.142,8848142,0.26570392642639834,-10.425560024170306,0.286566984982971,14.031952906018123,-22.967940575573003,9.63799546842225,425.04099864548203,101.7990493531128,-12.576168614982251
1,2021-07-02 11:02:28.149,8848149,0.26587121342084874,-10.424542236258148,0.28781830693029375,14.006884336456775,-22.940815323704904,9.654664001846271,425.0935824586042,101.84301387132038,-12.394605486410404
1,2021-07-02 11:02:28.156,8848156,0.2660783187564869,-10.423545083966566,0.2892271973153732,13.980370894948885,-22.913530159032128,9.671009001722366,425.1528708638519,101.89356818516787,-12.21899139124025
1,2021-07-02 11:02:28.162,8848162,0.2663243789853458,-10.422566713209989,0.2907882476986202,13.95231830994125,-22.88607567242027,9.687060290961712,425.2181566997104,101.95060717146512,-12.049361025859032
1,2021-07-02 11:02:28.168,8848168,0.2666084088391419,-10.421605158041405,0.2924954655429464,13.922636605009899,-22.85844213038841,9.702848087669082,425.2887225149216,102.01400840047107,-11.88571612125933
1,2021-07-02 11:02:28.176,8848176,0.26692930375268314,-10.420658345672027,0.29434230948094525,13.891240393596322,-22.83061949330648,9.718402917294794,425.3638441806802,102.08363270181917,-11.728024725511114
1,2021-07-02 11:02:28.183,8848183,0.2672858426026636,-10.419724102527455,0.29632172986640826,13.858049161285496,-22.802597434150375,9.733755520379717,425.44279443946033,102.15932470842614,-11.57622063597327
1,2021-07-02 11:02:28.189,8848189,0.2676766908127483,-10.418800161331825,0.2984262141867635,13.822987533468035,-22.774365357145633,9.748936757183978,425.5248462791948,102.24091335338726,-11.430203048217434
1,2021-07-02 11:02:28.197,8848197,0.26810040418979114,-10.417884169230868,0.3006478360027239,13.78598552538078,-22.74591241683494,9.76397751110768,425.60927609116663,102.32821231258418,-11.289836469736692
1,2021-07-02 11:02:28.203,8848203,0.2685554339364432,-10.416973696979403,0.30297830558419353,13.746978771109596,-22.71722753886686,9.778908593083747,425.69536660874064,102.42102039573722,-11.154950912194607
1,2021-07-02 11:02:28.210,8848210,0.2690401329884239,-10.416066249150074,0.3054090207867298,13.70590872865494,-22.688299443158062,9.793760648638592,425.78240963195975,102.5191218909232,-11.025342357059408
1,2021-07-02 11:02:28.218,8848218,0.2695527632883671,-10.415159275195776,0.3079311173816601,13.66272285917891,-22.65911666893036,9.8085640684545,425.86970854317906,102.62228686793216,-10.900773485961826
1,2021-07-02 11:02:28.223,8848223,0.27009150329717785,-10.41425018113835,0.31053551836288107,13.617374779163713,-22.629667600564535,9.823348902810604,425.95658061901156,102.7302714461739,-10.780974667451382
1,2021-07-02 11:02:28.229,8848229,0.27065445513769143,-10.413336341744266,0.313212981649272,13.569824384392652,-22.599940493363736,9.83814478048779,426.04235914391876,102.84281803317238,-10.66564519214973
1,2021-07-02 11:02:28.235,8848235,0.27123965097421204,-10.412415113214495,0.31595414523512577,13.520037944961105,-22.569923498872313,9.852980833217355,426.1263953307991,102.95965553999643,-10.554454748608885
1,2021-07-02 11:02:28.242,8848242,0.27184505834815287,-10.411483846508167,0.31874956863931897,13.46798817062897,-22.539604689695445,9.867885627028707,426.20806005389676,103.08049958027242,-10.447045132474754
1,2021-07-02 11:02:28.248,8848248,0.27246858436174626,-10.410539901359174,0.32158976998166916,13.41365424524817,-22.508972083352866,9.882887101630741,426.2867453992903,103.20505265970483,-10.343032181830644
1,2021-07-02 11:02:28.253,8848253,0.27310807904950846,-10.409580660845538,0.32446525924096864,13.357021828569007,-22.47801366421607,9.89801251807937,426.36186603811274,103.33300436329476,-10.242007931849212
1,2021-07-02 11:02:28.261,8848261,0.2737613389272011,-10.408603546116414,0.3273665697319384,13.29808302421397,-22.446717402693977,9.913288413660837,426.43286042751,103.46403154769239,-10.143542982113305
1,2021-07-02 11:02:28.269,8848269,0.27442611200364503,-10.407606030792863,0.3302842905027031,13.236836313146355,-22.415071271215687,9.928740562160211,426.49919184416046,103.59779854634823,-10.047189070174362
1,2021-07-02 11:02:28.276,8848276,0.27510010501254784,-10.406585654858297,0.3332091014836225,13.173286451938164,-22.38306325709163,9.944393938007943,426.56034925496255,103.7339573953363,-9.952481845100385
1,2021-07-02 11:02:28.283,8848283,0.27578099269284434,-10.405540038399094,0.33613181153375077,13.10744433531578,-22.35068137343538,9.960272683280643,426.6158480311673,103.87214808791146,-9.858943831069206
1,2021-07-02 11:02:28.291,8848291,0.2764664285326202,-10.404466895878413,0.3390433980849638,13.039326822951875,-22.317913670491535,9.976400076385021,426.6652305215825,104.01199886603202,-9.766087551926397
1,2021-07-02 11:02:28.297,8848297,0.27715405674197247,-10.403364051504605,0.34193504615156606,12.968956530377673,-22.284748249898325,9.992798500902987,426.7080665174944,104.15312655722487,-9.673418753049683
1,2021-07-02 11:02:28.304,8848304,0.2778415256347201,-10.40222945587013,0.34479818432604675,12.896361583172022,-22.25117328350565,10.009489413152902,426.7439536512388,104.29513696529563,-9.58043963766757
1,2021-07-02 11:02:28.312,8848312,0.27852650232306864,-10.401061203457088,0.34762451625392027,12.821575333483224,-22.217177037081832,10.02649330735329,426.77251776034547,104.43762532348808,-9.486652054087353
1,2021-07-02 11:02:28.320,8848320,0.2792066878011924,-10.399857549859023,0.35040604728311064,12.744636039072653,-22.182747898333034,10.043829677291923,426.7934132314368,104.58017681877487,-9.39156060497752
1,2021-07-02 11:02:28.327,8848327,0.2798798309875197,-10.39861692715043,0.35313510660184394,12.665586506385713,-22.147874408318167,10.061516973342231,426.80632332800286,104.7223671960163,-9.2946756690962
1,2021-07-02 11:02:28.333,8848333,0.28054374052543346,-10.397337956083108,0.3558043651078401,12.584473700932373,-22.112545295347687,10.079572554098942,426.81096050379807,104.86376345075202,-9.195516329660691
1,2021-07-02 11:02:28.340,8848340,0.2811962935973555,-10.396019454244172,0.35840684891805014,12.501348331752565,-22.076749510712386,10.098012632494092,426.8070667031324,105.00392461939504,-9.093613203473081
1,2021-07-02 11:02:28.349,8848349,0.2818354413058506,-10.394660439590423,0.3609359483284815,12.416264419329192,-22.04047626585319,10.116852216631525,426.7944136488404,105.14240267557332,-8.988511164806711
1,2021-07-02 11:02:28.354,8848354,0.2824592105935609,-10.393260129099799,0.3633854225675338,12.329278856121134,-22.00371507078388,10.136105046098315,426.77280311820175,105.27874354131629,-8.879771957918598
1,2021-07-02 11:02:28.362,8848362,0.28306570329428765,-10.39181793273609,0.36574940167456443,12.240450969120229,-21.966455774047642,10.155783525246122,426.7420672065623,105.41248822170641,-8.766976691884427
1,2021-07-02 11:02:28.370,8848370,0.2836530932518322,-10.390333443221197,0.368022387414392,12.149842094292255,-21.928688604830093,10.175898655252253,426.7020685778675,105.54317407151228,-8.64972821125628
1,2021-07-02 11:02:28.376,8848376,0.28421962223519176,-10.388806422222373,0.37019925488085603,12.057515170361963,-21.890404217544944,10.196459966124308,426.6527007007671,105.6703362021871,-8.527653335819936
1,2021-07-02 11:02:28.384,8848384,0.2847635949681102,-10.387236783753522,0.37227525588596966,11.963534356642585,-21.851593738924993,10.217475448519245,426.59388806838984,105.79350903745684,-8.400404962479515
1,2021-07-02 11:02:28.390,8848390,0.28528337338273896,-10.385624575818277,0.374246024674274,11.86796467922405,-21.812248817935785,10.238951484366213,426.525586399318,105.91222802553368,-8.26766402202379
1,2021-07-02 11:02:28.397,8848397,0.2857773702012797,-10.383969961310754,0.3761075857517967,11.770871709546588,-21.772361679113402,10.260892775428415,426.4477828167147,106.02603151577226,-8.129141283232215
1,2021-07-02 11:02:28.404,8848404,0.286244041994107,-10.382273198937456,0.37785636302473036,11.67232127742826,-21.731925179595308,10.283302269599115,426.36049599908546,106.13446280252506,-7.984578997424225
1,2021-07-02 11:02:28.412,8848412,0.2866818819534121,-10.380534624689957,0.37948918943647364,11.57237921834478,-21.690932869290236,10.306181084992161,426.2637762811239,106.23707231459572,-7.83375238103471
1,2021-07-02 11:02:28.419,8848419,0.2870894127854727,-10.378754634349143,0.3810033165422548,11.471111153789307,-21.649379052936315,10.329528431521087,426.1577056564984,106.33341988503867,-7.676470942113065
1,2021-07-02 11:02:28.428,8848428,0.28746518022881073,-10.376933667508409,0.3823964236419939,11.36858230329205,-21.60725885256527,10.353341529334152,426.0423976194021,106.4230770116401,-7.512579661088891
1,2021-07-02 11:02:28.435,8848435,0.2878077476531035,-10.37507219348042,0.38366662639275806,11.264857325851231,-21.564568269148573,10.377615523620006,425.91799679555993,106.50562904213928,-7.341960030946348
1,2021-07-02 11:02:28.442,8848442,0.2881156921090196,-10.373170699282966,0.3848124852697157,11.16000018759213,-21.52130424287772,10.402343395469686,425.78467833881945,106.58067726121155,-7.164530952883277
1,2021-07-02 11:02:28.448,8848448,0.2883876021557813,-10.371229679832163,0.3858330144116429,11.054074052061328,-21.477464711962018,10.427515868659283,425.64264708333354,106.64784087990498,-6.98024947830891
1,2021-07-02 11:02:28.456,8848456,0.28862207772218373,-10.369249630533552,0.3867276908740918,10.947141189394804,-21.43304866951565,10.453121313091197,425.4921364436736,106.70675893260155,-6.789111386657654
1,2021-07-02 11:02:28.462,8848462,0.2888177320936155,-10.367231042593225,0.387496463395985,10.839262900828835,-21.388056217801907,10.47914564694721,425.33340705466316,106.75709208611187,-6.591151588078361
1,2021-07-02 11:02:28.470,8848470,0.2889731956782587,-10.365174401299374,0.3881397594560871,10.730499455509603,-21.34248861962002,10.50557224006846,425.1667451421871,106.7985243650278,-6.386444339637869
1,2021-07-02 11:02:28.476,8848476,0.2890871204624936,-10.363080187082833,0.3886584901231761,10.620910036447931,-21.29634834753237,10.532381820258724,424.9924606157085,106.83076479694928,-6.175103263256647
1,2021-07-02 11:02:28.484,8848484,0.2891581836950184,-10.36094887872804,0.38905405303218416,10.510552691799017,-21.249639131807605,10.559552383316833,424.810884872722,106.85354898067395,-5.957281153175667
1,2021-07-02 11:02:28.490,8848490,0.28918509002694665,-10.35878095801104,0.38932833362708685,10.399484287631914,-21.202366007090532,10.587059107786759,424.62236830488104,106.86664057989056,-5.733169560339456
1,2021-07-02 11:02:28.498,8848498,0.2891665726118094,-10.356576915094287,0.3894837038480207,10.287760459511066,-21.154535356850047,10.614874276290427,424.42727749507213,106.86983274435163,-5.502998140673084
1,2021-07-02 11:02:28.506,8848506,0.2891013943523762,-10.354337254042747,0.38952301685363894,10.175435561144264,-21.106154954202864,10.642967205907077,424.22599209425624,106.86294945991871,-5.267033753833104
1,2021-07-02 11:02:28.513,8848513,0.2889883500965599,-10.352062497925285,0.38944959666549245,10.062562608181155,-21.057233997478537,10.671304190265296,424.01890136647245,106.84584682827838,-5.025579298626458
1,2021-07-02 11:02:28.520,8848520,0.2888262697535976,-10.349753193087976,0.3892672222341651,9.94919321513484,-21.007783138785882,10.69984845624595,423.80640038999445,106.81841427651722,-4.778972270919494
1,2021-07-02 11:02:28.533,8848533,0.2886140218892895,-10.347409912248535,0.3889801058010946,9.835377523733243,-20.95781450383082,10.728560138353416,423.5888859022481,106.78057569612484,-4.527583029503742
1,2021-07-02 11:02:28.547,8848547,0.28835051764142094,-10.345033256142163,0.3885928656803732,9.721164122110526,-20.90734170125762,10.757396273598385,423.36675179308,106.73229050843916,-4.271812760827994
1,2021-07-02 11:02:28.558,8848558,0.2880347152904383,-10.342623853673551,0.3881104938354107,9.606599958183462,-20.85637982021903,10.786310819432138,423.14038433733043,106.67355464327933,-4.012091162088758
1,2021-07-02 11:02:28.570,8848570,0.2876656258633723,-10.340182360916295,0.38753831873376526,9.491730255759169,-20.804945415694103,10.815254697116536,422.91015741340624,106.60440139953332,-3.748873913895341
1,2021-07-02 11:02:28.582,8848582,0.2872423198421449,-10.33770945965495,0.386881964237555,9.376598442567456,-20.753056481586523,10.844175862471216,422.6764280409621,106.5249021461914,-3.482640042355751
1,2021-07-02 11:02:28.596,8848596,0.2867639349981585,-10.335205856195374,0.3861473060988191,9.261246094460374,-20.700732411732528,10.873019404783062,422.4395324838382,106.43516683130748,-3.213889241288523
1,2021-07-02 11:02:28.609,8848609,0.286229685496025,-10.33267228081086,0.38534042819798353,9.145712894441727,-20.64799394898169,10.901727673290274,422.1997830081138,106.33534428306871,-2.9431391730335097
1,2021-07-02 11:02:28.622,8848622,0.28563887214826694,-10.33010948772254,0.3844675800473457,9.030036602692823,-20.594863122778097,10.930240430185743,421.9574652982212,106.22562229615056,-2.6709227372510016
1,2021-07-02 11:02:28.636,8848636,0.28499089319786547,-10.327518255251587,0.3835351358591495,8.9142530348213,-20.541363176377324,10.9584950296167,421.7128365165299,106.1062274978323,-2.3977852911644484
1,2021-07-02 11:02:28.648,8848648,0.28428525487324635,-10.324899385746564,0.3825495548255616,8.798396048573945,-20.487518485306698,10.986426622465101,421.4661239916337,105.97742498772712,-2.124281804579518
1,2021-07-02 11:02:28.662,8848662,0.2835215812052949,-10.322253704947595,0.38151734246054947,8.682497541291308,-20.433354468044072,11.013968386128091,421.2175245204133,105.83951774437334,-1.8509739329223882
1,2021-07-02 11:02:28.674,8848674,0.28269962273972105,-10.319582060539743,0.38044501339672826,8.566587460201491,-20.378897488935486,11.041051777633022,420.96720426206025,105.69284579422778,-1.5784270001534406
1,2021-07-02 11:02:28.687,8848687,0.28181926387117734,-10.316885319669424,0.37933905630723014,8.450693826690042,-20.324174753429872,11.067606807595778,420.715299168404,105.53778515247387,-1.307206926738279
1,2021-07-02 11:02:28.701,8848701,0.28088052880265507,-10.314164365098955,0.3782059017438257,8.334842775451197,-20.269214196716263,11.093562331369593,420.4619158340773,105.3747465705061,-1.0378772158966525
1,2021-07-02 11:02:28.713,8848713,0.2798835862589379,-10.311420089668008,0.37705189417165813,8.219058609677674,-20.214044367628613,11.118846352384121,420.2071326162338,105.20417413886324,-0.7709961547448121
1,2021-07-02 11:02:28.724,8848724,0.2788287529780658,-10.308653389085423,0.3758832697085955,8.103363872783628,-20.158694309659218,11.143386332349586,419.95100090714675,105.02654377941764,-0.5071143436805168
1,2021-07-02 11:02:28.738,8848738,0.27771649607479476,-10.30586515379942,0.3747061399269177,7.987779435514926,-20.103193441025446,11.167109503809074,419.6935465036139,104.84236163412913,-0.2467725894497751
1,2021-07-02 11:02:28.746,8848746,0.2765474344584844,-10.30305626137273,0.37352648030949936,7.872324596001641,-20.047571436361604,11.189943181365265,419.43477105072014,104.6521623427592,0.009499845862994582
1,2021-07-02 11:02:28.753,8848753,0.27532233930022476,-10.300227570783123,0.3723501214096009,7.757017189183514,-19.991858112430545,11.21181506906265,419.1746535441681,104.45650719861789,0.2611866561648457
1,2021-07-02 11:02:28.761,8848761,0.27404213341163736,-10.297379919323884,0.3711827416495745,7.6418737002133135,-19.936083318771367,11.23265356351239,418.9131518753054,104.25598217101356,0.5077855790299743
1,2021-07-02 11:02:28.770,8848770,0.27270788950012365,-10.294514122028211,0.37002986167224533,7.526909374831659,-19.88027683255687,11.252388054156285,418.65020440289317,104.05119578270512,0.7488091754966454
1,2021-07-02 11:02:28.782,8848782,0.2713208273309123,-10.291630973318357,0.36889684039324,7.412138319565813,-19.824468255988883,11.270949222259823,418.38573153557775,103.84277683032167,0.9837853174787787
1,2021-07-02 11:02:28.792,8848792,0.2698823097676455,-10.28873125065768,0.3677888726549804,7.297573585649765,-19.76868691446881,11.288269339291702,418.11963731375766,103.63137193637861,1.2122574066422163
1,2021-07-02 11:02:28.804,8848804,0.26839383762771013,-10.285815719931863,0.36671098808071717,7.183227232074729,-19.71296175448195,11.304282564284039,417.8518110035301,103.41764292607363,1.4337843916006852
1,2021-07-02 11:02:28.820,8848820,0.26685704341871436,-10.28288514207636,0.3656680504800912,7.069110364960408,-19.657321241263404,11.318925238778824,417.58212875865337,103.202264030493,1.6479407279407912
1,2021-07-02 11:02:28.833,8848833,0.2652736843276456,-10.279940280410525,0.36466475698006845,6.955233151950853,-19.601793257160292,11.332136177155217,417.3104554304459,102.98591892249074,1.8543164685331255
1,2021-07-02 11:02:28.842,8848842,0.2636456350290392,-10.276981908249017,0.36370563585478227,6.841604811363238,-19.546405001900737,11.343856949917491,417.0366465813501,102.7692975865452,2.052517627811104
1,2021-07-02 11:02:28.856,8848856,0.26197488068685,-10.274010816249042,0.3627950418186218,6.728233577775136,-19.491182896388036,11.354032157668183,416.76055071442704,102.55309301512581,2.242166885219053
1,2021-07-02 11:02:28.868,8848868,0.26026351009851384,-10.271027818599695,0.3619371478387905,6.615126648997048,-19.436152492150974,11.36260969337908,416.48201170684445,102.33799771922735,2.4229046492041095
1,2021-07-02 11:02:28.881,8848881,0.2585137085404083,-10.26803375702926,0.3611359335875888,6.502290121833088,-19.381338388178968,11.369540990441541,416.20087143046925,102.12470003974927,2.594390493953699
1,2021-07-02 11:02:28.892,8848892,0.25672774962280964,-10.265029501892338,0.3603951717649174,6.389728924775135,-19.326764155751473,11.3747812541668,415.91697254253654,101.91388024642252,2.756304980553955
1,2021-07-02 11:02:28.906,8848906,0.25490798552896937,-10.262015950143699,0.3597184137912152,6.277446755981692,-19.272452271298253,11.378289674379722,415.63016142439903,101.70620642165126,2.908351861173178
1,2021-07-02 11:02:28.920,8848920,0.2530568354385068,-10.258994020652551,0.3591089758231973,6.165446035414746,-19.218424057514238,11.380029616166286,415.340291222119,101.50233017972813,3.050260601691221
1,2021-07-02 11:02:28.935,8848935,0.25117677227360463,-10.255964647754327,0.35856992540985,6.0537278801591965,-19.164699633077987,11.379968785486145,415.0472248991456,101.30288236739943,3.1817890449018433
1,2021-07-02 11:02:28.944,8848944,0.24927030789981053,-10.252928773862532,0.3581040688619742,5.942292110054956,-19.111297871204613,11.37807936701334,414.7508381870611,101.10846894493069,3.3027259731941276
1,2021-07-02 11:02:28.953,8848953,0.24733997697113538,-10.249887341592625,0.35771393947702934,5.831137287187243,-19.058236367684334,11.374338132723265,414.4510223442714,100.91966719407532,3.4128933916091473
1,2021-07-02 11:02:28.962,8848962,0.2453883199662766,-10.24684128564137,0.35740178695373037,5.720260789701489,-19.005531419795272,11.368726520541497,414.1476866756686,100.7370223042555,3.5121484642343757
1,2021-07-02 11:02:28.969,8848969,0.24341786620965147,-10.243791524632263,0.357169568441021,5.609658918230771,-18.95319801711977,11.361230682692097,413.84076079017314,100.56104433559246,3.600385098860697
1,2021-07-02 11:02:28.977,8848977,0.24143111757282254,-10.24073895307262,0.3570189414731418,5.499327031708518,-18.901249844003274,11.351841503395413,413.53019657766583,100.39220554717133,3.6775351866873085
1,2021-07-02 11:02:28.988,8848988,0.2394305333849258,-10.237684433507422,0.3569512586154282,5.389259709237874,-18.84969929276102,11.34055458546603,413.2159698866072,100.23093807930451,3.7435695031887466
1,2021-07-02 11:02:28.997,8848997,0.23741851691389815,-10.234628789024201,0.3569675632185111,5.279450935440589,-18.798557486895017,11.327370205703858,412.89808188341846,100.07763197896561,3.7984982755807337
1,2021-07-02 11:02:29.005,8849005,0.2353974034479841,-10.23157279642496,0.3570685854079419,5.169894306811811,-18.74783431359158,11.312293239968456,412.57656007447764,99.93263355800534,3.842371421639844
1,2021-07-02 11:02:29.016,8849016,0.23336944973465573,-10.228517180505849,0.3572547375608188,5.060583255928325,-18.697538464659964,11.295333059642081,412.2514589713585,99.79624407422483,3.8752784639485127
1,2021-07-02 11:02:29.027,8849027,0.23133682463460611,-10.225462609894521,0.3575261091372146,4.951511289662799,-18.647677485342573,11.276503401212297,411.92286037971513,99.66871872587143,3.8973481229540834
1,2021-07-02 11:02:29.036,8849036,0.2293016011700182,-10.2224096947933,0.35788246140560803,4.842672237429945,-18.598257830919014,11.255822210793957,411.59087329199315,99.55026595063124,3.908747591550824
1,2021-07-02 11:02:29.044,8849044,0.22726575036675944,-10.219358986832942,0.3583232228364751,4.734060505924305,-18.54928493121855,11.233311466408137,411.25563337259814,99.44104701975853,3.9096814980360453
1,2021-07-02 11:02:29.055,8849055,0.22523113725304691,-10.21631098119098,0.3588474856953366,4.625671336895211,-18.500763262558056,11.208996982118771,410.91730206728516,99.34117591371009,3.9003905877073195
1,2021-07-02 11:02:29.068,8849068,0.2231995190962701,-10.213266121193417,0.3594540039215268,4.517501063618375,-18.452696425362372,11.182908198779838,410.57606544635394,99.25071945753976,3.8811501960597186
1,2021-07-02 11:02:29.080,8849080,0.22117254562370398,-10.21022480553554,0.3601411921911705,4.409547360710734,-18.405087225127357,11.155077966136147,410.23213293437965,99.16969769005931,3.85226860998068
1,2021-07-02 11:02:29.089,8849089,0.21915176077044873,-10.20718739787377,0.36090712632068084,4.301809481767311,-18.35793775529841,11.125542320648998,409.88573603567505,99.09808444616232,3.81408538862912
1,2021-07-02 11:02:29.097,8849097,0.21713860544289357,-10.204154238212396,0.3617495453329531,4.194288479730998,-18.31124948173953,11.09434026276374,409.5371270864729,99.03580814095561,3.7669696717255223
1,2021-07-02 11:02:29.105,8849105,0.2151344208184948,-10.201125655573916,0.362665855136641,4.086987405243506,-18.265023328306526,11.061513536368098,409.1865780213065,98.98275274973865,3.711318478304564
1,2021-07-02 11:02:29.114,8849114,0.213140451790464,-10.198101981691774,0.363653133323488,3.9799114780889924,-18.219259762055277,11.027106411876517,408.8343791322433,98.93875897941263,3.6475549935933156
1,2021-07-02 11:02:29.122,8849122,0.21115785028146586,-10.195083565580115,0.3647081346163592,3.8730682262234506,-18.173958875814982,10.991165472851417,408.4808377994926,98.9036256274744,3.576126841128642
1,2021-07-02 11:02:29.130,8849130,0.20918767829822238,-10.192070788770748,0.3658272967900119,3.766467586493732,-18.129120465671495,10.953739405008497,408.12627717178924,98.87711112531737,3.4975043367024288
1,2021-07-02 11:02:29.137,8849137,0.2072309108986459,-10.189064080730292,0.367006747005866,3.6601219622699444,-18.084744101803185,10.914878786829837,407.77103477485525,98.85893526311746,3.412178720224253
1,2021-07-02 11:02:29.146,8849146,0.205288439667159,-10.186063933485153,0.36824230844187456,3.554046236404777,-18.04082919298876,10.874635882754577,407.41546102615564,98.84878109412715,3.320660361119658
1,2021-07-02 11:02:29.154,8849154,0.20336107734063863,-10.183070914112374,0.3695295071484783,3.448257742490313,-17.997375046319725,10.833064441365746,407.05991763410816,98.84629701673006,3.223476932439589
1,2021-07-02 11:02:29.162,8849162,0.20144956360243474,-10.180085673800987,0.37086357934099823,3.342776201482472,-17.954380922936156,10.790219500800772,406.7047758598606,98.85109903312082,3.121171548444213
1,2021-07-02 11:02:29.170,8849170,0.199554571427783,-10.177108952623655,0.3722394795995532,3.2376236316646714,-17.911846089013654,10.746157202264227,406.3504146235847,98.86277318396806,3.014300858116758
1,2021-07-02 11:02:29.178,8849178,0.19767671345688761,-10.174141579991403,0.3736518904967068,3.1328242375704396,-17.869769860428285,10.700934611254684,405.99721845650356,98.88087815888952,2.9034330770815955
1,2021-07-02 11:02:29.186,8849186,0.19581654842050789,-10.171184471837643,0.375095234208081,3.0284042817580272,-17.828151639783865,10.65460954569149,405.64557533457184,98.90494808301642,2.789145922746415
1,2021-07-02 11:02:29.199,8849199,0.19397458787397262,-10.168238626063985,0.37656368693941067,2.9243919433504866,-17.786990945106535,10.60724041060526,405.29587444904377,98.93449548034629,2.67202440757454
1,2021-07-02 11:02:29.211,8849211,0.19215130320670515,-10.165305117165646,0.37805119734114323,2.8208171661864845,-17.746287429966536,10.558886039845321,404.9485039499696,98.96901441497889,2.552658454780351
1,2021-07-02 11:02:29.223,8849223,0.19034713258252628,-10.16238508998373,0.3795515098262968,2.717711497065103,-17.706040895146973,10.5096055454896,404.6038486640785,99.00798381169682,2.431640317869495
1,2021-07-02 11:02:29.236,8849236,0.18856248747632617,-10.159479752079058,0.38105819276237174,2.615107913582023,-17.666251292497407,10.459458175025125,404.2622877693586,99.05087095768887,2.3095617949039515
1,2021-07-02 11:02:29.250,8849250,0.1867977585612744,-10.15659036428312,0.38256467091659496,2.5130406423611804,-17.626918722056864,10.408503175532543,403.9241924049383,99.09713518752031,2.187011230160337
1,2021-07-02 11:02:29.260,8849260,0.1850533206789073,-10.153718229283161,0.3840642618331965,2.41154497045021,-17.588043423559114,10.35679966377445,403.5899231950364,99.14623175372802,2.0645702957479486
1,2021-07-02 11:02:29.271,8849271,0.1833295366808536,-10.150864678520254,0.3855502161526012,2.3106570536189857,-17.54962576324789,10.304406501278788,403.2598276659416,99.19761588565939,1.9428105456875067
1,2021-07-02 11:02:29.283,8849283,0.18162676016686258,-10.14803105802704,0.38701576162971063,2.2104137250019154,-17.511666216665706,10.25138217368782,402.9342375351944,99.25074703938222,1.8222897349221496
1,2021-07-02 11:02:29.293,8849293,0.17994533740733784,-10.145218713943905,0.38845415012560197,2.1108523062724087,-17.474165347563105,10.197784673439067,402.6134658620122,99.30509333010768,1.7035479053714089
1,2021-07-02 11:02:29.306,8849306,0.17828560882728148,-10.142428978351699,0.3898587064785782,2.0120104218613415,-17.437123782795247,10.143671384659873,402.29780409641904,99.3601360809126,1.5871032893447155
1,2021-07-02 11:02:29.316,8849316,0.1766479102687937,-10.1396631557922,0.3912228778284445,1.913925815420394,-17.40054218366191,10.089098969544853,401.98751915151684,99.41537431761982,1.473448167402569
1,2021-07-02 11:02:29.328,8849328,0.1750325739929051,-10.136922510497183,0.3925402816951461,1.8166361671886622,-17.36442121498088,10.03412325607418,401.6828506717917,99.470328981974,1.3630448660266328
1,2021-07-02 11:02:29.341,8849341,0.1734399292218015,-10.134208254186596,0.3938047513405403,1.7201789108863201,-17.32876151325263,9.978799126938277,401.3840086225015,99.52454669309094,1.2563220324359843
1,2021-07-02 11:02:29.356,8849356,0.1718703020008528,-10.131521534487351,0.39501037781254134,1.624591049074356,-17.29356365471784,9.923180409071731,401.0911712388233,99.57760299120696,1.15367123736131
1,2021-07-02 11:02:29.369,8849369,0.17032401425326466,-10.128863424298734,0.3961515488720257,1.5299089671137578,-17.258828123529664,9.867319763142707,400.8044833256209,99.62910505553617,1.0554439086232972
1,2021-07-02 11:02:29.378,8849378,0.1688013820212119,-10.126234912556885,0.3972229849490977,1.4361682481126328,-17.224555279761784,9.811268573191555,400.52405488941605,99.67869389955824,0.9619485889537766
1,2021-07-02 11:02:29.390,8849390,0.16730271289793358,-10.123636896931185,0.3982197714584851,1.3434034928594114,-17.190745326638368,9.75507683777098,400.2499600845168,99.72604604698957,0.8734485117473604
1,2021-07-02 11:02:29.404,8849404,0.1658283026751145,-10.121070178913051,0.39913738614287103,1.2516481477613324,-17.157398276503283,9.698793064375424,399.9822364594872,99.77087469352321,0.7901594925552038
1,2021-07-02 11:02:29.416,8849416,0.16437843147061543,-10.11853546131557,0.39997172029705896,1.160934341361411,-17.124513915714243,9.642464168611653,399.7208845097918,99.81293036893894,0.7122481536879446
1,2021-07-02 11:02:29.428,8849428,0.16295335982856582,-10.116033347713916,0.40071909336450406,1.0712927285585145,-17.0920917693396,9.586135379087777,399.46586757751595,99.85200113138833,0.6398305342790579
1,2021-07-02 11:02:29.441,8849441,0.16155332519789845,-10.113564343265981,0.40137626065017135,0.982752341361878,-17.060131066579817,9.529850148684089,399.21711215871926,99.88791233513874,0.5729711577446408
1,2021-07-02 11:02:29.455,8849455,0.1601785389668415,-10.111128856571982,0.40194041367262673,0.8953404450281474,-17.028630707350754,9.473650072905778,398.9745086601066,99.92052600325742,0.5116826096390598
1,2021-07-02 11:02:29.468,8849468,0.15882918402074075,-10.108727202506667,0.4024091727969769,0.8090823989610992,-16.997589230044092,9.417574816191262,398.7379126124095,99.9497398191963,0.45592564456379786
1,2021-07-02 11:02:29.478,8849478,0.1575054125252386,-10.1063596062142,0.4027805726806474,0.7240015227145842,-16.967004780216474,9.361662046673324,398.5071463289901,99.97548574141122,0.40560982186132716
1,2021-07-02 11:02:29.492,8849492,0.1562073434543307,-10.104026208559587,0.40305304190364977,0.6401189677298889,-16.936875079671264,9.30594737901863,398.2820009947044,99.99772824302198,0.36059466631372816
1,2021-07-02 11:02:29.506,8849506,0.15493505949482478,-10.101727073124469,0.4032253782639885,0.557453595375478,-16.90719739538563,9.250464324765511,398.0622391704304,100.01646217831055,0.32069135040444385
1,2021-07-02 11:02:29.519,8849519,0.1536886032179855,-10.099462194462584,0.40329672112557907,0.47602186334346375,-16.877968508577457,9.195244250861597,397.8475976990254,100.03171027764327,0.2856648950346954
1,2021-07-02 11:02:29.528,8849528,0.15246797258559283,-10.097231507110273,0.403266522282666,0.39583772468733747,-16.849184685545755,9.140316348568328,397.6377909988192,100.04352027218816,0.2552368859106465
1,2021-07-02 11:02:29.537,8849537,0.151273116089303,-10.095034894849539,0.40313451665155253,0.3169125437735431,-16.820841652530675,9.085707614423935,397.4325147310849,100.05196164958315,0.2290887031304244
1,2021-07-02 11:02:29.544,8849544,0.15010392824253174,-10.092872199774147,0.40290069366695497,0.23925503141797902,-16.792934576416577,9.031442842958242,397.2314498195707,100.0571220520935,0.2068652512025796
1,2021-07-02 11:02:29.551,8849551,0.14896024632512828,-10.090743230780745,0.40256526995541475,0.16287120007820327,-16.76545805245766,8.977544629709476,397.0342667571261,100.05910338156716,0.1881791240283067
1,2021-07-02 11:02:29.559,8849559,0.14784184885475343,-10.08864777128016,0.4021286637830155,0.08776433963096385,-16.73840609976669,8.924033383531459,396.8406300567095,100.05801777065483,0.1726150442762851
1,2021-07-02 11:02:29.566,8849566,0.14674845568526426,-10.086585586097325,0.4015914717500096,0.013935013758180716,-16.71177216480512,8.870927347785205,396.65020266097247,100.05398363254153,0.15973436383856518
1,2021-07-02 11:02:29.571,8849571,0.14567972949593083,-10.084556427553439,0.40095444822167814,-0.05861892378648886,-16.685549132428367,8.818242630070918,396.4626501682065,100.04712194825913,0.14907946525362029
