imu,time,ax,ay,az,gx,gy,gz,mx,my,mz
1,18950,-1575,1135,-864,-1503,-306,53,250,368,-152
1,18960,-1579,1131,-864,-1509,-286,33,250,368,-152
1,18966,-1579,1131,-864,-1509,-286,33,250,368,-152
1,18972,-1575,1132,-866,-1499,-292,1,250,368,-152
1,18978,-1575,1132,-866,-1499,-292,1,250,368,-152
1,18985,-1575,1132,-866,-1499,-292,1,250,368,-152
1,18993,-1575,1128,-861,-1513,-292,-1,254,378,-148
1,18999,-1575,1128,-861,-1513,-292,-1,254,378,-148
1,19010,-1575,1128,-861,-1513,-292,-1,254,378,-148
1,19020,-1575,1128,-861,-1486,-288,3,254,378,-148
1,19028,-1575,1128,-861,-1486,-288,3,254,378,-148
1,19039,-1569,1132,-862,-1467,-297,5,254,378,-148
1,19049,-1569,1132,-862,-1467,-297,5,254,378,-148
1,19060,-1568,1132,-864,-1470,-318,8,254,378,-148
1,19069,-1568,1132,-864,-1470,-318,8,254,378,-148
1,19080,-1568,1132,-862,-1478,-319,6,254,378,-148
1,19090,-1568,1132,-862,-1478,-319,6,254,378,-148
1,19100,-1566,1131,-861,-1494,-329,-9,254,378,-148
1,19111,-1565,1136,-852,-1515,-321,-45,252,372,-152
1,19122,-1565,1136,-852,-1515,-321,-45,252,372,-152
1,19137,-1569,1132,-860,-1492,-292,-94,252,372,-152
1,19147,-1569,1132,-860,-1492,-292,-94,252,372,-152
1,19161,-1580,1135,-867,-1450,-290,-103,252,372,-152
1,19174,-1585,1137,-869,-1450,-310,-106,252,372,-152
1,19186,-1585,1137,-869,-1450,-310,-106,252,372,-152
1,19195,-1581,1138,-866,-1499,-349,-86,252,372,-152
1,19209,-1581,1138,-866,-1499,-349,-86,252,372,-152
1,19222,-1577,1130,-863,-1539,-367,-81,252,372,-152
1,19237,-1567,1131,-853,-1538,-367,-69,244,378,-146
1,19248,-1567,1131,-853,-1538,-367,-69,244,378,-146
1,19259,-1565,1127,-856,-1552,-356,-55,244,378,-146
1,19270,-1567,1126,-858,-1545,-342,-72,244,378,-146
1,19279,-1567,1126,-858,-1545,-342,-72,244,378,-146
1,19288,-1567,1126,-858,-1545,-342,-72,244,378,-146
1,19297,-1569,1127,-865,-1513,-317,-118,244,378,-146
1,19305,-1569,1127,-865,-1513,-317,-118,244,378,-146
1,19313,-1568,1129,-857,-1493,-325,-132,244,378,-146
1,19321,-1568,1129,-857,-1493,-325,-132,244,378,-146
1,19330,-1568,1129,-857,-1493,-325,-132,244,378,-146
1,19338,-1570,1132,-855,-1495,-310,-129,244,378,-146
1,19347,-1570,1132,-855,-1495,-310,-129,244,378,-146
1,19354,-1582,1127,-853,-1519,-329,-130,245,383,-147
1,19362,-1582,1127,-853,-1519,-329,-130,245,383,-147
1,19376,-1579,1116,-859,-1519,-325,-131,245,383,-147
1,19389,-1579,1116,-859,-1519,-325,-131,245,383,-147
1,19398,-1574,1130,-851,-1510,-365,-107,245,383,-147
1,19409,-1574,1130,-851,-1510,-365,-107,245,383,-147
1,19423,-1573,1125,-859,-1544,-338,-95,245,383,-147
1,19436,-1570,1129,-856,-1575,-342,-97,245,383,-147
1,19450,-1570,1129,-856,-1575,-342,-97,245,383,-147
1,19459,-1570,1126,-849,-1570,-357,-37,245,383,-147
1,19472,-1599,1118,-869,-1523,-292,52,245,383,-147
1,19481,-1599,1118,-869,-1523,-292,52,245,383,-147
1,19494,-1614,1120,-862,-1530,-333,166,256,386,-146
1,19508,-1614,1120,-862,-1530,-333,166,256,386,-146
1,19522,-1603,1096,-838,-1597,-477,294,256,386,-146
1,19531,-1585,1077,-831,-1463,-547,389,256,386,-146
1,19545,-1585,1077,-831,-1463,-547,389,256,386,-146
1,19558,-1572,1085,-839,-1236,-503,396,256,386,-146
1,19572,-1576,1107,-862,-1048,-497,261,256,386,-146
1,19580,-1576,1107,-862,-1048,-497,261,256,386,-146
1,19589,-1576,1107,-862,-1048,-497,261,256,386,-146
1,19597,-1581,1132,-862,-1037,-643,-41,256,386,-146
1,19605,-1581,1132,-862,-1037,-643,-41,256,386,-146
1,19613,-1595,1173,-862,-1087,-649,-76,255,383,-157
1,19621,-1595,1173,-862,-1087,-649,-76,255,383,-157
1,19630,-1595,1173,-862,-1087,-649,-76,255,383,-157
1,19639,-1576,1208,-877,-1402,-727,129,255,383,-157
1,19647,-1576,1208,-877,-1402,-727,129,255,383,-157
1,19658,-1583,1188,-879,-1892,-679,314,255,383,-157
1,19672,-1573,1149,-882,-2106,-675,478,255,383,-157
1,19685,-1573,1149,-882,-2106,-675,478,255,383,-157
1,19695,-1546,1128,-871,-2244,-687,695,255,383,-157
1,19708,-1546,1128,-871,-2244,-687,695,255,383,-157
1,19718,-1487,1191,-840,-2541,-745,778,255,383,-157
1,19731,-1445,1265,-810,-3099,-618,594,255,383,-157
1,19738,-1445,1265,-810,-3099,-618,594,251,379,-151
1,19746,-1445,1265,-810,-3099,-618,594,251,379,-151
1,19760,-1478,1281,-809,-3580,-225,293,251,379,-151
1,19770,-1478,1281,-809,-3580,-225,293,251,379,-151
1,19782,-1536,1240,-825,-3909,174,70,251,379,-151
1,19795,-1568,1221,-818,-4061,313,-159,251,379,-151
1,19803,-1568,1221,-818,-4061,313,-159,251,379,-151
1,19811,-1550,1235,-783,-4327,291,-412,251,379,-151
1,19817,-1550,1235,-783,-4327,291,-412,251,379,-151
1,19825,-1550,1235,-783,-4327,291,-412,251,379,-151
1,19833,-1609,1206,-772,-4534,264,-720,251,379,-151
1,19842,-1609,1206,-772,-4534,264,-720,251,379,-151
1,19848,-1609,1206,-772,-4534,264,-720,251,379,-151
1,19856,-1696,1177,-800,-4645,-95,-843,246,376,-148
1,19864,-1696,1177,-800,-4645,-95,-843,246,376,-148
1,19872,-1743,1173,-827,-4478,-608,-982,246,376,-148
1,19880,-1743,1173,-827,-4478,-608,-982,246,376,-148
1,19888,-1743,1173,-827,-4478,-608,-982,246,376,-148
1,19897,-1710,1186,-800,-4218,-1063,-1277,246,376,-148
1,19905,-1710,1186,-800,-4218,-1063,-1277,246,376,-148
1,19911,-1631,1176,-787,-3837,-1412,-1663,246,376,-148
1,19920,-1631,1176,-787,-3837,-1412,-1663,246,376,-148
1,19928,-1631,1176,-787,-3837,-1412,-1663,246,376,-148
1,19936,-1584,1169,-798,-2949,-1562,-1967,246,376,-148
1,19945,-1584,1169,-798,-2949,-1562,-1967,246,376,-148
1,19959,-1565,1195,-806,-2186,-1570,-2057,246,376,-148
1,19974,-1553,1235,-797,-1698,-1481,-2068,249,377,-145
1,19983,-1553,1235,-797,-1698,-1481,-2068,249,377,-145
1,19997,-1553,1259,-787,-1292,-1281,-2179,249,377,-145
1,20011,-1553,1259,-787,-1292,-1281,-2179,249,377,-145
1,20024,-1560,1240,-747,-1056,-938,-2441,249,377,-145
1,20034,-1535,1224,-704,-1214,-503,-2744,249,377,-145
1,20045,-1535,1224,-704,-1214,-503,-2744,249,377,-145
1,20059,-1487,1189,-693,-1630,-171,-2963,249,377,-145
1,20068,-1487,1189,-693,-1630,-171,-2963,249,377,-145
1,20080,-1486,1126,-679,-1739,72,-3235,249,377,-145
1,20093,-1602,1032,-683,-1378,573,-4027,249,377,-145
1,20107,-1602,1032,-683,-1378,573,-4027,249,377,-145
1,20120,-1652,1052,-689,-364,1550,-5377,254,372,-154
1,20130,-1652,1052,-689,-364,1550,-5377,254,372,-154
1,20141,-1593,1103,-699,32,1313,-5153,254,372,-154
1,20150,-1593,1103,-699,32,1313,-5153,254,372,-154
1,20163,-1574,1112,-691,-306,942,-4541,254,372,-154
1,20177,-1592,1057,-661,-491,1207,-5173,254,372,-154
1,20192,-1552,978,-644,-405,1553,-5789,254,372,-154
1,20200,-1552,978,-644,-405,1553,-5789,254,372,-154
1,20212,-1482,953,-635,-130,1851,-5765,254,372,-154
1,20227,-1482,953,-635,-130,1851,-5765,254,372,-154
1,20241,-1445,938,-676,-97,2537,-5756,273,363,-159
1,20251,-1463,886,-693,-365,2929,-5545,273,363,-159
1,20264,-1463,886,-693,-365,2929,-5545,273,363,-159
1,20278,-1555,815,-666,-550,3027,-5279,273,363,-159
1,20292,-1670,787,-691,-359,3302,-5440,273,363,-159
1,20301,-1670,787,-691,-359,3302,-5440,273,363,-159
1,20314,-1694,784,-745,-169,3467,-5686,273,363,-159
1,20327,-1694,784,-745,-169,3467,-5686,273,363,-159
1,20336,-1678,751,-803,4,3600,-5878,273,363,-159
1,20347,-1678,751,-803,4,3600,-5878,273,363,-159
1,20360,-1574,694,-811,373,3664,-6332,296,348,-156
1,20374,-1441,634,-805,619,3756,-6753,296,348,-156
1,20386,-1441,634,-805,619,3756,-6753,296,348,-156
1,20398,-1317,585,-833,1032,3823,-7126,296,348,-156
1,20407,-1317,585,-833,1032,3823,-7126,296,348,-156
1,20416,-1317,585,-833,1032,3823,-7126,296,348,-156
1,20429,-1317,585,-833,1032,3823,-7126,296,348,-156
1,20445,-1478,452,-932,2184,4148,-7749,296,348,-156
1,20459,-1601,433,-973,1967,4447,-7351,296,348,-156
1,20468,-1601,433,-973,1967,4447,-7351,296,348,-156
1,20481,-1749,446,-1056,1681,4851,-6432,317,337,-165
1,20495,-1895,441,-1086,1306,5164,-5768,317,337,-165
1,20508,-1895,441,-1086,1306,5164,-5768,317,337,-165
1,20517,-2071,204,-1152,750,5067,-4746,317,337,-165
1,20530,-2071,204,-1152,750,5067,-4746,317,337,-165
1,20544,-2066,-31,-1382,1290,5287,-3152,317,337,-165
1,20553,-1874,19,-1435,1528,6208,-1558,317,337,-165
1,20566,-1874,19,-1435,1528,6208,-1558,317,337,-165
1,20577,-1711,56,-1445,100,7024,-1461,317,337,-165
1,20591,-1748,29,-1533,-1315,7284,-1738,317,337,-165
1,20605,-1748,29,-1533,-1315,7284,-1738,317,337,-165
1,20617,-1825,-38,-1644,-1850,6961,-2204,336,314,-164
1,20630,-1825,-38,-1644,-1850,6961,-2204,336,314,-164
1,20638,-1849,-42,-1748,-1641,6745,-2752,336,314,-164
1,20652,-1828,-26,-1833,-1981,5945,-2409,336,314,-164
1,20666,-1828,-26,-1833,-1981,5945,-2409,336,314,-164
1,20678,-1831,-29,-1851,-3659,4182,-1254,336,314,-164
1,20686,-1831,-29,-1851,-3659,4182,-1254,336,314,-164
1,20701,-1719,-24,-1812,-5182,2767,-851,336,314,-164
1,20715,-1556,17,-1732,-5805,1966,-162,336,314,-164
1,20728,-1556,17,-1732,-5805,1966,-162,336,314,-164
1,20738,-1530,49,-1687,-5663,1609,372,342,306,-188
1,20751,-1529,127,-1702,-5263,994,568,342,306,-188
1,20765,-1529,127,-1702,-5263,994,568,342,306,-188
1,20776,-1481,139,-1689,-5538,476,599,342,306,-188
1,20785,-1481,139,-1689,-5538,476,599,342,306,-188
1,20797,-1467,129,-1688,-6015,143,659,342,306,-188
1,20805,-1467,129,-1688,-6015,143,659,342,306,-188
1,20813,-1497,139,-1679,-6340,-334,492,342,306,-188
1,20822,-1497,139,-1679,-6340,-334,492,342,306,-188
1,20830,-1497,139,-1679,-6340,-334,492,342,306,-188
1,20837,-1451,180,-1659,-6656,-959,549,342,306,-188
1,20846,-1451,180,-1659,-6656,-959,549,342,306,-188
1,20853,-1329,242,-1613,-6875,-1252,761,328,314,-196
1,20861,-1329,242,-1613,-6875,-1252,761,328,314,-196
1,20870,-1329,242,-1613,-6875,-1252,761,328,314,-196
1,20878,-1211,289,-1583,-6901,-1376,1089,328,314,-196
1,20885,-1211,289,-1583,-6901,-1376,1089,328,314,-196
1,20891,-1200,248,-1538,-7019,-1389,1195,328,314,-196
1,20897,-1200,248,-1538,-7019,-1389,1195,328,314,-196
1,20903,-1200,248,-1538,-7019,-1389,1195,328,314,-196
1,20911,-1242,217,-1452,-6903,-1469,898,328,314,-196
1,20917,-1242,217,-1452,-6903,-1469,898,328,314,-196
1,20925,-1242,217,-1452,-6903,-1469,898,328,314,-196
1,20933,-1362,241,-1395,-6591,-1710,889,328,314,-196
1,20942,-1362,241,-1395,-6591,-1710,889,328,314,-196
1,20952,-1416,358,-1450,-6211,-2234,1073,328,314,-196
1,20963,-1416,358,-1450,-6211,-2234,1073,328,314,-196
1,20972,-1428,409,-1484,-6228,-2985,1575,323,325,-207
1,20986,-1428,409,-1484,-6228,-2985,1575,323,325,-207
1,21000,-1337,402,-1488,-6307,-3486,1614,323,325,-207
1,21012,-1287,436,-1468,-6584,-3668,2213,323,325,-207
1,21021,-1287,436,-1468,-6584,-3668,2213,323,325,-207
1,21033,-1301,460,-1423,-7010,-3655,2490,323,325,-207
1,21048,-1301,460,-1423,-7010,-3655,2490,323,325,-207
1,21059,-1377,505,-1420,-7337,-3745,2671,323,325,-207
1,21069,-1377,505,-1420,-7337,-3745,2671,323,325,-207
1,21083,-1377,505,-1420,-7337,-3745,2671,323,325,-207
1,21093,-1420,639,-1425,-7540,-3776,3328,323,325,-207
1,21106,-1420,639,-1425,-7540,-3776,3328,323,325,-207
1,21118,-1434,772,-1407,-7829,-4202,3521,295,327,-213
1,21133,-1401,762,-1358,-8321,-5074,4195,295,327,-213
1,21143,-1401,762,-1358,-8321,-5074,4195,295,327,-213
1,21155,-1374,762,-1246,-8154,-5122,4251,295,327,-213
1,21168,-1374,762,-1246,-8154,-5122,4251,295,327,-213
1,21182,-1256,780,-1178,-8075,-4838,4690,295,327,-213
1,21191,-1256,780,-1178,-8075,-4838,4690,295,327,-213
1,21202,-1145,772,-1121,-7994,-4569,5102,295,327,-213
1,21217,-1047,754,-1077,-7712,-4696,5251,295,327,-213
1,21227,-1047,754,-1077,-7712,-4696,5251,295,327,-213
1,21236,-966,731,-1016,-7123,-4517,4923,262,352,-202
1,21250,-966,731,-1016,-7123,-4517,4923,262,352,-202
1,21263,-989,743,-973,-6295,-3806,4572,262,352,-202
1,21272,-1124,779,-1004,-5340,-3186,4516,262,352,-202
1,21285,-1124,779,-1004,-5340,-3186,4516,262,352,-202
1,21296,-1258,920,-1058,-4314,-3006,4320,262,352,-202
1,21309,-1258,920,-1058,-4314,-3006,4320,262,352,-202
1,21322,-1332,985,-1077,-3806,-3046,3824,262,352,-202
1,21335,-1327,1030,-1069,-3689,-3320,3514,262,352,-202
1,21348,-1327,1030,-1069,-3689,-3320,3514,262,352,-202
1,21357,-1162,1099,-972,-3739,-3186,3128,251,367,-201
1,21369,-1162,1099,-972,-3739,-3186,3128,251,367,-201
1,21383,-1057,1112,-918,-3531,-1614,2488,251,367,-201
1,21398,-1127,1110,-945,-3178,-431,2006,251,367,-201
1,21406,-1127,1110,-945,-3178,-431,2006,251,367,-201
1,21421,-1266,1005,-969,-2979,-677,1657,251,367,-201
1,21434,-1266,1005,-969,-2979,-677,1657,251,367,-201
1,21446,-1266,1005,-969,-2979,-677,1657,251,367,-201
1,21455,-1263,914,-1130,-753,-1137,2624,251,367,-201
1,21468,-1263,914,-1130,-753,-1137,2624,251,367,-201
1,21481,-1257,994,-1100,-289,-1218,2639,243,365,-193
1,21494,-1260,986,-1070,108,-1524,2148,243,365,-193
1,21505,-1260,986,-1070,108,-1524,2148,243,365,-193
1,21518,-1302,1003,-1056,884,-1554,2095,243,365,-193
1,21529,-1302,1003,-1056,884,-1554,2095,243,365,-193
1,21542,-1365,954,-1055,1039,-964,2353,243,365,-193
1,21556,-1407,844,-1051,1417,73,2484,243,365,-193
1,21569,-1407,844,-1051,1417,73,2484,243,365,-193
1,21580,-1408,820,-1049,2638,586,2827,243,365,-193
1,21588,-1408,820,-1049,2638,586,2827,243,365,-193
1,21602,-1379,817,-1065,3803,415,3478,247,369,-191
1,21615,-1380,836,-1169,4569,623,3902,247,369,-191
1,21628,-1380,836,-1169,4569,623,3902,247,369,-191
1,21640,-1431,866,-1399,4593,1124,4121,247,369,-191
1,21652,-1559,1096,-1498,4999,1254,4723,247,369,-191
1,21664,-1559,1096,-1498,4999,1254,4723,247,369,-191
1,21677,-1411,1311,-1164,7426,698,3882,247,369,-191
1,21688,-1411,1311,-1164,7426,698,3882,247,369,-191
1,21701,-1131,1277,-1107,8245,1521,2043,247,369,-191
1,21710,-1131,1277,-1107,8245,1521,2043,247,369,-191
1,21722,-1205,1106,-1294,6807,3495,2170,247,369,-191
1,21734,-1411,992,-1493,6643,3637,4091,238,370,-190
1,21743,-1411,992,-1493,6643,3637,4091,238,370,-190
1,21755,-1625,1074,-1448,7504,2428,4603,238,370,-190
1,21770,-1625,1074,-1448,7504,2428,4603,238,370,-190
1,21784,-1616,1276,-1394,8595,1402,3223,238,370,-190
1,21793,-1509,1524,-1450,9183,1347,1116,238,370,-190
1,21803,-1509,1524,-1450,9183,1347,1116,238,370,-190
1,21809,-1509,1524,-1450,9183,1347,1116,238,370,-190
1,21815,-1463,1662,-1393,8557,2934,1214,238,370,-190
1,21821,-1463,1662,-1393,8557,2934,1214,238,370,-190
1,21826,-1463,1662,-1393,8557,2934,1214,238,370,-190
1,21832,-1378,1192,-1504,6844,3928,2236,238,370,-190
1,21838,-1378,1192,-1504,6844,3928,2236,238,370,-190
1,21843,-1378,1192,-1504,6844,3928,2236,238,370,-190
1,21850,-1378,1192,-1504,6844,3928,2236,238,370,-190
1,21856,-1481,632,-1663,7631,2667,3387,254,352,-200
1,21862,-1481,632,-1663,7631,2667,3387,254,352,-200
1,21867,-1481,632,-1663,7631,2667,3387,254,352,-200
1,21873,-1637,747,-1583,10054,755,5278,254,352,-200
1,21878,-1637,747,-1583,10054,755,5278,254,352,-200
1,21884,-1637,747,-1583,10054,755,5278,254,352,-200
1,21891,-1637,747,-1583,10054,755,5278,254,352,-200
1,21898,-1603,1160,-1617,10654,-601,6105,254,352,-200
1,21905,-1603,1160,-1617,10654,-601,6105,254,352,-200
1,21912,-1367,1331,-1652,10876,-1058,5867,254,352,-200
1,21918,-1367,1331,-1652,10876,-1058,5867,254,352,-200
1,21925,-1367,1331,-1652,10876,-1058,5867,254,352,-200
1,21932,-1182,1255,-1662,10649,171,5227,254,352,-200
1,21938,-1182,1255,-1662,10649,171,5227,254,352,-200
1,21945,-1182,1255,-1662,10649,171,5227,254,352,-200
1,21951,-1182,1255,-1662,10649,171,5227,254,352,-200
1,21958,-1172,1114,-1682,9779,988,4786,254,352,-200
1,21965,-1172,1114,-1682,9779,988,4786,254,352,-200
1,21971,-1307,1113,-1691,8952,477,4693,254,352,-200
1,21980,-1307,1113,-1691,8952,477,4693,256,360,-190
1,21987,-1307,1113,-1691,8952,477,4693,256,360,-190
1,21995,-1307,1113,-1691,8952,477,4693,256,360,-190
1,22002,-1307,1113,-1691,8952,477,4693,256,360,-190
1,22010,-1307,1113,-1691,8952,477,4693,256,360,-190
1,22018,-1404,1298,-1635,7816,420,3524,256,360,-190
1,22025,-1404,1298,-1635,7816,420,3524,256,360,-190
1,22033,-1379,1319,-1636,7534,1139,3217,256,360,-190
1,22039,-1379,1319,-1636,7534,1139,3217,256,360,-190
1,22046,-1379,1319,-1636,7534,1139,3217,256,360,-190
1,22054,-1385,1335,-1646,6946,1635,3506,256,360,-190
1,22062,-1385,1335,-1646,6946,1635,3506,256,360,-190
1,22069,-1385,1335,-1646,6946,1635,3506,256,360,-190
1,22077,-1357,1284,-1641,5581,1454,3956,256,360,-190
1,22084,-1357,1284,-1641,5581,1454,3956,256,360,-190
1,22091,-1357,1284,-1641,5581,1454,3956,256,360,-190
1,22098,-1298,1244,-1643,4447,772,4316,264,366,-190
1,22106,-1298,1244,-1643,4447,772,4316,264,366,-190
1,22113,-1261,1234,-1605,3722,468,3909,264,366,-190
1,22121,-1261,1234,-1605,3722,468,3909,264,366,-190
1,22128,-1261,1234,-1605,3722,468,3909,264,366,-190
1,22136,-1206,1274,-1549,3225,619,2963,264,366,-190
1,22144,-1206,1274,-1549,3225,619,2963,264,366,-190
1,22152,-1206,1274,-1549,3225,619,2963,264,366,-190
1,22161,-1203,1295,-1501,2776,918,2426,264,366,-190
1,22173,-1145,1325,-1585,3101,1061,2680,264,366,-190
1,22187,-1145,1325,-1585,3101,1061,2680,264,366,-190
1,22196,-1221,1317,-1690,3316,1293,3670,264,366,-190
1,22207,-1221,1317,-1690,3316,1293,3670,264,366,-190
1,22219,-1339,1164,-1631,2206,921,5085,264,366,-190
1,22233,-1349,998,-1581,779,276,6227,256,354,-182
1,22246,-1349,998,-1581,779,276,6227,256,354,-182
1,22258,-1288,1131,-1712,1188,-81,6320,256,354,-182
1,22269,-1288,1131,-1712,1188,-81,6320,256,354,-182
1,22279,-1297,1331,-1744,1591,-165,5568,256,354,-182
1,22292,-1221,1273,-1666,502,-128,4068,256,354,-182
1,22307,-1221,1273,-1666,502,-128,4068,256,354,-182
1,22321,-1163,1174,-1636,-515,286,2969,256,354,-182
1,22329,-1163,1174,-1636,-515,286,2969,256,354,-182
1,22342,-1226,1204,-1617,-899,834,2682,256,354,-182
1,22355,-1285,1189,-1631,-1477,526,3032,247,363,-183
1,22369,-1285,1189,-1631,-1477,526,3032,247,363,-183
1,22378,-1285,1189,-1631,-1477,526,3032,247,363,-183
1,22391,-1285,1189,-1631,-1477,526,3032,247,363,-183
1,22404,-1339,1307,-1697,-869,-510,3247,247,363,-183
1,22413,-1417,1486,-1703,-212,-855,2548,247,363,-183
1,22424,-1417,1486,-1703,-212,-855,2548,247,363,-183
1,22436,-1488,1506,-1723,-3,-1253,1526,247,363,-183
1,22450,-1488,1506,-1723,-3,-1253,1526,247,363,-183
1,22462,-1541,1458,-1805,366,-1039,778,247,363,-183
1,22475,-1538,1441,-1775,-233,-842,823,242,366,-184
1,22486,-1538,1441,-1775,-233,-842,823,242,366,-184
1,22495,-1410,1439,-1756,-1568,-884,953,242,366,-184
1,22508,-1410,1439,-1756,-1568,-884,953,242,366,-184
1,22522,-1229,1366,-1775,-2320,-712,534,242,366,-184
1,22537,-1179,1213,-1682,-2508,-23,-70,242,366,-184
1,22545,-1179,1213,-1682,-2508,-23,-70,242,366,-184
1,22558,-1267,1175,-1659,-2522,490,-179,242,366,-184
1,22572,-1446,1216,-1701,-2327,574,153,242,366,-184
1,22586,-1446,1216,-1701,-2327,574,153,242,366,-184
1,22594,-1561,1187,-1800,-2087,119,282,231,361,-183
1,22607,-1561,1187,-1800,-2087,119,282,231,361,-183
1,22623,-1494,1204,-1860,-1677,-600,-70,231,361,-183
1,22632,-1208,1259,-1809,-1608,-1197,-687,231,361,-183
1,22643,-1208,1259,-1809,-1608,-1197,-687,231,361,-183
1,22654,-916,1296,-1664,-1736,-1428,-703,231,361,-183
1,22668,-916,1296,-1664,-1736,-1428,-703,231,361,-183
1,22681,-767,1334,-1608,-1940,-1157,-205,231,361,-183
1,22693,-683,1178,-1590,-2534,-620,-5,231,361,-183
1,22705,-683,1178,-1590,-2534,-620,-5,231,361,-183
1,22714,-632,1066,-1529,-2579,-104,412,231,361,-183
1,22728,-632,1066,-1529,-2579,-104,412,231,361,-183
1,22742,-933,1392,-1580,-1592,511,367,231,361,-183
1,22756,-1277,1479,-1717,-2007,578,-217,231,361,-183
1,22765,-1277,1479,-1717,-2007,578,-217,231,361,-183
1,22777,-1378,1457,-1842,-2862,280,-710,231,361,-183
1,22791,-1378,1457,-1842,-2862,280,-710,231,361,-183
1,22799,-1257,1420,-1810,-4249,-220,-598,231,361,-183
1,22807,-1257,1420,-1810,-4249,-220,-598,231,361,-183
1,22814,-1073,1410,-1689,-5680,-916,-458,231,361,-183
1,22822,-1073,1410,-1689,-5680,-916,-458,231,361,-183
1,22832,-1073,1410,-1689,-5680,-916,-458,231,361,-183
1,22840,-1002,1537,-1610,-5849,-753,-706,231,361,-183
1,22848,-1002,1537,-1610,-5849,-753,-706,231,361,-183
1,22855,-1058,1550,-1613,-5963,-64,-589,248,372,-178
1,22863,-1058,1550,-1613,-5963,-64,-589,248,372,-178
1,22872,-1058,1550,-1613,-5963,-64,-589,248,372,-178
1,22878,-1069,1430,-1611,-6370,537,521,248,372,-178
1,22883,-1069,1430,-1611,-6370,537,521,248,372,-178
1,22889,-1069,1430,-1611,-6370,537,521,248,372,-178
1,22894,-1080,1379,-1603,-6796,782,1611,248,372,-178
1,22900,-1080,1379,-1603,-6796,782,1611,248,372,-178
1,22907,-1080,1379,-1603,-6796,782,1611,248,372,-178
1,22913,-1123,1425,-1550,-7067,570,1430,248,372,-178
1,22920,-1123,1425,-1550,-7067,570,1430,248,372,-178
1,22925,-1123,1425,-1550,-7067,570,1430,248,372,-178
1,22931,-1123,1425,-1550,-7067,570,1430,248,372,-178
1,22937,-1236,1475,-1582,-6883,-56,766,248,372,-178
1,22943,-1236,1475,-1582,-6883,-56,766,248,372,-178
1,22948,-1236,1475,-1582,-6883,-56,766,248,372,-178
1,22956,-1285,1628,-1610,-6426,-520,-58,248,372,-178
1,22962,-1285,1628,-1610,-6426,-520,-58,248,372,-178
1,22969,-1285,1628,-1610,-6426,-520,-58,248,372,-178
1,22975,-1272,1783,-1659,-6468,-410,-879,235,365,-185
1,22983,-1272,1783,-1659,-6468,-410,-879,235,365,-185
1,22989,-1272,1783,-1659,-6468,-410,-879,235,365,-185
1,22996,-1272,1616,-1715,-8264,-434,-948,235,365,-185
1,23004,-1272,1616,-1715,-8264,-434,-948,235,365,-185
1,23012,-1272,1616,-1715,-8264,-434,-948,235,365,-185
1,23019,-1377,1442,-1737,-8972,-476,-906,235,365,-185
1,23026,-1377,1442,-1737,-8972,-476,-906,235,365,-185
1,23033,-1489,1424,-1718,-8589,-1074,-959,235,365,-185
1,23041,-1489,1424,-1718,-8589,-1074,-959,235,365,-185
1,23048,-1489,1424,-1718,-8589,-1074,-959,235,365,-185
1,23056,-1457,1578,-1697,-7732,-2444,-717,235,365,-185
1,23063,-1457,1578,-1697,-7732,-2444,-717,235,365,-185
1,23070,-1457,1578,-1697,-7732,-2444,-717,235,365,-185
1,23077,-1216,1785,-1581,-6509,-3074,-1825,235,365,-185
1,23085,-1216,1785,-1581,-6509,-3074,-1825,235,365,-185
1,23091,-1216,1785,-1581,-6509,-3074,-1825,235,365,-185
1,23098,-1058,1858,-1498,-6075,-1740,-3983,228,366,-182
1,23105,-1058,1858,-1498,-6075,-1740,-3983,228,366,-182
1,23112,-1057,1752,-1520,-6936,-440,-4787,228,366,-182
1,23120,-1057,1752,-1520,-6936,-440,-4787,228,366,-182
1,23127,-1057,1752,-1520,-6936,-440,-4787,228,366,-182
1,23134,-1125,1528,-1587,-7845,-787,-4310,228,366,-182
1,23141,-1125,1528,-1587,-7845,-787,-4310,228,366,-182
1,23147,-1125,1528,-1587,-7845,-787,-4310,228,366,-182
1,23153,-1222,1401,-1617,-7761,-2054,-3727,228,366,-182
1,23160,-1222,1401,-1617,-7761,-2054,-3727,228,366,-182
1,23168,-1222,1401,-1617,-7761,-2054,-3727,228,366,-182
1,23175,-1376,1426,-1606,-7312,-3083,-2986,228,366,-182
1,23182,-1376,1426,-1606,-7312,-3083,-2986,228,366,-182
1,23190,-1376,1426,-1606,-7312,-3083,-2986,228,366,-182
1,23197,-1393,1458,-1559,-6644,-3447,-2972,228,366,-182
1,23206,-1393,1458,-1559,-6644,-3447,-2972,228,366,-182
1,23213,-1370,1556,-1497,-5724,-3076,-3070,229,365,-179
1,23221,-1370,1556,-1497,-5724,-3076,-3070,229,365,-179
1,23229,-1370,1556,-1497,-5724,-3076,-3070,229,365,-179
1,23236,-1300,1585,-1437,-5497,-3008,-3556,229,365,-179
1,23243,-1300,1585,-1437,-5497,-3008,-3556,229,365,-179
1,23251,-1300,1585,-1437,-5497,-3008,-3556,229,365,-179
1,23259,-1229,1585,-1391,-5638,-2935,-4327,229,365,-179
1,23266,-1229,1585,-1391,-5638,-2935,-4327,229,365,-179
1,23274,-1122,1651,-1336,-5606,-2895,-4857,229,365,-179
1,23281,-1122,1651,-1336,-5606,-2895,-4857,229,365,-179
1,23287,-1122,1651,-1336,-5606,-2895,-4857,229,365,-179
1,23296,-942,1763,-1299,-6095,-2977,-4918,229,365,-179
1,23302,-942,1763,-1299,-6095,-2977,-4918,229,365,-179
1,23309,-942,1763,-1299,-6095,-2977,-4918,229,365,-179
1,23318,-863,1828,-1286,-7718,-2990,-4688,229,365,-179
1,23330,-863,1828,-1286,-7718,-2990,-4688,229,365,-179
1,23344,-903,1765,-1302,-10049,-2972,-4239,229,365,-179
1,23353,-1047,1618,-1310,-11987,-2404,-3567,232,372,-172
1,23364,-1047,1618,-1310,-11987,-2404,-3567,232,372,-172
1,23375,-1166,1499,-1313,-12871,-1892,-3122,232,372,-172
1,23389,-1166,1499,-1313,-12871,-1892,-3122,232,372,-172
1,23402,-1210,1442,-1283,-12778,-1595,-3084,232,372,-172
1,23413,-1177,1385,-1252,-12141,-1657,-3465,232,372,-172
1,23426,-1177,1385,-1252,-12141,-1657,-3465,232,372,-172
1,23435,-1141,1369,-1230,-11413,-1802,-3688,232,372,-172
1,23447,-1141,1369,-1230,-11413,-1802,-3688,232,372,-172
1,23460,-1157,1450,-1224,-10970,-1876,-3656,232,372,-172
1,23474,-1186,1659,-1256,-10933,-1731,-3635,217,377,-175
1,23483,-1186,1659,-1256,-10933,-1731,-3635,217,377,-175
1,23496,-1173,1741,-1286,-11546,-972,-4198,217,377,-175
1,23508,-1173,1741,-1286,-11546,-972,-4198,217,377,-175
1,23522,-1187,1660,-1335,-11830,424,-4840,217,377,-175
1,23531,-1187,1660,-1335,-11830,424,-4840,217,377,-175
1,23543,-1298,1542,-1352,-11305,1464,-5005,217,377,-175
1,23554,-1480,1433,-1297,-10945,1311,-4929,217,377,-175
1,23565,-1480,1433,-1297,-10945,1311,-4929,217,377,-175
1,23577,-1517,1277,-1249,-10417,880,-5061,217,377,-175
1,23586,-1517,1277,-1249,-10417,880,-5061,217,377,-175
1,23600,-1413,1211,-1230,-8457,1241,-5106,228,378,-178
1,23613,-1324,1269,-1168,-6833,2048,-5198,228,378,-178
1,23625,-1324,1269,-1168,-6833,2048,-5198,228,378,-178
1,23634,-1520,1227,-1200,-5985,2575,-5212,228,378,-178
1,23647,-1520,1227,-1200,-5985,2575,-5212,228,378,-178
1,23658,-1825,975,-1336,-4875,2549,-5129,228,378,-178
1,23670,-1825,975,-1336,-4875,2549,-5129,228,378,-178
1,23684,-1960,824,-1385,-4470,2117,-2342,228,378,-178
1,23696,-1506,869,-1231,-4400,919,-2739,228,378,-178
1,23705,-1506,869,-1231,-4400,919,-2739,228,378,-178
1,23717,-1177,912,-1065,-3015,183,-3997,226,372,-190
1,23731,-1177,912,-1065,-3015,183,-3997,226,372,-190
1,23743,-1211,741,-927,-1604,-36,-3787,226,372,-190
1,23752,-1211,741,-927,-1604,-36,-3787,226,372,-190
1,23764,-1600,613,-874,-516,761,-3465,226,372,-190
1,23777,-1886,668,-906,248,1419,-2341,226,372,-190
1,23786,-1886,668,-906,248,1419,-2341,226,372,-190
1,23798,-1966,749,-1075,1531,2067,-933,226,372,-190
1,23805,-1966,749,-1075,1531,2067,-933,226,372,-190
1,23813,-1996,904,-1123,3714,1179,-1210,226,372,-190
1,23821,-1996,904,-1123,3714,1179,-1210,226,372,-190
1,23829,-1996,904,-1123,3714,1179,-1210,226,372,-190
1,23837,-1912,995,-968,4244,-1089,-2520,226,372,-190
1,23845,-1912,995,-968,4244,-1089,-2520,226,372,-190
1,23853,-1787,943,-814,3493,-2370,-2818,244,358,-180
1,23861,-1787,943,-814,3493,-2370,-2818,244,358,-180
1,23869,-1787,943,-814,3493,-2370,-2818,244,358,-180
1,23878,-1778,901,-772,3695,-2532,-2021,244,358,-180
1,23885,-1778,901,-772,3695,-2532,-2021,244,358,-180
1,23891,-1778,901,-772,3695,-2532,-2021,244,358,-180
1,23897,-1785,992,-794,4412,-2342,-1761,244,358,-180
1,23903,-1785,992,-794,4412,-2342,-1761,244,358,-180
1,23910,-1785,992,-794,4412,-2342,-1761,244,358,-180
1,23915,-1733,1022,-793,4676,-2223,-1614,244,358,-180
1,23922,-1733,1022,-793,4676,-2223,-1614,244,358,-180
1,23929,-1733,1022,-793,4676,-2223,-1614,244,358,-180
1,23936,-1734,965,-816,4618,-2327,-1793,244,358,-180
1,23942,-1734,965,-816,4618,-2327,-1793,244,358,-180
1,23948,-1734,965,-816,4618,-2327,-1793,244,358,-180
1,23955,-1702,900,-819,4491,-2963,-1854,244,358,-180
1,23962,-1702,900,-819,4491,-2963,-1854,244,358,-180
1,23970,-1702,900,-819,4491,-2963,-1854,244,358,-180
1,23977,-1596,847,-786,3996,-3472,-1540,259,363,-175
1,23986,-1596,847,-786,3996,-3472,-1540,259,363,-175
1,23993,-1519,796,-801,3607,-3639,-1042,259,363,-175
1,23999,-1519,796,-801,3607,-3639,-1042,259,363,-175
1,24007,-1519,796,-801,3607,-3639,-1042,259,363,-175
1,24013,-1488,817,-819,3632,-4203,-517,259,363,-175
1,24023,-1488,817,-819,3632,-4203,-517,259,363,-175
1,24034,-1469,834,-809,4022,-4868,-653,259,363,-175
1,24045,-1469,834,-809,4022,-4868,-653,259,363,-175
1,24058,-1478,881,-856,4719,-4837,-1954,259,363,-175
1,24072,-1478,881,-856,4719,-4837,-1954,259,363,-175
1,24084,-1462,976,-889,4898,-4839,-2722,259,363,-175
1,24096,-1462,976,-889,4898,-4839,-2722,271,371,-145
1,24104,-1462,976,-889,4898,-4839,-2722,271,371,-145
1,24118,-1412,935,-835,3060,-3869,-2827,271,371,-145
1,24131,-1412,935,-835,3060,-3869,-2827,271,371,-145
1,24145,-1545,873,-832,2825,-3237,-2249,271,371,-145
1,24154,-1556,798,-795,2875,-3076,-2731,271,371,-145
1,24166,-1556,798,-795,2875,-3076,-2731,271,371,-145
1,24179,-1604,851,-716,2951,-2664,-2126,271,371,-145
1,24194,-1653,916,-671,2357,-2822,-1393,271,371,-145
1,24203,-1653,916,-671,2357,-2822,-1393,271,371,-145
1,24215,-1704,905,-667,1621,-2969,-922,275,373,-145
1,24228,-1704,905,-667,1621,-2969,-922,275,373,-145
1,24237,-1702,899,-637,1232,-3118,-1081,275,373,-145
1,24249,-1702,899,-637,1232,-3118,-1081,275,373,-145
1,24259,-1653,949,-558,931,-3572,-1365,275,373,-145
1,24271,-1653,949,-558,931,-3572,-1365,275,373,-145
1,24284,-1594,1001,-521,516,-3810,-1699,275,373,-145
1,24297,-1651,1076,-508,-66,-3433,-1414,275,373,-145
1,24306,-1651,1076,-508,-66,-3433,-1414,275,373,-145
1,24317,-1708,1057,-520,-1186,-3506,-797,275,373,-145
1,24328,-1708,1057,-520,-1186,-3506,-797,275,373,-145
1,24340,-1729,990,-554,-1958,-3484,-265,275,373,-145
1,24352,-1746,932,-596,-2349,-3174,37,275,373,-145
1,24366,-1746,932,-596,-2349,-3174,37,275,373,-145
1,24375,-1640,881,-602,-2683,-3134,125,275,373,-145
1,24385,-1640,881,-602,-2683,-3134,125,275,373,-145
1,24397,-1543,822,-598,-3116,-3153,1141,275,373,-145
1,24411,-1543,822,-598,-3116,-3153,1141,275,373,-145
1,24420,-1498,758,-553,-3351,-2953,1502,275,373,-145
1,24433,-1522,728,-517,-3587,-2655,1786,275,373,-145
1,24445,-1522,728,-517,-3587,-2655,1786,275,373,-145
1,24458,-1577,749,-490,-3793,-2847,2260,275,373,-145
1,24470,-1577,749,-490,-3793,-2847,2260,275,373,-145
1,24482,-1628,830,-502,-3753,-3132,2290,279,373,-115
1,24494,-1580,882,-551,-3682,-2905,2017,279,373,-115
1,24506,-1580,882,-551,-3682,-2905,2017,279,373,-115
1,24519,-1524,936,-537,-3691,-1742,1563,279,373,-115
1,24525,-1524,936,-537,-3691,-1742,1563,279,373,-115
1,24537,-1446,955,-520,-4209,-741,1238,279,373,-115
1,24549,-1446,955,-520,-4209,-741,1238,279,373,-115
1,24562,-1496,888,-497,-4844,84,904,279,373,-115
1,24576,-1462,846,-471,-5213,754,790,279,373,-115
1,24587,-1462,846,-471,-5213,754,790,279,373,-115
1,24599,-1515,846,-483,-5465,1810,688,277,379,-117
1,24608,-1515,846,-483,-5465,1810,688,277,379,-117
1,24622,-1686,690,-610,-5190,1710,501,277,379,-117
1,24634,-1815,752,-641,-4455,95,1146,277,379,-117
1,24644,-1815,752,-641,-4455,95,1146,277,379,-117
1,24655,-1743,859,-590,-4145,-1412,1078,277,379,-117
1,24669,-1743,859,-590,-4145,-1412,1078,277,379,-117
1,24681,-1620,953,-566,-3333,-1216,621,277,379,-117
1,24690,-1620,953,-566,-3333,-1216,621,277,379,-117
1,24704,-1605,988,-575,-2540,-109,-287,277,379,-117
1,24716,-1442,987,-559,-3166,-462,95,265,373,-125
1,24725,-1442,987,-559,-3166,-462,95,265,373,-125
1,24737,-1569,943,-569,-3460,491,-210,265,373,-125
1,24750,-1569,943,-569,-3460,491,-210,265,373,-125
1,24762,-1577,905,-606,-3082,628,-872,265,373,-125
1,24775,-1530,834,-564,-2880,443,-1019,265,373,-125
1,24787,-1530,834,-564,-2880,443,-1019,265,373,-125
1,24797,-1486,879,-513,-2302,898,-1436,265,373,-125
1,24805,-1486,879,-513,-2302,898,-1436,265,373,-125
1,24811,-1486,879,-513,-2302,898,-1436,265,373,-125
1,24817,-1521,933,-516,-2163,1307,-1666,265,373,-125
1,24822,-1521,933,-516,-2163,1307,-1666,265,373,-125
1,24828,-1521,933,-516,-2163,1307,-1666,265,373,-125
1,24834,-1574,938,-538,-2496,1397,-1880,279,377,-135
1,24840,-1574,938,-538,-2496,1397,-1880,279,377,-135
1,24846,-1574,938,-538,-2496,1397,-1880,279,377,-135
1,24851,-1574,938,-538,-2496,1397,-1880,279,377,-135
1,24858,-1665,928,-557,-2733,1789,-1952,279,377,-135
1,24864,-1665,928,-557,-2733,1789,-1952,279,377,-135
1,24869,-1665,928,-557,-2733,1789,-1952,279,377,-135
1,24876,-1742,915,-584,-2390,2084,-2522,279,377,-135
1,24881,-1742,915,-584,-2390,2084,-2522,279,377,-135
1,24888,-1742,915,-584,-2390,2084,-2522,279,377,-135
1,24894,-1711,855,-630,-2365,1974,-1972,279,377,-135
1,24901,-1711,855,-630,-2365,1974,-1972,279,377,-135
1,24907,-1711,855,-630,-2365,1974,-1972,279,377,-135
1,24914,-1721,759,-661,-2845,1929,-659,279,377,-135
1,24922,-1721,759,-661,-2845,1929,-659,279,377,-135
1,24928,-1721,759,-661,-2845,1929,-659,279,377,-135
1,24934,-1691,783,-637,-3201,1448,252,279,377,-135
1,24940,-1691,783,-637,-3201,1448,252,279,377,-135
1,24946,-1691,783,-637,-3201,1448,252,279,377,-135
1,24953,-1617,807,-615,-3839,852,745,279,377,-135
1,24961,-1617,807,-615,-3839,852,745,279,377,-135
1,24969,-1617,807,-615,-3839,852,745,279,377,-135
1,24976,-1636,857,-647,-3790,916,409,276,368,-142
1,24982,-1636,857,-647,-3790,916,409,276,368,-142
1,24988,-1636,857,-647,-3790,916,409,276,368,-142
1,24995,-1626,906,-691,-3584,1127,267,276,368,-142
1,25003,-1626,906,-691,-3584,1127,267,276,368,-142
1,25010,-1626,906,-691,-3584,1127,267,276,368,-142
1,25018,-1699,879,-704,-3752,2058,263,276,368,-142
1,25024,-1699,879,-704,-3752,2058,263,276,368,-142
1,25031,-1699,879,-704,-3752,2058,263,276,368,-142
1,25038,-1907,823,-727,-3994,1528,-489,276,368,-142
1,25047,-1907,823,-727,-3994,1528,-489,276,368,-142
1,25053,-1724,775,-741,-3090,141,-2005,276,368,-142
1,25061,-1724,775,-741,-3090,141,-2005,276,368,-142
1,25068,-1724,775,-741,-3090,141,-2005,276,368,-142
1,25075,-1684,934,-763,-1667,474,-1501,276,368,-142
1,25081,-1684,934,-763,-1667,474,-1501,276,368,-142
1,25090,-1684,934,-763,-1667,474,-1501,276,368,-142
1,25096,-1619,1038,-760,-1985,185,-670,268,376,-146
1,25103,-1619,1038,-760,-1985,185,-670,268,376,-146
1,25109,-1619,1038,-760,-1985,185,-670,268,376,-146
1,25116,-1586,942,-745,-3764,-400,-325,268,376,-146
1,25121,-1586,942,-745,-3764,-400,-325,268,376,-146
1,25129,-1586,942,-745,-3764,-400,-325,268,376,-146
1,25136,-1640,735,-742,-4958,-1066,-379,268,376,-146
1,25143,-1640,735,-742,-4958,-1066,-379,268,376,-146
1,25149,-1640,735,-742,-4958,-1066,-379,268,376,-146
1,25156,-1746,629,-713,-4228,-981,-889,268,376,-146
1,25164,-1746,629,-713,-4228,-981,-889,268,376,-146
1,25170,-1746,629,-713,-4228,-981,-889,268,376,-146
1,25179,-1884,626,-692,-2786,-1652,-1395,268,376,-146
1,25185,-1884,626,-692,-2786,-1652,-1395,268,376,-146
1,25191,-1884,626,-692,-2786,-1652,-1395,268,376,-146
1,25199,-1518,751,-641,-1343,-1429,-3028,268,376,-146
1,25205,-1518,751,-641,-1343,-1429,-3028,268,376,-146
1,25216,-1616,933,-660,-921,423,-2076,271,369,-141
1,25223,-1616,933,-660,-921,423,-2076,271,369,-141
1,25233,-1681,927,-695,-1508,-252,-2487,271,369,-141
1,25243,-1681,927,-695,-1508,-252,-2487,271,369,-141
1,25254,-1685,797,-689,-2296,-1203,-2850,271,369,-141
1,25264,-1685,797,-689,-2296,-1203,-2850,271,369,-141
1,25273,-1685,797,-689,-2296,-1203,-2850,271,369,-141
1,25284,-1779,729,-711,-2150,-1638,-2506,271,369,-141
1,25290,-1779,729,-711,-2150,-1638,-2506,271,369,-141
1,25299,-1755,693,-707,-1965,-2352,-2880,271,369,-141
1,25311,-1755,693,-707,-1965,-2352,-2880,271,369,-141
1,25319,-1715,692,-691,-1528,-2037,-3332,271,369,-141
1,25329,-1715,692,-691,-1528,-2037,-3332,271,369,-141
1,25339,-1761,706,-682,-845,-1750,-3465,275,371,-135
1,25350,-1761,706,-682,-845,-1750,-3465,275,371,-135
1,25360,-1775,670,-636,-712,-2651,-3665,275,371,-135
1,25368,-1775,670,-636,-712,-2651,-3665,275,371,-135
1,25378,-1662,668,-575,-561,-3749,-3606,275,371,-135
1,25389,-1662,668,-575,-561,-3749,-3606,275,371,-135
1,25396,-1602,649,-547,-343,-3653,-2832,275,371,-135
1,25406,-1602,649,-547,-343,-3653,-2832,275,371,-135
1,25416,-1572,678,-518,-97,-3155,-2101,275,371,-135
1,25423,-1572,678,-518,-97,-3155,-2101,275,371,-135
1,25434,-1554,678,-519,-248,-2700,-1862,275,371,-135
1,25441,-1554,678,-519,-248,-2700,-1862,275,371,-135
1,25450,-1554,678,-519,-248,-2700,-1862,275,371,-135
1,25461,-1568,698,-516,-360,-2523,-1759,275,371,-135
1,25472,-1568,698,-516,-360,-2523,-1759,275,371,-135
1,25481,-1600,696,-517,-582,-2378,-1742,297,375,-125
1,25490,-1600,696,-517,-582,-2378,-1742,297,375,-125
1,25501,-1581,615,-521,-988,-2266,-1641,297,375,-125
1,25507,-1581,615,-521,-988,-2266,-1641,297,375,-125
1,25519,-1619,502,-488,-1239,-2137,-1593,297,375,-125
1,25529,-1619,502,-488,-1239,-2137,-1593,297,375,-125
1,25538,-1661,461,-448,-1030,-2314,-1429,297,375,-125
1,25547,-1661,461,-448,-1030,-2314,-1429,297,375,-125
1,25558,-1667,480,-457,-555,-2584,-947,297,375,-125
1,25568,-1667,480,-457,-555,-2584,-947,297,375,-125
1,25577,-1577,529,-455,-274,-2730,-430,297,375,-125
1,25587,-1577,529,-455,-274,-2730,-430,297,375,-125
1,25596,-1483,559,-427,-280,-2302,-455,291,367,-123
1,25607,-1483,559,-427,-280,-2302,-455,291,367,-123
1,25617,-1414,625,-397,-601,-1710,-412,291,367,-123
1,25624,-1414,625,-397,-601,-1710,-412,291,367,-123
1,25634,-1439,678,-369,-1208,-1262,36,291,367,-123
1,25641,-1439,678,-369,-1208,-1262,36,291,367,-123
1,25652,-1439,678,-369,-1208,-1262,36,291,367,-123
1,25658,-1466,633,-374,-1839,-718,237,291,367,-123
1,25668,-1466,633,-374,-1839,-718,237,291,367,-123
1,25678,-1597,616,-412,-2074,-42,375,291,367,-123
1,25689,-1597,616,-412,-2074,-42,375,291,367,-123
1,25698,-1628,620,-440,-2388,-51,516,291,367,-123
1,25708,-1628,620,-440,-2388,-51,516,291,367,-123
1,25718,-1615,629,-456,-2559,0,426,298,368,-116
1,25725,-1615,629,-456,-2559,0,426,298,368,-116
1,25737,-1593,644,-444,-2770,10,360,298,368,-116
1,25747,-1593,644,-444,-2770,10,360,298,368,-116
1,25755,-1553,640,-424,-3269,64,269,298,368,-116
1,25765,-1553,640,-424,-3269,64,269,298,368,-116
1,25775,-1583,654,-429,-3558,310,412,298,368,-116
1,25786,-1583,654,-429,-3558,310,412,298,368,-116
1,25792,-1583,654,-429,-3558,310,412,298,368,-116
1,25798,-1619,668,-419,-3770,617,600,298,368,-116
1,25804,-1619,668,-419,-3770,617,600,298,368,-116
1,25810,-1619,668,-419,-3770,617,600,298,368,-116
1,25817,-1670,708,-444,-3857,778,684,298,368,-116
1,25822,-1670,708,-444,-3857,778,684,298,368,-116
1,25828,-1670,708,-444,-3857,778,684,298,368,-116
1,25834,-1661,745,-484,-4194,755,1130,298,366,-128
1,25840,-1661,745,-484,-4194,755,1130,298,366,-128
1,25846,-1661,745,-484,-4194,755,1130,298,366,-128
1,25851,-1661,745,-484,-4194,755,1130,298,366,-128
1,25860,-1631,688,-538,-4866,988,1513,298,366,-128
1,25866,-1631,688,-538,-4866,988,1513,298,366,-128
1,25872,-1631,688,-538,-4866,988,1513,298,366,-128
1,25878,-1688,585,-543,-5154,1275,1505,298,366,-128
1,25883,-1688,585,-543,-5154,1275,1505,298,366,-128
1,25890,-1688,585,-543,-5154,1275,1505,298,366,-128
1,25899,-1690,533,-529,-4997,1088,1434,298,366,-128
1,25910,-1690,533,-529,-4997,1088,1434,298,366,-128
1,25919,-1646,588,-521,-4709,835,1502,298,366,-128
1,25926,-1646,588,-521,-4709,835,1502,298,366,-128
1,25936,-1571,633,-550,-4373,810,1245,298,366,-128
1,25943,-1571,633,-550,-4373,810,1245,298,366,-128
1,25954,-1581,678,-552,-3676,950,640,298,366,-128
1,25964,-1581,678,-552,-3676,950,640,298,366,-128
1,25973,-1536,708,-500,-3520,1031,10,298,366,-128
1,25981,-1536,708,-500,-3520,1031,10,298,366,-128
1,25992,-1536,708,-500,-3520,1031,10,298,366,-128
1,26001,-1533,679,-471,-3968,1198,-82,298,366,-128
1,26010,-1533,679,-471,-3968,1198,-82,298,366,-128
1,26020,-1644,586,-494,-4055,1730,15,298,366,-128
1,26030,-1644,586,-494,-4055,1730,15,298,366,-128
1,26040,-1778,563,-545,-3457,1999,-10,298,366,-128
1,26046,-1778,563,-545,-3457,1999,-10,298,366,-128
1,26056,-1785,565,-581,-3291,1602,208,298,366,-128
1,26063,-1785,565,-581,-3291,1602,208,298,366,-128
1,26074,-1787,572,-582,-3176,1230,202,298,366,-128
1,26081,-1787,572,-582,-3176,1230,202,298,366,-128
1,26090,-1787,572,-582,-3176,1230,202,298,366,-128
1,26098,-1758,557,-583,-2980,830,293,285,371,-135
1,26107,-1758,557,-583,-2980,830,293,285,371,-135
1,26117,-1749,556,-589,-2123,274,307,285,371,-135
1,26126,-1749,556,-589,-2123,274,307,285,371,-135
1,26136,-1665,602,-574,-1536,-9,240,285,371,-135
1,26143,-1665,602,-574,-1536,-9,240,285,371,-135
1,26153,-1610,633,-564,-1405,-158,468,285,371,-135
1,26161,-1610,633,-564,-1405,-158,468,285,371,-135
1,26171,-1610,633,-564,-1405,-158,468,285,371,-135
1,26182,-1606,662,-551,-998,-241,271,285,371,-135
1,26190,-1606,662,-551,-998,-241,271,285,371,-135
1,26201,-1606,726,-529,-938,-186,343,285,371,-135
1,26211,-1606,726,-529,-938,-186,343,285,371,-135
1,26220,-1561,711,-532,-1272,240,379,286,374,-146
1,26228,-1561,711,-532,-1272,240,379,286,374,-146
1,26238,-1625,676,-586,-831,764,238,286,374,-146
1,26249,-1625,676,-586,-831,764,238,286,374,-146
1,26259,-1701,646,-606,-598,553,286,286,374,-146
1,26268,-1701,646,-606,-598,553,286,286,374,-146
1,26277,-1671,602,-584,-1178,-217,529,286,374,-146
1,26288,-1671,602,-584,-1178,-217,529,286,374,-146
1,26297,-1692,572,-563,-991,-349,260,286,374,-146
1,26308,-1692,572,-563,-991,-349,260,286,374,-146
1,26315,-1619,629,-546,-139,92,-175,286,374,-146
1,26327,-1619,629,-546,-139,92,-175,286,374,-146
1,26336,-1564,666,-569,-327,264,1408,287,369,-143
1,26343,-1564,666,-569,-327,264,1408,287,369,-143
1,26353,-1552,602,-608,270,36,870,287,369,-143
1,26361,-1552,602,-608,270,36,870,287,369,-143
1,26372,-1552,602,-608,270,36,870,287,369,-143
1,26379,-1689,579,-580,920,422,262,287,369,-143
1,26388,-1689,579,-580,920,422,262,287,369,-143
1,26399,-1739,598,-530,197,266,750,287,369,-143
1,26407,-1739,598,-530,197,266,750,287,369,-143
1,26418,-1644,625,-565,-113,-992,1941,287,369,-143
1,26427,-1644,625,-565,-113,-992,1941,287,369,-143
1,26437,-1761,744,-605,659,-872,2052,287,369,-143
1,26445,-1761,744,-605,659,-872,2052,287,369,-143
1,26456,-1668,712,-589,519,-2097,1636,276,374,-148
1,26467,-1668,712,-589,519,-2097,1636,276,374,-148
1,26476,-1545,695,-551,576,-1911,1158,276,374,-148
1,26482,-1545,695,-551,576,-1911,1158,276,374,-148
1,26492,-1545,695,-551,576,-1911,1158,276,374,-148
1,26500,-1552,770,-517,1086,-457,698,276,374,-148
1,26511,-1552,770,-517,1086,-457,698,276,374,-148
1,26520,-1527,792,-497,845,247,831,276,374,-148
1,26530,-1527,792,-497,845,247,831,276,374,-148
1,26541,-1605,802,-471,226,496,1428,276,374,-148
1,26547,-1605,802,-471,226,496,1428,276,374,-148
1,26557,-1639,714,-536,-100,653,1808,276,374,-148
1,26567,-1639,714,-536,-100,653,1808,276,374,-148
1,26575,-1689,659,-535,555,937,1696,276,374,-148
1,26583,-1689,659,-535,555,937,1696,276,374,-148
1,26594,-1781,697,-529,1211,836,1072,274,380,-140
1,26601,-1781,697,-529,1211,836,1072,274,380,-140
1,26611,-1781,697,-529,1211,836,1072,274,380,-140
1,26620,-1554,727,-518,1061,-288,1108,274,380,-140
1,26632,-1554,727,-518,1061,-288,1108,274,380,-140
1,26641,-1616,851,-528,1048,37,2117,274,380,-140
1,26648,-1616,851,-528,1048,37,2117,274,380,-140
1,26659,-1672,838,-553,724,479,2199,274,380,-140
1,26667,-1672,838,-553,724,479,2199,274,380,-140
1,26677,-1788,816,-588,792,436,1709,274,380,-140
1,26686,-1788,816,-588,792,436,1709,274,380,-140
1,26696,-1669,865,-579,884,-658,1703,274,380,-140
1,26706,-1669,865,-579,884,-658,1703,274,380,-140
1,26714,-1569,1007,-535,286,-595,2105,269,375,-143
1,26724,-1569,1007,-535,286,-595,2105,269,375,-143
1,26731,-1569,1007,-535,286,-595,2105,269,375,-143
1,26740,-1540,1065,-502,-1299,-697,1940,269,375,-143
1,26749,-1540,1065,-502,-1299,-697,1940,269,375,-143
1,26760,-1452,971,-479,-2726,-669,1066,269,375,-143
1,26767,-1452,971,-479,-2726,-669,1066,269,375,-143
1,26777,-1614,976,-451,-3301,740,859,269,375,-143
1,26787,-1614,976,-451,-3301,740,859,269,375,-143
1,26798,-1614,921,-424,-4178,262,1194,269,375,-143
1,26804,-1614,921,-424,-4178,262,1194,269,375,-143
1,26809,-1614,921,-424,-4178,262,1194,269,375,-143
1,26815,-1594,853,-443,-4162,537,982,269,375,-143
1,26821,-1594,853,-443,-4162,537,982,269,375,-143
1,26826,-1594,853,-443,-4162,537,982,269,375,-143
1,26832,-1594,853,-443,-4162,537,982,269,375,-143
1,26839,-1578,832,-427,-3812,1567,741,277,373,-149
1,26845,-1578,832,-427,-3812,1567,741,277,373,-149
1,26850,-1578,832,-427,-3812,1567,741,277,373,-149
1,26856,-1678,809,-408,-4255,2288,974,277,373,-149
1,26862,-1678,809,-408,-4255,2288,974,277,373,-149
1,26867,-1678,809,-408,-4255,2288,974,277,373,-149
1,26874,-1712,835,-442,-4492,1886,1082,277,373,-149
1,26881,-1712,835,-442,-4492,1886,1082,277,373,-149
1,26886,-1712,835,-442,-4492,1886,1082,277,373,-149
1,26891,-1712,835,-442,-4492,1886,1082,277,373,-149
1,26899,-1564,829,-479,-4498,981,1389,277,373,-149
1,26906,-1564,829,-479,-4498,981,1389,277,373,-149
1,26912,-1564,829,-479,-4498,981,1389,277,373,-149
1,26920,-1570,872,-484,-3888,1765,1209,277,373,-149
1,26928,-1570,872,-484,-3888,1765,1209,277,373,-149
1,26935,-1642,896,-490,-3781,2017,952,277,373,-149
1,26942,-1642,896,-490,-3781,2017,952,277,373,-149
1,26950,-1642,896,-490,-3781,2017,952,277,373,-149
1,26956,-1608,837,-471,-4017,2176,301,261,375,-151
1,26962,-1608,837,-471,-4017,2176,301,261,375,-151
1,26970,-1608,837,-471,-4017,2176,301,261,375,-151
1,26977,-1620,825,-449,-4481,2301,973,261,375,-151
1,26983,-1620,825,-449,-4481,2301,973,261,375,-151
1,26990,-1620,825,-449,-4481,2301,973,261,375,-151
1,26996,-1635,872,-434,-5216,1946,2412,261,375,-151
1,27003,-1635,872,-434,-5216,1946,2412,261,375,-151
1,27011,-1635,872,-434,-5216,1946,2412,261,375,-151
1,27019,-1720,1000,-471,-5834,1428,4258,261,375,-151
1,27028,-1720,1000,-471,-5834,1428,4258,261,375,-151
1,27035,-1616,1089,-525,-6504,981,6012,261,375,-151
1,27044,-1616,1089,-525,-6504,981,6012,261,375,-151
1,27053,-1616,1089,-525,-6504,981,6012,261,375,-151
1,27063,-1621,1213,-608,-6636,2618,6183,261,375,-151
1,27070,-1621,1213,-608,-6636,2618,6183,261,375,-151
1,27080,-1699,1229,-728,-7362,4331,5069,261,375,-151
1,27089,-1699,1229,-728,-7362,4331,5069,261,375,-151
1,27099,-1746,1167,-845,-8254,4725,4553,251,381,-171
1,27108,-1746,1167,-845,-8254,4725,4553,251,381,-171
1,27119,-1727,1180,-894,-8499,4201,4170,251,381,-171
1,27129,-1727,1180,-894,-8499,4201,4170,251,381,-171
1,27137,-1606,1154,-858,-8438,3815,3140,251,381,-171
1,27146,-1606,1154,-858,-8438,3815,3140,251,381,-171
1,27153,-1545,1109,-842,-8221,3580,941,251,381,-171
1,27163,-1545,1109,-842,-8221,3580,941,251,381,-171
1,27172,-1545,1109,-842,-8221,3580,941,251,381,-171
1,27182,-1463,1094,-839,-7912,2689,-831,251,381,-171
1,27192,-1463,1094,-839,-7912,2689,-831,251,381,-171
1,27200,-1417,1116,-856,-7845,2106,-1392,251,381,-171
1,27210,-1417,1116,-856,-7845,2106,-1392,251,381,-171
1,27219,-1504,1186,-908,-7571,2259,-1056,234,382,-180
1,27230,-1504,1186,-908,-7571,2259,-1056,234,382,-180
1,27239,-1546,1284,-987,-7206,2623,-1144,234,382,-180
1,27249,-1546,1284,-987,-7206,2623,-1144,234,382,-180
1,27259,-1549,1338,-1047,-7212,3168,-1451,234,382,-180
1,27270,-1549,1338,-1047,-7212,3168,-1451,234,382,-180
1,27280,-1524,1361,-1095,-7395,3564,-1784,234,382,-180
1,27287,-1524,1361,-1095,-7395,3564,-1784,234,382,-180
1,27297,-1580,1316,-1161,-7690,3684,-1582,234,382,-180
1,27304,-1580,1316,-1161,-7690,3684,-1582,234,382,-180
1,27314,-1582,1247,-1178,-7737,3581,-1578,234,382,-180
1,27321,-1582,1247,-1178,-7737,3581,-1578,234,382,-180
1,27331,-1582,1247,-1178,-7737,3581,-1578,234,382,-180
1,27340,-1487,1208,-1148,-7429,3529,-2193,232,368,-196
1,27351,-1487,1208,-1148,-7429,3529,-2193,232,368,-196
1,27361,-1394,1225,-1137,-7168,3503,-2845,232,368,-196
1,27367,-1394,1225,-1137,-7168,3503,-2845,232,368,-196
1,27378,-1374,1216,-1140,-7365,3207,-2354,232,368,-196
1,27388,-1374,1216,-1140,-7365,3207,-2354,232,368,-196
1,27397,-1426,1147,-1160,-7406,3018,-1364,232,368,-196
1,27407,-1426,1147,-1160,-7406,3018,-1364,232,368,-196
1,27417,-1532,1109,-1185,-6770,3002,-601,232,368,-196
1,27425,-1532,1109,-1185,-6770,3002,-601,232,368,-196
1,27436,-1580,1063,-1204,-6149,2712,-275,232,368,-196
1,27446,-1580,1063,-1204,-6149,2712,-275,232,368,-196
1,27456,-1595,995,-1204,-5416,2431,-137,222,366,-206
1,27465,-1595,995,-1204,-5416,2431,-137,222,366,-206
1,27471,-1595,995,-1204,-5416,2431,-137,222,366,-206
1,27482,-1578,959,-1196,-4322,1957,87,222,366,-206
1,27492,-1578,959,-1196,-4322,1957,87,222,366,-206
1,27500,-1593,988,-1214,-3006,1459,180,222,366,-206
1,27510,-1593,988,-1214,-3006,1459,180,222,366,-206
1,27517,-1561,1090,-1195,-1928,840,412,222,366,-206
1,27528,-1561,1090,-1195,-1928,840,412,222,366,-206
1,27538,-1479,1134,-1164,-1176,493,556,222,366,-206
1,27548,-1479,1134,-1164,-1176,493,556,222,366,-206
1,27556,-1488,1145,-1181,-253,628,767,222,366,-206
1,27567,-1488,1145,-1181,-253,628,767,222,366,-206
1,27577,-1492,1137,-1180,368,276,954,222,366,-206
1,27588,-1492,1137,-1180,368,276,954,222,366,-206
1,27598,-1478,1098,-1140,770,27,948,222,366,-206
1,27607,-1478,1098,-1140,770,27,948,222,366,-206
1,27617,-1504,1126,-1128,1491,346,732,222,366,-206
1,27626,-1504,1126,-1128,1491,346,732,222,366,-206
1,27635,-1504,1175,-1159,2048,419,714,222,366,-206
1,27644,-1504,1175,-1159,2048,419,714,222,366,-206
1,27654,-1461,1195,-1191,2161,213,891,222,366,-206
1,27664,-1461,1195,-1191,2161,213,891,222,366,-206
1,27674,-1445,1159,-1196,2261,255,1061,222,366,-206
1,27682,-1445,1159,-1196,2261,255,1061,222,366,-206
1,27689,-1445,1159,-1196,2261,255,1061,222,366,-206
1,27699,-1493,1131,-1158,2570,324,946,222,366,-206
1,27708,-1493,1131,-1158,2570,324,946,222,366,-206
1,27718,-1541,1129,-1130,2802,-97,846,220,366,-208
1,27728,-1541,1129,-1130,2802,-97,846,220,366,-208
1,27736,-1514,1140,-1112,3021,-499,581,220,366,-208
1,27746,-1514,1140,-1112,3021,-499,581,220,366,-208
1,27757,-1576,1187,-1099,3476,-184,477,220,366,-208
1,27765,-1576,1187,-1099,3476,-184,477,220,366,-208
1,27772,-1576,1187,-1099,3476,-184,477,220,366,-208
1,27783,-1614,1262,-1115,3778,-83,375,220,366,-208
1,27790,-1614,1262,-1115,3778,-83,375,220,366,-208
1,27798,-1588,1273,-1105,3394,-283,385,220,366,-208
1,27803,-1588,1273,-1105,3394,-283,385,220,366,-208
1,27809,-1588,1273,-1105,3394,-283,385,220,366,-208
1,27814,-1559,1223,-1105,2615,-658,513,220,366,-208
1,27821,-1559,1223,-1105,2615,-658,513,220,366,-208
1,27827,-1559,1223,-1105,2615,-658,513,220,366,-208
1,27833,-1559,1223,-1105,2615,-658,513,220,366,-208
1,27838,-1529,1163,-1079,2070,-1058,448,234,366,-218
1,27844,-1529,1163,-1079,2070,-1058,448,234,366,-218
1,27850,-1529,1163,-1079,2070,-1058,448,234,366,-218
1,27857,-1515,1150,-1017,1858,-1348,569,234,366,-218
1,27864,-1515,1150,-1017,1858,-1348,569,234,366,-218
1,27869,-1515,1150,-1017,1858,-1348,569,234,366,-218
1,27875,-1522,1136,-1017,1926,-1524,601,234,366,-218
1,27881,-1522,1136,-1017,1926,-1524,601,234,366,-218
1,27887,-1522,1136,-1017,1926,-1524,601,234,366,-218
1,27895,-1530,1129,-1070,2254,-1341,299,234,366,-218
1,27904,-1530,1129,-1070,2254,-1341,299,234,366,-218
1,27912,-1530,1129,-1070,2254,-1341,299,234,366,-218
1,27921,-1536,1161,-1108,2439,-1369,329,234,366,-218
1,27930,-1536,1161,-1108,2439,-1369,329,234,366,-218
1,27939,-1486,1192,-1093,2176,-1615,454,234,366,-218
1,27950,-1486,1192,-1093,2176,-1615,454,234,366,-218
1,27957,-1438,1195,-1054,1791,-1541,458,238,370,-216
1,27966,-1438,1195,-1054,1791,-1541,458,238,370,-216
1,27976,-1463,1138,-1064,1790,-924,-21,238,370,-216
1,27986,-1463,1138,-1064,1790,-924,-21,238,370,-216
1,27996,-1503,1163,-1085,2112,-551,-110,238,370,-216
1,28004,-1503,1163,-1085,2112,-551,-110,238,370,-216
1,28013,-1503,1163,-1085,2112,-551,-110,238,370,-216
1,28024,-1569,1106,-1103,1847,-916,710,238,370,-216
1,28035,-1548,1048,-1080,1692,-1573,1136,238,370,-216
1,28044,-1548,1048,-1080,1692,-1573,1136,238,370,-216
1,28053,-1548,1048,-1080,1692,-1573,1136,238,370,-216
1,28063,-1536,1050,-1060,2061,-1542,1124,238,370,-216
1,28070,-1536,1050,-1060,2061,-1542,1124,238,370,-216
1,28082,-1458,1163,-1052,2523,-1281,1486,246,364,-200
1,28092,-1458,1163,-1052,2523,-1281,1486,246,364,-200
1,28101,-1537,1102,-1081,2572,-1163,2281,246,364,-200
1,28111,-1537,1102,-1081,2572,-1163,2281,246,364,-200
1,28121,-1466,1147,-1089,2563,-1568,1791,246,364,-200
1,28130,-1466,1147,-1089,2563,-1568,1791,246,364,-200
1,28139,-1530,1129,-1078,2459,-1699,2320,246,364,-200
1,28149,-1530,1129,-1078,2459,-1699,2320,246,364,-200
1,28156,-1481,1107,-1081,2234,-1157,1421,246,364,-200
1,28162,-1481,1107,-1081,2234,-1157,1421,246,364,-200
1,28170,-1481,1107,-1081,2234,-1157,1421,246,364,-200
1,28180,-1506,1133,-1099,2241,-332,487,246,364,-200
1,28187,-1506,1133,-1099,2241,-332,487,246,364,-200
1,28196,-1478,1204,-1102,1912,-285,37,246,364,-200
1,28205,-1478,1204,-1102,1912,-285,37,246,364,-200
1,28214,-1495,1166,-1094,1456,-558,42,252,368,-200
1,28222,-1495,1166,-1094,1456,-558,42,252,368,-200
1,28232,-1495,1166,-1094,1456,-558,42,252,368,-200
1,28241,-1484,1156,-1101,1298,-539,-84,252,368,-200
1,28253,-1484,1156,-1101,1298,-539,-84,252,368,-200
1,28262,-1487,1125,-1118,1146,-30,-256,252,368,-200
1,28271,-1487,1125,-1118,1146,-30,-256,252,368,-200
1,28281,-1474,1146,-1119,1005,221,-308,252,368,-200
1,28289,-1474,1146,-1119,1005,221,-308,252,368,-200
1,28300,-1503,1082,-1130,961,146,55,252,368,-200
1,28310,-1503,1082,-1130,961,146,55,252,368,-200
1,28317,-1503,1040,-1135,853,285,-629,252,368,-200
1,28327,-1503,1040,-1135,853,285,-629,252,368,-200
1,28338,-1529,1056,-1140,1024,798,-1369,253,375,-199
1,28348,-1529,1056,-1140,1024,798,-1369,253,375,-199
1,28355,-1540,1032,-1166,905,1125,-1544,253,375,-199
1,28365,-1540,1032,-1166,905,1125,-1544,253,375,-199
1,28375,-1557,983,-1198,907,1184,-1766,253,375,-199
1,28385,-1557,983,-1198,907,1184,-1766,253,375,-199
1,28392,-1557,983,-1198,907,1184,-1766,253,375,-199
1,28401,-1505,1015,-1228,935,939,-1825,253,375,-199
1,28411,-1505,1015,-1228,935,939,-1825,253,375,-199
1,28420,-1431,1069,-1227,461,987,-2084,253,375,-199
1,28428,-1431,1069,-1227,461,987,-2084,253,375,-199
1,28437,-1384,1043,-1232,-258,1349,-2324,253,375,-199
1,28443,-1384,1043,-1232,-258,1349,-2324,253,375,-199
1,28452,-1384,1043,-1232,-258,1349,-2324,253,375,-199
1,28463,-1457,1008,-1234,-510,1526,-2071,258,364,-196
1,28472,-1457,1008,-1234,-510,1526,-2071,258,364,-196
1,28483,-1511,961,-1236,-755,1341,-1938,258,364,-196
1,28490,-1511,961,-1236,-755,1341,-1938,258,364,-196
1,28502,-1537,957,-1227,-997,1217,-1611,258,364,-196
1,28511,-1537,957,-1227,-997,1217,-1611,258,364,-196
1,28520,-1518,1017,-1256,-1423,1125,-1022,258,364,-196
1,28528,-1518,1017,-1256,-1423,1125,-1022,258,364,-196
1,28537,-1489,1058,-1288,-2136,1380,-844,258,364,-196
1,28546,-1489,1058,-1288,-2136,1380,-844,258,364,-196
1,28554,-1489,1058,-1288,-2136,1380,-844,258,364,-196
1,28561,-1495,1027,-1305,-2689,1410,-545,258,364,-196
1,28570,-1495,1027,-1305,-2689,1410,-545,258,364,-196
1,28580,-1510,969,-1289,-2960,1165,-348,269,361,-205
1,28593,-1510,969,-1289,-2960,1165,-348,269,361,-205
1,28602,-1545,923,-1303,-3182,890,-29,269,361,-205
1,28608,-1545,923,-1303,-3182,890,-29,269,361,-205
1,28617,-1556,908,-1299,-3110,598,51,269,361,-205
1,28626,-1556,908,-1299,-3110,598,51,269,361,-205
1,28637,-1529,927,-1292,-2763,402,28,269,361,-205
1,28644,-1529,927,-1292,-2763,402,28,269,361,-205
1,28653,-1529,927,-1292,-2763,402,28,269,361,-205
1,28660,-1471,958,-1317,-2675,260,16,269,361,-205
1,28669,-1471,958,-1317,-2675,260,16,269,361,-205
1,28679,-1437,953,-1326,-2726,193,427,269,361,-205
1,28689,-1437,953,-1326,-2726,193,427,269,361,-205
1,28697,-1423,920,-1316,-2685,88,518,269,361,-205
1,28705,-1423,920,-1316,-2685,88,518,269,361,-205
1,28715,-1453,892,-1309,-2284,-13,699,256,362,-206
1,28723,-1453,892,-1309,-2284,-13,699,256,362,-206
1,28732,-1453,892,-1309,-2284,-13,699,256,362,-206
1,28741,-1485,912,-1323,-1898,-72,596,256,362,-206
1,28750,-1485,912,-1323,-1898,-72,596,256,362,-206
1,28759,-1531,990,-1347,-1580,-27,715,256,362,-206
1,28768,-1531,990,-1347,-1580,-27,715,256,362,-206
1,28775,-1540,1013,-1372,-1656,-108,892,256,362,-206
1,28784,-1540,1013,-1372,-1656,-108,892,256,362,-206
1,28794,-1515,1021,-1383,-1774,-233,762,256,362,-206
1,28801,-1515,1021,-1383,-1774,-233,762,256,362,-206
1,28807,-1515,1021,-1383,-1774,-233,762,256,362,-206
1,28813,-1515,1021,-1383,-1774,-233,762,256,362,-206
1,28818,-1510,1006,-1385,-1569,-265,835,256,362,-206
1,28825,-1510,1006,-1385,-1569,-265,835,256,362,-206
1,28831,-1510,1006,-1385,-1569,-265,835,256,362,-206
1,28837,-1502,962,-1348,-1562,-407,772,252,364,-204
1,28844,-1502,962,-1348,-1562,-407,772,252,364,-204
1,28849,-1502,962,-1348,-1562,-407,772,252,364,-204
1,28855,-1493,946,-1326,-1596,-548,484,252,364,-204
1,28861,-1493,946,-1326,-1596,-548,484,252,364,-204
1,28867,-1493,946,-1326,-1596,-548,484,252,364,-204
1,28872,-1493,946,-1326,-1596,-548,484,252,364,-204
1,28879,-1509,967,-1313,-1321,-723,844,252,364,-204
1,28884,-1509,967,-1313,-1321,-723,844,252,364,-204
1,28892,-1509,967,-1313,-1321,-723,844,252,364,-204
1,28899,-1486,992,-1305,-1146,-1002,1495,252,364,-204
1,28907,-1486,992,-1305,-1146,-1002,1495,252,364,-204
1,28914,-1483,985,-1290,-1338,-1045,1563,252,364,-204
1,28920,-1483,985,-1290,-1338,-1045,1563,252,364,-204
1,28928,-1483,985,-1290,-1338,-1045,1563,252,364,-204
1,28934,-1531,1006,-1289,-1390,-996,1171,252,364,-204
1,28941,-1531,1006,-1289,-1390,-996,1171,252,364,-204
1,28950,-1531,1006,-1289,-1390,-996,1171,252,364,-204
1,28959,-1582,1039,-1286,-1216,-1178,1047,257,363,-213
1,28968,-1582,1039,-1286,-1216,-1178,1047,257,363,-213
1,28976,-1618,1089,-1292,-1183,-1563,1221,257,363,-213
1,28986,-1618,1089,-1292,-1183,-1563,1221,257,363,-213
1,28992,-1618,1089,-1292,-1183,-1563,1221,257,363,-213
1,29002,-1637,1123,-1282,-1493,-2078,1722,257,363,-213
1,29012,-1637,1123,-1282,-1493,-2078,1722,257,363,-213
1,29022,-1556,1103,-1238,-1985,-2391,1418,257,363,-213
1,29031,-1556,1103,-1238,-1985,-2391,1418,257,363,-213
1,29039,-1440,1142,-1199,-1869,-2220,999,257,363,-213
1,29046,-1440,1142,-1199,-1869,-2220,999,257,363,-213
1,29057,-1398,1131,-1186,-1759,-1750,741,257,363,-213
1,29064,-1398,1131,-1186,-1759,-1750,741,257,363,-213
1,29074,-1398,1131,-1186,-1759,-1750,741,257,363,-213
1,29083,-1414,1078,-1185,-1817,-1553,690,250,366,-206
1,29092,-1414,1078,-1185,-1817,-1553,690,250,366,-206
1,29102,-1439,998,-1185,-1826,-1597,768,250,366,-206
1,29112,-1439,998,-1185,-1826,-1597,768,250,366,-206
1,29121,-1502,959,-1169,-1572,-1719,846,250,366,-206
1,29127,-1502,959,-1169,-1572,-1719,846,250,366,-206
1,29137,-1549,959,-1147,-1194,-2120,842,250,366,-206
1,29144,-1549,959,-1147,-1194,-2120,842,250,366,-206
1,29153,-1549,959,-1147,-1194,-2120,842,250,366,-206
1,29162,-1570,1055,-1158,-804,-2520,598,250,366,-206
1,29172,-1570,1055,-1158,-804,-2520,598,250,366,-206
1,29182,-1568,1153,-1174,-421,-2610,804,250,366,-206
1,29191,-1568,1153,-1174,-421,-2610,804,250,366,-206
1,29198,-1568,1153,-1174,-421,-2610,804,244,372,-208
1,29207,-1568,1153,-1174,-421,-2610,804,244,372,-208
1,29214,-1511,1106,-1171,-765,-2481,1233,244,372,-208
1,29223,-1511,1106,-1171,-765,-2481,1233,244,372,-208
1,29233,-1511,1106,-1171,-765,-2481,1233,244,372,-208
1,29242,-1480,1045,-1151,-846,-2529,1284,244,372,-208
1,29252,-1480,1045,-1151,-846,-2529,1284,244,372,-208
1,29260,-1482,1055,-1124,-551,-2703,1303,244,372,-208
1,29270,-1482,1055,-1124,-551,-2703,1303,244,372,-208
1,29278,-1466,1077,-1120,-207,-2773,1266,244,372,-208
1,29287,-1466,1077,-1120,-207,-2773,1266,244,372,-208
1,29296,-1450,1116,-1106,83,-2534,1299,244,372,-208
1,29305,-1450,1116,-1106,83,-2534,1299,244,372,-208
1,29312,-1450,1116,-1106,83,-2534,1299,244,372,-208
1,29320,-1474,1134,-1088,192,-2244,1104,244,372,-208
1,29330,-1474,1134,-1088,192,-2244,1104,244,372,-208
1,29338,-1507,1185,-1107,457,-2093,977,244,372,-186
1,29344,-1507,1185,-1107,457,-2093,977,244,372,-186
1,29355,-1506,1206,-1119,603,-2082,1024,244,372,-186
1,29361,-1506,1206,-1119,603,-2082,1024,244,372,-186
1,29370,-1506,1206,-1119,603,-2082,1024,244,372,-186
1,29379,-1447,1214,-1111,496,-2149,1111,244,372,-186
1,29388,-1447,1214,-1111,496,-2149,1111,244,372,-186
1,29394,-1401,1189,-1086,208,-2194,1221,244,372,-186
1,29404,-1401,1189,-1086,208,-2194,1221,244,372,-186
1,29411,-1401,1189,-1086,208,-2194,1221,244,372,-186
1,29421,-1433,1142,-1084,-31,-2129,1204,244,372,-186
1,29431,-1433,1142,-1084,-31,-2129,1204,244,372,-186
1,29441,-1529,1109,-1086,61,-1988,1028,244,372,-186
1,29450,-1529,1109,-1086,61,-1988,1028,244,372,-186
1,29459,-1576,1153,-1091,545,-2056,831,241,375,-177
1,29467,-1576,1153,-1091,545,-2056,831,241,375,-177
1,29475,-1510,1231,-1099,971,-2290,625,241,375,-177
1,29481,-1510,1231,-1099,971,-2290,625,241,375,-177
1,29491,-1510,1231,-1099,971,-2290,625,241,375,-177
1,29501,-1376,1226,-1078,788,-2666,767,241,375,-177
1,29510,-1376,1226,-1078,788,-2666,767,241,375,-177
1,29519,-1286,1175,-1031,425,-2567,1051,241,375,-177
1,29529,-1286,1175,-1031,425,-2567,1051,241,375,-177
1,29537,-1358,1142,-1050,372,-1845,1208,241,375,-177
1,29546,-1358,1142,-1050,372,-1845,1208,241,375,-177
1,29555,-1501,1113,-1063,676,-976,871,241,375,-177
1,29565,-1501,1113,-1063,676,-976,871,241,375,-177
1,29574,-1625,1049,-1026,1229,-410,127,241,375,-177
1,29581,-1625,1049,-1026,1229,-410,127,242,376,-174
1,29590,-1625,1049,-1026,1229,-410,127,242,376,-174
1,29599,-1634,1013,-1007,2010,-378,-472,242,376,-174
1,29608,-1634,1013,-1007,2010,-378,-472,242,376,-174
1,29616,-1501,1058,-963,2760,-974,-453,242,376,-174
1,29624,-1501,1058,-963,2760,-974,-453,242,376,-174
1,29630,-1501,1058,-963,2760,-974,-453,242,376,-174
1,29639,-1380,1177,-918,3025,-1599,169,242,376,-174
1,29649,-1380,1177,-918,3025,-1599,169,242,376,-174
1,29658,-1404,1275,-903,2625,-1519,584,242,376,-174
1,29667,-1404,1275,-903,2625,-1519,584,242,376,-174
1,29677,-1554,1326,-936,1868,-938,720,242,376,-174
1,29686,-1554,1326,-936,1868,-938,720,242,376,-174
1,29696,-1730,1323,-956,1058,-477,777,250,376,-176
1,29705,-1730,1323,-956,1058,-477,777,250,376,-176
1,29715,-1812,1249,-983,625,-468,652,250,376,-176
1,29724,-1812,1249,-983,625,-468,652,250,376,-176
1,29735,-1737,1206,-1003,729,-833,582,250,376,-176
1,29744,-1737,1206,-1003,729,-833,582,250,376,-176
1,29750,-1737,1206,-1003,729,-833,582,250,376,-176
1,29759,-1538,1236,-965,1019,-1345,591,250,376,-176
1,29769,-1538,1236,-965,1019,-1345,591,250,376,-176
1,29777,-1369,1291,-889,1075,-1306,495,250,376,-176
1,29787,-1369,1291,-889,1075,-1306,495,250,376,-176
1,29796,-1307,1333,-831,586,-790,713,250,376,-176
1,29801,-1307,1333,-831,586,-790,713,250,376,-176
1,29807,-1307,1333,-831,586,-790,713,250,376,-176
1,29813,-1307,1333,-831,586,-790,713,250,376,-176
1,29819,-1363,1329,-836,-448,-109,1073,250,376,-176
1,29825,-1363,1329,-836,-448,-109,1073,250,376,-176
1,29831,-1363,1329,-836,-448,-109,1073,250,376,-176
1,29837,-1551,1264,-870,-1554,498,1193,250,380,-170
1,29843,-1551,1264,-870,-1554,498,1193,250,380,-170
1,29849,-1551,1264,-870,-1554,498,1193,250,380,-170
1,29855,-1756,1149,-923,-2162,685,1028,250,380,-170
1,29860,-1756,1149,-923,-2162,685,1028,250,380,-170
1,29867,-1756,1149,-923,-2162,685,1028,250,380,-170
1,29872,-1756,1149,-923,-2162,685,1028,250,380,-170
1,29878,-1875,1089,-972,-2030,266,752,250,380,-170
1,29884,-1875,1089,-972,-2030,266,752,250,380,-170
1,29890,-1875,1089,-972,-2030,266,752,250,380,-170
1,29896,-1792,1120,-974,-1583,-683,591,250,380,-170
1,29903,-1792,1120,-974,-1583,-683,591,250,380,-170
1,29911,-1792,1120,-974,-1583,-683,591,250,380,-170
1,29917,-1590,1196,-926,-1393,-1531,494,250,380,-170
1,29923,-1590,1196,-926,-1393,-1531,494,250,380,-170
1,29931,-1590,1196,-926,-1393,-1531,494,250,380,-170
1,29939,-1433,1246,-872,-1459,-1657,329,250,380,-170
1,29945,-1433,1246,-872,-1459,-1657,329,250,380,-170
1,29954,-1433,1246,-872,-1459,-1657,329,250,380,-170
1,29964,-1380,1251,-857,-1815,-1198,288,246,372,-166
1,29973,-1380,1251,-857,-1815,-1198,288,246,372,-166
1,29981,-1444,1226,-895,-2259,-785,515,246,372,-166
1,29992,-1444,1226,-895,-2259,-785,515,246,372,-166
1,30002,-1505,1212,-898,-2480,-835,540,246,372,-166
1,30011,-1505,1212,-898,-2480,-835,540,246,372,-166
1,30018,-1554,1245,-899,-2363,-957,539,246,372,-166
1,30027,-1554,1245,-899,-2363,-957,539,246,372,-166
1,30036,-1548,1269,-904,-2329,-875,453,246,372,-166
1,30046,-1548,1269,-904,-2329,-875,453,246,372,-166
1,30054,-1548,1269,-904,-2329,-875,453,246,372,-166
1,30062,-1510,1338,-894,-2358,-511,304,246,372,-166
1,30069,-1510,1338,-894,-2358,-511,304,246,372,-166
1,30081,-1477,1374,-863,-2850,-85,656,244,374,-164
1,30091,-1477,1374,-863,-2850,-85,656,244,374,-164
1,30101,-1557,1281,-876,-3757,189,1125,244,374,-164
1,30111,-1557,1281,-876,-3757,189,1125,244,374,-164
1,30118,-1717,1140,-935,-4460,567,1583,244,374,-164
1,30129,-1717,1140,-935,-4460,567,1583,244,374,-164
1,30136,-1844,1071,-1031,-4832,344,2029,244,374,-164
1,30144,-1844,1071,-1031,-4832,344,2029,244,374,-164
1,30153,-1844,1071,-1031,-4832,344,2029,244,374,-164
1,30162,-1749,1172,-1035,-4544,-1239,2288,244,374,-164
1,30169,-1749,1172,-1035,-4544,-1239,2288,244,374,-164
1,30179,-1464,1316,-927,-3786,-2091,1560,244,374,-164
1,30186,-1464,1316,-927,-3786,-2091,1560,244,374,-164
1,30194,-1367,1319,-924,-3524,-1260,992,236,374,-164
1,30202,-1367,1319,-924,-3524,-1260,992,236,374,-164
1,30212,-1367,1319,-924,-3524,-1260,992,236,374,-164
1,30221,-1427,1266,-943,-3512,-903,1193,236,374,-164
1,30230,-1427,1266,-943,-3512,-903,1193,236,374,-164
1,30239,-1466,1242,-956,-3162,-1084,1098,236,374,-164
1,30245,-1466,1242,-956,-3162,-1084,1098,236,374,-164
1,30255,-1526,1197,-1007,-2431,-869,748,236,374,-164
1,30265,-1526,1197,-1007,-2431,-869,748,236,374,-164
1,30274,-1526,1197,-1007,-2431,-869,748,236,374,-164
1,30281,-1635,1250,-1013,-1739,-957,736,236,374,-164
1,30291,-1635,1250,-1013,-1739,-957,736,236,374,-164
1,30299,-1663,1328,-996,-1688,-1853,736,236,374,-164
1,30309,-1663,1328,-996,-1688,-1853,736,236,374,-164
1,30316,-1624,1361,-991,-1442,-2111,303,236,374,-164
1,30325,-1624,1361,-991,-1442,-2111,303,236,374,-164
1,30332,-1624,1361,-991,-1442,-2111,303,236,374,-164
1,30342,-1570,1368,-981,-1017,-1647,-184,233,381,-159
1,30352,-1570,1368,-981,-1017,-1647,-184,233,381,-159
1,30362,-1516,1335,-980,-943,-1564,-525,233,381,-159
1,30370,-1516,1335,-980,-943,-1564,-525,233,381,-159
1,30380,-1519,1298,-953,-1026,-1826,-810,233,381,-159
1,30387,-1519,1298,-953,-1026,-1826,-810,233,381,-159
1,30396,-1534,1298,-940,-1217,-2187,-1044,233,381,-159
1,30403,-1534,1298,-940,-1217,-2187,-1044,233,381,-159
1,30413,-1534,1298,-940,-1217,-2187,-1044,233,381,-159
1,30424,-1453,1364,-928,-1027,-2199,-1616,233,381,-159
1,30434,-1372,1392,-914,-614,-1445,-2363,233,381,-159
1,30443,-1372,1392,-914,-614,-1445,-2363,233,381,-159
1,30450,-1372,1392,-914,-614,-1445,-2363,233,381,-159
1,30459,-1370,1345,-914,-544,-754,-2730,238,384,-152
1,30468,-1370,1345,-914,-544,-754,-2730,238,384,-152
1,30478,-1305,1241,-902,-908,-509,-2660,238,384,-152
1,30487,-1305,1241,-902,-908,-509,-2660,238,384,-152
1,30495,-1677,1120,-871,-1282,-702,-1515,238,384,-152
1,30502,-1677,1120,-871,-1282,-702,-1515,238,384,-152
1,30512,-1677,1120,-871,-1282,-702,-1515,238,384,-152
1,30521,-1424,958,-815,-309,-771,-3800,238,384,-152
1,30530,-1424,958,-815,-309,-771,-3800,238,384,-152
1,30537,-1686,1115,-803,698,1375,-1687,238,384,-152
1,30546,-1686,1115,-803,698,1375,-1687,238,384,-152
1,30554,-1686,1115,-803,698,1375,-1687,238,384,-152
1,30563,-1717,1126,-779,201,-281,-563,238,384,-152
1,30572,-1717,1126,-779,201,-281,-563,238,384,-152
1,30582,-1648,1053,-789,51,-1264,-949,242,386,-150
1,30592,-1648,1053,-789,51,-1264,-949,242,386,-150
1,30601,-1706,1097,-798,657,-676,-343,242,386,-150
1,30611,-1706,1097,-798,657,-676,-343,242,386,-150
1,30618,-1769,1230,-777,607,-904,154,242,386,-150
1,30627,-1769,1230,-777,607,-904,154,242,386,-150
1,30638,-1576,1287,-706,223,-1893,-170,242,386,-150
1,30646,-1576,1287,-706,223,-1893,-170,242,386,-150
1,30655,-1518,1302,-683,320,-1525,-231,242,386,-150
1,30662,-1518,1302,-683,320,-1525,-231,242,386,-150
1,30668,-1518,1302,-683,320,-1525,-231,242,386,-150
1,30678,-1521,1333,-687,515,-1185,-494,242,386,-150
1,30687,-1521,1333,-687,515,-1185,-494,242,386,-150
1,30696,-1511,1237,-729,-471,-1559,-611,246,380,-156
1,30705,-1511,1237,-729,-471,-1559,-611,246,380,-156
1,30713,-1511,1237,-729,-471,-1559,-611,246,380,-156
1,30722,-1580,1100,-749,-1477,-2359,-634,246,380,-156
1,30730,-1580,1100,-749,-1477,-2359,-634,246,380,-156
1,30739,-1506,1067,-661,-1292,-2784,-1150,246,380,-156
1,30748,-1506,1067,-661,-1292,-2784,-1150,246,380,-156
1,30755,-1414,1084,-616,-198,-1565,-1996,246,380,-156
1,30765,-1414,1084,-616,-198,-1565,-1996,246,380,-156
1,30772,-1414,1084,-616,-198,-1565,-1996,246,380,-156
1,30781,-1441,1177,-617,500,-122,-1631,246,380,-156
1,30789,-1441,1177,-617,500,-122,-1631,246,380,-156
1,30797,-1549,1244,-661,289,458,-1072,246,380,-156
1,30803,-1549,1244,-661,289,458,-1072,246,380,-156
1,30810,-1549,1244,-661,289,458,-1072,246,380,-156
1,30815,-1657,1262,-724,-256,-344,-1068,253,377,-147
1,30821,-1657,1262,-724,-256,-344,-1068,253,377,-147
1,30827,-1657,1262,-724,-256,-344,-1068,253,377,-147
1,30833,-1657,1262,-724,-256,-344,-1068,253,377,-147
1,30838,-1588,1120,-715,-1140,-1607,-1381,253,377,-147
1,30844,-1588,1120,-715,-1140,-1607,-1381,253,377,-147
1,30851,-1588,1120,-715,-1140,-1607,-1381,253,377,-147
1,30858,-1619,1067,-661,-1202,-579,-1386,253,377,-147
1,30864,-1619,1067,-661,-1202,-579,-1386,253,377,-147
1,30870,-1619,1067,-661,-1202,-579,-1386,253,377,-147
1,30876,-1657,1156,-611,-1408,-828,-483,253,377,-147
1,30881,-1657,1156,-611,-1408,-828,-483,253,377,-147
1,30888,-1657,1156,-611,-1408,-828,-483,253,377,-147
1,30897,-1591,1156,-582,-2197,-2689,246,253,377,-147
1,30906,-1591,1156,-582,-2197,-2689,246,253,377,-147
1,30915,-1586,1134,-585,-2062,-2839,-191,253,377,-147
1,30925,-1586,1134,-585,-2062,-2839,-191,253,377,-147
1,30934,-1586,1134,-585,-2062,-2839,-191,253,377,-147
1,30943,-1628,1155,-579,-1527,-2158,-660,253,377,-147
1,30950,-1628,1155,-579,-1527,-2158,-660,253,377,-147
1,30958,-1595,1160,-567,-1804,-2326,-708,251,379,-141
1,30968,-1595,1160,-567,-1804,-2326,-708,251,379,-141
1,30978,-1577,1147,-532,-2525,-2658,-477,251,379,-141
1,30986,-1577,1147,-532,-2525,-2658,-477,251,379,-141
1,30995,-1480,1108,-524,-2897,-2767,-816,251,379,-141
1,31003,-1480,1108,-524,-2897,-2767,-816,251,379,-141
1,31012,-1480,1108,-524,-2897,-2767,-816,251,379,-141
1,31023,-1518,1141,-508,-2503,-1258,-1342,251,379,-141
1,31032,-1518,1141,-508,-2503,-1258,-1342,251,379,-141
1,31038,-1546,1160,-512,-2674,-950,-194,251,379,-141
1,31047,-1546,1160,-512,-2674,-950,-194,251,379,-141
1,31053,-1546,1160,-512,-2674,-950,-194,251,379,-141
1,31064,-1372,1030,-515,-3365,-1139,-219,251,379,-141
1,31074,-1372,1030,-515,-3365,-1139,-219,251,379,-141
1,31081,-1579,1199,-433,-2462,1510,-1074,250,378,-144
1,31090,-1579,1199,-433,-2462,1510,-1074,250,378,-144
1,31099,-1543,1278,-397,-3457,197,-752,250,378,-144
1,31107,-1543,1278,-397,-3457,197,-752,250,378,-144
1,31116,-1500,1154,-352,-5618,-2206,-1637,250,378,-144
1,31124,-1500,1154,-352,-5618,-2206,-1637,250,378,-144
1,31133,-1500,1154,-352,-5618,-2206,-1637,250,378,-144
1,31142,-1482,1053,-361,-6782,-3036,-3503,250,378,-144
1,31152,-1482,1053,-361,-6782,-3036,-3503,250,378,-144
1,31160,-1562,1102,-378,-6503,-1667,-3686,250,378,-144
1,31169,-1562,1102,-378,-6503,-1667,-3686,250,378,-144
1,31178,-1524,1182,-352,-6281,427,-1866,250,378,-144
1,31187,-1524,1182,-352,-6281,427,-1866,250,378,-144
1,31197,-1448,1144,-339,-7033,2225,1118,258,376,-142
1,31204,-1448,1144,-339,-7033,2225,1118,258,376,-142
1,31213,-1448,1144,-339,-7033,2225,1118,258,376,-142
1,31222,-1348,1033,-391,-7512,4554,2272,258,376,-142
1,31232,-1348,1033,-391,-7512,4554,2272,258,376,-142
1,31238,-1642,1119,-403,-6723,7477,1331,258,376,-142
1,31248,-1642,1119,-403,-6723,7477,1331,258,376,-142
1,31255,-1695,1026,-453,-7947,5534,2489,258,376,-142
1,31264,-1695,1026,-453,-7947,5534,2489,258,376,-142
1,31275,-1695,1026,-453,-7947,5534,2489,258,376,-142
1,31282,-1543,951,-494,-8382,2996,1633,258,376,-142
1,31292,-1543,951,-494,-8382,2996,1633,258,376,-142
1,31301,-1507,1008,-514,-7688,3513,852,258,376,-142
1,31308,-1507,1008,-514,-7688,3513,852,258,376,-142
1,31318,-1620,1084,-600,-7226,4732,331,242,376,-164
1,31325,-1620,1084,-600,-7226,4732,331,242,376,-164
1,31334,-1620,1084,-600,-7226,4732,331,242,376,-164
1,31343,-1680,1006,-749,-7940,4143,230,242,376,-164
1,31352,-1680,1006,-749,-7940,4143,230,242,376,-164
1,31362,-1801,930,-817,-7903,4302,-96,242,376,-164
1,31371,-1801,930,-817,-7903,4302,-96,242,376,-164
1,31380,-1980,1015,-942,-6682,4937,-313,242,376,-164
1,31389,-1980,1015,-942,-6682,4937,-313,242,376,-164
1,31396,-1827,1141,-1123,-5615,4093,-301,242,376,-164
1,31406,-1827,1141,-1123,-5615,4093,-301,242,376,-164
1,31415,-1474,1319,-1008,-5895,1869,-249,242,376,-164
1,31422,-1474,1319,-1008,-5895,1869,-249,242,376,-164
1,31431,-1474,1319,-1008,-5895,1869,-249,242,376,-164
1,31440,-1240,1264,-774,-7579,22,-574,242,376,-164
1,31450,-1240,1264,-774,-7579,22,-574,242,376,-164
1,31456,-1215,1228,-672,-7726,2274,-522,241,375,-173
1,31465,-1215,1228,-672,-7726,2274,-522,241,375,-173
1,31472,-1215,1228,-672,-7726,2274,-522,241,375,-173
1,31481,-1218,1197,-743,-7451,3729,-669,241,375,-173
1,31492,-1218,1197,-743,-7451,3729,-669,241,375,-173
1,31501,-1335,1347,-875,-6917,4443,-324,241,375,-173
1,31510,-1335,1347,-875,-6917,4443,-324,241,375,-173
1,31519,-1460,1594,-1043,-6961,4898,223,241,375,-173
1,31526,-1460,1594,-1043,-6961,4898,223,241,375,-173
1,31537,-1526,1623,-1218,-8389,5485,-29,241,375,-173
1,31543,-1526,1623,-1218,-8389,5485,-29,241,375,-173
1,31552,-1526,1623,-1218,-8389,5485,-29,241,375,-173
1,31561,-1546,1470,-1340,-10455,5709,-1083,241,375,-173
1,31570,-1546,1470,-1340,-10455,5709,-1083,241,375,-173
1,31580,-1581,1271,-1341,-11857,5530,-2184,234,368,-196
1,31588,-1581,1271,-1341,-11857,5530,-2184,234,368,-196
1,31595,-1642,1142,-1307,-12051,4966,-2522,234,368,-196
1,31605,-1642,1142,-1307,-12051,4966,-2522,234,368,-196
1,31613,-1642,1142,-1307,-12051,4966,-2522,234,368,-196
1,31624,-1589,1176,-1236,-11244,4196,-2264,234,368,-196
1,31633,-1589,1176,-1236,-11244,4196,-2264,234,368,-196
1,31640,-1483,1293,-1168,-10255,4354,-2085,234,368,-196
1,31650,-1483,1293,-1168,-10255,4354,-2085,234,368,-196
1,31661,-1467,1349,-1172,-10016,4835,-1842,234,368,-196
1,31669,-1467,1349,-1172,-10016,4835,-1842,234,368,-196
1,31676,-1444,1349,-1185,-9960,4790,-1667,234,368,-196
1,31685,-1444,1349,-1185,-9960,4790,-1667,234,368,-196
1,31692,-1444,1349,-1185,-9960,4790,-1667,234,368,-196
1,31702,-1414,1411,-1166,-9332,4999,-2010,217,361,-211
1,31711,-1414,1411,-1166,-9332,4999,-2010,217,361,-211
1,31720,-1421,1456,-1137,-9119,5437,-2107,217,361,-211
1,31727,-1421,1456,-1137,-9119,5437,-2107,217,361,-211
1,31736,-1357,1595,-1126,-9507,5599,-1775,217,361,-211
1,31744,-1357,1595,-1126,-9507,5599,-1775,217,361,-211
1,31753,-1357,1595,-1126,-9507,5599,-1775,217,361,-211
1,31762,-1360,1731,-1192,-10308,5693,-1426,217,361,-211
1,31771,-1360,1731,-1192,-10308,5693,-1426,217,361,-211
1,31780,-1459,1552,-1290,-11431,5543,-802,217,361,-211
1,31791,-1459,1552,-1290,-11431,5543,-802,217,361,-211
1,31797,-1570,1233,-1371,-11755,5023,210,217,361,-211
1,31803,-1570,1233,-1371,-11755,5023,210,217,361,-211
1,31809,-1570,1233,-1371,-11755,5023,210,217,361,-211
1,31815,-1587,1095,-1427,-11040,4467,1120,202,350,-232
1,31821,-1587,1095,-1427,-11040,4467,1120,202,350,-232
1,31827,-1587,1095,-1427,-11040,4467,1120,202,350,-232
1,31833,-1587,1095,-1427,-11040,4467,1120,202,350,-232
1,31839,-1667,1059,-1458,-10872,3417,1849,202,350,-232
1,31845,-1667,1059,-1458,-10872,3417,1849,202,350,-232
1,31850,-1667,1059,-1458,-10872,3417,1849,202,350,-232
1,31856,-1514,1228,-1283,-10820,1185,2307,202,350,-232
1,31862,-1514,1228,-1283,-10820,1185,2307,202,350,-232
1,31867,-1514,1228,-1283,-10820,1185,2307,202,350,-232
1,31874,-1514,1228,-1283,-10820,1185,2307,202,350,-232
1,31880,-1224,1471,-1091,-10049,604,1359,202,350,-232
1,31886,-1224,1471,-1091,-10049,604,1359,202,350,-232
1,31892,-1224,1471,-1091,-10049,604,1359,202,350,-232
1,31899,-1220,1584,-1163,-8991,1921,-56,202,350,-232
1,31906,-1220,1584,-1163,-8991,1921,-56,202,350,-232
1,31913,-1220,1584,-1163,-8991,1921,-56,202,350,-232
1,31921,-1391,1537,-1283,-8278,2467,-1061,202,350,-232
1,31927,-1391,1537,-1283,-8278,2467,-1061,202,350,-232
1,31935,-1391,1537,-1283,-8278,2467,-1061,202,350,-232
1,31941,-1497,1324,-1343,-8106,1396,-1509,202,350,-232
1,31951,-1497,1324,-1343,-8106,1396,-1509,202,350,-232
1,31961,-1538,1178,-1305,-7545,753,-1645,175,333,-237
1,31971,-1538,1178,-1305,-7545,753,-1645,175,333,-237
1,31981,-1550,1145,-1240,-6712,573,-1093,175,333,-237
1,31990,-1550,1145,-1240,-6712,573,-1093,175,333,-237
1,32001,-1486,1279,-1183,-5624,299,-508,175,333,-237
1,32009,-1486,1279,-1183,-5624,299,-508,175,333,-237
1,32019,-1440,1400,-1203,-5306,426,-518,175,333,-237
1,32029,-1440,1400,-1203,-5306,426,-518,175,333,-237
1,32036,-1491,1468,-1295,-5570,862,-609,175,333,-237
1,32046,-1491,1468,-1295,-5570,862,-609,175,333,-237
1,32055,-1534,1461,-1306,-5631,691,-698,175,333,-237
1,32062,-1534,1461,-1306,-5631,691,-698,175,333,-237
1,32071,-1534,1461,-1306,-5631,691,-698,175,333,-237
1,32080,-1466,1394,-1193,-5250,-109,-921,169,343,-237
1,32091,-1466,1394,-1193,-5250,-109,-921,169,343,-237
1,32100,-1402,1345,-1125,-4777,-390,-767,169,343,-237
1,32108,-1402,1345,-1125,-4777,-390,-767,169,343,-237
1,32117,-1442,1328,-1150,-4280,-179,-378,169,343,-237
1,32129,-1442,1328,-1150,-4280,-179,-378,169,343,-237
1,32138,-1498,1333,-1191,-3650,-583,-441,169,343,-237
1,32146,-1498,1333,-1191,-3650,-583,-441,169,343,-237
1,32155,-1481,1313,-1181,-3147,-1126,-937,169,343,-237
1,32162,-1481,1313,-1181,-3147,-1126,-937,169,343,-237
1,32173,-1481,1313,-1181,-3147,-1126,-937,169,343,-237
1,32182,-1396,1320,-1119,-2715,-1186,-1486,169,343,-237
1,32192,-1396,1320,-1119,-2715,-1186,-1486,169,343,-237
1,32201,-1326,1380,-1058,-2407,-732,-1591,169,347,-243
1,32209,-1326,1380,-1058,-2407,-732,-1591,169,347,-243
1,32220,-1307,1398,-1078,-2281,-179,-1267,169,347,-243
1,32227,-1307,1398,-1078,-2281,-179,-1267,169,347,-243
1,32237,-1341,1400,-1136,-2236,27,-764,169,347,-243
1,32246,-1341,1400,-1136,-2236,27,-764,169,347,-243
1,32256,-1435,1366,-1150,-2332,-66,-335,169,347,-243
1,32265,-1435,1366,-1150,-2332,-66,-335,169,347,-243
1,32274,-1435,1366,-1150,-2332,-66,-335,169,347,-243
1,32280,-1510,1374,-1158,-2218,-285,-289,169,347,-243
1,32289,-1510,1374,-1158,-2218,-285,-289,169,347,-243
1,32295,-1490,1400,-1166,-2113,-377,-361,169,347,-243
1,32306,-1490,1400,-1166,-2113,-377,-361,169,347,-243
1,32316,-1384,1419,-1131,-2204,-334,-411,168,334,-234
1,32324,-1384,1419,-1131,-2204,-334,-411,168,334,-234
1,32332,-1384,1419,-1131,-2204,-334,-411,168,334,-234
1,32342,-1330,1446,-1124,-2311,-49,-490,168,334,-234
1,32352,-1330,1446,-1124,-2311,-49,-490,168,334,-234
1,32360,-1341,1431,-1137,-2713,243,-521,168,334,-234
1,32369,-1341,1431,-1137,-2713,243,-521,168,334,-234
1,32377,-1367,1374,-1129,-3037,464,-769,168,334,-234
1,32387,-1367,1374,-1129,-3037,464,-769,168,334,-234
1,32397,-1388,1351,-1092,-2804,586,-1368,168,334,-234
1,32407,-1388,1351,-1092,-2804,586,-1368,168,334,-234
1,32414,-1388,1351,-1092,-2804,586,-1368,168,334,-234
1,32424,-1388,1351,-1092,-2804,586,-1368,168,334,-234
1,32432,-1388,1351,-1092,-2804,586,-1368,168,334,-234
1,32442,-1515,1388,-1179,-1945,764,-1275,168,334,-234
1,32451,-1515,1388,-1179,-1945,764,-1275,168,334,-234
1,32462,-1467,1421,-1199,-2089,427,-908,165,349,-231
1,32473,-1467,1421,-1199,-2089,427,-908,165,349,-231
1,32480,-1412,1411,-1194,-2626,247,-516,165,349,-231
1,32490,-1412,1411,-1194,-2626,247,-516,165,349,-231
1,32497,-1410,1396,-1193,-2879,93,-285,165,349,-231
1,32506,-1410,1396,-1193,-2879,93,-285,165,349,-231
1,32517,-1431,1354,-1171,-2659,-189,-562,165,349,-231
1,32527,-1431,1354,-1171,-2659,-189,-562,165,349,-231
1,32535,-1392,1352,-1111,-2430,-256,-964,165,349,-231
1,32544,-1392,1352,-1111,-2430,-256,-964,165,349,-231
1,32553,-1392,1352,-1111,-2430,-256,-964,165,349,-231
1,32562,-1341,1382,-1097,-2466,157,-1135,165,349,-231
1,32572,-1341,1382,-1097,-2466,157,-1135,165,349,-231
1,32578,-1340,1427,-1125,-2376,521,-1026,163,337,-231
1,32588,-1340,1427,-1125,-2376,521,-1026,163,337,-231
1,32594,-1340,1427,-1125,-2376,521,-1026,163,337,-231
1,32604,-1424,1430,-1166,-2416,576,-779,163,337,-231
1,32612,-1424,1430,-1166,-2416,576,-779,163,337,-231
1,32621,-1500,1399,-1178,-2619,188,-576,163,337,-231
1,32628,-1500,1399,-1178,-2619,188,-576,163,337,-231
1,32637,-1498,1360,-1168,-2854,-279,-313,163,337,-231
1,32645,-1498,1360,-1168,-2854,-279,-313,163,337,-231
1,32655,-1498,1360,-1168,-2854,-279,-313,163,337,-231
1,32663,-1435,1430,-1131,-2815,-479,-86,163,337,-231
1,32671,-1435,1430,-1131,-2815,-479,-86,163,337,-231
1,32683,-1386,1523,-1113,-3134,-433,-94,163,337,-231
1,32692,-1386,1523,-1113,-3134,-433,-94,163,337,-231
1,32699,-1391,1537,-1146,-3659,-365,-287,162,336,-234
1,32708,-1391,1537,-1146,-3659,-365,-287,162,336,-234
1,32715,-1411,1527,-1179,-3954,-303,-421,162,336,-234
1,32726,-1411,1527,-1179,-3954,-303,-421,162,336,-234
1,32734,-1411,1527,-1179,-3954,-303,-421,162,336,-234
1,32743,-1436,1543,-1177,-4267,-287,-418,162,336,-234
1,32754,-1436,1543,-1177,-4267,-287,-418,162,336,-234
1,32762,-1463,1544,-1171,-4694,-368,-365,162,336,-234
1,32773,-1463,1544,-1171,-4694,-368,-365,162,336,-234
1,32781,-1458,1551,-1165,-5085,-471,-394,162,336,-234
1,32790,-1458,1551,-1165,-5085,-471,-394,162,336,-234
1,32796,-1450,1529,-1163,-5505,-486,-629,162,336,-234
1,32803,-1450,1529,-1163,-5505,-486,-629,162,336,-234
1,32808,-1450,1529,-1163,-5505,-486,-629,162,336,-234
1,32815,-1455,1485,-1157,-5743,-605,-709,162,336,-234
1,32821,-1455,1485,-1157,-5743,-605,-709,159,343,-233
1,32827,-1455,1485,-1157,-5743,-605,-709,159,343,-233
1,32832,-1455,1485,-1157,-5743,-605,-709,159,343,-233
1,32838,-1441,1500,-1146,-5793,-857,-572,159,343,-233
1,32844,-1441,1500,-1146,-5793,-857,-572,159,343,-233
1,32849,-1441,1500,-1146,-5793,-857,-572,159,343,-233
1,32857,-1377,1495,-1153,-5976,-866,-494,159,343,-233
1,32863,-1377,1495,-1153,-5976,-866,-494,159,343,-233
1,32869,-1377,1495,-1153,-5976,-866,-494,159,343,-233
1,32874,-1377,1495,-1153,-5976,-866,-494,159,343,-233
1,32880,-1337,1486,-1149,-6156,-814,-490,159,343,-233
1,32886,-1337,1486,-1149,-6156,-814,-490,159,343,-233
1,32892,-1337,1486,-1149,-6156,-814,-490,159,343,-233
1,32899,-1354,1477,-1145,-6282,-980,-531,159,343,-233
1,32904,-1354,1477,-1145,-6282,-980,-531,159,343,-233
1,32911,-1354,1477,-1145,-6282,-980,-531,159,343,-233
1,32919,-1406,1469,-1169,-6323,-1276,-687,159,343,-233
1,32925,-1406,1469,-1169,-6323,-1276,-687,159,343,-233
1,32932,-1406,1469,-1169,-6323,-1276,-687,159,343,-233
1,32940,-1454,1477,-1190,-6012,-1574,-1126,154,346,-228
1,32948,-1454,1477,-1190,-6012,-1574,-1126,154,346,-228
1,32957,-1466,1511,-1167,-5474,-1910,-1790,154,346,-228
1,32967,-1466,1511,-1167,-5474,-1910,-1790,154,346,-228
1,32976,-1450,1551,-1153,-5027,-1982,-2362,154,346,-228
1,32984,-1450,1551,-1153,-5027,-1982,-2362,154,346,-228
1,32993,-1450,1551,-1153,-5027,-1982,-2362,154,346,-228
1,33003,-1394,1574,-1150,-4756,-2039,-2713,154,346,-228
1,33012,-1394,1574,-1150,-4756,-2039,-2713,154,346,-228
1,33021,-1325,1580,-1125,-4702,-2233,-2993,154,346,-228
1,33031,-1325,1580,-1125,-4702,-2233,-2993,154,346,-228
1,33040,-1287,1596,-1108,-4754,-2467,-3202,154,346,-228
1,33050,-1287,1596,-1108,-4754,-2467,-3202,154,346,-228
1,33060,-1303,1606,-1118,-4925,-2757,-3213,154,346,-228
1,33069,-1303,1606,-1118,-4925,-2757,-3213,154,346,-228
1,33078,-1347,1625,-1126,-5245,-3151,-3176,148,352,-216
1,33084,-1347,1625,-1126,-5245,-3151,-3176,148,352,-216
1,33093,-1347,1625,-1126,-5245,-3151,-3176,148,352,-216
1,33103,-1375,1652,-1154,-5579,-3594,-3096,148,352,-216
1,33113,-1375,1652,-1154,-5579,-3594,-3096,148,352,-216
1,33123,-1389,1680,-1175,-5843,-3613,-2961,148,352,-216
1,33131,-1389,1680,-1175,-5843,-3613,-2961,148,352,-216
1,33141,-1387,1702,-1153,-6282,-3525,-2895,148,352,-216
1,33148,-1387,1702,-1153,-6282,-3525,-2895,148,352,-216
1,33157,-1340,1694,-1133,-6870,-3473,-2867,148,352,-216
1,33166,-1340,1694,-1133,-6870,-3473,-2867,148,352,-216
1,33172,-1340,1694,-1133,-6870,-3473,-2867,148,352,-216
1,33178,-1301,1630,-1137,-7318,-3272,-2784,148,352,-216
1,33187,-1301,1630,-1137,-7318,-3272,-2784,148,352,-216
1,33197,-1291,1613,-1122,-7240,-3156,-2555,143,357,-201
1,33207,-1291,1613,-1122,-7240,-3156,-2555,143,357,-201
1,33214,-1291,1613,-1122,-7240,-3156,-2555,143,357,-201
1,33225,-1340,1659,-1109,-7056,-3197,-2051,143,357,-201
1,33234,-1340,1659,-1109,-7056,-3197,-2051,143,357,-201
1,33244,-1493,1623,-1076,-7273,-3072,-1421,143,357,-201
1,33251,-1493,1623,-1076,-7273,-3072,-1421,143,357,-201
1,33260,-1744,1568,-1021,-7385,-2733,-1048,143,357,-201
1,33270,-1744,1568,-1021,-7385,-2733,-1048,143,357,-201
1,33280,-1916,1637,-928,-7541,-2537,-1201,143,357,-201
1,33288,-1916,1637,-928,-7541,-2537,-1201,143,357,-201
1,33297,-1989,1578,-767,-8497,-1688,-1966,143,357,-201
1,33306,-1989,1578,-767,-8497,-1688,-1966,143,357,-201
1,33314,-1989,1578,-767,-8497,-1688,-1966,143,357,-201
1,33324,-2137,1192,-552,-9521,-274,-4144,149,359,-189
1,33332,-2137,1192,-552,-9521,-274,-4144,149,359,-189
1,33342,-2160,927,-475,-8881,481,-6273,149,359,-189
1,33349,-2160,927,-475,-8881,481,-6273,149,359,-189
1,33358,-1835,685,-505,-8137,687,-6457,149,359,-189
1,33369,-1835,685,-505,-8137,687,-6457,149,359,-189
1,33379,-1517,496,-401,-7909,1446,-5898,149,359,-189
1,33387,-1517,496,-401,-7909,1446,-5898,149,359,-189
1,33396,-1459,299,-276,-7776,2448,-5916,149,359,-189
1,33404,-1459,299,-276,-7776,2448,-5916,149,359,-189
1,33414,-1459,299,-276,-7776,2448,-5916,149,359,-189
1,33421,-1574,146,-210,-7243,2387,-5869,149,359,-189
1,33430,-1574,146,-210,-7243,2387,-5869,149,359,-189
1,33440,-1644,203,-241,-6005,1594,-5162,161,359,-187
1,33449,-1644,203,-241,-6005,1594,-5162,161,359,-187
1,33460,-1564,474,-294,-4516,1123,-4524,161,359,-187
1,33467,-1564,474,-294,-4516,1123,-4524,161,359,-187
1,33479,-1404,782,-352,-3785,1067,-4323,161,359,-187
1,33488,-1404,782,-352,-3785,1067,-4323,161,359,-187
1,33498,-1288,931,-369,-4384,1404,-4312,161,359,-187
1,33508,-1288,931,-369,-4384,1404,-4312,161,359,-187
1,33516,-1218,986,-372,-5740,1867,-4333,161,359,-187
1,33526,-1218,986,-372,-5740,1867,-4333,161,359,-187
1,33534,-1218,986,-372,-5740,1867,-4333,161,359,-187
1,33545,-1201,922,-431,-7287,2368,-4005,161,359,-187
1,33551,-1201,922,-431,-7287,2368,-4005,161,359,-187
1,33561,-1237,760,-514,-8437,2993,-3361,161,359,-187
1,33568,-1237,760,-514,-8437,2993,-3361,161,359,-187
1,33579,-1316,619,-560,-9175,3663,-2937,165,357,-195
1,33588,-1316,619,-560,-9175,3663,-2937,165,357,-195
1,33599,-1406,551,-608,-9731,3908,-2925,165,357,-195
1,33608,-1406,551,-608,-9731,3908,-2925,165,357,-195
1,33616,-1516,518,-632,-9963,4118,-3048,165,357,-195
1,33625,-1516,518,-632,-9963,4118,-3048,165,357,-195
1,33634,-1516,518,-632,-9963,4118,-3048,165,357,-195
1,33644,-1614,540,-677,-9853,4338,-3202,165,357,-195
1,33654,-1614,540,-677,-9853,4338,-3202,165,357,-195
1,33662,-1628,598,-739,-9974,4263,-3100,165,357,-195
1,33671,-1628,598,-739,-9974,4263,-3100,165,357,-195
1,33680,-1572,616,-764,-10451,4128,-2789,165,357,-195
1,33686,-1572,616,-764,-10451,4128,-2789,165,357,-195
1,33696,-1568,559,-748,-10605,4173,-2555,148,340,-188
1,33707,-1568,559,-748,-10605,4173,-2555,148,340,-188
1,33716,-1614,544,-715,-10152,4240,-2203,148,340,-188
1,33726,-1614,544,-715,-10152,4240,-2203,148,340,-188
1,33734,-1614,544,-715,-10152,4240,-2203,148,340,-188
1,33743,-1641,598,-779,-9494,4178,-1801,148,340,-188
1,33754,-1641,598,-779,-9494,4178,-1801,148,340,-188
1,33764,-1617,648,-861,-8871,3901,-1498,148,340,-188
1,33771,-1617,648,-861,-8871,3901,-1498,148,340,-188
1,33780,-1574,655,-912,-8422,3821,-1382,148,340,-188
1,33787,-1574,655,-912,-8422,3821,-1382,148,340,-188
1,33798,-1578,607,-950,-7984,3898,-1293,148,340,-188
1,33803,-1578,607,-950,-7984,3898,-1293,148,340,-188
1,33809,-1578,607,-950,-7984,3898,-1293,148,340,-188
1,33815,-1578,607,-950,-7984,3898,-1293,148,340,-188
1,33821,-1616,589,-950,-7422,3770,-1137,148,330,-206
1,33826,-1616,589,-950,-7422,3770,-1137,148,330,-206
1,33833,-1616,589,-950,-7422,3770,-1137,148,330,-206
1,33839,-1643,582,-923,-6908,3471,-993,148,330,-206
1,33845,-1643,582,-923,-6908,3471,-993,148,330,-206
1,33851,-1643,582,-923,-6908,3471,-993,148,330,-206
1,33858,-1658,595,-909,-6215,3081,-812,148,330,-206
1,33864,-1658,595,-909,-6215,3081,-812,148,330,-206
1,33870,-1658,595,-909,-6215,3081,-812,148,330,-206
1,33875,-1662,613,-925,-5396,2843,-640,148,330,-206
1,33882,-1662,613,-925,-5396,2843,-640,148,330,-206
1,33888,-1662,613,-925,-5396,2843,-640,148,330,-206
1,33898,-1669,645,-934,-4526,2913,-575,148,330,-206
1,33905,-1669,645,-934,-4526,2913,-575,148,330,-206
1,33915,-1669,645,-934,-4526,2913,-575,148,330,-206
1,33925,-1631,734,-958,-3734,2899,-551,148,330,-206
1,33936,-1576,810,-946,-3397,2915,-353,144,322,-210
1,33945,-1576,810,-946,-3397,2915,-353,144,322,-210
1,33952,-1576,810,-946,-3397,2915,-353,144,322,-210
1,33961,-1571,805,-948,-3329,3113,-229,144,322,-210
1,33973,-1571,805,-948,-3329,3113,-229,144,322,-210
1,33981,-1542,790,-955,-3300,2703,255,144,322,-210
1,33987,-1542,790,-955,-3300,2703,255,144,322,-210
1,33996,-1582,827,-936,-3078,2197,894,144,322,-210
1,34002,-1582,827,-936,-3078,2197,894,144,322,-210
1,34012,-1582,827,-936,-3078,2197,894,144,322,-210
1,34022,-1568,878,-922,-2584,2404,877,144,322,-210
1,34030,-1568,878,-922,-2584,2404,877,144,322,-210
1,34036,-1578,932,-927,-2414,2460,1176,144,322,-210
1,34046,-1578,932,-927,-2414,2460,1176,144,322,-210
1,34053,-1578,932,-927,-2414,2460,1176,144,322,-210
1,34063,-1575,968,-922,-2611,2034,1358,144,322,-210
1,34073,-1575,968,-922,-2611,2034,1358,144,322,-210
1,34082,-1561,989,-897,-2963,1717,1290,144,320,-200
1,34091,-1561,989,-897,-2963,1717,1290,144,320,-200
1,34102,-1559,976,-902,-3249,1492,1556,144,320,-200
1,34111,-1559,976,-902,-3249,1492,1556,144,320,-200
1,34119,-1601,953,-914,-3425,873,2183,144,320,-200
1,34130,-1601,953,-914,-3425,873,2183,144,320,-200
1,34140,-1628,1025,-898,-3433,344,2475,144,320,-200
1,34150,-1628,1025,-898,-3433,344,2475,144,320,-200
1,34160,-1636,1124,-911,-3446,244,2705,144,320,-200
1,34169,-1636,1124,-911,-3446,244,2705,144,320,-200
1,34179,-1629,1165,-923,-3594,123,3165,144,320,-200
1,34188,-1629,1165,-923,-3594,123,3165,144,320,-200
1,34197,-1628,1136,-915,-3818,-98,3651,130,310,-204
1,34204,-1628,1136,-915,-3818,-98,3651,130,310,-204
1,34213,-1628,1136,-915,-3818,-98,3651,130,310,-204
1,34221,-1655,1096,-892,-3824,-347,3951,130,310,-204
1,34230,-1655,1096,-892,-3824,-347,3951,130,310,-204
1,34239,-1665,1061,-857,-3556,-605,4135,130,310,-204
1,34249,-1665,1061,-857,-3556,-605,4135,130,310,-204
1,34255,-1641,1063,-846,-3142,-768,4480,130,310,-204
1,34266,-1641,1063,-846,-3142,-768,4480,130,310,-204
1,34272,-1641,1063,-846,-3142,-768,4480,130,310,-204
1,34282,-1738,1102,-858,-2592,-939,4840,130,310,-204
1,34291,-1738,1102,-858,-2592,-939,4840,130,310,-204
1,34298,-1876,1048,-995,-1779,-879,5039,130,310,-204
1,34309,-1876,1048,-995,-1779,-879,5039,130,310,-204
1,34318,-2049,1126,-1183,-705,-428,4707,127,305,-203
1,34324,-2049,1126,-1183,-705,-428,4707,127,305,-203
1,34332,-2049,1126,-1183,-705,-428,4707,127,305,-203
1,34338,-2049,1126,-1183,-705,-428,4707,127,305,-203
1,34348,-2049,1126,-1183,-705,-428,4707,127,305,-203
1,34358,-2266,1085,-1474,901,-389,3464,127,305,-203
1,34367,-2266,1085,-1474,901,-389,3464,127,305,-203
1,34376,-1938,1195,-1569,1581,-482,3055,127,305,-203
1,34385,-1938,1195,-1569,1581,-482,3055,127,305,-203
1,34395,-1938,1195,-1569,1581,-482,3055,127,305,-203
1,34404,-1452,1196,-1362,363,-888,1769,127,305,-203
1,34413,-1452,1196,-1362,363,-888,1769,127,305,-203
1,34423,-1122,1115,-1082,-1248,-1153,270,127,305,-203
1,34434,-1122,1115,-1082,-1248,-1153,270,127,305,-203
1,34441,-958,1019,-1005,-2380,-1104,202,122,300,-192
1,34450,-958,1019,-1005,-2380,-1104,202,122,300,-192
1,34459,-1098,1056,-1126,-2420,-1374,858,122,300,-192
1,34468,-1098,1056,-1126,-2420,-1374,858,122,300,-192
1,34476,-1528,1184,-1337,-1696,-2199,903,122,300,-192
1,34485,-1528,1184,-1337,-1696,-2199,903,122,300,-192
1,34492,-1528,1184,-1337,-1696,-2199,903,122,300,-192
1,34502,-1940,1208,-1536,-1734,-3431,577,122,300,-192
1,34509,-1940,1208,-1536,-1734,-3431,577,122,300,-192
1,34519,-1936,1053,-1552,-2758,-4002,-65,122,300,-192
1,34528,-1936,1053,-1552,-2758,-4002,-65,122,300,-192
1,34537,-1670,1033,-1334,-2978,-3615,-348,122,300,-192
1,34545,-1670,1033,-1334,-2978,-3615,-348,122,300,-192
1,34554,-1670,1033,-1334,-2978,-3615,-348,122,300,-192
1,34564,-1528,1071,-1096,-1817,-3008,-871,129,303,-177
1,34572,-1528,1071,-1096,-1817,-3008,-871,129,303,-177
1,34581,-1473,1128,-983,-581,-2678,-653,129,303,-177
1,34591,-1473,1128,-983,-581,-2678,-653,129,303,-177
1,34599,-1336,1190,-968,-59,-2792,-43,129,303,-177
1,34606,-1336,1190,-968,-59,-2792,-43,129,303,-177
1,34615,-1336,1190,-968,-59,-2792,-43,129,303,-177
1,34624,-1189,1223,-1008,236,-2729,151,129,303,-177
1,34634,-1189,1223,-1008,236,-2729,151,129,303,-177
1,34644,-1112,1205,-1018,173,-2457,117,129,303,-177
1,34654,-1112,1205,-1018,173,-2457,117,129,303,-177
1,34662,-1171,1142,-1015,-209,-2389,24,129,303,-177
1,34670,-1171,1142,-1015,-209,-2389,24,129,303,-177
1,34679,-1291,1078,-1013,-89,-2625,-487,129,303,-177
1,34689,-1291,1078,-1013,-89,-2625,-487,129,303,-177
1,34699,-1201,1013,-1052,858,-2498,-483,130,308,-174
1,34706,-1201,1013,-1052,858,-2498,-483,130,308,-174
1,34715,-1201,1013,-1052,858,-2498,-483,130,308,-174
1,34725,-1475,1116,-1085,2436,573,1205,130,308,-174
1,34737,-1436,1178,-1102,2940,-1,853,130,308,-174
1,34744,-1436,1178,-1102,2940,-1,853,130,308,-174
1,34754,-1436,1178,-1102,2940,-1,853,130,308,-174
1,34760,-1367,1209,-1043,2714,-2021,-305,130,308,-174
1,34769,-1367,1209,-1043,2714,-2021,-305,130,308,-174
1,34777,-1484,1249,-1005,2801,-4368,-1894,130,308,-174
1,34786,-1484,1249,-1005,2801,-4368,-1894,130,308,-174
1,34795,-1484,1249,-1005,2801,-4368,-1894,130,308,-174
1,34800,-1383,1213,-986,2680,-6916,-1689,130,308,-174
1,34806,-1383,1213,-986,2680,-6916,-1689,130,308,-174
1,34812,-1383,1213,-986,2680,-6916,-1689,130,308,-174
1,34819,-1450,1222,-958,2973,-6198,-398,136,310,-174
1,34825,-1450,1222,-958,2973,-6198,-398,136,310,-174
1,34831,-1450,1222,-958,2973,-6198,-398,136,310,-174
1,34837,-1503,1310,-929,3414,-4647,119,136,310,-174
1,34843,-1503,1310,-929,3414,-4647,119,136,310,-174
1,34849,-1503,1310,-929,3414,-4647,119,136,310,-174
1,34859,-1545,1312,-913,3430,-3820,365,136,310,-174
1,34864,-1545,1312,-913,3430,-3820,365,136,310,-174
1,34870,-1545,1312,-913,3430,-3820,365,136,310,-174
1,34876,-1566,1303,-973,3871,-3761,584,136,310,-174
1,34881,-1566,1303,-973,3871,-3761,584,136,310,-174
1,34887,-1566,1303,-973,3871,-3761,584,136,310,-174
1,34895,-1566,1303,-973,3871,-3761,584,136,310,-174
1,34903,-1509,1402,-968,4240,-3685,418,136,310,-174
1,34910,-1509,1402,-968,4240,-3685,418,136,310,-174
1,34917,-1609,1374,-912,3614,-3675,-16,136,310,-174
1,34924,-1609,1374,-912,3614,-3675,-16,136,310,-174
1,34931,-1609,1374,-912,3614,-3675,-16,136,310,-174
1,34938,-1818,1321,-866,3115,-4086,283,150,302,-164
1,34947,-1818,1321,-866,3115,-4086,283,150,302,-164
1,34954,-1818,1321,-866,3115,-4086,283,150,302,-164
1,34961,-2042,1333,-860,3101,-4099,1082,150,302,-164
1,34971,-2042,1333,-860,3101,-4099,1082,150,302,-164
1,34978,-2274,1284,-844,3160,-3678,1212,150,302,-164
1,34989,-2274,1284,-844,3160,-3678,1212,150,302,-164
1,34999,-2350,1176,-923,3377,-3118,278,150,302,-164
1,35009,-2350,1176,-923,3377,-3118,278,150,302,-164
1,35019,-2072,952,-988,3849,-2401,-247,150,302,-164
1,35025,-2072,952,-988,3849,-2401,-247,150,302,-164
1,35036,-2072,952,-988,3849,-2401,-247,150,302,-164
1,35042,-1564,838,-893,4144,-1922,-281,150,302,-164
1,35051,-1564,838,-893,4144,-1922,-281,150,302,-164
1,35061,-1220,725,-792,3784,-1683,135,158,306,-166
1,35070,-1220,725,-792,3784,-1683,135,158,306,-166
1,35081,-1144,595,-673,3163,-445,233,158,306,-166
1,35089,-1144,595,-673,3163,-445,233,158,306,-166
1,35098,-1429,561,-578,3246,197,-136,158,306,-166
1,35107,-1429,561,-578,3246,197,-136,158,306,-166
1,35118,-1788,676,-581,3948,-1262,-563,158,306,-166
1,35125,-1788,676,-581,3948,-1262,-563,158,306,-166
1,35136,-1788,676,-581,3948,-1262,-563,158,306,-166
1,35142,-1885,910,-690,5169,-2295,-225,158,306,-166
1,35152,-1885,910,-690,5169,-2295,-225,158,306,-166
1,35163,-1811,1101,-735,5341,-2191,350,158,306,-166
1,35170,-1811,1101,-735,5341,-2191,350,158,306,-166
1,35176,-1811,1101,-735,5341,-2191,350,158,306,-166
1,35186,-1587,1117,-673,4055,-2407,145,158,306,-166
1,35192,-1587,1117,-673,4055,-2407,145,158,306,-166
1,35203,-1452,1092,-584,2639,-1980,268,166,290,-172
1,35213,-1452,1092,-584,2639,-1980,268,166,290,-172
1,35222,-1312,1028,-535,1412,-1501,955,166,290,-172
1,35231,-1312,1028,-535,1412,-1501,955,166,290,-172
1,35240,-1215,931,-515,930,-983,1343,166,290,-172
1,35252,-1215,931,-515,930,-983,1343,166,290,-172
1,35259,-1194,891,-482,1062,-503,1122,166,290,-172
1,35269,-1194,891,-482,1062,-503,1122,166,290,-172
1,35279,-1282,912,-468,1156,-156,281,166,290,-172
1,35290,-1282,912,-468,1156,-156,281,166,290,-172
1,35298,-1456,985,-488,1108,-98,-40,166,290,-172
1,35307,-1456,985,-488,1108,-98,-40,166,290,-172
1,35316,-1559,1079,-502,822,-183,-267,174,286,-168
1,35326,-1559,1079,-502,822,-183,-267,174,286,-168
1,35338,-1468,1098,-499,229,-143,-514,174,286,-168
1,35348,-1468,1098,-499,229,-143,-514,174,286,-168
1,35355,-1468,1098,-499,229,-143,-514,174,286,-168
1,35363,-1381,1044,-464,-605,306,-757,174,286,-168
1,35373,-1381,1044,-464,-605,306,-757,174,286,-168
1,35382,-1370,984,-414,-1479,514,-899,174,286,-168
1,35391,-1370,984,-414,-1479,514,-899,174,286,-168
1,35399,-1427,994,-423,-1971,412,-871,174,286,-168
1,35408,-1427,994,-423,-1971,412,-871,174,286,-168
1,35417,-1520,1034,-484,-2144,313,-560,174,286,-168
1,35427,-1520,1034,-484,-2144,313,-560,174,286,-168
1,35437,-1616,1042,-560,-2422,337,-58,174,286,-168
1,35447,-1616,1042,-560,-2422,337,-58,174,286,-168
1,35457,-1587,1022,-593,-2773,407,387,174,286,-168
1,35464,-1587,1022,-593,-2773,407,387,174,286,-168
1,35474,-1587,1022,-593,-2773,407,387,174,286,-168
1,35481,-1504,984,-603,-3054,509,761,174,286,-168
1,35490,-1504,984,-603,-3054,509,761,174,286,-168
1,35500,-1509,958,-612,-2748,1064,768,174,286,-168
1,35509,-1509,958,-612,-2748,1064,768,174,286,-168
1,35519,-1621,946,-612,-2148,1963,637,174,286,-168
1,35527,-1621,946,-612,-2148,1963,637,174,286,-168
1,35537,-1801,919,-555,-1694,2135,471,174,286,-168
1,35547,-1801,919,-555,-1694,2135,471,174,286,-168
1,35556,-1801,919,-555,-1694,2135,471,174,286,-168
1,35566,-1957,1021,-516,-958,1507,728,164,274,-164
1,35575,-1957,1021,-516,-958,1507,728,164,274,-164
1,35584,-2000,1279,-495,-307,262,2121,164,274,-164
1,35593,-2000,1279,-495,-307,262,2121,164,274,-164
1,35602,-1948,1487,-536,-590,-758,3999,164,274,-164
1,35610,-1948,1487,-536,-590,-758,3999,164,274,-164
1,35620,-1921,1573,-650,-1479,-846,5203,164,274,-164
1,35628,-1921,1573,-650,-1479,-846,5203,164,274,-164
1,35638,-2013,1448,-754,-2772,-174,5388,164,274,-164
1,35649,-2013,1448,-754,-2772,-174,5388,164,274,-164
1,35657,-2107,1188,-932,-3464,890,4764,164,274,-164
1,35664,-2107,1188,-932,-3464,890,4764,164,274,-164
1,35676,-2107,1188,-932,-3464,890,4764,164,274,-164
1,35685,-2003,956,-1029,-3424,1231,3507,164,274,-164
1,35693,-2003,956,-1029,-3424,1231,3507,164,274,-164
1,35702,-1826,912,-1013,-2587,1317,1693,165,277,-167
1,35713,-1826,912,-1013,-2587,1317,1693,165,277,-167
1,35722,-1570,956,-963,-2014,869,1170,165,277,-167
1,35729,-1570,956,-963,-2014,869,1170,165,277,-167
1,35738,-1333,1101,-983,-1783,430,1082,165,277,-167
1,35745,-1333,1101,-983,-1783,430,1082,165,277,-167
1,35755,-1333,1101,-983,-1783,430,1082,165,277,-167
1,35765,-1217,1187,-1053,-2501,-783,1506,165,277,-167
1,35774,-1217,1187,-1053,-2501,-783,1506,165,277,-167
1,35784,-1378,1137,-1125,-3417,-1278,1131,165,277,-167
1,35792,-1378,1137,-1125,-3417,-1278,1131,165,277,-167
1,35799,-1794,1027,-1228,-3761,-650,701,165,277,-167
1,35805,-1794,1027,-1228,-3761,-650,701,165,277,-167
1,35811,-1794,1027,-1228,-3761,-650,701,165,277,-167
1,35817,-1922,932,-1195,-3202,-463,-819,159,279,-163
1,35823,-1922,932,-1195,-3202,-463,-819,159,279,-163
1,35829,-1922,932,-1195,-3202,-463,-819,159,279,-163
1,35835,-1922,932,-1195,-3202,-463,-819,159,279,-163
1,35842,-1733,925,-1058,-2212,-655,-1557,159,279,-163
1,35848,-1733,925,-1058,-2212,-655,-1557,159,279,-163
1,35854,-1733,925,-1058,-2212,-655,-1557,159,279,-163
1,35860,-1564,1052,-932,-790,-479,-1259,159,279,-163
1,35866,-1564,1052,-932,-790,-479,-1259,159,279,-163
1,35871,-1564,1052,-932,-790,-479,-1259,159,279,-163
1,35877,-1433,1206,-872,23,-579,-976,159,279,-163
1,35884,-1433,1206,-872,23,-579,-976,159,279,-163
1,35893,-1433,1206,-872,23,-579,-976,159,279,-163
1,35898,-1288,1261,-842,-9,-891,-845,159,279,-163
1,35905,-1288,1261,-842,-9,-891,-845,159,279,-163
1,35913,-1288,1261,-842,-9,-891,-845,159,279,-163
1,35920,-1167,1256,-856,21,-939,-892,159,279,-163
1,35928,-1167,1256,-856,21,-939,-892,159,279,-163
1,35935,-1167,1256,-856,21,-939,-892,159,279,-163
1,35941,-1175,1287,-857,184,-936,-543,149,283,-159
1,35947,-1175,1287,-857,184,-936,-543,149,283,-159
1,35954,-1175,1287,-857,184,-936,-543,149,283,-159
1,35961,-1197,1298,-859,24,-968,-826,149,283,-159
1,35970,-1197,1298,-859,24,-968,-826,149,283,-159
1,35976,-1197,1298,-859,24,-968,-826,149,283,-159
1,35983,-1229,1273,-862,-286,-703,-815,149,283,-159
1,35992,-1229,1273,-862,-286,-703,-815,149,283,-159
1,36001,-1323,1237,-880,-270,-299,-394,149,283,-159
1,36012,-1323,1237,-880,-270,-299,-394,149,283,-159
1,36021,-1382,1237,-866,-83,-530,-40,149,283,-159
1,36028,-1382,1237,-866,-83,-530,-40,149,283,-159
1,36038,-1331,1294,-836,61,-857,191,149,283,-159
1,36048,-1331,1294,-836,61,-857,191,149,283,-159
1,36059,-1300,1348,-812,116,-634,319,150,278,-148
1,36065,-1300,1348,-812,116,-634,319,150,278,-148
1,36075,-1300,1348,-812,116,-634,319,150,278,-148
1,36084,-1319,1359,-812,103,-227,266,150,278,-148
1,36094,-1319,1359,-812,103,-227,266,150,278,-148
1,36102,-1400,1323,-809,-73,-10,295,150,278,-148
1,36111,-1400,1323,-809,-73,-10,295,150,278,-148
1,36121,-1514,1277,-854,5,75,388,150,278,-148
1,36129,-1514,1277,-854,5,75,388,150,278,-148
1,36140,-1603,1294,-899,389,135,388,150,278,-148
1,36151,-1603,1294,-899,389,135,388,150,278,-148
1,36160,-1716,1318,-879,480,73,122,150,278,-148
1,36168,-1716,1318,-879,480,73,122,150,278,-148
1,36178,-1811,1304,-863,571,-615,-74,148,276,-154
1,36189,-1811,1304,-863,571,-615,-74,148,276,-154
1,36199,-1829,1365,-858,1001,-1643,33,148,276,-154
1,36207,-1829,1365,-858,1001,-1643,33,148,276,-154
1,36216,-1783,1396,-853,1140,-2679,481,148,276,-154
1,36227,-1783,1396,-853,1140,-2679,481,148,276,-154
1,36234,-1783,1396,-853,1140,-2679,481,148,276,-154
1,36243,-1820,1360,-844,1335,-2935,704,148,276,-154
1,36254,-1820,1360,-844,1335,-2935,704,148,276,-154
1,36263,-1949,1357,-833,2058,-3152,925,148,276,-154
1,36274,-1949,1357,-833,2058,-3152,925,148,276,-154
1,36281,-2045,1399,-901,2977,-3223,891,148,276,-154
1,36291,-2045,1399,-901,2977,-3223,891,148,276,-154
1,36301,-2169,1381,-954,3376,-2718,978,148,276,-154
1,36311,-2169,1381,-954,3376,-2718,978,148,276,-154
1,36317,-2099,1269,-1019,2885,-2547,488,158,276,-154
1,36326,-2099,1269,-1019,2885,-2547,488,158,280,-144
1,36333,-2099,1269,-1019,2885,-2547,488,158,280,-144
1,36343,-1800,941,-1003,2037,-2663,-663,158,280,-144
1,36353,-1800,941,-1003,2037,-2663,-663,158,280,-144
1,36362,-1477,734,-927,2396,-2781,-1481,158,280,-144
1,36371,-1477,734,-927,2396,-2781,-1481,158,280,-144
1,36380,-1294,614,-859,2979,-2056,-1426,158,280,-144
1,36390,-1294,614,-859,2979,-2056,-1426,158,280,-144
1,36399,-1294,599,-852,3793,-1289,-783,158,280,-144
1,36409,-1294,599,-852,3793,-1289,-783,158,280,-144
1,36419,-1432,799,-841,4595,-1135,9,158,280,-144
1,36427,-1432,799,-841,4595,-1135,9,158,280,-144
1,36435,-1432,799,-841,4595,-1135,9,158,280,-144
1,36446,-1520,914,-898,4710,-1305,383,159,283,-135
1,36455,-1520,914,-898,4710,-1305,383,159,283,-135
1,36464,-1562,1079,-882,4738,-1443,301,159,283,-135
1,36474,-1562,1079,-882,4738,-1443,301,159,283,-135
1,36484,-1541,1165,-814,3674,-1470,531,159,283,-135
1,36495,-1541,1165,-814,3674,-1470,531,159,283,-135
1,36502,-1473,1217,-744,2567,-1256,495,159,283,-135
1,36511,-1473,1217,-744,2567,-1256,495,159,283,-135
1,36521,-1388,1219,-687,1867,-943,34,159,283,-135
1,36531,-1388,1219,-687,1867,-943,34,159,283,-135
1,36541,-1297,1159,-656,1315,-771,50,159,283,-135
1,36548,-1297,1159,-656,1315,-771,50,159,283,-135
1,36558,-1198,1099,-640,946,-352,468,166,294,-140
1,36569,-1198,1099,-640,946,-352,468,166,294,-140
1,36576,-1198,1099,-640,946,-352,468,166,294,-140
1,36583,-1212,1125,-643,809,409,581,166,294,-140
1,36593,-1212,1125,-643,809,409,581,166,294,-140
1,36599,-1334,1156,-640,533,1005,494,166,294,-140
1,36611,-1334,1156,-640,533,1005,494,166,294,-140
1,36620,-1406,1127,-632,85,1142,213,166,294,-140
1,36629,-1406,1127,-632,85,1142,213,166,294,-140
1,36639,-1433,1164,-626,-352,1183,-95,166,294,-140
1,36648,-1433,1164,-626,-352,1183,-95,166,294,-140
1,36659,-1469,1171,-573,-1066,1453,-225,166,294,-140
1,36667,-1469,1171,-573,-1066,1453,-225,166,294,-140
1,36676,-1469,1171,-573,-1066,1453,-225,166,294,-140
1,36686,-1527,1159,-593,-1525,1289,-434,169,299,-141
1,36697,-1598,1172,-644,-1789,819,-487,169,299,-141
1,36706,-1598,1172,-644,-1789,819,-487,169,299,-141
1,36715,-1598,1172,-644,-1789,819,-487,169,299,-141
1,36725,-1582,1148,-699,-2185,264,-116,169,299,-141
1,36732,-1582,1148,-699,-2185,264,-116,169,299,-141
1,36743,-1540,1190,-680,-2507,-237,263,169,299,-141
1,36750,-1540,1190,-680,-2507,-237,263,169,299,-141
1,36761,-1421,1196,-663,-2749,-267,909,169,299,-141
1,36767,-1421,1196,-663,-2749,-267,909,169,299,-141
1,36777,-1355,1172,-661,-2787,111,1331,169,299,-141
1,36788,-1355,1172,-661,-2787,111,1331,169,299,-141
1,36797,-1367,1157,-648,-2647,418,1382,169,299,-141
1,36802,-1367,1157,-648,-2647,418,1382,169,299,-141
1,36808,-1367,1157,-648,-2647,418,1382,169,299,-141
1,36814,-1367,1157,-648,-2647,418,1382,169,299,-141
1,36820,-1473,1115,-643,-2609,768,1332,175,293,-131
1,36826,-1473,1115,-643,-2609,768,1332,175,293,-131
1,36832,-1473,1115,-643,-2609,768,1332,175,293,-131
1,36838,-1589,1116,-627,-2145,1121,1550,175,293,-131
1,36843,-1589,1116,-627,-2145,1121,1550,175,293,-131
1,36849,-1589,1116,-627,-2145,1121,1550,175,293,-131
1,36858,-1669,1261,-626,-1550,1012,1876,175,293,-131
1,36865,-1669,1261,-626,-1550,1012,1876,175,293,-131
1,36870,-1669,1261,-626,-1550,1012,1876,175,293,-131
1,36876,-1669,1261,-626,-1550,1012,1876,175,293,-131
1,36882,-1684,1491,-646,-1336,495,2510,175,293,-131
1,36887,-1684,1491,-646,-1336,495,2510,175,293,-131
1,36893,-1684,1491,-646,-1336,495,2510,175,293,-131
1,36899,-1790,1637,-695,-2132,287,3253,175,293,-131
1,36911,-1790,1637,-695,-2132,287,3253,175,293,-131
1,36921,-2023,1711,-834,-3103,404,3876,175,293,-131
1,36931,-2023,1711,-834,-3103,404,3876,175,293,-131
1,36938,-2344,1608,-1010,-3712,948,4258,175,301,-135
1,36948,-2344,1608,-1010,-3712,948,4258,175,301,-135
1,36955,-2344,1608,-1010,-3712,948,4258,175,301,-135
1,36964,-2406,1379,-1209,-3748,1395,4101,175,301,-135
1,36974,-2406,1379,-1209,-3748,1395,4101,175,301,-135
1,36984,-2018,1323,-1154,-3432,1270,2687,175,301,-135
1,36995,-2018,1323,-1154,-3432,1270,2687,175,301,-135
1,37005,-1678,1275,-916,-4037,755,396,175,301,-135
1,37015,-1678,1275,-916,-4037,755,396,175,301,-135
1,37022,-1371,1110,-869,-4573,626,-1104,175,301,-135
1,37032,-1371,1110,-869,-4573,626,-1104,175,301,-135
1,37041,-1235,1065,-883,-4462,746,-1313,175,301,-135
1,37051,-1235,1065,-883,-4462,746,-1313,175,301,-135
1,37060,-1184,996,-961,-4964,412,-699,187,295,-143
1,37072,-1184,996,-961,-4964,412,-699,187,295,-143
1,37082,-1404,962,-1083,-4843,681,-278,187,295,-143
1,37090,-1404,962,-1083,-4843,681,-278,187,295,-143
1,37099,-1656,1112,-1186,-3663,1151,-379,187,295,-143
1,37106,-1656,1112,-1186,-3663,1151,-379,187,295,-143
1,37116,-1656,1112,-1186,-3663,1151,-379,187,295,-143
1,37126,-1748,1226,-1288,-3064,971,-618,187,295,-143
1,37138,-1696,1254,-1240,-3337,299,-1064,187,295,-143
1,37147,-1696,1254,-1240,-3337,299,-1064,187,295,-143
1,37153,-1696,1254,-1240,-3337,299,-1064,187,295,-143
1,37164,-1647,1236,-1081,-3649,-432,-1812,187,295,-143
1,37174,-1647,1236,-1081,-3649,-432,-1812,187,295,-143
1,37183,-1562,1219,-956,-3699,-910,-2043,198,302,-150
1,37192,-1562,1219,-956,-3699,-910,-2043,198,302,-150
1,37202,-1382,1191,-900,-3534,-1112,-1796,198,302,-150
1,37212,-1382,1191,-900,-3534,-1112,-1796,198,302,-150
1,37221,-1200,1222,-853,-2962,-1193,-1842,198,302,-150
1,37231,-1200,1222,-853,-2962,-1193,-1842,198,302,-150
1,37237,-1085,1255,-821,-2548,-1060,-1891,198,302,-150
1,37248,-1085,1255,-821,-2548,-1060,-1891,198,302,-150
1,37255,-1085,1255,-821,-2548,-1060,-1891,198,302,-150
1,37265,-1092,1219,-815,-2356,-780,-1846,198,302,-150
1,37274,-1092,1219,-815,-2356,-780,-1846,198,302,-150
1,37284,-1209,1190,-827,-1964,-568,-1854,198,302,-150
1,37294,-1209,1190,-827,-1964,-568,-1854,198,302,-150
1,37303,-1328,1196,-825,-1513,-410,-1682,198,302,-150
1,37313,-1328,1196,-825,-1513,-410,-1682,198,302,-150
1,37320,-1404,1225,-849,-1123,-348,-1219,199,301,-151
1,37330,-1404,1225,-849,-1123,-348,-1219,199,301,-151
1,37341,-1429,1285,-864,-758,-588,-922,199,301,-151
1,37349,-1429,1285,-864,-758,-588,-922,199,301,-151
1,37358,-1359,1272,-860,-610,-746,-1039,199,301,-151
1,37367,-1359,1272,-860,-610,-746,-1039,199,301,-151
1,37376,-1359,1272,-860,-610,-746,-1039,199,301,-151
1,37385,-1329,1200,-840,-288,-799,-1171,199,301,-151
1,37395,-1329,1200,-840,-288,-799,-1171,199,301,-151
1,37405,-1361,1138,-817,481,-445,-906,199,301,-151
1,37415,-1361,1138,-817,481,-445,-906,199,301,-151
1,37422,-1493,1122,-830,1424,-640,-924,199,301,-151
1,37432,-1493,1122,-830,1424,-640,-924,199,301,-151
1,37441,-1748,1178,-843,2577,-1074,-638,196,304,-166
1,37450,-1748,1178,-843,2577,-1074,-638,196,304,-166
1,37457,-1830,1274,-876,3687,-1410,14,196,304,-166
1,37468,-1830,1274,-876,3687,-1410,14,196,304,-166
1,37475,-1830,1274,-876,3687,-1410,14,196,304,-166
1,37485,-1740,1380,-915,4222,-1662,402,196,304,-166
1,37495,-1740,1380,-915,4222,-1662,402,196,304,-166
1,37504,-1641,1500,-916,3984,-2752,160,196,304,-166
1,37514,-1641,1500,-916,3984,-2752,160,196,304,-166
1,37521,-1714,1529,-869,3149,-3411,0,196,304,-166
1,37531,-1714,1529,-869,3149,-3411,0,196,304,-166
1,37542,-1908,1438,-818,2832,-2903,73,196,304,-166
1,37551,-1908,1438,-818,2832,-2903,73,196,304,-166
1,37561,-2177,1292,-924,3151,-2637,724,196,304,-166
1,37571,-2177,1292,-924,3151,-2637,724,196,304,-166
1,37580,-2286,1158,-1018,3460,-3130,1527,196,304,-166
1,37588,-2286,1158,-1018,3460,-3130,1527,196,304,-166
1,37599,-2170,1116,-1058,3626,-3983,1047,196,304,-166
1,37608,-2170,1116,-1058,3626,-3983,1047,196,304,-166
1,37618,-1862,894,-1040,3806,-4129,273,196,304,-166
1,37627,-1862,894,-1040,3806,-4129,273,196,304,-166
1,37637,-1479,778,-943,4589,-3524,-209,196,304,-166
1,37648,-1479,778,-943,4589,-3524,-209,196,304,-166
1,37655,-1479,778,-943,4589,-3524,-209,196,304,-166
1,37665,-1352,782,-840,4972,-2063,-178,196,304,-166
1,37677,-1352,782,-840,4972,-2063,-178,196,304,-166
1,37684,-1290,779,-763,4674,-1739,309,189,305,-173
1,37691,-1290,779,-763,4674,-1739,309,189,305,-173
1,37703,-1319,764,-725,4652,-1895,877,189,305,-173
1,37713,-1319,764,-725,4652,-1895,877,189,305,-173
1,37721,-1525,857,-766,5336,-1393,1320,189,305,-173
1,37731,-1525,857,-766,5336,-1393,1320,189,305,-173
1,37739,-1732,1067,-847,5590,-1344,1713,189,305,-173
1,37749,-1732,1067,-847,5590,-1344,1713,189,305,-173
1,37758,-1687,1223,-879,4613,-1797,1997,189,305,-173
1,37767,-1687,1223,-879,4613,-1797,1997,189,305,-173
1,37776,-1687,1223,-879,4613,-1797,1997,189,305,-173
1,37785,-1538,1242,-799,3249,-1983,1695,189,305,-173
1,37793,-1538,1242,-799,3249,-1983,1695,189,305,-173
1,37799,-1435,1221,-706,2430,-1556,1260,194,304,-164
1,37806,-1435,1221,-706,2430,-1556,1260,194,304,-164
1,37811,-1435,1221,-706,2430,-1556,1260,194,304,-164
1,37817,-1283,1160,-630,1795,-976,1144,194,304,-164
1,37823,-1283,1160,-630,1795,-976,1144,194,304,-164
1,37829,-1283,1160,-630,1795,-976,1144,194,304,-164
1,37834,-1283,1160,-630,1795,-976,1144,194,304,-164
1,37840,-1181,1080,-590,1346,-349,1206,194,304,-164
1,37847,-1181,1080,-590,1346,-349,1206,194,304,-164
1,37856,-1181,1080,-590,1346,-349,1206,194,304,-164
1,37862,-1187,1065,-556,1213,218,1087,194,304,-164
1,37867,-1187,1065,-556,1213,218,1087,194,304,-164
1,37873,-1187,1065,-556,1213,218,1087,194,304,-164
1,37878,-1231,1078,-530,1323,606,894,194,304,-164
1,37884,-1231,1078,-530,1323,606,894,194,304,-164
1,37892,-1231,1078,-530,1323,606,894,194,304,-164
1,37899,-1340,1083,-575,1473,757,902,194,304,-164
1,37907,-1340,1083,-575,1473,757,902,194,304,-164
1,37916,-1340,1083,-575,1473,757,902,194,304,-164
1,37925,-1503,1137,-590,1428,736,1005,194,304,-164
1,37936,-1503,1137,-590,1428,736,1005,194,304,-164
1,37943,-1545,1188,-581,966,729,1061,200,314,-168
1,37952,-1545,1188,-581,966,729,1061,200,314,-168
1,37959,-1426,1184,-584,476,1130,1075,200,314,-168
1,37969,-1426,1184,-584,476,1130,1075,200,314,-168
1,37979,-1316,1198,-542,184,988,584,200,314,-168
1,37989,-1316,1198,-542,184,988,584,200,314,-168
1,37999,-1367,1181,-521,-511,359,421,200,314,-168
1,38007,-1367,1181,-521,-511,359,421,200,314,-168
1,38018,-1463,1231,-571,-697,129,493,200,314,-168
1,38024,-1463,1231,-571,-697,129,493,200,314,-168
1,38035,-1463,1231,-571,-697,129,493,200,314,-168
1,38044,-1487,1285,-637,-828,597,621,200,314,-168
1,38053,-1487,1285,-637,-828,597,621,200,314,-168
1,38065,-1483,1303,-667,-1305,1011,853,182,316,-186
1,38074,-1483,1303,-667,-1305,1011,853,182,316,-186
1,38084,-1472,1305,-693,-1744,1244,1210,182,316,-186
1,38091,-1472,1305,-693,-1744,1244,1210,182,316,-186
1,38102,-1550,1245,-724,-1924,1712,1575,182,316,-186
1,38111,-1550,1245,-724,-1924,1712,1575,182,316,-186
1,38120,-1789,1204,-723,-1848,1844,1821,182,316,-186
1,38127,-1789,1204,-723,-1848,1844,1821,182,316,-186
1,38136,-1789,1204,-723,-1848,1844,1821,182,316,-186
1,38147,-1789,1204,-723,-1848,1844,1821,182,316,-186
1,38157,-1789,1204,-723,-1848,1844,1821,182,316,-186
1,38166,-2030,1406,-622,-1041,-989,2480,182,316,-186
1,38173,-2030,1406,-622,-1041,-989,2480,182,316,-186
1,38178,-2032,1562,-729,-973,-1972,4077,176,312,-192
1,38184,-2032,1562,-729,-973,-1972,4077,176,312,-192
1,38191,-2032,1562,-729,-973,-1972,4077,176,312,-192
1,38197,-2128,1688,-846,-1102,-1393,5298,176,312,-192
1,38203,-2128,1688,-846,-1102,-1393,5298,176,312,-192
1,38213,-2128,1688,-846,-1102,-1393,5298,176,312,-192
1,38223,-2186,1553,-985,-1694,-193,5816,176,312,-192
1,38232,-2186,1553,-985,-1694,-193,5816,176,312,-192
1,38241,-2025,1513,-1089,-1432,630,4150,176,312,-192
1,38252,-2025,1513,-1089,-1432,630,4150,176,312,-192
1,38261,-1736,1404,-972,-1978,223,1717,176,312,-192
1,38269,-1736,1404,-972,-1978,223,1717,176,312,-192
1,38281,-1597,1291,-865,-2369,97,-367,176,312,-192
1,38288,-1597,1291,-865,-2369,97,-367,176,312,-192
1,38296,-1597,1291,-865,-2369,97,-367,176,312,-192
1,38305,-1369,1211,-895,-2326,-101,-530,172,318,-196
1,38312,-1369,1211,-895,-2326,-101,-530,172,318,-196
1,38323,-1120,1291,-1002,-2198,272,341,172,318,-196
1,38333,-1120,1291,-1002,-2198,272,341,172,318,-196
1,38342,-949,1349,-1079,-3338,542,553,172,318,-196
1,38351,-949,1349,-1079,-3338,542,553,172,318,-196
1,38361,-994,1346,-1116,-4762,561,-74,172,318,-196
1,38371,-994,1346,-1116,-4762,561,-74,172,318,-196
1,38378,-1288,1283,-1188,-5145,521,-1449,172,318,-196
1,38388,-1288,1283,-1188,-5145,521,-1449,172,318,-196
1,38395,-1288,1283,-1188,-5145,521,-1449,172,318,-196
1,38405,-1684,1305,-1245,-4486,465,-2814,172,318,-196
1,38415,-1684,1305,-1245,-4486,465,-2814,172,318,-196
1,38424,-1978,1395,-1207,-4096,626,-3889,172,318,-196
1,38433,-1978,1395,-1207,-4096,626,-3889,172,318,-196
1,38443,-1829,1375,-1068,-4764,1087,-3189,164,328,-198
1,38452,-1829,1375,-1068,-4764,1087,-3189,164,328,-198
1,38463,-1483,1289,-910,-5083,1288,-3495,164,328,-198
1,38474,-1483,1289,-910,-5083,1288,-3495,164,328,-198
1,38483,-1319,1254,-859,-4621,1214,-4064,164,328,-198
1,38492,-1319,1254,-859,-4621,1214,-4064,164,328,-198
1,38502,-1252,1242,-860,-4114,1215,-3522,164,328,-198
1,38510,-1252,1242,-860,-4114,1215,-3522,164,328,-198
1,38520,-1201,1235,-897,-3740,924,-2829,164,328,-198
1,38531,-1201,1235,-897,-3740,924,-2829,164,328,-198
1,38541,-1216,1228,-948,-3475,459,-2375,164,328,-198
1,38552,-1216,1228,-948,-3475,459,-2375,164,328,-198
1,38560,-1306,1211,-988,-3115,591,-2076,165,327,-201
1,38571,-1306,1211,-988,-3115,591,-2076,165,327,-201
1,38580,-1362,1202,-1003,-2630,784,-2234,165,327,-201
1,38590,-1362,1202,-1003,-2630,784,-2234,165,327,-201
1,38597,-1349,1213,-1004,-2289,462,-2397,165,327,-201
1,38607,-1349,1213,-1004,-2289,462,-2397,165,327,-201
1,38615,-1349,1213,-1004,-2289,462,-2397,165,327,-201
1,38625,-1348,1201,-954,-1990,-80,-2557,165,327,-201
1,38634,-1348,1201,-954,-1990,-80,-2557,165,327,-201
1,38643,-1333,1212,-884,-1348,-330,-2441,165,327,-201
1,38651,-1333,1212,-884,-1348,-330,-2441,165,327,-201
1,38660,-1326,1207,-857,-828,-462,-2135,165,327,-201
1,38670,-1326,1207,-857,-828,-462,-2135,165,327,-201
1,38681,-1341,1186,-880,-289,-521,-1679,162,338,-204
1,38691,-1341,1186,-880,-289,-521,-1679,162,338,-204
1,38702,-1458,1197,-915,256,-668,-1175,162,338,-204
1,38711,-1458,1197,-915,256,-668,-1175,162,338,-204
1,38721,-1569,1224,-925,768,-908,-697,162,338,-204
1,38728,-1569,1224,-925,768,-908,-697,162,338,-204
1,38738,-1644,1226,-910,1212,-1031,-214,162,338,-204
1,38749,-1644,1226,-910,1212,-1031,-214,162,338,-204
1,38758,-1702,1260,-911,1711,-1170,-46,162,338,-204
1,38768,-1702,1260,-911,1711,-1170,-46,162,338,-204
1,38777,-1662,1350,-937,2205,-1487,-209,162,338,-204
1,38788,-1662,1350,-937,2205,-1487,-209,162,338,-204
1,38796,-1662,1350,-937,2205,-1487,-209,162,338,-204
1,38802,-1687,1445,-924,2244,-1752,-368,168,342,-210
1,38808,-1687,1445,-924,2244,-1752,-368,168,342,-210
1,38814,-1687,1445,-924,2244,-1752,-368,168,342,-210
1,38819,-1893,1465,-847,1917,-1988,-455,168,342,-210
1,38825,-1893,1465,-847,1917,-1988,-455,168,342,-210
1,38832,-1893,1465,-847,1917,-1988,-455,168,342,-210
1,38837,-2217,1425,-875,1948,-2342,-280,168,342,-210
1,38843,-2217,1425,-875,1948,-2342,-280,168,342,-210
1,38850,-2217,1425,-875,1948,-2342,-280,168,342,-210
1,38855,-2217,1425,-875,1948,-2342,-280,168,342,-210
1,38862,-2490,1331,-1027,2261,-2406,-42,168,342,-210
1,38867,-2490,1331,-1027,2261,-2406,-42,168,342,-210
1,38874,-2490,1331,-1027,2261,-2406,-42,168,342,-210
1,38880,-2372,1269,-1149,2432,-2298,-126,168,342,-210
1,38886,-2372,1269,-1149,2432,-2298,-126,168,342,-210
1,38896,-2372,1269,-1149,2432,-2298,-126,168,342,-210
1,38905,-1912,1269,-1121,2082,-2713,-974,168,342,-210
1,38916,-1912,1269,-1121,2082,-2713,-974,168,342,-210
1,38924,-1503,1125,-1042,1450,-3297,-1325,168,342,-210
1,38931,-1503,1125,-1042,1450,-3297,-1325,168,342,-210
1,38941,-1294,884,-1046,1378,-2699,-1124,173,347,-211
1,38948,-1294,884,-1046,1378,-2699,-1124,173,347,-211
1,38959,-1207,772,-1052,2121,-1353,-615,173,347,-211
1,38968,-1207,772,-1052,2121,-1353,-615,173,347,-211
1,38978,-1153,705,-944,2619,-239,176,173,347,-211
1,38989,-1153,705,-944,2619,-239,176,173,347,-211
1,38995,-1153,705,-944,2619,-239,176,173,347,-211
1,39006,-1296,648,-834,2956,-329,230,173,347,-211
1,39012,-1296,648,-834,2956,-329,230,173,347,-211
1,39023,-1574,712,-811,3625,-1002,66,173,347,-211
1,39032,-1574,712,-811,3625,-1002,66,173,347,-211
1,39043,-1814,885,-889,4207,-1604,390,173,347,-211
1,39050,-1814,885,-889,4207,-1604,390,173,347,-211
1,39059,-1767,1030,-935,3945,-2223,1028,176,338,-204
1,39069,-1767,1030,-935,3945,-2223,1028,176,338,-204
1,39078,-1703,1145,-961,2902,-2842,1740,176,338,-204
1,39089,-1703,1145,-961,2902,-2842,1740,176,338,-204
1,39096,-1703,1145,-961,2902,-2842,1740,176,338,-204
1,39106,-1460,1110,-909,1861,-2802,1902,176,338,-204
1,39116,-1460,1110,-909,1861,-2802,1902,176,338,-204
1,39127,-1282,1060,-788,1362,-2024,1663,176,338,-204
1,39134,-1282,1060,-788,1362,-2024,1663,176,338,-204
1,39144,-1169,1003,-671,1247,-1261,1350,176,338,-204
1,39152,-1169,1003,-671,1247,-1261,1350,176,338,-204
1,39161,-1164,973,-649,1350,-890,1193,176,338,-204
1,39172,-1164,973,-649,1350,-890,1193,176,338,-204
1,39183,-1245,977,-647,1757,-309,1345,181,349,-197
1,39192,-1245,977,-647,1757,-309,1345,181,349,-197
1,39199,-1405,1024,-674,2157,112,1492,181,349,-197
1,39211,-1405,1024,-674,2157,112,1492,181,349,-197
1,39218,-1497,1075,-688,2093,-46,1651,181,349,-197
1,39228,-1497,1075,-688,2093,-46,1651,181,349,-197
1,39239,-1467,1127,-679,1602,-141,1732,181,349,-197
1,39249,-1467,1127,-679,1602,-141,1732,181,349,-197
1,39259,-1423,1111,-631,1055,5,1638,181,349,-197
1,39267,-1423,1111,-631,1055,5,1638,181,349,-197
1,39276,-1423,1111,-631,1055,5,1638,181,349,-197
1,39285,-1407,1105,-576,749,168,1756,181,349,-197
