imu,time,ax,ay,az,gx,gy,gz,mx,my,mz
1,161862,-1538,1082,-563,-640,200,395,192,400,-148
1,161881,-1538,1082,-563,-640,200,395,192,400,-148
1,161886,-1504,1165,-565,-864,164,273,192,400,-148
1,161891,-1504,1165,-565,-864,164,273,192,400,-148
1,161896,-1504,1165,-565,-864,164,273,192,400,-148
1,161901,-1504,1165,-565,-864,164,273,192,400,-148
1,161907,-1409,1186,-559,-1613,-27,106,192,400,-148
1,161912,-1409,1186,-559,-1613,-27,106,192,400,-148
1,161916,-1409,1186,-559,-1613,-27,106,192,400,-148
1,161922,-1430,1144,-580,-2345,171,48,192,400,-148
1,161929,-1430,1144,-580,-2345,171,48,192,400,-148
1,161934,-1430,1144,-580,-2345,171,48,192,400,-148
1,161939,-1430,1144,-580,-2345,171,48,192,400,-148
1,161944,-1513,1107,-608,-2659,328,125,192,400,-148
1,161950,-1513,1107,-608,-2659,328,125,192,400,-148
1,161955,-1513,1107,-608,-2659,328,125,192,400,-148
1,161960,-1513,1107,-608,-2659,328,125,192,400,-148
1,161967,-1532,1103,-629,-2785,185,320,192,400,-148
1,161973,-1532,1103,-629,-2785,185,320,192,400,-148
1,161978,-1532,1103,-629,-2785,185,320,192,400,-148
1,161983,-1468,1117,-630,-3042,147,548,183,397,-145
1,161990,-1468,1117,-630,-3042,147,548,183,397,-145
1,161995,-1468,1117,-630,-3042,147,548,183,397,-145
1,162000,-1468,1117,-630,-3042,147,548,183,397,-145
1,162007,-1410,1050,-617,-3196,419,569,183,397,-145
1,162013,-1410,1050,-617,-3196,419,569,183,397,-145
1,162018,-1410,1050,-617,-3196,419,569,183,397,-145
1,162024,-1502,1053,-628,-2777,1073,645,183,397,-145
1,162030,-1502,1053,-628,-2777,1073,645,183,397,-145
1,162036,-1502,1053,-628,-2777,1073,645,183,397,-145
1,162042,-1502,1053,-628,-2777,1073,645,183,397,-145
1,162048,-1558,1038,-647,-2604,963,958,183,397,-145
1,162054,-1558,1038,-647,-2604,963,958,183,397,-145
1,162060,-1558,1038,-647,-2604,963,958,183,397,-145
1,162065,-1662,1036,-590,-2380,808,1059,183,397,-145
1,162071,-1662,1036,-590,-2380,808,1059,183,397,-145
1,162077,-1662,1036,-590,-2380,808,1059,183,397,-145
1,162082,-1750,1139,-570,-1838,334,1303,183,397,-145
1,162087,-1750,1139,-570,-1838,334,1303,183,397,-145
1,162094,-1750,1139,-570,-1838,334,1303,183,397,-145
1,162100,-1750,1139,-570,-1838,334,1303,183,397,-145
1,162106,-1721,1310,-582,-1480,-321,2068,183,397,-145
1,162111,-1721,1310,-582,-1480,-321,2068,183,397,-145
1,162117,-1721,1310,-582,-1480,-321,2068,183,397,-145
1,162123,-1749,1404,-614,-1534,-183,3005,191,385,-147
1,162128,-1749,1404,-614,-1534,-183,3005,191,385,-147
1,162135,-1749,1404,-614,-1534,-183,3005,191,385,-147
1,162140,-1749,1404,-614,-1534,-183,3005,191,385,-147
1,162146,-1822,1506,-731,-1602,480,3681,191,385,-147
1,162151,-1822,1506,-731,-1602,480,3681,191,385,-147
1,162156,-1822,1506,-731,-1602,480,3681,191,385,-147
1,162162,-1895,1451,-832,-2616,1011,3868,191,385,-147
1,162168,-1895,1451,-832,-2616,1011,3868,191,385,-147
1,162173,-1895,1451,-832,-2616,1011,3868,191,385,-147
1,162179,-1895,1451,-832,-2616,1011,3868,191,385,-147
1,162185,-2016,1286,-957,-3219,1352,3569,191,385,-147
1,162191,-2016,1286,-957,-3219,1352,3569,191,385,-147
1,162197,-2016,1286,-957,-3219,1352,3569,191,385,-147
1,162203,-2050,1244,-1056,-3048,1874,2963,191,385,-147
1,162210,-2050,1244,-1056,-3048,1874,2963,191,385,-147
1,162217,-2050,1244,-1056,-3048,1874,2963,191,385,-147
1,162225,-1914,1159,-1053,-3727,1762,1631,191,385,-147
1,162232,-1914,1159,-1053,-3727,1762,1631,191,385,-147
1,162239,-1914,1159,-1053,-3727,1762,1631,191,385,-147
1,162247,-1636,1016,-972,-4449,1206,60,189,387,-155
1,162252,-1636,1016,-972,-4449,1206,60,189,387,-155
1,162260,-1636,1016,-972,-4449,1206,60,189,387,-155
1,162269,-1464,1008,-921,-4448,833,-591,189,387,-155
1,162275,-1464,1008,-921,-4448,833,-591,189,387,-155
1,162281,-1464,1008,-921,-4448,833,-591,189,387,-155
1,162287,-1383,991,-984,-4748,-139,-418,189,387,-155
1,162293,-1383,991,-984,-4748,-139,-418,189,387,-155
1,162299,-1383,991,-984,-4748,-139,-418,189,387,-155
1,162308,-1624,1011,-1083,-4500,-417,-423,189,387,-155
1,162316,-1624,1011,-1083,-4500,-417,-423,189,387,-155
1,162322,-1927,1075,-1230,-3849,-276,-737,189,387,-155
1,162329,-1927,1075,-1230,-3849,-276,-737,189,387,-155
1,162336,-1927,1075,-1230,-3849,-276,-737,189,387,-155
1,162343,-1997,1139,-1265,-3309,-74,-1106,189,387,-155
1,162350,-1997,1139,-1265,-3309,-74,-1106,189,387,-155
1,162357,-1997,1139,-1265,-3309,-74,-1106,189,387,-155
1,162363,-1820,1111,-1090,-3537,-196,-1165,197,375,-157
1,162370,-1820,1111,-1090,-3537,-196,-1165,197,375,-157
1,162376,-1820,1111,-1090,-3537,-196,-1165,197,375,-157
1,162383,-1677,1059,-915,-3719,-716,-963,197,375,-157
1,162391,-1677,1059,-915,-3719,-716,-963,197,375,-157
1,162398,-1677,1059,-915,-3719,-716,-963,197,375,-157
1,162404,-1592,1109,-839,-3128,-1010,-662,197,375,-157
1,162411,-1592,1109,-839,-3128,-1010,-662,197,375,-157
1,162419,-1592,1109,-839,-3128,-1010,-662,197,375,-157
1,162426,-1451,1188,-834,-2407,-1083,-646,197,375,-157
1,162433,-1451,1188,-834,-2407,-1083,-646,197,375,-157
1,162440,-1451,1188,-834,-2407,-1083,-646,197,375,-157
1,162447,-1333,1210,-820,-1924,-915,-1114,197,375,-157
1,162454,-1333,1210,-820,-1924,-915,-1114,197,375,-157
1,162461,-1333,1210,-820,-1924,-915,-1114,197,375,-157
1,162467,-1280,1198,-824,-1859,-796,-1515,197,375,-157
1,162476,-1280,1198,-824,-1859,-796,-1515,197,375,-157
1,162482,-1280,1198,-824,-1859,-796,-1515,197,375,-157
1,162488,-1266,1166,-824,-2090,-919,-1662,207,379,-163
1,162494,-1266,1166,-824,-2090,-919,-1662,207,379,-163
1,162502,-1266,1166,-824,-2090,-919,-1662,207,379,-163
1,162509,-1250,1133,-812,-2206,-923,-1717,207,379,-163
1,162515,-1250,1133,-812,-2206,-923,-1717,207,379,-163
1,162524,-1241,1109,-786,-2069,-754,-1582,207,379,-163
1,162532,-1241,1109,-786,-2069,-754,-1582,207,379,-163
1,162538,-1241,1109,-786,-2069,-754,-1582,207,379,-163
1,162545,-1256,1095,-757,-1824,-697,-1433,207,379,-163
1,162552,-1256,1095,-757,-1824,-697,-1433,207,379,-163
1,162560,-1256,1095,-757,-1824,-697,-1433,207,379,-163
1,162567,-1281,1110,-765,-1506,-700,-1413,207,379,-163
1,162575,-1281,1110,-765,-1506,-700,-1413,207,379,-163
1,162582,-1281,1150,-759,-1161,-624,-1395,207,379,-163
1,162588,-1281,1150,-759,-1161,-624,-1395,207,379,-163
1,162594,-1281,1150,-759,-1161,-624,-1395,207,379,-163
1,162601,-1281,1150,-759,-1161,-624,-1395,207,379,-163
1,162609,-1264,1173,-746,-1062,-550,-1353,207,379,-163
1,162617,-1264,1173,-746,-1062,-550,-1353,207,379,-163
1,162625,-1303,1162,-740,-925,-602,-1194,216,382,-162
1,162632,-1303,1162,-740,-925,-602,-1194,216,382,-162
1,162637,-1303,1162,-740,-925,-602,-1194,216,382,-162
1,162644,-1407,1160,-784,-567,-545,-1020,216,382,-162
1,162651,-1407,1160,-784,-567,-545,-1020,216,382,-162
1,162658,-1407,1160,-784,-567,-545,-1020,216,382,-162
1,162664,-1495,1186,-805,-254,-441,-876,216,382,-162
1,162669,-1495,1186,-805,-254,-441,-876,216,382,-162
1,162676,-1495,1186,-805,-254,-441,-876,216,382,-162
1,162683,-1538,1217,-789,-126,-493,-913,216,382,-162
1,162692,-1538,1217,-789,-126,-493,-913,216,382,-162
1,162698,-1538,1217,-789,-126,-493,-913,216,382,-162
1,162705,-1608,1211,-730,42,-653,-1057,216,382,-162
1,162712,-1608,1211,-730,42,-653,-1057,216,382,-162
1,162720,-1608,1211,-730,42,-653,-1057,216,382,-162
1,162727,-1672,1297,-756,499,-738,-1067,216,382,-162
1,162734,-1672,1297,-756,499,-738,-1067,216,382,-162
1,162742,-1672,1297,-756,499,-738,-1067,216,382,-162
1,162749,-1718,1391,-733,558,-580,-1008,213,385,-167
1,162755,-1718,1391,-733,558,-580,-1008,213,385,-167
1,162762,-1856,1366,-710,322,-687,-998,213,385,-167
1,162770,-1856,1366,-710,322,-687,-998,213,385,-167
1,162778,-1856,1366,-710,322,-687,-998,213,385,-167
1,162785,-1992,1324,-690,517,-1350,-344,213,385,-167
1,162792,-1992,1324,-690,517,-1350,-344,213,385,-167
1,162799,-1992,1324,-690,517,-1350,-344,213,385,-167
1,162804,-2094,1267,-786,982,-2079,1135,213,385,-167
1,162809,-2094,1267,-786,982,-2079,1135,213,385,-167
1,162814,-2094,1267,-786,982,-2079,1135,213,385,-167
1,162820,-2094,1267,-786,982,-2079,1135,213,385,-167
1,162825,-2124,1291,-842,1330,-2436,2336,213,385,-167
1,162830,-2124,1291,-842,1330,-2436,2336,213,385,-167
1,162835,-2124,1291,-842,1330,-2436,2336,213,385,-167
1,162841,-2124,1291,-842,1330,-2436,2336,213,385,-167
1,162846,-2069,1173,-869,867,-2795,2513,213,385,-167
1,162851,-2069,1173,-869,867,-2795,2513,213,385,-167
1,162859,-2069,1173,-869,867,-2795,2513,213,385,-167
1,162865,-2087,1014,-945,1056,-2696,2207,215,377,-163
1,162871,-2087,1014,-945,1056,-2696,2207,215,377,-163
1,162876,-2087,1014,-945,1056,-2696,2207,215,377,-163
1,162881,-2087,1014,-945,1056,-2696,2207,215,377,-163
1,162886,-1961,1051,-964,1648,-2389,1431,215,377,-163
1,162891,-1961,1051,-964,1648,-2389,1431,215,377,-163
1,162897,-1961,1051,-964,1648,-2389,1431,215,377,-163
1,162903,-1593,978,-920,943,-2629,578,215,377,-163
1,162908,-1593,978,-920,943,-2629,578,215,377,-163
1,162914,-1593,978,-920,943,-2629,578,215,377,-163
1,162919,-1593,978,-920,943,-2629,578,215,377,-163
1,162924,-1294,814,-843,109,-2566,-31,215,377,-163
1,162930,-1294,814,-843,109,-2566,-31,215,377,-163
1,162935,-1294,814,-843,109,-2566,-31,215,377,-163
1,162941,-1294,814,-843,109,-2566,-31,215,377,-163
1,162949,-1256,669,-823,166,-1775,-287,215,377,-163
1,162954,-1256,669,-823,166,-1775,-287,215,377,-163
1,162962,-1256,669,-823,166,-1775,-287,215,377,-163
1,162969,-1426,663,-831,1202,-921,-156,215,377,-163
1,162976,-1426,663,-831,1202,-921,-156,215,377,-163
1,162983,-1624,809,-820,2472,-317,77,210,386,-160
1,162991,-1624,809,-820,2472,-317,77,210,386,-160
1,162998,-1624,809,-820,2472,-317,77,210,386,-160
1,163003,-1724,984,-825,3008,-243,203,210,386,-160
1,163011,-1724,984,-825,3008,-243,203,210,386,-160
1,163018,-1724,984,-825,3008,-243,203,210,386,-160
1,163024,-1752,1022,-786,2691,-524,337,210,386,-160
1,163032,-1752,1022,-786,2691,-524,337,210,386,-160
1,163037,-1752,1022,-786,2691,-524,337,210,386,-160
1,163046,-1727,1011,-749,2380,-729,531,210,386,-160
1,163053,-1727,1011,-749,2380,-729,531,210,386,-160
1,163060,-1727,1011,-749,2380,-729,531,210,386,-160
1,163067,-1575,1077,-721,2329,-945,704,210,386,-160
1,163074,-1575,1077,-721,2329,-945,704,210,386,-160
1,163081,-1575,1077,-721,2329,-945,704,210,386,-160
1,163087,-1416,1055,-658,1912,-1077,647,210,386,-160
1,163095,-1416,1055,-658,1912,-1077,647,210,386,-160
1,163102,-1348,972,-603,1595,-978,523,211,386,-160
1,163110,-1348,972,-603,1595,-978,523,211,383,-153
1,163118,-1348,972,-603,1595,-978,523,211,383,-153
1,163123,-1368,958,-600,1740,-740,473,211,383,-153
1,163130,-1368,958,-600,1740,-740,473,211,383,-153
1,163138,-1368,958,-600,1740,-740,473,211,383,-153
1,163144,-1393,1001,-607,1996,-690,587,211,383,-153
1,163151,-1393,1001,-607,1996,-690,587,211,383,-153
1,163158,-1393,1001,-607,1996,-690,587,211,383,-153
1,163164,-1409,1065,-590,2035,-708,646,211,383,-153
1,163171,-1409,1065,-590,2035,-708,646,211,383,-153
1,163179,-1409,1065,-590,2035,-708,646,211,383,-153
1,163186,-1337,1095,-584,1713,-665,556,211,383,-153
1,163194,-1337,1095,-584,1713,-665,556,211,383,-153
1,163201,-1337,1095,-584,1713,-665,556,211,383,-153
1,163207,-1288,1075,-551,1059,-249,530,211,383,-153
1,163214,-1288,1075,-551,1059,-249,530,211,383,-153
1,163221,-1288,1075,-551,1059,-249,530,211,383,-153
1,163228,-1246,996,-520,391,-48,652,211,383,-153
1,163236,-1246,996,-520,391,-48,652,211,383,-153
1,163244,-1330,991,-523,477,395,606,210,376,-156
1,163250,-1330,991,-523,477,395,606,210,376,-156
1,163257,-1330,991,-523,477,395,606,210,376,-156
1,163264,-1440,1081,-539,714,485,682,210,376,-156
1,163270,-1440,1081,-539,714,485,682,210,376,-156
1,163278,-1440,1081,-539,714,485,682,210,376,-156
1,163286,-1502,1154,-530,613,170,862,210,376,-156
1,163293,-1502,1154,-530,613,170,862,210,376,-156
1,163300,-1502,1154,-530,613,170,862,210,376,-156
1,163305,-1547,1209,-544,378,-45,1203,210,376,-156
1,163312,-1547,1209,-544,378,-45,1203,210,376,-156
1,163320,-1547,1209,-544,378,-45,1203,210,376,-156
1,163329,-1510,1234,-560,-156,-264,1528,210,376,-156
1,163336,-1510,1234,-560,-156,-264,1528,210,376,-156
1,163342,-1510,1234,-560,-156,-264,1528,210,376,-156
1,163349,-1426,1219,-590,-679,-145,1574,210,376,-156
1,163357,-1426,1219,-590,-679,-145,1574,210,376,-156
1,163364,-1410,1150,-607,-934,155,1340,204,368,-164
1,163371,-1410,1150,-607,-934,155,1340,204,368,-164
1,163379,-1410,1150,-607,-934,155,1340,204,368,-164
1,163385,-1497,1122,-584,-517,1354,522,204,368,-164
1,163392,-1497,1122,-584,-517,1354,522,204,368,-164
1,163399,-1497,1122,-584,-517,1354,522,204,368,-164
1,163407,-1677,1177,-504,-112,1780,80,204,368,-164
1,163414,-1677,1177,-504,-112,1780,80,204,368,-164
1,163421,-1677,1177,-504,-112,1780,80,204,368,-164
1,163426,-1766,1281,-434,-151,762,183,204,368,-164
1,163432,-1766,1281,-434,-151,762,183,204,368,-164
1,163439,-1766,1281,-434,-151,762,183,204,368,-164
1,163447,-1787,1470,-458,-108,59,742,204,368,-164
1,163454,-1787,1470,-458,-108,59,742,204,368,-164
1,163460,-1787,1470,-458,-108,59,742,204,368,-164
1,163465,-1802,1579,-536,-703,-249,1715,204,368,-164
1,163471,-1802,1579,-536,-703,-249,1715,204,368,-164
1,163476,-1802,1579,-536,-703,-249,1715,204,368,-164
1,163482,-1880,1570,-659,-1804,-58,2797,204,368,-164
1,163489,-1880,1570,-659,-1804,-58,2797,201,371,-171
1,163496,-1880,1570,-659,-1804,-58,2797,201,371,-171
1,163505,-1941,1506,-768,-2923,679,2774,201,371,-171
1,163512,-1941,1506,-768,-2923,679,2774,201,371,-171
1,163519,-1941,1506,-768,-2923,679,2774,201,371,-171
1,163526,-2133,1265,-900,-3743,1507,1870,201,371,-171
1,163533,-2133,1265,-900,-3743,1507,1870,201,371,-171
1,163539,-2133,1265,-900,-3743,1507,1870,201,371,-171
1,163548,-2153,1288,-1051,-2861,1948,794,201,371,-171
1,163556,-2153,1288,-1051,-2861,1948,794,201,371,-171
1,163562,-2153,1288,-1051,-2861,1948,794,201,371,-171
1,163569,-1922,1362,-1076,-2842,1752,-618,201,371,-171
1,163577,-1922,1362,-1076,-2842,1752,-618,201,371,-171
1,163582,-1612,1224,-1068,-3972,1424,-1746,201,371,-171
1,163590,-1612,1224,-1068,-3972,1424,-1746,201,371,-171
1,163598,-1612,1224,-1068,-3972,1424,-1746,201,371,-171
1,163604,-1590,1200,-1045,-4540,1560,-1897,191,361,-181
1,163609,-1590,1200,-1045,-4540,1560,-1897,191,361,-181
1,163617,-1590,1200,-1045,-4540,1560,-1897,191,361,-181
1,163625,-1502,1133,-1094,-5679,198,-1527,191,361,-181
1,163634,-1502,1133,-1094,-5679,198,-1527,191,361,-181
1,163640,-1502,1133,-1094,-5679,198,-1527,191,361,-181
1,163646,-1586,1016,-1121,-6370,-723,-1547,191,361,-181
1,163653,-1586,1016,-1121,-6370,-723,-1547,191,361,-181
1,163659,-1586,1016,-1121,-6370,-723,-1547,191,361,-181
1,163666,-1797,1091,-1198,-5626,-811,-1796,191,361,-181
1,163674,-1797,1091,-1198,-5626,-811,-1796,191,361,-181
1,163679,-1797,1091,-1198,-5626,-811,-1796,191,361,-181
1,163686,-1798,1236,-1229,-5018,-313,-1983,191,361,-181
1,163693,-1798,1236,-1229,-5018,-313,-1983,191,361,-181
1,163701,-1798,1236,-1229,-5018,-313,-1983,191,361,-181
1,163707,-1694,1168,-1146,-5374,461,-1967,191,361,-181
1,163716,-1694,1168,-1146,-5374,461,-1967,191,361,-181
1,163724,-1632,1127,-1037,-5587,358,-1635,191,361,-181
1,163731,-1632,1127,-1037,-5587,358,-1635,191,361,-181
1,163737,-1632,1127,-1037,-5587,358,-1635,191,361,-181
1,163743,-1519,1167,-944,-5419,-342,-1347,192,360,-186
1,163751,-1519,1167,-944,-5419,-342,-1347,192,360,-186
1,163758,-1519,1167,-944,-5419,-342,-1347,192,360,-186
1,163765,-1343,1246,-925,-5035,-615,-1097,192,360,-186
1,163773,-1343,1246,-925,-5035,-615,-1097,192,360,-186
1,163780,-1343,1246,-925,-5035,-615,-1097,192,360,-186
1,163788,-1227,1326,-927,-4882,-539,-734,192,360,-186
1,163794,-1227,1326,-927,-4882,-539,-734,192,360,-186
1,163802,-1227,1326,-927,-4882,-539,-734,192,360,-186
1,163807,-1163,1303,-941,-5456,-608,-466,192,360,-186
1,163812,-1163,1303,-941,-5456,-608,-466,192,360,-186
1,163817,-1163,1303,-941,-5456,-608,-466,192,360,-186
1,163822,-1163,1303,-941,-5456,-608,-466,192,360,-186
1,163827,-1175,1223,-953,-5916,-397,-530,192,360,-186
1,163832,-1175,1223,-953,-5916,-397,-530,192,360,-186
1,163837,-1175,1223,-953,-5916,-397,-530,192,360,-186
1,163843,-1221,1165,-953,-5833,70,-783,192,360,-186
1,163851,-1221,1165,-953,-5833,70,-783,192,360,-186
1,163857,-1221,1165,-953,-5833,70,-783,192,360,-186
1,163864,-1267,1124,-943,-5434,400,-1087,190,364,-178
1,163869,-1267,1124,-943,-5434,400,-1087,190,364,-178
1,163874,-1267,1124,-943,-5434,400,-1087,190,364,-178
1,163879,-1267,1124,-943,-5434,400,-1087,190,364,-178
1,163885,-1323,1095,-915,-4982,323,-1180,190,364,-178
1,163890,-1323,1095,-915,-4982,323,-1180,190,364,-178
1,163895,-1323,1095,-915,-4982,323,-1180,190,364,-178
1,163901,-1323,1095,-915,-4982,323,-1180,190,364,-178
1,163906,-1372,1142,-905,-4350,-40,-993,190,364,-178
1,163911,-1372,1142,-905,-4350,-40,-993,190,364,-178
1,163917,-1372,1142,-905,-4350,-40,-993,190,364,-178
1,163923,-1395,1254,-888,-3768,-362,-751,190,364,-178
1,163930,-1395,1254,-888,-3768,-362,-751,190,364,-178
1,163936,-1395,1254,-888,-3768,-362,-751,190,364,-178
1,163941,-1395,1254,-888,-3768,-362,-751,190,364,-178
1,163947,-1376,1326,-873,-3631,-497,-637,190,364,-178
1,163953,-1376,1326,-873,-3631,-497,-637,190,364,-178
1,163959,-1376,1326,-873,-3631,-497,-637,190,364,-178
1,163964,-1355,1327,-840,-3819,-630,-660,190,364,-178
1,163971,-1355,1327,-840,-3819,-630,-660,190,364,-178
1,163976,-1355,1327,-840,-3819,-630,-660,190,364,-178
1,163982,-1355,1327,-840,-3819,-630,-660,190,364,-178
1,163988,-1357,1316,-815,-3919,-690,-723,184,348,-184
1,163993,-1357,1316,-815,-3919,-690,-723,184,348,-184
1,163999,-1357,1316,-815,-3919,-690,-723,184,348,-184
1,164004,-1387,1292,-815,-3903,-497,-769,184,348,-184
1,164011,-1387,1292,-815,-3903,-497,-769,184,348,-184
1,164017,-1387,1292,-815,-3903,-497,-769,184,348,-184
1,164022,-1387,1292,-815,-3903,-497,-769,184,348,-184
1,164028,-1459,1253,-832,-3640,-111,-1015,184,348,-184
1,164034,-1459,1253,-832,-3640,-111,-1015,184,348,-184
1,164040,-1459,1253,-832,-3640,-111,-1015,184,348,-184
1,164046,-1538,1226,-802,-3175,46,-1449,184,348,-184
1,164051,-1538,1226,-802,-3175,46,-1449,184,348,-184
1,164058,-1538,1226,-802,-3175,46,-1449,184,348,-184
1,164064,-1591,1216,-747,-2497,-214,-1845,184,348,-184
1,164070,-1591,1216,-747,-2497,-214,-1845,184,348,-184
1,164076,-1591,1216,-747,-2497,-214,-1845,184,348,-184
1,164083,-1641,1282,-727,-1727,-506,-1903,184,348,-184
1,164090,-1641,1282,-727,-1727,-506,-1903,184,348,-184
1,164097,-1641,1282,-727,-1727,-506,-1903,184,348,-184
1,164103,-1633,1419,-677,-1033,-803,-1692,188,352,-176
1,164110,-1633,1419,-677,-1033,-803,-1692,188,352,-176
1,164118,-1633,1419,-677,-1033,-803,-1692,188,352,-176
1,164125,-1595,1531,-657,-873,-973,-1326,188,352,-176
1,164131,-1595,1531,-657,-873,-973,-1326,188,352,-176
1,164139,-1595,1531,-657,-873,-973,-1326,188,352,-176
1,164145,-1594,1538,-682,-1178,-896,-945,188,352,-176
1,164152,-1594,1538,-682,-1178,-896,-945,188,352,-176
1,164159,-1594,1538,-682,-1178,-896,-945,188,352,-176
1,164166,-1648,1482,-766,-1423,-830,-329,188,352,-176
1,164173,-1648,1482,-766,-1423,-830,-329,188,352,-176
1,164180,-1648,1482,-766,-1423,-830,-329,188,352,-176
1,164188,-1792,1370,-833,-1503,-719,397,188,352,-176
1,164193,-1792,1370,-833,-1503,-719,397,188,352,-176
1,164202,-1792,1370,-833,-1503,-719,397,188,352,-176
1,164209,-2071,1204,-915,-1193,-433,620,188,352,-176
1,164217,-2071,1204,-915,-1193,-433,620,188,352,-176
1,164224,-2325,1069,-1036,-185,217,-164,185,355,-179
1,164231,-2325,1069,-1036,-185,217,-164,185,355,-179
1,164238,-2325,1069,-1036,-185,217,-164,185,355,-179
1,164244,-2297,1110,-1107,1194,1325,-1450,185,355,-179
1,164252,-2297,1110,-1107,1194,1325,-1450,185,355,-179
1,164258,-2297,1110,-1107,1194,1325,-1450,185,355,-179
1,164264,-1913,1069,-1003,636,1227,-2139,185,355,-179
1,164273,-1913,1069,-1003,636,1227,-2139,185,355,-179
1,164280,-1913,1069,-1003,636,1227,-2139,185,355,-179
1,164288,-1518,901,-977,-911,20,-2181,185,355,-179
1,164296,-1518,901,-977,-911,20,-2181,185,355,-179
1,164303,-1260,687,-943,-1451,-857,-1497,185,355,-179
1,164311,-1260,687,-943,-1451,-857,-1497,185,355,-179
1,164319,-1260,687,-943,-1451,-857,-1497,185,355,-179
1,164325,-1286,516,-933,-798,-780,-396,185,355,-179
1,164333,-1286,516,-933,-798,-780,-396,185,355,-179
1,164339,-1286,516,-933,-798,-780,-396,185,355,-179
1,164346,-1548,564,-899,853,-309,551,185,355,-179
1,164354,-1548,564,-899,853,-309,551,185,355,-179
1,164360,-1548,564,-899,853,-309,551,185,355,-179
1,164367,-1788,799,-897,2203,-183,1044,183,353,-173
1,164374,-1788,799,-897,2203,-183,1044,183,353,-173
1,164381,-1788,799,-897,2203,-183,1044,183,353,-173
1,164388,-1804,978,-899,2238,-368,1322,183,353,-173
1,164397,-1804,978,-899,2238,-368,1322,183,353,-173
1,164404,-1781,1006,-924,1513,-372,1630,183,353,-173
1,164410,-1781,1006,-924,1513,-372,1630,183,353,-173
1,164416,-1781,1006,-924,1513,-372,1630,183,353,-173
1,164422,-1781,1006,-924,1513,-372,1630,183,353,-173
1,164428,-1675,1070,-892,971,-915,1700,183,353,-173
1,164435,-1675,1070,-892,971,-915,1700,183,353,-173
1,164443,-1675,1070,-892,971,-915,1700,183,353,-173
1,164450,-1458,1087,-794,241,-1657,1374,183,353,-173
1,164456,-1458,1087,-794,241,-1657,1374,183,353,-173
1,164461,-1458,1087,-794,241,-1657,1374,183,353,-173
1,164469,-1266,989,-701,-456,-1737,1211,183,353,-173
1,164477,-1266,989,-701,-456,-1737,1211,183,353,-173
1,164485,-1247,925,-655,-576,-1338,1315,182,338,-172
1,164492,-1247,925,-655,-576,-1338,1315,182,338,-172
1,164498,-1247,925,-655,-576,-1338,1315,182,338,-172
1,164506,-1304,917,-647,-348,-1113,1495,182,338,-172
1,164513,-1304,917,-647,-348,-1113,1495,182,338,-172
1,164519,-1304,917,-647,-348,-1113,1495,182,338,-172
1,164526,-1345,1001,-649,169,-962,1379,182,338,-172
1,164533,-1345,1001,-649,169,-962,1379,182,338,-172
1,164540,-1345,1001,-649,169,-962,1379,182,338,-172
1,164545,-1320,1073,-618,135,-768,998,182,338,-172
1,164553,-1320,1073,-618,135,-768,998,182,338,-172
1,164560,-1320,1073,-618,135,-768,998,182,338,-172
1,164568,-1303,1068,-587,-532,-536,602,182,338,-172
1,164576,-1303,1068,-587,-532,-536,602,182,338,-172
1,164581,-1303,1068,-587,-532,-536,602,182,338,-172
1,164587,-1338,1017,-581,-903,36,296,182,338,-172
1,164594,-1338,1017,-581,-903,36,296,182,338,-172
1,164603,-1459,1058,-597,-719,752,329,182,338,-172
1,164611,-1459,1058,-597,-719,752,329,185,331,-167
1,164617,-1459,1058,-597,-719,752,329,185,331,-167
1,164624,-1480,1128,-590,-776,472,314,185,331,-167
1,164631,-1480,1128,-590,-776,472,314,185,331,-167
1,164638,-1480,1128,-590,-776,472,314,185,331,-167
1,164645,-1415,1153,-575,-1104,287,85,185,331,-167
1,164654,-1415,1153,-575,-1104,287,85,185,331,-167
1,164661,-1415,1153,-575,-1104,287,85,185,331,-167
1,164668,-1456,1160,-586,-1348,524,318,185,331,-167
1,164676,-1456,1160,-586,-1348,524,318,185,331,-167
1,164683,-1508,1191,-605,-1429,325,408,185,331,-167
1,164689,-1508,1191,-605,-1429,325,408,185,331,-167
1,164696,-1508,1191,-605,-1429,325,408,185,331,-167
1,164704,-1513,1253,-635,-1327,216,500,185,331,-167
1,164711,-1513,1253,-635,-1327,216,500,185,331,-167
1,164718,-1513,1253,-635,-1327,216,500,185,331,-167
1,164725,-1495,1272,-634,-1537,555,525,185,321,-181
1,164732,-1495,1272,-634,-1537,555,525,185,321,-181
1,164740,-1495,1272,-634,-1537,555,525,185,321,-181
1,164746,-1466,1246,-634,-2073,962,345,185,321,-181
1,164754,-1466,1246,-634,-2073,962,345,185,321,-181
1,164762,-1466,1246,-634,-2073,962,345,185,321,-181
1,164769,-1497,1224,-627,-2426,1371,207,185,321,-181
1,164776,-1497,1224,-627,-2426,1371,207,185,321,-181
1,164784,-1591,1241,-594,-2527,1487,180,185,321,-181
1,164791,-1591,1241,-594,-2527,1487,180,185,321,-181
1,164796,-1591,1241,-594,-2527,1487,180,185,321,-181
1,164802,-1591,1241,-594,-2527,1487,180,185,321,-181
1,164807,-1696,1312,-558,-2446,1199,292,185,321,-181
1,164812,-1696,1312,-558,-2446,1199,292,185,321,-181
1,164818,-1696,1312,-558,-2446,1199,292,185,321,-181
1,164824,-1728,1441,-551,-2379,379,900,185,321,-181
1,164829,-1728,1441,-551,-2379,379,900,185,321,-181
1,164834,-1728,1441,-551,-2379,379,900,185,321,-181
1,164839,-1728,1441,-551,-2379,379,900,185,321,-181
1,164844,-1672,1576,-577,-2751,-57,1947,185,321,-181
1,164852,-1672,1576,-577,-2751,-57,1947,185,321,-181
1,164858,-1672,1576,-577,-2751,-57,1947,185,321,-181
1,164864,-1725,1641,-689,-3385,611,3270,171,317,-185
1,164871,-1725,1641,-689,-3385,611,3270,171,317,-185
1,164878,-1725,1641,-689,-3385,611,3270,171,317,-185
1,164884,-1880,1653,-856,-3900,1624,3951,171,317,-185
1,164890,-1880,1653,-856,-3900,1624,3951,171,317,-185
1,164896,-1880,1653,-856,-3900,1624,3951,171,317,-185
1,164904,-2085,1541,-1018,-4677,2542,3650,171,317,-185
1,164912,-2085,1541,-1018,-4677,2542,3650,171,317,-185
1,164917,-2085,1541,-1018,-4677,2542,3650,171,317,-185
1,164925,-2209,1363,-1226,-5079,3312,2804,171,317,-185
1,164933,-2209,1363,-1226,-5079,3312,2804,171,317,-185
1,164940,-2209,1363,-1226,-5079,3312,2804,171,317,-185
1,164946,-2091,1175,-1255,-5874,3104,958,171,317,-185
1,164955,-2091,1175,-1255,-5874,3104,958,171,317,-185
1,164962,-2091,1175,-1255,-5874,3104,958,171,317,-185
1,164970,-1683,982,-1074,-6560,2450,-1264,171,317,-185
1,164977,-1683,982,-1074,-6560,2450,-1264,171,317,-185
1,164984,-1477,989,-933,-5981,1871,-1748,170,310,-194
1,164990,-1477,989,-933,-5981,1871,-1748,170,310,-194
1,164999,-1477,989,-933,-5981,1871,-1748,170,310,-194
1,165005,-1324,1064,-950,-5880,386,-1068,170,310,-194
1,165012,-1324,1064,-950,-5880,386,-1068,170,310,-194
1,165020,-1324,1064,-950,-5880,386,-1068,170,310,-194
1,165027,-1410,1085,-1051,-6202,-474,-869,170,310,-194
1,165033,-1410,1085,-1051,-6202,-474,-869,170,310,-194
1,165041,-1410,1085,-1051,-6202,-474,-869,170,310,-194
1,165050,-1773,1104,-1191,-5845,-356,-1218,170,310,-194
1,165056,-1773,1104,-1191,-5845,-356,-1218,170,310,-194
1,165063,-1994,1129,-1308,-5226,-2,-1586,170,310,-194
1,165070,-1994,1129,-1308,-5226,-2,-1586,170,310,-194
1,165078,-1994,1129,-1308,-5226,-2,-1586,170,310,-194
1,165084,-1902,1143,-1257,-4908,584,-1974,170,310,-194
1,165091,-1902,1143,-1257,-4908,584,-1974,170,310,-194
1,165098,-1902,1143,-1257,-4908,584,-1974,170,310,-194
1,165106,-1679,1147,-1062,-5060,435,-2041,170,302,-184
1,165112,-1679,1147,-1062,-5060,435,-2041,170,302,-184
1,165120,-1679,1147,-1062,-5060,435,-2041,170,302,-184
1,165127,-1534,1168,-923,-5217,-213,-1820,170,302,-184
1,165132,-1534,1168,-923,-5217,-213,-1820,170,302,-184
1,165139,-1534,1168,-923,-5217,-213,-1820,170,302,-184
1,165147,-1460,1188,-908,-4948,-591,-1555,170,302,-184
1,165154,-1460,1188,-908,-4948,-591,-1555,170,302,-184
1,165161,-1460,1188,-908,-4948,-591,-1555,170,302,-184
1,165169,-1362,1190,-920,-4369,-683,-1591,170,302,-184
1,165175,-1362,1190,-920,-4369,-683,-1591,170,302,-184
1,165181,-1362,1190,-920,-4369,-683,-1591,170,302,-184
1,165189,-1242,1201,-882,-3851,-565,-1591,170,302,-184
1,165196,-1242,1201,-882,-3851,-565,-1591,170,302,-184
1,165202,-1242,1201,-882,-3851,-565,-1591,170,302,-184
1,165209,-1214,1200,-882,-3813,-484,-1447,170,302,-184
1,165215,-1214,1200,-882,-3813,-484,-1447,170,302,-184
1,165221,-1214,1200,-882,-3813,-484,-1447,170,302,-184
1,165228,-1169,1143,-878,-4016,-649,-1459,170,296,-186
1,165233,-1169,1143,-878,-4016,-649,-1459,170,296,-186
1,165240,-1169,1143,-878,-4016,-649,-1459,170,296,-186
1,165246,-1182,1105,-881,-3703,-381,-1652,170,296,-186
1,165252,-1182,1105,-881,-3703,-381,-1652,170,296,-186
1,165260,-1182,1105,-881,-3703,-381,-1652,170,296,-186
1,165267,-1265,1126,-886,-2873,114,-1804,170,296,-186
1,165274,-1265,1126,-886,-2873,114,-1804,170,296,-186
1,165280,-1265,1126,-886,-2873,114,-1804,170,296,-186
1,165286,-1323,1139,-896,-2292,213,-1774,170,296,-186
1,165294,-1323,1139,-896,-2292,213,-1774,170,296,-186
1,165299,-1323,1139,-896,-2292,213,-1774,170,296,-186
1,165306,-1320,1174,-889,-1973,92,-1567,170,296,-186
1,165314,-1320,1174,-889,-1973,92,-1567,170,296,-186
1,165321,-1320,1174,-889,-1973,92,-1567,170,296,-186
1,165328,-1318,1209,-839,-1772,-109,-1373,170,296,-186
1,165337,-1318,1209,-839,-1772,-109,-1373,170,296,-186
1,165343,-1318,1209,-839,-1772,-109,-1373,170,296,-186
1,165349,-1338,1228,-790,-1577,-371,-1181,152,290,-198
1,165356,-1338,1228,-790,-1577,-371,-1181,152,290,-198
1,165363,-1420,1232,-792,-1333,-494,-785,152,290,-198
1,165369,-1420,1232,-792,-1333,-494,-785,152,290,-198
1,165376,-1420,1232,-792,-1333,-494,-785,152,290,-198
1,165383,-1420,1232,-792,-1333,-494,-785,152,290,-198
1,165391,-1525,1251,-826,-1003,-532,-461,152,290,-198
1,165396,-1525,1251,-826,-1003,-532,-461,152,290,-198
1,165403,-1558,1278,-837,-730,-672,-390,152,290,-198
1,165410,-1558,1278,-837,-730,-672,-390,152,290,-198
1,165419,-1558,1278,-837,-730,-672,-390,152,290,-198
1,165426,-1562,1273,-790,-605,-760,-539,152,290,-198
1,165432,-1562,1273,-790,-605,-760,-539,152,290,-198
1,165439,-1562,1273,-790,-605,-760,-539,152,290,-198
1,165445,-1591,1287,-765,-345,-847,-662,152,290,-198
1,165451,-1591,1287,-765,-345,-847,-662,152,290,-198
1,165458,-1591,1287,-765,-345,-847,-662,152,290,-198
1,165466,-1578,1329,-776,-96,-960,-653,152,290,-198
1,165473,-1578,1329,-776,-96,-960,-653,152,290,-198
1,165481,-1578,1329,-776,-96,-960,-653,152,290,-198
1,165488,-1602,1326,-741,-104,-1009,-645,169,277,-189
1,165495,-1602,1326,-741,-104,-1009,-645,169,277,-189
1,165501,-1602,1326,-741,-104,-1009,-645,169,277,-189
1,165509,-1718,1295,-733,69,-1301,-519,169,277,-189
1,165516,-1718,1295,-733,69,-1301,-519,169,277,-189
1,165522,-1718,1295,-733,69,-1301,-519,169,277,-189
1,165529,-1838,1305,-765,669,-1751,179,169,277,-189
1,165536,-1838,1305,-765,669,-1751,179,169,277,-189
1,165543,-1964,1338,-844,1459,-1920,1195,169,277,-189
1,165551,-1964,1338,-844,1459,-1920,1195,169,277,-189
1,165558,-1964,1338,-844,1459,-1920,1195,169,277,-189
1,165565,-2044,1415,-899,2057,-1866,1851,169,277,-189
1,165570,-2044,1415,-899,2057,-1866,1851,169,277,-189
1,165576,-2044,1415,-899,2057,-1866,1851,169,277,-189
1,165585,-2033,1347,-927,1749,-1852,1637,169,277,-189
1,165593,-2033,1347,-927,1749,-1852,1637,169,277,-189
1,165600,-2033,1347,-927,1749,-1852,1637,169,277,-189
1,165608,-2022,1199,-988,1633,-1620,990,172,274,-180
1,165614,-2022,1199,-988,1633,-1620,990,172,274,-180
1,165620,-2022,1199,-988,1633,-1620,990,172,274,-180
1,165628,-1840,1145,-953,1532,-1916,323,172,274,-180
1,165636,-1840,1145,-953,1532,-1916,323,172,274,-180
1,165644,-1632,968,-936,950,-2733,21,172,274,-180
1,165650,-1632,968,-936,950,-2733,21,172,274,-180
1,165658,-1632,968,-936,950,-2733,21,172,274,-180
1,165665,-1480,886,-955,1250,-2848,404,172,274,-180
1,165671,-1480,886,-955,1250,-2848,404,172,274,-180
1,165680,-1480,886,-955,1250,-2848,404,172,274,-180
1,165687,-1356,832,-964,1491,-2300,975,172,274,-180
1,165695,-1356,832,-964,1491,-2300,975,172,274,-180
1,165701,-1356,832,-964,1491,-2300,975,172,274,-180
1,165708,-1314,748,-878,1529,-1715,1203,172,274,-180
1,165715,-1314,748,-878,1529,-1715,1203,172,274,-180
1,165722,-1314,748,-878,1529,-1715,1203,172,274,-180
1,165729,-1456,716,-799,1979,-875,1304,172,276,-192
1,165735,-1456,716,-799,1979,-875,1304,172,276,-192
1,165743,-1456,716,-799,1979,-875,1304,172,276,-192
1,165750,-1647,817,-807,2802,-245,1731,172,276,-192
1,165758,-1647,817,-807,2802,-245,1731,172,276,-192
1,165765,-1798,1044,-878,3771,124,1892,172,276,-192
1,165772,-1798,1044,-878,3771,124,1892,172,276,-192
1,165778,-1798,1044,-878,3771,124,1892,172,276,-192
1,165784,-1771,1183,-887,3489,-591,1914,172,276,-192
1,165792,-1771,1183,-887,3489,-591,1914,172,276,-192
1,165798,-1771,1183,-887,3489,-591,1914,172,276,-192
1,165804,-1567,1149,-850,2300,-2053,1971,172,276,-192
1,165809,-1567,1149,-850,2300,-2053,1971,172,276,-192
1,165814,-1567,1149,-850,2300,-2053,1971,172,276,-192
1,165819,-1567,1149,-850,2300,-2053,1971,172,276,-192
1,165824,-1425,1162,-796,2001,-1934,1992,172,276,-192
1,165829,-1425,1162,-796,2001,-1934,1992,172,276,-192
1,165835,-1425,1162,-796,2001,-1934,1992,172,276,-192
1,165840,-1425,1162,-796,2001,-1934,1992,172,276,-192
1,165846,-1303,1147,-733,1898,-1208,1852,177,271,-185
1,165851,-1303,1147,-733,1898,-1208,1852,177,271,-185
1,165858,-1303,1147,-733,1898,-1208,1852,177,271,-185
1,165864,-1200,1062,-680,1730,-695,1623,177,271,-185
1,165870,-1200,1062,-680,1730,-695,1623,177,271,-185
1,165875,-1200,1062,-680,1730,-695,1623,177,271,-185
1,165880,-1200,1062,-680,1730,-695,1623,177,271,-185
1,165885,-1239,1064,-633,1983,-344,1406,177,271,-185
1,165892,-1239,1064,-633,1983,-344,1406,177,271,-185
1,165897,-1239,1064,-633,1983,-344,1406,177,271,-185
1,165905,-1315,1098,-623,2199,-417,1408,177,271,-185
1,165912,-1315,1098,-623,2199,-417,1408,177,271,-185
1,165920,-1315,1098,-623,2199,-417,1408,177,271,-185
1,165925,-1358,1175,-624,2397,-488,1460,177,271,-185
1,165932,-1358,1175,-624,2397,-488,1460,177,271,-185
1,165939,-1358,1175,-624,2397,-488,1460,177,271,-185
1,165946,-1330,1215,-631,2035,-541,1750,177,271,-185
1,165952,-1330,1215,-631,2035,-541,1750,177,271,-185
1,165960,-1330,1215,-631,2035,-541,1750,177,271,-185
1,165966,-1305,1217,-584,1392,-486,1600,177,271,-185
1,165974,-1305,1217,-584,1392,-486,1600,177,271,-185
1,165981,-1305,1217,-584,1392,-486,1600,177,271,-185
1,165989,-1306,1190,-537,822,-497,1269,184,266,-208
1,165994,-1306,1190,-537,822,-497,1269,184,266,-208
1,166000,-1306,1190,-537,822,-497,1269,184,266,-208
1,166008,-1389,1230,-541,721,-361,1186,184,266,-208
1,166016,-1389,1230,-541,721,-361,1186,184,266,-208
1,166023,-1389,1230,-541,721,-361,1186,184,266,-208
1,166030,-1510,1312,-571,665,-193,1187,184,266,-208
1,166039,-1510,1312,-571,665,-193,1187,184,266,-208
1,166045,-1570,1364,-604,309,-283,1074,184,266,-208
1,166052,-1570,1364,-604,309,-283,1074,184,266,-208
1,166061,-1570,1364,-604,309,-283,1074,184,266,-208
1,166068,-1522,1368,-632,-209,-277,968,184,266,-208
1,166075,-1522,1368,-632,-209,-277,968,184,266,-208
1,166083,-1522,1368,-632,-209,-277,968,184,266,-208
1,166090,-1459,1308,-633,-796,-93,792,184,266,-208
1,166097,-1459,1308,-633,-796,-93,792,184,266,-208
1,166104,-1459,1308,-633,-796,-93,792,184,266,-208
1,166112,-1510,1237,-649,-1002,294,585,188,264,-208
1,166119,-1510,1237,-649,-1002,294,585,188,264,-208
1,166126,-1598,1267,-668,-500,747,501,188,264,-208
1,166132,-1598,1267,-668,-500,747,501,188,264,-208
1,166139,-1598,1267,-668,-500,747,501,188,264,-208
1,166147,-1665,1352,-613,4,717,463,188,264,-208
1,166153,-1665,1352,-613,4,717,463,188,264,-208
1,166162,-1665,1352,-613,4,717,463,188,264,-208
1,166168,-1661,1475,-546,233,230,653,188,264,-208
1,166175,-1661,1475,-546,233,230,653,188,264,-208
1,166182,-1661,1475,-546,233,230,653,188,264,-208
1,166189,-1600,1609,-520,258,-129,1237,188,264,-208
1,166196,-1600,1609,-520,258,-129,1237,188,264,-208
1,166202,-1600,1609,-520,258,-129,1237,188,264,-208
1,166209,-1553,1746,-545,-363,-184,2052,188,264,-208
1,166216,-1553,1746,-545,-363,-184,2052,188,264,-208
1,166223,-1553,1746,-545,-363,-184,2052,188,264,-208
1,166231,-1652,1823,-601,-1779,89,3049,180,256,-222
1,166239,-1652,1823,-601,-1779,89,3049,180,256,-222
1,166246,-1796,1826,-747,-3105,654,3987,180,256,-222
1,166252,-1796,1826,-747,-3105,654,3987,180,256,-222
1,166259,-1796,1826,-747,-3105,654,3987,180,256,-222
1,166266,-1906,1704,-850,-4471,1215,3813,180,256,-222
1,166274,-1906,1704,-850,-4471,1215,3813,180,256,-222
1,166281,-1906,1704,-850,-4471,1215,3813,180,256,-222
1,166287,-2035,1515,-1079,-5122,1902,3050,180,256,-222
1,166294,-2035,1515,-1079,-5122,1902,3050,180,256,-222
1,166300,-2035,1515,-1079,-5122,1902,3050,180,256,-222
1,166305,-2041,1388,-1243,-5281,2237,1793,180,256,-222
1,166312,-2041,1388,-1243,-5281,2237,1793,180,256,-222
1,166320,-2041,1388,-1243,-5281,2237,1793,180,256,-222
1,166328,-1682,1214,-1207,-5645,2670,-324,180,256,-222
1,166335,-1682,1214,-1207,-5645,2670,-324,180,256,-222
1,166340,-1682,1214,-1207,-5645,2670,-324,180,256,-222
1,166347,-1544,1157,-1092,-5596,3660,-1526,162,250,-236
1,166354,-1544,1157,-1092,-5596,3660,-1526,162,250,-236
1,166361,-1544,1157,-1092,-5596,3660,-1526,162,250,-236
1,166367,-1383,1176,-991,-5926,2574,-1845,162,250,-236
1,166374,-1383,1176,-991,-5926,2574,-1845,162,250,-236
1,166381,-1383,1176,-991,-5926,2574,-1845,162,250,-236
1,166388,-1269,1200,-975,-6770,870,-2007,162,250,-236
1,166396,-1269,1200,-975,-6770,870,-2007,162,250,-236
1,166404,-1269,1200,-975,-6770,870,-2007,162,250,-236
1,166411,-1447,1221,-1080,-7023,421,-1897,162,250,-236
1,166418,-1447,1221,-1080,-7023,421,-1897,162,250,-236
1,166424,-1776,1276,-1214,-6572,718,-1813,162,250,-236
1,166431,-1776,1276,-1214,-6572,718,-1813,162,250,-236
1,166437,-1776,1276,-1214,-6572,718,-1813,162,250,-236
1,166446,-1913,1264,-1290,-6171,1313,-2137,162,250,-236
1,166453,-1913,1264,-1290,-6171,1313,-2137,162,250,-236
1,166459,-1913,1264,-1290,-6171,1313,-2137,162,250,-236
1,166466,-1793,1238,-1159,-5960,1691,-2486,139,243,-233
1,166473,-1793,1238,-1159,-5960,1691,-2486,139,243,-233
1,166480,-1793,1238,-1159,-5960,1691,-2486,139,243,-233
1,166488,-1594,1239,-976,-5798,1339,-2814,139,243,-233
1,166496,-1594,1239,-976,-5798,1339,-2814,139,243,-233
1,166505,-1407,1235,-907,-5486,1072,-3019,139,243,-233
1,166511,-1407,1235,-907,-5486,1072,-3019,139,243,-233
1,166518,-1407,1235,-907,-5486,1072,-3019,139,243,-233
1,166524,-1235,1265,-905,-4967,1026,-2844,139,243,-233
1,166532,-1235,1265,-905,-4967,1026,-2844,139,243,-233
1,166538,-1235,1265,-905,-4967,1026,-2844,139,243,-233
1,166546,-1235,1265,-905,-4967,1026,-2844,139,243,-233
1,166552,-1235,1265,-905,-4967,1026,-2844,139,243,-233
1,166557,-1235,1265,-905,-4967,1026,-2844,139,243,-233
1,166564,-1092,1351,-902,-4638,829,-2241,139,243,-233
1,166572,-1092,1351,-902,-4638,829,-2241,139,243,-233
1,166580,-1092,1351,-902,-4638,829,-2241,139,243,-233
1,166586,-1124,1320,-933,-5052,600,-2025,139,243,-233
1,166592,-1124,1320,-933,-5052,600,-2025,139,243,-233
1,166599,-1124,1320,-933,-5052,600,-2025,139,243,-233
1,166608,-1178,1263,-958,-5304,621,-1917,127,245,-221
1,166615,-1178,1263,-958,-5304,621,-1917,127,245,-221
1,166621,-1178,1263,-958,-5304,621,-1917,127,245,-221
1,166628,-1251,1267,-980,-5081,927,-1932,127,245,-221
1,166633,-1251,1267,-980,-5081,927,-1932,127,245,-221
1,166639,-1251,1267,-980,-5081,927,-1932,127,245,-221
1,166648,-1303,1265,-977,-4857,1027,-2027,127,245,-221
1,166654,-1303,1265,-977,-4857,1027,-2027,127,245,-221
1,166664,-1303,1265,-977,-4857,1027,-2027,127,245,-221
1,166670,-1304,1250,-936,-4663,871,-2015,127,245,-221
1,166676,-1304,1250,-936,-4663,871,-2015,127,245,-221
1,166682,-1304,1250,-936,-4663,871,-2015,127,245,-221
1,166690,-1326,1257,-900,-4269,688,-1856,127,245,-221
1,166697,-1326,1257,-900,-4269,688,-1856,127,245,-221
1,166705,-1417,1285,-881,-3756,366,-1565,127,245,-221
1,166710,-1417,1285,-881,-3756,366,-1565,127,245,-221
1,166716,-1417,1285,-881,-3756,366,-1565,127,245,-221
1,166723,-1417,1285,-881,-3756,366,-1565,127,245,-221
1,166730,-1516,1316,-896,-3201,-159,-1116,112,252,-208
1,166737,-1516,1316,-896,-3201,-159,-1116,112,252,-208
1,166743,-1516,1316,-896,-3201,-159,-1116,112,252,-208
1,166750,-1581,1362,-924,-2746,-669,-647,112,252,-208
1,166757,-1581,1362,-924,-2746,-669,-647,112,252,-208
1,166764,-1567,1409,-919,-2554,-1008,-453,112,252,-208
1,166772,-1567,1409,-919,-2554,-1008,-453,112,252,-208
1,166780,-1567,1409,-919,-2554,-1008,-453,112,252,-208
1,166788,-1578,1382,-874,-2622,-1149,-522,112,252,-208
1,166793,-1578,1382,-874,-2622,-1149,-522,112,252,-208
1,166801,-1578,1382,-874,-2622,-1149,-522,112,252,-208
1,166806,-1604,1342,-850,-2399,-1142,-683,112,252,-208
1,166811,-1604,1342,-850,-2399,-1142,-683,112,252,-208
1,166816,-1604,1342,-850,-2399,-1142,-683,112,252,-208
1,166821,-1604,1342,-850,-2399,-1142,-683,112,252,-208
1,166827,-1541,1383,-848,-1947,-1038,-789,112,252,-208
1,166832,-1541,1383,-848,-1947,-1038,-789,112,252,-208
1,166837,-1541,1383,-848,-1947,-1038,-789,112,252,-208
1,166842,-1541,1383,-848,-1947,-1038,-789,112,252,-208
1,166847,-1518,1385,-793,-1924,-1046,-1101,112,246,-206
1,166854,-1518,1385,-793,-1924,-1046,-1101,112,246,-206
1,166860,-1518,1385,-793,-1924,-1046,-1101,112,246,-206
1,166865,-1662,1319,-828,-1791,-1457,-1161,112,246,-206
1,166871,-1662,1319,-828,-1791,-1457,-1161,112,246,-206
1,166876,-1662,1319,-828,-1791,-1457,-1161,112,246,-206
1,166882,-1662,1319,-828,-1791,-1457,-1161,112,246,-206
1,166887,-1789,1241,-896,-985,-2356,-510,112,246,-206
1,166894,-1789,1241,-896,-985,-2356,-510,112,246,-206
1,166900,-1789,1241,-896,-985,-2356,-510,112,246,-206
1,166906,-1873,1168,-949,169,-3010,402,112,246,-206
1,166914,-1873,1168,-949,169,-3010,402,112,246,-206
1,166921,-1873,1168,-949,169,-3010,402,112,246,-206
1,166927,-1930,1162,-933,1293,-3420,1190,112,246,-206
1,166935,-1930,1162,-933,1293,-3420,1190,112,246,-206
1,166943,-1930,1162,-933,1293,-3420,1190,112,246,-206
1,166950,-2043,1165,-974,2236,-3428,1648,112,246,-206
1,166957,-2043,1165,-974,2236,-3428,1648,112,246,-206
1,166963,-2043,1165,-974,2236,-3428,1648,112,246,-206
1,166969,-2150,1328,-1110,3292,-2621,1565,119,249,-205
1,166975,-2150,1328,-1110,3292,-2621,1565,119,249,-205
1,166982,-2150,1328,-1110,3292,-2621,1565,119,249,-205
1,166989,-1842,1485,-1077,3140,-2163,584,119,249,-205
1,166995,-1842,1485,-1077,3140,-2163,584,119,249,-205
1,167004,-1842,1485,-1077,3140,-2163,584,119,249,-205
1,167009,-1419,1259,-945,1154,-2216,-465,119,249,-205
1,167016,-1419,1259,-945,1154,-2216,-465,119,249,-205
1,167024,-1202,970,-853,-87,-1804,-740,119,249,-205
1,167031,-1202,970,-853,-87,-1804,-740,119,249,-205
1,167040,-1202,970,-853,-87,-1804,-740,119,249,-205
1,167045,-1238,785,-828,205,-1320,-205,119,249,-205
1,167051,-1238,785,-828,205,-1320,-205,119,249,-205
1,167059,-1238,785,-828,205,-1320,-205,119,249,-205
1,167066,-1446,817,-854,1601,-1039,612,119,249,-205
1,167071,-1446,817,-854,1601,-1039,612,119,249,-205
1,167078,-1446,817,-854,1601,-1039,612,119,249,-205
1,167087,-1674,1081,-905,3149,-990,1171,119,249,-205
1,167092,-1674,1081,-905,3149,-990,1171,119,249,-205
1,167100,-1674,1081,-905,3149,-990,1171,119,249,-205
1,167106,-1751,1287,-941,3307,-1274,1100,116,256,-206
1,167113,-1751,1287,-941,3307,-1274,1100,116,256,-206
1,167118,-1751,1287,-941,3307,-1274,1100,116,256,-206
1,167127,-1656,1266,-881,2105,-1537,681,116,256,-206
1,167133,-1656,1266,-881,2105,-1537,681,116,256,-206
1,167139,-1656,1266,-881,2105,-1537,681,116,256,-206
1,167146,-1548,1231,-805,1087,-1349,526,116,256,-206
1,167153,-1548,1231,-805,1087,-1349,526,116,256,-206
1,167161,-1548,1231,-805,1087,-1349,526,116,256,-206
1,167168,-1410,1210,-737,624,-1010,531,116,256,-206
1,167176,-1410,1210,-737,624,-1010,531,116,256,-206
1,167182,-1410,1210,-737,624,-1010,531,116,256,-206
1,167190,-1300,1152,-685,558,-585,384,116,256,-206
1,167195,-1300,1152,-685,558,-585,384,116,256,-206
1,167202,-1300,1152,-685,558,-585,384,116,256,-206
1,167211,-1275,1102,-656,784,-351,279,116,256,-206
1,167218,-1275,1102,-656,784,-351,279,116,256,-206
1,167224,-1275,1102,-656,784,-351,279,116,256,-206
1,167232,-1334,1127,-645,986,-413,364,129,253,-211
1,167239,-1334,1127,-645,986,-413,364,129,253,-211
1,167245,-1357,1178,-654,1060,-384,505,129,253,-211
1,167252,-1357,1178,-654,1060,-384,505,129,253,-211
1,167262,-1357,1178,-654,1060,-384,505,129,253,-211
1,167268,-1429,1297,-638,1064,82,543,129,253,-211
1,167275,-1429,1297,-638,1064,82,543,129,253,-211
1,167282,-1429,1297,-638,1064,82,543,129,253,-211
1,167288,-1402,1321,-619,122,-138,517,129,253,-211
1,167296,-1402,1321,-619,122,-138,517,129,253,-211
1,167303,-1402,1321,-619,122,-138,517,129,253,-211
1,167311,-1307,1220,-564,-958,-209,373,129,253,-211
1,167317,-1307,1220,-564,-958,-209,373,129,253,-211
1,167324,-1412,1204,-562,-1178,486,474,129,253,-211
1,167331,-1412,1204,-562,-1178,486,474,129,253,-211
1,167339,-1412,1204,-562,-1178,486,474,129,253,-211
1,167346,-1468,1272,-585,-1271,620,523,126,264,-214
1,167352,-1468,1272,-585,-1271,620,523,126,264,-214
1,167359,-1468,1272,-585,-1271,620,523,126,264,-214
1,167367,-1510,1332,-615,-1538,618,309,126,264,-214
1,167375,-1510,1332,-615,-1538,618,309,126,264,-214
1,167383,-1510,1332,-615,-1538,618,309,126,264,-214
1,167389,-1482,1366,-619,-1978,581,93,126,264,-214
1,167396,-1482,1366,-619,-1978,581,93,126,264,-214
1,167403,-1482,1366,-619,-1978,581,93,126,264,-214
1,167410,-1431,1358,-634,-2650,716,132,126,264,-214
1,167418,-1431,1358,-634,-2650,716,132,126,264,-214
1,167426,-1405,1346,-664,-3288,995,176,126,264,-214
1,167433,-1405,1346,-664,-3288,995,176,126,264,-214
1,167439,-1405,1346,-664,-3288,995,176,126,264,-214
1,167444,-1405,1346,-664,-3288,995,176,126,264,-214
1,167451,-1404,1309,-691,-3771,1500,145,126,264,-214
1,167458,-1404,1309,-691,-3771,1500,145,126,264,-214
1,167467,-1488,1259,-695,-3904,2098,-226,109,259,-215
1,167475,-1488,1259,-695,-3904,2098,-226,109,259,-215
1,167482,-1488,1259,-695,-3904,2098,-226,109,259,-215
1,167488,-1611,1237,-624,-3882,2158,-712,109,259,-215
1,167494,-1611,1237,-624,-3882,2158,-712,109,259,-215
1,167501,-1611,1237,-624,-3882,2158,-712,109,259,-215
1,167510,-1679,1335,-540,-3682,1626,-819,109,259,-215
1,167518,-1679,1335,-540,-3682,1626,-819,109,259,-215
1,167524,-1658,1548,-525,-3698,935,-275,109,259,-215
1,167531,-1658,1548,-525,-3698,935,-275,109,259,-215
1,167538,-1658,1548,-525,-3698,935,-275,109,259,-215
1,167546,-1604,1709,-574,-4438,430,731,109,259,-215
1,167553,-1604,1709,-574,-4438,430,731,109,259,-215
1,167560,-1604,1709,-574,-4438,430,731,109,259,-215
1,167568,-1650,1736,-670,-5676,513,1807,109,259,-215
1,167574,-1650,1736,-670,-5676,513,1807,109,259,-215
1,167581,-1650,1736,-670,-5676,513,1807,109,259,-215
1,167588,-1786,1630,-777,-7010,1036,2169,112,252,-214
1,167596,-1786,1630,-777,-7010,1036,2169,112,252,-214
1,167603,-1786,1630,-777,-7010,1036,2169,112,252,-214
1,167610,-2006,1431,-859,-7923,1718,1719,112,252,-214
1,167617,-2006,1431,-859,-7923,1718,1719,112,252,-214
1,167624,-2140,1300,-1022,-7448,2292,826,112,252,-214
1,167630,-2140,1300,-1022,-7448,2292,826,112,252,-214
1,167639,-2140,1300,-1022,-7448,2292,826,112,252,-214
1,167646,-1970,1347,-1135,-6399,2714,-604,112,252,-214
1,167652,-1970,1347,-1135,-6399,2714,-604,112,252,-214
1,167659,-1970,1347,-1135,-6399,2714,-604,112,252,-214
1,167665,-1653,1384,-1163,-6151,3039,-1720,112,252,-214
1,167672,-1653,1384,-1163,-6151,3039,-1720,112,252,-214
1,167678,-1653,1384,-1163,-6151,3039,-1720,112,252,-214
1,167687,-1641,1474,-1209,-6280,3339,-2025,112,252,-214
1,167695,-1641,1474,-1209,-6280,3339,-2025,112,252,-214
1,167701,-1641,1474,-1209,-6280,3339,-2025,112,252,-214
1,167708,-1651,1499,-1257,-7448,2167,-2156,112,252,-214
1,167715,-1651,1499,-1257,-7448,2167,-2156,112,252,-214
1,167723,-1651,1499,-1257,-7448,2167,-2156,112,252,-214
1,167729,-1510,1427,-1241,-8943,768,-2503,97,253,-207
1,167736,-1510,1427,-1241,-8943,768,-2503,97,253,-207
1,167743,-1510,1427,-1241,-8943,768,-2503,97,253,-207
1,167751,-1330,1353,-1235,-9757,498,-2833,97,253,-207
1,167758,-1330,1353,-1235,-9757,498,-2833,97,253,-207
1,167764,-1188,1255,-1232,-9889,1237,-3208,97,253,-207
1,167771,-1188,1255,-1232,-9889,1237,-3208,97,253,-207
1,167776,-1188,1255,-1232,-9889,1237,-3208,97,253,-207
1,167782,-1188,1255,-1232,-9889,1237,-3208,97,253,-207
1,167789,-1193,1191,-1191,-9398,2433,-3540,97,253,-207
1,167795,-1193,1191,-1191,-9398,2433,-3540,97,253,-207
1,167802,-1193,1191,-1191,-9398,2433,-3540,97,253,-207
1,167806,-1334,1236,-1160,-8824,3061,-3270,97,253,-207
1,167813,-1334,1236,-1160,-8824,3061,-3270,97,253,-207
1,167818,-1334,1236,-1160,-8824,3061,-3270,97,253,-207
1,167822,-1334,1236,-1160,-8824,3061,-3270,97,253,-207
1,167827,-1495,1353,-1137,-8615,2947,-2554,97,253,-207
1,167833,-1495,1353,-1137,-8615,2947,-2554,97,253,-207
1,167837,-1495,1353,-1137,-8615,2947,-2554,97,253,-207
1,167843,-1495,1353,-1137,-8615,2947,-2554,97,253,-207
1,167851,-1615,1428,-1146,-8631,2885,-2195,84,264,-188
1,167858,-1615,1428,-1146,-8631,2885,-2195,84,264,-188
1,167864,-1615,1428,-1146,-8631,2885,-2195,84,264,-188
1,167869,-1584,1497,-1153,-8707,3024,-2353,84,264,-188
1,167874,-1584,1497,-1153,-8707,3024,-2353,84,264,-188
1,167879,-1584,1497,-1153,-8707,3024,-2353,84,264,-188
1,167884,-1584,1497,-1153,-8707,3024,-2353,84,264,-188
1,167889,-1393,1455,-1138,-9278,2786,-2455,84,264,-188
1,167895,-1393,1455,-1138,-9278,2786,-2455,84,264,-188
1,167903,-1393,1455,-1138,-9278,2786,-2455,84,264,-188
1,167910,-1206,1361,-1104,-9658,2422,-2461,84,264,-188
1,167916,-1206,1361,-1104,-9658,2422,-2461,84,264,-188
1,167923,-1206,1361,-1104,-9658,2422,-2461,84,264,-188
1,167930,-1130,1318,-1094,-9626,2295,-2249,84,264,-188
1,167938,-1130,1318,-1094,-9626,2295,-2249,84,264,-188
1,167946,-1218,1338,-1118,-9356,2132,-2026,84,264,-188
1,167953,-1218,1338,-1118,-9356,2132,-2026,84,264,-188
1,167960,-1218,1338,-1118,-9356,2132,-2026,84,264,-188
1,167965,-1328,1415,-1130,-8986,1817,-2136,79,263,-177
1,167971,-1328,1415,-1130,-8986,1817,-2136,79,263,-177
1,167979,-1328,1415,-1130,-8986,1817,-2136,79,263,-177
1,167986,-1350,1455,-1126,-9037,1533,-2416,79,263,-177
1,167992,-1350,1455,-1126,-9037,1533,-2416,79,263,-177
1,167998,-1350,1455,-1126,-9037,1533,-2416,79,263,-177
1,168005,-1319,1435,-1126,-9365,1340,-2441,79,263,-177
1,168013,-1319,1435,-1126,-9365,1340,-2441,79,263,-177
1,168020,-1319,1435,-1126,-9365,1340,-2441,79,263,-177
1,168027,-1324,1379,-1132,-9497,1258,-2287,79,263,-177
1,168034,-1324,1379,-1132,-9497,1258,-2287,79,263,-177
1,168041,-1324,1379,-1132,-9497,1258,-2287,79,263,-177
1,168049,-1349,1383,-1121,-9295,1113,-2288,79,263,-177
1,168055,-1349,1383,-1121,-9295,1113,-2288,79,263,-177
1,168061,-1349,1383,-1121,-9295,1113,-2288,79,263,-177
1,168070,-1351,1411,-1090,-9209,796,-2487,79,263,-177
1,168077,-1351,1411,-1090,-9209,796,-2487,79,263,-177
1,168083,-1351,1411,-1090,-9209,796,-2487,79,263,-177
1,168090,-1313,1402,-1064,-9255,483,-2555,61,275,-155
1,168097,-1313,1402,-1064,-9255,483,-2555,61,275,-155
1,168104,-1313,1402,-1064,-9255,483,-2555,61,275,-155
1,168111,-1337,1407,-1044,-9104,407,-2404,61,275,-155
1,168118,-1337,1407,-1044,-9104,407,-2404,61,275,-155
1,168124,-1337,1407,-1044,-9104,407,-2404,61,275,-155
1,168132,-1408,1454,-1051,-8863,443,-2246,61,275,-155
1,168139,-1408,1454,-1051,-8863,443,-2246,61,275,-155
1,168144,-1467,1474,-1034,-8877,437,-2265,61,275,-155
1,168151,-1467,1474,-1034,-8877,437,-2265,61,275,-155
1,168158,-1467,1474,-1034,-8877,437,-2265,61,275,-155
1,168165,-1513,1461,-1014,-8970,357,-2473,61,275,-155
1,168172,-1513,1461,-1014,-8970,357,-2473,61,275,-155
1,168180,-1513,1461,-1014,-8970,357,-2473,61,275,-155
1,168187,-1573,1426,-959,-8866,231,-2694,61,275,-155
1,168195,-1573,1426,-959,-8866,231,-2694,61,275,-155
1,168202,-1573,1426,-959,-8866,231,-2694,61,275,-155
1,168209,-1607,1447,-917,-8497,-78,-2727,61,275,-155
1,168215,-1607,1447,-917,-8497,-78,-2727,61,275,-155
1,168222,-1607,1447,-917,-8497,-78,-2727,61,275,-155
1,168230,-1599,1534,-895,-8261,-402,-2491,65,281,-135
1,168238,-1599,1534,-895,-8261,-402,-2491,65,281,-135
1,168244,-1599,1534,-895,-8261,-402,-2491,65,281,-135
1,168251,-1593,1550,-843,-8551,-704,-2336,65,281,-135
1,168257,-1593,1550,-843,-8551,-704,-2336,65,281,-135
1,168264,-1593,1550,-843,-8551,-704,-2336,65,281,-135
1,168272,-1712,1527,-864,-8632,-996,-2130,65,281,-135
1,168279,-1712,1527,-864,-8632,-996,-2130,65,281,-135
1,168285,-1816,1516,-897,-8351,-1152,-1572,65,281,-135
1,168292,-1816,1516,-897,-8351,-1152,-1572,65,281,-135
1,168299,-1816,1516,-897,-8351,-1152,-1572,65,281,-135
1,168306,-1841,1485,-909,-8236,-1395,-1079,65,281,-135
1,168313,-1841,1485,-909,-8236,-1395,-1079,65,281,-135
1,168322,-1841,1485,-909,-8236,-1395,-1079,65,281,-135
1,168328,-1927,1467,-992,-7942,-1221,-629,65,281,-135
1,168335,-1927,1467,-992,-7942,-1221,-629,65,281,-135
1,168342,-1927,1467,-992,-7942,-1221,-629,65,281,-135
1,168349,-1936,1500,-1100,-7667,-508,-614,70,286,-122
1,168355,-1936,1500,-1100,-7667,-508,-614,70,286,-122
1,168361,-1936,1500,-1100,-7667,-508,-614,70,286,-122
1,168369,-1665,1456,-1109,-8683,-194,-1568,70,286,-122
1,168376,-1665,1456,-1109,-8683,-194,-1568,70,286,-122
1,168382,-1665,1456,-1109,-8683,-194,-1568,70,286,-122
1,168389,-1349,1227,-1048,-10407,-494,-2589,70,286,-122
1,168396,-1349,1227,-1048,-10407,-494,-2589,70,286,-122
1,168401,-1349,1227,-1048,-10407,-494,-2589,70,286,-122
1,168409,-1115,979,-981,-11172,-538,-2630,70,286,-122
1,168415,-1115,979,-981,-11172,-538,-2630,70,286,-122
1,168423,-1115,979,-981,-11172,-538,-2630,70,286,-122
1,168431,-1014,788,-901,-11134,231,-2164,70,286,-122
1,168439,-1014,788,-901,-11134,231,-2164,70,286,-122
1,168448,-1214,679,-851,-10505,1328,-1651,70,286,-122
1,168455,-1214,679,-851,-10505,1328,-1651,70,286,-122
1,168461,-1214,679,-851,-10505,1328,-1651,70,286,-122
1,168469,-1637,758,-903,-9129,1993,-992,73,293,-95
1,168474,-1637,758,-903,-9129,1993,-992,73,293,-95
1,168479,-1637,758,-903,-9129,1993,-992,73,293,-95
1,168486,-1978,1010,-1018,-7887,2218,-668,73,293,-95
1,168494,-1978,1010,-1018,-7887,2218,-668,73,293,-95
1,168500,-1978,1010,-1018,-7887,2218,-668,73,293,-95
1,168507,-1950,1239,-1066,-7864,2197,-978,73,293,-95
1,168514,-1950,1239,-1066,-7864,2197,-978,73,293,-95
1,168521,-1950,1239,-1066,-7864,2197,-978,73,293,-95
1,168528,-1760,1284,-1047,-8990,1952,-1563,73,293,-95
1,168536,-1760,1284,-1047,-8990,1952,-1563,73,293,-95
1,168543,-1760,1284,-1047,-8990,1952,-1563,73,293,-95
1,168549,-1644,1206,-942,-10396,1508,-1871,73,293,-95
1,168557,-1644,1206,-942,-10396,1508,-1871,73,293,-95
1,168565,-1532,1073,-852,-11262,972,-1829,73,293,-95
1,168572,-1532,1073,-852,-11262,972,-1829,73,293,-95
1,168580,-1532,1073,-852,-11262,972,-1829,73,293,-95
1,168586,-1453,1000,-790,-10985,918,-1510,91,291,-83
1,168593,-1453,1000,-790,-10985,918,-1510,91,291,-83
1,168599,-1453,1000,-790,-10985,918,-1510,91,291,-83
1,168606,-1413,1020,-775,-10241,1102,-1223,91,291,-83
1,168612,-1413,1020,-775,-10241,1102,-1223,91,291,-83
1,168619,-1413,1020,-775,-10241,1102,-1223,91,291,-83
1,168626,-1422,1123,-797,-9626,1337,-1193,91,291,-83
1,168633,-1422,1123,-797,-9626,1337,-1193,91,291,-83
1,168641,-1422,1123,-797,-9626,1337,-1193,91,291,-83
1,168648,-1475,1207,-833,-9855,1570,-1251,91,291,-83
1,168656,-1475,1207,-833,-9855,1570,-1251,91,291,-83
1,168665,-1513,1147,-830,-10652,1332,-1424,91,291,-83
1,168670,-1513,1147,-830,-10652,1332,-1424,91,291,-83
1,168677,-1513,1147,-830,-10652,1332,-1424,91,291,-83
1,168683,-1513,1147,-830,-10652,1332,-1424,91,291,-83
1,168690,-1542,1101,-781,-10936,1223,-1753,91,291,-83
1,168696,-1542,1101,-781,-10936,1223,-1753,91,291,-83
1,168704,-1542,1101,-781,-10936,1223,-1753,91,291,-83
1,168711,-1567,1129,-785,-10740,1518,-2131,99,291,-59
1,168717,-1567,1129,-785,-10740,1518,-2131,99,291,-59
1,168724,-1567,1129,-785,-10740,1518,-2131,99,291,-59
1,168730,-1535,1142,-810,-10646,1701,-2342,99,291,-59
1,168738,-1535,1142,-810,-10646,1701,-2342,99,291,-59
1,168744,-1535,1142,-810,-10646,1701,-2342,99,291,-59
1,168752,-1488,1091,-821,-10711,1745,-2489,99,291,-59
1,168758,-1488,1091,-821,-10711,1745,-2489,99,291,-59
1,168765,-1454,1050,-792,-10641,1649,-2376,99,291,-59
1,168771,-1454,1050,-792,-10641,1649,-2376,99,291,-59
1,168778,-1454,1050,-792,-10641,1649,-2376,99,291,-59
1,168785,-1426,1017,-769,-10489,1464,-2059,99,291,-59
1,168793,-1426,1017,-769,-10489,1464,-2059,99,291,-59
1,168800,-1426,1017,-769,-10489,1464,-2059,99,291,-59
1,168805,-1410,1003,-762,-10105,1330,-1732,99,291,-59
1,168810,-1410,1003,-762,-10105,1330,-1732,99,291,-59
1,168815,-1410,1003,-762,-10105,1330,-1732,99,291,-59
1,168820,-1410,1003,-762,-10105,1330,-1732,99,291,-59
1,168825,-1449,1002,-734,-9509,1204,-1407,99,291,-59
1,168830,-1449,1002,-734,-9509,1204,-1407,99,291,-59
1,168836,-1449,1002,-734,-9509,1204,-1407,99,291,-59
1,168841,-1449,1002,-734,-9509,1204,-1407,99,291,-59
1,168848,-1514,1022,-722,-8748,1128,-1048,102,300,-56
1,168856,-1514,1022,-722,-8748,1128,-1048,102,300,-56
1,168862,-1514,1022,-722,-8748,1128,-1048,102,300,-56
1,168867,-1545,1025,-718,-8097,1134,-738,102,300,-56
1,168872,-1545,1025,-718,-8097,1134,-738,102,300,-56
1,168878,-1545,1025,-718,-8097,1134,-738,102,300,-56
1,168883,-1545,1025,-718,-8097,1134,-738,102,300,-56
1,168888,-1539,1000,-688,-7642,1054,-533,102,300,-56
1,168893,-1539,1000,-688,-7642,1054,-533,102,300,-56
1,168900,-1539,1000,-688,-7642,1054,-533,102,300,-56
1,168908,-1503,971,-660,-7181,858,-320,102,300,-56
1,168914,-1503,971,-660,-7181,858,-320,102,300,-56
1,168922,-1503,971,-660,-7181,858,-320,102,300,-56
1,168930,-1468,941,-646,-6566,847,-3,102,300,-56
1,168935,-1468,941,-646,-6566,847,-3,102,300,-56
1,168943,-1468,941,-646,-6566,847,-3,102,300,-56
1,168950,-1480,935,-667,-5747,1065,277,102,300,-56
1,168956,-1480,935,-667,-5747,1065,277,102,300,-56
1,168964,-1480,935,-667,-5747,1065,277,102,300,-56
1,168971,-1535,966,-670,-4905,1292,568,121,313,-53
1,168978,-1535,966,-670,-4905,1292,568,121,313,-53
1,168984,-1535,966,-670,-4905,1292,568,121,313,-53
1,168992,-1584,1034,-643,-4209,1218,796,121,313,-53
1,168998,-1584,1034,-643,-4209,1218,796,121,313,-53
1,169006,-1614,1130,-621,-3780,909,1240,121,313,-53
1,169013,-1614,1130,-621,-3780,909,1240,121,313,-53
1,169020,-1614,1130,-621,-3780,909,1240,121,313,-53
1,169027,-1728,1163,-666,-3411,862,2054,121,313,-53
1,169035,-1728,1163,-666,-3411,862,2054,121,313,-53
1,169042,-1728,1163,-666,-3411,862,2054,121,313,-53
1,169049,-1855,1227,-747,-2677,925,3011,121,313,-53
1,169055,-1855,1227,-747,-2677,925,3011,121,313,-53
1,169061,-1855,1227,-747,-2677,925,3011,121,313,-53
1,169067,-1887,1301,-812,-2472,759,3327,121,313,-53
1,169075,-1887,1301,-812,-2472,759,3327,121,313,-53
1,169081,-1887,1301,-812,-2472,759,3327,121,313,-53
1,169086,-1945,1254,-914,-2298,677,3338,126,308,-62
1,169094,-1945,1254,-914,-2298,677,3338,126,308,-62
1,169102,-1945,1254,-914,-2298,677,3338,126,308,-62
1,169109,-1871,1254,-1015,-1686,638,3535,126,308,-62
1,169114,-1871,1254,-1015,-1686,638,3535,126,308,-62
1,169121,-1871,1254,-1015,-1686,638,3535,126,308,-62
1,169127,-1714,1277,-1021,-1707,1089,2938,126,308,-62
1,169134,-1714,1277,-1021,-1707,1089,2938,126,308,-62
1,169140,-1714,1277,-1021,-1707,1089,2938,126,308,-62
1,169146,-1540,1276,-983,-2404,791,1864,126,308,-62
1,169152,-1540,1276,-983,-2404,791,1864,126,308,-62
1,169160,-1540,1276,-983,-2404,791,1864,126,308,-62
1,169167,-1269,1195,-919,-3463,-444,1130,126,308,-62
1,169174,-1269,1195,-919,-3463,-444,1130,126,308,-62
1,169180,-1269,1195,-919,-3463,-444,1130,126,308,-62
1,169188,-1257,1167,-923,-3526,-568,853,126,308,-62
1,169194,-1257,1167,-923,-3526,-568,853,126,308,-62
1,169201,-1257,1167,-923,-3526,-568,853,126,308,-62
1,169209,-1494,1284,-1014,-2735,153,622,117,309,-63
1,169217,-1494,1284,-1014,-2735,153,622,117,309,-63
1,169224,-1494,1284,-1014,-2735,153,622,117,309,-63
1,169230,-1830,1428,-1112,-2481,1117,35,117,309,-63
1,169238,-1830,1428,-1112,-2481,1117,35,117,309,-63
1,169245,-1968,1541,-1174,-3284,1695,-726,117,309,-63
1,169252,-1968,1541,-1174,-3284,1695,-726,117,309,-63
1,169260,-1968,1541,-1174,-3284,1695,-726,117,309,-63
1,169267,-1805,1490,-1111,-5411,1545,-1086,117,309,-63
1,169274,-1805,1490,-1111,-5411,1545,-1086,117,309,-63
1,169281,-1805,1490,-1111,-5411,1545,-1086,117,309,-63
1,169287,-1696,1226,-972,-7242,1190,-1467,117,309,-63
1,169294,-1696,1226,-972,-7242,1190,-1467,117,309,-63
1,169303,-1696,1226,-972,-7242,1190,-1467,117,309,-63
1,169311,-1640,1073,-829,-7148,859,-1820,117,309,-63
1,169319,-1640,1073,-829,-7148,859,-1820,117,309,-63
1,169326,-1506,1116,-809,-6221,331,-1946,117,309,-63
1,169333,-1506,1116,-809,-6221,331,-1946,117,309,-63
1,169338,-1506,1116,-809,-6221,331,-1946,117,309,-63
1,169346,-1349,1222,-827,-5539,-161,-1837,123,315,-53
1,169353,-1349,1222,-827,-5539,-161,-1837,123,315,-53
1,169361,-1349,1222,-827,-5539,-161,-1837,123,315,-53
1,169368,-1249,1271,-825,-5312,-397,-1757,123,315,-53
1,169374,-1249,1271,-825,-5312,-397,-1757,123,315,-53
1,169381,-1249,1271,-825,-5312,-397,-1757,123,315,-53
1,169389,-1234,1266,-804,-5344,-651,-1405,123,315,-53
1,169396,-1234,1266,-804,-5344,-651,-1405,123,315,-53
1,169402,-1234,1266,-804,-5344,-651,-1405,123,315,-53
1,169411,-1268,1293,-792,-5184,-505,-1106,123,315,-53
1,169417,-1268,1293,-792,-5184,-505,-1106,123,315,-53
1,169423,-1268,1293,-792,-5184,-505,-1106,123,315,-53
1,169431,-1368,1324,-800,-4937,53,-857,123,315,-53
1,169439,-1368,1324,-800,-4937,53,-857,123,315,-53
1,169446,-1439,1357,-812,-4766,265,-709,123,315,-53
1,169453,-1439,1357,-812,-4766,265,-709,123,315,-53
1,169461,-1439,1357,-812,-4766,265,-709,123,315,-53
1,169467,-1371,1365,-791,-5030,48,-701,127,325,-49
1,169475,-1371,1365,-791,-5030,48,-701,127,325,-49
1,169481,-1371,1365,-791,-5030,48,-701,127,325,-49
1,169489,-1359,1353,-793,-5385,-103,-744,127,325,-49
1,169496,-1359,1353,-793,-5385,-103,-744,127,325,-49
1,169503,-1359,1353,-793,-5385,-103,-744,127,325,-49
1,169509,-1437,1317,-817,-5424,-258,-770,127,325,-49
1,169517,-1437,1317,-817,-5424,-258,-770,127,325,-49
1,169522,-1437,1317,-817,-5424,-258,-770,127,325,-49
1,169530,-1488,1295,-816,-5334,-515,-907,127,325,-49
1,169537,-1488,1295,-816,-5334,-515,-907,127,325,-49
1,169544,-1488,1295,-816,-5334,-515,-907,127,325,-49
1,169550,-1532,1298,-787,-5344,-922,-892,127,325,-49
1,169558,-1532,1298,-787,-5344,-922,-892,127,325,-49
1,169565,-1532,1298,-787,-5344,-922,-892,127,325,-49
1,169571,-1556,1353,-790,-5368,-1371,-678,127,325,-49
1,169579,-1556,1353,-790,-5368,-1371,-678,127,325,-49
1,169586,-1538,1378,-782,-5652,-1806,-605,139,323,-41
1,169593,-1538,1378,-782,-5652,-1806,-605,139,323,-41
1,169601,-1538,1378,-782,-5652,-1806,-605,139,323,-41
1,169609,-1563,1314,-765,-6099,-2162,-640,139,323,-41
1,169615,-1563,1314,-765,-6099,-2162,-640,139,323,-41
1,169621,-1563,1314,-765,-6099,-2162,-640,139,323,-41
1,169629,-1645,1254,-803,-6172,-2296,-720,139,323,-41
1,169637,-1645,1254,-803,-6172,-2296,-720,139,323,-41
1,169646,-1645,1185,-883,-6111,-1882,-825,139,323,-41
1,169652,-1645,1185,-883,-6111,-1882,-825,139,323,-41
1,169659,-1645,1185,-883,-6111,-1882,-825,139,323,-41
1,169665,-1713,1050,-902,-6002,-852,-1432,139,323,-41
1,169673,-1713,1050,-902,-6002,-852,-1432,139,323,-41
1,169679,-1713,1050,-902,-6002,-852,-1432,139,323,-41
1,169687,-1955,908,-926,-5402,83,-2189,139,323,-41
1,169693,-1955,908,-926,-5402,83,-2189,139,323,-41
1,169700,-1955,908,-926,-5402,83,-2189,139,323,-41
1,169706,-2089,1003,-992,-4257,71,-2149,145,319,-29
1,169714,-2089,1003,-992,-4257,71,-2149,145,319,-29
1,169720,-2089,1003,-992,-4257,71,-2149,145,319,-29
1,169726,-1796,1222,-1012,-4415,-116,-1857,145,319,-29
1,169734,-1796,1222,-1012,-4415,-116,-1857,145,319,-29
1,169740,-1796,1222,-1012,-4415,-116,-1857,145,319,-29
1,169748,-1532,1204,-906,-6017,30,-2138,145,319,-29
1,169755,-1532,1204,-906,-6017,30,-2138,145,319,-29
1,169762,-1532,1204,-906,-6017,30,-2138,145,319,-29
1,169768,-1397,986,-769,-7065,661,-2860,145,319,-29
1,169776,-1397,986,-769,-7065,661,-2860,145,319,-29
1,169782,-1397,986,-769,-7065,661,-2860,145,319,-29
1,169789,-1568,814,-675,-6852,1436,-2716,145,319,-29
1,169797,-1568,814,-675,-6852,1436,-2716,145,319,-29
1,169803,-1568,814,-675,-6852,1436,-2716,145,319,-29
1,169808,-1728,796,-658,-6232,971,-2126,145,319,-29
1,169812,-1728,796,-658,-6232,971,-2126,145,319,-29
1,169818,-1728,796,-658,-6232,971,-2126,145,319,-29
1,169823,-1728,796,-658,-6232,971,-2126,145,319,-29
1,169828,-1887,967,-750,-5235,770,-1616,165,331,-17
1,169834,-1887,967,-750,-5235,770,-1616,165,331,-17
1,169839,-1887,967,-750,-5235,770,-1616,165,331,-17
1,169844,-1887,967,-750,-5235,770,-1616,165,331,-17
1,169849,-1926,1179,-865,-4866,863,-1509,165,331,-17
1,169859,-1926,1179,-865,-4866,863,-1509,165,331,-17
1,169865,-1794,1213,-868,-5997,647,-1825,165,331,-17
1,169870,-1794,1213,-868,-5997,647,-1825,165,331,-17
1,169875,-1794,1213,-868,-5997,647,-1825,165,331,-17
1,169880,-1794,1213,-868,-5997,647,-1825,165,331,-17
1,169885,-1655,1081,-760,-7514,266,-2491,165,331,-17
1,169890,-1655,1081,-760,-7514,266,-2491,165,331,-17
1,169896,-1655,1081,-760,-7514,266,-2491,165,331,-17
1,169904,-1655,1081,-760,-7514,266,-2491,165,331,-17
1,169909,-1572,991,-663,-7934,157,-2858,165,331,-17
1,169916,-1572,991,-663,-7934,157,-2858,165,331,-17
1,169922,-1572,991,-663,-7934,157,-2858,165,331,-17
1,169930,-1520,959,-608,-7731,-15,-2725,165,331,-17
1,169936,-1520,959,-608,-7731,-15,-2725,165,331,-17
1,169944,-1520,959,-608,-7731,-15,-2725,165,331,-17
1,169951,-1478,984,-613,-7360,-156,-2525,165,331,-17
1,169958,-1478,984,-613,-7360,-156,-2525,165,331,-17
1,169964,-1478,984,-613,-7360,-156,-2525,165,331,-17
1,169972,-1402,1000,-627,-7321,-173,-2315,173,325,-11
1,169979,-1402,1000,-627,-7321,-173,-2315,173,325,-11
1,169986,-1334,983,-625,-7722,-44,-2075,173,325,-11
1,169991,-1334,983,-625,-7722,-44,-2075,173,325,-11
1,169998,-1334,983,-625,-7722,-44,-2075,173,325,-11
1,170005,-1307,955,-598,-8172,393,-2024,173,325,-11
1,170012,-1307,955,-598,-8172,393,-2024,173,325,-11
1,170019,-1307,955,-598,-8172,393,-2024,173,325,-11
1,170024,-1307,955,-598,-8172,393,-2024,173,325,-11
1,170033,-1346,909,-576,-8223,942,-2040,173,325,-11
1,170041,-1346,909,-576,-8223,942,-2040,173,325,-11
1,170048,-1432,890,-595,-7949,1453,-1983,173,325,-11
1,170055,-1432,890,-595,-7949,1453,-1983,173,325,-11
1,170061,-1432,890,-595,-7949,1453,-1983,173,325,-11
1,170068,-1508,936,-606,-7780,1669,-1890,173,325,-11
1,170077,-1508,936,-606,-7780,1669,-1890,173,325,-11
1,170083,-1508,936,-606,-7780,1669,-1890,173,325,-11
1,170090,-1483,962,-607,-7850,1657,-1813,193,315,-9
1,170097,-1483,962,-607,-7850,1657,-1813,193,315,-9
1,170104,-1483,962,-607,-7850,1657,-1813,193,315,-9
1,170112,-1511,917,-604,-7966,1849,-1745,193,315,-9
1,170118,-1511,917,-604,-7966,1849,-1745,193,315,-9
1,170126,-1610,849,-605,-7873,2168,-1724,193,315,-9
1,170132,-1610,849,-605,-7873,2168,-1724,193,315,-9
1,170138,-1610,849,-605,-7873,2168,-1724,193,315,-9
1,170144,-1610,849,-605,-7873,2168,-1724,193,315,-9
1,170151,-1701,851,-590,-7485,2305,-1710,193,315,-9
1,170158,-1701,851,-590,-7485,2305,-1710,193,315,-9
1,170166,-1748,907,-587,-7093,2327,-1592,193,315,-9
1,170173,-1748,907,-587,-7093,2327,-1592,193,315,-9
1,170181,-1748,907,-587,-7093,2327,-1592,193,315,-9
1,170187,-1742,947,-582,-6900,2104,-1448,193,315,-9
1,170194,-1742,947,-582,-6900,2104,-1448,193,315,-9
1,170202,-1742,947,-582,-6900,2104,-1448,193,315,-9
1,170208,-1685,954,-578,-6996,1750,-1313,206,328,-2
1,170215,-1685,954,-578,-6996,1750,-1313,206,328,-2
1,170222,-1685,954,-578,-6996,1750,-1313,206,328,-2
1,170230,-1613,925,-565,-7301,1434,-1059,206,328,-2
1,170235,-1613,925,-565,-7301,1434,-1059,206,328,-2
1,170242,-1613,925,-565,-7301,1434,-1059,206,328,-2
1,170250,-1561,900,-517,-7435,1137,-818,206,328,-2
1,170257,-1561,900,-517,-7435,1137,-818,206,328,-2
1,170266,-1538,879,-480,-7373,921,-600,206,328,-2
1,170273,-1538,879,-480,-7373,921,-600,206,328,-2
1,170278,-1538,879,-480,-7373,921,-600,206,328,-2
1,170285,-1538,879,-480,-7373,921,-600,206,328,-2
1,170291,-1525,890,-443,-7210,888,-341,206,328,-2
1,170298,-1525,890,-443,-7210,888,-341,206,328,-2
1,170305,-1525,890,-443,-7210,888,-341,206,328,-2
1,170312,-1525,890,-443,-7210,888,-341,206,328,-2
1,170318,-1525,890,-443,-7210,888,-341,206,328,-2
1,170326,-1618,960,-442,-7164,793,141,217,329,1
1,170335,-1618,960,-442,-7164,793,141,217,329,1
1,170341,-1618,960,-442,-7164,793,141,217,329,1
1,170348,-1616,989,-497,-7364,605,421,217,329,1
1,170354,-1616,989,-497,-7364,605,421,217,329,1
1,170362,-1616,989,-497,-7364,605,421,217,329,1
1,170370,-1679,941,-562,-7573,809,720,217,329,1
1,170376,-1679,941,-562,-7573,809,720,217,329,1
1,170383,-1679,941,-562,-7573,809,720,217,329,1
1,170389,-1748,942,-664,-7212,1046,814,217,329,1
1,170396,-1748,942,-664,-7212,1046,814,217,329,1
1,170404,-1748,942,-664,-7212,1046,814,217,329,1
1,170412,-1705,937,-758,-6866,1192,687,217,329,1
1,170419,-1705,937,-758,-6866,1192,687,217,329,1
1,170425,-1705,937,-758,-6866,1192,687,217,329,1
1,170433,-1771,901,-791,-6356,1598,528,217,329,1
1,170440,-1771,901,-791,-6356,1598,528,217,329,1
1,170445,-1803,845,-833,-5764,1502,406,217,329,1
1,170451,-1803,845,-833,-5764,1502,406,217,329,1
1,170459,-1803,845,-833,-5764,1502,406,217,329,1
1,170466,-1803,845,-833,-5764,1502,406,225,341,3
1,170473,-1803,845,-833,-5764,1502,406,225,341,3
1,170480,-1803,845,-833,-5764,1502,406,225,341,3
1,170487,-1974,871,-848,-4837,461,487,225,341,3
1,170494,-1974,871,-848,-4837,461,487,225,341,3
1,170502,-1974,871,-848,-4837,461,487,225,341,3
1,170509,-1925,888,-887,-4304,-571,1019,225,341,3
1,170517,-1925,888,-887,-4304,-571,1019,225,341,3
1,170524,-1925,888,-887,-4304,-571,1019,225,341,3
1,170531,-1795,998,-921,-3413,-668,1428,225,341,3
1,170537,-1795,998,-921,-3413,-668,1428,225,341,3
1,170546,-1795,998,-921,-3413,-668,1428,225,341,3
1,170553,-1795,998,-921,-3413,-668,1428,225,341,3
1,170560,-1795,998,-921,-3413,-668,1428,225,341,3
1,170567,-1266,1242,-993,-3192,-604,1271,225,341,3
1,170574,-1266,1242,-993,-3192,-604,1271,225,341,3
1,170580,-1266,1242,-993,-3192,-604,1271,225,341,3
1,170588,-1063,1272,-1008,-3734,-55,933,222,352,-6
1,170594,-1063,1272,-1008,-3734,-55,933,222,352,-6
1,170601,-1063,1272,-1008,-3734,-55,933,222,352,-6
1,170608,-1151,1195,-1009,-4577,1034,460,222,352,-6
1,170616,-1151,1195,-1009,-4577,1034,460,222,352,-6
1,170622,-1151,1195,-1009,-4577,1034,460,222,352,-6
1,170630,-1508,1123,-1013,-4713,1682,112,222,352,-6
1,170636,-1508,1123,-1013,-4713,1682,112,222,352,-6
1,170643,-1508,1123,-1013,-4713,1682,112,222,352,-6
1,170651,-1812,1170,-1058,-4087,1856,187,222,352,-6
1,170658,-1812,1170,-1058,-4087,1856,187,222,352,-6
1,170663,-1812,1170,-1058,-4087,1856,187,222,352,-6
1,170671,-1838,1255,-1075,-3584,2155,394,222,352,-6
1,170678,-1838,1255,-1075,-3584,2155,394,222,352,-6
1,170685,-1838,1255,-1075,-3584,2155,394,222,352,-6
1,170693,-1664,1251,-1012,-3577,2171,191,222,352,-6
1,170700,-1664,1251,-1012,-3577,2171,191,222,352,-6
1,170706,-1543,1195,-918,-3610,1848,-60,221,359,-13
1,170713,-1543,1195,-918,-3610,1848,-60,221,359,-13
1,170720,-1543,1195,-918,-3610,1848,-60,221,359,-13
1,170727,-1462,1147,-894,-3500,1549,-76,221,359,-13
1,170736,-1462,1147,-894,-3500,1549,-76,221,359,-13
1,170743,-1462,1147,-894,-3500,1549,-76,221,359,-13
1,170753,-1383,1115,-908,-3187,1433,-5,221,359,-13
1,170760,-1383,1115,-908,-3187,1433,-5,221,359,-13
1,170767,-1343,1133,-906,-2628,1453,15,221,359,-13
1,170774,-1343,1133,-906,-2628,1453,15,221,359,-13
1,170781,-1343,1133,-906,-2628,1453,15,221,359,-13
1,170788,-1341,1203,-886,-2171,1313,-97,221,359,-13
1,170795,-1341,1203,-886,-2171,1313,-97,221,359,-13
1,170803,-1341,1203,-886,-2171,1313,-97,221,359,-13
1,170808,-1394,1259,-912,-2010,1103,-90,221,359,-13
1,170813,-1394,1259,-912,-2010,1103,-90,221,359,-13
1,170818,-1394,1259,-912,-2010,1103,-90,221,359,-13
1,170823,-1394,1259,-912,-2010,1103,-90,221,359,-13
1,170828,-1478,1287,-951,-1998,982,-132,229,361,-13
1,170833,-1478,1287,-951,-1998,982,-132,229,361,-13
1,170839,-1478,1287,-951,-1998,982,-132,229,361,-13
1,170845,-1478,1287,-951,-1998,982,-132,229,361,-13
1,170852,-1502,1306,-938,-2247,815,-288,229,361,-13
1,170859,-1502,1306,-938,-2247,815,-288,229,361,-13
1,170865,-1502,1306,-938,-2247,815,-288,229,361,-13
1,170870,-1480,1293,-942,-2457,642,-446,229,361,-13
1,170875,-1480,1293,-942,-2457,642,-446,229,361,-13
1,170881,-1480,1293,-942,-2457,642,-446,229,361,-13
1,170885,-1480,1293,-942,-2457,642,-446,229,361,-13
1,170890,-1482,1283,-938,-2367,511,-457,229,361,-13
1,170895,-1482,1283,-938,-2367,511,-457,229,361,-13
1,170902,-1482,1283,-938,-2367,511,-457,229,361,-13
1,170908,-1455,1262,-934,-2407,309,-408,229,361,-13
1,170915,-1455,1262,-934,-2407,309,-408,229,361,-13
1,170923,-1455,1262,-934,-2407,309,-408,229,361,-13
1,170930,-1428,1228,-940,-2304,98,-370,229,361,-13
1,170937,-1428,1228,-940,-2304,98,-370,229,361,-13
1,170944,-1428,1228,-940,-2304,98,-370,229,361,-13
1,170953,-1459,1215,-934,-1961,-104,-340,222,364,-16
1,170961,-1459,1215,-934,-1961,-104,-340,222,364,-16
1,170969,-1511,1216,-936,-1624,-315,-328,222,364,-16
1,170976,-1511,1216,-936,-1624,-315,-328,222,364,-16
1,170982,-1511,1216,-936,-1624,-315,-328,222,364,-16
1,170989,-1572,1238,-926,-1308,-576,-299,222,364,-16
1,170996,-1572,1238,-926,-1308,-576,-299,222,364,-16
1,171003,-1572,1238,-926,-1308,-576,-299,222,364,-16
1,171010,-1611,1266,-904,-1051,-915,-281,222,364,-16
1,171016,-1611,1266,-904,-1051,-915,-281,222,364,-16
1,171023,-1611,1266,-904,-1051,-915,-281,222,364,-16
1,171029,-1635,1275,-876,-908,-1253,-226,222,364,-16
1,171037,-1635,1275,-876,-908,-1253,-226,222,364,-16
1,171044,-1635,1275,-876,-908,-1253,-226,222,364,-16
1,171052,-1635,1275,-876,-908,-1253,-226,222,364,-16
1,171058,-1635,1275,-876,-908,-1253,-226,222,364,-16
1,171065,-1635,1275,-876,-908,-1253,-226,222,364,-16
1,171072,-1653,1340,-870,-526,-1616,11,222,364,-16
1,171079,-1653,1340,-870,-526,-1616,11,222,364,-16
1,171086,-1639,1374,-848,-560,-1903,221,219,361,-17
1,171092,-1639,1374,-848,-560,-1903,221,219,361,-17
1,171098,-1639,1374,-848,-560,-1903,221,219,361,-17
1,171105,-1639,1374,-848,-560,-1903,221,219,361,-17
1,171113,-1633,1385,-823,-671,-2408,653,219,361,-17
1,171120,-1633,1385,-823,-671,-2408,653,219,361,-17
1,171127,-1640,1355,-801,-717,-2802,1394,219,361,-17
1,171133,-1640,1355,-801,-717,-2802,1394,219,361,-17
1,171140,-1640,1355,-801,-717,-2802,1394,219,361,-17
1,171148,-1720,1373,-815,-177,-2782,2326,219,361,-17
1,171155,-1720,1373,-815,-177,-2782,2326,219,361,-17
1,171161,-1720,1373,-815,-177,-2782,2326,219,361,-17
1,171166,-1816,1439,-824,259,-2356,3255,219,361,-17
1,171174,-1816,1439,-824,259,-2356,3255,219,361,-17
1,171181,-1816,1439,-824,259,-2356,3255,219,361,-17
1,171188,-1888,1440,-899,36,-1725,3907,219,361,-17
1,171196,-1888,1440,-899,36,-1725,3907,219,361,-17
1,171203,-1888,1440,-899,36,-1725,3907,219,361,-17
1,171210,-1956,1319,-1052,-694,-720,3942,210,354,-10
1,171217,-1956,1319,-1052,-694,-720,3942,210,354,-10
1,171225,-1956,1319,-1052,-694,-720,3942,210,354,-10
1,171231,-2020,1067,-1112,-1847,465,2724,210,354,-10
1,171238,-2020,1067,-1112,-1847,465,2724,210,354,-10
1,171245,-2020,1067,-1112,-1847,465,2724,210,354,-10
1,171253,-1876,843,-1046,-2943,-98,921,210,354,-10
1,171258,-1876,843,-1046,-2943,-98,921,210,354,-10
1,171267,-1557,701,-936,-2923,-851,-263,210,354,-10
1,171274,-1557,701,-936,-2923,-851,-263,210,354,-10
1,171281,-1557,701,-936,-2923,-851,-263,210,354,-10
1,171289,-1334,620,-872,-1921,-383,-595,210,354,-10
1,171297,-1334,620,-872,-1921,-383,-595,210,354,-10
1,171304,-1334,620,-872,-1921,-383,-595,210,354,-10
1,171312,-1317,600,-838,-770,27,-40,210,354,-10
1,171319,-1317,600,-838,-770,27,-40,210,354,-10
1,171325,-1317,600,-838,-770,27,-40,210,354,-10
1,171333,-1548,700,-866,366,306,861,209,359,-5
1,171340,-1548,700,-866,366,306,861,209,359,-5
1,171346,-1765,909,-929,1281,490,1353,209,359,-5
1,171356,-1765,909,-929,1281,490,1353,209,359,-5
1,171363,-1765,909,-929,1281,490,1353,209,359,-5
1,171370,-1819,1074,-910,1222,264,1331,209,359,-5
1,171377,-1819,1074,-910,1222,264,1331,209,359,-5
1,171384,-1819,1074,-910,1222,264,1331,209,359,-5
1,171392,-1770,1159,-869,575,-130,1046,209,359,-5
1,171398,-1770,1159,-869,575,-130,1046,209,359,-5
1,171405,-1770,1159,-869,575,-130,1046,209,359,-5
1,171412,-1640,1190,-816,-201,-365,784,209,359,-5
1,171419,-1640,1190,-816,-201,-365,784,209,359,-5
1,171426,-1502,1155,-767,-876,-225,508,209,359,-5
1,171431,-1502,1155,-767,-876,-225,508,209,359,-5
1,171440,-1502,1155,-767,-876,-225,508,209,359,-5
1,171446,-1367,1082,-717,-1573,-279,490,210,362,-12
1,171452,-1367,1082,-717,-1573,-279,490,210,362,-12
1,171460,-1367,1082,-717,-1573,-279,490,210,362,-12
1,171467,-1282,1032,-689,-2022,-553,578,210,362,-12
1,171474,-1282,1032,-689,-2022,-553,578,210,362,-12
1,171481,-1282,1032,-689,-2022,-553,578,210,362,-12
1,171488,-1276,1074,-657,-2027,-551,560,210,362,-12
1,171493,-1276,1074,-657,-2027,-551,560,210,362,-12
1,171499,-1276,1074,-657,-2027,-551,560,210,362,-12
1,171506,-1274,1114,-671,-2198,-55,505,210,362,-12
1,171513,-1274,1114,-671,-2198,-55,505,210,362,-12
1,171522,-1274,1114,-671,-2198,-55,505,210,362,-12
1,171528,-1302,1117,-694,-2771,458,361,210,362,-12
1,171535,-1302,1117,-694,-2771,458,361,210,362,-12
1,171542,-1302,1117,-694,-2771,458,361,210,362,-12
1,171550,-1360,1063,-673,-3520,614,-100,210,362,-12
1,171557,-1360,1063,-673,-3520,614,-100,210,362,-12
1,171565,-1360,1063,-673,-3520,614,-100,210,362,-12
1,171573,-1435,1049,-671,-3764,846,-456,210,362,-12
1,171580,-1435,1049,-671,-3764,846,-456,210,362,-12
1,171585,-1435,1049,-671,-3764,846,-456,210,362,-12
1,171591,-1502,1102,-671,-3774,1261,-601,208,362,-16
1,171597,-1502,1102,-671,-3774,1261,-601,208,362,-16
1,171606,-1492,1132,-687,-4080,1529,-932,208,362,-16
1,171614,-1492,1132,-687,-4080,1529,-932,208,362,-16
1,171622,-1492,1132,-687,-4080,1529,-932,208,362,-16
1,171628,-1500,1151,-689,-4515,1589,-1192,208,362,-16
1,171635,-1500,1151,-689,-4515,1589,-1192,208,362,-16
1,171641,-1500,1151,-689,-4515,1589,-1192,208,362,-16
1,171649,-1517,1156,-713,-4890,1550,-1156,208,362,-16
1,171657,-1517,1156,-713,-4890,1550,-1156,208,362,-16
1,171664,-1517,1156,-713,-4890,1550,-1156,208,362,-16
1,171669,-1542,1166,-740,-5122,1734,-993,208,362,-16
1,171676,-1542,1166,-740,-5122,1734,-993,208,362,-16
1,171684,-1542,1166,-740,-5122,1734,-993,208,362,-16
1,171692,-1541,1166,-760,-5386,1986,-794,208,362,-16
1,171701,-1541,1166,-760,-5386,1986,-794,208,362,-16
1,171707,-1538,1142,-739,-5791,2219,-498,212,362,-14
1,171714,-1538,1142,-739,-5791,2219,-498,212,362,-14
1,171719,-1538,1142,-739,-5791,2219,-498,212,362,-14
1,171727,-1538,1143,-744,-6070,2174,-295,212,362,-14
1,171734,-1538,1143,-744,-6070,2174,-295,212,362,-14
1,171742,-1538,1143,-744,-6070,2174,-295,212,362,-14
1,171749,-1502,1159,-759,-6217,1909,-173,212,362,-14
1,171756,-1502,1159,-759,-6217,1909,-173,212,362,-14
1,171762,-1502,1159,-759,-6217,1909,-173,212,362,-14
1,171769,-1483,1155,-719,-6287,1897,-218,212,362,-14
1,171776,-1483,1155,-719,-6287,1897,-218,212,362,-14
1,171782,-1483,1155,-719,-6287,1897,-218,212,362,-14
1,171790,-1498,1147,-660,-6332,1907,-210,212,362,-14
1,171796,-1498,1147,-660,-6332,1907,-210,212,362,-14
1,171802,-1498,1147,-660,-6332,1907,-210,212,362,-14
1,171807,-1573,1233,-644,-6125,1930,321,212,362,-14
1,171812,-1573,1233,-644,-6125,1930,321,212,362,-14
1,171817,-1573,1233,-644,-6125,1930,321,212,362,-14
1,171823,-1573,1233,-644,-6125,1930,321,212,362,-14
1,171828,-1654,1370,-674,-6137,1849,1148,202,380,-26
1,171833,-1654,1370,-674,-6137,1849,1148,202,380,-26
1,171839,-1654,1370,-674,-6137,1849,1148,202,380,-26
1,171844,-1654,1370,-674,-6137,1849,1148,202,380,-26
1,171851,-1724,1450,-709,-6740,1467,2025,202,380,-26
1,171858,-1724,1450,-709,-6740,1467,2025,202,380,-26
1,171865,-1724,1450,-709,-6740,1467,2025,202,380,-26
1,171870,-1779,1426,-810,-7318,1225,2670,202,380,-26
1,171875,-1779,1426,-810,-7318,1225,2670,202,380,-26
1,171880,-1779,1426,-810,-7318,1225,2670,202,380,-26
1,171885,-1779,1426,-810,-7318,1225,2670,202,380,-26
1,171890,-1825,1390,-898,-7372,1469,2688,202,380,-26
1,171896,-1825,1390,-898,-7372,1469,2688,202,380,-26
1,171904,-1825,1390,-898,-7372,1469,2688,202,380,-26
1,171910,-1933,1288,-977,-7215,2008,2314,202,380,-26
1,171916,-1933,1288,-977,-7215,2008,2314,202,380,-26
1,171923,-1933,1288,-977,-7215,2008,2314,202,380,-26
1,171930,-1987,1261,-1133,-6302,2440,1744,202,380,-26
1,171937,-1987,1261,-1133,-6302,2440,1744,202,380,-26
1,171944,-1987,1261,-1133,-6302,2440,1744,202,380,-26
1,171951,-1865,1278,-1208,-5845,2499,520,198,382,-32
1,171959,-1865,1278,-1208,-5845,2499,520,198,382,-32
1,171967,-1627,1144,-1137,-5922,2685,-924,198,382,-32
1,171974,-1627,1144,-1137,-5922,2685,-924,198,382,-32
1,171980,-1627,1144,-1137,-5922,2685,-924,198,382,-32
1,171987,-1665,1167,-1043,-5592,2868,-1318,198,382,-32
1,171994,-1665,1167,-1043,-5592,2868,-1318,198,382,-32
1,172000,-1665,1167,-1043,-5592,2868,-1318,198,382,-32
1,172009,-1555,1236,-1073,-5782,1163,-850,198,382,-32
1,172015,-1555,1236,-1073,-5782,1163,-850,198,382,-32
1,172021,-1555,1236,-1073,-5782,1163,-850,198,382,-32
1,172029,-1404,1317,-1112,-6070,36,-449,198,382,-32
1,172037,-1404,1317,-1112,-6070,36,-449,198,382,-32
1,172043,-1404,1317,-1112,-6070,36,-449,198,382,-32
1,172050,-1288,1341,-1156,-6531,92,-568,198,382,-32
1,172058,-1288,1341,-1156,-6531,92,-568,198,382,-32
1,172064,-1288,1341,-1156,-6531,92,-568,198,382,-32
1,172071,-1225,1291,-1206,-7115,510,-942,211,389,-35
1,172079,-1225,1291,-1206,-7115,510,-942,211,389,-35
1,172085,-1225,1291,-1206,-7115,510,-942,211,389,-35
1,172092,-1261,1242,-1241,-7315,1107,-1348,211,389,-35
1,172099,-1261,1242,-1241,-7315,1107,-1348,211,389,-35
1,172105,-1261,1242,-1241,-7315,1107,-1348,211,389,-35
1,172112,-1473,1250,-1288,-6978,1837,-1363,211,389,-35
1,172120,-1473,1250,-1288,-6978,1837,-1363,211,389,-35
1,172126,-1704,1251,-1300,-6606,2419,-1264,211,389,-35
1,172134,-1704,1251,-1300,-6606,2419,-1264,211,389,-35
1,172142,-1704,1251,-1300,-6606,2419,-1264,211,389,-35
1,172149,-1749,1261,-1253,-6345,2135,-1221,211,389,-35
1,172156,-1749,1261,-1253,-6345,2135,-1221,211,389,-35
1,172164,-1749,1261,-1253,-6345,2135,-1221,211,389,-35
1,172171,-1621,1238,-1128,-6163,1380,-1521,211,389,-35
1,172179,-1621,1238,-1128,-6163,1380,-1521,211,389,-35
1,172185,-1621,1238,-1128,-6163,1380,-1521,211,389,-35
1,172192,-1509,1239,-1046,-5664,1206,-1670,211,389,-35
1,172199,-1509,1239,-1046,-5664,1206,-1670,211,389,-35
1,172207,-1428,1236,-1029,-5257,1170,-1465,216,398,-40
1,172214,-1428,1236,-1029,-5257,1170,-1465,216,398,-40
1,172220,-1428,1236,-1029,-5257,1170,-1465,216,398,-40
1,172227,-1327,1237,-1020,-4934,881,-1431,216,398,-40
1,172234,-1327,1237,-1020,-4934,881,-1431,216,398,-40
1,172242,-1327,1237,-1020,-4934,881,-1431,216,398,-40
1,172250,-1230,1245,-1023,-4720,634,-1553,216,398,-40
1,172255,-1230,1245,-1023,-4720,634,-1553,216,398,-40
1,172261,-1230,1245,-1023,-4720,634,-1553,216,398,-40
1,172267,-1237,1260,-1041,-4606,704,-1517,216,398,-40
1,172273,-1237,1260,-1041,-4606,704,-1517,216,398,-40
1,172280,-1237,1260,-1041,-4606,704,-1517,216,398,-40
1,172289,-1327,1255,-1090,-4609,695,-1285,216,398,-40
1,172294,-1327,1255,-1090,-4609,695,-1285,216,398,-40
1,172301,-1327,1255,-1090,-4609,695,-1285,216,398,-40
1,172310,-1422,1270,-1116,-4402,668,-1237,216,398,-40
1,172316,-1422,1270,-1116,-4402,668,-1237,216,398,-40
1,172322,-1422,1270,-1116,-4402,668,-1237,216,398,-40
1,172329,-1471,1307,-1112,-4000,830,-1408,207,395,-55
1,172336,-1471,1307,-1112,-4000,830,-1408,207,395,-55
1,172343,-1471,1307,-1112,-4000,830,-1408,207,395,-55
1,172349,-1456,1337,-1072,-3878,828,-1516,207,395,-55
1,172354,-1456,1337,-1072,-3878,828,-1516,207,395,-55
1,172362,-1456,1337,-1072,-3878,828,-1516,207,395,-55
1,172369,-1434,1325,-1051,-4021,579,-1393,207,395,-55
1,172377,-1434,1325,-1051,-4021,579,-1393,207,395,-55
1,172385,-1434,1325,-1051,-4021,579,-1393,207,395,-55
1,172391,-1415,1308,-1017,-4012,163,-1195,207,395,-55
1,172398,-1415,1308,-1017,-4012,163,-1195,207,395,-55
1,172405,-1415,1308,-1017,-4012,163,-1195,207,395,-55
1,172411,-1378,1301,-1008,-3817,-193,-1043,207,395,-55
1,172420,-1378,1301,-1008,-3817,-193,-1043,207,395,-55
1,172428,-1369,1282,-1012,-3630,-341,-799,207,395,-55
1,172434,-1369,1282,-1012,-3630,-341,-799,207,395,-55
1,172440,-1369,1282,-1012,-3630,-341,-799,207,395,-55
1,172447,-1399,1248,-1006,-3461,-550,-558,218,402,-48
1,172454,-1399,1248,-1006,-3461,-550,-558,218,402,-48
1,172462,-1399,1248,-1006,-3461,-550,-558,218,402,-48
1,172468,-1454,1244,-994,-3110,-960,-329,218,402,-48
1,172475,-1454,1244,-994,-3110,-960,-329,218,402,-48
1,172482,-1454,1244,-994,-3110,-960,-329,218,402,-48
1,172487,-1519,1272,-957,-2653,-1404,-116,218,402,-48
1,172495,-1519,1272,-957,-2653,-1404,-116,218,402,-48
1,172503,-1519,1272,-957,-2653,-1404,-116,218,402,-48
1,172510,-1573,1298,-951,-2204,-1802,91,218,402,-48
1,172516,-1573,1298,-951,-2204,-1802,91,218,402,-48
1,172524,-1573,1298,-951,-2204,-1802,91,218,402,-48
1,172530,-1560,1354,-936,-1826,-2045,357,218,402,-48
1,172537,-1560,1354,-936,-1826,-2045,357,218,402,-48
1,172545,-1560,1354,-936,-1826,-2045,357,218,402,-48
1,172553,-1504,1410,-912,-1723,-2114,446,218,402,-48
1,172559,-1504,1410,-912,-1723,-2114,446,218,402,-48
1,172566,-1489,1400,-903,-1899,-2078,339,218,390,-58
1,172572,-1489,1400,-903,-1899,-2078,339,218,390,-58
1,172579,-1489,1400,-903,-1899,-2078,339,218,390,-58
1,172587,-1574,1315,-852,-2043,-2108,323,218,390,-58
1,172595,-1574,1315,-852,-2043,-2108,323,218,390,-58
1,172603,-1574,1315,-852,-2043,-2108,323,218,390,-58
1,172610,-1821,1259,-853,-1430,-2046,847,218,390,-58
1,172617,-1821,1259,-853,-1430,-2046,847,218,390,-58
1,172624,-1821,1259,-853,-1430,-2046,847,218,390,-58
1,172631,-2128,1304,-933,-259,-1928,1412,218,390,-58
1,172638,-2128,1304,-933,-259,-1928,1412,218,390,-58
1,172646,-2128,1304,-933,-259,-1928,1412,218,390,-58
1,172653,-2221,1417,-1035,623,-1758,1250,218,390,-58
1,172660,-2221,1417,-1035,623,-1758,1250,218,390,-58
1,172668,-1976,1429,-1089,506,-1580,358,218,390,-58
1,172674,-1976,1429,-1089,506,-1580,358,218,390,-58
1,172681,-1976,1429,-1089,506,-1580,358,218,390,-58
1,172687,-1575,1360,-1035,-244,-1995,-564,218,390,-58
1,172694,-1575,1360,-1035,-244,-1995,-564,218,390,-58
1,172700,-1575,1360,-1035,-244,-1995,-564,218,390,-58
1,172706,-1303,1224,-994,-869,-2098,-845,212,396,-42
1,172713,-1303,1224,-994,-869,-2098,-845,212,396,-42
1,172720,-1303,1224,-994,-869,-2098,-845,212,396,-42
1,172727,-1228,1125,-998,-660,-1685,-575,212,396,-42
1,172733,-1228,1125,-998,-660,-1685,-575,212,396,-42
1,172741,-1228,1125,-998,-660,-1685,-575,212,396,-42
1,172747,-1276,1131,-992,-96,-1140,-152,212,396,-42
1,172753,-1276,1131,-992,-96,-1140,-152,212,396,-42
1,172762,-1276,1131,-992,-96,-1140,-152,212,396,-42
1,172768,-1362,1103,-902,-123,-837,-166,212,396,-42
1,172775,-1362,1103,-902,-123,-837,-166,212,396,-42
1,172782,-1362,1103,-902,-123,-837,-166,212,396,-42
1,172788,-1509,1031,-792,-340,-795,-356,212,396,-42
1,172795,-1509,1031,-792,-340,-795,-356,212,396,-42
1,172803,-1509,1031,-792,-340,-795,-356,212,396,-42
1,172808,-1669,1042,-770,-202,-559,-154,212,396,-42
1,172813,-1669,1042,-770,-202,-559,-154,212,396,-42
1,172819,-1669,1042,-770,-202,-559,-154,212,396,-42
1,172824,-1669,1042,-770,-202,-559,-154,212,396,-42
1,172829,-1729,1152,-842,-227,-28,162,206,400,-40
1,172834,-1729,1152,-842,-227,-28,162,206,400,-40
1,172839,-1729,1152,-842,-227,-28,162,206,400,-40
1,172845,-1729,1152,-842,-227,-28,162,206,400,-40
1,172851,-1675,1167,-938,-823,192,-108,206,400,-40
1,172856,-1675,1167,-938,-823,192,-108,206,400,-40
1,172864,-1675,1167,-938,-823,192,-108,206,400,-40
1,172869,-1640,1085,-955,-1527,158,-887,206,400,-40
1,172873,-1640,1085,-955,-1527,158,-887,206,400,-40
1,172878,-1640,1085,-955,-1527,158,-887,206,400,-40
1,172883,-1640,1085,-955,-1527,158,-887,206,400,-40
1,172889,-1565,1011,-949,-1901,107,-1557,206,400,-40
1,172894,-1565,1011,-949,-1901,107,-1557,206,400,-40
1,172900,-1565,1011,-949,-1901,107,-1557,206,400,-40
1,172905,-1565,1011,-949,-1901,107,-1557,206,400,-40
1,172911,-1565,1011,-949,-1901,107,-1557,206,400,-40
1,172917,-1565,1011,-949,-1901,107,-1557,206,400,-40
1,172922,-1565,1011,-949,-1901,107,-1557,206,400,-40
1,172929,-1393,971,-887,-1768,872,-1869,206,400,-40
1,172934,-1393,971,-887,-1768,872,-1869,206,400,-40
1,172940,-1393,971,-887,-1768,872,-1869,206,400,-40
1,172946,-1393,971,-887,-1768,872,-1869,206,400,-40
1,172952,-1369,897,-870,-1775,1147,-1854,213,395,-37
1,172958,-1369,897,-870,-1775,1147,-1854,213,395,-37
1,172964,-1369,897,-870,-1775,1147,-1854,213,395,-37
1,172969,-1489,845,-864,-1588,1542,-1765,213,395,-37
1,172976,-1489,845,-864,-1588,1542,-1765,213,395,-37
1,172982,-1489,845,-864,-1588,1542,-1765,213,395,-37
1,172988,-1579,867,-889,-1346,1526,-1412,213,395,-37
1,172993,-1579,867,-889,-1346,1526,-1412,213,395,-37
1,172999,-1579,867,-889,-1346,1526,-1412,213,395,-37
1,173005,-1579,867,-889,-1346,1526,-1412,213,395,-37
1,173011,-1559,911,-919,-1418,1338,-1032,213,395,-37
1,173017,-1559,911,-919,-1418,1338,-1032,213,395,-37
1,173023,-1559,911,-919,-1418,1338,-1032,213,395,-37
1,173029,-1512,890,-882,-1650,1236,-993,213,395,-37
1,173034,-1512,890,-882,-1650,1236,-993,213,395,-37
1,173041,-1512,890,-882,-1650,1236,-993,213,395,-37
1,173046,-1528,863,-835,-1463,1248,-918,213,395,-37
1,173052,-1528,863,-835,-1463,1248,-918,213,395,-37
1,173060,-1528,863,-835,-1463,1248,-918,213,395,-37
1,173067,-1530,888,-822,-958,1252,-522,222,400,-60
1,173073,-1530,888,-822,-958,1252,-522,222,400,-60
1,173082,-1530,888,-822,-958,1252,-522,222,400,-60
1,173087,-1524,954,-813,-599,1079,1,222,400,-60
1,173093,-1524,954,-813,-599,1079,1,222,400,-60
1,173100,-1524,954,-813,-599,1079,1,222,400,-60
1,173106,-1524,954,-813,-599,1079,1,222,400,-60
1,173113,-1491,962,-815,-691,543,471,222,400,-60
1,173119,-1491,962,-815,-691,543,471,222,400,-60
1,173124,-1491,962,-815,-691,543,471,222,400,-60
1,173132,-1506,937,-808,-654,393,788,222,400,-60
1,173139,-1506,937,-808,-654,393,788,222,400,-60
1,173148,-1586,928,-796,-326,701,970,222,400,-60
1,173155,-1586,928,-796,-326,701,970,222,400,-60
1,173161,-1586,928,-796,-326,701,970,222,400,-60
1,173168,-1669,940,-793,-94,774,1124,222,400,-60
1,173176,-1669,940,-793,-94,774,1124,222,400,-60
1,173184,-1669,940,-793,-94,774,1124,222,400,-60
1,173191,-1707,966,-766,87,491,1274,217,411,-59
1,173199,-1707,966,-766,87,491,1274,217,411,-59
1,173206,-1707,1038,-769,233,100,1398,217,411,-59
1,173213,-1707,1038,-769,233,100,1398,217,411,-59
1,173220,-1707,1038,-769,233,100,1398,217,411,-59
1,173228,-1663,1065,-784,35,-314,1449,217,411,-59
1,173235,-1663,1065,-784,35,-314,1449,217,411,-59
1,173241,-1663,1065,-784,35,-314,1449,217,411,-59
1,173249,-1647,1019,-771,-275,-479,1540,217,411,-59
1,173256,-1647,1019,-771,-275,-479,1540,217,411,-59
1,173263,-1647,1019,-771,-275,-479,1540,217,411,-59
1,173270,-1648,951,-748,-453,-673,1703,217,411,-59
1,173275,-1648,951,-748,-453,-673,1703,217,411,-59
1,173282,-1648,951,-748,-453,-673,1703,217,411,-59
1,173290,-1645,890,-721,-574,-1168,1879,217,411,-59
1,173297,-1645,890,-721,-574,-1168,1879,217,411,-59
1,173305,-1645,890,-721,-574,-1168,1879,217,411,-59
1,173313,-1643,884,-710,-540,-1703,2181,217,411,-59
1,173321,-1643,884,-710,-540,-1703,2181,217,411,-59
1,173328,-1657,907,-734,-410,-1881,2543,205,409,-63
1,173334,-1657,907,-734,-410,-1881,2543,205,409,-63
1,173341,-1657,907,-734,-410,-1881,2543,205,409,-63
1,173349,-1692,950,-826,-234,-1704,2683,205,409,-63
1,173357,-1692,950,-826,-234,-1704,2683,205,409,-63
1,173365,-1692,950,-826,-234,-1704,2683,205,409,-63
1,173372,-1783,1012,-896,128,-1711,2699,205,409,-63
1,173379,-1783,1012,-896,128,-1711,2699,205,409,-63
1,173386,-1921,1126,-952,699,-2054,2952,205,409,-63
1,173394,-1921,1126,-952,699,-2054,2952,205,409,-63
1,173401,-1921,1126,-952,699,-2054,2952,205,409,-63
1,173408,-1828,1325,-1110,1225,-2291,3038,205,409,-63
1,173416,-1828,1325,-1110,1225,-2291,3038,205,409,-63
1,173423,-1828,1325,-1110,1225,-2291,3038,205,409,-63
1,173429,-1738,1339,-1117,822,-1788,2357,205,409,-63
1,173436,-1738,1339,-1117,822,-1788,2357,205,409,-63
1,173445,-1738,1339,-1117,822,-1788,2357,205,409,-63
1,173451,-1779,1162,-1022,260,-1594,954,204,418,-52
1,173457,-1779,1162,-1022,260,-1594,954,204,418,-52
1,173462,-1779,1162,-1022,260,-1594,954,204,418,-52
1,173469,-1805,1101,-922,724,-1876,-52,204,418,-52
1,173475,-1805,1101,-922,724,-1876,-52,204,418,-52
1,173480,-1805,1101,-922,724,-1876,-52,204,418,-52
1,173488,-1680,1156,-889,1716,-2514,-335,204,418,-52
1,173493,-1680,1156,-889,1716,-2514,-335,204,418,-52
1,173500,-1680,1156,-889,1716,-2514,-335,204,418,-52
1,173508,-1516,1241,-922,2487,-3146,-223,204,418,-52
1,173516,-1516,1241,-922,2487,-3146,-223,204,418,-52
1,173524,-1516,1241,-922,2487,-3146,-223,204,418,-52
1,173532,-1383,1310,-995,2655,-3258,-72,204,418,-52
1,173539,-1383,1310,-995,2655,-3258,-72,204,418,-52
1,173546,-1383,1310,-995,2655,-3258,-72,204,418,-52
1,173553,-1273,1290,-1079,2317,-3162,-235,204,418,-52
1,173559,-1273,1290,-1079,2317,-3162,-235,204,418,-52
1,173568,-1223,1229,-1112,2327,-2945,-554,187,405,-47
1,173574,-1223,1229,-1112,2327,-2945,-554,187,405,-47
1,173579,-1223,1229,-1112,2327,-2945,-554,187,405,-47
1,173587,-1217,1245,-1157,3059,-2714,-643,187,405,-47
1,173595,-1217,1245,-1157,3059,-2714,-643,187,405,-47
1,173602,-1217,1245,-1157,3059,-2714,-643,187,405,-47
1,173608,-1244,1335,-1162,3714,-2540,-500,187,405,-47
1,173616,-1244,1335,-1162,3714,-2540,-500,187,405,-47
1,173622,-1244,1335,-1162,3714,-2540,-500,187,405,-47
1,173627,-1361,1363,-1120,3821,-2342,-129,187,405,-47
1,173635,-1361,1363,-1120,3821,-2342,-129,187,405,-47
1,173642,-1361,1363,-1120,3821,-2342,-129,187,405,-47
1,173650,-1541,1341,-1091,3992,-2320,344,187,405,-47
1,173658,-1541,1341,-1091,3992,-2320,344,187,405,-47
1,173666,-1541,1341,-1091,3992,-2320,344,187,405,-47
1,173673,-1680,1360,-1059,4491,-2416,682,187,405,-47
1,173679,-1680,1360,-1059,4491,-2416,682,187,405,-47
1,173685,-1680,1360,-1059,4491,-2416,682,187,405,-47
1,173692,-1712,1374,-1025,4974,-2355,652,184,404,-48
1,173700,-1712,1374,-1025,4974,-2355,652,184,404,-48
1,173707,-1612,1351,-986,5244,-2216,376,184,404,-48
1,173712,-1612,1351,-986,5244,-2216,376,184,404,-48
1,173719,-1612,1351,-986,5244,-2216,376,184,404,-48
1,173727,-1440,1305,-923,5323,-2247,23,184,404,-48
1,173734,-1440,1305,-923,5323,-2247,23,184,404,-48
1,173743,-1440,1305,-923,5323,-2247,23,184,404,-48
1,173750,-1329,1251,-905,5514,-2279,-125,184,404,-48
1,173757,-1329,1251,-905,5514,-2279,-125,184,404,-48
1,173763,-1329,1251,-905,5514,-2279,-125,184,404,-48
1,173771,-1380,1241,-945,6056,-2244,16,184,404,-48
1,173777,-1380,1241,-945,6056,-2244,16,184,404,-48
1,173785,-1380,1241,-945,6056,-2244,16,184,404,-48
1,173793,-1454,1291,-984,6688,-2323,120,184,404,-48
1,173800,-1454,1291,-984,6688,-2323,120,184,404,-48
1,173805,-1454,1291,-984,6688,-2323,120,184,404,-48
1,173810,-1494,1324,-984,7082,-2408,49,184,404,-48
1,173815,-1494,1324,-984,7082,-2408,49,184,404,-48
1,173820,-1494,1324,-984,7082,-2408,49,184,404,-48
1,173826,-1494,1324,-984,7082,-2408,49,184,404,-48
1,173831,-1464,1346,-939,7372,-2498,-71,169,409,-47
1,173836,-1464,1346,-939,7372,-2498,-71,169,409,-47
1,173841,-1464,1346,-939,7372,-2498,-71,169,409,-47
1,173846,-1464,1346,-939,7372,-2498,-71,169,409,-47
1,173853,-1409,1327,-884,7340,-2611,99,169,409,-47
1,173861,-1409,1327,-884,7340,-2611,99,169,409,-47
1,173867,-1408,1283,-850,7217,-2774,483,169,409,-47
1,173872,-1408,1283,-850,7217,-2774,483,169,409,-47
1,173877,-1408,1283,-850,7217,-2774,483,169,409,-47
1,173882,-1408,1283,-850,7217,-2774,483,169,409,-47
1,173887,-1458,1293,-857,7308,-2953,796,169,409,-47
1,173892,-1458,1293,-857,7308,-2953,796,169,409,-47
1,173899,-1458,1293,-857,7308,-2953,796,169,409,-47
1,173906,-1458,1293,-857,7308,-2953,796,169,409,-47
1,173914,-1514,1339,-871,7537,-3129,935,169,409,-47
1,173920,-1514,1339,-871,7537,-3129,935,169,409,-47
1,173928,-1524,1369,-885,7667,-3350,1004,169,409,-47
1,173935,-1524,1369,-885,7667,-3350,1004,169,409,-47
1,173942,-1524,1369,-885,7667,-3350,1004,169,409,-47
1,173949,-1499,1366,-889,7668,-3442,1044,162,402,-40
1,173956,-1499,1366,-889,7668,-3442,1044,162,402,-40
1,173963,-1499,1366,-889,7668,-3442,1044,162,402,-40
1,173971,-1480,1348,-877,7641,-3369,923,162,402,-40
1,173977,-1480,1348,-877,7641,-3369,923,162,402,-40
1,173985,-1480,1348,-877,7641,-3369,923,162,402,-40
1,173992,-1451,1336,-837,7465,-3333,717,162,402,-40
1,173998,-1451,1336,-837,7465,-3333,717,162,402,-40
1,174006,-1451,1336,-837,7465,-3333,717,162,402,-40
1,174013,-1480,1331,-828,7264,-3391,429,162,402,-40
1,174021,-1480,1331,-828,7264,-3391,429,162,402,-40
1,174028,-1537,1331,-781,7444,-3629,221,162,402,-40
1,174035,-1537,1331,-781,7444,-3629,221,162,402,-40
1,174043,-1537,1331,-781,7444,-3629,221,162,402,-40
1,174050,-1568,1419,-780,7928,-3614,165,162,402,-40
1,174055,-1568,1419,-780,7928,-3614,165,162,402,-40
1,174062,-1568,1419,-780,7928,-3614,165,162,402,-40
1,174070,-1558,1495,-784,7828,-3338,50,150,402,-44
1,174078,-1558,1495,-784,7828,-3338,50,150,402,-44
1,174086,-1558,1495,-784,7828,-3338,50,150,402,-44
1,174093,-1561,1485,-744,7280,-3092,-284,150,402,-44
1,174098,-1561,1485,-744,7280,-3092,-284,150,402,-44
1,174106,-1561,1485,-744,7280,-3092,-284,150,402,-44
1,174112,-1671,1433,-753,6865,-3041,-461,150,402,-44
1,174118,-1671,1433,-753,6865,-3041,-461,150,402,-44
1,174126,-1671,1433,-753,6865,-3041,-461,150,402,-44
1,174133,-1761,1414,-808,6965,-3319,-259,150,402,-44
1,174139,-1761,1414,-808,6965,-3319,-259,150,402,-44
1,174146,-1761,1414,-808,6965,-3319,-259,150,402,-44
1,174153,-1740,1421,-835,7183,-3830,158,150,402,-44
1,174160,-1740,1421,-835,7183,-3830,158,150,402,-44
1,174168,-1720,1412,-852,7319,-4403,743,150,402,-44
1,174174,-1720,1412,-852,7319,-4403,743,150,402,-44
1,174181,-1720,1412,-852,7319,-4403,743,150,402,-44
1,174187,-1738,1396,-883,7376,-4884,1442,147,399,-37
1,174195,-1738,1396,-883,7376,-4884,1442,147,399,-37
1,174203,-1738,1396,-883,7376,-4884,1442,147,399,-37
1,174209,-1806,1366,-880,7380,-5015,1895,147,399,-37
1,174216,-1806,1366,-880,7380,-5015,1895,147,399,-37
1,174223,-1806,1366,-880,7380,-5015,1895,147,399,-37
1,174230,-1959,1345,-923,7562,-4708,1959,147,399,-37
1,174237,-1959,1345,-923,7562,-4708,1959,147,399,-37
1,174243,-1959,1345,-923,7562,-4708,1959,147,399,-37
1,174248,-2009,1335,-953,7565,-4344,1445,147,399,-37
1,174257,-2009,1335,-953,7565,-4344,1445,147,399,-37
1,174263,-2009,1335,-953,7565,-4344,1445,147,399,-37
1,174272,-1860,1192,-930,6791,-4339,341,147,399,-37
1,174278,-1860,1192,-930,6791,-4339,341,147,399,-37
1,174286,-1860,1192,-930,6791,-4339,341,147,399,-37
1,174292,-1610,1031,-897,6179,-4558,-447,147,399,-37
1,174301,-1610,1031,-897,6179,-4558,-447,147,399,-37
1,174308,-1362,937,-831,6116,-4303,-638,131,395,-35
1,174316,-1362,937,-831,6116,-4303,-638,131,395,-35
1,174322,-1362,937,-831,6116,-4303,-638,131,395,-35
1,174329,-1219,874,-756,6139,-3576,-436,131,395,-35
1,174339,-1219,874,-756,6139,-3576,-436,131,395,-35
1,174345,-1219,874,-756,6139,-3576,-436,131,395,-35
1,174352,-1322,885,-735,6393,-2819,-221,131,395,-35
1,174359,-1322,885,-735,6393,-2819,-221,131,395,-35
1,174366,-1322,885,-735,6393,-2819,-221,131,395,-35
1,174373,-1472,897,-701,6960,-2068,-400,131,395,-35
1,174381,-1472,897,-701,6960,-2068,-400,131,395,-35
1,174389,-1654,1014,-678,7362,-1584,-567,131,395,-35
1,174396,-1654,1014,-678,7362,-1584,-567,131,395,-35
1,174402,-1654,1014,-678,7362,-1584,-567,131,395,-35
1,174410,-1640,1076,-692,6736,-2194,-473,131,395,-35
1,174416,-1640,1076,-692,6736,-2194,-473,131,395,-35
1,174424,-1640,1076,-692,6736,-2194,-473,131,395,-35
1,174431,-1630,1112,-694,5871,-2362,-252,131,395,-35
1,174439,-1630,1112,-694,5871,-2362,-252,131,395,-35
1,174444,-1630,1112,-694,5871,-2362,-252,131,395,-35
1,174451,-1650,1183,-671,5289,-1963,-239,132,392,-38
1,174457,-1650,1183,-671,5289,-1963,-239,132,392,-38
1,174466,-1650,1183,-671,5289,-1963,-239,132,392,-38
1,174473,-1582,1245,-678,4736,-1701,-385,132,392,-38
1,174481,-1582,1245,-678,4736,-1701,-385,132,392,-38
1,174488,-1450,1215,-628,3787,-1624,-442,132,392,-38
1,174494,-1450,1215,-628,3787,-1624,-442,132,392,-38
1,174501,-1450,1215,-628,3787,-1624,-442,132,392,-38
1,174509,-1354,1144,-587,2747,-1569,-384,132,392,-38
1,174517,-1354,1144,-587,2747,-1569,-384,132,392,-38
1,174524,-1354,1144,-587,2747,-1569,-384,132,392,-38
1,174530,-1298,1072,-566,1952,-1535,-239,132,392,-38
1,174537,-1298,1072,-566,1952,-1535,-239,132,392,-38
1,174544,-1298,1072,-566,1952,-1535,-239,132,392,-38
1,174551,-1344,1031,-541,1543,-1278,-100,132,392,-38
1,174558,-1344,1031,-541,1543,-1278,-100,132,392,-38
1,174565,-1344,1031,-541,1543,-1278,-100,132,392,-38
1,174570,-1461,1055,-540,1478,-857,-132,115,399,-47
1,174578,-1461,1055,-540,1478,-857,-132,115,399,-47
1,174585,-1461,1055,-540,1478,-857,-132,115,399,-47
1,174592,-1536,1072,-526,1115,-787,-272,115,399,-47
1,174598,-1536,1072,-526,1115,-787,-272,115,399,-47
1,174606,-1536,1072,-526,1115,-787,-272,115,399,-47
1,174613,-1532,1075,-504,463,-1014,-322,115,399,-47
1,174621,-1532,1075,-504,463,-1014,-322,115,399,-47
1,174628,-1533,1071,-497,-133,-1184,-333,115,399,-47
1,174635,-1533,1071,-497,-133,-1184,-333,115,399,-47
1,174642,-1533,1071,-497,-133,-1184,-333,115,399,-47
1,174648,-1548,1110,-508,-449,-1283,-281,115,399,-47
1,174656,-1548,1110,-508,-449,-1283,-281,115,399,-47
1,174663,-1548,1110,-508,-449,-1283,-281,115,399,-47
1,174670,-1611,1190,-521,-702,-1341,-248,115,399,-47
1,174679,-1611,1190,-521,-702,-1341,-248,115,399,-47
1,174685,-1611,1190,-521,-702,-1341,-248,115,399,-47
1,174692,-1608,1241,-556,-1174,-1582,-359,118,392,-44
1,174699,-1608,1241,-556,-1174,-1582,-359,118,392,-44
1,174707,-1549,1277,-566,-1789,-1765,-397,118,392,-44
1,174714,-1549,1277,-566,-1789,-1765,-397,118,392,-44
1,174722,-1549,1277,-566,-1789,-1765,-397,118,392,-44
1,174729,-1527,1290,-528,-2457,-1648,-334,118,392,-44
1,174736,-1527,1290,-528,-2457,-1648,-334,118,392,-44
1,174743,-1527,1290,-528,-2457,-1648,-334,118,392,-44
1,174749,-1513,1304,-497,-3017,-1519,-222,118,392,-44
1,174757,-1513,1304,-497,-3017,-1519,-222,118,392,-44
1,174765,-1513,1304,-497,-3017,-1519,-222,118,392,-44
1,174771,-1476,1292,-499,-3519,-1439,-88,118,392,-44
1,174779,-1476,1292,-499,-3519,-1439,-88,118,392,-44
1,174784,-1476,1292,-499,-3519,-1439,-88,118,392,-44
1,174791,-1454,1311,-503,-3938,-1378,-73,118,392,-44
1,174797,-1454,1311,-503,-3938,-1378,-73,118,392,-44
1,174803,-1454,1311,-503,-3938,-1378,-73,118,392,-44
1,174809,-1403,1279,-464,-4602,-1382,-186,116,396,-34
1,174813,-1403,1279,-464,-4602,-1382,-186,116,396,-34
1,174819,-1403,1279,-464,-4602,-1382,-186,116,396,-34
1,174824,-1403,1279,-464,-4602,-1382,-186,116,396,-34
1,174829,-1395,1249,-468,-5016,-1190,-285,116,396,-34
1,174834,-1395,1249,-468,-5016,-1190,-285,116,396,-34
1,174839,-1395,1249,-468,-5016,-1190,-285,116,396,-34
1,174843,-1395,1249,-468,-5016,-1190,-285,116,396,-34
1,174850,-1446,1242,-497,-4991,-783,-398,116,396,-34
1,174858,-1446,1242,-497,-4991,-783,-398,116,396,-34
1,174865,-1446,1242,-497,-4991,-783,-398,116,396,-34
1,174873,-1536,1250,-508,-4936,-480,-586,116,396,-34
1,174881,-1536,1250,-508,-4936,-480,-586,116,396,-34
1,174887,-1566,1308,-468,-5004,-536,-759,116,396,-34
1,174895,-1566,1308,-468,-5004,-536,-759,116,396,-34
1,174900,-1566,1308,-468,-5004,-536,-759,116,396,-34
1,174907,-1570,1377,-452,-5135,-539,-845,116,396,-34
1,174916,-1570,1377,-452,-5135,-539,-845,116,396,-34
1,174923,-1570,1377,-452,-5135,-539,-845,116,396,-34
1,174930,-1572,1412,-430,-5290,-510,-684,116,396,-34
1,174936,-1572,1412,-430,-5290,-510,-684,116,396,-34
1,174944,-1572,1412,-430,-5290,-510,-684,116,396,-34
1,174952,-1551,1447,-390,-5625,-697,-232,133,401,-29
1,174959,-1551,1447,-390,-5625,-697,-232,133,401,-29
1,174966,-1551,1447,-390,-5625,-697,-232,133,401,-29
1,174974,-1518,1419,-376,-6504,-690,142,133,401,-29
1,174981,-1518,1419,-376,-6504,-690,142,133,401,-29
1,174987,-1518,1419,-376,-6504,-690,142,133,401,-29
1,174994,-1624,1303,-432,-7286,230,158,133,401,-29
1,175001,-1624,1303,-432,-7286,230,158,133,401,-29
1,175009,-1781,1210,-557,-7370,1499,-165,133,401,-29
1,175016,-1781,1210,-557,-7370,1499,-165,133,401,-29
1,175024,-1781,1210,-557,-7370,1499,-165,133,401,-29
1,175030,-1896,1064,-648,-7668,2051,-303,133,401,-29
1,175037,-1896,1064,-648,-7668,2051,-303,133,401,-29
1,175044,-1896,1064,-648,-7668,2051,-303,133,401,-29
1,175052,-2112,969,-713,-7434,2719,80,133,401,-29
1,175058,-2112,969,-713,-7434,2719,80,133,401,-29
1,175066,-2112,969,-713,-7434,2719,80,133,401,-29
1,175073,-2276,903,-733,-6784,3443,114,137,399,-25
1,175080,-2276,903,-733,-6784,3443,114,137,399,-25
1,175085,-2276,903,-733,-6784,3443,114,137,399,-25
1,175092,-2121,834,-680,-6821,3212,-628,137,399,-25
1,175099,-2121,834,-680,-6821,3212,-628,137,399,-25
1,175107,-2121,834,-680,-6821,3212,-628,137,399,-25
1,175115,-1772,838,-594,-7449,1367,-927,137,399,-25
1,175122,-1772,838,-594,-7449,1367,-927,137,399,-25
1,175128,-1257,868,-609,-7874,-39,-702,137,399,-25
1,175134,-1257,868,-609,-7874,-39,-702,137,399,-25
1,175141,-1257,868,-609,-7874,-39,-702,137,399,-25
1,175151,-1108,862,-672,-7823,1234,32,137,399,-25
1,175158,-1108,862,-672,-7823,1234,32,137,399,-25
1,175165,-1108,862,-672,-7823,1234,32,137,399,-25
1,175170,-1437,816,-750,-7556,2827,157,137,399,-25
1,175176,-1437,816,-750,-7556,2827,157,137,399,-25
1,175181,-1437,816,-750,-7556,2827,157,137,399,-25
1,175187,-1818,903,-840,-6737,3083,280,137,399,-25
1,175195,-1818,903,-840,-6737,3083,280,143,413,-33
1,175201,-1818,903,-840,-6737,3083,280,143,413,-33
1,175209,-2015,1118,-940,-5948,2897,942,143,413,-33
1,175215,-2015,1118,-940,-5948,2897,942,143,413,-33
1,175222,-2015,1118,-940,-5948,2897,942,143,413,-33
1,175229,-1963,1208,-951,-6271,2630,1602,143,413,-33
1,175237,-1963,1208,-951,-6271,2630,1602,143,413,-33
1,175243,-1963,1208,-951,-6271,2630,1602,143,413,-33
1,175250,-1795,1166,-855,-7189,1947,1475,143,413,-33
1,175256,-1795,1166,-855,-7189,1947,1475,143,413,-33
1,175263,-1795,1166,-855,-7189,1947,1475,143,413,-33
1,175270,-1603,1127,-740,-7706,1474,816,143,413,-33
1,175278,-1603,1127,-740,-7706,1474,816,143,413,-33
1,175285,-1603,1127,-740,-7706,1474,816,143,413,-33
1,175291,-1426,1105,-653,-7753,1440,134,143,413,-33
1,175298,-1426,1105,-653,-7753,1440,134,143,413,-33
1,175304,-1426,1105,-653,-7753,1440,134,143,413,-33
1,175311,-1381,1087,-638,-7474,1612,-415,154,412,-40
1,175320,-1381,1087,-638,-7474,1612,-415,154,412,-40
1,175326,-1381,1087,-638,-7474,1612,-415,154,412,-40
1,175333,-1402,1079,-700,-6967,1508,-652,154,412,-40
1,175339,-1402,1079,-700,-6967,1508,-652,154,412,-40
1,175346,-1402,1079,-700,-6967,1508,-652,154,412,-40
1,175352,-1426,1142,-765,-6434,1542,-613,154,412,-40
1,175361,-1426,1142,-765,-6434,1542,-613,154,412,-40
1,175368,-1401,1201,-813,-6496,1663,-514,154,412,-40
1,175374,-1401,1201,-813,-6496,1663,-514,154,412,-40
1,175381,-1401,1201,-813,-6496,1663,-514,154,412,-40
1,175386,-1401,1201,-813,-6496,1663,-514,154,412,-40
1,175394,-1333,1195,-812,-7010,1632,-561,154,412,-40
1,175401,-1333,1195,-812,-7010,1632,-561,154,412,-40
1,175410,-1266,1142,-807,-7364,1613,-710,154,412,-40
1,175417,-1266,1142,-807,-7364,1613,-710,154,412,-40
1,175423,-1266,1142,-807,-7364,1613,-710,154,412,-40
1,175430,-1247,1119,-805,-7221,1806,-780,151,411,-31
1,175438,-1247,1119,-805,-7221,1806,-780,151,411,-31
1,175444,-1247,1119,-805,-7221,1806,-780,151,411,-31
1,175451,-1255,1093,-786,-6867,1932,-857,151,411,-31
1,175456,-1255,1093,-786,-6867,1932,-857,151,411,-31
1,175463,-1255,1093,-786,-6867,1932,-857,151,411,-31
1,175470,-1317,1102,-782,-6292,1776,-819,151,411,-31
1,175477,-1317,1102,-782,-6292,1776,-819,151,411,-31
1,175484,-1317,1102,-782,-6292,1776,-819,151,411,-31
1,175493,-1418,1167,-797,-5650,1459,-651,151,411,-31
1,175498,-1418,1167,-797,-5650,1459,-651,151,411,-31
1,175505,-1418,1167,-797,-5650,1459,-651,151,411,-31
1,175511,-1551,1232,-858,-5117,1289,-419,151,411,-31
1,175517,-1551,1232,-858,-5117,1289,-419,151,411,-31
1,175525,-1551,1232,-858,-5117,1289,-419,151,411,-31
1,175533,-1632,1243,-878,-4880,1167,-172,151,411,-31
1,175539,-1632,1243,-878,-4880,1167,-172,151,411,-31
1,175545,-1632,1243,-878,-4880,1167,-172,151,411,-31
1,175553,-1642,1208,-855,-4856,881,-82,151,411,-31
1,175560,-1642,1208,-855,-4856,881,-82,151,411,-31
1,175566,-1642,1208,-855,-4856,881,-82,151,411,-31
1,175574,-1655,1146,-798,-4695,444,-110,159,417,-33
1,175581,-1655,1146,-798,-4695,444,-110,159,417,-33
1,175589,-1698,1147,-792,-4058,39,-121,159,417,-33
1,175595,-1698,1147,-792,-4058,39,-121,159,417,-33
1,175602,-1698,1147,-792,-4058,39,-121,159,417,-33
1,175610,-1698,1147,-792,-4058,39,-121,159,417,-33
1,175618,-1698,1147,-792,-4058,39,-121,159,417,-33
1,175624,-1698,1147,-792,-4058,39,-121,159,417,-33
1,175631,-1668,1394,-768,-2939,-372,460,159,417,-33
1,175639,-1668,1394,-768,-2939,-372,460,159,417,-33
1,175645,-1668,1394,-768,-2939,-372,460,159,417,-33
1,175653,-1703,1392,-734,-2971,-912,907,159,417,-33
1,175660,-1703,1392,-734,-2971,-912,907,159,417,-33
1,175667,-1703,1392,-734,-2971,-912,907,159,417,-33
1,175672,-1787,1308,-705,-2969,-1639,1776,159,417,-33
1,175680,-1787,1308,-705,-2969,-1639,1776,159,417,-33
1,175687,-1918,1309,-748,-2201,-1928,2667,159,417,-33
1,175695,-1918,1309,-748,-2201,-1928,2667,164,414,-36
1,175704,-1918,1309,-748,-2201,-1928,2667,164,414,-36
1,175712,-1916,1364,-789,-1947,-2201,3109,164,414,-36
1,175719,-1916,1364,-789,-1947,-2201,3109,164,414,-36
1,175724,-1916,1364,-789,-1947,-2201,3109,164,414,-36
1,175730,-2016,1178,-838,-2273,-1646,3054,164,414,-36
1,175737,-2016,1178,-838,-2273,-1646,3054,164,414,-36
1,175742,-2016,1178,-838,-2273,-1646,3054,164,414,-36
1,175751,-2196,997,-931,-2002,-259,2021,164,414,-36
1,175758,-2196,997,-931,-2002,-259,2021,164,414,-36
1,175764,-2196,997,-931,-2002,-259,2021,164,414,-36
1,175771,-2027,886,-938,-1844,211,184,164,414,-36
1,175779,-2027,886,-938,-1844,211,184,164,414,-36
1,175788,-1604,767,-801,-2401,-537,-1099,164,414,-36
1,175796,-1604,767,-801,-2401,-537,-1099,164,414,-36
1,175803,-1604,767,-801,-2401,-537,-1099,164,414,-36
1,175808,-1261,640,-680,-2934,-933,-1430,158,412,-36
1,175813,-1261,640,-680,-2934,-933,-1430,158,412,-36
1,175818,-1261,640,-680,-2934,-933,-1430,158,412,-36
1,175823,-1261,640,-680,-2934,-933,-1430,158,412,-36
1,175828,-1230,576,-627,-2517,-345,-997,158,412,-36
1,175834,-1230,576,-627,-2517,-345,-997,158,412,-36
1,175840,-1230,576,-627,-2517,-345,-997,158,412,-36
1,175845,-1230,576,-627,-2517,-345,-997,158,412,-36
1,175852,-1525,758,-688,-970,691,-157,158,412,-36
1,175857,-1525,758,-688,-970,691,-157,158,412,-36
1,175864,-1525,758,-688,-970,691,-157,158,412,-36
1,175868,-1742,1038,-816,188,1318,572,158,412,-36
1,175874,-1742,1038,-816,188,1318,572,158,412,-36
1,175879,-1742,1038,-816,188,1318,572,158,412,-36
1,175884,-1742,1038,-816,188,1318,572,158,412,-36
1,175889,-1788,1150,-863,-188,1377,767,158,412,-36
1,175895,-1788,1150,-863,-188,1377,767,158,412,-36
1,175901,-1788,1150,-863,-188,1377,767,158,412,-36
1,175906,-1788,1150,-863,-188,1377,767,158,412,-36
1,175912,-1697,1116,-801,-1364,697,496,158,412,-36
1,175919,-1697,1116,-801,-1364,697,496,158,412,-36
1,175924,-1697,1116,-801,-1364,697,496,158,412,-36
1,175930,-1539,1091,-685,-2271,9,314,158,410,-30
1,175936,-1539,1091,-685,-2271,9,314,158,410,-30
1,175941,-1539,1091,-685,-2271,9,314,158,410,-30
1,175946,-1539,1091,-685,-2271,9,314,158,410,-30
1,175952,-1312,1008,-589,-2844,-211,494,158,410,-30
1,175959,-1312,1008,-589,-2844,-211,494,158,410,-30
1,175964,-1312,1008,-589,-2844,-211,494,158,410,-30
1,175970,-1312,1008,-589,-2844,-211,494,158,410,-30
1,175975,-1312,1008,-589,-2844,-211,494,158,410,-30
1,175981,-1312,1008,-589,-2844,-211,494,158,410,-30
1,175986,-1312,1008,-589,-2844,-211,494,158,410,-30
1,175992,-1311,939,-515,-2177,1017,442,158,410,-30
1,175997,-1311,939,-515,-2177,1017,442,158,410,-30
1,176005,-1311,939,-515,-2177,1017,442,158,410,-30
1,176013,-1367,989,-541,-1905,713,529,158,410,-30
1,176020,-1367,989,-541,-1905,713,529,158,410,-30
1,176025,-1367,989,-541,-1905,713,529,158,410,-30
1,176032,-1443,1064,-589,-1832,923,507,158,410,-30
1,176039,-1443,1064,-589,-1832,923,507,158,410,-30
1,176047,-1443,1064,-589,-1832,923,507,158,410,-30
1,176055,-1425,1064,-606,-2229,1202,385,158,410,-30
1,176062,-1425,1064,-606,-2229,1202,385,158,410,-30
1,176070,-1474,1034,-570,-2636,1272,301,159,421,-43
1,176077,-1474,1034,-570,-2636,1272,301,159,421,-43
1,176083,-1474,1034,-570,-2636,1272,301,159,421,-43
1,176092,-1505,1072,-561,-2670,1119,365,159,421,-43
1,176099,-1505,1072,-561,-2670,1119,365,159,421,-43
1,176106,-1505,1072,-561,-2670,1119,365,159,421,-43
1,176114,-1556,1140,-579,-2634,1232,376,159,421,-43
1,176122,-1556,1140,-579,-2634,1232,376,159,421,-43
1,176131,-1560,1194,-590,-2770,1256,233,159,421,-43
1,176138,-1560,1194,-590,-2770,1256,233,159,421,-43
1,176145,-1560,1194,-590,-2770,1256,233,159,421,-43
1,176151,-1584,1207,-584,-3179,1290,54,159,421,-43
1,176158,-1584,1207,-584,-3179,1290,54,159,421,-43
1,176166,-1584,1207,-584,-3179,1290,54,159,421,-43
1,176173,-1584,1207,-584,-3179,1290,54,159,421,-43
1,176181,-1584,1207,-584,-3179,1290,54,159,421,-43
1,176189,-1513,1179,-598,-3772,1556,-327,168,416,-42
1,176196,-1513,1179,-598,-3772,1556,-327,168,416,-42
1,176203,-1513,1179,-598,-3772,1556,-327,168,416,-42
1,176210,-1451,1131,-589,-3858,1751,-331,168,416,-42
1,176218,-1451,1131,-589,-3858,1751,-331,168,416,-42
1,176224,-1451,1131,-589,-3858,1751,-331,168,416,-42
1,176232,-1453,1158,-626,-3525,2016,-162,168,416,-42
1,176240,-1453,1158,-626,-3525,2016,-162,168,416,-42
1,176246,-1453,1158,-626,-3525,2016,-162,168,416,-42
1,176253,-1471,1186,-647,-3400,1853,79,168,416,-42
1,176261,-1471,1186,-647,-3400,1853,79,168,416,-42
1,176268,-1471,1186,-647,-3400,1853,79,168,416,-42
1,176274,-1471,1186,-647,-3400,1853,79,168,416,-42
1,176281,-1471,1186,-647,-3400,1853,79,168,416,-42
1,176289,-1593,1161,-567,-3544,1334,183,168,416,-42
1,176295,-1593,1161,-567,-3544,1334,183,168,416,-42
1,176303,-1593,1161,-567,-3544,1334,183,168,416,-42
1,176308,-1593,1161,-567,-3544,1334,183,168,416,-42
1,176316,-1650,1249,-517,-3239,1087,466,160,422,-50
1,176323,-1650,1249,-517,-3239,1087,466,160,422,-50
1,176331,-1682,1409,-482,-3151,744,958,160,422,-50
1,176338,-1682,1409,-482,-3151,744,958,160,422,-50
1,176346,-1682,1409,-482,-3151,744,958,160,422,-50
1,176352,-1681,1500,-477,-3672,267,1412,160,422,-50
1,176360,-1681,1500,-477,-3672,267,1412,160,422,-50
1,176367,-1681,1500,-477,-3672,267,1412,160,422,-50
1,176374,-1662,1523,-546,-4574,-216,1992,160,422,-50
1,176382,-1662,1523,-546,-4574,-216,1992,160,422,-50
1,176391,-1726,1480,-620,-5413,-251,2834,160,422,-50
1,176398,-1726,1480,-620,-5413,-251,2834,160,422,-50
1,176404,-1726,1480,-620,-5413,-251,2834,160,422,-50
1,176411,-1726,1480,-620,-5413,-251,2834,160,422,-50
1,176417,-1726,1480,-620,-5413,-251,2834,160,422,-50
1,176425,-1726,1480,-620,-5413,-251,2834,160,422,-50
1,176432,-2124,1298,-952,-5450,556,3498,157,423,-45
1,176439,-2124,1298,-952,-5450,556,3498,157,423,-45
1,176445,-2124,1298,-952,-5450,556,3498,157,423,-45
1,176452,-2263,1233,-1078,-4701,333,3015,157,423,-45
1,176459,-2263,1233,-1078,-4701,333,3015,157,423,-45
1,176466,-2263,1233,-1078,-4701,333,3015,157,423,-45
1,176473,-2181,1263,-1138,-3718,515,2039,157,423,-45
1,176478,-2181,1263,-1138,-3718,515,2039,157,423,-45
1,176486,-2181,1263,-1138,-3718,515,2039,157,423,-45
1,176492,-1737,1213,-1029,-3826,438,314,157,423,-45
1,176499,-1737,1213,-1029,-3826,438,314,157,423,-45
1,176506,-1737,1213,-1029,-3826,438,314,157,423,-45
1,176513,-1601,1215,-949,-3709,1145,-843,157,423,-45
1,176519,-1601,1215,-949,-3709,1145,-843,157,423,-45
1,176524,-1601,1215,-949,-3709,1145,-843,157,423,-45
1,176532,-1475,1236,-974,-4026,91,-687,157,423,-45
1,176538,-1475,1236,-974,-4026,91,-687,157,423,-45
1,176545,-1475,1236,-974,-4026,91,-687,157,423,-45
1,176551,-1217,1261,-976,-4560,-1214,-643,161,419,-39
1,176561,-1217,1261,-976,-4560,-1214,-643,161,419,-39
1,176567,-1217,1261,-976,-4560,-1214,-643,161,419,-39
1,176573,-1086,1291,-980,-4987,-844,-920,161,419,-39
1,176579,-1086,1291,-980,-4987,-844,-920,161,419,-39
1,176585,-1086,1291,-980,-4987,-844,-920,161,419,-39
1,176591,-1204,1258,-1040,-5142,201,-1204,161,419,-39
1,176600,-1204,1258,-1040,-5142,201,-1204,161,419,-39
1,176606,-1204,1258,-1040,-5142,201,-1204,161,419,-39
1,176613,-1459,1287,-1110,-4633,1295,-1396,161,419,-39
1,176619,-1459,1287,-1110,-4633,1295,-1396,161,419,-39
1,176626,-1459,1287,-1110,-4633,1295,-1396,161,419,-39
1,176634,-1668,1366,-1107,-4197,2033,-1612,161,419,-39
1,176641,-1668,1366,-1107,-4197,2033,-1612,161,419,-39
1,176648,-1704,1383,-1012,-4413,1985,-1746,161,419,-39
1,176656,-1704,1383,-1012,-4413,1985,-1746,161,419,-39
1,176662,-1704,1383,-1012,-4413,1985,-1746,161,419,-39
1,176670,-1587,1370,-942,-4685,1495,-1704,161,419,-39
1,176676,-1587,1370,-942,-4685,1495,-1704,161,419,-39
1,176685,-1587,1370,-942,-4685,1495,-1704,161,419,-39
1,176692,-1453,1327,-934,-4792,1243,-1590,172,416,-42
1,176699,-1453,1327,-934,-4792,1243,-1590,172,416,-42
1,176705,-1453,1327,-934,-4792,1243,-1590,172,416,-42
1,176712,-1370,1256,-916,-4727,1111,-1720,172,416,-42
1,176719,-1370,1256,-916,-4727,1111,-1720,172,416,-42
1,176727,-1370,1256,-916,-4727,1111,-1720,172,416,-42
1,176734,-1290,1232,-878,-4406,781,-2207,172,416,-42
1,176742,-1290,1232,-878,-4406,781,-2207,172,416,-42
1,176750,-1247,1257,-872,-3916,710,-2524,172,416,-42
1,176757,-1247,1257,-872,-3916,710,-2524,172,416,-42
1,176764,-1247,1257,-872,-3916,710,-2524,172,416,-42
1,176771,-1273,1298,-901,-3432,829,-2427,172,416,-42
1,176780,-1273,1298,-901,-3432,829,-2427,172,416,-42
1,176786,-1273,1298,-901,-3432,829,-2427,172,416,-42
1,176792,-1344,1302,-926,-3342,751,-2179,172,416,-42
1,176799,-1344,1302,-926,-3342,751,-2179,172,416,-42
1,176804,-1344,1302,-926,-3342,751,-2179,172,416,-42
1,176809,-1396,1292,-916,-3372,493,-2171,175,421,-59
1,176815,-1396,1292,-916,-3372,493,-2171,175,421,-59
1,176820,-1396,1292,-916,-3372,493,-2171,175,421,-59
1,176825,-1396,1292,-916,-3372,493,-2171,175,421,-59
1,176832,-1428,1319,-892,-3161,292,-2295,175,421,-59
1,176837,-1428,1319,-892,-3161,292,-2295,175,421,-59
1,176842,-1428,1319,-892,-3161,292,-2295,175,421,-59
1,176847,-1409,1362,-880,-3050,112,-2246,175,421,-59
1,176856,-1409,1362,-880,-3050,112,-2246,175,421,-59
1,176863,-1409,1362,-880,-3050,112,-2246,175,421,-59
1,176868,-1341,1383,-845,-3136,-59,-1989,175,421,-59
1,176873,-1341,1383,-845,-3136,-59,-1989,175,421,-59
1,176878,-1341,1383,-845,-3136,-59,-1989,175,421,-59
1,176883,-1341,1383,-845,-3136,-59,-1989,175,421,-59
1,176888,-1310,1400,-828,-3213,-386,-1684,175,421,-59
1,176894,-1310,1400,-828,-3213,-386,-1684,175,421,-59
1,176902,-1310,1400,-828,-3213,-386,-1684,175,421,-59
1,176909,-1330,1394,-848,-3357,-699,-1345,175,421,-59
1,176916,-1330,1394,-848,-3357,-699,-1345,175,421,-59
1,176922,-1330,1394,-848,-3357,-699,-1345,175,421,-59
1,176927,-1384,1383,-844,-3336,-775,-1148,175,421,-59
1,176935,-1384,1383,-844,-3336,-775,-1148,190,420,-48
1,176943,-1384,1383,-844,-3336,-775,-1148,190,420,-48
1,176951,-1452,1384,-839,-3261,-610,-1191,190,420,-48
1,176957,-1452,1384,-839,-3261,-610,-1191,190,420,-48
1,176964,-1452,1384,-839,-3261,-610,-1191,190,420,-48
1,176970,-1562,1361,-807,-3178,-401,-1397,190,420,-48
1,176977,-1562,1361,-807,-3178,-401,-1397,190,420,-48
1,176986,-1562,1361,-807,-3178,-401,-1397,190,420,-48
1,176994,-1693,1375,-786,-2845,-399,-1679,190,420,-48
1,177000,-1693,1375,-786,-2845,-399,-1679,190,420,-48
1,177006,-1693,1375,-786,-2845,-399,-1679,190,420,-48
1,177011,-1729,1420,-788,-2622,-669,-1795,190,420,-48
1,177019,-1729,1420,-788,-2622,-669,-1795,190,420,-48
1,177028,-1729,1420,-788,-2622,-669,-1795,190,420,-48
1,177036,-1637,1477,-771,-2747,-1174,-1690,190,420,-48
1,177043,-1637,1477,-771,-2747,-1174,-1690,190,420,-48
1,177047,-1637,1477,-771,-2747,-1174,-1690,190,420,-48
1,177054,-1558,1464,-749,-3146,-1794,-1541,204,418,-56
1,177062,-1558,1464,-749,-3146,-1794,-1541,204,418,-56
1,177069,-1600,1397,-728,-3354,-2487,-1095,204,418,-56
1,177075,-1600,1397,-728,-3354,-2487,-1095,204,418,-56
1,177081,-1600,1397,-728,-3354,-2487,-1095,204,418,-56
1,177088,-1792,1344,-812,-3045,-2926,-133,204,418,-56
1,177094,-1792,1344,-812,-3045,-2926,-133,204,418,-56
1,177102,-1792,1344,-812,-3045,-2926,-133,204,418,-56
1,177110,-2084,1300,-941,-2215,-2721,767,204,418,-56
1,177118,-2084,1300,-941,-2215,-2721,767,204,418,-56
1,177125,-2084,1300,-941,-2215,-2721,767,204,418,-56
1,177132,-2323,1357,-1079,-1308,-1847,616,204,418,-56
1,177138,-2323,1357,-1079,-1308,-1847,616,204,418,-56
1,177145,-2323,1357,-1079,-1308,-1847,616,204,418,-56
1,177154,-2139,1379,-1094,-1620,-1175,-487,204,418,-56
1,177160,-2139,1379,-1094,-1620,-1175,-487,204,418,-56
1,177165,-2139,1379,-1094,-1620,-1175,-487,204,418,-56
1,177171,-1713,1221,-979,-3481,-1709,-1768,204,418,-56
1,177178,-1713,1221,-979,-3481,-1709,-1768,204,418,-56
1,177186,-1713,1221,-979,-3481,-1709,-1768,204,418,-56
1,177195,-1713,1221,-979,-3481,-1709,-1768,207,413,-33
1,177203,-1713,1221,-979,-3481,-1709,-1768,207,413,-33
1,177210,-1047,830,-867,-5611,-1652,-1151,207,413,-33
1,177217,-1047,830,-867,-5611,-1652,-1151,207,413,-33
