imu,server_time,arduino_time,ax,ay,az,gx,gy,gz,mx,my,mz
1,2021-07-06 12:11:10.634976,185531,9.702441136273082,-1.6718375128743552,-0.04044737728742611,12.729580143464858,9.85862230292189,-11.416446179161502,0.0,0.0,0.0
1,2021-07-06 12:11:10.643297,185540,9.702441136273082,-1.6718375128743552,-0.04044737728742611,12.729580143464858,9.85862230292189,-11.416446179161502,0.0,0.0,0.0
1,2021-07-06 12:11:10.651523,185548,9.721548695267357,-1.6478308352367455,0.007247919851929341,12.752743742000353,10.24399459752214,-12.272088361321538,0.0,0.0,0.0
1,2021-07-06 12:11:10.659145,185555,9.721548695267357,-1.6478308352367455,0.007247919851929341,12.752743742000353,10.24399459752214,-12.272088361321538,0.0,0.0,0.0
1,2021-07-06 12:11:10.667259,185564,9.721548695267357,-1.6478308352367455,0.007247919851929341,12.752743742000353,10.24399459752214,-12.272088361321538,0.0,0.0,0.0
1,2021-07-06 12:11:10.676019,185572,9.721548695267357,-1.6478308352367455,0.007247919851929341,12.752743742000353,10.24399459752214,-12.272088361321538,0.0,0.0,0.0
1,2021-07-06 12:11:10.684213,185581,9.721548695267357,-1.6478308352367455,0.007247919851929341,12.752743742000353,10.24399459752214,-12.272088361321538,0.0,0.0,0.0
1,2021-07-06 12:11:10.692742,185589,9.726325585015925,-1.551804124686306,0.10740804384457525,12.829955737118674,11.114935983318704,-13.983372725641614,0.0,0.0,0.0
1,2021-07-06 12:11:10.699815,185596,9.726325585015925,-1.551804124686306,0.10740804384457525,12.829955737118674,11.114935983318704,-13.983372725641614,0.0,0.0,0.0
1,2021-07-06 12:11:10.707576,185604,9.840970938981576,-1.494188098356042,0.07402133584702662,12.868561734677833,11.430941264890908,-14.717862032451555,0.0,0.0,0.0
1,2021-07-06 12:11:10.715243,185612,9.840970938981576,-1.494188098356042,0.07402133584702662,12.868561734677833,11.430941264890908,-14.717862032451555,0.0,0.0,0.0
1,2021-07-06 12:11:10.723315,185620,9.840970938981576,-1.494188098356042,0.07402133584702662,12.868561734677833,11.430941264890908,-14.717862032451555,0.0,0.0,0.0
1,2021-07-06 12:11:10.730726,185627,9.797978931244456,-1.4845854273009982,0.20756816783722162,12.93805253028432,11.392404035430884,-15.399346956295833,0.0,0.0,0.0
1,2021-07-06 12:11:10.737892,185634,9.797978931244456,-1.4845854273009982,0.20756816783722162,12.93805253028432,11.392404035430884,-15.399346956295833,0.0,0.0,0.0
1,2021-07-06 12:11:10.745235,185642,9.8218633799873,-1.5181947759936518,0.31249782154380346,13.015264525402637,11.276792347050808,-16.111120098977636,0.0,0.0,0.0
1,2021-07-06 12:11:10.752358,185649,9.8218633799873,-1.5181947759936518,0.31249782154380346,13.015264525402637,11.276792347050808,-16.111120098977636,0.0,0.0,0.0
1,2021-07-06 12:11:10.759719,185656,9.8218633799873,-1.5181947759936518,0.31249782154380346,13.015264525402637,11.276792347050808,-16.111120098977636,0.0,0.0,0.0
1,2021-07-06 12:11:10.766986,185663,9.778871372250181,-1.4557774141358664,0.2600329946905125,13.02298572491447,11.184302996346746,-16.891041734043863,0.0,0.0,0.0
1,2021-07-06 12:11:10.774704,185671,9.778871372250181,-1.4557774141358664,0.2600329946905125,13.02298572491447,11.184302996346746,-16.891041734043863,0.0,0.0,0.0
1,2021-07-06 12:11:10.782317,185679,9.778871372250181,-1.4557774141358664,0.2600329946905125,13.02298572491447,11.184302996346746,-16.891041734043863,0.0,0.0,0.0
1,2021-07-06 12:11:10.791096,185687,9.836194049233006,-1.4269694009707343,0.33634547011348115,12.992100926867142,11.053276416182664,-17.580098712597522,0.0,0.0,0.0
1,2021-07-06 12:11:10.798295,185695,9.836194049233006,-1.4269694009707343,0.33634547011348115,12.992100926867142,11.053276416182664,-17.580098712597522,0.0,0.0,0.0
1,2021-07-06 12:11:10.805552,185702,9.979500741690067,-1.239717315397377,0.3268064106856098,13.100197720032789,10.976201957262612,-18.094998432835418,0.0,0.0,0.0
1,2021-07-06 12:11:10.812562,185709,9.979500741690067,-1.239717315397377,0.3268064106856098,13.100197720032789,10.976201957262612,-18.094998432835418,0.0,0.0,0.0
1,2021-07-06 12:11:10.820708,185717,9.979500741690067,-1.239717315397377,0.3268064106856098,13.100197720032789,10.976201957262612,-18.094998432835418,0.0,0.0,0.0
1,2021-07-06 12:11:10.829880,185726,10.442859047301235,-0.8748158153057068,0.7083687878004528,13.216015712710266,10.637074338014395,-18.4584570588857,0.0,0.0,0.0
1,2021-07-06 12:11:10.838532,185735,10.442859047301235,-0.8748158153057068,0.7083687878004528,13.216015712710266,10.637074338014395,-18.4584570588857,0.0,0.0,0.0
1,2021-07-06 12:11:10.847442,185744,10.323436803587017,-1.1052799206267616,0.9182280952136161,13.23145811173393,9.003095808909338,-18.662902536038985,0.0,0.0,0.0
1,2021-07-06 12:11:10.855282,185752,10.323436803587017,-1.1052799206267616,0.9182280952136161,13.23145811173393,9.003095808909338,-18.662902536038985,0.0,0.0,0.0
1,2021-07-06 12:11:10.864149,185760,10.323436803587017,-1.1052799206267616,0.9182280952136161,13.23145811173393,9.003095808909338,-18.662902536038985,0.0,0.0,0.0
1,2021-07-06 12:11:10.873044,185769,10.146691882889973,-0.8748158153057068,0.4746618318176116,13.254621710269426,7.299750266776238,-18.746195137842175,0.0,0.0,0.0
1,2021-07-06 12:11:10.880808,185777,10.146691882889973,-0.8748158153057068,0.4746618318176116,13.254621710269426,7.299750266776238,-18.746195137842175,0.0,0.0,0.0
1,2021-07-06 12:11:10.887975,185784,9.984277631438637,-1.0812732429891516,0.5271266586709022,13.285506508316752,6.767936500227894,-18.746195137842175,0.0,0.0,0.0
1,2021-07-06 12:11:10.897020,185793,9.984277631438637,-1.0812732429891516,0.5271266586709022,13.285506508316752,6.767936500227894,-18.746195137842175,0.0,0.0,0.0
1,2021-07-06 12:11:10.903995,185800,9.984277631438637,-1.0812732429891516,0.5271266586709022,13.285506508316752,6.767936500227894,-18.746195137842175,0.0,0.0,0.0
1,2021-07-06 12:11:10.912557,185809,10.051154087918599,-0.9420345126910143,0.5605133666684512,13.324112505875913,6.613787582387795,-18.78405541138908,0.0,0.0,0.0
1,2021-07-06 12:11:10.920246,185817,10.051154087918599,-0.9420345126910143,0.5605133666684512,13.324112505875913,6.613787582387795,-18.78405541138908,0.0,0.0,0.0
1,2021-07-06 12:11:10.927961,185824,10.08936920590715,-1.02845855218641,0.8753023277881964,13.493978895136213,6.251537625463561,-18.814343630226602,0.0,0.0,0.0
1,2021-07-06 12:11:10.935659,185832,10.08936920590715,-1.02845855218641,0.8753023277881964,13.493978895136213,6.251537625463561,-18.814343630226602,0.0,0.0,0.0
1,2021-07-06 12:11:10.943437,185840,10.08936920590715,-1.02845855218641,0.8753023277881964,13.493978895136213,6.251537625463561,-18.814343630226602,0.0,0.0,0.0
1,2021-07-06 12:11:10.951302,185848,10.170576331632818,-0.9612398548011024,0.7846812632234211,13.532584892695372,5.195617538258879,-18.768911301970316,0.0,0.0,0.0
1,2021-07-06 12:11:10.959022,185855,10.170576331632818,-0.9612398548011024,0.7846812632234211,13.532584892695372,5.195617538258879,-18.768911301970316,0.0,0.0,0.0
1,2021-07-06 12:11:10.967090,185863,10.113253654649991,-0.8988224929433168,0.5795914855241932,13.671566483908345,4.0317932085661266,-18.70833486429527,0.0,0.0,0.0
1,2021-07-06 12:11:10.974865,185871,10.113253654649991,-0.8988224929433168,0.5795914855241932,13.671566483908345,4.0317932085661266,-18.70833486429527,0.0,0.0,0.0
1,2021-07-06 12:11:10.982185,185879,10.113253654649991,-0.8988224929433168,0.5795914855241932,13.671566483908345,4.0317932085661266,-18.70833486429527,0.0,0.0,0.0
1,2021-07-06 12:11:10.989321,185886,10.227899008615644,-0.6443517099846521,0.8514546792185187,13.795105676097654,3.561639009153823,-18.44331294946694,0.0,0.0,0.0
1,2021-07-06 12:11:10.995762,185892,10.227899008615644,-0.6443517099846521,0.8514546792185187,13.795105676097654,3.561639009153823,-18.44331294946694,0.0,0.0,0.0
1,2021-07-06 12:11:11.002791,185899,10.227899008615644,-0.6443517099846521,0.8514546792185187,13.795105676097654,3.561639009153823,-18.44331294946694,0.0,0.0,0.0
1,2021-07-06 12:11:11.010250,185907,10.57661196026116,-0.34666890727828925,0.6559039609471619,13.818269274633149,3.1993890522295887,-17.663391314400712,0.0,0.0,0.0
1,2021-07-06 12:11:11.017540,185914,10.57661196026116,-0.34666890727828925,0.6559039609471619,13.818269274633149,3.1993890522295887,-17.663391314400712,0.0,0.0,0.0
1,2021-07-06 12:11:11.024975,185921,10.371205701072704,-0.5243183217966023,0.9468452734972294,14.204329250224742,2.5905008267611955,-16.254989138455873,0.0,0.0,0.0
1,2021-07-06 12:11:11.032739,185929,10.371205701072704,-0.5243183217966023,0.9468452734972294,14.204329250224742,2.5905008267611955,-16.254989138455873,0.0,0.0,0.0
1,2021-07-06 12:11:11.041608,185938,10.371205701072704,-0.5243183217966023,0.9468452734972294,14.204329250224742,2.5905008267611955,-16.254989138455873,0.0,0.0,0.0
1,2021-07-06 12:11:11.050532,185947,10.118030544398561,-0.7259744139525253,0.9516148032111648,14.389638038508707,1.4729211724204734,-15.323626409202024,0.0,0.0,0.0
1,2021-07-06 12:11:11.058444,185955,10.118030544398561,-0.7259744139525253,0.9516148032111648,14.389638038508707,1.4729211724204734,-15.323626409202024,0.0,0.0,0.0
1,2021-07-06 12:11:11.066900,185963,10.12280743414713,-0.6587557165672178,0.7799117335094857,14.420522836556033,0.8717403928440851,-14.945023673732981,0.0,0.0,0.0
1,2021-07-06 12:11:11.075010,185971,10.12280743414713,-0.6587557165672178,0.7799117335094857,14.420522836556033,0.8717403928440851,-14.945023673732981,0.0,0.0,0.0
1,2021-07-06 12:11:11.082687,185979,10.12280743414713,-0.6587557165672178,0.7799117335094857,14.420522836556033,0.8717403928440851,-14.945023673732981,0.0,0.0,0.0
1,2021-07-06 12:11:11.090729,185987,10.313883024089881,-0.4474969533562505,0.8323765603627766,14.544062028745342,0.6790542455439604,-14.611853266520225,0.0,0.0,0.0
1,2021-07-06 12:11:11.098214,185995,10.313883024089881,-0.4474969533562505,0.8323765603627766,14.544062028745342,0.6790542455439604,-14.611853266520225,0.0,0.0,0.0
1,2021-07-06 12:11:11.105494,186002,10.481074165289787,-0.4090862691360749,0.8943804466439385,14.675322420446484,0.4863680982438359,-13.763783139069568,0.0,0.0,0.0
1,2021-07-06 12:11:11.112886,186009,10.481074165289787,-0.4090862691360749,0.8943804466439385,14.675322420446484,0.4863680982438359,-13.763783139069568,0.0,0.0,0.0
1,2021-07-06 12:11:11.121598,186018,10.481074165289787,-0.4090862691360749,0.8943804466439385,14.675322420446484,0.4863680982438359,-13.763783139069568,0.0,0.0,0.0
1,2021-07-06 12:11:11.128722,186025,10.447635937049805,-0.40428493360855294,0.8132984415070343,14.945564403360601,-0.022323330628492746,-12.521966166731106,0.0,0.0,0.0
1,2021-07-06 12:11:11.135962,186032,10.447635937049805,-0.40428493360855294,0.8132984415070343,14.945564403360601,-0.022323330628492746,-12.521966166731106,0.0,0.0,0.0
1,2021-07-06 12:11:11.142976,186039,10.447635937049805,-0.40428493360855294,0.8132984415070343,14.945564403360601,-0.022323330628492746,-12.521966166731106,0.0,0.0,0.0
1,2021-07-06 12:11:11.151245,186048,10.251783457358485,-0.5243183217966023,0.8132984415070343,15.138594391156396,-0.5155998677168114,-11.552743163930357,0.0,0.0,0.0
1,2021-07-06 12:11:11.159290,186056,10.251783457358485,-0.5243183217966023,0.8132984415070343,15.138594391156396,-0.5155998677168114,-11.552743163930357,0.0,0.0,0.0
1,2021-07-06 12:11:11.166598,186063,10.266114126604192,-0.5339209928516465,0.9039195060718096,15.254412383833873,-0.8624349328570354,-10.946978787179889,0.0,0.0,0.0
1,2021-07-06 12:11:11.174337,186071,10.266114126604192,-0.5339209928516465,0.9039195060718096,15.254412383833873,-0.8624349328570354,-10.946978787179889,0.0,0.0,0.0
1,2021-07-06 12:11:11.183202,186080,10.266114126604192,-0.5339209928516465,0.9039195060718096,15.254412383833873,-0.8624349328570354,-10.946978787179889,0.0,0.0,0.0
1,2021-07-06 12:11:11.190673,186087,10.304329244592742,-0.5051129796865143,1.0183882192062623,15.493769568700662,-1.2015625521052546,-10.394218793395087,0.0,0.0,0.0
1,2021-07-06 12:11:11.198351,186095,10.304329244592742,-0.5051129796865143,1.0183882192062623,15.493769568700662,-1.2015625521052546,-10.394218793395087,0.0,0.0,0.0
1,2021-07-06 12:11:11.205762,186102,10.304329244592742,-0.5051129796865143,1.0183882192062623,15.493769568700662,-1.2015625521052546,-10.394218793395087,0.0,0.0,0.0
1,2021-07-06 12:11:11.212880,186109,10.304329244592742,-0.5051129796865143,1.0183882192062623,15.493769568700662,-1.2015625521052546,-10.394218793395087,0.0,0.0,0.0
1,2021-07-06 12:11:11.219980,186116,10.304329244592742,-0.5051129796865143,1.0183882192062623,15.493769568700662,-1.2015625521052546,-10.394218793395087,0.0,0.0,0.0
1,2021-07-06 12:11:11.227140,186123,10.285221685598467,-0.5387223283791684,0.8276070306488409,15.717684354543785,-2.4732911242860762,-9.000960726869007,0.0,0.0,0.0
1,2021-07-06 12:11:11.236298,186133,10.285221685598467,-0.5387223283791684,0.8276070306488409,15.717684354543785,-2.4732911242860762,-9.000960726869007,0.0,0.0,0.0
1,2021-07-06 12:11:11.244383,186141,10.285221685598467,-0.5387223283791684,0.8276070306488409,15.717684354543785,-2.4732911242860762,-9.000960726869007,0.0,0.0,0.0
1,2021-07-06 12:11:11.251705,186148,10.313883024089881,-0.5483249994342122,0.9229976249275516,15.848944746244925,-2.920322986022365,-8.48606100663111,0.0,0.0,0.0
1,2021-07-06 12:11:11.260917,186157,10.313883024089881,-0.5483249994342122,0.9229976249275516,15.848944746244925,-2.920322986022365,-8.48606100663111,0.0,0.0,0.0
1,2021-07-06 12:11:11.268621,186165,10.38553637031841,-0.5195169862690804,0.8609937386463898,15.94159914038691,-3.3750622936506587,-8.024165669358876,0.0,0.0,0.0
1,2021-07-06 12:11:11.276788,186173,10.38553637031841,-0.5195169862690804,0.8609937386463898,15.94159914038691,-3.3750622936506587,-8.024165669358876,0.0,0.0,0.0
1,2021-07-06 12:11:11.285309,186182,10.38553637031841,-0.5195169862690804,0.8609937386463898,15.94159914038691,-3.3750622936506587,-8.024165669358876,0.0,0.0,0.0
1,2021-07-06 12:11:11.292240,186189,10.328213693335586,-0.601139690236954,0.9277671546414873,16.11146552964721,-3.991657965011057,-7.60770266034293,0.0,0.0,0.0
1,2021-07-06 12:11:11.300692,186197,10.328213693335586,-0.601139690236954,0.9277671546414873,16.11146552964721,-3.991657965011057,-7.60770266034293,0.0,0.0,0.0
1,2021-07-06 12:11:11.308992,186205,10.261337236855624,-0.581934348126866,0.6940601986586461,16.204119923789193,-4.6390834199394755,-7.160951432489459,0.0,0.0,0.0
1,2021-07-06 12:11:11.316778,186213,10.261337236855624,-0.581934348126866,0.6940601986586461,16.204119923789193,-4.6390834199394755,-7.160951432489459,0.0,0.0,0.0
1,2021-07-06 12:11:11.324425,186221,10.261337236855624,-0.581934348126866,0.6940601986586461,16.204119923789193,-4.6390834199394755,-7.160951432489459,0.0,0.0,0.0
1,2021-07-06 12:11:11.331893,186228,10.285221685598467,-0.6155436968195197,0.7846812632234211,16.312216716954836,-5.1400674029198,-6.880785408242367,0.0,0.0,0.0
1,2021-07-06 12:11:11.338414,186235,10.285221685598467,-0.6155436968195197,0.7846812632234211,16.312216716954836,-5.1400674029198,-6.880785408242367,0.0,0.0,0.0
1,2021-07-06 12:11:11.346495,186243,10.285221685598467,-0.6155436968195197,0.7846812632234211,16.312216716954836,-5.1400674029198,-6.880785408242367,0.0,0.0,0.0
1,2021-07-06 12:11:11.355675,186252,10.285221685598467,-0.6155436968195197,0.7846812632234211,16.312216716954836,-5.1400674029198,-6.880785408242367,0.0,0.0,0.0
1,2021-07-06 12:11:11.364028,186260,10.285221685598467,-0.6155436968195197,0.7846812632234211,16.312216716954836,-5.1400674029198,-6.880785408242367,0.0,0.0,0.0
1,2021-07-06 12:11:11.371789,186268,10.270891016352762,-0.6539543810396958,0.6082086638078064,16.520689103774295,-6.257647057260522,-6.418890070970135,0.0,0.0,0.0
1,2021-07-06 12:11:11.379216,186276,10.270891016352762,-0.6539543810396958,0.6082086638078064,16.520689103774295,-6.257647057260522,-6.418890070970135,0.0,0.0,0.0
1,2021-07-06 12:11:11.386839,186283,10.23745278811278,-0.6827623942048276,0.6606734906610973,16.567016300845285,-6.573652338832726,-6.229588703235614,0.0,0.0,0.0
1,2021-07-06 12:11:11.395669,186292,10.23745278811278,-0.6827623942048276,0.6606734906610973,16.567016300845285,-6.573652338832726,-6.229588703235614,0.0,0.0,0.0
1,2021-07-06 12:11:11.404129,186300,10.23745278811278,-0.6827623942048276,0.6606734906610973,16.567016300845285,-6.573652338832726,-6.229588703235614,0.0,0.0,0.0
1,2021-07-06 12:11:11.411826,186308,10.247006567609917,-0.7067690718424376,0.5748219558102577,16.675113094010936,-6.889657620404931,-6.0251432260823305,0.0,0.0,0.0
1,2021-07-06 12:11:11.420205,186317,10.247006567609917,-0.7067690718424376,0.5748219558102577,16.675113094010936,-6.889657620404931,-6.0251432260823305,0.0,0.0,0.0
1,2021-07-06 12:11:11.428901,186325,10.23745278811278,-0.7403784205350914,0.4937399506733534,16.806373485712076,-7.167125672517109,-5.888846241313475,0.0,0.0,0.0
1,2021-07-06 12:11:11.435721,186332,10.23745278811278,-0.7403784205350914,0.4937399506733534,16.806373485712076,-7.167125672517109,-5.888846241313475,0.0,0.0,0.0
1,2021-07-06 12:11:11.443561,186340,10.23745278811278,-0.7403784205350914,0.4937399506733534,16.806373485712076,-7.167125672517109,-5.888846241313475,0.0,0.0,0.0
1,2021-07-06 12:11:11.451496,186348,10.189683890627093,-0.7787891047552671,0.5462047775266445,17.007124673019703,-7.290444806789188,-5.820697748929048,0.0,0.0,0.0
1,2021-07-06 12:11:11.458609,186355,10.189683890627093,-0.7787891047552671,0.5462047775266445,17.007124673019703,-7.290444806789188,-5.820697748929048,0.0,0.0,0.0
1,2021-07-06 12:11:11.467215,186364,10.170576331632818,-0.8171997889754431,0.36496264839709436,17.02256707204337,-7.359811819817233,-5.84341391305719,0.0,0.0,0.0
1,2021-07-06 12:11:11.476022,186372,10.170576331632818,-0.8171997889754431,0.36496264839709436,17.02256707204337,-7.359811819817233,-5.84341391305719,0.0,0.0,0.0
1,2021-07-06 12:11:11.483409,186380,10.170576331632818,-0.8171997889754431,0.36496264839709436,17.02256707204337,-7.359811819817233,-5.84341391305719,0.0,0.0,0.0
1,2021-07-06 12:11:11.491115,186387,10.1275843238957,-0.8748158153057068,0.31726735125773886,17.08433666813802,-7.321274590357208,-5.873702131894714,0.0,0.0,0.0
1,2021-07-06 12:11:11.499147,186395,10.1275843238957,-0.8748158153057068,0.31726735125773886,17.08433666813802,-7.321274590357208,-5.873702131894714,0.0,0.0,0.0
1,2021-07-06 12:11:11.506678,186403,10.027269639175756,-0.9660411903286243,0.2886501729741257,17.23876065837466,-7.251907577329163,-6.19930048439809,0.0,0.0,0.0
1,2021-07-06 12:11:11.514388,186411,10.027269639175756,-0.9660411903286243,0.2886501729741257,17.23876065837466,-7.251907577329163,-6.19930048439809,0.0,0.0,0.0
1,2021-07-06 12:11:11.522133,186418,10.027269639175756,-0.9660411903286243,0.2886501729741257,17.23876065837466,-7.251907577329163,-6.19930048439809,0.0,0.0,0.0
1,2021-07-06 12:11:11.530291,186427,10.08459231615858,-0.9036238284708387,0.23141581640689934,17.231039458862828,-7.136295888949089,-6.858069244114224,0.0,0.0,0.0
1,2021-07-06 12:11:11.537882,186434,10.08459231615858,-0.9036238284708387,0.23141581640689934,17.231039458862828,-7.136295888949089,-6.858069244114224,0.0,0.0,0.0
1,2021-07-06 12:11:11.544068,186440,9.93650873395295,-1.047663894296498,-0.09768173385465248,17.184712261791837,-6.604482122400746,-7.456261566155313,0.0,0.0,0.0
1,2021-07-06 12:11:11.552198,186449,9.93650873395295,-1.047663894296498,-0.09768173385465248,17.184712261791837,-6.604482122400746,-7.456261566155313,0.0,0.0,0.0
1,2021-07-06 12:11:11.559336,186456,9.93650873395295,-1.047663894296498,-0.09768173385465248,17.184712261791837,-6.604482122400746,-7.456261566155313,0.0,0.0,0.0
1,2021-07-06 12:11:11.566786,186463,10.055930977667169,-0.7067690718424376,-0.14060750128007246,17.315972653492977,-5.332753550219924,-7.865152520461878,0.0,0.0,0.0
1,2021-07-06 12:11:11.574907,186471,10.055930977667169,-0.7067690718424376,-0.14060750128007246,17.315972653492977,-5.332753550219924,-7.865152520461878,0.0,0.0,0.0
1,2021-07-06 12:11:11.584801,186481,10.055930977667169,-0.7067690718424376,-0.14060750128007246,17.315972653492977,-5.332753550219924,-7.865152520461878,0.0,0.0,0.0
1,2021-07-06 12:11:11.593546,186490,10.108476764901425,-0.9756438613836685,-0.05475596642923292,17.44723304519412,-4.253711125339227,-8.281615529477826,0.0,0.0,0.0
1,2021-07-06 12:11:11.601839,186498,10.108476764901425,-0.9756438613836685,-0.05475596642923292,17.44723304519412,-4.253711125339227,-8.281615529477826,0.0,0.0,0.0
1,2021-07-06 12:11:11.610197,186507,10.027269639175756,-0.846007802140575,-0.07383408528497475,17.539887439336102,-3.7527271423589026,-8.57692566314368,0.0,0.0,0.0
1,2021-07-06 12:11:11.617406,186514,10.027269639175756,-0.846007802140575,-0.07383408528497475,17.539887439336102,-3.7527271423589026,-8.57692566314368,0.0,0.0,0.0
1,2021-07-06 12:11:11.624751,186521,9.93173184420438,-1.047663894296498,-0.28846292241207383,17.65570543201358,-3.14383891689051,-9.069109219253436,0.0,0.0,0.0
1,2021-07-06 12:11:11.632634,186529,9.93173184420438,-1.047663894296498,-0.28846292241207383,17.65570543201358,-3.14383891689051,-9.069109219253436,0.0,0.0,0.0
1,2021-07-06 12:11:11.641243,186538,9.93173184420438,-1.047663894296498,-0.28846292241207383,17.65570543201358,-3.14383891689051,-9.069109219253436,0.0,0.0,0.0
1,2021-07-06 12:11:11.649748,186546,9.9747238519415,-0.8652131442506631,-0.226459036130912,17.763802225179223,-2.134163505037857,-9.614297158328856,0.0,0.0,0.0
1,2021-07-06 12:11:11.657859,186554,9.9747238519415,-0.8652131442506631,-0.226459036130912,17.763802225179223,-2.134163505037857,-9.614297158328856,0.0,0.0,0.0
1,2021-07-06 12:11:11.666992,186563,10.079815426410011,-0.9132264995258825,-0.24553715498665385,17.77924462420289,-1.0242912965891402,-10.129196878566756,0.0,0.0,0.0
1,2021-07-06 12:11:11.676094,186572,10.079815426410011,-0.9132264995258825,-0.24553715498665385,17.77924462420289,-1.0242912965891402,-10.129196878566756,0.0,0.0,0.0
1,2021-07-06 12:11:11.683855,186580,10.079815426410011,-0.9132264995258825,-0.24553715498665385,17.77924462420289,-1.0242912965891402,-10.129196878566756,0.0,0.0,0.0
1,2021-07-06 12:11:11.693498,186590,10.12280743414713,-0.7787891047552671,-0.30277151155388066,17.902783816392198,-0.25354670738864216,-10.386646738685705,0.0,0.0,0.0
1,2021-07-06 12:11:11.701886,186598,10.12280743414713,-0.7787891047552671,-0.30277151155388066,17.902783816392198,-0.25354670738864216,-10.386646738685705,0.0,0.0,0.0
1,2021-07-06 12:11:11.709728,186606,10.113253654649991,-0.8075971179203989,-0.3123105709817516,18.088092604676163,0.4786606523518309,-10.485083449907657,0.0,0.0,0.0
1,2021-07-06 12:11:11.716839,186613,10.113253654649991,-0.8075971179203989,-0.3123105709817516,18.088092604676163,0.4786606523518309,-10.485083449907657,0.0,0.0,0.0
1,2021-07-06 12:11:11.724606,186621,10.113253654649991,-0.8075971179203989,-0.3123105709817516,18.088092604676163,0.4786606523518309,-10.485083449907657,0.0,0.0,0.0
1,2021-07-06 12:11:11.733121,186629,10.075038536661443,-0.7643850981727013,-0.3981621058325911,18.257958993936462,1.4266764970684436,-10.545659887582703,0.0,0.0,0.0
1,2021-07-06 12:11:11.740629,186637,10.075038536661443,-0.7643850981727013,-0.3981621058325911,18.257958993936462,1.4266764970684436,-10.545659887582703,0.0,0.0,0.0
1,2021-07-06 12:11:11.747981,186644,10.113253654649991,-0.8748158153057068,-0.30277151155388066,18.45871018124409,2.5673784890851805,-10.568376051710846,0.0,0.0,0.0
1,2021-07-06 12:11:11.756100,186652,10.113253654649991,-0.8748158153057068,-0.30277151155388066,18.45871018124409,2.5673784890851805,-10.568376051710846,0.0,0.0,0.0
1,2021-07-06 12:11:11.763850,186660,10.113253654649991,-0.8748158153057068,-0.30277151155388066,18.45871018124409,2.5673784890851805,-10.568376051710846,0.0,0.0,0.0
1,2021-07-06 12:11:11.772220,186669,10.094146095655718,-0.826802460030487,-0.19784185784729882,18.62857657050439,3.2225113899056037,-10.734961255317225,0.0,0.0,0.0
1,2021-07-06 12:11:11.779609,186676,10.094146095655718,-0.826802460030487,-0.19784185784729882,18.62857657050439,3.2225113899056037,-10.734961255317225,0.0,0.0,0.0
1,2021-07-06 12:11:11.787933,186684,10.08936920590715,-0.9228291705809267,-0.28846292241207383,18.651740169039886,3.523101779693798,-11.0605596078206,0.0,0.0,0.0
1,2021-07-06 12:11:11.794972,186691,10.08936920590715,-0.9228291705809267,-0.28846292241207383,18.651740169039886,3.523101779693798,-11.0605596078206,0.0,0.0,0.0
1,2021-07-06 12:11:11.804212,186701,10.08936920590715,-0.9228291705809267,-0.28846292241207383,18.651740169039886,3.523101779693798,-11.0605596078206,0.0,0.0,0.0
1,2021-07-06 12:11:11.811229,186708,10.118030544398561,-0.7883917758103113,-0.3743144572629134,18.728952164158205,4.0086708708901115,-11.40887412445212,0.0,0.0,0.0
1,2021-07-06 12:11:11.818130,186714,10.118030544398561,-0.7883917758103113,-0.3743144572629134,18.728952164158205,4.0086708708901115,-11.40887412445212,0.0,0.0,0.0
1,2021-07-06 12:11:11.825648,186722,10.156245662387112,-0.7979944468653551,-0.28369339269813837,18.844770156835683,4.748585676522589,-11.477022616836548,0.0,0.0,0.0
1,2021-07-06 12:11:11.833738,186730,10.156245662387112,-0.7979944468653551,-0.28369339269813837,18.844770156835683,4.748585676522589,-11.477022616836548,0.0,0.0,0.0
1,2021-07-06 12:11:11.843855,186740,10.156245662387112,-0.7979944468653551,-0.28369339269813837,18.844770156835683,4.748585676522589,-11.477022616836548,0.0,0.0,0.0
1,2021-07-06 12:11:11.851304,186748,10.184907000878523,-0.6971664007873933,-0.3647753978350425,18.99919414707232,5.465378144479053,-11.522454945092832,0.0,0.0,0.0
1,2021-07-06 12:11:11.858594,186755,10.184907000878523,-0.6971664007873933,-0.3647753978350425,18.99919414707232,5.465378144479053,-11.522454945092832,0.0,0.0,0.0
1,2021-07-06 12:11:11.865961,186762,10.16102255213568,-0.7931931113378332,-0.3552363384071711,19.16906053633262,5.9740695733513824,-11.545171109220977,0.0,0.0,0.0
1,2021-07-06 12:11:11.873698,186770,10.16102255213568,-0.7931931113378332,-0.3552363384071711,19.16906053633262,5.9740695733513824,-11.545171109220977,0.0,0.0,0.0
1,2021-07-06 12:11:11.880916,186777,10.16102255213568,-0.7931931113378332,-0.3552363384071711,19.16906053633262,5.9740695733513824,-11.545171109220977,0.0,0.0,0.0
1,2021-07-06 12:11:11.890736,186787,10.118030544398561,-0.7355770850075695,-0.4267792841162043,19.308042127545594,6.575250352927769,-11.522454945092832,0.0,0.0,0.0
1,2021-07-06 12:11:11.897931,186794,10.118030544398561,-0.7355770850075695,-0.4267792841162043,19.308042127545594,6.575250352927769,-11.522454945092832,0.0,0.0,0.0
1,2021-07-06 12:11:11.906802,186803,10.113253654649991,-0.7883917758103113,-0.407701165260462,19.53195691338872,7.322872604452254,-11.5754593280585,0.0,0.0,0.0
1,2021-07-06 12:11:11.916035,186812,10.113253654649991,-0.7883917758103113,-0.407701165260462,19.53195691338872,7.322872604452254,-11.5754593280585,0.0,0.0,0.0
1,2021-07-06 12:11:11.923886,186820,10.113253654649991,-0.7883917758103113,-0.407701165260462,19.53195691338872,7.322872604452254,-11.5754593280585,0.0,0.0,0.0
1,2021-07-06 12:11:11.930755,186827,10.170576331632818,-0.7067690718424376,-0.37908398697684886,19.57828411045971,8.12444697722077,-11.583031382767881,0.0,0.0,0.0
1,2021-07-06 12:11:11.937680,186834,10.170576331632818,-0.7067690718424376,-0.37908398697684886,19.57828411045971,8.12444697722077,-11.583031382767881,0.0,0.0,0.0
1,2021-07-06 12:11:11.946682,186843,10.194460780375662,-0.7307757494800475,-0.40293163554652656,19.740429300208177,8.83353199928523,-11.560315218639737,0.0,0.0,0.0
1,2021-07-06 12:11:11.955608,186852,10.194460780375662,-0.7307757494800475,-0.40293163554652656,19.740429300208177,8.83353199928523,-11.560315218639737,0.0,0.0,0.0
1,2021-07-06 12:11:11.963288,186860,10.194460780375662,-0.7307757494800475,-0.40293163554652656,19.740429300208177,8.83353199928523,-11.560315218639737,0.0,0.0,0.0
1,2021-07-06 12:11:11.970505,186867,10.213568339369935,-0.6443517099846521,-0.34092774926536473,19.933459288003974,9.29597875280553,-11.48459467154593,0.0,0.0,0.0
1,2021-07-06 12:11:11.979336,186876,10.213568339369935,-0.6443517099846521,-0.34092774926536473,19.933459288003974,9.29597875280553,-11.48459467154593,0.0,0.0,0.0
1,2021-07-06 12:11:11.985640,186882,10.218345229118505,-0.7211730784250033,-0.2646152738423961,20.12648927579977,9.781547844001842,-11.378585905614598,0.0,0.0,0.0
1,2021-07-06 12:11:11.992836,186889,10.218345229118505,-0.7211730784250033,-0.2646152738423961,20.12648927579977,9.781547844001842,-11.378585905614598,0.0,0.0,0.0
1,2021-07-06 12:11:11.999967,186896,10.218345229118505,-0.7211730784250033,-0.2646152738423961,20.12648927579977,9.781547844001842,-11.378585905614598,0.0,0.0,0.0
1,2021-07-06 12:11:12.008192,186905,10.261337236855624,-0.601139690236954,-0.2598457441284607,20.257749667500914,10.30565416465818,-11.242288920845741,0.0,0.0,0.0
1,2021-07-06 12:11:12.016052,186912,10.261337236855624,-0.601139690236954,-0.2598457441284607,20.257749667500914,10.30565416465818,-11.242288920845741,0.0,0.0,0.0
1,2021-07-06 12:11:12.023500,186920,10.261337236855624,-0.601139690236954,-0.2598457441284607,20.257749667500914,10.30565416465818,-11.242288920845741,0.0,0.0,0.0
1,2021-07-06 12:11:12.032344,186929,10.266114126604192,-0.6587557165672178,-0.10722079328252339,20.435337256273048,10.729563688718454,-11.04541549840184,0.0,0.0,0.0
1,2021-07-06 12:11:12.039650,186936,10.266114126604192,-0.6587557165672178,-0.10722079328252339,20.435337256273048,10.729563688718454,-11.04541549840184,0.0,0.0,0.0
1,2021-07-06 12:11:12.046906,186943,10.285221685598467,-0.625146367874564,-0.15491609042187884,20.58204004699785,10.953079619586598,-10.87125824008608,0.0,0.0,0.0
1,2021-07-06 12:11:12.053946,186950,10.285221685598467,-0.625146367874564,-0.15491609042187884,20.58204004699785,10.953079619586598,-10.87125824008608,0.0,0.0,0.0
1,2021-07-06 12:11:12.061745,186958,10.285221685598467,-0.625146367874564,-0.15491609042187884,20.58204004699785,10.953079619586598,-10.87125824008608,0.0,0.0,0.0
1,2021-07-06 12:11:12.069874,186966,10.299552354844172,-0.6683583876222615,-0.07383408528497475,20.75962763576998,11.153473212778728,-10.674384817642178,0.0,0.0,0.0
1,2021-07-06 12:11:12.078010,186974,10.299552354844172,-0.6683583876222615,-0.07383408528497475,20.75962763576998,11.153473212778728,-10.674384817642178,0.0,0.0,0.0
1,2021-07-06 12:11:12.086038,186982,10.328213693335586,-0.625146367874564,0.0024783901379938846,20.829118431376468,11.330744468294844,-10.500227559326417,0.0,0.0,0.0
1,2021-07-06 12:11:12.093356,186990,10.328213693335586,-0.625146367874564,0.0024783901379938846,20.829118431376468,11.330744468294844,-10.500227559326417,0.0,0.0,0.0
1,2021-07-06 12:11:12.101456,186998,10.328213693335586,-0.625146367874564,0.0024783901379938846,20.829118431376468,11.330744468294844,-10.500227559326417,0.0,0.0,0.0
1,2021-07-06 12:11:12.109918,187006,10.337767472832724,-0.6635570520947396,-0.030908317859555196,20.96037882307761,11.430941264890908,-10.220061535079326,0.0,0.0,0.0
1,2021-07-06 12:11:12.117899,187014,10.337767472832724,-0.6635570520947396,-0.030908317859555196,20.96037882307761,11.430941264890908,-10.220061535079326,0.0,0.0,0.0
1,2021-07-06 12:11:12.125686,187022,10.361651921575568,-0.5579276704892561,-0.05952549614316838,21.1997360079444,11.438648710782912,-9.955039620250997,0.0,0.0,0.0
1,2021-07-06 12:11:12.135023,187031,10.361651921575568,-0.5579276704892561,-0.05952549614316838,21.1997360079444,11.438648710782912,-9.955039620250997,0.0,0.0,0.0
1,2021-07-06 12:11:12.143080,187039,10.361651921575568,-0.5579276704892561,-0.05952549614316838,21.1997360079444,11.438648710782912,-9.955039620250997,0.0,0.0,0.0
1,2021-07-06 12:11:12.151140,187047,10.347321252329861,-0.6107423612919978,-0.026138788145619297,21.354159998181036,11.423233818998902,-9.667301541294524,0.0,0.0,0.0
1,2021-07-06 12:11:12.158888,187055,10.347321252329861,-0.6107423612919978,-0.026138788145619297,21.354159998181036,11.423233818998902,-9.667301541294524,0.0,0.0,0.0
1,2021-07-06 12:11:12.167508,187064,10.323436803587017,-0.6155436968195197,-0.030908317859555196,21.46997799085851,11.40781892721489,-9.432567845303716,0.0,0.0,0.0
1,2021-07-06 12:11:12.176262,187073,10.323436803587017,-0.6155436968195197,-0.030908317859555196,21.46997799085851,11.40781892721489,-9.432567845303716,0.0,0.0,0.0
1,2021-07-06 12:11:12.183457,187080,10.323436803587017,-0.6155436968195197,-0.030908317859555196,21.46997799085851,11.40781892721489,-9.432567845303716,0.0,0.0,0.0
1,2021-07-06 12:11:12.191324,187088,10.342544362581293,-0.6635570520947396,0.05494321699128435,21.547189985976832,11.400111481322888,-9.235694422859815,0.0,0.0,0.0
1,2021-07-06 12:11:12.199500,187096,10.342544362581293,-0.6635570520947396,0.05494321699128435,21.547189985976832,11.400111481322888,-9.235694422859815,0.0,0.0,0.0
1,2021-07-06 12:11:12.208561,187105,10.38553637031841,-0.6347490389296078,-0.0022911395759420143,21.70161397621347,11.299914684726822,-8.970672508031484,0.0,0.0,0.0
1,2021-07-06 12:11:12.217630,187114,10.38553637031841,-0.6347490389296078,-0.0022911395759420143,21.70161397621347,11.299914684726822,-8.970672508031484,0.0,0.0,0.0
1,2021-07-06 12:11:12.225581,187122,10.371205701072704,-0.6155436968195197,-0.06906455557103928,21.786547170843615,11.161180658670732,-8.622357991399964,0.0,0.0,0.0
1,2021-07-06 12:11:12.233127,187129,10.371205701072704,-0.6155436968195197,-0.06906455557103928,21.786547170843615,11.161180658670732,-8.622357991399964,0.0,0.0,0.0
1,2021-07-06 12:11:12.240626,187137,10.371205701072704,-0.6155436968195197,-0.06906455557103928,21.786547170843615,11.161180658670732,-8.622357991399964,0.0,0.0,0.0
1,2021-07-06 12:11:12.247584,187144,10.352098142078429,-0.605941025764476,0.012017449565864797,21.95641356010392,11.16888810456274,-8.289187584187207,0.0,0.0,0.0
1,2021-07-06 12:11:12.255755,187152,10.352098142078429,-0.605941025764476,0.012017449565864797,21.95641356010392,11.16888810456274,-8.289187584187207,0.0,0.0,0.0
1,2021-07-06 12:11:12.264761,187161,10.352098142078429,-0.605941025764476,0.012017449565864797,21.95641356010392,11.16888810456274,-8.289187584187207,0.0,0.0,0.0
1,2021-07-06 12:11:12.274138,187170,10.299552354844172,-0.7451797560626133,0.12171663298638206,22.025904355710406,10.991616849046624,-8.099886216452687,0.0,0.0,0.0
1,2021-07-06 12:11:12.283808,187180,10.299552354844172,-0.7451797560626133,0.12171663298638206,22.025904355710406,10.991616849046624,-8.099886216452687,0.0,0.0,0.0
1,2021-07-06 12:11:12.292220,187189,10.514512393529767,-0.605941025764476,0.29818923240199663,22.079952752293227,10.536877541418331,-7.940873067555688,0.0,0.0,0.0
1,2021-07-06 12:11:12.300871,187197,10.514512393529767,-0.605941025764476,0.29818923240199663,22.079952752293227,10.536877541418331,-7.940873067555688,0.0,0.0,0.0
1,2021-07-06 12:11:12.308593,187205,10.46196660629551,-0.6731597231497839,0.15987287069786615,22.118558749852387,9.480957454213648,-7.7288555356930235,0.0,0.0,0.0
1,2021-07-06 12:11:12.316048,187212,10.46196660629551,-0.6731597231497839,0.15987287069786615,22.118558749852387,9.480957454213648,-7.7288555356930235,0.0,0.0,0.0
1,2021-07-06 12:11:12.324034,187220,10.46196660629551,-0.6731597231497839,0.15987287069786615,22.118558749852387,9.480957454213648,-7.7288555356930235,0.0,0.0,0.0
1,2021-07-06 12:11:12.333201,187230,10.414197708809823,-0.6347490389296078,0.05971274670522025,22.13400114887605,8.748750094473175,-7.569842386796026,0.0,0.0,0.0
1,2021-07-06 12:11:12.342020,187238,10.414197708809823,-0.6347490389296078,0.05971274670522025,22.13400114887605,8.748750094473175,-7.569842386796026,0.0,0.0,0.0
1,2021-07-06 12:11:12.351507,187248,10.375982590821273,-0.7259744139525253,0.050173687277348895,22.126279949364218,8.525234163605031,-7.494121839702217,0.0,0.0,0.0
1,2021-07-06 12:11:12.361027,187257,10.375982590821273,-0.7259744139525253,0.050173687277348895,22.126279949364218,8.525234163605031,-7.494121839702217,0.0,0.0,0.0
1,2021-07-06 12:11:12.369571,187266,10.395090149815548,-0.625146367874564,0.07402133584702662,22.218934343506202,8.324840570412901,-7.365396909642742,0.0,0.0,0.0
1,2021-07-06 12:11:12.378320,187275,10.395090149815548,-0.625146367874564,0.07402133584702662,22.218934343506202,8.324840570412901,-7.365396909642742,0.0,0.0,0.0
1,2021-07-06 12:11:12.386701,187283,10.356875031826998,-0.6875637297323496,-0.016599728717748383,22.381079533254667,8.193813990248817,-7.312392526677076,0.0,0.0,0.0
1,2021-07-06 12:11:12.393851,187290,10.356875031826998,-0.6875637297323496,-0.016599728717748383,22.381079533254667,8.193813990248817,-7.312392526677076,0.0,0.0,0.0
1,2021-07-06 12:11:12.401420,187298,10.356875031826998,-0.6875637297323496,-0.016599728717748383,22.381079533254667,8.193813990248817,-7.312392526677076,0.0,0.0,0.0
1,2021-07-06 12:11:12.409157,187305,10.380759480569843,-0.6827623942048276,-0.049986436715297025,22.473733927396655,8.12444697722077,-7.25181608900203,0.0,0.0,0.0
1,2021-07-06 12:11:12.416806,187313,10.380759480569843,-0.6827623942048276,-0.049986436715297025,22.473733927396655,8.12444697722077,-7.25181608900203,0.0,0.0,0.0
1,2021-07-06 12:11:12.424356,187321,10.380759480569843,-0.6827623942048276,-0.049986436715297025,22.473733927396655,8.12444697722077,-7.25181608900203,0.0,0.0,0.0
1,2021-07-06 12:11:12.431994,187328,10.375982590821273,-0.7019677363149157,-0.0022911395759420143,22.50461872544398,8.055079964192727,-7.168523487198841,0.0,0.0,0.0
1,2021-07-06 12:11:12.440149,187336,10.375982590821273,-0.7019677363149157,-0.0022911395759420143,22.50461872544398,8.055079964192727,-7.168523487198841,0.0,0.0,0.0
1,2021-07-06 12:11:12.449890,187346,10.395090149815548,-0.6923650652598715,0.05494321699128435,22.5586671220268,8.008835288840695,-7.115519104233173,0.0,0.0,0.0
1,2021-07-06 12:11:12.459836,187356,10.395090149815548,-0.6923650652598715,0.05494321699128435,22.5586671220268,8.008835288840695,-7.115519104233173,0.0,0.0,0.0
1,2021-07-06 12:11:12.466527,187363,10.399867039564116,-0.7259744139525253,0.031095568421607066,22.62815791763329,7.893223600460622,-7.054942666558127,0.0,0.0,0.0
1,2021-07-06 12:11:12.473675,187370,10.399867039564116,-0.7259744139525253,0.031095568421607066,22.62815791763329,7.893223600460622,-7.054942666558127,0.0,0.0,0.0
1,2021-07-06 12:11:12.482566,187379,10.399867039564116,-0.7259744139525253,0.031095568421607066,22.62815791763329,7.893223600460622,-7.054942666558127,0.0,0.0,0.0
1,2021-07-06 12:11:12.489774,187386,10.38553637031841,-0.7115704073699596,-0.09768173385465248,22.689927513727945,7.777611912080547,-6.911073627079891,0.0,0.0,0.0
1,2021-07-06 12:11:12.497371,187394,10.38553637031841,-0.7115704073699596,-0.09768173385465248,22.689927513727945,7.777611912080547,-6.911073627079891,0.0,0.0,0.0
1,2021-07-06 12:11:12.507664,187404,10.356875031826998,-0.7403784205350914,-0.13583797156613656,22.813466705917254,7.8084416956485665,-6.888357462951748,0.0,0.0,0.0
1,2021-07-06 12:11:12.516156,187412,10.356875031826998,-0.7403784205350914,-0.13583797156613656,22.813466705917254,7.8084416956485665,-6.888357462951748,0.0,0.0,0.0
1,2021-07-06 12:11:12.524310,187421,10.356875031826998,-0.7403784205350914,-0.13583797156613656,22.813466705917254,7.8084416956485665,-6.888357462951748,0.0,0.0,0.0
1,2021-07-06 12:11:12.531986,187428,10.356875031826998,-0.7115704073699596,-0.05952549614316838,22.929284698594728,7.931760829920647,-6.805064861148559,0.0,0.0,0.0
1,2021-07-06 12:11:12.540150,187436,10.356875031826998,-0.7115704073699596,-0.05952549614316838,22.929284698594728,7.931760829920647,-6.805064861148559,0.0,0.0,0.0
1,2021-07-06 12:11:12.547233,187444,10.251783457358485,-0.8316037955580089,-0.11675985271039474,23.01421789322488,8.016542734732703,-6.918645681789272,0.0,0.0,0.0
1,2021-07-06 12:11:12.554410,187451,10.251783457358485,-0.8316037955580089,-0.11675985271039474,23.01421789322488,8.016542734732703,-6.918645681789272,0.0,0.0,0.0
1,2021-07-06 12:11:12.562050,187458,10.251783457358485,-0.8316037955580089,-0.11675985271039474,23.01421789322488,8.016542734732703,-6.918645681789272,0.0,0.0,0.0
1,2021-07-06 12:11:12.570655,187467,10.23267589836421,-0.7787891047552671,-0.09291220414071702,22.96789069615389,8.224643773816837,-7.198811706036364,0.0,0.0,0.0
1,2021-07-06 12:11:12.578400,187475,10.23267589836421,-0.7787891047552671,-0.09291220414071702,22.96789069615389,8.224643773816837,-7.198811706036364,0.0,0.0,0.0
1,2021-07-06 12:11:12.586546,187483,10.337767472832724,-0.7547824271176575,-0.21691997670304067,22.983333095177553,8.517526717713023,-7.4789777302834555,0.0,0.0,0.0
1,2021-07-06 12:11:12.593797,187490,10.337767472832724,-0.7547824271176575,-0.21691997670304067,22.983333095177553,8.517526717713023,-7.4789777302834555,0.0,0.0,0.0
1,2021-07-06 12:11:12.601257,187498,10.337767472832724,-0.7547824271176575,-0.21691997670304067,22.983333095177553,8.517526717713023,-7.4789777302834555,0.0,0.0,0.0
1,2021-07-06 12:11:12.608546,187505,10.380759480569843,-0.6923650652598715,-0.18353326870549203,23.13003588590236,8.841239445177234,-7.592558550924168,0.0,0.0,0.0
1,2021-07-06 12:11:12.617311,187514,10.380759480569843,-0.6923650652598715,-0.18353326870549203,23.13003588590236,8.841239445177234,-7.592558550924168,0.0,0.0,0.0
1,2021-07-06 12:11:12.626020,187522,10.380759480569843,-0.6923650652598715,-0.18353326870549203,23.13003588590236,8.841239445177234,-7.592558550924168,0.0,0.0,0.0
1,2021-07-06 12:11:12.635358,187532,10.366428811324136,-0.7643850981727013,-0.049986436715297025,23.191805481997015,9.003095808909338,-7.61527471505231,0.0,0.0,0.0
1,2021-07-06 12:11:12.642977,187539,10.366428811324136,-0.7643850981727013,-0.049986436715297025,23.191805481997015,9.003095808909338,-7.61527471505231,0.0,0.0,0.0
1,2021-07-06 12:11:12.650733,187547,10.313883024089881,-0.7211730784250033,-0.2789238629842029,23.299902275162662,9.280563861021518,-7.60013060563355,0.0,0.0,0.0
1,2021-07-06 12:11:12.659471,187556,10.313883024089881,-0.7211730784250033,-0.2789238629842029,23.299902275162662,9.280563861021518,-7.60013060563355,0.0,0.0,0.0
1,2021-07-06 12:11:12.668179,187565,10.309106134341311,-0.7691864337002232,-0.226459036130912,23.446605065887464,9.827792519353872,-7.637990879180454,0.0,0.0,0.0
1,2021-07-06 12:11:12.675780,187572,10.309106134341311,-0.7691864337002232,-0.226459036130912,23.446605065887464,9.827792519353872,-7.637990879180454,0.0,0.0,0.0
1,2021-07-06 12:11:12.683088,187579,10.309106134341311,-0.7691864337002232,-0.226459036130912,23.446605065887464,9.827792519353872,-7.637990879180454,0.0,0.0,0.0
1,2021-07-06 12:11:12.690558,187587,10.342544362581293,-0.7355770850075695,-0.08814267442678156,23.46976866442296,10.174627584494097,-7.645562933889834,0.0,0.0,0.0
1,2021-07-06 12:11:12.698517,187595,10.342544362581293,-0.7355770850075695,-0.08814267442678156,23.46976866442296,10.174627584494097,-7.645562933889834,0.0,0.0,0.0
1,2021-07-06 12:11:12.705346,187602,10.399867039564116,-0.7355770850075695,-0.04044737728742611,23.431162666863802,10.128382909142067,-7.6304188244710724,0.0,0.0,0.0
1,2021-07-06 12:11:12.711862,187608,10.399867039564116,-0.7355770850075695,-0.04044737728742611,23.431162666863802,10.128382909142067,-7.6304188244710724,0.0,0.0,0.0
1,2021-07-06 12:11:12.718773,187615,10.399867039564116,-0.7355770850075695,-0.04044737728742611,23.431162666863802,10.128382909142067,-7.6304188244710724,0.0,0.0,0.0
1,2021-07-06 12:11:12.727383,187624,10.41897459855839,-0.7019677363149157,-0.045216907001361564,23.531538260517614,10.082138233790035,-7.645562933889834,0.0,0.0,0.0
1,2021-07-06 12:11:12.735471,187632,10.41897459855839,-0.7019677363149157,-0.045216907001361564,23.531538260517614,10.082138233790035,-7.645562933889834,0.0,0.0,0.0
1,2021-07-06 12:11:12.743059,187639,10.41897459855839,-0.7019677363149157,-0.045216907001361564,23.531538260517614,10.082138233790035,-7.645562933889834,0.0,0.0,0.0
1,2021-07-06 12:11:12.750162,187646,10.42852837805553,-0.7259744139525253,-0.0786036149989102,23.562423058564942,10.005063774869985,-7.653134988599215,0.0,0.0,0.0
1,2021-07-06 12:11:12.758202,187655,10.42852837805553,-0.7259744139525253,-0.0786036149989102,23.562423058564942,10.005063774869985,-7.653134988599215,0.0,0.0,0.0
1,2021-07-06 12:11:12.765956,187662,10.414197708809823,-0.7019677363149157,-0.0786036149989102,23.63191385417143,9.943404207733945,-7.531982113249121,0.0,0.0,0.0
1,2021-07-06 12:11:12.773692,187670,10.414197708809823,-0.7019677363149157,-0.0786036149989102,23.63191385417143,9.943404207733945,-7.531982113249121,0.0,0.0,0.0
1,2021-07-06 12:11:12.781336,187678,10.414197708809823,-0.7019677363149157,-0.0786036149989102,23.63191385417143,9.943404207733945,-7.531982113249121,0.0,0.0,0.0
1,2021-07-06 12:11:12.788727,187685,10.361651921575568,-0.7595837626451795,0.05494321699128435,23.685962250754255,9.897159532381917,-7.509265949120979,0.0,0.0,0.0
1,2021-07-06 12:11:12.797131,187693,10.361651921575568,-0.7595837626451795,0.05494321699128435,23.685962250754255,9.897159532381917,-7.509265949120979,0.0,0.0,0.0
1,2021-07-06 12:11:12.806864,187703,10.361651921575568,-0.7595837626451795,0.05494321699128435,23.685962250754255,9.897159532381917,-7.509265949120979,0.0,0.0,0.0
1,2021-07-06 12:11:12.816042,187712,10.337767472832724,-0.7547824271176575,0.026326038707671168,23.778616644896232,10.089845679682043,-7.569842386796026,0.0,0.0,0.0
1,2021-07-06 12:11:12.824076,187720,10.337767472832724,-0.7547824271176575,0.026326038707671168,23.778616644896232,10.089845679682043,-7.569842386796026,0.0,0.0,0.0
1,2021-07-06 12:11:12.831364,187728,10.395090149815548,-0.7211730784250033,0.045404157563413435,23.832665041479057,10.413558407146251,-7.547126222667884,0.0,0.0,0.0
1,2021-07-06 12:11:12.838327,187735,10.395090149815548,-0.7211730784250033,0.045404157563413435,23.832665041479057,10.413558407146251,-7.547126222667884,0.0,0.0,0.0
1,2021-07-06 12:11:12.846008,187742,10.466743496044078,-0.6731597231497839,0.012017449565864797,23.871271039038216,10.613952000338378,-7.51683800383036,0.0,0.0,0.0
1,2021-07-06 12:11:12.853610,187750,10.466743496044078,-0.6731597231497839,0.012017449565864797,23.871271039038216,10.613952000338378,-7.51683800383036,0.0,0.0,0.0
1,2021-07-06 12:11:12.860863,187757,10.466743496044078,-0.6731597231497839,0.012017449565864797,23.871271039038216,10.613952000338378,-7.51683800383036,0.0,0.0,0.0
1,2021-07-06 12:11:12.867936,187764,10.457189716546942,-0.6827623942048276,0.08356039527489798,23.9639254331802,10.575414770878357,-7.410829237899027,0.0,0.0,0.0
1,2021-07-06 12:11:12.876246,187773,10.457189716546942,-0.6827623942048276,0.08356039527489798,23.9639254331802,10.575414770878357,-7.410829237899027,0.0,0.0,0.0
1,2021-07-06 12:11:12.884785,187781,10.457189716546942,-0.6827623942048276,0.08356039527489798,23.9639254331802,10.575414770878357,-7.410829237899027,0.0,0.0,0.0
1,2021-07-06 12:11:12.893282,187790,10.466743496044078,-0.6827623942048276,0.15033381126999526,24.072022226345844,10.475217974282291,-7.274532253130172,0.0,0.0,0.0
1,2021-07-06 12:11:12.900836,187797,10.466743496044078,-0.6827623942048276,0.15033381126999526,24.072022226345844,10.475217974282291,-7.274532253130172,0.0,0.0,0.0
1,2021-07-06 12:11:12.908688,187805,10.495404834535492,-0.6827623942048276,0.09786898441670434,24.149234221464162,10.413558407146251,-7.229099924873887,0.0,0.0,0.0
1,2021-07-06 12:11:12.916620,187813,10.495404834535492,-0.6827623942048276,0.09786898441670434,24.149234221464162,10.413558407146251,-7.229099924873887,0.0,0.0,0.0
1,2021-07-06 12:11:12.923948,187820,10.495404834535492,-0.6827623942048276,0.09786898441670434,24.149234221464162,10.413558407146251,-7.229099924873887,0.0,0.0,0.0
1,2021-07-06 12:11:12.931709,187828,10.490627944786922,-0.6827623942048276,0.03586509813554252,24.149234221464162,10.297946718766175,-7.092802940105031,0.0,0.0,0.0
1,2021-07-06 12:11:12.938642,187835,10.490627944786922,-0.6827623942048276,0.03586509813554252,24.149234221464162,10.297946718766175,-7.092802940105031,0.0,0.0,0.0
1,2021-07-06 12:11:12.945990,187842,10.495404834535492,-0.6923650652598715,0.031095568421607066,24.26505221414164,10.112968017358057,-6.911073627079891,0.0,0.0,0.0
1,2021-07-06 12:11:12.952923,187849,10.495404834535492,-0.6923650652598715,0.031095568421607066,24.26505221414164,10.112968017358057,-6.911073627079891,0.0,0.0,0.0
1,2021-07-06 12:11:12.960366,187857,10.495404834535492,-0.6923650652598715,0.031095568421607066,24.26505221414164,10.112968017358057,-6.911073627079891,0.0,0.0,0.0
1,2021-07-06 12:11:12.967248,187864,10.442859047301235,-0.6635570520947396,-0.035677847573490656,24.295937012188965,10.205457368062115,-6.865641298823606,0.0,0.0,0.0
1,2021-07-06 12:11:12.974457,187871,10.442859047301235,-0.6635570520947396,-0.035677847573490656,24.295937012188965,10.205457368062115,-6.865641298823606,0.0,0.0,0.0
1,2021-07-06 12:11:12.981936,187878,10.442859047301235,-0.6635570520947396,-0.035677847573490656,24.295937012188965,10.205457368062115,-6.865641298823606,0.0,0.0,0.0
1,2021-07-06 12:11:12.989966,187886,10.46196660629551,-0.6971664007873933,0.07402133584702662,24.326821810236297,10.375021177686227,-6.736916368764131,0.0,0.0,0.0
1,2021-07-06 12:11:12.997028,187893,10.46196660629551,-0.6971664007873933,0.07402133584702662,24.326821810236297,10.375021177686227,-6.736916368764131,0.0,0.0,0.0
1,2021-07-06 12:11:13.004139,187900,10.46196660629551,-0.6971664007873933,0.07402133584702662,24.326821810236297,10.375021177686227,-6.736916368764131,0.0,0.0,0.0
1,2021-07-06 12:11:13.012199,187909,10.50495861403263,-0.6923650652598715,0.03586509813554252,24.3036582117008,10.375021177686227,-6.646051712251561,0.0,0.0,0.0
1,2021-07-06 12:11:13.019115,187915,10.50495861403263,-0.6923650652598715,0.03586509813554252,24.3036582117008,10.375021177686227,-6.646051712251561,0.0,0.0,0.0
1,2021-07-06 12:11:13.026475,187923,10.495404834535492,-0.6683583876222615,0.05494321699128435,24.442639802913774,10.128382909142067,-6.54761500102961,0.0,0.0,0.0
1,2021-07-06 12:11:13.034361,187931,10.495404834535492,-0.6683583876222615,0.05494321699128435,24.442639802913774,10.128382909142067,-6.54761500102961,0.0,0.0,0.0
1,2021-07-06 12:11:13.041497,187938,10.495404834535492,-0.6683583876222615,0.05494321699128435,24.442639802913774,10.128382909142067,-6.54761500102961,0.0,0.0,0.0
1,2021-07-06 12:11:13.049622,187946,10.490627944786922,-0.7019677363149157,0.09309945470276888,24.53529419705576,10.01277122076199,-6.4264621256795165,0.0,0.0,0.0
1,2021-07-06 12:11:13.057695,187954,10.490627944786922,-0.7019677363149157,0.09309945470276888,24.53529419705576,10.01277122076199,-6.4264621256795165,0.0,0.0,0.0
1,2021-07-06 12:11:13.065036,187961,10.490627944786922,-0.7019677363149157,0.09309945470276888,24.53529419705576,10.01277122076199,-6.4264621256795165,0.0,0.0,0.0
1,2021-07-06 12:11:13.072308,187969,10.466743496044078,-0.6635570520947396,0.05971274670522025,24.53529419705576,10.043601004330009,-6.267448976782518,0.0,0.0,0.0
1,2021-07-06 12:11:13.079528,187976,10.466743496044078,-0.6635570520947396,0.05971274670522025,24.53529419705576,10.043601004330009,-6.267448976782518,0.0,0.0,0.0
1,2021-07-06 12:11:13.087330,187984,10.471520385792648,-0.7355770850075695,0.045404157563413435,24.573900194614914,10.213164813954121,-6.1538681561418045,0.0,0.0,0.0
1,2021-07-06 12:11:13.095458,187992,10.471520385792648,-0.7355770850075695,0.045404157563413435,24.573900194614914,10.213164813954121,-6.1538681561418045,0.0,0.0,0.0
1,2021-07-06 12:11:13.102393,187999,10.471520385792648,-0.7355770850075695,0.045404157563413435,24.573900194614914,10.213164813954121,-6.1538681561418045,0.0,0.0,0.0
1,2021-07-06 12:11:13.109869,188006,10.524066173026904,-0.6347490389296078,0.05494321699128435,24.62794859119774,10.38272862357823,-6.0251432260823305,0.0,0.0,0.0
1,2021-07-06 12:11:13.116956,188013,10.524066173026904,-0.6347490389296078,0.05494321699128435,24.62794859119774,10.38272862357823,-6.0251432260823305,0.0,0.0,0.0
1,2021-07-06 12:11:13.125584,188022,10.524066173026904,-0.6347490389296078,0.05494321699128435,24.62794859119774,10.38272862357823,-6.0251432260823305,0.0,0.0,0.0
1,2021-07-06 12:11:13.134045,188030,10.509735503781197,-0.6779610586773058,0.050173687277348895,24.76693018241071,10.30565416465818,-5.941850624279141,0.0,0.0,0.0
1,2021-07-06 12:11:13.142616,188039,10.509735503781197,-0.6779610586773058,0.050173687277348895,24.76693018241071,10.30565416465818,-5.941850624279141,0.0,0.0,0.0
1,2021-07-06 12:11:13.151447,188048,10.490627944786922,-0.6539543810396958,-0.016599728717748383,24.720602985339717,10.282531826982165,-5.850985967766571,0.0,0.0,0.0
1,2021-07-06 12:11:13.160915,188057,10.490627944786922,-0.6539543810396958,-0.016599728717748383,24.720602985339717,10.282531826982165,-5.850985967766571,0.0,0.0,0.0
1,2021-07-06 12:11:13.167968,188064,10.495404834535492,-0.6635570520947396,-0.08814267442678156,24.8364209780172,10.375021177686227,-5.691972818869573,0.0,0.0,0.0
1,2021-07-06 12:11:13.175648,188072,10.495404834535492,-0.6635570520947396,-0.08814267442678156,24.8364209780172,10.375021177686227,-5.691972818869573,0.0,0.0,0.0
1,2021-07-06 12:11:13.183630,188080,10.495404834535492,-0.6635570520947396,-0.08814267442678156,24.8364209780172,10.375021177686227,-5.691972818869573,0.0,0.0,0.0
1,2021-07-06 12:11:13.191182,188088,10.519289283278335,-0.6491530455121739,-0.06906455557103928,24.913632973135517,10.621659446230385,-5.419378849331862,0.0,0.0,0.0
1,2021-07-06 12:11:13.199922,188096,10.519289283278335,-0.6491530455121739,-0.06906455557103928,24.913632973135517,10.621659446230385,-5.419378849331862,0.0,0.0,0.0
1,2021-07-06 12:11:13.207474,188104,10.524066173026904,-0.6971664007873933,-0.045216907001361564,24.96768136971834,10.868297714774544,-5.267937755144245,0.0,0.0,0.0
1,2021-07-06 12:11:13.216977,188113,10.524066173026904,-0.6971664007873933,-0.045216907001361564,24.96768136971834,10.868297714774544,-5.267937755144245,0.0,0.0,0.0
1,2021-07-06 12:11:13.224475,188121,10.524066173026904,-0.6971664007873933,-0.045216907001361564,24.96768136971834,10.868297714774544,-5.267937755144245,0.0,0.0,0.0
1,2021-07-06 12:11:13.232113,188128,10.485851055038353,-0.6779610586773058,-0.10245126356858793,24.998566167765667,10.899127498342562,-5.086208442119105,0.0,0.0,0.0
1,2021-07-06 12:11:13.239685,188136,10.485851055038353,-0.6779610586773058,-0.10245126356858793,24.998566167765667,10.899127498342562,-5.086208442119105,0.0,0.0,0.0
1,2021-07-06 12:11:13.246240,188143,10.50495861403263,-0.6539543810396958,-0.18353326870549203,25.08349936239582,11.084106199750686,-4.889335019675202,0.0,0.0,0.0
1,2021-07-06 12:11:13.253705,188150,10.50495861403263,-0.6539543810396958,-0.18353326870549203,25.08349936239582,11.084106199750686,-4.889335019675202,0.0,0.0,0.0
1,2021-07-06 12:11:13.262373,188159,10.50495861403263,-0.6539543810396958,-0.18353326870549203,25.08349936239582,11.084106199750686,-4.889335019675202,0.0,0.0,0.0
1,2021-07-06 12:11:13.269219,188166,10.54317373202118,-0.6443517099846521,-0.016599728717748383,25.13754775897864,11.284499792942812,-4.806042417872013,0.0,0.0,0.0
1,2021-07-06 12:11:13.276362,188173,10.54317373202118,-0.6443517099846521,-0.016599728717748383,25.13754775897864,11.284499792942812,-4.806042417872013,0.0,0.0,0.0
1,2021-07-06 12:11:13.285285,188182,10.54317373202118,-0.6443517099846521,-0.016599728717748383,25.13754775897864,11.284499792942812,-4.806042417872013,0.0,0.0,0.0
1,2021-07-06 12:11:13.293737,188190,10.533619952524042,-0.6347490389296078,0.007247919851929341,25.168432557025966,11.315329576510832,-4.654601323684395,0.0,0.0,0.0
1,2021-07-06 12:11:13.301903,188198,10.533619952524042,-0.6347490389296078,0.007247919851929341,25.168432557025966,11.315329576510832,-4.654601323684395,0.0,0.0,0.0
1,2021-07-06 12:11:13.309151,188205,10.53839684227261,-0.6683583876222615,-0.09291220414071702,25.230202153120622,11.230547671698778,-4.457727901240493,0.0,0.0,0.0
1,2021-07-06 12:11:13.316745,188213,10.53839684227261,-0.6683583876222615,-0.09291220414071702,25.230202153120622,11.230547671698778,-4.457727901240493,0.0,0.0,0.0
1,2021-07-06 12:11:13.324518,188221,10.53839684227261,-0.6683583876222615,-0.09291220414071702,25.230202153120622,11.230547671698778,-4.457727901240493,0.0,0.0,0.0
1,2021-07-06 12:11:13.332438,188229,10.54317373202118,-0.6635570520947396,-0.06906455557103928,25.276529350191613,11.130350875102714,-4.268426533505972,0.0,0.0,0.0
1,2021-07-06 12:11:13.340244,188237,10.54317373202118,-0.6635570520947396,-0.06906455557103928,25.276529350191613,11.130350875102714,-4.268426533505972,0.0,0.0,0.0
1,2021-07-06 12:11:13.348155,188244,10.514512393529767,-0.6779610586773058,-0.06906455557103928,25.29969294872711,11.068691307966674,-4.109413384608973,0.0,0.0,0.0
1,2021-07-06 12:11:13.355641,188252,10.514512393529767,-0.6779610586773058,-0.06906455557103928,25.29969294872711,11.068691307966674,-4.109413384608973,0.0,0.0,0.0
1,2021-07-06 12:11:13.362974,188259,10.514512393529767,-0.6779610586773058,-0.06906455557103928,25.29969294872711,11.068691307966674,-4.109413384608973,0.0,0.0,0.0
1,2021-07-06 12:11:13.370169,188267,10.509735503781197,-0.7019677363149157,-0.11675985271039474,25.330577746774438,11.176595550454742,-3.9806884545494987,0.0,0.0,0.0
1,2021-07-06 12:11:13.377248,188274,10.509735503781197,-0.7019677363149157,-0.11675985271039474,25.330577746774438,11.176595550454742,-3.9806884545494987,0.0,0.0,0.0
1,2021-07-06 12:11:13.385041,188281,10.509735503781197,-0.7019677363149157,-0.11675985271039474,25.330577746774438,11.176595550454742,-3.9806884545494987,0.0,0.0,0.0
1,2021-07-06 12:11:13.392279,188289,10.509735503781197,-0.6875637297323496,-0.11199032299645928,25.39234734286909,11.330744468294844,-3.9428281810025947,0.0,0.0,0.0
1,2021-07-06 12:11:13.400839,188297,10.509735503781197,-0.6875637297323496,-0.11199032299645928,25.39234734286909,11.330744468294844,-3.9428281810025947,0.0,0.0,0.0
1,2021-07-06 12:11:13.408651,188305,10.53839684227261,-0.6923650652598715,-0.10245126356858793,25.38462614335726,11.384696589538876,-3.8443914697806436,0.0,0.0,0.0
1,2021-07-06 12:11:13.416367,188313,10.53839684227261,-0.6923650652598715,-0.10245126356858793,25.38462614335726,11.384696589538876,-3.8443914697806436,0.0,0.0,0.0
1,2021-07-06 12:11:13.425948,188322,10.53839684227261,-0.6923650652598715,-0.10245126356858793,25.38462614335726,11.384696589538876,-3.8443914697806436,0.0,0.0,0.0
1,2021-07-06 12:11:13.434228,188331,10.54317373202118,-0.6539543810396958,-0.011830199003812927,25.415510941404584,11.392404035430884,-3.7838150321055966,0.0,0.0,0.0
1,2021-07-06 12:11:13.441427,188338,10.54317373202118,-0.6539543810396958,-0.011830199003812927,25.415510941404584,11.392404035430884,-3.7838150321055966,0.0,0.0,0.0
1,2021-07-06 12:11:13.449535,188346,10.557504401266884,-0.6539543810396958,0.02155650899373571,25.48500173701107,11.284499792942812,-3.715666539721169,0.0,0.0,0.0
1,2021-07-06 12:11:13.458105,188354,10.557504401266884,-0.6539543810396958,0.02155650899373571,25.48500173701107,11.284499792942812,-3.715666539721169,0.0,0.0,0.0
1,2021-07-06 12:11:13.465838,188362,10.586165739758297,-0.6539543810396958,-0.030908317859555196,25.492722936522902,11.138058320994718,-3.609657773789837,0.0,0.0,0.0
1,2021-07-06 12:11:13.472883,188369,10.586165739758297,-0.6539543810396958,-0.030908317859555196,25.492722936522902,11.138058320994718,-3.609657773789837,0.0,0.0,0.0
1,2021-07-06 12:11:13.481933,188378,10.586165739758297,-0.6539543810396958,-0.030908317859555196,25.492722936522902,11.138058320994718,-3.609657773789837,0.0,0.0,0.0
1,2021-07-06 12:11:13.489446,188386,10.567058180764024,-0.7067690718424376,0.031095568421607066,25.446395739451912,10.976201957262612,-3.435500515474077,0.0,0.0,0.0
1,2021-07-06 12:11:13.496712,188393,10.567058180764024,-0.7067690718424376,0.031095568421607066,25.446395739451912,10.976201957262612,-3.435500515474077,0.0,0.0,0.0
1,2021-07-06 12:11:13.505443,188402,10.567058180764024,-0.7067690718424376,0.031095568421607066,25.446395739451912,10.976201957262612,-3.435500515474077,0.0,0.0,0.0
1,2021-07-06 12:11:13.515060,188411,10.53839684227261,-0.7163717428974814,0.0024783901379938846,25.500444136034737,10.84517537709853,-3.352207913670888,0.0,0.0,0.0
1,2021-07-06 12:11:13.522362,188419,10.53839684227261,-0.7163717428974814,0.0024783901379938846,25.500444136034737,10.84517537709853,-3.352207913670888,0.0,0.0,0.0
1,2021-07-06 12:11:13.528550,188425,10.50495861403263,-0.7019677363149157,0.05494321699128435,25.546771333105728,10.883712606558555,-3.3370638042521263,0.0,0.0,0.0
1,2021-07-06 12:11:13.536698,188433,10.50495861403263,-0.7019677363149157,0.05494321699128435,25.546771333105728,10.883712606558555,-3.3370638042521263,0.0,0.0,0.0
1,2021-07-06 12:11:13.544511,188441,10.50495861403263,-0.7019677363149157,0.05494321699128435,25.546771333105728,10.883712606558555,-3.3370638042521263,0.0,0.0,0.0
1,2021-07-06 12:11:13.552952,188449,10.533619952524042,-0.7115704073699596,0.026326038707671168,25.523607734570234,11.007031740830634,-3.420356406055315,0.0,0.0,0.0
1,2021-07-06 12:11:13.560188,188457,10.533619952524042,-0.7115704073699596,0.026326038707671168,25.523607734570234,11.007031740830634,-3.420356406055315,0.0,0.0,0.0
1,2021-07-06 12:11:13.567845,188464,10.605273298752572,-0.6971664007873933,0.06925180613309116,25.585377330664887,11.022446632614646,-3.450644624892839,0.0,0.0,0.0
1,2021-07-06 12:11:13.575972,188472,10.605273298752572,-0.6971664007873933,0.06925180613309116,25.585377330664887,11.022446632614646,-3.450644624892839,0.0,0.0,0.0
1,2021-07-06 12:11:13.583315,188480,10.605273298752572,-0.6971664007873933,0.06925180613309116,25.585377330664887,11.022446632614646,-3.450644624892839,0.0,0.0,0.0
1,2021-07-06 12:11:13.591049,188487,10.57661196026116,-0.7019677363149157,0.13125569241425297,25.600819729688553,10.814345593530508,-3.443072570183458,0.0,0.0,0.0
1,2021-07-06 12:11:13.599429,188496,10.57661196026116,-0.7019677363149157,0.13125569241425297,25.600819729688553,10.814345593530508,-3.443072570183458,0.0,0.0,0.0
1,2021-07-06 12:11:13.607253,188504,10.533619952524042,-0.7115704073699596,0.012017449565864797,25.685752924318702,10.6447817839064,-3.443072570183458,0.0,0.0,0.0
1,2021-07-06 12:11:13.616712,188513,10.533619952524042,-0.7115704073699596,0.012017449565864797,25.685752924318702,10.6447817839064,-3.443072570183458,0.0,0.0,0.0
1,2021-07-06 12:11:13.625186,188522,10.533619952524042,-0.7115704073699596,0.012017449565864797,25.685752924318702,10.6447817839064,-3.443072570183458,0.0,0.0,0.0
1,2021-07-06 12:11:13.632709,188529,10.50018172428406,-0.7547824271176575,-0.02136925843168384,25.693474123830534,10.744978580502465,-3.4657887343116003,0.0,0.0,0.0
1,2021-07-06 12:11:13.640678,188537,10.50018172428406,-0.7547824271176575,-0.02136925843168384,25.693474123830534,10.744978580502465,-3.4657887343116003,0.0,0.0,0.0
1,2021-07-06 12:11:13.649024,188545,10.524066173026904,-0.6875637297323496,0.012017449565864797,25.716637722366027,10.876005160666548,-3.5187931172772666,0.0,0.0,0.0
1,2021-07-06 12:11:13.656764,188553,10.524066173026904,-0.6875637297323496,0.012017449565864797,25.716637722366027,10.876005160666548,-3.5187931172772666,0.0,0.0,0.0
1,2021-07-06 12:11:13.665778,188562,10.524066173026904,-0.6875637297323496,0.012017449565864797,25.716637722366027,10.876005160666548,-3.5187931172772666,0.0,0.0,0.0
1,2021-07-06 12:11:13.674969,188571,10.571835070512591,-0.7019677363149157,-0.045216907001361564,25.739801320901524,11.022446632614646,-3.5112210625678855,0.0,0.0,0.0
1,2021-07-06 12:11:13.681944,188578,10.571835070512591,-0.7019677363149157,-0.045216907001361564,25.739801320901524,11.022446632614646,-3.5112210625678855,0.0,0.0,0.0
1,2021-07-06 12:11:13.689228,188586,10.586165739758297,-0.6683583876222615,-0.05952549614316838,25.701195323342365,11.16888810456274,-3.45821667960222,0.0,0.0,0.0
1,2021-07-06 12:11:13.697994,188594,10.586165739758297,-0.6683583876222615,-0.05952549614316838,25.701195323342365,11.16888810456274,-3.45821667960222,0.0,0.0,0.0
1,2021-07-06 12:11:13.705157,188601,10.547950621769749,-0.6827623942048276,-0.0833731447128461,25.716637722366027,11.222840225806772,-3.435500515474077,0.0,0.0,0.0
1,2021-07-06 12:11:13.712447,188609,10.547950621769749,-0.6827623942048276,-0.0833731447128461,25.716637722366027,11.222840225806772,-3.435500515474077,0.0,0.0,0.0
1,2021-07-06 12:11:13.719460,188616,10.547950621769749,-0.6827623942048276,-0.0833731447128461,25.716637722366027,11.222840225806772,-3.435500515474077,0.0,0.0,0.0
1,2021-07-06 12:11:13.727451,188624,10.557504401266884,-0.6683583876222615,-0.011830199003812927,25.770686118948852,11.338451914186848,-3.3673520230896496,0.0,0.0,0.0
1,2021-07-06 12:11:13.734885,188631,10.557504401266884,-0.6683583876222615,-0.011830199003812927,25.770686118948852,11.338451914186848,-3.3673520230896496,0.0,0.0,0.0
1,2021-07-06 12:11:13.742824,188639,10.557504401266884,-0.6683583876222615,-0.011830199003812927,25.770686118948852,11.338451914186848,-3.3673520230896496,0.0,0.0,0.0
1,2021-07-06 12:11:13.750153,188646,10.53839684227261,-0.6923650652598715,-0.10245126356858793,25.855619313579002,11.500308277918952,-3.2689153118676986,0.0,0.0,0.0
1,2021-07-06 12:11:13.758143,188654,10.53839684227261,-0.6923650652598715,-0.10245126356858793,25.855619313579002,11.500308277918952,-3.2689153118676986,0.0,0.0,0.0
1,2021-07-06 12:11:13.765896,188662,10.557504401266884,-0.7163717428974814,-0.09768173385465248,25.871061712602664,11.700701871111082,-3.2007668194832704,0.0,0.0,0.0
1,2021-07-06 12:11:13.774379,188671,10.557504401266884,-0.7163717428974814,-0.09768173385465248,25.871061712602664,11.700701871111082,-3.2007668194832704,0.0,0.0,0.0
1,2021-07-06 12:11:13.781936,188678,10.557504401266884,-0.7163717428974814,-0.09768173385465248,25.871061712602664,11.700701871111082,-3.2007668194832704,0.0,0.0,0.0
1,2021-07-06 12:11:13.789311,188686,10.571835070512591,-0.6683583876222615,-0.035677847573490656,25.92511010918549,11.862558234843187,-3.2007668194832704,0.0,0.0,0.0
1,2021-07-06 12:11:13.796724,188693,10.571835070512591,-0.6683583876222615,-0.035677847573490656,25.92511010918549,11.862558234843187,-3.2007668194832704,0.0,0.0,0.0
1,2021-07-06 12:11:13.804266,188701,10.571835070512591,-0.6683583876222615,-0.035677847573490656,25.92511010918549,11.862558234843187,-3.2007668194832704,0.0,0.0,0.0
1,2021-07-06 12:11:13.813061,188709,10.581388850009729,-0.6971664007873933,0.02155650899373571,25.92511010918549,11.862558234843187,-3.0947580535519386,0.0,0.0,0.0
1,2021-07-06 12:11:13.821604,188718,10.581388850009729,-0.6971664007873933,0.02155650899373571,25.92511010918549,11.862558234843187,-3.0947580535519386,0.0,0.0,0.0
1,2021-07-06 12:11:13.828709,188725,10.600496409004004,-0.6683583876222615,0.016786979279800253,25.97143730625648,11.785483775923137,-3.0266095611675112,0.0,0.0,0.0
1,2021-07-06 12:11:13.835668,188732,10.600496409004004,-0.6683583876222615,0.016786979279800253,25.97143730625648,11.785483775923137,-3.0266095611675112,0.0,0.0,0.0
1,2021-07-06 12:11:13.843183,188740,10.600496409004004,-0.6683583876222615,0.016786979279800253,25.97143730625648,11.785483775923137,-3.0266095611675112,0.0,0.0,0.0
1,2021-07-06 12:11:13.851097,188747,10.586165739758297,-0.6587557165672178,-0.011830199003812927,25.917388909673654,11.662164641651056,-2.905456685817417,0.0,0.0,0.0
1,2021-07-06 12:11:13.858673,188755,10.586165739758297,-0.6587557165672178,-0.011830199003812927,25.917388909673654,11.662164641651056,-2.905456685817417,0.0,0.0,0.0
1,2021-07-06 12:11:13.867991,188764,10.605273298752572,-0.6491530455121739,-0.06906455557103928,25.93283130869732,11.68528697932707,-2.7691597010485616,0.0,0.0,0.0
1,2021-07-06 12:11:13.875151,188771,10.605273298752572,-0.6491530455121739,-0.06906455557103928,25.93283130869732,11.68528697932707,-2.7691597010485616,0.0,0.0,0.0
1,2021-07-06 12:11:13.882883,188779,10.605273298752572,-0.6491530455121739,-0.06906455557103928,25.93283130869732,11.68528697932707,-2.7691597010485616,0.0,0.0,0.0
1,2021-07-06 12:11:13.890547,188787,10.567058180764024,-0.6395503744571297,-0.007060669289877471,25.909667710161827,11.754653992355118,-2.617718606860945,0.0,0.0,0.0
1,2021-07-06 12:11:13.899218,188796,10.567058180764024,-0.6395503744571297,-0.007060669289877471,25.909667710161827,11.754653992355118,-2.617718606860945,0.0,0.0,0.0
1,2021-07-06 12:11:13.907679,188804,10.586165739758297,-0.6155436968195197,-0.0022911395759420143,25.94055250820915,11.978169923223259,-2.466277512673327,0.0,0.0,0.0
1,2021-07-06 12:11:13.915868,188812,10.586165739758297,-0.6155436968195197,-0.0022911395759420143,25.94055250820915,11.978169923223259,-2.466277512673327,0.0,0.0,0.0
1,2021-07-06 12:11:13.925197,188822,10.586165739758297,-0.6155436968195197,-0.0022911395759420143,25.94055250820915,11.978169923223259,-2.466277512673327,0.0,0.0,0.0
1,2021-07-06 12:11:13.932952,188829,10.610050188501141,-0.6539543810396958,-0.04044737728742611,25.955994907232814,12.08607416571133,-2.292120254357568,0.0,0.0,0.0
1,2021-07-06 12:11:13.940275,188837,10.610050188501141,-0.6539543810396958,-0.04044737728742611,25.955994907232814,12.08607416571133,-2.292120254357568,0.0,0.0,0.0
1,2021-07-06 12:11:13.947513,188844,10.595719519255436,-0.6635570520947396,-0.02136925843168384,26.025485702839305,12.039829490359303,-2.042242448948,0.0,0.0,0.0
1,2021-07-06 12:11:13.954811,188851,10.595719519255436,-0.6635570520947396,-0.02136925843168384,26.025485702839305,12.039829490359303,-2.042242448948,0.0,0.0,0.0
1,2021-07-06 12:11:13.962766,188859,10.595719519255436,-0.6635570520947396,-0.02136925843168384,26.025485702839305,12.039829490359303,-2.042242448948,0.0,0.0,0.0
1,2021-07-06 12:11:13.971570,188868,10.595719519255436,-0.6683583876222615,-0.007060669289877471,26.071812899910295,11.970462477331255,-1.8983734094697633,0.0,0.0,0.0
1,2021-07-06 12:11:13.980149,188876,10.595719519255436,-0.6683583876222615,-0.007060669289877471,26.071812899910295,11.970462477331255,-1.8983734094697633,0.0,0.0,0.0
1,2021-07-06 12:11:13.987333,188884,10.595719519255436,-0.6827623942048276,0.026326038707671168,25.994600904791977,11.847143343059177,-1.8150808076665739,0.0,0.0,0.0
1,2021-07-06 12:11:13.995144,188891,10.595719519255436,-0.6827623942048276,0.026326038707671168,25.994600904791977,11.847143343059177,-1.8150808076665739,0.0,0.0,0.0
1,2021-07-06 12:11:14.004737,188901,10.595719519255436,-0.6827623942048276,0.026326038707671168,25.994600904791977,11.847143343059177,-1.8150808076665739,0.0,0.0,0.0
1,2021-07-06 12:11:14.012369,188909,10.586165739758297,-0.6539543810396958,0.02155650899373571,25.979158505768314,11.646749749867046,-1.762076424700908,0.0,0.0,0.0
1,2021-07-06 12:11:14.020392,188917,10.586165739758297,-0.6539543810396958,0.02155650899373571,25.979158505768314,11.646749749867046,-1.762076424700908,0.0,0.0,0.0
1,2021-07-06 12:11:14.027402,188924,10.61482707824971,-0.6299477034020858,-0.11199032299645928,26.025485702839305,11.554260399162988,-1.7166440964446226,0.0,0.0,0.0
1,2021-07-06 12:11:14.034376,188931,10.61482707824971,-0.6299477034020858,-0.11199032299645928,26.025485702839305,11.554260399162988,-1.7166440964446226,0.0,0.0,0.0
1,2021-07-06 12:11:14.042629,188939,10.61482707824971,-0.6299477034020858,-0.11199032299645928,26.025485702839305,11.554260399162988,-1.7166440964446226,0.0,0.0,0.0
1,2021-07-06 12:11:14.051029,188947,10.562281291015454,-0.6587557165672178,-0.04044737728742611,25.986879705280142,11.646749749867046,-1.6560676587695757,0.0,0.0,0.0
1,2021-07-06 12:11:14.059275,188956,10.562281291015454,-0.6587557165672178,-0.04044737728742611,25.986879705280142,11.646749749867046,-1.6560676587695757,0.0,0.0,0.0
1,2021-07-06 12:11:14.067816,188964,10.61482707824971,-0.601139690236954,-0.035677847573490656,26.033206902351136,11.74694654646311,-1.542486838128863,0.0,0.0,0.0
1,2021-07-06 12:11:14.074709,188971,10.61482707824971,-0.601139690236954,-0.035677847573490656,26.033206902351136,11.74694654646311,-1.542486838128863,0.0,0.0,0.0
1,2021-07-06 12:11:14.082657,188979,10.61482707824971,-0.601139690236954,-0.035677847573490656,26.033206902351136,11.74694654646311,-1.542486838128863,0.0,0.0,0.0
1,2021-07-06 12:11:14.090341,188987,10.662595975735398,-0.6347490389296078,-0.007060669289877471,26.01004330381564,11.831728451275165,-1.322897251556818,0.0,0.0,0.0
1,2021-07-06 12:11:14.097825,188994,10.662595975735398,-0.6347490389296078,-0.007060669289877471,26.01004330381564,11.831728451275165,-1.322897251556818,0.0,0.0,0.0
1,2021-07-06 12:11:14.107366,189004,10.662595975735398,-0.6347490389296078,-0.007060669289877471,26.01004330381564,11.831728451275165,-1.322897251556818,0.0,0.0,0.0
1,2021-07-06 12:11:14.115538,189012,10.629157747495416,-0.625146367874564,0.0024783901379938846,25.994600904791977,11.615919966299028,-1.16388410265982,0.0,0.0,0.0
1,2021-07-06 12:11:14.124232,189021,10.629157747495416,-0.625146367874564,0.0024783901379938846,25.994600904791977,11.615919966299028,-1.16388410265982,0.0,0.0,0.0
1,2021-07-06 12:11:14.132365,189029,10.590942629506866,-0.6731597231497839,-0.04044737728742611,26.048649301374798,11.415526373106898,-0.9594386255065367,0.0,0.0,0.0
1,2021-07-06 12:11:14.139766,189036,10.590942629506866,-0.6731597231497839,-0.04044737728742611,26.048649301374798,11.415526373106898,-0.9594386255065367,0.0,0.0,0.0
1,2021-07-06 12:11:14.147495,189044,10.595719519255436,-0.5915370191819103,-0.05475596642923292,26.01776450332747,11.46947849435093,-0.8307136954470622,0.0,0.0,0.0
1,2021-07-06 12:11:14.154872,189051,10.595719519255436,-0.5915370191819103,-0.05475596642923292,26.01776450332747,11.46947849435093,-0.8307136954470622,0.0,0.0,0.0
1,2021-07-06 12:11:14.162580,189059,10.595719519255436,-0.5915370191819103,-0.05475596642923292,26.01776450332747,11.46947849435093,-0.8307136954470622,0.0,0.0,0.0
1,2021-07-06 12:11:14.170496,189067,10.567058180764024,-0.6443517099846521,0.050173687277348895,26.025485702839305,11.646749749867046,-0.7322769842251111,0.0,0.0,0.0
1,2021-07-06 12:11:14.179033,189075,10.567058180764024,-0.6443517099846521,0.050173687277348895,26.025485702839305,11.646749749867046,-0.7322769842251111,0.0,0.0,0.0
1,2021-07-06 12:11:14.187626,189084,10.61482707824971,-0.6443517099846521,0.026326038707671168,26.079534099422126,11.777776330031132,-0.6035520541656365,0.0,0.0,0.0
1,2021-07-06 12:11:14.195780,189092,10.61482707824971,-0.6443517099846521,0.026326038707671168,26.079534099422126,11.777776330031132,-0.6035520541656365,0.0,0.0,0.0
1,2021-07-06 12:11:14.202875,189099,10.61482707824971,-0.6443517099846521,0.026326038707671168,26.079534099422126,11.777776330031132,-0.6035520541656365,0.0,0.0,0.0
1,2021-07-06 12:11:14.210028,189106,10.624380857746846,-0.6299477034020858,0.06925180613309116,26.05637050088663,11.762361438247122,-0.4672550693967811,0.0,0.0,0.0
1,2021-07-06 12:11:14.217752,189114,10.624380857746846,-0.6299477034020858,0.06925180613309116,26.05637050088663,11.762361438247122,-0.4672550693967811,0.0,0.0,0.0
1,2021-07-06 12:11:14.226761,189123,10.624380857746846,-0.6299477034020858,0.06925180613309116,26.05637050088663,11.762361438247122,-0.4672550693967811,0.0,0.0,0.0
1,2021-07-06 12:11:14.233838,189130,10.600496409004004,-0.6443517099846521,0.07402133584702662,26.040928101862963,11.66987208754306,-0.41425068643111507,0.0,0.0,0.0
1,2021-07-06 12:11:14.243363,189140,10.600496409004004,-0.6443517099846521,0.07402133584702662,26.040928101862963,11.66987208754306,-0.41425068643111507,0.0,0.0,0.0
1,2021-07-06 12:11:14.252145,189148,10.595719519255436,-0.6347490389296078,0.04063462784947798,26.071812899910295,11.623627412191032,-0.3385301393373065,0.0,0.0,0.0
1,2021-07-06 12:11:14.259724,189156,10.595719519255436,-0.6347490389296078,0.04063462784947798,26.071812899910295,11.623627412191032,-0.3385301393373065,0.0,0.0,0.0
1,2021-07-06 12:11:14.268272,189165,10.595719519255436,-0.6347490389296078,0.04063462784947798,26.071812899910295,11.623627412191032,-0.3385301393373065,0.0,0.0,0.0
1,2021-07-06 12:11:14.275313,189172,10.595719519255436,-0.6347490389296078,0.04063462784947798,26.071812899910295,11.623627412191032,-0.3385301393373065,0.0,0.0,0.0
1,2021-07-06 12:11:14.282955,189179,10.595719519255436,-0.6347490389296078,0.04063462784947798,26.071812899910295,11.623627412191032,-0.3385301393373065,0.0,0.0,0.0
1,2021-07-06 12:11:14.290583,189187,10.590942629506866,-0.6587557165672178,0.04063462784947798,26.048649301374798,11.824021005383162,-0.11136849805588074,0.0,0.0,0.0
1,2021-07-06 12:11:14.298296,189195,10.590942629506866,-0.6587557165672178,0.04063462784947798,26.048649301374798,11.824021005383162,-0.11136849805588074,0.0,0.0,0.0
1,2021-07-06 12:11:14.305309,189202,10.605273298752572,-0.6347490389296078,0.012017449565864797,26.06409170039846,11.93192524787123,-0.06593616979959557,0.0,0.0,0.0
1,2021-07-06 12:11:14.312895,189209,10.605273298752572,-0.6347490389296078,0.012017449565864797,26.06409170039846,11.93192524787123,-0.06593616979959557,0.0,0.0,0.0
1,2021-07-06 12:11:14.320387,189217,10.605273298752572,-0.6347490389296078,0.012017449565864797,26.06409170039846,11.93192524787123,-0.06593616979959557,0.0,0.0,0.0
1,2021-07-06 12:11:14.327973,189224,10.54317373202118,-0.7211730784250033,0.10740804384457525,26.05637050088663,11.970462477331255,0.002212322584832141,0.0,0.0,0.0
1,2021-07-06 12:11:14.336103,189232,10.54317373202118,-0.7211730784250033,0.10740804384457525,26.05637050088663,11.970462477331255,0.002212322584832141,0.0,0.0,0.0
1,2021-07-06 12:11:14.344567,189241,10.54317373202118,-0.7211730784250033,0.10740804384457525,26.05637050088663,11.970462477331255,0.002212322584832141,0.0,0.0,0.0
1,2021-07-06 12:11:14.352461,189249,10.57661196026116,-0.6683583876222615,0.03586509813554252,26.102697697957623,11.908802910195217,-0.08865233392773815,0.0,0.0,0.0
1,2021-07-06 12:11:14.359576,189256,10.57661196026116,-0.6683583876222615,0.03586509813554252,26.102697697957623,11.908802910195217,-0.08865233392773815,0.0,0.0,0.0
1,2021-07-06 12:11:14.366928,189263,10.600496409004004,-0.7019677363149157,-0.16445514984975018,26.125861296493117,11.901095464303213,-0.1037964433464999,0.0,0.0,0.0
1,2021-07-06 12:11:14.375866,189272,10.600496409004004,-0.7019677363149157,-0.16445514984975018,26.125861296493117,11.901095464303213,-0.1037964433464999,0.0,0.0,0.0
1,2021-07-06 12:11:14.383191,189280,10.600496409004004,-0.7019677363149157,-0.16445514984975018,26.125861296493117,11.901095464303213,-0.1037964433464999,0.0,0.0,0.0
1,2021-07-06 12:11:14.390941,189287,10.590942629506866,-0.6635570520947396,0.15987287069786615,26.09497649844579,11.962755031439253,-0.03564795096207219,0.0,0.0,0.0
1,2021-07-06 12:11:14.399267,189296,10.590942629506866,-0.6635570520947396,0.15987287069786615,26.09497649844579,11.962755031439253,-0.03564795096207219,0.0,0.0,0.0
1,2021-07-06 12:11:14.406486,189303,10.590942629506866,-0.6443517099846521,-0.030908317859555196,26.087255298933954,11.978169923223259,-0.005359732124548704,0.0,0.0,0.0
1,2021-07-06 12:11:14.414330,189311,10.590942629506866,-0.6443517099846521,-0.030908317859555196,26.087255298933954,11.978169923223259,-0.005359732124548704,0.0,0.0,0.0
1,2021-07-06 12:11:14.423843,189320,10.590942629506866,-0.6443517099846521,-0.030908317859555196,26.087255298933954,11.978169923223259,-0.005359732124548704,0.0,0.0,0.0
1,2021-07-06 12:11:14.432050,189328,10.586165739758297,-0.6683583876222615,0.1980291084093507,26.05637050088663,12.00899970679128,0.08550492438802157,0.0,0.0,0.0
1,2021-07-06 12:11:14.439384,189336,10.586165739758297,-0.6683583876222615,0.1980291084093507,26.05637050088663,12.00899970679128,0.08550492438802157,0.0,0.0,0.0
1,2021-07-06 12:11:14.449368,189346,10.590942629506866,-0.6347490389296078,-0.09768173385465248,26.09497649844579,11.955047585547245,0.18394163560997273,0.0,0.0,0.0
1,2021-07-06 12:11:14.457368,189354,10.590942629506866,-0.6347490389296078,-0.09768173385465248,26.09497649844579,11.955047585547245,0.18394163560997273,0.0,0.0,0.0
1,2021-07-06 12:11:14.464782,189361,10.590942629506866,-0.6347490389296078,-0.09768173385465248,26.09497649844579,11.955047585547245,0.18394163560997273,0.0,0.0,0.0
1,2021-07-06 12:11:14.471888,189368,10.61482707824971,-0.6395503744571297,0.06925180613309116,26.01776450332747,11.939632693763237,0.30509451096006646,0.0,0.0,0.0
1,2021-07-06 12:11:14.480953,189377,10.61482707824971,-0.6395503744571297,0.06925180613309116,26.01776450332747,11.939632693763237,0.30509451096006646,0.0,0.0,0.0
1,2021-07-06 12:11:14.488838,189385,10.619603967998279,-0.6635570520947396,0.02155650899373571,26.118140096981286,11.962755031439253,0.4111032768913985,0.0,0.0,0.0
1,2021-07-06 12:11:14.497816,189394,10.619603967998279,-0.6635570520947396,0.02155650899373571,26.118140096981286,11.962755031439253,0.4111032768913985,0.0,0.0,0.0
1,2021-07-06 12:11:14.506569,189403,10.619603967998279,-0.6635570520947396,0.02155650899373571,26.118140096981286,11.962755031439253,0.4111032768913985,0.0,0.0,0.0
1,2021-07-06 12:11:14.515657,189412,10.638711526992553,-0.605941025764476,0.08832992498883344,26.071812899910295,11.93192524787123,0.6231208087540625,0.0,0.0,0.0
1,2021-07-06 12:11:14.523360,189420,10.638711526992553,-0.605941025764476,0.08832992498883344,26.071812899910295,11.93192524787123,0.6231208087540625,0.0,0.0,0.0
1,2021-07-06 12:11:14.530620,189427,10.590942629506866,-0.7067690718424376,-0.2550762144145252,26.01776450332747,11.87026568073519,0.7745619029416797,0.0,0.0,0.0
1,2021-07-06 12:11:14.538238,189435,10.590942629506866,-0.7067690718424376,-0.2550762144145252,26.01776450332747,11.87026568073519,0.7745619029416797,0.0,0.0,0.0
1,2021-07-06 12:11:14.545457,189442,10.629157747495416,-0.6539543810396958,-0.030908317859555196,25.963716106744645,11.893388018411205,0.9335750518386776,0.0,0.0,0.0
1,2021-07-06 12:11:14.554298,189451,10.629157747495416,-0.6539543810396958,-0.030908317859555196,25.963716106744645,11.893388018411205,0.9335750518386776,0.0,0.0,0.0
1,2021-07-06 12:11:14.562968,189459,10.629157747495416,-0.6539543810396958,-0.030908317859555196,25.963716106744645,11.893388018411205,0.9335750518386776,0.0,0.0,0.0
1,2021-07-06 12:11:14.570922,189467,10.567058180764024,-0.6779610586773058,-0.14060750128007246,25.963716106744645,11.839435897167172,1.0547279271887713,0.0,0.0,0.0
1,2021-07-06 12:11:14.578404,189475,10.567058180764024,-0.6779610586773058,-0.14060750128007246,25.963716106744645,11.839435897167172,1.0547279271887713,0.0,0.0,0.0
1,2021-07-06 12:11:14.587479,189484,10.567058180764024,-0.6731597231497839,0.11217757355851116,25.93283130869732,11.777776330031132,1.138020528991961,0.0,0.0,0.0
1,2021-07-06 12:11:14.596121,189492,10.567058180764024,-0.6731597231497839,0.11217757355851116,25.93283130869732,11.777776330031132,1.138020528991961,0.0,0.0,0.0
1,2021-07-06 12:11:14.603261,189500,10.567058180764024,-0.6731597231497839,0.11217757355851116,25.93283130869732,11.777776330031132,1.138020528991961,0.0,0.0,0.0
1,2021-07-06 12:11:14.610765,189507,10.557504401266884,-0.6731597231497839,-0.28846292241207383,25.917388909673654,11.592797628623014,1.2213131307951501,0.0,0.0,0.0
1,2021-07-06 12:11:14.619506,189516,10.557504401266884,-0.6731597231497839,-0.28846292241207383,25.917388909673654,11.592797628623014,1.2213131307951501,0.0,0.0,0.0
1,2021-07-06 12:11:14.627069,189523,10.557504401266884,-0.6683583876222615,-0.09768173385465248,25.909667710161827,11.515723169702962,1.236457240213912,0.0,0.0,0.0
1,2021-07-06 12:11:14.634699,189531,10.557504401266884,-0.6683583876222615,-0.09768173385465248,25.909667710161827,11.515723169702962,1.236457240213912,0.0,0.0,0.0
1,2021-07-06 12:11:14.641879,189538,10.557504401266884,-0.6683583876222615,-0.09768173385465248,25.909667710161827,11.515723169702962,1.236457240213912,0.0,0.0,0.0
1,2021-07-06 12:11:14.649343,189546,10.557504401266884,-0.6731597231497839,-0.16445514984975018,25.855619313579002,11.500308277918952,1.1758808025388652,0.0,0.0,0.0
1,2021-07-06 12:11:14.656147,189552,10.557504401266884,-0.6731597231497839,-0.16445514984975018,25.855619313579002,11.500308277918952,1.1758808025388652,0.0,0.0,0.0
1,2021-07-06 12:11:14.663695,189560,10.557504401266884,-0.6731597231497839,-0.16445514984975018,25.855619313579002,11.500308277918952,1.1758808025388652,0.0,0.0,0.0
1,2021-07-06 12:11:14.670440,189567,10.571835070512591,-0.6731597231497839,0.026326038707671168,25.840176914555336,11.461771048458926,1.2516013496326737,0.0,0.0,0.0
1,2021-07-06 12:11:14.677700,189574,10.571835070512591,-0.6731597231497839,0.026326038707671168,25.840176914555336,11.461771048458926,1.2516013496326737,0.0,0.0,0.0
1,2021-07-06 12:11:14.684737,189581,10.571835070512591,-0.6731597231497839,0.026326038707671168,25.840176914555336,11.461771048458926,1.2516013496326737,0.0,0.0,0.0
1,2021-07-06 12:11:14.691698,189588,10.547950621769749,-0.6731597231497839,-0.1883027984194275,25.909667710161827,11.392404035430884,1.2818895684701972,0.0,0.0,0.0
1,2021-07-06 12:11:14.699533,189596,10.547950621769749,-0.6731597231497839,-0.1883027984194275,25.909667710161827,11.392404035430884,1.2818895684701972,0.0,0.0,0.0
1,2021-07-06 12:11:14.707303,189604,10.571835070512591,-0.6299477034020858,-0.10722079328252339,25.871061712602664,11.338451914186848,1.3197498420171014,0.0,0.0,0.0
1,2021-07-06 12:11:14.714884,189611,10.571835070512591,-0.6299477034020858,-0.10722079328252339,25.871061712602664,11.338451914186848,1.3197498420171014,0.0,0.0,0.0
1,2021-07-06 12:11:14.723352,189620,10.571835070512591,-0.6299477034020858,-0.10722079328252339,25.871061712602664,11.338451914186848,1.3197498420171014,0.0,0.0,0.0
1,2021-07-06 12:11:14.732108,189628,10.57661196026116,-0.605941025764476,-0.16445514984975018,25.824734515531674,11.338451914186848,1.4257586079484335,0.0,0.0,0.0
1,2021-07-06 12:11:14.739385,189636,10.57661196026116,-0.605941025764476,-0.16445514984975018,25.824734515531674,11.338451914186848,1.4257586079484335,0.0,0.0,0.0
1,2021-07-06 12:11:14.749321,189646,10.571835070512591,-0.6299477034020858,0.007247919851929341,25.739801320901524,11.30762213061883,1.554483538007908,0.0,0.0,0.0
1,2021-07-06 12:11:14.758466,189655,10.571835070512591,-0.6299477034020858,0.007247919851929341,25.739801320901524,11.30762213061883,1.554483538007908,0.0,0.0,0.0
1,2021-07-06 12:11:14.767074,189663,10.552727511518315,-0.6347490389296078,-0.13583797156613656,25.732080121389693,11.253670009374794,1.7513569604518104,0.0,0.0,0.0
1,2021-07-06 12:11:14.775741,189672,10.552727511518315,-0.6347490389296078,-0.13583797156613656,25.732080121389693,11.253670009374794,1.7513569604518104,0.0,0.0,0.0
1,2021-07-06 12:11:14.783277,189680,10.552727511518315,-0.6347490389296078,-0.13583797156613656,25.732080121389693,11.253670009374794,1.7513569604518104,0.0,0.0,0.0
1,2021-07-06 12:11:14.792181,189689,10.524066173026904,-0.6587557165672178,-0.04044737728742611,25.693474123830534,11.376989143646872,1.8043613434174763,0.0,0.0,0.0
1,2021-07-06 12:11:14.800452,189697,10.524066173026904,-0.6587557165672178,-0.04044737728742611,25.693474123830534,11.376989143646872,1.8043613434174763,0.0,0.0,0.0
1,2021-07-06 12:11:14.808708,189705,10.557504401266884,-0.6203450323470421,-0.10722079328252339,25.693474123830534,11.446356156674916,1.7892172339987145,0.0,0.0,0.0
1,2021-07-06 12:11:14.816097,189712,10.557504401266884,-0.6203450323470421,-0.10722079328252339,25.693474123830534,11.446356156674916,1.7892172339987145,0.0,0.0,0.0
1,2021-07-06 12:11:14.824041,189720,10.557504401266884,-0.6203450323470421,-0.10722079328252339,25.693474123830534,11.446356156674916,1.7892172339987145,0.0,0.0,0.0
1,2021-07-06 12:11:14.831997,189728,10.562281291015454,-0.625146367874564,-0.035677847573490656,25.670310525295037,11.484893386134942,1.8497936716737615,0.0,0.0,0.0
1,2021-07-06 12:11:14.841641,189738,10.562281291015454,-0.625146367874564,-0.035677847573490656,25.670310525295037,11.484893386134942,1.8497936716737615,0.0,0.0,0.0
1,2021-07-06 12:11:14.849198,189746,10.54317373202118,-0.6299477034020858,0.04063462784947798,25.670310525295037,11.523430615594966,1.9482303828957126,0.0,0.0,0.0
1,2021-07-06 12:11:14.856670,189753,10.54317373202118,-0.6299477034020858,0.04063462784947798,25.670310525295037,11.523430615594966,1.9482303828957126,0.0,0.0,0.0
1,2021-07-06 12:11:14.863896,189760,10.54317373202118,-0.6299477034020858,0.04063462784947798,25.670310525295037,11.523430615594966,1.9482303828957126,0.0,0.0,0.0
1,2021-07-06 12:11:14.870981,189767,10.53839684227261,-0.605941025764476,0.050173687277348895,25.56993493164122,11.54655295327098,2.084527367664568,0.0,0.0,0.0
1,2021-07-06 12:11:14.878315,189775,10.53839684227261,-0.605941025764476,0.050173687277348895,25.56993493164122,11.54655295327098,2.084527367664568,0.0,0.0,0.0
1,2021-07-06 12:11:14.885684,189782,10.53839684227261,-0.601139690236954,0.007247919851929341,25.56993493164122,11.554260399162988,2.1299596959208533,0.0,0.0,0.0
1,2021-07-06 12:11:14.893276,189790,10.53839684227261,-0.601139690236954,0.007247919851929341,25.56993493164122,11.554260399162988,2.1299596959208533,0.0,0.0,0.0
1,2021-07-06 12:11:14.900976,189797,10.53839684227261,-0.601139690236954,0.007247919851929341,25.56993493164122,11.554260399162988,2.1299596959208533,0.0,0.0,0.0
1,2021-07-06 12:11:14.908277,189805,10.524066173026904,-0.625146367874564,0.1455642815560598,25.593098530176718,11.770068884139125,2.288972844817851,0.0,0.0,0.0
1,2021-07-06 12:11:14.915722,189812,10.524066173026904,-0.625146367874564,0.1455642815560598,25.593098530176718,11.770068884139125,2.288972844817851,0.0,0.0,0.0
1,2021-07-06 12:11:14.923015,189819,10.524066173026904,-0.625146367874564,0.1455642815560598,25.593098530176718,11.770068884139125,2.288972844817851,0.0,0.0,0.0
1,2021-07-06 12:11:14.930628,189827,10.547950621769749,-0.5723316770718222,0.12171663298638206,25.600819729688553,11.777776330031132,2.3419772277835174,0.0,0.0,0.0
1,2021-07-06 12:11:14.939848,189836,10.547950621769749,-0.5723316770718222,0.12171663298638206,25.600819729688553,11.777776330031132,2.3419772277835174,0.0,0.0,0.0
1,2021-07-06 12:11:14.947469,189844,10.552727511518315,-0.625146367874564,0.16941193012573752,25.539050133593893,11.770068884139125,2.5237065408086576,0.0,0.0,0.0
1,2021-07-06 12:11:14.954371,189851,10.552727511518315,-0.625146367874564,0.16941193012573752,25.539050133593893,11.770068884139125,2.5237065408086576,0.0,0.0,0.0
1,2021-07-06 12:11:14.961424,189858,10.552727511518315,-0.625146367874564,0.16941193012573752,25.539050133593893,11.770068884139125,2.5237065408086576,0.0,0.0,0.0
1,2021-07-06 12:11:14.968504,189865,10.552727511518315,-0.6107423612919978,0.11217757355851116,25.46955933798741,11.708409317003087,2.6448594161587518,0.0,0.0,0.0
1,2021-07-06 12:11:14.975711,189872,10.552727511518315,-0.6107423612919978,0.11217757355851116,25.46955933798741,11.708409317003087,2.6448594161587518,0.0,0.0,0.0
1,2021-07-06 12:11:14.983176,189880,10.552727511518315,-0.6107423612919978,0.11217757355851116,25.46955933798741,11.708409317003087,2.6448594161587518,0.0,0.0,0.0
1,2021-07-06 12:11:14.991263,189888,10.567058180764024,-0.5723316770718222,0.04063462784947798,25.477280537499244,11.600505074515016,2.7432961273807024,0.0,0.0,0.0
1,2021-07-06 12:11:14.998958,189895,10.567058180764024,-0.5723316770718222,0.04063462784947798,25.477280537499244,11.600505074515016,2.7432961273807024,0.0,0.0,0.0
1,2021-07-06 12:11:15.007500,189904,10.519289283278335,-0.601139690236954,0.12648616270031754,25.461838138475578,11.561967845054992,2.9477416045339857,0.0,0.0,0.0
1,2021-07-06 12:11:15.015184,189912,10.519289283278335,-0.601139690236954,0.12648616270031754,25.461838138475578,11.561967845054992,2.9477416045339857,0.0,0.0,0.0
1,2021-07-06 12:11:15.024732,189921,10.519289283278335,-0.601139690236954,0.12648616270031754,25.461838138475578,11.561967845054992,2.9477416045339857,0.0,0.0,0.0
1,2021-07-06 12:11:15.032137,189928,10.519289283278335,-0.5963383547094321,0.12171663298638206,25.446395739451912,11.716116762895092,3.0991826987216036,0.0,0.0,0.0
1,2021-07-06 12:11:15.040155,189936,10.519289283278335,-0.5963383547094321,0.12171663298638206,25.446395739451912,11.716116762895092,3.0991826987216036,0.0,0.0,0.0
1,2021-07-06 12:11:15.047119,189943,10.524066173026904,-0.6395503744571297,0.050173687277348895,25.438674539940084,11.739239100571108,3.1824753005247923,0.0,0.0,0.0
1,2021-07-06 12:11:15.054213,189951,10.524066173026904,-0.6395503744571297,0.050173687277348895,25.438674539940084,11.739239100571108,3.1824753005247923,0.0,0.0,0.0
1,2021-07-06 12:11:15.061326,189958,10.524066173026904,-0.6395503744571297,0.050173687277348895,25.438674539940084,11.739239100571108,3.1824753005247923,0.0,0.0,0.0
1,2021-07-06 12:11:15.069682,189966,10.552727511518315,-0.6299477034020858,0.05971274670522025,25.42323214091642,11.700701871111082,3.220335574071697,0.0,0.0,0.0
1,2021-07-06 12:11:15.077191,189974,10.552727511518315,-0.6299477034020858,0.05971274670522025,25.42323214091642,11.700701871111082,3.220335574071697,0.0,0.0,0.0
1,2021-07-06 12:11:15.084764,189981,10.552727511518315,-0.6299477034020858,0.05971274670522025,25.42323214091642,11.700701871111082,3.220335574071697,0.0,0.0,0.0
1,2021-07-06 12:11:15.091782,189988,10.519289283278335,-0.6155436968195197,0.13125569241425297,25.353741345309935,11.623627412191032,3.3490605041311716,0.0,0.0,0.0
1,2021-07-06 12:11:15.099142,189995,10.519289283278335,-0.6155436968195197,0.13125569241425297,25.353741345309935,11.623627412191032,3.3490605041311716,0.0,0.0,0.0
1,2021-07-06 12:11:15.106623,190003,10.519289283278335,-0.6395503744571297,0.07402133584702662,25.33829894628627,11.477185940242938,3.439925160643742,0.0,0.0,0.0
1,2021-07-06 12:11:15.113822,190010,10.519289283278335,-0.6395503744571297,0.07402133584702662,25.33829894628627,11.477185940242938,3.439925160643742,0.0,0.0,0.0
1,2021-07-06 12:11:15.121937,190018,10.519289283278335,-0.6395503744571297,0.07402133584702662,25.33829894628627,11.477185940242938,3.439925160643742,0.0,0.0,0.0
1,2021-07-06 12:11:15.129624,190026,10.533619952524042,-0.6203450323470421,0.05971274670522025,25.26880815067978,11.40781892721489,3.508073653028169,0.0,0.0,0.0
1,2021-07-06 12:11:15.136609,190033,10.533619952524042,-0.6203450323470421,0.05971274670522025,25.26880815067978,11.40781892721489,3.508073653028169,0.0,0.0,0.0
1,2021-07-06 12:11:15.144038,190040,10.533619952524042,-0.6203450323470421,0.05971274670522025,25.26880815067978,11.40781892721489,3.508073653028169,0.0,0.0,0.0
1,2021-07-06 12:11:15.152252,190049,10.509735503781197,-0.6299477034020858,0.08832992498883344,25.22248095360879,11.36928169775487,3.59893830954074,0.0,0.0,0.0
1,2021-07-06 12:11:15.160508,190057,10.509735503781197,-0.6299477034020858,0.08832992498883344,25.22248095360879,11.36928169775487,3.59893830954074,0.0,0.0,0.0
1,2021-07-06 12:11:15.168087,190064,10.509735503781197,-0.6155436968195197,0.19325957869541524,25.25336575165612,11.315329576510832,3.6519426925064056,0.0,0.0,0.0
1,2021-07-06 12:11:15.175952,190072,10.509735503781197,-0.6155436968195197,0.19325957869541524,25.25336575165612,11.315329576510832,3.6519426925064056,0.0,0.0,0.0
1,2021-07-06 12:11:15.184012,190080,10.509735503781197,-0.6155436968195197,0.19325957869541524,25.25336575165612,11.315329576510832,3.6519426925064056,0.0,0.0,0.0
1,2021-07-06 12:11:15.192142,190088,10.54317373202118,-0.6299477034020858,0.15510334098393072,25.20703855458513,11.230547671698778,3.7428073490189755,0.0,0.0,0.0
1,2021-07-06 12:11:15.200333,190097,10.54317373202118,-0.6299477034020858,0.15510334098393072,25.20703855458513,11.230547671698778,3.7428073490189755,0.0,0.0,0.0
1,2021-07-06 12:11:15.207582,190104,10.528843062775474,-0.6203450323470421,0.15033381126999526,25.106662960931313,10.960787065478602,3.86396022436907,0.0,0.0,0.0
1,2021-07-06 12:11:15.214530,190111,10.528843062775474,-0.6203450323470421,0.15033381126999526,25.106662960931313,10.960787065478602,3.86396022436907,0.0,0.0,0.0
1,2021-07-06 12:11:15.223374,190120,10.528843062775474,-0.6203450323470421,0.15033381126999526,25.106662960931313,10.960787065478602,3.86396022436907,0.0,0.0,0.0
1,2021-07-06 12:11:15.231184,190128,10.495404834535492,-0.6299477034020858,0.06925180613309116,25.13754775897864,10.891420052450558,3.9093925526253552,0.0,0.0,0.0
1,2021-07-06 12:11:15.240370,190137,10.495404834535492,-0.6299477034020858,0.06925180613309116,25.13754775897864,10.891420052450558,3.9093925526253552,0.0,0.0,0.0
1,2021-07-06 12:11:15.248326,190145,10.509735503781197,-0.6587557165672178,0.1026385141306398,25.08349936239582,10.84517537709853,4.015401318556687,0.0,0.0,0.0
1,2021-07-06 12:11:15.255736,190152,10.509735503781197,-0.6587557165672178,0.1026385141306398,25.08349936239582,10.84517537709853,4.015401318556687,0.0,0.0,0.0
1,2021-07-06 12:11:15.265594,190162,10.509735503781197,-0.6587557165672178,0.1026385141306398,25.08349936239582,10.84517537709853,4.015401318556687,0.0,0.0,0.0
1,2021-07-06 12:11:15.274624,190171,10.495404834535492,-0.605941025764476,0.06925180613309116,25.01400856678933,10.876005160666548,4.1138380297786385,0.0,0.0,0.0
1,2021-07-06 12:11:15.283842,190180,10.495404834535492,-0.605941025764476,0.06925180613309116,25.01400856678933,10.876005160666548,4.1138380297786385,0.0,0.0,0.0
1,2021-07-06 12:11:15.292703,190189,10.495404834535492,-0.6587557165672178,0.06925180613309116,24.983123768742004,10.822053039422515,4.204702686291209,0.0,0.0,0.0
1,2021-07-06 12:11:15.300665,190197,10.495404834535492,-0.6587557165672178,0.06925180613309116,24.983123768742004,10.822053039422515,4.204702686291209,0.0,0.0,0.0
1,2021-07-06 12:11:15.308004,190204,10.471520385792648,-0.5867356836543879,-0.016599728717748383,24.89046937460002,10.72185624282645,4.272851178675636,0.0,0.0,0.0
1,2021-07-06 12:11:15.317338,190214,10.471520385792648,-0.5867356836543879,-0.016599728717748383,24.89046937460002,10.72185624282645,4.272851178675636,0.0,0.0,0.0
1,2021-07-06 12:11:15.324873,190221,10.471520385792648,-0.5867356836543879,-0.016599728717748383,24.89046937460002,10.72185624282645,4.272851178675636,0.0,0.0,0.0
1,2021-07-06 12:11:15.332415,190229,10.452412826798373,-0.6731597231497839,0.045404157563413435,24.921354172647348,10.76810091817848,4.2652791239662555,0.0,0.0,0.0
1,2021-07-06 12:11:15.339940,190236,10.452412826798373,-0.6731597231497839,0.045404157563413435,24.921354172647348,10.76810091817848,4.2652791239662555,0.0,0.0,0.0
1,2021-07-06 12:11:15.348472,190245,10.457189716546942,-0.6299477034020858,0.031095568421607066,24.921354172647348,10.822053039422515,4.325855561641302,0.0,0.0,0.0
1,2021-07-06 12:11:15.356629,190253,10.457189716546942,-0.6299477034020858,0.031095568421607066,24.921354172647348,10.822053039422515,4.325855561641302,0.0,0.0,0.0
1,2021-07-06 12:11:15.365623,190262,10.457189716546942,-0.6299477034020858,0.031095568421607066,24.921354172647348,10.822053039422515,4.325855561641302,0.0,0.0,0.0
1,2021-07-06 12:11:15.373283,190270,10.466743496044078,-0.6731597231497839,-0.007060669289877471,24.80553617996987,10.891420052450558,4.318283506931921,0.0,0.0,0.0
1,2021-07-06 12:11:15.380182,190277,10.466743496044078,-0.6731597231497839,-0.007060669289877471,24.80553617996987,10.891420052450558,4.318283506931921,0.0,0.0,0.0
1,2021-07-06 12:11:15.387496,190284,10.476297275541217,-0.6443517099846521,0.0024783901379938846,24.80553617996987,10.945372173694595,4.363715835188207,0.0,0.0,0.0
1,2021-07-06 12:11:15.395718,190292,10.476297275541217,-0.6443517099846521,0.0024783901379938846,24.80553617996987,10.945372173694595,4.363715835188207,0.0,0.0,0.0
1,2021-07-06 12:11:15.403490,190300,10.476297275541217,-0.6443517099846521,0.0024783901379938846,24.80553617996987,10.945372173694595,4.363715835188207,0.0,0.0,0.0
1,2021-07-06 12:11:15.410419,190307,10.46196660629551,-0.6491530455121739,0.06925180613309116,24.71288178582789,10.90683494423457,4.431864327572634,0.0,0.0,0.0
1,2021-07-06 12:11:15.417525,190314,10.46196660629551,-0.6491530455121739,0.06925180613309116,24.71288178582789,10.90683494423457,4.431864327572634,0.0,0.0,0.0
1,2021-07-06 12:11:15.425626,190322,10.46196660629551,-0.6491530455121739,0.06925180613309116,24.71288178582789,10.90683494423457,4.431864327572634,0.0,0.0,0.0
1,2021-07-06 12:11:15.434827,190331,10.471520385792648,-0.6155436968195197,0.012017449565864797,24.63566979070957,10.953079619586598,4.5681613123414895,0.0,0.0,0.0
1,2021-07-06 12:11:15.442329,190339,10.471520385792648,-0.6155436968195197,0.012017449565864797,24.63566979070957,10.953079619586598,4.5681613123414895,0.0,0.0,0.0
1,2021-07-06 12:11:15.451218,190348,10.457189716546942,-0.6539543810396958,-0.04044737728742611,24.62794859119774,10.891420052450558,4.583305421760252,0.0,0.0,0.0
1,2021-07-06 12:11:15.458461,190355,10.457189716546942,-0.6539543810396958,-0.04044737728742611,24.62794859119774,10.891420052450558,4.583305421760252,0.0,0.0,0.0
1,2021-07-06 12:11:15.466034,190362,10.414197708809823,-0.6539543810396958,0.031095568421607066,24.58162139412675,10.96849451137061,4.590877476469632,0.0,0.0,0.0
1,2021-07-06 12:11:15.473883,190370,10.414197708809823,-0.6539543810396958,0.031095568421607066,24.58162139412675,10.96849451137061,4.590877476469632,0.0,0.0,0.0
1,2021-07-06 12:11:15.483474,190380,10.414197708809823,-0.6539543810396958,0.031095568421607066,24.58162139412675,10.96849451137061,4.590877476469632,0.0,0.0,0.0
1,2021-07-06 12:11:15.491671,190388,10.433305267804098,-0.6155436968195197,0.012017449565864797,24.612506192174074,11.007031740830634,4.643881859435298,0.0,0.0,0.0
1,2021-07-06 12:11:15.499732,190396,10.433305267804098,-0.6155436968195197,0.012017449565864797,24.612506192174074,11.007031740830634,4.643881859435298,0.0,0.0,0.0
1,2021-07-06 12:11:15.507481,190404,10.433305267804098,-0.6155436968195197,0.012017449565864797,24.612506192174074,11.007031740830634,4.643881859435298,0.0,0.0,0.0
1,2021-07-06 12:11:15.515863,190412,10.433305267804098,-0.6155436968195197,0.012017449565864797,24.612506192174074,11.007031740830634,4.643881859435298,0.0,0.0,0.0
1,2021-07-06 12:11:15.522945,190419,10.433305267804098,-0.6155436968195197,0.012017449565864797,24.612506192174074,11.007031740830634,4.643881859435298,0.0,0.0,0.0
1,2021-07-06 12:11:15.531956,190428,10.466743496044078,-0.6347490389296078,0.07879086556096207,24.419476204378277,10.92224983601858,4.765034734785392,0.0,0.0,0.0
1,2021-07-06 12:11:15.540530,190437,10.466743496044078,-0.6347490389296078,0.07879086556096207,24.419476204378277,10.92224983601858,4.765034734785392,0.0,0.0,0.0
1,2021-07-06 12:11:15.548642,190445,10.42375148830696,-0.6299477034020858,0.11217757355851116,24.388591406330953,10.82976048531452,4.871043500716723,0.0,0.0,0.0
1,2021-07-06 12:11:15.555831,190452,10.42375148830696,-0.6299477034020858,0.11217757355851116,24.388591406330953,10.82976048531452,4.871043500716723,0.0,0.0,0.0
1,2021-07-06 12:11:15.562815,190459,10.42375148830696,-0.6299477034020858,0.11217757355851116,24.388591406330953,10.82976048531452,4.871043500716723,0.0,0.0,0.0
1,2021-07-06 12:11:15.570181,190467,10.442859047301235,-0.601139690236954,0.11694710327244662,24.334543009748128,10.837467931206522,4.908903774263628,0.0,0.0,0.0
1,2021-07-06 12:11:15.577515,190474,10.442859047301235,-0.601139690236954,0.11694710327244662,24.334543009748128,10.837467931206522,4.908903774263628,0.0,0.0,0.0
1,2021-07-06 12:11:15.584885,190481,10.442859047301235,-0.601139690236954,0.11694710327244662,24.334543009748128,10.837467931206522,4.908903774263628,0.0,0.0,0.0
1,2021-07-06 12:11:15.593594,190490,10.42852837805553,-0.605941025764476,0.1837205192675439,24.295937012188965,10.868297714774544,5.022484594904341,0.0,0.0,0.0
1,2021-07-06 12:11:15.600813,190497,10.42852837805553,-0.605941025764476,0.1837205192675439,24.295937012188965,10.868297714774544,5.022484594904341,0.0,0.0,0.0
1,2021-07-06 12:11:15.608159,190504,10.42375148830696,-0.6203450323470421,0.16464240041180161,24.25733101462981,10.852882822990534,5.075488977870007,0.0,0.0,0.0
1,2021-07-06 12:11:15.615713,190512,10.42375148830696,-0.6203450323470421,0.16464240041180161,24.25733101462981,10.852882822990534,5.075488977870007,0.0,0.0,0.0
1,2021-07-06 12:11:15.623972,190520,10.42375148830696,-0.6203450323470421,0.16464240041180161,24.25733101462981,10.852882822990534,5.075488977870007,0.0,0.0,0.0
1,2021-07-06 12:11:15.631894,190528,10.41897459855839,-0.6299477034020858,0.22187675697902842,24.18011901951149,10.76810091817848,5.196641853220101,0.0,0.0,0.0
1,2021-07-06 12:11:15.640131,190536,10.41897459855839,-0.6299477034020858,0.22187675697902842,24.18011901951149,10.76810091817848,5.196641853220101,0.0,0.0,0.0
1,2021-07-06 12:11:15.648401,190545,10.42852837805553,-0.6539543810396958,0.21233769755115708,24.14151302195233,10.62936689212239,5.226930072057625,0.0,0.0,0.0
1,2021-07-06 12:11:15.656994,190553,10.42852837805553,-0.6539543810396958,0.21233769755115708,24.14151302195233,10.62936689212239,5.226930072057625,0.0,0.0,0.0
1,2021-07-06 12:11:15.665311,190562,10.42852837805553,-0.6539543810396958,0.21233769755115708,24.14151302195233,10.62936689212239,5.226930072057625,0.0,0.0,0.0
1,2021-07-06 12:11:15.673427,190570,10.452412826798373,-0.6299477034020858,0.2552634649765771,24.118349423416834,10.4906328660663,5.310222673860814,0.0,0.0,0.0
1,2021-07-06 12:11:15.682302,190579,10.452412826798373,-0.6299477034020858,0.2552634649765771,24.118349423416834,10.4906328660663,5.310222673860814,0.0,0.0,0.0
1,2021-07-06 12:11:15.689684,190586,10.433305267804098,-0.6587557165672178,0.21233769755115708,23.994810231227525,10.282531826982165,5.446519658629669,0.0,0.0,0.0
1,2021-07-06 12:11:15.696606,190593,10.433305267804098,-0.6587557165672178,0.21233769755115708,23.994810231227525,10.282531826982165,5.446519658629669,0.0,0.0,0.0
1,2021-07-06 12:11:15.703630,190600,10.433305267804098,-0.6587557165672178,0.21233769755115708,23.994810231227525,10.282531826982165,5.446519658629669,0.0,0.0,0.0
1,2021-07-06 12:11:15.711071,190607,10.452412826798373,-0.5915370191819103,0.12648616270031754,23.940761834644707,9.897159532381917,5.499524041595335,0.0,0.0,0.0
1,2021-07-06 12:11:15.718612,190615,10.452412826798373,-0.5915370191819103,0.12648616270031754,23.940761834644707,9.897159532381917,5.499524041595335,0.0,0.0,0.0
1,2021-07-06 12:11:15.726509,190623,10.366428811324136,-0.6395503744571297,0.09309945470276888,23.94848303415653,9.850914857029887,5.552528424561001,0.0,0.0,0.0
1,2021-07-06 12:11:15.733832,190630,10.366428811324136,-0.6395503744571297,0.09309945470276888,23.94848303415653,9.850914857029887,5.552528424561001,0.0,0.0,0.0
1,2021-07-06 12:11:15.742059,190638,10.366428811324136,-0.6395503744571297,0.09309945470276888,23.94848303415653,9.850914857029887,5.552528424561001,0.0,0.0,0.0
1,2021-07-06 12:11:15.749331,190646,10.38553637031841,-0.5915370191819103,0.13602522212818843,23.84810744050272,10.035893558438007,5.6433930810735715,0.0,0.0,0.0
1,2021-07-06 12:11:15.757452,190654,10.38553637031841,-0.5915370191819103,0.13602522212818843,23.84810744050272,10.035893558438007,5.6433930810735715,0.0,0.0,0.0
1,2021-07-06 12:11:15.766323,190663,10.38553637031841,-0.5915370191819103,0.13602522212818843,23.84810744050272,10.035893558438007,5.6433930810735715,0.0,0.0,0.0
1,2021-07-06 12:11:15.774223,190671,10.452412826798373,-0.6299477034020858,0.12171663298638206,23.75545304636074,10.005063774869985,5.726685682876761,0.0,0.0,0.0
1,2021-07-06 12:11:15.781359,190678,10.452412826798373,-0.6299477034020858,0.12171663298638206,23.75545304636074,10.005063774869985,5.726685682876761,0.0,0.0,0.0
1,2021-07-06 12:11:15.788386,190685,10.414197708809823,-0.6107423612919978,0.21233769755115708,23.685962250754255,9.789255289893847,5.923559105320663,0.0,0.0,0.0
1,2021-07-06 12:11:15.795970,190692,10.414197708809823,-0.6107423612919978,0.21233769755115708,23.685962250754255,9.789255289893847,5.923559105320663,0.0,0.0,0.0
1,2021-07-06 12:11:15.802978,190699,10.414197708809823,-0.6107423612919978,0.21233769755115708,23.685962250754255,9.789255289893847,5.923559105320663,0.0,0.0,0.0
1,2021-07-06 12:11:15.809945,190706,10.399867039564116,-0.6395503744571297,0.17895098955360844,23.662798652218758,9.642813817945752,6.021995816542614,0.0,0.0,0.0
1,2021-07-06 12:11:15.817874,190714,10.399867039564116,-0.6395503744571297,0.17895098955360844,23.662798652218758,9.642813817945752,6.021995816542614,0.0,0.0,0.0
1,2021-07-06 12:11:15.826377,190723,10.399867039564116,-0.6395503744571297,0.17895098955360844,23.662798652218758,9.642813817945752,6.021995816542614,0.0,0.0,0.0
1,2021-07-06 12:11:15.834626,190731,10.38553637031841,-0.6347490389296078,0.14079475184212434,23.55470185905311,9.635106372053746,6.181008965439613,0.0,0.0,0.0
1,2021-07-06 12:11:15.842317,190739,10.38553637031841,-0.6347490389296078,0.14079475184212434,23.55470185905311,9.635106372053746,6.181008965439613,0.0,0.0,0.0
1,2021-07-06 12:11:15.849900,190746,10.375982590821273,-0.6155436968195197,0.14079475184212434,23.562423058564942,9.812377627569862,6.234013348405278,0.0,0.0,0.0
1,2021-07-06 12:11:15.858465,190755,10.375982590821273,-0.6155436968195197,0.14079475184212434,23.562423058564942,9.812377627569862,6.234013348405278,0.0,0.0,0.0
1,2021-07-06 12:11:15.867538,190764,10.356875031826998,-0.6155436968195197,0.1455642815560598,23.531538260517614,9.93569676184194,6.3703103331741335,0.0,0.0,0.0
1,2021-07-06 12:11:15.875442,190772,10.356875031826998,-0.6155436968195197,0.1455642815560598,23.531538260517614,9.93569676184194,6.3703103331741335,0.0,0.0,0.0
1,2021-07-06 12:11:15.883067,190779,10.356875031826998,-0.6155436968195197,0.1455642815560598,23.531538260517614,9.93569676184194,6.3703103331741335,0.0,0.0,0.0
1,2021-07-06 12:11:15.890713,190787,10.366428811324136,-0.6155436968195197,0.16464240041180161,23.50837466198212,9.943404207733945,6.4460308802679425,0.0,0.0,0.0
1,2021-07-06 12:11:15.900072,190796,10.366428811324136,-0.6155436968195197,0.16464240041180161,23.50837466198212,9.943404207733945,6.4460308802679425,0.0,0.0,0.0
1,2021-07-06 12:11:15.908787,190805,10.366428811324136,-0.5867356836543879,0.12171663298638206,23.361671871257315,9.93569676184194,6.461174989686705,0.0,0.0,0.0
1,2021-07-06 12:11:15.916298,190813,10.366428811324136,-0.5867356836543879,0.12171663298638206,23.361671871257315,9.93569676184194,6.461174989686705,0.0,0.0,0.0
1,2021-07-06 12:11:15.924326,190821,10.366428811324136,-0.5867356836543879,0.12171663298638206,23.361671871257315,9.93569676184194,6.461174989686705,0.0,0.0,0.0
1,2021-07-06 12:11:15.932485,190829,10.352098142078429,-0.6395503744571297,0.1026385141306398,23.323065873698155,9.912574424165927,6.506607317942989,0.0,0.0,0.0
1,2021-07-06 12:11:15.940026,190836,10.352098142078429,-0.6395503744571297,0.1026385141306398,23.323065873698155,9.912574424165927,6.506607317942989,0.0,0.0,0.0
1,2021-07-06 12:11:15.947149,190843,10.323436803587017,-0.6203450323470421,0.11694710327244662,23.29218107565083,10.01277122076199,6.642904302711845,0.0,0.0,0.0
1,2021-07-06 12:11:15.954147,190850,10.323436803587017,-0.6203450323470421,0.11694710327244662,23.29218107565083,10.01277122076199,6.642904302711845,0.0,0.0,0.0
1,2021-07-06 12:11:15.962513,190859,10.323436803587017,-0.6203450323470421,0.11694710327244662,23.29218107565083,10.01277122076199,6.642904302711845,0.0,0.0,0.0
1,2021-07-06 12:11:15.969636,190866,10.380759480569843,-0.6347490389296078,0.05494321699128435,23.253575078091668,10.220872259846125,6.726196904515034,0.0,0.0,0.0
1,2021-07-06 12:11:15.976504,190873,10.380759480569843,-0.6347490389296078,0.05494321699128435,23.253575078091668,10.220872259846125,6.726196904515034,0.0,0.0,0.0
1,2021-07-06 12:11:15.983539,190880,10.380759480569843,-0.6347490389296078,0.05494321699128435,23.253575078091668,10.220872259846125,6.726196904515034,0.0,0.0,0.0
1,2021-07-06 12:11:15.990667,190887,10.395090149815548,-0.605941025764476,0.07402133584702662,23.18408428248518,10.259409489306151,6.809489506318223,0.0,0.0,0.0
1,2021-07-06 12:11:15.998426,190895,10.395090149815548,-0.605941025764476,0.07402133584702662,23.18408428248518,10.259409489306151,6.809489506318223,0.0,0.0,0.0
1,2021-07-06 12:11:16.006477,190903,10.395090149815548,-0.605941025764476,0.07402133584702662,23.18408428248518,10.259409489306151,6.809489506318223,0.0,0.0,0.0
1,2021-07-06 12:11:16.014320,190911,10.395090149815548,-0.605941025764476,0.07402133584702662,23.18408428248518,10.259409489306151,6.809489506318223,0.0,0.0,0.0
1,2021-07-06 12:11:16.021511,190918,10.395090149815548,-0.605941025764476,0.07402133584702662,23.18408428248518,10.259409489306151,6.809489506318223,0.0,0.0,0.0
1,2021-07-06 12:11:16.028967,190925,10.337767472832724,-0.6347490389296078,0.1455642815560598,22.95244829713023,10.082138233790035,6.938214436377698,0.0,0.0,0.0
1,2021-07-06 12:11:16.036447,190933,10.337767472832724,-0.6347490389296078,0.1455642815560598,22.95244829713023,10.082138233790035,6.938214436377698,0.0,0.0,0.0
1,2021-07-06 12:11:16.044083,190940,10.337767472832724,-0.6347490389296078,0.1455642815560598,22.95244829713023,10.082138233790035,6.938214436377698,0.0,0.0,0.0
1,2021-07-06 12:11:16.052707,190949,10.356875031826998,-0.605941025764476,0.15510334098393072,22.96789069615389,10.01277122076199,7.006362928762126,0.0,0.0,0.0
1,2021-07-06 12:11:16.059909,190956,10.356875031826998,-0.605941025764476,0.15510334098393072,22.96789069615389,10.01277122076199,7.006362928762126,0.0,0.0,0.0
1,2021-07-06 12:11:16.069465,190966,10.361651921575568,-0.6395503744571297,0.08356039527489798,22.852072703476413,9.889452086489912,7.089655530565315,0.0,0.0,0.0
1,2021-07-06 12:11:16.076400,190973,10.361651921575568,-0.6395503744571297,0.08356039527489798,22.852072703476413,9.889452086489912,7.089655530565315,0.0,0.0,0.0
1,2021-07-06 12:11:16.083736,190980,10.361651921575568,-0.6395503744571297,0.08356039527489798,22.852072703476413,9.889452086489912,7.089655530565315,0.0,0.0,0.0
1,2021-07-06 12:11:16.091830,190988,10.347321252329861,-0.6203450323470421,0.05494321699128435,22.75941830933443,9.73530316864981,7.097227585274696,0.0,0.0,0.0
1,2021-07-06 12:11:16.100311,190997,10.347321252329861,-0.6203450323470421,0.05494321699128435,22.75941830933443,9.73530316864981,7.097227585274696,0.0,0.0,0.0
1,2021-07-06 12:11:16.107842,191004,10.347321252329861,-0.6443517099846521,0.12171663298638206,22.62815791763329,9.696765939189786,7.1729481323685045,0.0,0.0,0.0
1,2021-07-06 12:11:16.116548,191013,10.347321252329861,-0.6443517099846521,0.12171663298638206,22.62815791763329,9.696765939189786,7.1729481323685045,0.0,0.0,0.0
1,2021-07-06 12:11:16.124026,191020,10.347321252329861,-0.6443517099846521,0.12171663298638206,22.62815791763329,9.696765939189786,7.1729481323685045,0.0,0.0,0.0
1,2021-07-06 12:11:16.131840,191028,10.347321252329861,-0.6491530455121739,0.13125569241425297,22.54322472300314,9.53490957545768,7.278956898299836,0.0,0.0,0.0
1,2021-07-06 12:11:16.139352,191036,10.347321252329861,-0.6491530455121739,0.13125569241425297,22.54322472300314,9.53490957545768,7.278956898299836,0.0,0.0,0.0
1,2021-07-06 12:11:16.148266,191045,10.371205701072704,-0.6827623942048276,0.13125569241425297,22.54322472300314,9.519494683673672,7.354677445393646,0.0,0.0,0.0
1,2021-07-06 12:11:16.157109,191053,10.371205701072704,-0.6827623942048276,0.13125569241425297,22.54322472300314,9.519494683673672,7.354677445393646,0.0,0.0,0.0
1,2021-07-06 12:11:16.164587,191061,10.371205701072704,-0.6827623942048276,0.13125569241425297,22.54322472300314,9.519494683673672,7.354677445393646,0.0,0.0,0.0
1,2021-07-06 12:11:16.171149,191067,10.371205701072704,-0.601139690236954,0.08832992498883344,22.411964331301995,9.427005332969612,7.445542101906216,0.0,0.0,0.0
1,2021-07-06 12:11:16.178438,191075,10.371205701072704,-0.601139690236954,0.08832992498883344,22.411964331301995,9.427005332969612,7.445542101906216,0.0,0.0,0.0
1,2021-07-06 12:11:16.185355,191082,10.371205701072704,-0.601139690236954,0.08832992498883344,22.411964331301995,9.427005332969612,7.445542101906216,0.0,0.0,0.0
1,2021-07-06 12:11:16.193063,191089,10.352098142078429,-0.6203450323470421,0.11694710327244662,22.334752336183676,9.234319185669488,7.589411141384452,0.0,0.0,0.0
1,2021-07-06 12:11:16.200288,191097,10.352098142078429,-0.6203450323470421,0.11694710327244662,22.334752336183676,9.234319185669488,7.589411141384452,0.0,0.0,0.0
1,2021-07-06 12:11:16.209202,191106,10.342544362581293,-0.6443517099846521,0.2600329946905125,22.242097942041696,9.080170267829388,7.642415524350117,0.0,0.0,0.0
1,2021-07-06 12:11:16.217183,191114,10.342544362581293,-0.6443517099846521,0.2600329946905125,22.242097942041696,9.080170267829388,7.642415524350117,0.0,0.0,0.0
1,2021-07-06 12:11:16.226443,191123,10.342544362581293,-0.6443517099846521,0.2600329946905125,22.242097942041696,9.080170267829388,7.642415524350117,0.0,0.0,0.0
1,2021-07-06 12:11:16.234324,191131,10.294775465095606,-0.6395503744571297,0.15033381126999526,22.17260714643521,8.84894689106924,7.649987579059498,0.0,0.0,0.0
1,2021-07-06 12:11:16.241976,191138,10.294775465095606,-0.6395503744571297,0.15033381126999526,22.17260714643521,8.84894689106924,7.649987579059498,0.0,0.0,0.0
1,2021-07-06 12:11:16.249452,191146,10.304329244592742,-0.6779610586773058,0.15033381126999526,22.049067954245903,8.69479797322914,7.627271414931356,0.0,0.0,0.0
1,2021-07-06 12:11:16.258038,191154,10.304329244592742,-0.6779610586773058,0.15033381126999526,22.049067954245903,8.69479797322914,7.627271414931356,0.0,0.0,0.0
1,2021-07-06 12:11:16.265761,191162,10.304329244592742,-0.6779610586773058,0.15033381126999526,22.049067954245903,8.69479797322914,7.627271414931356,0.0,0.0,0.0
1,2021-07-06 12:11:16.274421,191171,10.313883024089881,-0.6203450323470421,0.16464240041180161,22.033625555222233,8.594601176633073,7.687847852606403,0.0,0.0,0.0
1,2021-07-06 12:11:16.284238,191181,10.313883024089881,-0.6203450323470421,0.16464240041180161,22.033625555222233,8.594601176633073,7.687847852606403,0.0,0.0,0.0
1,2021-07-06 12:11:16.291212,191188,10.294775465095606,-0.6587557165672178,0.21233769755115708,21.910086363032924,8.455867150576983,7.702991962025165,0.0,0.0,0.0
1,2021-07-06 12:11:16.300745,191197,10.294775465095606,-0.6587557165672178,0.21233769755115708,21.910086363032924,8.455867150576983,7.702991962025165,0.0,0.0,0.0
1,2021-07-06 12:11:16.308147,191204,10.280444795849899,-0.6203450323470421,0.20279863812328616,21.83287436791461,8.394207583440945,7.725708126153307,0.0,0.0,0.0
1,2021-07-06 12:11:16.316139,191212,10.280444795849899,-0.6203450323470421,0.20279863812328616,21.83287436791461,8.394207583440945,7.725708126153307,0.0,0.0,0.0
1,2021-07-06 12:11:16.324072,191220,10.280444795849899,-0.6203450323470421,0.20279863812328616,21.83287436791461,8.394207583440945,7.725708126153307,0.0,0.0,0.0
1,2021-07-06 12:11:16.331905,191228,10.27566790610133,-0.6443517099846521,0.16941193012573752,21.740219973772625,8.286303340952875,7.725708126153307,0.0,0.0,0.0
1,2021-07-06 12:11:16.338997,191235,10.27566790610133,-0.6443517099846521,0.16941193012573752,21.740219973772625,8.286303340952875,7.725708126153307,0.0,0.0,0.0
1,2021-07-06 12:11:16.346672,191243,10.251783457358485,-0.6155436968195197,0.09786898441670434,21.678450377677976,8.355670353980921,7.778712509118973,0.0,0.0,0.0
1,2021-07-06 12:11:16.353602,191250,10.251783457358485,-0.6155436968195197,0.09786898441670434,21.678450377677976,8.355670353980921,7.778712509118973,0.0,0.0,0.0
1,2021-07-06 12:11:16.361067,191257,10.251783457358485,-0.6155436968195197,0.09786898441670434,21.678450377677976,8.355670353980921,7.778712509118973,0.0,0.0,0.0
1,2021-07-06 12:11:16.368721,191265,10.256560347107055,-0.6731597231497839,0.17418145983967298,21.616680781583316,8.425037367008965,7.809000727956496,0.0,0.0,0.0
1,2021-07-06 12:11:16.377978,191274,10.256560347107055,-0.6731597231497839,0.17418145983967298,21.616680781583316,8.425037367008965,7.809000727956496,0.0,0.0,0.0
1,2021-07-06 12:11:16.386253,191283,10.256560347107055,-0.6731597231497839,0.17418145983967298,21.616680781583316,8.425037367008965,7.809000727956496,0.0,0.0,0.0
1,2021-07-06 12:11:16.394760,191291,10.23745278811278,-0.6203450323470421,0.23141581640689934,21.531747586953166,8.517526717713023,7.816572782665878,0.0,0.0,0.0
1,2021-07-06 12:11:16.402797,191299,10.23745278811278,-0.6203450323470421,0.23141581640689934,21.531747586953166,8.517526717713023,7.816572782665878,0.0,0.0,0.0
1,2021-07-06 12:11:16.410335,191307,10.251783457358485,-0.6635570520947396,0.18849004898147934,21.493141589394007,8.594601176633073,7.786284563828354,0.0,0.0,0.0
1,2021-07-06 12:11:16.418254,191315,10.251783457358485,-0.6635570520947396,0.18849004898147934,21.493141589394007,8.594601176633073,7.786284563828354,0.0,0.0,0.0
1,2021-07-06 12:11:16.425999,191322,10.251783457358485,-0.6635570520947396,0.18849004898147934,21.493141589394007,8.594601176633073,7.786284563828354,0.0,0.0,0.0
