imu,server_time,arduino_time,ax,ay,az,gx,gy,gz,mx,my,mz
1,2021-07-02 11:01:01.134,6781134,-0.18094375351562436,-10.304638791358874,-0.02136925843168384,9.965390718229058,-20.20041667589753,-7.842436356333736,411.0,43.0,-179.0
1,2021-07-02 11:01:01.140,6781140,-0.18094375351562436,-10.333446804524005,0.06925180613309116,10.01171791530005,-20.238953905357555,-7.774287863949308,411.0,43.0,-179.0
1,2021-07-02 11:01:01.147,6781147,-0.18094375351562436,-10.333446804524005,0.06925180613309116,10.01171791530005,-20.238953905357555,-7.774287863949308,411.0,43.0,-179.0
1,2021-07-02 11:01:01.154,6781154,-0.18094375351562436,-10.333446804524005,0.06925180613309116,10.01171791530005,-20.238953905357555,-7.774287863949308,411.0,43.0,-179.0
1,2021-07-02 11:01:01.162,6781162,-0.20960509200703675,-10.319042797941439,0.05971274670522025,10.050323912859207,-20.339150701953617,-7.713711426274261,411.0,43.0,-179.0
1,2021-07-02 11:01:01.167,6781167,-0.20960509200703675,-10.319042797941439,0.05971274670522025,10.050323912859207,-20.339150701953617,-7.713711426274261,411.0,43.0,-179.0
1,2021-07-02 11:01:01.176,6781176,-0.20960509200703675,-10.319042797941439,0.05971274670522025,10.050323912859207,-20.339150701953617,-7.713711426274261,411.0,43.0,-179.0
1,2021-07-02 11:01:01.185,6781185,-0.18572064326419324,-10.343049475579049,0.07402133584702662,10.073487511394704,-20.38539537730565,-7.60770266034293,411.0,43.0,-179.0
1,2021-07-02 11:01:01.192,6781192,-0.18572064326419324,-10.343049475579049,0.07402133584702662,10.073487511394704,-20.38539537730565,-7.60770266034293,411.0,43.0,-179.0
1,2021-07-02 11:01:01.199,6781199,-0.21438198175560563,-10.328645468996484,0.12171663298638206,9.926784720669898,-20.48559217390171,-7.51683800383036,411.0,45.0,-175.0
1,2021-07-02 11:01:01.205,6781205,-0.21438198175560563,-10.328645468996484,0.12171663298638206,9.926784720669898,-20.48559217390171,-7.51683800383036,411.0,45.0,-175.0
1,2021-07-02 11:01:01.212,6781212,-0.21438198175560563,-10.328645468996484,0.12171663298638206,9.926784720669898,-20.48559217390171,-7.51683800383036,411.0,45.0,-175.0
1,2021-07-02 11:01:01.217,6781217,-0.21438198175560563,-10.328645468996484,0.12171663298638206,9.926784720669898,-20.48559217390171,-7.51683800383036,411.0,45.0,-175.0
1,2021-07-02 11:01:01.225,6781225,-0.2621508792412928,-10.343049475579049,0.14079475184212434,9.741475932385933,-20.60891130817379,-7.539554167958502,411.0,45.0,-175.0
1,2021-07-02 11:01:01.233,6781233,-0.2621508792412928,-10.343049475579049,0.14079475184212434,9.741475932385933,-20.60891130817379,-7.539554167958502,411.0,45.0,-175.0
1,2021-07-02 11:01:01.242,6781242,-0.2812584382355679,-10.32384413346896,0.16464240041180161,9.540724745078306,-20.755352780121886,-7.653134988599215,411.0,45.0,-175.0
1,2021-07-02 11:01:01.249,6781249,-0.2812584382355679,-10.32384413346896,0.16464240041180161,9.540724745078306,-20.755352780121886,-7.653134988599215,411.0,45.0,-175.0
1,2021-07-02 11:01:01.254,6781254,-0.2812584382355679,-10.32384413346896,0.16464240041180161,9.540724745078306,-20.755352780121886,-7.653134988599215,411.0,45.0,-175.0
1,2021-07-02 11:01:01.261,6781261,-0.24782020999558665,-10.328645468996484,0.09309945470276888,9.509839947030978,-20.832427239041937,-7.781859918658689,411.0,45.0,-175.0
1,2021-07-02 11:01:01.267,6781267,-0.24782020999558665,-10.328645468996484,0.09309945470276888,9.509839947030978,-20.832427239041937,-7.781859918658689,411.0,45.0,-175.0
1,2021-07-02 11:01:01.276,6781276,-0.24782020999558665,-10.328645468996484,0.09309945470276888,9.509839947030978,-20.832427239041937,-7.781859918658689,411.0,45.0,-175.0
1,2021-07-02 11:01:01.284,6781284,-0.2621508792412928,-10.343049475579049,-0.007060669289877471,9.525282346054642,-20.863257022609957,-8.016593614649496,411.0,45.0,-175.0
1,2021-07-02 11:01:01.291,6781291,-0.2621508792412928,-10.343049475579049,-0.007060669289877471,9.525282346054642,-20.863257022609957,-8.016593614649496,411.0,45.0,-175.0
1,2021-07-02 11:01:01.299,6781299,-0.243043320247018,-10.352652146634094,0.13125569241425297,9.417185552888997,-20.870964468501963,-8.213467037093398,411.0,45.0,-175.0
1,2021-07-02 11:01:01.304,6781304,-0.243043320247018,-10.352652146634094,0.13125569241425297,9.417185552888997,-20.870964468501963,-8.213467037093398,411.0,45.0,-175.0
1,2021-07-02 11:01:01.309,6781309,-0.243043320247018,-10.352652146634094,0.13125569241425297,9.417185552888997,-20.870964468501963,-8.213467037093398,411.0,45.0,-175.0
1,2021-07-02 11:01:01.315,6781315,-0.243043320247018,-10.352652146634094,0.13125569241425297,9.417185552888997,-20.870964468501963,-8.213467037093398,411.0,45.0,-175.0
1,2021-07-02 11:01:01.320,6781320,-0.37679623320694255,-10.261426771611175,0.15510334098393072,9.27048276216419,-20.94803892742201,-8.402768404827919,394.0,42.0,-172.0
1,2021-07-02 11:01:01.325,6781325,-0.37679623320694255,-10.261426771611175,0.15510334098393072,9.27048276216419,-20.94803892742201,-8.402768404827919,394.0,42.0,-172.0
1,2021-07-02 11:01:01.330,6781330,-0.37679623320694255,-10.261426771611175,0.15510334098393072,9.27048276216419,-20.94803892742201,-8.402768404827919,394.0,42.0,-172.0
1,2021-07-02 11:01:01.335,6781335,-0.37679623320694255,-10.261426771611175,0.15510334098393072,9.27048276216419,-20.94803892742201,-8.402768404827919,394.0,42.0,-172.0
1,2021-07-02 11:01:01.342,6781342,-0.32425044597268643,-10.314241462413916,0.08356039527489798,9.17782836802221,-20.955746373314017,-8.819231413843868,394.0,42.0,-172.0
1,2021-07-02 11:01:01.349,6781349,-0.32425044597268643,-10.314241462413916,0.08356039527489798,9.17782836802221,-20.955746373314017,-8.819231413843868,394.0,42.0,-172.0
1,2021-07-02 11:01:01.355,6781355,-0.32425044597268643,-10.314241462413916,0.08356039527489798,9.17782836802221,-20.955746373314017,-8.819231413843868,394.0,42.0,-172.0
1,2021-07-02 11:01:01.361,6781361,-0.21438198175560563,-10.32384413346896,0.012017449565864797,9.13922237046305,-20.986576156882037,-9.152401821056625,394.0,42.0,-172.0
1,2021-07-02 11:01:01.368,6781368,-0.21438198175560563,-10.32384413346896,0.012017449565864797,9.13922237046305,-20.986576156882037,-9.152401821056625,394.0,42.0,-172.0
1,2021-07-02 11:01:01.375,6781375,-0.21438198175560563,-10.32384413346896,0.012017449565864797,9.13922237046305,-20.986576156882037,-9.152401821056625,394.0,42.0,-172.0
1,2021-07-02 11:01:01.382,6781382,-0.25737398949272416,-10.362254817689136,-0.04044737728742611,9.324531158747014,-21.10218784526211,-9.273554696406718,394.0,42.0,-172.0
1,2021-07-02 11:01:01.389,6781389,-0.25737398949272416,-10.362254817689136,-0.04044737728742611,9.324531158747014,-21.10218784526211,-9.273554696406718,394.0,42.0,-172.0
1,2021-07-02 11:01:01.395,6781395,-0.25737398949272416,-10.362254817689136,-0.04044737728742611,9.324531158747014,-21.10218784526211,-9.273554696406718,394.0,42.0,-172.0
1,2021-07-02 11:01:01.404,6781404,-0.2669277689898617,-10.37185748874418,0.08832992498883344,9.509839947030978,-21.11760273704612,-9.311414969953622,394.0,42.0,-172.0
1,2021-07-02 11:01:01.411,6781411,-0.2669277689898617,-10.37185748874418,0.08832992498883344,9.509839947030978,-21.11760273704612,-9.311414969953622,394.0,42.0,-172.0
1,2021-07-02 11:01:01.418,6781418,-0.2669277689898617,-10.381460159799223,0.04063462784947798,9.486676348495482,-21.19467719596617,-9.447711954722479,394.0,42.0,-172.0
1,2021-07-02 11:01:01.425,6781425,-0.2669277689898617,-10.381460159799223,0.04063462784947798,9.486676348495482,-21.19467719596617,-9.447711954722479,394.0,42.0,-172.0
1,2021-07-02 11:01:01.432,6781432,-0.2669277689898617,-10.381460159799223,0.04063462784947798,9.486676348495482,-21.19467719596617,-9.447711954722479,394.0,42.0,-172.0
1,2021-07-02 11:01:01.437,6781437,-0.2525970997441555,-10.309440126886395,0.026326038707671168,9.533003545566473,-21.248629317210206,-9.667301541294524,392.0,40.0,-172.0
1,2021-07-02 11:01:01.445,6781445,-0.2525970997441555,-10.309440126886395,0.026326038707671168,9.533003545566473,-21.248629317210206,-9.667301541294524,392.0,40.0,-168.0
1,2021-07-02 11:01:01.452,6781452,-0.2525970997441555,-10.309440126886395,0.026326038707671168,9.533003545566473,-21.248629317210206,-9.667301541294524,392.0,40.0,-168.0
1,2021-07-02 11:01:01.459,6781459,-0.2525970997441555,-10.34785081110657,-0.0022911395759420143,9.741475932385933,-21.287166546670232,-9.864174963738424,392.0,40.0,-168.0
1,2021-07-02 11:01:01.468,6781468,-0.2525970997441555,-10.34785081110657,-0.0022911395759420143,9.741475932385933,-21.287166546670232,-9.864174963738424,392.0,40.0,-168.0
1,2021-07-02 11:01:01.475,6781475,-0.2525970997441555,-10.34785081110657,-0.0022911395759420143,9.741475932385933,-21.287166546670232,-9.864174963738424,392.0,40.0,-168.0
1,2021-07-02 11:01:01.483,6781483,-0.20005131250989944,-10.357453482161615,0.04063462784947798,10.01943911481188,-21.317996330238252,-9.879319073157188,392.0,40.0,-168.0
1,2021-07-02 11:01:01.490,6781490,-0.20005131250989944,-10.357453482161615,0.04063462784947798,10.01943911481188,-21.317996330238252,-9.879319073157188,392.0,40.0,-168.0
1,2021-07-02 11:01:01.495,6781495,-0.20005131250989944,-10.357453482161615,0.04063462784947798,10.01943911481188,-21.317996330238252,-9.879319073157188,392.0,40.0,-168.0
1,2021-07-02 11:01:01.500,6781500,-0.19527442276133056,-10.39586416638179,-0.011830199003812927,10.281959898214163,-21.44131546451033,-9.894463182575949,392.0,40.0,-168.0
1,2021-07-02 11:01:01.507,6781507,-0.19527442276133056,-10.39586416638179,-0.011830199003812927,10.281959898214163,-21.44131546451033,-9.894463182575949,392.0,40.0,-168.0
1,2021-07-02 11:01:01.513,6781513,-0.19527442276133056,-10.39586416638179,-0.011830199003812927,10.281959898214163,-21.44131546451033,-9.894463182575949,392.0,40.0,-168.0
1,2021-07-02 11:01:01.520,6781520,-0.20960509200703675,-10.386261495326746,-0.0022911395759420143,10.444105087962631,-21.526097369322386,-9.833886744900902,392.0,40.0,-168.0
1,2021-07-02 11:01:01.528,6781528,-0.20960509200703675,-10.386261495326746,-0.0022911395759420143,10.444105087962631,-21.526097369322386,-9.833886744900902,392.0,40.0,-168.0
1,2021-07-02 11:01:01.535,6781535,-0.20960509200703675,-10.386261495326746,-0.0022911395759420143,10.444105087962631,-21.526097369322386,-9.833886744900902,392.0,40.0,-168.0
1,2021-07-02 11:01:01.543,6781543,-0.20005131250989944,-10.376658824271704,-0.016599728717748383,10.637135075758428,-21.595464382350432,-9.849030854319665,392.0,40.0,-168.0
1,2021-07-02 11:01:01.549,6781549,-0.20005131250989944,-10.376658824271704,-0.016599728717748383,10.637135075758428,-21.595464382350432,-9.849030854319665,392.0,40.0,-168.0
1,2021-07-02 11:01:01.555,6781555,-0.20005131250989944,-10.376658824271704,-0.016599728717748383,10.637135075758428,-21.595464382350432,-9.849030854319665,392.0,40.0,-168.0
1,2021-07-02 11:01:01.561,6781561,-0.21438198175560563,-10.381460159799223,0.0024783901379938846,10.652577474782092,-21.657123949486472,-9.871747018447806,392.0,40.0,-168.0
1,2021-07-02 11:01:01.569,6781569,-0.21438198175560563,-10.381460159799223,0.0024783901379938846,10.652577474782092,-21.657123949486472,-9.871747018447806,392.0,40.0,-168.0
1,2021-07-02 11:01:01.578,6781578,-0.21438198175560563,-10.381460159799223,0.0024783901379938846,10.652577474782092,-21.657123949486472,-9.871747018447806,392.0,40.0,-168.0
1,2021-07-02 11:01:01.584,6781584,-0.19527442276133056,-10.39586416638179,0.07879086556096207,10.598529078199268,-21.711076070730503,-9.955039620250997,388.0,44.0,-170.0
1,2021-07-02 11:01:01.589,6781589,-0.19527442276133056,-10.39586416638179,0.07879086556096207,10.598529078199268,-21.711076070730503,-9.955039620250997,388.0,44.0,-170.0
1,2021-07-02 11:01:01.596,6781596,-0.19527442276133056,-10.39586416638179,0.07879086556096207,10.598529078199268,-21.711076070730503,-9.955039620250997,388.0,44.0,-170.0
1,2021-07-02 11:01:01.604,6781604,-0.16183619452134954,-10.381460159799223,-0.05475596642923292,10.652577474782092,-21.81127286732657,-10.015616057926044,388.0,44.0,-170.0
1,2021-07-02 11:01:01.612,6781612,-0.16183619452134954,-10.381460159799223,-0.05475596642923292,10.652577474782092,-21.81127286732657,-10.015616057926044,388.0,44.0,-170.0
1,2021-07-02 11:01:01.617,6781617,-0.16183619452134954,-10.381460159799223,-0.05475596642923292,10.652577474782092,-21.81127286732657,-10.015616057926044,388.0,44.0,-170.0
1,2021-07-02 11:01:01.622,6781622,-0.1379517457785058,-10.362254817689136,-0.030908317859555196,10.830165063554224,-21.849810096786594,-10.038332222054185,388.0,44.0,-170.0
1,2021-07-02 11:01:01.627,6781627,-0.1379517457785058,-10.362254817689136,-0.030908317859555196,10.830165063554224,-21.849810096786594,-10.038332222054185,388.0,44.0,-170.0
1,2021-07-02 11:01:01.632,6781632,-0.1379517457785058,-10.362254817689136,-0.030908317859555196,10.830165063554224,-21.849810096786594,-10.038332222054185,388.0,44.0,-170.0
1,2021-07-02 11:01:01.637,6781637,-0.1379517457785058,-10.362254817689136,-0.030908317859555196,10.830165063554224,-21.849810096786594,-10.038332222054185,388.0,44.0,-170.0
1,2021-07-02 11:01:01.642,6781642,-0.13317485602993714,-10.4198708440194,-0.049986436715297025,11.139013044027498,-21.87293243446261,-10.023188112635422,388.0,44.0,-170.0
1,2021-07-02 11:01:01.649,6781649,-0.13317485602993714,-10.4198708440194,-0.049986436715297025,11.139013044027498,-21.87293243446261,-10.023188112635422,388.0,44.0,-170.0
1,2021-07-02 11:01:01.657,6781657,-0.13317485602993714,-10.4198708440194,-0.049986436715297025,11.139013044027498,-21.87293243446261,-10.023188112635422,388.0,44.0,-170.0
1,2021-07-02 11:01:01.663,6781663,-0.09495973804138726,-10.453480192712053,-0.016599728717748383,11.200782640122153,-21.942299447490655,-10.00047194850728,388.0,44.0,-170.0
1,2021-07-02 11:01:01.671,6781671,-0.09495973804138726,-10.453480192712053,-0.016599728717748383,11.200782640122153,-21.942299447490655,-10.00047194850728,388.0,44.0,-170.0
1,2021-07-02 11:01:01.677,6781677,-0.09495973804138726,-10.453480192712053,-0.016599728717748383,11.200782640122153,-21.942299447490655,-10.00047194850728,388.0,44.0,-170.0
1,2021-07-02 11:01:01.684,6781684,-0.04719084055570004,-10.511096219042319,0.1026385141306398,11.231667438169481,-22.073326027654737,-9.765738252516474,388.0,44.0,-170.0
1,2021-07-02 11:01:01.689,6781689,-0.04719084055570004,-10.511096219042319,0.1026385141306398,11.231667438169481,-22.073326027654737,-9.765738252516474,388.0,44.0,-170.0
1,2021-07-02 11:01:01.698,6781698,-0.04719084055570004,-10.511096219042319,0.1026385141306398,11.231667438169481,-22.073326027654737,-9.765738252516474,388.0,44.0,-170.0
1,2021-07-02 11:01:01.705,6781705,-0.05674462005283735,-10.501493547987273,-0.030908317859555196,11.254831036704976,-22.1658153783588,-9.326559079372386,392.0,50.0,-170.0
1,2021-07-02 11:01:01.712,6781712,-0.05674462005283735,-10.501493547987273,-0.030908317859555196,11.254831036704976,-22.1658153783588,-9.326559079372386,392.0,50.0,-170.0
1,2021-07-02 11:01:01.721,6781721,-0.11884418678423098,-10.4198708440194,-0.011830199003812927,11.216225039145817,-22.296841958522883,-8.9252401797752,392.0,50.0,-170.0
1,2021-07-02 11:01:01.727,6781727,-0.11884418678423098,-10.4198708440194,-0.011830199003812927,11.216225039145817,-22.296841958522883,-8.9252401797752,392.0,50.0,-170.0
1,2021-07-02 11:01:01.733,6781733,-0.11884418678423098,-10.4198708440194,-0.011830199003812927,11.216225039145817,-22.296841958522883,-8.9252401797752,392.0,50.0,-170.0
1,2021-07-02 11:01:01.740,6781740,-0.09495973804138726,-10.429473515074443,0.08356039527489798,11.277994635240471,-22.412453646902957,-8.728366757331298,392.0,50.0,-170.0
1,2021-07-02 11:01:01.747,6781747,-0.09495973804138726,-10.429473515074443,0.08356039527489798,11.277994635240471,-22.412453646902957,-8.728366757331298,392.0,50.0,-170.0
1,2021-07-02 11:01:01.754,6781754,-0.09495973804138726,-10.429473515074443,0.08356039527489798,11.277994635240471,-22.412453646902957,-8.728366757331298,392.0,50.0,-170.0
1,2021-07-02 11:01:01.761,6781761,-0.0901828482928186,-10.439076186129489,0.026326038707671168,11.332043031823295,-22.389331309226943,-8.720794702621916,392.0,50.0,-170.0
1,2021-07-02 11:01:01.768,6781768,-0.0901828482928186,-10.439076186129489,0.026326038707671168,11.332043031823295,-22.389331309226943,-8.720794702621916,392.0,50.0,-170.0
1,2021-07-02 11:01:01.774,6781774,-0.0901828482928186,-10.439076186129489,0.026326038707671168,11.332043031823295,-22.389331309226943,-8.720794702621916,392.0,50.0,-170.0
1,2021-07-02 11:01:01.782,6781782,-0.04719084055570004,-10.477486870349663,0.016786979279800253,11.440139824988941,-22.48952810582301,-8.682934429075011,392.0,50.0,-170.0
1,2021-07-02 11:01:01.788,6781788,-0.04719084055570004,-10.477486870349663,0.016786979279800253,11.440139824988941,-22.48952810582301,-8.682934429075011,392.0,50.0,-170.0
1,2021-07-02 11:01:01.795,6781795,-0.04719084055570004,-10.477486870349663,0.016786979279800253,11.440139824988941,-22.48952810582301,-8.682934429075011,392.0,50.0,-170.0
1,2021-07-02 11:01:01.807,6781807,0.01013183642712493,-10.51589755456984,-0.11199032299645928,11.44786102450077,-22.56660256474306,-8.417912514246682,392.0,50.0,-170.0
1,2021-07-02 11:01:01.821,6781821,-0.018529502064287665,-10.51589755456984,-0.07383408528497475,11.463303423524437,-22.6282621318791,-8.024165669358876,380.0,40.0,-164.0
1,2021-07-02 11:01:01.835,6781835,-0.018529502064287665,-10.51589755456984,-0.07383408528497475,11.463303423524437,-22.6282621318791,-8.024165669358876,380.0,40.0,-164.0
1,2021-07-02 11:01:01.850,6781850,-0.04241395080713116,-10.477486870349663,-0.13106844185220112,11.362927829870621,-22.74387382025917,-7.622846769761692,380.0,40.0,-164.0
1,2021-07-02 11:01:01.862,6781862,-0.06629839954997488,-10.429473515074443,-0.15014656070794338,11.378370228894287,-22.813240833287217,-7.312392526677076,380.0,40.0,-164.0
1,2021-07-02 11:01:01.873,6781873,-0.06629839954997488,-10.429473515074443,-0.15014656070794338,11.378370228894287,-22.813240833287217,-7.312392526677076,380.0,40.0,-164.0
1,2021-07-02 11:01:01.885,6781885,-0.06152150980140622,-10.429473515074443,-0.2646152738423961,11.494188221571763,-22.851778062747243,-7.1533793777800785,380.0,40.0,-164.0
1,2021-07-02 11:01:01.896,6781896,-0.06152150980140622,-10.429473515074443,-0.2646152738423961,11.494188221571763,-22.851778062747243,-7.1533793777800785,380.0,40.0,-164.0
1,2021-07-02 11:01:01.908,6781908,0.014908726175693584,-10.458281528239576,-0.29800198183994475,11.633169812784738,-22.851778062747243,-6.956505955336176,380.0,40.0,-164.0
1,2021-07-02 11:01:01.922,6781922,0.024462505672831116,-10.51589755456984,-0.2646152738423961,11.702660608391223,-22.913437629883283,-6.714200204635988,380.0,40.0,-164.0
1,2021-07-02 11:01:01.934,6781934,0.024462505672831116,-10.51589755456984,-0.2646152738423961,11.702660608391223,-22.913437629883283,-6.714200204635988,380.0,40.0,-164.0
1,2021-07-02 11:01:01.947,6781947,0.05790073391281214,-10.51589755456984,-0.2598457441284607,11.664054610832064,-23.00592698058734,-6.4264621256795165,384.0,44.0,-160.0
1,2021-07-02 11:01:01.962,6781962,-0.02330639181285632,-10.482288205877186,-0.33615821955142927,11.664054610832064,-23.106123777183406,-6.116007882594901,384.0,44.0,-160.0
1,2021-07-02 11:01:01.973,6781973,-0.02330639181285632,-10.482288205877186,-0.33615821955142927,11.664054610832064,-23.106123777183406,-6.116007882594901,384.0,44.0,-160.0
1,2021-07-02 11:01:01.986,6781986,-0.03763706105856251,-10.463082863767099,-0.45539646239981746,11.6486122118084,-23.167783344319446,-5.850985967766571,384.0,44.0,-160.0
1,2021-07-02 11:01:01.999,6781999,-0.04241395080713116,-10.400665501909314,-0.39339257611865563,11.748987805462214,-23.19090568199546,-5.676828709450811,384.0,44.0,-160.0
1,2021-07-02 11:01:02.012,6782012,-0.04241395080713116,-10.400665501909314,-0.39339257611865563,11.748987805462214,-23.19090568199546,-5.676828709450811,384.0,44.0,-160.0
1,2021-07-02 11:01:02.025,6782025,-0.08062906879568106,-10.424672179546924,-0.3647753978350425,11.872526997651525,-23.20632057377947,-5.616252271775765,384.0,44.0,-160.0
1,2021-07-02 11:01:02.039,6782039,-0.04241395080713116,-10.434274850601966,-0.48878317039736613,11.972902591305338,-23.2525652491315,-5.57081994351948,384.0,44.0,-160.0
1,2021-07-02 11:01:02.051,6782051,-0.04241395080713116,-10.434274850601966,-0.48878317039736613,11.972902591305338,-23.2525652491315,-5.57081994351948,384.0,44.0,-160.0
1,2021-07-02 11:01:02.059,6782059,-0.04241395080713116,-10.453480192712053,-0.44585740297194654,11.972902591305338,-23.2525652491315,-5.616252271775765,384.0,44.0,-160.0
1,2021-07-02 11:01:02.071,6782071,-0.04241395080713116,-10.453480192712053,-0.44585740297194654,11.972902591305338,-23.2525652491315,-5.616252271775765,384.0,44.0,-160.0
1,2021-07-02 11:01:02.086,6782086,0.02923939542139977,-10.434274850601966,-0.360005868121107,12.127326581541976,-23.244857803239498,-5.608680217066383,379.0,41.0,-159.0
1,2021-07-02 11:01:02.096,6782096,0.02923939542139977,-10.434274850601966,-0.360005868121107,12.127326581541976,-23.244857803239498,-5.608680217066383,379.0,41.0,-159.0
1,2021-07-02 11:01:02.109,6782109,-0.004198832818581479,-10.46788419929462,-0.39339257611865563,12.181374978124797,-23.291102478591526,-5.525387615263194,379.0,41.0,-159.0
1,2021-07-02 11:01:02.123,6782123,-0.018529502064287665,-10.477486870349663,-0.4172402246883334,12.219980975683956,-23.368176937511574,-5.442095013460005,379.0,41.0,-159.0
1,2021-07-02 11:01:02.137,6782137,-0.018529502064287665,-10.477486870349663,-0.4172402246883334,12.219980975683956,-23.368176937511574,-5.442095013460005,379.0,41.0,-159.0
1,2021-07-02 11:01:02.148,6782148,-0.004198832818581479,-10.482288205877186,-0.3218496304096225,12.274029372266781,-23.422129058755612,-5.366374466366196,379.0,41.0,-159.0
1,2021-07-02 11:01:02.159,6782159,-0.028083281561424974,-10.453480192712053,-0.25030668470058975,12.297192970802277,-23.4067141669716,-5.343658302238053,379.0,41.0,-159.0
1,2021-07-02 11:01:02.172,6782172,-0.028083281561424974,-10.453480192712053,-0.25030668470058975,12.297192970802277,-23.4067141669716,-5.343658302238053,379.0,41.0,-159.0
1,2021-07-02 11:01:02.185,6782185,0.01013183642712493,-10.496692212459754,-0.11675985271039474,12.343520167873265,-23.368176937511574,-5.305798028691149,379.0,41.0,-159.0
1,2021-07-02 11:01:02.196,6782196,0.01013183642712493,-10.496692212459754,-0.11675985271039474,12.343520167873265,-23.368176937511574,-5.305798028691149,379.0,41.0,-159.0
1,2021-07-02 11:01:02.206,6782206,0.01013183642712493,-10.472685534822144,-0.0786036149989102,12.335798968361436,-23.445251396431626,-5.351230356947434,386.0,38.0,-164.0
1,2021-07-02 11:01:02.219,6782219,0.04834695441567483,-10.49189087693223,-0.045216907001361564,12.39756856445609,-23.460666288215634,-5.411806794622481,386.0,38.0,-164.0
1,2021-07-02 11:01:02.231,6782231,0.04834695441567483,-10.49189087693223,-0.045216907001361564,12.39756856445609,-23.460666288215634,-5.411806794622481,386.0,38.0,-164.0
1,2021-07-02 11:01:02.242,6782242,0.01968561592426224,-10.535102896679929,0.02155650899373571,12.382126165432426,-23.53003330124368,-5.4042347399131,386.0,38.0,-164.0
1,2021-07-02 11:01:02.257,6782257,0.01968561592426224,-10.535102896679929,0.02155650899373571,12.382126165432426,-23.53003330124368,-5.4042347399131,386.0,38.0,-164.0
1,2021-07-02 11:01:02.269,6782269,0.01968561592426224,-10.51589755456984,0.08356039527489798,12.44389576152708,-23.545448193027692,-5.351230356947434,386.0,38.0,-164.0
1,2021-07-02 11:01:02.277,6782277,0.01968561592426224,-10.51589755456984,0.08356039527489798,12.44389576152708,-23.545448193027692,-5.351230356947434,386.0,38.0,-164.0
1,2021-07-02 11:01:02.289,6782289,-0.04241395080713116,-10.49189087693223,0.07879086556096207,12.490222958598073,-23.607107760163732,-5.31337008340053,386.0,38.0,-164.0
1,2021-07-02 11:01:02.301,6782301,-0.07107528929854354,-10.487089541404709,0.17895098955360844,12.474780559574407,-23.65335243551576,-5.343658302238053,386.0,38.0,-164.0
1,2021-07-02 11:01:02.309,6782309,-0.07107528929854354,-10.487089541404709,0.17895098955360844,12.474780559574407,-23.65335243551576,-5.343658302238053,386.0,38.0,-164.0
1,2021-07-02 11:01:02.317,6782317,-0.07107528929854354,-10.487089541404709,0.17895098955360844,12.474780559574407,-23.65335243551576,-5.343658302238053,386.0,38.0,-164.0
1,2021-07-02 11:01:02.326,6782326,-0.02330639181285632,-10.477486870349663,0.21710722726509252,12.497944158109904,-23.668767327299772,-5.532959669972575,384.0,42.0,-162.0
1,2021-07-02 11:01:02.333,6782333,-0.02330639181285632,-10.477486870349663,0.21710722726509252,12.497944158109904,-23.668767327299772,-5.532959669972575,384.0,42.0,-162.0
1,2021-07-02 11:01:02.343,6782343,0.014908726175693584,-10.520698890097364,0.26480252440444796,12.490222958598073,-23.661059881407763,-5.760121311254001,384.0,42.0,-162.0
1,2021-07-02 11:01:02.351,6782351,0.014908726175693584,-10.520698890097364,0.26480252440444796,12.490222958598073,-23.661059881407763,-5.760121311254001,384.0,42.0,-162.0
1,2021-07-02 11:01:02.359,6782359,0.0770082929070872,-10.56391090984506,0.2361853461208348,12.551992554692728,-23.707304556759794,-5.744977201835239,384.0,42.0,-162.0
1,2021-07-02 11:01:02.366,6782366,0.0770082929070872,-10.56391090984506,0.2361853461208348,12.551992554692728,-23.707304556759794,-5.744977201835239,384.0,42.0,-162.0
1,2021-07-02 11:01:02.374,6782374,0.0770082929070872,-10.56391090984506,0.2361853461208348,12.551992554692728,-23.707304556759794,-5.744977201835239,384.0,42.0,-162.0
1,2021-07-02 11:01:02.383,6782383,0.04357006466710596,-10.573513580900103,0.31726735125773886,12.60604095127555,-23.7150120026518,-5.760121311254001,384.0,42.0,-162.0
1,2021-07-02 11:01:02.391,6782391,0.04357006466710596,-10.573513580900103,0.31726735125773886,12.60604095127555,-23.7150120026518,-5.760121311254001,384.0,42.0,-162.0
1,2021-07-02 11:01:02.399,6782399,0.02923939542139977,-10.578314916427626,0.3220368809716743,12.598319751763718,-23.799793907463854,-5.676828709450811,384.0,42.0,-162.0
1,2021-07-02 11:01:02.410,6782410,0.02923939542139977,-10.578314916427626,0.3220368809716743,12.598319751763718,-23.799793907463854,-5.676828709450811,384.0,42.0,-162.0
1,2021-07-02 11:01:02.423,6782423,0.024462505672831116,-10.573513580900103,0.355423588969223,12.629204549811044,-23.861453474599895,-5.555675834100717,384.0,42.0,-162.0
1,2021-07-02 11:01:02.435,6782435,0.024462505672831116,-10.573513580900103,0.355423588969223,12.629204549811044,-23.861453474599895,-5.555675834100717,384.0,42.0,-162.0
1,2021-07-02 11:01:02.444,6782444,-0.004198832818581479,-10.554308238790016,0.33634547011348115,12.652368148346541,-23.99248005476398,-5.49509939642567,386.0,40.0,-160.0
1,2021-07-02 11:01:02.456,6782456,-0.004198832818581479,-10.554308238790016,0.33634547011348115,12.652368148346541,-23.99248005476398,-5.49509939642567,386.0,40.0,-160.0
1,2021-07-02 11:01:02.469,6782469,0.014908726175693584,-10.559109574317539,0.3601931186831589,12.76818614102402,-24.046432176008015,-5.426950904041243,386.0,40.0,-160.0
1,2021-07-02 11:01:02.478,6782478,0.014908726175693584,-10.559109574317539,0.3601931186831589,12.76818614102402,-24.046432176008015,-5.426950904041243,386.0,40.0,-160.0
1,2021-07-02 11:01:02.486,6782486,0.03401628516996843,-10.559109574317539,0.355423588969223,12.907167732236992,-24.10038429725205,-5.267937755144245,386.0,40.0,-160.0
1,2021-07-02 11:01:02.494,6782494,0.03401628516996843,-10.559109574317539,0.355423588969223,12.907167732236992,-24.10038429725205,-5.267937755144245,386.0,40.0,-160.0
1,2021-07-02 11:01:02.502,6782502,0.04357006466710596,-10.59271892301019,0.2743415838323189,13.077034121497292,-24.03872473011601,-5.177073098631674,386.0,40.0,-160.0
1,2021-07-02 11:01:02.516,6782516,0.04357006466710596,-10.59271892301019,0.2743415838323189,13.077034121497292,-24.03872473011601,-5.177073098631674,386.0,40.0,-160.0
1,2021-07-02 11:01:02.528,6782528,0.06745451340994946,-10.58791758748267,0.1837205192675439,13.192852114174771,-24.084969405468037,-5.063492277990962,386.0,40.0,-160.0
1,2021-07-02 11:01:02.541,6782541,0.014908726175693584,-10.583116251955149,0.25049393526264163,13.2005733136866,-24.146628972604077,-5.033204059153438,386.0,40.0,-160.0
1,2021-07-02 11:01:02.553,6782553,0.014908726175693584,-10.583116251955149,0.25049393526264163,13.2005733136866,-24.146628972604077,-5.033204059153438,386.0,40.0,-160.0
1,2021-07-02 11:01:02.565,6782565,0.05790073391281214,-10.602321594065236,0.13125569241425297,13.208294513198434,-24.25453321509215,-4.980199676187772,386.0,40.0,-160.0
1,2021-07-02 11:01:02.578,6782578,0.05790073391281214,-10.602321594065236,0.13125569241425297,13.208294513198434,-24.25453321509215,-4.980199676187772,386.0,40.0,-160.0
1,2021-07-02 11:01:02.586,6782586,0.024462505672831116,-10.602321594065236,0.07402133584702662,13.277785308804921,-24.331607674012197,-4.843902691418917,386.0,40.0,-160.0
1,2021-07-02 11:01:02.595,6782595,0.024462505672831116,-10.602321594065236,0.07402133584702662,13.277785308804921,-24.331607674012197,-4.843902691418917,386.0,40.0,-160.0
1,2021-07-02 11:01:02.604,6782604,0.024462505672831116,-10.602321594065236,0.07402133584702662,13.277785308804921,-24.331607674012197,-4.843902691418917,386.0,40.0,-160.0
1,2021-07-02 11:01:02.613,6782613,0.024462505672831116,-10.602321594065236,0.07402133584702662,13.277785308804921,-24.331607674012197,-4.843902691418917,386.0,40.0,-160.0
1,2021-07-02 11:01:02.621,6782621,0.04834695441567483,-10.602321594065236,-0.08814267442678156,13.493978895136213,-24.34702256579621,-4.465299955949874,386.0,40.0,-160.0
1,2021-07-02 11:01:02.629,6782629,0.04834695441567483,-10.602321594065236,-0.08814267442678156,13.493978895136213,-24.34702256579621,-4.465299955949874,386.0,40.0,-160.0
1,2021-07-02 11:01:02.638,6782638,0.04834695441567483,-10.602321594065236,-0.08814267442678156,13.493978895136213,-24.34702256579621,-4.465299955949874,386.0,40.0,-160.0
1,2021-07-02 11:01:02.649,6782649,0.05790073391281214,-10.583116251955149,-0.12629891213826566,13.532584892695372,-24.385559795256235,-4.25328242408721,386.0,40.0,-160.0
1,2021-07-02 11:01:02.660,6782660,0.09133896215279318,-10.573513580900103,-0.30277151155388066,13.455372897577053,-24.35473001168821,-4.25328242408721,386.0,40.0,-160.0
1,2021-07-02 11:01:02.670,6782670,0.09133896215279318,-10.573513580900103,-0.30277151155388066,13.455372897577053,-24.35473001168821,-4.25328242408721,386.0,40.0,-160.0
1,2021-07-02 11:01:02.681,6782681,0.07223140315851855,-10.554308238790016,-0.3552363384071711,13.555748491230867,-24.385559795256235,-4.16241776757464,386.0,40.0,-160.0
1,2021-07-02 11:01:02.689,6782689,0.07223140315851855,-10.554308238790016,-0.3552363384071711,13.555748491230867,-24.385559795256235,-4.16241776757464,386.0,40.0,-160.0
1,2021-07-02 11:01:02.699,6782699,0.08656207240422452,-10.578314916427626,-0.26938480355633154,13.578912089766364,-24.370144903472223,-4.018548728096404,393.0,49.0,-157.0
1,2021-07-02 11:01:02.707,6782707,0.08656207240422452,-10.578314916427626,-0.26938480355633154,13.578912089766364,-24.370144903472223,-4.018548728096404,393.0,49.0,-157.0
1,2021-07-02 11:01:02.720,6782720,0.09611585190136182,-10.583116251955149,-0.3838535166907847,13.648402885372848,-24.35473001168821,-3.9428281810025947,393.0,49.0,-157.0
1,2021-07-02 11:01:02.729,6782729,0.09611585190136182,-10.583116251955149,-0.3838535166907847,13.648402885372848,-24.35473001168821,-3.9428281810025947,393.0,49.0,-157.0
1,2021-07-02 11:01:02.741,6782741,0.11522341089563688,-10.573513580900103,-0.3981621058325911,13.609796887813689,-24.339315119904203,-3.867107633908786,393.0,49.0,-157.0
1,2021-07-02 11:01:02.755,6782755,0.11522341089563688,-10.573513580900103,-0.3981621058325911,13.609796887813689,-24.339315119904203,-3.867107633908786,393.0,49.0,-157.0
1,2021-07-02 11:01:02.769,6782769,0.14388474938704926,-10.59271892301019,-0.31708010069568704,13.578912089766364,-24.34702256579621,-3.7762429773962154,393.0,49.0,-157.0
1,2021-07-02 11:01:02.779,6782779,0.15343852888418658,-10.56871224537258,-0.3552363384071711,13.586633289278193,-24.385559795256235,-3.5793695549523132,393.0,49.0,-157.0
1,2021-07-02 11:01:02.790,6782790,0.15343852888418658,-10.56871224537258,-0.3552363384071711,13.586633289278193,-24.385559795256235,-3.5793695549523132,393.0,49.0,-157.0
1,2021-07-02 11:01:02.804,6782804,0.15821541863275568,-10.58791758748267,-0.45539646239981746,13.625239286837353,-24.35473001168821,-3.4052122966365537,393.0,49.0,-157.0
1,2021-07-02 11:01:02.812,6782812,0.15821541863275568,-10.58791758748267,-0.45539646239981746,13.625239286837353,-24.35473001168821,-3.4052122966365537,393.0,49.0,-157.0
1,2021-07-02 11:01:02.819,6782819,0.18687675712416804,-10.597520258537713,-0.2646152738423961,13.617518087325521,-24.35473001168821,-3.155334491226985,389.0,51.0,-157.0
1,2021-07-02 11:01:02.826,6782826,0.18687675712416804,-10.597520258537713,-0.2646152738423961,13.617518087325521,-24.35473001168821,-3.155334491226985,389.0,51.0,-157.0
1,2021-07-02 11:01:02.834,6782834,0.18687675712416804,-10.597520258537713,-0.2646152738423961,13.617518087325521,-24.35473001168821,-3.155334491226985,389.0,51.0,-157.0
1,2021-07-02 11:01:02.841,6782841,0.15343852888418658,-10.6167256006478,-0.3456972789793002,13.524863693183539,-24.41638957882425,-3.01146545174875,389.0,51.0,-157.0
1,2021-07-02 11:01:02.850,6782850,0.15343852888418658,-10.6167256006478,-0.3456972789793002,13.524863693183539,-24.41638957882425,-3.01146545174875,389.0,51.0,-157.0
1,2021-07-02 11:01:02.857,6782857,0.15343852888418658,-10.6167256006478,-0.3456972789793002,13.524863693183539,-24.41638957882425,-3.01146545174875,389.0,51.0,-157.0
1,2021-07-02 11:01:02.865,6782865,0.1916536468727367,-10.578314916427626,-0.1883027984194275,13.447651698065222,-24.34702256579621,-2.8978846311080364,389.0,51.0,-157.0
1,2021-07-02 11:01:02.872,6782872,0.1916536468727367,-10.578314916427626,-0.1883027984194275,13.447651698065222,-24.34702256579621,-2.8978846311080364,389.0,51.0,-157.0
1,2021-07-02 11:01:02.877,6782877,0.1916536468727367,-10.578314916427626,-0.1883027984194275,13.447651698065222,-24.34702256579621,-2.8978846311080364,389.0,51.0,-157.0
1,2021-07-02 11:01:02.885,6782885,0.18209986737559938,-10.573513580900103,-0.3981621058325911,13.478536496112548,-24.34702256579621,-2.7615876463391813,389.0,51.0,-157.0
1,2021-07-02 11:01:02.894,6782894,0.18209986737559938,-10.573513580900103,-0.3981621058325911,13.478536496112548,-24.34702256579621,-2.7615876463391813,389.0,51.0,-157.0
1,2021-07-02 11:01:02.900,6782900,0.20120742636987402,-10.56871224537258,-0.2550762144145252,13.571190890254531,-24.277655552768163,-2.6555788804078486,389.0,51.0,-157.0
1,2021-07-02 11:01:02.907,6782907,0.20120742636987402,-10.56871224537258,-0.2550762144145252,13.571190890254531,-24.277655552768163,-2.6555788804078486,389.0,51.0,-157.0
1,2021-07-02 11:01:02.914,6782914,0.20120742636987402,-10.56871224537258,-0.2550762144145252,13.571190890254531,-24.277655552768163,-2.6555788804078486,389.0,51.0,-157.0
1,2021-07-02 11:01:02.921,6782921,0.19643053662130536,-10.59271892301019,-0.2121504469891052,13.509421294159877,-24.34702256579621,-2.5419980597671366,389.0,51.0,-157.0
1,2021-07-02 11:01:02.926,6782926,0.19643053662130536,-10.59271892301019,-0.2121504469891052,13.509421294159877,-24.34702256579621,-2.5419980597671366,389.0,51.0,-157.0
1,2021-07-02 11:01:02.934,6782934,0.19643053662130536,-10.59271892301019,-0.2121504469891052,13.509421294159877,-24.34702256579621,-2.5419980597671366,389.0,51.0,-157.0
1,2021-07-02 11:01:02.943,6782943,0.20598431611844267,-10.6167256006478,0.02155650899373571,13.447651698065222,-24.323900228120195,-2.3905569655795187,388.0,42.0,-154.0
1,2021-07-02 11:01:02.950,6782950,0.20598431611844267,-10.6167256006478,0.02155650899373571,13.447651698065222,-24.323900228120195,-2.3905569655795187,388.0,42.0,-154.0
1,2021-07-02 11:01:02.957,6782957,0.20598431611844267,-10.6167256006478,0.02155650899373571,13.447651698065222,-24.323900228120195,-2.3905569655795187,388.0,42.0,-154.0
1,2021-07-02 11:01:02.964,6782964,0.23942254435842414,-10.626328271702844,0.40311888610857843,13.393603301482397,-24.385559795256235,-2.246687926101283,388.0,42.0,-154.0
1,2021-07-02 11:01:02.972,6782972,0.23942254435842414,-10.626328271702844,0.40311888610857843,13.393603301482397,-24.385559795256235,-2.246687926101283,388.0,42.0,-154.0
1,2021-07-02 11:01:02.978,6782978,0.23942254435842414,-10.626328271702844,0.40311888610857843,13.393603301482397,-24.385559795256235,-2.246687926101283,388.0,42.0,-154.0
1,2021-07-02 11:01:02.985,6782985,0.19643053662130536,-10.58791758748267,0.2791111135462548,13.331833705387742,-24.40868213293225,-2.0952468319136655,388.0,42.0,-154.0
1,2021-07-02 11:01:02.992,6782992,0.19643053662130536,-10.58791758748267,0.2791111135462548,13.331833705387742,-24.40868213293225,-2.0952468319136655,388.0,42.0,-154.0
1,2021-07-02 11:01:02.999,6782999,0.22031498536414906,-10.583116251955149,0.1837205192675439,13.378160902458735,-24.34702256579621,-2.004382175401095,388.0,42.0,-154.0
1,2021-07-02 11:01:03.006,6783006,0.22031498536414906,-10.583116251955149,0.1837205192675439,13.378160902458735,-24.34702256579621,-2.004382175401095,388.0,42.0,-154.0
1,2021-07-02 11:01:03.013,6783013,0.22031498536414906,-10.583116251955149,0.1837205192675439,13.378160902458735,-24.34702256579621,-2.004382175401095,388.0,42.0,-154.0
1,2021-07-02 11:01:03.021,6783021,0.17732297762703028,-10.61192426512028,-0.0022911395759420143,13.517142493671708,-24.44721936239227,-1.8529410812134783,388.0,42.0,-154.0
1,2021-07-02 11:01:03.028,6783028,0.17732297762703028,-10.61192426512028,-0.0022911395759420143,13.517142493671708,-24.44721936239227,-1.8529410812134783,388.0,42.0,-154.0
1,2021-07-02 11:01:03.036,6783036,0.17732297762703028,-10.61192426512028,-0.0022911395759420143,13.517142493671708,-24.44721936239227,-1.8529410812134783,388.0,42.0,-154.0
1,2021-07-02 11:01:03.042,6783042,0.18687675712416804,-10.650334949340454,0.38404076725283615,13.478536496112548,-24.41638957882425,-1.7242161511540033,388.0,42.0,-154.0
1,2021-07-02 11:01:03.050,6783050,0.18687675712416804,-10.650334949340454,0.38404076725283615,13.478536496112548,-24.41638957882425,-1.7242161511540033,388.0,42.0,-154.0
1,2021-07-02 11:01:03.058,6783058,0.19643053662130536,-10.621526936175323,0.21710722726509252,13.254621710269426,-24.524293821312323,-1.686355877607099,389.0,42.0,-154.0
1,2021-07-02 11:01:03.065,6783065,0.19643053662130536,-10.621526936175323,0.21710722726509252,13.254621710269426,-24.524293821312323,-1.686355877607099,389.0,59.0,-153.0
1,2021-07-02 11:01:03.072,6783072,0.19643053662130536,-10.621526936175323,0.21710722726509252,13.254621710269426,-24.524293821312323,-1.686355877607099,389.0,59.0,-153.0
1,2021-07-02 11:01:03.079,6783079,0.18687675712416804,-10.56391090984506,0.11694710327244662,13.185130914662938,-24.50887892952831,-1.5652030022570056,389.0,59.0,-153.0
1,2021-07-02 11:01:03.087,6783087,0.18687675712416804,-10.56391090984506,0.11694710327244662,13.185130914662938,-24.50887892952831,-1.5652030022570056,389.0,59.0,-153.0
1,2021-07-02 11:01:03.093,6783093,0.18687675712416804,-10.56391090984506,0.11694710327244662,13.185130914662938,-24.50887892952831,-1.5652030022570056,389.0,59.0,-153.0
1,2021-07-02 11:01:03.099,6783099,0.23464565460985504,-10.554308238790016,-0.09768173385465248,13.509421294159877,-24.547416158988337,-1.4440501269069117,389.0,59.0,-153.0
1,2021-07-02 11:01:03.105,6783105,0.23464565460985504,-10.554308238790016,-0.09768173385465248,13.509421294159877,-24.547416158988337,-1.4440501269069117,389.0,59.0,-153.0
1,2021-07-02 11:01:03.110,6783110,0.23464565460985504,-10.554308238790016,-0.09768173385465248,13.509421294159877,-24.547416158988337,-1.4440501269069117,389.0,59.0,-153.0
1,2021-07-02 11:01:03.116,6783116,0.23464565460985504,-10.554308238790016,-0.09768173385465248,13.509421294159877,-24.547416158988337,-1.4440501269069117,389.0,59.0,-153.0
1,2021-07-02 11:01:03.122,6783122,0.19643053662130536,-10.626328271702844,0.17418145983967298,13.77966327707399,-24.50887892952831,-1.3834736892318649,389.0,59.0,-153.0
1,2021-07-02 11:01:03.128,6783128,0.19643053662130536,-10.626328271702844,0.17418145983967298,13.77966327707399,-24.50887892952831,-1.3834736892318649,389.0,59.0,-153.0
1,2021-07-02 11:01:03.136,6783136,0.19643053662130536,-10.626328271702844,0.17418145983967298,13.77966327707399,-24.50887892952831,-1.3834736892318649,389.0,59.0,-153.0
1,2021-07-02 11:01:03.143,6783143,0.19643053662130536,-10.607122929592759,0.21233769755115708,13.841432873168644,-24.516586375420317,-1.3607575251037223,389.0,59.0,-153.0
1,2021-07-02 11:01:03.152,6783152,0.19643053662130536,-10.607122929592759,0.21233769755115708,13.841432873168644,-24.516586375420317,-1.3607575251037223,389.0,59.0,-153.0
1,2021-07-02 11:01:03.158,6783158,0.19643053662130536,-10.607122929592759,0.21233769755115708,13.841432873168644,-24.516586375420317,-1.3607575251037223,389.0,59.0,-153.0
1,2021-07-02 11:01:03.164,6783164,0.14866163913561792,-10.631129607230369,0.1980291084093507,13.77966327707399,-24.524293821312323,-1.330469306266199,389.0,59.0,-153.0
1,2021-07-02 11:01:03.170,6783170,0.14866163913561792,-10.631129607230369,0.1980291084093507,13.77966327707399,-24.524293821312323,-1.330469306266199,389.0,59.0,-153.0
1,2021-07-02 11:01:03.176,6783176,0.14866163913561792,-10.631129607230369,0.1980291084093507,13.77966327707399,-24.524293821312323,-1.330469306266199,389.0,59.0,-153.0
1,2021-07-02 11:01:03.182,6783182,0.167769198129893,-10.607122929592759,-0.035677847573490656,13.733336080003,-24.532001267204326,-1.3607575251037223,389.0,59.0,-153.0
1,2021-07-02 11:01:03.190,6783190,0.167769198129893,-10.607122929592759,-0.035677847573490656,13.733336080003,-24.532001267204326,-1.3607575251037223,389.0,59.0,-153.0
1,2021-07-02 11:01:03.195,6783195,0.167769198129893,-10.607122929592759,-0.035677847573490656,13.733336080003,-24.532001267204326,-1.3607575251037223,389.0,59.0,-153.0
1,2021-07-02 11:01:03.203,6783203,0.18687675712416804,-10.607122929592759,0.012017449565864797,13.85687527219231,-24.57053849666435,-1.3001810874286754,381.0,55.0,-151.0
1,2021-07-02 11:01:03.211,6783211,0.18687675712416804,-10.607122929592759,0.012017449565864797,13.85687527219231,-24.57053849666435,-1.3001810874286754,381.0,55.0,-151.0
1,2021-07-02 11:01:03.218,6783218,0.18687675712416804,-10.607122929592759,0.012017449565864797,13.85687527219231,-24.57053849666435,-1.3001810874286754,381.0,55.0,-151.0
1,2021-07-02 11:01:03.225,6783225,0.2155380956155804,-10.583116251955149,0.17418145983967298,14.11939605559459,-24.555123604880343,-1.2017443762067241,381.0,55.0,-151.0
1,2021-07-02 11:01:03.233,6783233,0.2155380956155804,-10.583116251955149,0.17418145983967298,14.11939605559459,-24.555123604880343,-1.2017443762067241,381.0,55.0,-151.0
1,2021-07-02 11:01:03.240,6783240,0.2155380956155804,-10.63593094275789,0.10740804384457525,14.266098846319396,-24.61678317201638,-1.0805915008566307,381.0,55.0,-151.0
1,2021-07-02 11:01:03.245,6783245,0.2155380956155804,-10.63593094275789,0.10740804384457525,14.266098846319396,-24.61678317201638,-1.0805915008566307,381.0,55.0,-151.0
1,2021-07-02 11:01:03.254,6783254,0.2155380956155804,-10.63593094275789,0.10740804384457525,14.266098846319396,-24.61678317201638,-1.0805915008566307,381.0,55.0,-151.0
1,2021-07-02 11:01:03.260,6783260,0.20598431611844267,-10.602321594065236,0.050173687277348895,14.289262444854891,-24.601368280232375,-1.004870953762822,381.0,55.0,-151.0
1,2021-07-02 11:01:03.267,6783267,0.20598431611844267,-10.602321594065236,0.050173687277348895,14.289262444854891,-24.601368280232375,-1.004870953762822,381.0,55.0,-151.0
1,2021-07-02 11:01:03.276,6783276,0.20598431611844267,-10.602321594065236,0.050173687277348895,14.289262444854891,-24.601368280232375,-1.004870953762822,381.0,55.0,-151.0
1,2021-07-02 11:01:03.284,6783284,0.22986876486128638,-10.631129607230369,-0.07383408528497475,14.28154124534306,-24.585953388448363,-0.8837180784127283,381.0,55.0,-151.0
1,2021-07-02 11:01:03.291,6783291,0.22986876486128638,-10.631129607230369,-0.07383408528497475,14.28154124534306,-24.585953388448363,-0.8837180784127283,381.0,55.0,-151.0
1,2021-07-02 11:01:03.298,6783298,0.22986876486128638,-10.631129607230369,-0.07383408528497475,14.28154124534306,-24.585953388448363,-0.8837180784127283,381.0,55.0,-151.0
1,2021-07-02 11:01:03.303,6783303,0.18209986737559938,-10.63593094275789,0.050173687277348895,14.142559654130087,-24.555123604880343,-0.7549931483532537,381.0,55.0,-151.0
1,2021-07-02 11:01:03.308,6783308,0.18209986737559938,-10.63593094275789,0.050173687277348895,14.142559654130087,-24.555123604880343,-0.7549931483532537,381.0,55.0,-151.0
1,2021-07-02 11:01:03.313,6783313,0.18209986737559938,-10.63593094275789,0.050173687277348895,14.142559654130087,-24.555123604880343,-0.7549931483532537,381.0,55.0,-151.0
1,2021-07-02 11:01:03.319,6783319,0.17732297762703028,-10.578314916427626,0.1980291084093507,14.019020461940778,-24.585953388448363,-0.739849038934492,381.0,55.0,-151.0
1,2021-07-02 11:01:03.324,6783324,0.17732297762703028,-10.578314916427626,0.1980291084093507,14.019020461940778,-24.585953388448363,-0.739849038934492,387.0,69.0,-153.0
1,2021-07-02 11:01:03.329,6783329,0.17732297762703028,-10.578314916427626,0.1980291084093507,14.019020461940778,-24.585953388448363,-0.739849038934492,387.0,69.0,-153.0
1,2021-07-02 11:01:03.334,6783334,0.17732297762703028,-10.578314916427626,0.1980291084093507,14.019020461940778,-24.585953388448363,-0.739849038934492,387.0,69.0,-153.0
1,2021-07-02 11:01:03.341,6783341,0.18209986737559938,-10.61192426512028,-0.007060669289877471,13.972693264869786,-24.578245942556357,-0.6944167106782068,387.0,69.0,-153.0
1,2021-07-02 11:01:03.348,6783348,0.18209986737559938,-10.61192426512028,-0.007060669289877471,13.972693264869786,-24.578245942556357,-0.6944167106782068,387.0,69.0,-153.0
1,2021-07-02 11:01:03.355,6783355,0.18209986737559938,-10.61192426512028,-0.007060669289877471,13.972693264869786,-24.578245942556357,-0.6944167106782068,387.0,69.0,-153.0
1,2021-07-02 11:01:03.362,6783362,0.2155380956155804,-10.59271892301019,-0.0786036149989102,14.049905259988106,-24.62449061790839,-0.7322769842251111,387.0,69.0,-153.0
1,2021-07-02 11:01:03.370,6783370,0.2155380956155804,-10.59271892301019,-0.0786036149989102,14.049905259988106,-24.62449061790839,-0.7322769842251111,387.0,69.0,-153.0
1,2021-07-02 11:01:03.377,6783377,0.2155380956155804,-10.59271892301019,-0.0786036149989102,14.049905259988106,-24.62449061790839,-0.7322769842251111,387.0,69.0,-153.0
1,2021-07-02 11:01:03.382,6783382,0.1916536468727367,-10.602321594065236,-0.10722079328252339,14.219771649248406,-24.578245942556357,-0.679272601259445,387.0,69.0,-153.0
1,2021-07-02 11:01:03.389,6783389,0.1916536468727367,-10.602321594065236,-0.10722079328252339,14.219771649248406,-24.578245942556357,-0.679272601259445,387.0,69.0,-153.0
1,2021-07-02 11:01:03.395,6783395,0.1916536468727367,-10.602321594065236,-0.10722079328252339,14.219771649248406,-24.578245942556357,-0.679272601259445,387.0,69.0,-153.0
1,2021-07-02 11:01:03.400,6783400,0.22509187511271772,-10.61192426512028,0.1980291084093507,14.23521404827207,-24.555123604880343,-0.6717005465500642,387.0,69.0,-153.0
1,2021-07-02 11:01:03.409,6783409,0.22509187511271772,-10.61192426512028,0.1980291084093507,14.23521404827207,-24.555123604880343,-0.6717005465500642,387.0,69.0,-153.0
1,2021-07-02 11:01:03.416,6783416,0.22509187511271772,-10.61192426512028,0.1980291084093507,14.23521404827207,-24.555123604880343,-0.6717005465500642,387.0,69.0,-153.0
1,2021-07-02 11:01:03.423,6783423,0.22509187511271772,-10.59271892301019,0.12648616270031754,14.127117255106425,-24.601368280232375,-0.6717005465500642,387.0,69.0,-153.0
1,2021-07-02 11:01:03.431,6783431,0.22509187511271772,-10.59271892301019,0.12648616270031754,14.127117255106425,-24.601368280232375,-0.6717005465500642,387.0,69.0,-153.0
1,2021-07-02 11:01:03.436,6783436,0.22509187511271772,-10.59271892301019,0.12648616270031754,14.127117255106425,-24.601368280232375,-0.6717005465500642,387.0,69.0,-153.0
1,2021-07-02 11:01:03.443,6783443,0.21076120586701175,-10.6167256006478,0.045404157563413435,14.065347659011769,-24.547416158988337,-0.6717005465500642,389.0,63.0,-147.0
1,2021-07-02 11:01:03.451,6783451,0.21076120586701175,-10.6167256006478,0.045404157563413435,14.065347659011769,-24.547416158988337,-0.6717005465500642,389.0,63.0,-147.0
1,2021-07-02 11:01:03.458,6783458,0.21076120586701175,-10.6167256006478,0.045404157563413435,14.065347659011769,-24.547416158988337,-0.6717005465500642,389.0,63.0,-147.0
1,2021-07-02 11:01:03.463,6783463,0.2537532136041301,-10.64073227828541,-0.05952549614316838,13.934087267310627,-24.555123604880343,-0.5884079447468749,389.0,63.0,-147.0
1,2021-07-02 11:01:03.471,6783471,0.2537532136041301,-10.64073227828541,-0.05952549614316838,13.934087267310627,-24.555123604880343,-0.5884079447468749,389.0,63.0,-147.0
1,2021-07-02 11:01:03.479,6783479,0.22031498536414906,-10.64073227828541,0.09309945470276888,13.841432873168644,-24.532001267204326,-0.4899712335249236,389.0,63.0,-147.0
1,2021-07-02 11:01:03.488,6783488,0.22031498536414906,-10.64073227828541,0.09309945470276888,13.841432873168644,-24.532001267204326,-0.4899712335249236,389.0,63.0,-147.0
1,2021-07-02 11:01:03.495,6783495,0.22031498536414906,-10.64073227828541,0.09309945470276888,13.841432873168644,-24.532001267204326,-0.4899712335249236,389.0,63.0,-147.0
1,2021-07-02 11:01:03.502,6783502,0.2537532136041301,-10.578314916427626,0.08832992498883344,13.795105676097654,-24.493464037744303,-0.4369668505592576,389.0,63.0,-147.0
1,2021-07-02 11:01:03.509,6783509,0.2537532136041301,-10.578314916427626,0.08832992498883344,13.795105676097654,-24.493464037744303,-0.4369668505592576,389.0,63.0,-147.0
1,2021-07-02 11:01:03.515,6783515,0.2537532136041301,-10.578314916427626,0.08832992498883344,13.795105676097654,-24.493464037744303,-0.4369668505592576,389.0,63.0,-147.0
1,2021-07-02 11:01:03.522,6783522,0.22986876486128638,-10.597520258537713,0.03586509813554252,13.833711673656813,-24.50117148363631,-0.33095808462792564,389.0,63.0,-147.0
1,2021-07-02 11:01:03.528,6783528,0.22986876486128638,-10.597520258537713,0.03586509813554252,13.833711673656813,-24.50117148363631,-0.33095808462792564,389.0,63.0,-147.0
1,2021-07-02 11:01:03.537,6783537,0.22986876486128638,-10.597520258537713,0.03586509813554252,13.833711673656813,-24.50117148363631,-0.33095808462792564,389.0,63.0,-147.0
1,2021-07-02 11:01:03.543,6783543,0.2776376623469738,-10.64073227828541,0.03586509813554252,13.802826875609487,-24.431804470608263,-0.2400934281153553,389.0,63.0,-147.0
1,2021-07-02 11:01:03.550,6783550,0.2776376623469738,-10.64073227828541,0.03586509813554252,13.802826875609487,-24.431804470608263,-0.2400934281153553,389.0,63.0,-147.0
1,2021-07-02 11:01:03.558,6783558,0.2776376623469738,-10.64073227828541,0.03586509813554252,13.802826875609487,-24.431804470608263,-0.2400934281153553,389.0,63.0,-147.0
1,2021-07-02 11:01:03.565,6783565,0.2728607725984052,-10.645533613812933,0.05494321699128435,13.733336080003,-24.47034170006829,-0.1037964433464999,395.0,69.0,-139.0
1,2021-07-02 11:01:03.572,6783572,0.2728607725984052,-10.645533613812933,0.05494321699128435,13.733336080003,-24.47034170006829,-0.1037964433464999,395.0,69.0,-139.0
1,2021-07-02 11:01:03.581,6783581,0.26330699310126743,-10.59271892301019,0.18849004898147934,13.648402885372848,-24.485756591852297,0.01735643200359383,395.0,69.0,-139.0
1,2021-07-02 11:01:03.586,6783586,0.26330699310126743,-10.59271892301019,0.18849004898147934,13.648402885372848,-24.485756591852297,0.01735643200359383,395.0,69.0,-139.0
1,2021-07-02 11:01:03.591,6783591,0.26330699310126743,-10.59271892301019,0.18849004898147934,13.648402885372848,-24.485756591852297,0.01735643200359383,395.0,69.0,-139.0
1,2021-07-02 11:01:03.596,6783596,0.26330699310126743,-10.59271892301019,0.18849004898147934,13.648402885372848,-24.485756591852297,0.01735643200359383,395.0,69.0,-139.0
1,2021-07-02 11:01:03.604,6783604,0.2776376623469738,-10.602321594065236,0.13125569241425297,13.663845284396514,-24.454926808284277,0.08550492438802157,395.0,69.0,-139.0
1,2021-07-02 11:01:03.610,6783610,0.2776376623469738,-10.602321594065236,0.13125569241425297,13.663845284396514,-24.454926808284277,0.08550492438802157,395.0,69.0,-139.0
1,2021-07-02 11:01:03.617,6783617,0.2776376623469738,-10.602321594065236,0.13125569241425297,13.663845284396514,-24.454926808284277,0.08550492438802157,395.0,69.0,-139.0
1,2021-07-02 11:01:03.622,6783622,0.28241455209554245,-10.597520258537713,0.05971274670522025,13.795105676097654,-24.431804470608263,0.1990857450287344,395.0,69.0,-139.0
1,2021-07-02 11:01:03.627,6783627,0.28241455209554245,-10.597520258537713,0.05971274670522025,13.795105676097654,-24.431804470608263,0.1990857450287344,395.0,69.0,-139.0
1,2021-07-02 11:01:03.632,6783632,0.28241455209554245,-10.597520258537713,0.05971274670522025,13.795105676097654,-24.431804470608263,0.1990857450287344,395.0,69.0,-139.0
1,2021-07-02 11:01:03.637,6783637,0.28241455209554245,-10.597520258537713,0.05971274670522025,13.795105676097654,-24.431804470608263,0.1990857450287344,395.0,69.0,-139.0
1,2021-07-02 11:01:03.646,6783646,0.3015221110898175,-10.602321594065236,0.045404157563413435,13.995856863405281,-24.44721936239227,0.3505268392163516,395.0,69.0,-139.0
1,2021-07-02 11:01:03.653,6783653,0.3015221110898175,-10.602321594065236,0.045404157563413435,13.995856863405281,-24.44721936239227,0.3505268392163516,395.0,69.0,-139.0
1,2021-07-02 11:01:03.661,6783661,0.2871914418441111,-10.631129607230369,-0.09768173385465248,13.972693264869786,-24.493464037744303,0.4641076598570644,395.0,69.0,-139.0
1,2021-07-02 11:01:03.667,6783667,0.2871914418441111,-10.631129607230369,-0.09768173385465248,13.972693264869786,-24.493464037744303,0.4641076598570644,395.0,69.0,-139.0
1,2021-07-02 11:01:03.675,6783675,0.2871914418441111,-10.631129607230369,-0.09768173385465248,13.972693264869786,-24.493464037744303,0.4641076598570644,395.0,69.0,-139.0
1,2021-07-02 11:01:03.680,6783680,0.3206296700840926,-10.59271892301019,0.016786979279800253,13.94180846682246,-24.41638957882425,0.5701164257883965,395.0,69.0,-139.0
1,2021-07-02 11:01:03.688,6783688,0.3206296700840926,-10.59271892301019,0.016786979279800253,13.94180846682246,-24.41638957882425,0.5701164257883965,395.0,69.0,-139.0
1,2021-07-02 11:01:03.695,6783695,0.3206296700840926,-10.59271892301019,0.016786979279800253,13.94180846682246,-24.41638957882425,0.5701164257883965,395.0,69.0,-139.0
1,2021-07-02 11:01:03.703,6783703,0.2537532136041301,-10.573513580900103,-0.20738091727516975,13.85687527219231,-24.370144903472223,0.6761251917197285,399.0,69.0,-145.0
1,2021-07-02 11:01:03.711,6783711,0.2537532136041301,-10.573513580900103,-0.20738091727516975,13.85687527219231,-24.370144903472223,0.6761251917197285,399.0,69.0,-145.0
1,2021-07-02 11:01:03.717,6783717,0.2537532136041301,-10.573513580900103,-0.20738091727516975,13.85687527219231,-24.370144903472223,0.6761251917197285,399.0,69.0,-145.0
1,2021-07-02 11:01:03.724,6783724,0.3206296700840926,-10.51589755456984,-0.14060750128007246,14.103953656570928,-24.339315119904203,0.751845738813537,399.0,69.0,-145.0
1,2021-07-02 11:01:03.731,6783731,0.3206296700840926,-10.51589755456984,-0.14060750128007246,14.103953656570928,-24.339315119904203,0.751845738813537,399.0,69.0,-145.0
1,2021-07-02 11:01:03.739,6783739,0.3206296700840926,-10.51589755456984,-0.14060750128007246,14.103953656570928,-24.339315119904203,0.751845738813537,399.0,69.0,-145.0
1,2021-07-02 11:01:03.746,6783746,0.3206296700840926,-10.51589755456984,-0.14060750128007246,14.103953656570928,-24.339315119904203,0.751845738813537,399.0,69.0,-145.0
1,2021-07-02 11:01:03.755,6783755,0.3206296700840926,-10.51589755456984,-0.14060750128007246,14.103953656570928,-24.339315119904203,0.751845738813537,399.0,69.0,-145.0
1,2021-07-02 11:01:03.762,6783762,0.2728607725984052,-10.56391090984506,-0.06429502585710384,14.443686435091529,-24.28536299866017,0.9411471065480584,399.0,69.0,-145.0
1,2021-07-02 11:01:03.770,6783770,0.2728607725984052,-10.56391090984506,-0.06429502585710384,14.443686435091529,-24.28536299866017,0.9411471065480584,399.0,69.0,-145.0
1,2021-07-02 11:01:03.776,6783776,0.2728607725984052,-10.56391090984506,-0.06429502585710384,14.443686435091529,-24.28536299866017,0.9411471065480584,399.0,69.0,-145.0
1,2021-07-02 11:01:03.784,6783784,0.28241455209554245,-10.573513580900103,-0.1596856201358143,14.374195639485043,-24.28536299866017,1.016867653641867,399.0,69.0,-145.0
1,2021-07-02 11:01:03.792,6783792,0.28241455209554245,-10.573513580900103,-0.1596856201358143,14.374195639485043,-24.28536299866017,1.016867653641867,399.0,69.0,-145.0
1,2021-07-02 11:01:03.798,6783798,0.28241455209554245,-10.573513580900103,-0.1596856201358143,14.374195639485043,-24.28536299866017,1.016867653641867,399.0,69.0,-145.0
1,2021-07-02 11:01:03.806,6783806,0.3158527803355235,-10.58791758748267,-0.07383408528497475,14.258377646807565,-24.28536299866017,0.8957147782917734,399.0,69.0,-145.0
1,2021-07-02 11:01:03.818,6783818,0.3158527803355235,-10.58791758748267,-0.07383408528497475,14.258377646807565,-24.28536299866017,0.8957147782917734,399.0,69.0,-145.0
1,2021-07-02 11:01:03.833,6783833,0.35406789832407365,-10.597520258537713,-0.05475596642923292,14.165723252665583,-24.22370343152413,0.918430942419916,402.0,72.0,-132.0
1,2021-07-02 11:01:03.846,6783846,0.3588447880726423,-10.58791758748267,-0.05952549614316838,14.096232457059095,-24.1774587561721,0.9865794348043435,402.0,72.0,-132.0
1,2021-07-02 11:01:03.856,6783856,0.3588447880726423,-10.58791758748267,-0.05952549614316838,14.096232457059095,-24.1774587561721,0.9865794348043435,402.0,72.0,-132.0
1,2021-07-02 11:01:03.866,6783866,0.3779523470669173,-10.59271892301019,-0.15014656070794338,14.042184060476274,-24.16204386438809,1.1001602554450567,402.0,72.0,-132.0
1,2021-07-02 11:01:03.880,6783880,0.44005191379831077,-10.631129607230369,-0.14060750128007246,13.934087267310627,-24.11579918903606,1.2818895684701972,402.0,72.0,-132.0
1,2021-07-02 11:01:03.893,6783893,0.44005191379831077,-10.631129607230369,-0.14060750128007246,13.934087267310627,-24.11579918903606,1.2818895684701972,402.0,72.0,-132.0
1,2021-07-02 11:01:03.901,6783901,0.35406789832407365,-10.58791758748267,-0.14537703099400792,13.910923668775132,-24.031017284224006,1.6453481945204782,402.0,72.0,-132.0
1,2021-07-02 11:01:03.915,6783915,0.35406789832407365,-10.58791758748267,-0.14537703099400792,13.910923668775132,-24.031017284224006,1.6453481945204782,402.0,72.0,-132.0
1,2021-07-02 11:01:03.927,6783927,0.3731754573183482,-10.559109574317539,-0.16445514984975018,13.872317671215972,-23.97706516297997,1.8800818905112848,402.0,72.0,-132.0
1,2021-07-02 11:01:03.940,6783940,0.32540655983266126,-10.58791758748267,-0.13106844185220112,13.69473008244384,-23.94623537941195,1.978518601733236,406.0,78.0,-124.0
1,2021-07-02 11:01:03.951,6783951,0.32540655983266126,-10.58791758748267,-0.13106844185220112,13.69473008244384,-23.94623537941195,1.978518601733236,406.0,78.0,-124.0
1,2021-07-02 11:01:03.963,6783963,0.41616746505546703,-10.607122929592759,-0.1215293824243302,13.385882101970568,-23.97706516297997,2.084527367664568,406.0,78.0,-124.0
1,2021-07-02 11:01:03.978,6783978,0.41616746505546703,-10.607122929592759,-0.1215293824243302,13.385882101970568,-23.97706516297997,2.084527367664568,406.0,78.0,-124.0
1,2021-07-02 11:01:03.991,6783991,0.3779523470669173,-10.554308238790016,-0.10245126356858793,13.131082518080117,-24.000187500655983,2.1753920241771385,406.0,78.0,-124.0
1,2021-07-02 11:01:04.002,6784002,0.4543825830440167,-10.53990423220745,-0.08814267442678156,13.06159172247363,-23.94623537941195,2.2283964071428044,406.0,78.0,-124.0
1,2021-07-02 11:01:04.015,6784015,0.4543825830440167,-10.53990423220745,-0.08814267442678156,13.06159172247363,-23.94623537941195,2.2283964071428044,406.0,78.0,-124.0
1,2021-07-02 11:01:04.029,6784029,0.39705990606119196,-10.549506903262493,-0.14537703099400792,13.161967316127443,-23.830623691031875,2.3949816107491837,406.0,78.0,-124.0
1,2021-07-02 11:01:04.041,6784041,0.44005191379831077,-10.549506903262493,-0.0833731447128461,13.131082518080117,-23.77667156978784,2.569138869064943,406.0,78.0,-124.0
1,2021-07-02 11:01:04.052,6784052,0.44005191379831077,-10.549506903262493,-0.0833731447128461,13.131082518080117,-23.77667156978784,2.569138869064943,406.0,78.0,-124.0
1,2021-07-02 11:01:04.065,6784065,0.38750612656405464,-10.544705567734972,-0.06906455557103928,13.038428123938132,-23.784379015679843,2.667575580286894,413.0,75.0,-127.0
1,2021-07-02 11:01:04.077,6784077,0.38750612656405464,-10.544705567734972,-0.06906455557103928,13.038428123938132,-23.784379015679843,2.667575580286894,413.0,75.0,-127.0
1,2021-07-02 11:01:04.091,6784091,0.4591594727925858,-10.511096219042319,-0.09291220414071702,12.945773729796151,-23.753549232111826,2.713007908543179,413.0,75.0,-127.0
1,2021-07-02 11:01:04.100,6784100,0.42572124455260435,-10.49189087693223,-0.14060750128007246,13.077034121497292,-23.676474773191774,2.7963005103463687,413.0,75.0,-127.0
1,2021-07-02 11:01:04.115,6784115,0.42572124455260435,-10.49189087693223,-0.14060750128007246,13.077034121497292,-23.676474773191774,2.7963005103463687,413.0,75.0,-127.0
1,2021-07-02 11:01:04.128,6784128,0.46393636254115445,-10.501493547987273,-0.06429502585710384,13.308670106852247,-23.63793754373175,2.8341607838932728,413.0,75.0,-127.0
1,2021-07-02 11:01:04.137,6784137,0.46393636254115445,-10.501493547987273,-0.06429502585710384,13.308670106852247,-23.63793754373175,2.8341607838932728,413.0,75.0,-127.0
1,2021-07-02 11:01:04.146,6784146,0.4543825830440167,-10.535102896679929,-0.030908317859555196,13.470815296600717,-23.65335243551576,2.932597495115224,413.0,75.0,-127.0
1,2021-07-02 11:01:04.154,6784154,0.4543825830440167,-10.535102896679929,-0.030908317859555196,13.470815296600717,-23.65335243551576,2.932597495115224,413.0,75.0,-127.0
1,2021-07-02 11:01:04.162,6784162,0.44005191379831077,-10.477486870349663,-0.0786036149989102,13.501700094648044,-23.63793754373175,3.0461783157559372,413.0,75.0,-127.0
1,2021-07-02 11:01:04.171,6784171,0.44005191379831077,-10.477486870349663,-0.0786036149989102,13.501700094648044,-23.63793754373175,3.0461783157559372,413.0,75.0,-127.0
1,2021-07-02 11:01:04.183,6784183,0.4687132522897231,-10.496692212459754,-0.035677847573490656,13.748778479026663,-23.568570530703706,3.1900473552341735,413.0,75.0,-127.0
1,2021-07-02 11:01:04.196,6784196,0.4687132522897231,-10.496692212459754,-0.035677847573490656,13.748778479026663,-23.568570530703706,3.1900473552341735,413.0,75.0,-127.0
1,2021-07-02 11:01:04.210,6784210,0.43049813430117345,-10.520698890097364,0.08832992498883344,13.98813566389345,-23.506910963567666,3.303628175874886,412.0,86.0,-122.0
1,2021-07-02 11:01:04.220,6784220,0.42572124455260435,-10.501493547987273,0.21710722726509252,13.964972065357955,-23.460666288215634,3.379348722968695,412.0,86.0,-122.0
1,2021-07-02 11:01:04.233,6784233,0.42572124455260435,-10.501493547987273,0.21710722726509252,13.964972065357955,-23.460666288215634,3.379348722968695,412.0,86.0,-122.0
1,2021-07-02 11:01:04.245,6784245,0.4448288035468794,-10.525500225624883,0.12171663298638206,13.841432873168644,-23.476081179999646,3.4550692700625034,412.0,86.0,-122.0
1,2021-07-02 11:01:04.258,6784258,0.4448288035468794,-10.525500225624883,0.12171663298638206,13.841432873168644,-23.476081179999646,3.4550692700625034,412.0,86.0,-122.0
1,2021-07-02 11:01:04.269,6784269,0.44005191379831077,-10.511096219042319,0.23141581640689934,13.756499678538495,-23.46837373410764,3.545933926575074,412.0,86.0,-122.0
1,2021-07-02 11:01:04.282,6784282,0.46393636254115445,-10.487089541404709,0.2791111135462548,13.640681685861018,-23.383591829295586,3.6367985830876437,412.0,86.0,-122.0
1,2021-07-02 11:01:04.296,6784296,0.46393636254115445,-10.487089541404709,0.2791111135462548,13.640681685861018,-23.383591829295586,3.6367985830876437,412.0,86.0,-122.0
1,2021-07-02 11:01:04.305,6784305,0.4591594727925858,-10.506294883514796,0.24095487583477027,13.532584892695372,-23.34505459983556,3.6973750207626908,412.0,86.0,-122.0
1,2021-07-02 11:01:04.312,6784312,0.4591594727925858,-10.506294883514796,0.24095487583477027,13.532584892695372,-23.34505459983556,3.6973750207626908,412.0,86.0,-122.0
1,2021-07-02 11:01:04.321,6784321,0.46393636254115445,-10.520698890097364,0.22664628669296388,13.432209299041556,-23.37588438340358,3.7730955678564992,414.0,86.0,-114.0
1,2021-07-02 11:01:04.329,6784329,0.46393636254115445,-10.520698890097364,0.22664628669296388,13.432209299041556,-23.37588438340358,3.7730955678564992,414.0,86.0,-114.0
1,2021-07-02 11:01:04.338,6784338,0.46393636254115445,-10.520698890097364,0.22664628669296388,13.432209299041556,-23.37588438340358,3.7730955678564992,414.0,86.0,-114.0
1,2021-07-02 11:01:04.347,6784347,0.44005191379831077,-10.463082863767099,0.18849004898147934,13.478536496112548,-23.31422481626754,3.8109558414034037,414.0,86.0,-114.0
1,2021-07-02 11:01:04.355,6784355,0.44005191379831077,-10.463082863767099,0.18849004898147934,13.478536496112548,-23.31422481626754,3.8109558414034037,414.0,86.0,-114.0
1,2021-07-02 11:01:04.362,6784362,0.4352750240497421,-10.434274850601966,0.26480252440444796,13.594354488790026,-23.329639708051552,3.856388169659689,414.0,86.0,-114.0
1,2021-07-02 11:01:04.370,6784370,0.4352750240497421,-10.434274850601966,0.26480252440444796,13.594354488790026,-23.329639708051552,3.856388169659689,414.0,86.0,-114.0
1,2021-07-02 11:01:04.378,6784378,0.4352750240497421,-10.434274850601966,0.26480252440444796,13.594354488790026,-23.329639708051552,3.856388169659689,414.0,86.0,-114.0
1,2021-07-02 11:01:04.387,6784387,0.41616746505546703,-10.477486870349663,0.2791111135462548,13.771942077562159,-23.214028019671474,3.977541045009782,414.0,86.0,-114.0
1,2021-07-02 11:01:04.395,6784395,0.41616746505546703,-10.477486870349663,0.2791111135462548,13.771942077562159,-23.214028019671474,3.977541045009782,414.0,86.0,-114.0
1,2021-07-02 11:01:04.403,6784403,0.5164821497754105,-10.554308238790016,0.2361853461208348,13.671566483908345,-23.20632057377947,4.03811748268483,414.0,86.0,-114.0
1,2021-07-02 11:01:04.416,6784416,0.5164821497754105,-10.554308238790016,0.2361853461208348,13.671566483908345,-23.20632057377947,4.03811748268483,414.0,86.0,-114.0
1,2021-07-02 11:01:04.430,6784430,0.4782670317868604,-10.530301561152406,0.35065405925528753,13.517142493671708,-23.229442911455486,4.060833646812972,414.0,86.0,-114.0
1,2021-07-02 11:01:04.438,6784438,0.4782670317868604,-10.530301561152406,0.35065405925528753,13.517142493671708,-23.229442911455486,4.060833646812972,414.0,86.0,-114.0
1,2021-07-02 11:01:04.450,6784450,0.4973745907811355,-10.506294883514796,0.3268064106856098,13.100197720032789,-23.19090568199546,4.151698303325542,420.0,96.0,-104.0
1,2021-07-02 11:01:04.463,6784463,0.4209443548040357,-10.477486870349663,0.21710722726509252,12.814513338095008,-23.12924611485942,4.181986522163066,420.0,96.0,-104.0
1,2021-07-02 11:01:04.477,6784477,0.4209443548040357,-10.477486870349663,0.21710722726509252,12.814513338095008,-23.12924611485942,4.181986522163066,420.0,96.0,-104.0
1,2021-07-02 11:01:04.488,6784488,0.4448288035468794,-10.39586416638179,0.10740804384457525,12.884004133701495,-23.14466100664343,4.234990905128732,420.0,96.0,-104.0
1,2021-07-02 11:01:04.501,6784501,0.4066136855583297,-10.458281528239576,0.15510334098393072,13.046149323449965,-23.07529399361539,4.21984679570997,420.0,96.0,-104.0
1,2021-07-02 11:01:04.515,6784515,0.4066136855583297,-10.458281528239576,0.15510334098393072,13.046149323449965,-23.07529399361539,4.21984679570997,420.0,96.0,-104.0
1,2021-07-02 11:01:04.528,6784528,0.4209443548040357,-10.511096219042319,0.15987287069786615,12.968937328331647,-23.013634426479346,4.189558576872447,420.0,96.0,-104.0
1,2021-07-02 11:01:04.537,6784537,0.4209443548040357,-10.511096219042319,0.15987287069786615,12.968937328331647,-23.013634426479346,4.189558576872447,420.0,96.0,-104.0
1,2021-07-02 11:01:04.549,6784549,0.4352750240497421,-10.477486870349663,0.15987287069786615,12.760464941512186,-23.044464210047366,4.242562959838113,420.0,96.0,-104.0
1,2021-07-02 11:01:04.563,6784563,0.4687132522897231,-10.477486870349663,0.016786979279800253,12.5211077566454,-22.9442674134513,4.295567342803778,430.0,92.0,-102.0
1,2021-07-02 11:01:04.576,6784576,0.4687132522897231,-10.477486870349663,0.016786979279800253,12.5211077566454,-22.9442674134513,4.295567342803778,430.0,92.0,-102.0
1,2021-07-02 11:01:04.586,6784586,0.4973745907811355,-10.44387752165701,-0.026138788145619297,12.505665357621735,-22.874900400423257,4.40157610873511,430.0,92.0,-102.0
1,2021-07-02 11:01:04.602,6784602,0.4687132522897231,-10.424672179546924,-0.016599728717748383,12.636925749322877,-22.813240833287217,4.530301038794585,430.0,92.0,-102.0
1,2021-07-02 11:01:04.614,6784614,0.4687132522897231,-10.424672179546924,-0.016599728717748383,12.636925749322877,-22.813240833287217,4.530301038794585,430.0,92.0,-102.0
1,2021-07-02 11:01:04.622,6784622,0.4782670317868604,-10.453480192712053,-0.04044737728742611,12.76818614102402,-22.77470360382719,4.57573336705087,430.0,92.0,-102.0
1,2021-07-02 11:01:04.629,6784629,0.4782670317868604,-10.453480192712053,-0.04044737728742611,12.76818614102402,-22.77470360382719,4.57573336705087,430.0,92.0,-102.0
1,2021-07-02 11:01:04.638,6784638,0.4782670317868604,-10.453480192712053,-0.04044737728742611,12.76818614102402,-22.77470360382719,4.57573336705087,430.0,92.0,-102.0
1,2021-07-02 11:01:04.649,6784649,0.4687132522897231,-10.453480192712053,-0.049986436715297025,12.698695345417532,-22.72845892847516,4.65902596885406,430.0,92.0,-102.0
1,2021-07-02 11:01:04.658,6784658,0.4687132522897231,-10.453480192712053,-0.049986436715297025,12.698695345417532,-22.72845892847516,4.65902596885406,430.0,92.0,-102.0
1,2021-07-02 11:01:04.669,6784669,0.46393636254115445,-10.46788419929462,-0.049986436715297025,12.667810547370204,-22.643677023663106,4.727174461238488,430.0,92.0,-102.0
1,2021-07-02 11:01:04.683,6784683,0.46393636254115445,-10.429473515074443,-0.026138788145619297,12.598319751763718,-22.62055468598709,4.825611172460438,419.0,97.0,-101.0
1,2021-07-02 11:01:04.696,6784696,0.46393636254115445,-10.429473515074443,-0.026138788145619297,12.598319751763718,-22.62055468598709,4.825611172460438,419.0,97.0,-101.0
1,2021-07-02 11:01:04.706,6784706,0.4878208112839982,-10.4198708440194,0.016786979279800253,12.636925749322877,-22.589724902419075,4.901331719554247,419.0,97.0,-101.0
1,2021-07-02 11:01:04.718,6784718,0.5117052600268419,-10.424672179546924,-0.011830199003812927,12.760464941512186,-22.49723555171501,4.969480211938675,419.0,97.0,-101.0
1,2021-07-02 11:01:04.732,6784732,0.5117052600268419,-10.424672179546924,-0.011830199003812927,12.760464941512186,-22.49723555171501,4.969480211938675,419.0,97.0,-101.0
1,2021-07-02 11:01:04.745,6784745,0.5355897087696851,-10.458281528239576,0.031095568421607066,12.721858943953029,-22.466405768146995,5.09820514199815,419.0,97.0,-101.0
1,2021-07-02 11:01:04.755,6784755,0.5355897087696851,-10.458281528239576,0.031095568421607066,12.721858943953029,-22.466405768146995,5.09820514199815,419.0,97.0,-101.0
1,2021-07-02 11:01:04.766,6784766,0.4878208112839982,-10.415069508491879,0.10740804384457525,12.675531746882037,-22.373916417442935,5.211785962638863,419.0,97.0,-101.0
1,2021-07-02 11:01:04.776,6784776,0.4878208112839982,-10.415069508491879,0.10740804384457525,12.675531746882037,-22.373916417442935,5.211785962638863,419.0,97.0,-101.0
1,2021-07-02 11:01:04.784,6784784,0.49259770103256684,-10.405466837436833,0.16941193012573752,12.675531746882037,-22.28913451263088,5.287506509732672,419.0,97.0,-101.0
1,2021-07-02 11:01:04.792,6784792,0.49259770103256684,-10.405466837436833,0.16941193012573752,12.675531746882037,-22.28913451263088,5.287506509732672,419.0,97.0,-101.0
1,2021-07-02 11:01:04.802,6784802,0.5021514805297042,-10.405466837436833,0.11694710327244662,12.60604095127555,-22.258304729062857,5.3177947285701945,419.0,97.0,-101.0
1,2021-07-02 11:01:04.817,6784817,0.5021514805297042,-10.405466837436833,0.11694710327244662,12.60604095127555,-22.258304729062857,5.3177947285701945,419.0,97.0,-101.0
1,2021-07-02 11:01:04.824,6784824,0.4830439215354291,-10.400665501909314,0.20756816783722162,12.551992554692728,-22.235182391386843,5.438947603920289,424.0,110.0,-86.0
1,2021-07-02 11:01:04.831,6784831,0.4830439215354291,-10.400665501909314,0.20756816783722162,12.551992554692728,-22.235182391386843,5.438947603920289,424.0,110.0,-86.0
1,2021-07-02 11:01:04.837,6784837,0.4830439215354291,-10.400665501909314,0.20756816783722162,12.551992554692728,-22.235182391386843,5.438947603920289,424.0,110.0,-86.0
1,2021-07-02 11:01:04.844,6784844,0.5212590395239792,-10.386261495326746,0.3220368809716743,12.582877352740054,-22.196645161926817,5.522240205723478,424.0,110.0,-86.0
1,2021-07-02 11:01:04.850,6784850,0.5212590395239792,-10.386261495326746,0.3220368809716743,12.582877352740054,-22.196645161926817,5.522240205723478,424.0,110.0,-86.0
1,2021-07-02 11:01:04.857,6784857,0.5212590395239792,-10.386261495326746,0.3220368809716743,12.582877352740054,-22.196645161926817,5.522240205723478,424.0,110.0,-86.0
1,2021-07-02 11:01:04.863,6784863,0.5308128190211165,-10.405466837436833,0.2886501729741257,12.490222958598073,-22.11957070300677,5.63582102636419,424.0,110.0,-86.0
1,2021-07-02 11:01:04.871,6784871,0.5308128190211165,-10.405466837436833,0.2886501729741257,12.490222958598073,-22.11957070300677,5.63582102636419,424.0,110.0,-86.0
1,2021-07-02 11:01:04.879,6784879,0.5403665985182543,-10.391062830854269,0.29341970268806117,12.459338160550745,-22.09644836533075,5.703969518748618,424.0,110.0,-86.0
1,2021-07-02 11:01:04.885,6784885,0.5403665985182543,-10.391062830854269,0.29341970268806117,12.459338160550745,-22.09644836533075,5.703969518748618,424.0,110.0,-86.0
1,2021-07-02 11:01:04.893,6784893,0.5403665985182543,-10.391062830854269,0.29341970268806117,12.459338160550745,-22.09644836533075,5.703969518748618,424.0,110.0,-86.0
1,2021-07-02 11:01:04.901,6784901,0.5164821497754105,-10.391062830854269,0.307728291829868,12.374404965920593,-22.02708135230271,5.825122394098711,424.0,110.0,-86.0
1,2021-07-02 11:01:04.908,6784908,0.5164821497754105,-10.391062830854269,0.307728291829868,12.374404965920593,-22.02708135230271,5.825122394098711,424.0,110.0,-86.0
1,2021-07-02 11:01:04.915,6784915,0.5164821497754105,-10.391062830854269,0.307728291829868,12.374404965920593,-22.02708135230271,5.825122394098711,424.0,110.0,-86.0
1,2021-07-02 11:01:04.923,6784923,0.5212590395239792,-10.357453482161615,0.31726735125773886,12.28175057177861,-21.942299447490655,5.900842941192521,424.0,110.0,-86.0
1,2021-07-02 11:01:04.929,6784929,0.5212590395239792,-10.357453482161615,0.31726735125773886,12.28175057177861,-21.942299447490655,5.900842941192521,424.0,110.0,-86.0
1,2021-07-02 11:01:04.935,6784935,0.5212590395239792,-10.357453482161615,0.31726735125773886,12.28175057177861,-21.942299447490655,5.900842941192521,424.0,110.0,-86.0
1,2021-07-02 11:01:04.941,6784941,0.4973745907811355,-10.37185748874418,0.38404076725283615,12.266308172754949,-21.91917710981464,6.006851707123853,419.0,113.0,-85.0
1,2021-07-02 11:01:04.947,6784947,0.4973745907811355,-10.37185748874418,0.38404076725283615,12.266308172754949,-21.91917710981464,6.006851707123853,419.0,113.0,-85.0
1,2021-07-02 11:01:04.954,6784954,0.4973745907811355,-10.37185748874418,0.38404076725283615,12.266308172754949,-21.91917710981464,6.006851707123853,419.0,113.0,-85.0
1,2021-07-02 11:01:04.962,6784962,0.5164821497754105,-10.391062830854269,0.34588452954135207,12.204538576660294,-21.88834732624662,6.1431486918927085,419.0,113.0,-85.0
1,2021-07-02 11:01:04.969,6784969,0.5164821497754105,-10.391062830854269,0.34588452954135207,12.204538576660294,-21.88834732624662,6.1431486918927085,419.0,113.0,-85.0
1,2021-07-02 11:01:04.975,6784975,0.5164821497754105,-10.391062830854269,0.34588452954135207,12.204538576660294,-21.88834732624662,6.1431486918927085,419.0,113.0,-85.0
1,2021-07-02 11:01:04.983,6784983,0.4782670317868604,-10.37185748874418,0.31726735125773886,12.14276898056564,-21.818980313218574,6.256729512533421,419.0,113.0,-85.0
1,2021-07-02 11:01:04.988,6784988,0.4782670317868604,-10.37185748874418,0.31726735125773886,12.14276898056564,-21.818980313218574,6.256729512533421,419.0,113.0,-85.0
1,2021-07-02 11:01:04.997,6784997,0.4782670317868604,-10.37185748874418,0.31726735125773886,12.14276898056564,-21.818980313218574,6.256729512533421,419.0,113.0,-85.0
1,2021-07-02 11:01:05.003,6785003,0.5355897087696851,-10.391062830854269,0.3411149998274166,12.011508588864498,-21.73419840840652,6.317305950208468,419.0,113.0,-85.0
1,2021-07-02 11:01:05.011,6785011,0.5355897087696851,-10.391062830854269,0.3411149998274166,12.011508588864498,-21.73419840840652,6.317305950208468,419.0,113.0,-85.0
1,2021-07-02 11:01:05.019,6785019,0.49259770103256684,-10.37185748874418,0.355423588969223,11.803036202045037,-21.68795373305449,6.34002211433661,419.0,113.0,-85.0
1,2021-07-02 11:01:05.027,6785027,0.49259770103256684,-10.37185748874418,0.355423588969223,11.803036202045037,-21.68795373305449,6.34002211433661,419.0,113.0,-85.0
1,2021-07-02 11:01:05.033,6785033,0.49259770103256684,-10.37185748874418,0.355423588969223,11.803036202045037,-21.68795373305449,6.34002211433661,419.0,113.0,-85.0
1,2021-07-02 11:01:05.039,6785039,0.49259770103256684,-10.37185748874418,0.355423588969223,11.803036202045037,-21.68795373305449,6.34002211433661,419.0,113.0,-85.0
1,2021-07-02 11:01:05.046,6785046,0.5260359292725478,-10.37185748874418,0.2600329946905125,11.656333411320233,-21.664831395378474,6.430886770849181,419.0,113.0,-85.0
1,2021-07-02 11:01:05.054,6785054,0.5260359292725478,-10.37185748874418,0.2600329946905125,11.656333411320233,-21.664831395378474,6.430886770849181,419.0,113.0,-85.0
1,2021-07-02 11:01:05.061,6785061,0.4782670317868604,-10.357453482161615,0.18849004898147934,11.60228501473741,-21.556927152890406,6.521751427361751,424.0,112.0,-80.0
1,2021-07-02 11:01:05.069,6785069,0.4782670317868604,-10.357453482161615,0.18849004898147934,11.60228501473741,-21.556927152890406,6.521751427361751,424.0,112.0,-80.0
1,2021-07-02 11:01:05.074,6785074,0.4782670317868604,-10.357453482161615,0.18849004898147934,11.60228501473741,-21.556927152890406,6.521751427361751,424.0,112.0,-80.0
1,2021-07-02 11:01:05.082,6785082,0.5164821497754105,-10.362254817689136,0.22187675697902842,11.571400216690083,-21.510682477538378,6.567183755618037,424.0,112.0,-80.0
1,2021-07-02 11:01:05.090,6785090,0.5164821497754105,-10.362254817689136,0.22187675697902842,11.571400216690083,-21.510682477538378,6.567183755618037,424.0,112.0,-80.0
1,2021-07-02 11:01:05.097,6785097,0.5164821497754105,-10.362254817689136,0.22187675697902842,11.571400216690083,-21.510682477538378,6.567183755618037,424.0,112.0,-80.0
1,2021-07-02 11:01:05.104,6785104,0.4782670317868604,-10.367056153216659,0.2361853461208348,11.486467022059932,-21.479852693970354,6.559611700908655,424.0,112.0,-80.0
1,2021-07-02 11:01:05.112,6785112,0.4782670317868604,-10.367056153216659,0.2361853461208348,11.486467022059932,-21.479852693970354,6.559611700908655,424.0,112.0,-80.0
1,2021-07-02 11:01:05.120,6785120,0.5451434882668229,-10.381460159799223,0.15987287069786615,11.39381262791795,-21.410485680942312,6.680764576258749,424.0,112.0,-80.0
1,2021-07-02 11:01:05.125,6785125,0.5451434882668229,-10.381460159799223,0.15987287069786615,11.39381262791795,-21.410485680942312,6.680764576258749,424.0,112.0,-80.0
1,2021-07-02 11:01:05.133,6785133,0.5451434882668229,-10.381460159799223,0.15987287069786615,11.39381262791795,-21.410485680942312,6.680764576258749,424.0,112.0,-80.0
1,2021-07-02 11:01:05.141,6785141,0.47349014203829176,-10.34785081110657,0.11217757355851116,11.347485430846959,-21.371948451482286,6.748913068643176,424.0,112.0,-80.0
1,2021-07-02 11:01:05.148,6785148,0.47349014203829176,-10.34785081110657,0.11217757355851116,11.347485430846959,-21.371948451482286,6.748913068643176,424.0,112.0,-80.0
1,2021-07-02 11:01:05.157,6785157,0.47349014203829176,-10.34785081110657,0.11217757355851116,11.347485430846959,-21.371948451482286,6.748913068643176,424.0,112.0,-80.0
1,2021-07-02 11:01:05.164,6785164,0.5499203780153916,-10.319042797941439,0.14079475184212434,11.378370228894287,-21.27175165488622,6.877637998702651,424.0,112.0,-80.0
1,2021-07-02 11:01:05.169,6785169,0.5499203780153916,-10.319042797941439,0.14079475184212434,11.378370228894287,-21.27175165488622,6.877637998702651,424.0,112.0,-80.0
1,2021-07-02 11:01:05.176,6785176,0.5499203780153916,-10.319042797941439,0.14079475184212434,11.378370228894287,-21.27175165488622,6.877637998702651,424.0,112.0,-80.0
1,2021-07-02 11:01:05.184,6785184,0.5021514805297042,-10.333446804524005,0.16941193012573752,11.540515418642755,-21.233214425426198,6.976074709924602,438.0,108.0,-76.0
1,2021-07-02 11:01:05.191,6785191,0.5021514805297042,-10.333446804524005,0.16941193012573752,11.540515418642755,-21.233214425426198,6.976074709924602,438.0,108.0,-76.0
1,2021-07-02 11:01:05.199,6785199,0.5021514805297042,-10.333446804524005,0.16941193012573752,11.540515418642755,-21.233214425426198,6.976074709924602,438.0,108.0,-76.0
1,2021-07-02 11:01:05.206,6785206,0.4878208112839982,-10.338248140051526,0.1980291084093507,11.548236618154586,-21.11760273704612,7.006362928762126,438.0,108.0,-76.0
1,2021-07-02 11:01:05.213,6785213,0.4878208112839982,-10.338248140051526,0.1980291084093507,11.548236618154586,-21.11760273704612,7.006362928762126,438.0,108.0,-76.0
1,2021-07-02 11:01:05.220,6785220,0.49259770103256684,-10.328645468996484,0.16941193012573752,11.555957817666417,-21.11760273704612,7.082083475855934,438.0,108.0,-76.0
1,2021-07-02 11:01:05.226,6785226,0.49259770103256684,-10.328645468996484,0.16941193012573752,11.555957817666417,-21.11760273704612,7.082083475855934,438.0,108.0,-76.0
1,2021-07-02 11:01:05.233,6785233,0.49259770103256684,-10.328645468996484,0.16941193012573752,11.555957817666417,-21.11760273704612,7.082083475855934,438.0,108.0,-76.0
1,2021-07-02 11:01:05.242,6785242,0.4973745907811355,-10.304638791358874,0.20756816783722162,11.532794219130922,-21.00969849455805,7.1199437494028395,438.0,108.0,-76.0
1,2021-07-02 11:01:05.248,6785248,0.4973745907811355,-10.304638791358874,0.20756816783722162,11.532794219130922,-21.00969849455805,7.1199437494028395,438.0,108.0,-76.0
1,2021-07-02 11:01:05.255,6785255,0.4973745907811355,-10.304638791358874,0.20756816783722162,11.532794219130922,-21.00969849455805,7.1199437494028395,438.0,108.0,-76.0
1,2021-07-02 11:01:05.261,6785261,0.5164821497754105,-10.285433449248785,0.07402133584702662,11.555957817666417,-20.924916589745997,7.203236351206028,438.0,108.0,-76.0
1,2021-07-02 11:01:05.266,6785266,0.5164821497754105,-10.285433449248785,0.07402133584702662,11.555957817666417,-20.924916589745997,7.203236351206028,438.0,108.0,-76.0
1,2021-07-02 11:01:05.271,6785271,0.5164821497754105,-10.285433449248785,0.07402133584702662,11.555957817666417,-20.924916589745997,7.203236351206028,438.0,108.0,-76.0
1,2021-07-02 11:01:05.278,6785278,0.5164821497754105,-10.285433449248785,0.07402133584702662,11.555957817666417,-20.924916589745997,7.203236351206028,438.0,108.0,-76.0
1,2021-07-02 11:01:05.287,6785287,0.5164821497754105,-10.352652146634094,0.08356039527489798,11.818478601068701,-20.863257022609957,7.210808405915409,438.0,108.0,-76.0
1,2021-07-02 11:01:05.293,6785293,0.5164821497754105,-10.352652146634094,0.08356039527489798,11.818478601068701,-20.863257022609957,7.210808405915409,438.0,108.0,-76.0
1,2021-07-02 11:01:05.300,6785300,0.5260359292725478,-10.34785081110657,0.016786979279800253,11.895690596187018,-20.770767671905897,7.294101007718599,438.0,108.0,-76.0
1,2021-07-02 11:01:05.305,6785305,0.5260359292725478,-10.34785081110657,0.016786979279800253,11.895690596187018,-20.770767671905897,7.294101007718599,438.0,108.0,-76.0
1,2021-07-02 11:01:05.310,6785310,0.5260359292725478,-10.34785081110657,0.016786979279800253,11.895690596187018,-20.770767671905897,7.294101007718599,438.0,108.0,-76.0
1,2021-07-02 11:01:05.315,6785315,0.5260359292725478,-10.34785081110657,0.016786979279800253,11.895690596187018,-20.770767671905897,7.294101007718599,438.0,108.0,-76.0
1,2021-07-02 11:01:05.320,6785320,0.5260359292725478,-10.319042797941439,0.1026385141306398,11.779872603509542,-20.716815550661863,7.301673062427979,441.0,115.0,-73.0
1,2021-07-02 11:01:05.326,6785326,0.5260359292725478,-10.319042797941439,0.1026385141306398,11.779872603509542,-20.716815550661863,7.301673062427979,441.0,115.0,-73.0
1,2021-07-02 11:01:05.335,6785335,0.5260359292725478,-10.319042797941439,0.1026385141306398,11.779872603509542,-20.716815550661863,7.301673062427979,441.0,115.0,-73.0
1,2021-07-02 11:01:05.340,6785340,0.5164821497754105,-10.314241462413916,0.045404157563413435,11.656333411320233,-20.655155983525823,7.3471053906842645,441.0,115.0,-73.0
1,2021-07-02 11:01:05.347,6785347,0.5164821497754105,-10.314241462413916,0.045404157563413435,11.656333411320233,-20.655155983525823,7.3471053906842645,441.0,115.0,-73.0
1,2021-07-02 11:01:05.354,6785354,0.5164821497754105,-10.314241462413916,0.045404157563413435,11.656333411320233,-20.655155983525823,7.3471053906842645,441.0,115.0,-73.0
1,2021-07-02 11:01:05.359,6785359,0.5499203780153916,-10.352652146634094,0.007247919851929341,11.56367901717825,-20.524129403361737,7.415253883068693,441.0,115.0,-73.0
1,2021-07-02 11:01:05.368,6785368,0.5499203780153916,-10.352652146634094,0.007247919851929341,11.56367901717825,-20.524129403361737,7.415253883068693,441.0,115.0,-73.0
1,2021-07-02 11:01:05.373,6785373,0.5499203780153916,-10.352652146634094,0.007247919851929341,11.56367901717825,-20.524129403361737,7.415253883068693,441.0,115.0,-73.0
1,2021-07-02 11:01:05.380,6785380,0.5403665985182543,-10.376658824271704,-0.07383408528497475,11.478745822548099,-20.42393260676567,7.4909744301625,441.0,115.0,-73.0
1,2021-07-02 11:01:05.386,6785386,0.5403665985182543,-10.376658824271704,-0.07383408528497475,11.478745822548099,-20.42393260676567,7.4909744301625,441.0,115.0,-73.0
1,2021-07-02 11:01:05.393,6785393,0.5403665985182543,-10.376658824271704,-0.07383408528497475,11.478745822548099,-20.42393260676567,7.4909744301625,441.0,115.0,-73.0
1,2021-07-02 11:01:05.401,6785401,0.5546972677639602,-10.37185748874418,-0.07383408528497475,11.370649029382454,-20.35456559373763,7.619699360221975,441.0,115.0,-73.0
1,2021-07-02 11:01:05.409,6785409,0.5546972677639602,-10.37185748874418,-0.07383408528497475,11.370649029382454,-20.35456559373763,7.619699360221975,441.0,115.0,-73.0
1,2021-07-02 11:01:05.416,6785416,0.5546972677639602,-10.37185748874418,-0.07383408528497475,11.370649029382454,-20.35456559373763,7.619699360221975,441.0,115.0,-73.0
1,2021-07-02 11:01:05.422,6785422,0.5546972677639602,-10.37185748874418,-0.05475596642923292,11.216225039145817,-20.246661351249557,7.755996344990831,441.0,115.0,-73.0
1,2021-07-02 11:01:05.429,6785429,0.5546972677639602,-10.37185748874418,-0.05475596642923292,11.216225039145817,-20.246661351249557,7.755996344990831,441.0,115.0,-73.0
1,2021-07-02 11:01:05.435,6785435,0.5546972677639602,-10.37185748874418,-0.05475596642923292,11.216225039145817,-20.246661351249557,7.755996344990831,441.0,115.0,-73.0
1,2021-07-02 11:01:05.440,6785440,0.5499203780153916,-10.367056153216659,0.0024783901379938846,11.030916250861853,-20.161879446437503,7.763568399700212,447.0,121.0,-65.0
1,2021-07-02 11:01:05.448,6785448,0.5499203780153916,-10.367056153216659,0.0024783901379938846,11.030916250861853,-20.161879446437503,7.763568399700212,447.0,121.0,-65.0
1,2021-07-02 11:01:05.456,6785456,0.5499203780153916,-10.367056153216659,0.0024783901379938846,11.030916250861853,-20.161879446437503,7.763568399700212,447.0,121.0,-65.0
1,2021-07-02 11:01:05.463,6785463,0.5594741575125289,-10.357453482161615,-0.06429502585710384,10.675741073317589,-20.061682649841437,7.755996344990831,447.0,121.0,-65.0
1,2021-07-02 11:01:05.469,6785469,0.5594741575125289,-10.357453482161615,-0.06429502585710384,10.675741073317589,-20.061682649841437,7.755996344990831,447.0,121.0,-65.0
1,2021-07-02 11:01:05.474,6785474,0.5594741575125289,-10.357453482161615,-0.06429502585710384,10.675741073317589,-20.061682649841437,7.755996344990831,447.0,121.0,-65.0
1,2021-07-02 11:01:05.481,6785481,0.5785817165068039,-10.338248140051526,-0.17876373899155656,10.39005669137981,-19.961485853245374,7.809000727956496,447.0,121.0,-65.0
1,2021-07-02 11:01:05.489,6785489,0.5785817165068039,-10.338248140051526,-0.17876373899155656,10.39005669137981,-19.961485853245374,7.809000727956496,447.0,121.0,-65.0
1,2021-07-02 11:01:05.498,6785498,0.5785817165068039,-10.338248140051526,-0.17876373899155656,10.39005669137981,-19.961485853245374,7.809000727956496,447.0,121.0,-65.0
1,2021-07-02 11:01:05.506,6785506,0.5929123857525099,-10.299837455831351,-0.14060750128007246,10.397777890891641,-19.861289056649312,7.83171689208464,447.0,121.0,-65.0
1,2021-07-02 11:01:05.512,6785512,0.5929123857525099,-10.299837455831351,-0.14060750128007246,10.397777890891641,-19.861289056649312,7.83171689208464,447.0,121.0,-65.0
1,2021-07-02 11:01:05.519,6785519,0.5833586062553726,-10.343049475579049,-0.035677847573490656,10.467268686498127,-19.714847584701214,7.816572782665878,447.0,121.0,-65.0
1,2021-07-02 11:01:05.526,6785526,0.5833586062553726,-10.343049475579049,-0.035677847573490656,10.467268686498127,-19.714847584701214,7.816572782665878,447.0,121.0,-65.0
1,2021-07-02 11:01:05.533,6785533,0.5833586062553726,-10.343049475579049,-0.035677847573490656,10.467268686498127,-19.714847584701214,7.816572782665878,447.0,121.0,-65.0
1,2021-07-02 11:01:05.541,6785541,0.5594741575125289,-10.357453482161615,-0.011830199003812927,10.251075100166835,-19.645480571673172,7.877149220340924,447.0,121.0,-65.0
1,2021-07-02 11:01:05.548,6785548,0.5594741575125289,-10.357453482161615,-0.011830199003812927,10.251075100166835,-19.645480571673172,7.877149220340924,447.0,121.0,-65.0
1,2021-07-02 11:01:05.555,6785555,0.5594741575125289,-10.357453482161615,-0.011830199003812927,10.251075100166835,-19.645480571673172,7.877149220340924,447.0,121.0,-65.0
1,2021-07-02 11:01:05.562,6785562,0.5738048267582353,-10.319042797941439,-0.05475596642923292,10.01171791530005,-19.514453991509082,7.92258154859721,445.0,121.0,-65.0
1,2021-07-02 11:01:05.569,6785569,0.5738048267582353,-10.319042797941439,-0.05475596642923292,10.01171791530005,-19.514453991509082,7.92258154859721,445.0,121.0,-65.0
1,2021-07-02 11:01:05.576,6785576,0.5738048267582353,-10.319042797941439,-0.05475596642923292,10.01171791530005,-19.514453991509082,7.92258154859721,445.0,121.0,-65.0
1,2021-07-02 11:01:05.584,6785584,0.5499203780153916,-10.251824100556131,-0.11199032299645928,9.872736324087075,-19.421964640805026,7.952869767434734,445.0,121.0,-65.0
1,2021-07-02 11:01:05.591,6785591,0.5499203780153916,-10.251824100556131,-0.11199032299645928,9.872736324087075,-19.421964640805026,7.952869767434734,445.0,121.0,-65.0
1,2021-07-02 11:01:05.599,6785599,0.5499203780153916,-10.251824100556131,-0.11199032299645928,9.872736324087075,-19.421964640805026,7.952869767434734,445.0,121.0,-65.0
1,2021-07-02 11:01:05.605,6785605,0.5881354960039412,-10.251824100556131,0.03586509813554252,9.903621122134403,-19.30635295242495,8.01344620510978,445.0,121.0,-65.0
1,2021-07-02 11:01:05.612,6785612,0.5881354960039412,-10.251824100556131,0.03586509813554252,9.903621122134403,-19.30635295242495,8.01344620510978,445.0,121.0,-65.0
1,2021-07-02 11:01:05.616,6785616,0.5881354960039412,-10.251824100556131,0.03586509813554252,9.903621122134403,-19.30635295242495,8.01344620510978,445.0,121.0,-65.0
1,2021-07-02 11:01:05.623,6785623,0.6167968344953536,-10.271029442666219,0.0024783901379938846,9.996275516276384,-19.206156155828886,8.089166752203589,445.0,121.0,-65.0
1,2021-07-02 11:01:05.628,6785628,0.6167968344953536,-10.271029442666219,0.0024783901379938846,9.996275516276384,-19.206156155828886,8.089166752203589,445.0,121.0,-65.0
1,2021-07-02 11:01:05.632,6785632,0.6167968344953536,-10.271029442666219,0.0024783901379938846,9.996275516276384,-19.206156155828886,8.089166752203589,445.0,121.0,-65.0
1,2021-07-02 11:01:05.638,6785638,0.6167968344953536,-10.271029442666219,0.0024783901379938846,9.996275516276384,-19.206156155828886,8.089166752203589,445.0,121.0,-65.0
1,2021-07-02 11:01:05.643,6785643,0.5881354960039412,-10.271029442666219,0.045404157563413435,10.027160314323712,-19.15220403458485,8.066450588075446,445.0,121.0,-65.0
1,2021-07-02 11:01:05.650,6785650,0.5881354960039412,-10.271029442666219,0.045404157563413435,10.027160314323712,-19.15220403458485,8.066450588075446,445.0,121.0,-65.0
1,2021-07-02 11:01:05.657,6785657,0.5881354960039412,-10.271029442666219,0.045404157563413435,10.027160314323712,-19.15220403458485,8.066450588075446,445.0,121.0,-65.0
1,2021-07-02 11:01:05.667,6785667,0.6024661652496477,-10.247022765028609,0.06925180613309116,9.93450592018173,-19.036592346204777,8.142171135169255,445.0,121.0,-65.0
1,2021-07-02 11:01:05.674,6785674,0.6024661652496477,-10.247022765028609,0.06925180613309116,9.93450592018173,-19.036592346204777,8.142171135169255,445.0,121.0,-65.0
1,2021-07-02 11:01:05.681,6785681,0.597689275501079,-10.232618758446044,0.17895098955360844,9.903621122134403,-18.959517887284726,8.248179901100587,437.0,125.0,-57.0
1,2021-07-02 11:01:05.688,6785688,0.597689275501079,-10.232618758446044,0.17895098955360844,9.903621122134403,-18.959517887284726,8.248179901100587,437.0,125.0,-57.0
1,2021-07-02 11:01:05.695,6785695,0.597689275501079,-10.232618758446044,0.17895098955360844,9.903621122134403,-18.959517887284726,8.248179901100587,437.0,125.0,-57.0
1,2021-07-02 11:01:05.703,6785703,0.5738048267582353,-10.213413416335955,0.15033381126999526,9.942227119693563,-18.913273211932697,8.293612229356873,437.0,125.0,-57.0
1,2021-07-02 11:01:05.710,6785710,0.5738048267582353,-10.213413416335955,0.15033381126999526,9.942227119693563,-18.913273211932697,8.293612229356873,437.0,125.0,-57.0
1,2021-07-02 11:01:05.717,6785717,0.5738048267582353,-10.213413416335955,0.15033381126999526,9.942227119693563,-18.913273211932697,8.293612229356873,437.0,125.0,-57.0
1,2021-07-02 11:01:05.724,6785724,0.5929123857525099,-10.165400061060735,0.24095487583477027,10.042602713347375,-18.728294510524577,8.339044557613157,437.0,125.0,-57.0
1,2021-07-02 11:01:05.731,6785731,0.5929123857525099,-10.165400061060735,0.24095487583477027,10.042602713347375,-18.728294510524577,8.339044557613157,437.0,125.0,-57.0
1,2021-07-02 11:01:05.738,6785738,0.5929123857525099,-10.165400061060735,0.24095487583477027,10.042602713347375,-18.728294510524577,8.339044557613157,437.0,125.0,-57.0
1,2021-07-02 11:01:05.744,6785744,0.6072430549982163,-10.208612080808434,0.2457244055487057,10.150699506513021,-18.689757281064555,8.376904831160061,437.0,125.0,-57.0
1,2021-07-02 11:01:05.751,6785751,0.6072430549982163,-10.208612080808434,0.2457244055487057,10.150699506513021,-18.689757281064555,8.376904831160061,437.0,125.0,-57.0
1,2021-07-02 11:01:05.757,6785757,0.6072430549982163,-10.208612080808434,0.2457244055487057,10.150699506513021,-18.689757281064555,8.376904831160061,437.0,125.0,-57.0
1,2021-07-02 11:01:05.766,6785766,0.6502350627353352,-10.232618758446044,0.29818923240199663,10.158420706024854,-18.574145592684477,8.467769487672632,437.0,125.0,-57.0
1,2021-07-02 11:01:05.773,6785773,0.6502350627353352,-10.232618758446044,0.29818923240199663,10.158420706024854,-18.574145592684477,8.467769487672632,437.0,125.0,-57.0
1,2021-07-02 11:01:05.780,6785780,0.6167968344953536,-10.208612080808434,0.3745017078249652,10.073487511394704,-18.443119012520395,8.566206198894582,437.0,125.0,-57.0
1,2021-07-02 11:01:05.787,6785787,0.6167968344953536,-10.208612080808434,0.3745017078249652,10.073487511394704,-18.443119012520395,8.566206198894582,437.0,125.0,-57.0
1,2021-07-02 11:01:05.795,6785795,0.6167968344953536,-10.208612080808434,0.3745017078249652,10.073487511394704,-18.443119012520395,8.566206198894582,437.0,125.0,-57.0
1,2021-07-02 11:01:05.802,6785802,0.597689275501079,-10.179804067643301,0.4078884158225139,10.003996715788217,-18.366044553600343,8.62678263656963,437.0,125.0,-57.0
1,2021-07-02 11:01:05.809,6785809,0.597689275501079,-10.179804067643301,0.4078884158225139,10.003996715788217,-18.366044553600343,8.62678263656963,437.0,125.0,-57.0
1,2021-07-02 11:01:05.814,6785814,0.597689275501079,-10.179804067643301,0.4078884158225139,10.003996715788217,-18.366044553600343,8.62678263656963,437.0,125.0,-57.0
1,2021-07-02 11:01:05.819,6785819,0.5833586062553726,-10.194208074225868,0.4221970049643207,9.857293925063411,-18.28126264878829,8.7176472930822,437.0,125.0,-57.0
1,2021-07-02 11:01:05.825,6785825,0.5833586062553726,-10.194208074225868,0.4221970049643207,9.857293925063411,-18.28126264878829,8.7176472930822,438.0,136.0,-54.0
1,2021-07-02 11:01:05.837,6785837,0.5833586062553726,-10.194208074225868,0.4221970049643207,9.857293925063411,-18.28126264878829,8.7176472930822,438.0,136.0,-54.0
1,2021-07-02 11:01:05.848,6785848,0.5881354960039412,-10.194208074225868,0.36496264839709436,9.749197131897766,-18.211895635760243,8.747935511919723,438.0,136.0,-54.0
1,2021-07-02 11:01:05.860,6785860,0.5785817165068039,-10.184605403170824,0.4078884158225139,9.633379139220287,-18.103991393272175,8.740363457210341,438.0,136.0,-54.0
1,2021-07-02 11:01:05.871,6785871,0.5785817165068039,-10.184605403170824,0.4078884158225139,9.633379139220287,-18.103991393272175,8.740363457210341,438.0,136.0,-54.0
1,2021-07-02 11:01:05.884,6785884,0.597689275501079,-10.160598725533214,0.45558371296186934,9.55616714410197,-18.034624380244132,8.846372223141675,438.0,136.0,-54.0
1,2021-07-02 11:01:05.898,6785898,0.597689275501079,-10.160598725533214,0.45558371296186934,9.55616714410197,-18.034624380244132,8.846372223141675,438.0,136.0,-54.0
1,2021-07-02 11:01:05.910,6785910,0.5929123857525099,-10.194208074225868,0.3745017078249652,9.486676348495482,-17.949842475432078,8.869088387269816,438.0,136.0,-54.0
1,2021-07-02 11:01:05.925,6785925,0.5929123857525099,-10.179804067643301,0.34588452954135207,9.424906752400828,-17.89589035418804,8.952380989073006,438.0,136.0,-54.0
1,2021-07-02 11:01:05.937,6785937,0.5929123857525099,-10.179804067643301,0.34588452954135207,9.424906752400828,-17.89589035418804,8.952380989073006,438.0,136.0,-54.0
1,2021-07-02 11:01:05.950,6785950,0.5642510472610975,-10.175002732115779,0.3268064106856098,9.324531158747014,-17.749448882239946,8.97509715320115,443.0,137.0,-43.0
1,2021-07-02 11:01:05.961,6785961,0.5355897087696851,-10.213413416335955,0.38404076725283615,9.193270767045872,-17.656959531535886,8.99781331732929,443.0,137.0,-43.0
1,2021-07-02 11:01:05.976,6785976,0.5355897087696851,-10.213413416335955,0.38404076725283615,9.193270767045872,-17.656959531535886,8.99781331732929,443.0,137.0,-43.0
1,2021-07-02 11:01:05.989,6785989,0.5785817165068039,-10.247022765028609,0.31726735125773886,8.884422786572598,-17.54134784315581,9.096250028551243,443.0,137.0,-43.0
1,2021-07-02 11:01:05.998,6785998,0.5785817165068039,-10.247022765028609,0.31726735125773886,8.884422786572598,-17.54134784315581,9.096250028551243,443.0,137.0,-43.0
1,2021-07-02 11:01:06.009,6786009,0.5690279370096667,-10.189406738698345,0.23141581640689934,8.51380521000467,-17.525932951371804,9.103822083260624,443.0,137.0,-43.0
1,2021-07-02 11:01:06.025,6786025,0.5690279370096667,-10.194208074225868,0.17418145983967298,8.498362810981007,-17.471980830127766,9.103822083260624,443.0,137.0,-43.0
1,2021-07-02 11:01:06.036,6786036,0.5690279370096667,-10.194208074225868,0.17418145983967298,8.498362810981007,-17.471980830127766,9.103822083260624,443.0,137.0,-43.0
1,2021-07-02 11:01:06.050,6786050,0.5785817165068039,-10.199009409753389,0.2457244055487057,8.42887201537452,-17.31012446639566,9.171970575645052,443.0,137.0,-43.0
1,2021-07-02 11:01:06.063,6786063,0.5546972677639602,-10.194208074225868,0.22664628669296388,8.39026601781536,-17.163682994447566,9.187114685063813,437.0,133.0,-45.0
1,2021-07-02 11:01:06.076,6786076,0.5546972677639602,-10.194208074225868,0.22664628669296388,8.39026601781536,-17.163682994447566,9.187114685063813,437.0,133.0,-45.0
1,2021-07-02 11:01:06.088,6786088,0.5833586062553726,-10.184605403170824,0.20756816783722162,8.197236030019566,-17.09431598141952,9.187114685063813,437.0,133.0,-45.0
1,2021-07-02 11:01:06.100,6786100,0.6167968344953536,-10.17020139658826,0.09786898441670434,8.158630032460405,-16.98641173893145,9.262835232157622,437.0,133.0,-45.0
1,2021-07-02 11:01:06.113,6786113,0.6167968344953536,-10.17020139658826,0.09786898441670434,8.158630032460405,-16.98641173893145,9.262835232157622,437.0,133.0,-45.0
1,2021-07-02 11:01:06.126,6786126,0.5403665985182543,-10.150996054478169,0.17895098955360844,8.274448025137882,-16.824555375199346,9.285551396285765,437.0,133.0,-45.0
1,2021-07-02 11:01:06.139,6786139,0.5403665985182543,-10.150996054478169,0.17895098955360844,8.274448025137882,-16.824555375199346,9.285551396285765,437.0,133.0,-45.0
1,2021-07-02 11:01:06.152,6786152,0.5451434882668229,-10.150996054478169,0.15033381126999526,8.405708416839024,-16.73977347038729,9.315839615123288,437.0,133.0,-45.0
1,2021-07-02 11:01:06.164,6786164,0.5642510472610975,-10.189406738698345,0.16941193012573752,8.38254481830353,-16.654991565575237,9.353699888670192,437.0,133.0,-45.0
1,2021-07-02 11:01:06.178,6786178,0.5642510472610975,-10.189406738698345,0.16941193012573752,8.38254481830353,-16.654991565575237,9.353699888670192,437.0,133.0,-45.0
1,2021-07-02 11:01:06.190,6786190,0.6072430549982163,-10.184605403170824,0.09309945470276888,8.359381219768032,-16.52396498541115,9.444564545182763,449.0,137.0,-39.0
1,2021-07-02 11:01:06.200,6786200,0.597689275501079,-10.141393383423125,0.1455642815560598,8.506084010492838,-16.354401175787043,9.505140982857808,449.0,137.0,-39.0
1,2021-07-02 11:01:06.210,6786210,0.597689275501079,-10.141393383423125,0.1455642815560598,8.506084010492838,-16.354401175787043,9.505140982857808,449.0,137.0,-39.0
1,2021-07-02 11:01:06.226,6786226,0.5881354960039412,-10.150996054478169,0.2791111135462548,8.691392798776803,-16.261911825082986,9.51271303756719,449.0,137.0,-39.0
1,2021-07-02 11:01:06.239,6786239,0.5881354960039412,-10.150996054478169,0.2791111135462548,8.691392798776803,-16.261911825082986,9.51271303756719,449.0,137.0,-39.0
1,2021-07-02 11:01:06.248,6786248,0.5785817165068039,-10.150996054478169,0.2552634649765771,8.699113998288635,-16.138592690810906,9.550573311114094,449.0,137.0,-39.0
1,2021-07-02 11:01:06.259,6786259,0.5642510472610975,-10.194208074225868,0.22664628669296388,8.621902003170316,-16.022981002430832,9.580861529951619,449.0,137.0,-39.0
1,2021-07-02 11:01:06.274,6786274,0.5642510472610975,-10.194208074225868,0.22664628669296388,8.621902003170316,-16.022981002430832,9.580861529951619,449.0,137.0,-39.0
1,2021-07-02 11:01:06.288,6786288,0.5403665985182543,-10.155797390005691,0.2886501729741257,8.529247609028333,-15.922784205834766,9.618721803498522,449.0,137.0,-39.0
1,2021-07-02 11:01:06.297,6786297,0.5403665985182543,-10.155797390005691,0.2886501729741257,8.529247609028333,-15.922784205834766,9.618721803498522,449.0,137.0,-39.0
1,2021-07-02 11:01:06.306,6786306,0.5546972677639602,-10.150996054478169,0.38881029696677205,8.459756813421846,-15.830294855130704,9.671726186464188,441.0,149.0,-35.0
1,2021-07-02 11:01:06.315,6786315,0.5546972677639602,-10.150996054478169,0.38881029696677205,8.459756813421846,-15.830294855130704,9.671726186464188,441.0,149.0,-35.0
1,2021-07-02 11:01:06.323,6786323,0.6024661652496477,-10.175002732115779,0.398349356394643,8.313054022697042,-15.714683166750632,9.664154131754808,441.0,149.0,-35.0
1,2021-07-02 11:01:06.331,6786331,0.6024661652496477,-10.175002732115779,0.398349356394643,8.313054022697042,-15.714683166750632,9.664154131754808,441.0,149.0,-35.0
1,2021-07-02 11:01:06.338,6786338,0.6024661652496477,-10.175002732115779,0.398349356394643,8.313054022697042,-15.714683166750632,9.664154131754808,441.0,149.0,-35.0
1,2021-07-02 11:01:06.348,6786348,0.5785817165068039,-10.17020139658826,0.4126579455364498,8.127745234413077,-15.653023599614592,9.709586460011092,441.0,149.0,-35.0
1,2021-07-02 11:01:06.356,6786356,0.5785817165068039,-10.17020139658826,0.4126579455364498,8.127745234413077,-15.653023599614592,9.709586460011092,441.0,149.0,-35.0
1,2021-07-02 11:01:06.365,6786365,0.5785817165068039,-10.150996054478169,0.46512277238974026,7.896109249058123,-15.48345978999048,9.702014405301712,441.0,149.0,-35.0
1,2021-07-02 11:01:06.372,6786372,0.5785817165068039,-10.150996054478169,0.46512277238974026,7.896109249058123,-15.48345978999048,9.702014405301712,441.0,149.0,-35.0
1,2021-07-02 11:01:06.381,6786381,0.5546972677639602,-10.179804067643301,0.531896188384838,7.425116078836379,-15.390970439286422,9.77773495239552,441.0,149.0,-35.0
1,2021-07-02 11:01:06.388,6786388,0.5546972677639602,-10.179804067643301,0.531896188384838,7.425116078836379,-15.390970439286422,9.77773495239552,441.0,149.0,-35.0
1,2021-07-02 11:01:06.398,6786398,0.5546972677639602,-10.179804067643301,0.531896188384838,7.425116078836379,-15.390970439286422,9.77773495239552,441.0,149.0,-35.0
1,2021-07-02 11:01:06.405,6786405,0.5881354960039412,-10.150996054478169,0.4937399506733534,6.985007706661964,-15.267651305014343,9.762590842976758,441.0,149.0,-35.0
1,2021-07-02 11:01:06.414,6786414,0.5881354960039412,-10.150996054478169,0.4937399506733534,6.985007706661964,-15.267651305014343,9.762590842976758,441.0,149.0,-35.0
1,2021-07-02 11:01:06.424,6786424,0.5403665985182543,-10.107784034730471,0.5175875992430311,6.614390130094035,-15.098087495390232,9.755018788267378,441.0,149.0,-35.0
1,2021-07-02 11:01:06.433,6786433,0.5403665985182543,-10.107784034730471,0.5175875992430311,6.614390130094035,-15.098087495390232,9.755018788267378,441.0,149.0,-35.0
1,2021-07-02 11:01:06.443,6786443,0.5594741575125289,-10.126989376840559,0.5175875992430311,6.3673117457154165,-15.051842820038202,9.792879061814283,450.0,140.0,-32.0
1,2021-07-02 11:01:06.453,6786453,0.5594741575125289,-10.126989376840559,0.5175875992430311,6.3673117457154165,-15.051842820038202,9.792879061814283,450.0,140.0,-32.0
1,2021-07-02 11:01:06.462,6786462,0.5546972677639602,-10.126989376840559,0.531896188384838,6.158839358895956,-14.997890698794166,9.785307007104901,450.0,140.0,-32.0
1,2021-07-02 11:01:06.471,6786471,0.5546972677639602,-10.126989376840559,0.531896188384838,6.158839358895956,-14.997890698794166,9.785307007104901,450.0,140.0,-32.0
1,2021-07-02 11:01:06.482,6786482,0.5212590395239792,-10.112585370257994,0.5605133666684512,5.9503669720764965,-14.866864118630083,9.845883444779947,450.0,140.0,-32.0
1,2021-07-02 11:01:06.494,6786494,0.5212590395239792,-10.112585370257994,0.5605133666684512,5.9503669720764965,-14.866864118630083,9.845883444779947,450.0,140.0,-32.0
1,2021-07-02 11:01:06.507,6786507,0.5260359292725478,-10.09818136367543,0.5891305449520643,5.6801249891623815,-14.774374767926021,9.785307007104901,450.0,140.0,-32.0
1,2021-07-02 11:01:06.521,6786521,0.5594741575125289,-10.102982699202949,0.5605133666684512,5.394440607224603,-14.681885417221963,9.77016289768614,450.0,140.0,-32.0
1,2021-07-02 11:01:06.531,6786531,0.5594741575125289,-10.102982699202949,0.5605133666684512,5.394440607224603,-14.681885417221963,9.77016289768614,450.0,140.0,-32.0
1,2021-07-02 11:01:06.545,6786545,0.5451434882668229,-10.09818136367543,0.5748219558102577,5.039265429680338,-14.604810958301913,9.739874678848615,450.0,140.0,-32.0
1,2021-07-02 11:01:06.557,6786557,0.5451434882668229,-10.09818136367543,0.5748219558102577,5.039265429680338,-14.604810958301913,9.739874678848615,450.0,140.0,-32.0
1,2021-07-02 11:01:06.571,6786571,0.5021514805297042,-10.093380028147905,0.603439134093871,4.745859848230728,-14.481491824029833,9.717158514720472,436.0,154.0,-26.0
1,2021-07-02 11:01:06.581,6786581,0.49259770103256684,-10.083777357092861,0.603439134093871,4.467896665804782,-14.466076932245823,9.702014405301712,436.0,154.0,-26.0
1,2021-07-02 11:01:06.594,6786594,0.49259770103256684,-10.083777357092861,0.603439134093871,4.467896665804782,-14.466076932245823,9.702014405301712,436.0,154.0,-26.0
1,2021-07-02 11:01:06.609,6786609,0.4973745907811355,-10.09818136367543,0.531896188384838,4.321193875079976,-14.358172689757755,9.702014405301712,436.0,154.0,-26.0
1,2021-07-02 11:01:06.618,6786618,0.4973745907811355,-10.09818136367543,0.531896188384838,4.321193875079976,-14.358172689757755,9.702014405301712,436.0,154.0,-26.0
1,2021-07-02 11:01:06.625,6786625,0.4878208112839982,-10.064572014982774,0.5795914855241932,4.267145478497153,-14.265683339053693,9.626293858207903,436.0,154.0,-26.0
1,2021-07-02 11:01:06.633,6786633,0.4878208112839982,-10.064572014982774,0.5795914855241932,4.267145478497153,-14.265683339053693,9.626293858207903,436.0,154.0,-26.0
1,2021-07-02 11:01:06.641,6786641,0.4878208112839982,-10.069373350510295,0.603439134093871,4.197654682890667,-14.096119529429584,9.543001256404713,436.0,154.0,-26.0
1,2021-07-02 11:01:06.651,6786651,0.4878208112839982,-10.069373350510295,0.603439134093871,4.197654682890667,-14.096119529429584,9.543001256404713,436.0,154.0,-26.0
1,2021-07-02 11:01:06.660,6786660,0.5021514805297042,-10.078976021565339,0.6177477232356775,4.097279089236852,-14.080704637645574,9.543001256404713,436.0,154.0,-26.0
1,2021-07-02 11:01:06.669,6786669,0.5021514805297042,-10.078976021565339,0.6177477232356775,4.097279089236852,-14.080704637645574,9.543001256404713,436.0,154.0,-26.0
1,2021-07-02 11:01:06.679,6786679,0.5021514805297042,-10.078976021565339,0.6177477232356775,4.097279089236852,-14.080704637645574,9.543001256404713,436.0,154.0,-26.0
1,2021-07-02 11:01:06.689,6786689,0.5069283702782728,-10.064572014982774,0.6654430203750328,3.9196915004647206,-14.01133762461753,9.482424818729667,438.0,154.0,-26.0
1,2021-07-02 11:01:06.698,6786698,0.5069283702782728,-10.064572014982774,0.6654430203750328,3.9196915004647206,-14.01133762461753,9.482424818729667,438.0,154.0,-26.0
1,2021-07-02 11:01:06.708,6786708,0.47349014203829176,-10.069373350510295,0.6511344312332261,3.6648919165742697,-13.895725936237454,9.361271943379574,438.0,154.0,-26.0
1,2021-07-02 11:01:06.721,6786721,0.47349014203829176,-10.088578692620384,0.6320563123774842,3.3560439361009946,-13.79552913964139,9.338555779251429,438.0,154.0,-26.0
1,2021-07-02 11:01:06.735,6786735,0.47349014203829176,-10.088578692620384,0.6320563123774842,3.3560439361009946,-13.79552913964139,9.338555779251429,438.0,154.0,-26.0
1,2021-07-02 11:01:06.747,6786747,0.4830439215354291,-10.083777357092861,0.6272867826635486,3.132129150257871,-13.803236585533396,9.33098372454205,438.0,154.0,-26.0
1,2021-07-02 11:01:06.759,6786759,0.4830439215354291,-10.083777357092861,0.6272867826635486,3.132129150257871,-13.803236585533396,9.33098372454205,438.0,154.0,-26.0
1,2021-07-02 11:01:06.771,6786771,0.41616746505546703,-10.09818136367543,0.5843610152381289,2.861887167343757,-13.695332343045324,9.300695505704526,438.0,154.0,-26.0
1,2021-07-02 11:01:06.784,6786784,0.4782670317868604,-10.069373350510295,0.5748219558102577,2.6920207780834557,-13.602842992341266,9.217402903901336,438.0,154.0,-26.0
1,2021-07-02 11:01:06.797,6786797,0.4782670317868604,-10.069373350510295,0.5748219558102577,2.6920207780834557,-13.602842992341266,9.217402903901336,438.0,154.0,-26.0
1,2021-07-02 11:01:06.809,6786809,0.4782670317868604,-10.078976021565339,0.5032790101012248,2.607087583453306,-13.494938749853198,9.171970575645052,439.0,157.0,-25.0
1,2021-07-02 11:01:06.822,6786822,0.4543825830440167,-10.069373350510295,0.5414352478127089,2.5453179873586516,-13.363912169689112,9.096250028551243,439.0,157.0,-25.0
1,2021-07-02 11:01:06.834,6786834,0.4543825830440167,-10.069373350510295,0.5414352478127089,2.5453179873586516,-13.363912169689112,9.096250028551243,439.0,157.0,-25.0
1,2021-07-02 11:01:06.841,6786841,0.46393636254115445,-10.09818136367543,0.5223571289569668,2.4063363961456776,-13.309960048445076,9.118966192679384,439.0,157.0,-25.0
1,2021-07-02 11:01:06.847,6786847,0.46393636254115445,-10.09818136367543,0.5223571289569668,2.4063363961456776,-13.309960048445076,9.118966192679384,439.0,157.0,-25.0
1,2021-07-02 11:01:06.855,6786855,0.46393636254115445,-10.09818136367543,0.5223571289569668,2.4063363961456776,-13.309960048445076,9.118966192679384,439.0,157.0,-25.0
1,2021-07-02 11:01:06.863,6786863,0.4543825830440167,-10.112585370257994,0.5366657180987734,2.0588824181132446,-13.256007927201043,9.06596180971372,439.0,157.0,-25.0
1,2021-07-02 11:01:06.872,6786872,0.4543825830440167,-10.112585370257994,0.5366657180987734,2.0588824181132446,-13.256007927201043,9.06596180971372,439.0,157.0,-25.0
1,2021-07-02 11:01:06.880,6786880,0.44005191379831077,-10.064572014982774,0.5175875992430311,1.6110528464269973,-13.140396238820967,8.982669207910531,439.0,157.0,-25.0
1,2021-07-02 11:01:06.886,6786886,0.44005191379831077,-10.064572014982774,0.5175875992430311,1.6110528464269973,-13.140396238820967,8.982669207910531,439.0,157.0,-25.0
1,2021-07-02 11:01:06.893,6786893,0.44005191379831077,-10.064572014982774,0.5175875992430311,1.6110528464269973,-13.140396238820967,8.982669207910531,439.0,157.0,-25.0
1,2021-07-02 11:01:06.898,6786898,0.44005191379831077,-10.064572014982774,0.5175875992430311,1.6110528464269973,-13.140396238820967,8.982669207910531,439.0,157.0,-25.0
1,2021-07-02 11:01:06.906,6786906,0.44005191379831077,-10.088578692620384,0.6463649015192907,1.3948592600957057,-13.055614334008913,9.012957426748054,439.0,157.0,-25.0
1,2021-07-02 11:01:06.914,6786914,0.44005191379831077,-10.088578692620384,0.6463649015192907,1.3948592600957057,-13.055614334008913,9.012957426748054,439.0,157.0,-25.0
1,2021-07-02 11:01:06.919,6786919,0.44005191379831077,-10.088578692620384,0.6463649015192907,1.3948592600957057,-13.055614334008913,9.012957426748054,439.0,157.0,-25.0
1,2021-07-02 11:01:06.924,6786924,0.43049813430117345,-10.17020139658826,0.6845211392307751,0.9161448903621312,-12.955417537412847,8.959953043782386,439.0,157.0,-25.0
1,2021-07-02 11:01:06.930,6786930,0.43049813430117345,-10.17020139658826,0.6845211392307751,0.9161448903621312,-12.955417537412847,8.959953043782386,439.0,157.0,-25.0
1,2021-07-02 11:01:06.937,6786937,0.43049813430117345,-10.17020139658826,0.6845211392307751,0.9161448903621312,-12.955417537412847,8.959953043782386,439.0,157.0,-25.0
1,2021-07-02 11:01:06.944,6786944,0.43049813430117345,-10.107784034730471,0.5891305449520643,0.13630373966711368,-12.909172862060819,8.937236879654245,434.0,162.0,-28.0
1,2021-07-02 11:01:06.951,6786951,0.43049813430117345,-10.107784034730471,0.5891305449520643,0.13630373966711368,-12.909172862060819,8.937236879654245,434.0,162.0,-28.0
1,2021-07-02 11:01:06.959,6786959,0.43049813430117345,-10.107784034730471,0.5891305449520643,0.13630373966711368,-12.909172862060819,8.937236879654245,434.0,162.0,-28.0
1,2021-07-02 11:01:06.965,6786965,0.38750612656405464,-10.016558659707554,0.6082086638078064,-0.44278622372027526,-12.862928186708787,8.89180455139796,434.0,162.0,-28.0
1,2021-07-02 11:01:06.973,6786973,0.38750612656405464,-10.016558659707554,0.6082086638078064,-0.44278622372027526,-12.862928186708787,8.89180455139796,434.0,162.0,-28.0
1,2021-07-02 11:01:06.980,6786980,0.43049813430117345,-10.064572014982774,0.6368258420914196,-0.6203738124924071,-12.693364377084679,8.785795785466627,434.0,162.0,-28.0
1,2021-07-02 11:01:06.989,6786989,0.43049813430117345,-10.064572014982774,0.6368258420914196,-0.6203738124924071,-12.693364377084679,8.785795785466627,434.0,162.0,-28.0
1,2021-07-02 11:01:06.997,6786997,0.43049813430117345,-10.064572014982774,0.6368258420914196,-0.6203738124924071,-12.693364377084679,8.785795785466627,434.0,162.0,-28.0
1,2021-07-02 11:01:07.003,6787003,0.4352750240497421,-10.112585370257994,0.77514220379555,-1.0295973866194947,-12.60087502638062,8.740363457210341,434.0,162.0,-28.0
1,2021-07-02 11:01:07.010,6787010,0.4352750240497421,-10.112585370257994,0.77514220379555,-1.0295973866194947,-12.60087502638062,8.740363457210341,434.0,162.0,-28.0
1,2021-07-02 11:01:07.017,6787017,0.4352750240497421,-10.112585370257994,0.77514220379555,-1.0295973866194947,-12.60087502638062,8.740363457210341,434.0,162.0,-28.0
1,2021-07-02 11:01:07.023,6787023,0.4448288035468794,-10.093380028147905,0.7894507929373566,-1.8403233353618396,-12.623997364056635,8.672214964825915,434.0,162.0,-28.0
1,2021-07-02 11:01:07.031,6787031,0.4448288035468794,-10.093380028147905,0.7894507929373566,-1.8403233353618396,-12.623997364056635,8.672214964825915,434.0,162.0,-28.0
1,2021-07-02 11:01:07.039,6787039,0.4448288035468794,-10.093380028147905,0.7894507929373566,-1.8403233353618396,-12.623997364056635,8.672214964825915,434.0,162.0,-28.0
1,2021-07-02 11:01:07.047,6787047,0.4066136855583297,-10.021359995235077,0.7179078472283237,-2.519788892403041,-12.55463035102859,8.581350308313345,434.0,162.0,-28.0
1,2021-07-02 11:01:07.054,6787054,0.4066136855583297,-10.021359995235077,0.7179078472283237,-2.519788892403041,-12.55463035102859,8.581350308313345,434.0,162.0,-28.0
1,2021-07-02 11:01:07.060,6787060,0.36839856756977957,-10.054969343927729,0.8800718575021318,-2.9444548655537934,-12.454433554432526,8.535917980057059,423.0,159.0,-31.0
1,2021-07-02 11:01:07.065,6787065,0.36839856756977957,-10.054969343927729,0.8800718575021318,-2.9444548655537934,-12.454433554432526,8.535917980057059,423.0,159.0,-31.0
1,2021-07-02 11:01:07.074,6787074,0.36839856756977957,-10.054969343927729,0.8800718575021318,-2.9444548655537934,-12.454433554432526,8.535917980057059,423.0,159.0,-31.0
1,2021-07-02 11:01:07.082,6787082,0.3636216778212109,-10.093380028147905,0.9611538626390359,-3.654805220642324,-12.392773987296486,8.445053323544489,423.0,159.0,-31.0
1,2021-07-02 11:01:07.090,6787090,0.3636216778212109,-10.093380028147905,0.9611538626390359,-3.654805220642324,-12.392773987296486,8.445053323544489,423.0,159.0,-31.0
1,2021-07-02 11:01:07.098,6787098,0.3636216778212109,-10.093380028147905,0.9611538626390359,-3.654805220642324,-12.392773987296486,8.445053323544489,423.0,159.0,-31.0
1,2021-07-02 11:01:07.104,6787104,0.3588447880726423,-10.00215465312499,0.9229976249275516,-4.697167154739623,-12.40048143318849,8.293612229356873,423.0,159.0,-31.0
1,2021-07-02 11:01:07.112,6787112,0.3588447880726423,-10.00215465312499,0.9229976249275516,-4.697167154739623,-12.40048143318849,8.293612229356873,423.0,159.0,-31.0
1,2021-07-02 11:01:07.119,6787119,0.3588447880726423,-10.00215465312499,0.9229976249275516,-4.697167154739623,-12.40048143318849,8.293612229356873,423.0,159.0,-31.0
1,2021-07-02 11:01:07.126,6787126,0.3206296700840926,-9.95414129784977,0.8943804466439385,-5.152717925937701,-12.331114420160446,8.225463736972443,423.0,159.0,-31.0
1,2021-07-02 11:01:07.132,6787132,0.3206296700840926,-9.95414129784977,0.8943804466439385,-5.152717925937701,-12.331114420160446,8.225463736972443,423.0,159.0,-31.0
1,2021-07-02 11:01:07.140,6787140,0.3779523470669173,-9.968545304432334,0.9277671546414873,-5.283978317638844,-12.307992082484429,8.043734423947305,423.0,159.0,-31.0
1,2021-07-02 11:01:07.146,6787146,0.3779523470669173,-9.968545304432334,0.9277671546414873,-5.283978317638844,-12.307992082484429,8.043734423947305,423.0,159.0,-31.0
1,2021-07-02 11:01:07.151,6787151,0.3779523470669173,-9.968545304432334,0.9277671546414873,-5.283978317638844,-12.307992082484429,8.043734423947305,423.0,159.0,-31.0
1,2021-07-02 11:01:07.159,6787159,0.3779523470669173,-9.968545304432334,0.9277671546414873,-5.283978317638844,-12.307992082484429,8.043734423947305,423.0,159.0,-31.0
1,2021-07-02 11:01:07.166,6787166,0.3158527803355235,-10.0261613307626,1.3522552991817498,-5.677759492742267,-12.27716229891641,7.83171689208464,423.0,159.0,-31.0
1,2021-07-02 11:01:07.173,6787173,0.3158527803355235,-10.0261613307626,1.3522552991817498,-5.677759492742267,-12.27716229891641,7.83171689208464,423.0,159.0,-31.0
1,2021-07-02 11:01:07.180,6787180,0.3206296700840926,-9.987750646542422,1.1233178729128441,-6.77416982342239,-12.300284636592425,7.725708126153307,406.0,166.0,-30.0
1,2021-07-02 11:01:07.186,6787186,0.3206296700840926,-9.987750646542422,1.1233178729128441,-6.77416982342239,-12.300284636592425,7.725708126153307,406.0,166.0,-30.0
