imu,time,ax,ay,az,gx,gy,gz,mx,my,mz
0,93058,-401,1911,-1401,1404,1667,516,-42,266,-382
0,93063,-401,1911,-1401,1404,1667,516,-42,266,-382
0,93073,-343,2005,-1426,1793,1013,1006,-42,266,-382
0,93078,-343,2005,-1426,1793,1013,1006,-42,266,-382
0,93083,-343,2005,-1426,1793,1013,1006,-42,266,-382
0,93088,-261,2082,-1412,1510,465,1406,-33,261,-381
0,93093,-261,2082,-1412,1510,465,1406,-33,261,-381
0,93099,-261,2082,-1412,1510,465,1406,-33,261,-381
0,93104,-173,2073,-1355,637,75,1602,-33,261,-381
0,93108,-173,2073,-1355,637,75,1602,-33,261,-381
0,93113,-173,2073,-1355,637,75,1602,-33,261,-381
0,93118,-173,2073,-1355,637,75,1602,-33,261,-381
0,93123,-173,2073,-1355,637,75,1602,-33,261,-381
0,93128,-103,2008,-1283,-445,-84,1560,-33,261,-381
0,93133,-103,2008,-1283,-445,-84,1560,-33,261,-381
0,93138,-103,2008,-1283,-445,-84,1560,-33,261,-381
0,93144,-103,2008,-1283,-445,-84,1560,-33,261,-381
0,93149,-51,1901,-1221,-1346,-77,1321,-33,261,-381
0,93154,-51,1901,-1221,-1346,-77,1321,-33,261,-381
0,93159,-51,1901,-1221,-1346,-77,1321,-33,261,-381
0,93165,-19,1783,-1167,-1860,33,968,-33,261,-381
0,93170,-19,1783,-1167,-1860,33,968,-33,261,-381
0,93175,-19,1783,-1167,-1860,33,968,-33,261,-381
0,93179,-19,1783,-1167,-1860,33,968,-33,261,-381
0,93186,-6,1742,-1106,-2073,203,590,-33,261,-381
0,93192,-6,1742,-1106,-2073,203,590,-33,261,-381
0,93199,-6,1742,-1106,-2073,203,590,-33,261,-381
0,93209,-18,1746,-1041,-2109,437,248,-38,262,-390
0,93218,-18,1746,-1041,-2109,437,248,-38,262,-390
0,93224,-32,1779,-1001,-2132,681,30,-38,262,-390
0,93232,-32,1779,-1001,-2132,681,30,-38,262,-390
0,93239,-32,1779,-1001,-2132,681,30,-38,262,-390
0,93246,-64,1782,-997,-2104,907,-41,-38,262,-390
0,93252,-64,1782,-997,-2104,907,-41,-38,262,-390
0,93260,-64,1782,-997,-2104,907,-41,-38,262,-390
0,93267,-94,1824,-1012,-1838,1063,-1,-38,262,-390
0,93274,-94,1824,-1012,-1838,1063,-1,-38,262,-390
0,93280,-94,1824,-1012,-1838,1063,-1,-38,262,-390
0,93288,-110,1896,-1041,-1399,1137,170,-38,262,-390
0,93294,-110,1896,-1041,-1399,1137,170,-38,262,-390
0,93300,-110,1896,-1041,-1399,1137,170,-38,262,-390
0,93308,-110,1896,-1041,-1399,1137,170,-38,262,-390
0,93316,-110,1896,-1041,-1399,1137,170,-38,262,-390
0,93323,-110,1896,-1041,-1399,1137,170,-38,262,-390
0,93330,-159,2146,-1118,-991,1165,541,-38,262,-390
0,93335,-159,2146,-1118,-991,1165,541,-38,262,-390
0,93340,-159,2146,-1118,-991,1165,541,-38,262,-390
0,93348,-182,2218,-1134,-1222,1061,778,-29,257,-385
0,93356,-182,2218,-1134,-1222,1061,778,-29,257,-385
0,93364,-182,2218,-1134,-1222,1061,778,-29,257,-385
0,93370,-172,2238,-1173,-1480,890,1038,-29,257,-385
0,93376,-172,2238,-1173,-1480,890,1038,-29,257,-385
0,93383,-172,2238,-1173,-1480,890,1038,-29,257,-385
0,93390,-146,2292,-1176,-1638,799,1236,-29,257,-385
0,93395,-146,2292,-1176,-1638,799,1236,-29,257,-385
0,93402,-146,2292,-1176,-1638,799,1236,-29,257,-385
0,93409,-125,2330,-1162,-1989,766,1496,-29,257,-385
0,93415,-125,2330,-1162,-1989,766,1496,-29,257,-385
0,93423,-125,2330,-1162,-1989,766,1496,-29,257,-385
0,93430,-83,2297,-1152,-2560,672,1980,-29,257,-385
0,93438,-83,2297,-1152,-2560,672,1980,-29,257,-385
0,93446,-18,2338,-1137,-2887,535,2459,-29,257,-385
0,93454,-18,2338,-1137,-2887,535,2459,-29,257,-385
0,93461,-18,2338,-1137,-2887,535,2459,-29,257,-385
0,93467,55,2390,-1163,-2629,391,2697,-42,252,-384
0,93475,55,2390,-1163,-2629,391,2697,-42,252,-384
0,93483,55,2390,-1163,-2629,391,2697,-42,252,-384
0,93489,135,2428,-1213,-2325,267,2686,-42,252,-384
0,93496,135,2428,-1213,-2325,267,2686,-42,252,-384
0,93502,135,2428,-1213,-2325,267,2686,-42,252,-384
0,93509,175,2662,-1217,-2179,198,2488,-42,252,-384
0,93515,175,2662,-1217,-2179,198,2488,-42,252,-384
0,93523,175,2662,-1217,-2179,198,2488,-42,252,-384
0,93531,250,2509,-1283,-1974,76,2142,-42,252,-384
0,93538,250,2509,-1283,-1974,76,2142,-42,252,-384
0,93545,302,2287,-1360,-1825,-68,1900,-42,252,-384
0,93551,302,2287,-1360,-1825,-68,1900,-42,252,-384
0,93558,302,2287,-1360,-1825,-68,1900,-42,252,-384
0,93564,391,1960,-1457,-1604,-253,1911,-42,252,-384
0,93571,391,1960,-1457,-1604,-253,1911,-42,252,-384
0,93579,391,1960,-1457,-1604,-253,1911,-42,252,-384
0,93587,460,1817,-1495,-1319,-374,1987,-42,236,-384
0,93593,460,1817,-1495,-1319,-374,1987,-42,236,-384
0,93600,460,1817,-1495,-1319,-374,1987,-42,236,-384
0,93607,520,1870,-1489,-1080,-455,2098,-42,236,-384
0,93615,520,1870,-1489,-1080,-455,2098,-42,236,-384
0,93622,520,1870,-1489,-1080,-455,2098,-42,236,-384
0,93628,578,1912,-1476,-888,-423,1947,-42,236,-384
0,93635,578,1912,-1476,-888,-423,1947,-42,236,-384
0,93642,578,1912,-1476,-888,-423,1947,-42,236,-384
0,93649,617,1926,-1483,-740,-232,1420,-42,236,-384
0,93657,617,1926,-1483,-740,-232,1420,-42,236,-384
0,93663,617,1926,-1483,-740,-232,1420,-42,236,-384
0,93671,620,1909,-1493,-658,97,712,-42,236,-384
0,93680,620,1909,-1493,-658,97,712,-42,236,-384
0,93685,622,1923,-1499,-586,417,40,-42,236,-384
0,93693,622,1923,-1499,-586,417,40,-42,236,-384
0,93702,622,1923,-1499,-586,417,40,-42,236,-384
0,93709,641,2000,-1502,-510,759,-613,-42,236,-384
0,93715,641,2000,-1502,-510,759,-613,-42,236,-384
0,93722,641,2000,-1502,-510,759,-613,-42,236,-384
0,93729,628,2040,-1491,-668,1166,-1133,-54,226,-384
0,93735,628,2040,-1491,-668,1166,-1133,-54,226,-384
0,93743,628,2040,-1491,-668,1166,-1133,-54,226,-384
0,93750,628,2040,-1491,-668,1166,-1133,-54,226,-384
0,93755,628,2040,-1491,-668,1166,-1133,-54,226,-384
0,93762,628,2040,-1491,-668,1166,-1133,-54,226,-384
0,93769,576,2002,-1391,-1783,2016,-1930,-54,226,-384
0,93776,576,2002,-1391,-1783,2016,-1930,-54,226,-384
0,93784,576,2002,-1391,-1783,2016,-1930,-54,226,-384
0,93790,540,1959,-1310,-2466,2451,-2385,-54,226,-384
0,93797,540,1959,-1310,-2466,2451,-2385,-54,226,-384
0,93802,540,1959,-1310,-2466,2451,-2385,-54,226,-384
0,93807,481,1929,-1219,-3033,2823,-2763,-54,226,-384
0,93811,481,1929,-1219,-3033,2823,-2763,-54,226,-384
0,93816,481,1929,-1219,-3033,2823,-2763,-54,226,-384
0,93821,481,1929,-1219,-3033,2823,-2763,-54,226,-384
0,93827,448,1890,-1133,-3425,2977,-2897,-54,226,-384
0,93832,448,1890,-1133,-3425,2977,-2897,-54,226,-384
0,93837,448,1890,-1133,-3425,2977,-2897,-54,226,-384
0,93842,448,1890,-1133,-3425,2977,-2897,-54,226,-384
0,93851,424,1852,-1056,-3594,2958,-2925,-64,232,-378
0,93856,424,1852,-1056,-3594,2958,-2925,-64,232,-378
0,93862,424,1852,-1056,-3594,2958,-2925,-64,232,-378
0,93868,399,1846,-1005,-3538,2769,-2884,-64,232,-378
0,93873,399,1846,-1005,-3538,2769,-2884,-64,232,-378
0,93878,399,1846,-1005,-3538,2769,-2884,-64,232,-378
0,93883,399,1846,-1005,-3538,2769,-2884,-64,232,-378
0,93888,388,1841,-974,-3257,2454,-2783,-64,232,-378
0,93893,388,1841,-974,-3257,2454,-2783,-64,232,-378
0,93898,388,1841,-974,-3257,2454,-2783,-64,232,-378
0,93904,393,1887,-971,-2907,2109,-2656,-64,232,-378
0,93911,393,1887,-971,-2907,2109,-2656,-64,232,-378
0,93916,393,1887,-971,-2907,2109,-2656,-64,232,-378
0,93922,393,1887,-971,-2907,2109,-2656,-64,232,-378
0,93927,399,1940,-967,-2677,1789,-2598,-64,232,-378
0,93933,399,1940,-967,-2677,1789,-2598,-64,232,-378
0,93939,399,1940,-967,-2677,1789,-2598,-64,232,-378
0,93944,412,1988,-975,-2573,1467,-2560,-64,232,-378
0,93949,412,1988,-975,-2573,1467,-2560,-64,232,-378
0,93956,412,1988,-975,-2573,1467,-2560,-64,232,-378
0,93963,412,1988,-975,-2573,1467,-2560,-64,232,-378
0,93969,435,2040,-974,-2633,1157,-2498,-64,232,-378
0,93977,435,2040,-974,-2633,1157,-2498,-64,232,-378
0,93983,435,2040,-974,-2633,1157,-2498,-64,232,-378
0,93989,450,2066,-977,-2909,902,-2429,-53,241,-375
0,93996,450,2066,-977,-2909,902,-2429,-53,241,-375
0,94003,450,2066,-977,-2909,902,-2429,-53,241,-375
0,94010,461,2048,-990,-3145,616,-2379,-53,241,-375
0,94017,461,2048,-990,-3145,616,-2379,-53,241,-375
0,94023,461,2048,-990,-3145,616,-2379,-53,241,-375
0,94030,482,2080,-986,-3196,266,-2372,-53,241,-375
0,94039,482,2080,-986,-3196,266,-2372,-53,241,-375
0,94046,492,2180,-967,-3179,-117,-2463,-53,241,-375
0,94051,492,2180,-967,-3179,-117,-2463,-53,241,-375
0,94057,492,2180,-967,-3179,-117,-2463,-53,241,-375
0,94064,492,2180,-967,-3179,-117,-2463,-53,241,-375
0,94070,531,2255,-976,-3215,-441,-2751,-53,241,-375
0,94078,531,2255,-976,-3215,-441,-2751,-53,241,-375
0,94085,526,2330,-956,-3483,-520,-3270,-53,241,-375
0,94090,526,2330,-956,-3483,-520,-3270,-53,241,-375
0,94097,526,2330,-956,-3483,-520,-3270,-53,241,-375
0,94103,526,2330,-956,-3483,-520,-3270,-53,241,-375
0,94108,497,2293,-953,-3980,-439,-3778,-57,247,-369
0,94115,497,2293,-953,-3980,-439,-3778,-57,247,-369
0,94121,497,2293,-953,-3980,-439,-3778,-57,247,-369
0,94129,448,2362,-918,-4277,-289,-4092,-57,247,-369
0,94135,448,2362,-918,-4277,-289,-4092,-57,247,-369
0,94142,448,2362,-918,-4277,-289,-4092,-57,247,-369
0,94149,397,2406,-934,-4064,-55,-4168,-57,247,-369
0,94156,397,2406,-934,-4064,-55,-4168,-57,247,-369
0,94163,397,2406,-934,-4064,-55,-4168,-57,247,-369
0,94171,314,2655,-914,-3515,293,-4050,-57,247,-369
0,94177,314,2655,-914,-3515,293,-4050,-57,247,-369
0,94184,314,2655,-914,-3515,293,-4050,-57,247,-369
0,94190,222,2771,-940,-2731,740,-3953,-57,247,-369
0,94196,222,2771,-940,-2731,740,-3953,-57,247,-369
0,94203,222,2771,-940,-2731,740,-3953,-57,247,-369
0,94211,151,2589,-1042,-2288,1152,-3845,-57,247,-369
0,94217,151,2589,-1042,-2288,1152,-3845,-57,247,-369
0,94222,151,2589,-1042,-2288,1152,-3845,-57,247,-369
0,94231,113,2311,-1127,-2554,1516,-3581,-57,247,-369
0,94238,113,2311,-1127,-2554,1516,-3581,-57,247,-369
0,94246,83,2081,-1162,-2997,1983,-3518,-57,247,-369
0,94253,83,2081,-1162,-2997,1983,-3518,-57,247,-369
0,94259,83,2081,-1162,-2997,1983,-3518,-57,247,-369
0,94265,43,2043,-1107,-3199,2485,-3777,-57,247,-369
0,94272,43,2043,-1107,-3199,2485,-3777,-57,247,-369
0,94279,43,2043,-1107,-3199,2485,-3777,-57,247,-369
0,94286,-49,2046,-1040,-3131,2974,-4213,-57,247,-369
0,94292,-49,2046,-1040,-3131,2974,-4213,-57,247,-369
0,94300,-49,2046,-1040,-3131,2974,-4213,-57,247,-369
0,94307,-146,1998,-1035,-2847,3299,-4475,-57,247,-369
0,94314,-146,1998,-1035,-2847,3299,-4475,-57,247,-369
0,94320,-146,1998,-1035,-2847,3299,-4475,-57,247,-369
0,94327,-207,2023,-1045,-2461,3359,-4318,-57,247,-369
0,94332,-207,2023,-1045,-2461,3359,-4318,-57,247,-369
0,94339,-207,2023,-1045,-2461,3359,-4318,-57,247,-369
0,94348,-272,2074,-1059,-2059,3257,-3913,-57,247,-369
0,94355,-272,2074,-1059,-2059,3257,-3913,-57,247,-369
0,94363,-272,2074,-1059,-2059,3257,-3913,-57,247,-369
0,94369,-310,2044,-1088,-1671,2904,-3259,-59,259,-347
0,94376,-310,2044,-1088,-1671,2904,-3259,-59,259,-347
0,94383,-310,2044,-1088,-1671,2904,-3259,-59,259,-347
0,94391,-306,2023,-1113,-1273,2283,-2390,-59,259,-347
0,94398,-306,2023,-1113,-1273,2283,-2390,-59,259,-347
0,94405,-306,2023,-1113,-1273,2283,-2390,-59,259,-347
0,94413,-230,2022,-1110,-1060,1567,-1480,-59,259,-347
0,94419,-230,2022,-1110,-1060,1567,-1480,-59,259,-347
0,94426,-118,2044,-1085,-1085,1013,-779,-59,259,-347
0,94433,-118,2044,-1085,-1085,1013,-779,-59,259,-347
0,94441,-118,2044,-1085,-1085,1013,-779,-59,259,-347
0,94447,-23,2083,-1041,-1320,749,-344,-59,259,-347
0,94452,-23,2083,-1041,-1320,749,-344,-59,259,-347
0,94460,-23,2083,-1041,-1320,749,-344,-59,259,-347
0,94468,48,2090,-992,-1747,788,-206,-59,259,-347
0,94476,48,2090,-992,-1747,788,-206,-59,259,-347
0,94482,48,2090,-992,-1747,788,-206,-59,259,-347
0,94489,83,2063,-948,-2350,1029,-389,-58,264,-340
0,94496,83,2063,-948,-2350,1029,-389,-58,264,-340
0,94504,83,2063,-948,-2350,1029,-389,-58,264,-340
0,94512,66,2073,-876,-3056,1364,-750,-58,264,-340
0,94519,66,2073,-876,-3056,1364,-750,-58,264,-340
0,94527,10,2080,-795,-3643,1642,-1136,-58,264,-340
0,94533,10,2080,-795,-3643,1642,-1136,-58,264,-340
0,94541,10,2080,-795,-3643,1642,-1136,-58,264,-340
0,94547,-43,2038,-732,-3990,1753,-1422,-58,264,-340
0,94554,-43,2038,-732,-3990,1753,-1422,-58,264,-340
0,94560,-43,2038,-732,-3990,1753,-1422,-58,264,-340
0,94567,-85,2003,-675,-4094,1764,-1619,-58,264,-340
0,94573,-85,2003,-675,-4094,1764,-1619,-58,264,-340
0,94581,-85,2003,-675,-4094,1764,-1619,-58,264,-340
0,94588,-148,2021,-613,-3933,1669,-1664,-58,264,-340
0,94596,-148,2021,-613,-3933,1669,-1664,-58,264,-340
0,94603,-148,2021,-613,-3933,1669,-1664,-58,264,-340
0,94610,-187,2046,-587,-3588,1361,-1466,-58,264,-340
0,94615,-187,2046,-587,-3588,1361,-1466,-58,264,-340
0,94622,-187,2046,-587,-3588,1361,-1466,-58,264,-340
0,94630,-192,2044,-571,-3196,946,-1233,-66,262,-336
0,94637,-192,2044,-571,-3196,946,-1233,-66,262,-336
0,94644,-192,2044,-571,-3196,946,-1233,-66,262,-336
0,94650,-206,2018,-569,-2779,590,-1068,-66,262,-336
0,94657,-206,2018,-569,-2779,590,-1068,-66,262,-336
0,94664,-206,2018,-569,-2779,590,-1068,-66,262,-336
0,94670,-239,2025,-560,-2359,160,-786,-66,262,-336
0,94676,-239,2025,-560,-2359,160,-786,-66,262,-336
0,94684,-239,2025,-560,-2359,160,-786,-66,262,-336
0,94692,-241,2031,-557,-1955,-417,-384,-66,262,-336
0,94699,-241,2031,-557,-1955,-417,-384,-66,262,-336
0,94706,-247,2066,-564,-1604,-1023,1,-66,262,-336
0,94714,-247,2066,-564,-1604,-1023,1,-66,262,-336
0,94721,-247,2066,-564,-1604,-1023,1,-66,262,-336
0,94728,-231,2121,-563,-1400,-1650,341,-66,262,-336
0,94734,-231,2121,-563,-1400,-1650,341,-66,262,-336
0,94740,-231,2121,-563,-1400,-1650,341,-66,262,-336
0,94746,-195,2164,-564,-1383,-2166,553,-74,260,-328
0,94754,-195,2164,-564,-1383,-2166,553,-74,260,-328
0,94761,-195,2164,-564,-1383,-2166,553,-74,260,-328
0,94768,-159,2208,-573,-1417,-2515,651,-74,260,-328
0,94775,-159,2208,-573,-1417,-2515,651,-74,260,-328
0,94782,-159,2208,-573,-1417,-2515,651,-74,260,-328
0,94788,-120,2221,-578,-1399,-2781,722,-74,260,-328
0,94794,-120,2221,-578,-1399,-2781,722,-74,260,-328
0,94799,-120,2221,-578,-1399,-2781,722,-74,260,-328
0,94804,-120,2221,-578,-1399,-2781,722,-74,260,-328
0,94810,-62,2392,-562,-1143,-2968,810,-74,260,-328
0,94815,-62,2392,-562,-1143,-2968,810,-74,260,-328
0,94820,-62,2392,-562,-1143,-2968,810,-74,260,-328
0,94826,-62,2392,-562,-1143,-2968,810,-74,260,-328
0,94830,25,2504,-586,-618,-2800,592,-74,260,-328
0,94835,25,2504,-586,-618,-2800,592,-74,260,-328
0,94841,25,2504,-586,-618,-2800,592,-74,260,-328
0,94850,84,2628,-623,48,-2276,74,-74,260,-328
0,94857,84,2628,-623,48,-2276,74,-74,260,-328
0,94863,84,2628,-623,48,-2276,74,-74,260,-328
0,94868,94,2717,-691,559,-1636,-412,-74,260,-328
0,94873,94,2717,-691,559,-1636,-412,-74,260,-328
0,94878,94,2717,-691,559,-1636,-412,-74,260,-328
0,94883,94,2717,-691,559,-1636,-412,-74,260,-328
0,94887,187,2500,-849,686,-1081,-779,-67,259,-339
0,94894,187,2500,-849,686,-1081,-779,-67,259,-339
0,94902,187,2500,-849,686,-1081,-779,-67,259,-339
0,94911,288,2167,-1057,729,-416,-1100,-67,259,-339
0,94917,288,2167,-1057,729,-416,-1100,-67,259,-339
0,94924,288,2167,-1057,729,-416,-1100,-67,259,-339
0,94932,328,2091,-1135,706,302,-1068,-67,259,-339
0,94940,328,2091,-1135,706,302,-1068,-67,259,-339
0,94946,350,2206,-1134,728,908,-784,-67,259,-339
0,94953,350,2206,-1134,728,908,-784,-67,259,-339
0,94961,350,2206,-1134,728,908,-784,-67,259,-339
0,94967,344,2280,-1109,641,1529,-643,-67,259,-339
0,94974,344,2280,-1109,641,1529,-643,-67,259,-339
0,94983,344,2280,-1109,641,1529,-643,-67,259,-339
0,94988,309,2210,-1109,508,2198,-736,-67,259,-339
0,94993,309,2210,-1109,508,2198,-736,-67,259,-339
0,95000,309,2210,-1109,508,2198,-736,-67,259,-339
0,95007,234,2125,-1114,464,2788,-1118,-54,260,-344
0,95012,234,2125,-1114,464,2788,-1118,-54,260,-344
0,95020,234,2125,-1114,464,2788,-1118,-54,260,-344
0,95028,167,2082,-1144,727,3153,-1770,-54,260,-344
0,95034,167,2082,-1144,727,3153,-1770,-54,260,-344
0,95041,167,2082,-1144,727,3153,-1770,-54,260,-344
0,95049,127,2118,-1195,1256,3286,-2489,-54,260,-344
0,95056,127,2118,-1195,1256,3286,-2489,-54,260,-344
0,95063,127,2118,-1195,1256,3286,-2489,-54,260,-344
0,95070,177,2187,-1267,1764,3390,-3137,-54,260,-344
0,95077,177,2187,-1267,1764,3390,-3137,-54,260,-344
0,95084,177,2187,-1267,1764,3390,-3137,-54,260,-344
0,95090,257,2316,-1299,1760,3855,-3570,-54,260,-344
0,95098,257,2316,-1299,1760,3855,-3570,-54,260,-344
0,95105,257,2316,-1299,1760,3855,-3570,-54,260,-344
0,95110,353,2400,-1307,811,4932,-3671,-54,260,-344
0,95117,353,2400,-1307,811,4932,-3671,-54,260,-344
0,95125,353,2400,-1307,811,4932,-3671,-54,260,-344
0,95131,373,2371,-1286,-853,6669,-3435,-65,273,-355
0,95138,373,2371,-1286,-853,6669,-3435,-65,273,-355
0,95143,373,2371,-1286,-853,6669,-3435,-65,273,-355
0,95151,332,2250,-1233,-2597,8707,-2946,-65,273,-355
0,95159,332,2250,-1233,-2597,8707,-2946,-65,273,-355
0,95166,332,2250,-1233,-2597,8707,-2946,-65,273,-355
0,95172,281,2121,-1163,-3871,10618,-2520,-65,273,-355
0,95180,281,2121,-1163,-3871,10618,-2520,-65,273,-355
0,95186,233,2037,-1085,-4589,12251,-2218,-65,273,-355
0,95193,233,2037,-1085,-4589,12251,-2218,-65,273,-355
0,95201,233,2037,-1085,-4589,12251,-2218,-65,273,-355
0,95208,199,1996,-1010,-5037,13552,-1836,-65,273,-355
0,95214,199,1996,-1010,-5037,13552,-1836,-65,273,-355
0,95221,199,1996,-1010,-5037,13552,-1836,-65,273,-355
0,95229,135,1937,-952,-5352,14559,-1362,-65,273,-355
0,95236,135,1937,-952,-5352,14559,-1362,-65,273,-355
0,95242,135,1937,-952,-5352,14559,-1362,-65,273,-355
0,95248,20,1865,-908,-5566,14972,-967,-65,273,-355
0,95255,20,1865,-908,-5566,14972,-967,-65,273,-355
0,95260,20,1865,-908,-5566,14972,-967,-65,273,-355
0,95269,-59,1848,-833,-5603,14534,-819,-60,270,-376
0,95276,-59,1848,-833,-5603,14534,-819,-60,270,-376
0,95283,-59,1848,-833,-5603,14534,-819,-60,270,-376
0,95288,-45,1896,-754,-5382,13628,-853,-60,270,-376
0,95293,-45,1896,-754,-5382,13628,-853,-60,270,-376
0,95300,-45,1896,-754,-5382,13628,-853,-60,270,-376
0,95307,-66,1913,-706,-4992,12747,-844,-60,270,-376
0,95314,-66,1913,-706,-4992,12747,-844,-60,270,-376
0,95322,-66,1913,-706,-4992,12747,-844,-60,270,-376
0,95328,-79,1981,-655,-4462,11761,-607,-60,270,-376
0,95336,-79,1981,-655,-4462,11761,-607,-60,270,-376
0,95342,-79,1981,-655,-4462,11761,-607,-60,270,-376
0,95350,-104,2077,-623,-4030,10692,-263,-60,270,-376
0,95356,-104,2077,-623,-4030,10692,-263,-60,270,-376
0,95364,-104,2077,-623,-4030,10692,-263,-60,270,-376
0,95371,-92,2186,-593,-3758,9554,3,-60,270,-376
0,95378,-92,2186,-593,-3758,9554,3,-60,270,-376
0,95386,-92,2186,-593,-3758,9554,3,-60,270,-376
0,95394,-94,2194,-586,-3485,8481,55,-56,264,-368
0,95400,-94,2194,-586,-3485,8481,55,-56,264,-368
0,95409,10,2293,-593,-3153,7544,-11,-56,264,-368
0,95415,10,2293,-593,-3153,7544,-11,-56,264,-368
0,95422,10,2293,-593,-3153,7544,-11,-56,264,-368
0,95428,108,2396,-601,-3106,7248,-88,-56,264,-368
0,95435,108,2396,-601,-3106,7248,-88,-56,264,-368
0,95443,108,2396,-601,-3106,7248,-88,-56,264,-368
0,95451,327,2460,-654,-3297,7652,182,-56,264,-368
0,95458,327,2460,-654,-3297,7652,182,-56,264,-368
0,95464,327,2460,-654,-3297,7652,182,-56,264,-368
0,95472,448,2660,-670,-3643,9218,615,-56,264,-368
0,95478,448,2660,-670,-3643,9218,615,-56,264,-368
0,95486,444,2631,-735,-3973,11350,912,-56,264,-368
0,95493,444,2631,-735,-3973,11350,912,-56,264,-368
0,95499,444,2631,-735,-3973,11350,912,-56,264,-368
0,95506,444,2631,-735,-3973,11350,912,-56,264,-368
0,95513,347,2782,-742,-4120,13028,1300,-56,264,-368
0,95521,347,2782,-742,-4120,13028,1300,-56,264,-368
0,95529,206,2901,-727,-4140,14001,1473,-59,249,-385
0,95537,206,2901,-727,-4140,14001,1473,-59,249,-385
0,95543,206,2901,-727,-4140,14001,1473,-59,249,-385
0,95551,63,2663,-779,-4210,14188,1170,-59,249,-385
0,95557,63,2663,-779,-4210,14188,1170,-59,249,-385
0,95563,63,2663,-779,-4210,14188,1170,-59,249,-385
0,95570,-63,2379,-793,-4354,13494,650,-59,249,-385
0,95578,-63,2379,-793,-4354,13494,650,-59,249,-385
0,95585,-63,2379,-793,-4354,13494,650,-59,249,-385
0,95591,-160,2125,-798,-4420,12169,-165,-59,249,-385
0,95597,-160,2125,-798,-4420,12169,-165,-59,249,-385
0,95604,-160,2125,-798,-4420,12169,-165,-59,249,-385
0,95611,-205,2018,-763,-4181,10475,-983,-59,249,-385
0,95619,-205,2018,-763,-4181,10475,-983,-59,249,-385
0,95625,-205,2018,-763,-4181,10475,-983,-59,249,-385
0,95632,-187,2030,-723,-3467,8774,-1423,-59,249,-385
0,95639,-187,2030,-723,-3467,8774,-1423,-59,249,-385
0,95645,-187,2030,-723,-3467,8774,-1423,-59,249,-385
0,95653,-129,2039,-721,-2612,7394,-1479,-68,240,-398
0,95661,-129,2039,-721,-2612,7394,-1479,-68,240,-398
0,95668,-102,2027,-736,-1998,6422,-1284,-68,240,-398
0,95674,-102,2027,-736,-1998,6422,-1284,-68,240,-398
0,95681,-102,2027,-736,-1998,6422,-1284,-68,240,-398
0,95687,-74,2076,-734,-1533,5658,-699,-68,240,-398
0,95694,-74,2076,-734,-1533,5658,-699,-68,240,-398
0,95703,-74,2076,-734,-1533,5658,-699,-68,240,-398
0,95709,-22,2092,-741,-1021,4986,128,-68,240,-398
0,95716,-22,2092,-741,-1021,4986,128,-68,240,-398
0,95723,-22,2092,-741,-1021,4986,128,-68,240,-398
0,95731,95,2101,-762,-565,4498,992,-68,240,-398
0,95738,95,2101,-762,-565,4498,992,-68,240,-398
0,95747,95,2101,-762,-565,4498,992,-68,240,-398
0,95754,166,2132,-757,-312,4466,1456,-68,240,-398
0,95761,166,2132,-757,-312,4466,1456,-68,240,-398
0,95766,166,2132,-757,-312,4466,1456,-68,240,-398
0,95773,176,2142,-735,-295,4598,1712,-65,229,-397
0,95780,176,2142,-735,-295,4598,1712,-65,229,-397
0,95788,152,2136,-702,-480,4624,1880,-65,229,-397
0,95795,152,2136,-702,-480,4624,1880,-65,229,-397
0,95800,152,2136,-702,-480,4624,1880,-65,229,-397
0,95805,152,2136,-702,-480,4624,1880,-65,229,-397
0,95810,122,2128,-668,-721,4377,1993,-65,229,-397
0,95815,122,2128,-668,-721,4377,1993,-65,229,-397
0,95820,122,2128,-668,-721,4377,1993,-65,229,-397
0,95825,122,2128,-668,-721,4377,1993,-65,229,-397
0,95831,134,2087,-658,-957,3979,1928,-65,229,-397
0,95836,134,2087,-658,-957,3979,1928,-65,229,-397
0,95842,134,2087,-658,-957,3979,1928,-65,229,-397
0,95848,116,2012,-652,-1219,3580,1684,-65,229,-397
0,95854,116,2012,-652,-1219,3580,1684,-65,229,-397
0,95860,116,2012,-652,-1219,3580,1684,-65,229,-397
0,95866,116,2012,-652,-1219,3580,1684,-65,229,-397
0,95872,105,2028,-624,-1350,3045,1489,-65,229,-397
0,95877,105,2028,-624,-1350,3045,1489,-65,229,-397
0,95882,105,2028,-624,-1350,3045,1489,-65,229,-397
0,95888,119,2051,-601,-1431,2529,1322,-65,229,-397
0,95893,119,2051,-601,-1431,2529,1322,-65,229,-397
0,95900,119,2051,-601,-1431,2529,1322,-65,229,-397
0,95906,119,2051,-601,-1431,2529,1322,-65,229,-397
0,95913,113,2036,-595,-1490,2193,1116,-60,212,-408
0,95921,113,2036,-595,-1490,2193,1116,-60,212,-408
0,95928,76,2051,-582,-1392,1852,1099,-60,212,-408
0,95934,76,2051,-582,-1392,1852,1099,-60,212,-408
0,95941,76,2051,-582,-1392,1852,1099,-60,212,-408
0,95949,67,2081,-578,-1186,1418,1201,-60,212,-408
0,95955,67,2081,-578,-1186,1418,1201,-60,212,-408
0,95963,67,2081,-578,-1186,1418,1201,-60,212,-408
0,95970,56,2090,-591,-1006,937,1295,-60,212,-408
0,95977,56,2090,-591,-1006,937,1295,-60,212,-408
0,95984,56,2090,-591,-1006,937,1295,-60,212,-408
0,95991,28,2123,-595,-840,270,1412,-60,212,-408
0,95997,28,2123,-595,-840,270,1412,-60,212,-408
0,96006,28,2123,-595,-840,270,1412,-60,212,-408
0,96013,28,2123,-595,-840,270,1412,-60,212,-408
0,96021,28,2123,-595,-840,270,1412,-60,212,-408
0,96028,4,2181,-581,-555,-1554,1393,-61,203,-405
0,96035,4,2181,-581,-555,-1554,1393,-61,203,-405
0,96041,4,2181,-581,-555,-1554,1393,-61,203,-405
0,96048,-25,2219,-576,-544,-2503,1276,-61,203,-405
0,96056,-25,2219,-576,-544,-2503,1276,-61,203,-405
0,96063,-25,2219,-576,-544,-2503,1276,-61,203,-405
0,96070,-30,2234,-590,-563,-3448,1286,-61,203,-405
0,96077,-30,2234,-590,-563,-3448,1286,-61,203,-405
0,96084,-30,2234,-590,-563,-3448,1286,-61,203,-405
0,96091,-77,2260,-579,-564,-4405,1445,-61,203,-405
0,96098,-77,2260,-579,-564,-4405,1445,-61,203,-405
0,96105,-77,2260,-579,-564,-4405,1445,-61,203,-405
0,96112,-159,2215,-609,-430,-5746,1773,-61,203,-405
0,96120,-159,2215,-609,-430,-5746,1773,-61,203,-405
0,96126,-159,2215,-609,-430,-5746,1773,-61,203,-405
0,96132,-171,2254,-644,211,-7717,2276,-61,203,-405
0,96140,-171,2254,-644,211,-7717,2276,-61,203,-405
0,96145,-171,2254,-644,211,-7717,2276,-61,203,-405
0,96152,-42,2402,-701,1322,-9765,2340,-61,203,-405
0,96159,-42,2402,-701,1322,-9765,2340,-61,203,-405
0,96167,-42,2402,-701,1322,-9765,2340,-61,203,-405
0,96174,42,2463,-770,2036,-11411,1841,-53,213,-415
0,96180,42,2463,-770,2036,-11411,1841,-53,213,-415
0,96187,42,2463,-770,2036,-11411,1841,-53,213,-415
0,96193,26,2677,-776,2424,-13070,1231,-53,213,-415
0,96198,26,2677,-776,2424,-13070,1231,-53,213,-415
0,96206,26,2677,-776,2424,-13070,1231,-53,213,-415
0,96214,-6,2594,-842,2643,-15072,671,-53,213,-415
0,96220,-6,2594,-842,2643,-15072,671,-53,213,-415
0,96228,-6,2594,-842,2643,-15072,671,-53,213,-415
0,96235,4,2401,-926,2979,-17498,485,-53,213,-415
0,96241,4,2401,-926,2979,-17498,485,-53,213,-415
0,96247,4,2401,-926,2979,-17498,485,-53,213,-415
0,96254,139,2192,-1048,3486,-19961,562,-53,213,-415
0,96261,139,2192,-1048,3486,-19961,562,-53,213,-415
0,96268,139,2192,-1048,3486,-19961,562,-53,213,-415
0,96275,478,2048,-1176,3914,-21614,638,-53,213,-415
0,96282,478,2048,-1176,3914,-21614,638,-53,213,-415
0,96288,636,2041,-1221,3864,-21728,1028,-41,247,-429
0,96295,636,2041,-1221,3864,-21728,1028,-41,247,-429
0,96303,636,2041,-1221,3864,-21728,1028,-41,247,-429
0,96310,602,2078,-1197,3522,-21219,1760,-41,247,-429
0,96316,602,2078,-1197,3522,-21219,1760,-41,247,-429
0,96323,602,2078,-1197,3522,-21219,1760,-41,247,-429
0,96331,531,1988,-1179,3261,-20984,2458,-41,247,-429
0,96338,531,1988,-1179,3261,-20984,2458,-41,247,-429
0,96346,531,1988,-1179,3261,-20984,2458,-41,247,-429
0,96353,523,1867,-1190,3450,-20995,2898,-41,247,-429
0,96360,523,1867,-1190,3450,-20995,2898,-41,247,-429
0,96366,523,1867,-1190,3450,-20995,2898,-41,247,-429
0,96374,521,1789,-1227,4117,-20939,2733,-41,247,-429
0,96380,521,1789,-1227,4117,-20939,2733,-41,247,-429
0,96387,521,1789,-1227,4117,-20939,2733,-41,247,-429
0,96394,492,1822,-1261,4996,-20770,2289,-41,247,-429
0,96402,492,1822,-1261,4996,-20770,2289,-41,247,-429
0,96408,475,1812,-1321,5834,-20498,2036,-36,270,-416
0,96415,475,1812,-1321,5834,-20498,2036,-36,270,-416
0,96423,475,1812,-1321,5834,-20498,2036,-36,270,-416
0,96432,484,1821,-1373,6596,-20005,1832,-36,270,-416
0,96439,484,1821,-1373,6596,-20005,1832,-36,270,-416
0,96446,484,1821,-1373,6596,-20005,1832,-36,270,-416
0,96454,506,1891,-1429,7184,-19101,1340,-36,270,-416
0,96459,506,1891,-1429,7184,-19101,1340,-36,270,-416
0,96467,506,1891,-1429,7184,-19101,1340,-36,270,-416
0,96474,539,2046,-1467,7311,-17777,582,-36,270,-416
0,96480,539,2046,-1467,7311,-17777,582,-36,270,-416
0,96486,539,2046,-1467,7311,-17777,582,-36,270,-416
0,96493,526,2189,-1465,6595,-16115,-258,-36,270,-416
0,96501,526,2189,-1465,6595,-16115,-258,-36,270,-416
0,96508,503,2219,-1447,5160,-14321,-786,-36,270,-416
0,96515,503,2219,-1447,5160,-14321,-786,-36,270,-416
0,96521,503,2219,-1447,5160,-14321,-786,-36,270,-416
0,96529,457,2151,-1427,3676,-12464,-1003,-36,270,-416
0,96534,457,2151,-1427,3676,-12464,-1003,-36,270,-416
0,96542,457,2151,-1427,3676,-12464,-1003,-36,270,-416
0,96549,394,2085,-1375,2556,-10651,-1037,-20,316,-412
0,96557,394,2085,-1375,2556,-10651,-1037,-20,316,-412
0,96564,394,2085,-1375,2556,-10651,-1037,-20,316,-412
0,96571,329,2042,-1332,1837,-9013,-973,-20,316,-412
0,96578,329,2042,-1332,1837,-9013,-973,-20,316,-412
0,96584,329,2042,-1332,1837,-9013,-973,-20,316,-412
0,96592,255,2050,-1290,1291,-7632,-876,-20,316,-412
0,96600,255,2050,-1290,1291,-7632,-876,-20,316,-412
0,96607,255,2050,-1290,1291,-7632,-876,-20,316,-412
0,96614,201,2038,-1251,717,-6517,-749,-20,316,-412
0,96620,201,2038,-1251,717,-6517,-749,-20,316,-412
0,96626,201,2038,-1251,717,-6517,-749,-20,316,-412
0,96632,142,2020,-1216,208,-5692,-556,-20,316,-412
0,96637,142,2020,-1216,208,-5692,-556,-20,316,-412
0,96646,142,2020,-1216,208,-5692,-556,-20,316,-412
0,96652,97,1983,-1190,-136,-5161,-362,-20,316,-412
0,96658,97,1983,-1190,-136,-5161,-362,-20,316,-412
0,96664,97,1983,-1190,-136,-5161,-362,-20,316,-412
0,96671,60,1958,-1170,-306,-4877,-227,-18,324,-402
0,96678,60,1958,-1170,-306,-4877,-227,-18,324,-402
0,96687,60,1958,-1170,-306,-4877,-227,-18,324,-402
0,96693,28,1976,-1156,-337,-4786,-134,-18,324,-402
0,96700,28,1976,-1156,-337,-4786,-134,-18,324,-402
0,96709,28,2010,-1174,-354,-4849,-65,-18,324,-402
0,96715,28,2010,-1174,-354,-4849,-65,-18,324,-402
0,96722,28,2010,-1174,-354,-4849,-65,-18,324,-402
0,96730,31,2058,-1204,-438,-4924,-26,-18,324,-402
0,96737,31,2058,-1204,-438,-4924,-26,-18,324,-402
0,96744,31,2058,-1204,-438,-4924,-26,-18,324,-402
0,96751,46,2087,-1219,-481,-5001,4,-18,324,-402
0,96759,46,2087,-1219,-481,-5001,4,-18,324,-402
0,96765,46,2087,-1219,-481,-5001,4,-18,324,-402
0,96771,57,2137,-1228,-574,-4996,9,-18,324,-402
0,96778,57,2137,-1228,-574,-4996,9,-18,324,-402
0,96785,57,2137,-1228,-574,-4996,9,-18,324,-402
0,96792,37,2171,-1232,-775,-4883,105,-18,324,-402
0,96799,37,2171,-1232,-775,-4883,105,-18,324,-402
0,96805,37,2171,-1232,-775,-4883,105,-18,324,-402
0,96809,15,2151,-1269,-859,-4761,265,-16,328,-394
0,96816,15,2151,-1269,-859,-4761,265,-16,328,-394
0,96821,15,2151,-1269,-859,-4761,265,-16,328,-394
0,96826,15,2151,-1269,-859,-4761,265,-16,328,-394
0,96830,-30,2205,-1298,-703,-4589,252,-16,328,-394
0,96836,-30,2205,-1298,-703,-4589,252,-16,328,-394
0,96841,-30,2205,-1298,-703,-4589,252,-16,328,-394
0,96847,-30,2205,-1298,-703,-4589,252,-16,328,-394
0,96854,-102,2292,-1372,-229,-4438,100,-16,328,-394
0,96861,-102,2292,-1372,-229,-4438,100,-16,328,-394
0,96866,-102,2292,-1372,-229,-4438,100,-16,328,-394
0,96871,-200,2404,-1425,272,-4370,34,-16,328,-394
0,96876,-200,2404,-1425,272,-4370,34,-16,328,-394
0,96881,-200,2404,-1425,272,-4370,34,-16,328,-394
0,96887,-200,2404,-1425,272,-4370,34,-16,328,-394
0,96893,-320,2544,-1466,433,-4516,429,-16,328,-394
0,96901,-320,2544,-1466,433,-4516,429,-16,328,-394
0,96908,-320,2544,-1466,433,-4516,429,-16,328,-394
0,96915,-361,2412,-1502,385,-4957,1230,-16,328,-394
0,96922,-361,2412,-1502,385,-4957,1230,-16,328,-394
0,96929,-351,2167,-1519,176,-5364,1818,-3,337,-379
0,96935,-351,2167,-1519,176,-5364,1818,-3,337,-379
0,96944,-351,2167,-1519,176,-5364,1818,-3,337,-379
0,96951,-321,1939,-1504,20,-5512,1818,-3,337,-379
0,96958,-321,1939,-1504,20,-5512,1818,-3,337,-379
0,96964,-321,1939,-1504,20,-5512,1818,-3,337,-379
0,96972,-334,1896,-1448,-39,-5389,1248,-3,337,-379
0,96978,-334,1896,-1448,-39,-5389,1248,-3,337,-379
0,96986,-334,1896,-1448,-39,-5389,1248,-3,337,-379
0,96994,-362,1884,-1415,114,-5227,569,-3,337,-379
0,97000,-362,1884,-1415,114,-5227,569,-3,337,-379
0,97005,-362,1884,-1415,114,-5227,569,-3,337,-379
0,97012,-375,1848,-1421,475,-5093,97,-3,337,-379
0,97019,-375,1848,-1421,475,-5093,97,-3,337,-379
0,97028,-375,1848,-1421,475,-5093,97,-3,337,-379
0,97035,-368,1777,-1462,919,-4896,-123,-3,337,-379
0,97043,-368,1777,-1462,919,-4896,-123,-3,337,-379
0,97051,-365,1792,-1484,1350,-4505,-62,-3,337,-379
0,97056,-365,1792,-1484,1350,-4505,-62,-3,337,-379
0,97064,-365,1792,-1484,1350,-4505,-62,-3,337,-379
0,97070,-370,1854,-1504,1816,-4000,268,-6,350,-384
0,97078,-370,1854,-1504,1816,-4000,268,-6,350,-384
0,97086,-370,1854,-1504,1816,-4000,268,-6,350,-384
0,97094,-362,1886,-1521,2061,-3427,689,-6,350,-384
0,97102,-362,1886,-1521,2061,-3427,689,-6,350,-384
0,97110,-348,1928,-1512,1869,-2818,1159,-6,350,-384
0,97116,-348,1928,-1512,1869,-2818,1159,-6,350,-384
0,97123,-348,1928,-1512,1869,-2818,1159,-6,350,-384
0,97130,-342,1945,-1467,1259,-2269,1620,-6,350,-384
0,97136,-342,1945,-1467,1259,-2269,1620,-6,350,-384
0,97142,-342,1945,-1467,1259,-2269,1620,-6,350,-384
0,97149,-324,1915,-1417,435,-1902,1962,-6,350,-384
0,97157,-324,1915,-1417,435,-1902,1962,-6,350,-384
0,97164,-324,1915,-1417,435,-1902,1962,-6,350,-384
0,97171,-293,1882,-1365,-364,-1710,2159,-6,350,-384
0,97178,-293,1882,-1365,-364,-1710,2159,-6,350,-384
0,97185,-293,1882,-1365,-364,-1710,2159,-6,350,-384
0,97190,-258,1817,-1305,-985,-1591,2202,-3,351,-379
0,97198,-258,1817,-1305,-985,-1591,2202,-3,351,-379
0,97204,-258,1817,-1305,-985,-1591,2202,-3,351,-379
0,97212,-229,1752,-1268,-1448,-1473,2153,-3,351,-379
0,97219,-229,1752,-1268,-1448,-1473,2153,-3,351,-379
0,97225,-229,1752,-1268,-1448,-1473,2153,-3,351,-379
0,97231,-208,1727,-1226,-1662,-1359,2055,-3,351,-379
0,97238,-208,1727,-1226,-1662,-1359,2055,-3,351,-379
0,97246,-208,1727,-1226,-1662,-1359,2055,-3,351,-379
0,97252,-196,1739,-1198,-1523,-1241,1870,-3,351,-379
0,97259,-196,1739,-1198,-1523,-1241,1870,-3,351,-379
0,97266,-196,1739,-1198,-1523,-1241,1870,-3,351,-379
0,97273,-188,1782,-1206,-1269,-1040,1608,-3,351,-379
0,97280,-188,1782,-1206,-1269,-1040,1608,-3,351,-379
0,97287,-188,1782,-1206,-1269,-1040,1608,-3,351,-379
0,97293,-199,1873,-1197,-1177,-739,1370,-3,351,-379
0,97301,-199,1873,-1197,-1177,-739,1370,-3,351,-379
0,97306,-199,1873,-1197,-1177,-739,1370,-3,351,-379
0,97312,-216,1922,-1214,-1259,-407,1268,-10,350,-372
0,97319,-216,1922,-1214,-1259,-407,1268,-10,350,-372
0,97329,-216,1922,-1214,-1259,-407,1268,-10,350,-372
0,97335,-235,1948,-1235,-1313,-99,1266,-10,350,-372
0,97340,-235,1948,-1235,-1313,-99,1266,-10,350,-372
0,97348,-235,1948,-1235,-1313,-99,1266,-10,350,-372
0,97356,-252,2004,-1249,-1390,103,1435,-10,350,-372
0,97363,-252,2004,-1249,-1390,103,1435,-10,350,-372
0,97371,-244,2061,-1249,-1649,204,1750,-10,350,-372
0,97379,-244,2061,-1249,-1649,204,1750,-10,350,-372
0,97386,-244,2061,-1249,-1649,204,1750,-10,350,-372
0,97393,-220,2111,-1239,-2044,309,2051,-10,350,-372
0,97400,-220,2111,-1239,-2044,309,2051,-10,350,-372
0,97408,-220,2111,-1239,-2044,309,2051,-10,350,-372
0,97413,-205,2148,-1220,-2492,455,2303,-10,350,-372
0,97421,-205,2148,-1220,-2492,455,2303,-10,350,-372
0,97428,-205,2148,-1220,-2492,455,2303,-10,350,-372
0,97434,-172,2173,-1210,-2963,588,2565,-10,350,-372
0,97439,-172,2173,-1210,-2963,588,2565,-10,350,-372
0,97447,-172,2173,-1210,-2963,588,2565,-10,350,-372
0,97455,-123,2185,-1202,-3356,762,2802,-13,337,-363
0,97461,-123,2185,-1202,-3356,762,2802,-13,337,-363
0,97468,-123,2185,-1202,-3356,762,2802,-13,337,-363
0,97474,-93,2199,-1211,-3631,1029,2968,-13,337,-363
0,97481,-93,2199,-1211,-3631,1029,2968,-13,337,-363
0,97488,-93,2199,-1211,-3631,1029,2968,-13,337,-363
0,97496,-74,2282,-1209,-3767,1237,3070,-13,337,-363
0,97504,-74,2282,-1209,-3767,1237,3070,-13,337,-363
0,97511,-43,2341,-1258,-3599,1336,3009,-13,337,-363
0,97519,-43,2341,-1258,-3599,1336,3009,-13,337,-363
0,97526,-43,2341,-1258,-3599,1336,3009,-13,337,-363
0,97533,-21,2428,-1296,-3270,1348,2839,-13,337,-363
0,97539,-21,2428,-1296,-3270,1348,2839,-13,337,-363
0,97547,-21,2428,-1296,-3270,1348,2839,-13,337,-363
0,97554,26,2575,-1336,-2851,1303,2556,-13,337,-363
0,97561,26,2575,-1336,-2851,1303,2556,-13,337,-363
0,97567,26,2575,-1336,-2851,1303,2556,-13,337,-363
0,97574,66,2546,-1390,-2570,1412,2021,-18,328,-360
0,97582,66,2546,-1390,-2570,1412,2021,-18,328,-360
0,97588,66,2546,-1390,-2570,1412,2021,-18,328,-360
0,97596,93,2382,-1445,-2630,1566,1551,-18,328,-360
0,97602,93,2382,-1445,-2630,1566,1551,-18,328,-360
0,97609,93,2382,-1445,-2630,1566,1551,-18,328,-360
0,97615,152,2121,-1511,-2773,1559,1535,-18,328,-360
0,97624,152,2121,-1511,-2773,1559,1535,-18,328,-360
0,97632,258,1892,-1567,-2901,1434,1798,-18,328,-360
0,97639,258,1892,-1567,-2901,1434,1798,-18,328,-360
0,97646,258,1892,-1567,-2901,1434,1798,-18,328,-360
0,97652,335,1813,-1563,-3130,1505,1968,-18,328,-360
0,97658,335,1813,-1563,-3130,1505,1968,-18,328,-360
0,97665,335,1813,-1563,-3130,1505,1968,-18,328,-360
0,97672,374,1869,-1514,-3341,1675,2053,-18,328,-360
0,97679,374,1869,-1514,-3341,1675,2053,-18,328,-360
0,97685,374,1869,-1514,-3341,1675,2053,-18,328,-360
0,97692,430,1841,-1493,-3384,1838,2071,-18,328,-360
0,97698,430,1841,-1493,-3384,1838,2071,-18,328,-360
0,97704,430,1841,-1493,-3384,1838,2071,-18,328,-360
0,97713,477,1817,-1507,-3270,2021,1964,-25,327,-347
0,97721,477,1817,-1507,-3270,2021,1964,-25,327,-347
0,97726,477,1817,-1507,-3270,2021,1964,-25,327,-347
0,97732,499,1855,-1512,-2962,2224,1671,-25,327,-347
0,97739,499,1855,-1512,-2962,2224,1671,-25,327,-347
0,97746,499,1855,-1512,-2962,2224,1671,-25,327,-347
0,97753,517,1947,-1523,-2595,2405,1138,-25,327,-347
0,97760,517,1947,-1523,-2595,2405,1138,-25,327,-347
0,97767,517,1947,-1523,-2595,2405,1138,-25,327,-347
0,97775,522,2008,-1528,-2333,2587,339,-25,327,-347
0,97782,522,2008,-1528,-2333,2587,339,-25,327,-347
0,97789,522,2008,-1528,-2333,2587,339,-25,327,-347
0,97797,518,2100,-1493,-2382,2829,-585,-25,327,-347
0,97802,518,2100,-1493,-2382,2829,-585,-25,327,-347
0,97807,518,2100,-1493,-2382,2829,-585,-25,327,-347
0,97812,466,2162,-1441,-3024,3155,-1446,-25,327,-347
0,97818,466,2162,-1441,-3024,3155,-1446,-25,327,-347
0,97823,466,2162,-1441,-3024,3155,-1446,-25,327,-347
0,97828,466,2162,-1441,-3024,3155,-1446,-25,327,-347
0,97833,404,2117,-1372,-4071,3347,-2081,-30,330,-358
0,97840,404,2117,-1372,-4071,3347,-2081,-30,330,-358
0,97845,404,2117,-1372,-4071,3347,-2081,-30,330,-358
0,97849,404,2117,-1372,-4071,3347,-2081,-30,330,-358
0,97857,340,2030,-1301,-5053,3392,-2411,-30,330,-358
0,97862,340,2030,-1301,-5053,3392,-2411,-30,330,-358
0,97867,340,2030,-1301,-5053,3392,-2411,-30,330,-358
0,97872,286,1977,-1232,-5770,3222,-2510,-30,330,-358
0,97878,286,1977,-1232,-5770,3222,-2510,-30,330,-358
0,97883,286,1977,-1232,-5770,3222,-2510,-30,330,-358
0,97888,286,1977,-1232,-5770,3222,-2510,-30,330,-358
0,97893,258,1949,-1159,-6271,2855,-2439,-30,330,-358
0,97900,258,1949,-1159,-6271,2855,-2439,-30,330,-358
0,97908,258,1949,-1159,-6271,2855,-2439,-30,330,-358
0,97914,240,1928,-1072,-6672,2365,-2236,-30,330,-358
0,97921,240,1928,-1072,-6672,2365,-2236,-30,330,-358
0,97928,240,1928,-1072,-6672,2365,-2236,-30,330,-358
0,97935,231,1942,-1019,-6977,1765,-2078,-30,330,-358
0,97942,231,1942,-1019,-6977,1765,-2078,-30,330,-358
0,97949,231,1942,-1019,-6977,1765,-2078,-30,330,-358
0,97955,270,1971,-979,-7301,1234,-2352,-15,333,-335
0,97960,270,1971,-979,-7301,1234,-2352,-15,333,-335
0,97969,270,1971,-979,-7301,1234,-2352,-15,333,-335
0,97975,295,1958,-932,-7656,901,-2766,-15,333,-335
0,97982,295,1958,-932,-7656,901,-2766,-15,333,-335
0,97989,295,1958,-932,-7656,901,-2766,-15,333,-335
0,97996,291,1964,-858,-7970,623,-2893,-15,333,-335
0,98001,291,1964,-858,-7970,623,-2893,-15,333,-335
0,98010,291,1964,-858,-7970,623,-2893,-15,333,-335
0,98018,284,1952,-794,-8058,343,-2773,-15,333,-335
0,98024,284,1952,-794,-8058,343,-2773,-15,333,-335
0,98032,291,2010,-728,-7827,88,-2610,-15,333,-335
0,98039,291,2010,-728,-7827,88,-2610,-15,333,-335
0,98046,291,2010,-728,-7827,88,-2610,-15,333,-335
0,98054,297,2081,-683,-7517,-80,-2577,-15,333,-335
0,98061,297,2081,-683,-7517,-80,-2577,-15,333,-335
0,98068,297,2081,-683,-7517,-80,-2577,-15,333,-335
0,98074,298,2151,-652,-7322,-152,-2592,-15,333,-335
0,98081,298,2151,-652,-7322,-152,-2592,-15,333,-335
0,98088,298,2151,-652,-7322,-152,-2592,-15,333,-335
0,98096,255,2236,-605,-7186,-184,-2521,-20,330,-318
0,98103,255,2236,-605,-7186,-184,-2521,-20,330,-318
0,98109,255,2236,-605,-7186,-184,-2521,-20,330,-318
0,98116,208,2310,-587,-7109,-347,-2415,-20,330,-318
0,98124,208,2310,-587,-7109,-347,-2415,-20,330,-318
0,98131,180,2380,-551,-7278,-581,-2514,-20,330,-318
0,98138,180,2380,-551,-7278,-581,-2514,-20,330,-318
0,98143,180,2380,-551,-7278,-581,-2514,-20,330,-318
0,98150,180,2380,-551,-7278,-581,-2514,-20,330,-318
0,98157,138,2335,-519,-7608,-857,-2469,-20,330,-318
0,98165,138,2335,-519,-7608,-857,-2469,-20,330,-318
0,98172,95,2322,-486,-7568,-1259,-2195,-20,330,-318
0,98178,95,2322,-486,-7568,-1259,-2195,-20,330,-318
0,98186,95,2322,-486,-7568,-1259,-2195,-20,330,-318
0,98193,39,2458,-447,-6979,-1779,-1825,-20,330,-318
0,98200,39,2458,-447,-6979,-1779,-1825,-20,330,-318
0,98208,39,2458,-447,-6979,-1779,-1825,-20,330,-318
0,98215,20,2511,-454,-6232,-2408,-1539,-7,347,-293
0,98222,20,2511,-454,-6232,-2408,-1539,-7,347,-293
0,98229,20,2511,-454,-6232,-2408,-1539,-7,347,-293
0,98236,-1,2682,-429,-5717,-3002,-1331,-7,347,-293
0,98242,-1,2682,-429,-5717,-3002,-1331,-7,347,-293
0,98250,-1,2682,-429,-5717,-3002,-1331,-7,347,-293
0,98256,7,2615,-466,-5567,-3511,-1052,-7,347,-293
0,98264,7,2615,-466,-5567,-3511,-1052,-7,347,-293
0,98271,58,2414,-515,-5654,-3760,-833,-7,347,-293
0,98279,58,2414,-515,-5654,-3760,-833,-7,347,-293
0,98286,58,2414,-515,-5654,-3760,-833,-7,347,-293
0,98293,73,2328,-505,-5733,-3483,-960,-7,347,-293
0,98301,73,2328,-505,-5733,-3483,-960,-7,347,-293
0,98310,73,2328,-505,-5733,-3483,-960,-7,347,-293
0,98318,21,2309,-468,-5791,-2872,-1427,-7,347,-293
0,98324,21,2309,-468,-5791,-2872,-1427,-7,347,-293
0,98331,-51,2265,-440,-5759,-2326,-1832,-7,347,-293
0,98338,-51,2265,-440,-5759,-2326,-1832,-7,347,-293
0,98345,-51,2265,-440,-5759,-2326,-1832,-7,347,-293
0,98351,-51,2265,-440,-5759,-2326,-1832,-7,347,-293
0,98356,-99,2184,-424,-5530,-2034,-1991,1,353,-267
0,98361,-99,2184,-424,-5530,-2034,-1991,1,353,-267
0,98368,-99,2184,-424,-5530,-2034,-1991,1,353,-267
0,98375,-122,2094,-421,-5108,-1888,-1983,1,353,-267
0,98382,-122,2094,-421,-5108,-1888,-1983,1,353,-267
0,98390,-122,2094,-421,-5108,-1888,-1983,1,353,-267
0,98395,-157,2137,-401,-4516,-1780,-1926,1,353,-267
0,98402,-157,2137,-401,-4516,-1780,-1926,1,353,-267
0,98410,-157,2137,-401,-4516,-1780,-1926,1,353,-267
0,98417,-192,2172,-389,-3788,-1774,-1843,1,353,-267
0,98424,-192,2172,-389,-3788,-1774,-1843,1,353,-267
0,98429,-192,2172,-389,-3788,-1774,-1843,1,353,-267
0,98437,-205,2139,-409,-3062,-1865,-1776,1,353,-267
0,98443,-205,2139,-409,-3062,-1865,-1776,1,353,-267
0,98452,-188,2111,-428,-2448,-1987,-1659,1,353,-267
0,98459,-188,2111,-428,-2448,-1987,-1659,1,353,-267
0,98467,-188,2111,-428,-2448,-1987,-1659,1,353,-267
0,98476,-171,2087,-415,-2112,-2082,-1383,13,355,-249
0,98483,-171,2087,-415,-2112,-2082,-1383,13,355,-249
0,98490,-171,2087,-415,-2112,-2082,-1383,13,355,-249
0,98497,-146,2083,-384,-2110,-2155,-958,13,355,-249
0,98504,-146,2083,-384,-2110,-2155,-958,13,355,-249
0,98510,-146,2083,-384,-2110,-2155,-958,13,355,-249
0,98518,-123,2085,-343,-2363,-2242,-425,13,355,-249
0,98526,-123,2085,-343,-2363,-2242,-425,13,355,-249
0,98534,-90,2059,-301,-2770,-2331,101,13,355,-249
0,98540,-90,2059,-301,-2770,-2331,101,13,355,-249
0,98547,-90,2059,-301,-2770,-2331,101,13,355,-249
0,98554,-47,2015,-274,-3242,-2399,492,13,355,-249
0,98562,-47,2015,-274,-3242,-2399,492,13,355,-249
0,98568,-47,2015,-274,-3242,-2399,492,13,355,-249
0,98574,-2,2000,-226,-3605,-2362,752,13,355,-249
0,98581,-2,2000,-226,-3605,-2362,752,13,355,-249
0,98588,-2,2000,-226,-3605,-2362,752,13,355,-249
0,98595,49,1959,-187,-3752,-2198,943,10,352,-240
0,98603,49,1959,-187,-3752,-2198,943,10,352,-240
0,98609,49,1959,-187,-3752,-2198,943,10,352,-240
0,98615,86,1957,-133,-3651,-1817,1084,10,352,-240
0,98623,86,1957,-133,-3651,-1817,1084,10,352,-240
0,98628,86,1957,-133,-3651,-1817,1084,10,352,-240
0,98636,102,1959,-95,-3399,-1296,1226,10,352,-240
0,98643,102,1959,-95,-3399,-1296,1226,10,352,-240
0,98650,102,1959,-95,-3399,-1296,1226,10,352,-240
0,98657,107,1967,-72,-3065,-693,1302,10,352,-240
0,98662,107,1967,-72,-3065,-693,1302,10,352,-240
0,98669,107,1967,-72,-3065,-693,1302,10,352,-240
0,98677,117,1986,-53,-2667,-58,1295,10,352,-240
0,98686,117,1986,-53,-2667,-58,1295,10,352,-240
0,98694,115,2002,-32,-2264,603,1213,10,352,-240
0,98702,115,2002,-32,-2264,603,1213,10,352,-240
0,98709,115,2002,-32,-2264,603,1213,10,352,-240
0,98714,102,2046,-18,-1874,1234,1074,10,352,-240
0,98721,102,2046,-18,-1874,1234,1074,10,352,-240
0,98727,102,2046,-18,-1874,1234,1074,10,352,-240
0,98736,74,2085,-4,-1532,1722,1022,14,344,-234
0,98743,74,2085,-4,-1532,1722,1022,14,344,-234
0,98750,74,2085,-4,-1532,1722,1022,14,344,-234
0,98757,25,2193,13,-1248,1920,1184,14,344,-234
0,98765,25,2193,13,-1248,1920,1184,14,344,-234
0,98772,-10,2290,15,-1284,1831,1489,14,344,-234
0,98779,-10,2290,15,-1284,1831,1489,14,344,-234
0,98786,-10,2290,15,-1284,1831,1489,14,344,-234
0,98793,-16,2383,24,-1755,1610,1743,14,344,-234
0,98799,-16,2383,24,-1755,1610,1743,14,344,-234
0,98804,-16,2383,24,-1755,1610,1743,14,344,-234
0,98809,-16,2383,24,-1755,1610,1743,14,344,-234
0,98814,-5,2414,26,-2543,1380,1775,14,344,-234
0,98820,-5,2414,26,-2543,1380,1775,14,344,-234
0,98825,-5,2414,26,-2543,1380,1775,14,344,-234
0,98830,-5,2414,26,-2543,1380,1775,14,344,-234
0,98835,23,2422,43,-3252,1198,1619,14,344,-234
0,98841,23,2422,43,-3252,1198,1619,14,344,-234
0,98847,23,2422,43,-3252,1198,1619,14,344,-234
0,98854,32,2552,78,-3486,1063,1404,-1,339,-233
0,98861,32,2552,78,-3486,1063,1404,-1,339,-233
0,98866,32,2552,78,-3486,1063,1404,-1,339,-233
0,98871,32,2552,78,-3486,1063,1404,-1,339,-233
0,98876,88,2478,51,-3404,975,1216,-1,339,-233
0,98881,88,2478,51,-3404,975,1216,-1,339,-233
0,98886,88,2478,51,-3404,975,1216,-1,339,-233
0,98891,93,2724,125,-3174,1034,1106,-1,339,-233
0,98896,93,2724,125,-3174,1034,1106,-1,339,-233
0,98903,93,2724,125,-3174,1034,1106,-1,339,-233
0,98909,93,2724,125,-3174,1034,1106,-1,339,-233
0,98914,114,2760,144,-3162,1151,1141,-1,339,-233
0,98920,114,2760,144,-3162,1151,1141,-1,339,-233
0,98925,114,2760,144,-3162,1151,1141,-1,339,-233
0,98931,114,2760,144,-3162,1151,1141,-1,339,-233
0,98937,171,2554,76,-3288,1336,1229,-1,339,-233
0,98942,171,2554,76,-3288,1336,1229,-1,339,-233
0,98948,171,2554,76,-3288,1336,1229,-1,339,-233
0,98953,215,2280,1,-3349,1653,1402,-1,339,-233
0,98959,215,2280,1,-3349,1653,1402,-1,339,-233
0,98965,215,2280,1,-3349,1653,1402,-1,339,-233
0,98970,215,2280,1,-3349,1653,1402,-1,339,-233
0,98976,262,1992,-99,-3175,1966,1751,-1,339,-233
0,98981,262,1992,-99,-3175,1966,1751,-1,339,-233
0,98987,262,1992,-99,-3175,1966,1751,-1,339,-233
0,98992,280,1928,-127,-2535,2195,2168,2,336,-234
0,98997,280,1928,-127,-2535,2195,2168,2,336,-234
0,99003,280,1928,-127,-2535,2195,2168,2,336,-234
0,99009,280,1928,-127,-2535,2195,2168,2,336,-234
0,99014,284,2023,-105,-1769,2256,2462,2,336,-234
0,99020,284,2023,-105,-1769,2256,2462,2,336,-234
0,99026,284,2023,-105,-1769,2256,2462,2,336,-234
0,99032,311,2081,-111,-1217,2087,2641,2,336,-234
0,99037,311,2081,-111,-1217,2087,2641,2,336,-234
0,99042,311,2081,-111,-1217,2087,2641,2,336,-234
0,99048,311,2081,-111,-1217,2087,2641,2,336,-234
0,99054,355,2132,-122,-850,1816,2671,2,336,-234
0,99059,355,2132,-122,-850,1816,2671,2,336,-234
0,99065,355,2132,-122,-850,1816,2671,2,336,-234
0,99070,355,2132,-122,-850,1816,2671,2,336,-234
0,99077,429,2143,-154,-554,1551,2553,2,336,-234
0,99082,429,2143,-154,-554,1551,2553,2,336,-234
0,99088,429,2143,-154,-554,1551,2553,2,336,-234
0,99093,489,2191,-176,-74,1414,2208,2,336,-234
0,99098,489,2191,-176,-74,1414,2208,2,336,-234
0,99103,489,2191,-176,-74,1414,2208,2,336,-234
0,99109,489,2191,-176,-74,1414,2208,2,336,-234
0,99116,538,2191,-210,625,1437,1686,1,333,-243
0,99122,538,2191,-210,625,1437,1686,1,333,-243
0,99127,538,2191,-210,625,1437,1686,1,333,-243
0,99132,553,2166,-247,1385,1653,1020,1,333,-243
0,99138,553,2166,-247,1385,1653,1020,1,333,-243
0,99144,553,2166,-247,1385,1653,1020,1,333,-243
0,99149,553,2166,-247,1385,1653,1020,1,333,-243
0,99155,522,2194,-263,1845,1956,380,1,333,-243
0,99161,522,2194,-263,1845,1956,380,1,333,-243
0,99167,522,2194,-263,1845,1956,380,1,333,-243
0,99173,480,2187,-279,1711,2215,-141,1,333,-243
0,99178,480,2187,-279,1711,2215,-141,1,333,-243
0,99183,480,2187,-279,1711,2215,-141,1,333,-243
0,99188,480,2187,-279,1711,2215,-141,1,333,-243
0,99193,448,2178,-269,1131,2394,-539,1,333,-243
0,99202,448,2178,-269,1131,2394,-539,1,333,-243
0,99208,448,2178,-269,1131,2394,-539,1,333,-243
0,99215,414,2137,-250,353,2540,-867,1,333,-243
0,99222,414,2137,-250,353,2540,-867,1,333,-243
0,99229,414,2137,-250,353,2540,-867,1,333,-243
0,99237,376,2049,-220,-365,2671,-1124,1,333,-243
0,99245,376,2049,-220,-365,2671,-1124,1,333,-243
0,99252,376,2049,-220,-365,2671,-1124,1,333,-243
0,99260,335,1993,-180,-842,2724,-1216,0,334,-250
0,99266,335,1993,-180,-842,2724,-1216,0,334,-250
0,99273,296,1962,-160,-1018,2638,-1151,0,334,-250
0,99279,296,1962,-160,-1018,2638,-1151,0,334,-250
0,99287,296,1962,-160,-1018,2638,-1151,0,334,-250
0,99294,275,1938,-138,-999,2465,-1032,0,334,-250
0,99301,275,1938,-138,-999,2465,-1032,0,334,-250
0,99308,275,1938,-138,-999,2465,-1032,0,334,-250
0,99315,252,1970,-111,-914,2252,-920,0,334,-250
0,99322,252,1970,-111,-914,2252,-920,0,334,-250
0,99330,252,1970,-111,-914,2252,-920,0,334,-250
0,99336,227,2047,-71,-858,1981,-752,0,334,-250
0,99343,227,2047,-71,-858,1981,-752,0,334,-250
0,99351,227,2047,-71,-858,1981,-752,0,334,-250
0,99358,217,2094,-43,-858,1606,-528,0,334,-250
0,99364,217,2094,-43,-858,1606,-528,0,334,-250
0,99373,211,2104,-26,-855,1164,-267,-2,338,-258
0,99380,211,2104,-26,-855,1164,-267,-2,338,-258
0,99386,211,2104,-26,-855,1164,-267,-2,338,-258
0,99392,211,2141,3,-705,682,-33,-2,338,-258
0,99398,211,2141,3,-705,682,-33,-2,338,-258
0,99406,211,2141,3,-705,682,-33,-2,338,-258
0,99414,226,2152,8,-358,165,99,-2,338,-258
0,99419,226,2152,8,-358,165,99,-2,338,-258
0,99425,226,2152,8,-358,165,99,-2,338,-258
0,99431,226,2152,8,-358,165,99,-2,338,-258
0,99439,245,2162,14,140,-343,133,-2,338,-258
0,99447,245,2162,14,140,-343,133,-2,338,-258
0,99452,262,2167,0,696,-825,108,-2,338,-258
0,99460,262,2167,0,696,-825,108,-2,338,-258
0,99468,262,2167,0,696,-825,108,-2,338,-258
0,99474,280,2225,2,1208,-1258,31,-2,338,-258
0,99480,280,2225,2,1208,-1258,31,-2,338,-258
0,99490,280,2225,2,1208,-1258,31,-2,338,-258
0,99502,310,2287,-10,1560,-1637,-48,-5,339,-265
0,99513,315,2436,-20,1856,-1974,-104,-5,339,-265
0,99527,315,2436,-20,1856,-1974,-104,-5,339,-265
0,99542,327,2512,-43,2079,-2287,-195,-5,339,-265
0,99552,327,2512,-43,2079,-2287,-195,-5,339,-265
0,99565,290,2656,-50,2230,-2527,-324,-5,339,-265
0,99580,241,2667,-77,2299,-2773,-350,-5,339,-265
0,99598,189,2583,-149,2359,-3103,-273,-5,339,-265
0,99607,189,2583,-149,2359,-3103,-273,-5,339,-265
0,99618,151,2382,-248,2465,-3433,-171,-5,339,-265
0,99632,151,2382,-248,2465,-3433,-171,-5,339,-265
0,99649,122,2197,-343,2808,-3678,-232,-2,338,-266
0,99665,88,2080,-446,3359,-3717,-629,-2,338,-266
0,99675,22,2213,-480,3814,-3641,-1116,-2,338,-266
0,99685,22,2213,-480,3814,-3641,-1116,-2,338,-266
0,99699,-27,2336,-515,3750,-3650,-1340,-2,338,-266
0,99715,-60,2334,-575,3149,-3742,-1289,-2,338,-266
0,99730,-60,2334,-575,3149,-3742,-1289,-2,338,-266
0,99739,-64,2233,-630,2503,-3843,-1036,-2,338,-266
0,99751,-64,2233,-630,2503,-3843,-1036,-2,338,-266
0,99767,-65,2208,-642,2185,-3886,-790,-8,332,-260
0,99778,-65,2247,-634,2155,-3894,-545,-8,332,-260
0,99787,-65,2247,-634,2155,-3894,-545,-8,332,-260
0,99800,-48,2224,-650,2180,-3881,-259,-8,332,-260
0,99808,-48,2224,-650,2180,-3881,-259,-8,332,-260
0,99816,-30,2216,-667,2061,-3840,73,-8,332,-260
0,99823,-30,2216,-667,2061,-3840,73,-8,332,-260
0,99830,-30,2216,-667,2061,-3840,73,-8,332,-260
0,99838,-16,2213,-662,1660,-3791,410,-8,332,-260
0,99847,-16,2213,-662,1660,-3791,410,-8,332,-260
0,99855,-9,2232,-637,1054,-3799,590,-8,332,-260
0,99862,-9,2232,-637,1054,-3799,590,-8,332,-260
0,99869,-9,2232,-637,1054,-3799,590,-8,332,-260
0,99876,54,2234,-581,168,-3905,855,-8,332,-260
0,99883,54,2234,-581,168,-3905,855,-8,332,-260
0,99888,54,2234,-581,168,-3905,855,-8,332,-260
0,99894,88,2161,-530,-734,-3847,1231,-5,319,-257
0,99901,88,2161,-530,-734,-3847,1231,-5,319,-257
0,99909,88,2161,-530,-734,-3847,1231,-5,319,-257
0,99917,85,2040,-491,-1287,-3756,1420,-5,319,-257
0,99923,85,2040,-491,-1287,-3756,1420,-5,319,-257
0,99931,85,2040,-491,-1287,-3756,1420,-5,319,-257
0,99938,75,1962,-469,-1433,-3799,1502,-5,319,-257
0,99945,75,1962,-469,-1433,-3799,1502,-5,319,-257
0,99955,76,1979,-440,-1255,-4010,1619,-5,319,-257
0,99963,76,1979,-440,-1255,-4010,1619,-5,319,-257
0,99970,76,1979,-440,-1255,-4010,1619,-5,319,-257
0,99979,84,1988,-443,-931,-4283,1644,-5,319,-257
0,99987,84,1988,-443,-931,-4283,1644,-5,319,-257
0,99996,100,2038,-448,-504,-4549,1508,-5,319,-257
0,100002,100,2038,-448,-504,-4549,1508,-5,319,-257
0,100013,100,2038,-448,-504,-4549,1508,-5,319,-257
0,100020,124,2089,-462,-123,-4676,1283,-15,311,-247
0,100029,124,2089,-462,-123,-4676,1283,-15,311,-247
0,100037,143,2131,-486,102,-4625,1072,-15,311,-247
0,100046,143,2131,-486,102,-4625,1072,-15,311,-247
0,100052,143,2131,-486,102,-4625,1072,-15,311,-247
0,100062,165,2185,-510,215,-4391,964,-15,311,-247
0,100070,165,2185,-510,215,-4391,964,-15,311,-247
0,100078,175,2270,-520,111,-4021,1051,-15,311,-247
0,100088,175,2270,-520,111,-4021,1051,-15,311,-247
0,100099,173,2356,-520,-246,-3661,1373,-15,311,-247
0,100107,173,2356,-520,-246,-3661,1373,-15,311,-247
0,100116,137,2430,-496,-820,-3430,1807,-15,311,-247
0,100123,137,2430,-496,-820,-3430,1807,-15,311,-247
0,100132,137,2430,-496,-820,-3430,1807,-15,311,-247
0,100140,129,2438,-465,-1634,-3448,2026,-23,307,-241
0,100148,129,2438,-465,-1634,-3448,2026,-23,307,-241
0,100158,132,2384,-418,-2426,-3606,2074,-23,307,-241
0,100165,132,2384,-418,-2426,-3606,2074,-23,307,-241
0,100174,130,2351,-363,-2979,-3823,2003,-23,307,-241
0,100182,130,2351,-363,-2979,-3823,2003,-23,307,-241
0,100189,130,2351,-363,-2979,-3823,2003,-23,307,-241
0,100197,120,2360,-320,-2969,-4223,1975,-23,307,-241
0,100206,120,2360,-320,-2969,-4223,1975,-23,307,-241
0,100215,136,2390,-314,-2469,-4840,2078,-23,307,-241
0,100225,136,2390,-314,-2469,-4840,2078,-23,307,-241
0,100234,192,2454,-336,-1747,-5539,2251,-23,307,-241
0,100242,192,2454,-336,-1747,-5539,2251,-23,307,-241
0,100255,240,2509,-389,-999,-6127,2457,-23,307,-241
0,100270,240,2509,-389,-999,-6127,2457,-23,307,-241
0,100283,319,2372,-544,-255,-6573,2644,-26,280,-230
0,100291,319,2372,-544,-255,-6573,2644,-26,280,-230
0,100304,407,2223,-713,368,-6787,2692,-26,280,-230
0,100320,477,2203,-824,623,-6746,2632,-26,280,-230
0,100336,529,2182,-866,243,-6469,2411,-26,280,-230
0,100346,529,2182,-866,243,-6469,2411,-26,280,-230
0,100356,523,2239,-826,-560,-6128,2168,-26,280,-230
0,100370,523,2239,-826,-560,-6128,2168,-26,280,-230
0,100386,515,2209,-799,-1302,-5962,2009,-26,280,-230
0,100402,510,2146,-777,-1590,-5955,1850,-35,263,-217
0,100411,510,2146,-777,-1590,-5955,1850,-35,263,-217
0,100424,507,2136,-776,-1362,-6086,1592,-35,263,-217
0,100441,502,2173,-788,-854,-6314,1181,-35,263,-217
0,100455,507,2205,-807,-278,-6598,689,-35,263,-217
0,100465,507,2205,-807,-278,-6598,689,-35,263,-217
0,100478,508,2223,-825,118,-6776,32,-35,263,-217
0,100490,508,2223,-825,118,-6776,32,-35,263,-217
0,100502,484,2262,-805,31,-6754,-738,-35,263,-217
0,100511,484,2262,-805,31,-6754,-738,-35,263,-217
0,100525,439,2281,-747,-583,-6649,-1393,-35,263,-217
0,100538,395,2238,-687,-1466,-6524,-1776,-39,247,-199
0,100554,347,2194,-630,-2263,-6426,-1895,-39,247,-199
0,100564,347,2194,-630,-2263,-6426,-1895,-39,247,-199
0,100574,296,2117,-578,-2813,-6400,-1834,-39,247,-199
0,100588,296,2117,-578,-2813,-6400,-1834,-39,247,-199
0,100603,262,2050,-544,-3112,-6540,-1552,-39,247,-199
0,100618,257,2055,-513,-3087,-6835,-1169,-39,247,-199
0,100626,257,2055,-513,-3087,-6835,-1169,-39,247,-199
0,100640,257,2070,-500,-2812,-7199,-894,-39,247,-199
0,100656,273,2106,-497,-2438,-7621,-717,-30,236,-202
0,100671,273,2106,-497,-2438,-7621,-717,-30,236,-202
0,100681,292,2137,-513,-2079,-8054,-643,-30,236,-202
0,100696,316,2168,-540,-1806,-8425,-650,-30,236,-202
0,100707,316,2168,-540,-1806,-8425,-650,-30,236,-202
0,100721,339,2197,-566,-1649,-8716,-704,-30,236,-202
0,100730,339,2197,-566,-1649,-8716,-704,-30,236,-202
0,100743,352,2206,-591,-1657,-8923,-776,-30,236,-202
0,100756,357,2219,-621,-1801,-9086,-836,-30,236,-202
0,100772,357,2219,-621,-1801,-9086,-836,-30,236,-202
0,100782,360,2253,-625,-1987,-9271,-841,-24,220,-184
0,100792,360,2253,-625,-1987,-9271,-841,-24,220,-184
0,100801,376,2303,-612,-2193,-9420,-844,-24,220,-184
0,100808,376,2303,-612,-2193,-9420,-844,-24,220,-184
0,100815,395,2311,-601,-2448,-9448,-864,-24,220,-184
0,100824,395,2311,-601,-2448,-9448,-864,-24,220,-184
0,100831,395,2311,-601,-2448,-9448,-864,-24,220,-184
0,100838,376,2323,-584,-2830,-9327,-963,-24,220,-184
0,100845,376,2323,-584,-2830,-9327,-963,-24,220,-184
0,100852,376,2323,-584,-2830,-9327,-963,-24,220,-184
0,100860,335,2378,-551,-3195,-9210,-1027,-24,220,-184
0,100868,335,2378,-551,-3195,-9210,-1027,-24,220,-184
0,100875,269,2600,-479,-3269,-9333,-834,-24,220,-184
0,100882,269,2600,-479,-3269,-9333,-834,-24,220,-184
0,100889,269,2600,-479,-3269,-9333,-834,-24,220,-184
0,100896,285,2541,-508,-3060,-9712,-465,-24,220,-184
0,100907,285,2541,-508,-3060,-9712,-465,-24,220,-184
0,100916,307,2422,-550,-2877,-9906,-324,-28,206,-180
0,100927,307,2422,-550,-2877,-9906,-324,-28,206,-180
0,100937,269,2462,-540,-2810,-9853,-317,-28,206,-180
0,100944,269,2462,-540,-2810,-9853,-317,-28,206,-180
0,100955,218,2427,-545,-2822,-9709,-586,-28,206,-180
0,100969,218,2427,-545,-2822,-9709,-586,-28,206,-180
0,100977,155,2336,-565,-2945,-9587,-1043,-28,206,-180
0,100992,155,2336,-565,-2945,-9587,-1043,-28,206,-180
0,101002,110,2220,-543,-3295,-9515,-1390,-28,206,-180
0,101016,73,2184,-461,-3771,-9418,-1505,-28,206,-180
0,101028,73,2184,-461,-3771,-9418,-1505,-28,206,-180
0,101042,30,2136,-386,-3978,-9240,-1463,-24,178,-172
0,101053,30,2136,-386,-3978,-9240,-1463,-24,178,-172
0,101061,-10,2051,-373,-3594,-8952,-1504,-24,178,-172
0,101074,-62,2057,-349,-2664,-8583,-1698,-24,178,-172
0,101091,-62,2057,-349,-2664,-8583,-1698,-24,178,-172
0,101107,-108,2070,-358,-1423,-8293,-1753,-24,178,-172
0,101116,-135,2020,-401,-149,-8154,-1568,-24,178,-172
0,101129,-135,2020,-401,-149,-8154,-1568,-24,178,-172
0,101142,-146,2008,-460,1039,-8109,-1154,-24,178,-172
0,101154,-146,2008,-460,1039,-8109,-1154,-24,178,-172
0,101164,-154,2033,-506,1981,-8136,-682,-24,178,-172
0,101176,-134,2060,-536,2578,-8166,-195,-30,166,-174
0,101190,-134,2060,-536,2578,-8166,-195,-30,166,-174
0,101200,-109,2085,-556,2885,-8131,265,-30,166,-174
0,101211,-109,2085,-556,2885,-8131,265,-30,166,-174
0,101222,-77,2092,-552,3012,-8026,652,-30,166,-174
0,101235,-45,2082,-557,3011,-7846,927,-30,166,-174
0,101249,-45,2082,-557,3011,-7846,927,-30,166,-174
0,101261,-16,2094,-566,2750,-7563,1162,-30,166,-174
0,101273,-16,2094,-566,2750,-7563,1162,-30,166,-174
0,101282,-4,2153,-560,2245,-7290,1461,-30,166,-174
0,101295,16,2163,-562,1720,-7107,1702,-30,166,-174
0,101308,16,2163,-562,1720,-7107,1702,-38,138,-188
0,101321,39,2166,-585,1344,-6925,1755,-38,138,-188
0,101329,39,2166,-585,1344,-6925,1755,-38,138,-188
0,101342,45,2220,-610,988,-6786,1587,-38,138,-188
0,101355,70,2253,-619,555,-6722,1258,-38,138,-188
0,101368,70,2253,-619,555,-6722,1258,-38,138,-188
0,101379,80,2303,-624,48,-6621,877,-38,138,-188
0,101391,80,2303,-624,48,-6621,877,-38,138,-188
0,101405,87,2316,-622,-562,-6454,541,-38,138,-188
0,101413,87,2316,-622,-562,-6454,541,-38,138,-188
0,101426,88,2310,-594,-1114,-6210,353,-38,138,-188
0,101437,95,2290,-563,-1470,-5859,316,-38,138,-188
0,101450,95,2290,-563,-1470,-5859,316,-38,138,-188
0,101462,90,2278,-526,-1616,-5420,445,-38,138,-188
0,101476,89,2279,-507,-1578,-5042,813,-38,138,-188
0,101485,89,2279,-507,-1578,-5042,813,-38,138,-188
0,101495,97,2317,-492,-1425,-4748,1222,-38,138,-188
0,101508,97,2317,-492,-1425,-4748,1222,-38,138,-188
0,101523,101,2424,-483,-1341,-4489,1442,-38,138,-188
0,101535,122,2534,-482,-1271,-4351,1545,-38,138,-188
0,101545,122,2534,-482,-1271,-4351,1545,-38,138,-188
0,101559,137,2670,-488,-1125,-4326,1630,-39,119,-213
0,101572,137,2670,-488,-1125,-4326,1630,-39,119,-213
0,101584,161,2685,-532,-1067,-4493,1765,-39,119,-213
0,101597,209,2496,-652,-1220,-4789,1905,-39,119,-213
0,101609,209,2496,-652,-1220,-4789,1905,-39,119,-213
0,101621,266,2312,-770,-1533,-5093,1722,-39,119,-213
0,101630,266,2312,-770,-1533,-5093,1722,-39,119,-213
0,101644,296,2230,-894,-1634,-5321,1074,-39,119,-213
0,101654,296,2230,-894,-1634,-5321,1074,-39,119,-213
0,101666,319,2208,-988,-1619,-5462,-4,-39,119,-213
0,101678,320,2259,-1002,-1974,-5518,-1079,-37,103,-219
0,101691,320,2259,-1002,-1974,-5518,-1079,-37,103,-219
0,101700,302,2289,-950,-2769,-5595,-1460,-37,103,-219
0,101712,302,2289,-950,-2769,-5595,-1460,-37,103,-219
0,101724,317,2241,-878,-3559,-5657,-1303,-37,103,-219
0,101737,334,2150,-827,-3829,-5588,-1057,-37,103,-219
0,101750,334,2150,-827,-3829,-5588,-1057,-37,103,-219
0,101763,320,2100,-814,-3462,-5464,-810,-37,103,-219
0,101775,320,2100,-814,-3462,-5464,-810,-37,103,-219
0,101783,310,2108,-812,-2644,-5474,-593,-37,103,-219
0,101795,306,2143,-826,-1726,-5528,-661,-37,103,-219
0,101805,306,2143,-826,-1726,-5528,-661,-37,103,-219
0,101813,306,2143,-826,-1726,-5528,-661,-37,103,-219
0,101819,299,2203,-812,-1056,-5474,-1069,-37,107,-215
0,101827,299,2203,-812,-1056,-5474,-1069,-37,107,-215
0,101833,299,2203,-812,-1056,-5474,-1069,-37,107,-215
0,101838,261,2271,-784,-929,-5313,-1543,-37,107,-215
0,101844,261,2271,-784,-929,-5313,-1543,-37,107,-215
0,101851,261,2271,-784,-929,-5313,-1543,-37,107,-215
0,101857,208,2319,-739,-1480,-5188,-1793,-37,107,-215
0,101864,208,2319,-739,-1480,-5188,-1793,-37,107,-215
0,101869,208,2319,-739,-1480,-5188,-1793,-37,107,-215
0,101875,208,2319,-739,-1480,-5188,-1793,-37,107,-215
0,101881,164,2274,-695,-2403,-5245,-1745,-37,107,-215
0,101886,164,2274,-695,-2403,-5245,-1745,-37,107,-215
0,101893,164,2274,-695,-2403,-5245,-1745,-37,107,-215
0,101899,140,2185,-642,-3165,-5469,-1557,-37,107,-215
0,101904,140,2185,-642,-3165,-5469,-1557,-37,107,-215
0,101909,140,2185,-642,-3165,-5469,-1557,-37,107,-215
0,101915,140,2185,-642,-3165,-5469,-1557,-37,107,-215
0,101920,152,2110,-585,-3510,-5798,-1273,-37,107,-215
0,101925,152,2110,-585,-3510,-5798,-1273,-37,107,-215
0,101932,152,2110,-585,-3510,-5798,-1273,-37,107,-215
0,101937,178,2075,-525,-3516,-6123,-959,-35,103,-225
0,101942,178,2075,-525,-3516,-6123,-959,-35,103,-225
0,101948,178,2075,-525,-3516,-6123,-959,-35,103,-225
0,101953,178,2075,-525,-3516,-6123,-959,-35,103,-225
0,101959,196,2069,-488,-3332,-6392,-686,-35,103,-225
0,101965,196,2069,-488,-3332,-6392,-686,-35,103,-225
0,101970,196,2069,-488,-3332,-6392,-686,-35,103,-225
0,101976,228,2089,-481,-3170,-6678,-532,-35,103,-225
0,101981,228,2089,-481,-3170,-6678,-532,-35,103,-225
0,101987,228,2089,-481,-3170,-6678,-532,-35,103,-225
0,101992,228,2089,-481,-3170,-6678,-532,-35,103,-225
0,101998,303,2068,-494,-3166,-6902,-540,-35,103,-225
0,102003,303,2068,-494,-3166,-6902,-540,-35,103,-225
0,102009,303,2068,-494,-3166,-6902,-540,-35,103,-225
0,102016,303,2068,-494,-3166,-6902,-540,-35,103,-225
0,102021,354,2051,-481,-3116,-6867,-699,-35,103,-225
0,102026,354,2051,-481,-3116,-6867,-699,-35,103,-225
0,102032,354,2051,-481,-3116,-6867,-699,-35,103,-225
0,102038,382,2045,-473,-2970,-6614,-907,-35,103,-225
0,102043,382,2045,-473,-2970,-6614,-907,-35,103,-225
0,102049,382,2045,-473,-2970,-6614,-907,-35,103,-225
0,102054,382,2045,-473,-2970,-6614,-907,-35,103,-225
0,102060,388,2062,-464,-2830,-6247,-1212,-35,103,-225
0,102066,388,2062,-464,-2830,-6247,-1212,-35,103,-225
0,102071,388,2062,-464,-2830,-6247,-1212,-35,103,-225
0,102076,385,2059,-458,-2759,-5819,-1513,-35,103,-225
0,102082,385,2059,-458,-2759,-5819,-1513,-40,92,-224
0,102088,385,2059,-458,-2759,-5819,-1513,-40,92,-224
0,102093,385,2059,-458,-2759,-5819,-1513,-40,92,-224
0,102098,348,2092,-461,-2727,-5412,-1678,-40,92,-224
0,102104,348,2092,-461,-2727,-5412,-1678,-40,92,-224
0,102110,348,2092,-461,-2727,-5412,-1678,-40,92,-224
0,102116,348,2092,-461,-2727,-5412,-1678,-40,92,-224
0,102121,353,2138,-455,-2608,-5169,-1657,-40,92,-224
0,102127,353,2138,-455,-2608,-5169,-1657,-40,92,-224
0,102132,353,2138,-455,-2608,-5169,-1657,-40,92,-224
0,102138,354,2197,-455,-2434,-4883,-1700,-40,92,-224
0,102145,354,2197,-455,-2434,-4883,-1700,-40,92,-224
0,102151,354,2197,-455,-2434,-4883,-1700,-40,92,-224
0,102156,354,2197,-455,-2434,-4883,-1700,-40,92,-224
0,102161,312,2303,-438,-2476,-4631,-1718,-40,92,-224
0,102167,312,2303,-438,-2476,-4631,-1718,-40,92,-224
0,102172,312,2303,-438,-2476,-4631,-1718,-40,92,-224
0,102178,316,2352,-420,-2906,-4579,-1539,-40,92,-224
0,102184,316,2352,-420,-2906,-4579,-1539,-40,92,-224
0,102191,316,2352,-420,-2906,-4579,-1539,-40,92,-224
0,102197,335,2290,-429,-3282,-4452,-1452,-45,97,-221
0,102203,335,2290,-429,-3282,-4452,-1452,-45,97,-221
0,102208,335,2290,-429,-3282,-4452,-1452,-45,97,-221
0,102213,335,2290,-429,-3282,-4452,-1452,-45,97,-221
0,102218,288,2384,-392,-3258,-4196,-1503,-45,97,-221
0,102224,288,2384,-392,-3258,-4196,-1503,-45,97,-221
0,102230,288,2384,-392,-3258,-4196,-1503,-45,97,-221
0,102238,264,2416,-396,-2912,-4139,-1329,-45,97,-221
0,102244,264,2416,-396,-2912,-4139,-1329,-45,97,-221
0,102251,264,2416,-396,-2912,-4139,-1329,-45,97,-221
0,102258,235,2509,-385,-2483,-4137,-1241,-45,97,-221
0,102264,235,2509,-385,-2483,-4137,-1241,-45,97,-221
0,102273,235,2509,-385,-2483,-4137,-1241,-45,97,-221
0,102280,206,2635,-393,-2095,-4095,-1144,-45,97,-221
0,102286,206,2635,-393,-2095,-4095,-1144,-45,97,-221
0,102294,206,2635,-393,-2095,-4095,-1144,-45,97,-221
0,102302,153,2699,-411,-1869,-3899,-1053,-45,97,-221
0,102308,153,2699,-411,-1869,-3899,-1053,-45,97,-221
0,102315,153,2699,-411,-1869,-3899,-1053,-45,97,-221
0,102328,102,2626,-468,-1805,-3607,-1042,-36,98,-232
0,102341,52,2485,-506,-1841,-3179,-1246,-36,98,-232
0,102350,52,2485,-506,-1841,-3179,-1246,-36,98,-232
0,102364,-32,2383,-505,-2150,-2544,-1804,-36,98,-232
0,102373,-32,2383,-505,-2150,-2544,-1804,-36,98,-232
0,102387,-118,2365,-438,-2725,-1992,-2216,-36,98,-232
0,102398,-175,2315,-370,-3272,-1621,-2336,-36,98,-232
0,102414,-175,2315,-370,-3272,-1621,-2336,-36,98,-232
0,102422,-230,2154,-356,-3474,-1319,-2481,-36,98,-232
0,102433,-230,2154,-356,-3474,-1319,-2481,-36,98,-232
0,102447,-290,2108,-336,-3107,-1063,-2644,-36,98,-232
0,102461,-343,2059,-341,-2284,-971,-2569,-37,107,-221
0,102473,-343,2059,-341,-2284,-971,-2569,-37,107,-221
0,102483,-395,2024,-396,-1335,-1158,-2203,-37,107,-221
0,102497,-399,2069,-400,-610,-1656,-1458,-37,107,-221
0,102510,-399,2069,-400,-610,-1656,-1458,-37,107,-221
0,102522,-346,2106,-390,-383,-2181,-731,-37,107,-221
0,102535,-346,2106,-390,-383,-2181,-731,-37,107,-221
0,102547,-276,2119,-364,-617,-2508,-196,-37,107,-221
0,102559,-206,2105,-328,-1158,-2638,154,-37,107,-221
0,102568,-206,2105,-328,-1158,-2638,154,-37,107,-221
0,102582,-149,2038,-311,-1735,-2615,383,-44,106,-230
0,102594,-149,2038,-311,-1735,-2615,383,-44,106,-230
0,102607,-109,1986,-280,-2100,-2485,494,-44,106,-230
0,102619,-90,2019,-243,-2172,-2263,523,-44,106,-230
0,102632,-90,2019,-243,-2172,-2263,523,-44,106,-230
0,102643,-83,2036,-206,-2069,-1972,400,-44,106,-230
0,102652,-83,2036,-206,-2069,-1972,400,-44,106,-230
0,102666,-101,2036,-183,-1898,-1657,207,-44,106,-230
0,102681,-116,2048,-168,-1675,-1368,16,-44,106,-230
0,102694,-116,2048,-168,-1675,-1368,16,-44,106,-230
0,102704,-139,2058,-157,-1383,-1114,-125,-44,106,-230
0,102717,-139,2058,-157,-1383,-1114,-125,-44,106,-230
0,102729,-155,2047,-170,-1003,-979,-88,-56,100,-232
0,102744,-159,2065,-188,-597,-1002,118,-56,100,-232
0,102753,-159,2065,-188,-597,-1002,118,-56,100,-232
0,102766,-138,2108,-190,-257,-1084,386,-56,100,-232
0,102778,-121,2169,-181,-105,-1136,557,-56,100,-232
0,102788,-121,2169,-181,-105,-1136,557,-56,100,-232
0,102801,-90,2207,-177,-192,-1167,657,-56,100,-232
0,102807,-90,2207,-177,-192,-1167,657,-56,100,-232
0,102815,-90,2207,-177,-192,-1167,657,-56,100,-232
0,102823,-59,2231,-162,-459,-1137,743,-56,100,-232
0,102832,-59,2231,-162,-459,-1137,743,-56,100,-232
0,102840,-41,2217,-157,-794,-1012,825,-48,90,-234
0,102848,-41,2217,-157,-794,-1012,825,-48,90,-234
0,102855,-41,2217,-157,-794,-1012,825,-48,90,-234
0,102863,-37,2226,-156,-1106,-825,901,-48,90,-234
0,102872,-37,2226,-156,-1106,-825,901,-48,90,-234
0,102878,-37,2194,-160,-1323,-609,879,-48,90,-234
0,102884,-37,2194,-160,-1323,-609,879,-48,90,-234
0,102892,-37,2194,-160,-1323,-609,879,-48,90,-234
0,102897,-66,2361,-108,-1340,-420,837,-48,90,-234
0,102903,-66,2361,-108,-1340,-420,837,-48,90,-234
0,102910,-66,2361,-108,-1340,-420,837,-48,90,-234
0,102917,-66,2361,-108,-1340,-420,837,-48,90,-234
0,102923,-54,2358,-126,-1217,-468,1032,-48,90,-234
0,102930,-54,2358,-126,-1217,-468,1032,-48,90,-234
0,102935,-54,2358,-126,-1217,-468,1032,-48,90,-234
0,102942,-37,2469,-107,-1090,-561,1277,-48,90,-234
0,102948,-37,2469,-107,-1090,-561,1277,-48,90,-234
0,102955,-37,2469,-107,-1090,-561,1277,-48,90,-234
0,102961,-33,2683,-60,-813,-763,1690,-44,96,-234
0,102967,-33,2683,-60,-813,-763,1690,-44,96,-234
0,102973,-33,2683,-60,-813,-763,1690,-44,96,-234
0,102979,38,2556,-133,-566,-1038,2027,-44,96,-234
0,102985,38,2556,-133,-566,-1038,2027,-44,96,-234
0,102991,38,2556,-133,-566,-1038,2027,-44,96,-234
0,102998,99,2456,-222,-338,-1095,2005,-44,96,-234
0,103005,99,2456,-222,-338,-1095,2005,-44,96,-234
0,103011,99,2456,-222,-338,-1095,2005,-44,96,-234
0,103017,142,2265,-345,-103,-991,1858,-44,96,-234
0,103024,142,2265,-345,-103,-991,1858,-44,96,-234
0,103031,142,2265,-345,-103,-991,1858,-44,96,-234
0,103038,172,2145,-474,344,-913,1686,-44,96,-234
0,103045,172,2145,-474,344,-913,1686,-44,96,-234
0,103053,172,2145,-474,344,-913,1686,-44,96,-234
0,103059,207,2120,-561,945,-827,1337,-44,96,-234
0,103065,207,2120,-561,945,-827,1337,-44,96,-234
0,103071,207,2120,-561,945,-827,1337,-44,96,-234
0,103077,204,2245,-565,1143,-682,909,-44,96,-234
0,103085,204,2245,-565,1143,-682,909,-44,96,-234
0,103091,204,2245,-565,1143,-682,909,-44,96,-234
0,103098,206,2284,-546,724,-596,768,-39,89,-235
0,103104,206,2284,-546,724,-596,768,-39,89,-235
0,103111,206,2284,-546,724,-596,768,-39,89,-235
0,103118,224,2217,-577,269,-548,757,-39,89,-235
0,103126,224,2217,-577,269,-548,757,-39,89,-235
0,103137,224,2217,-577,269,-548,757,-39,89,-235
0,103149,204,2183,-613,358,-481,698,-39,89,-235
0,103158,183,2211,-638,785,-620,603,-39,89,-235
0,103172,183,2211,-638,785,-620,603,-39,89,-235
0,103184,167,2270,-659,1299,-999,403,-39,89,-235
0,103193,167,2270,-659,1299,-999,403,-39,89,-235
0,103205,158,2330,-667,1556,-1495,15,-39,89,-235
0,103219,173,2344,-650,1146,-2016,-347,-43,87,-251
0,103231,173,2344,-650,1146,-2016,-347,-43,87,-251
0,103240,213,2296,-606,249,-2437,-483,-43,87,-251
0,103254,213,2296,-606,249,-2437,-483,-43,87,-251
0,103266,246,2206,-565,-561,-2548,-551,-43,87,-251
0,103276,246,2206,-565,-561,-2548,-551,-43,87,-251
0,103287,254,2110,-534,-945,-2386,-597,-43,87,-251
0,103300,243,2073,-498,-916,-2113,-519,-43,87,-251
0,103312,243,2073,-498,-916,-2113,-519,-43,87,-251
0,103326,231,2090,-474,-744,-1879,-333,-43,87,-251
0,103336,231,2090,-474,-744,-1879,-333,-43,87,-251
0,103347,210,2106,-466,-613,-1759,-88,-43,87,-251
0,103356,210,2106,-466,-613,-1759,-88,-43,87,-251
0,103362,196,2103,-458,-605,-1840,112,-52,84,-254
0,103370,196,2103,-458,-605,-1840,112,-52,84,-254
0,103385,187,2109,-452,-702,-2115,239,-52,84,-254
0,103394,187,2109,-452,-702,-2115,239,-52,84,-254
0,103407,203,2084,-460,-799,-2554,365,-52,84,-254
0,103420,232,2082,-469,-834,-3046,391,-52,84,-254
0,103433,232,2082,-469,-834,-3046,391,-52,84,-254
0,103442,259,2099,-483,-808,-3487,347,-52,84,-254
0,103455,259,2099,-483,-808,-3487,347,-52,84,-254
0,103468,296,2130,-486,-794,-3837,328,-52,84,-254
0,103481,336,2176,-484,-784,-4051,363,-40,92,-250
0,103490,336,2176,-484,-784,-4051,363,-40,92,-250
0,103503,371,2235,-482,-850,-4094,384,-40,92,-250
0,103517,371,2235,-482,-850,-4094,384,-40,92,-250
0,103526,399,2286,-474,-998,-3999,330,-40,92,-250
0,103537,399,2286,-474,-998,-3999,330,-40,92,-250
0,103546,418,2284,-464,-1154,-3777,123,-40,92,-250
0,103560,412,2247,-469,-1322,-3439,-179,-40,92,-250
0,103571,412,2247,-469,-1322,-3439,-179,-40,92,-250
0,103585,412,2247,-469,-1322,-3439,-179,-40,92,-250
0,103595,412,2247,-469,-1322,-3439,-179,-40,92,-250
0,103607,314,2526,-369,-1688,-2979,-227,-40,92,-250
0,103618,290,2516,-370,-1707,-3075,7,-40,92,-250
0,103633,290,2516,-370,-1707,-3075,7,-40,92,-250
0,103646,239,2611,-368,-1483,-3179,-10,-40,92,-250
0,103657,239,2611,-368,-1483,-3179,-10,-40,92,-250
0,103670,197,2552,-415,-1067,-3251,-229,-40,92,-250
0,103683,130,2538,-452,-560,-3200,-624,-40,92,-250
0,103695,130,2538,-452,-560,-3200,-624,-40,92,-250
0,103707,53,2468,-500,-142,-3091,-929,-40,92,-250
0,103718,-9,2345,-559,50,-2989,-1101,-40,92,-250
0,103732,-9,2345,-559,50,-2989,-1101,-40,92,-250
0,103743,-61,2278,-564,-108,-2802,-1082,-47,89,-271
0,103755,-61,2278,-564,-108,-2802,-1082,-47,89,-271
0,103767,-145,2278,-523,-750,-2607,-735,-47,89,-271
0,103780,-145,2278,-523,-750,-2607,-735,-47,89,-271
0,103792,-145,2278,-523,-750,-2607,-735,-47,89,-271
0,103801,-293,2162,-466,-2109,-3130,52,-47,89,-271
0,103811,-293,2162,-466,-2109,-3130,52,-47,89,-271
0,103818,-293,2162,-466,-2109,-3130,52,-47,89,-271
0,103826,-353,2146,-461,-1885,-3846,-46,-47,89,-271
0,103834,-353,2146,-461,-1885,-3846,-46,-47,89,-271
0,103842,-403,2159,-469,-1234,-4897,-201,-47,89,-271
0,103851,-403,2159,-469,-1234,-4897,-201,-47,89,-271
0,103859,-380,2174,-504,-619,-6195,-290,-46,92,-274
0,103867,-380,2174,-504,-619,-6195,-290,-46,92,-274
0,103876,-380,2174,-504,-619,-6195,-290,-46,92,-274
0,103883,-326,2189,-526,-231,-7383,-239,-46,92,-274
0,103892,-326,2189,-526,-231,-7383,-239,-46,92,-274
0,103904,-219,2211,-534,-190,-8243,-89,-46,92,-274
0,103917,-219,2211,-534,-190,-8243,-89,-46,92,-274
0,103926,-131,2204,-519,-513,-8568,86,-46,92,-274
0,103939,-72,2190,-500,-1064,-8474,325,-46,92,-274
0,103951,-72,2190,-500,-1064,-8474,325,-46,92,-274
0,103960,-33,2149,-473,-1697,-8122,575,-46,92,-274
0,103972,-33,2149,-473,-1697,-8122,575,-46,92,-274
0,103982,-14,2094,-438,-2249,-7572,695,-46,92,-274
0,103994,-14,2094,-438,-2249,-7572,695,-46,92,-274
0,104007,-18,2051,-391,-2617,-6963,739,-47,77,-291
0,104019,-27,2045,-354,-2764,-6430,758,-47,77,-291
0,104029,-27,2045,-354,-2764,-6430,758,-47,77,-291
0,104041,-39,2017,-338,-2630,-5960,750,-47,77,-291
0,104050,-39,2017,-338,-2630,-5960,750,-47,77,-291
0,104062,-59,2034,-332,-2260,-5599,738,-47,77,-291
0,104076,-59,2034,-332,-2260,-5599,738,-47,77,-291
0,104088,-83,2078,-332,-1793,-5385,700,-47,77,-291
0,104097,-83,2078,-332,-1793,-5385,700,-47,77,-291
0,104111,-79,2127,-338,-1319,-5328,630,-47,77,-291
0,104123,-57,2177,-347,-971,-5316,583,-41,63,-293
0,104136,-57,2177,-347,-971,-5316,583,-41,63,-293
0,104144,-32,2231,-349,-815,-5220,592,-41,63,-293
0,104158,-32,2231,-349,-815,-5220,592,-41,63,-293
0,104171,-12,2284,-332,-923,-4961,550,-41,63,-293
0,104180,-23,2308,-305,-1300,-4542,471,-41,63,-293
0,104193,-23,2308,-305,-1300,-4542,471,-41,63,-293
0,104204,-33,2245,-312,-1729,-4151,539,-41,63,-293
0,104216,-33,2245,-312,-1729,-4151,539,-41,63,-293
0,104228,-21,2200,-308,-1970,-3834,717,-41,63,-293
0,104241,-24,2242,-290,-1937,-3557,890,-41,63,-293
0,104252,-24,2242,-290,-1937,-3557,890,-41,63,-293
0,104261,-16,2310,-266,-1724,-3384,1104,-49,67,-297
0,104274,-16,2310,-266,-1724,-3384,1104,-49,67,-297
0,104290,11,2391,-262,-1381,-3355,1425,-49,67,-297
0,104303,38,2530,-238,-1054,-3439,1789,-49,67,-297
0,104311,38,2530,-238,-1054,-3439,1789,-49,67,-297
0,104325,88,2613,-247,-862,-3616,2145,-49,67,-297
0,104334,88,2613,-247,-862,-3616,2145,-49,67,-297
0,104346,183,2453,-332,-994,-3801,2343,-49,67,-297
0,104359,258,2425,-364,-1340,-3821,2304,-49,67,-297
0,104372,258,2425,-364,-1340,-3821,2304,-49,67,-297
0,104384,352,2359,-380,-1702,-3619,1979,-33,55,-307
0,104397,352,2359,-380,-1702,-3619,1979,-33,55,-307
0,104411,387,2276,-415,-1808,-3078,1363,-33,55,-307
0,104423,398,2126,-481,-1564,-2459,864,-33,55,-307
0,104435,398,2126,-481,-1564,-2459,864,-33,55,-307
0,104445,410,2039,-540,-1142,-1968,713,-33,55,-307
0,104459,410,2039,-540,-1142,-1968,713,-33,55,-307
0,104468,427,2094,-536,-910,-1609,951,-33,55,-307
0,104481,438,2167,-503,-933,-1396,1441,-33,55,-307
0,104495,438,2167,-503,-933,-1396,1441,-33,55,-307
0,104508,495,2154,-503,-939,-1371,1907,-39,47,-311
0,104517,495,2154,-503,-939,-1371,1907,-39,47,-311
0,104528,542,2141,-521,-613,-1373,2216,-39,47,-311
0,104542,569,2197,-541,-31,-1419,2251,-39,47,-311
0,104556,569,2197,-541,-31,-1419,2251,-39,47,-311
0,104569,582,2253,-571,545,-1498,1845,-39,47,-311
0,104580,582,2253,-571,545,-1498,1845,-39,47,-311
0,104593,592,2292,-601,770,-1554,1067,-39,47,-311
0,104605,567,2324,-598,478,-1465,190,-39,47,-311
0,104615,567,2324,-598,478,-1465,190,-39,47,-311
0,104628,511,2302,-568,-222,-1262,-563,-39,47,-311
0,104637,511,2302,-568,-222,-1262,-563,-39,47,-311
0,104647,458,2286,-511,-997,-1095,-978,-34,50,-316
0,104660,418,2227,-466,-1703,-936,-1022,-34,50,-316
0,104674,418,2227,-466,-1703,-936,-1022,-34,50,-316
0,104682,375,2164,-425,-2186,-779,-833,-34,50,-316
0,104691,375,2164,-425,-2186,-779,-833,-34,50,-316
0,104700,328,2104,-392,-2371,-796,-574,-34,50,-316
0,104710,328,2104,-392,-2371,-796,-574,-34,50,-316
0,104722,305,2093,-371,-2215,-1107,-368,-34,50,-316
0,104730,305,2093,-371,-2215,-1107,-368,-34,50,-316
0,104738,305,2093,-371,-2215,-1107,-368,-34,50,-316
0,104747,316,2085,-374,-1913,-1623,-227,-34,50,-316
0,104754,316,2085,-374,-1913,-1623,-227,-34,50,-316
0,104763,333,2092,-384,-1564,-2180,-189,-27,57,-311
0,104769,333,2092,-384,-1564,-2180,-189,-27,57,-311
0,104777,333,2092,-384,-1564,-2180,-189,-27,57,-311
0,104785,366,2118,-392,-1293,-2691,-225,-27,57,-311
0,104794,366,2118,-392,-1293,-2691,-225,-27,57,-311
0,104801,409,2136,-404,-1202,-3044,-311,-27,57,-311
0,104809,409,2136,-404,-1202,-3044,-311,-27,57,-311
0,104817,409,2136,-404,-1202,-3044,-311,-27,57,-311
0,104825,439,2129,-405,-1235,-3160,-424,-27,57,-311
0,104832,439,2129,-405,-1235,-3160,-424,-27,57,-311
0,104838,439,2129,-405,-1235,-3160,-424,-27,57,-311
0,104843,468,2128,-410,-1292,-3104,-535,-27,57,-311
0,104849,468,2128,-410,-1292,-3104,-535,-27,57,-311
0,104854,468,2128,-410,-1292,-3104,-535,-27,57,-311
0,104860,466,2143,-385,-1427,-2918,-635,-27,57,-311
0,104864,466,2143,-385,-1427,-2918,-635,-27,57,-311
0,104869,466,2143,-385,-1427,-2918,-635,-27,57,-311
0,104875,466,2143,-385,-1427,-2918,-635,-27,57,-311
0,104880,466,2143,-385,-1427,-2918,-635,-27,57,-311
0,104884,444,2213,-346,-1559,-2816,-635,-27,57,-311
0,104889,444,2213,-346,-1559,-2816,-635,-27,57,-311
0,104894,444,2213,-346,-1559,-2816,-635,-27,57,-311
0,104899,444,2213,-346,-1559,-2816,-635,-27,57,-311
0,104904,454,2180,-328,-1713,-2827,-605,-33,57,-319
0,104908,454,2180,-328,-1713,-2827,-605,-33,57,-319
0,104913,454,2180,-328,-1713,-2827,-605,-33,57,-319
0,104919,454,2180,-328,-1713,-2827,-605,-33,57,-319
0,104924,455,2169,-320,-1777,-2827,-591,-33,57,-319
0,104929,455,2169,-320,-1777,-2827,-591,-33,57,-319
0,104933,455,2169,-320,-1777,-2827,-591,-33,57,-319
0,104939,455,2169,-320,-1777,-2827,-591,-33,57,-319
0,104944,455,2170,-310,-1665,-2875,-489,-33,57,-319
0,104950,455,2170,-310,-1665,-2875,-489,-33,57,-319
0,104955,455,2170,-310,-1665,-2875,-489,-33,57,-319
0,104961,484,2207,-303,-1390,-2971,-352,-33,57,-319
0,104966,484,2207,-303,-1390,-2971,-352,-33,57,-319
0,104971,484,2207,-303,-1390,-2971,-352,-33,57,-319
0,104976,484,2207,-303,-1390,-2971,-352,-33,57,-319
0,104981,495,2393,-255,-955,-2988,-285,-33,57,-319
0,104987,495,2393,-255,-955,-2988,-285,-33,57,-319
0,104992,495,2393,-255,-955,-2988,-285,-33,57,-319
0,104998,495,2393,-255,-955,-2988,-285,-33,57,-319
0,105006,505,2404,-283,-539,-2899,-319,-33,57,-319
0,105013,505,2404,-283,-539,-2899,-319,-33,57,-319
0,105021,500,2388,-329,-256,-2723,-492,-30,58,-320
0,105029,500,2388,-329,-256,-2723,-492,-30,58,-320
0,105036,500,2388,-329,-256,-2723,-492,-30,58,-320
0,105044,454,2352,-402,-125,-2403,-730,-30,58,-320
0,105052,454,2352,-402,-125,-2403,-730,-30,58,-320
0,105058,454,2352,-402,-125,-2403,-730,-30,58,-320
0,105065,377,2365,-446,-75,-2114,-875,-30,58,-320
0,105071,377,2365,-446,-75,-2114,-875,-30,58,-320
0,105078,377,2365,-446,-75,-2114,-875,-30,58,-320
0,105084,282,2358,-511,-26,-2073,-841,-30,58,-320
0,105093,282,2358,-511,-26,-2073,-841,-30,58,-320
0,105100,282,2358,-511,-26,-2073,-841,-30,58,-320
0,105106,224,2340,-566,79,-2347,-711,-30,58,-320
0,105113,224,2340,-566,79,-2347,-711,-30,58,-320
0,105119,224,2340,-566,79,-2347,-711,-30,58,-320
0,105126,202,2313,-616,171,-2789,-581,-30,58,-320
0,105133,202,2313,-616,171,-2789,-581,-30,58,-320
0,105139,202,2313,-616,171,-2789,-581,-30,58,-320
0,105146,228,2315,-653,142,-3170,-505,-41,53,-329
0,105153,228,2315,-653,142,-3170,-505,-41,53,-329
0,105161,231,2330,-657,-45,-3280,-620,-41,53,-329
0,105169,231,2330,-657,-45,-3280,-620,-41,53,-329
0,105176,231,2330,-657,-45,-3280,-620,-41,53,-329
0,105183,206,2324,-658,-218,-3226,-783,-41,53,-329
0,105190,206,2324,-658,-218,-3226,-783,-41,53,-329
0,105198,206,2324,-658,-218,-3226,-783,-41,53,-329
0,105205,191,2296,-667,-314,-3126,-866,-41,53,-329
0,105212,191,2296,-667,-314,-3126,-866,-41,53,-329
0,105220,191,2296,-667,-314,-3126,-866,-41,53,-329
0,105227,163,2314,-661,-260,-3031,-792,-41,53,-329
0,105234,163,2314,-661,-260,-3031,-792,-41,53,-329
0,105240,163,2314,-661,-260,-3031,-792,-41,53,-329
0,105248,143,2267,-670,-48,-3049,-602,-41,53,-329
0,105255,143,2267,-670,-48,-3049,-602,-41,53,-329
0,105262,134,2215,-704,274,-3266,-346,-41,53,-329
0,105270,134,2215,-704,274,-3266,-346,-41,53,-329
0,105276,134,2215,-704,274,-3266,-346,-41,53,-329
0,105283,144,2199,-737,570,-3618,-48,-32,56,-334
0,105290,144,2199,-737,570,-3618,-48,-32,56,-334
0,105296,144,2199,-737,570,-3618,-48,-32,56,-334
0,105304,183,2223,-743,616,-3920,78,-32,56,-334
0,105310,183,2223,-743,616,-3920,78,-32,56,-334
0,105318,183,2223,-743,616,-3920,78,-32,56,-334
0,105325,222,2210,-747,314,-3991,-4,-32,56,-334
0,105330,222,2210,-747,314,-3991,-4,-32,56,-334
0,105339,222,2210,-747,314,-3991,-4,-32,56,-334
0,105346,260,2193,-717,-147,-3797,-168,-32,56,-334
0,105353,260,2193,-717,-147,-3797,-168,-32,56,-334
0,105360,260,2193,-717,-147,-3797,-168,-32,56,-334
0,105367,278,2157,-678,-589,-3347,-342,-32,56,-334
0,105374,278,2157,-678,-589,-3347,-342,-32,56,-334
0,105380,265,2031,-647,-866,-2739,-370,-32,56,-334
0,105388,265,2031,-647,-866,-2739,-370,-32,56,-334
0,105397,265,2031,-647,-866,-2739,-370,-32,56,-334
0,105403,231,1959,-626,-745,-2184,-255,-38,56,-342
0,105411,231,1959,-626,-745,-2184,-255,-38,56,-342
0,105418,231,1959,-626,-745,-2184,-255,-38,56,-342
0,105424,213,1946,-604,-207,-1769,-163,-38,56,-342
0,105431,213,1946,-604,-207,-1769,-163,-38,56,-342
0,105439,213,1946,-604,-207,-1769,-163,-38,56,-342
0,105445,219,1965,-613,680,-1385,-110,-38,56,-342
0,105451,219,1965,-613,680,-1385,-110,-38,56,-342
0,105459,219,1965,-613,680,-1385,-110,-38,56,-342
0,105466,206,2002,-648,1667,-929,0,-38,56,-342
0,105474,206,2002,-648,1667,-929,0,-38,56,-342
0,105483,202,2082,-672,2517,-459,128,-38,56,-342
0,105490,202,2082,-672,2517,-459,128,-38,56,-342
0,105497,202,2082,-672,2517,-459,128,-38,56,-342
0,105502,203,2116,-718,3018,70,143,-38,56,-342
0,105508,203,2116,-718,3018,70,143,-38,56,-342
0,105515,203,2116,-718,3018,70,143,-38,56,-342
0,105522,204,2293,-723,3244,551,140,-38,56,-342
0,105530,204,2293,-723,3244,551,140,-38,56,-342
0,105537,204,2293,-723,3244,551,140,-38,56,-342
0,105543,193,2283,-748,3114,869,99,-26,56,-358
0,105548,193,2283,-748,3114,869,99,-26,56,-358
0,105555,193,2283,-748,3114,869,99,-26,56,-358
0,105563,180,2271,-792,2781,1029,-52,-26,56,-358
0,105568,180,2271,-792,2781,1029,-52,-26,56,-358
0,105575,180,2271,-792,2781,1029,-52,-26,56,-358
0,105582,146,2341,-829,2316,1036,73,-26,56,-358
0,105589,146,2341,-829,2316,1036,73,-26,56,-358
0,105597,146,2341,-829,2316,1036,73,-26,56,-358
0,105606,85,2460,-864,1372,914,224,-26,56,-358
0,105614,85,2460,-864,1372,914,224,-26,56,-358
0,105620,85,2460,-864,1372,914,224,-26,56,-358
0,105627,9,2539,-897,-24,447,279,-26,56,-358
0,105633,9,2539,-897,-24,447,279,-26,56,-358
0,105640,9,2539,-897,-24,447,279,-26,56,-358
0,105647,-33,2495,-916,-1519,-417,70,-26,56,-358
0,105653,-33,2495,-916,-1519,-417,70,-26,56,-358
0,105661,-33,2495,-916,-1519,-417,70,-26,56,-358
0,105668,-54,2485,-879,-2611,-1552,-339,-30,50,-354
0,105674,-54,2485,-879,-2611,-1552,-339,-30,50,-354
0,105681,-42,2414,-847,-3436,-2764,-854,-30,50,-354
0,105689,-42,2414,-847,-3436,-2764,-854,-30,50,-354
0,105696,-42,2414,-847,-3436,-2764,-854,-30,50,-354
0,105703,-27,2391,-790,-3962,-3798,-1321,-30,50,-354
0,105709,-27,2391,-790,-3962,-3798,-1321,-30,50,-354
0,105716,-27,2391,-790,-3962,-3798,-1321,-30,50,-354
0,105724,-25,2306,-729,-4132,-4691,-1522,-30,50,-354
0,105733,-25,2306,-729,-4132,-4691,-1522,-30,50,-354
0,105741,-25,2306,-729,-4132,-4691,-1522,-30,50,-354
0,105748,8,2212,-699,-4204,-5498,-1503,-30,50,-354
0,105755,8,2212,-699,-4204,-5498,-1503,-30,50,-354
0,105762,66,2187,-651,-4291,-5983,-1288,-30,50,-354
0,105767,66,2187,-651,-4291,-5983,-1288,-30,50,-354
0,105776,66,2187,-651,-4291,-5983,-1288,-30,50,-354
0,105783,123,2150,-616,-4456,-6032,-1034,-30,50,-354
0,105791,123,2150,-616,-4456,-6032,-1034,-30,50,-354
0,105798,123,2150,-616,-4456,-6032,-1034,-30,50,-354
0,105803,139,2150,-570,-4646,-5841,-653,-34,58,-364
0,105808,139,2150,-570,-4646,-5841,-653,-34,58,-364
0,105814,139,2150,-570,-4646,-5841,-653,-34,58,-364
0,105819,139,2150,-570,-4646,-5841,-653,-34,58,-364
0,105824,149,2167,-533,-4742,-5712,-193,-34,58,-364
0,105829,149,2167,-533,-4742,-5712,-193,-34,58,-364
0,105834,149,2167,-533,-4742,-5712,-193,-34,58,-364
0,105839,149,2167,-533,-4742,-5712,-193,-34,58,-364
0,105846,201,2138,-512,-4500,-5709,136,-34,58,-364
0,105853,201,2138,-512,-4500,-5709,136,-34,58,-364
0,105860,201,2138,-512,-4500,-5709,136,-34,58,-364
0,105865,260,2161,-493,-3803,-5630,366,-34,58,-364
0,105871,260,2161,-493,-3803,-5630,366,-34,58,-364
0,105875,260,2161,-493,-3803,-5630,366,-34,58,-364
0,105880,260,2161,-493,-3803,-5630,366,-34,58,-364
0,105885,281,2222,-486,-2896,-5527,743,-34,58,-364
0,105890,281,2222,-486,-2896,-5527,743,-34,58,-364
0,105899,281,2222,-486,-2896,-5527,743,-34,58,-364
0,105905,320,2313,-481,-2083,-5662,1175,-34,58,-364
0,105913,320,2313,-481,-2083,-5662,1175,-34,58,-364
0,105920,320,2313,-481,-2083,-5662,1175,-34,58,-364
0,105927,369,2401,-492,-1691,-6023,1489,-37,61,-365
0,105933,369,2401,-492,-1691,-6023,1489,-37,61,-365
0,105943,458,2384,-535,-1830,-6420,1599,-37,61,-365
0,105951,458,2384,-535,-1830,-6420,1599,-37,61,-365
0,105958,458,2384,-535,-1830,-6420,1599,-37,61,-365
0,105964,565,2319,-560,-2171,-6688,1713,-37,61,-365
0,105969,565,2319,-560,-2171,-6688,1713,-37,61,-365
0,105976,565,2319,-560,-2171,-6688,1713,-37,61,-365
0,105982,669,2261,-556,-2556,-6713,1856,-37,61,-365
0,105991,669,2261,-556,-2556,-6713,1856,-37,61,-365
0,105998,669,2261,-556,-2556,-6713,1856,-37,61,-365
0,106004,730,2209,-528,-3032,-6505,1990,-37,61,-365
0,106011,730,2209,-528,-3032,-6505,1990,-37,61,-365
0,106018,730,2209,-528,-3032,-6505,1990,-37,61,-365
0,106025,755,2153,-498,-3503,-6103,1945,-37,61,-365
0,106032,755,2153,-498,-3503,-6103,1945,-37,61,-365
0,106040,755,2153,-498,-3503,-6103,1945,-37,61,-365
0,106046,739,2118,-473,-3806,-5694,1749,-22,60,-376
0,106053,739,2118,-473,-3806,-5694,1749,-22,60,-376
0,106060,739,2118,-473,-3806,-5694,1749,-22,60,-376
0,106067,722,2058,-457,-3801,-5478,1524,-22,60,-376
0,106075,722,2058,-457,-3801,-5478,1524,-22,60,-376
0,106083,721,2049,-438,-3418,-5400,1248,-22,60,-376
0,106091,721,2049,-438,-3418,-5400,1248,-22,60,-376
0,106098,721,2049,-438,-3418,-5400,1248,-22,60,-376
0,106103,728,2046,-436,-2732,-5388,1016,-22,60,-376
0,106109,728,2046,-436,-2732,-5388,1016,-22,60,-376
0,106117,728,2046,-436,-2732,-5388,1016,-22,60,-376
0,106124,756,2047,-458,-1788,-5402,841,-22,60,-376
0,106130,756,2047,-458,-1788,-5402,841,-22,60,-376
0,106135,756,2047,-458,-1788,-5402,841,-22,60,-376
0,106142,792,2082,-485,-783,-5268,511,-22,60,-376
0,106150,792,2082,-485,-783,-5268,511,-22,60,-376
0,106160,792,2082,-485,-783,-5268,511,-22,60,-376
0,106166,791,2159,-497,-120,-4999,1,-22,60,-376
0,106172,791,2159,-497,-120,-4999,1,-22,60,-376
0,106179,791,2159,-497,-120,-4999,1,-22,60,-376
0,106187,769,2202,-500,-38,-4628,-607,-33,59,-373
0,106193,769,2202,-500,-38,-4628,-607,-33,59,-373
0,106200,769,2202,-500,-38,-4628,-607,-33,59,-373
0,106205,732,2193,-498,-373,-4114,-1244,-33,59,-373
0,106212,732,2193,-498,-373,-4114,-1244,-33,59,-373
0,106218,732,2193,-498,-373,-4114,-1244,-33,59,-373
0,106226,664,2156,-500,-796,-3514,-1796,-33,59,-373
0,106234,664,2156,-500,-796,-3514,-1796,-33,59,-373
0,106241,664,2156,-500,-796,-3514,-1796,-33,59,-373
0,106248,589,2114,-492,-1058,-3074,-2093,-33,59,-373
0,106253,589,2114,-492,-1058,-3074,-2093,-33,59,-373
0,106260,589,2114,-492,-1058,-3074,-2093,-33,59,-373
0,106268,525,2080,-475,-1053,-2880,-2152,-33,59,-373
0,106275,525,2080,-475,-1053,-2880,-2152,-33,59,-373
0,106283,489,2074,-468,-818,-2913,-2135,-33,59,-373
0,106289,489,2074,-468,-818,-2913,-2135,-33,59,-373
0,106296,489,2074,-468,-818,-2913,-2135,-33,59,-373
0,106302,480,2083,-470,-469,-2972,-2170,-33,71,-385
0,106310,480,2083,-470,-469,-2972,-2170,-33,71,-385
0,106317,480,2083,-470,-469,-2972,-2170,-33,71,-385
0,106326,491,2105,-463,-156,-2941,-2210,-33,71,-385
0,106332,491,2105,-463,-156,-2941,-2210,-33,71,-385
0,106337,491,2105,-463,-156,-2941,-2210,-33,71,-385
0,106344,428,2150,-479,87,-2828,-2169,-33,71,-385
0,106351,428,2150,-479,87,-2828,-2169,-33,71,-385
0,106359,428,2150,-479,87,-2828,-2169,-33,71,-385
0,106366,314,2198,-493,53,-3099,-1911,-33,71,-385
0,106372,314,2198,-493,53,-3099,-1911,-33,71,-385
0,106379,314,2198,-493,53,-3099,-1911,-33,71,-385
0,106387,293,2208,-502,-170,-3791,-1715,-33,71,-385
0,106394,293,2208,-502,-170,-3791,-1715,-33,71,-385
0,106401,293,2208,-502,-170,-3791,-1715,-33,71,-385
0,106409,339,2192,-504,-389,-4401,-1733,-33,71,-385
0,106416,339,2192,-504,-389,-4401,-1733,-33,71,-385
0,106423,399,2199,-509,-577,-4630,-1757,-33,71,-385
0,106430,399,2199,-509,-577,-4630,-1757,-33,71,-385
0,106438,399,2199,-509,-577,-4630,-1757,-33,71,-385
0,106445,403,2217,-504,-798,-4576,-1536,-37,79,-391
0,106451,403,2217,-504,-798,-4576,-1536,-37,79,-391
0,106459,403,2217,-504,-798,-4576,-1536,-37,79,-391
0,106466,398,2235,-523,-1074,-4697,-1183,-37,79,-391
0,106473,398,2235,-523,-1074,-4697,-1183,-37,79,-391
0,106480,398,2235,-523,-1074,-4697,-1183,-37,79,-391
0,106487,468,2251,-530,-1225,-4910,-1038,-37,79,-391
0,106494,468,2251,-530,-1225,-4910,-1038,-37,79,-391
0,106502,468,2251,-530,-1225,-4910,-1038,-37,79,-391
0,106510,537,2245,-531,-1300,-4744,-1269,-37,79,-391
0,106516,537,2245,-531,-1300,-4744,-1269,-37,79,-391
0,106521,537,2245,-531,-1300,-4744,-1269,-37,79,-391
0,106529,537,2245,-531,-1300,-4744,-1269,-37,79,-391
0,106536,537,2245,-531,-1300,-4744,-1269,-37,79,-391
0,106544,572,2271,-499,-1560,-3323,-1752,-37,79,-391
0,106551,572,2271,-499,-1560,-3323,-1752,-37,79,-391
0,106556,572,2271,-499,-1560,-3323,-1752,-37,79,-391
0,106563,557,2268,-476,-1805,-2337,-1780,-42,82,-400
0,106569,557,2268,-476,-1805,-2337,-1780,-42,82,-400
0,106577,557,2268,-476,-1805,-2337,-1780,-42,82,-400
0,106586,556,2295,-452,-1989,-1276,-1668,-42,82,-400
0,106592,556,2295,-452,-1989,-1276,-1668,-42,82,-400
0,106599,556,2295,-452,-1989,-1276,-1668,-42,82,-400
0,106606,535,2481,-391,-1927,-171,-1353,-42,82,-400
0,106613,535,2481,-391,-1927,-171,-1353,-42,82,-400
0,106620,535,2481,-391,-1927,-171,-1353,-42,82,-400
0,106629,588,2385,-424,-1802,959,-942,-42,82,-400
0,106635,588,2385,-424,-1802,959,-942,-42,82,-400
0,106642,588,2385,-424,-1802,959,-942,-42,82,-400
0,106648,602,2358,-454,-1560,2349,-812,-42,82,-400
0,106656,602,2358,-454,-1560,2349,-812,-42,82,-400
0,106663,535,2345,-482,-1305,3867,-906,-42,82,-400
0,106672,535,2345,-482,-1305,3867,-906,-42,82,-400
0,106678,535,2345,-482,-1305,3867,-906,-42,82,-400
0,106685,431,2316,-515,-1047,5172,-1248,-40,86,-392
0,106690,431,2316,-515,-1047,5172,-1248,-40,86,-392
0,106698,431,2316,-515,-1047,5172,-1248,-40,86,-392
0,106705,322,2267,-571,-680,6173,-1515,-40,86,-392
0,106712,322,2267,-571,-680,6173,-1515,-40,86,-392
0,106719,322,2267,-571,-680,6173,-1515,-40,86,-392
0,106724,211,2281,-629,-187,6852,-1436,-40,86,-392
0,106730,211,2281,-629,-187,6852,-1436,-40,86,-392
0,106737,211,2281,-629,-187,6852,-1436,-40,86,-392
0,106745,139,2281,-673,82,7183,-1030,-40,86,-392
0,106754,139,2281,-673,82,7183,-1030,-40,86,-392
0,106761,139,2281,-673,82,7183,-1030,-40,86,-392
0,106768,110,2301,-687,36,7373,-557,-40,86,-392
0,106775,110,2301,-687,36,7373,-557,-40,86,-392
0,106781,110,2301,-687,36,7373,-557,-40,86,-392
0,106788,79,2315,-681,-245,7526,-229,-40,86,-392
0,106796,79,2315,-681,-245,7526,-229,-40,86,-392
0,106801,79,2315,-681,-245,7526,-229,-40,86,-392
0,106807,57,2274,-686,-492,7536,-34,-40,86,-392
0,106811,57,2274,-686,-492,7536,-34,-40,86,-392
0,106816,57,2274,-686,-492,7536,-34,-40,86,-392
0,106822,57,2274,-686,-492,7536,-34,-40,86,-392
0,106826,14,2368,-642,-523,7301,35,-38,76,-378
0,106831,14,2368,-642,-523,7301,35,-38,76,-378
0,106836,14,2368,-642,-523,7301,35,-38,76,-378
0,106842,14,2368,-642,-523,7301,35,-38,76,-378
0,106851,28,2335,-643,-415,6728,37,-38,76,-378
0,106856,28,2335,-643,-415,6728,37,-38,76,-378
0,106863,55,2291,-652,-303,6079,-39,-38,76,-378
0,106868,55,2291,-652,-303,6079,-39,-38,76,-378
0,106872,55,2291,-652,-303,6079,-39,-38,76,-378
0,106877,55,2291,-652,-303,6079,-39,-38,76,-378
0,106883,63,2249,-644,-327,5493,-3,-38,76,-378
0,106890,63,2249,-644,-327,5493,-3,-38,76,-378
0,106895,63,2249,-644,-327,5493,-3,-38,76,-378
0,106902,63,2249,-644,-327,5493,-3,-38,76,-378
0,106909,58,2205,-648,-453,4890,157,-38,76,-378
0,106917,58,2205,-648,-453,4890,157,-38,76,-378
0,106924,89,2181,-626,-608,4220,309,-38,76,-378
0,106931,89,2181,-626,-608,4220,309,-38,76,-378
0,106937,89,2181,-626,-608,4220,309,-38,76,-378
0,106942,89,2181,-626,-608,4220,309,-38,76,-378
0,106947,121,2148,-594,-864,3635,339,-40,72,-376
0,106954,121,2148,-594,-864,3635,339,-40,72,-376
0,106962,121,2148,-594,-864,3635,339,-40,72,-376
0,106970,146,2102,-555,-1231,3128,316,-40,72,-376
0,106977,146,2102,-555,-1231,3128,316,-40,72,-376
0,106984,166,2080,-523,-1586,2686,336,-40,72,-376
0,106989,166,2080,-523,-1586,2686,336,-40,72,-376
0,106996,166,2080,-523,-1586,2686,336,-40,72,-376
0,107004,195,2062,-496,-1799,2325,297,-40,72,-376
0,107011,195,2062,-496,-1799,2325,297,-40,72,-376
0,107018,195,2062,-496,-1799,2325,297,-40,72,-376
0,107025,229,2070,-471,-1809,2176,206,-40,72,-376
0,107033,229,2070,-471,-1809,2176,206,-40,72,-376
0,107040,229,2070,-471,-1809,2176,206,-40,72,-376
0,107047,264,2062,-454,-1688,2236,144,-40,72,-376
0,107055,264,2062,-454,-1688,2236,144,-40,72,-376
0,107063,264,2062,-454,-1688,2236,144,-40,72,-376
0,107070,270,2085,-442,-1452,2429,90,-40,72,-376
0,107076,270,2085,-442,-1452,2429,90,-40,72,-376
0,107083,251,2156,-426,-1162,2594,23,-43,77,-359
0,107091,251,2156,-426,-1162,2594,23,-43,77,-359
0,107099,251,2156,-426,-1162,2594,23,-43,77,-359
0,107105,215,2214,-416,-1013,2705,-112,-43,77,-359
0,107113,215,2214,-416,-1013,2705,-112,-43,77,-359
0,107119,215,2214,-416,-1013,2705,-112,-43,77,-359
0,107126,166,2239,-418,-1039,2662,-234,-43,77,-359
0,107132,166,2239,-418,-1039,2662,-234,-43,77,-359
0,107140,166,2239,-418,-1039,2662,-234,-43,77,-359
0,107147,146,2267,-397,-1230,2418,-234,-43,77,-359
0,107153,146,2267,-397,-1230,2418,-234,-43,77,-359
0,107159,146,2267,-397,-1230,2418,-234,-43,77,-359
0,107165,151,2259,-378,-1528,2087,-148,-43,77,-359
0,107172,151,2259,-378,-1528,2087,-148,-43,77,-359
0,107181,151,2259,-378,-1528,2087,-148,-43,77,-359
0,107187,171,2271,-349,-1843,1784,-41,-43,77,-359
0,107193,171,2271,-349,-1843,1784,-41,-43,77,-359
0,107199,171,2271,-349,-1843,1784,-41,-43,77,-359
0,107206,203,2261,-308,-1980,1562,64,-40,68,-352
0,107214,203,2261,-308,-1980,1562,64,-40,68,-352
0,107220,203,2261,-308,-1980,1562,64,-40,68,-352
0,107228,217,2266,-294,-1886,1485,133,-40,68,-352
0,107235,217,2266,-294,-1886,1485,133,-40,68,-352
0,107243,217,2266,-294,-1886,1485,133,-40,68,-352
0,107249,216,2258,-296,-1650,1494,146,-40,68,-352
0,107256,216,2258,-296,-1650,1494,146,-40,68,-352
0,107265,220,2269,-296,-1340,1551,88,-40,68,-352
0,107271,220,2269,-296,-1340,1551,88,-40,68,-352
0,107278,220,2269,-296,-1340,1551,88,-40,68,-352
0,107285,221,2304,-307,-956,1652,-14,-40,68,-352
0,107293,221,2304,-307,-956,1652,-14,-40,68,-352
0,107299,221,2304,-307,-956,1652,-14,-40,68,-352
0,107305,235,2405,-304,-544,1694,-97,-40,68,-352
0,107312,235,2405,-304,-544,1694,-97,-40,68,-352
0,107318,235,2405,-304,-544,1694,-97,-40,68,-352
0,107324,272,2384,-339,-218,1686,-178,-40,68,-352
0,107332,272,2384,-339,-218,1686,-178,-40,68,-352
0,107339,272,2384,-339,-218,1686,-178,-40,68,-352
0,107345,313,2326,-388,-73,1715,-310,-41,61,-349
0,107353,313,2326,-388,-73,1715,-310,-41,61,-349
0,107360,313,2326,-388,-73,1715,-310,-41,61,-349
0,107367,370,2275,-439,-52,1886,-550,-41,61,-349
0,107373,370,2275,-439,-52,1886,-550,-41,61,-349
0,107381,370,2275,-439,-52,1886,-550,-41,61,-349
0,107387,390,2287,-472,16,2317,-871,-41,61,-349
0,107393,390,2287,-472,16,2317,-871,-41,61,-349
0,107401,390,2287,-472,16,2317,-871,-41,61,-349
0,107408,409,2309,-508,167,2915,-1041,-41,61,-349
0,107415,409,2309,-508,167,2915,-1041,-41,61,-349
0,107421,409,2309,-508,167,2915,-1041,-41,61,-349
0,107428,412,2282,-553,288,3558,-953,-41,61,-349
0,107436,412,2282,-553,288,3558,-953,-41,61,-349
0,107442,412,2282,-553,288,3558,-953,-41,61,-349
0,107449,412,2225,-600,321,4076,-697,-41,61,-349
0,107456,412,2225,-600,321,4076,-697,-41,61,-349
0,107462,412,2225,-600,321,4076,-697,-41,61,-349
0,107469,429,2200,-621,289,4371,-399,-39,65,-345
0,107475,429,2200,-621,289,4371,-399,-39,65,-345
0,107483,429,2200,-621,289,4371,-399,-39,65,-345
0,107489,427,2226,-611,170,4415,-98,-39,65,-345
0,107496,427,2226,-611,170,4415,-98,-39,65,-345
0,107504,458,2252,-603,50,4203,181,-39,65,-345
0,107510,458,2252,-603,50,4203,181,-39,65,-345
0,107517,458,2252,-603,50,4203,181,-39,65,-345
0,107526,501,2227,-610,92,3865,402,-39,65,-345
0,107533,501,2227,-610,92,3865,402,-39,65,-345
0,107540,501,2227,-610,92,3865,402,-39,65,-345
0,107547,557,2175,-637,318,3491,587,-39,65,-345
0,107552,557,2175,-637,318,3491,587,-39,65,-345
0,107559,557,2175,-637,318,3491,587,-39,65,-345
0,107568,598,2236,-641,580,3226,545,-39,65,-345
0,107575,598,2236,-641,580,3226,545,-39,65,-345
0,107582,598,2236,-641,580,3226,545,-39,65,-345
0,107589,622,2302,-625,716,3172,142,-34,64,-332
0,107595,622,2302,-625,716,3172,142,-34,64,-332
0,107601,622,2302,-625,716,3172,142,-34,64,-332
0,107608,628,2294,-616,515,3331,-443,-34,64,-332
0,107615,628,2294,-616,515,3331,-443,-34,64,-332
0,107623,628,2294,-616,515,3331,-443,-34,64,-332
0,107629,601,2257,-602,13,3686,-1026,-34,64,-332
0,107636,601,2257,-602,13,3686,-1026,-34,64,-332
0,107644,536,2195,-580,-644,4138,-1464,-34,64,-332
0,107652,536,2195,-580,-644,4138,-1464,-34,64,-332
0,107658,536,2195,-580,-644,4138,-1464,-34,64,-332
0,107666,442,2131,-545,-1171,4533,-1716,-34,64,-332
0,107672,442,2131,-545,-1171,4533,-1716,-34,64,-332
0,107678,442,2131,-545,-1171,4533,-1716,-34,64,-332
0,107684,347,2069,-518,-1411,4671,-1700,-34,64,-332
0,107691,347,2069,-518,-1411,4671,-1700,-34,64,-332
0,107696,347,2069,-518,-1411,4671,-1700,-34,64,-332
0,107703,347,2069,-518,-1411,4671,-1700,-34,64,-332
0,107710,265,2042,-498,-1343,4464,-1442,-34,64,-332
0,107717,265,2042,-498,-1343,4464,-1442,-34,64,-332
0,107724,222,2020,-481,-1127,3910,-1070,-34,70,-328
0,107731,222,2020,-481,-1127,3910,-1070,-34,70,-328
0,107740,222,2020,-481,-1127,3910,-1070,-34,70,-328
0,107747,194,2035,-474,-866,3132,-769,-34,70,-328
0,107753,194,2035,-474,-866,3132,-769,-34,70,-328
0,107759,194,2035,-474,-866,3132,-769,-34,70,-328
0,107767,171,2023,-474,-742,2134,-505,-34,70,-328
0,107774,171,2023,-474,-742,2134,-505,-34,70,-328
0,107781,171,2023,-474,-742,2134,-505,-34,70,-328
0,107788,160,2048,-473,-754,856,-233,-34,70,-328
0,107796,160,2048,-473,-754,856,-233,-34,70,-328
0,107801,160,2048,-473,-754,856,-233,-34,70,-328
0,107806,202,2075,-465,-826,-603,-43,-34,70,-328
0,107811,202,2075,-465,-826,-603,-43,-34,70,-328
0,107816,202,2075,-465,-826,-603,-43,-34,70,-328
0,107822,202,2075,-465,-826,-603,-43,-34,70,-328
0,107827,282,2104,-455,-879,-1945,3,-34,70,-328
0,107832,282,2104,-455,-879,-1945,3,-34,70,-328
0,107838,282,2104,-455,-879,-1945,3,-34,70,-328
0,107845,362,2133,-446,-894,-3017,-18,-42,72,-322
0,107851,362,2133,-446,-894,-3017,-18,-42,72,-322
0,107857,362,2133,-446,-894,-3017,-18,-42,72,-322
0,107864,362,2133,-446,-894,-3017,-18,-42,72,-322
0,107869,450,2212,-438,-859,-3736,-106,-42,72,-322
0,107873,450,2212,-438,-859,-3736,-106,-42,72,-322
0,107878,450,2212,-438,-859,-3736,-106,-42,72,-322
0,107884,450,2212,-438,-859,-3736,-106,-42,72,-322
0,107889,525,2230,-438,-925,-3999,-304,-42,72,-322
0,107894,525,2230,-438,-925,-3999,-304,-42,72,-322
0,107901,525,2230,-438,-925,-3999,-304,-42,72,-322
0,107909,550,2265,-439,-1008,-3929,-558,-42,72,-322
0,107918,550,2265,-439,-1008,-3929,-558,-42,72,-322
0,107924,557,2319,-429,-1090,-3685,-881,-42,72,-322
0,107931,557,2319,-429,-1090,-3685,-881,-42,72,-322
0,107937,557,2319,-429,-1090,-3685,-881,-42,72,-322
0,107945,531,2354,-410,-1216,-3304,-1186,-42,72,-322
0,107953,531,2354,-410,-1216,-3304,-1186,-42,72,-322
0,107959,531,2354,-410,-1216,-3304,-1186,-42,72,-322
0,107964,531,2354,-410,-1216,-3304,-1186,-42,72,-322
0,107972,481,2337,-421,-1328,-2920,-1377,-42,72,-322
0,107978,481,2337,-421,-1328,-2920,-1377,-42,72,-322
0,107986,424,2463,-398,-1254,-2667,-1413,-44,72,-334
0,107992,424,2463,-398,-1254,-2667,-1413,-44,72,-334
0,107996,424,2463,-398,-1254,-2667,-1413,-44,72,-334
0,108001,424,2463,-398,-1254,-2667,-1413,-44,72,-334
0,108007,371,2517,-418,-1035,-2571,-1346,-44,72,-334
0,108012,371,2517,-418,-1035,-2571,-1346,-44,72,-334
0,108017,371,2517,-418,-1035,-2571,-1346,-44,72,-334
0,108022,371,2517,-418,-1035,-2571,-1346,-44,72,-334
0,108027,342,2478,-465,-945,-2583,-1172,-44,72,-334
0,108034,342,2478,-465,-945,-2583,-1172,-44,72,-334
0,108039,342,2478,-465,-945,-2583,-1172,-44,72,-334
0,108045,298,2456,-521,-1010,-2576,-978,-44,72,-334
0,108049,298,2456,-521,-1010,-2576,-978,-44,72,-334
0,108054,298,2456,-521,-1010,-2576,-978,-44,72,-334
0,108060,298,2456,-521,-1010,-2576,-978,-44,72,-334
0,108068,248,2426,-564,-1001,-2620,-839,-44,72,-334
0,108075,248,2426,-564,-1001,-2620,-839,-44,72,-334
0,108082,248,2426,-564,-1001,-2620,-839,-44,72,-334
0,108089,198,2381,-633,-670,-2778,-609,-44,72,-334
0,108096,198,2381,-633,-670,-2778,-609,-44,72,-334
0,108102,198,2381,-633,-670,-2778,-609,-44,72,-334
0,108108,158,2326,-699,-303,-3084,-219,-32,74,-334
0,108114,158,2326,-699,-303,-3084,-219,-32,74,-334
0,108122,158,2326,-699,-303,-3084,-219,-32,74,-334
0,108129,139,2304,-727,-312,-3418,124,-32,74,-334
0,108136,139,2304,-727,-312,-3418,124,-32,74,-334
0,108143,139,2304,-727,-312,-3418,124,-32,74,-334
0,108148,135,2231,-732,-635,-3729,341,-32,74,-334
0,108155,135,2231,-732,-635,-3729,341,-32,74,-334
0,108162,135,2231,-732,-635,-3729,341,-32,74,-334
0,108169,151,2162,-746,-825,-4002,474,-32,74,-334
0,108175,151,2162,-746,-825,-4002,474,-32,74,-334
0,108182,151,2162,-746,-825,-4002,474,-32,74,-334
0,108189,182,2116,-763,-613,-4192,607,-32,74,-334
0,108196,182,2116,-763,-613,-4192,607,-32,74,-334
0,108203,182,2116,-763,-613,-4192,607,-32,74,-334
0,108210,213,2172,-750,-128,-4239,603,-32,74,-334
0,108217,213,2172,-750,-128,-4239,603,-32,74,-334
0,108224,213,2172,-750,-128,-4239,603,-32,74,-334
0,108229,218,2265,-729,295,-4093,461,-46,78,-344
0,108236,218,2265,-729,295,-4093,461,-46,78,-344
0,108243,218,2265,-729,295,-4093,461,-46,78,-344
0,108251,219,2201,-738,506,-3848,344,-46,78,-344
0,108258,219,2201,-738,506,-3848,344,-46,78,-344
0,108265,215,2150,-751,632,-3596,393,-46,78,-344
0,108271,215,2150,-751,632,-3596,393,-46,78,-344
0,108277,215,2150,-751,632,-3596,393,-46,78,-344
0,108284,208,2103,-753,751,-3402,552,-46,78,-344
0,108292,208,2103,-753,751,-3402,552,-46,78,-344
0,108297,208,2103,-753,751,-3402,552,-46,78,-344
0,108306,196,2064,-740,960,-3258,688,-46,78,-344
0,108314,196,2064,-740,960,-3258,688,-46,78,-344
0,108321,196,2064,-740,960,-3258,688,-46,78,-344
0,108328,171,2070,-710,1159,-3237,819,-46,78,-344
0,108335,171,2070,-710,1159,-3237,819,-46,78,-344
0,108342,171,2070,-710,1159,-3237,819,-46,78,-344
0,108347,143,2070,-682,1171,-3394,923,-46,78,-344
0,108354,143,2070,-682,1171,-3394,923,-46,78,-344
0,108362,143,2070,-682,1171,-3394,923,-46,78,-344
0,108367,142,2015,-657,980,-3674,972,-44,76,-358
0,108374,142,2015,-657,980,-3674,972,-44,76,-358
0,108380,142,2015,-657,980,-3674,972,-44,76,-358
0,108387,166,1978,-655,815,-3894,876,-44,76,-358
0,108394,166,1978,-655,815,-3894,876,-44,76,-358
0,108400,166,1978,-655,815,-3894,876,-44,76,-358
0,108408,192,1999,-638,885,-3953,659,-44,76,-358
0,108416,192,1999,-638,885,-3953,659,-44,76,-358
0,108422,192,1999,-638,885,-3953,659,-44,76,-358
0,108428,239,2005,-657,1076,-3843,504,-44,76,-358
0,108435,239,2005,-657,1076,-3843,504,-44,76,-358
0,108443,239,2005,-657,1076,-3843,504,-44,76,-358
0,108450,259,2086,-683,1246,-3490,467,-44,76,-358
0,108457,259,2086,-683,1246,-3490,467,-44,76,-358
0,108466,252,2146,-712,1232,-3009,463,-44,76,-358
0,108473,252,2146,-712,1232,-3009,463,-44,76,-358
0,108480,252,2146,-712,1232,-3009,463,-44,76,-358
0,108488,235,2194,-719,963,-2625,431,-31,79,-369
0,108494,235,2194,-719,963,-2625,431,-31,79,-369
0,108502,235,2194,-719,963,-2625,431,-31,79,-369
0,108508,233,2204,-724,539,-2351,368,-31,79,-369
0,108514,233,2204,-724,539,-2351,368,-31,79,-369
0,108521,233,2204,-724,539,-2351,368,-31,79,-369
0,108528,232,2211,-729,153,-2110,218,-31,79,-369
0,108534,232,2211,-729,153,-2110,218,-31,79,-369
0,108540,232,2211,-729,153,-2110,218,-31,79,-369
0,108546,261,2235,-726,-124,-1768,17,-31,79,-369
0,108553,261,2235,-726,-124,-1768,17,-31,79,-369
0,108560,261,2235,-726,-124,-1768,17,-31,79,-369
0,108565,258,2276,-720,-257,-1259,-96,-31,79,-369
0,108573,258,2276,-720,-257,-1259,-96,-31,79,-369
0,108581,258,2276,-720,-257,-1259,-96,-31,79,-369
0,108588,245,2259,-727,-381,-732,-12,-31,79,-369
0,108595,245,2259,-727,-381,-732,-12,-31,79,-369
0,108600,245,2259,-727,-381,-732,-12,-31,79,-369
0,108608,233,2305,-725,-483,-276,126,-31,79,-369
0,108614,233,2305,-725,-483,-276,126,-31,79,-369
0,108621,233,2305,-725,-483,-276,126,-31,79,-369
0,108631,220,2373,-729,-683,124,154,-39,83,-375
0,108637,220,2373,-729,-683,124,154,-39,83,-375
0,108643,220,2373,-729,-683,124,154,-39,83,-375
0,108648,207,2476,-719,-887,393,83,-39,83,-375
0,108656,207,2476,-719,-887,393,83,-39,83,-375
0,108663,207,2476,-719,-887,393,83,-39,83,-375
0,108673,213,2530,-727,-949,504,-72,-39,83,-375
0,108681,213,2530,-727,-949,504,-72,-39,83,-375
0,108687,241,2552,-745,-1000,527,-197,-39,83,-375
0,108693,241,2552,-745,-1000,527,-197,-39,83,-375
0,108701,241,2552,-745,-1000,527,-197,-39,83,-375
0,108708,284,2527,-775,-1060,514,-152,-39,83,-375
0,108715,284,2527,-775,-1060,514,-152,-39,83,-375
0,108724,284,2527,-775,-1060,514,-152,-39,83,-375
0,108732,346,2483,-820,-1120,549,-40,-39,83,-375
0,108739,346,2483,-820,-1120,549,-40,-39,83,-375
0,108747,391,2346,-872,-1117,650,131,-26,78,-374
0,108754,391,2346,-872,-1117,650,131,-26,78,-374
0,108761,391,2346,-872,-1117,650,131,-26,78,-374
0,108768,446,2218,-928,-976,595,325,-26,78,-374
0,108775,446,2218,-928,-976,595,325,-26,78,-374
0,108782,446,2218,-928,-976,595,325,-26,78,-374
0,108791,518,2173,-956,-852,454,421,-26,78,-374
0,108800,518,2173,-956,-852,454,421,-26,78,-374
0,108804,518,2173,-956,-852,454,421,-26,78,-374
0,108809,568,2166,-943,-938,340,347,-26,78,-374
0,108814,568,2166,-943,-938,340,347,-26,78,-374
0,108819,568,2166,-943,-938,340,347,-26,78,-374
0,108824,568,2166,-943,-938,340,347,-26,78,-374
0,108829,623,2114,-943,-982,256,215,-26,78,-374
0,108834,623,2114,-943,-982,256,215,-26,78,-374
0,108839,623,2114,-943,-982,256,215,-26,78,-374
0,108848,662,2084,-945,-664,293,67,-26,78,-374
0,108854,662,2084,-945,-664,293,67,-26,78,-374
0,108861,662,2084,-945,-664,293,67,-26,78,-374
0,108866,680,2087,-961,-130,423,-93,-26,78,-374
0,108871,680,2087,-961,-130,423,-93,-26,78,-374
0,108876,680,2087,-961,-130,423,-93,-26,78,-374
0,108881,680,2087,-961,-130,423,-93,-26,78,-374
0,108888,666,2172,-949,246,597,-340,-41,71,-367
0,108894,666,2172,-949,246,597,-340,-41,71,-367
0,108899,666,2172,-949,246,597,-340,-41,71,-367
0,108904,666,2172,-949,246,597,-340,-41,71,-367
0,108911,660,2204,-952,300,789,-717,-41,71,-367
0,108918,660,2204,-952,300,789,-717,-41,71,-367
0,108925,661,2152,-956,165,1056,-1160,-41,71,-367
0,108933,661,2152,-956,165,1056,-1160,-41,71,-367
0,108940,661,2152,-956,165,1056,-1160,-41,71,-367
0,108945,661,2152,-956,165,1056,-1160,-41,71,-367
0,108951,653,2115,-958,-64,1487,-1614,-41,71,-367
0,108958,653,2115,-958,-64,1487,-1614,-41,71,-367
0,108965,611,2097,-929,-410,2082,-1953,-41,71,-367
0,108974,611,2097,-929,-410,2082,-1953,-41,71,-367
0,108980,611,2097,-929,-410,2082,-1953,-41,71,-367
0,108985,611,2097,-929,-410,2082,-1953,-41,71,-367
0,108993,554,2072,-879,-789,2681,-2093,-41,71,-367
0,108999,554,2072,-879,-789,2681,-2093,-41,71,-367
0,109007,493,2038,-835,-1078,3067,-1939,-34,78,-366
0,109016,493,2038,-835,-1078,3067,-1939,-34,78,-366
0,109023,493,2038,-835,-1078,3067,-1939,-34,78,-366
0,109029,460,2006,-811,-1278,3210,-1534,-34,78,-366
0,109036,460,2006,-811,-1278,3210,-1534,-34,78,-366
0,109043,460,2006,-811,-1278,3210,-1534,-34,78,-366
0,109050,457,2001,-787,-1393,3206,-1148,-34,78,-366
0,109059,457,2001,-787,-1393,3206,-1148,-34,78,-366
0,109067,454,1980,-785,-1402,3102,-911,-34,78,-366
0,109073,454,1980,-785,-1402,3102,-911,-34,78,-366
0,109081,454,1980,-785,-1402,3102,-911,-34,78,-366
0,109087,470,1991,-764,-1314,2865,-812,-34,78,-366
0,109094,470,1991,-764,-1314,2865,-812,-34,78,-366
0,109101,470,1991,-764,-1314,2865,-812,-34,78,-366
0,109108,487,2040,-748,-1285,2585,-808,-34,78,-366
0,109115,487,2040,-748,-1285,2585,-808,-34,78,-366
0,109123,487,2040,-748,-1285,2585,-808,-34,78,-366
0,109129,504,2052,-732,-1416,2280,-848,-43,75,-355
0,109137,504,2052,-732,-1416,2280,-848,-43,75,-355
0,109145,504,2052,-732,-1416,2280,-848,-43,75,-355
0,109151,512,2092,-719,-1569,1959,-886,-43,75,-355
0,109159,512,2092,-719,-1569,1959,-886,-43,75,-355
0,109165,512,2092,-719,-1569,1959,-886,-43,75,-355
0,109173,523,2135,-692,-1724,1671,-995,-43,75,-355
0,109179,523,2135,-692,-1724,1671,-995,-43,75,-355
0,109187,527,2159,-668,-1875,1451,-1213,-43,75,-355
0,109194,527,2159,-668,-1875,1451,-1213,-43,75,-355
0,109202,527,2159,-668,-1875,1451,-1213,-43,75,-355
0,109208,526,2170,-655,-2018,1309,-1404,-43,75,-355
0,109215,526,2170,-655,-2018,1309,-1404,-43,75,-355
0,109221,526,2170,-655,-2018,1309,-1404,-43,75,-355
0,109229,536,2162,-639,-2096,1235,-1522,-43,75,-355
0,109235,536,2162,-639,-2096,1235,-1522,-43,75,-355
0,109244,536,2162,-639,-2096,1235,-1522,-43,75,-355
0,109250,527,2166,-620,-2122,1213,-1629,-43,75,-355
0,109258,527,2166,-620,-2122,1213,-1629,-43,75,-355
0,109264,527,2166,-620,-2122,1213,-1629,-43,75,-355
0,109272,506,2179,-595,-2170,1207,-1766,-36,82,-354
0,109279,506,2179,-595,-2170,1207,-1766,-36,82,-354
0,109287,467,2188,-593,-2226,1158,-1900,-36,82,-354
0,109293,467,2188,-593,-2226,1158,-1900,-36,82,-354
0,109300,467,2188,-593,-2226,1158,-1900,-36,82,-354
0,109309,446,2200,-593,-2122,1035,-2014,-36,82,-354
0,109316,446,2200,-593,-2122,1035,-2014,-36,82,-354
0,109323,446,2200,-593,-2122,1035,-2014,-36,82,-354
0,109329,409,2342,-590,-1771,880,-2113,-36,82,-354
0,109336,409,2342,-590,-1771,880,-2113,-36,82,-354
0,109342,409,2342,-590,-1771,880,-2113,-36,82,-354
0,109349,366,2442,-603,-1298,622,-2093,-36,82,-354
0,109357,366,2442,-603,-1298,622,-2093,-36,82,-354
0,109364,366,2442,-603,-1298,622,-2093,-36,82,-354
0,109369,351,2481,-633,-1005,311,-2002,-36,82,-354
0,109376,351,2481,-633,-1005,311,-2002,-36,82,-354
0,109383,351,2481,-633,-1005,311,-2002,-36,82,-354
0,109388,327,2465,-677,-963,125,-1963,-42,80,-352
0,109394,327,2465,-677,-963,125,-1963,-42,80,-352
0,109403,327,2465,-677,-963,125,-1963,-42,80,-352
0,109410,295,2389,-740,-1079,59,-1907,-42,80,-352
0,109416,295,2389,-740,-1079,59,-1907,-42,80,-352
0,109421,295,2389,-740,-1079,59,-1907,-42,80,-352
0,109429,252,2342,-799,-1144,49,-1700,-42,80,-352
0,109435,252,2342,-799,-1144,49,-1700,-42,80,-352
0,109444,252,2342,-799,-1144,49,-1700,-42,80,-352
0,109450,224,2327,-829,-1110,7,-1311,-42,80,-352
0,109457,224,2327,-829,-1110,7,-1311,-42,80,-352
0,109463,224,2327,-829,-1110,7,-1311,-42,80,-352
0,109471,205,2323,-848,-1113,-15,-1043,-42,80,-352
0,109478,205,2323,-848,-1113,-15,-1043,-42,80,-352
0,109485,205,2323,-848,-1113,-15,-1043,-42,80,-352
0,109492,176,2305,-853,-1256,47,-1092,-42,80,-352
0,109500,176,2305,-853,-1256,47,-1092,-42,80,-352
0,109507,138,2245,-879,-1263,147,-1281,-42,80,-352
0,109515,138,2245,-879,-1263,147,-1281,-42,80,-352
0,109520,138,2245,-879,-1263,147,-1281,-42,80,-352
0,109529,108,2251,-893,-938,183,-1341,-52,82,-344
0,109536,108,2251,-893,-938,183,-1341,-52,82,-344
0,109544,108,2251,-893,-938,183,-1341,-52,82,-344
0,109552,86,2344,-887,-400,158,-1222,-52,82,-344
0,109559,86,2344,-887,-400,158,-1222,-52,82,-344
0,109565,86,2344,-887,-400,158,-1222,-52,82,-344
0,109572,87,2299,-913,46,77,-947,-52,82,-344
0,109579,87,2299,-913,46,77,-947,-52,82,-344
0,109586,87,2299,-913,46,77,-947,-52,82,-344
0,109594,95,2283,-909,155,20,-507,-52,82,-344
0,109601,95,2283,-909,155,20,-507,-52,82,-344
0,109607,101,2275,-884,-250,-41,-2,-52,82,-344
0,109615,101,2275,-884,-250,-41,-2,-52,82,-344
0,109623,101,2275,-884,-250,-41,-2,-52,82,-344
0,109630,111,2253,-815,-994,-94,388,-52,82,-344
0,109637,111,2253,-815,-994,-94,388,-52,82,-344
0,109645,111,2253,-815,-994,-94,388,-52,82,-344
0,109651,104,2186,-744,-1831,-207,662,-49,91,-341
0,109659,104,2186,-744,-1831,-207,662,-49,91,-341
0,109665,104,2186,-744,-1831,-207,662,-49,91,-341
0,109673,122,2082,-682,-2416,-449,815,-49,91,-341
0,109679,122,2082,-682,-2416,-449,815,-49,91,-341
0,109687,151,1996,-646,-2513,-709,834,-49,91,-341
0,109693,151,1996,-646,-2513,-709,834,-49,91,-341
0,109701,151,1996,-646,-2513,-709,834,-49,91,-341
0,109708,164,1969,-623,-2196,-900,757,-49,91,-341
0,109715,164,1969,-623,-2196,-900,757,-49,91,-341
0,109724,164,1969,-623,-2196,-900,757,-49,91,-341
0,109730,159,2013,-586,-1726,-1048,675,-49,91,-341
0,109737,159,2013,-586,-1726,-1048,675,-49,91,-341
0,109745,159,2013,-586,-1726,-1048,675,-49,91,-341
0,109752,170,2027,-574,-1409,-1220,688,-49,91,-341
0,109760,170,2027,-574,-1409,-1220,688,-49,91,-341
0,109767,171,2038,-585,-1222,-1443,765,-49,89,-341
0,109772,171,2038,-585,-1222,-1443,765,-49,89,-341
0,109778,171,2038,-585,-1222,-1443,765,-49,89,-341
0,109787,171,2038,-585,-1222,-1443,765,-49,89,-341
0,109795,184,2045,-594,-1028,-1685,787,-49,89,-341
0,109801,184,2045,-594,-1028,-1685,787,-49,89,-341
0,109806,184,2045,-594,-1028,-1685,787,-49,89,-341
0,109811,205,2075,-599,-774,-1884,697,-49,89,-341
0,109816,205,2075,-599,-774,-1884,697,-49,89,-341
0,109821,205,2075,-599,-774,-1884,697,-49,89,-341
0,109827,214,2120,-586,-702,-2046,641,-49,89,-341
0,109833,214,2120,-586,-702,-2046,641,-49,89,-341
0,109838,214,2120,-586,-702,-2046,641,-49,89,-341
0,109843,214,2120,-586,-702,-2046,641,-49,89,-341
0,109850,233,2140,-586,-941,-2218,682,-49,89,-341
0,109855,233,2140,-586,-941,-2218,682,-49,89,-341
0,109862,233,2140,-586,-941,-2218,682,-49,89,-341
0,109868,251,2134,-596,-1248,-2317,713,-49,89,-341
0,109873,251,2134,-596,-1248,-2317,713,-49,89,-341
0,109878,251,2134,-596,-1248,-2317,713,-49,89,-341
0,109883,251,2134,-596,-1248,-2317,713,-49,89,-341
0,109888,252,2120,-596,-1451,-2349,659,-49,89,-341
0,109894,252,2120,-596,-1451,-2349,659,-49,89,-341
0,109901,252,2120,-596,-1451,-2349,659,-49,89,-341
0,109906,252,2120,-596,-1451,-2349,659,-49,89,-341
0,109912,246,2102,-580,-1615,-2322,604,-46,86,-346
0,109917,246,2102,-580,-1615,-2322,604,-46,86,-346
0,109922,246,2102,-580,-1615,-2322,604,-46,86,-346
0,109928,221,2138,-551,-1800,-2368,745,-46,86,-346
0,109933,221,2138,-551,-1800,-2368,745,-46,86,-346
0,109939,221,2138,-551,-1800,-2368,745,-46,86,-346
0,109944,221,2138,-551,-1800,-2368,745,-46,86,-346
0,109950,281,2085,-563,-1929,-2443,1043,-46,86,-346
0,109956,281,2085,-563,-1929,-2443,1043,-46,86,-346
0,109962,281,2085,-563,-1929,-2443,1043,-46,86,-346
0,109968,307,2089,-589,-1601,-2163,1062,-46,86,-346
0,109974,307,2089,-589,-1601,-2163,1062,-46,86,-346
0,109981,307,2089,-589,-1601,-2163,1062,-46,86,-346
0,109988,285,2180,-603,-978,-1645,860,-46,86,-346
0,109996,285,2180,-603,-978,-1645,860,-46,86,-346
0,110002,285,2180,-603,-978,-1645,860,-46,86,-346
0,110009,249,2299,-619,-469,-1196,660,-46,86,-346
0,110015,249,2299,-619,-469,-1196,660,-46,86,-346
0,110021,249,2299,-619,-469,-1196,660,-46,86,-346
0,110029,229,2396,-634,-300,-895,574,-51,85,-351
0,110038,229,2396,-634,-300,-895,574,-51,85,-351
0,110045,229,2396,-634,-300,-895,574,-51,85,-351
0,110052,211,2744,-576,-370,-727,586,-51,85,-351
0,110058,211,2744,-576,-370,-727,586,-51,85,-351
0,110065,211,2744,-576,-370,-727,586,-51,85,-351
0,110072,278,2564,-649,-636,-636,658,-51,85,-351
0,110081,278,2564,-649,-636,-636,658,-51,85,-351
0,110088,309,2636,-646,-1008,-422,720,-51,85,-351
0,110095,309,2636,-646,-1008,-422,720,-51,85,-351
0,110102,309,2636,-646,-1008,-422,720,-51,85,-351
0,110108,315,2675,-635,-1126,-205,765,-51,85,-351
0,110115,315,2675,-635,-1126,-205,765,-51,85,-351
0,110121,315,2675,-635,-1126,-205,765,-51,85,-351
0,110130,335,2507,-694,-1160,-96,673,-51,85,-351
0,110136,335,2507,-694,-1160,-96,673,-51,85,-351
0,110142,335,2507,-694,-1160,-96,673,-51,85,-351
0,110150,353,2337,-785,-1052,-4,548,-51,85,-351
0,110158,353,2337,-785,-1052,-4,548,-51,85,-351
0,110166,353,2337,-785,-1052,-4,548,-51,85,-351
0,110173,377,2169,-905,-657,44,429,-49,79,-353
0,110179,377,2169,-905,-657,44,429,-49,79,-353
0,110186,377,2169,-905,-657,44,429,-49,79,-353
0,110192,377,2169,-905,-657,44,429,-49,79,-353
0,110198,377,2169,-905,-657,44,429,-49,79,-353
0,110206,377,2169,-905,-657,44,429,-49,79,-353
0,110215,460,2123,-1071,340,-303,626,-49,79,-353
0,110220,460,2123,-1071,340,-303,626,-49,79,-353
0,110228,525,2225,-1040,72,-529,724,-49,79,-353
0,110234,525,2225,-1040,72,-529,724,-49,79,-353
0,110240,525,2225,-1040,72,-529,724,-49,79,-353
0,110247,582,2202,-1032,-712,-645,664,-49,79,-353
0,110256,582,2202,-1032,-712,-645,664,-49,79,-353
0,110262,582,2202,-1032,-712,-645,664,-49,79,-353
0,110269,623,2169,-1021,-1295,-698,478,-49,79,-353
0,110276,623,2169,-1021,-1295,-698,478,-49,79,-353
0,110282,623,2169,-1021,-1295,-698,478,-49,79,-353
0,110287,637,2198,-1007,-1251,-825,247,-51,73,-349
0,110294,637,2198,-1007,-1251,-825,247,-51,73,-349
0,110300,637,2198,-1007,-1251,-825,247,-51,73,-349
0,110307,637,2198,-1007,-1251,-825,247,-51,73,-349
0,110314,661,2180,-1043,-894,-1028,-149,-51,73,-349
0,110320,661,2180,-1043,-894,-1028,-149,-51,73,-349
0,110327,661,2180,-1043,-894,-1028,-149,-51,73,-349
0,110334,629,2238,-1027,-598,-1148,-877,-51,73,-349
0,110343,629,2238,-1027,-598,-1148,-877,-51,73,-349
0,110350,571,2284,-978,-819,-1238,-1711,-51,73,-349
0,110356,571,2284,-978,-819,-1238,-1711,-51,73,-349
0,110364,571,2284,-978,-819,-1238,-1711,-51,73,-349
0,110371,489,2282,-904,-1733,-1328,-2384,-51,73,-349
0,110377,489,2282,-904,-1733,-1328,-2384,-51,73,-349
0,110386,489,2282,-904,-1733,-1328,-2384,-51,73,-349
0,110393,402,2206,-823,-2971,-1460,-2701,-51,73,-349
0,110399,402,2206,-823,-2971,-1460,-2701,-51,73,-349
0,110406,402,2206,-823,-2971,-1460,-2701,-51,73,-349
0,110414,343,2087,-731,-3928,-1666,-2558,-51,73,-349
0,110420,343,2087,-731,-3928,-1666,-2558,-51,73,-349
0,110429,320,2007,-646,-4422,-1991,-2076,-48,78,-352
0,110435,320,2007,-646,-4422,-1991,-2076,-48,78,-352
0,110441,320,2007,-646,-4422,-1991,-2076,-48,78,-352
0,110446,320,2007,-646,-4422,-1991,-2076,-48,78,-352
0,110453,319,1979,-594,-4529,-2346,-1506,-48,78,-352
0,110460,319,1979,-594,-4529,-2346,-1506,-48,78,-352
0,110468,330,1953,-570,-4393,-2756,-950,-48,78,-352
0,110477,330,1953,-570,-4393,-2756,-950,-48,78,-352
0,110483,330,1953,-570,-4393,-2756,-950,-48,78,-352
0,110490,368,1932,-554,-4054,-3232,-482,-48,78,-352
0,110498,368,1932,-554,-4054,-3232,-482,-48,78,-352
0,110505,368,1932,-554,-4054,-3232,-482,-48,78,-352
0,110513,418,1960,-542,-3641,-3634,-293,-48,78,-352
0,110519,418,1960,-542,-3641,-3634,-293,-48,78,-352
0,110527,418,1960,-542,-3641,-3634,-293,-48,78,-352
0,110533,435,2037,-524,-3245,-3921,-339,-48,78,-352
0,110538,435,2037,-524,-3245,-3921,-339,-48,78,-352
0,110545,435,2037,-524,-3245,-3921,-339,-48,78,-352
0,110553,443,2041,-543,-3009,-4227,-446,-53,85,-341
0,110559,443,2041,-543,-3009,-4227,-446,-53,85,-341
0,110567,443,2041,-543,-3009,-4227,-446,-53,85,-341
0,110574,454,2045,-563,-2909,-4542,-599,-53,85,-341
0,110583,454,2045,-563,-2909,-4542,-599,-53,85,-341
