imu,server_time,arduino_time,ax,ay,az,gx,gy,gz,mx,my,mz
0,2021-07-06 12:11:10.634964,185532,9.648745427182421,-1.767173273554476,-0.08372376408945187,13.467313056643608,10.858358106483527,-13.56090847569778,0.0,0.0,0.0
0,2021-07-06 12:11:10.643283,185540,9.656652066769158,-1.7533146498990053,-0.06532750629279346,13.478523004293866,10.883701209110871,-13.80607716354062,0.0,0.0,0.0
0,2021-07-06 12:11:10.651510,185548,9.664797338138124,-1.738990302372091,-0.04658497683873873,13.49029832422549,10.904203525100911,-14.05177903757037,0.0,0.0,0.0
0,2021-07-06 12:11:10.659134,185556,9.673177390758173,-1.7242064126129781,-0.027515610248609945,13.502655654392429,10.919571681519194,-14.297503145457163,0.0,0.0,0.0
0,2021-07-06 12:11:10.667247,185564,9.681787848089822,-1.708970118963657,-0.008139584835418929,13.515611753413372,10.929518776091435,-14.542728532294078,0.0,0.0,0.0
0,2021-07-06 12:11:10.676007,185573,9.690623800087819,-1.693289507335369,0.011522245380925689,13.529183472681053,10.933765744640747,-14.786925950034657,0.0,0.0,0.0
0,2021-07-06 12:11:10.684200,185581,9.699679796192278,-1.6771736036661853,0.03144841625435028,13.543387729822484,10.932042713387183,-15.029559600734672,0.0,0.0,0.0
0,2021-07-06 12:11:10.692730,185589,9.708949839706921,-1.6606323681077704,0.051616918065825135,13.558241482785174,10.924090325880428,-15.270088903857623,0.0,0.0,0.0
0,2021-07-06 12:11:10.699803,185596,9.718427384453769,-1.6436766913558742,0.0720052595756406,13.573761703372554,10.90966103083386,-15.507970276133506,0.0,0.0,0.0
0,2021-07-06 12:11:10.707564,185604,9.728105334354296,-1.6263183934938983,0.09259053116832763,13.589965349122457,10.888520316571011,-15.742658916131692,0.0,0.0,0.0
0,2021-07-06 12:11:10.715232,185612,9.737976045933447,-1.6085702250943317,0.11334946683563343,13.606869332778487,10.860447880097617,-15.973610590594614,0.0,0.0,0.0
0,2021-07-06 12:11:10.723304,185620,9.748031332711736,-1.590445869491858,0.13425850533610814,13.62449048874002,10.825238720459591,-16.200283420023975,0.0,0.0,0.0
0,2021-07-06 12:11:10.730715,185627,9.758262469934222,-1.571959944748916,0.15529385092762146,13.642845535800173,10.782704146542512,-16.422139657180786,0.0,0.0,0.0
0,2021-07-06 12:11:10.737883,185635,9.768660198726954,-1.5531280040130404,0.17643153365081685,13.661951035674372,10.732672691529775,-16.638647449608012,0.0,0.0,0.0
0,2021-07-06 12:11:10.745223,185642,9.779214729900362,-1.5339665333103762,0.19764746882672032,13.681823347285002,10.674990929391331,-16.84928257930379,0.0,0.0,0.0
0,2021-07-06 12:11:10.752348,185649,9.789915748526507,-1.5144929461197258,0.21891751514284796,13.702478577010305,10.609524190733364,-17.053530176365467,0.0,0.0,0.0
0,2021-07-06 12:11:10.759710,185656,9.80075242115864,-1.4947255744092,0.24021753002844345,13.723932524938698,10.536157176054742,-17.250886404145955,0.0,0.0,0.0
0,2021-07-06 12:11:10.766977,185664,9.8117134078516,-1.474683655995207,0.2615234206957011,13.746200627035273,10.454794464546262,-17.440860112454445,0.0,0.0,0.0
0,2021-07-06 12:11:10.774691,185671,9.822786880428632,-1.454387317866387,0.28281119032249263,13.76929789340453,10.365360916334401,-17.622974455398545,0.0,0.0,0.0
0,2021-07-06 12:11:10.782305,185679,9.833960547165526,-1.4338575547656307,0.3040569807023332,13.79323884323815,10.267801966011763,-17.796768469471722,0.0,0.0,0.0
0,2021-07-06 12:11:10.791084,185688,9.845221683293504,-1.4131162022880128,0.3252371136597916,13.818037437205156,10.162083805207242,-17.961798606103542,0.0,0.0,0.0
0,2021-07-06 12:11:10.798284,185695,9.85655716665096,-1.392185904445676,0.34632813310399924,13.843707007879766,10.048193451570768,-18.117640214096664,0.0,0.0,0.0
0,2021-07-06 12:11:10.805540,185702,9.867953517737584,-1.3710900770309942,0.36730684852238904,13.870260188332777,9.926138701521483,-18.263888967920913,0.0,0.0,0.0
0,2021-07-06 12:11:10.812550,185709,9.87939694301588,-1.3498528689938973,0.3881503799368982,13.897708838670285,9.795947964396019,-18.400162235004643,0.0,0.0,0.0
0,2021-07-06 12:11:10.820697,185717,9.890873379950966,-1.328499123443856,0.40883620418421823,13.926063970562595,9.657669975241316,-18.52610037265486,0.0,0.0,0.0
0,2021-07-06 12:11:10.829867,185726,9.902368542297085,-1.3070543385558409,0.42934220237020065,13.955335670318673,9.511373382330419,-18.641367946574583,0.0,0.0,0.0
0,2021-07-06 12:11:10.838520,185735,9.913867964119154,-1.2855446278454021,0.44964670735897855,13.985533020958774,9.357146204742206,-18.745654866755373,0.0,0.0,0.0
0,2021-07-06 12:11:10.847430,185744,9.925357040556856,-1.2639966790176895,0.46972854785203466,14.016664022861605,9.19509515717842,-18.83867743865947,0.0,0.0,0.0
0,2021-07-06 12:11:10.855271,185752,9.936821063362897,-1.2424377099682806,0.4895670838899313,14.048735511986882,9.025344846438998,-18.92017932698879,0.0,0.0,0.0
0,2021-07-06 12:11:10.864133,185761,9.948245250755665,-1.2208954193221762,0.5091422294185142,14.081753075276273,8.848036856924681,-18.989932428772857,0.0,0.0,0.0
0,2021-07-06 12:11:10.873031,185770,9.959614772882516,-1.1993979287661023,0.5284344604274986,14.115720963983211,8.66332875643062,-19.047737653489193,0.0,0.0,0.0
0,2021-07-06 12:11:10.880797,185777,9.970914774620685,-1.1779737163617974,0.5474248103445168,14.150642006419318,8.471393061535792,-19.093425609637787,0.0,0.0,0.0
0,2021-07-06 12:11:10.887962,185785,9.982130397063235,-1.1566515420910763,0.5660948562637508,14.18651752187675,8.272416198402624,-19.12685719864047,0.0,0.0,0.0
0,2021-07-06 12:11:10.897008,185794,9.99324679919505,-1.1354603673695323,0.5844266997762357,14.223347237544232,8.066597481430799,-19.14792411734622,0.0,0.0,0.0
0,2021-07-06 12:11:10.903984,185801,10.004249182050522,-1.1144292702058334,0.6024029458628077,14.261129210143194,7.854148120192356,-19.15654926959088,0.0,0.0,0.0
0,2021-07-06 12:11:10.912545,185809,10.015122817731402,-1.0935873580120723,0.6200066834050424,14.299859753871784,7.635290260060235,-19.15268708603155,0.0,0.0,0.0
0,2021-07-06 12:11:10.920236,185817,10.02585308431437,-1.072963680143139,0.6372214709080375,14.339533376216245,7.410256058187853,-19.136323750825834,0.0,0.0,0.0
0,2021-07-06 12:11:10.927952,185825,10.036425506171659,-1.0525871415579369,0.6540313300850882,14.380142723137322,7.179286791152111,-19.107477333710808,0.0,0.0,0.0
0,2021-07-06 12:11:10.935649,185832,10.046825798760345,-1.0324864177871718,0.6704207467822936,14.421678534407816,6.942631987136553,-19.06619782617653,0.0,0.0,0.0
0,2021-07-06 12:11:10.943428,185840,10.057039916848879,-1.012689870273597,0.6863746738777298,14.46412960833982,6.700548576446438,-19.012567080378698,0.0,0.0,0.0
0,2021-07-06 12:11:10.951292,185848,10.067054104564889,-0.993225460751564,0.7018785286655073,14.507482774368466,6.453300059429742,-18.946698649140618,0.0,0.0,0.0
0,2021-07-06 12:11:10.959010,185856,10.076854944869714,-0.9741206636351007,0.7169181805316208,14.551722873208703,6.2011556977239275,-18.868737524977416,0.0,0.0,0.0
0,2021-07-06 12:11:10.967078,185864,10.086429406118055,-0.9554023757983088,0.731479929740189,14.59683274616689,5.944389737565586,-18.778859775575892,0.0,0.0,0.0
0,2021-07-06 12:11:10.974852,185871,10.095764884912338,-0.9370968234285009,0.7455504811331026,14.642793235599905,5.683280672673539,-18.677272072766026,0.0,0.0,0.0
0,2021-07-06 12:11:10.982176,185879,10.104849246710751,-0.9192294660044534,0.7591169182152602,14.689583197565963,5.418110555059758,-18.564211111915753,0.0,0.0,0.0
0,2021-07-06 12:11:10.989311,185886,10.113670866792813,-0.9018248978165601,0.772166683364781,14.737179526982786,5.149164363291073,-18.439942918437165,0.0,0.0,0.0
0,2021-07-06 12:11:10.995751,185892,10.12221867345427,-0.8849067478761266,0.7846875665411278,14.785557195684877,4.876729433634046,-18.30476203749816,0.0,0.0,0.0
0,2021-07-06 12:11:11.002779,185899,10.130482193411407,-0.8684975802203224,0.7966676993335559,14.83468930378315,4.6010949545098905,-18.15899060337812,0.0,0.0,0.0
0,2021-07-06 12:11:11.010240,185907,10.138451596803485,-0.8526187988111164,0.8080955494033719,14.884547144266431,4.322551523110845,-18.002977288205514,0.0,0.0,0.0
0,2021-07-06 12:11:11.017528,185914,10.146117736249671,-0.8372905635118484,0.8189599146537582,14.935100280508479,4.041390761139842,-17.837096135265668,0.0,0.0,0.0
0,2021-07-06 12:11:11.024965,185922,10.153472173396818,-0.8225317236518159,0.8292499210462229,14.986316636509176,3.7579049829309437,-17.66174528556995,0.0,0.0,0.0
0,2021-07-06 12:11:11.032727,185929,10.160507189319452,-0.808359771602358,0.8389550267621034,15.038162599229702,3.4723869076859395,-17.47734560890707,0.0,0.0,0.0
0,2021-07-06 12:11:11.041592,185938,10.167215779934015,-0.7947908126586182,0.8480650301335015,15.090603130615463,3.1851294099762035,-17.284339256751455,0.0,0.0,0.0
0,2021-07-06 12:11:11.050520,185947,10.173591640444277,-0.7818395441409138,0.8565700757250516,15.14360188572492,2.896425305469847,-17.083188158615542,0.0,0.0,0.0
0,2021-07-06 12:11:11.058431,185955,10.179629143390073,-0.7695192375402846,0.8644606548789023,15.197121334400656,2.6065671710727574,-16.874372479266093,0.0,0.0,0.0
0,2021-07-06 12:11:11.066887,185964,10.18532331527903,-0.7578417198206958,0.8717276011608696,15.25112288551176,2.3158472040310163,-16.658389049026795,0.0,0.0,0.0
0,2021-07-06 12:11:11.074998,185972,10.190669817059414,-0.7468173515243021,0.8783620838467546,15.30556701366034,2.024557130614158,-16.435749778295502,0.0,0.0,0.0
0,2021-07-06 12:11:11.082675,185979,10.195664932310226,-0.7364550007964846,0.8843556029972197,15.360413389074763,1.7329881749354807,-16.206980064958145,0.0,0.0,0.0
0,2021-07-06 12:11:11.090717,185987,10.200305564244337,-0.7267620145720248,0.889699988266579,15.415621011726396,1.441431092401349,-15.972617198137447,0.0,0.0,0.0
0,2021-07-06 12:11:11.098202,185995,10.204589240014682,-0.7177441903074604,0.8943874010828409,15.47114834967527,1.1501762647659226,-15.733208757150072,0.0,0.0,0.0
0,2021-07-06 12:11:11.105482,186002,10.208514119485905,-0.7094057524356776,0.8984103381675297,15.526953480766565,0.8595138475182638,-15.489311001522289,0.0,0.0,0.0
0,2021-07-06 12:11:11.112875,186010,10.212079005336028,-0.7017493367013373,0.901761635259412,15.582994237374937,0.5697339567749254,-15.241487247451364,0.0,0.0,0.0
0,2021-07-06 12:11:11.121586,186018,10.215283350944615,-0.6947759841135851,0.9044344723165514,15.63922835484552,0.28112688209567227,-14.990306229177898,0.0,0.0,0.0
0,2021-07-06 12:11:11.128713,186025,10.218127262313084,-0.6884851455210305,0.9064223827673897,15.69561362453448,-0.006016687817971965,-14.736340446893998,0.0,0.0,0.0
0,2021-07-06 12:11:11.135952,186033,10.220611491450203,-0.6828746973588504,0.9077192684684559,15.75210805170306,-0.29140543804223046,-14.480164505011064,0.0,0.0,0.0
0,2021-07-06 12:11:11.142966,186040,10.222737420744368,-0.677940968464881,0.9083194201589494,15.808670016714114,-0.5747472067715609,-14.222353450431171,0.0,0.0,0.0
0,2021-07-06 12:11:11.151232,186048,10.22450703991434,-0.6736787766377893,0.9082175422474623,15.865258435856884,-0.8557487742508902,-13.963481128311841,0.0,0.0,0.0
0,2021-07-06 12:11:11.159278,186056,10.225922919071646,-0.6700814717605298,0.9074087811890305,15.921832917342492,-1.1341156621741222,-13.704118574865813,0.0,0.0,0.0
0,2021-07-06 12:11:11.166586,186063,10.226988182251914,-0.6671409813505262,0.9058887575805517,15.978353909185913,-1.40955194604287,-13.444832460846614,0.0,0.0,0.0
0,2021-07-06 12:11:11.174327,186071,10.227706484508799,-0.6648478557281384,0.9036536028351958,16.03478283806152,-1.6817600868240143,-13.1861835909717,0.0,0.0,0.0
0,2021-07-06 12:11:11.183184,186080,10.228081993554717,-0.6631913124293739,0.9007000020287401,16.091082240272282,-1.9504407909021213,-12.928725459931101,0.0,0.0,0.0
0,2021-07-06 12:11:11.190663,186087,10.228119375719865,-0.6621592808640523,0.8970252445445155,16.147215886806634,-2.215292908034599,-12.673002864354258,0.0,0.0,0.0
0,2021-07-06 12:11:11.198338,186095,10.227823785680831,-0.6617384481131883,0.8926272820230342,16.203148904230286,-2.4760133771106263,-12.419550568345715,0.0,0.0,0.0
0,2021-07-06 12:11:11.205747,186102,10.227200859172775,-0.6619143061863675,0.8875047895411022,16.258847892149152,-2.7322972280966926,-12.168892019546664,0.0,0.0,0.0
0,2021-07-06 12:11:11.212870,186110,10.226256707533507,-0.6626712007991534,0.8816572246457319,16.314281036745076,-2.983837644523968,-11.921538115155546,0.0,0.0,0.0
0,2021-07-06 12:11:11.219971,186117,10.224997912681884,-0.6639923817819947,0.8750848817125411,16.36941821932867,-3.2303260864630428,-11.677986019723654,0.0,0.0,0.0
0,2021-07-06 12:11:11.227130,186124,10.223431521296822,-0.6658600553010542,0.8677889427458649,16.424231119226327,-3.4714524728680884,-11.43871803578131,0.0,0.0,0.0
0,2021-07-06 12:11:11.236286,186133,10.2215650377251,-0.6682554379920862,0.8597715269482087,16.478693310736595,-3.706905424170669,-11.204200526657436,0.0,0.0,0.0
0,2021-07-06 12:11:11.244367,186141,10.219406416189111,-0.6711588128992718,0.8510357409632231,16.532780353272525,-3.9363725664186204,-10.974882892550472,0.0,0.0,0.0
0,2021-07-06 12:11:11.251691,186148,10.216964053352555,-0.6745495868453898,0.8415857305793106,16.586469872562525,-4.159540896226488,-10.751196604844884,0.0,0.0,0.0
0,2021-07-06 12:11:11.260905,186158,10.214246781888171,-0.6784063486206217,0.8314267325782353,16.63974163034191,-4.376097205398925,-10.533554304615283,0.0,0.0,0.0
0,2021-07-06 12:11:11.268609,186165,10.211263864956175,-0.6827069274085671,0.8205651237532539,16.692577580916005,-4.585728566578802,-10.322348967985835,0.0,0.0,0.0
0,2021-07-06 12:11:11.276775,186173,10.208024990886823,-0.6874284514503969,0.809008464670615,16.74496191472842,-4.788122883332149,-10.117953137370025,0.0,0.0,0.0
0,2021-07-06 12:11:11.285296,186182,10.20454026682394,-0.6925474078006675,0.796765537489082,16.796881090416967,-4.982969506505367,-9.920718217505627,0.0,0.0,0.0
0,2021-07-06 12:11:11.292231,186189,10.200820210000908,-0.698039704239767,0.7838463777706336,16.848323856931344,-5.169959914392764,-9.73097383772845,0.0,0.0,0.0
0,2021-07-06 12:11:11.300682,186197,10.196875736036034,-0.7038807336329898,0.7702622992279906,16.89928126657181,-5.348788451168118,-9.549027282947504,0.0,0.0,0.0
0,2021-07-06 12:11:11.308983,186206,10.192718144515803,-0.7100454401761744,0.7560259095045498,16.949746679392415,-5.519153118603523,-9.375162993744452,0.0,0.0,0.0
0,2021-07-06 12:11:11.316764,186213,10.188359102602858,-0.7165083868067235,0.741151116158834,16.99971575942262,-5.680756418102722,-9.209642133242419,0.0,0.0,0.0
0,2021-07-06 12:11:11.324415,186221,10.183810627699906,-0.7232438231861599,0.7256531245586443,17.04918646277581,-5.833306239067605,-9.05270221773142,0.0,0.0,0.0
0,2021-07-06 12:11:11.331883,186229,10.179085070279505,-0.7302257535882655,0.7095484310385867,17.098159016972172,-5.97651678601434,-8.904556809127318,0.0,0.0,0.0
0,2021-07-06 12:11:11.338402,186235,10.174195097508301,-0.7374280039163295,0.692854814169825,17.146635890646408,-6.110109535431036,-8.765395267483242,0.0,0.0,0.0
0,2021-07-06 12:11:11.346483,186243,10.169153677583598,-0.7448242872095047,0.6755913252593598,17.194621753546436,-6.233814215875792,-8.6353825604678,0.0,0.0,0.0
0,2021-07-06 12:11:11.355663,186252,10.163974064229416,-0.7523882673816784,0.6577782772191456,17.242123427843925,-6.347369808266992,-8.514659126159506,0.0,0.0,0.0
0,2021-07-06 12:11:11.364016,186261,10.158669780536094,-0.760093621331881,0.6394372292067864,17.289149832465878,-6.450525563673059,-8.403340787157687,0.0,0.0,0.0
0,2021-07-06 12:11:11.371775,186268,10.153254601318212,-0.7679140998303658,0.6205909643816547,17.335711921810315,-6.543042032416558,-8.301518716468662,0.0,0.0,0.0
0,2021-07-06 12:11:11.379202,186276,10.14774253353419,-0.7758235877835553,0.601263460363831,17.381822619168346,-6.624692094420042,-8.209259456497776,0.0,0.0,0.0
0,2021-07-06 12:11:11.386826,186283,10.14214779473089,-0.7837961645680089,0.5814798541596685,17.427496744640113,-6.695261980435873,-8.126604991516219,0.0,0.0,0.0
0,2021-07-06 12:11:11.395652,186292,10.136484789630671,-0.7918061649235517,0.5612664033779826,17.47275093777752,-6.754552276977886,-8.053572873094566,0.0,0.0,0.0
0,2021-07-06 12:11:11.404116,186301,10.130768085,-0.79982824049154,0.5406504445591408,17.51760357568819,-6.802378910026086,-7.990156398836187,0.0,0.0,0.0
0,2021-07-06 12:11:11.411814,186308,10.12501238291062,-0.8078374218580072,0.5196603486125847,17.562074687268698,-6.838574101893133,-7.9363248464010026,0.0,0.0,0.0
0,2021-07-06 12:11:11.420193,186317,10.119232492320746,-0.8158091811110408,0.4983254724601699,17.60618586410666,-6.862987294709731,-7.892023765188943,0.0,0.0,0.0
0,2021-07-06 12:11:11.428888,186326,10.113443298670484,-0.8237194951388376,0.4766761053600726,17.64996016882731,-6.875486034733412,-7.857175326937939,0.0,0.0,0.0
0,2021-07-06 12:11:11.435708,186332,10.107659731091383,-0.8315449096869832,0.45474340916167083,17.69342204191307,-6.875956812627799,-7.831678735264367,0.0,0.0,0.0
0,2021-07-06 12:11:11.443549,186340,10.101896726869828,-0.8392626035606305,0.4325593536237264,17.73659720770247,-6.864305854078485,-7.81541069382825,0.0,0.0,0.0
0,2021-07-06 12:11:11.451486,186348,10.096169192941439,-0.8468504519852608,0.41015664879879943,17.77951257930613,-6.840459853825185,-7.808225933031764,0.0,0.0,0.0
0,2021-07-06 12:11:11.458595,186355,10.090491964405498,-0.8542870885027399,0.387568675186953,17.82219616121045,-6.804366646855149,-7.80995779509531,0.0,0.0,0.0
0,2021-07-06 12:11:11.467205,186364,10.08487976016466,-0.861551965435571,0.36482941047515405,17.8646769483457,-6.755995812529049,-7.820418877070207,0.0,0.0,0.0
0,2021-07-06 12:11:11.476008,186373,10.079347135682417,-0.8686254133125079,0.34197335098075066,17.90698482168265,-6.69533920875287,-7.839401731432167,0.0,0.0,0.0
0,2021-07-06 12:11:11.483398,186380,10.073908432706741,-0.8754886996209965,0.31903542632132176,17.94915044173454,-6.622411433542713,-7.86667962432997,0.0,0.0,0.0
0,2021-07-06 12:11:11.491102,186388,10.068577725996242,-0.8821240867810777,0.2960509069876791,17.99120514085494,-6.537250210928979,-7.902007351982499,0.0,0.0,0.0
0,2021-07-06 12:11:11.499134,186396,10.063368767605173,-0.8885148883951208,0.27305530621932583,18.033180813031127,-6.439916697461065,-7.945122116028506,0.0,0.0,0.0
0,2021-07-06 12:11:11.506665,186403,10.058294929707797,-0.8946455222118739,0.2500842785122374,18.075109798552827,-6.33049570481831,-7.995744458725392,0.0,0.0,0.0
0,2021-07-06 12:11:11.514375,186411,10.053369147248251,-0.9005015579761613,0.22717351615037729,18.11702476219306,-6.209095833279784,-8.0535792580064,0.0,0.0,0.0
0,2021-07-06 12:11:11.522122,186419,10.048603862247488,-0.906069757864849,0.2043586434676151,18.15895856580794,-6.075849510056185,-8.118316780396768,0.0,0.0,0.0
0,2021-07-06 12:11:11.530280,186427,10.044010971915363,-0.9113381069635748,0.18167510769478948,18.20094413746001,-5.930912925893077,-8.189633788268877,0.0,0.0,0.0
0,2021-07-06 12:11:11.537869,186434,10.039601782113388,-0.9162958321424257,0.15915806547399847,18.243014339153145,-5.774465863367719,-8.267194696883253,0.0,0.0,0.0
0,2021-07-06 12:11:11.544059,186441,10.035386966767042,-0.9209334091669817,0.13684226518235773,18.285201834770422,-5.606711411444536,-8.350652773698629,0.0,0.0,0.0
0,2021-07-06 12:11:11.552189,186449,10.031376533469242,-0.9252425587142343,0.11476192720083266,18.32753895953326,-5.427875563491733,-8.439651367902401,0.0,0.0,0.0
0,2021-07-06 12:11:11.559324,186456,10.027579795693455,-0.9292162320128411,0.09295062669740914,18.370057592629042,-5.238206699194578,-8.533825155614158,0.0,0.0,0.0
0,2021-07-06 12:11:11.566774,186463,10.024005352111203,-0.9328485868811416,0.07144118432774574,18.412789035072503,-5.037974952577229,-8.632801388165749,0.0,0.0,0.0
0,2021-07-06 12:11:11.574895,186472,10.020661073107444,-0.9361349560668766,0.05026556821719709,18.455763894401375,-4.827471470387956,-8.736201135744432,0.0,0.0,0.0
0,2021-07-06 12:11:11.584790,186481,10.01755409392908,-0.9390718120273122,0.029454807565114278,18.499011976459368,-4.607007570541696,-8.843640522377227,0.0,0.0,0.0
0,2021-07-06 12:11:11.593534,186490,10.014690813428029,-0.9416567333077175,0.009038916505756223,18.54256218362421,-4.3769138143239905,-8.954731949691528,0.0,0.0,0.0
0,2021-07-06 12:11:11.601825,186498,10.012076896923784,-0.9438883752337871,-0.010953173776513152,18.586442419050957,-4.137539004748763,-9.069085307846724,0.0,0.0,0.0
0,2021-07-06 12:11:11.610185,186507,10.009717281067449,-0.9457664433452729,-0.030493677228104116,18.630679496809837,-3.8892491231809356,-9.186309171869695,0.0,0.0,0.0
0,2021-07-06 12:11:11.617396,186514,10.00761617862712,-0.9472916659742202,-0.04955601204332147,18.67529905769799,-3.6324262186646954,-9.306011979798365,0.0,0.0,0.0
0,2021-07-06 12:11:11.624741,186521,10.005777082619854,-0.948465763882209,-0.06811485832320159,18.72032549060376,-3.367467262776231,-9.427803187398073,0.0,0.0,0.0
0,2021-07-06 12:11:11.632625,186529,10.004202771088885,-0.9492914168790992,-0.08614621401908239,18.76578185956106,-3.094782977413061,-9.551294393657866,0.0,0.0,0.0
0,2021-07-06 12:11:11.641231,186538,10.002895314622451,-0.9497722272918507,-0.1036274471311038,18.811689836639168,-2.81479663830709,-9.676100431608381,0.0,0.0,0.0
0,2021-07-06 12:11:11.649737,186546,10.001856088413978,-0.949912679265056,-0.12053734156688496,18.858069640932985,-2.5279428536407886,-9.801840420585236,0.0,0.0,0.0
0,2021-07-06 12:11:11.657846,186554,10.001085789943893,-0.9497180931985939,-0.1368561351513146,18.904939984379737,-2.234666316354214,-9.928138777667627,0.0,0.0,0.0
0,2021-07-06 12:11:11.666978,186564,10.00058446265321,-0.9491945758677731,-0.15256554989209736,18.95231802532969,-1.9354205337865413,-10.054626185036684,0.0,0.0,0.0
0,2021-07-06 12:11:11.676079,186573,10.000351525190737,-0.9483489673947784,-0.16764881546049668,19.00021933043245,-1.6306665463642391,-10.180940507093903,0.0,0.0,0.0
0,2021-07-06 12:11:11.683845,186580,10.00038580474248,-0.9471887858928206,-0.18209068690618263,19.04865784485404,-1.3208716517473125,-10.306727649626952,0.0,0.0,0.0
0,2021-07-06 12:11:11.693485,186590,10.00068557205781,-0.945722170561126,-0.19587745727268818,19.09764587031813,-1.0065081504299744,-10.431642354096223,0.0,0.0,0.0
0,2021-07-06 12:11:11.701874,186599,10.00124857568396,-0.9439578250431255,-0.20899696522572753,19.14719405005475,-0.6880521246297213,-10.555348922316973,0.0,0.0,0.0
0,2021-07-06 12:11:11.709717,186606,10.002072073548439,-0.9419049636647465,-0.22143859746594408,19.197311359883447,-0.36598225543208646,-10.677521869955136,0.0,0.0,0.0
0,2021-07-06 12:11:11.716829,186613,10.00315286103403,-0.9395732624143888,-0.23319328581707555,19.24800510524442,-0.04077867675517224,-10.797846510637596,0.0,0.0,0.0
0,2021-07-06 12:11:11.724596,186621,10.004487295718894,-0.9369728150119171,-0.24425349902201202,19.29928092404954,0.2870781363361302,-10.916019474686554,0.0,0.0,0.0
0,2021-07-06 12:11:11.733109,186630,10.006071319660151,-0.934114093613759,-0.25461322887239335,19.35114279454909,0.6171084426826959,-11.031749167183401,0.0,0.0,0.0
0,2021-07-06 12:11:11.740619,186637,10.007900480391065,-0.9310079138036927,-0.26426796947925696,19.403593046955905,0.9488342662258071,-11.144756170396493,0.0,0.0,0.0
0,2021-07-06 12:11:11.747969,186645,10.009969951698013,-0.927665403746316,-0.27321468822130723,19.456632377951852,1.2817803765197664,-11.254773596170168,0.0,0.0,0.0
0,2021-07-06 12:11:11.756089,186653,10.012274554706956,-0.9240979770650904,-0.28145178795959136,19.510259867790648,1.6154752155849637,-11.361547394196243,0.0,0.0,0.0
0,2021-07-06 12:11:11.763837,186660,10.014808779079251,-0.9203173082919881,-0.28897906198992324,19.56447299944705,1.9494517682206356,-11.464836621748177,0.0,0.0,0.0
0,2021-07-06 12:11:11.772205,186669,10.017566803694582,-0.9163353095831247,-0.2957976448266245,19.61926767835073,2.2832483692199443,-11.564413679484462,0.0,0.0,0.0
0,2021-07-06 12:11:11.779597,186676,10.02054251627303,-0.9121641082738571,-0.30190996274829474,19.674638250916075,2.6164094406683094,-11.660064516812188,0.0,0.0,0.0
0,2021-07-06 12:11:11.787922,186685,10.023729531692208,-0.9078160256760064,-0.30731968781919583,19.730577520818205,2.9484861581002204,-11.751588809637216,0.0,0.0,0.0
0,2021-07-06 12:11:11.794960,186692,10.027121209022027,-0.9033035569781399,-0.3120316977326839,19.787076762988544,3.2790370517039733,-11.838800112585783,0.0,0.0,0.0
0,2021-07-06 12:11:11.804200,186701,10.030710667474063,-0.8986393505562428,-0.31605204212751725,19.844125735662658,3.607628553495883,-11.921525986111241,0.0,0.0,0.0
0,2021-07-06 12:11:11.811219,186708,10.034490801562848,-0.8938361842317462,-0.31938791496686714,19.90171269091917,3.9338355029304033,-11.999608097484657,0.0,0.0,0.0
0,2021-07-06 12:11:11.818121,186715,10.03845429586724,-0.8889069372327048,-0.3220476318194998,19.959824385012315,4.25724162355586,-12.072902294426477,0.0,0.0,0.0
0,2021-07-06 12:11:11.825638,186722,10.042593639870327,-0.8838645589059884,-0.3240406099181064,20.01844609086147,4.577439981514695,-12.14127864947359,0.0,0.0,0.0
0,2021-07-06 12:11:11.833728,186730,10.046901143207178,-0.8787220364165146,-0.3253773487819744,20.077561614857093,4.894033432196113,-12.204621471903023,0.0,0.0,0.0
0,2021-07-06 12:11:11.843842,186740,10.051368951150538,-0.8734923629253375,-0.3260694108838284,20.13715331872135,5.206635056832313,-12.262829284141883,0.0,0.0,0.0
0,2021-07-06 12:11:11.851293,186748,10.055989059720195,-0.8681885064932678,-0.32612940360690507,20.197202146189987,5.514868590063497,-12.315814761399649,0.0,0.0,0.0
0,2021-07-06 12:11:11.858584,186755,10.060753329651117,-0.8628233798354562,-0.3255709635610022,20.257687654430786,5.8183688417237045,-12.363504635437417,0.0,0.0,0.0
0,2021-07-06 12:11:11.865952,186763,10.06565349836419,-0.8574098118570982,-0.324408742826109,20.318588050174863,6.116782116122545,-12.405839564984367,0.0,0.0,0.0
0,2021-07-06 12:11:11.873686,186770,10.070681189230712,-0.8519605220339241,-0.32265839571771154,20.379880230051764,6.409766629064408,-12.442773976254191,0.0,0.0,0.0
0,2021-07-06 12:11:11.880904,186778,10.075827918148063,-0.8464880974453901,-0.3203365648077776,20.441539824590873,6.6969929215128525,-12.474275877683702,0.0,0.0,0.0
0,2021-07-06 12:11:11.890723,186787,10.081085098234123,-0.8410049709905106,-0.3174608654413504,20.50354124612754,6.978144271369985,-12.50032665308128,0.0,0.0,0.0
0,2021-07-06 12:11:11.897919,186795,10.086444043731728,-0.8355233994291343,-0.3140498680209241,20.5658577415479,7.252917108140088,-12.520920836092591,0.0,0.0,0.0
0,2021-07-06 12:11:11.906790,186803,10.091895974258662,-0.8300554408520227,-0.31012307686201995,20.628461450544542,7.521021434892326,-12.536065866795312,0.0,0.0,0.0
0,2021-07-06 12:11:11.916024,186813,10.09743202061439,-0.8246129316887351,-0.3057009042295448,20.691323469088807,7.782181257653457,-12.5457818299512,0.0,0.0,0.0
0,2021-07-06 12:11:11.923876,186821,10.103043233223074,-0.8192074632105182,-0.3008046387659327,20.754413917078796,8.036135017577063,-12.550101174668873,0.0,0.0,0.0
0,2021-07-06 12:11:11.930743,186827,10.108720593668158,-0.8138503575414582,-0.2954564084259056,20.817702008950047,8.282636017981657,-12.5490684160486,0.0,0.0,0.0
0,2021-07-06 12:11:11.937668,186834,10.114455028799457,-0.8085526439107541,-0.2896791385361621,20.88115612635208,8.521452837227507,-12.542739819772919,0.0,0.0,0.0
0,2021-07-06 12:11:11.946670,186843,10.12023742628213,-0.8033250364289771,-0.28349650554173145,20.94474389277417,8.752369720770448,-12.531183070416981,0.0,0.0,0.0
0,2021-07-06 12:11:11.955596,186852,10.126058650644925,-0.7981779142138685,-0.2769328864936941,21.008432250726706,8.975186950130087,-12.5144769236861,0.0,0.0,0.0
0,2021-07-06 12:11:11.963275,186860,10.131909559366843,-0.7931213037190751,-0.27001330366305265,21.072187542047388,9.189721188461752,-12.492710842098699,0.0,0.0,0.0
0,2021-07-06 12:11:11.970494,186867,10.137781018806487,-0.7881648625988031,-0.2627633633256694,21.135975591570027,9.395805802290687,-12.465984613216222,0.0,0.0,0.0
0,2021-07-06 12:11:11.979325,186876,10.143663919904851,-0.7833178646120242,-0.25520918799986886,21.1997617942656,9.593291159866586,-12.434407949773346,0.0,0.0,0.0
0,2021-07-06 12:11:11.985630,186882,10.14954919368615,-0.7785891855080882,-0.24737734205814754,21.26351120532164,9.782044906536854,-12.398100072022125,0.0,0.0,0.0
0,2021-07-06 12:11:11.992827,186889,10.155427826674547,-0.7739872899798497,-0.23929475154968155,21.327188631601075,9.96195221484464,-12.357189273917584,0.0,0.0,0.0
0,2021-07-06 12:11:11.999956,186897,10.161290876520027,-0.7695202194549375,-0.2309886200967127,21.390758722842637,10.13291600505128,-12.311812475824505,0.0,0.0,0.0
0,2021-07-06 12:11:12.008182,186905,10.167129488251046,-0.7651955802361131,-0.22248634311241297,21.454186062068505,10.294857132943493,-12.262114766402332,0.0,0.0,0.0
0,2021-07-06 12:11:12.016039,186913,10.172934911364193,-0.7610205319697401,-0.2138154218421617,21.517435255845115,10.447714543966313,-12.208248935330953,0.0,0.0,0.0
0,2021-07-06 12:11:12.023489,186920,10.17869851747731,-0.7570017774791266,-0.20500337762107007,21.580471025400016,10.591445392654004,-12.150374997806967,0.0,0.0,0.0
0,2021-07-06 12:11:12.032332,186929,10.1844118179951,-0.7531455555375861,-0.19607766622190936,21.64325829947812,10.726025125309745,-12.088659711481894,0.0,0.0,0.0
0,2021-07-06 12:11:12.039637,186936,10.190066481454956,-0.7494576373597682,-0.1870655924173457,21.70576230968334,10.851447524502667,-12.023276086249327,0.0,0.0,0.0
0,2021-07-06 12:11:12.046894,186944,10.19565435061821,-0.7459433261495346,-0.17799422557451478,21.767948688359205,10.967724714242093,-11.954402887601939,0.0,0.0,0.0
0,2021-07-06 12:11:12.053935,186951,10.201167459529909,-0.7426074584312741,-0.16889031750370379,21.829783567861902,11.074887123335596,-11.882224135267245,0.0,0.0,0.0
0,2021-07-06 12:11:12.061735,186958,10.20659805068842,-0.7394544065232842,-0.15978022337595216,21.891233679508723,11.172983404000185,-11.806928599260564,0.0,0.0,0.0
0,2021-07-06 12:11:12.069862,186966,10.21193859238384,-0.736488082318821,-0.15068982579049503,21.952266451073676,11.262080304420973,-11.728709294639028,0.0,0.0,0.0
0,2021-07-06 12:11:12.077996,186975,10.217181796282672,-0.733711942528379,-0.14164446175147644,22.012850102588654,11.342262495799783,-11.647762974891526,0.0,0.0,0.0
0,2021-07-06 12:11:12.086026,186983,10.22232063534945,-0.7311289949588541,-0.13266885250007598,22.07295374020074,11.413632354691657,-11.564289623462672,0.0,0.0,0.0
0,2021-07-06 12:11:12.093344,186990,10.22734836209855,-0.7287418050715225,-0.12378703660576765,22.132547447257583,11.476309700596746,-11.478491943479167,0.0,0.0,0.0
0,2021-07-06 12:11:12.101444,186998,10.232258527016253,-0.7265525022335677,-0.11502230719782014,22.191602371970475,11.530431488660762,-11.39057484602924,0.0,0.0,0.0
0,2021-07-06 12:11:12.109907,187007,10.237044996899321,-0.7245627853659503,-0.10639715432282174,22.250090811994276,11.57615145822441,-11.300744936739918,0.0,0.0,0.0
0,2021-07-06 12:11:12.117886,187015,10.241701972734587,-0.7227739276564346,-0.09793321296337405,22.307986296824183,11.613639738730404,-11.209210000056196,0.0,0.0,0.0
0,2021-07-06 12:11:12.125674,187022,10.246224006465448,-0.72118677976561,-0.08965121661221137,22.365263668244456,11.64308241445184,-11.116178481838476,0.0,0.0,0.0
0,2021-07-06 12:11:12.135009,187032,10.250606015868643,-0.7198017711961721,-0.08157095575690373,22.42189915776541,11.66468104898853,-11.021858972711946,0.0,0.0,0.0
0,2021-07-06 12:11:12.143069,187040,10.254843297138365,-0.7186189104746848,-0.07371124013817339,22.47787045928497,11.678652170192258,-10.926459694946766,0.0,0.0,0.0
0,2021-07-06 12:11:12.151130,187048,10.258931535313705,-0.7176377855301067,-0.06608986343239845,22.533156795662837,11.685226716279049,-10.830187994268151,0.0,0.0,0.0
0,2021-07-06 12:11:12.158876,187056,10.262866812929728,-0.716857565182508,-0.05872356945483684,22.587738978803642,11.684649444154116,-10.733249836770609,0.0,0.0,0.0
0,2021-07-06 12:11:12.167497,187064,10.266645617295762,-0.7162770015263474,-0.051628019824276915,22.641599463009914,11.677178301295392,-10.635849311739182,0.0,0.0,0.0
0,2021-07-06 12:11:12.176253,187073,10.270264846864315,-0.7158944324527577,-0.04481776356931127,22.69472239084969,11.663083762797097,-10.538188142706394,0.0,0.0,0.0
0,2021-07-06 12:11:12.183448,187080,10.273721817277954,-0.7157077839174681,-0.0383062091127758,22.747093630756073,11.642648135208516,-10.440465209190476,0.0,0.0,0.0
0,2021-07-06 12:11:12.191312,187088,10.27701426769024,-0.7157145720841971,-0.03210559879544877,22.798700806352922,11.616164828449705,-10.3428760798888,0.0,0.0,0.0
0,2021-07-06 12:11:12.199487,187096,10.280140367671114,-0.7159119055085496,-0.026226986072001635,22.84953331824565,11.583937596480666,-10.24561255626753,0.0,0.0,0.0
0,2021-07-06 12:11:12.208549,187105,10.283098724505091,-0.7162964872771523,-0.020680215808950825,22.899582358953825,11.546279746962696,-10.148862225129044,0.0,0.0,0.0
0,2021-07-06 12:11:12.217618,187114,10.285888390266573,-0.7168646171437378,-0.015473908293209432,22.948840921022903,11.503513319738714,-10.05280801989212,0.0,0.0,0.0
0,2021-07-06 12:11:12.225571,187122,10.288508867917656,-0.7176121943646115,-0.01061544718257729,22.997303797925642,11.455968233210807,-9.957627791848472,0.0,0.0,0.0
0,2021-07-06 12:11:12.233118,187130,10.2909601158842,-0.7185347224353691,-0.006110970718880422,23.044967577394427,11.403981397192936,-9.863493894112443,0.0,0.0,0.0
0,2021-07-06 12:11:12.240614,187137,10.293242551042981,-0.7196273167118794,-0.0019653644957140478,23.091830627140492,11.34789579111036,-9.770572782145042,0.0,0.0,0.0
0,2021-07-06 12:11:12.247567,187144,10.29535705048382,-0.7208847152882147,0.001817746334872806,23.137893073364687,11.288059506723407,-9.679024634534287,0.0,0.0,0.0
0,2021-07-06 12:11:12.255744,187152,10.297304952607115,-0.7223012928935963,0.005236006848886967,23.183156772494222,11.224824754240155,-9.589002996553795,0.0,0.0,0.0
0,2021-07-06 12:11:12.264746,187161,10.299088058221743,-0.723871076977921,0.008288344385506267,23.227625275788075,11.15854683029588,-9.50065444897751,0.0,0.0,0.0
0,2021-07-06 12:11:12.274124,187171,10.300708632367005,-0.7255877648249652,0.010974982269809258,23.27130378581199,11.089583046069691,-9.414118304981368,0.0,0.0,0.0
0,2021-07-06 12:11:12.283797,187180,10.302169407530586,-0.7274447406342212,0.013297453955114617,23.314199104137728,11.018291613575817,-9.329526336650481,0.0,0.0,0.0
0,2021-07-06 12:11:12.292208,187189,10.303473588648503,-0.7294350917979155,0.015258615075873422,23.356319570156753,10.945030488595535,-9.247002531030745,0.0,0.0,0.0
0,2021-07-06 12:11:12.300859,187197,10.304624859067347,-0.7315516242532032,0.016862649533231657,23.397674991244983,10.870156170998879,-9.166662875577682,0.0,0.0,0.0
0,2021-07-06 12:11:12.308584,187205,10.30562738446878,-0.7337868779948954,0.018115065261167497,23.438276565335677,10.794022467769578,-9.08861517320391,0.0,0.0,0.0
0,2021-07-06 12:11:12.316039,187213,10.306485810780883,-0.736133144445262,0.019022676398786215,23.478136797818436,10.716979230583952,-9.012958886771932,0.0,0.0,0.0
0,2021-07-06 12:11:12.324022,187221,10.307205253894258,-0.7385824864600511,0.019593570922791164,23.517269414722005,10.639371086195814,-8.939785011946821,0.0,0.0,0.0
0,2021-07-06 12:11:12.333189,187230,10.307791281562173,-0.7411267605051992,0.0198370648719109,23.55568927368137,10.561536179460361,-8.869175976318996,0.0,0.0,0.0
0,2021-07-06 12:11:12.342009,187239,10.308249888958873,-0.743757640430475,0.01976364523227595,23.593412273551532,10.483804945258683,-8.801205562340826,0.0,0.0,0.0
0,2021-07-06 12:11:12.351493,187248,10.308587469504218,-0.7464666428572022,0.01938490410252011,23.630455262616834,10.40649892339297,-8.735938852271147,0.0,0.0,0.0
0,2021-07-06 12:11:12.361016,187258,10.308810782646507,-0.749245154180035,0.01871346719363739,23.666835945142626,10.329929631258585,-8.673432194269333,0.0,0.0,0.0
0,2021-07-06 12:11:12.369560,187266,10.308926920135828,-0.7520844583733934,0.01776291932946572,23.702572787323952,10.254397507549024,-8.613733189171963,0.0,0.0,0.0
0,2021-07-06 12:11:12.378307,187275,10.308943271783939,-0.754975764452763,0.01654772831244634,23.737684924915897,10.180190935559889,-8.55688069767505,0.0,0.0,0.0
0,2021-07-06 12:11:12.386689,187283,10.308867491101859,-0.7579102333106752,0.015083167040869812,23.772192074315257,10.107585350184635,-8.50290486819376,0.0,0.0,0.0
0,2021-07-06 12:11:12.393839,187290,10.308707460933066,-0.7608790044794399,0.013385233162478154,23.806114447465163,10.036842430072662,-8.451827186033748,0.0,0.0,0.0
0,2021-07-06 12:11:12.401410,187298,10.308471259391718,-0.7638732229754575,0.01147056624041368,23.83947267021262,9.96820937538763,-8.403660544019878,0.0,0.0,0.0
0,2021-07-06 12:11:12.409148,187306,10.308167126630462,-0.7668840656277338,0.009356363409907269,23.872287703940778,9.901918270935784,-8.35840933373593,0.0,0.0,0.0
0,2021-07-06 12:11:12.416796,187313,10.30780343270426,-0.7699027664334235,0.007060295037404936,23.90458077089367,9.838185533323863,-8.316069555838338,0.0,0.0,0.0
0,2021-07-06 12:11:12.424343,187321,10.307388646240106,-0.7729206412120416,0.004600422213657974,23.9363732838765,9.777211439963995,-8.27662894795177,0.0,0.0,0.0
0,2021-07-06 12:11:12.431983,187329,10.306931303365454,-0.7759291121071832,0.0019951175805516183,23.967686780467645,9.719179737847162,-8.24006712930764,0.0,0.0,0.0
0,2021-07-06 12:11:12.440138,187337,10.306439976597401,-0.7789197320524106,-0.0007370105805893399,23.998542860890677,9.664257330534983,-8.206355762002914,0.0,0.0,0.0
0,2021-07-06 12:11:12.449878,187347,10.305923243745633,-0.781884208876052,-0.0035771926287147273,24.028963128300372,9.612594041925776,-8.175458728990185,0.0,0.0,0.0
0,2021-07-06 12:11:12.459823,187356,10.305389656948485,-0.7848144289031944,-0.0065065720546087225,24.058969130760183,9.564322454899454,-8.147332328810668,0.0,0.0,0.0
0,2021-07-06 12:11:12.466517,187363,10.304847711793817,-0.7877024804551928,-0.009506281497395892,24.088582304737052,9.519557822599689,-8.121925487304527,0.0,0.0,0.0
0,2021-07-06 12:11:12.473662,187370,10.30430581622194,-0.790540677760487,-0.012557521103726446,24.117823920030993,9.478398050469812,-8.09917998694305,0.0,0.0,0.0
0,2021-07-06 12:11:12.482553,187379,10.30377225862626,-0.793321585249883,-0.015641639477824994,24.14671502621307,9.440923747967556,-8.079030714297534,0.0,0.0,0.0
0,2021-07-06 12:11:12.489760,187386,10.303255174479407,-0.7960380416867449,-0.018740216877059485,24.175276401039802,9.40719834946253,-8.061405925568742,0.0,0.0,0.0
0,2021-07-06 12:11:12.497358,187394,10.302762511157498,-0.7986831836485282,-0.0218351497403874,24.203528501407646,9.377268304278699,-8.04622752971162,0.0,0.0,0.0
0,2021-07-06 12:11:12.507652,187404,10.302301991265756,-0.8012504682499952,-0.02490873484496107,24.231491416907552,9.351163336623502,-8.033411388818157,0.0,0.0,0.0
0,2021-07-06 12:11:12.516142,187413,10.301881075321456,-0.803733695201619,-0.027943750702500016,24.259184825427102,9.328896776138588,-8.0228676359715,0.0,0.0,0.0
0,2021-07-06 12:11:12.524300,187421,10.301506924936845,-0.8061270282969074,-0.03092353385247059,24.286627950173163,9.310465957939291,-8.01450101140896,0.0,0.0,0.0
0,2021-07-06 12:11:12.531977,187429,10.30118636755005,-0.8084250163715653,-0.033832048511059976,24.313839517967825,9.29585268900164,-8.00821121805593,0.0,0.0,0.0
0,2021-07-06 12:11:12.540140,187437,10.30092586317961,-0.8106226136801876,-0.03665394944737828,24.340837719246224,9.285023777517715,-8.003893297237534,0.0,0.0,0.0
0,2021-07-06 12:11:12.547223,187444,10.300731473005134,-0.8127151993682952,-0.0393746395751192,24.367640170422103,9.277931622470868,-8.001438025090279,0.0,0.0,0.0
0,2021-07-06 12:11:12.554400,187451,10.300608829671825,-0.8146985951363096,-0.04198032435966984,24.394263879114742,9.274514860601007,-8.000732330007787,0.0,0.0,0.0
0,2021-07-06 12:11:12.562038,187459,10.300563110268826,-0.8165690794356351,-0.044458064172379026,24.420725212480697,9.274699067246505,-8.001659731086317,0.0,0.0,0.0
0,2021-07-06 12:11:12.570644,187467,10.30059901378608,-0.8183233963372399,-0.0467958244396082,24.44703986886588,9.278397507313,-8.004100796884261,0.0,0.0,0.0
0,2021-07-06 12:11:12.578390,187475,10.300720744605925,-0.8199587582190451,-0.048982523107667604,24.473222852982534,9.28551193288486,-8.007933622377204,0.0,0.0,0.0
0,2021-07-06 12:11:12.586536,187483,10.300932002762574,-0.8214728430316809,-0.051008075178779255,24.499288454521196,9.295933423521348,-8.01303431923913,0.0,0.0,0.0
0,2021-07-06 12:11:12.593788,187490,10.301235980879927,-0.8228637877005277,-0.05286343383642917,24.525250230059125,9.309543263362986,-8.019277511356034,0.0,0.0,0.0
0,2021-07-06 12:11:12.601248,187498,10.30163536682969,-0.824130178731348,-0.05454062685683596,24.551120988932247,9.326213846950811,-8.02653682549431,0.0,0.0,0.0
0,2021-07-06 12:11:12.608535,187505,10.302132350587035,-0.8252710403198961,-0.05603278651873379,24.5769127846624,9.34580960528008,-8.034685367716916,0.0,0.0,0.0
0,2021-07-06 12:11:12.617299,187514,10.302728633812741,-0.8262858203273616,-0.0573341717152505,24.602636913446183,9.368187945228051,-8.043596179330676,0.0,0.0,0.0
0,2021-07-06 12:11:12.626008,187523,10.303425440889708,-0.82717437520309,-0.0584401819693429,24.628303920203013,9.393200196631573,-8.053142669496749,0.0,0.0,0.0
0,2021-07-06 12:11:12.635346,187532,10.304223530262757,-0.8279369551124204,-0.05934736406976624,24.65392361160863,9.420692561193798,-8.063199023389371,0.0,0.0,0.0
0,2021-07-06 12:11:12.642968,187540,10.305123205290766,-0.8285741896083647,-0.06005341305058845,24.679505074975317,9.450507057957688,-8.073640585616989,0.0,0.0,0.0
0,2021-07-06 12:11:12.650721,187547,10.306124324392025,-0.8290870732022897,-0.060557169512791276,24.70505670190762,9.482482461770571,-8.084344219298927,0.0,0.0,0.0
0,2021-07-06 12:11:12.659459,187556,10.307226310890725,-0.8294769502270425,-0.06085861374540045,24.730586215935855,9.516455232304104,-8.095188641656712,0.0,0.0,0.0
0,2021-07-06 12:11:12.668166,187565,10.30842816364549,-0.8297454990364547,-0.06095885438486637,24.75610070306666,9.552260430223285,-8.106054737231979,0.0,0.0,0.0
0,2021-07-06 12:11:12.675767,187572,10.309728469846089,-0.8298947157616212,-0.06086010787856089,24.78160664343756,9.589732613716189,-8.116825849740744,0.0,0.0,0.0
0,2021-07-06 12:11:12.683075,187580,10.311125420942917,-0.829926897302857,-0.06056566596424701,24.80710994185825,9.628706704556421,-8.127388052990097,0.0,0.0,0.0
0,2021-07-06 12:11:12.690548,187587,10.3126168319856,-0.8298446227592775,-0.06007985040051005,24.83261595550225,9.669018811743125,-8.137630400787243,0.0,0.0,0.0
0,2021-07-06 12:11:12.698506,187595,10.314200164216308,-0.8296507327667794,-0.059407956224660774,24.85812951815727,9.71050700335428,-8.14744515596252,0.0,0.0,0.0
0,2021-07-06 12:11:12.705337,187602,10.31587255050251,-0.8293483069490468,-0.05855618696131303,24.883654961445774,9.75301201988523,-8.15672799923935,0.0,0.0,0.0
0,2021-07-06 12:11:12.711853,187608,10.317630822946889,-0.8289406402084946,-0.05753158642532911,24.909196133703645,9.796377923809194,-8.165378219098885,0.0,0.0,0.0
0,2021-07-06 12:11:12.718761,187615,10.319471541875131,-0.8284312186738422,-0.05634197091164454,24.934756417023785,9.840452682815355,-8.173298883832071,0.0,0.0,0.0
0,2021-07-06 12:11:12.727370,187624,10.32139102546301,-0.8278236959578412,-0.05499586367312067,24.9603387428378,9.88508868769479,-8.180396996757487,0.0,0.0,0.0
0,2021-07-06 12:11:12.735460,187632,10.32338537940743,-0.8271218701880844,-0.053502432162154424,24.985945606212454,9.930143207911978,-8.186583635110088,0.0,0.0,0.0
0,2021-07-06 12:11:12.743044,187640,10.325450526078747,-0.8263296621939114,-0.05187142774403296,25.01157907849369,9.975478788662395,-8.191774072468737,0.0,0.0,0.0
0,2021-07-06 12:11:12.750152,187647,10.32758223258733,-0.8254510951895669,-0.050113127256367775,25.037240817553137,10.020963593512125,-8.195887884247645,0.0,0.0,0.0
0,2021-07-06 12:11:12.758192,187655,10.329776137349096,-0.82449027610384,-0.04823827574794061,25.06293207517809,10.066471696717807,-8.19884903606047,0.0,0.0,0.0
0,2021-07-06 12:11:12.765943,187663,10.332027774941446,-0.8234513784200798,-0.04625802970814433,25.088653701597472,10.111883329485009,-8.200585955399763,0.0,0.0,0.0
0,2021-07-06 12:11:12.773681,187670,10.334332599137083,-0.8223386262700862,-0.044183900021918125,25.11440614749378,10.157085085143457,-8.201031587640138,0.0,0.0,0.0
0,2021-07-06 12:11:12.781324,187678,10.336686004043836,-0.8211562796537937,-0.04202769391898456,25.140189464492508,10.201970089119813,-8.200123437729271,0.0,0.0,0.0
0,2021-07-06 12:11:12.788701,187685,10.33908334334195,-0.8199086208221529,-0.03980145535770563,25.166003305809554,10.246438139725162,-8.197803598918744,0.0,0.0,0.0
0,2021-07-06 12:11:12.797120,187694,10.34151994768252,-0.8185999418790866,-0.03751740348347466,25.191846928936528,10.29039582473492,-8.194018769412418,0.0,0.0,0.0
0,2021-07-06 12:11:12.806850,187703,10.34399114036439,-0.8172345335850554,-0.035187868947119484,25.217719202095775,10.333756617376789,-8.188720257205409,0.0,0.0,0.0
0,2021-07-06 12:11:12.816029,187713,10.346492251533606,-0.815816675253294,-0.03282522804247353,25.243618615929968,10.376440954471807,-8.18186397304719,0.0,0.0,0.0
0,2021-07-06 12:11:12.824064,187721,10.349018631662522,-0.8143506254096852,-0.030441835180068186,25.269543301119196,10.418376298628838,-8.1734104114354,0.0,0.0,0.0
0,2021-07-06 12:11:12.831354,187728,10.351565665909177,-0.8128406125569343,-0.02804995518320146,25.295491051190144,10.459497184752834,-8.163324619690826,0.0,0.0,0.0
0,2021-07-06 12:11:12.838318,187735,10.354128791120464,-0.8112908254034913,-0.02566169736980194,25.321459348638573,10.499745248439691,-8.151576155305142,0.0,0.0,0.0
0,2021-07-06 12:11:12.845999,187743,10.356703516030098,-0.8097054025544882,-0.02328895266569655,25.347445392456052,10.539069230680365,-8.13813903184433,0.0,0.0,0.0
0,2021-07-06 12:11:12.853598,187750,10.359285443511403,-0.8080884223542709,-0.02094333371191348,25.373446125753766,10.577424951374987,-8.122991653969436,0.0,0.0,0.0
0,2021-07-06 12:11:12.860852,187757,10.361870292798624,-0.8064438937103413,-0.018636117038910733,25.39945826268284,10.614775244759835,-8.106116742650089,0.0,0.0,0.0
0,2021-07-06 12:11:12.867924,187765,10.364453919706122,-0.8047757484225373,-0.01637818628115939,25.425478314215223,10.651089852400053,-8.087501251842552,0.0,0.0,0.0
0,2021-07-06 12:11:12.876234,187773,10.367032333818015,-0.8030878351020619,-0.014179976274302073,25.45150261238954,10.686345272540683,-8.06713627752228,0.0,0.0,0.0
0,2021-07-06 12:11:12.884770,187781,10.36960171276605,-0.8013839143444113,-0.01205141933076626,25.477527332066053,10.720524567145748,-8.045016959546679,0.0,0.0,0.0
0,2021-07-06 12:11:12.893270,187790,10.372158414306618,-0.7996676546438882,-0.010001895855300789,25.503548508840545,10.75361712919484,-8.02114237666916,0.0,0.0,0.0
0,2021-07-06 12:11:12.900826,187797,10.374698986810966,-0.7979426287939203,-0.008040191260188467,25.529562052351647,10.785618413239318,-7.995515435060179,0.0,0.0,0.0
0,2021-07-06 12:11:12.908676,187805,10.377220178427995,-0.7962123109858974,-0.006174460601056216,25.55556375512458,10.816529632778238,-7.9681427511042715,0.0,0.0,0.0
0,2021-07-06 12:11:12.916608,187813,10.379718944879391,-0.7944800749565691,-0.0044122016516498115,25.581549297528497,10.846357428855748,-7.939034529844928,0.0,0.0,0.0
0,2021-07-06 12:11:12.923936,187821,10.382192455629673,-0.7927491931468538,-0.0027602358862618558,25.607514249621513,10.875113514933496,-7.908204440578345,0.0,0.0,0.0
0,2021-07-06 12:11:12.931700,187828,10.384638098099021,-0.791022836411123,-0.0012246957764432491,25.63345407087018,10.902814303064138,-7.875669490586706,0.0,0.0,0.0
0,2021-07-06 12:11:12.938630,187835,10.387053479723289,-0.7893040738159032,0.0001889832306623643,25.659364108689577,10.929480515891054,-7.841449897460413,0.0,0.0,0.0
0,2021-07-06 12:11:12.945979,187843,10.389436427866418,-0.7875958723339749,0.0014760672264310204,25.685239596275025,10.955136788878171,-7.805568960605413,0.0,0.0,0.0
0,2021-07-06 12:11:12.952913,187850,10.391784987657768,-0.7859010964472577,0.0026325256263133546,25.711075649523465,10.97981126754346,-7.768052933295739,0.0,0.0,0.0
0,2021-07-06 12:11:12.960355,187857,10.394097417765195,-0.7842225077597788,0.003655030519141207,25.73686726239039,11.003535204540265,-7.728930897191163,0.0,0.0,0.0
0,2021-07-06 12:11:12.967239,187864,10.396372184108127,-0.7825627647641021,0.004540953476794235,25.76260930018416,11.026342560736698,-7.6882346409163755,0.0,0.0,0.0
0,2021-07-06 12:11:12.974446,187871,10.398607951765754,-0.7809244230204847,0.0052883599181882115,25.788296491165905,11.04826961311902,-7.645998543328597,0.0,0.0,0.0
0,2021-07-06 12:11:12.981926,187879,10.400803575788405,-0.7793099362529681,0.005896001775081422,25.813923417878975,11.069354570959497,-7.602259461385485,0.0,0.0,0.0
0,2021-07-06 12:11:12.989957,187887,10.402958091861683,-0.7777216589506267,0.006363309527405738,25.839484510102785,11.089637200787598,-7.557056622278185,0.0,0.0,0.0
0,2021-07-06 12:11:12.997019,187894,10.405070707526724,-0.776161850594015,0.006690384119656989,25.864974040895913,11.109158459883016,-7.510431519407487,0.0,0.0,0.0
0,2021-07-06 12:11:13.004130,187901,10.407140794202313,-0.7746326807998164,0.006877988234423987,25.890386126265444,11.127960136748616,-7.462427811972832,0.0,0.0,0.0
0,2021-07-06 12:11:13.012188,187909,10.409167879948454,-0.7731362342502448,0.006927535856542422,25.91571472839523,11.146084496316396,-7.413091228090755,0.0,0.0,0.0
0,2021-07-06 12:11:13.019103,187916,10.411151642660181,-0.7716745146759443,0.006841079477184615,25.94095366229795,11.163573928580014,-7.36246947094002,0.0,0.0,0.0
0,2021-07-06 12:11:13.026464,187923,10.413091903023656,-0.7702494479362951,0.006621295122943209,25.96609660558538,11.180470601230434,-7.310612127093022,0.0,0.0,0.0
0,2021-07-06 12:11:13.034348,187931,10.414988616448946,-0.7688628846112728,0.0062714657744138156,25.991137110532588,11.196816118883223,-7.257570576742878,0.0,0.0,0.0
0,2021-07-06 12:11:13.041484,187938,10.416841863618979,-0.7675166022910039,0.0057954634429020924,26.016068617266605,11.212651193532237,-7.203397906499163,0.0,0.0,0.0
0,2021-07-06 12:11:13.049612,187946,10.418651839843221,-0.7662123073969981,0.00519772972299397,26.040884467220224,11.228015331996868,-7.148148825578194,0.0,0.0,0.0
0,2021-07-06 12:11:13.057683,187954,10.420418843585978,-0.7649516363023692,0.004483254425363557,26.06557791693301,11.242946545938064,-7.091879585232471,0.0,0.0,0.0
0,2021-07-06 12:11:13.065027,187962,10.422143264490483,-0.763736155677327,0.003657551790599743,26.090142153151707,11.257481089749815,-7.034647900277954,0.0,0.0,0.0
0,2021-07-06 12:11:13.072296,187969,10.423825571286308,-0.762567362195941,0.0027266336632563773,26.11457031001723,11.271653231129733,-6.976512871432573,0.0,0.0,0.0
0,2021-07-06 12:11:13.079517,187976,10.425466300171903,-0.76144668194078,0.0016969789662108327,26.138855487964452,11.285495057146745,-6.917534907369277,0.0,0.0,0.0
0,2021-07-06 12:11:13.087319,187984,10.427066044344206,-0.7603754698678308,0.0005754989865723599,26.16299077316326,11.299036316166328,-6.857775645272418,0.0,0.0,0.0
0,2021-07-06 12:11:13.095444,187992,10.42862544511478,-0.7593550093057345,-0.0006305014972387059,26.186969256715834,11.31230429439162,-6.797297868591097,0.0,0.0,0.0
0,2021-07-06 12:11:13.102380,187999,10.430145184672266,-0.7583865107989305,-0.0019133664615212241,26.210784053590505,11.325323724557554,-6.736165421128848,0.0,0.0,0.0
0,2021-07-06 12:11:13.109859,188006,10.431625980309281,-0.7574711093081595,-0.003265133088427563,26.23442832164225,11.338116723609327,-6.674443117042726,0.0,0.0,0.0
0,2021-07-06 12:11:13.116947,188014,10.433068579809861,-0.7566098593602607,-0.004677577674702925,26.257895281155182,11.350702756534966,-6.61219664627278,0.0,0.0,0.0
0,2021-07-06 12:11:13.125571,188022,10.434473757525552,-0.7558037288194526,-0.00614226303567651,26.281178235261216,11.363098624004026,-6.549492475024679,0.0,0.0,0.0
0,2021-07-06 12:11:13.134033,188031,10.435842310573872,-0.7550535925079034,-0.007650587884518353,26.304270591475763,11.37531847178205,-6.486397741073682,0.0,0.0,0.0
0,2021-07-06 12:11:13.142601,188039,10.437175054765254,-0.7543602263820055,-0.009193838643123453,26.327165884588347,11.38737382101505,-6.422980143159774,0.0,0.0,0.0
0,2021-07-06 12:11:13.151436,188048,10.438472820161227,-0.7537243019707446,-0.010763243920568447,26.349857801055776,11.399273620212021,-6.359307823304882,0.0,0.0,0.0
0,2021-07-06 12:11:13.160903,188058,10.439736446371201,-0.753146380371749,-0.012350031509842584,26.372340204954657,11.41102432088798,-6.295449241332969,0.0,0.0,0.0
0,2021-07-06 12:11:13.167959,188065,10.440966777817232,-0.752626905573589,-0.013945487093944607,26.39460716570381,11.422629978946045,-6.231473041754393,0.0,0.0,0.0
0,2021-07-06 12:11:13.175637,188072,10.442164659285925,-0.7521661975438398,-0.015541013105575336,26.416652987612494,11.434092383132826,-6.167447913815855,0.0,0.0,0.0
0,2021-07-06 12:11:13.183620,188080,10.44333093212137,-0.7517644457607391,-0.017128185720215617,26.4384722404443,11.445411210636141,-6.103442445624257,0.0,0.0,0.0
0,2021-07-06 12:11:13.191169,188088,10.444466431364877,-0.7514217037363821,-0.018698808127218285,26.46005978957291,11.456584208763344,-6.03952497277161,0.0,0.0,0.0
0,2021-07-06 12:11:13.199910,188097,10.445571984007408,-0.75113788492192,-0.020244959159147903,26.481410824687384,11.467607400484324,-5.975763421608658,0.0,0.0,0.0
0,2021-07-06 12:11:13.207462,188104,10.446648408316277,-0.7509127602921916,-0.021759037568522197,26.502520886559378,11.478475309679007,-5.912225148216543,0.0,0.0,0.0
0,2021-07-06 12:11:13.216965,188114,10.447696513965845,-0.7507459575886553,-0.023233802879042975,26.5233858913308,11.489181200024374,-5.8489767753161095,0.0,0.0,0.0
0,2021-07-06 12:11:13.224463,188121,10.448717102488597,-0.7506369615126883,-0.02466241359086661,26.544002151505346,11.499717321209742,-5.786084029111244,0.0,0.0,0.0
0,2021-07-06 12:11:13.232102,188129,10.449710967547365,-0.7505851136908428,-0.026038463070244544,26.56436639297834,11.510075157628632,-5.723611576591408,0.0,0.0,0.0
0,2021-07-06 12:11:13.239673,188136,10.450678894918585,-0.7505896115364178,-0.027356013040710916,26.584475768095537,11.52024567666026,-5.661622862809442,0.0,0.0,0.0
0,2021-07-06 12:11:13.246231,188143,10.451621662681852,-0.7506495058487049,-0.028609624133782426,26.60432786532463,11.53021957484382,-5.600179948075468,0.0,0.0,0.0
0,2021-07-06 12:11:13.253692,188150,10.452540042339244,-0.7507636975241062,-0.02979438236061402,26.62392071598904,11.539987520119215,-5.5393433461394235,0.0,0.0,0.0
0,2021-07-06 12:11:13.262360,188159,10.45343480120006,-0.7509309340007396,-0.030905919805678563,26.643252797763324,11.549540387561779,-5.479171864875271,0.0,0.0,0.0
0,2021-07-06 12:11:13.269207,188166,10.45430670584999,-0.7511498060937735,-0.03194042789438756,26.662323034187214,11.558869485757768,-5.419722450278877,0.0,0.0,0.0
0,2021-07-06 12:11:13.276353,188173,10.455156526292324,-0.751418745767005,-0.032894662860233084,26.681130789834135,11.567966771033763,-5.361050033562527,0.0,0.0,0.0
0,2021-07-06 12:11:13.285274,188182,10.45598504026456,-0.7517360252927975,-0.033765945040644285,26.69967586140194,11.576825046313319,-5.30320738076709,0.0,0.0,0.0
0,2021-07-06 12:11:13.293726,188190,10.456793037204783,-0.7520997582004363,-0.03455215474417643,26.717958465332647,11.585438141147154,-5.246244944373081,0.0,0.0,0.0
0,2021-07-06 12:11:13.301892,188199,10.45758132147877,-0.7525079022503385,-0.0352517269383938,26.735979222765366,11.593801070894449,-5.190210716234279,0.0,0.0,0.0
0,2021-07-06 12:11:13.309138,188206,10.458350714689036,-0.7529582644167673,-0.035863645907391495,26.753739142776016,11.601910175348292,-5.13515008136662,0.0,0.0,0.0
0,2021-07-06 12:11:13.316736,188213,10.459102057023648,-0.7534485076804457,-0.03638744010990868,26.771239604723085,11.609763238307675,-5.081105673285052,0.0,0.0,0.0
0,2021-07-06 12:11:13.324506,188221,10.459836207693485,-0.7539761593799613,-0.03682317659653507,26.788482340099453,11.617359589322273,-5.028117232886209,0.0,0.0,0.0
0,2021-07-06 12:11:13.332428,188229,10.460554044555991,-0.7545386209010653,-0.03717145380059759,26.805469413982102,11.62470018822841,-4.976221473029446,0.0,0.0,0.0
0,2021-07-06 12:11:13.340233,188237,10.461256462953383,-0.7551331785314511,-0.037433391785737964,26.82220320611606,11.631787693118243,-4.925451950004393,0.0,0.0,0.0
0,2021-07-06 12:11:13.348146,188245,10.46194437364966,-0.7557570152970899,-0.037610619735187305,26.83868639160563,11.638626513016272,-4.875838942545771,0.0,0.0,0.0
0,2021-07-06 12:11:13.355629,188252,10.462618699749774,-0.7564072234832714,-0.037705261010039834,26.854921921249232,11.64522284723238,-4.827409339676328,0.0,0.0,0.0
0,2021-07-06 12:11:13.362962,188260,10.46328037271327,-0.7570808173935744,-0.037719916408871644,26.87091300207564,11.65158471372441,-4.780186539344161,0.0,0.0,0.0
0,2021-07-06 12:11:13.370157,188267,10.463930327835955,-0.7577747458511689,-0.03765764626497837,26.886663079129587,11.657721968503472,-4.734190359441598,0.0,0.0,0.0
0,2021-07-06 12:11:13.377238,188274,10.464569499779262,-0.7584859040175085,-0.0375219514647723,26.90217581914443,11.663646316757665,-4.689436961483288,0.0,0.0,0.0
0,2021-07-06 12:11:13.385029,188282,10.465198818988254,-0.7592111441555459,-0.037316752553196116,26.917455095571334,11.669371314380655,-4.645938786071035,0.0,0.0,0.0
0,2021-07-06 12:11:13.392270,188289,10.46581920993976,-0.7599472850210907,-0.03704636558069883,26.932504973661164,11.674912357345619,-4.60370449887443,0.0,0.0,0.0
0,2021-07-06 12:11:13.400829,188297,10.466431591729114,-0.7606911198431524,-0.03671547362933603,26.94732969437559,11.680286656162412,-4.562738946027579,0.0,0.0,0.0
0,2021-07-06 12:11:13.408642,188305,10.467036880744633,-0.76143942330146,-0.03632909353090091,26.961933656110606,11.685513192398773,-4.52304311855133,0.0,0.0,0.0
0,2021-07-06 12:11:13.416357,188313,10.467635994695563,-0.7621889581171434,-0.03589253762828047,26.976321393359513,11.690612653958636,-4.484614126436052,0.0,0.0,0.0
0,2021-07-06 12:11:13.425936,188323,10.468229857272517,-0.7629364816474954,-0.035411370559868934,26.990497552044665,11.695607346487654,-4.447445183650958,0.0,0.0,0.0
0,2021-07-06 12:11:13.434217,188331,10.468819402985721,-0.7636787525584172,-0.03489136117581494,27.00446686206311,11.700521079657191,-4.4115256050923195,0.0,0.0,0.0
0,2021-07-06 12:11:13.441418,188338,10.469405582001906,-0.7644125376252081,-0.03433843003408765,27.01823410801229,11.705379028334164,-4.376840815612981,0.0,0.0,0.0
0,2021-07-06 12:11:13.449525,188346,10.469989364979735,-0.7651346189193655,-0.03375859357423894,27.031804099183322,11.710207569696129,-4.343372370689534,0.0,0.0,0.0
0,2021-07-06 12:11:13.458093,188355,10.470571747880333,-0.7658418017307956,-0.03315790674893103,27.04518164013349,11.715034098333506,-4.3110979884788705,0.0,0.0,0.0
0,2021-07-06 12:11:13.465827,188362,10.471153756481032,-0.7665309234316189,-0.03254240616054214,27.058371503429452,11.719886822246318,-4.279991593605214,0.0,0.0,0.0
0,2021-07-06 12:11:13.472871,188370,10.471736450002936,-0.7671988633903827,-0.031918055292118865,27.07137840587188,11.724794543288747,-4.250023373551645,0.0,0.0,0.0
0,2021-07-06 12:11:13.481922,188379,10.47232092306514,-0.7678425542056718,-0.03129069234358528,27.084206988442038,11.729786425851723,-4.221159848809008,0.0,0.0,0.0
0,2021-07-06 12:11:13.489437,188386,10.47290830522894,-0.7684589946512687,-0.03066598029781172,27.096861799290718,11.734891757275252,-4.1933639577303925,0.0,0.0,0.0
0,2021-07-06 12:11:13.496702,188393,10.473499757717358,-0.7690452643785076,-0.030049358909052904,27.109347279078712,11.740139703130072,-4.166595156517008,0.0,0.0,0.0
0,2021-07-06 12:11:13.505431,188402,10.474096467290897,-0.7695985397249423,-0.029445999013470767,27.121667748346205,11.745559060758394,-4.140809534521127,0.0,0.0,0.0
0,2021-07-06 12:11:13.515048,188412,10.474699637508905,-0.7701161095809269,-0.02886075997235837,27.13382739678307,11.751178014770538,-4.115959945109532,0.0,0.0,0.0
0,2021-07-06 12:11:13.522352,188419,10.47531047779937,-0.7705953904940003,-0.028298150757952563,27.145830274387983,11.757023897808178,-4.091996152401986,0.0,0.0,0.0
0,2021-07-06 12:11:13.528540,188425,10.475930191086755,-0.7710339406538165,-0.027762294617479,27.157680284494173,11.763122959405655,-4.0688649945124435,0.0,0.0,0.0
0,2021-07-06 12:11:13.536686,188433,10.476559961072816,-0.7714294726973555,-0.027256897115258038,27.169381178313603,11.769500145556144,-4.046510564294278,0.0,0.0,0.0
0,2021-07-06 12:11:13.544498,188441,10.477200940380726,-0.7717798654328888,-0.026785217792208736,27.180936550199526,11.776178891003067,-4.024874408360886,0.0,0.0,0.0
0,2021-07-06 12:11:13.552941,188450,10.477854240561886,-0.7720831746385142,-0.026350046085338467,27.19234983274671,11.783180925281627,-4.0038957443432635,0.0,0.0,0.0
0,2021-07-06 12:11:13.560174,188457,10.478520924459552,-0.7723376429273227,-0.0259536820147469,27.203624291352934,11.790526092367582,-3.983511695327537,0.0,0.0,0.0
0,2021-07-06 12:11:13.567831,188464,10.479202000784925,-0.7725417083739125,-0.02559792175980139,27.21476301849616,11.798232182521343,-3.9636575393695788,0.0,0.0,0.0
0,2021-07-06 12:11:13.575960,188473,10.479898420164238,-0.7726940115710504,-0.025284048202730447,27.22576892817047,11.80631477438239,-3.9442669712343528,0.0,0.0,0.0
0,2021-07-06 12:11:13.583303,188480,10.480611071456403,-0.7727934012011416,-0.025012826894488145,27.236644750702084,11.814787086227383,-3.9252723733230384,0.0,0.0,0.0
0,2021-07-06 12:11:13.591039,188488,10.481340777072619,-0.7728389386045101,-0.024784508210565003,27.247393027968773,11.823659836780855,-3.906605093052154,0.0,0.0,0.0
0,2021-07-06 12:11:13.599417,188496,10.482088286559183,-0.7728299017542791,-0.024598836421340618,27.258016109037857,11.832941117491327,-3.888195724451357,0.0,0.0,0.0
0,2021-07-06 12:11:13.607240,188504,10.48285426849206,-0.7727657886945578,-0.02445506614860256,27.268516146221852,11.842636280065825,-3.8699743921422014,0.0,0.0,0.0
0,2021-07-06 12:11:13.616699,188513,10.483639301238691,-0.7726463202652052,-0.024351986089175028,27.278895091503756,11.852747844778655,-3.8518710361567514,0.0,0.0,0.0
0,2021-07-06 12:11:13.625174,188522,10.48444386325394,-0.7724714419054616,-0.024287948830390187,27.28915469339452,11.86327543557712,-3.8338156964578802,0.0,0.0,0.0
0,2021-07-06 12:11:13.632697,188529,10.4852683234909,-0.7722413243483668,-0.02426090483622266,27.299296494546187,11.874215746918635,-3.815738796342721,0.0,0.0,0.0
0,2021-07-06 12:11:13.640666,188537,10.486112932439397,-0.7719563628994168,-0.024268438867950857,27.309321830752886,11.885562544652855,-3.79757142379953,0.0,0.0,0.0
0,2021-07-06 12:11:13.649011,188546,10.48697781437528,-0.7716171747547548,-0.024307807644133504,27.31923183224862,11.89730670003381,-3.7792456094172713,0.0,0.0,0.0
0,2021-07-06 12:11:13.656752,188553,10.487862961496718,-0.7712245938798435,-0.024375977980520963,27.329027428203673,11.909436253957963,-3.7606945988534988,0.0,0.0,0.0
0,2021-07-06 12:11:13.665766,188562,10.488768230551445,-0.7707796635691662,-0.02446966520486532,27.33870935491924,11.921936508572745,-3.7418531173155527,0.0,0.0,0.0
0,2021-07-06 12:11:13.674956,188572,10.489693342316334,-0.7702836273518993,-0.0245853721136209,27.34827816776258,11.934790144388213,-3.722657623334501,0.0,0.0,0.0
0,2021-07-06 12:11:13.681934,188579,10.49063788390112,-0.7697379187901584,-0.024719428625194127,27.357734256522445,11.947977361364037,-3.7030465494528864,0.0,0.0,0.0
0,2021-07-06 12:11:13.689216,188586,10.491601313334252,-0.7691441502575134,-0.024868031724609305,27.36707786334404,11.961476041582058,-3.6829605279271624,0.0,0.0,0.0
0,2021-07-06 12:11:13.697977,188595,10.492582965476181,-0.7685041007132848,-0.025027284839419663,27.376309101843038,11.975261929991039,-3.6623425999978854,0.0,0.0,0.0
0,2021-07-06 12:11:13.705148,188602,10.493582058214653,-0.7678197029223529,-0.025193235696540944,27.385427975848778,11.989308829533124,-3.6411384078713454,0.0,0.0,0.0
0,2021-07-06 12:11:13.712435,188609,10.494597698141403,-0.7670930309170636,-0.02536191190682337,27.394434396607117,12.003588807802197,-3.6192963690958764,0.0,0.0,0.0
0,2021-07-06 12:11:13.719450,188616,10.495628885439682,-0.7663262883108617,-0.025529353867121872,27.403328197937697,12.018072413349772,-3.5967678334573336,0.0,0.0,0.0
0,2021-07-06 12:11:13.727442,188624,10.496674518320038,-0.7655217976148729,-0.02569164493970984,27.41210914942606,12.03272890003078,-3.573507223208945,0.0,0.0,0.0
0,2021-07-06 12:11:13.734873,188632,10.497733397595775,-0.7646819903838568,-0.025844939256978686,27.420776968079377,12.047526457598376,-3.549472158082934,0.0,0.0,0.0
0,2021-07-06 12:11:13.742811,188639,10.498804231737548,-0.7638093978681975,-0.02598548791460344,27.42933132911268,12.062432446951115,-3.524623566418069,0.0,0.0,0.0
0,2021-07-06 12:11:13.750141,188647,10.4998856423933,-0.762906641837073,-0.02610966440731764,27.437771876628016,12.077413639007233,-3.4989257830129903,0.0,0.0,0.0
0,2021-07-06 12:11:13.758131,188655,10.500976170291617,-0.7619764254198838,-0.026213989430671717,27.446098234665598,12.092436456228972,-3.472346633714627,0.0,0.0,0.0
0,2021-07-06 12:11:13.765885,188663,10.50207428158066,-0.7610215241055823,-0.026295153893486387,27.45431001853828,12.107467215012935,-3.444857506653649,0.0,0.0,0.0
0,2021-07-06 12:11:13.774366,188671,10.50317837475204,-0.7600447771435602,-0.026350038291001937,27.46240684601382,12.122472366432438,-3.4164334100972864,0.0,0.0,0.0
0,2021-07-06 12:11:13.781924,188679,10.504286788313388,-0.7590490792336362,-0.026375727089533896,27.47038834800522,12.137418732559778,-3.387053016772465,0.0,0.0,0.0
0,2021-07-06 12:11:13.789297,188686,10.505397809355403,-0.7580373717697915,-0.026369517803460207,27.47825417860392,12.152273734862177,-3.3566986944879047,0.0,0.0,0.0
0,2021-07-06 12:11:13.796712,188693,10.506509683067577,-0.7570126327398551,-0.026328925219611707,27.486004024244174,12.167005610018299,-3.3253565229843036,0.0,0.0,0.0
0,2021-07-06 12:11:13.804254,188701,10.507620623063927,-0.7559778650127607,-0.026251681660478872,27.49363761166118,12.181583608269507,-3.2930162967407823,0.0,0.0,0.0
0,2021-07-06 12:11:13.813050,188710,10.508728822237629,-0.7549360834528511,-0.02613573435824578,27.501154714345937,12.195978170583558,-3.2596715130109315,0.0,0.0,0.0
0,2021-07-06 12:11:13.821589,188718,10.509832463886555,-0.7538903013919565,-0.0259792411008301,27.508555157429562,12.210161082875555,-3.2253193442220973,0.0,0.0,0.0
0,2021-07-06 12:11:13.828698,188725,10.510929732897571,-0.7528435167408019,-0.025780565568998486,27.515838821135862,12.224105607385736,-3.1899605943235994,0.0,0.0,0.0
0,2021-07-06 12:11:13.835658,188732,10.512018826662386,-0.7517986979748457,-0.025538273872527856,27.523005642933903,12.237786592566323,-3.153599639318734,0.0,0.0,0.0
0,2021-07-06 12:11:13.843171,188740,10.513097965172074,-0.7507587704135075,-0.025251133234101074,27.53005561837285,12.251180563653813,-3.1162443524694297,0.0,0.0,0.0
0,2021-07-06 12:11:13.851086,188748,10.514165399677264,-0.7497266033083444,-0.024918112991176942,27.536988800542563,12.264265796483624,-3.077906014418854,0.0,0.0,0.0
0,2021-07-06 12:11:13.858662,188755,10.515219419599351,-0.7487049980947548,-0.024538387718285423,27.543805298333236,12.277022377008656,-3.0385992083761586,0.0,0.0,0.0
0,2021-07-06 12:11:13.867979,188765,10.516258357837367,-0.747696677913536,-0.024111342155346726,27.55050527403137,12.28943224896583,-2.9983417011493962,0.0,0.0,0.0
0,2021-07-06 12:11:13.875139,188772,10.517280594844348,-0.7467042783940243,-0.0236365772596846,27.55708894101926,12.301479252471156,-2.957154311542113,0.0,0.0,0.0
0,2021-07-06 12:11:13.882869,188779,10.51828456174503,-0.7457303397050024,-0.023113916057593,27.563556562353607,12.3131491565801,-2.9150607673641633,0.0,0.0,0.0
0,2021-07-06 12:11:13.890538,188787,10.519268742609457,-0.7447772999033909,-0.02254340775390632,27.569908450857533,12.324429688473405,-2.87208755127727,0.0,0.0,0.0
0,2021-07-06 12:11:13.899206,188796,10.520231676087953,-0.7438474895887012,-0.021925329445045758,27.576144971076598,12.335310560602771,-2.8282637350462165,0.0,0.0,0.0
0,2021-07-06 12:11:13.907669,188804,10.521171956906212,-0.7429431278539482,-0.02126018623850944,27.582266543023653,12.345783495180381,-2.7836208021373805,0.0,0.0,0.0
0,2021-07-06 12:11:13.915856,188812,10.522088237809918,-0.7420663196170652,-0.020548711080860118,27.588273647195727,12.355842243674045,-2.7381924596185665,0.0,0.0,0.0
0,2021-07-06 12:11:13.925185,188822,10.522979232225122,-0.7412190546208102,-0.019791864598418914,27.594166830062584,12.365482598068398,-2.6920144410437477,0.0,0.0,0.0
0,2021-07-06 12:11:13.932940,188830,10.523843717494579,-0.7404032084551598,-0.018990834101888156,27.599946709227517,12.374702390722318,-2.6451243019322535,0.0,0.0,0.0
0,2021-07-06 12:11:13.940266,188837,10.524680538364755,-0.7396205455896516,-0.018147030857641685,27.605613977651146,12.383501480180234,-2.5975612093641147,0.0,0.0,0.0
0,2021-07-06 12:11:13.947504,188844,10.525488610318552,-0.7388727237375433,-0.01726208541477839,27.6111694063933,12.391881720348245,-2.549365728399365,0.0,0.0,0.0
0,2021-07-06 12:11:13.954799,188851,10.526266922301112,-0.7381612984843477,-0.016337841390443034,27.616613845202444,12.399846910262212,-2.5005796100390305,0.0,0.0,0.0
0,2021-07-06 12:11:13.962754,188859,10.5270145384764,-0.737487727304061,-0.015376348482964892,27.621948220235666,12.407402722265216,-2.451245586446755,0.0,0.0,0.0
0,2021-07-06 12:11:13.971558,188868,10.527730598852791,-0.7368533725212058,-0.014379855593934765,27.627173528430298,12.414556607665691,-2.401407178060528,0.0,0.0,0.0
0,2021-07-06 12:11:13.980137,188877,10.528414318843991,-0.7362595030552288,-0.013350804823831077,27.63229082863385,12.421317680264863,-2.351108514541457,0.0,0.0,0.0
0,2021-07-06 12:11:13.987322,188884,10.529064988073458,-0.7357072948781684,-0.012291827030496581,27.637301230350314,12.427696579483491,-2.300394169063592,0.0,0.0,0.0
0,2021-07-06 12:11:13.995131,188892,10.52968196891251,-0.735197830141941,-0.011205739706076528,27.64220588138877,12.433705316136061,-2.249309004588354,0.0,0.0,0.0
0,2021-07-06 12:11:14.004725,188901,10.53026469527708,-0.7347320949386892,-0.01009554793059448,27.647005955559155,12.43935710482424,-2.1978980309204452,0.0,0.0,0.0
0,2021-07-06 12:11:14.012352,188909,10.530812672123286,-0.7343109756740055,-0.008964448925748375,27.651702641079677,12.444666187063852,-2.1462062713559944,0.0,0.0,0.0
0,2021-07-06 12:11:14.020378,188917,10.531325475987936,-0.73393525410452,-0.007815840160363486,27.656297129642766,12.449647649039356,-2.0942786374343734,0.0,0.0,0.0
0,2021-07-06 12:11:14.027392,188924,10.53180275685357,-0.7336056012459234,-0.006653330072071558,27.6607906052192,12.454317238308088,-2.0421598102139478,0.0,0.0,0.0
0,2021-07-06 12:11:14.034366,188931,10.53224424138565,-0.7333225705673708,-0.005480749487274327,27.665184231396996,12.458691184545382,-1.9898941266721804,0.0,0.0,0.0
0,2021-07-06 12:11:14.042620,188939,10.532649737090571,-0.7330865910705159,-0.004302161067341817,27.669479136827515,12.462786029259284,-1.9375254698080544,0.0,0.0,0.0
0,2021-07-06 12:11:14.051020,188948,10.533019136623828,-0.7328979608542597,-0.0031218641446599782,27.67367639927711,12.466618468057352,-1.8850971607286218,0.0,0.0,0.0
0,2021-07-06 12:11:14.059263,188956,10.533352421820233,-0.7327568414929966,-0.0019443935437762016,27.677777028776273,12.470205206976118,-1.8326518509923992,0.0,0.0,0.0
0,2021-07-06 12:11:14.067803,188964,10.533649667701129,-0.732663253200014,-0.0007745127213650611,27.68178194967306,12.473562832075865,-1.780231414265867,0.0,0.0,0.0
0,2021-07-06 12:11:14.074700,188971,10.53391104689524,-0.7326170706815743,0.00038279752858440236,27.685691981035955,12.476707689551942,-1.7278768378069203,0.0,0.0,0.0
0,2021-07-06 12:11:14.082644,188979,10.53413683435575,-0.7326180198801054,0.0015223538498613045,27.689507815185138,12.479655772437551,-1.675628115638763,0.0,0.0,0.0
0,2021-07-06 12:11:14.090332,188987,10.534327411665387,-0.7326656760472002,0.002638788263370354,27.693229994662286,12.482422609998306,-1.6235241454056124,0.0,0.0,0.0
0,2021-07-06 12:11:14.097813,188994,10.534483270127042,-0.7327594634059258,0.003726569090810722,27.696858888259122,12.485023157209014,-1.571602629641763,0.0,0.0,0.0
0,2021-07-06 12:11:14.107354,189004,10.534605011964125,-0.7328986562229699,0.004780024343963745,27.700394666908686,12.487471683215574,-1.519899980865,0.0,0.0,0.0
0,2021-07-06 12:11:14.115523,189012,10.534693349044584,-0.7330823808608717,0.005793366831230503,27.703837280316574,12.489781658463444,-1.4684512292428162,0.0,0.0,0.0
0,2021-07-06 12:11:14.124219,189021,10.534749098724363,-0.7333096184708732,0.006760720432097466,27.70718643502983,12.491965640416765,-1.4172899309354583,0.0,0.0,0.0
0,2021-07-06 12:11:14.132353,189029,10.534773176698264,-0.7335792081692294,0.007676147385143376,27.71044157436679,12.494035158359333,-1.3664480747988115,0.0,0.0,0.0
0,2021-07-06 12:11:14.139757,189036,10.534766587112026,-0.7338898505195416,0.008533676775013458,27.71360186054654,12.496000600011275,-1.3159559864490473,0.0,0.0,0.0
0,2021-07-06 12:11:14.147478,189044,10.534730410651886,-0.7342401109622405,0.009327334697600368,27.716666159469266,12.497871106557975,-1.2658422318682028,0.0,0.0,0.0
0,2021-07-06 12:11:14.154861,189051,10.534665791670813,-0.7346284229039928,0.010051176762023129,27.719633028711527,12.49965448457642,-1.216133525079662,0.0,0.0,0.0
0,2021-07-06 12:11:14.162570,189059,10.534573925385764,-0.7350530906932425,0.010699323529659419,27.72250070928665,12.501357140667814,-1.166854643772591,0.0,0.0,0.0
0,2021-07-06 12:11:14.170486,189067,10.53445604588873,-0.7355122931708211,0.011265999203590444,27.72526712153287,12.502984040239186,-1.1180283544079184,0.0,0.0,0.0
0,2021-07-06 12:11:14.179021,189076,10.534313415413722,-0.7360040884408648,0.011745573284213787,27.72792986497244,12.50453868910658,-1.0696753468625346,0.0,0.0,0.0
0,2021-07-06 12:11:14.187615,189084,10.534147315084029,-0.7365264201735168,0.012132604057802414,27.730486221275715,12.506023135007668,-1.0218141788764619,0.0,0.0,0.0
0,2021-07-06 12:11:14.195767,189092,10.533959037063534,-0.7370771254077929,0.012421882346204574,27.732933159497414,12.507437985119413,-0.9744612313459584,0.0,0.0,0.0
0,2021-07-06 12:11:14.202863,189099,10.533749877551537,-0.7376539434705848,0.01260847438321338,27.73526734398622,12.508782435885285,-0.9276306755109025,0.0,0.0,0.0
0,2021-07-06 12:11:14.210017,189107,10.533521129755583,-0.7382545254317229,0.012687763398531235,27.737485146499438,12.510054312605261,-0.8813344522461366,0.0,0.0,0.0
0,2021-07-06 12:11:14.217739,189114,10.533274076205302,-0.7388764436778719,0.012655489666795182,27.73958266373194,12.511250117422417,-0.8355822629077848,0.0,0.0,0.0
0,2021-07-06 12:11:14.226748,189123,10.533009980256509,-0.7395172015164334,0.012507788444214778,27.741555740261013,12.51236508507796,-0.7903815711228717,0.0,0.0,0.0
0,2021-07-06 12:11:14.233828,189130,10.532730076918643,-0.7401742429108102,0.012241224953198808,27.74339999610354,12.51339324617333,-0.7457376150855896,0.0,0.0,0.0
0,2021-07-06 12:11:14.243349,189140,10.532435563183538,-0.7408449624819173,0.011852825632381544,27.745110857782546,12.514327498107662,-0.7016534298148199,0.0,0.0,0.0
0,2021-07-06 12:11:14.252132,189149,10.53212758803702,-0.7415267159165866,0.011340105040353803,27.746683591420908,12.515159684525237,-0.6581298789167005,0.0,0.0,0.0
0,2021-07-06 12:11:14.259707,189156,10.531807242356878,-0.7422168309475297,0.010701088136387375,27.748113336095937,12.515880684615658,-0.6151656960226751,0.0,0.0,0.0
0,2021-07-06 12:11:14.268260,189165,10.53147554891362,-0.7429126190611561,0.009934328311149628,27.74939513602751,12.516480513564051,-0.5727575367318943,0.0,0.0,0.0
0,2021-07-06 12:11:14.275303,189172,10.53113345276779,-0.7436113879567425,0.009038921984586954,27.750523970906723,12.516948434786773,-0.5309000421819627,0.0,0.0,0.0
0,2021-07-06 12:11:14.282946,189180,10.530781812536189,-0.7443104545278074,0.008014520320253484,27.751494784247534,12.517273083577912,-0.4895859152563395,0.0,0.0,0.0
0,2021-07-06 12:11:14.290574,189187,10.530421393076821,-0.745007157948183,0.006861338118305103,27.752302509919197,12.51744260097875,-0.44880600987846136,0.0,0.0,0.0
0,2021-07-06 12:11:14.298287,189195,10.530052859934807,-0.7456988723994257,0.005580160009931301,27.75294209712633,12.517444776081746,-0.40854943316560954,0.0,0.0,0.0
0,2021-07-06 12:11:14.305301,189202,10.529676775555192,-0.7463830189302018,0.004172344629426458,27.75340853418062,12.517267194158151,-0.36880365998039066,0.0,0.0,0.0
0,2021-07-06 12:11:14.312883,189210,10.529293597070339,-0.7470570759703583,0.0026398277699152544,27.75369687146121,12.516897387475348,-0.32955465938736334,0.0,0.0,0.0
0,2021-07-06 12:11:14.320376,189217,10.52890367541847,-0.7477185884593572,0.0009851252379226671,27.753802243982186,12.516322986078327,-0.2907870320489971,0.0,0.0,0.0
0,2021-07-06 12:11:14.327964,189225,10.528507255544852,-0.7483651762156897,-0.000788664511051367,27.75371989402221,12.515531866351571,-0.25248415699465476,0.0,0.0,0.0
0,2021-07-06 12:11:14.336092,189233,10.528104477597655,-0.7489945421962869,-0.002677858634491697,27.753445194181403,12.51451229508677,-0.21462834622685112,0.0,0.0,0.0
0,2021-07-06 12:11:14.344554,189241,10.527695379439322,-0.7496044803413916,-0.004678190601850226,27.752973670871782,12.513253066532199,-0.17720100619579232,0.0,0.0,0.0
0,2021-07-06 12:11:14.352452,189249,10.527279901069875,-0.7501928818525081,-0.00678481526984619,27.752301027888347,12.51174363025756,-0.14018280530448968,0.0,0.0,0.0
0,2021-07-06 12:11:14.359565,189256,10.526857891282164,-0.7507577390722009,-0.008992319687164988,27.751423169617187,12.50997420895729,-0.1035538454099212,0.0,0.0,0.0
0,2021-07-06 12:11:14.366920,189264,10.526429116252569,-0.7512971471413294,-0.011294739742525433,27.75033622346427,12.507935907014698,-0.06729383322676646,0.0,0.0,0.0
0,2021-07-06 12:11:14.375856,189272,10.525993269379304,-0.7518093041373117,-0.013685581133619893,27.749036561076203,12.505620811542306,-0.031382246380592775,0.0,0.0,0.0
0,2021-07-06 12:11:14.383179,189280,10.525549981721499,-0.752292510142407,-0.01615784123292922,27.74752081794322,12.5030220872107,0.004201510518329226,0.0,0.0,0.0
0,2021-07-06 12:11:14.390932,189288,10.525098832635514,-0.7527451652521752,-0.018704027816119392,27.74578591108023,12.500134065221706,0.0394779629569538,0.0,0.0,0.0
0,2021-07-06 12:11:14.399255,189296,10.524639360411484,-0.753165766417525,-0.021316173065823382,27.74382905466618,12.496952325856304,0.07446743852970776,0.0,0.0,0.0
0,2021-07-06 12:11:14.406477,189303,10.524171072818316,-0.7535529031730783,-0.023985845344141898,27.74164777372981,12.493473773157156,0.10918995430239231,0.0,0.0,0.0
0,2021-07-06 12:11:14.414321,189311,10.52369345746497,-0.7539052525788741,-0.026704162874724418,27.73923991603535,12.489696699971942,0.14366511910672733,0.0,0.0,0.0
0,2021-07-06 12:11:14.423832,189320,10.523205991811704,-0.7542215740226572,-0.029461811206531123,27.736603662165937,12.4856208422133,0.1779120505538901,0.0,0.0,0.0
0,2021-07-06 12:11:14.432034,189329,10.522708152641407,-0.754500704643011,-0.03224906356463469,27.733737533630652,12.481247422041854,0.21194930732092143,0.0,0.0,0.0
0,2021-07-06 12:11:14.439372,189336,10.522199424961597,-0.7547415557862394,-0.03505580349305137,27.730640398886106,12.476579179818437,0.24579483760405488,0.0,0.0,0.0
0,2021-07-06 12:11:14.449356,189346,10.521679310592088,-0.7549431103415374,-0.037871551520004855,27.72731147739443,12.471620394345258,0.27946594418448345,0.0,0.0,0.0
0,2021-07-06 12:11:14.457359,189354,10.521147336830701,-0.7551044205665604,-0.04068549803422026,27.723750341864722,12.466376891134367,0.31297926567023876,0.0,0.0,0.0
0,2021-07-06 12:11:14.464771,189361,10.520603065441529,-0.7552246062801097,-0.04348654186022094,27.719956918486968,12.460856039482191,0.346350772802492,0.0,0.0,0.0
0,2021-07-06 12:11:14.471877,189369,10.520046101947475,-0.7553028536598527,-0.04626333154752501,27.715931484732053,12.455066739861492,0.3795957787196022,0.0,0.0,0.0
0,2021-07-06 12:11:14.480941,189378,10.51947610495513,-0.7553384150416217,-0.049004307529480734,27.711674664830028,12.449019402532116,0.4127289624574267,0.0,0.0,0.0
0,2021-07-06 12:11:14.488828,189385,10.518892794963351,-0.7553306101373135,-0.051697746683934606,27.707187424201514,12.442725916951643,0.4457644048371503,0.0,0.0,0.0
0,2021-07-06 12:11:14.497801,189394,10.518295961945219,-0.7552788288787031,-0.054331812515051876,27.7024710647347,12.436199610879061,0.4787156351731558,0.0,0.0,0.0
0,2021-07-06 12:11:14.506554,189403,10.517685471116364,-0.7551825355441231,-0.05689461290463873,27.697527222185865,12.429455198325263,0.5115956868157888,0.0,0.0,0.0
0,2021-07-06 12:11:14.515643,189412,10.517061266564017,-0.7550412734540572,-0.05937426547068316,27.692357865877085,12.42250871601829,0.544417159909072,0.0,0.0,0.0
0,2021-07-06 12:11:14.523349,189420,10.516423372571193,-0.7548546699792802,-0.061758970247697983,27.686965300060745,12.415377448313425,0.577192290251641,0.0,0.0,0.0
0,2021-07-06 12:11:14.530609,189427,10.515771892533987,-0.754622442541402,-0.06403708991477336,27.68135216575362,12.408079840638537,0.6099330228051107,0.0,0.0,0.0
0,2021-07-06 12:11:14.538227,189435,10.515107005530085,-0.7543444064900443,-0.06619723653706046,27.67552144151334,12.400635401868824,0.6426510872845975,0.0,0.0,0.0
0,2021-07-06 12:11:14.545443,189442,10.514428960913046,-0.7540204847760863,-0.06822836024356507,27.669476441758622,12.393064596376922,0.6753580725207469,0.0,0.0,0.0
0,2021-07-06 12:11:14.554285,189451,10.513738071508387,-0.7536507183480062,-0.07011983291630652,27.663220811639555,12.385388726557453,0.708065496825517,0.0,0.0,0.0
0,2021-07-06 12:11:14.562957,189460,10.513034705848764,-0.7532352762185348,-0.07186152153317392,27.656758517806438,12.377629806221067,0.740784873369832,0.0,0.0,0.0
0,2021-07-06 12:11:14.570910,189468,10.512319279627187,-0.7527744647489908,-0.07344384917157461,27.650093834688793,12.369810424842493,0.773527771191922,0.0,0.0,0.0
0,2021-07-06 12:11:14.578387,189475,10.511592246523431,-0.7522687361100957,-0.07485784402177455,27.643231326357277,12.361953602956584,0.8063058720997411,0.0,0.0,0.0
0,2021-07-06 12:11:14.587468,189484,10.51085408877418,-0.7517186960317561,-0.07609517802294039,27.63617582475509,12.354082640002305,0.8391310215751743,0.0,0.0,0.0
0,2021-07-06 12:11:14.596110,189493,10.510105307994637,-0.7511251109745247,-0.07714819744618746,27.628932405523308,12.346220956503366,0.8720152703199896,0.0,0.0,0.0
0,2021-07-06 12:11:14.603252,189500,10.50934641662069,-0.7504889146915884,-0.07800994833189226,27.621506362513905,12.338391931879467,0.9049709035596106,0.0,0.0,0.0
0,2021-07-06 12:11:14.610753,189507,10.508577930110068,-0.7498112138482252,-0.07867420038050343,27.61390318188271,12.330618738280775,0.9380104560609831,0.0,0.0,0.0
0,2021-07-06 12:11:14.619494,189516,10.507800359994317,-0.7490932921558691,-0.07913547165251081,27.606128516643057,12.322924171075769,0.971146711219413,0.0,0.0,0.0
0,2021-07-06 12:11:14.627057,189524,10.507014208015375,-0.7483366125029147,-0.07938905217707647,27.598188162423206,12.315330478006972,1.0043926835452381,0.0,0.0,0.0
0,2021-07-06 12:11:14.634687,189531,10.506219961694823,-0.747542816745964,-0.07943102194615947,27.59008803485946,12.307859189901318,1.0377615854187823,0.0,0.0,0.0
0,2021-07-06 12:11:14.641869,189538,10.50541809163282,-0.7467137230252611,-0.0792582616245954,27.581834148793785,12.300530955068522,1.0712667801096656,0.0,0.0,0.0
0,2021-07-06 12:11:14.649330,189546,10.504609050649218,-0.7458513206267885,-0.07886845845607132,27.573432599189402,12.293365378168264,1.1049217234582693,0.0,0.0,0.0
0,2021-07-06 12:11:14.656135,189553,10.503793274556992,-0.7449577625953222,-0.07826011001448237,27.564889543194198,12.286380863939684,1.1387398964272613,0.0,0.0,0.0
0,2021-07-06 12:11:14.663680,189560,10.50297118392529,-0.7440353565583396,-0.07743252584467863,27.556211182108807,12.279594466811462,1.172734730257658,0.0,0.0,0.0
0,2021-07-06 12:11:14.670428,189567,10.502143185982158,-0.7430865543475058,-0.07638582554913882,27.547403741738506,12.273021747926343,1.2069195257045706,0.0,0.0,0.0
0,2021-07-06 12:11:14.677691,189574,10.501309676123773,-0.7421139407908182,-0.07512093292705196,27.538473450294447,12.266676640998645,1.2413073680116153,0.0,0.0,0.0
0,2021-07-06 12:11:14.684723,189581,10.500471039076098,-0.7411202216738889,-0.07363956810007397,27.52942651428108,12.260571328222165,1.2759110396493134,0.0,0.0,0.0
0,2021-07-06 12:11:14.691687,189588,10.499627650090225,-0.7401082106508946,-0.07194424066370157,27.52026909351744,12.254716127372124,1.310742932988783,0.0,0.0,0.0
0,2021-07-06 12:11:14.699523,189596,10.498779876547664,-0.7390808148520334,-0.07003824522398008,27.51100727609277,12.249119390966452,1.345814964770679,0.0,0.0,0.0
0,2021-07-06 12:11:14.707292,189604,10.497928080222838,-0.7380410189744662,-0.06792565758077798,27.501647053338793,12.243787418074195,1.381138493594901,0.0,0.0,0.0
0,2021-07-06 12:11:14.714874,189612,10.497072620173766,-0.7369918678497167,-0.06561132843654664,27.49219429449928,12.238724379492597,1.4167242412756962,0.0,0.0,0.0
0,2021-07-06 12:11:14.723339,189620,10.496213855725857,-0.7359364479076276,-0.06310087293871383,27.482654720644636,12.233932257369913,1.4525822191585291,0.0,0.0,0.0
0,2021-07-06 12:11:14.732096,189629,10.495352148663967,-0.7348778682691968,-0.06040065630905794,27.47303387736531,12.229410800446235,1.4887216609134093,0.0,0.0,0.0
0,2021-07-06 12:11:14.739372,189636,10.494487863931598,-0.7338192421540182,-0.05751777596074295,27.463337106048577,12.225157495864137,1.5251509630590445,0.0,0.0,0.0
0,2021-07-06 12:11:14.749306,189646,10.493621368577365,-0.7327636691311668,-0.05446003931872376,27.453569514098717,12.221167558343721,1.5618776334857598,0.0,0.0,0.0
0,2021-07-06 12:11:14.758454,189655,10.492753028969211,-0.7317142186317059,-0.05123593595426365,27.443735944810992,12.21743393747009,1.5989082474567442,0.0,0.0,0.0
0,2021-07-06 12:11:14.767063,189664,10.491883206457633,-0.7306739148924428,-0.04785460371927754,27.433840947486786,12.21394734363649,1.6362484101584687,0.0,0.0,0.0
0,2021-07-06 12:11:14.775731,189672,10.49101225188976,-0.7296457231509229,-0.04432579052705667,27.4238887481989,12.21069629293391,1.6739027239573339,0.0,0.0,0.0
0,2021-07-06 12:11:14.783263,189680,10.490140499559992,-0.7286325368199787,-0.04065981396336788,27.413883221691137,12.207667171214755,1.7118747573534467,0.0,0.0,0.0
0,2021-07-06 12:11:14.792169,189689,10.489268261187378,-0.7276371656054507,-0.03686751913147508,27.403827865026567,12.204844317486277,1.7501670125071926,0.0,0.0,0.0
0,2021-07-06 12:11:14.800439,189697,10.488395820445486,-0.726662324605087,-0.032960233391295,27.393725773635076,12.202210126227406,1.7887808895211068,0.0,0.0,0.0
0,2021-07-06 12:11:14.808696,189705,10.487523428529057,-0.7257106240823404,-0.02894971701414077,27.383579620407204,12.199745167106501,1.8277166476380455,0.0,0.0,0.0
0,2021-07-06 12:11:14.816086,189713,10.486651300998007,-0.724784559467184,-0.024848109921399922,27.373391638478434,12.197428319681963,1.8669733648633644,0.0,0.0,0.0
0,2021-07-06 12:11:14.824032,189721,10.485779615582867,-0.7238865016850651,-0.020667874759701447,27.36316360830553,12.19523692068694,1.9065488975306952,0.0,0.0,0.0
0,2021-07-06 12:11:14.831985,189729,10.484908510212717,-0.7230186884918932,-0.016421736111520875,27.35289684951545,12.19314692210221,1.9464398409004595,0.0,0.0,0.0
0,2021-07-06 12:11:14.841629,189738,10.484038080641614,-0.7221832173104197,-0.012122616022500123,27.342592218004565,12.191133058585857,1.986641491978972,0.0,0.0,0.0
0,2021-07-06 12:11:14.849187,189746,10.483168377472627,-0.7213820394160843,-0.007783567217656675,27.332250108992675,12.189169022622686,2.0271478160736534,0.0,0.0,0.0
0,2021-07-06 12:11:14.856658,189753,10.482299402769517,-0.7206169550000696,-0.0034177060135441354,27.321870466496886,12.187227645446619,2.0679514186982386,0.0,0.0,0.0
0,2021-07-06 12:11:14.863885,189761,10.481431106754215,-0.7198896088510188,0.0009618537635418504,27.31145279847154,12.185281081951933,2.109043524476762,0.0,0.0,0.0
0,2021-07-06 12:11:14.870972,189768,10.480563385194095,-0.7192014867165726,0.005342065654696734,27.30099619575232,12.18330099835719,2.150413964792809,0.0,0.0,0.0
0,2021-07-06 12:11:14.878306,189775,10.479696077830129,-0.7185539124771465,0.009710014431845491,27.290499353177182,12.181258761900635,2.192051175790814,0.0,0.0,0.0
0,2021-07-06 12:11:14.885671,189782,10.478828967778602,-0.7179480461700266,0.014052978888287469,27.279960592312907,12.179125632137636,2.233942207816763,0.0,0.0,0.0
0,2021-07-06 12:11:14.893264,189790,10.477961781622957,-0.7173848828444332,0.01835849333745975,27.269377885798217,12.176872953448253,2.2760727469209385,0.0,0.0,0.0
0,2021-07-06 12:11:14.900965,189798,10.47709419001811,-0.7168652522629199,0.022614407951701776,27.258748882964234,12.174472348035232,2.3184271486904544,0.0,0.0,0.0
0,2021-07-06 12:11:14.908267,189805,10.476225808891748,-0.7163898195038566,0.026808948573300895,27.24807093570339,12.171895907897293,2.3609884838497295,0.0,0.0,0.0
0,2021-07-06 12:11:14.915710,189812,10.475356201533998,-0.7159590863382606,0.030930776217056227,27.237341123594543,12.169116383149358,2.403738594015406,0.0,0.0,0.0
0,2021-07-06 12:11:14.923005,189820,10.474484881935869,-0.7155733927966299,0.03496904488320424,27.22655627833982,12.16610736310438,2.446658155713674,0.0,0.0,0.0
0,2021-07-06 12:11:14.930614,189827,10.473611319658575,-0.7152329180771898,0.03891345509548878,27.215713008489818,12.162843446465299,2.489726751420505,0.0,0.0,0.0
0,2021-07-06 12:11:14.939836,189836,10.47273494626289,-0.7149376803639621,0.04275430105390435,27.204807725312175,12.159300398029607,2.5329229469892813,0.0,0.0,0.0
0,2021-07-06 12:11:14.947460,189844,10.471855162964294,-0.7146875359451456,0.04648251052788675,27.193836670046803,12.155455290590272,2.5762243745326736,0.0,0.0,0.0
0,2021-07-06 12:11:14.954362,189851,10.470971348903598,-0.714482178485352,0.0500896773858241,27.18279594235304,12.151286631411988,2.6196078193607883,0.0,0.0,0.0
0,2021-07-06 12:11:14.961415,189858,10.470082869358134,-0.7143211391239144,0.05356808699725891,27.171681529394757,12.146774472944879,2.6630493102015778,0.0,0.0,0.0
0,2021-07-06 12:11:14.968496,189865,10.469189083333472,-0.7142037876415906,0.05691073496543237,27.160489334689412,12.141900507742864,2.7065242131523797,0.0,0.0,0.0
0,2021-07-06 12:11:14.975701,189872,10.468289350182188,-0.71412933461854,0.06011133982294612,27.149215205684662,12.136648148284651,2.7500073300534513,0.0,0.0,0.0
0,2021-07-06 12:11:14.983166,189880,10.467383035084518,-0.7140968342974472,0.06316435053447698,27.137854958927,12.131002593598366,2.793473000951038,0.0,0.0,0.0
0,2021-07-06 12:11:14.991253,189888,10.466469513326595,-0.7141051878131183,0.0660649497425491,27.12640440174508,12.124950885287532,2.8368952095612574,0.0,0.0,0.0
0,2021-07-06 12:11:14.998945,189896,10.465548173375918,-0.7141531467286796,0.06880905341894035,27.114859350013198,12.118481955051,2.8802476911678903,0.0,0.0,0.0
0,2021-07-06 12:11:15.007486,189904,10.464618418836137,-0.7142393173181989,0.07139330712341126,27.103215642692486,12.111586664912135,2.923504043239169,0.0,0.0,0.0
0,2021-07-06 12:11:15.015172,189912,10.463679669422529,-0.714362166295814,0.07381507881563405,27.091469154513184,12.104257840857956,2.966637839369822,0.0,0.0,0.0
0,2021-07-06 12:11:15.024720,189921,10.462731361122078,-0.7145200284361335,0.07607244821135095,27.079615807863398,12.096490300105089,3.009622747016043,0.0,0.0,0.0
0,2021-07-06 12:11:15.032119,189929,10.461772945761318,-0.7147111160359182,0.07816419282826902,27.067651584414218,12.08828087158293,3.052432648766322,0.0,0.0,0.0
0,2021-07-06 12:11:15.040145,189937,10.460803890319514,-0.7149335298931339,0.08008977094849175,27.055572536886512,12.079628408723785,3.0950417658171627,0.0,0.0,0.0
0,2021-07-06 12:11:15.047110,189944,10.459823676411572,-0.7151852715046377,0.08184930179633398,27.04337480142898,12.070533793338477,3.137424781578937,0.0,0.0,0.0
0,2021-07-06 12:11:15.054204,189951,10.458831800332176,-0.7154642561904051,0.08344354363549933,27.031054610991426,12.060999929154963,3.179556962820812,0.0,0.0,0.0
0,2021-07-06 12:11:15.061314,189958,10.457827773891152,-0.7157683266562073,0.08487387127806213,27.018608309817253,12.051031723522899,3.2214142752616137,0.0,0.0,0.0
0,2021-07-06 12:11:15.069670,189966,10.45681112608534,-0.7160952663611643,0.08614225487998141,27.00603236883219,12.040636055910014,3.2629734907839127,0.0,0.0,0.0
0,2021-07-06 12:11:15.077182,189974,10.455781405536614,-0.7164428121963613,0.08725124113467433,26.99332340130391,12.029821732144613,3.304212284736533,0.0,0.0,0.0
0,2021-07-06 12:11:15.084752,189981,10.454738183565143,-0.7168086662308081,0.08820393661063064,26.98047817774429,12.018599423718877,3.3451093229191313,0.0,0.0,0.0
0,2021-07-06 12:11:15.091772,189988,10.453681057747826,-0.7171905064481369,0.08900399216128736,26.967493638844466,12.006981591670455,3.3856443383691746,0.0,0.0,0.0
0,2021-07-06 12:11:15.099128,189996,10.452609655857035,-0.7175859965920158,0.08965558725712455,26.95436690544576,11.9949823946842,3.425798198786548,0.0,0.0,0.0
0,2021-07-06 12:11:15.106613,190003,10.45152364015667,-0.7179927955293648,0.09016341312140695,26.94109528496761,11.982617581244087,3.465552966334177,0.0,0.0,0.0
0,2021-07-06 12:11:15.113810,190010,10.45042271207315,-0.7184085666473081,0.09053265363745198,26.927676274044902,11.969904365885903,3.5048919519336366,0.0,0.0,0.0
0,2021-07-06 12:11:15.121925,190019,10.44930661721665,-0.7188309873909888,0.09076896368444717,26.914107557536795,11.956861290043976,3.5437997657484304,0.0,0.0,0.0
0,2021-07-06 12:11:15.129612,190026,10.44817515063503,-0.719257758332027,0.09087844567727439,26.900387004842326,11.94350806893418,3.5822623644804046,0.0,0.0,0.0
0,2021-07-06 12:11:15.136600,190033,10.447028162090028,-0.7196866108817866,0.09086762560212126,26.88651266519941,11.929865426960523,3.62026709497333,0.0,0.0,0.0
0,2021-07-06 12:11:15.144028,190041,10.44586556107992,-0.7201153132611322,0.09074342931576793,26.872482763737214,11.915954924515114,3.6578027330856475,0.0,0.0,0.0
0,2021-07-06 12:11:15.152241,190049,10.444687321336607,-0.7205416750290522,0.09051315912929231,26.858295699497642,11.901798778587812,3.6948595171540184,0.0,0.0,0.0
0,2021-07-06 12:11:15.160496,190057,10.443493484639001,-0.7209635508869069,0.09018447059826083,26.84395004588161,11.887419678912647,3.7314291764075427,0.0,0.0,0.0
0,2021-07-06 12:11:15.168078,190065,10.442284163953818,-0.7213788447190064,0.0897653497448423,26.8294445533977,11.872840601179936,3.7675049555562126,0.0,0.0,0.0
0,2021-07-06 12:11:15.175942,190073,10.441059546005878,-0.7217855146689762,0.08926409065692778,26.814778154146495,11.858084618867396,3.8030816365502673,0.0,0.0,0.0
0,2021-07-06 12:11:15.184003,190081,10.439819893342287,-0.722181579208784,0.08868927228057562,26.799949966919115,11.843174714700586,3.8381555573949813,0.0,0.0,0.0
0,2021-07-06 12:11:15.192130,190089,10.438565545861948,-0.7225651233836152,0.08804973240873487,26.784959301407515,11.828133591927088,3.8727246272510163,0.0,0.0,0.0
0,2021-07-06 12:11:15.200322,190097,10.437296921688901,-0.722934304553348,0.08735453738899505,26.76980566029045,11.812983485459448,3.9067883375332273,0.0,0.0,0.0
0,2021-07-06 12:11:15.207571,190104,10.436014517175158,-0.7232873576181308,0.08661294727801144,26.75448873866805,11.797745973856594,3.9403477693770723,0.0,0.0,0.0
0,2021-07-06 12:11:15.214519,190111,10.434718905771751,-0.7236226000139867,0.08583437689649466,26.73900842086069,11.782441794803574,3.973405597692254,0.0,0.0,0.0
0,2021-07-06 12:11:15.223357,190120,10.433410735551854,-0.7239384365011223,0.08502835328999665,26.723364774704333,11.767090668488423,4.005966091415515,0.0,0.0,0.0
0,2021-07-06 12:11:15.231171,190128,10.432090725270157,-0.7242333634812537,0.08420446999746804,26.707558043330113,11.75171113368023,4.038035109385513,0.0,0.0,0.0
0,2021-07-06 12:11:15.240353,190137,10.430759658979836,-0.7245059727632823,0.08337233884675693,26.69158863436635,11.736320399886607,4.069620091547803,0.0,0.0,0.0
0,2021-07-06 12:11:15.248312,190145,10.429418379416166,-0.7247549551511403,0.08254154070649337,26.67545710675977,11.720934217227912,4.100730045230563,0.0,0.0,0.0
0,2021-07-06 12:11:15.255725,190152,10.428067780516159,-0.7249791042263383,0.08172157666834236,26.65916415567898,11.705566764755481,4.131375525925019,0.0,0.0,0.0
0,2021-07-06 12:11:15.265579,190162,10.426708799474987,-0.7251773199967533,0.08092181988259828,26.642710595819153,11.690230557332109,4.16156861203003,0.0,0.0,0.0
0,2021-07-06 12:11:15.274610,190171,10.425342408633687,-0.7253486115109847,0.0801514669968536,26.62609734310861,11.674936370537589,4.1913228735124255,0.0,0.0,0.0
0,2021-07-06 12:11:15.283828,190180,10.423969607285038,-0.7254920979503406,0.07941948826223341,26.60932539508462,11.659693182628805,4.2206533348010655,0.0,0.0,0.0
0,2021-07-06 12:11:15.292691,190189,10.422591413263302,-0.7256070086985266,0.07873457642261386,26.59239581114371,11.6445081325225,4.249576432007303,0.0,0.0,0.0
0,2021-07-06 12:11:15.300655,190197,10.421208854091068,-0.7256926832326701,0.07810509532554173,26.57530969417793,11.62938649344275,4.278109963984608,0.0,0.0,0.0
0,2021-07-06 12:11:15.307994,190205,10.419822957552636,-0.7257485710286029,0.07753902949257606,26.558068173961164,11.614331663323767,4.306273036366502,0.0,0.0,0.0
0,2021-07-06 12:11:15.317325,190214,10.418434741783775,-0.7257742311100231,0.07704393597637299,26.540672391557845,11.599345174033722,4.334085997728479,0.0,0.0,0.0
0,2021-07-06 12:11:15.324863,190221,10.417045205197326,-0.7257693312375887,0.07662689987630959,26.523123484435324,11.584426720959858,4.361570367295837,0.0,0.0,0.0
0,2021-07-06 12:11:15.332404,190229,10.415655316665116,-0.7257336473351316,0.07629449467839443,26.505422572891565,11.56957421319588,4.388748754070427,0.0,0.0,0.0
0,2021-07-06 12:11:15.339931,190237,10.414266006330498,-0.7256670636562669,0.0760527478821667,26.487570748755868,11.554783843510375,4.415644767583338,0.0,0.0,0.0
0,2021-07-06 12:11:15.348460,190245,10.41287815737975,-0.7255695736220439,0.07590711143735442,26.469569067508164,11.540050176560298,4.442282920404958,0.0,0.0,0.0
0,2021-07-06 12:11:15.356615,190253,10.411492599077608,-0.725441280903971,0.07586243602535632,26.451418544921708,11.525366253422638,4.468688522485588,0.0,0.0,0.0
0,2021-07-06 12:11:15.365611,190262,10.410110101257205,-0.7252824003478653,0.07592294847262396,26.433120158123838,11.510723710347305,4.494887568038014,0.0,0.0,0.0
0,2021-07-06 12:11:15.373271,190270,10.408731370289269,-0.7250932584563516,0.07609223214570954,26.414674849056638,11.496112909329725,4.520906616700247,0.0,0.0,0.0
0,2021-07-06 12:11:15.380173,190277,10.40735704646359,-0.7248742932149829,0.07637321059468857,26.396083527638826,11.481523077828054,4.546772671176284,0.0,0.0,0.0
0,2021-07-06 12:11:15.387484,190284,10.40598770266997,-0.724626053123324,0.07676813490980408,26.37734707318482,11.466942455236888,4.572513053208257,0.0,0.0,0.0
0,2021-07-06 12:11:15.395706,190292,10.404623844128121,-0.7243491954193582,0.077278575203524,26.35846633425507,11.452358444600064,4.59815527924835,0.0,0.0,0.0
0,2021-07-06 12:11:15.403479,190300,10.403265908667965,-0.7240444836126217,0.07790541631302425,26.339442127576735,11.4377577690575,4.6237269371104315,0.0,0.0,0.0
0,2021-07-06 12:11:15.410409,190307,10.401914266942475,-0.7237127844857003,0.078648857469121,26.3202752362935,11.423126633074467,4.649255565071102,0.0,0.0,0.0
0,2021-07-06 12:11:15.417513,190314,10.400569222185503,-0.7233550646299043,0.0795084154109344,26.300966407676054,11.408450888264463,4.6747685351207675,0.0,0.0,0.0
0,2021-07-06 12:11:15.425615,190322,10.399231009541248,-0.7229723864135269,0.08048293012236715,26.281516350897636,11.39371620299972,4.70029294229798,0.0,0.0,0.0
0,2021-07-06 12:11:15.434815,190331,10.397899795236158,-0.7225659032103866,0.08157057223672198,26.2619257358495,11.378908234638102,4.7258555020218065,0.0,0.0,0.0
0,2021-07-06 12:11:15.442318,190339,10.396575675869029,-0.7221368538666507,0.08276885154627493,26.242195193725323,11.364012803176605,4.7514824565461256,0.0,0.0,0.0
0,2021-07-06 12:11:15.451207,190348,10.395258678044907,-0.7216865566585688,0.08407462680458738,26.222325319731628,11.349016065090627,4.777199490143846,0.0,0.0,0.0
0,2021-07-06 12:11:15.458449,190355,10.393948758509888,-0.721216403084341,0.08548411781496054,26.20231667803558,11.33390468556077,4.8030316513675135,0.0,0.0,0.0
0,2021-07-06 12:11:15.466022,190363,10.392645804774112,-0.7207278516018151,0.08699292152175403,26.1821698085632,11.318666006272462,4.8290032805313565,0.0,0.0,0.0
0,2021-07-06 12:11:15.473871,190371,10.391349636068243,-0.7202224211600395,0.08859603398762322,26.161885234699458,11.303288205438234,4.855137941213064,0.0,0.0,0.0
0,2021-07-06 12:11:15.483462,190380,10.390060004593995,-0.719701684394492,0.09028787925614108,26.14146347093324,11.28776044727791,4.881458355291551,0.0,0.0,0.0
0,2021-07-06 12:11:15.491659,190388,10.388776597333285,-0.7191672605617998,0.09206234466774751,26.120905030002934,11.27207301921097,4.907986341195623,0.0,0.0,0.0
0,2021-07-06 12:11:15.499722,190396,10.38749903879598,-0.7186208083347568,0.09391282133562188,26.100210429484804,11.25621745567828,4.934742754811479,0.0,0.0,0.0
0,2021-07-06 12:11:15.507472,190404,10.386226894833612,-0.7180640183565676,0.09583224858479743,26.079380197631593,11.240186647872392,4.961747432540007,0.0,0.0,0.0
0,2021-07-06 12:11:15.515851,190412,10.384959677315786,-0.717498605282099,0.09781316166493277,26.0584148779364,11.223974938851224,4.989019136465723,0.0,0.0,0.0
0,2021-07-06 12:11:15.522936,190420,10.383696849328366,-0.7169262992863369,0.09984774237129115,26.03731503200702,11.207578203499693,5.016575502087163,0.0,0.0,0.0
0,2021-07-06 12:11:15.531945,190429,10.382437830516082,-0.7163488375535394,0.10192787227204071,26.016081241038457,11.190993912832477,5.044432989200199,0.0,0.0,0.0
0,2021-07-06 12:11:15.540518,190437,10.381182002146524,-0.715767956421141,0.10404518838067943,25.994714106834476,11.17422118259409,5.072606836423652,0.0,0.0,0.0
0,2021-07-06 12:11:15.548630,190445,10.379928711509516,-0.7151853843595404,0.10619114142146255,25.97321425334435,11.15726080699365,5.101111019803003,0.0,0.0,0.0
0,2021-07-06 12:11:15.555821,190452,10.37867727552826,-0.7146028354392564,0.10835705663313262,25.95158232917511,11.140115279126892,5.129958215820107,0.0,0.0,0.0
0,2021-07-06 12:11:15.562803,190459,10.377426983904863,-0.7140220029505389,0.11053419598602754,25.929819010923296,11.122788799673925,5.159159768840303,0.0,0.0,0.0
0,2021-07-06 12:11:15.570169,190467,10.376177102408146,-0.7134445531349941,0.11271381987247012,25.907925006751032,11.105287274880915,5.188725662922269,0.0,0.0,0.0
0,2021-07-06 12:11:15.577504,190474,10.374926876796753,-0.7128721191268703,0.114887246833595,25.88590105978129,11.087618304032741,5.2186644981739585,0.0,0.0,0.0
0,2021-07-06 12:11:15.584873,190482,10.373675537590188,-0.7123062951925478,0.11704591104568317,25.86374795160574,11.069791156012188,5.248983472033597,0.0,0.0,0.0
0,2021-07-06 12:11:15.593583,190490,10.372422305725637,-0.711748631324767,0.11918141791904417,25.841466506593324,11.051816734159335,5.279688365813848,0.0,0.0,0.0
0,2021-07-06 12:11:15.600801,190497,10.37116639900966,-0.7112006281701836,0.12128559802519279,25.819057596992632,11.033707528010488,5.31078353655428,0.0,0.0,0.0
0,2021-07-06 12:11:15.608149,190505,10.369907039122038,-0.7106637321587821,0.1233505590970868,25.796522147628114,11.01547754949111,5.342271913484412,0.0,0.0,0.0
0,2021-07-06 12:11:15.615704,190512,10.368643458905932,-0.7101393307041747,0.12536873550348532,25.773861138429584,10.997142250575186,5.374154997751924,0.0,0.0,0.0
0,2021-07-06 12:11:15.623961,190521,10.367374909866866,-0.7096287475101121,0.12733293457374842,25.751075603294936,10.978718419873491,5.406432864371099,0.0,0.0,0.0
0,2021-07-06 12:11:15.631884,190529,10.366100670000643,-0.7091332381803113,0.12923637929304096,25.728166624307654,10.960224056569375,5.439104166334399,0.0,0.0,0.0
0,2021-07-06 12:11:15.640120,190537,10.36482005209295,-0.708653986352488,0.13107274688503548,25.70513532099419,10.941678221141217,5.472166141644226,0.0,0.0,0.0
0,2021-07-06 12:11:15.648391,190545,10.363532412564192,-0.7081921005461079,0.1328362025403243,25.681982835254452,10.923100863395327,5.505614624330602,0.0,0.0,0.0
0,2021-07-06 12:11:15.656979,190554,10.362237160859118,-0.7077486118774788,0.13452142740811046,25.658710313167678,10.904512629015958,5.539444060513055,0.0,0.0,0.0
0,2021-07-06 12:11:15.665302,190562,10.360933769205717,-0.7073244726679195,0.1361236403479987,25.635318884528807,10.885934645954508,5.573647530288854,0.0,0.0,0.0
0,2021-07-06 12:11:15.673415,190570,10.359621782250066,-0.7069205557692902,0.13763861356861445,25.61180964050473,10.867388292420346,5.608216775534736,0.0,0.0,0.0
0,2021-07-06 12:11:15.682289,190579,10.358300825774512,-0.7065376543402382,0.13906268252599283,25.588183610029468,10.848894949498934,5.6431422329822425,0.0,0.0,0.0
0,2021-07-06 12:11:15.689672,190586,10.356970613623222,-0.7061764818767459,0.140392750207703,25.56444173618979,10.830475742995445,5.6784130717602315,0.0,0.0,0.0
0,2021-07-06 12:11:15.696595,190593,10.35563095222998,-0.7058376722880056,0.1416262857407656,25.540584854264157,10.81215128050212,5.714017234865485,0.0,0.0,0.0
0,2021-07-06 12:11:15.703621,190600,10.354281742708146,-0.705521779565982,0.14276131750229226,25.516613672983787,10.793941390504504,5.749941484352291,0.0,0.0,0.0
0,2021-07-06 12:11:15.711059,190608,10.35292298089904,-0.7052292764602794,0.14379642128937134,25.49252875996925,10.77586486987228,5.786171450345375,0.0,0.0,0.0
0,2021-07-06 12:11:15.718599,190615,10.351554755751408,-0.7049605519625424,0.14473070439545052,25.468330531380527,10.757939244782868,5.822691683882566,0.0,0.0,0.0
0,2021-07-06 12:11:15.726498,190623,10.350177246141914,-0.7047159081470861,0.14556378678583645,25.44401924506108,10.74018054961961,5.859485712768086,0.0,0.0,0.0
0,2021-07-06 12:11:15.733822,190630,10.348790716144878,-0.7044955573025266,0.14629578080524522,25.41959499611762,10.722603128220685,5.896536099027913,0.0,0.0,0.0
0,2021-07-06 12:11:15.742049,190639,10.34739550902562,-0.7042996199316214,0.14692727081676124,25.395057713822865,10.705219460189562,5.933824497042559,0.0,0.0,0.0
0,2021-07-06 12:11:15.749320,190646,10.345992040732405,-0.7041281235213978,0.14745929410145292,25.37040715891916,10.688040012326105,5.971331712152447,0.0,0.0,0.0
0,2021-07-06 12:11:15.757438,190654,10.344580793776446,-0.7039810017339835,0.14789332402221117,25.34564292106526,10.671073112997258,6.009037759902312,0.0,0.0,0.0
0,2021-07-06 12:11:15.766310,190663,10.34316231175886,-0.7038580940060601,0.14823125549079064,25.3207644171646,10.654324845532456,6.0469219266822565,0.0,0.0,0.0
0,2021-07-06 12:11:15.774212,190671,10.34173719405339,-0.7037591459053854,0.14847539185358366,25.295770891780638,10.637798956156898,6.0849628332238135,0.0,0.0,0.0
0,2021-07-06 12:11:15.781349,190678,10.34030608990033,-0.7036838104562416,0.1486284321915388,25.270661420363577,10.621496773647534,6.1231385023030676,0.0,0.0,0.0
0,2021-07-06 12:11:15.788374,190685,10.338869691221806,-0.7036316502006835,0.14869345827930636,25.245434915350334,10.60541714093536,6.161426430923799,0.0,0.0,0.0
0,2021-07-06 12:11:15.795958,190693,10.337428723675105,-0.7036021396028302,0.14867392039729044,25.22009013487645,10.589556361300378,6.1998036660784,0.0,0.0,0.0
0,2021-07-06 12:11:15.802966,190700,10.335983935924842,-0.703594667722496,0.14857362091085696,25.194625693499756,10.573908162775016,6.238246882766046,0.0,0.0,0.0
0,2021-07-06 12:11:15.809935,190707,10.334536087542068,-0.7036085414356902,0.1483966945209741,25.16904007392555,10.558463684140547,6.276732463349478,0.0,0.0,0.0
0,2021-07-06 12:11:15.817859,190714,10.333085936007178,-0.7036429894348858,0.14814758465584718,25.14333163867625,10.543211485400999,6.315236577811123,0.0,0.0,0.0
0,2021-07-06 12:11:15.826365,190723,10.33163422319662,-0.7036971669395197,0.14783101631246257,25.117498641012276,10.528137585845293,6.353735264315424,0.0,0.0,0.0
0,2021-07-06 12:11:15.834615,190731,10.330181661691839,-0.703770160887403,0.14745196616339803,25.091539234782775,10.513225533002469,6.392204509234037,0.0,0.0,0.0
0,2021-07-06 12:11:15.842306,190739,10.328728921262572,-0.7038609955400837,0.14701563085848024,25.065451483303534,10.498456504534841,6.430620326186665,0.0,0.0,0.0
0,2021-07-06 12:11:15.849890,190747,10.327276615959251,-0.7039686387309995,0.1465273945653838,25.039233368220803,10.483809442936833,6.468958834021186,0.0,0.0,0.0
0,2021-07-06 12:11:15.858453,190755,10.325825292295223,-0.7040920089864119,0.14599279683506272,25.012882800180765,10.46926122082384,6.507196333299493,0.0,0.0,0.0
0,2021-07-06 12:11:15.867526,190764,10.324375418843141,-0.7042299833175503,0.14541750151840052,24.98639763313233,10.454786832700558,6.545309380338725,0.0,0.0,0.0
0,2021-07-06 12:11:15.875430,190772,10.322927377321543,-0.7043814051244007,0.14480726689591758,24.959775683261288,10.440359608165618,6.583274857963402,0.0,0.0,0.0
0,2021-07-06 12:11:15.883055,190780,10.32148145510976,-0.7045450918826903,0.14416791670031492,24.93301475251894,10.425951442107891,6.621070042670687,0.0,0.0,0.0
0,2021-07-06 12:11:15.890702,190787,10.320037839110995,-0.704719842843452,0.1435053113120734,24.906112655981158,10.411533038354653,6.658672668037618,0.0,0.0,0.0
0,2021-07-06 12:11:15.900060,190797,10.318596610929491,-0.7049044471134751,0.14282531833771775,24.879067251909934,10.397074163550721,6.69606098375565,0.0,0.0,0.0
0,2021-07-06 12:11:15.908775,190805,10.317157743410615,-0.7050976919885901,0.14213378225776785,24.85187647310446,10.382543908364692,6.733213809422466,0.0,0.0,0.0
0,2021-07-06 12:11:15.916288,190813,10.31572109863419,-0.7052983709475351,0.1414364934415242,24.82453835796217,10.367910953765435,6.770110582722645,0.0,0.0,0.0
0,2021-07-06 12:11:15.924317,190821,10.314286427382616,-0.7055052909218869,0.14073915723551012,24.797051080056097,10.353143840741447,6.806731402839891,0.0,0.0,0.0
0,2021-07-06 12:11:15.932475,190829,10.312853370004232,-0.7057172790472315,0.14004736420135164,24.769412975926684,10.338211242202465,6.843057071106004,0.0,0.0,0.0
0,2021-07-06 12:11:15.940017,190837,10.311421458638565,-0.7059331892623111,0.13936656273825326,24.741622571290296,10.323082235914873,6.879069130836527,0.0,0.0,0.0
0,2021-07-06 12:11:15.947140,190844,10.309990120990856,-0.7061519086307629,0.13870203493729075,24.713678605391653,10.307726577322102,6.914749906951087,0.0,0.0,0.0
0,2021-07-06 12:11:15.954137,190851,10.308558686022813,-0.7063723627586747,0.13805887584875262,24.68558005242807,10.292114971027837,6.950082544884022,0.0,0.0,0.0
0,2021-07-06 12:11:15.962499,190859,10.307126391949502,-0.7065935197044361,0.13744197570549058,24.657326138806145,10.276219339312796,6.985051048429583,0.0,0.0,0.0
0,2021-07-06 12:11:15.969624,190866,10.305692396886371,-0.7068143920997421,0.13685600403923973,24.628916355542827,10.260013085117771,7.019640316595842,0.0,0.0,0.0
0,2021-07-06 12:11:15.976495,190873,10.304255792237495,-0.707034037499891,0.13630539446844198,24.600350465863684,10.243471345725053,7.053836179401535,0.0,0.0,0.0
0,2021-07-06 12:11:15.983527,190880,10.3028156183228,-0.7072515572531394,0.13579432957209156,24.571628508507708,10.226571232483973,7.087625432282793,0.0,0.0,0.0
0,2021-07-06 12:11:15.990657,190887,10.301370881245314,-0.7074660943537604,0.13532672607838692,24.542750797222585,10.209292051954701,7.12099586894295,0.0,0.0,0.0
0,2021-07-06 12:11:15.998417,190895,10.299920569953311,-0.7076768307433855,0.13490622096425003,24.513717916766776,10.191615504771692,7.153936312849366,0.0,0.0,0.0
0,2021-07-06 12:11:16.006464,190903,10.298463672553204,-0.7078829844882538,0.13453615917373357,24.484530715946224,10.173525859453997,7.1864366476351424,0.0,0.0,0.0
0,2021-07-06 12:11:16.014308,190911,10.296999191006874,-0.7080838072367959,0.13421958373445994,24.45519029836206,10.155010098911552,7.218487846543095,0.0,0.0,0.0
0,2021-07-06 12:11:16.021502,190918,10.29552615362737,-0.7082785822466814,0.13395922906781907,24.425698010856674,10.136058038154035,7.250082001070239,0.0,0.0,0.0
0,2021-07-06 12:11:16.028956,190926,10.294043625241692,-0.7084666230630436,0.13375751825523582,24.396055428711925,10.116662412915906,7.281212348762295,0.0,0.0,0.0
0,2021-07-06 12:11:16.036438,190933,10.292550715325822,-0.7086472726300895,0.13361656447843742,24.366264336762157,10.09681893999086,7.311873299487682,0.0,0.0,0.0
0,2021-07-06 12:11:16.044070,190941,10.291046584779917,-0.7088199022266908,0.13353817552245414,24.33632670673679,10.076526350595138,7.3420604590578815,0.0,0.0,0.0
0,2021-07-06 12:11:16.052692,190949,10.289530452148925,-0.7089839094458288,0.13352385922507243,24.306244671998652,10.055786398044054,7.371770649222073,0.0,0.0,0.0
0,2021-07-06 12:11:16.059897,190957,10.288001599909371,-0.709138714828558,0.1335748281024817,24.276020500874733,10.034603840959045,7.40100192350904,0.0,0.0,0.0
0,2021-07-06 12:11:16.069454,190966,10.286459381184757,-0.7092837574668885,0.1336920023659306,24.245656569838168,10.012986403692764,7.429753578454932,0.0,0.0,0.0
0,2021-07-06 12:11:16.076390,190973,10.28490322708583,-0.709418490294508,0.13387601117339443,24.215155337814867,9.990944715971818,7.458026159749866,0.0,0.0,0.0
0,2021-07-06 12:11:16.083723,190980,10.283332654622777,-0.7095423757100492,0.13412719237957954,24.184519321908073,9.9684922329635,7.485821463588839,0.0,0.0,0.0
0,2021-07-06 12:11:16.091818,190988,10.281747274753984,-0.7096548819836934,0.13444559166777964,24.153751073498313,9.94564513584029,7.513142534612483,0.0,0.0,0.0
0,2021-07-06 12:11:16.100300,190997,10.280146799882163,-0.7097554808512335,0.13483096265860584,24.12285315366792,9.922422212731885,7.5399936620701835,0.0,0.0,0.0
0,2021-07-06 12:11:16.107832,191004,10.278531050149166,-0.7098436467174639,0.1352827700648184,24.091828108312658,9.898844720577078,7.566380375089898,0.0,0.0,0.0
0,2021-07-06 12:11:16.116539,191013,10.276899958105265,-0.7099188578118159,0.13580019775568042,24.060678444227033,9.874936228742714,7.592309437222641,0.0,0.0,0.0
0,2021-07-06 12:11:16.124017,191021,10.27525357162658,-0.7099805993852671,0.13638216227484826,24.029406606493897,9.850722445016915,7.617788840282172,0.0,0.0,0.0
0,2021-07-06 12:11:16.131830,191028,10.27359205529837,-0.7100283686639576,0.1370273303974329,23.99801495577921,9.826231024419867,7.642827797424484,0.0,0.0,0.0
0,2021-07-06 12:11:16.139340,191036,10.271915690779851,-0.7100616809519487,0.13773413817493332,23.96650574365116,9.801491361610601,7.667436735265042,0.0,0.0,0.0
0,2021-07-06 12:11:16.148251,191045,10.270224876807807,-0.7100800761274448,0.13850080931320308,23.934881085062198,9.776534368004885,7.691627285064698,0.0,0.0,0.0
0,2021-07-06 12:11:16.157097,191054,10.268520129394158,-0.7100831248587817,0.1393253718232603,23.90314292813621,9.751392234599674,7.715412273422589,0.0,0.0,0.0
0,2021-07-06 12:11:16.164577,191061,10.266802082357897,-0.710070434187796,0.1402056727784969,23.871293021553768,9.72609818128682,7.738805712611383,0.0,0.0,0.0
0,2021-07-06 12:11:16.171137,191068,10.265071487779068,-0.7100416524908991,0.14113939162708142,23.839332879971373,9.700686193828268,7.761822789471759,0.0,0.0,0.0
0,2021-07-06 12:11:16.178428,191075,10.263329215708694,-0.7099964738732556,0.1421240529226596,23.80726374877243,9.675190750482969,7.78447985077069,0.0,0.0,0.0
0,2021-07-06 12:11:16.185343,191082,10.261576252683868,-0.7099346417191011,0.14315703948592845,23.775086570451972,9.649646540637711,7.806794383148888,0.0,0.0,0.0
0,2021-07-06 12:11:16.193052,191090,10.259813698918363,-0.7098559508854945,0.14423560688059395,23.7428019549855,9.624088177360216,7.828784986762777,0.0,0.0,0.0
0,2021-07-06 12:11:16.200276,191097,10.2580427640844,-0.7097602483710062,0.1453568997480658,23.71041015545936,9.598549905234817,7.850471342296638,0.0,0.0,0.0
0,2021-07-06 12:11:16.209190,191106,10.25626476142579,-0.7096474330216703,0.1465179701876714,23.677911049135314,9.57306530491702,7.87187417080205,0.0,0.0,0.0
0,2021-07-06 12:11:16.217173,191114,10.254481099850102,-0.7095174552267298,0.1477157980844525,23.64530412354662,9.547666996174089,7.8930151855806425,0.0,0.0,0.0
0,2021-07-06 12:11:16.226430,191123,10.252693273821807,-0.7093703172196496,0.14894731275526457,23.612588466600293,9.522386341369627,7.9139170357656115,0.0,0.0,0.0
0,2021-07-06 12:11:16.234312,191131,10.250902851241106,-0.7092060739636351,0.1502094144557249,23.579762759005742,9.497253152159034,7.934603241856135,0.0,0.0,0.0
0,2021-07-06 12:11:16.241964,191139,10.249111459837778,-0.7090248343696904,0.15149899415590273,23.546825267580328,9.472295403668792,7.9550981233637375,0.0,0.0,0.0
0,2021-07-06 12:11:16.249442,191146,10.247320772802242,-0.7088267628703687,0.15281295114937896,23.51377383927115,9.447538961490338,7.975426718090928,0.0,0.0,0.0
0,2021-07-06 12:11:16.258025,191155,10.24553249435289,-0.7086120815324135,0.15414820921228203,23.480605896933998,9.423007326765019,7.995614692328023,0.0,0.0,0.0
0,2021-07-06 12:11:16.265751,191162,10.243748345704118,-0.7083810725360241,0.15550173190281377,23.447318438022116,9.398721403604704,8.015688241905792,0.0,0.0,0.0
0,2021-07-06 12:11:16.274409,191171,10.24197005159608,-0.7081340804516042,0.15687053691326575,23.413908036619308,9.374699291548866,8.035673984955519,0.0,0.0,0.0
0,2021-07-06 12:11:16.284224,191181,10.2401993272944,-0.707871513858898,0.1582517093422035,23.380370848612966,9.350956104508816,8.05559884769341,0.0,0.0,0.0
0,2021-07-06 12:11:16.291200,191188,10.238437865784341,-0.7075938462666728,0.1596424141846282,23.346702619897787,9.327503817364619,8.075489944594489,0.0,0.0,0.0
0,2021-07-06 12:11:16.300734,191197,10.23668732486138,-0.707301616474235,0.1610399082932316,23.312898698362293,9.304351141712349,8.09537445411825,0.0,0.0,0.0
0,2021-07-06 12:11:16.308138,191205,10.234949314009059,-0.7069954283586144,0.16244155127964124,23.27895405138182,9.281503432260568,8.11527949074179,0.0,0.0,0.0
0,2021-07-06 12:11:16.316129,191213,10.233225381157965,-0.7066759499276357,0.1638448141633843,23.24486329063637,9.258962624895048,8.135231973817037,0.0,0.0,0.0
0,2021-07-06 12:11:16.324063,191221,10.231516999466303,-0.7063439117313556,0.16524728473645645,23.210620705075808,9.236727207330622,8.155258494084292,0.0,0.0,0.0
0,2021-07-06 12:11:16.331893,191229,10.229825554235699,-0.7060001052205952,0.1666466692140742,23.176220301764157,9.214792224061759,8.175385179236338,0.0,0.0,0.0
0,2021-07-06 12:11:16.338988,191236,10.228152330053794,-0.7056453816174636,0.16804079035841615,23.141655853772747,9.193149318013655,8.195637559930324,0.0,0.0,0.0
0,2021-07-06 12:11:16.346663,191243,10.22649849819629,-0.705280651001268,0.169427582914748,23.106920953840266,9.17178681072187,8.216040436890834,0.0,0.0,0.0
0,2021-07-06 12:11:16.353593,191250,10.224865104267044,-0.7049068805898427,0.17080508759163407,23.072009072049827,9.15068982144929,8.236617749082328,0.0,0.0,0.0
0,2021-07-06 12:11:16.361055,191258,10.223253056147817,-0.7045250916789507,0.17217144463406403,23.036913615684174,9.12984042424525,8.257392442976307,0.0,0.0,0.0
0,2021-07-06 12:11:16.368709,191265,10.221663112569663,-0.7041363559767855,0.1735248876362564,23.001627989709682,9.109217840799682,8.278386343271686,0.0,0.0,0.0
0,2021-07-06 12:11:16.377966,191275,10.220095872770933,-0.7037417927282478,0.17486373798475555,22.966145656613293,9.088798666297995,8.299620025642911,0.0,0.0,0.0
0,2021-07-06 12:11:16.386242,191283,10.218551767639147,-0.7033425673097404,0.17618640005705202,22.930460194542203,9.068557125260405,8.321112692371079,0.0,0.0,0.0
0,2021-07-06 12:11:16.394749,191291,10.217031052606687,-0.7029398906031584,0.17749135693049037,22.894565353166218,9.048465353857868,8.342882052066381,0.0,0.0,0.0
0,2021-07-06 12:11:16.402786,191299,10.215533802479595,-0.7025350178590257,0.178777166149959,22.85845510718399,9.028493704261292,8.364944204823438,0.0,0.0,0.0
0,2021-07-06 12:11:16.410322,191307,10.214059908274434,-0.7021292463844292,0.18004245523421467,22.82212370753979,9.008611065849037,8.387313534040583,0.0,0.0,0.0
0,2021-07-06 12:11:16.418242,191315,10.212609076153438,-0.7017239121874763,0.18128591689169293,22.78556573057058,8.988785198272772,8.41000260611954,0.0,0.0,0.0
